# Version 2.1 - nm, norm@500 to 1, cut digits
# Wavelength(nm)  Flambda(ergs/cm^s/s/nm)
300.00 8.549097e-96
300.10 8.549097e-96
300.20 8.549097e-96
300.30 8.549097e-96
300.40 8.549097e-96
300.50 8.549097e-96
300.60 8.549097e-96
300.70 8.549097e-96
300.80 8.549097e-96
300.90 8.549097e-96
301.00 8.549097e-96
301.10 8.549097e-96
301.20 8.549097e-96
301.30 8.549097e-96
301.40 8.549097e-96
301.50 8.549097e-96
301.60 8.549097e-96
301.70 8.549097e-96
301.80 8.549097e-96
301.90 8.549097e-96
302.00 8.549097e-96
302.10 8.549097e-96
302.20 8.549097e-96
302.30 8.549097e-96
302.40 8.549097e-96
302.50 8.549097e-96
302.60 8.549097e-96
302.70 8.549097e-96
302.80 8.549097e-96
302.90 8.549097e-96
303.00 8.549097e-96
303.10 8.549097e-96
303.20 8.549097e-96
303.30 8.549097e-96
303.40 8.549097e-96
303.50 8.549097e-96
303.60 8.549097e-96
303.70 8.549097e-96
303.80 8.549097e-96
303.90 8.549097e-96
304.00 8.549097e-96
304.10 8.549097e-96
304.20 8.549097e-96
304.30 8.549097e-96
304.40 8.549097e-96
304.50 8.549097e-96
304.60 8.549097e-96
304.70 8.549097e-96
304.80 8.549097e-96
304.90 8.549097e-96
305.00 8.549097e-96
305.10 8.549097e-96
305.20 8.549097e-96
305.30 8.549097e-96
305.40 8.549097e-96
305.50 8.549097e-96
305.60 8.549097e-96
305.70 8.549097e-96
305.80 8.549097e-96
305.90 8.549097e-96
306.00 8.549097e-96
306.10 8.549097e-96
306.20 8.549097e-96
306.30 8.549097e-96
306.40 8.549097e-96
306.50 8.549097e-96
306.60 8.549097e-96
306.70 8.549097e-96
306.80 8.549097e-96
306.90 8.549097e-96
307.00 8.549097e-96
307.10 8.549097e-96
307.20 8.549097e-96
307.30 8.549097e-96
307.40 8.549097e-96
307.50 8.549097e-96
307.60 8.549097e-96
307.70 8.549097e-96
307.80 8.549097e-96
307.90 8.549097e-96
308.00 8.549097e-96
308.10 8.549097e-96
308.20 8.549097e-96
308.30 8.549097e-96
308.40 8.549097e-96
308.50 8.549097e-96
308.60 8.549097e-96
308.70 8.549097e-96
308.80 8.549097e-96
308.90 8.549097e-96
309.00 8.549097e-96
309.10 8.549097e-96
309.20 8.549097e-96
309.30 8.549097e-96
309.40 8.549097e-96
309.50 8.549097e-96
309.60 8.549097e-96
309.70 8.549097e-96
309.80 8.549097e-96
309.90 8.549097e-96
310.00 8.549097e-96
310.10 8.549097e-96
310.20 8.549097e-96
310.30 8.549097e-96
310.40 8.549097e-96
310.50 8.549097e-96
310.60 8.549097e-96
310.70 8.549097e-96
310.80 8.549097e-96
310.90 8.549097e-96
311.00 8.549097e-96
311.10 8.549097e-96
311.20 8.549097e-96
311.30 8.549097e-96
311.40 8.549097e-96
311.50 8.549097e-96
311.60 8.549097e-96
311.70 8.549097e-96
311.80 8.549097e-96
311.90 8.549097e-96
312.00 8.549097e-96
312.10 8.549097e-96
312.20 8.549097e-96
312.30 8.549097e-96
312.40 8.549097e-96
312.50 8.549097e-96
312.60 8.549097e-96
312.70 8.549097e-96
312.80 8.549097e-96
312.90 8.549097e-96
313.00 8.549097e-96
313.10 8.549097e-96
313.20 8.549097e-96
313.30 8.549097e-96
313.40 8.549097e-96
313.50 8.549097e-96
313.60 8.549097e-96
313.70 8.549097e-96
313.80 8.549097e-96
313.90 8.549097e-96
314.00 8.549097e-96
314.10 8.549097e-96
314.20 8.549097e-96
314.30 8.549097e-96
314.40 8.549097e-96
314.50 8.549097e-96
314.60 8.549097e-96
314.70 8.549097e-96
314.80 8.549097e-96
314.90 8.549097e-96
315.00 8.549097e-96
315.10 8.549097e-96
315.20 8.549097e-96
315.30 8.549097e-96
315.40 8.549097e-96
315.50 8.549097e-96
315.60 8.549097e-96
315.70 8.549097e-96
315.80 8.549097e-96
315.90 8.549097e-96
316.00 8.549097e-96
316.10 8.549097e-96
316.20 8.549097e-96
316.30 8.549097e-96
316.40 8.549097e-96
316.50 8.549097e-96
316.60 8.549097e-96
316.70 8.549097e-96
316.80 8.549097e-96
316.90 8.549097e-96
317.00 8.549097e-96
317.10 8.549097e-96
317.20 8.549097e-96
317.30 8.549097e-96
317.40 8.549097e-96
317.50 8.549097e-96
317.60 8.549097e-96
317.70 8.549097e-96
317.80 8.549097e-96
317.90 8.549097e-96
318.00 8.549097e-96
318.10 8.549097e-96
318.20 8.549097e-96
318.30 8.549097e-96
318.40 8.549097e-96
318.50 8.549097e-96
318.60 8.549097e-96
318.70 8.549097e-96
318.80 8.549097e-96
318.90 8.549097e-96
319.00 8.549097e-96
319.10 8.549097e-96
319.20 8.549097e-96
319.30 8.549097e-96
319.40 8.549097e-96
319.50 8.549097e-96
319.60 8.549097e-96
319.70 8.549097e-96
319.80 8.549097e-96
319.90 8.549097e-96
320.00 8.549097e-96
320.10 8.549097e-96
320.20 8.549097e-96
320.30 8.549097e-96
320.40 8.549097e-96
320.50 8.549097e-96
320.60 8.549097e-96
320.70 8.549097e-96
320.80 8.549097e-96
320.90 8.549097e-96
321.00 8.549097e-96
321.10 8.549097e-96
321.20 8.549097e-96
321.30 8.549097e-96
321.40 8.549097e-96
321.50 8.549097e-96
321.60 8.549097e-96
321.70 8.549097e-96
321.80 8.549097e-96
321.90 8.549097e-96
322.00 8.549097e-96
322.10 8.549097e-96
322.20 8.549097e-96
322.30 8.549097e-96
322.40 8.549097e-96
322.50 8.549097e-96
322.60 8.549097e-96
322.70 8.549097e-96
322.80 8.549097e-96
322.90 8.549097e-96
323.00 8.549097e-96
323.10 8.549097e-96
323.20 8.549097e-96
323.30 8.549097e-96
323.40 8.549097e-96
323.50 8.549097e-96
323.60 8.549097e-96
323.70 8.549097e-96
323.80 8.549097e-96
323.90 8.549097e-96
324.00 8.549097e-96
324.10 8.549097e-96
324.20 8.549097e-96
324.30 8.549097e-96
324.40 8.549097e-96
324.50 8.549097e-96
324.60 8.549097e-96
324.70 8.549097e-96
324.80 8.549097e-96
324.90 8.549097e-96
325.00 8.549097e-96
325.10 8.549097e-96
325.20 8.549097e-96
325.30 8.549097e-96
325.40 8.549097e-96
325.50 8.549097e-96
325.60 8.549097e-96
325.70 8.549097e-96
325.80 8.549097e-96
325.90 8.549097e-96
326.00 8.549097e-96
326.10 8.549097e-96
326.20 8.549097e-96
326.30 8.549097e-96
326.40 8.549097e-96
326.50 8.549097e-96
326.60 8.549097e-96
326.70 8.549097e-96
326.80 8.549097e-96
326.90 8.549097e-96
327.00 8.549097e-96
327.10 8.549097e-96
327.20 8.549097e-96
327.30 8.549097e-96
327.40 8.549097e-96
327.50 8.549097e-96
327.60 8.549097e-96
327.70 8.549097e-96
327.80 8.549097e-96
327.90 8.549097e-96
328.00 8.549097e-96
328.10 8.549097e-96
328.20 8.549097e-96
328.30 8.549097e-96
328.40 8.549097e-96
328.50 8.549097e-96
328.60 8.549097e-96
328.70 8.549097e-96
328.80 8.549097e-96
328.90 8.549097e-96
329.00 8.549097e-96
329.10 8.549097e-96
329.20 8.549097e-96
329.30 8.549097e-96
329.40 8.549097e-96
329.50 8.549097e-96
329.60 8.549097e-96
329.70 8.549097e-96
329.80 8.549097e-96
329.90 8.549097e-96
330.00 8.549097e-96
330.10 8.549097e-96
330.20 8.549097e-96
330.30 8.549097e-96
330.40 8.549097e-96
330.50 8.549097e-96
330.60 8.549097e-96
330.70 8.549097e-96
330.80 8.549097e-96
330.90 8.549097e-96
331.00 8.549097e-96
331.10 8.549097e-96
331.20 8.549097e-96
331.30 8.549097e-96
331.40 8.549097e-96
331.50 8.549097e-96
331.60 8.549097e-96
331.70 8.549097e-96
331.80 8.549097e-96
331.90 8.549097e-96
332.00 8.549097e-96
332.10 8.549097e-96
332.20 8.549097e-96
332.30 8.549097e-96
332.40 8.549097e-96
332.50 8.549097e-96
332.60 8.549097e-96
332.70 8.549097e-96
332.80 8.549097e-96
332.90 8.549097e-96
333.00 8.549097e-96
333.10 8.549097e-96
333.20 8.549097e-96
333.30 8.549097e-96
333.40 8.549097e-96
333.50 8.549097e-96
333.60 8.549097e-96
333.70 8.549097e-96
333.80 8.549097e-96
333.90 8.549097e-96
334.00 8.549097e-96
334.10 8.549097e-96
334.20 8.549097e-96
334.30 8.549097e-96
334.40 8.549097e-96
334.50 8.549097e-96
334.60 8.549097e-96
334.70 8.549097e-96
334.80 8.549097e-96
334.90 8.549097e-96
335.00 8.549097e-96
335.10 8.549097e-96
335.20 8.549097e-96
335.30 8.549097e-96
335.40 8.549097e-96
335.50 8.549097e-96
335.60 8.549097e-96
335.70 8.549097e-96
335.80 8.549097e-96
335.90 8.549097e-96
336.00 8.549097e-96
336.10 8.549097e-96
336.20 8.549097e-96
336.30 8.549097e-96
336.40 8.549097e-96
336.50 8.549097e-96
336.60 8.549097e-96
336.70 8.549097e-96
336.80 8.549097e-96
336.90 8.549097e-96
337.00 8.549097e-96
337.10 8.549097e-96
337.20 8.549097e-96
337.30 8.549097e-96
337.40 8.549097e-96
337.50 8.549097e-96
337.60 8.549097e-96
337.70 8.549097e-96
337.80 8.549097e-96
337.90 8.549097e-96
338.00 8.549097e-96
338.10 8.549097e-96
338.20 8.549097e-96
338.30 8.549097e-96
338.40 8.549097e-96
338.50 8.549097e-96
338.60 8.549097e-96
338.70 8.549097e-96
338.80 8.549097e-96
338.90 8.549097e-96
339.00 8.549097e-96
339.10 8.549097e-96
339.20 8.549097e-96
339.30 8.549097e-96
339.40 8.549097e-96
339.50 8.549097e-96
339.60 8.549097e-96
339.70 8.549097e-96
339.80 8.549097e-96
339.90 8.549097e-96
340.00 8.549097e-96
340.10 8.549097e-96
340.20 8.549097e-96
340.30 8.549097e-96
340.40 8.549097e-96
340.50 8.549097e-96
340.60 8.549097e-96
340.70 8.549097e-96
340.80 8.549097e-96
340.90 8.549097e-96
341.00 8.549097e-96
341.10 8.549097e-96
341.20 8.549097e-96
341.30 8.549097e-96
341.40 8.549097e-96
341.50 8.549097e-96
341.60 8.549097e-96
341.70 8.549097e-96
341.80 8.549097e-96
341.90 8.549097e-96
342.00 8.549097e-96
342.10 8.549097e-96
342.20 8.549097e-96
342.30 8.549097e-96
342.40 8.549097e-96
342.50 8.549097e-96
342.60 8.549097e-96
342.70 8.549097e-96
342.80 8.549097e-96
342.90 8.549097e-96
343.00 8.549097e-96
343.10 8.549097e-96
343.20 8.549097e-96
343.30 8.549097e-96
343.40 8.549097e-96
343.50 8.549097e-96
343.60 8.549097e-96
343.70 8.549097e-96
343.80 8.549097e-96
343.90 8.549097e-96
344.00 8.549097e-96
344.10 8.549097e-96
344.20 8.549097e-96
344.30 8.549097e-96
344.40 8.549097e-96
344.50 8.549097e-96
344.60 8.549097e-96
344.70 8.549097e-96
344.80 8.549097e-96
344.90 8.549097e-96
345.00 8.549097e-96
345.10 8.549097e-96
345.20 8.549097e-96
345.30 8.549097e-96
345.40 8.549097e-96
345.50 8.549097e-96
345.60 8.549097e-96
345.70 8.549097e-96
345.80 8.549097e-96
345.90 8.549097e-96
346.00 8.549097e-96
346.10 8.549097e-96
346.20 8.549097e-96
346.30 8.549097e-96
346.40 8.549097e-96
346.50 8.549097e-96
346.60 8.549097e-96
346.70 8.549097e-96
346.80 8.549097e-96
346.90 8.549097e-96
347.00 8.549097e-96
347.10 8.549097e-96
347.20 8.549097e-96
347.30 8.549097e-96
347.40 8.549097e-96
347.50 8.549097e-96
347.60 8.549097e-96
347.70 8.549097e-96
347.80 8.549097e-96
347.90 8.549097e-96
348.00 8.549097e-96
348.10 8.549097e-96
348.20 8.549097e-96
348.30 8.549097e-96
348.40 8.549097e-96
348.50 8.549097e-96
348.60 8.549097e-96
348.70 8.549097e-96
348.80 8.549097e-96
348.90 8.549097e-96
349.00 8.549097e-96
349.10 8.549097e-96
349.20 8.549097e-96
349.30 8.549097e-96
349.40 8.549097e-96
349.50 8.549097e-96
349.60 8.549097e-96
349.70 8.549097e-96
349.80 8.549097e-96
349.90 8.549097e-96
350.00 8.549097e-96
350.10 8.549097e-96
350.20 8.549097e-96
350.30 8.549097e-96
350.40 8.549097e-96
350.50 8.549097e-96
350.60 8.549097e-96
350.70 8.549097e-96
350.80 8.549097e-96
350.90 8.549097e-96
351.00 8.549097e-96
351.10 8.549097e-96
351.20 8.549097e-96
351.30 8.549097e-96
351.40 8.549097e-96
351.50 8.549097e-96
351.60 8.549097e-96
351.70 8.549097e-96
351.80 8.549097e-96
351.90 8.549097e-96
352.00 8.549097e-96
352.10 8.549097e-96
352.20 8.549097e-96
352.30 8.549097e-96
352.40 8.549097e-96
352.50 8.549097e-96
352.60 8.549097e-96
352.70 8.549097e-96
352.80 8.549097e-96
352.90 8.549097e-96
353.00 8.549097e-96
353.10 8.549097e-96
353.20 8.549097e-96
353.30 8.549097e-96
353.40 8.549097e-96
353.50 8.549097e-96
353.60 8.549097e-96
353.70 8.549097e-96
353.80 8.549097e-96
353.90 8.549097e-96
354.00 8.549097e-96
354.10 8.549097e-96
354.20 8.549097e-96
354.30 8.549097e-96
354.40 8.549097e-96
354.50 8.549097e-96
354.60 8.549097e-96
354.70 8.549097e-96
354.80 8.549097e-96
354.90 8.549097e-96
355.00 8.549097e-96
355.10 8.549097e-96
355.20 8.549097e-96
355.30 8.549097e-96
355.40 8.549097e-96
355.50 8.549097e-96
355.60 8.549097e-96
355.70 8.549097e-96
355.80 8.549097e-96
355.90 8.549097e-96
356.00 8.549097e-96
356.10 8.549097e-96
356.20 8.549097e-96
356.30 8.549097e-96
356.40 8.549097e-96
356.50 8.549097e-96
356.60 8.549097e-96
356.70 8.549097e-96
356.80 8.549097e-96
356.90 8.549097e-96
357.00 8.549097e-96
357.10 8.549097e-96
357.20 8.549097e-96
357.30 8.549097e-96
357.40 8.549097e-96
357.50 8.549097e-96
357.60 8.549097e-96
357.70 8.549097e-96
357.80 8.549097e-96
357.90 8.549097e-96
358.00 8.549097e-96
358.10 8.549097e-96
358.20 8.549097e-96
358.30 8.549097e-96
358.40 8.549097e-96
358.50 8.549097e-96
358.60 8.549097e-96
358.70 8.549097e-96
358.80 8.549097e-96
358.90 8.549097e-96
359.00 8.549097e-96
359.10 8.549097e-96
359.20 8.549097e-96
359.30 8.549097e-96
359.40 8.549097e-96
359.50 8.549097e-96
359.60 8.549097e-96
359.70 8.549097e-96
359.80 8.549097e-96
359.90 8.549097e-96
360.00 8.549097e-96
360.10 8.549097e-96
360.20 8.549097e-96
360.30 8.549097e-96
360.40 8.549097e-96
360.50 8.549097e-96
360.60 8.549097e-96
360.70 8.549097e-96
360.80 8.549097e-96
360.90 8.549097e-96
361.00 8.549097e-96
361.10 8.549097e-96
361.20 8.549097e-96
361.30 8.549097e-96
361.40 8.549097e-96
361.50 8.549097e-96
361.60 8.549097e-96
361.70 8.549097e-96
361.80 8.549097e-96
361.90 8.549097e-96
362.00 8.549097e-96
362.10 8.549097e-96
362.20 8.549097e-96
362.30 8.549097e-96
362.40 8.549097e-96
362.50 8.549097e-96
362.60 8.549097e-96
362.70 8.549097e-96
362.80 8.549097e-96
362.90 8.549097e-96
363.00 8.549097e-96
363.10 8.549097e-96
363.20 8.549097e-96
363.30 8.549097e-96
363.40 8.549097e-96
363.50 8.549097e-96
363.60 8.549097e-96
363.70 8.549097e-96
363.80 8.549097e-96
363.90 8.549097e-96
364.00 8.549097e-96
364.10 8.549097e-96
364.20 8.549097e-96
364.30 8.549097e-96
364.40 8.549097e-96
364.50 8.549097e-96
364.60 8.549097e-96
364.70 8.549097e-96
364.80 8.549097e-96
364.90 8.549097e-96
365.00 8.549097e-96
365.10 8.549097e-96
365.20 8.549097e-96
365.30 8.549097e-96
365.40 8.549097e-96
365.50 8.549097e-96
365.60 8.549097e-96
365.70 8.549097e-96
365.80 8.549097e-96
365.90 8.549097e-96
366.00 8.549097e-96
366.10 8.549097e-96
366.20 8.549097e-96
366.30 8.549097e-96
366.40 8.549097e-96
366.50 8.549097e-96
366.60 8.549097e-96
366.70 8.549097e-96
366.80 8.549097e-96
366.90 8.549097e-96
367.00 8.549097e-96
367.10 8.549097e-96
367.20 8.549097e-96
367.30 8.549097e-96
367.40 8.549097e-96
367.50 8.549097e-96
367.60 8.549097e-96
367.70 8.549097e-96
367.80 8.549097e-96
367.90 8.549097e-96
368.00 8.549097e-96
368.10 8.549097e-96
368.20 8.549097e-96
368.30 8.549097e-96
368.40 8.549097e-96
368.50 8.549097e-96
368.60 8.549097e-96
368.70 8.549097e-96
368.80 8.549097e-96
368.90 8.549097e-96
369.00 8.549097e-96
369.10 8.549097e-96
369.20 8.549097e-96
369.30 8.549097e-96
369.40 8.549097e-96
369.50 8.549097e-96
369.60 8.549097e-96
369.70 8.549097e-96
369.80 8.549097e-96
369.90 8.549097e-96
370.00 8.549097e-96
370.10 8.549097e-96
370.20 8.549097e-96
370.30 8.549097e-96
370.40 8.549097e-96
370.50 8.549097e-96
370.60 8.549097e-96
370.70 8.549097e-96
370.80 8.549097e-96
370.90 8.549097e-96
371.00 8.549097e-96
371.10 8.549097e-96
371.20 8.549097e-96
371.30 8.549097e-96
371.40 8.549097e-96
371.50 8.549097e-96
371.60 8.549097e-96
371.70 8.549097e-96
371.80 8.549097e-96
371.90 8.549097e-96
372.00 8.549097e-96
372.10 8.549097e-96
372.20 8.549097e-96
372.30 8.549097e-96
372.40 8.549097e-96
372.50 8.549097e-96
372.60 8.549097e-96
372.70 8.549097e-96
372.80 8.549097e-96
372.90 8.549097e-96
373.00 8.549097e-96
373.10 8.549097e-96
373.20 8.549097e-96
373.30 8.549097e-96
373.40 8.549097e-96
373.50 8.549097e-96
373.60 8.549097e-96
373.70 8.549097e-96
373.80 8.549097e-96
373.90 8.549097e-96
374.00 8.549097e-96
374.10 8.549097e-96
374.20 8.549097e-96
374.30 8.549097e-96
374.40 8.549097e-96
374.50 8.549097e-96
374.60 8.549097e-96
374.70 8.549097e-96
374.80 8.549097e-96
374.90 8.549097e-96
375.00 8.549097e-96
375.10 8.549097e-96
375.20 8.549097e-96
375.30 8.549097e-96
375.40 8.549097e-96
375.50 8.549097e-96
375.60 8.549097e-96
375.70 8.549097e-96
375.80 8.549097e-96
375.90 8.549097e-96
376.00 8.549097e-96
376.10 8.549097e-96
376.20 8.549097e-96
376.30 8.549097e-96
376.40 8.549097e-96
376.50 8.549097e-96
376.60 8.549097e-96
376.70 8.549097e-96
376.80 8.549097e-96
376.90 8.549097e-96
377.00 8.549097e-96
377.10 8.549097e-96
377.20 8.549097e-96
377.30 8.549097e-96
377.40 8.549097e-96
377.50 8.549097e-96
377.60 8.549097e-96
377.70 8.549097e-96
377.80 8.549097e-96
377.90 8.549097e-96
378.00 8.549097e-96
378.10 8.549097e-96
378.20 8.549097e-96
378.30 8.549097e-96
378.40 8.549097e-96
378.50 8.549097e-96
378.60 8.549097e-96
378.70 8.549097e-96
378.80 8.549097e-96
378.90 8.549097e-96
379.00 8.549097e-96
379.10 8.549097e-96
379.20 8.549097e-96
379.30 8.549097e-96
379.40 8.549097e-96
379.50 8.549097e-96
379.60 8.549097e-96
379.70 8.549097e-96
379.80 8.549097e-96
379.90 8.549097e-96
380.00 8.549097e-96
380.10 8.549097e-96
380.20 8.549097e-96
380.30 8.549097e-96
380.40 8.549097e-96
380.50 8.549097e-96
380.60 8.549097e-96
380.70 8.549097e-96
380.80 8.549097e-96
380.90 8.549097e-96
381.00 8.549097e-96
381.10 8.549097e-96
381.20 8.549097e-96
381.30 8.549097e-96
381.40 8.549097e-96
381.50 8.549097e-96
381.60 8.549097e-96
381.70 8.549097e-96
381.80 8.549097e-96
381.90 8.549097e-96
382.00 8.549097e-96
382.10 8.549097e-96
382.20 8.549097e-96
382.30 8.549097e-96
382.40 8.549097e-96
382.50 8.549097e-96
382.60 8.549097e-96
382.70 8.549097e-96
382.80 8.549097e-96
382.90 8.549097e-96
383.00 8.549097e-96
383.10 8.549097e-96
383.20 8.549097e-96
383.30 8.549097e-96
383.40 8.549097e-96
383.50 8.549097e-96
383.60 8.549097e-96
383.70 8.549097e-96
383.80 8.549097e-96
383.90 8.549097e-96
384.00 8.549097e-96
384.10 8.549097e-96
384.20 8.549097e-96
384.30 8.549097e-96
384.40 8.549097e-96
384.50 8.549097e-96
384.60 8.549097e-96
384.70 8.549097e-96
384.80 8.549097e-96
384.90 8.549097e-96
385.00 8.549097e-96
385.10 8.549097e-96
385.20 8.549097e-96
385.30 8.549097e-96
385.40 8.549097e-96
385.50 8.549097e-96
385.60 8.549097e-96
385.70 8.549097e-96
385.80 8.549097e-96
385.90 8.549097e-96
386.00 8.549097e-96
386.10 8.549097e-96
386.20 8.549097e-96
386.30 8.549097e-96
386.40 8.549097e-96
386.50 8.549097e-96
386.60 8.549097e-96
386.70 8.549097e-96
386.80 8.549097e-96
386.90 8.549097e-96
387.00 8.549097e-96
387.10 8.549097e-96
387.20 8.549097e-96
387.30 8.549097e-96
387.40 8.549097e-96
387.50 8.549097e-96
387.60 8.549097e-96
387.70 8.549097e-96
387.80 8.549097e-96
387.90 8.549097e-96
388.00 8.549097e-96
388.10 8.549097e-96
388.20 8.549097e-96
388.30 8.549097e-96
388.40 8.549097e-96
388.50 8.549097e-96
388.60 8.549097e-96
388.70 8.549097e-96
388.80 8.549097e-96
388.90 8.549097e-96
389.00 8.549097e-96
389.10 8.549097e-96
389.20 8.549097e-96
389.30 8.549097e-96
389.40 8.549097e-96
389.50 8.549097e-96
389.60 8.549097e-96
389.70 8.549097e-96
389.80 8.549097e-96
389.90 8.549097e-96
390.00 8.549097e-96
390.10 8.549097e-96
390.20 8.549097e-96
390.30 8.549097e-96
390.40 8.549097e-96
390.50 8.549097e-96
390.60 8.549097e-96
390.70 8.549097e-96
390.80 8.549097e-96
390.90 8.549097e-96
391.00 8.549097e-96
391.10 8.549097e-96
391.20 8.549097e-96
391.30 8.549097e-96
391.40 8.549097e-96
391.50 8.549097e-96
391.60 8.549097e-96
391.70 8.549097e-96
391.80 8.549097e-96
391.90 8.549097e-96
392.00 8.549097e-96
392.10 8.549097e-96
392.20 8.549097e-96
392.30 8.549097e-96
392.40 8.549097e-96
392.50 8.549097e-96
392.60 8.549097e-96
392.70 8.549097e-96
392.80 8.549097e-96
392.90 8.549097e-96
393.00 8.549097e-96
393.10 8.549097e-96
393.20 8.549097e-96
393.30 8.549097e-96
393.40 8.549097e-96
393.50 8.549097e-96
393.60 8.549097e-96
393.70 8.549097e-96
393.80 8.549097e-96
393.90 8.549097e-96
394.00 8.549097e-96
394.10 8.549097e-96
394.20 8.549097e-96
394.30 8.549097e-96
394.40 8.549097e-96
394.50 8.549097e-96
394.60 8.549097e-96
394.70 8.549097e-96
394.80 8.549097e-96
394.90 8.549097e-96
395.00 8.463606e-96
395.10 8.378115e-96
395.20 8.292624e-96
395.30 8.207133e-96
395.40 8.121642e-96
395.50 8.036151e-96
395.60 7.95066e-96
395.70 7.865169e-96
395.80 7.779678e-96
395.90 7.694187e-96
396.00 7.608696e-96
396.10 7.523205e-96
396.20 7.437714e-96
396.30 7.352223e-96
396.40 7.266732e-96
396.50 7.181242e-96
396.60 7.095751e-96
396.70 7.01026e-96
396.80 6.924769e-96
396.90 6.839278e-96
397.00 6.753787e-96
397.10 6.668296e-96
397.20 6.582805e-96
397.30 6.497314e-96
397.40 6.411823e-96
397.50 6.326332e-96
397.60 6.240841e-96
397.70 6.15535e-96
397.80 6.069859e-96
397.90 0.007754377
398.00 0.02476451
398.10 0.0447353
398.20 0.06116563
398.30 0.06873473
398.40 0.06873473
398.50 0.06873473
398.60 0.06873473
398.70 0.06873473
398.80 0.06873473
398.90 0.06873473
399.00 0.081343
399.10 0.1109807
399.20 0.1528601
399.30 0.2012673
399.40 0.2513571
399.50 0.2997176
399.60 0.3438062
399.70 0.3833793
399.80 0.4217818
399.90 0.4627231
400.00 0.5070943
400.10 0.5524265
400.20 0.5943586
400.30 0.6290611
400.40 0.6554829
400.50 0.6754269
400.60 0.6916007
400.70 0.707514
400.80 0.7269929
400.90 0.7530006
401.00 0.7871094
401.10 0.8287982
401.20 0.875095
401.30 0.9206947
401.40 0.9594541
401.50 0.986513
401.60 0.9997259
401.70 0.9997259
401.80 0.9997259
401.90 0.9997259
402.00 0.9997259
402.10 0.9997259
402.20 0.9997259
402.30 0.9997259
402.40 1.012156
402.50 1.044892
402.60 1.096246
402.70 1.161707
402.80 1.236397
402.90 1.315176
403.00 1.391911
403.10 1.462965
403.20 1.528188
403.30 1.587849
403.40 1.641214
403.50 1.687431
403.60 1.726522
403.70 1.757854
403.80 1.778989
403.90 1.788196
404.00 1.788196
404.10 1.788196
404.20 1.788196
404.30 1.788196
404.40 1.788196
404.50 1.788196
404.60 1.788196
404.70 1.788196
404.80 1.788196
404.90 1.788196
405.00 1.788196
405.10 1.788196
405.20 1.788196
405.30 1.788196
405.40 1.788196
405.50 1.788196
405.60 1.789022
405.70 1.794666
405.80 1.804725
405.90 1.817696
406.00 1.830353
406.10 1.838537
406.20 1.838537
406.30 1.838537
406.40 1.838537
406.50 1.838537
406.60 1.838537
406.70 1.838537
406.80 1.838537
406.90 1.838537
407.00 1.838537
407.10 1.838537
407.20 1.838537
407.30 1.838537
407.40 1.838537
407.50 1.838537
407.60 1.838537
407.70 1.838537
407.80 1.838537
407.90 1.830783
408.00 1.813773
408.10 1.793802
408.20 1.777371
408.30 1.769802
408.40 1.769802
408.50 1.769802
408.60 1.769802
408.70 1.769802
408.80 1.774401
408.90 1.786286
409.00 1.789774
409.10 1.777882
409.20 1.754099
409.30 1.723193
409.40 1.68939
409.50 1.655032
409.60 1.620465
409.70 1.584068
409.80 1.545665
409.90 1.504724
410.00 1.460353
410.10 1.415021
410.20 1.373089
410.30 1.338386
410.40 1.311964
410.50 1.301648
410.60 1.305403
410.70 1.316116
410.80 1.326217
410.90 1.329104
411.00 1.319966
411.10 1.298279
411.20 1.268549
411.30 1.238352
411.40 1.215531
411.50 1.206343
411.60 1.213291
411.70 1.233659
411.80 1.25084
411.90 1.261573
412.00 1.263989
412.10 1.263989
412.20 1.263989
412.30 1.263989
412.40 1.251559
412.50 1.218823
412.60 1.167469
412.70 1.102008
412.80 1.027318
412.90 0.9540715
413.00 0.889867
413.10 0.8373387
413.20 0.7944933
413.30 0.7580167
413.40 0.7248176
413.50 0.6923853
413.60 0.6585111
413.70 0.6271798
413.80 0.6060447
413.90 0.5968374
414.00 0.5968374
414.10 0.5968374
414.20 0.5968374
414.30 0.5968374
414.40 0.5968374
414.50 0.5968374
414.60 0.5968374
414.70 0.5968374
414.80 0.5968374
414.90 0.5968374
415.00 0.5968374
415.10 0.5968374
415.20 0.5968374
415.30 0.5968374
415.40 0.5968374
415.50 0.5968374
415.60 0.5960117
415.70 0.5903675
415.80 0.5803089
415.90 0.5673377
416.00 0.5546807
416.10 0.5464965
416.20 0.5464965
416.30 0.5464965
416.40 0.5464965
416.50 0.5464965
416.60 0.5464965
416.70 0.5464965
416.80 0.5464965
416.90 0.5464965
417.00 0.5464965
417.10 0.5464965
417.20 0.5464965
417.30 0.5464965
417.40 0.5464965
417.50 0.5464965
417.60 0.5544701
417.70 0.575679
417.80 0.6080962
417.90 0.6490153
418.00 0.6944487
418.10 0.7398143
418.20 0.7821341
418.30 0.8221665
418.40 0.8641018
418.50 0.9125898
418.60 0.9708964
418.70 1.03931
418.80 1.109228
418.90 1.17083
419.00 1.219873
419.10 1.253337
419.20 1.26884
419.30 1.264763
419.40 1.248476
419.50 1.234473
419.60 1.224952
419.70 1.221775
419.80 1.221775
419.90 1.221775
420.00 1.221775
420.10 1.221775
420.20 1.221775
420.30 1.230124
420.40 1.253527
420.50 1.278188
420.60 1.295673
420.70 1.302005
420.80 1.296374
420.90 1.280918
421.00 1.260147
421.10 1.240145
421.20 1.223577
421.30 1.209014
421.40 1.201498
421.50 1.201167
421.60 1.205604
421.70 1.212404
421.80 1.219412
421.90 1.225282
422.00 1.229995
422.10 1.229995
422.20 1.229995
422.30 1.229995
422.40 1.229995
422.50 1.229995
422.60 1.229995
422.70 1.229995
422.80 1.229995
422.90 1.224462
423.00 1.211932
423.10 1.193406
423.20 1.171028
423.30 1.147844
423.40 1.127678
423.50 1.117903
423.60 1.120812
423.70 1.135394
423.80 1.158845
423.90 1.191819
424.00 1.233536
424.10 1.281609
424.20 1.331118
424.30 1.375557
424.40 1.409181
424.50 1.428928
424.60 1.434719
424.70 1.434719
424.80 1.434719
424.90 1.434719
425.00 1.434719
425.10 1.434719
425.20 1.434719
425.30 1.434719
425.40 1.434719
425.50 1.434719
425.60 1.434719
425.70 1.434719
425.80 1.434719
425.90 1.434719
426.00 1.434719
426.10 1.434719
426.20 1.434719
426.30 1.434719
426.40 1.434719
426.50 1.437487
426.60 1.444915
426.70 1.455594
426.80 1.467247
426.90 1.477251
427.00 1.482082
427.10 1.482082
427.20 1.482082
427.30 1.482082
427.40 1.482082
427.50 1.482082
427.60 1.474108
427.70 1.462641
427.80 1.457456
427.90 1.457386
428.00 1.460082
428.10 1.461859
428.20 1.457538
428.30 1.441192
428.40 1.407914
428.50 1.359426
428.60 1.30112
428.70 1.232706
428.80 1.15819
428.90 1.085616
429.00 1.024404
429.10 0.9774026
429.20 0.9474745
429.30 0.9377661
429.40 0.9421631
429.50 0.948228
429.60 0.9567833
429.70 0.9672828
429.80 0.9789275
429.90 0.9912291
430.00 1.002883
430.10 1.012164
430.20 1.017778
430.30 1.012189
430.40 0.9924845
430.50 0.9664843
430.60 0.9423384
430.70 0.925266
430.80 0.9163845
430.90 0.9150134
431.00 0.9191111
431.10 0.9230369
431.20 0.9230369
431.30 0.9221978
431.40 0.9137757
431.50 0.8962361
431.60 0.8716385
431.70 0.8444699
431.80 0.8208251
431.90 0.8074337
432.00 0.8057091
432.10 0.8127783
432.20 0.8204021
432.30 0.8266985
432.40 0.8299118
432.50 0.8299118
432.60 0.8299118
432.70 0.8299118
432.80 0.8299118
432.90 0.8299118
433.00 0.8299118
433.10 0.8299118
433.20 0.8299118
433.30 0.8299118
433.40 0.8299118
433.50 0.8259016
433.60 0.8177756
433.70 0.8031938
433.80 0.7839977
433.90 0.7590681
434.00 0.7283546
434.10 0.6943104
434.20 0.663174
434.30 0.6427216
434.40 0.6389488
434.50 0.6542206
434.60 0.6878114
434.70 0.7302163
434.80 0.7736725
434.90 0.8168707
435.00 0.8594633
435.10 0.902119
435.20 0.9459485
435.30 0.9912165
435.40 1.037065
435.50 1.080958
435.60 1.118595
435.70 1.145515
435.80 1.158976
435.90 1.158976
436.00 1.158976
436.10 1.158976
436.20 1.158976
436.30 1.158976
436.40 1.158976
436.50 1.156208
436.60 1.14878
436.70 1.138101
436.80 1.126448
436.90 1.116444
437.00 1.111613
437.10 1.111613
437.20 1.111613
437.30 1.111613
437.40 1.111613
437.50 1.111613
437.60 1.111613
437.70 1.107469
437.80 1.094021
437.90 1.074239
438.00 1.05232
438.10 1.032774
438.20 1.01953
438.30 1.014416
438.40 1.015804
438.50 1.01618
438.60 1.01618
438.70 1.01618
438.80 1.01618
438.90 1.015266
439.00 1.011339
439.10 1.007132
439.20 1.00346
439.30 0.9997444
439.40 0.9953474
439.50 0.9892825
439.60 0.9807271
439.70 0.9776302
439.80 0.9816207
439.90 0.9908432
440.00 1.003543
440.10 1.018872
440.20 1.036717
440.30 1.056423
440.40 1.074973
440.50 1.088291
440.60 1.09495
440.70 1.096403
440.80 1.094313
440.90 1.08813
441.00 1.079834
441.10 1.075908
441.20 1.075908
441.30 1.075908
441.40 1.075908
441.50 1.075908
441.60 1.075908
441.70 1.078618
441.80 1.090738
441.90 1.107581
442.00 1.126826
442.10 1.146029
442.20 1.164136
442.30 1.182446
442.40 1.202732
442.50 1.224835
442.60 1.24541
442.70 1.265463
442.80 1.285749
442.90 1.306115
443.00 1.326945
443.10 1.348582
443.20 1.370943
443.30 1.3938
443.40 1.416104
443.50 1.436901
443.60 1.455843
443.70 1.47203
443.80 1.480028
443.90 1.479811
444.00 1.47272
444.10 1.459573
444.20 1.4412
444.30 1.417882
444.40 1.39253
444.50 1.368707
444.60 1.349907
444.70 1.33913
444.80 1.338441
444.90 1.34632
445.00 1.357636
445.10 1.366066
445.20 1.365898
445.30 1.353062
445.40 1.326738
445.50 1.291155
445.60 1.254694
445.70 1.227774
445.80 1.214313
445.90 1.217785
446.00 1.22607
446.10 1.238524
446.20 1.251799
446.30 1.262405
446.40 1.268016
446.50 1.268016
446.60 1.268016
446.70 1.268016
446.80 1.268016
446.90 1.268016
447.00 1.268016
447.10 1.268016
447.20 1.274332
447.30 1.290461
447.40 1.31697
447.50 1.354027
447.60 1.401696
447.70 1.453319
447.80 1.5037
447.90 1.550112
448.00 1.590721
448.10 1.625194
448.20 1.653673
448.30 1.675923
448.40 1.693342
448.50 1.709528
448.60 1.718979
448.70 1.724816
448.80 1.729344
448.90 1.733048
449.00 1.735052
449.10 1.735052
449.20 1.735052
449.30 1.735052
449.40 1.735052
449.50 1.735052
449.60 1.735052
449.70 1.727649
449.80 1.712014
449.90 1.69049
450.00 1.666137
450.10 1.641526
450.20 1.618068
450.30 1.595602
450.40 1.573353
450.50 1.551746
450.60 1.531819
450.70 1.515428
450.80 1.51021
450.90 1.517075
451.00 1.533471
451.10 1.551858
451.20 1.570909
451.30 1.590897
451.40 1.613875
451.50 1.642879
451.60 1.680396
451.70 1.724535
451.80 1.766469
451.90 1.805009
452.00 1.838138
452.10 1.864662
452.20 1.884246
452.30 1.896458
452.40 1.902218
452.50 1.904689
452.60 1.907011
452.70 1.910067
452.80 1.913619
452.90 1.917371
453.00 1.919743
453.10 1.917718
453.20 1.908511
453.30 1.891267
453.40 1.868963
453.50 1.848166
453.60 1.829224
453.70 1.817313
453.80 1.814545
453.90 1.819684
454.00 1.829998
454.10 1.842616
454.20 1.853182
454.30 1.857447
454.40 1.852948
454.50 1.841753
454.60 1.82117
454.70 1.789542
454.80 1.746775
454.90 1.695697
455.00 1.645262
455.10 1.607487
455.20 1.588016
455.30 1.589889
455.40 1.61022
455.50 1.639703
455.60 1.666925
455.70 1.680473
455.80 1.680473
455.90 1.677001
456.00 1.668716
456.10 1.656263
456.20 1.642987
456.30 1.632381
456.40 1.62677
456.50 1.62677
456.60 1.62677
456.70 1.62677
456.80 1.62677
456.90 1.627796
457.00 1.638377
457.10 1.655812
457.20 1.670853
457.30 1.677509
457.40 1.672729
457.50 1.654179
457.60 1.619988
457.70 1.569436
457.80 1.505271
457.90 1.437792
458.00 1.370973
458.10 1.308903
458.20 1.255669
458.30 1.214847
458.40 1.187382
458.50 1.17082
458.60 1.161369
458.70 1.155532
458.80 1.151004
458.90 1.147301
459.00 1.145296
459.10 1.145296
459.20 1.145296
459.30 1.145296
459.40 1.147881
459.50 1.154386
459.60 1.162854
459.70 1.170768
459.80 1.175551
459.90 1.175551
460.00 1.175551
460.10 1.175551
460.20 1.175551
460.30 1.175551
460.40 1.175551
460.50 1.175551
460.60 1.180291
460.70 1.18912
460.80 1.194302
460.90 1.195276
461.00 1.191332
461.10 1.182567
461.20 1.169135
461.30 1.150237
461.40 1.127259
461.50 1.098255
461.60 1.060738
461.70 1.013889
461.80 0.9592901
461.90 0.9006953
462.00 0.8429174
462.10 0.7901217
462.20 0.7456871
462.30 0.7167055
462.40 0.7016154
462.50 0.6946201
462.60 0.6890381
462.70 0.6803932
462.80 0.6670617
462.90 0.6503715
463.00 0.6341984
463.10 0.6239566
463.20 0.6247124
463.30 0.6394618
463.40 0.6673943
463.50 0.7023598
463.60 0.7415154
463.70 0.7759464
463.80 0.8001096
463.90 0.8132364
464.00 0.8181682
464.10 0.8193776
464.20 0.8221573
464.30 0.8321086
464.40 0.8514729
464.50 0.8777621
464.60 0.910985
464.70 0.9486141
464.80 0.9871669
464.90 1.023176
465.00 1.050419
465.10 1.06128
465.20 1.055102
465.30 1.034167
465.40 1.004693
465.50 0.9757367
465.60 0.9564408
465.70 0.9536696
465.80 0.9663639
465.90 0.9816892
466.00 1.000837
466.10 1.024032
466.20 1.050124
466.30 1.077621
466.40 1.105437
466.50 1.132421
466.60 1.15754
466.70 1.180163
466.80 1.200357
466.90 1.217824
467.00 1.224155
467.10 1.222205
467.20 1.215404
467.30 1.205605
467.40 1.194817
467.50 1.186727
467.60 1.185395
467.70 1.193781
467.80 1.211479
467.90 1.230175
468.00 1.247637
468.10 1.262713
468.20 1.275103
468.30 1.284468
468.40 1.290977
468.50 1.294973
468.60 1.29602
468.70 1.29602
468.80 1.29602
468.90 1.29602
469.00 1.29602
469.10 1.29602
469.20 1.29602
469.30 1.29602
469.40 1.293436
469.50 1.286931
469.60 1.281375
469.70 1.282029
469.80 1.288083
469.90 1.297869
470.00 1.304501
470.10 1.307932
470.20 1.309258
470.30 1.309807
470.40 1.310613
470.50 1.311863
470.60 1.308517
470.70 1.299972
470.80 1.288183
470.90 1.275781
471.00 1.265033
471.10 1.258072
471.20 1.256861
471.30 1.262364
471.40 1.271483
471.50 1.283506
471.60 1.298974
471.70 1.318323
471.80 1.341335
471.90 1.367061
472.00 1.393817
472.10 1.419581
472.20 1.441108
472.30 1.450003
472.40 1.445319
472.50 1.429109
472.60 1.411794
472.70 1.397329
472.80 1.386824
472.90 1.379395
473.00 1.372367
473.10 1.362996
473.20 1.351032
473.30 1.336162
473.40 1.317214
473.50 1.294666
473.60 1.271297
473.70 1.252059
473.80 1.242187
473.90 1.245127
474.00 1.260294
474.10 1.282477
474.20 1.304417
474.30 1.319973
474.40 1.324678
474.50 1.315253
474.60 1.291359
474.70 1.256843
474.80 1.218703
474.90 1.184409
475.00 1.159706
475.10 1.147249
475.20 1.146816
475.30 1.15543
475.40 1.167888
475.50 1.179456
475.60 1.186088
475.70 1.184732
475.80 1.174491
475.90 1.159166
476.00 1.140018
476.10 1.116823
476.20 1.090732
476.30 1.063234
476.40 1.037863
476.50 1.017167
476.60 1.000475
476.70 0.986031
476.80 0.9725649
476.90 0.959355
477.00 0.9459657
477.10 0.9320406
477.20 0.9181458
477.30 0.9071688
477.40 0.9014337
477.50 0.9006518
477.60 0.9033617
477.70 0.9078703
477.80 0.912749
477.90 0.9180059
478.00 0.9251167
478.10 0.9355489
478.20 0.9497008
478.30 0.9670799
478.40 0.9875066
478.50 1.011206
478.60 1.038095
478.70 1.064107
478.80 1.085669
478.90 1.100792
479.00 1.10794
479.10 1.10794
479.20 1.10794
479.30 1.10794
479.40 1.10794
479.50 1.10794
479.60 1.105027
479.70 1.09646
479.80 1.085623
479.90 1.075837
480.00 1.069205
480.10 1.065774
480.20 1.064448
480.30 1.063899
480.40 1.069768
480.50 1.080926
480.60 1.09464
480.70 1.107663
480.80 1.115801
480.90 1.115566
481.00 1.113862
481.10 1.111202
481.20 1.106793
481.30 1.100201
481.40 1.091082
481.50 1.079059
481.60 1.063591
481.70 1.044242
481.80 1.02123
481.90 0.9963031
482.00 0.9695476
482.10 0.9437837
482.20 0.9213763
482.30 0.9046439
482.40 0.8951597
482.50 0.8937903
482.60 0.8937903
482.70 0.8937903
482.80 0.8937903
482.90 0.8937903
483.00 0.8937903
483.10 0.8937903
483.20 0.8918452
483.30 0.8863521
483.40 0.8773675
483.50 0.8649499
483.60 0.8491631
483.70 0.8296952
483.80 0.8104143
483.90 0.7902878
484.00 0.765931
484.10 0.7364915
484.20 0.7035928
484.30 0.6731523
484.40 0.6490833
484.50 0.6322193
484.60 0.6228905
484.70 0.6197772
484.80 0.6193647
484.90 0.6208712
485.00 0.6237696
485.10 0.6248026
485.20 0.6225914
485.30 0.6176581
485.40 0.6116727
485.50 0.605978
485.60 0.6018025
485.70 0.6007605
485.80 0.6043719
485.90 0.6090572
486.00 0.6125302
486.10 0.6136396
486.20 0.6136396
486.30 0.6136396
486.40 0.6111951
486.50 0.6049072
486.60 0.5964806
486.70 0.5883011
486.80 0.5815728
486.90 0.5762903
487.00 0.572768
487.10 0.5721764
487.20 0.5845812
487.30 0.6057881
487.40 0.6309397
487.50 0.6563079
487.60 0.6801489
487.70 0.7031012
487.80 0.7268433
487.90 0.7514464
488.00 0.7746948
488.10 0.7933365
488.20 0.8046893
488.30 0.8070003
488.40 0.7978549
488.50 0.7754938
488.60 0.7475577
488.70 0.7215455
488.80 0.6999831
488.90 0.6848598
489.00 0.6777122
489.10 0.6858171
489.20 0.700927
489.30 0.7188203
489.40 0.7343807
489.50 0.7424905
489.60 0.7424905
489.70 0.7424905
489.80 0.7424905
489.90 0.7424905
490.00 0.7424905
490.10 0.7424905
490.20 0.7424905
490.30 0.7424905
490.40 0.7431814
490.50 0.7445381
490.60 0.7459268
490.70 0.7480386
490.80 0.7543862
490.90 0.7693559
491.00 0.7869358
491.10 0.8065047
491.20 0.8280006
491.30 0.8503382
491.40 0.8715377
491.50 0.8896916
491.60 0.903369
491.70 0.9116468
491.80 0.9146605
491.90 0.9138613
492.00 0.9138613
492.10 0.9138613
492.20 0.9138613
492.30 0.9138613
492.40 0.9162294
492.50 0.9213888
492.60 0.9285589
492.70 0.9366503
492.80 0.9451105
492.90 0.9542392
493.00 0.9649523
493.10 0.978252
493.20 0.9946802
493.30 1.014108
493.40 1.036244
493.50 1.061532
493.60 1.090468
493.70 1.122237
493.80 1.150479
493.90 1.173109
494.00 1.191559
494.10 1.20818
494.20 1.224544
494.30 1.236639
494.40 1.241168
494.50 1.241168
494.60 1.241168
494.70 1.241168
494.80 1.241168
494.90 1.237946
495.00 1.229035
495.10 1.216287
495.20 1.200918
495.30 1.183868
495.40 1.167014
495.50 1.152303
495.60 1.140745
495.70 1.132367
495.80 1.126301
495.90 1.121704
496.00 1.125399
496.10 1.13845
496.20 1.15861
496.30 1.182855
496.40 1.20811
496.50 1.23084
496.60 1.248097
496.70 1.257969
496.80 1.25995
496.90 1.25995
497.00 1.25995
497.10 1.25898
497.20 1.245914
497.30 1.222699
497.40 1.192341
497.50 1.157339
497.60 1.118641
497.70 1.079195
497.80 1.041077
497.90 1.004321
498.00 0.9703487
498.10 0.9411175
498.20 0.9183197
498.30 0.9040761
498.40 0.9010356
498.50 0.911384
498.60 0.9290332
498.70 0.9489901
498.80 0.9705574
498.90 0.9923057
499.00 1.012358
499.10 1.020364
499.20 1.015842
499.30 1.002872
499.40 0.9874272
499.50 0.9793173
499.60 0.9793173
499.70 0.9793173
499.80 0.981683
499.90 0.9885073
500.00 1
500.10 1.015967
500.20 1.034868
500.30 1.0536
500.40 1.061514
500.50 1.057011
500.60 1.041599
500.70 1.025233
500.80 1.009596
500.90 0.9935376
501.00 0.9759577
501.10 0.9563887
501.20 0.9348928
501.30 0.9125553
501.40 0.8913558
501.50 0.8732018
501.60 0.8595245
501.70 0.8536383
501.80 0.8551413
501.90 0.8612665
502.00 0.8687882
502.10 0.8771565
502.20 0.8863107
502.30 0.8967148
502.40 0.9061158
502.50 0.9138162
502.60 0.9198207
502.70 0.9247593
502.80 0.9289585
502.90 0.9306399
503.00 0.9269641
503.10 0.9159797
503.20 0.8995515
503.30 0.8801234
503.40 0.857988
503.50 0.8326994
503.60 0.8037632
503.70 0.7719949
503.80 0.7392575
503.90 0.7077209
504.00 0.6795243
504.10 0.656661
504.20 0.6379087
504.30 0.6258134
504.40 0.621285
504.50 0.621285
504.60 0.621285
504.70 0.621285
504.80 0.621285
504.90 0.621285
505.00 0.621285
505.10 0.6215495
505.20 0.6215495
505.30 0.6215495
505.40 0.6215495
505.50 0.6215495
505.60 0.6215495
505.70 0.6215495
505.80 0.6215495
505.90 0.6214617
506.00 0.614294
506.10 0.6009278
506.20 0.5863056
506.30 0.5699426
506.40 0.5521725
506.50 0.5349538
506.60 0.5207275
506.70 0.5114998
506.80 0.5095192
506.90 0.5095192
507.00 0.5095192
507.10 0.5114657
507.20 0.5172736
507.30 0.5267744
507.40 0.5385698
507.50 0.5502753
507.60 0.5598564
507.70 0.5639359
507.80 0.5614436
507.90 0.5549739
508.00 0.5462515
508.10 0.5355135
508.20 0.5229216
508.30 0.5083219
508.40 0.4935715
508.50 0.4778894
508.60 0.4602402
508.70 0.4402834
508.80 0.418716
508.90 0.3969677
509.00 0.3769153
509.10 0.3608045
509.20 0.3502166
509.30 0.3452936
509.40 0.3451778
509.50 0.3451778
509.60 0.3451778
509.70 0.3451778
509.80 0.3428122
509.90 0.3359878
510.00 0.3244951
510.10 0.3085281
510.20 0.2930553
510.30 0.2825947
510.40 0.2801513
510.50 0.2878707
510.60 0.3068528
510.70 0.3283716
510.80 0.349298
510.90 0.3673587
511.00 0.3806225
511.10 0.3882468
511.20 0.3908869
511.30 0.3908869
511.40 0.3908869
511.50 0.3908869
511.60 0.3931018
511.70 0.3964052
511.80 0.4002967
511.90 0.4034838
512.00 0.4046143
512.10 0.4036881
512.20 0.400836
512.30 0.3959251
512.40 0.3892177
512.50 0.3808596
512.60 0.370464
512.70 0.357434
512.80 0.3447746
512.90 0.3339645
513.00 0.3269271
513.10 0.3246119
513.20 0.3246119
513.30 0.3246119
513.40 0.3246119
513.50 0.3246119
513.60 0.3310804
513.70 0.3414672
513.80 0.3529964
513.90 0.3640574
514.00 0.3738743
514.10 0.3821014
514.20 0.3922904
514.30 0.405094
514.40 0.4216972
514.50 0.4420687
514.60 0.4650924
514.70 0.4888305
514.80 0.511124
514.90 0.5302674
515.00 0.5456707
515.10 0.558142
515.20 0.5699302
515.30 0.582256
515.40 0.5967596
515.50 0.6150356
515.60 0.637604
515.70 0.6633794
515.80 0.6912637
515.90 0.7212077
516.00 0.7531392
516.10 0.7855666
516.20 0.8135808
516.30 0.8386121
516.40 0.8620048
516.50 0.8829178
516.60 0.899064
516.70 0.90895
516.80 0.9114555
516.90 0.9114555
517.00 0.9114555
517.10 0.909509
517.20 0.90412
517.30 0.9009339
517.40 0.90062
517.50 0.9038923
517.60 0.9105582
517.70 0.9193703
517.80 0.9293628
517.90 0.9406957
518.00 0.9543284
518.10 0.9708311
518.20 0.9895076
518.30 1.00893
518.40 1.024765
518.50 1.035099
518.60 1.039775
518.70 1.040523
518.80 1.040523
518.90 1.042382
519.00 1.049449
519.10 1.063541
519.20 1.085136
519.30 1.113121
519.40 1.145077
519.50 1.178492
519.60 1.210652
519.70 1.238676
519.80 1.26044
519.90 1.275092
520.00 1.282537
520.10 1.283608
520.20 1.280179
520.30 1.271908
520.40 1.259072
520.50 1.242091
520.60 1.222023
520.70 1.200505
520.80 1.179578
520.90 1.161517
521.00 1.148254
521.10 1.140751
521.20 1.140236
521.30 1.144372
521.40 1.150032
521.50 1.15608
521.60 1.158875
521.70 1.156688
521.80 1.150901
521.90 1.144923
522.00 1.142054
522.10 1.14328
522.20 1.147394
522.30 1.152393
522.40 1.156308
522.50 1.15829
522.60 1.159956
522.70 1.16397
522.80 1.169666
522.90 1.17919
523.00 1.193629
523.10 1.211632
523.20 1.229813
523.30 1.244508
523.40 1.253818
523.50 1.258567
523.60 1.254901
523.70 1.248428
523.80 1.244954
523.90 1.249468
524.00 1.265487
524.10 1.292534
524.20 1.32517
524.30 1.355209
524.40 1.375656
524.50 1.382863
524.60 1.376423
524.70 1.358242
524.80 1.335949
524.90 1.316805
525.00 1.301402
525.10 1.288666
525.20 1.276878
525.30 1.264552
525.40 1.250049
525.50 1.231773
525.60 1.209204
525.70 1.189549
525.80 1.17495
525.90 1.162984
526.00 1.15031
526.10 1.135104
526.20 1.116483
526.30 1.093871
526.40 1.068675
526.50 1.045407
526.60 1.029567
526.70 1.024721
526.80 1.03174
526.90 1.045299
527.00 1.061575
527.10 1.07825
527.20 1.092345
527.30 1.097185
527.40 1.093625
527.50 1.083493
527.60 1.069697
527.70 1.055192
527.80 1.040947
527.90 1.026342
528.00 1.010748
528.10 0.9943233
528.20 0.9781534
528.30 0.9641427
528.40 0.9543242
528.50 0.9500003
528.60 0.9514547
528.70 0.9574877
528.80 0.9655803
528.90 0.9743807
529.00 0.9814504
529.10 0.9849216
529.20 0.9846495
529.30 0.9820658
529.40 0.9791683
529.50 0.977994
529.60 0.980666
529.70 0.9888828
529.80 1.00324
529.90 1.023183
530.00 1.047341
530.10 1.073838
530.20 1.096769
530.30 1.114327
530.40 1.126031
530.50 1.132029
530.60 1.132562
530.70 1.132562
530.80 1.132562
530.90 1.132562
531.00 1.132562
531.10 1.13244
531.20 1.130316
531.30 1.12618
531.40 1.120519
531.50 1.115378
531.60 1.112692
531.70 1.112698
531.80 1.11483
531.90 1.117582
532.00 1.118952
532.10 1.117628
532.20 1.113728
532.30 1.108382
532.40 1.1029
532.50 1.09809
532.60 1.09373
532.70 1.089715
532.80 1.08402
532.90 1.076474
533.00 1.066806
533.10 1.056907
533.20 1.050434
533.30 1.050595
533.40 1.058233
533.50 1.071158
533.60 1.0851
533.70 1.094897
533.80 1.096582
533.90 1.087615
534.00 1.066266
534.10 1.033631
534.20 0.9944348
534.30 0.9553653
534.40 0.9226192
534.50 0.8998789
534.60 0.888308
534.70 0.8877601
534.80 0.892621
534.90 0.8973383
535.00 0.9023722
535.10 0.9086653
535.20 0.9164745
535.30 0.9253404
535.40 0.9347915
535.50 0.9443661
535.60 0.9542149
535.70 0.9587509
535.80 0.9573297
535.90 0.9527087
536.00 0.9483785
536.10 0.946452
536.20 0.9477249
536.30 0.9520707
536.40 0.9575332
536.50 0.9600577
536.60 0.9567201
536.70 0.9510367
536.80 0.9415121
536.90 0.9279523
537.00 0.9116766
537.10 0.8950013
537.20 0.8804882
537.30 0.8693326
537.40 0.8614115
537.50 0.8565662
537.60 0.8541152
537.70 0.8526581
537.80 0.8512023
537.90 0.8491443
538.00 0.8481237
538.10 0.8487471
538.20 0.8463746
538.30 0.8407509
538.40 0.8347347
538.50 0.8287245
538.60 0.8225941
538.70 0.8158129
538.80 0.8077204
538.90 0.7970611
539.00 0.782924
539.10 0.769284
539.20 0.7561909
539.30 0.7428481
539.40 0.7299921
539.50 0.7185536
539.60 0.7093079
539.70 0.7029745
539.80 0.6992753
539.90 0.6969547
540.00 0.6956278
540.10 0.6960178
540.20 0.6990531
540.30 0.7056681
540.40 0.7159682
540.50 0.7293316
540.60 0.7455085
540.70 0.7601229
540.80 0.7737982
540.90 0.7879133
541.00 0.8032417
541.10 0.8200918
541.20 0.8387979
541.30 0.8590694
541.40 0.8799759
541.50 0.8993654
541.60 0.9154751
541.70 0.9272796
541.80 0.9340577
541.90 0.9357952
542.00 0.9328386
542.10 0.9255465
542.20 0.9190301
542.30 0.9138834
542.40 0.9103895
542.50 0.9087158
542.60 0.9086311
542.70 0.9086311
542.80 0.9086311
542.90 0.9066529
543.00 0.9018811
543.10 0.8937773
543.20 0.8820702
543.30 0.8672142
543.40 0.8524351
543.50 0.8424669
543.60 0.8402946
543.70 0.8478028
543.80 0.8652633
543.90 0.8914518
544.00 0.924664
544.10 0.9625968
544.20 1.00227
544.30 1.041069
544.40 1.07706
544.50 1.108875
544.60 1.136407
544.70 1.160321
544.80 1.181502
544.90 1.201191
545.00 1.221065
545.10 1.242878
545.20 1.267692
545.30 1.294601
545.40 1.320765
545.50 1.343079
545.60 1.359341
545.70 1.368323
545.80 1.369353
545.90 1.362696
546.00 1.350357
546.10 1.335456
546.20 1.321054
546.30 1.309974
546.40 1.304284
546.50 1.30537
546.60 1.312158
546.70 1.316864
546.80 1.317606
546.90 1.317606
547.00 1.317606
547.10 1.317606
547.20 1.317606
547.30 1.317606
547.40 1.317606
547.50 1.317606
547.60 1.317606
547.70 1.317606
547.80 1.317606
547.90 1.317606
548.00 1.31546
548.10 1.310579
548.20 1.30794
548.30 1.30794
548.40 1.308572
548.50 1.309771
548.60 1.310917
548.70 1.311298
548.80 1.311298
548.90 1.311298
549.00 1.311298
549.10 1.307375
549.20 1.299145
549.30 1.287087
549.40 1.270885
549.50 1.250083
549.60 1.224495
549.70 1.194588
549.80 1.162166
549.90 1.129891
550.00 1.869915
550.10 1.869915
550.20 1.869915
550.30 1.869915
550.40 1.864494
550.50 1.845228
550.60 1.808796
550.70 1.755747
550.80 1.687746
550.90 1.605757
551.00 1.510951
551.10 1.406499
551.20 1.298244
551.30 1.191814
551.40 1.092657
551.50 1.00402
551.60 0.9255227
551.70 0.8541688
551.80 0.7890644
551.90 0.7280478
552.00 0.665777
552.10 0.5955115
552.20 0.5139554
552.30 0.4245171
552.40 0.335479
552.50 0.255757
552.60 0.1904808
552.70 0.1413853
552.80 0.1091507
552.90 0.09240091
553.00 0.08839116
553.10 0.1097369
553.20 0.1455794
553.30 0.1874035
553.40 0.2302559
553.50 0.2726279
553.60 0.3174431
553.70 0.37074
553.80 0.4368196
553.90 0.5059055
554.00 0.5735004
554.10 0.636866
554.20 0.6944211
554.30 0.7445796
554.40 0.7861666
554.50 0.8200746
554.60 0.8478008
554.70 0.8701988
554.80 0.8876928
554.90 0.9007774
555.00 0.9084254
555.10 0.9084254
555.20 0.9084254
555.30 0.9084254
555.40 0.9068454
555.50 0.9038478
555.60 0.9009831
555.70 0.9000303
555.80 0.9000303
555.90 0.9605644
556.00 1.083599
556.10 1.251839
556.20 1.440207
556.30 1.620969
556.40 1.771287
556.50 1.888042
556.60 1.99069
556.70 2.099849
556.80 2.223678
556.90 2.357782
557.00 2.490912
557.10 2.596778
557.20 2.674829
557.30 2.725515
557.40 2.749512
557.50 2.747251
557.60 2.718972
557.70 2.666317
557.80 2.598382
557.90 2.529296
558.00 2.461701
558.10 2.398335
558.20 2.34078
558.30 2.295388
558.40 2.265427
558.50 2.245282
558.60 2.227377
558.70 2.204979
558.80 2.187485
558.90 2.174401
559.00 2.166753
559.10 2.166753
559.20 2.166753
559.30 2.166753
559.40 2.166753
559.50 2.166753
559.60 2.172501
559.70 2.185574
559.80 2.201099
559.90 2.154793
560.00 2.041448
560.10 1.877288
560.20 1.68892
560.30 1.508158
560.40 1.35784
560.50 1.241086
560.60 1.145464
560.70 1.054263
560.80 0.9620652
560.90 0.875762
561.00 0.8046541
561.10 0.7528342
561.20 0.7203366
561.30 0.7048557
561.40 0.7050324
561.50 0.7200748
561.60 0.7485016
561.70 0.7906003
561.80 0.8429056
561.90 0.8960359
562.00 0.9498779
562.10 1.001221
562.20 1.044337
562.30 1.068309
562.40 1.06765
562.50 1.053886
562.60 1.044065
562.70 1.044065
562.80 1.044065
562.90 1.044065
563.00 1.044235
563.10 1.050066
563.20 1.059768
563.30 1.07304
563.40 1.090268
563.50 1.112322
563.60 1.135056
563.70 1.157464
563.80 1.182476
563.90 1.209704
564.00 1.2381
564.10 1.266209
564.20 1.293402
564.30 1.318374
564.40 1.342608
564.50 1.365635
564.60 1.378434
564.70 1.374343
564.80 1.349833
564.90 1.304907
565.00 1.24355
565.10 1.173714
565.20 1.106335
565.30 1.051138
565.40 1.011436
565.50 0.9839859
565.60 0.9605274
565.70 0.9292034
565.80 0.8788323
565.90 0.825702
566.00 0.77186
566.10 0.720517
566.20 0.6774005
566.30 0.6486632
566.40 0.6376959
566.50 0.6376959
566.60 0.6377723
566.70 0.6502527
566.80 0.6703304
566.90 0.6953589
567.00 0.7254544
567.10 0.7577471
567.20 0.7953635
567.30 0.8376144
567.40 0.8826639
567.50 0.9269925
567.60 0.9650188
567.70 0.9926226
567.80 1.009235
567.90 1.017869
568.00 1.023227
568.10 1.028178
568.20 1.029685
568.30 1.021127
568.40 0.99777
568.50 0.974743
568.60 0.954917
568.70 0.9410504
568.80 0.9339293
568.90 0.9310548
569.00 0.9279284
569.10 0.9193987
569.20 0.9008793
569.30 0.870132
569.40 0.8364722
569.50 0.8109482
569.60 0.8072966
569.70 0.8383553
569.80 0.9100693
569.90 0.998723
570.00 1.09534
570.10 1.191045
570.20 1.27398
570.30 1.333825
570.40 1.367233
570.50 1.377365
570.60 1.377289
570.70 1.364808
570.80 1.344731
570.90 1.334418
571.00 1.344319
571.10 1.372189
571.20 1.413368
571.30 1.462223
571.40 1.509555
571.50 1.546595
571.60 1.570485
571.70 1.581969
571.80 1.582619
571.90 1.574421
572.00 1.559676
572.10 1.542519
572.20 1.529945
572.30 1.528795
572.40 1.543447
572.50 1.559856
572.60 1.575357
572.70 1.585931
572.80 1.589961
572.90 1.589961
573.00 1.589961
573.10 1.589961
573.20 1.59247
573.30 1.60562
573.40 1.624281
573.50 1.642518
573.60 1.650358
573.70 1.634913
573.80 1.587118
573.90 1.505573
574.00 1.408957
574.10 1.313252
574.20 1.230316
574.30 1.170471
574.40 1.137064
574.50 1.127558
574.60 1.13921
574.70 1.155725
574.80 1.168519
574.90 1.154898
575.00 1.114732
575.10 1.048738
575.20 0.96024
575.30 0.8558625
575.40 0.7462529
575.50 0.6428302
575.60 0.5524325
575.70 0.4964032
575.80 0.4892033
575.90 0.5277452
576.00 0.6024316
576.10 0.6972721
576.20 0.792419
576.30 0.8699092
576.40 0.917013
576.50 0.928063
576.60 0.9125614
576.70 0.9019875
576.80 0.8979576
576.90 0.8979576
577.00 0.8979576
577.10 0.8979576
577.20 0.9056717
577.30 0.9094963
577.40 0.8984605
577.50 0.8670369
577.60 0.8243739
577.70 0.7855787
577.80 0.7597257
577.90 0.7526168
578.00 0.7526168
578.10 0.7526168
578.20 0.7541992
578.30 0.7669756
578.40 0.7916039
578.50 0.826419
578.60 0.8576461
578.70 0.8891601
578.80 0.9287122
578.90 0.9832328
579.00 1.041243
579.10 1.101279
579.20 1.164778
579.30 1.234075
579.40 1.311907
579.50 1.40075
579.60 1.500332
579.70 1.589156
579.80 1.649116
579.90 1.677278
580.00 1.675275
580.10 1.647876
580.20 1.604465
580.30 1.559195
580.40 1.527819
580.50 1.52438
580.60 1.552247
580.70 1.591842
580.80 1.644481
580.90 1.706247
581.00 1.770836
581.10 1.83105
581.20 1.868999
581.30 1.881347
581.40 1.872356
581.50 1.866448
581.60 1.866448
581.70 1.866448
581.80 1.866448
581.90 1.866448
582.00 1.866448
582.10 1.866448
582.20 1.864865
582.30 1.852089
582.40 1.835519
582.50 1.834078
582.60 1.841566
582.70 1.848029
582.80 1.843543
582.90 1.823253
583.00 1.787182
583.10 1.738534
583.20 1.682573
583.30 1.625938
583.40 1.573981
583.50 1.529475
583.60 1.496218
583.70 1.479319
583.80 1.484092
583.90 1.516824
584.00 1.583147
584.10 1.686596
584.20 1.825032
584.30 1.987512
584.40 2.156283
584.50 2.312169
584.60 2.437992
584.70 2.522048
584.80 2.562422
584.90 2.56597
585.00 2.544446
585.10 2.511907
585.20 2.483291
585.30 2.470868
585.40 2.482494
585.50 2.503182
585.60 2.528172
585.70 2.557009
585.80 2.587881
585.90 2.616747
586.00 2.639491
586.10 2.65624
586.20 2.66932
586.30 2.6785
586.40 2.673527
586.50 2.639526
586.60 2.58916
586.70 2.534667
586.80 2.486808
586.90 2.451482
587.00 2.429543
587.10 2.418154
587.20 2.410616
587.30 2.397955
587.40 2.372081
587.50 2.327743
587.60 2.261417
587.70 2.170953
587.80 2.061176
587.90 1.942975
588.00 1.808048
588.10 1.650133
588.20 1.468066
588.30 1.268225
588.40 1.068199
588.50 0.888293
588.60 0.7346021
588.70 0.6140851
588.80 0.5319094
588.90 0.4817417
589.00 0.4553824
589.10 0.4440394
589.20 0.4392502
589.30 0.4364353
589.40 0.4355762
589.50 0.4393691
589.60 0.4514124
589.70 0.4750035
589.80 0.5116766
589.90 0.5616079
590.00 0.6222326
590.10 0.6852569
590.20 0.7400288
590.30 0.7800405
590.40 0.804827
590.50 0.8146967
590.60 0.8146967
590.70 0.8146967
590.80 0.8146967
590.90 0.8146967
591.00 0.8146967
591.10 0.8146967
591.20 0.8146967
591.30 0.8146967
591.40 0.8146967
591.50 0.8146967
591.60 0.8146967
591.70 0.8146967
591.80 0.8091415
591.90 0.7860147
592.00 0.7532365
592.10 0.7256273
592.20 0.7013968
592.30 0.6912718
592.40 0.6912718
592.50 0.6912718
592.60 0.6912718
592.70 0.6881386
592.80 0.6773007
592.90 0.662154
593.00 0.645449
593.10 0.6296991
593.20 0.6254144
593.30 0.626247
593.40 0.6247814
593.50 0.6137669
593.60 0.5890157
593.70 0.5485525
593.80 0.4901603
593.90 0.412821
594.00 0.3294523
594.10 0.2496789
594.20 0.1818269
594.30 0.1326348
594.40 0.1047628
594.50 0.0948931
594.60 0.0948931
594.70 0.0948931
594.80 0.1140697
594.90 0.1614963
595.00 0.239718
595.10 0.3461333
595.20 0.4748996
595.30 0.6193201
595.40 0.7724091
595.50 0.9263799
595.60 1.073065
595.70 1.205141
595.80 1.316681
595.90 1.403089
596.00 1.461869
596.10 1.490063
596.20 1.503569
596.30 1.503569
596.40 1.503569
596.50 1.503569
596.60 1.503569
596.70 1.503569
596.80 1.503569
596.90 1.503569
597.00 1.503569
597.10 1.502987
597.20 1.492504
597.30 1.477587
597.40 1.46235
597.50 1.448884
597.60 1.436601
597.70 1.424636
597.80 1.415483
597.90 1.414026
598.00 1.414026
598.10 1.414026
598.20 1.414026
598.30 1.414026
598.40 1.414026
598.50 1.414026
598.60 1.421854
598.70 1.434494
598.80 1.427747
598.90 1.388839
599.00 1.313697
599.10 1.207716
599.20 1.084066
599.30 0.9585825
599.40 0.8459686
599.50 0.7582185
599.60 0.703084
599.70 0.6837053
599.80 0.6991073
599.90 0.7437571
600.00 0
600.10 0
600.20 0
600.30 0
600.40 0
600.50 0
600.60 0.3131212
600.70 0.5055925
600.80 0.4971729
600.90 0.3407681
601.00 0.1231937
601.10 0.01734272
601.20 0.2046445
601.30 0.7574986
601.40 1.619005
601.50 2.648828
601.60 3.662029
601.70 4.507878
601.80 5.077672
601.90 5.242343
602.00 4.917844
602.10 4.132039
602.20 2.979416
602.30 1.61157
602.40 0.2590742
602.50 0
602.60 0
602.70 0
602.80 0
602.90 0
603.00 0
603.10 0
603.20 0.05800064
603.30 0.4374368
603.40 0.7398343
603.50 1.047034
603.60 1.404921
603.70 1.781763
603.80 2.09371
603.90 2.218673
604.00 2.064811
604.10 1.640595
604.20 1.021692
604.30 0.305021
604.40 0
604.50 0
604.60 0
604.70 0
604.80 0
604.90 0.1266016
605.00 0.4849409
605.10 0.6269024
605.20 0.5084048
605.30 0.1639507
605.40 0
605.50 0
605.60 0
605.70 0
605.80 0
605.90 0
606.00 0
606.10 0
606.20 0
606.30 0.4017029
606.40 1.517221
606.50 2.647627
606.60 3.7315
606.70 4.697508
606.80 5.429357
606.90 5.812317
607.00 5.836655
607.10 5.584561
607.20 5.124966
607.30 4.482039
607.40 3.723465
607.50 2.961604
607.60 2.290927
607.70 1.728906
607.80 1.231042
607.90 0.7984551
608.00 0.4618589
608.10 0.1927667
608.20 0.004554898
608.30 0.001882678
608.40 0.2675932
608.50 0.6988346
608.60 1.107453
608.70 1.427995
608.80 1.668442
608.90 1.844233
609.00 1.954316
609.10 2.038012
609.20 2.176687
609.30 2.36322
609.40 2.516561
609.50 2.598912
609.60 2.59438
609.70 2.464235
609.80 2.17024
609.90 1.784722
610.00 1.452101
610.10 1.254616
610.20 1.183621
610.30 1.147729
610.40 1.048075
610.50 0.8214845
610.60 0.4529732
610.70 0.02039836
610.80 0
610.90 0
611.00 0
611.10 0
611.20 0.5792969
611.30 1.29542
611.40 1.909913
611.50 2.247752
611.60 2.236417
611.70 1.949354
611.80 1.527562
611.90 1.098463
612.00 0.7305342
612.10 0.4236453
612.20 0.1456668
612.30 0
612.40 0
612.50 0
612.60 0
612.70 0
612.80 0
612.90 0
613.00 0.03903349
613.10 0.1068606
613.20 0.02479278
613.30 0
613.40 0
613.50 0
613.60 0
613.70 0
613.80 0
613.90 0
614.00 0.2877184
614.10 0.6909597
614.20 1.069315
614.30 1.390072
614.40 1.672225
614.50 1.957849
614.60 2.255055
614.70 2.540058
614.80 2.805783
614.90 3.05919
615.00 3.260037
615.10 3.323913
615.20 3.20535
615.30 2.935659
615.40 2.554123
615.50 2.085755
615.60 1.571096
615.70 1.063002
615.80 0.5518013
615.90 0.02564826
616.00 0
616.10 0
616.20 0
616.30 0
616.40 0
616.50 0
616.60 0
616.70 0.4249413
616.80 0.6831506
616.90 0.6764369
617.00 0.4453703
617.10 0.1187257
617.20 0
617.30 0
617.40 0
617.50 0
617.60 0.1940059
617.70 0.4856522
617.80 0.7820051
617.90 1.015165
618.00 1.164141
618.10 1.255898
618.20 1.334056
618.30 1.404433
618.40 1.415521
618.50 1.328057
618.60 1.212724
618.70 1.219807
618.80 1.487225
618.90 2.048172
619.00 2.838951
619.10 3.680055
619.20 4.366338
619.30 4.795084
619.40 4.933885
619.50 4.828718
619.60 4.571443
619.70 4.288899
619.80 4.127298
619.90 4.169065
620.00 4.370426
620.10 4.596716
620.20 4.704257
620.30 4.636938
620.40 4.408744
620.50 4.106822
620.60 3.870323
620.70 3.741052
620.80 3.694215
620.90 3.678191
621.00 3.591274
621.10 3.341022
621.20 2.908838
621.30 2.35137
621.40 1.780113
621.50 1.316082
621.60 1.062528
621.70 1.083549
621.80 1.375017
621.90 1.86003
622.00 2.399441
622.10 2.90848
622.20 3.350008
622.30 3.672533
622.40 3.884784
622.50 4.026594
622.60 4.114716
622.70 4.15016
622.80 4.125179
622.90 4.038619
623.00 3.867952
623.10 3.570926
623.20 3.162131
623.30 2.726067
623.40 2.376831
623.50 2.177689
623.60 2.14068
623.70 2.27482
623.80 2.548908
623.90 2.880897
624.00 3.119282
624.10 3.164345
624.20 3.04657
624.30 2.840111
624.40 2.584306
624.50 2.288224
624.60 1.963978
624.70 1.590966
624.80 1.156264
624.90 0.6698185
625.00 0.1440309
625.10 0
625.20 0
625.30 0
625.40 0
625.50 0
625.60 0
625.70 0
625.80 0.4387416
625.90 1.438495
626.00 2.368536
626.10 3.12038
626.20 3.622873
626.30 3.874987
626.40 3.949684
626.50 3.96331
626.60 4.031531
626.70 4.171293
626.80 4.316929
626.90 4.354005
627.00 4.170856
627.10 3.723718
627.20 3.014061
627.30 2.128991
627.40 1.211006
627.50 0.4553064
627.60 0.07918185
627.70 0.1973094
627.80 0.7935993
627.90 1.70531
628.00 2.703395
628.10 3.618316
628.20 4.363529
628.30 4.933279
628.40 5.293919
628.50 5.35203
628.60 5.110769
628.70 4.685103
628.80 4.197217
628.90 3.668509
629.00 3.10696
629.10 2.588496
629.20 2.201149
629.30 2.007654
629.40 1.968526
629.50 1.97042
629.60 1.918765
629.70 1.758574
629.80 1.499417
629.90 1.225258
630.00 1.039205
630.10 1.016536
630.20 1.2171
630.30 1.677063
630.40 2.3039
630.50 2.895329
630.60 3.274356
630.70 3.382484
630.80 3.281499
630.90 3.045832
631.00 2.713948
631.10 2.34959
631.20 2.035978
631.30 1.828044
631.40 1.716135
631.50 1.642893
631.60 1.563421
631.70 1.46893
631.80 1.406447
631.90 1.441609
632.00 1.586894
632.10 1.76919
632.20 1.906523
632.30 1.998634
632.40 2.097087
632.50 2.205032
632.60 2.294562
632.70 2.405193
632.80 2.582104
632.90 2.834771
633.00 3.147405
633.10 3.469006
633.20 3.74791
633.30 3.928732
633.40 3.950575
633.50 3.800191
633.60 3.518182
633.70 3.147347
633.80 2.694125
633.90 2.153799
634.00 1.580757
634.10 1.042106
634.20 0.6081999
634.30 0.3263557
634.40 0.1964639
634.50 0.2270977
634.60 0.4291249
634.70 0.7929148
634.80 1.2999
634.90 1.918696
635.00 2.567247
635.10 3.13064
635.20 3.534411
635.30 3.773557
635.40 3.834618
635.50 3.66401
635.60 3.240162
635.70 2.635558
635.80 1.976985
635.90 1.367943
636.00 0.8595771
636.10 0.4822309
636.20 0.2844201
636.30 0.3190552
636.40 0.6193061
636.50 1.157793
636.60 1.82499
636.70 2.469031
636.80 2.949433
636.90 3.189007
637.00 3.164495
637.10 2.883169
637.20 2.399763
637.30 1.814712
637.40 1.274628
637.50 0.9449408
637.60 0.8997449
637.70 1.123313
637.80 1.587831
637.90 2.243542
638.00 2.999524
638.10 3.748757
638.20 4.41793
638.30 4.962353
638.40 5.355395
638.50 5.588777
638.60 5.685351
638.70 5.699307
638.80 5.669986
638.90 5.593027
639.00 5.451141
639.10 5.21276
639.20 4.81595
639.30 4.237761
639.40 3.569057
639.50 2.955205
639.60 2.494021
639.70 2.21548
639.80 2.098342
639.90 2.074991
640.00 2.054012
640.10 1.965321
640.20 1.776759
640.30 1.464194
640.40 1.028259
640.50 0.5523763
640.60 0.1820392
640.70 0.03572857
640.80 0.1160822
640.90 0.3432128
641.00 0.6283286
641.10 0.9067153
641.20 1.15422
641.30 1.398096
641.40 1.676418
641.50 2.004857
641.60 2.366518
641.70 2.740351
641.80 3.110651
641.90 3.402919
642.00 3.502571
642.10 3.353685
642.20 2.99112
642.30 2.495885
642.40 1.973901
642.50 1.532307
642.60 1.264989
642.70 1.223434
642.80 1.417193
642.90 1.815368
643.00 2.341586
643.10 2.878364
643.20 3.311458
643.30 3.60772
643.40 3.772064
643.50 3.794764
643.60 3.685414
643.70 3.516645
643.80 3.385687
643.90 3.36335
644.00 3.456039
644.10 3.613021
644.20 3.740951
644.30 3.742684
644.40 3.562857
644.50 3.201835
644.60 2.728701
644.70 2.240604
644.80 1.848889
644.90 1.64677
645.00 1.662158
645.10 1.837993
645.20 2.098463
645.30 2.377333
645.40 2.632542
645.50 2.886092
645.60 3.169068
645.70 3.474747
645.80 3.812892
645.90 4.197207
646.00 4.568591
646.10 4.826218
646.20 4.884231
646.30 4.712058
646.40 4.347977
646.50 3.899674
646.60 3.481901
646.70 3.169784
646.80 2.973466
646.90 2.808099
647.00 2.615467
647.10 2.432855
647.20 2.276897
647.30 2.117472
647.40 1.946532
647.50 1.801426
647.60 1.763053
647.70 1.883122
647.80 2.137092
647.90 2.444186
648.00 2.695647
648.10 2.831177
648.20 2.885596
648.30 2.976123
648.40 3.206838
648.50 3.596283
648.60 4.098832
648.70 4.64919
648.80 5.172816
648.90 5.569306
649.00 5.75044
649.10 5.690388
649.20 5.458764
649.30 5.168971
649.40 4.890628
649.50 4.6275
649.60 4.350279
649.70 4.046495
649.80 3.692875
649.90 3.273434
650.00 2.845773
650.10 2.502368
650.20 2.341055
650.30 2.448011
650.40 2.857935
650.50 3.553844
650.60 4.386561
650.70 5.120787
650.80 5.608276
650.90 5.795228
651.00 5.682693
651.10 5.310916
651.20 4.786716
651.30 4.227156
651.40 3.727495
651.50 3.433627
651.60 3.432015
651.70 3.675395
651.80 4.030654
651.90 4.332775
652.00 4.50224
652.10 4.556944
652.20 4.549455
652.30 4.53238
652.40 4.550506
652.50 4.619513
652.60 4.723451
652.70 4.860187
652.80 5.012783
652.90 5.124279
653.00 5.201655
653.10 5.321957
653.20 5.51052
653.30 5.729422
653.40 5.906824
653.50 5.963132
653.60 5.867794
653.70 5.639881
653.80 5.331238
653.90 5.076275
654.00 4.994034
654.10 5.101882
654.20 5.36571
654.30 5.701567
654.40 5.976649
654.50 6.06575
654.60 5.94799
654.70 5.70786
654.80 5.495043
654.90 5.432852
655.00 5.505998
655.10 5.652234
655.20 5.82643
655.30 5.927619
655.40 5.870145
655.50 5.660896
655.60 5.352154
655.70 5.048517
655.80 4.808562
655.90 4.608969
656.00 4.457515
656.10 4.350734
656.20 4.236562
656.30 4.08677
656.40 3.947025
656.50 3.880755
656.60 3.909251
656.70 4.028014
656.80 4.21996
656.90 4.456227
657.00 4.722394
657.10 4.9634
657.20 5.154312
657.30 5.320796
657.40 5.402513
657.50 5.317991
657.60 5.041817
657.70 4.618939
657.80 4.153822
657.90 3.740781
658.00 3.440192
658.10 3.326148
658.20 3.459849
658.30 3.803859
658.40 4.256457
658.50 4.712888
658.60 5.046981
658.70 5.144274
658.80 4.988819
658.90 4.7117
659.00 4.517218
659.10 4.529916
659.20 4.756318
659.30 5.192891
659.40 5.858465
659.50 6.676348
659.60 7.497606
659.70 8.205084
659.80 8.713463
659.90 8.931079
660.00 8.839418
660.10 8.577212
660.20 8.297296
660.30 8.029615
660.40 7.717822
660.50 7.327309
660.60 6.892225
660.70 6.471551
660.80 6.098575
660.90 5.800004
661.00 5.59997
661.10 5.513053
661.20 5.537565
661.30 5.659302
661.40 5.845493
661.50 6.009555
661.60 6.064323
661.70 5.974898
661.80 5.759953
661.90 5.482983
662.00 5.239996
662.10 5.123055
662.20 5.187824
662.30 5.454139
662.40 5.915831
662.50 6.510008
662.60 7.091608
662.70 7.518768
662.80 7.742939
662.90 7.770461
663.00 7.617411
663.10 7.321818
663.20 6.938732
663.30 6.523536
663.40 6.105921
663.50 5.684698
663.60 5.287907
663.70 4.970936
663.80 4.753772
663.90 4.648753
664.00 4.669395
664.10 4.850574
664.20 5.182632
664.30 5.595665
664.40 6.034912
664.50 6.446278
664.60 6.787706
664.70 7.023848
664.80 7.117108
664.90 7.050195
665.00 6.824983
665.10 6.460812
665.20 6.008499
665.30 5.539545
665.40 5.140482
665.50 4.877328
665.60 4.828656
665.70 5.043437
665.80 5.488046
665.90 6.056244
666.00 6.581673
666.10 6.929242
666.20 7.071845
666.30 7.038895
666.40 6.818255
666.50 6.44639
666.60 6.027233
666.70 5.645622
666.80 5.367829
666.90 5.247419
667.00 5.265868
667.10 5.357394
667.20 5.477899
667.30 5.643623
667.40 5.914005
667.50 6.298817
667.60 6.69899
667.70 7.006619
667.80 7.215103
667.90 7.315755
668.00 7.309179
668.10 7.276548
668.20 7.345056
668.30 7.607087
668.40 8.063417
668.50 8.639618
668.60 9.219594
668.70 9.652344
668.80 9.789593
668.90 9.571582
669.00 9.06202
669.10 8.400496
669.20 7.74298
669.30 7.235981
669.40 6.967032
669.50 6.927881
669.60 7.029293
669.70 7.175437
669.80 7.319235
669.90 7.407998
670.00 7.395182
670.10 7.293732
670.20 7.147548
670.30 7.02497
670.40 7.008252
670.50 7.16929
670.60 7.507223
670.70 7.924253
670.80 8.31359
670.90 8.605855
671.00 8.756289
671.10 8.711725
671.20 8.454548
671.30 8.090471
671.40 7.745417
671.50 7.497743
671.60 7.388091
671.70 7.404581
671.80 7.494441
671.90 7.555118
672.00 7.520699
672.10 7.431123
672.20 7.331036
672.30 7.266891
672.40 7.315398
672.50 7.517096
672.60 7.819706
672.70 8.108522
672.80 8.306438
672.90 8.372454
673.00 8.341752
673.10 8.278487
673.20 8.190265
673.30 8.07199
673.40 7.900708
673.50 7.626982
673.60 7.243386
673.70 6.767302
673.80 6.202151
673.90 5.612937
674.00 5.137543
674.10 4.92222
674.20 5.053523
674.30 5.542187
674.40 6.271877
674.50 7.050702
674.60 7.737413
674.70 8.202579
674.80 8.345133
674.90 8.155831
675.00 7.702669
675.10 7.112265
675.20 6.549421
675.30 6.174782
675.40 6.087488
675.50 6.273212
675.60 6.63628
675.70 7.052073
675.80 7.417238
675.90 7.675393
676.00 7.774975
676.10 7.706518
676.20 7.539056
676.30 7.37055
676.40 7.22888
676.50 7.096149
676.60 7.002752
676.70 6.975409
676.80 7.016819
676.90 7.136934
677.00 7.304536
677.10 7.44063
677.20 7.521835
677.30 7.593755
677.40 7.713539
677.50 7.935188
677.60 8.253651
677.70 8.602902
677.80 8.961013
677.90 9.346972
678.00 9.739687
678.10 10.05082
678.20 10.15258
678.30 9.954176
678.40 9.471785
678.50 8.815334
678.60 8.073418
678.70 7.306164
678.80 6.608883
678.90 6.09012
679.00 5.841224
679.10 5.897485
679.20 6.237287
679.30 6.774842
679.40 7.339328
679.50 7.773115
679.60 8.000356
679.70 8.03013
679.80 7.91684
679.90 7.708099
680.00 7.451698
680.10 7.188954
680.20 6.94653
680.30 6.751748
680.40 6.651143
680.50 6.700189
680.60 6.89197
680.70 7.160521
680.80 7.480192
680.90 7.830856
681.00 8.144225
681.10 8.330956
681.20 8.327502
681.30 8.136629
681.40 7.825485
681.50 7.496194
681.60 7.264691
681.70 7.216819
681.80 7.363613
681.90 7.661802
682.00 8.052649
682.10 8.475575
682.20 8.849315
682.30 9.134068
682.40 9.370659
682.50 9.578573
682.60 9.734011
682.70 9.804706
682.80 9.7615
682.90 9.619849
683.00 9.393707
683.10 9.066117
683.20 8.648625
683.30 8.218349
683.40 7.896457
683.50 7.78579
683.60 7.903382
683.70 8.151195
683.80 8.368904
683.90 8.446619
684.00 8.360215
684.10 8.135811
684.20 7.842356
684.30 7.547876
684.40 7.3526
684.50 7.384208
684.60 7.689512
684.70 8.212775
684.80 8.812151
684.90 9.288783
685.00 9.487119
685.10 9.362514
685.20 8.950156
685.30 8.346682
685.40 7.677286
685.50 7.062689
685.60 6.60919
685.70 6.397165
685.80 6.437666
685.90 6.677352
686.00 7.070912
686.10 7.513566
686.20 7.840128
686.30 8.012241
686.40 8.067762
686.50 8.004894
686.60 7.853641
686.70 7.669215
686.80 7.515876
686.90 7.467306
687.00 7.553481
687.10 7.727339
687.20 7.886168
687.30 7.934627
687.40 7.816688
687.50 7.566824
687.60 7.339565
687.70 7.244069
687.80 7.309855
687.90 7.563557
688.00 7.961583
688.10 8.410962
688.20 8.803438
688.30 9.035404
688.40 9.049723
688.50 8.843508
688.60 8.463517
688.70 7.975078
688.80 7.434697
688.90 6.915449
689.00 6.475553
689.10 6.127114
689.20 5.879096
689.30 5.748744
689.40 5.778156
689.50 5.984345
689.60 6.337385
689.70 6.78392
689.80 7.237321
689.90 7.611748
690.00 7.856991
690.10 7.962831
690.20 7.952257
690.30 7.838869
690.40 7.684603
690.50 7.618244
690.60 7.716153
690.70 8.002004
690.80 8.441891
690.90 8.936035
691.00 9.361769
691.10 9.643128
691.20 9.778673
691.30 9.775857
691.40 9.623175
691.50 9.316635
691.60 8.885872
691.70 8.417983
691.80 8.003147
691.90 7.699004
692.00 7.572644
692.10 7.636279
692.20 7.877415
692.30 8.251326
692.40 8.651121
692.50 8.967257
692.60 9.10638
692.70 9.034709
692.80 8.80732
692.90 8.550667
693.00 8.393391
693.10 8.362628
693.20 8.365359
693.30 8.305126
693.40 8.138547
693.50 7.8703
693.60 7.47474
693.70 6.960626
693.80 6.458087
693.90 6.105887
694.00 5.992968
694.10 6.141139
694.20 6.501438
694.30 6.985259
694.40 7.512324
694.50 8.010921
694.60 8.418034
694.70 8.697554
694.80 8.851768
694.90 8.926388
695.00 8.989417
695.10 9.083398
695.20 9.203923
695.30 9.322901
695.40 9.419397
695.50 9.513943
695.60 9.624385
695.70 9.712057
695.80 9.696222
695.90 9.570414
696.00 9.439989
696.10 9.381684
696.20 9.368877
696.30 9.337536
696.40 9.256776
696.50 9.094275
696.60 8.837478
696.70 8.523218
696.80 8.186533
696.90 7.844612
697.00 7.515277
697.10 7.24039
697.20 7.07036
697.30 7.068959
697.40 7.22633
697.50 7.472618
697.60 7.782179
697.70 8.116158
697.80 8.427346
697.90 8.708179
698.00 8.928707
698.10 9.028686
698.20 8.968894
698.30 8.730149
698.40 8.351947
698.50 7.910455
698.60 7.478952
698.70 7.071806
698.80 6.693092
698.90 6.350543
699.00 6.017203
699.10 5.686892
699.20 5.397395
699.30 5.212786
699.40 5.138607
699.50 5.163006
699.60 5.332283
699.70 5.689866
699.80 6.216047
699.90 6.871241
700.00 7.58679
700.10 8.261052
700.20 8.798625
700.30 9.131138
700.40 9.23221
700.50 9.107765
700.60 8.783745
700.70 8.314062
700.80 7.828263
700.90 7.440733
701.00 7.175879
701.10 7.05088
701.20 7.092849
701.30 7.287766
701.40 7.587393
701.50 7.922507
701.60 8.215217
701.70 8.408824
701.80 8.49784
701.90 8.527686
702.00 8.534112
702.10 8.528101
702.20 8.506769
702.30 8.479575
702.40 8.454103
702.50 8.398104
702.60 8.301832
702.70 8.182085
702.80 8.064068
702.90 7.999296
703.00 8.032605
703.10 8.184637
703.20 8.428172
703.30 8.692139
703.40 8.89852
703.50 9.000018
703.60 9.011904
703.70 8.957633
703.80 8.845837
703.90 8.71935
704.00 8.596536
704.10 8.466077
704.20 8.347749
704.30 8.292834
704.40 8.373008
704.50 8.63857
704.60 9.077469
704.70 9.596097
704.80 10.0661
704.90 10.37307
705.00 10.4218
705.10 10.17883
705.20 9.717471
705.30 9.150951
705.40 8.559052
705.50 8.011779
705.60 7.605365
705.70 7.408803
705.80 7.407137
705.90 7.527674
706.00 7.693657
706.10 7.910292
706.20 8.242092
706.30 8.697493
706.40 9.184108
706.50 9.632564
706.60 10.02988
706.70 10.33525
706.80 10.55387
706.90 10.72502
707.00 10.82679
707.10 10.81233
707.20 10.65143
707.30 10.36693
707.40 10.05309
707.50 9.783563
707.60 9.576484
707.70 9.461603
707.80 9.506021
707.90 9.708304
708.00 9.988073
708.10 10.27652
708.20 10.49092
708.30 10.5595
708.40 10.46826
708.50 10.23156
708.60 9.931269
708.70 9.680226
708.80 9.523078
708.90 9.452746
709.00 9.442327
709.10 9.470479
709.20 9.564262
709.30 9.781557
709.40 10.11276
709.50 10.47456
709.60 10.80248
709.70 11.05265
709.80 11.2059
709.90 11.29531
710.00 11.34947
710.10 11.37249
710.20 11.38301
710.30 11.42662
710.40 11.5573
710.50 11.80022
710.60 12.109
710.70 12.36778
710.80 12.47448
710.90 12.41537
711.00 12.2262
711.10 11.97141
711.20 11.69627
711.30 11.38898
711.40 11.04973
711.50 10.72426
711.60 10.49172
711.70 10.40175
711.80 10.43917
711.90 10.56218
712.00 10.72464
712.10 10.87499
712.20 10.96014
712.30 10.93052
712.40 10.80446
712.50 10.65516
712.60 10.5496
712.70 10.55832
712.80 10.7139
712.90 10.96032
713.00 11.18942
713.10 11.3501
713.20 11.45129
713.30 11.49007
713.40 11.46201
713.50 11.38729
713.60 11.31406
713.70 11.28021
713.80 11.25207
713.90 11.15828
714.00 10.94587
714.10 10.60073
714.20 10.15122
714.30 9.66381
714.40 9.211136
714.50 8.802895
714.60 8.405959
714.70 8.019618
714.80 7.68658
714.90 7.458287
715.00 7.36196
715.10 7.408527
715.20 7.628013
715.30 8.015331
715.40 8.507294
715.50 9.010107
715.60 9.41439
715.70 9.654747
715.80 9.716483
715.90 9.639185
716.00 9.508321
716.10 9.399984
716.20 9.365345
716.30 9.420139
716.40 9.550232
716.50 9.740572
716.60 9.926884
716.70 10.0278
716.80 10.02613
716.90 9.945609
717.00 9.822913
717.10 9.69844
717.20 9.648623
717.30 9.749648
717.40 10.04062
717.50 10.5053
717.60 11.04733
717.70 11.5547
717.80 11.93979
717.90 12.13282
718.00 12.09125
718.10 11.81929
718.20 11.36956
718.30 10.85165
718.40 10.41792
718.50 10.20636
718.60 10.26411
718.70 10.53543
718.80 10.94505
718.90 11.45926
719.00 12.06281
719.10 12.71643
719.20 13.35109
719.30 13.87483
719.40 14.1938
719.50 14.23971
719.60 13.99883
719.70 13.51345
719.80 12.86072
719.90 12.13257
720.00 11.43658
720.10 10.90177
720.20 10.63239
720.30 10.63837
720.40 10.83595
720.50 11.09405
720.60 11.29431
720.70 11.38229
720.80 11.35472
720.90 11.23992
721.00 11.06571
721.10 10.83773
721.20 10.57045
721.30 10.3031
721.40 10.07886
721.50 9.930703
721.60 9.829584
721.70 9.697426
721.80 9.507229
721.90 9.330163
722.00 9.292918
722.10 9.451856
722.20 9.767411
722.30 10.16804
722.40 10.58404
722.50 10.96444
722.60 11.2614
722.70 11.42011
722.80 11.39459
722.90 11.1683
723.00 10.79329
723.10 10.39869
723.20 10.11191
723.30 9.955465
723.40 9.832435
723.50 9.677761
723.60 9.537307
723.70 9.456032
723.80 9.497017
723.90 9.754173
724.00 10.24831
724.10 10.92493
724.20 11.73991
724.30 12.61547
724.40 13.40095
724.50 13.96479
724.60 14.19623
724.70 14.01426
724.80 13.41253
724.90 12.46481
725.00 11.36589
725.10 10.38592
725.20 9.669048
725.30 9.233594
725.40 9.113817
725.50 9.368651
725.60 9.954147
725.70 10.73205
725.80 11.54309
725.90 12.1773
726.00 12.47965
726.10 12.45084
726.20 12.23816
726.30 12.02518
726.40 11.85954
726.50 11.68706
726.60 11.50391
726.70 11.34474
726.80 11.2077
726.90 11.05593
727.00 10.90102
727.10 10.83373
727.20 10.96831
727.30 11.37403
727.40 12.01908
727.50 12.82357
727.60 13.66106
727.70 14.33989
727.80 14.6866
727.90 14.63298
728.00 14.23456
728.10 13.6338
728.20 13.00918
728.30 12.50541
728.40 12.16995
728.50 11.95077
728.60 11.77044
728.70 11.59852
728.80 11.41916
728.90 11.13469
729.00 10.60042
729.10 9.747558
729.20 8.660691
729.30 7.561597
729.40 6.683456
729.50 6.179179
729.60 6.133654
729.70 6.552762
729.80 7.33817
729.90 8.289947
730.00 9.133573
730.10 9.603206
730.20 9.552711
730.30 9.018179
730.40 8.203406
730.50 7.385716
730.60 6.790871
730.70 6.534137
730.80 6.657889
730.90 7.136555
731.00 7.844785
731.10 8.601396
731.20 9.229885
731.30 9.616824
731.40 9.745761
731.50 9.715746
731.60 9.697889
731.70 9.820362
731.80 10.10882
731.90 10.51941
732.00 10.98722
732.10 11.41832
732.20 11.69124
732.30 11.70126
732.40 11.44977
732.50 11.02973
732.60 10.57735
732.70 10.20795
732.80 9.976771
732.90 9.896168
733.00 9.896031
733.10 9.869874
733.20 9.770218
733.30 9.598578
733.40 9.371113
733.50 9.0939
733.60 8.736249
733.70 8.299096
733.80 7.889545
733.90 7.653966
734.00 7.669458
734.10 7.968011
734.20 8.539602
734.30 9.256439
734.40 9.91149
734.50 10.32587
734.60 10.38803
734.70 10.08514
734.80 9.495305
734.90 8.795218
735.00 8.252806
735.10 8.085252
735.20 8.293552
735.30 8.723171
735.40 9.199404
735.50 9.570933
735.60 9.721459
735.70 9.621696
735.80 9.373475
735.90 9.12013
736.00 8.941678
736.10 8.81687
736.20 8.703087
736.30 8.591805
736.40 8.480032
736.50 8.35549
736.60 8.154362
736.70 7.811989
736.80 7.37247
736.90 6.962901
737.00 6.703747
737.10 6.632889
737.20 6.72536
737.30 6.934538
737.40 7.239263
737.50 7.656651
737.60 8.168559
737.70 8.679811
737.80 9.055248
737.90 9.200912
738.00 9.133634
738.10 8.936044
738.20 8.674589
738.30 8.407758
738.40 8.230601
738.50 8.242549
738.60 8.501569
738.70 9.024366
738.80 9.744445
738.90 10.55064
739.00 11.34331
739.10 12.0237
739.20 12.48607
739.30 12.61741
739.40 12.35463
739.50 11.73736
739.60 10.91827
739.70 10.07569
739.80 9.333346
739.90 8.771182
740.00 8.388626
740.10 8.121904
740.20 7.929429
740.30 7.800154
740.40 7.711025
740.50 7.622146
740.60 7.524816
740.70 7.472918
740.80 7.534922
740.90 7.730133
741.00 7.972051
741.10 8.124501
741.20 8.093356
741.30 7.837998
741.40 7.397415
741.50 6.867737
741.60 6.358497
741.70 5.968059
741.80 5.766202
741.90 5.801854
742.00 6.080595
742.10 6.53109
742.20 7.036998
742.30 7.488019
742.40 7.84174
742.50 8.11849
742.60 8.331802
742.70 8.511974
742.80 8.717874
742.90 8.957981
743.00 9.16446
743.10 9.260181
743.20 9.219015
743.30 9.079077
743.40 8.944196
743.50 8.957889
743.60 9.199754
743.70 9.681009
743.80 10.29304
743.90 10.83719
744.00 11.17272
744.10 11.16756
744.20 10.73083
744.30 9.951756
744.40 9.049198
744.50 8.220591
744.60 7.585804
744.70 7.181967
744.80 6.975361
744.90 6.876906
745.00 6.819058
745.10 6.746922
745.20 6.640271
745.30 6.535271
745.40 6.466972
745.50 6.507944
745.60 6.70103
745.70 6.948837
745.80 7.114179
745.90 7.124255
746.00 6.918935
746.10 6.487406
746.20 5.914483
746.30 5.323932
746.40 4.828641
746.50 4.511164
746.60 4.407563
746.70 4.502126
746.80 4.758593
746.90 5.157347
747.00 5.688871
747.10 6.351217
747.20 7.08751
747.30 7.774384
747.40 8.337033
747.50 8.73589
747.60 8.893415
747.70 8.748615
747.80 8.287586
747.90 7.5793
748.00 6.803106
748.10 6.177275
748.20 5.85063
748.30 5.8412
748.40 6.075489
748.50 6.422389
748.60 6.727203
748.70 6.854488
748.80 6.722152
748.90 6.321555
749.00 5.722621
749.10 5.046975
749.20 4.46308
749.30 4.125742
749.40 4.094821
749.50 4.335432
749.60 4.764511
749.70 5.251532
749.80 5.618841
749.90 5.72635
750.00 5.546069
750.10 5.1773
750.20 4.770322
750.30 4.420046
750.40 4.152945
750.50 3.985983
750.60 3.938028
750.70 4.003479
750.80 4.155875
750.90 4.36132
751.00 4.587489
751.10 4.803101
751.20 4.981508
751.30 5.102718
751.40 5.13751
751.50 5.032391
751.60 4.738928
751.70 4.26668
751.80 3.730836
751.90 3.307225
752.00 3.07649
752.10 3.021582
752.20 3.167182
752.30 3.552483
752.40 4.096572
752.50 4.662913
752.60 5.151352
752.70 5.486791
752.80 5.625084
752.90 5.563384
753.00 5.336997
753.10 5.030936
753.20 4.733949
753.30 4.49894
753.40 4.425005
753.50 4.618098
753.60 5.02207
753.70 5.441989
753.80 5.706494
753.90 5.709257
754.00 5.410932
754.10 4.873046
754.20 4.224488
754.30 3.593237
754.40 3.097258
754.50 2.848622
754.60 2.897816
754.70 3.214979
754.80 3.702539
754.90 4.226435
755.00 4.656454
755.10 4.899333
755.20 4.936265
755.30 4.811995
755.40 4.606685
755.50 4.388408
755.60 4.218366
755.70 4.178306
755.80 4.321908
755.90 4.638054
756.00 5.055373
756.10 5.462711
756.20 5.778888
756.30 5.971222
756.40 6.050996
756.50 6.100761
756.60 6.208713
756.70 6.402683
756.80 6.649818
756.90 6.892984
757.00 7.075017
757.10 7.154258
757.20 7.122121
757.30 6.971778
757.40 6.707954
757.50 6.347423
757.60 5.920316
757.70 5.4762
757.80 5.035428
757.90 4.586092
758.00 4.085064
758.10 3.521391
758.20 2.962369
758.30 2.493141
758.40 2.184143
758.50 2.072655
758.60 2.141067
758.70 2.330478
758.80 2.591866
758.90 2.916169
759.00 3.272913
759.10 3.603067
759.20 3.908784
759.30 4.214493
759.40 4.602634
759.50 5.147537
759.60 5.816826
759.70 6.521565
759.80 7.162133
759.90 7.650648
760.00 7.878917
760.10 7.713654
760.20 7.071826
760.30 6.034759
760.40 4.786175
760.50 3.525599
760.60 2.439558
760.70 1.694375
760.80 1.382177
760.90 1.488436
761.00 1.910444
761.10 2.475279
761.20 2.965811
761.30 3.195297
761.40 3.111389
761.50 2.847196
761.60 2.62642
761.70 2.607878
761.80 2.863118
761.90 3.389521
762.00 4.095429
762.10 4.796649
762.20 5.244118
762.30 5.291292
762.40 4.95893
762.50 4.28397
762.60 3.327501
762.70 2.236451
762.80 1.224671
762.90 0.5063208
763.00 0.1953599
763.10 0.2629993
763.20 0.6109763
763.30 1.121988
763.40 1.664182
763.50 2.113875
763.60 2.395277
763.70 2.430424
763.80 2.156505
763.90 1.705256
764.00 1.317255
764.10 1.131501
764.20 1.164126
764.30 1.373189
764.40 1.678369
764.50 1.954121
764.60 2.093053
764.70 2.067198
764.80 1.915842
764.90 1.715776
765.00 1.55195
765.10 1.505324
765.20 1.603691
765.30 1.754204
765.40 1.794417
765.50 1.646924
765.60 1.322381
765.70 0.8419021
765.80 0.2882456
765.90 0
766.00 0
766.10 0
766.20 0
766.30 0.4024447
766.40 0.9857109
766.50 1.527972
766.60 1.884402
766.70 1.988151
766.80 1.876724
766.90 1.598326
767.00 1.19856
767.10 0.7644365
767.20 0.3700307
767.30 0.08407716
767.40 0
767.50 0.06535945
767.60 0.3148065
767.70 0.6718751
767.80 1.080543
767.90 1.507443
768.00 1.980605
768.10 2.519168
768.20 3.049642
768.30 3.472281
768.40 3.73021
768.50 3.801637
768.60 3.720546
768.70 3.560599
768.80 3.376179
768.90 3.199085
769.00 3.032353
769.10 2.856531
769.20 2.707486
769.30 2.648372
769.40 2.63201
769.50 2.559283
769.60 2.406062
769.70 2.183399
769.80 1.938968
769.90 1.754149
770.00 1.67772
770.10 1.730459
770.20 1.905179
770.30 2.127946
770.40 2.295278
770.50 2.311713
770.60 1.991772
770.70 1.116569
770.80 0
770.90 0
771.00 0
771.10 0
771.20 0
771.30 0
771.40 0
771.50 0
771.60 0
771.70 0
771.80 0.3526321
771.90 1.046257
772.00 1.3524
772.10 1.345648
772.20 1.11058
772.30 0.7462537
772.40 0.3404314
772.50 0
772.60 0
772.70 0
772.80 0
772.90 0.09484658
773.00 0.9874875
773.10 1.971052
773.20 2.846658
773.30 3.450456
773.40 3.730185
773.50 3.771711
773.60 3.684423
773.70 3.537318
773.80 3.375815
773.90 3.224775
774.00 3.062165
774.10 2.862135
774.20 2.596678
774.30 2.263268
774.40 1.905657
774.50 1.576584
774.60 1.376922
774.70 1.352409
774.80 1.47474
774.90 1.729002
775.00 2.138947
775.10 2.700313
775.20 3.350712
775.30 3.999078
775.40 4.482226
775.50 4.596793
775.60 4.20798
775.70 3.319941
775.80 2.128952
775.90 0.8945354
776.00 0
776.10 0
776.20 0
776.30 0
776.40 0
776.50 0.1485292
776.60 1.098097
776.70 1.926858
776.80 2.468482
776.90 2.770225
777.00 2.934859
777.10 2.99608
777.20 2.992671
777.30 3.011296
777.40 3.161297
777.50 3.49101
777.60 4.000009
777.70 4.651197
777.80 5.282118
777.90 5.703427
778.00 5.803619
778.10 5.601862
778.20 5.191564
778.30 4.644657
778.40 4.091074
778.50 3.66553
778.60 3.364639
778.70 3.099573
778.80 2.881752
778.90 2.849972
779.00 3.014433
779.10 3.280868
779.20 3.652343
779.30 4.12995
779.40 4.630886
779.50 5.046152
779.60 5.294838
779.70 5.298033
779.80 4.982508
779.90 4.411927
780.00 3.792268
780.10 3.353013
780.20 3.159796
780.30 3.051676
780.40 2.904139
780.50 2.685613
780.60 2.36866
780.70 1.970637
780.80 1.573799
780.90 1.332636
781.00 1.390554
781.10 1.818599
781.20 2.596205
781.30 3.604063
781.40 4.67574
781.50 5.604856
781.60 6.17796
781.70 6.278116
781.80 5.899008
781.90 5.148345
782.00 4.246819
782.10 3.465634
782.20 3.072181
782.30 3.184672
782.40 3.766488
782.50 4.705735
782.60 5.818231
782.70 6.878153
782.80 7.646606
782.90 7.988775
783.00 7.958662
783.10 7.69188
783.20 7.312077
783.30 6.928572
783.40 6.623204
783.50 6.427892
783.60 6.321127
783.70 6.323714
783.80 6.463632
783.90 6.711521
784.00 7.037996
784.10 7.408677
784.20 7.77141
784.30 8.03228
784.40 8.108027
784.50 8.001051
784.60 7.764868
784.70 7.460661
784.80 7.137131
784.90 6.913374
785.00 7.048763
785.10 7.736254
785.20 9.001178
785.30 10.71228
785.40 12.56786
785.50 14.23844
785.60 15.47688
785.70 16.12484
785.80 16.09355
785.90 15.3965
786.00 14.18811
786.10 12.72696
786.20 11.32914
786.30 10.23185
786.40 9.442288
786.50 8.880466
786.60 8.497965
786.70 8.316245
786.80 8.400201
786.90 8.769219
787.00 9.389296
787.10 10.14188
787.20 10.79272
787.30 11.13275
787.40 11.09363
787.50 10.68273
787.60 9.977937
787.70 9.211351
787.80 8.676933
787.90 8.513776
788.00 8.74049
788.10 9.310338
788.20 10.09371
788.30 10.85187
788.40 11.34932
788.50 11.50966
788.60 11.43015
788.70 11.24121
788.80 11.0298
788.90 10.90003
789.00 10.92554
789.10 11.00835
789.20 10.97393
789.30 10.79877
789.40 10.52983
789.50 10.18419
789.60 9.824226
789.70 9.585848
789.80 9.559993
789.90 9.726428
790.00 10.01812
790.10 10.36987
790.20 10.70888
790.30 10.96727
790.40 11.11859
790.50 11.20598
790.60 11.29708
790.70 11.3827
790.80 11.34214
790.90 11.07044
791.00 10.60542
791.10 10.03574
791.20 9.41379
791.30 8.855347
791.40 8.479679
791.50 8.316634
791.60 8.370248
791.70 8.618981
791.80 9.015415
791.90 9.493804
792.00 9.968163
792.10 10.37445
792.20 10.76712
792.30 11.22212
792.40 11.71634
792.50 12.189
792.60 12.54783
792.70 12.60927
792.80 12.20179
792.90 11.31491
793.00 10.11075
793.10 8.806173
793.20 7.645443
793.30 6.830292
793.40 6.451334
793.50 6.581073
793.60 7.209489
793.70 8.189635
793.80 9.26216
793.90 10.17107
794.00 10.76768
794.10 11.04631
794.20 11.05861
794.30 10.77427
794.40 10.11859
794.50 9.12652
794.60 7.902299
794.70 6.617555
794.80 5.558067
794.90 4.970646
795.00 4.978662
795.10 5.584227
795.20 6.676917
795.30 8.04381
795.40 9.458102
795.50 10.71566
795.60 11.69241
795.70 12.36566
795.80 12.73865
795.90 12.88343
796.00 12.92219
796.10 12.96238
796.20 13.09589
796.30 13.33287
796.40 13.6646
796.50 14.13754
796.60 14.79678
796.70 15.65282
796.80 16.6374
796.90 17.61913
797.00 18.4609
797.10 19.06988
797.20 19.42104
797.30 19.4726
797.40 19.15946
797.50 18.47749
797.60 17.50324
797.70 16.39989
797.80 15.33946
797.90 14.43677
798.00 13.75114
798.10 13.31453
798.20 13.16958
798.30 13.35067
798.40 13.80841
798.50 14.42115
798.60 15.04851
798.70 15.58886
798.80 16.00883
798.90 16.31998
799.00 16.4797
799.10 16.38879
799.20 16.0775
799.30 15.72341
799.40 15.44568
799.50 15.21194
799.60 14.96421
799.70 14.7054
799.80 14.52761
799.90 14.56282
800.00 14.89346
800.10 15.49035
800.20 16.2468
800.30 17.01416
800.40 17.67418
800.50 18.19718
800.60 18.52889
800.70 18.54945
800.80 18.28679
800.90 17.94161
801.00 17.66633
801.10 17.48979
801.20 17.39159
801.30 17.3422
801.40 17.29305
801.50 17.23072
801.60 17.17743
801.70 17.14576
801.80 17.10175
801.90 16.99885
802.00 16.82044
802.10 16.6432
802.20 16.48349
802.30 16.33173
802.40 16.269
802.50 16.43249
802.60 16.91914
802.70 17.67451
802.80 18.5899
802.90 19.48683
803.00 20.17995
803.10 20.59429
803.20 20.73733
803.30 20.6547
803.40 20.41196
803.50 20.03214
803.60 19.64019
803.70 19.40556
803.80 19.38832
803.90 19.52399
804.00 19.64088
804.10 19.63833
804.20 19.55314
804.30 19.52217
804.40 19.65346
804.50 19.976
804.60 20.52664
804.70 21.30833
804.80 22.23129
804.90 23.16995
805.00 23.9795
805.10 24.50825
805.20 24.66452
805.30 24.46883
805.40 24.04556
805.50 23.51919
805.60 22.9305
805.70 22.31381
805.80 21.74247
805.90 21.26606
806.00 20.87312
806.10 20.56177
806.20 20.38203
806.30 20.38061
806.40 20.53579
806.50 20.77385
806.60 21.03379
806.70 21.24645
806.80 21.31936
806.90 21.22518
807.00 21.05357
807.10 20.9428
807.20 21.02976
807.30 21.41127
807.40 22.09682
807.50 22.98879
807.60 23.88652
807.70 24.56529
807.80 24.87245
807.90 24.7485
808.00 24.23505
808.10 23.51361
808.20 22.85877
808.30 22.48204
808.40 22.46952
808.50 22.80288
808.60 23.39333
808.70 24.14843
808.80 24.9397
808.90 25.59716
809.00 26.00654
809.10 26.12325
809.20 25.9436
809.30 25.52543
809.40 24.96147
809.50 24.30083
809.60 23.57604
809.70 22.91311
809.80 22.43835
809.90 22.17498
810.00 22.08576
810.10 22.08384
810.20 22.11993
810.30 22.22717
810.40 22.4449
810.50 22.78659
810.60 23.26175
810.70 23.82755
810.80 24.37488
810.90 24.79003
811.00 25.01737
811.10 25.06353
811.20 24.97408
811.30 24.84463
811.40 24.75611
811.50 24.72671
811.60 24.75847
811.70 24.84408
811.80 24.94825
811.90 25.03332
812.00 25.04181
812.10 24.95049
812.20 24.84765
812.30 24.88146
812.40 25.14497
812.50 25.62346
812.60 26.20153
812.70 26.75708
812.80 27.24737
812.90 27.65841
813.00 27.94197
813.10 28.01776
813.20 27.83273
813.30 27.45942
813.40 27.08669
813.50 26.87274
813.60 26.86117
813.70 27.00441
813.80 27.23196
813.90 27.43712
814.00 27.51403
814.10 27.34425
814.20 26.82869
814.30 26.03756
814.40 25.16599
814.50 24.45503
814.60 24.1228
814.70 24.22067
814.80 24.69709
814.90 25.51728
815.00 26.58244
815.10 27.71154
815.20 28.71925
815.30 29.4713
815.40 29.89545
815.50 30.01855
815.60 29.94436
815.70 29.73294
815.80 29.40685
815.90 29.04079
816.00 28.76515
816.10 28.69616
816.20 28.83561
816.30 29.08273
816.40 29.35677
816.50 29.62662
816.60 29.87775
816.70 30.13249
816.80 30.43416
816.90 30.79032
817.00 31.15438
817.10 31.47235
817.20 31.73048
817.30 31.91827
817.40 32.0049
817.50 31.96469
817.60 31.82312
817.70 31.63363
817.80 31.438
817.90 31.2994
818.00 31.27855
818.10 31.33472
818.20 31.36535
818.30 31.29552
818.40 31.07577
818.50 30.70313
818.60 30.20823
818.70 29.64879
818.80 29.13399
818.90 28.76076
819.00 28.51557
819.10 28.33177
819.20 28.13969
819.30 27.85977
819.40 27.43952
819.50 26.93597
819.60 26.55375
819.70 26.54142
819.80 27.09438
819.90 28.2423
820.00 29.85468
820.10 31.73181
820.20 33.58118
820.30 35.1394
820.40 36.28164
820.50 36.91317
820.60 36.98207
820.70 36.58792
820.80 35.94275
820.90 35.26476
821.00 34.70101
821.10 34.31284
821.20 34.09656
821.30 34.03481
821.40 34.08586
821.50 34.12162
821.60 34.0121
821.70 33.65075
821.80 32.98388
821.90 32.11384
822.00 31.24024
822.10 30.5249
822.20 30.09546
822.30 30.0644
822.40 30.46688
822.50 31.24889
822.60 32.3095
822.70 33.51512
822.80 34.71215
822.90 35.71376
823.00 36.31267
823.10 36.41151
823.20 36.07948
823.30 35.48915
823.40 34.8627
823.50 34.38267
823.60 34.15382
823.70 34.25011
823.80 34.69355
823.90 35.43031
824.00 36.30303
824.10 37.03571
824.20 37.3579
824.30 37.17156
824.40 36.5752
824.50 35.79113
824.60 35.07293
824.70 34.62545
824.80 34.555
824.90 34.89264
825.00 35.56231
825.10 36.35922
825.20 37.07133
825.30 37.53829
825.40 37.65421
825.50 37.44769
825.60 37.05341
825.70 36.61292
825.80 36.32493
825.90 36.35302
826.00 36.69148
826.10 37.25465
826.20 37.93745
826.30 38.62922
826.40 39.24828
826.50 39.69867
826.60 39.79524
826.70 39.40112
826.80 38.58081
826.90 37.52994
827.00 36.49067
827.10 35.68658
827.20 35.22616
827.30 35.09746
827.40 35.24137
827.50 35.51555
827.60 35.72566
827.70 35.7365
827.80 35.47199
827.90 34.90329
828.00 34.11904
828.10 33.27998
828.20 32.51648
828.30 31.95417
828.40 31.69098
828.50 31.73347
828.60 32.12029
828.70 32.93727
828.80 34.19856
828.90 35.85962
829.00 37.74308
829.10 39.52842
829.20 40.89227
829.30 41.64285
829.40 41.751
829.50 41.26533
829.60 40.26367
829.70 38.89713
829.80 37.49067
829.90 36.4736
830.00 35.99108
830.10 35.90381
830.20 36.06766
830.30 36.33445
830.40 36.58502
830.50 36.75585
830.60 36.82361
830.70 36.77413
830.80 36.57446
830.90 36.32308
831.00 36.25713
831.10 36.56045
831.20 37.23649
831.30 38.14212
831.40 39.15783
831.50 40.17395
831.60 41.03228
831.70 41.63468
831.80 42.01997
831.90 42.28528
832.00 42.54307
832.10 42.92813
832.20 43.57459
832.30 44.49554
832.40 45.51186
832.50 46.36319
832.60 46.82229
832.70 46.78938
832.80 46.29723
832.90 45.46897
833.00 44.46319
833.10 43.40672
833.20 42.38589
833.30 41.47635
833.40 40.78928
833.50 40.46003
833.60 40.50992
833.70 40.78136
833.80 41.07619
833.90 41.22372
834.00 41.08158
834.10 40.59048
834.20 39.82339
834.30 38.99086
834.40 38.45227
834.50 38.54534
834.60 39.35626
834.70 40.76581
834.80 42.46739
834.90 44.02071
835.00 45.05745
835.10 45.33138
835.20 44.85694
835.30 43.93053
835.40 42.89366
835.50 42.0609
835.60 41.65939
835.70 41.78057
835.80 42.30656
835.90 42.99607
836.00 43.68142
836.10 44.24528
836.20 44.58864
836.30 44.66355
836.40 44.5276
836.50 44.39192
836.60 44.40744
836.70 44.57256
836.80 44.88615
836.90 45.32687
837.00 45.82529
837.10 46.27836
837.20 46.55161
837.30 46.53481
837.40 46.22748
837.50 45.77198
837.60 45.38883
837.70 45.25151
837.80 45.3859
837.90 45.69488
838.00 46.07462
838.10 46.43326
838.20 46.69002
838.30 46.82457
838.40 46.83249
838.50 46.70045
838.60 46.45326
838.70 46.14463
838.80 45.82927
838.90 45.52157
839.00 45.1529
839.10 44.67967
839.20 44.19968
839.30 43.85118
839.40 43.69248
839.50 43.7112
839.60 43.78191
839.70 43.68475
839.80 43.38957
839.90 43.08469
840.00 42.88291
840.10 42.80344
840.20 42.88199
840.30 43.14106
840.40 43.63714
840.50 44.45648
840.60 45.59553
840.70 46.93934
840.80 48.23911
840.90 49.28179
841.00 50.10519
841.10 50.77589
841.20 51.0671
841.30 50.67042
841.40 49.63516
841.50 48.31938
841.60 47.10135
841.70 46.25386
841.80 45.90282
841.90 45.98711
842.00 46.28863
842.10 46.65712
842.20 47.15909
842.30 47.85109
842.40 48.61326
842.50 49.32042
842.60 50.06264
842.70 50.97679
842.80 51.95595
842.90 52.76548
843.00 53.18186
843.10 53.0153
843.20 52.20172
843.30 50.8666
843.40 49.31739
843.50 47.83661
843.60 46.58218
843.70 45.70539
843.80 45.3298
843.90 45.52583
844.00 46.21235
844.10 47.19685
844.20 48.33454
844.30 49.46812
844.40 50.42529
844.50 51.11305
844.60 51.52498
844.70 51.71561
844.80 51.67259
844.90 51.27456
845.00 50.45892
845.10 49.27849
845.20 47.88895
845.30 46.52019
845.40 45.41275
845.50 44.71324
845.60 44.41795
845.70 44.48627
845.80 44.86509
845.90 45.45872
846.00 46.18305
846.10 46.9001
846.20 47.37777
846.30 47.45999
846.40 47.17133
846.50 46.64895
846.60 46.07007
846.70 45.58675
846.80 45.29461
846.90 45.22625
847.00 45.41447
847.10 45.85167
847.20 46.53649
847.30 47.45667
847.40 48.37462
847.50 48.98953
847.60 49.26326
847.70 49.36963
847.80 49.42467
847.90 49.42242
848.00 49.29015
848.10 49.00022
848.20 48.65402
848.30 48.42302
848.40 48.42849
848.50 48.69733
848.60 49.11392
848.70 49.49946
848.80 49.76469
848.90 49.89037
849.00 49.89879
849.10 49.79646
849.20 49.54604
849.30 49.18073
849.40 48.84899
849.50 48.65579
849.60 48.56382
849.70 48.53922
849.80 48.63867
849.90 48.92311
850.00 49.38905
850.10 49.89834
850.20 50.23386
850.30 50.27864
850.40 50.06207
850.50 49.7072
850.60 49.39865
850.70 49.26968
850.80 49.31564
850.90 49.50778
851.00 49.8482
851.10 50.23355
851.20 50.43513
851.30 50.27032
851.40 49.65524
851.50 48.62716
851.60 47.3297
851.70 45.81176
851.80 43.96276
851.90 41.71318
852.00 39.15444
852.10 36.51209
852.20 34.15332
852.30 32.51528
852.40 31.94047
852.50 32.58809
852.60 34.41919
852.70 37.14276
852.80 40.32206
852.90 43.58678
853.00 46.6907
853.10 49.48359
853.20 51.89015
853.30 53.88083
853.40 55.46127
853.50 56.68848
853.60 57.60308
853.70 58.17027
853.80 58.37146
853.90 58.2887
854.00 58.04136
854.10 57.75542
854.20 57.53372
854.30 57.36472
854.40 57.12207
854.50 56.65609
854.60 55.86849
854.70 54.81682
854.80 53.71452
854.90 52.80853
855.00 52.35212
855.10 52.53701
855.20 53.37175
855.30 54.68194
855.40 56.24105
855.50 57.83231
855.60 59.23289
855.70 60.24256
855.80 60.74555
855.90 60.79564
856.00 60.61534
856.10 60.4071
856.20 60.31185
856.30 60.46613
856.40 60.90372
856.50 61.555
856.60 62.34767
856.70 63.257
856.80 64.27607
856.90 65.29519
857.00 66.04282
857.10 66.2408
857.20 65.76535
857.30 64.65185
857.40 63.04155
857.50 61.17931
857.60 59.36093
857.70 57.81343
857.80 56.70519
857.90 56.16603
858.00 56.23582
858.10 56.82962
858.20 57.70918
858.30 58.56621
858.40 59.21414
858.50 59.60868
858.60 59.74851
858.70 59.62399
858.80 59.21819
858.90 58.54202
859.00 57.62114
859.10 56.52001
859.20 55.33569
859.30 54.1686
859.40 53.17785
859.50 52.50931
859.60 52.27494
859.70 52.5715
859.80 53.4188
859.90 54.70547
860.00 56.206
860.10 57.70364
860.20 59.04508
860.30 60.12582
860.40 60.87385
860.50 61.23309
860.60 61.17752
860.70 60.7398
860.80 59.91896
860.90 58.69622
861.00 57.07569
861.10 55.10412
861.20 52.8871
861.30 50.56633
861.40 48.33139
861.50 46.38389
861.60 44.84527
861.70 43.63955
861.80 42.62985
861.90 41.76016
862.00 40.99991
862.10 40.33447
862.20 39.81374
862.30 39.4975
862.40 39.36173
862.50 39.33056
862.60 39.30534
862.70 39.09907
862.80 38.41686
862.90 37.10428
863.00 35.38839
863.10 33.82574
863.20 32.97171
863.30 33.18163
863.40 34.6174
863.50 37.14927
863.60 40.30283
863.70 43.4413
863.80 45.9946
863.90 47.51543
864.00 47.76069
864.10 46.87186
864.20 45.38266
864.30 43.84561
864.40 42.53666
864.50 41.49412
864.60 40.64013
864.70 39.88287
864.80 39.15289
864.90 38.46091
865.00 37.94711
865.10 37.75448
865.20 37.92568
865.30 38.45213
865.40 39.28209
865.50 40.31292
865.60 41.42274
865.70 42.48405
865.80 43.42165
865.90 44.20491
866.00 44.85341
866.10 45.47584
866.20 46.18848
866.30 47.03989
866.40 48.0215
866.50 49.08781
866.60 50.12777
866.70 50.91882
866.80 51.24013
866.90 51.14262
867.00 50.94677
867.10 50.90296
867.20 51.04894
867.30 51.3982
867.40 51.98285
867.50 52.74228
867.60 53.53847
867.70 54.08445
867.80 53.97337
867.90 52.98976
868.00 51.25902
868.10 49.17574
868.20 47.24749
868.30 45.85421
868.40 45.15656
868.50 45.24001
868.60 46.11044
868.70 47.56906
868.80 49.21633
868.90 50.55423
869.00 51.11457
869.10 50.70606
869.20 49.53265
869.30 47.92551
869.40 46.21354
869.50 44.80678
869.60 44.1313
869.70 44.34042
869.80 45.18808
869.90 46.31083
870.00 47.41651
870.10 48.21547
870.20 48.41033
870.30 47.78519
870.40 46.34296
870.50 44.45681
870.60 42.69358
870.70 41.48773
870.80 41.09228
870.90 41.54136
871.00 42.67461
871.10 44.23577
871.20 45.90552
871.30 47.40714
871.40 48.55883
871.50 49.26738
871.60 49.54213
871.70 49.53747
871.80 49.42935
871.90 49.19563
872.00 48.71197
872.10 48.01142
872.20 47.25006
872.30 46.62417
872.40 46.2471
872.50 46.1694
872.60 46.51005
872.70 47.23794
872.80 48.1345
872.90 48.96775
873.00 49.55736
873.10 49.74878
873.20 49.49454
873.30 48.88731
873.40 48.05458
873.50 47.16431
873.60 46.39189
873.70 45.85739
873.80 45.64775
873.90 45.7683
874.00 46.08155
874.10 46.42287
874.20 46.73961
874.30 47.04308
874.40 47.35339
874.50 47.70209
874.60 48.11194
874.70 48.54889
874.80 48.91273
874.90 49.15642
875.00 49.32963
875.10 49.4615
875.20 49.50433
875.30 49.44104
875.40 49.37902
875.50 49.41274
875.60 49.46192
875.70 49.3977
875.80 49.22221
875.90 49.00842
876.00 48.81101
876.10 48.75794
876.20 49.0456
876.30 49.65959
876.40 50.37083
876.50 50.97029
876.60 51.32877
876.70 51.45736
876.80 51.57074
876.90 51.91211
877.00 52.67758
877.10 54.00602
877.20 55.88064
877.30 58.15184
877.40 60.51281
877.50 62.42599
877.60 63.28943
877.70 62.83899
877.80 61.1376
877.90 58.55485
878.00 55.75905
878.10 53.32775
878.20 51.49125
878.30 50.36283
878.40 49.94914
878.50 50.0592
878.60 50.40283
878.70 50.63908
878.80 50.51434
878.90 50.04016
879.00 49.5364
879.10 49.37743
879.20 49.8892
879.30 51.18848
879.40 53.07167
879.50 55.137
879.60 56.90111
879.70 57.92754
879.80 58.01897
879.90 57.27797
880.00 55.96871
880.10 54.45017
880.20 53.15881
880.30 52.47548
880.40 52.53973
880.50 53.23752
880.60 54.29702
880.70 55.39366
880.80 56.26855
880.90 56.83286
881.00 57.1895
881.10 57.52228
881.20 57.93186
881.30 58.4264
881.40 59.0331
881.50 59.79059
881.60 60.66483
881.70 61.47487
881.80 61.92288
881.90 61.72953
882.00 60.84101
882.10 59.551
882.20 58.49632
882.30 58.3125
882.40 59.15193
882.50 60.77513
882.60 62.72833
882.70 64.38068
882.80 65.13032
882.90 64.60328
883.00 62.68102
883.10 59.61365
883.20 56.0209
883.30 52.66144
883.40 50.2969
883.50 49.41246
883.60 49.95279
883.70 51.5285
883.80 53.78211
883.90 56.31244
884.00 58.70077
884.10 60.735
884.20 62.21924
884.30 62.8498
884.40 62.51698
884.50 61.43576
884.60 60.02224
884.70 58.79019
884.80 58.12693
884.90 58.19825
885.00 58.98908
885.10 60.35648
885.20 62.03058
885.30 63.61002
885.40 64.68318
885.50 64.93263
885.60 64.32482
885.70 63.1466
885.80 61.76885
885.90 60.50034
886.00 59.58217
886.10 59.18461
886.20 59.3568
886.30 59.97795
886.40 60.78154
886.50 61.36459
886.60 61.40739
886.70 60.87499
886.80 59.93865
886.90 58.84045
887.00 57.76058
887.10 56.87751
887.20 56.39124
887.30 56.40556
887.40 56.91133
887.50 57.87877
887.60 59.22118
887.70 60.7255
887.80 62.0942
887.90 63.14272
888.00 63.83978
888.10 64.07713
888.20 63.55003
888.30 62.18053
888.40 60.46086
888.50 59.1399
888.60 58.8709
888.70 59.98719
888.80 62.37551
888.90 65.50999
889.00 68.67062
889.10 71.19013
889.20 72.62803
889.30 72.77302
889.40 71.6091
889.50 69.54985
889.60 67.53998
889.70 66.44432
889.80 66.52922
889.90 67.58101
890.00 69.09654
890.10 70.51515
890.20 71.47061
890.30 71.79658
890.40 71.40139
890.50 70.27983
890.60 68.60553
890.70 66.69176
890.80 64.8993
890.90 63.53417
891.00 62.70955
891.10 62.36462
891.20 62.41371
891.30 62.77561
891.40 63.37093
891.50 64.05718
891.60 64.39277
891.70 63.56394
891.80 61.09182
891.90 57.40641
892.00 53.37732
892.10 49.86215
892.20 47.52114
892.30 46.64235
892.40 47.18231
892.50 48.87438
892.60 51.24722
892.70 53.69144
892.80 55.63989
892.90 56.73151
893.00 57.05497
893.10 57.34137
893.20 58.31872
893.30 60.09894
893.40 62.38013
893.50 64.6942
893.60 66.52005
893.70 67.5088
893.80 67.49807
893.90 66.2557
894.00 63.54057
894.10 59.40403
894.20 54.28854
894.30 49.00517
894.40 44.56837
894.50 41.80598
894.60 41.12899
894.70 42.47798
894.80 45.4077
894.90 49.29256
895.00 53.49986
895.10 57.44191
895.20 60.72885
895.30 63.19427
895.40 64.82055
895.50 65.73152
895.60 66.10535
895.70 66.04447
895.80 65.59635
895.90 64.86536
896.00 63.9841
896.10 63.12969
896.20 62.4802
896.30 62.15023
896.40 62.19588
896.50 62.55312
896.60 63.00025
896.70 63.4247
896.80 63.89511
896.90 64.46309
897.00 65.12514
897.10 65.8856
897.20 66.79341
897.30 67.89579
897.40 69.18173
897.50 70.53937
897.60 71.86955
897.70 73.11934
897.80 74.12172
897.90 74.66955
898.00 74.70777
898.10 74.3815
898.20 74.05326
898.30 74.16431
898.40 74.8012
898.50 75.47899
898.60 75.50705
898.70 74.43485
898.80 72.29987
898.90 69.52792
899.00 66.67743
899.10 64.28062
899.20 62.817
899.30 62.63461
899.40 63.79044
899.50 66.05895
899.60 68.89735
899.70 71.37259
899.80 72.81939
899.90 73.56576
900.00 73.55781
900.10 73.54987
900.20 73.54193
900.30 73.53399
900.40 73.52605
900.50 73.51811
900.60 73.51017
900.70 73.50223
900.80 73.49429
900.90 73.87528
901.00 74.45663
901.10 75.03798
901.20 75.61933
901.30 76.20069
901.40 76.78204
901.50 77.36339
901.60 77.94474
901.70 78.52609
901.80 79.10744
901.90 79.68879
902.00 80.27014
902.10 80.85149
902.20 81.43284
902.30 82.01419
902.40 82.59555
902.50 83.1769
902.60 83.75825
902.70 84.3396
902.80 84.92095
902.90 85.5023
903.00 86.08365
903.10 86.665
903.20 87.24635
903.30 87.82405
903.40 88.39627
903.50 88.9685
903.60 89.54072
903.70 90.11294
903.80 90.68516
903.90 91.25738
904.00 91.8296
904.10 92.40182
904.20 92.97404
904.30 93.48834
904.40 93.94235
904.50 94.39636
904.60 94.85037
904.70 95.30438
904.80 95.75839
904.90 96.2124
905.00 96.66641
905.10 97.12042
905.20 97.57443
905.30 98.02844
905.40 98.48245
905.50 98.93645
905.60 99.39046
905.70 99.84447
905.80 100.2985
905.90 100.7525
906.00 101.2065
906.10 101.6605
906.20 102.1145
906.30 102.5685
906.40 103.0225
906.50 103.4765
906.60 103.9306
906.70 104.3808
906.80 104.7973
906.90 105.2139
907.00 105.6304
907.10 106.0469
907.20 106.4634
907.30 106.88
907.40 107.2965
907.50 107.713
907.60 108.1295
907.70 108.4655
907.80 108.3066
907.90 108.1477
908.00 107.9887
908.10 107.8298
908.20 107.6709
908.30 107.512
908.40 107.3531
908.50 107.1941
908.60 107.0352
908.70 106.8763
908.80 106.7174
908.90 106.5585
909.00 106.3996
909.10 106.2406
909.20 106.0817
909.30 105.9228
909.40 105.7639
909.50 105.605
909.60 105.446
909.70 105.2871
909.80 105.1282
909.90 104.9693
910.00 104.8104
910.10 104.6514
910.20 104.5117
910.30 104.3836
910.40 104.2555
910.50 104.1275
910.60 103.9994
910.70 103.8713
910.80 103.7433
910.90 103.6152
911.00 103.4871
911.10 103.3591
911.20 103.2906
911.30 103.2602
911.40 103.2299
911.50 103.1995
911.60 103.1691
911.70 103.1387
911.80 103.1084
911.90 103.078
912.00 103.0476
912.10 103.0172
912.20 102.9869
912.30 102.9565
912.40 102.9261
912.50 102.8957
912.60 102.8653
912.70 102.835
912.80 102.8046
912.90 102.7742
913.00 102.7438
913.10 102.7135
913.20 102.6831
913.30 102.6527
913.40 102.6223
913.50 102.592
913.60 102.5616
913.70 102.5286
913.80 102.4956
913.90 102.4625
914.00 102.4294
914.10 102.3964
914.20 102.3633
914.30 102.3303
914.40 102.2972
914.50 102.2641
914.60 102.2311
914.70 102.6833
914.80 103.1954
914.90 103.7076
915.00 104.2198
915.10 104.7319
915.20 105.2441
915.30 105.7563
915.40 106.2684
915.50 106.7806
915.60 107.2928
915.70 107.8049
915.80 108.3171
915.90 108.8293
916.00 109.3414
916.10 109.8536
916.20 110.3658
916.30 110.8779
916.40 111.3901
916.50 111.9023
916.60 112.4144
916.70 112.9266
916.80 113.4388
916.90 113.9509
917.00 114.4631
917.10 114.9731
917.20 115.4668
917.30 115.9606
917.40 116.4544
917.50 116.9481
917.60 117.4419
917.70 117.9357
917.80 118.4295
917.90 118.9232
918.00 119.417
918.10 119.907
918.20 120.0237
918.30 120.1405
918.40 120.2572
918.50 120.3739
918.60 120.4907
918.70 120.6074
918.80 120.7241
918.90 120.8409
919.00 120.9576
919.10 121.0743
919.20 121.1911
919.30 121.3078
919.40 121.4246
919.50 121.5413
919.60 121.658
919.70 121.7748
919.80 121.8915
919.90 122.0082
920.00 122.125
920.10 122.2417
920.20 122.3584
920.30 122.4752
920.40 122.5919
920.50 122.7086
920.60 122.826
920.70 122.9486
920.80 123.0712
920.90 123.1939
921.00 123.3165
921.10 123.4391
921.20 123.5617
921.30 123.6843
921.40 123.8069
921.50 123.9295
921.60 124.0521
921.70 124.0914
921.80 124.1253
921.90 124.1592
922.00 124.1931
922.10 124.227
922.20 124.2609
922.30 124.2948
922.40 124.3287
922.50 124.3626
922.60 124.3965
922.70 124.4304
922.80 124.4643
922.90 124.4982
923.00 124.5321
923.10 124.566
923.20 124.5999
923.30 124.6338
923.40 124.6677
923.50 124.7016
923.60 124.7355
923.70 124.7694
923.80 124.8033
923.90 124.8372
924.00 124.8711
924.10 124.905
924.20 124.933
924.30 124.9604
924.40 124.9878
924.50 125.0152
924.60 125.0426
924.70 125.07
924.80 125.0974
924.90 125.1248
925.00 125.1522
925.10 125.1796
925.20 124.9901
925.30 124.7077
925.40 124.4253
925.50 124.1429
925.60 123.8606
925.70 123.5782
925.80 123.2958
925.90 123.0134
926.00 122.731
926.10 122.4486
926.20 122.1662
926.30 121.8838
926.40 121.6014
926.50 121.319
926.60 121.0366
926.70 120.7542
926.80 120.4718
926.90 120.1894
927.00 119.907
927.10 119.6246
927.20 119.3422
927.30 119.0598
927.40 118.7774
927.50 118.495
927.60 118.2126
927.70 117.9449
927.80 117.6891
927.90 117.4334
928.00 117.1776
928.10 116.9218
928.20 116.6661
928.30 116.4103
928.40 116.1545
928.50 115.8988
928.60 115.643
928.70 115.5976
928.80 116.0671
928.90 116.5365
929.00 117.006
929.10 117.4755
929.20 117.945
929.30 118.4145
929.40 118.884
929.50 119.3534
929.60 119.8229
929.70 120.2924
929.80 120.7619
929.90 121.2314
930.00 121.7009
930.10 122.1703
930.20 122.6398
930.30 123.1093
930.40 123.5788
930.50 124.0483
930.60 124.5178
930.70 124.9873
930.80 125.4567
930.90 125.9262
931.00 126.3957
931.10 126.8652
931.20 127.3344
931.30 127.7887
931.40 128.243
931.50 128.6973
931.60 129.1517
931.70 129.606
931.80 130.0603
931.90 130.5146
932.00 130.969
932.10 131.4233
932.20 131.8776
932.30 131.686
932.40 131.2174
932.50 130.7489
932.60 130.2804
932.70 129.8119
932.80 129.3433
932.90 128.8748
933.00 128.4063
933.10 127.9378
933.20 127.4692
933.30 127.0007
933.40 126.5322
933.50 126.0637
933.60 125.5952
933.70 125.1266
933.80 124.6581
933.90 124.1896
934.00 123.7211
934.10 123.2525
934.20 122.784
934.30 122.3155
934.40 121.847
934.50 121.3784
934.60 120.9099
934.70 120.4414
934.80 119.9737
934.90 119.5078
935.00 119.0419
935.10 118.576
935.20 118.11
935.30 117.6441
935.40 117.1782
935.50 116.7123
935.60 116.2464
935.70 115.7805
935.80 115.3146
935.90 115.5398
936.00 115.8091
936.10 116.0784
936.20 116.3477
936.30 116.617
936.40 116.8863
936.50 117.1556
936.60 117.4249
936.70 117.6942
936.80 117.9635
936.90 118.2328
937.00 118.5021
937.10 118.7714
937.20 119.0407
937.30 119.31
937.40 119.5793
937.50 119.8486
937.60 120.1179
937.70 120.3872
937.80 120.6565
937.90 120.9258
938.00 121.1951
938.10 121.4644
938.20 121.7337
938.30 122.003
938.40 122.2742
938.50 122.548
938.60 122.8218
938.70 123.0956
938.80 123.3694
938.90 123.6431
939.00 123.9169
939.10 124.1907
939.20 124.4645
939.30 124.7383
939.40 125.0104
939.50 125.2023
939.60 125.3941
939.70 125.5859
939.80 125.7778
939.90 125.9696
940.00 126.1614
940.10 126.3533
940.20 126.5451
940.30 126.7369
940.40 126.9288
940.50 127.1206
940.60 127.3124
940.70 127.5043
940.80 127.6961
940.90 127.8879
941.00 128.0798
941.10 128.2716
941.20 128.4634
941.30 128.6553
941.40 128.8471
941.50 129.0389
941.60 129.2308
941.70 129.4226
941.80 129.6144
941.90 129.8063
942.00 129.997
942.10 130.1862
942.20 130.3753
942.30 130.5644
942.40 130.7535
942.50 130.9426
942.60 131.1318
942.70 131.3209
942.80 131.51
942.90 131.6991
943.00 131.8882
943.10 132.4728
943.20 133.0871
943.30 133.7015
943.40 134.3158
943.50 134.9301
943.60 135.5445
943.70 136.1588
943.80 136.7732
943.90 137.3875
944.00 138.0018
944.10 138.6162
944.20 139.2305
944.30 139.8448
944.40 140.4592
944.50 141.0735
944.60 141.6878
944.70 142.3022
944.80 142.9165
944.90 143.5308
945.00 144.1452
945.10 144.7595
945.20 145.3739
945.30 145.9882
945.40 146.6025
945.50 147.2169
945.60 147.8277
945.70 148.4224
945.80 149.0172
945.90 149.6119
946.00 150.2067
946.10 150.8014
946.20 151.3962
946.30 151.9909
946.40 152.5857
946.50 153.1804
946.60 153.7752
946.70 154.1075
946.80 154.3105
946.90 154.5135
947.00 154.7165
947.10 154.9195
947.20 155.1226
947.30 155.3256
947.40 155.5286
947.50 155.7316
947.60 155.9347
947.70 156.1377
947.80 156.3407
947.90 156.5437
948.00 156.7467
948.10 156.9498
948.20 157.1528
948.30 157.3558
948.40 157.5588
948.50 157.7619
948.60 157.9649
948.70 158.1679
948.80 158.3709
948.90 158.5739
949.00 158.777
949.10 158.98
949.20 159.183
949.30 159.39
949.40 159.5979
949.50 159.8059
949.60 160.0138
949.70 160.2217
949.80 160.4297
949.90 160.6376
950.00 160.8455
950.10 161.0535
950.20 161.2614
950.30 161.3703
950.40 161.1823
950.50 160.9943
950.60 160.8063
950.70 160.6183
950.80 160.4302
950.90 160.2422
951.00 160.0542
951.10 159.8662
951.20 159.6781
951.30 159.4901
951.40 159.3021
951.50 159.1141
951.60 158.9261
951.70 158.738
951.80 158.55
951.90 158.362
952.00 158.174
952.10 157.986
952.20 157.7979
952.30 157.6099
952.40 157.4219
952.50 157.2339
952.60 157.0459
952.70 156.8578
952.80 156.6698
952.90 156.4829
953.00 156.2991
953.10 156.1152
953.20 155.9313
953.30 155.7475
953.40 155.5636
953.50 155.3798
953.60 155.1959
953.70 155.012
953.80 154.8282
953.90 154.6443
954.00 154.8558
954.10 155.271
954.20 155.6862
954.30 156.1014
954.40 156.5166
954.50 156.9318
954.60 157.347
954.70 157.7622
954.80 158.1774
954.90 158.5926
955.00 159.0077
955.10 159.4229
955.20 159.8381
955.30 160.2533
955.40 160.6685
955.50 161.0837
955.60 161.4989
955.70 161.9141
955.80 162.3293
955.90 162.7445
956.00 163.1596
956.10 163.5748
956.20 163.99
956.30 164.4052
956.40 164.8204
956.50 165.2356
956.60 165.6528
956.70 166.0716
956.80 166.4904
956.90 166.9091
957.00 167.3279
957.10 167.7467
957.20 168.1654
957.30 168.5842
957.40 169.0029
957.50 169.4217
957.60 169.8405
957.70 169.5476
957.80 169.1928
957.90 168.8379
958.00 168.4831
958.10 168.1283
958.20 167.7735
958.30 167.4187
958.40 167.0639
958.50 166.7091
958.60 166.3543
958.70 165.9995
958.80 165.6447
958.90 165.2899
959.00 164.9351
959.10 164.5803
959.20 164.2255
959.30 163.8707
959.40 163.5159
959.50 163.1611
959.60 162.8063
959.70 162.4514
959.80 162.0966
959.90 161.7418
960.00 161.387
960.10 161.0322
960.20 160.6774
960.30 160.3314
960.40 159.9891
960.50 159.6467
960.60 159.3043
960.70 158.9619
960.80 158.6195
960.90 158.2771
961.00 157.9348
961.10 157.5924
961.20 157.25
961.30 156.9208
961.40 157.2362
961.50 157.5517
961.60 157.8672
961.70 158.1826
961.80 158.4981
961.90 158.8136
962.00 159.129
962.10 159.4445
962.20 159.7599
962.30 160.0754
962.40 160.3909
962.50 160.7063
962.60 161.0218
962.70 161.3373
962.80 161.6527
962.90 161.9682
963.00 162.2837
963.10 162.5991
963.20 162.9146
963.30 163.23
963.40 163.5455
963.50 163.861
963.60 164.1764
963.70 164.4919
963.80 164.8074
963.90 165.1228
964.00 165.4292
964.10 165.7316
964.20 166.034
964.30 166.3365
964.40 166.6389
964.50 166.9413
964.60 167.2438
964.70 167.5462
964.80 167.8486
964.90 168.1511
965.00 168.4535
965.10 168.4774
965.20 168.4898
965.30 168.5021
965.40 168.5144
965.50 168.5267
965.60 168.539
965.70 168.5513
965.80 168.5636
965.90 168.576
966.00 168.5883
966.10 168.6006
966.20 168.6129
966.30 168.6252
966.40 168.6375
966.50 168.6498
966.60 168.6622
966.70 168.6745
966.80 168.6868
966.90 168.6991
967.00 168.7114
967.10 168.7237
967.20 168.736
967.30 168.7484
967.40 168.7607
967.50 168.773
967.60 168.7853
967.70 168.8014
967.80 168.8209
967.90 168.8403
968.00 168.8598
968.10 168.8792
968.20 168.8987
968.30 168.9181
968.40 168.9376
968.50 168.957
968.60 168.9765
968.70 168.9959
968.80 168.948
968.90 168.8764
969.00 168.8048
969.10 168.7332
969.20 168.6616
969.30 168.59
969.40 168.5185
969.50 168.4469
969.60 168.3753
969.70 168.3037
969.80 168.2321
969.90 168.1605
970.00 168.0889
970.10 168.0173
970.20 167.9457
970.30 167.8741
970.40 167.8026
970.50 167.731
970.60 167.6594
970.70 167.5878
970.80 167.5162
970.90 167.4446
971.00 167.373
971.10 167.3014
971.20 167.2298
971.30 167.1582
971.40 167.0854
971.50 167.0077
971.60 166.93
971.70 166.8523
971.80 166.7746
971.90 166.6969
972.00 166.6192
972.10 166.5415
972.20 166.4637
972.30 166.386
972.40 166.3083
972.50 166.411
972.60 166.821
972.70 167.2309
972.80 167.6409
972.90 168.0508
973.00 168.4608
973.10 168.8707
973.20 169.2807
973.30 169.6906
973.40 170.1006
973.50 170.5105
973.60 170.9205
973.70 171.3304
973.80 171.7404
973.90 172.1503
974.00 172.5603
974.10 172.9702
974.20 173.3802
974.30 173.7901
974.40 174.2001
974.50 174.61
974.60 175.02
974.70 175.4299
974.80 175.8399
974.90 176.2498
975.00 176.6598
975.10 177.0697
975.20 177.4746
975.30 177.8776
975.40 178.2806
975.50 178.6836
975.60 179.0866
975.70 179.4896
975.80 179.8925
975.90 180.2955
976.00 180.6985
976.10 181.1015
976.20 181.5045
976.30 181.3736
976.40 181.1484
976.50 180.9233
976.60 180.6981
976.70 180.473
976.80 180.2479
976.90 180.0227
977.00 179.7976
977.10 179.5724
977.20 179.3473
977.30 179.1221
977.40 178.897
977.50 178.6719
977.60 178.4467
977.70 178.2216
977.80 177.9964
977.90 177.7713
978.00 177.5462
978.10 177.321
978.20 177.0959
978.30 176.8707
978.40 176.6456
978.50 176.4205
978.60 176.1953
978.70 175.9702
978.80 175.745
978.90 175.5187
979.00 175.2814
979.10 175.0442
979.20 174.807
979.30 174.5698
979.40 174.3325
979.50 174.0953
979.60 173.8581
979.70 173.6209
979.80 173.3836
979.90 173.1464
980.00 173.015
980.10 173.3656
980.20 173.7161
980.30 174.0667
980.40 174.4173
980.50 174.7679
980.60 175.1184
980.70 175.469
980.80 175.8196
980.90 176.1702
981.00 176.5207
981.10 176.8713
981.20 177.2219
981.30 177.5725
981.40 177.9231
981.50 178.2736
981.60 178.6242
981.70 178.9748
981.80 179.3254
981.90 179.6759
982.00 180.0265
982.10 180.3771
982.20 180.7277
982.30 181.0783
982.40 181.4288
982.50 181.7794
982.60 182.13
982.70 182.4762
982.80 182.8132
982.90 183.1502
983.00 183.4872
983.10 183.8242
983.20 184.1613
983.30 184.4983
983.40 184.8353
983.50 185.1723
983.60 185.5093
983.70 185.8463
983.80 185.9239
983.90 185.5402
984.00 185.1566
984.10 184.773
984.20 184.3894
984.30 184.0057
984.40 183.6221
984.50 183.2385
984.60 182.8549
984.70 182.4712
984.80 182.0876
984.90 181.704
985.00 181.3204
985.10 180.9367
985.20 180.5531
985.30 180.1695
985.40 179.7859
985.50 179.4022
985.60 179.0186
985.70 178.635
985.80 178.2514
985.90 177.8677
986.00 177.4841
986.10 177.1005
986.20 176.7169
986.30 176.3332
986.40 175.9496
986.50 175.57
986.60 175.1963
986.70 174.8226
986.80 174.4489
986.90 174.0752
987.00 173.7016
987.10 173.3279
987.20 172.9542
987.30 172.5805
987.40 172.2069
987.50 171.8332
987.60 171.6094
987.70 171.6106
987.80 171.6118
987.90 171.613
988.00 171.6141
988.10 171.6153
988.20 171.6165
988.30 171.6177
988.40 171.6188
988.50 171.62
988.60 171.6212
988.70 171.6223
988.80 171.6235
988.90 171.6247
989.00 171.6259
989.10 171.627
989.20 171.6282
989.30 171.6294
989.40 171.6305
989.50 171.6317
989.60 171.6329
989.70 171.6341
989.80 171.6352
989.90 171.6364
990.00 171.6376
990.10 171.6388
990.20 171.6399
990.30 171.6379
990.40 171.6293
990.50 171.6206
990.60 171.612
990.70 171.6034
990.80 171.5948
990.90 171.5862
991.00 171.5776
991.10 171.5689
991.20 171.5603
991.30 171.5517
991.40 171.5045
991.50 171.3629
991.60 171.2213
991.70 171.0797
991.80 170.9381
991.90 170.7964
992.00 170.6548
992.10 170.5132
992.20 170.3716
992.30 170.23
992.40 170.0883
992.50 169.9467
992.60 169.8051
992.70 169.6635
992.80 169.5219
992.90 169.3802
993.00 169.2386
993.10 169.097
993.20 168.9554
993.30 168.8138
993.40 168.6721
993.50 168.5305
993.60 168.3889
993.70 168.2473
993.80 168.1057
993.90 167.964
994.00 167.8224
994.10 167.6829
994.20 167.5589
994.30 167.4348
994.40 167.3108
994.50 167.1867
994.60 167.0627
994.70 166.9387
994.80 166.8146
994.90 166.6906
995.00 166.5665
995.10 166.4425
995.20 166.3015
995.30 165.6119
995.40 164.9223
995.50 164.2327
995.60 163.5431
995.70 162.8535
995.80 162.1638
995.90 161.4742
996.00 160.7846
996.10 160.095
996.20 159.4054
996.30 158.7158
996.40 158.0262
996.50 157.3366
996.60 156.647
996.70 155.9574
996.80 155.2678
996.90 154.5782
997.00 153.8886
997.10 153.199
997.20 152.5094
997.30 151.8198
997.40 151.1302
997.50 150.4406
997.60 149.751
997.70 149.0613
997.80 148.3717
997.90 147.6821
998.00 146.9946
998.10 146.3076
998.20 145.6207
998.30 144.9337
998.40 144.2468
998.50 143.5598
998.60 142.8729
998.70 142.1859
998.80 141.499
998.90 140.812
999.00 140.1251
999.10 139.808
999.20 139.6989
999.30 139.5899
999.40 139.4808
999.50 139.3718
999.60 139.2627
999.70 139.1537
999.80 139.0446
999.90 138.9355
1000.00 138.8265
1000.10 138.7174
1000.20 138.6084
1000.30 138.4993
1000.40 138.3903
1000.50 138.2812
1000.60 138.1722
1000.70 138.0631
1000.80 137.954
1000.90 137.845
1001.00 137.7359
1001.10 137.6269
1001.20 137.5178
1001.30 137.4088
1001.40 137.2997
1001.50 137.1907
1001.60 137.0816
1001.70 136.9725
1001.80 136.8702
1001.90 136.7834
1002.00 136.6967
1002.10 136.61
1002.20 136.5232
1002.30 136.4365
1002.40 136.3497
1002.50 136.263
1002.60 136.1763
1002.70 136.0895
1002.80 136.0028
1002.90 135.9487
1003.00 136.1884
1003.10 136.4282
1003.20 136.6679
1003.30 136.9077
1003.40 137.1474
1003.50 137.3872
1003.60 137.6269
1003.70 137.8667
1003.80 138.1064
1003.90 138.3462
1004.00 138.5859
1004.10 138.8257
1004.20 139.0654
1004.30 139.3052
1004.40 139.5449
1004.50 139.7847
1004.60 140.0244
1004.70 140.2642
1004.80 140.5039
1004.90 140.7437
1005.00 140.9834
1005.10 141.2232
1005.20 141.4629
1005.30 141.7027
1005.40 141.9424
1005.50 142.1822
1005.60 142.4219
1005.70 142.6583
1005.80 142.8933
1005.90 143.1282
1006.00 143.3632
1006.10 143.5981
1006.20 143.8331
1006.30 144.068
1006.40 144.303
1006.50 144.5379
1006.60 144.7729
1006.70 145.0078
1006.80 145.3269
1006.90 145.7721
1007.00 146.2173
1007.10 146.6625
1007.20 147.1077
1007.30 147.5529
1007.40 147.9982
1007.50 148.4434
1007.60 148.8886
1007.70 149.3338
1007.80 149.779
1007.90 150.2242
1008.00 150.6694
1008.10 151.1147
1008.20 151.5599
1008.30 152.0051
1008.40 152.4503
1008.50 152.8955
1008.60 153.3407
1008.70 153.786
1008.80 154.2312
1008.90 154.6764
1009.00 155.1216
1009.10 155.5668
1009.20 156.012
1009.30 156.4573
1009.40 156.9025
1009.50 157.3477
1009.60 157.7913
1009.70 158.2347
1009.80 158.6781
1009.90 159.1215
1010.00 159.5649
1010.10 160.0083
1010.20 160.4518
1010.30 160.8952
1010.40 161.3386
1010.50 161.782
1010.60 162.2254
1010.70 162.3539
1010.80 162.2724
1010.90 162.1909
1011.00 162.1094
1011.10 162.0279
1011.20 161.9464
1011.30 161.8649
1011.40 161.7834
1011.50 161.7019
1011.60 161.6204
1011.70 161.5389
1011.80 161.4574
1011.90 161.3759
1012.00 161.2944
1012.10 161.213
1012.20 161.1315
1012.30 161.05
1012.40 160.9685
1012.50 160.887
1012.60 160.8055
1012.70 160.724
1012.80 160.6425
1012.90 160.561
1013.00 160.4795
1013.10 160.398
1013.20 160.3165
1013.30 160.235
1013.40 160.1535
1013.50 160.0569
1013.60 159.9602
1013.70 159.8636
1013.80 159.7669
1013.90 159.6703
1014.00 159.5737
1014.10 159.477
1014.20 159.3804
1014.30 159.2837
1014.40 159.1871
1014.50 159.0904
1014.60 159.3609
1014.70 159.7886
1014.80 160.2163
1014.90 160.6441
1015.00 161.0718
1015.10 161.4995
1015.20 161.9273
1015.30 162.355
1015.40 162.7828
1015.50 163.2105
1015.60 163.6382
1015.70 164.066
1015.80 164.4937
1015.90 164.9214
1016.00 165.3492
1016.10 165.7769
1016.20 166.2047
1016.30 166.6324
1016.40 167.0601
1016.50 167.4879
1016.60 167.9156
1016.70 168.3433
1016.80 168.7711
1016.90 169.1988
1017.00 169.6265
1017.10 170.0543
1017.20 170.482
1017.30 170.9098
1017.40 171.3576
1017.50 171.8055
1017.60 172.2534
1017.70 172.7013
1017.80 173.1492
1017.90 173.5971
1018.00 174.0449
1018.10 174.4928
1018.20 174.9407
1018.30 175.3886
1018.40 175.8365
1018.50 176.0556
1018.60 176.1223
1018.70 176.1889
1018.80 176.2555
1018.90 176.3222
1019.00 176.3888
1019.10 176.4554
1019.20 176.5221
1019.30 176.5887
1019.40 176.6553
1019.50 176.722
1019.60 176.7886
1019.70 176.8553
1019.80 176.9219
1019.90 176.9885
1020.00 177.0552
1020.10 177.1218
1020.20 177.1884
1020.30 177.2551
1020.40 177.3217
1020.50 177.3884
1020.60 177.455
1020.70 177.5216
1020.80 177.5883
1020.90 177.6549
1021.00 177.7215
1021.10 177.7882
1021.20 177.8548
1021.30 177.9191
1021.40 177.9828
1021.50 178.0466
1021.60 178.1103
1021.70 178.174
1021.80 178.2378
1021.90 178.3015
1022.00 178.3652
1022.10 178.4289
1022.20 178.4927
1022.30 178.5564
1022.40 178.5261
1022.50 178.4018
1022.60 178.2775
1022.70 178.1532
1022.80 178.0289
1022.90 177.9046
1023.00 177.7802
1023.10 177.6559
1023.20 177.5316
1023.30 177.4073
1023.40 177.283
1023.50 177.1587
1023.60 177.0344
1023.70 176.9101
1023.80 176.7858
1023.90 176.6614
1024.00 176.5371
1024.10 176.4128
1024.20 176.2885
1024.30 176.1642
1024.40 176.0399
1024.50 175.9156
1024.60 175.7913
1024.70 175.667
1024.80 175.5426
1024.90 175.4183
1025.00 175.294
1025.10 175.1697
1025.20 175.0453
1025.30 174.9209
1025.40 174.7965
1025.50 174.672
1025.60 174.5476
1025.70 174.4231
1025.80 174.2987
1025.90 174.1743
1026.00 174.0498
1026.10 173.9254
1026.20 173.801
1026.30 173.705
1026.40 173.8654
1026.50 174.0258
1026.60 174.1863
1026.70 174.3467
1026.80 174.5071
1026.90 174.6675
1027.00 174.8279
1027.10 174.9884
1027.20 175.1488
1027.30 175.3092
1027.40 175.4696
1027.50 175.63
1027.60 175.7905
1027.70 175.9509
1027.80 176.1113
1027.90 176.2717
1028.00 176.4321
1028.10 176.5926
1028.20 176.753
1028.30 176.9134
1028.40 177.0738
1028.50 177.2342
1028.60 177.3947
1028.70 177.5551
1028.80 177.7155
1028.90 177.8759
1029.00 178.0363
1029.10 178.195
1029.20 178.3372
1029.30 178.4795
1029.40 178.6218
1029.50 178.7641
1029.60 178.9063
1029.70 179.0486
1029.80 179.1909
1029.90 179.3332
1030.00 179.4754
1030.10 179.6177
1030.20 179.76
1030.30 179.8514
1030.40 179.9209
1030.50 179.9905
1030.60 180.06
1030.70 180.1296
1030.80 180.1992
1030.90 180.2687
1031.00 180.3383
1031.10 180.4078
1031.20 180.4774
1031.30 180.547
1031.40 180.6165
1031.50 180.6861
1031.60 180.7556
1031.70 180.8252
1031.80 180.8948
1031.90 180.9643
1032.00 181.0339
1032.10 181.1034
1032.20 181.173
1032.30 181.2425
1032.40 181.3121
1032.50 181.3817
1032.60 181.4512
1032.70 181.5208
1032.80 181.5903
1032.90 181.6599
1033.00 181.7295
1033.10 181.8206
1033.20 181.9261
1033.30 182.0316
1033.40 182.1371
1033.50 182.2426
1033.60 182.3482
1033.70 182.4537
1033.80 182.5592
1033.90 182.6647
1034.00 182.7702
1034.10 182.8757
1034.20 183.0205
1034.30 183.5186
1034.40 184.0167
1034.50 184.5148
1034.60 185.0129
1034.70 185.511
1034.80 186.0091
1034.90 186.5072
1035.00 187.0053
1035.10 187.5034
1035.20 188.0015
1035.30 188.4996
1035.40 188.9976
1035.50 189.4957
1035.60 189.9938
1035.70 190.4919
1035.80 190.99
1035.90 191.4881
1036.00 191.9862
1036.10 192.4843
1036.20 192.9824
1036.30 193.4805
1036.40 193.9786
1036.50 194.4767
1036.60 194.9748
1036.70 195.4729
1036.80 195.971
1036.90 196.4691
1037.00 196.9672
1037.10 197.4484
1037.20 197.9278
1037.30 198.4072
1037.40 198.8866
1037.50 199.366
1037.60 199.8454
1037.70 200.3248
1037.80 200.8041
1037.90 201.2835
1038.00 201.7629
1038.10 202.2423
1038.20 202.4971
1038.30 202.4149
1038.40 202.3327
1038.50 202.2505
1038.60 202.1684
1038.70 202.0862
1038.80 202.004
1038.90 201.9218
1039.00 201.8396
1039.10 201.7575
1039.20 201.6753
1039.30 201.5931
1039.40 201.5109
1039.50 201.4288
1039.60 201.3466
1039.70 201.2644
1039.80 201.1822
1039.90 201.1
1040.00 201.0179
1040.10 200.9357
1040.20 200.8535
1040.30 200.7713
1040.40 200.6892
1040.50 200.607
1040.60 200.5248
1040.70 200.4426
1040.80 200.3604
1040.90 200.2783
1041.00 200.1936
1041.10 200.0987
1041.20 200.0039
1041.30 199.9091
1041.40 199.8142
1041.50 199.7194
1041.60 199.6246
1041.70 199.5297
1041.80 199.4349
1041.90 199.3401
1042.00 199.2452
1042.10 199.1504
1042.20 199.3596
1042.30 199.7715
1042.40 200.1834
1042.50 200.5953
1042.60 201.0072
1042.70 201.4191
1042.80 201.831
1042.90 202.2429
1043.00 202.6548
1043.10 203.0667
1043.20 203.4786
1043.30 203.8905
1043.40 204.3024
1043.50 204.7143
1043.60 205.1262
1043.70 205.5381
1043.80 205.95
1043.90 206.3619
1044.00 206.7738
1044.10 207.1857
1044.20 207.5976
1044.30 208.0095
1044.40 208.4213
1044.50 208.8332
1044.60 209.2451
1044.70 209.657
1044.80 210.0689
1044.90 210.4808
1045.00 210.8983
1045.10 211.3287
1045.20 211.7591
1045.30 212.1896
1045.40 212.62
1045.50 213.0504
1045.60 213.4808
1045.70 213.9113
1045.80 214.3417
1045.90 214.7721
1046.00 215.2025
1046.10 215.6329
1046.20 215.7155
1046.30 215.649
1046.40 215.5825
1046.50 215.5161
1046.60 215.4496
1046.70 215.3831
1046.80 215.3166
1046.90 215.2501
1047.00 215.1836
1047.10 215.1171
1047.20 215.0506
1047.30 214.9841
1047.40 214.9176
1047.50 214.8511
1047.60 214.7846
1047.70 214.7182
1047.80 214.6517
1047.90 214.5852
1048.00 214.5187
1048.10 214.4522
1048.20 214.3857
1048.30 214.3192
1048.40 214.2527
1048.50 214.1862
1048.60 214.1197
1048.70 214.0532
1048.80 213.9867
1048.90 213.9203
1049.00 213.8497
1049.10 213.7698
1049.20 213.6898
1049.30 213.6098
1049.40 213.5299
1049.50 213.4499
1049.60 213.3699
1049.70 213.29
1049.80 213.21
1049.90 213.13
1050.00 213.0501
1050.10 212.9701
1050.20 212.9886
1050.30 213.0492
1050.40 213.1099
1050.50 213.1705
1050.60 213.2311
1050.70 213.2918
1050.80 213.3524
1050.90 213.4131
1051.00 213.4737
1051.10 213.5344
1051.20 213.595
1051.30 213.6556
1051.40 213.7163
1051.50 213.7769
1051.60 213.8376
1051.70 213.8982
1051.80 213.9588
1051.90 214.0195
1052.00 214.0801
1052.10 214.1408
1052.20 214.2014
1052.30 214.2621
1052.40 214.3227
1052.50 214.3833
1052.60 214.444
1052.70 214.5046
1052.80 214.5653
1052.90 214.6259
1053.00 214.688
1053.10 214.7559
1053.20 214.8239
1053.30 214.8918
1053.40 214.9597
1053.50 215.0276
1053.60 215.0956
1053.70 215.1635
1053.80 215.2314
1053.90 215.2993
1054.00 215.3673
1054.10 215.4352
1054.20 215.5423
1054.30 215.6885
1054.40 215.8347
1054.50 215.9809
1054.60 216.1271
1054.70 216.2733
1054.80 216.4195
1054.90 216.5657
1055.00 216.7119
1055.10 216.8581
1055.20 217.0043
1055.30 217.1505
1055.40 217.2967
1055.50 217.4429
1055.60 217.5891
1055.70 217.7353
1055.80 217.8815
1055.90 218.0277
1056.00 218.1739
1056.10 218.3201
1056.20 218.4663
1056.30 218.6125
1056.40 218.7587
1056.50 218.9049
1056.60 219.0511
1056.70 219.1973
1056.80 219.3435
1056.90 219.4897
1057.00 219.6359
1057.10 219.7644
1057.20 219.8909
1057.30 220.0173
1057.40 220.1438
1057.50 220.2703
1057.60 220.3968
1057.70 220.5233
1057.80 220.6498
1057.90 220.7763
1058.00 220.9028
1058.10 221.0293
1058.20 221.153
1058.30 221.2704
1058.40 221.3877
1058.50 221.5051
1058.60 221.6224
1058.70 221.7397
1058.80 221.8571
1058.90 221.9744
1059.00 222.0917
1059.10 222.2091
1059.20 222.3264
1059.30 222.4438
1059.40 222.5611
1059.50 222.6784
1059.60 222.7958
1059.70 222.9131
1059.80 223.0304
1059.90 223.1478
1060.00 223.2651
1060.10 223.3825
1060.20 223.4998
1060.30 223.6171
1060.40 223.7345
1060.50 223.8518
1060.60 223.9692
1060.70 224.0865
1060.80 224.2038
1060.90 224.3212
1061.00 224.4385
1061.10 224.57
1061.20 224.711
1061.30 224.852
1061.40 224.9929
1061.50 225.1339
1061.60 225.2749
1061.70 225.4158
1061.80 225.5568
1061.90 225.6978
1062.00 225.8388
1062.10 225.9797
1062.20 226.1207
1062.30 226.2936
1062.40 226.47
1062.50 226.6464
1062.60 226.8228
1062.70 226.9992
1062.80 227.1756
1062.90 227.352
1063.00 227.5284
1063.10 227.7048
1063.20 227.8812
1063.30 228.0576
1063.40 228.234
1063.50 228.4104
1063.60 228.5868
1063.70 228.7632
1063.80 228.9396
1063.90 229.116
1064.00 229.2925
1064.10 229.4689
1064.20 229.6453
1064.30 229.8217
1064.40 229.9981
1064.50 230.1745
1064.60 230.3509
1064.70 230.5273
1064.80 230.7037
1064.90 230.8801
1065.00 231.0565
1065.10 231.2312
1065.20 231.399
1065.30 231.5667
1065.40 231.7345
1065.50 231.9023
1065.60 232.0701
1065.70 232.2379
1065.80 232.4056
1065.90 232.5734
1066.00 232.7412
1066.10 232.909
1066.20 233.0768
1066.30 233.2542
1066.40 233.4463
1066.50 233.6383
1066.60 233.8304
1066.70 234.0224
1066.80 234.2145
1066.90 234.4065
1067.00 234.5986
1067.10 234.7906
1067.20 234.9827
1067.30 235.1747
1067.40 235.3668
1067.50 235.5588
1067.60 235.7508
1067.70 235.9429
1067.80 236.1349
1067.90 236.327
1068.00 236.519
1068.10 236.7111
1068.20 236.9031
1068.30 237.0952
1068.40 237.2872
1068.50 237.4793
1068.60 237.6713
1068.70 237.8634
1068.80 238.0554
1068.90 238.2474
1069.00 238.4395
1069.10 238.6315
1069.20 238.8252
1069.30 239.0198
1069.40 239.2145
1069.50 239.4092
1069.60 239.6039
1069.70 239.7986
1069.80 239.9933
1069.90 240.1879
1070.00 240.3826
1070.10 240.5773
1070.20 240.772
1070.30 240.9667
1070.40 241.1391
1070.50 241.3092
1070.60 241.4792
1070.70 241.6492
1070.80 241.8192
1070.90 241.9892
1071.00 242.1592
1071.10 242.3292
1071.20 242.4993
1071.30 242.6693
1071.40 242.8393
1071.50 243.0093
1071.60 243.1793
1071.70 243.3493
1071.80 243.5193
1071.90 243.6894
1072.00 243.8594
1072.10 244.0294
1072.20 244.1994
1072.30 244.3694
1072.40 244.5394
1072.50 244.7094
1072.60 244.8795
1072.70 245.0495
1072.80 245.2195
1072.90 245.3895
1073.00 245.5595
1073.10 245.7295
1073.20 245.8995
1073.30 246.0769
1073.40 246.2543
1073.50 246.4317
1073.60 246.6091
1073.70 246.7865
1073.80 246.9639
1073.90 247.1413
1074.00 247.3187
1074.10 247.4961
1074.20 247.6735
1074.30 247.8509
1074.40 248.0312
1074.50 248.2227
1074.60 248.4142
1074.70 248.6058
1074.80 248.7973
1074.90 248.9888
1075.00 249.1804
1075.10 249.3719
1075.20 249.5635
1075.30 249.755
1075.40 249.9465
1075.50 250.1381
1075.60 250.3296
1075.70 250.5211
1075.80 250.7127
1075.90 250.9042
1076.00 251.0957
1076.10 251.2873
1076.20 251.4788
1076.30 251.6704
1076.40 251.8619
1076.50 252.0534
1076.60 252.245
1076.70 252.4365
1076.80 252.628
1076.90 252.8196
1077.00 253.0111
1077.10 253.2026
1077.20 253.3942
1077.30 253.5845
1077.40 253.7702
1077.50 253.9559
1077.60 254.1416
1077.70 254.3273
1077.80 254.5129
1077.90 254.6986
1078.00 254.8843
1078.10 255.07
1078.20 255.2557
1078.30 255.4413
1078.40 255.627
1078.50 255.7382
1078.60 255.7378
1078.70 255.7373
1078.80 255.7368
1078.90 255.7364
1079.00 255.7359
1079.10 255.7354
1079.20 255.735
1079.30 255.7345
1079.40 255.734
1079.50 255.7336
1079.60 255.7331
1079.70 255.7326
1079.80 255.7322
1079.90 255.7317
1080.00 255.7312
1080.10 255.7308
1080.20 255.7303
1080.30 255.7298
1080.40 255.7294
1080.50 255.7289
1080.60 255.7284
1080.70 255.728
1080.80 255.7275
1080.90 255.727
1081.00 255.7266
1081.10 255.7261
1081.20 255.7256
1081.30 255.7251
1081.40 255.7157
1081.50 255.6926
1081.60 255.6696
1081.70 255.6466
1081.80 255.6236
1081.90 255.6006
1082.00 255.5776
1082.10 255.5545
1082.20 255.5315
1082.30 255.5085
1082.40 255.4855
1082.50 255.4625
1082.60 255.6479
1082.70 256.0416
1082.80 256.4354
1082.90 256.8292
1083.00 257.223
1083.10 257.6168
1083.20 258.0105
1083.30 258.4043
1083.40 258.7981
1083.50 259.1919
1083.60 259.5857
1083.70 259.9794
1083.80 260.3732
1083.90 260.767
1084.00 261.1608
1084.10 261.5546
1084.20 261.9483
1084.30 262.3421
1084.40 262.7359
1084.50 263.1297
1084.60 263.5235
1084.70 263.9172
1084.80 264.311
1084.90 264.7048
1085.00 265.0986
1085.10 265.4924
1085.20 265.8861
1085.30 266.2799
1085.40 266.6737
1085.50 267.0768
1085.60 267.494
1085.70 267.9112
1085.80 268.3283
1085.90 268.7455
1086.00 269.1627
1086.10 269.5798
1086.20 269.997
1086.30 270.4142
1086.40 270.8313
1086.50 271.2485
1086.60 271.6657
1086.70 271.946
1086.80 272.135
1086.90 272.324
1087.00 272.513
1087.10 272.702
1087.20 272.8911
1087.30 273.0801
1087.40 273.2691
1087.50 273.4581
1087.60 273.6471
1087.70 273.8362
1087.80 274.0252
1087.90 274.2142
1088.00 274.4032
1088.10 274.5923
1088.20 274.7813
1088.30 274.9703
1088.40 275.1593
1088.50 275.3483
1088.60 275.5374
1088.70 275.7264
1088.80 275.9154
1088.90 276.1044
1089.00 276.2935
1089.10 276.4825
1089.20 276.6715
1089.30 276.8605
1089.40 277.0495
1089.50 277.2386
1089.60 277.4202
1089.70 277.5908
1089.80 277.7614
1089.90 277.932
1090.00 278.1026
1090.10 278.2732
1090.20 278.4438
1090.30 278.6144
1090.40 278.785
1090.50 278.9556
1090.60 279.1262
1090.70 279.2968
1090.80 279.3487
1090.90 279.2817
1091.00 279.2148
1091.10 279.1479
1091.20 279.0809
1091.30 279.014
1091.40 278.947
1091.50 278.8801
1091.60 278.8132
1091.70 278.7462
1091.80 278.6793
1091.90 278.6124
1092.00 278.5454
1092.10 278.4785
1092.20 278.4115
1092.30 278.3446
1092.40 278.2777
1092.50 278.2107
1092.60 278.1438
1092.70 278.0769
1092.80 278.0099
1092.90 277.943
1093.00 277.8761
1093.10 277.8091
1093.20 277.7422
1093.30 277.6752
1093.40 277.6083
1093.50 277.5414
1093.60 277.4744
1093.70 277.4076
1093.80 277.341
1093.90 277.2744
1094.00 277.2077
1094.10 277.1411
1094.20 277.0745
1094.30 277.0079
1094.40 276.9413
1094.50 276.8747
1094.60 276.8081
1094.70 276.7415
1094.80 276.6748
1094.90 276.7595
1095.00 277.0709
1095.10 277.3824
1095.20 277.6939
1095.30 278.0053
1095.40 278.3168
1095.50 278.6283
1095.60 278.9397
1095.70 279.2512
1095.80 279.5627
1095.90 279.8742
1096.00 280.1856
1096.10 280.4971
1096.20 280.8086
1096.30 281.12
1096.40 281.4315
1096.50 281.743
1096.60 282.0544
1096.70 282.3659
1096.80 282.6774
1096.90 282.9888
1097.00 283.3003
1097.10 283.6118
1097.20 283.9232
1097.30 284.2347
1097.40 284.5462
1097.50 284.8576
1097.60 285.1691
1097.70 285.4806
1097.80 285.7925
1097.90 286.1089
1098.00 286.4253
1098.10 286.7417
1098.20 287.058
1098.30 287.3744
1098.40 287.6908
1098.50 288.0072
1098.60 288.3236
1098.70 288.6399
1098.80 288.9563
1098.90 289.2727
1099.00 289.5372
1099.10 289.3354
1099.20 289.1336
1099.30 288.9318
1099.40 288.7299
1099.50 288.5281
1099.60 288.3263
1099.70 288.1244
1099.80 287.9226
1099.90 287.7208
1100.00 287.5189
1100.10 287.3171
1100.20 287.1153
1100.30 286.9135
1100.40 286.7116
1100.50 286.5098
1100.60 286.308
1100.70 286.1061
1100.80 285.9043
1100.90 285.7025
1101.00 285.5007
1101.10 285.2988
1101.20 285.097
1101.30 284.8952
1101.40 284.6933
1101.50 284.4915
1101.60 284.2897
1101.70 284.0879
1101.80 283.886
1101.90 283.6842
1102.00 283.4811
1102.10 283.2777
1102.20 283.0742
1102.30 282.8708
1102.40 282.6674
1102.50 282.464
1102.60 282.2605
1102.70 282.0571
1102.80 281.8537
1102.90 281.6502
1103.00 281.4468
1103.10 281.2434
1103.20 281.0342
1103.30 280.8236
1103.40 280.613
1103.50 280.4024
1103.60 280.1918
1103.70 279.9812
1103.80 279.7707
1103.90 279.5601
1104.00 279.3495
1104.10 279.1389
1104.20 278.9283
1104.30 278.7177
1104.40 278.5071
1104.50 278.2965
1104.60 278.0859
1104.70 277.8753
1104.80 277.6647
1104.90 277.4541
1105.00 277.2435
1105.10 277.0329
1105.20 276.8223
1105.30 276.6117
1105.40 276.4011
1105.50 276.1905
1105.60 275.9799
1105.70 275.7693
1105.80 275.5587
1105.90 275.3481
1106.00 275.1375
1106.10 274.9206
1106.20 274.6943
1106.30 274.468
1106.40 274.2417
1106.50 274.0153
1106.60 273.789
1106.70 273.5627
1106.80 273.3364
1106.90 273.11
1107.00 272.8837
1107.10 272.6574
1107.20 272.4311
1107.30 272.2391
1107.40 272.0987
1107.50 271.9583
1107.60 271.8179
1107.70 271.6775
1107.80 271.5371
1107.90 271.3968
1108.00 271.2564
1108.10 271.116
1108.20 270.9756
1108.30 270.8352
1108.40 270.6948
1108.50 270.5544
1108.60 270.414
1108.70 270.2736
1108.80 270.1332
1108.90 269.9928
1109.00 269.8524
1109.10 269.712
1109.20 269.5716
1109.30 269.4312
1109.40 269.2908
1109.50 269.1505
1109.60 269.0101
1109.70 268.8697
1109.80 268.7293
1109.90 268.5889
1110.00 268.4485
1110.10 268.3081
1110.20 268.1677
1110.30 268.0371
1110.40 267.9075
1110.50 267.778
1110.60 267.6485
1110.70 267.5189
1110.80 267.3894
1110.90 267.2599
1111.00 267.1304
1111.10 267.0008
1111.20 266.8713
1111.30 266.7418
1111.40 266.6122
1111.50 266.3567
1111.60 266.0872
1111.70 265.8176
1111.80 265.5481
1111.90 265.2786
1112.00 265.009
1112.10 264.7395
1112.20 264.47
1112.30 264.2005
1112.40 263.9309
1112.50 263.6614
1112.60 263.3919
1112.70 263.1223
1112.80 262.8528
1112.90 262.5833
1113.00 262.3138
1113.10 262.0442
1113.20 261.7747
1113.30 261.5052
1113.40 261.2356
1113.50 260.9661
1113.60 260.6966
1113.70 260.427
1113.80 260.1575
1113.90 259.888
1114.00 259.6185
1114.10 259.3489
1114.20 259.0794
1114.30 258.8099
1114.40 258.5431
1114.50 258.2826
1114.60 258.0222
1114.70 257.7617
1114.80 257.5013
1114.90 257.2408
1115.00 256.9804
1115.10 256.72
1115.20 256.4595
1115.30 256.1991
1115.40 255.9386
1115.50 255.6782
1115.60 255.6066
1115.70 255.9758
1115.80 256.345
1115.90 256.7142
1116.00 257.0834
1116.10 257.4526
1116.20 257.8218
1116.30 258.191
1116.40 258.5602
1116.50 258.9294
1116.60 259.2986
1116.70 259.6678
1116.80 260.0369
1116.90 260.4061
1117.00 260.7753
1117.10 261.1445
1117.20 261.5137
1117.30 261.8829
1117.40 262.2521
1117.50 262.6213
1117.60 262.9905
1117.70 263.3597
1117.80 263.7289
1117.90 264.0981
1118.00 264.4673
1118.10 264.8365
1118.20 265.2056
1118.30 265.5748
1118.40 265.944
1118.50 266.3132
1118.60 266.6865
1118.70 267.0616
1118.80 267.4366
1118.90 267.8116
1119.00 268.1867
1119.10 268.5617
1119.20 268.9368
1119.30 269.3118
1119.40 269.6868
1119.50 270.0619
1119.60 270.4369
1119.70 270.812
1119.80 270.9861
1119.90 271.0262
1120.00 271.0664
1120.10 271.1065
1120.20 271.1467
1120.30 271.1869
1120.40 271.227
1120.50 271.2672
1120.60 271.3073
1120.70 271.3475
1120.80 271.3876
1120.90 271.4278
1121.00 271.468
1121.10 271.5081
1121.20 271.5483
1121.30 271.5884
1121.40 271.6286
1121.50 271.6687
1121.60 271.7089
1121.70 271.7491
1121.80 271.7892
1121.90 271.8294
1122.00 271.8695
1122.10 271.9097
1122.20 271.9498
1122.30 271.99
1122.40 272.0302
1122.50 272.0703
1122.60 272.1105
1122.70 272.1506
1122.80 272.1662
1122.90 272.1817
1123.00 272.1973
1123.10 272.2129
1123.20 272.2284
1123.30 272.244
1123.40 272.2596
1123.50 272.2751
1123.60 272.2907
1123.70 272.3063
1123.80 272.3218
1123.90 272.3374
1124.00 272.1956
1124.10 272.0364
1124.20 271.8772
1124.30 271.7179
1124.40 271.5587
1124.50 271.3994
1124.60 271.2402
1124.70 271.081
1124.80 270.9217
1124.90 270.7625
1125.00 270.6033
1125.10 270.444
1125.20 270.2848
1125.30 270.1256
1125.40 269.9663
1125.50 269.8071
1125.60 269.6479
1125.70 269.4886
1125.80 269.3294
1125.90 269.1702
1126.00 269.0109
1126.10 268.8517
1126.20 268.6925
1126.30 268.5332
1126.40 268.374
1126.50 268.2148
1126.60 268.0555
1126.70 267.8963
1126.80 267.737
1126.90 267.5819
1127.00 267.4431
1127.10 267.3043
1127.20 267.1654
1127.30 267.0266
1127.40 266.8878
1127.50 266.749
1127.60 266.6101
1127.70 266.4713
1127.80 266.3325
1127.90 266.1937
1128.00 266.0549
1128.10 265.9193
1128.20 265.8136
1128.30 265.7079
1128.40 265.6022
1128.50 265.4965
1128.60 265.3908
1128.70 265.2851
1128.80 265.1794
1128.90 265.0737
1129.00 264.968
1129.10 264.8623
1129.20 264.7566
1129.30 264.6509
1129.40 264.5452
1129.50 264.4395
1129.60 264.3338
1129.70 264.2281
1129.80 264.1224
1129.90 264.0167
1130.00 263.911
1130.10 263.8053
1130.20 263.6996
1130.30 263.5939
1130.40 263.4882
1130.50 263.3825
1130.60 263.2768
1130.70 263.1711
1130.80 263.0654
1130.90 262.9597
1131.00 262.8539
1131.10 262.7452
1131.20 262.6319
1131.30 262.5187
1131.40 262.4054
1131.50 262.2921
1131.60 262.1789
1131.70 262.0656
1131.80 261.9523
1131.90 261.8391
1132.00 261.7258
1132.10 261.6125
1132.20 261.4993
1132.30 261.5058
1132.40 261.9915
1132.50 262.4773
1132.60 262.963
1132.70 263.4487
1132.80 263.9345
1132.90 264.4202
1133.00 264.9059
1133.10 265.3917
1133.20 265.8774
1133.30 266.3631
1133.40 266.8489
1133.50 267.3346
1133.60 267.8203
1133.70 268.3061
1133.80 268.7918
1133.90 269.2776
1134.00 269.7633
1134.10 270.249
1134.20 270.7348
1134.30 271.2205
1134.40 271.7062
1134.50 272.192
1134.60 272.6777
1134.70 273.1634
1134.80 273.6492
1134.90 274.1349
1135.00 274.6206
1135.10 275.1064
1135.20 275.5921
1135.30 276.0835
1135.40 276.5835
1135.50 277.0835
1135.60 277.5835
1135.70 278.0834
1135.80 278.5834
1135.90 279.0834
1136.00 279.5834
1136.10 280.0833
1136.20 280.5833
1136.30 281.0833
1136.40 281.5833
1136.50 281.8164
1136.60 281.4271
1136.70 281.0377
1136.80 280.6483
1136.90 280.2589
1137.00 279.8696
1137.10 279.4802
1137.20 279.0908
1137.30 278.7014
1137.40 278.312
1137.50 277.9227
1137.60 277.5333
1137.70 277.1439
1137.80 276.7545
1137.90 276.3652
1138.00 275.9758
1138.10 275.5864
1138.20 275.197
1138.30 274.8077
1138.40 274.4183
1138.50 274.0289
1138.60 273.6395
1138.70 273.2501
1138.80 272.8608
1138.90 272.4714
1139.00 272.082
1139.10 271.6926
1139.20 271.3033
1139.30 270.9139
1139.40 270.5245
1139.50 270.1349
1139.60 269.7451
1139.70 269.3552
1139.80 268.9654
1139.90 268.5755
1140.00 268.1856
1140.10 267.7958
1140.20 267.4059
1140.30 267.0161
1140.40 266.6262
1140.50 266.2364
1140.60 265.8465
1140.70 265.5256
1140.80 265.3657
1140.90 265.2057
1141.00 265.0458
1141.10 264.8858
1141.20 264.7259
1141.30 264.5659
1141.40 264.406
1141.50 264.246
1141.60 264.0861
1141.70 263.9261
1141.80 263.7662
1141.90 263.6062
1142.00 263.4463
1142.10 263.2863
1142.20 263.1264
1142.30 262.9664
1142.40 262.8065
1142.50 262.6466
1142.60 262.4866
1142.70 262.3267
1142.80 262.1667
1142.90 262.0068
1143.00 261.8468
1143.10 261.6869
1143.20 261.5269
1143.30 261.367
1143.40 261.207
1143.50 261.0471
1143.60 260.8871
1143.70 260.7288
1143.80 260.5729
1143.90 260.417
1144.00 260.2611
1144.10 260.1052
1144.20 259.9493
1144.30 259.7934
1144.40 259.6375
1144.50 259.4816
1144.60 259.3257
1144.70 259.1698
1144.80 259.0139
1144.90 258.9717
1145.00 259.3844
1145.10 259.7971
1145.20 260.2098
1145.30 260.6225
1145.40 261.0352
1145.50 261.4479
1145.60 261.8606
1145.70 262.2734
1145.80 262.6861
1145.90 263.0988
1146.00 263.5115
1146.10 263.9242
1146.20 264.3369
1146.30 264.7496
1146.40 265.1623
1146.50 265.575
1146.60 265.9877
1146.70 266.4005
1146.80 266.8132
1146.90 267.2259
1147.00 267.6386
1147.10 268.0513
1147.20 268.464
1147.30 268.8767
1147.40 269.2894
1147.50 269.7021
1147.60 270.1148
1147.70 270.5275
1147.80 270.9403
1147.90 271.351
1148.00 271.7536
1148.10 272.1562
1148.20 272.5589
1148.30 272.9615
1148.40 273.3641
1148.50 273.7668
1148.60 274.1694
1148.70 274.5721
1148.80 274.9747
1148.90 275.3773
1149.00 275.78
1149.10 276.1826
1149.20 276.5656
1149.30 276.9486
1149.40 277.3316
1149.50 277.7146
1149.60 278.0976
1149.70 278.4806
1149.80 278.8636
1149.90 279.2466
1150.00 279.6296
1150.10 280.0126
1150.20 280.3956
1150.30 280.7785
1150.40 281.1615
1150.50 281.5445
1150.60 281.9275
1150.70 282.3105
1150.80 282.6935
1150.90 283.0765
1151.00 283.4595
1151.10 283.8425
1151.20 284.2255
1151.30 284.6085
1151.40 284.9915
1151.50 285.3745
1151.60 285.7575
1151.70 286.1405
1151.80 286.5235
1151.90 286.9064
1152.00 287.2894
1152.10 287.6716
1152.20 288.0459
1152.30 288.4202
1152.40 288.7946
1152.50 289.1689
1152.60 289.5432
1152.70 289.9176
1152.80 290.2919
1152.90 290.6662
1153.00 291.0406
1153.10 291.4149
1153.20 291.7892
1153.30 292.1636
1153.40 292.2517
1153.50 292.2682
1153.60 292.2847
1153.70 292.3013
1153.80 292.3178
1153.90 292.3343
1154.00 292.3509
1154.10 292.3674
1154.20 292.3839
1154.30 292.4005
1154.40 292.417
1154.50 292.4335
1154.60 292.4501
1154.70 292.4666
1154.80 292.4831
1154.90 292.4997
1155.00 292.5162
1155.10 292.5327
1155.20 292.5493
1155.30 292.5658
1155.40 292.5823
1155.50 292.5989
1155.60 292.6154
1155.70 292.6319
1155.80 292.6485
1155.90 292.665
1156.00 292.6815
1156.10 292.6981
1156.20 292.7146
1156.30 292.7312
1156.40 292.747
1156.50 292.7627
1156.60 292.7784
1156.70 292.794
1156.80 292.8097
1156.90 292.8254
1157.00 292.8411
1157.10 292.8567
1157.20 292.8724
1157.30 292.8881
1157.40 292.9038
1157.50 292.9194
1157.60 293.0359
1157.70 293.2197
1157.80 293.4034
1157.90 293.5871
1158.00 293.7708
1158.10 293.9545
1158.20 294.1382
1158.30 294.3219
1158.40 294.5056
1158.50 294.6894
1158.60 294.8731
1158.70 295.0568
1158.80 295.2405
1158.90 295.4242
1159.00 295.6079
1159.10 295.7916
1159.20 295.9754
1159.30 296.1591
1159.40 296.3428
1159.50 296.5265
1159.60 296.7102
1159.70 296.8939
1159.80 297.0776
1159.90 297.2613
1160.00 297.4451
1160.10 297.6288
1160.20 297.8125
1160.30 297.9962
1160.40 298.1799
1160.50 298.3636
1160.60 298.5397
1160.70 298.7082
1160.80 298.8767
1160.90 299.0451
1161.00 299.2136
1161.10 299.3821
1161.20 299.5506
1161.30 299.719
1161.40 299.8875
1161.50 300.056
1161.60 300.2245
1161.70 300.3929
1161.80 300.5383
1161.90 300.5912
1162.00 300.6441
1162.10 300.697
1162.20 300.7499
1162.30 300.8028
1162.40 300.8557
1162.50 300.9086
1162.60 300.9615
1162.70 301.0144
1162.80 301.0673
1162.90 301.1202
1163.00 301.1731
1163.10 301.226
1163.20 301.2789
1163.30 301.3318
1163.40 301.3847
1163.50 301.4376
1163.60 301.4905
1163.70 301.5434
1163.80 301.5963
1163.90 301.6492
1164.00 301.7021
1164.10 301.755
1164.20 301.8079
1164.30 301.8608
1164.40 301.9137
1164.50 301.9666
1164.60 302.0195
1164.70 302.0724
1164.80 302.1268
1164.90 302.195
1165.00 302.2631
1165.10 302.3312
1165.20 302.3994
1165.30 302.4675
1165.40 302.5356
1165.50 302.6037
1165.60 302.6719
1165.70 302.74
1165.80 302.8081
1165.90 302.8763
1166.00 302.9444
1166.10 302.5692
1166.20 302.1447
1166.30 301.7202
1166.40 301.2957
1166.50 300.8712
1166.60 300.4467
1166.70 300.0222
1166.80 299.5977
1166.90 299.1733
1167.00 298.7488
1167.10 298.3243
1167.20 297.8998
1167.30 297.4753
1167.40 297.0508
1167.50 296.6263
1167.60 296.2019
1167.70 295.7774
1167.80 295.3529
1167.90 294.9284
1168.00 294.5039
1168.10 294.0794
1168.20 293.6549
1168.30 293.2304
1168.40 292.806
1168.50 292.3815
1168.60 291.957
1168.70 291.5325
1168.80 291.108
1168.90 290.6835
1169.00 290.259
1169.10 289.8429
1169.20 289.4304
1169.30 289.0179
1169.40 288.6054
1169.50 288.1929
1169.60 287.7803
1169.70 287.3678
1169.80 286.9553
1169.90 286.5428
1170.00 286.1303
1170.10 285.7178
1170.20 285.3052
1170.30 284.9419
1170.40 284.6522
1170.50 284.3625
1170.60 284.0728
1170.70 283.7831
1170.80 283.4934
1170.90 283.2037
1171.00 282.914
1171.10 282.6243
1171.20 282.3346
1171.30 282.0449
1171.40 281.7552
1171.50 281.4655
1171.60 281.1758
1171.70 280.8861
1171.80 280.5964
1171.90 280.3067
1172.00 280.017
1172.10 279.7274
1172.20 279.4377
1172.30 279.148
1172.40 278.8583
1172.50 278.5686
1172.60 278.2789
1172.70 277.9892
1172.80 277.6995
1172.90 277.4098
1173.00 277.1201
1173.10 276.8304
1173.20 276.5407
1173.30 276.2505
1173.40 275.9585
1173.50 275.6664
1173.60 275.3744
1173.70 275.0823
1173.80 274.7902
1173.90 274.4982
1174.00 274.2061
1174.10 273.9141
1174.20 273.622
1174.30 273.3299
1174.40 273.0379
1174.50 272.7458
1174.60 272.6547
1174.70 272.5859
1174.80 272.5171
1174.90 272.4483
1175.00 272.3795
1175.10 272.3107
1175.20 272.242
1175.30 272.1732
1175.40 272.1044
1175.50 272.0356
1175.60 271.9668
1175.70 271.898
1175.80 271.8292
1175.90 271.7604
1176.00 271.6916
1176.10 271.6229
1176.20 271.5541
1176.30 271.4853
1176.40 271.4165
1176.50 271.3477
1176.60 271.2789
1176.70 271.2101
1176.80 271.1413
1176.90 271.0725
1177.00 271.0037
1177.10 270.935
1177.20 270.8662
1177.30 270.7974
1177.40 270.7286
1177.50 270.6598
1177.60 270.6016
1177.70 270.5478
1177.80 270.4941
1177.90 270.4404
1178.00 270.3867
1178.10 270.333
1178.20 270.2793
1178.30 270.2255
1178.40 270.1718
1178.50 270.1181
1178.60 270.0644
1178.70 270.0107
1178.80 270.0723
1178.90 270.3068
1179.00 270.5414
1179.10 270.776
1179.20 271.0105
1179.30 271.2451
1179.40 271.4796
1179.50 271.7142
1179.60 271.9488
1179.70 272.1833
1179.80 272.4179
1179.90 272.6525
1180.00 272.887
1180.10 273.1216
1180.20 273.3562
1180.30 273.5907
1180.40 273.8253
1180.50 274.0599
1180.60 274.2944
1180.70 274.529
1180.80 274.7636
1180.90 274.9981
1181.00 275.2327
1181.10 275.4673
1181.20 275.7018
1181.30 275.9364
1181.40 276.171
1181.50 276.4055
1181.60 276.6401
1181.70 276.8747
1181.80 277.1086
1181.90 277.3372
1182.00 277.5657
1182.10 277.7943
1182.20 278.0229
1182.30 278.2514
1182.40 278.48
1182.50 278.7086
1182.60 278.9371
1182.70 279.1657
1182.80 279.3942
1182.90 279.6228
1183.00 279.8514
1183.10 279.8039
1183.20 279.6873
1183.30 279.5708
1183.40 279.4543
1183.50 279.3378
1183.60 279.2213
1183.70 279.1048
1183.80 278.9883
1183.90 278.8717
1184.00 278.7552
1184.10 278.6387
1184.20 278.5222
1184.30 278.4057
1184.40 278.2892
1184.50 278.1727
1184.60 278.0561
1184.70 277.9396
1184.80 277.8231
1184.90 277.7066
1185.00 277.5901
1185.10 277.4736
1185.20 277.3571
1185.30 277.2405
1185.40 277.124
1185.50 277.0075
1185.60 276.891
1185.70 276.7745
1185.80 276.658
1185.90 276.5415
1186.00 276.4249
1186.10 276.3053
1186.20 276.1824
1186.30 276.0596
1186.40 275.9368
1186.50 275.814
1186.60 275.6911
1186.70 275.5683
1186.80 275.4455
1186.90 275.3227
1187.00 275.1998
1187.10 275.077
1187.20 274.9542
1187.30 274.9419
1187.40 275.3717
1187.50 275.8014
1187.60 276.2312
1187.70 276.661
1187.80 277.0908
1187.90 277.5206
1188.00 277.9503
1188.10 278.3801
1188.20 278.8099
1188.30 279.2397
1188.40 279.6694
1188.50 280.0992
1188.60 280.529
1188.70 280.9588
1188.80 281.3886
1188.90 281.8183
1189.00 282.2481
1189.10 282.6779
1189.20 283.1077
1189.30 283.5375
1189.40 283.9672
1189.50 284.397
1189.60 284.8268
1189.70 285.2566
1189.80 285.6863
1189.90 286.1161
1190.00 286.5459
1190.10 286.9757
1190.20 287.4055
1190.30 287.8352
1190.40 288.2587
1190.50 288.6816
1190.60 289.1044
1190.70 289.5272
1190.80 289.95
1190.90 290.3728
1191.00 290.7956
1191.10 291.2184
1191.20 291.6412
1191.30 292.064
1191.40 292.4868
1191.50 292.9097
1191.60 293.1307
1191.70 293.1499
1191.80 293.1691
1191.90 293.1883
1192.00 293.2076
1192.10 293.2268
1192.20 293.246
1192.30 293.2652
1192.40 293.2845
1192.50 293.3037
1192.60 293.3229
1192.70 293.3421
1192.80 293.3614
1192.90 293.3806
1193.00 293.3998
1193.10 293.419
1193.20 293.4383
1193.30 293.4575
1193.40 293.4767
1193.50 293.4959
1193.60 293.5152
1193.70 293.5344
1193.80 293.5536
1193.90 293.5728
1194.00 293.5921
1194.10 293.6113
1194.20 293.6305
1194.30 293.6497
1194.40 293.6689
1194.50 293.6882
1194.60 293.7078
1194.70 293.7314
1194.80 293.7549
1194.90 293.7784
1195.00 293.802
1195.10 293.8255
1195.20 293.849
1195.30 293.8725
1195.40 293.8961
1195.50 293.9196
1195.60 293.9431
1195.70 293.9667
1195.80 293.9902
1195.90 293.9968
1196.00 293.9991
1196.10 294.0014
1196.20 294.0037
1196.30 294.0061
1196.40 294.0084
1196.50 294.0107
1196.60 294.013
1196.70 294.0154
1196.80 294.0177
1196.90 294.02
1197.00 294.0223
1197.10 294.0247
1197.20 294.027
1197.30 294.0293
1197.40 294.0316
1197.50 294.034
1197.60 294.0363
1197.70 294.0386
1197.80 294.0409
1197.90 294.0433
1198.00 294.0456
1198.10 294.0479
1198.20 294.0502
1198.30 294.0526
1198.40 294.0549
1198.50 294.0572
1198.60 294.0595
1198.70 294.0619
1198.80 294.0642
1198.90 294.0629
1199.00 294.056
1199.10 294.0492
1199.20 294.0423
1199.30 294.0355
1199.40 294.0286
1199.50 294.0218
1199.60 294.0149
1199.70 294.0081
1199.80 294.0013
1199.90 293.9944
1200.00 293.9876
1200.10 293.9807
1200.20 293.6928
1200.30 293.4049
1200.40 293.117
1200.50 292.8291
1200.60 292.5412
1200.70 292.2533
1200.80 291.9653
1200.90 291.6774
1201.00 291.3895
1201.10 291.1016
1201.20 290.8137
1201.30 290.5258
1201.40 290.2379
1201.50 289.95
1201.60 289.6621
1201.70 289.3742
1201.80 289.0863
1201.90 288.7983
1202.00 288.5104
1202.10 288.2225
1202.20 287.9346
1202.30 287.6467
1202.40 287.3588
1202.50 287.0709
1202.60 286.783
1202.70 286.4951
1202.80 286.2072
1202.90 285.9192
1203.00 285.6313
1203.10 285.3434
1203.20 285.0732
1203.30 284.8147
1203.40 284.5562
1203.50 284.2978
1203.60 284.0393
1203.70 283.7808
1203.80 283.5224
1203.90 283.2639
1204.00 283.0054
1204.10 282.747
1204.20 282.4885
1204.30 282.23
1204.40 282.0674
1204.50 282.2884
1204.60 282.5094
1204.70 282.7304
1204.80 282.9514
1204.90 283.1724
1205.00 283.3933
1205.10 283.6143
1205.20 283.8353
1205.30 284.0563
1205.40 284.2773
1205.50 284.4982
1205.60 284.7192
1205.70 284.9402
1205.80 285.1612
1205.90 285.3822
1206.00 285.6032
1206.10 285.8241
1206.20 286.0451
1206.30 286.2661
1206.40 286.4871
1206.50 286.7081
1206.60 286.9291
1206.70 287.15
1206.80 287.371
1206.90 287.592
1207.00 287.813
1207.10 288.034
1207.20 288.2549
1207.30 288.4759
1207.40 288.6969
1207.50 288.9075
1207.60 289.1155
1207.70 289.3235
1207.80 289.5315
1207.90 289.7395
1208.00 289.9475
1208.10 290.1554
1208.20 290.3634
1208.30 290.5714
1208.40 290.7794
1208.50 290.9874
1208.60 291.1954
1208.70 291.5244
1208.80 292.035
1208.90 292.5457
1209.00 293.0563
1209.10 293.5669
1209.20 294.0775
1209.30 294.5881
1209.40 295.0987
1209.50 295.6093
1209.60 296.1199
1209.70 296.6305
1209.80 297.1411
1209.90 297.6517
1210.00 298.1623
1210.10 298.6729
1210.20 299.1836
1210.30 299.6942
1210.40 300.2048
1210.50 300.7154
1210.60 301.226
1210.70 301.7366
1210.80 302.2472
1210.90 302.7578
1211.00 303.2684
1211.10 303.779
1211.20 304.2896
1211.30 304.8002
1211.40 305.3108
1211.50 305.8215
1211.60 306.3321
1211.70 306.8427
1211.80 307.362
1211.90 307.8824
1212.00 308.4027
1212.10 308.9231
1212.20 309.4434
1212.30 309.9638
1212.40 310.4841
1212.50 311.0045
1212.60 311.5248
1212.70 312.0451
1212.80 312.5655
1212.90 313.0858
1213.00 313.3922
1213.10 313.4847
1213.20 313.5772
1213.30 313.6697
1213.40 313.7621
1213.50 313.8546
1213.60 313.9471
1213.70 314.0396
1213.80 314.1321
1213.90 314.2245
1214.00 314.317
1214.10 314.4095
1214.20 314.502
1214.30 314.5944
1214.40 314.6869
1214.50 314.7794
1214.60 314.8719
1214.70 314.9643
1214.80 315.0568
1214.90 315.1493
1215.00 315.2418
1215.10 315.3342
1215.20 315.4267
1215.30 315.5192
1215.40 315.6117
1215.50 315.7041
1215.60 315.7966
1215.70 315.8891
1215.80 315.9816
1215.90 316.074
1216.00 316.1665
1216.10 316.2335
1216.20 316.3005
1216.30 316.3675
1216.40 316.4345
1216.50 316.5015
1216.60 316.5685
1216.70 316.6355
1216.80 316.7025
1216.90 316.7695
1217.00 316.8365
1217.10 316.9035
1217.20 316.9705
1217.30 317.0543
1217.40 317.1494
1217.50 317.2445
1217.60 317.3395
1217.70 317.4346
1217.80 317.5297
1217.90 317.6247
1218.00 317.7198
1218.10 317.8149
1218.20 317.9099
1218.30 318.005
1218.40 318.1001
1218.50 318.1951
1218.60 318.2902
1218.70 318.3853
1218.80 318.4803
1218.90 318.5754
1219.00 318.6705
1219.10 318.7655
1219.20 318.8606
1219.30 318.9557
1219.40 319.0507
1219.50 319.1458
1219.60 319.2409
1219.70 319.3359
1219.80 319.431
1219.90 319.5261
1220.00 319.6211
1220.10 319.7162
1220.20 319.8113
1220.30 319.908
1220.40 320.0194
1220.50 320.1308
1220.60 320.2422
1220.70 320.3536
1220.80 320.465
1220.90 320.5764
1221.00 320.6878
1221.10 320.7993
1221.20 320.9107
1221.30 321.0221
1221.40 321.1335
1221.50 321.2449
1221.60 321.4759
1221.70 321.7582
1221.80 322.0405
1221.90 322.3229
1222.00 322.6052
1222.10 322.8875
1222.20 323.1698
1222.30 323.4521
1222.40 323.7344
1222.50 324.0167
1222.60 324.299
1222.70 324.5813
1222.80 324.8637
1222.90 325.146
1223.00 325.4283
1223.10 325.7106
1223.20 325.9929
1223.30 326.2752
1223.40 326.5575
1223.50 326.8398
1223.60 327.1221
1223.70 327.4045
1223.80 327.6868
1223.90 327.9691
1224.00 328.2514
1224.10 328.5337
1224.20 328.816
1224.30 329.0983
1224.40 329.3806
1224.50 329.6629
1224.60 329.9428
1224.70 330.2126
1224.80 330.4825
1224.90 330.7524
1225.00 331.0223
1225.10 331.2921
1225.20 331.562
1225.30 331.8319
1225.40 332.1018
1225.50 332.3716
1225.60 332.6415
1225.70 332.9114
1225.80 333.1813
1225.90 333.2165
1226.00 333.1512
1226.10 333.0859
1226.20 333.0206
1226.30 332.9554
1226.40 332.8901
1226.50 332.8248
1226.60 332.7595
1226.70 332.6942
1226.80 332.6289
1226.90 332.5636
1227.00 332.4983
1227.10 332.433
1227.20 332.3677
1227.30 332.3024
1227.40 332.2371
1227.50 332.1718
1227.60 332.1065
1227.70 332.0412
1227.80 331.9759
1227.90 331.9106
1228.00 331.8454
1228.10 331.7801
1228.20 331.7148
1228.30 331.6495
1228.40 331.5842
1228.50 331.5189
1228.60 331.4536
1228.70 331.3883
1228.80 331.323
1228.90 331.2567
1229.00 331.1861
1229.10 331.1156
1229.20 331.0451
1229.30 330.9746
1229.40 330.904
1229.50 330.8335
1229.60 330.763
1229.70 330.6924
1229.80 330.6219
1229.90 330.5514
1230.00 330.4809
1230.10 330.4103
1230.20 330.6118
1230.30 330.8813
1230.40 331.1507
1230.50 331.4202
1230.60 331.6897
1230.70 331.9591
1230.80 332.2286
1230.90 332.498
1231.00 332.7675
1231.10 333.037
1231.20 333.3064
1231.30 333.5759
1231.40 333.8454
1231.50 334.1148
1231.60 334.3843
1231.70 334.6538
1231.80 334.9232
1231.90 335.1927
1232.00 335.4622
1232.10 335.7316
1232.20 336.0011
1232.30 336.2706
1232.40 336.54
1232.50 336.8095
1232.60 337.079
1232.70 337.3484
1232.80 337.6179
1232.90 337.8874
1233.00 338.1568
1233.10 338.4263
1233.20 338.695
1233.30 338.9604
1233.40 339.2258
1233.50 339.4913
1233.60 339.7567
1233.70 340.0222
1233.80 340.2876
1233.90 340.5531
1234.00 340.8185
1234.10 341.084
1234.20 341.3494
1234.30 341.6149
1234.40 341.8803
1234.50 341.9902
1234.60 342.0333
1234.70 342.0765
1234.80 342.1197
1234.90 342.1629
1235.00 342.206
1235.10 342.2492
1235.20 342.2924
1235.30 342.3356
1235.40 342.3787
1235.50 342.4219
1235.60 342.4651
1235.70 342.5083
1235.80 342.5514
1235.90 342.5946
1236.00 342.6378
1236.10 342.681
1236.20 342.7241
1236.30 342.7673
1236.40 342.8105
1236.50 342.8537
1236.60 342.8969
1236.70 342.94
1236.80 342.9832
1236.90 343.0264
1237.00 343.0696
1237.10 343.1127
1237.20 343.1559
1237.30 343.1991
1237.40 343.2423
1237.50 343.2856
1237.60 343.3296
1237.70 343.3736
1237.80 343.4175
1237.90 343.4615
1238.00 343.5055
1238.10 343.5495
1238.20 343.5935
1238.30 343.6375
1238.40 343.6814
1238.50 343.7254
1238.60 343.7694
1238.70 343.8134
1238.80 343.623
1238.90 343.3322
1239.00 343.0413
1239.10 342.7505
1239.20 342.4597
1239.30 342.1689
1239.40 341.878
1239.50 341.5872
1239.60 341.2964
1239.70 341.0055
1239.80 340.7147
1239.90 340.4239
1240.00 340.133
1240.10 339.8422
1240.20 339.5514
1240.30 339.2605
1240.40 338.9697
1240.50 338.6789
1240.60 338.3881
1240.70 338.0972
1240.80 337.8064
1240.90 337.5156
1241.00 337.2247
1241.10 336.9339
1241.20 336.6431
1241.30 336.3522
1241.40 336.0614
1241.50 335.7706
1241.60 335.4797
1241.70 335.1889
1241.80 334.8993
1241.90 334.6208
1242.00 334.3423
1242.10 334.0638
1242.20 333.7852
1242.30 333.5067
1242.40 333.2282
1242.50 332.9497
1242.60 332.6711
1242.70 332.3926
1242.80 332.1141
1242.90 331.8356
1243.00 331.5571
1243.10 331.4666
1243.20 331.4567
1243.30 331.4469
1243.40 331.437
1243.50 331.4271
1243.60 331.4173
1243.70 331.4074
1243.80 331.3975
1243.90 331.3877
1244.00 331.3778
1244.10 331.3679
1244.20 331.3581
1244.30 331.3482
1244.40 331.3383
1244.50 331.3284
1244.60 331.3186
1244.70 331.3087
1244.80 331.2988
1244.90 331.289
1245.00 331.2791
1245.10 331.2692
1245.20 331.2594
1245.30 331.2495
1245.40 331.2396
1245.50 331.2298
1245.60 331.2199
1245.70 331.21
1245.80 331.2002
1245.90 331.1903
1246.00 331.1804
1246.10 331.1706
1246.20 331.1798
1246.30 331.1889
1246.40 331.1981
1246.50 331.2073
1246.60 331.2165
1246.70 331.2257
1246.80 331.2349
1246.90 331.2441
1247.00 331.2533
1247.10 331.2624
1247.20 331.2716
1247.30 331.2808
1247.40 331.1882
1247.50 331.0277
1247.60 330.8672
1247.70 330.7067
1247.80 330.5462
1247.90 330.3856
1248.00 330.2251
1248.10 330.0646
1248.20 329.9041
1248.30 329.7436
1248.40 329.5831
1248.50 329.4226
1248.60 329.2621
1248.70 329.1016
1248.80 328.9411
1248.90 328.7806
1249.00 328.62
1249.10 328.4595
1249.20 328.299
1249.30 328.1385
1249.40 327.978
1249.50 327.8175
1249.60 327.657
1249.70 327.4965
1249.80 327.336
1249.90 327.1755
1250.00 327.0149
1250.10 326.8544
1250.20 326.6939
1250.30 326.5334
1250.40 326.3729
1250.50 326.2065
1250.60 326.0401
1250.70 325.8737
1250.80 325.7073
1250.90 325.541
1251.00 325.3746
1251.10 325.2082
1251.20 325.0418
1251.30 324.8754
1251.40 324.709
1251.50 324.5426
1251.60 324.3762
1251.70 324.3742
1251.80 324.5366
1251.90 324.6989
1252.00 324.8613
1252.10 325.0236
1252.20 325.186
1252.30 325.3483
1252.40 325.5107
1252.50 325.673
1252.60 325.8354
1252.70 325.9978
1252.80 326.1601
1252.90 326.3225
1253.00 326.4848
1253.10 326.6472
1253.20 326.8095
1253.30 326.9719
1253.40 327.1343
1253.50 327.2966
1253.60 327.459
1253.70 327.6213
1253.80 327.7837
1253.90 327.946
1254.00 328.1084
1254.10 328.2707
1254.20 328.4331
1254.30 328.5955
1254.40 328.7578
1254.50 328.9202
1254.60 329.0825
1254.70 329.2449
1254.80 329.3981
1254.90 329.5504
1255.00 329.7026
1255.10 329.8549
1255.20 330.0071
1255.30 330.1594
1255.40 330.3116
1255.50 330.4638
1255.60 330.6161
1255.70 330.7683
1255.80 330.9206
1255.90 331.0728
1256.00 331.1577
1256.10 331.1415
1256.20 331.1252
1256.30 331.109
1256.40 331.0928
1256.50 331.0766
1256.60 331.0604
1256.70 331.0442
1256.80 331.0279
1256.90 331.0117
1257.00 330.9955
1257.10 330.9793
1257.20 330.9631
1257.30 330.9468
1257.40 330.9306
1257.50 330.9144
1257.60 330.8982
1257.70 330.882
1257.80 330.8658
1257.90 330.8495
1258.00 330.8333
1258.10 330.8171
1258.20 330.8009
1258.30 330.7847
1258.40 330.7684
1258.50 330.7522
1258.60 330.736
1258.70 330.7198
1258.80 330.7036
1258.90 330.6874
1259.00 330.6711
1259.10 330.6767
1259.20 330.6916
1259.30 330.7065
1259.40 330.7215
1259.50 330.7364
1259.60 330.7513
1259.70 330.7662
1259.80 330.7811
1259.90 330.7961
1260.00 330.811
1260.10 330.8259
1260.20 330.8408
1260.30 330.9658
1260.40 331.5311
1260.50 332.0964
1260.60 332.6616
1260.70 333.2269
1260.80 333.7922
1260.90 334.3575
1261.00 334.9227
1261.10 335.488
1261.20 336.0533
1261.30 336.6186
1261.40 337.1839
1261.50 337.7491
1261.60 338.3144
1261.70 338.8797
1261.80 339.445
1261.90 340.0102
1262.00 340.5755
1262.10 341.1408
1262.20 341.7061
1262.30 342.2713
1262.40 342.8366
1262.50 343.4019
1262.60 343.9672
1262.70 344.5325
1262.80 345.0977
1262.90 345.663
1263.00 346.2283
1263.10 346.7936
1263.20 347.3588
1263.30 347.9241
1263.40 348.4697
1263.50 349.0022
1263.60 349.5347
1263.70 350.0672
1263.80 350.5998
1263.90 351.1323
1264.00 351.6648
1264.10 352.1973
1264.20 352.7298
1264.30 353.2623
1264.40 353.7948
1264.50 354.3273
1264.60 354.8455
1264.70 355.2349
1264.80 355.6244
1264.90 356.0138
1265.00 356.4033
1265.10 356.7927
1265.20 357.1822
1265.30 357.5716
1265.40 357.9611
1265.50 358.3505
1265.60 358.74
1265.70 359.1295
1265.80 359.5189
1265.90 359.9084
1266.00 360.2978
1266.10 360.6873
1266.20 361.0767
1266.30 361.4662
1266.40 361.8556
1266.50 362.2451
1266.60 362.6345
1266.70 363.024
1266.80 363.4134
1266.90 363.8029
1267.00 364.1923
1267.10 364.5818
1267.20 364.9712
1267.30 365.3607
1267.40 365.7501
1267.50 366.1396
1267.60 366.529
1267.70 366.9225
1267.80 367.322
1267.90 367.7215
1268.00 368.121
1268.10 368.5206
1268.20 368.9201
1268.30 369.3196
1268.40 369.7191
1268.50 370.1186
1268.60 370.5181
1268.70 370.9177
1268.80 371.3172
1268.90 371.7167
1269.00 372.0725
1269.10 372.4284
1269.20 372.7842
1269.30 373.1401
1269.40 373.4959
1269.50 373.8518
1269.60 374.2076
1269.70 374.5635
1269.80 374.9193
1269.90 375.2751
1270.00 375.631
1270.10 375.9868
1270.20 376.3427
1270.30 376.6985
1270.40 377.0544
1270.50 377.4102
1270.60 377.7661
1270.70 378.1219
1270.80 378.4778
1270.90 378.8336
1271.00 379.1894
1271.10 379.5453
1271.20 379.9011
1271.30 380.257
1271.40 380.6128
1271.50 380.9687
1271.60 381.3245
1271.70 381.6804
1271.80 382.0362
1271.90 382.3921
1272.00 382.7353
1272.10 383.0492
1272.20 383.3631
1272.30 383.677
1272.40 383.9909
1272.50 384.3048
1272.60 384.6187
1272.70 384.9326
1272.80 385.2465
1272.90 385.5604
1273.00 385.8743
1273.10 386.1882
1273.20 386.5021
1273.30 386.7439
1273.40 386.9677
1273.50 387.1914
1273.60 387.4152
1273.70 387.639
1273.80 387.8628
1273.90 388.0866
1274.00 388.3103
1274.10 388.5341
1274.20 388.7579
1274.30 388.9817
1274.40 389.2055
1274.50 389.4292
1274.60 389.653
1274.70 389.8768
1274.80 390.1006
1274.90 390.3243
1275.00 390.5481
1275.10 390.7719
1275.20 390.9957
1275.30 391.2195
1275.40 391.4432
1275.50 391.667
1275.60 391.8908
1275.70 392.1146
1275.80 392.3384
1275.90 392.5621
1276.00 392.7859
1276.10 393.0097
1276.20 393.2335
1276.30 393.4612
1276.40 393.7241
1276.50 393.9871
1276.60 394.2501
1276.70 394.513
1276.80 394.776
1276.90 395.039
1277.00 395.3019
1277.10 395.5649
1277.20 395.8279
1277.30 396.0908
1277.40 396.3538
1277.50 396.6167
1277.60 396.791
1277.70 396.9062
1277.80 397.0214
1277.90 397.1366
1278.00 397.2517
1278.10 397.3669
1278.20 397.4821
1278.30 397.5973
1278.40 397.7124
1278.50 397.8276
1278.60 397.9428
1278.70 398.058
1278.80 398.1731
1278.90 398.2883
1279.00 398.4035
1279.10 398.5187
1279.20 398.6339
1279.30 398.749
1279.40 398.8642
1279.50 398.9794
1279.60 399.0946
1279.70 399.2097
1279.80 399.3249
1279.90 399.4401
1280.00 399.5553
1280.10 399.6704
1280.20 399.7856
1280.30 399.9008
1280.40 400.016
1280.50 400.1311
1280.60 400.2463
1280.70 400.3464
1280.80 400.4465
1280.90 400.5466
1281.00 400.6467
1281.10 400.7468
1281.20 400.8469
1281.30 400.947
1281.40 401.0471
1281.50 401.1473
1281.60 401.2474
1281.70 401.3475
1281.80 401.4476
1281.90 401.4067
1282.00 401.2249
1282.10 401.043
1282.20 400.8612
1282.30 400.6793
1282.40 400.4975
1282.50 400.3156
1282.60 400.1338
1282.70 399.952
1282.80 399.7701
1282.90 399.5883
1283.00 399.4064
1283.10 399.2246
1283.20 399.0427
1283.30 398.8609
1283.40 398.6791
1283.50 398.4972
1283.60 398.3154
1283.70 398.1335
1283.80 397.9517
1283.90 397.7698
1284.00 397.588
1284.10 397.4062
1284.20 397.2243
1284.30 397.0425
1284.40 396.8606
1284.50 396.6788
1284.60 396.4969
1284.70 396.3151
1284.80 396.1333
1284.90 395.9514
1285.00 395.7758
1285.10 395.6017
1285.20 395.4276
1285.30 395.2535
1285.40 395.0794
1285.50 394.9053
1285.60 394.7312
1285.70 394.5571
1285.80 394.383
1285.90 394.2089
1286.00 394.0348
1286.10 393.8607
1286.20 393.7909
1286.30 393.9645
1286.40 394.1381
1286.50 394.3117
1286.60 394.4853
1286.70 394.6589
1286.80 394.8325
1286.90 395.0061
1287.00 395.1797
1287.10 395.3533
1287.20 395.5269
1287.30 395.7005
1287.40 395.8741
1287.50 396.0477
1287.60 396.2213
1287.70 396.3949
1287.80 396.5685
1287.90 396.7421
1288.00 396.9157
1288.10 397.0893
1288.20 397.2629
1288.30 397.4365
1288.40 397.6101
1288.50 397.7837
1288.60 397.9573
1288.70 398.1308
1288.80 398.3044
1288.90 398.478
1289.00 398.6516
1289.10 398.8252
1289.20 398.9988
1289.30 399.1668
1289.40 399.331
1289.50 399.4953
1289.60 399.6595
1289.70 399.8237
1289.80 399.9879
1289.90 400.1522
1290.00 400.3164
1290.10 400.4806
1290.20 400.6448
1290.30 400.809
1290.40 400.9733
1290.50 401.1041
1290.60 400.9348
1290.70 400.7655
1290.80 400.5961
1290.90 400.4268
1291.00 400.2575
1291.10 400.0881
1291.20 399.9188
1291.30 399.7494
1291.40 399.5801
1291.50 399.4108
1291.60 399.2414
1291.70 399.0721
1291.80 398.9028
1291.90 398.7334
1292.00 398.5641
1292.10 398.3948
1292.20 398.2254
1292.30 398.0561
1292.40 397.8868
1292.50 397.7174
1292.60 397.5481
1292.70 397.3787
1292.80 397.2094
1292.90 397.0401
1293.00 396.8707
1293.10 396.7014
1293.20 396.5321
1293.30 396.3627
1293.40 396.1934
1293.50 396.0241
1293.60 395.855
1293.70 395.6863
1293.80 395.5176
1293.90 395.349
1294.00 395.1803
1294.10 395.0116
1294.20 394.8429
1294.30 394.6742
1294.40 394.5056
1294.50 394.3369
1294.60 394.1682
1294.70 393.9995
1294.80 393.8309
1294.90 393.892
1295.00 393.9787
1295.10 394.0654
1295.20 394.1521
1295.30 394.2388
1295.40 394.3255
1295.50 394.4121
1295.60 394.4988
1295.70 394.5855
1295.80 394.6722
1295.90 394.7589
1296.00 394.8456
1296.10 394.9323
1296.20 395.019
1296.30 395.1057
1296.40 395.1924
1296.50 395.279
1296.60 395.3657
1296.70 395.4524
1296.80 395.5391
1296.90 395.6258
1297.00 395.7125
1297.10 395.7992
1297.20 395.8859
1297.30 395.9726
1297.40 396.0592
1297.50 396.1459
1297.60 396.2326
1297.70 396.3193
1297.80 396.406
1297.90 396.4921
1298.00 396.5756
1298.10 396.6592
1298.20 396.7427
1298.30 396.8263
1298.40 396.9099
1298.50 396.9934
1298.60 397.077
1298.70 397.1606
1298.80 397.2441
1298.90 397.3277
1299.00 397.4112
1299.10 397.4948
1299.20 397.3234
1299.30 397.0427
1299.40 396.762
1299.50 396.4813
1299.60 396.2005
1299.70 395.9198
1299.80 395.6391
1299.90 395.3584
