# Version 2.1 - nm, norm@500 to 1, cut digits
# Wavelength(nm)  Flambda(ergs/cm^s/s/nm)
300.00 8.938705e-96
300.10 8.938705e-96
300.20 8.938705e-96
300.30 8.938705e-96
300.40 8.938705e-96
300.50 8.938705e-96
300.60 8.938705e-96
300.70 8.938705e-96
300.80 8.938705e-96
300.90 8.938705e-96
301.00 8.938705e-96
301.10 8.938705e-96
301.20 8.938705e-96
301.30 8.938705e-96
301.40 8.938705e-96
301.50 8.938705e-96
301.60 8.938705e-96
301.70 8.938705e-96
301.80 8.938705e-96
301.90 8.938705e-96
302.00 8.938705e-96
302.10 8.938705e-96
302.20 8.938705e-96
302.30 8.938705e-96
302.40 8.938705e-96
302.50 8.938705e-96
302.60 8.938705e-96
302.70 8.938705e-96
302.80 8.938705e-96
302.90 8.938705e-96
303.00 8.938705e-96
303.10 8.938705e-96
303.20 8.938705e-96
303.30 8.938705e-96
303.40 8.938705e-96
303.50 8.938705e-96
303.60 8.938705e-96
303.70 8.938705e-96
303.80 8.938705e-96
303.90 8.938705e-96
304.00 8.938705e-96
304.10 8.938705e-96
304.20 8.938705e-96
304.30 8.938705e-96
304.40 8.938705e-96
304.50 8.938705e-96
304.60 8.938705e-96
304.70 8.938705e-96
304.80 8.938705e-96
304.90 8.938705e-96
305.00 8.938705e-96
305.10 8.938705e-96
305.20 8.938705e-96
305.30 8.938705e-96
305.40 8.938705e-96
305.50 8.938705e-96
305.60 8.938705e-96
305.70 8.938705e-96
305.80 8.938705e-96
305.90 8.938705e-96
306.00 8.938705e-96
306.10 8.938705e-96
306.20 8.938705e-96
306.30 8.938705e-96
306.40 8.938705e-96
306.50 8.938705e-96
306.60 8.938705e-96
306.70 8.938705e-96
306.80 8.938705e-96
306.90 8.938705e-96
307.00 8.938705e-96
307.10 8.938705e-96
307.20 8.938705e-96
307.30 8.938705e-96
307.40 8.938705e-96
307.50 8.938705e-96
307.60 8.938705e-96
307.70 8.938705e-96
307.80 8.938705e-96
307.90 8.938705e-96
308.00 8.938705e-96
308.10 8.938705e-96
308.20 8.938705e-96
308.30 8.938705e-96
308.40 8.938705e-96
308.50 8.938705e-96
308.60 8.938705e-96
308.70 8.938705e-96
308.80 8.938705e-96
308.90 8.938705e-96
309.00 8.938705e-96
309.10 8.938705e-96
309.20 8.938705e-96
309.30 8.938705e-96
309.40 8.938705e-96
309.50 8.938705e-96
309.60 8.938705e-96
309.70 8.938705e-96
309.80 8.938705e-96
309.90 8.938705e-96
310.00 8.938705e-96
310.10 8.938705e-96
310.20 8.938705e-96
310.30 8.938705e-96
310.40 8.938705e-96
310.50 8.938705e-96
310.60 8.938705e-96
310.70 8.938705e-96
310.80 8.938705e-96
310.90 8.938705e-96
311.00 8.938705e-96
311.10 8.938705e-96
311.20 8.938705e-96
311.30 8.938705e-96
311.40 8.938705e-96
311.50 8.938705e-96
311.60 8.938705e-96
311.70 8.938705e-96
311.80 8.938705e-96
311.90 8.938705e-96
312.00 8.938705e-96
312.10 8.938705e-96
312.20 8.938705e-96
312.30 8.938705e-96
312.40 8.938705e-96
312.50 8.938705e-96
312.60 8.938705e-96
312.70 8.938705e-96
312.80 8.938705e-96
312.90 8.938705e-96
313.00 8.938705e-96
313.10 8.938705e-96
313.20 8.938705e-96
313.30 8.938705e-96
313.40 8.938705e-96
313.50 8.938705e-96
313.60 8.938705e-96
313.70 8.938705e-96
313.80 8.938705e-96
313.90 8.938705e-96
314.00 8.938705e-96
314.10 8.938705e-96
314.20 8.938705e-96
314.30 8.938705e-96
314.40 8.938705e-96
314.50 8.938705e-96
314.60 8.938705e-96
314.70 8.938705e-96
314.80 8.938705e-96
314.90 8.938705e-96
315.00 8.938705e-96
315.10 8.938705e-96
315.20 8.938705e-96
315.30 8.938705e-96
315.40 8.938705e-96
315.50 8.938705e-96
315.60 8.938705e-96
315.70 8.938705e-96
315.80 8.938705e-96
315.90 8.938705e-96
316.00 8.938705e-96
316.10 8.938705e-96
316.20 8.938705e-96
316.30 8.938705e-96
316.40 8.938705e-96
316.50 8.938705e-96
316.60 8.938705e-96
316.70 8.938705e-96
316.80 8.938705e-96
316.90 8.938705e-96
317.00 8.938705e-96
317.10 8.938705e-96
317.20 8.938705e-96
317.30 8.938705e-96
317.40 8.938705e-96
317.50 8.938705e-96
317.60 8.938705e-96
317.70 8.938705e-96
317.80 8.938705e-96
317.90 8.938705e-96
318.00 8.938705e-96
318.10 8.938705e-96
318.20 8.938705e-96
318.30 8.938705e-96
318.40 8.938705e-96
318.50 8.938705e-96
318.60 8.938705e-96
318.70 8.938705e-96
318.80 8.938705e-96
318.90 8.938705e-96
319.00 8.938705e-96
319.10 8.938705e-96
319.20 8.938705e-96
319.30 8.938705e-96
319.40 8.938705e-96
319.50 8.938705e-96
319.60 8.938705e-96
319.70 8.938705e-96
319.80 8.938705e-96
319.90 8.938705e-96
320.00 8.938705e-96
320.10 8.938705e-96
320.20 8.938705e-96
320.30 8.938705e-96
320.40 8.938705e-96
320.50 8.938705e-96
320.60 8.938705e-96
320.70 8.938705e-96
320.80 8.938705e-96
320.90 8.938705e-96
321.00 8.938705e-96
321.10 8.938705e-96
321.20 8.938705e-96
321.30 8.938705e-96
321.40 8.938705e-96
321.50 8.938705e-96
321.60 8.938705e-96
321.70 8.938705e-96
321.80 8.938705e-96
321.90 8.938705e-96
322.00 8.938705e-96
322.10 8.938705e-96
322.20 8.938705e-96
322.30 8.938705e-96
322.40 8.938705e-96
322.50 8.938705e-96
322.60 8.938705e-96
322.70 8.938705e-96
322.80 8.938705e-96
322.90 8.938705e-96
323.00 8.938705e-96
323.10 8.938705e-96
323.20 8.938705e-96
323.30 8.938705e-96
323.40 8.938705e-96
323.50 8.938705e-96
323.60 8.938705e-96
323.70 8.938705e-96
323.80 8.938705e-96
323.90 8.938705e-96
324.00 8.938705e-96
324.10 8.938705e-96
324.20 8.938705e-96
324.30 8.938705e-96
324.40 8.938705e-96
324.50 8.938705e-96
324.60 8.938705e-96
324.70 8.938705e-96
324.80 8.938705e-96
324.90 8.938705e-96
325.00 8.938705e-96
325.10 8.938705e-96
325.20 8.938705e-96
325.30 8.938705e-96
325.40 8.938705e-96
325.50 8.938705e-96
325.60 8.938705e-96
325.70 8.938705e-96
325.80 8.938705e-96
325.90 8.938705e-96
326.00 8.938705e-96
326.10 8.938705e-96
326.20 8.938705e-96
326.30 8.938705e-96
326.40 8.938705e-96
326.50 8.938705e-96
326.60 8.938705e-96
326.70 8.938705e-96
326.80 8.938705e-96
326.90 8.938705e-96
327.00 8.938705e-96
327.10 8.938705e-96
327.20 8.938705e-96
327.30 8.938705e-96
327.40 8.938705e-96
327.50 8.938705e-96
327.60 8.938705e-96
327.70 8.938705e-96
327.80 8.938705e-96
327.90 8.938705e-96
328.00 8.938705e-96
328.10 8.938705e-96
328.20 8.938705e-96
328.30 8.938705e-96
328.40 8.938705e-96
328.50 8.938705e-96
328.60 8.938705e-96
328.70 8.938705e-96
328.80 8.938705e-96
328.90 8.938705e-96
329.00 8.938705e-96
329.10 8.938705e-96
329.20 8.938705e-96
329.30 8.938705e-96
329.40 8.938705e-96
329.50 8.938705e-96
329.60 8.938705e-96
329.70 8.938705e-96
329.80 8.938705e-96
329.90 8.938705e-96
330.00 8.938705e-96
330.10 8.938705e-96
330.20 8.938705e-96
330.30 8.938705e-96
330.40 8.938705e-96
330.50 8.938705e-96
330.60 8.938705e-96
330.70 8.938705e-96
330.80 8.938705e-96
330.90 8.938705e-96
331.00 8.938705e-96
331.10 8.938705e-96
331.20 8.938705e-96
331.30 8.938705e-96
331.40 8.938705e-96
331.50 8.938705e-96
331.60 8.938705e-96
331.70 8.938705e-96
331.80 8.938705e-96
331.90 8.938705e-96
332.00 8.938705e-96
332.10 8.938705e-96
332.20 8.938705e-96
332.30 8.938705e-96
332.40 8.938705e-96
332.50 8.938705e-96
332.60 8.938705e-96
332.70 8.938705e-96
332.80 8.938705e-96
332.90 8.938705e-96
333.00 8.938705e-96
333.10 8.938705e-96
333.20 8.938705e-96
333.30 8.938705e-96
333.40 8.938705e-96
333.50 8.938705e-96
333.60 8.938705e-96
333.70 8.938705e-96
333.80 8.938705e-96
333.90 8.938705e-96
334.00 8.938705e-96
334.10 8.938705e-96
334.20 8.938705e-96
334.30 8.938705e-96
334.40 8.938705e-96
334.50 8.938705e-96
334.60 8.938705e-96
334.70 8.938705e-96
334.80 8.938705e-96
334.90 8.938705e-96
335.00 8.938705e-96
335.10 8.938705e-96
335.20 8.938705e-96
335.30 8.938705e-96
335.40 8.938705e-96
335.50 8.938705e-96
335.60 8.938705e-96
335.70 8.938705e-96
335.80 8.938705e-96
335.90 8.938705e-96
336.00 8.938705e-96
336.10 8.938705e-96
336.20 8.938705e-96
336.30 8.938705e-96
336.40 8.938705e-96
336.50 8.938705e-96
336.60 8.938705e-96
336.70 8.938705e-96
336.80 8.938705e-96
336.90 8.938705e-96
337.00 8.938705e-96
337.10 8.938705e-96
337.20 8.938705e-96
337.30 8.938705e-96
337.40 8.938705e-96
337.50 8.938705e-96
337.60 8.938705e-96
337.70 8.938705e-96
337.80 8.938705e-96
337.90 8.938705e-96
338.00 8.938705e-96
338.10 8.938705e-96
338.20 8.938705e-96
338.30 8.938705e-96
338.40 8.938705e-96
338.50 8.938705e-96
338.60 8.938705e-96
338.70 8.938705e-96
338.80 8.938705e-96
338.90 8.938705e-96
339.00 8.938705e-96
339.10 8.938705e-96
339.20 8.938705e-96
339.30 8.938705e-96
339.40 8.938705e-96
339.50 8.938705e-96
339.60 8.938705e-96
339.70 8.938705e-96
339.80 8.938705e-96
339.90 8.938705e-96
340.00 8.938705e-96
340.10 8.938705e-96
340.20 8.938705e-96
340.30 8.938705e-96
340.40 8.938705e-96
340.50 8.938705e-96
340.60 8.938705e-96
340.70 8.938705e-96
340.80 8.938705e-96
340.90 8.938705e-96
341.00 8.938705e-96
341.10 8.938705e-96
341.20 8.938705e-96
341.30 8.938705e-96
341.40 8.938705e-96
341.50 8.938705e-96
341.60 8.938705e-96
341.70 8.938705e-96
341.80 8.938705e-96
341.90 8.938705e-96
342.00 8.938705e-96
342.10 8.938705e-96
342.20 8.938705e-96
342.30 8.938705e-96
342.40 8.938705e-96
342.50 8.938705e-96
342.60 8.938705e-96
342.70 8.938705e-96
342.80 8.938705e-96
342.90 8.938705e-96
343.00 8.938705e-96
343.10 8.938705e-96
343.20 8.938705e-96
343.30 8.938705e-96
343.40 8.938705e-96
343.50 8.938705e-96
343.60 8.938705e-96
343.70 8.938705e-96
343.80 8.938705e-96
343.90 8.938705e-96
344.00 8.938705e-96
344.10 8.938705e-96
344.20 8.938705e-96
344.30 8.938705e-96
344.40 8.938705e-96
344.50 8.938705e-96
344.60 8.938705e-96
344.70 8.938705e-96
344.80 8.938705e-96
344.90 8.938705e-96
345.00 8.938705e-96
345.10 8.938705e-96
345.20 8.938705e-96
345.30 8.938705e-96
345.40 8.938705e-96
345.50 8.938705e-96
345.60 8.938705e-96
345.70 8.938705e-96
345.80 8.938705e-96
345.90 8.938705e-96
346.00 8.938705e-96
346.10 8.938705e-96
346.20 8.938705e-96
346.30 8.938705e-96
346.40 8.938705e-96
346.50 8.938705e-96
346.60 8.938705e-96
346.70 8.938705e-96
346.80 8.938705e-96
346.90 8.938705e-96
347.00 8.938705e-96
347.10 8.938705e-96
347.20 8.938705e-96
347.30 8.938705e-96
347.40 8.938705e-96
347.50 8.938705e-96
347.60 8.938705e-96
347.70 8.938705e-96
347.80 8.938705e-96
347.90 8.938705e-96
348.00 8.938705e-96
348.10 8.938705e-96
348.20 8.938705e-96
348.30 8.938705e-96
348.40 8.938705e-96
348.50 8.938705e-96
348.60 8.938705e-96
348.70 8.938705e-96
348.80 8.938705e-96
348.90 8.938705e-96
349.00 8.938705e-96
349.10 8.938705e-96
349.20 8.938705e-96
349.30 8.938705e-96
349.40 8.938705e-96
349.50 8.938705e-96
349.60 8.938705e-96
349.70 8.938705e-96
349.80 8.938705e-96
349.90 8.938705e-96
350.00 8.938705e-96
350.10 8.938705e-96
350.20 8.938705e-96
350.30 8.938705e-96
350.40 8.938705e-96
350.50 8.938705e-96
350.60 8.938705e-96
350.70 8.938705e-96
350.80 8.938705e-96
350.90 8.938705e-96
351.00 8.938705e-96
351.10 8.938705e-96
351.20 8.938705e-96
351.30 8.938705e-96
351.40 8.938705e-96
351.50 8.938705e-96
351.60 8.938705e-96
351.70 8.938705e-96
351.80 8.938705e-96
351.90 8.938705e-96
352.00 8.938705e-96
352.10 8.938705e-96
352.20 8.938705e-96
352.30 8.938705e-96
352.40 8.938705e-96
352.50 8.938705e-96
352.60 8.938705e-96
352.70 8.938705e-96
352.80 8.938705e-96
352.90 8.938705e-96
353.00 8.938705e-96
353.10 8.938705e-96
353.20 8.938705e-96
353.30 8.938705e-96
353.40 8.938705e-96
353.50 8.938705e-96
353.60 8.938705e-96
353.70 8.938705e-96
353.80 8.938705e-96
353.90 8.938705e-96
354.00 8.938705e-96
354.10 8.938705e-96
354.20 8.938705e-96
354.30 8.938705e-96
354.40 8.938705e-96
354.50 8.938705e-96
354.60 8.938705e-96
354.70 8.938705e-96
354.80 8.938705e-96
354.90 8.938705e-96
355.00 8.938705e-96
355.10 8.938705e-96
355.20 8.938705e-96
355.30 8.938705e-96
355.40 8.938705e-96
355.50 8.938705e-96
355.60 8.938705e-96
355.70 8.938705e-96
355.80 8.938705e-96
355.90 8.938705e-96
356.00 8.938705e-96
356.10 8.938705e-96
356.20 8.938705e-96
356.30 8.938705e-96
356.40 8.938705e-96
356.50 8.938705e-96
356.60 8.938705e-96
356.70 8.938705e-96
356.80 8.938705e-96
356.90 8.938705e-96
357.00 8.938705e-96
357.10 8.938705e-96
357.20 8.938705e-96
357.30 8.938705e-96
357.40 8.938705e-96
357.50 8.938705e-96
357.60 8.938705e-96
357.70 8.938705e-96
357.80 8.938705e-96
357.90 8.938705e-96
358.00 8.938705e-96
358.10 8.938705e-96
358.20 8.938705e-96
358.30 8.938705e-96
358.40 8.938705e-96
358.50 8.938705e-96
358.60 8.938705e-96
358.70 8.938705e-96
358.80 8.938705e-96
358.90 8.938705e-96
359.00 8.938705e-96
359.10 8.938705e-96
359.20 8.938705e-96
359.30 8.938705e-96
359.40 8.938705e-96
359.50 8.938705e-96
359.60 8.938705e-96
359.70 8.938705e-96
359.80 8.938705e-96
359.90 8.938705e-96
360.00 8.938705e-96
360.10 8.938705e-96
360.20 8.938705e-96
360.30 8.938705e-96
360.40 8.938705e-96
360.50 8.938705e-96
360.60 8.938705e-96
360.70 8.938705e-96
360.80 8.938705e-96
360.90 8.938705e-96
361.00 8.938705e-96
361.10 8.938705e-96
361.20 8.938705e-96
361.30 8.938705e-96
361.40 8.938705e-96
361.50 8.938705e-96
361.60 8.938705e-96
361.70 8.938705e-96
361.80 8.938705e-96
361.90 8.938705e-96
362.00 8.938705e-96
362.10 8.938705e-96
362.20 8.938705e-96
362.30 8.938705e-96
362.40 8.938705e-96
362.50 8.938705e-96
362.60 8.938705e-96
362.70 8.938705e-96
362.80 8.938705e-96
362.90 8.938705e-96
363.00 8.938705e-96
363.10 8.938705e-96
363.20 8.938705e-96
363.30 8.938705e-96
363.40 8.938705e-96
363.50 8.938705e-96
363.60 8.938705e-96
363.70 8.938705e-96
363.80 8.938705e-96
363.90 8.938705e-96
364.00 8.938705e-96
364.10 8.938705e-96
364.20 8.938705e-96
364.30 8.938705e-96
364.40 8.938705e-96
364.50 8.938705e-96
364.60 8.938705e-96
364.70 8.938705e-96
364.80 8.938705e-96
364.90 8.938705e-96
365.00 8.938705e-96
365.10 8.938705e-96
365.20 8.938705e-96
365.30 8.938705e-96
365.40 8.938705e-96
365.50 8.938705e-96
365.60 8.938705e-96
365.70 8.938705e-96
365.80 8.938705e-96
365.90 8.938705e-96
366.00 8.938705e-96
366.10 8.938705e-96
366.20 8.938705e-96
366.30 8.938705e-96
366.40 8.938705e-96
366.50 8.938705e-96
366.60 8.938705e-96
366.70 8.938705e-96
366.80 8.938705e-96
366.90 8.938705e-96
367.00 8.938705e-96
367.10 8.938705e-96
367.20 8.938705e-96
367.30 8.938705e-96
367.40 8.938705e-96
367.50 8.938705e-96
367.60 8.938705e-96
367.70 8.938705e-96
367.80 8.938705e-96
367.90 8.938705e-96
368.00 8.938705e-96
368.10 8.938705e-96
368.20 8.938705e-96
368.30 8.938705e-96
368.40 8.938705e-96
368.50 8.938705e-96
368.60 8.938705e-96
368.70 8.938705e-96
368.80 8.938705e-96
368.90 8.938705e-96
369.00 8.938705e-96
369.10 8.938705e-96
369.20 8.938705e-96
369.30 8.938705e-96
369.40 8.938705e-96
369.50 8.938705e-96
369.60 8.938705e-96
369.70 8.938705e-96
369.80 8.938705e-96
369.90 8.938705e-96
370.00 8.938705e-96
370.10 8.938705e-96
370.20 8.938705e-96
370.30 8.938705e-96
370.40 8.938705e-96
370.50 8.938705e-96
370.60 8.938705e-96
370.70 8.938705e-96
370.80 8.938705e-96
370.90 8.938705e-96
371.00 8.938705e-96
371.10 8.938705e-96
371.20 8.938705e-96
371.30 8.938705e-96
371.40 8.938705e-96
371.50 8.938705e-96
371.60 8.938705e-96
371.70 8.938705e-96
371.80 8.938705e-96
371.90 8.938705e-96
372.00 8.938705e-96
372.10 8.938705e-96
372.20 8.938705e-96
372.30 8.938705e-96
372.40 8.938705e-96
372.50 8.938705e-96
372.60 8.938705e-96
372.70 8.938705e-96
372.80 8.938705e-96
372.90 8.938705e-96
373.00 8.938705e-96
373.10 8.938705e-96
373.20 8.938705e-96
373.30 8.938705e-96
373.40 8.938705e-96
373.50 8.938705e-96
373.60 8.938705e-96
373.70 8.938705e-96
373.80 8.938705e-96
373.90 8.938705e-96
374.00 8.938705e-96
374.10 8.938705e-96
374.20 8.938705e-96
374.30 8.938705e-96
374.40 8.938705e-96
374.50 8.938705e-96
374.60 8.938705e-96
374.70 8.938705e-96
374.80 8.938705e-96
374.90 8.938705e-96
375.00 8.938705e-96
375.10 8.938705e-96
375.20 8.938705e-96
375.30 8.938705e-96
375.40 8.938705e-96
375.50 8.938705e-96
375.60 8.938705e-96
375.70 8.938705e-96
375.80 8.938705e-96
375.90 8.938705e-96
376.00 8.938705e-96
376.10 8.938705e-96
376.20 8.938705e-96
376.30 8.938705e-96
376.40 8.938705e-96
376.50 8.938705e-96
376.60 8.938705e-96
376.70 8.938705e-96
376.80 8.938705e-96
376.90 8.938705e-96
377.00 8.938705e-96
377.10 8.938705e-96
377.20 8.938705e-96
377.30 8.938705e-96
377.40 8.938705e-96
377.50 8.938705e-96
377.60 8.938705e-96
377.70 8.938705e-96
377.80 8.938705e-96
377.90 8.938705e-96
378.00 8.938705e-96
378.10 8.938705e-96
378.20 8.938705e-96
378.30 8.938705e-96
378.40 8.938705e-96
378.50 8.938705e-96
378.60 8.938705e-96
378.70 8.938705e-96
378.80 8.938705e-96
378.90 8.938705e-96
379.00 8.938705e-96
379.10 8.938705e-96
379.20 8.938705e-96
379.30 8.938705e-96
379.40 8.938705e-96
379.50 8.938705e-96
379.60 8.938705e-96
379.70 8.938705e-96
379.80 8.938705e-96
379.90 8.938705e-96
380.00 8.938705e-96
380.10 8.938705e-96
380.20 8.938705e-96
380.30 8.938705e-96
380.40 8.938705e-96
380.50 8.938705e-96
380.60 8.938705e-96
380.70 8.938705e-96
380.80 8.938705e-96
380.90 8.938705e-96
381.00 8.938705e-96
381.10 8.938705e-96
381.20 8.938705e-96
381.30 8.938705e-96
381.40 8.938705e-96
381.50 8.938705e-96
381.60 8.938705e-96
381.70 8.938705e-96
381.80 8.938705e-96
381.90 8.938705e-96
382.00 8.938705e-96
382.10 8.938705e-96
382.20 8.938705e-96
382.30 8.938705e-96
382.40 8.938705e-96
382.50 8.938705e-96
382.60 8.938705e-96
382.70 8.938705e-96
382.80 8.938705e-96
382.90 8.938705e-96
383.00 8.938705e-96
383.10 8.938705e-96
383.20 8.938705e-96
383.30 8.938705e-96
383.40 8.938705e-96
383.50 8.938705e-96
383.60 8.938705e-96
383.70 8.938705e-96
383.80 8.938705e-96
383.90 8.938705e-96
384.00 8.938705e-96
384.10 8.938705e-96
384.20 8.938705e-96
384.30 8.938705e-96
384.40 8.938705e-96
384.50 8.938705e-96
384.60 8.938705e-96
384.70 8.938705e-96
384.80 8.938705e-96
384.90 8.938705e-96
385.00 8.938705e-96
385.10 8.938705e-96
385.20 8.938705e-96
385.30 8.938705e-96
385.40 8.938705e-96
385.50 8.938705e-96
385.60 8.938705e-96
385.70 8.938705e-96
385.80 8.938705e-96
385.90 8.938705e-96
386.00 8.938705e-96
386.10 8.938705e-96
386.20 8.938705e-96
386.30 8.938705e-96
386.40 8.938705e-96
386.50 8.938705e-96
386.60 8.938705e-96
386.70 8.938705e-96
386.80 8.938705e-96
386.90 8.938705e-96
387.00 8.938705e-96
387.10 8.938705e-96
387.20 8.938705e-96
387.30 8.938705e-96
387.40 8.938705e-96
387.50 8.938705e-96
387.60 8.938705e-96
387.70 8.938705e-96
387.80 8.938705e-96
387.90 8.938705e-96
388.00 8.938705e-96
388.10 8.938705e-96
388.20 8.938705e-96
388.30 8.938705e-96
388.40 8.938705e-96
388.50 8.938705e-96
388.60 8.938705e-96
388.70 8.938705e-96
388.80 8.938705e-96
388.90 8.938705e-96
389.00 8.938705e-96
389.10 8.938705e-96
389.20 8.938705e-96
389.30 8.938705e-96
389.40 8.938705e-96
389.50 8.938705e-96
389.60 8.938705e-96
389.70 8.938705e-96
389.80 8.938705e-96
389.90 8.938705e-96
390.00 8.938705e-96
390.10 8.938705e-96
390.20 8.938705e-96
390.30 8.938705e-96
390.40 8.938705e-96
390.50 8.938705e-96
390.60 8.938705e-96
390.70 8.938705e-96
390.80 8.938705e-96
390.90 8.938705e-96
391.00 8.938705e-96
391.10 8.938705e-96
391.20 8.938705e-96
391.30 8.938705e-96
391.40 8.938705e-96
391.50 8.938705e-96
391.60 8.938705e-96
391.70 8.938705e-96
391.80 8.938705e-96
391.90 8.938705e-96
392.00 8.938705e-96
392.10 8.938705e-96
392.20 8.938705e-96
392.30 8.938705e-96
392.40 8.938705e-96
392.50 8.938705e-96
392.60 8.938705e-96
392.70 8.938705e-96
392.80 8.938705e-96
392.90 8.938705e-96
393.00 8.938705e-96
393.10 8.938705e-96
393.20 8.938705e-96
393.30 8.938705e-96
393.40 8.938705e-96
393.50 8.938705e-96
393.60 8.938705e-96
393.70 8.938705e-96
393.80 8.938705e-96
393.90 8.938705e-96
394.00 8.938705e-96
394.10 8.938705e-96
394.20 8.938705e-96
394.30 8.938705e-96
394.40 8.938705e-96
394.50 8.938705e-96
394.60 8.938705e-96
394.70 8.938705e-96
394.80 8.938705e-96
394.90 8.938705e-96
395.00 8.849318e-96
395.10 8.759931e-96
395.20 8.670544e-96
395.30 8.581157e-96
395.40 8.49177e-96
395.50 8.402383e-96
395.60 8.312996e-96
395.70 8.223609e-96
395.80 8.134222e-96
395.90 8.044835e-96
396.00 7.955448e-96
396.10 7.866061e-96
396.20 7.776674e-96
396.30 7.687287e-96
396.40 7.5979e-96
396.50 7.508513e-96
396.60 7.419125e-96
396.70 7.329738e-96
396.80 7.240351e-96
396.90 7.150964e-96
397.00 7.061577e-96
397.10 6.97219e-96
397.20 6.882803e-96
397.30 6.793416e-96
397.40 6.704029e-96
397.50 6.614642e-96
397.60 6.525255e-96
397.70 6.435868e-96
397.80 0.001118301
397.90 0.01161224
398.00 0.02776974
398.10 0.04376778
398.20 0.05413678
398.30 0.05476114
398.40 0.05476114
398.50 0.05476114
398.60 0.05476114
398.70 0.05476114
398.80 0.05476114
398.90 0.05476114
399.00 0.06261426
399.10 0.08644769
399.20 0.121875
399.30 0.1633762
399.40 0.2062644
399.50 0.2473361
399.60 0.2841945
399.70 0.3165517
399.80 0.3475792
399.90 0.3808655
400.00 0.4174298
400.10 0.4554429
400.20 0.4912182
400.30 0.5213461
400.40 0.5448517
400.50 0.5631041
400.60 0.5783221
400.70 0.5936251
400.80 0.6123579
400.90 0.6370374
401.00 0.6690278
401.10 0.7079024
401.20 0.751022
401.30 0.7935559
401.40 0.8298305
401.50 0.855162
401.60 0.8672129
401.70 0.8672129
401.80 0.8672129
401.90 0.8672129
402.00 0.8672129
402.10 0.8672129
402.20 0.8672129
402.30 0.8672129
402.40 0.883173
402.50 0.9172469
402.60 0.9661615
402.70 1.024221
402.80 1.086078
402.90 1.147111
403.00 1.202972
403.10 1.252498
403.20 1.29773
403.30 1.34055
403.40 1.381139
403.50 1.418753
403.60 1.453197
403.70 1.483612
403.80 1.507344
403.90 1.522383
404.00 1.528189
404.10 1.528189
404.20 1.528189
404.30 1.528189
404.40 1.528189
404.50 1.528189
404.60 1.528189
404.70 1.528189
404.80 1.528189
404.90 1.528189
405.00 1.528189
405.10 1.528189
405.20 1.528189
405.30 1.528189
405.40 1.528189
405.50 1.528189
405.60 1.528189
405.70 1.532269
405.80 1.54174
405.90 1.554982
406.00 1.568531
406.10 1.578216
406.20 1.580267
406.30 1.580267
406.40 1.580267
406.50 1.580267
406.60 1.580267
406.70 1.580267
406.80 1.580267
406.90 1.580267
407.00 1.580267
407.10 1.580267
407.20 1.580267
407.30 1.580267
407.40 1.580267
407.50 1.580267
407.60 1.580267
407.70 1.580267
407.80 1.579149
407.90 1.568655
408.00 1.552497
408.10 1.536499
408.20 1.52613
408.30 1.525506
408.40 1.525506
408.50 1.525506
408.60 1.525506
408.70 1.525917
408.80 1.534817
408.90 1.548577
409.00 1.556093
409.10 1.546729
409.20 1.523933
409.30 1.49313
409.40 1.4595
409.50 1.426093
409.60 1.393911
409.70 1.362052
409.80 1.331024
409.90 1.297738
410.00 1.261173
410.10 1.22316
410.20 1.187385
410.30 1.157257
410.40 1.133839
410.50 1.124424
410.60 1.126062
410.70 1.132516
410.80 1.137284
410.90 1.135128
411.00 1.122402
411.10 1.099017
411.20 1.069168
411.30 1.039704
411.40 1.017728
411.50 1.00899
411.60 1.015926
411.70 1.035306
411.80 1.052096
411.90 1.063526
412.00 1.06793
412.10 1.06793
412.20 1.06793
412.30 1.06793
412.40 1.05197
412.50 1.017896
412.60 0.9689817
412.70 0.9109222
412.80 0.8490652
412.90 0.7887611
413.00 0.7396766
413.10 0.7022015
413.20 0.6723043
413.30 0.6452441
413.40 0.617318
413.50 0.5862423
413.60 0.5517981
413.70 0.5213835
413.80 0.4976516
413.90 0.4826126
414.00 0.476806
414.10 0.476806
414.20 0.476806
414.30 0.476806
414.40 0.476806
414.50 0.476806
414.60 0.476806
414.70 0.476806
414.80 0.476806
414.90 0.476806
415.00 0.476806
415.10 0.476806
415.20 0.476806
415.30 0.476806
415.40 0.476806
415.50 0.476806
415.60 0.476806
415.70 0.4727261
415.80 0.4632546
415.90 0.4500132
416.00 0.4364644
416.10 0.4267787
416.20 0.4247279
416.30 0.4247279
416.40 0.4247279
416.50 0.4247279
416.60 0.4247279
416.70 0.4247279
416.80 0.4247279
416.90 0.4247279
417.00 0.4247279
417.10 0.4247279
417.20 0.4247279
417.30 0.4247279
417.40 0.4247279
417.50 0.4247279
417.60 0.4314593
417.70 0.4502541
417.80 0.4789281
417.90 0.5149914
418.00 0.5549348
418.10 0.5947113
418.20 0.6317699
418.30 0.6669316
418.40 0.7039578
418.50 0.7470148
418.60 0.799322
418.70 0.8611066
418.80 0.9207498
418.90 0.975357
419.00 1.021446
419.10 1.05641
419.20 1.077917
419.30 1.083582
419.40 1.074323
419.50 1.066658
419.60 1.061982
419.70 1.061484
419.80 1.061484
419.90 1.061484
420.00 1.061484
420.10 1.061484
420.20 1.061484
420.30 1.074337
420.40 1.102954
420.50 1.134587
420.60 1.162387
420.70 1.181788
420.80 1.191128
420.90 1.191425
421.00 1.185974
421.10 1.178448
421.20 1.171652
421.30 1.168149
421.40 1.170302
421.50 1.178477
421.60 1.190636
421.70 1.204507
421.80 1.217669
421.90 1.228114
422.00 1.235381
422.10 1.237105
422.20 1.237105
422.30 1.237105
422.40 1.237105
422.50 1.237105
422.60 1.237105
422.70 1.237105
422.80 1.237105
422.90 1.236376
423.00 1.229599
423.10 1.217549
423.20 1.202214
423.30 1.186455
423.40 1.173791
423.50 1.167427
423.60 1.171142
423.70 1.181013
423.80 1.199774
423.90 1.228507
424.00 1.2668
424.10 1.312488
424.20 1.360726
424.30 1.404845
424.40 1.438919
424.50 1.459722
424.60 1.466944
424.70 1.466944
424.80 1.466944
424.90 1.466944
425.00 1.466944
425.10 1.466944
425.20 1.466944
425.30 1.466944
425.40 1.466944
425.50 1.466944
425.60 1.466944
425.70 1.466944
425.80 1.466944
425.90 1.466944
426.00 1.466944
426.10 1.466944
426.20 1.466944
426.30 1.466944
426.40 1.466944
426.50 1.468774
426.60 1.474854
426.70 1.483987
426.80 1.494081
426.90 1.502756
427.00 1.506972
427.10 1.506972
427.20 1.506972
427.30 1.506972
427.40 1.506972
427.50 1.506972
427.60 1.50024
427.70 1.493303
427.80 1.490891
427.90 1.491662
428.00 1.493321
428.10 1.492666
428.20 1.485254
428.30 1.466021
428.40 1.431123
428.50 1.388066
428.60 1.335759
428.70 1.273563
428.80 1.20502
428.90 1.136653
429.00 1.076213
429.10 1.028031
429.20 0.9942443
429.30 0.977882
429.40 0.977882
429.50 0.977882
429.60 0.9794404
429.70 0.9829188
429.80 0.9879821
429.90 0.994562
430.00 1.001757
430.10 1.007961
430.20 1.011729
430.30 1.000736
430.40 0.9754768
430.50 0.9434716
430.60 0.9127518
430.70 0.8888976
430.80 0.8735232
430.90 0.8662653
431.00 0.8653925
431.10 0.8672864
431.20 0.8666198
431.30 0.8576611
431.40 0.8412084
431.50 0.8164408
431.60 0.7852946
431.70 0.7551062
431.80 0.7310317
431.90 0.7163605
432.00 0.7127129
432.10 0.7194323
432.20 0.7274312
432.30 0.7333843
432.40 0.7357675
432.50 0.7357675
432.60 0.7357675
432.70 0.7357675
432.80 0.7357675
432.90 0.7357675
433.00 0.7357675
433.10 0.7357675
433.20 0.7357675
433.30 0.7357675
433.40 0.7357675
433.50 0.7355936
433.60 0.7318789
433.70 0.7220073
433.80 0.7060075
433.90 0.6844684
434.00 0.6570448
434.10 0.6256302
434.20 0.5959546
434.30 0.5756058
434.40 0.5704019
434.50 0.5826098
434.60 0.6117809
434.70 0.6505374
434.80 0.6901126
434.90 0.7295805
435.00 0.7689353
435.10 0.808964
435.20 0.8504178
435.30 0.8929219
435.40 0.9352113
435.50 0.9748476
435.60 1.007851
435.70 1.030114
435.80 1.039357
435.90 1.039357
436.00 1.039357
436.10 1.039357
436.20 1.039357
436.30 1.039357
436.40 1.039357
436.50 1.037527
436.60 1.031446
436.70 1.022313
436.80 1.012219
436.90 1.003544
437.00 0.9993289
437.10 0.9993289
437.20 0.9993289
437.30 0.9993289
437.40 0.9993289
437.50 0.9993289
437.60 0.9993289
437.70 0.9898112
437.80 0.9728073
437.90 0.9517999
438.00 0.9312964
438.10 0.9157342
438.20 0.9087525
438.30 0.9118029
438.40 0.9226402
438.50 0.9280159
438.60 0.9280159
438.70 0.9280159
438.80 0.9280159
438.90 0.9280159
439.00 0.9269976
439.10 0.9257458
439.20 0.9253945
439.30 0.9253945
439.40 0.9253945
439.50 0.9253945
439.60 0.9238362
439.70 0.926803
439.80 0.9379208
439.90 0.954849
440.00 0.9751149
440.10 0.9973358
440.20 1.021067
440.30 1.045482
440.40 1.067546
440.50 1.083288
440.60 1.091237
440.70 1.092753
440.80 1.089725
440.90 1.082148
441.00 1.069208
441.10 1.05935
441.20 1.053543
441.30 1.052935
441.40 1.052935
441.50 1.052935
441.60 1.052935
441.70 1.057364
441.80 1.067938
441.90 1.083838
442.00 1.103463
442.10 1.124927
442.20 1.147114
442.30 1.170757
442.40 1.196929
442.50 1.223713
442.60 1.248186
442.70 1.271044
442.80 1.293039
442.90 1.31432
443.00 1.335478
443.10 1.357034
443.20 1.379231
443.30 1.401968
443.40 1.424039
443.50 1.444374
443.60 1.462779
443.70 1.478667
443.80 1.488377
443.90 1.489943
444.00 1.484765
444.10 1.474044
444.20 1.458366
444.30 1.439146
444.40 1.418783
444.50 1.400768
444.60 1.388173
444.70 1.383319
444.80 1.38771
444.90 1.39966
445.00 1.414103
445.10 1.425023
445.20 1.427538
445.30 1.418646
445.40 1.398016
445.50 1.369512
445.60 1.340768
445.70 1.320156
445.80 1.313513
445.90 1.319173
446.00 1.329112
446.10 1.34287
446.20 1.35751
446.30 1.369945
446.40 1.37822
446.50 1.380586
446.60 1.380586
446.70 1.380586
446.80 1.380586
446.90 1.380586
447.00 1.380586
447.10 1.380586
447.20 1.386945
447.30 1.401752
447.40 1.42587
447.50 1.459846
447.60 1.504248
447.70 1.556085
447.80 1.60831
447.90 1.657537
448.00 1.700924
448.10 1.737171
448.20 1.765576
448.30 1.785355
448.40 1.79786
448.50 1.807046
448.60 1.814509
448.70 1.81857
448.80 1.821925
448.90 1.825548
449.00 1.828969
449.10 1.831018
449.20 1.831166
449.30 1.831166
449.40 1.831719
449.50 1.833888
449.60 1.836588
449.70 1.832764
449.80 1.818816
449.90 1.795684
450.00 1.768223
450.10 1.739798
450.20 1.712299
450.30 1.686023
450.40 1.660514
450.50 1.636307
450.60 1.614423
450.70 1.595603
450.80 1.583456
450.90 1.582975
451.00 1.594877
451.10 1.609916
451.20 1.626877
451.30 1.645798
451.40 1.668301
451.50 1.696849
451.60 1.733506
451.70 1.771644
451.80 1.808533
451.90 1.842971
452.00 1.872204
452.10 1.894065
452.20 1.907661
452.30 1.912565
452.40 1.910056
452.50 1.90384
452.60 1.897851
452.70 1.893892
452.80 1.892289
452.90 1.892787
453.00 1.893668
453.10 1.891599
453.20 1.883188
453.30 1.867029
453.40 1.84551
453.50 1.825176
453.60 1.806771
453.70 1.794052
453.80 1.789547
453.90 1.792362
454.00 1.800209
454.10 1.810427
454.20 1.819379
454.30 1.822068
454.40 1.814114
454.50 1.799117
454.60 1.77532
454.70 1.741417
454.80 1.69745
454.90 1.646032
455.00 1.597133
455.10 1.560231
455.20 1.54042
455.30 1.54033
455.40 1.557195
455.50 1.5824
455.60 1.605427
455.70 1.61705
455.80 1.614451
455.90 1.608791
456.00 1.598851
456.10 1.585093
456.20 1.570454
456.30 1.558018
456.40 1.549743
456.50 1.547377
456.60 1.547377
456.70 1.547377
456.80 1.547377
456.90 1.5494
457.00 1.560924
457.10 1.579668
457.20 1.596367
457.30 1.606227
457.40 1.605683
457.50 1.591816
457.60 1.562083
457.70 1.515327
457.80 1.453844
457.90 1.38879
458.00 1.324304
458.10 1.264497
458.20 1.213428
458.30 1.174669
458.40 1.149199
458.50 1.134638
458.60 1.127175
458.70 1.123372
458.80 1.120643
458.90 1.11702
459.00 1.113599
459.10 1.11155
459.20 1.112349
459.30 1.117121
459.40 1.125093
459.50 1.133953
459.60 1.142703
459.70 1.149719
459.80 1.153247
459.90 1.153605
460.00 1.153605
460.10 1.153605
460.20 1.153605
460.30 1.153605
460.40 1.153605
460.50 1.153605
460.60 1.157832
460.70 1.166684
460.80 1.176816
460.90 1.183742
461.00 1.186722
461.10 1.185426
461.20 1.179411
461.30 1.167436
461.40 1.147426
461.50 1.118877
461.60 1.082221
461.70 1.036591
461.80 0.9832497
461.90 0.9257092
462.00 0.8688273
462.10 0.8170584
462.20 0.7769025
462.30 0.7525096
462.40 0.7425088
462.50 0.741373
462.60 0.7424696
462.70 0.7408971
462.80 0.7341144
462.90 0.7221604
463.00 0.7078381
463.10 0.6962214
463.20 0.6926488
463.30 0.7008284
463.40 0.7212853
463.50 0.7488739
463.60 0.7811229
463.70 0.8109731
463.80 0.8325821
463.90 0.8445563
464.00 0.8486538
464.10 0.848407
464.20 0.8485645
464.30 0.8543526
464.40 0.870345
464.50 0.8924674
464.60 0.9201219
464.70 0.9511615
464.80 0.9827917
464.90 1.012254
465.00 1.032401
465.10 1.03792
465.20 1.028157
465.30 1.005208
465.40 0.9749799
465.50 0.9459862
465.60 0.9267091
465.70 0.9235076
465.80 0.9359833
465.90 0.9514092
466.00 0.9706845
466.10 0.9937767
466.20 1.019324
466.30 1.045688
466.40 1.071827
466.50 1.096937
466.60 1.120476
466.70 1.142217
466.80 1.162405
466.90 1.179725
467.00 1.186698
467.10 1.185451
467.20 1.179114
467.30 1.169714
467.40 1.159521
467.50 1.152307
467.60 1.152031
467.70 1.161471
467.80 1.180364
467.90 1.199446
468.00 1.216393
468.10 1.229975
468.20 1.239849
468.30 1.245808
468.40 1.248284
468.50 1.248284
468.60 1.248284
468.70 1.248025
468.80 1.247399
468.90 1.247399
469.00 1.247399
469.10 1.247399
469.20 1.246453
469.30 1.241681
469.40 1.233155
469.50 1.222127
469.60 1.215285
469.70 1.21519
469.80 1.220934
469.90 1.231001
470.00 1.239634
470.10 1.246423
470.20 1.252591
470.30 1.259329
470.40 1.267331
470.50 1.276341
470.60 1.281232
470.70 1.280597
470.80 1.275025
470.90 1.266064
471.00 1.2554
471.10 1.245251
471.20 1.238294
471.30 1.23651
471.40 1.241121
471.50 1.251072
471.60 1.265062
471.70 1.284203
471.80 1.308768
471.90 1.337909
472.00 1.369683
472.10 1.401585
472.20 1.427108
472.30 1.440638
472.40 1.440734
472.50 1.428775
472.60 1.409194
472.70 1.391867
472.80 1.378258
472.90 1.368433
473.00 1.360716
473.10 1.353807
473.20 1.347882
473.30 1.340681
473.40 1.330377
473.50 1.316347
473.60 1.300137
473.70 1.28566
473.80 1.277489
473.90 1.279016
474.00 1.290331
474.10 1.307464
474.20 1.324514
474.30 1.336476
474.40 1.339879
474.50 1.332153
474.60 1.313189
474.70 1.28637
474.80 1.257639
474.90 1.233343
475.00 1.218295
475.10 1.214577
475.20 1.221931
475.30 1.23768
475.40 1.256895
475.50 1.274945
475.60 1.287824
475.70 1.292352
475.80 1.287405
475.90 1.273195
476.00 1.25392
476.10 1.230827
476.20 1.20528
476.30 1.178916
476.40 1.155956
476.50 1.137969
476.60 1.124056
476.70 1.112056
476.80 1.100332
476.90 1.087916
477.00 1.074348
477.10 1.059443
477.20 1.043896
477.30 1.030569
477.40 1.021814
477.50 1.017585
477.60 1.01675
477.70 1.017851
477.80 1.019636
477.90 1.022204
478.00 1.027102
478.10 1.035992
478.20 1.049607
478.30 1.067794
478.40 1.090447
478.50 1.11726
478.60 1.145235
478.70 1.172182
478.80 1.195576
478.90 1.213396
479.00 1.22405
479.10 1.226655
479.20 1.226655
479.30 1.226655
479.40 1.226655
479.50 1.226655
479.60 1.222047
479.70 1.212505
479.80 1.200999
479.90 1.190198
480.00 1.181566
480.10 1.174776
480.20 1.168608
480.30 1.162139
480.40 1.161834
480.50 1.16581
480.60 1.172368
480.70 1.179358
480.80 1.183363
480.90 1.181157
481.00 1.176937
481.10 1.173344
481.20 1.169355
481.30 1.164192
481.40 1.157089
481.50 1.147138
481.60 1.133149
481.70 1.114007
481.80 1.089821
481.90 1.064013
482.00 1.034685
482.10 1.002784
482.20 0.9736338
482.30 0.9499975
482.40 0.9338558
482.50 0.9263832
482.60 0.9263832
482.70 0.9263832
482.80 0.9263832
482.90 0.9263832
483.00 0.9263832
483.10 0.9254223
483.20 0.9211342
483.30 0.9135767
483.40 0.9028717
483.50 0.8893124
483.60 0.873274
483.70 0.8547314
483.80 0.8382388
483.90 0.8234995
484.00 0.8072973
484.10 0.7883178
484.20 0.767144
484.30 0.7450388
484.40 0.7250904
484.50 0.7106941
484.60 0.702004
484.70 0.6977836
484.80 0.6980369
484.90 0.7021896
485.00 0.707176
485.10 0.7102183
485.20 0.7098065
485.30 0.7058887
485.40 0.699705
485.50 0.6925902
485.60 0.6861142
485.70 0.6823265
485.80 0.6831792
485.90 0.6891065
486.00 0.6953203
486.10 0.699449
486.20 0.699449
486.30 0.699449
486.40 0.6962692
486.50 0.6891467
486.60 0.6795216
486.70 0.6697796
486.80 0.6613163
486.90 0.6543887
487.00 0.64946
487.10 0.6488488
487.20 0.6623694
487.30 0.6858805
487.40 0.7143157
487.50 0.7435215
487.60 0.7711838
487.70 0.7973607
487.80 0.8234757
487.90 0.849825
488.00 0.8745112
488.10 0.8945104
488.20 0.907223
488.30 0.9107398
488.40 0.9024571
488.50 0.8805144
488.60 0.8525387
488.70 0.8255922
488.80 0.8021982
488.90 0.7843778
489.00 0.7737244
489.10 0.7771914
489.20 0.7903147
489.30 0.8065866
489.40 0.8211844
489.50 0.8291625
489.60 0.8291625
489.70 0.8291625
489.80 0.8291625
489.90 0.8291625
490.00 0.8291625
490.10 0.8291625
490.20 0.8291625
490.30 0.8291802
490.40 0.8303002
490.50 0.8319874
490.60 0.8332819
490.70 0.834523
490.80 0.8389658
490.90 0.8510476
491.00 0.8677047
491.10 0.8862656
491.20 0.9067077
491.30 0.9279703
491.40 0.9481124
491.50 0.9652705
491.60 0.9780502
491.70 0.9856242
491.80 0.987838
491.90 0.9845056
492.00 0.9820586
492.10 0.9820586
492.20 0.9821287
492.30 0.9843598
492.40 0.9894123
492.50 0.997333
492.60 1.007238
492.70 1.017954
492.80 1.02883
492.90 1.040073
493.00 1.052451
493.10 1.066795
493.20 1.083576
493.30 1.102778
493.40 1.124336
493.50 1.148847
493.60 1.176839
493.70 1.207602
493.80 1.234546
493.90 1.255093
494.00 1.270336
494.10 1.282512
494.20 1.293377
494.30 1.30282
494.40 1.308002
494.50 1.308002
494.60 1.308002
494.70 1.308002
494.80 1.304849
494.90 1.295529
495.00 1.280546
495.10 1.261656
495.20 1.24032
495.30 1.217914
495.40 1.196587
495.50 1.178308
495.60 1.163896
495.70 1.153083
495.80 1.144701
495.90 1.137559
496.00 1.134952
496.10 1.141824
496.20 1.159348
496.30 1.181499
496.40 1.205246
496.50 1.227168
496.60 1.244422
496.70 1.255119
496.80 1.258619
496.90 1.258619
497.00 1.258619
497.10 1.256638
497.20 1.241944
497.30 1.216493
497.40 1.18343
497.50 1.14556
497.60 1.10434
497.70 1.061109
497.80 1.01973
497.90 0.9802074
498.00 0.9438151
498.10 0.9123712
498.20 0.88752
498.30 0.8714377
498.40 0.8670084
498.50 0.8766265
498.60 0.894249
498.70 0.9151853
498.80 0.9385169
498.90 0.9627279
499.00 0.9859059
499.10 0.9995679
499.20 1.000947
499.30 0.9935569
499.40 0.9827784
499.50 0.9751204
499.60 0.9751204
499.70 0.9756978
499.80 0.9794207
499.90 0.9873346
500.00 1
500.10 1.017566
500.20 1.038829
500.30 1.060532
500.40 1.071004
500.50 1.070095
500.60 1.059021
500.70 1.042574
500.80 1.027274
500.90 1.011929
501.00 0.9952716
501.10 0.9767106
501.20 0.9562686
501.30 0.9350059
501.40 0.9148638
501.50 0.8977057
501.60 0.8877396
501.70 0.8853886
501.80 0.8896046
501.90 0.8974899
502.00 0.9062297
502.10 0.9153348
502.20 0.9247381
502.30 0.9328379
502.40 0.9391417
502.50 0.9434595
502.60 0.9461433
502.70 0.9481623
502.80 0.9501411
502.90 0.950565
503.00 0.9468453
503.10 0.9370928
503.20 0.9203117
503.30 0.9011101
503.40 0.8795515
503.50 0.8550408
503.60 0.8270482
503.70 0.7962853
503.80 0.7644314
503.90 0.7335472
504.00 0.7055549
504.10 0.6817023
504.20 0.6629662
504.30 0.6506399
504.40 0.6454586
504.50 0.6454586
504.60 0.6454586
504.70 0.6454586
504.80 0.6454586
504.90 0.6454586
505.00 0.6468552
505.10 0.6493052
505.20 0.6503437
505.30 0.6503437
505.40 0.6503437
505.50 0.6503437
505.60 0.6503437
505.70 0.6503437
505.80 0.6503437
505.90 0.6503437
506.00 0.6467365
506.10 0.6357361
506.20 0.6212832
506.30 0.6039446
506.40 0.584346
506.50 0.5646053
506.60 0.5473512
506.70 0.5366547
506.80 0.5331546
506.90 0.5331546
507.00 0.5331546
507.10 0.5352099
507.20 0.5414353
507.30 0.5514587
507.40 0.5638331
507.50 0.5762913
507.60 0.5870569
507.70 0.595094
507.80 0.5977149
507.90 0.5971934
508.00 0.5948913
508.10 0.5907072
508.20 0.5844202
508.30 0.575532
508.40 0.5631144
508.50 0.5486264
508.60 0.5310039
508.70 0.5100676
508.80 0.486736
508.90 0.462525
509.00 0.439347
509.10 0.4196124
509.20 0.4051097
509.30 0.3962283
509.40 0.392409
509.50 0.3920888
509.60 0.3920888
509.70 0.3915114
509.80 0.3877885
509.90 0.3798746
510.00 0.3683057
510.10 0.3563239
510.20 0.3459622
510.30 0.3397184
510.40 0.3403957
510.50 0.3501399
510.60 0.3701206
510.70 0.3967697
510.80 0.4223805
510.90 0.4449932
511.00 0.4629107
511.10 0.4753517
511.20 0.482829
511.30 0.4869159
511.40 0.4895685
511.50 0.4925425
511.60 0.494484
511.70 0.4965268
511.80 0.4989303
511.90 0.5006886
512.00 0.5006869
512.10 0.4989962
512.20 0.4957064
512.30 0.4906302
512.40 0.4839714
512.50 0.475798
512.60 0.4655442
512.70 0.4528094
512.80 0.4399545
512.90 0.4282877
513.00 0.4196291
513.10 0.4150377
513.20 0.4150377
513.30 0.4150377
513.40 0.4150377
513.50 0.4150377
513.60 0.419165
513.70 0.426397
513.80 0.4342234
513.90 0.4414076
514.00 0.4478539
514.10 0.4544154
514.20 0.4627051
514.30 0.4745475
514.40 0.4908899
514.50 0.5113922
514.60 0.534544
514.70 0.5579597
514.80 0.5791973
514.90 0.5965644
515.00 0.6082377
515.10 0.615794
515.20 0.6236479
515.30 0.6332138
515.40 0.6453368
515.50 0.6617126
515.60 0.682909
515.70 0.7079743
515.80 0.7358527
515.90 0.7662733
516.00 0.7988831
516.10 0.8328311
516.20 0.8640709
516.30 0.8931448
516.40 0.9213652
516.50 0.947926
516.60 0.9704193
516.70 0.985153
516.80 0.9924842
516.90 0.9941931
517.00 0.9941931
517.10 0.9921377
517.20 0.9895931
517.30 0.9878577
517.40 0.9877386
517.50 0.9901261
517.60 0.995016
517.70 1.001354
517.80 1.008416
517.90 1.016612
518.00 1.027182
518.10 1.040988
518.20 1.057458
518.30 1.075073
518.40 1.091849
518.50 1.103429
518.60 1.109646
518.70 1.112097
518.80 1.113454
518.90 1.116692
519.00 1.124551
519.10 1.138601
519.20 1.15927
519.30 1.18562
519.40 1.215479
519.50 1.246535
519.60 1.276364
519.70 1.30254
519.80 1.323434
519.90 1.33858
520.00 1.346968
520.10 1.345908
520.20 1.336227
520.30 1.320608
520.40 1.301711
520.50 1.280889
520.60 1.258134
520.70 1.233744
520.80 1.209367
520.90 1.187141
521.00 1.169272
521.10 1.157615
521.20 1.152512
521.30 1.152437
521.40 1.15498
521.50 1.157345
521.60 1.156849
521.70 1.15246
521.80 1.145429
521.90 1.138902
522.00 1.135849
522.10 1.136986
522.20 1.141045
522.30 1.146115
522.40 1.150466
522.50 1.153429
522.60 1.156651
522.70 1.162338
522.80 1.170146
522.90 1.182019
523.00 1.19877
523.10 1.218779
523.20 1.238521
523.30 1.254334
523.40 1.264436
523.50 1.269723
523.60 1.268624
523.70 1.265068
523.80 1.264409
523.90 1.271146
524.00 1.288368
524.10 1.315467
524.20 1.347291
524.30 1.3763
524.40 1.396255
524.50 1.404114
524.60 1.399858
524.70 1.385561
524.80 1.364323
524.90 1.346956
525.00 1.333886
525.10 1.32388
525.20 1.314988
525.30 1.305422
525.40 1.293299
525.50 1.276923
525.60 1.258852
525.70 1.243431
525.80 1.231459
525.90 1.220725
526.00 1.208393
526.10 1.193152
526.20 1.174588
526.30 1.152447
526.40 1.128077
526.50 1.105561
526.60 1.089897
526.70 1.084334
526.80 1.08959
526.90 1.103853
527.00 1.121908
527.10 1.139964
527.20 1.152141
527.30 1.156596
527.40 1.154174
527.50 1.146335
527.60 1.135325
527.70 1.123325
527.80 1.110728
527.90 1.096628
528.00 1.080296
528.10 1.06198
528.20 1.043138
528.30 1.026188
528.40 1.013634
528.50 1.007029
528.60 1.00674
528.70 1.01167
528.80 1.019687
528.90 1.028768
529.00 1.036665
529.10 1.041386
529.20 1.042501
529.30 1.041034
529.40 1.0387
529.50 1.037411
529.60 1.03917
529.70 1.045569
529.80 1.057199
529.90 1.073662
530.00 1.093871
530.10 1.116265
530.20 1.13853
530.30 1.157647
530.40 1.171029
530.50 1.17804
530.60 1.179955
530.70 1.178649
530.80 1.177415
530.90 1.177029
531.00 1.17698
531.10 1.176196
531.20 1.173822
531.30 1.170008
531.40 1.166412
531.50 1.163299
531.60 1.161229
531.70 1.160341
531.80 1.16018
531.90 1.159588
532.00 1.157211
532.10 1.152441
532.20 1.145823
532.30 1.138595
532.40 1.131841
532.50 1.126053
532.60 1.120848
532.70 1.115282
532.80 1.108407
532.90 1.099438
533.00 1.08833
533.10 1.077319
533.20 1.070442
533.30 1.071184
533.40 1.080403
533.50 1.095871
533.60 1.113265
533.70 1.127329
533.80 1.133925
533.90 1.130105
534.00 1.113563
534.10 1.084811
534.20 1.048137
534.30 1.009917
534.40 0.976107
534.50 0.9503749
534.60 0.9340974
534.70 0.9276003
534.80 0.9303824
534.90 0.933585
535.00 0.9378118
535.10 0.9439981
535.20 0.9523035
535.30 0.9621598
535.40 0.9729531
535.50 0.984008
535.60 0.9920666
535.70 0.9940763
535.80 0.9907135
535.90 0.9849021
536.00 0.9800571
536.10 0.9779059
536.20 0.9785887
536.30 0.9812569
536.40 0.9835913
536.50 0.9817109
536.60 0.9748809
536.70 0.9657108
536.80 0.9531238
536.90 0.9371512
537.00 0.9190964
537.10 0.9010403
537.20 0.8851828
537.30 0.8724398
537.40 0.8626067
537.50 0.8555995
537.60 0.8509539
537.70 0.8476708
537.80 0.8451717
537.90 0.8431197
538.00 0.8441111
538.10 0.8467682
538.20 0.8460259
538.30 0.8426697
538.40 0.8384468
538.50 0.8334722
538.60 0.8275442
538.70 0.8201638
538.80 0.8107898
538.90 0.7984708
539.00 0.7827137
539.10 0.7650161
539.20 0.7486754
539.30 0.7329492
539.40 0.718421
539.50 0.7058333
539.60 0.6957995
539.70 0.6889022
539.80 0.6848157
539.90 0.6821739
540.00 0.6803805
540.10 0.6800994
540.20 0.6823397
540.30 0.6880174
540.40 0.6971583
540.50 0.7089888
540.60 0.7230496
540.70 0.7391229
540.80 0.755102
540.90 0.7712727
541.00 0.788402
541.10 0.8068178
541.20 0.8268582
541.30 0.8481819
541.40 0.8688444
541.50 0.8884196
541.60 0.9062381
541.70 0.9210917
541.80 0.9319073
541.90 0.9381108
542.00 0.9393862
542.10 0.9356052
542.20 0.9319811
542.30 0.9288836
542.40 0.9265896
542.50 0.9253494
542.60 0.9249983
542.70 0.9248758
542.80 0.9239434
542.90 0.9210386
543.00 0.9153962
543.10 0.9063982
543.20 0.893534
543.30 0.8774381
543.40 0.8615655
543.50 0.8489955
543.60 0.8426447
543.70 0.8446115
543.80 0.8555808
543.90 0.8750351
544.00 0.9021175
544.10 0.9352043
544.20 0.9716401
544.30 1.008772
544.40 1.044481
544.50 1.077199
544.60 1.106583
544.70 1.132946
544.80 1.156663
544.90 1.178498
545.00 1.199776
545.10 1.22211
545.20 1.24666
545.30 1.272776
545.40 1.29797
545.50 1.319507
545.60 1.335499
545.70 1.344919
545.80 1.347093
545.90 1.342073
546.00 1.331525
546.10 1.318265
546.20 1.305298
546.30 1.295602
546.40 1.291406
546.50 1.294144
546.60 1.301134
546.70 1.306334
546.80 1.30826
546.90 1.30826
547.00 1.30826
547.10 1.30826
547.20 1.30826
547.30 1.30826
547.40 1.30826
547.50 1.30826
547.60 1.30826
547.70 1.30826
547.80 1.30826
547.90 1.30826
548.00 1.305194
548.10 1.301203
548.20 1.302223
548.30 1.307065
548.40 1.313502
548.50 1.320647
548.60 1.3272
548.70 1.331761
548.80 1.332969
548.90 1.332969
549.00 1.332969
549.10 1.331897
549.20 1.326454
549.30 1.317295
549.40 1.304299
549.50 1.287119
549.60 1.265566
549.70 1.239888
549.80 1.211451
549.90 1.182483
550.00 1.862554
550.10 1.862554
550.20 1.862554
550.30 1.861404
550.40 1.852786
550.50 1.832321
550.60 1.797143
550.70 1.747875
550.80 1.686044
550.90 1.612156
551.00 1.526635
551.10 1.434147
551.20 1.341878
551.30 1.254575
551.40 1.175176
551.50 1.104671
551.60 1.041045
551.70 0.9799891
551.80 0.9167606
551.90 0.8541672
552.00 0.7904049
552.10 0.719104
552.20 0.6369658
552.30 0.5470342
552.40 0.4570655
552.50 0.375586
552.60 0.307646
552.70 0.2549591
552.80 0.2181668
552.90 0.196028
553.00 0.1885621
553.10 0.2051616
553.20 0.2358248
553.30 0.2724951
553.40 0.3103563
553.50 0.3479283
553.60 0.3877332
553.70 0.4346807
553.80 0.4916069
553.90 0.5531162
554.00 0.6119113
554.10 0.6657395
554.20 0.7135512
554.30 0.7543721
554.40 0.7875581
554.50 0.8140566
554.60 0.8349809
554.70 0.8507817
554.80 0.8617192
554.90 0.8684184
555.00 0.8704029
555.10 0.8679016
555.20 0.860482
555.30 0.8483764
555.40 0.8322837
555.50 0.8144211
555.60 0.7980397
555.70 0.7866359
555.80 0.7836172
555.90 0.8260864
556.00 0.9284755
556.10 1.075396
556.20 1.243583
556.30 1.406528
556.40 1.541714
556.50 1.645073
556.60 1.734863
556.70 1.831761
556.80 1.944876
556.90 2.07102
557.00 2.19746
557.10 2.302056
557.20 2.38356
557.30 2.441222
557.40 2.474241
557.50 2.481311
557.60 2.461329
557.70 2.415577
557.80 2.353835
557.90 2.292326
558.00 2.233531
558.10 2.179702
558.20 2.131891
558.30 2.095653
558.40 2.075868
558.50 2.066466
558.60 2.059599
558.70 2.047694
558.80 2.036756
558.90 2.030057
559.00 2.028072
559.10 2.028072
559.20 2.028072
559.30 2.028072
559.40 2.028072
559.50 2.028072
559.60 2.032438
559.70 2.043992
559.80 2.058599
559.90 2.030768
560.00 1.940096
560.10 1.800644
560.20 1.636048
560.30 1.473299
560.40 1.338113
560.50 1.235889
560.60 1.153658
560.70 1.074135
560.80 0.9914452
560.90 0.9112914
561.00 0.8421938
561.10 0.7884353
561.20 0.7508299
561.30 0.7280542
561.40 0.7200992
561.50 0.7278409
561.60 0.7507505
561.70 0.7889128
561.80 0.8377184
561.90 0.8851452
562.00 0.9303858
562.10 0.9700489
562.20 0.9990845
562.30 1.008098
562.40 0.9946971
562.50 0.9776009
562.60 0.963544
562.70 0.9596482
562.80 0.9596482
562.90 0.9596482
563.00 0.9596482
563.10 0.9658374
563.20 0.9751781
563.30 0.9864838
563.40 0.9997396
563.50 1.01568
563.60 1.031636
563.70 1.045845
563.80 1.061193
563.90 1.077331
564.00 1.093628
564.10 1.109257
564.20 1.12461
564.30 1.141547
564.40 1.158404
564.50 1.174119
564.60 1.1821
564.70 1.176466
564.80 1.152973
564.90 1.111248
565.00 1.054912
565.10 0.9911435
565.20 0.9303604
565.30 0.8823888
565.40 0.8506247
565.50 0.8317287
565.60 0.8177036
565.70 0.7974501
565.80 0.7603521
565.90 0.7129254
566.00 0.6676847
566.10 0.6280216
566.20 0.598986
566.30 0.5853889
566.40 0.5853889
566.50 0.5853889
566.60 0.5853889
566.70 0.5945057
566.80 0.611681
566.90 0.6353846
567.00 0.6664021
567.10 0.7008551
567.20 0.74248
567.30 0.7905401
567.40 0.842346
567.50 0.8937336
567.60 0.9387698
567.70 0.9727136
567.80 0.9945149
567.90 1.007009
568.00 1.014999
568.10 1.021922
568.20 1.025718
568.30 1.020503
568.40 1.003647
568.50 0.9867969
568.60 0.9712568
568.70 0.959516
568.80 0.9525836
568.90 0.9483188
569.00 0.942566
569.10 0.9306586
569.20 0.9082229
569.30 0.8728456
569.40 0.8287567
569.50 0.7948265
569.60 0.7838363
569.70 0.8074823
569.80 0.8710957
569.90 0.9606584
570.00 1.056829
570.10 1.150772
570.20 1.231421
570.30 1.289779
570.40 1.323734
570.50 1.337105
570.60 1.337429
570.70 1.328312
570.80 1.315772
570.90 1.315933
571.00 1.333644
571.10 1.366031
571.20 1.408173
571.30 1.454768
571.40 1.498023
571.50 1.53066
571.60 1.550763
571.70 1.559947
571.80 1.560533
571.90 1.554828
572.00 1.544795
572.10 1.533636
572.20 1.527249
572.30 1.531819
572.40 1.549023
572.50 1.566897
572.60 1.583222
572.70 1.593904
572.80 1.597146
572.90 1.597146
573.00 1.597146
573.10 1.597146
573.20 1.597146
573.30 1.605666
573.40 1.625327
573.50 1.642594
573.60 1.648354
573.70 1.630764
573.80 1.581947
573.90 1.501506
574.00 1.405336
574.10 1.311392
574.20 1.230744
574.30 1.172386
574.40 1.138431
574.50 1.127919
574.60 1.141156
574.70 1.159354
574.80 1.169678
574.90 1.150761
575.00 1.102033
575.10 1.029004
575.20 0.9358958
575.30 0.8299347
575.40 0.7216188
575.50 0.6216536
575.60 0.5361932
575.70 0.4841891
575.80 0.4731983
575.90 0.4992505
576.00 0.5537196
576.10 0.6229554
576.20 0.6898616
576.30 0.739174
576.40 0.760539
576.50 0.7498377
576.60 0.7335125
576.70 0.7228311
576.80 0.7195886
576.90 0.7195886
577.00 0.7195886
577.10 0.7195886
577.20 0.7195886
577.30 0.7189392
577.40 0.7055823
577.50 0.6741555
577.60 0.6332041
577.70 0.5950444
577.80 0.5685398
577.90 0.5594184
578.00 0.5594184
578.10 0.5594184
578.20 0.5686054
578.30 0.5889726
578.40 0.621007
578.50 0.6606813
578.60 0.6968891
578.70 0.7334021
578.80 0.7771156
578.90 0.8340251
579.00 0.898721
579.10 0.966178
579.20 1.037611
579.30 1.114697
579.40 1.198949
579.50 1.291367
579.60 1.390791
579.70 1.477437
579.80 1.539867
579.90 1.576188
580.00 1.587853
580.10 1.578908
580.20 1.557854
580.30 1.537322
580.40 1.531121
580.50 1.551567
580.60 1.584522
580.70 1.630024
580.80 1.689347
580.90 1.758898
581.00 1.832438
581.10 1.902244
581.20 1.959645
581.30 1.988852
581.40 1.991759
581.50 1.988653
581.60 1.988653
581.70 1.988653
581.80 1.988653
581.90 1.988653
582.00 1.988653
582.10 1.988653
582.20 1.979466
582.30 1.959098
582.40 1.934113
582.50 1.922515
582.60 1.919422
582.70 1.916995
582.80 1.907322
582.90 1.886203
583.00 1.853113
583.10 1.81022
583.20 1.761342
583.30 1.711436
583.40 1.664805
583.50 1.624137
583.60 1.593397
583.70 1.577735
583.80 1.582585
583.90 1.614286
584.00 1.678221
584.10 1.777183
584.20 1.907916
584.30 2.058626
584.40 2.211466
584.50 2.347863
584.60 2.451552
584.70 2.51195
584.80 2.527918
584.90 2.506579
585.00 2.460055
585.10 2.403166
585.20 2.351931
585.30 2.319771
585.40 2.315091
585.50 2.326109
585.60 2.341917
585.70 2.362189
585.80 2.385474
585.90 2.407635
586.00 2.423975
586.10 2.433593
586.20 2.437895
586.30 2.437895
586.40 2.430846
586.50 2.399911
586.60 2.353235
586.70 2.300951
586.80 2.251951
586.90 2.211213
587.00 2.179606
587.10 2.155042
587.20 2.132488
587.30 2.105308
587.40 2.067687
587.50 2.015937
587.60 1.947252
587.70 1.875026
587.80 1.801721
587.90 1.721494
588.00 1.623999
588.10 1.500515
588.20 1.347113
588.30 1.168444
588.40 0.9832366
588.50 0.8192211
588.60 0.6825775
588.70 0.5766763
588.80 0.5013855
588.90 0.4541832
589.00 0.4335573
589.10 0.4313132
589.20 0.4387685
589.30 0.4505064
589.40 0.465258
589.50 0.4847306
589.60 0.5120155
589.70 0.5496776
589.80 0.5985912
589.90 0.6587172
590.00 0.7273738
590.10 0.7967739
590.20 0.8572764
590.30 0.9016326
590.40 0.9234862
590.50 0.9267223
590.60 0.9267223
590.70 0.9267223
590.80 0.9267223
590.90 0.9267223
591.00 0.9267223
591.10 0.9267223
591.20 0.9267223
591.30 0.9267223
591.40 0.9267223
591.50 0.9267223
591.60 0.9267223
591.70 0.9110789
591.80 0.8757522
591.90 0.8243392
592.00 0.7657921
592.10 0.7111635
592.20 0.6716277
592.30 0.6543169
592.40 0.6543169
592.50 0.6543169
592.60 0.6543169
592.70 0.6543169
592.80 0.6543169
592.90 0.6533072
593.00 0.646918
593.10 0.6393047
593.20 0.6378498
593.30 0.6371855
593.40 0.6313813
593.50 0.6147964
593.60 0.5841805
593.70 0.5378784
593.80 0.4736894
593.90 0.3914016
594.00 0.3064058
594.10 0.2273869
594.20 0.1625827
594.30 0.1182264
594.40 0.09637292
594.50 0.09313677
594.60 0.09313677
594.70 0.09313677
594.80 0.1097573
594.90 0.1550141
595.00 0.2310873
595.10 0.3350881
595.20 0.4609005
595.30 0.6011843
595.40 0.7481703
595.50 0.8938488
595.60 1.030736
595.70 1.152923
595.80 1.256257
595.90 1.33808
596.00 1.397553
596.10 1.437579
596.20 1.462473
596.30 1.473196
596.40 1.473196
596.50 1.473196
596.60 1.473196
596.70 1.473196
596.80 1.473196
596.90 1.473196
597.00 1.473196
597.10 1.470137
597.20 1.45797
597.30 1.441979
597.40 1.426084
597.50 1.412178
597.60 1.399701
597.70 1.388069
597.80 1.38006
597.90 1.38006
598.00 1.38006
598.10 1.38006
598.20 1.38006
598.30 1.38006
598.40 1.38006
598.50 1.38006
598.60 1.381018
598.70 1.385201
598.80 1.372424
598.90 1.328085
599.00 1.252012
599.10 1.148012
599.20 1.022199
599.30 0.8929861
599.40 0.7766699
599.50 0.6854286
599.60 0.6268347
599.70 0.6034107
599.80 0.6132764
599.90 0.6500427
600.00 0
600.10 0
600.20 0
600.30 0
600.40 0
600.50 0
600.60 0.03831461
600.70 0.1673284
600.80 0.1537381
600.90 0.03674402
601.00 0
601.10 0
601.20 0
601.30 0.4428306
601.40 1.226793
601.50 2.177487
601.60 3.131727
601.70 3.950518
601.80 4.527994
601.90 4.743578
602.00 4.519289
602.10 3.872699
602.20 2.884952
602.30 1.706526
602.40 0.5740263
602.50 0
602.60 0
602.70 0
602.80 0
602.90 0
603.00 0
603.10 0.22161
603.20 0.4551937
603.30 0.5724979
603.40 0.6390951
603.50 0.7566558
603.60 0.9822139
603.70 1.292781
603.80 1.595205
603.90 1.752438
604.00 1.660212
604.10 1.309557
604.20 0.7643838
604.30 0.1211192
604.40 0
604.50 0
604.60 0
604.70 0
604.80 0
604.90 0.2943276
605.00 0.742663
605.10 0.9886438
605.20 0.9639093
605.30 0.6887829
605.40 0.2287808
605.50 0
605.60 0
605.70 0
605.80 0
605.90 0
606.00 0
606.10 0
606.20 0
606.30 0
606.40 0.954838
606.50 2.040467
606.60 3.082802
606.70 3.984766
606.80 4.634701
606.90 4.94064
607.00 4.903124
607.10 4.613117
607.20 4.154796
607.30 3.561441
607.40 2.895523
607.50 2.269121
607.60 1.771203
607.70 1.388882
607.80 1.045358
607.90 0.7312584
608.00 0.4885109
608.10 0.2995312
608.20 0.1741683
608.30 0.2101959
608.40 0.4840627
608.50 0.9014404
608.60 1.291157
608.70 1.593822
608.80 1.816726
608.90 1.968133
609.00 2.04895
609.10 2.119958
609.20 2.284909
609.30 2.544504
609.40 2.801855
609.50 2.994158
609.60 3.079947
609.70 2.996921
609.80 2.696296
609.90 2.237502
610.00 1.761129
610.10 1.372281
610.20 1.098604
610.30 0.8898612
610.40 0.6815408
610.50 0.4208415
610.60 0.07740661
610.70 0
610.80 0
610.90 0
611.00 0
611.10 0
611.20 0.6156643
611.30 1.351111
611.40 1.965354
611.50 2.285022
611.60 2.241732
611.70 1.90544
611.80 1.411983
611.90 0.8987321
612.00 0.4579599
612.10 0.1124313
612.20 0
612.30 0
612.40 0
612.50 0
612.60 0
612.70 0
612.80 0
612.90 0
613.00 0.04615483
613.10 0.06481989
613.20 0
613.30 0
613.40 0
613.50 0
613.60 0
613.70 0
613.80 0
613.90 0
614.00 0.04627342
614.10 0.4326963
614.20 0.7982683
614.30 1.110682
614.40 1.389947
614.50 1.681874
614.60 1.999742
614.70 2.322093
614.80 2.637239
614.90 2.942865
615.00 3.187714
615.10 3.276276
615.20 3.151729
615.30 2.847209
615.40 2.411265
615.50 1.873661
615.60 1.282458
615.70 0.705737
615.80 0.1608197
615.90 0
616.00 0
616.10 0
616.20 0
616.30 0
616.40 0
616.50 0
616.60 0
616.70 0.2782397
616.80 0.5138911
616.90 0.4965479
617.00 0.2774434
617.10 0
617.20 0
617.30 0
617.40 0
617.50 0.01276744
617.60 0.3159197
617.70 0.6708861
617.80 1.013842
617.90 1.265216
618.00 1.402303
618.10 1.451326
618.20 1.457101
618.30 1.444586
618.40 1.385803
618.50 1.251986
618.60 1.102698
618.70 1.065809
618.80 1.268744
618.90 1.751944
619.00 2.466177
619.10 3.248811
619.20 3.913996
619.30 4.374078
619.40 4.590072
619.50 4.58788
619.60 4.437649
619.70 4.238662
619.80 4.11486
619.90 4.146214
620.00 4.313631
620.10 4.514158
620.20 4.625803
620.30 4.593468
620.40 4.409752
620.50 4.134661
620.60 3.885196
620.70 3.700974
620.80 3.574591
620.90 3.481068
621.00 3.347209
621.10 3.093717
621.20 2.700057
621.30 2.211358
621.40 1.7101
621.50 1.287447
621.60 1.035077
621.70 1.027846
621.80 1.281283
621.90 1.733547
622.00 2.259907
622.10 2.775291
622.20 3.231135
622.30 3.570413
622.40 3.789398
622.50 3.911746
622.60 3.949758
622.70 3.907121
622.80 3.790442
622.90 3.618169
623.00 3.37329
623.10 3.007694
623.20 2.538803
623.30 2.060634
623.40 1.677563
623.50 1.439687
623.60 1.363866
623.70 1.465766
623.80 1.716632
623.90 2.043471
624.00 2.305174
624.10 2.404891
624.20 2.367701
624.30 2.256887
624.40 2.09979
624.50 1.888249
624.60 1.617104
624.70 1.261144
624.80 0.8245938
624.90 0.3450148
625.00 0
625.10 0
625.20 0
625.30 0
625.40 0
625.50 0
625.60 0
625.70 0
625.80 0.2812042
625.90 1.294501
626.00 2.239606
626.10 3.002699
626.20 3.494184
626.30 3.689662
626.40 3.654214
626.50 3.519634
626.60 3.43249
626.70 3.43505
626.80 3.477896
626.90 3.463369
627.00 3.288645
627.10 2.905412
627.20 2.301859
627.30 1.55322
627.40 0.7886663
627.50 0.1762609
627.60 0
627.70 0.09689172
627.80 0.7047013
627.90 1.583046
628.00 2.529117
628.10 3.400145
628.20 4.128056
628.30 4.705578
628.40 5.093146
628.50 5.198566
628.60 5.025702
628.70 4.675095
628.80 4.24724
628.90 3.759419
629.00 3.224589
629.10 2.714897
629.20 2.302999
629.30 2.041389
629.40 1.903375
629.50 1.801796
629.60 1.685742
629.70 1.569216
629.80 1.504565
629.90 1.552047
630.00 1.746277
630.10 2.072983
630.20 2.488929
630.30 2.957315
630.40 3.379538
630.50 3.603681
630.60 3.549863
630.70 3.258529
630.80 2.860797
630.90 2.47475
631.00 2.141616
631.10 1.868291
631.20 1.660399
631.30 1.528123
631.40 1.445314
631.50 1.360317
631.60 1.266803
631.70 1.195408
631.80 1.195848
631.90 1.316355
632.00 1.547615
632.10 1.801612
632.20 1.990092
632.30 2.105533
632.40 2.187243
632.50 2.238869
632.60 2.257905
632.70 2.307467
632.80 2.442689
632.90 2.673341
633.00 2.977632
633.10 3.290463
633.20 3.550043
633.30 3.701637
633.40 3.690522
633.50 3.510352
633.60 3.203176
633.70 2.812436
633.80 2.351123
633.90 1.81971
634.00 1.274053
634.10 0.7799658
634.20 0.3988829
634.30 0.1685187
634.40 0.0789941
634.50 0.1319004
634.60 0.3314367
634.70 0.662549
634.80 1.105854
634.90 1.632714
635.00 2.173105
635.10 2.634116
635.20 2.96408
635.30 3.170211
635.40 3.246209
635.50 3.149625
635.60 2.858991
635.70 2.431337
635.80 1.969368
635.90 1.545523
636.00 1.189013
636.10 0.9210465
636.20 0.78145
636.30 0.823359
636.40 1.087517
636.50 1.550116
636.60 2.115506
636.70 2.660456
636.80 3.065215
636.90 3.250888
637.00 3.189634
637.10 2.888731
637.20 2.40011
637.30 1.824081
637.40 1.303007
637.50 0.9956018
637.60 0.9734887
637.70 1.20896
637.80 1.656195
637.90 2.263735
638.00 2.951965
638.10 3.624551
638.20 4.21092
638.30 4.672333
638.40 5.001194
638.50 5.204753
638.60 5.308884
638.70 5.357543
638.80 5.372059
638.90 5.329219
639.00 5.205531
639.10 4.97634
639.20 4.592567
639.30 4.042797
639.40 3.412779
639.50 2.833083
639.60 2.385665
639.70 2.090998
639.80 1.929037
639.90 1.844644
640.00 1.767625
640.10 1.644065
640.20 1.445167
640.30 1.147033
640.40 0.7498782
640.50 0.327361
640.60 0.004353409
640.70 0
640.80 0
640.90 0.1855617
641.00 0.4801477
641.10 0.790779
641.20 1.084513
641.30 1.372248
641.40 1.668541
641.50 1.971413
641.60 2.264844
641.70 2.536262
641.80 2.781973
641.90 2.954186
642.00 2.970103
642.10 2.785314
642.20 2.428855
642.30 1.969738
642.40 1.500555
642.50 1.119614
642.60 0.9097316
642.70 0.9125223
642.80 1.13677
642.90 1.555482
643.00 2.095069
643.10 2.641021
643.20 3.078323
643.30 3.367898
643.40 3.515685
643.50 3.525497
643.60 3.41911
643.70 3.265543
643.80 3.151481
643.90 3.141552
644.00 3.239476
644.10 3.392302
644.20 3.508785
644.30 3.496602
644.40 3.305403
644.50 2.944073
644.60 2.491016
644.70 2.04569
644.80 1.710996
644.90 1.568776
645.00 1.632269
645.10 1.831392
645.20 2.087951
645.30 2.335509
645.40 2.532165
645.50 2.701645
645.60 2.879559
645.70 3.077053
645.80 3.329197
645.90 3.65942
646.00 4.005984
646.10 4.276946
646.20 4.398605
646.30 4.338659
646.40 4.117418
646.50 3.812577
646.60 3.502468
646.70 3.236244
646.80 3.023108
646.90 2.799505
647.00 2.540086
647.10 2.301948
647.20 2.102346
647.30 1.914239
647.40 1.736842
647.50 1.602509
647.60 1.581572
647.70 1.715856
647.80 1.976598
647.90 2.296003
648.00 2.585627
648.10 2.791817
648.20 2.934519
648.30 3.104088
648.40 3.374248
648.50 3.747841
648.60 4.186695
648.70 4.644493
648.80 5.069635
648.90 5.374646
649.00 5.475674
649.10 5.357456
649.20 5.095075
649.30 4.791814
649.40 4.506387
649.50 4.233075
649.60 3.938745
649.70 3.615121
649.80 3.244008
649.90 2.812695
650.00 2.383651
650.10 2.05376
650.20 1.919915
650.30 2.068647
650.40 2.530129
650.50 3.269515
650.60 4.129633
650.70 4.884717
650.80 5.388813
650.90 5.590218
651.00 5.496606
651.10 5.148179
651.20 4.647831
651.30 4.111135
651.40 3.627268
651.50 3.328728
651.60 3.287771
651.70 3.449543
651.80 3.695919
651.90 3.892151
652.00 3.983832
652.10 4.002523
652.20 3.999267
652.30 4.015257
652.40 4.080492
652.50 4.199098
652.60 4.349316
652.70 4.525021
652.80 4.707275
652.90 4.838182
653.00 4.929801
653.10 5.070153
653.20 5.284902
653.30 5.523526
653.40 5.70441
653.50 5.744448
653.60 5.614473
653.70 5.341447
653.80 4.988047
653.90 4.689807
654.00 4.56378
654.10 4.634535
654.20 4.878757
654.30 5.223934
654.40 5.545913
654.50 5.713996
654.60 5.691517
654.70 5.54548
654.80 5.398627
654.90 5.352607
655.00 5.398655
655.10 5.500868
655.20 5.639432
655.30 5.731139
655.40 5.699673
655.50 5.544524
655.60 5.298625
655.70 5.03796
655.80 4.797747
655.90 4.553618
656.00 4.322536
656.10 4.125569
656.20 3.950556
656.30 3.790061
656.40 3.685556
656.50 3.679606
656.60 3.769153
656.70 3.939472
656.80 4.168985
656.90 4.42729
657.00 4.700142
657.10 4.941561
657.20 5.129331
657.30 5.28169
657.40 5.347699
657.50 5.255191
657.60 4.976551
657.70 4.55808
657.80 4.099905
657.90 3.691081
658.00 3.391188
658.10 3.267736
658.20 3.377332
658.30 3.686848
658.40 4.106419
658.50 4.541574
658.60 4.87361
658.70 4.994002
658.80 4.881349
658.90 4.65056
659.00 4.49035
659.10 4.520222
659.20 4.755117
659.30 5.193395
659.40 5.844957
659.50 6.632676
659.60 7.412439
659.70 8.062896
659.80 8.489766
659.90 8.605162
660.00 8.404528
660.10 8.033406
660.20 7.652183
660.30 7.30944
660.40 6.968989
660.50 6.601673
660.60 6.227907
660.70 5.892005
660.80 5.615257
660.90 5.408596
661.00 5.281094
661.10 5.238472
661.20 5.280819
661.30 5.39995
661.40 5.568953
661.50 5.710756
661.60 5.74391
661.70 5.632055
661.80 5.390987
661.90 5.087291
662.00 4.825032
662.10 4.697041
662.20 4.756696
662.30 5.017634
662.40 5.460202
662.50 6.015267
662.60 6.545709
662.70 6.925058
662.80 7.121911
662.90 7.158309
663.00 7.060748
663.10 6.866427
663.20 6.614026
663.30 6.327638
663.40 6.005769
663.50 5.628957
663.60 5.222066
663.70 4.854512
663.80 4.570723
663.90 4.407056
664.00 4.390045
664.10 4.549738
664.20 4.867977
664.30 5.266097
664.40 5.674746
664.50 6.038252
664.60 6.328189
664.70 6.527955
664.80 6.618684
664.90 6.599552
665.00 6.476269
665.10 6.249834
665.20 5.942784
665.30 5.600202
665.40 5.291226
665.50 5.076154
665.60 5.028088
665.70 5.200107
665.80 5.57482
665.90 6.055801
666.00 6.483516
666.10 6.735811
666.20 6.795464
666.30 6.694383
666.40 6.425914
666.50 6.035439
666.60 5.632711
666.70 5.301076
666.80 5.095937
666.90 5.05637
667.00 5.15579
667.10 5.317565
667.20 5.485744
667.30 5.674816
667.40 5.944332
667.50 6.3005
667.60 6.653532
667.70 6.911568
667.80 7.074331
667.90 7.141932
668.00 7.123055
668.10 7.094601
668.20 7.170582
668.30 7.43395
668.40 7.885123
668.50 8.458837
668.60 9.046768
668.70 9.495163
668.80 9.658127
668.90 9.484317
669.00 9.027763
669.10 8.407139
669.20 7.76425
669.30 7.239127
669.40 6.925374
669.50 6.832144
669.60 6.889322
669.70 7.010137
669.80 7.143543
669.90 7.230871
670.00 7.225032
670.10 7.138552
670.20 7.000317
670.30 6.862114
670.40 6.810336
670.50 6.932783
670.60 7.249063
670.70 7.678735
670.80 8.119382
670.90 8.49162
671.00 8.731597
671.10 8.770543
671.20 8.578622
671.30 8.244813
671.40 7.885307
671.50 7.583998
671.60 7.403714
671.70 7.356886
671.80 7.403755
671.90 7.448445
672.00 7.419116
672.10 7.336666
672.20 7.232842
672.30 7.151256
672.40 7.169676
672.50 7.328008
672.60 7.575248
672.70 7.804036
672.80 7.945824
672.90 7.973677
673.00 7.935001
673.10 7.901315
673.20 7.880228
673.30 7.857091
673.40 7.799597
673.50 7.649381
673.60 7.380421
673.70 6.991333
673.80 6.478515
673.90 5.91025
674.00 5.426339
674.10 5.170755
674.20 5.233
674.30 5.631445
674.40 6.272089
674.50 6.991066
674.60 7.666416
674.70 8.175415
674.80 8.407876
674.90 8.332161
675.00 7.983604
675.10 7.457428
675.20 6.897673
675.30 6.457443
675.40 6.249653
675.50 6.293083
675.60 6.524499
675.70 6.841216
675.80 7.144152
675.90 7.366865
676.00 7.448466
676.10 7.3762
676.20 7.21337
676.30 7.0501
676.40 6.915752
676.50 6.801153
676.60 6.744907
676.70 6.773235
676.80 6.8788
676.90 7.057731
677.00 7.270041
677.10 7.436203
677.20 7.534646
677.30 7.610086
677.40 7.715258
677.50 7.897693
677.60 8.152967
677.70 8.430213
677.80 8.725009
677.90 9.063757
678.00 9.421763
678.10 9.711053
678.20 9.810855
678.30 9.631661
678.40 9.187407
678.50 8.582954
678.60 7.906561
678.70 7.221128
678.80 6.618066
678.90 6.198894
679.00 6.045746
679.10 6.183046
679.20 6.57522
679.30 7.125421
679.40 7.665295
679.50 8.044963
679.60 8.197565
679.70 8.143864
679.80 7.955855
679.90 7.710037
680.00 7.464074
680.10 7.251083
680.20 7.086481
680.30 6.981189
680.40 6.966439
680.50 7.075153
680.60 7.283941
680.70 7.521587
680.80 7.759256
680.90 7.981718
681.00 8.136166
681.10 8.165721
681.20 8.0394
681.30 7.76776
681.40 7.416842
681.50 7.083449
681.60 6.873462
681.70 6.867574
681.80 7.076068
681.90 7.457899
682.00 7.945789
682.10 8.461795
682.20 8.91455
682.30 9.258149
682.40 9.52173
682.50 9.692923
682.60 9.725173
682.70 9.602577
682.80 9.33454
682.90 8.987262
683.00 8.619103
683.10 8.240188
683.20 7.87063
683.30 7.57245
683.40 7.436957
683.50 7.528076
683.60 7.825436
683.70 8.210969
683.80 8.524676
683.90 8.677586
684.00 8.660142
684.10 8.493814
684.20 8.242525
684.30 7.970795
684.40 7.777151
684.50 7.786529
684.60 8.036113
684.70 8.465446
684.80 8.94782
684.90 9.319185
685.00 9.455724
685.10 9.319095
685.20 8.934588
685.30 8.388732
685.40 7.796084
685.50 7.262632
685.60 6.871419
685.70 6.677882
685.80 6.681331
685.90 6.834483
686.00 7.121301
686.10 7.485881
686.20 7.802171
686.30 8.035448
686.40 8.205058
686.50 8.289997
686.60 8.291806
686.70 8.232463
686.80 8.155424
686.90 8.127141
687.00 8.190866
687.10 8.31787
687.20 8.423504
687.30 8.432111
687.40 8.29176
687.50 8.026874
687.60 7.775897
687.70 7.643984
687.80 7.666745
687.90 7.87592
688.00 8.241585
688.10 8.683341
688.20 9.095878
688.30 9.365213
688.40 9.409446
688.50 9.21818
688.60 8.849593
688.70 8.375679
688.80 7.849186
688.90 7.326524
689.00 6.854792
689.10 6.448571
689.20 6.127519
689.30 5.923189
689.40 5.882158
689.50 6.023421
689.60 6.317276
689.70 6.706514
689.80 7.109226
689.90 7.44105
690.00 7.643735
690.10 7.705423
690.20 7.662992
690.30 7.555135
690.40 7.460744
690.50 7.503662
690.60 7.740161
690.70 8.160096
690.80 8.701778
690.90 9.259923
691.00 9.717177
691.10 10.0091
691.20 10.14158
691.30 10.12591
691.40 9.959498
691.50 9.641755
691.60 9.193207
691.70 8.682152
691.80 8.181508
691.90 7.74903
692.00 7.457048
692.10 7.338275
692.20 7.418482
692.30 7.6795
692.40 8.02871
692.50 8.370443
692.60 8.614819
692.70 8.71065
692.80 8.681591
692.90 8.613178
693.00 8.597046
693.10 8.646129
693.20 8.67725
693.30 8.607714
693.40 8.410643
693.50 8.108139
693.60 7.685236
693.70 7.152645
693.80 6.632615
693.90 6.251936
694.00 6.098066
694.10 6.208078
694.20 6.542556
694.30 7.013634
694.40 7.544737
694.50 8.062788
694.60 8.498733
694.70 8.808327
694.80 8.982516
694.90 9.060353
695.00 9.103952
695.10 9.154901
695.20 9.218134
695.30 9.273955
695.40 9.304011
695.50 9.327176
695.60 9.366899
695.70 9.404516
695.80 9.37608
695.90 9.277872
696.00 9.19936
696.10 9.194547
696.20 9.2222
696.30 9.209604
696.40 9.124848
696.50 8.940555
696.60 8.653811
696.70 8.319899
696.80 7.996649
696.90 7.712848
697.00 7.47862
697.10 7.314916
697.20 7.250244
697.30 7.322103
697.40 7.503588
697.50 7.730034
697.60 7.990297
697.70 8.258429
697.80 8.493115
697.90 8.695865
698.00 8.851227
698.10 8.907858
698.20 8.828353
698.30 8.595848
698.40 8.251024
698.50 7.865844
698.60 7.50622
698.70 7.184991
698.80 6.903129
698.90 6.660057
699.00 6.423802
699.10 6.185583
699.20 5.975355
699.30 5.844051
699.40 5.790509
699.50 5.795461
699.60 5.893015
699.70 6.115352
699.80 6.44485
699.90 6.860383
700.00 7.320716
700.10 7.7629
700.20 8.128222
700.30 8.364717
700.40 8.445775
700.50 8.372898
700.60 8.163916
700.70 7.851866
700.80 7.535137
700.90 7.303371
701.00 7.164741
701.10 7.128668
701.20 7.223925
701.30 7.442041
701.40 7.73915
701.50 8.045533
701.60 8.288527
701.70 8.4263
701.80 8.469522
701.90 8.467479
702.00 8.455582
702.10 8.449672
702.20 8.443558
702.30 8.431212
702.40 8.407785
702.50 8.341848
702.60 8.22694
702.70 8.080689
702.80 7.931191
702.90 7.838212
703.00 7.858848
703.10 8.020736
703.20 8.289542
703.30 8.578526
703.40 8.799029
703.50 8.901163
703.60 8.903365
703.70 8.839924
703.80 8.728884
703.90 8.610858
704.00 8.498102
704.10 8.37607
704.20 8.259905
704.30 8.186508
704.40 8.209273
704.50 8.373272
704.60 8.684985
704.70 9.093712
704.80 9.511965
704.90 9.845149
705.00 9.999369
705.10 9.925654
705.20 9.665646
705.30 9.295753
705.40 8.869836
705.50 8.445762
705.60 8.119429
705.70 7.967338
705.80 7.982386
705.90 8.102379
706.00 8.257723
706.10 8.441338
706.20 8.700841
706.30 9.038771
706.40 9.366834
706.50 9.623559
706.60 9.818263
706.70 9.948116
706.80 10.04437
706.90 10.15357
707.00 10.24954
707.10 10.28015
707.20 10.21196
707.30 10.0555
707.40 9.879596
707.50 9.729369
707.60 9.60334
707.70 9.524465
707.80 9.557249
707.90 9.70761
708.00 9.912913
708.10 10.11756
708.20 10.2554
708.30 10.27388
708.40 10.16985
708.50 9.962731
708.60 9.729704
708.70 9.567118
708.80 9.500193
708.90 9.508408
709.00 9.557985
709.10 9.622839
709.20 9.727708
709.30 9.926531
709.40 10.20334
709.50 10.47813
709.60 10.69827
709.70 10.83687
709.80 10.89606
709.90 10.92179
710.00 10.94528
710.10 10.97037
710.20 11.01407
710.30 11.11405
710.40 11.30471
710.50 11.5866
710.60 11.90194
710.70 12.14295
710.80 12.22514
710.90 12.14774
711.00 11.95112
711.10 11.69838
711.20 11.43515
711.30 11.15469
711.40 10.86402
711.50 10.61093
711.60 10.46162
711.70 10.44651
711.80 10.53432
711.90 10.67617
712.00 10.82486
712.10 10.93227
712.20 10.95462
712.30 10.85677
712.40 10.66989
712.50 10.47447
712.60 10.3446
712.70 10.35375
712.80 10.5284
712.90 10.80322
713.00 11.07104
713.10 11.28432
713.20 11.44586
713.30 11.54052
713.40 11.55605
713.50 11.5088
713.60 11.44208
713.70 11.38853
713.80 11.31857
713.90 11.17662
714.00 10.92497
714.10 10.56029
714.20 10.11506
714.30 9.651144
714.40 9.226212
714.50 8.835895
714.60 8.448892
714.70 8.071812
714.80 7.747823
714.90 7.52728
715.00 7.437976
715.10 7.494616
715.20 7.722431
715.30 8.103848
715.40 8.569132
715.50 9.025626
715.60 9.370183
715.70 9.545354
715.80 9.551326
715.90 9.441943
716.00 9.307637
716.10 9.220296
716.20 9.21693
716.30 9.294352
716.40 9.424968
716.50 9.588201
716.60 9.730818
716.70 9.790463
716.80 9.758079
716.90 9.659017
717.00 9.533495
717.10 9.42787
717.20 9.416666
717.30 9.566204
717.40 9.902545
717.50 10.39866
717.60 10.9547
717.70 11.46084
717.80 11.83288
717.90 12.00752
718.00 11.95641
718.10 11.69531
718.20 11.27739
718.30 10.80487
718.40 10.42205
718.50 10.2575
718.60 10.35067
718.70 10.64964
718.80 11.0857
718.90 11.62492
719.00 12.24431
719.10 12.90054
719.20 13.52672
719.30 14.03017
719.40 14.31236
719.50 14.30832
719.60 14.01763
719.70 13.49685
719.80 12.83098
719.90 12.11374
720.00 11.45115
720.10 10.95546
720.20 10.70583
720.30 10.69599
720.40 10.84944
720.50 11.05275
720.60 11.20172
720.70 11.25526
720.80 11.21557
720.90 11.10661
721.00 10.9489
721.10 10.74331
721.20 10.50125
721.30 10.2612
721.40 10.06666
721.50 9.947519
721.60 9.874154
721.70 9.773557
721.80 9.615475
721.90 9.458764
722.00 9.415765
722.10 9.52988
722.20 9.755265
722.30 10.03396
722.40 10.32713
722.50 10.60593
722.60 10.83072
722.70 10.94701
722.80 10.91174
722.90 10.71528
723.00 10.39876
723.10 10.06894
723.20 9.83688
723.30 9.718198
723.40 9.610465
723.50 9.441664
723.60 9.265169
723.70 9.14016
723.80 9.129944
723.90 9.336015
724.00 9.798785
724.10 10.48341
724.20 11.34784
724.30 12.30381
724.40 13.19976
724.50 13.88916
724.60 14.23433
724.70 14.12999
724.80 13.56464
724.90 12.62218
725.00 11.49786
725.10 10.45495
725.20 9.646648
725.30 9.108035
725.40 8.88965
725.50 9.056763
725.60 9.566852
725.70 10.28989
725.80 11.07362
725.90 11.72469
726.00 12.0984
726.10 12.18278
726.20 12.09218
726.30 11.97039
726.40 11.83953
726.50 11.64074
726.60 11.38046
726.70 11.11514
726.80 10.86622
726.90 10.62182
727.00 10.41657
727.10 10.34774
727.20 10.51629
727.30 10.97728
727.40 11.69547
727.50 12.56612
727.60 13.42816
727.70 14.08305
727.80 14.37236
727.90 14.24721
728.00 13.77549
728.10 13.11249
728.20 12.45295
728.30 11.95038
728.40 11.65204
728.50 11.51268
728.60 11.46195
728.70 11.44475
728.80 11.39693
728.90 11.20286
729.00 10.73977
729.10 9.954817
729.20 8.922122
729.30 7.848214
729.40 6.968951
729.50 6.443575
729.60 6.363336
729.70 6.746168
729.80 7.494876
729.90 8.387882
730.00 9.142495
730.10 9.512383
730.20 9.374468
730.30 8.787297
730.40 7.956878
730.50 7.149779
730.60 6.589724
730.70 6.388015
730.80 6.563789
730.90 7.066957
731.00 7.758516
731.10 8.455167
731.20 8.991005
731.30 9.275074
731.40 9.325557
731.50 9.267231
731.60 9.272965
731.70 9.454451
731.80 9.825306
731.90 10.32932
732.00 10.88403
732.10 11.37775
732.20 11.67782
732.30 11.67648
732.40 11.37536
732.50 10.86844
732.60 10.30437
732.70 9.826023
732.80 9.500963
732.90 9.340366
733.00 9.283234
733.10 9.235962
733.20 9.150604
733.30 9.031835
733.40 8.886765
733.50 8.690028
733.60 8.390722
733.70 7.982533
733.80 7.573206
733.90 7.326015
734.00 7.341962
734.10 7.660949
734.20 8.265383
734.30 9.024228
734.40 9.733667
734.50 10.2088
734.60 10.31592
734.70 10.01485
734.80 9.383247
734.90 8.621905
735.00 8.020375
735.10 7.806608
735.20 7.977318
735.30 8.365638
735.40 8.792372
735.50 9.116021
735.60 9.242294
735.70 9.152898
735.80 8.937047
735.90 8.725235
736.00 8.598423
736.10 8.532836
736.20 8.466607
736.30 8.366846
736.40 8.228924
736.50 8.083298
736.60 7.941539
736.70 7.787761
736.80 7.644855
736.90 7.566656
737.00 7.590294
737.10 7.694721
737.20 7.820752
737.30 7.911802
737.40 7.968681
737.50 8.061574
737.60 8.247292
737.70 8.511553
737.80 8.771096
737.90 8.923314
738.00 8.930995
738.10 8.824232
738.20 8.648613
738.30 8.459651
738.40 8.337291
738.50 8.359938
738.60 8.574326
738.70 8.989261
738.80 9.540651
738.90 10.13842
739.00 10.72758
739.10 11.25761
739.20 11.64609
739.30 11.78773
739.40 11.61553
739.50 11.1549
739.60 10.52657
739.70 9.867254
739.80 9.262765
739.90 8.776386
740.00 8.426733
740.10 8.183893
740.20 8.02362
740.30 7.928878
740.40 7.854732
740.50 7.740822
740.60 7.579074
740.70 7.433853
740.80 7.382622
740.90 7.446262
741.00 7.554979
741.10 7.602556
741.20 7.518141
741.30 7.260482
741.40 6.84596
741.50 6.351156
741.60 5.876425
741.70 5.513377
741.80 5.324567
741.90 5.361068
742.00 5.63519
742.10 6.078815
742.20 6.576507
742.30 7.022633
742.40 7.37395
742.50 7.648842
742.60 7.868809
742.70 8.069055
742.80 8.303277
742.90 8.571933
743.00 8.802625
743.10 8.919936
743.20 8.900389
743.30 8.77454
743.40 8.634018
743.50 8.617632
743.60 8.811522
743.70 9.236044
743.80 9.796813
743.90 10.3106
744.00 10.64664
744.10 10.68494
744.20 10.3367
744.30 9.671918
744.40 8.881031
744.50 8.140538
744.60 7.559471
744.70 7.173995
744.80 6.950809
744.90 6.805407
745.00 6.684008
745.10 6.547375
745.20 6.380545
745.30 6.222902
745.40 6.115059
745.50 6.125337
745.60 6.295897
745.70 6.540747
745.80 6.727421
745.90 6.773967
746.00 6.61105
746.10 6.226287
746.20 5.712396
746.30 5.196544
746.40 4.784559
746.50 4.546374
746.60 4.507369
746.70 4.6484
746.80 4.926722
746.90 5.305003
747.00 5.761385
747.10 6.296916
747.20 6.877601
747.30 7.42111
747.40 7.882601
747.50 8.233618
747.60 8.395967
747.70 8.298973
747.80 7.91222
747.90 7.286803
748.00 6.590411
748.10 6.031986
748.20 5.750917
748.30 5.76389
748.40 6.001905
748.50 6.345766
748.60 6.65535
748.70 6.802265
748.80 6.712274
748.90 6.372688
749.00 5.832628
749.10 5.19598
749.20 4.619185
749.30 4.254383
749.40 4.167835
749.50 4.327347
749.60 4.658164
749.70 5.055801
749.80 5.366619
749.90 5.459114
750.00 5.305842
750.10 4.990353
750.20 4.635238
750.30 4.322231
750.40 4.084659
750.50 3.944324
750.60 3.914548
750.70 3.978875
750.80 4.101031
750.90 4.246317
751.00 4.387314
751.10 4.503658
751.20 4.587056
751.30 4.63574
751.40 4.628158
751.50 4.51121
751.60 4.233071
751.70 3.793912
751.80 3.290686
751.90 2.88329
752.00 2.652848
752.10 2.585013
752.20 2.700197
752.30 3.040091
752.40 3.541881
752.50 4.083473
752.60 4.569417
752.70 4.923438
752.80 5.098711
752.90 5.097342
753.00 4.954896
753.10 4.741899
753.20 4.528717
753.30 4.353898
753.40 4.302353
753.50 4.481828
753.60 4.860302
753.70 5.267692
753.80 5.544468
753.90 5.591017
754.00 5.369302
754.10 4.929331
754.20 4.378554
754.30 3.818749
754.40 3.351207
754.50 3.087513
754.60 3.086097
754.70 3.325716
754.80 3.719719
754.90 4.146722
755.00 4.486037
755.10 4.652577
755.20 4.633879
755.30 4.484791
755.40 4.290297
755.50 4.115245
755.60 4.013627
755.70 4.04656
755.80 4.236914
755.90 4.554719
756.00 4.934105
756.10 5.283125
756.20 5.543749
756.30 5.700876
756.40 5.767314
756.50 5.811942
756.60 5.909506
756.70 6.081813
756.80 6.307837
756.90 6.551925
757.00 6.766563
757.10 6.905456
757.20 6.952182
757.30 6.894172
757.40 6.72331
757.50 6.440639
757.60 6.062142
757.70 5.631511
757.80 5.183726
757.90 4.731605
758.00 4.254456
758.10 3.748778
758.20 3.265416
758.30 2.86301
758.40 2.592908
758.50 2.488401
758.60 2.534743
758.70 2.677228
758.80 2.875829
758.90 3.127945
759.00 3.409094
759.10 3.670326
759.20 3.919866
759.30 4.188981
759.40 4.566814
759.50 5.135096
759.60 5.86478
759.70 6.64773
759.80 7.360894
759.90 7.899619
760.00 8.157053
760.10 8.015413
760.20 7.398132
760.30 6.386552
760.40 5.162128
760.50 3.919359
760.60 2.827864
760.70 2.036483
760.80 1.629867
760.90 1.602472
761.00 1.884102
761.10 2.338038
761.20 2.766257
761.30 2.989449
761.40 2.946764
761.50 2.747169
761.60 2.590736
761.70 2.620841
761.80 2.898501
761.90 3.416954
762.00 4.098772
762.10 4.776861
762.20 5.21526
762.30 5.265134
762.40 4.928854
762.50 4.273051
762.60 3.408708
762.70 2.491708
762.80 1.697937
762.90 1.166964
763.00 0.943722
763.10 0.9659196
763.20 1.148827
763.30 1.418811
763.40 1.693066
763.50 1.897572
763.60 2.000874
763.70 1.952203
763.80 1.696761
763.90 1.319463
764.00 0.9873928
764.10 0.8022028
764.20 0.7876039
764.30 0.9368808
764.40 1.20531
764.50 1.493333
764.60 1.692919
764.70 1.751743
764.80 1.683893
764.90 1.549937
765.00 1.42196
765.10 1.373639
765.20 1.439842
765.30 1.551935
765.40 1.579279
765.50 1.466501
765.60 1.226993
765.70 0.866601
765.80 0.4451071
765.90 0.1094718
766.00 0
766.10 0.1222945
766.20 0.4744361
766.30 0.9796179
766.40 1.536236
766.50 2.006231
766.60 2.243026
766.70 2.187496
766.80 1.90333
766.90 1.470169
767.00 0.9601348
767.10 0.4776334
767.20 0.1033985
767.30 0
767.40 0
767.50 0.06704869
767.60 0.3973368
767.70 0.805665
767.80 1.228786
767.90 1.636595
768.00 2.068638
768.10 2.552184
768.20 3.019449
768.30 3.379556
768.40 3.585386
768.50 3.627698
768.60 3.545661
768.70 3.402437
768.80 3.234575
768.90 3.057471
769.00 2.883446
769.10 2.725848
769.20 2.628217
769.30 2.637547
769.40 2.694147
769.50 2.691694
769.60 2.599072
769.70 2.416188
769.80 2.171548
769.90 1.930297
770.00 1.743767
770.10 1.654054
770.20 1.683728
770.30 1.788667
770.40 1.878197
770.50 1.849817
770.60 1.524664
770.70 0.70233
770.80 0
770.90 0
771.00 0
771.10 0
771.20 0
771.30 0
771.40 0
771.50 0
771.60 0
771.70 0.7916569
771.80 1.899075
771.90 2.517534
772.00 2.668171
772.10 2.455255
772.20 2.008005
772.30 1.452768
772.40 0.8847281
772.50 0.3489907
772.60 0
772.70 0
772.80 0
772.90 0.07379513
773.00 0.8659681
773.10 1.78665
773.20 2.649337
773.30 3.282074
773.40 3.60708
773.50 3.668093
773.60 3.543568
773.70 3.309338
773.80 3.037023
773.90 2.783756
774.00 2.562202
774.10 2.371256
774.20 2.181322
774.30 1.96132
774.40 1.71062
774.50 1.446757
774.60 1.271014
774.70 1.236161
774.80 1.307309
774.90 1.498362
775.00 1.878827
775.10 2.462777
775.20 3.182728
775.30 3.923779
775.40 4.496853
775.50 4.681005
775.60 4.339488
775.70 3.494408
775.80 2.367838
775.90 1.230945
776.00 0.2086454
776.10 0
776.20 0
776.30 0
776.40 0
776.50 0.3827654
776.60 1.10248
776.70 1.691874
776.80 2.037996
776.90 2.223232
777.00 2.371454
777.10 2.519775
777.20 2.672168
777.30 2.863026
777.40 3.164268
777.50 3.59998
777.60 4.151107
777.70 4.770756
777.80 5.306282
777.90 5.598112
778.00 5.569077
778.10 5.262393
778.20 4.787033
778.30 4.227444
778.40 3.709089
778.50 3.344736
778.60 3.114697
778.70 2.91245
778.80 2.728898
778.90 2.696792
779.00 2.832443
779.10 3.053517
779.20 3.373739
779.30 3.801649
779.40 4.251351
779.50 4.609388
779.60 4.796781
779.70 4.741799
779.80 4.380622
779.90 3.779254
780.00 3.147059
780.10 2.723095
780.20 2.585248
780.30 2.581335
780.40 2.588083
780.50 2.568288
780.60 2.474671
780.70 2.287487
780.80 2.058666
780.90 1.920421
781.00 1.997224
781.10 2.354527
781.20 2.986692
781.30 3.80437
781.40 4.665062
781.50 5.392397
781.60 5.824484
781.70 5.894758
781.80 5.623847
781.90 5.117678
782.00 4.552938
782.10 4.108931
782.20 3.962959
782.30 4.19473
782.40 4.763758
782.50 5.565572
782.60 6.445616
782.70 7.234713
782.80 7.76561
782.90 7.962012
783.00 7.888597
783.10 7.652486
783.20 7.336836
783.30 7.004816
783.40 6.71311
783.50 6.513332
783.60 6.409323
783.70 6.423838
783.80 6.585514
783.90 6.858264
784.00 7.192152
784.10 7.539512
784.20 7.848563
784.30 8.041787
784.40 8.061201
784.50 7.921444
784.60 7.669419
784.70 7.350234
784.80 7.017709
784.90 6.821825
785.00 7.068904
785.10 7.964938
785.20 9.478399
785.30 11.41145
785.40 13.41047
785.50 15.10775
785.60 16.24537
785.70 16.68765
785.80 16.39193
785.90 15.42756
786.00 14.01055
786.10 12.45717
786.20 11.09484
786.30 10.11633
786.40 9.443833
786.50 8.923116
786.60 8.507993
786.70 8.263519
786.80 8.305352
786.90 8.684863
787.00 9.365281
787.10 10.2049
787.20 10.9441
787.30 11.36202
787.40 11.37728
787.50 10.97288
787.60 10.21717
787.70 9.358488
787.80 8.717757
787.90 8.481361
788.00 8.695817
788.10 9.304106
788.20 10.14578
788.30 10.94699
788.40 11.45594
788.50 11.5886
788.60 11.44004
788.70 11.145
788.80 10.79862
788.90 10.52808
789.00 10.4415
789.10 10.46441
789.20 10.43298
789.30 10.30495
789.40 10.0969
789.50 9.811616
789.60 9.507873
789.70 9.33243
789.80 9.388572
789.90 9.647346
790.00 10.01998
790.10 10.42348
790.20 10.78317
790.30 11.0425
790.40 11.17829
790.50 11.2278
790.60 11.24982
790.70 11.23553
790.80 11.09161
790.90 10.7632
791.00 10.30766
791.10 9.788547
791.20 9.226053
791.30 8.711246
791.40 8.361102
791.50 8.216449
791.60 8.289372
791.70 8.558521
791.80 8.971635
791.90 9.475143
792.00 9.998888
792.10 10.47231
792.20 10.91683
792.30 11.36358
792.40 11.78455
792.50 12.15161
792.60 12.3963
792.70 12.36189
792.80 11.91166
792.90 11.06463
793.00 9.997923
793.10 8.919586
793.20 8.043985
793.30 7.521629
793.40 7.390338
793.50 7.688805
793.60 8.390804
793.70 9.341434
793.80 10.28121
793.90 10.97605
794.00 11.32574
794.10 11.37136
794.20 11.18001
794.30 10.72592
794.40 9.935347
794.50 8.840132
794.60 7.556169
794.70 6.266323
794.80 5.243635
794.90 4.702679
795.00 4.73709
795.10 5.33756
795.20 6.395882
795.30 7.709704
795.40 9.075005
795.50 10.31298
795.60 11.31355
795.70 12.05745
795.80 12.54148
795.90 12.81976
796.00 12.98521
796.10 13.13205
796.20 13.36311
796.30 13.70523
796.40 14.15023
796.50 14.71098
796.60 15.3986
796.70 16.20776
796.80 17.06351
796.90 17.84755
797.00 18.46309
797.10 18.86192
797.20 19.0578
797.30 19.04693
797.40 18.77764
797.50 18.21598
797.60 17.39245
797.70 16.40777
797.80 15.37968
797.90 14.42093
798.00 13.61572
798.10 13.02554
798.20 12.72773
798.30 12.79236
798.40 13.19363
798.50 13.81562
798.60 14.52465
798.70 15.21168
798.80 15.8046
798.90 16.25628
799.00 16.47921
799.10 16.38326
799.20 16.03471
799.30 15.63729
799.40 15.32657
799.50 15.0823
799.60 14.85181
799.70 14.63407
799.80 14.50996
799.90 14.59773
800.00 14.95791
800.10 15.54676
800.20 16.27109
800.30 17.01773
800.40 17.68942
800.50 18.24005
800.60 18.57643
800.70 18.55103
800.80 18.19133
800.90 17.71617
801.00 17.30926
801.10 17.01583
801.20 16.83764
801.30 16.76991
801.40 16.75615
801.50 16.75692
801.60 16.76302
801.70 16.76183
801.80 16.71074
801.90 16.58398
802.00 16.40721
802.10 16.28848
802.20 16.27571
802.30 16.37715
802.40 16.64463
802.50 17.16398
802.60 17.94626
802.70 18.85308
802.80 19.75212
802.90 20.48928
803.00 20.93088
803.10 21.05464
803.20 20.9134
803.30 20.58108
803.40 20.14825
803.50 19.66832
803.60 19.25582
803.70 19.0433
803.80 19.06558
803.90 19.24886
804.00 19.43655
804.10 19.5405
804.20 19.58647
804.30 19.68329
804.40 19.90392
804.50 20.24734
804.60 20.73447
804.70 21.38078
804.80 22.12269
804.90 22.85502
805.00 23.45711
805.10 23.80925
805.20 23.85334
805.30 23.63335
805.40 23.27779
805.50 22.89718
805.60 22.50144
805.70 22.10296
805.80 21.76859
805.90 21.55002
806.00 21.43364
806.10 21.3837
806.20 21.40512
806.30 21.51639
806.40 21.68536
806.50 21.83709
806.60 21.93026
806.70 21.93917
806.80 21.81779
806.90 21.5745
807.00 21.32448
807.10 21.1954
807.20 21.28858
807.30 21.66532
807.40 22.31284
807.50 23.14269
807.60 23.97878
807.70 24.62162
807.80 24.94054
807.90 24.8965
808.00 24.53124
808.10 23.9968
808.20 23.52403
808.30 23.28608
808.40 23.34571
808.50 23.68216
808.60 24.21912
808.70 24.87506
808.80 25.5387
808.90 26.07142
809.00 26.38335
809.10 26.43992
809.20 26.2449
809.30 25.85251
809.40 25.33585
809.50 24.732
809.60 24.08033
809.70 23.51076
809.80 23.14401
809.90 22.98787
810.00 22.99432
810.10 23.08308
810.20 23.20017
810.30 23.36006
810.40 23.59405
810.50 23.91576
810.60 24.32815
810.70 24.79401
810.80 25.23213
810.90 25.54558
811.00 25.67315
811.10 25.61528
811.20 25.41721
811.30 25.17225
811.40 24.95579
811.50 24.79207
811.60 24.70467
811.70 24.71038
811.80 24.79104
811.90 24.91703
812.00 25.0394
812.10 25.1239
812.20 25.21756
812.30 25.42699
812.40 25.81533
812.50 26.34753
812.60 26.91434
812.70 27.42466
812.80 27.85609
812.90 28.20014
813.00 28.42188
813.10 28.45507
813.20 28.25318
813.30 27.88273
813.40 27.51063
813.50 27.27432
813.60 27.20809
813.70 27.27323
813.80 27.42771
813.90 27.60373
814.00 27.71098
814.10 27.62372
814.20 27.23811
814.30 26.60591
814.40 25.89209
814.50 25.31344
814.60 25.05857
814.70 25.15278
814.80 25.53322
814.90 26.16973
815.00 26.99806
815.10 27.88605
815.20 28.68699
815.30 29.28585
815.40 29.62293
815.50 29.73201
815.60 29.70083
815.70 29.57055
815.80 29.35093
815.90 29.09416
816.00 28.91635
816.10 28.9396
816.20 29.18031
816.30 29.54671
816.40 29.94787
816.50 30.32983
816.60 30.6558
816.70 30.93081
816.80 31.18812
816.90 31.44414
817.00 31.68556
817.10 31.89649
817.20 32.0847
817.30 32.24376
817.40 32.33957
817.50 32.33779
817.60 32.24906
817.70 32.11793
817.80 31.98502
817.90 31.90348
818.00 31.91934
818.10 31.98999
818.20 32.02024
818.30 31.93854
818.40 31.71033
818.50 31.36002
818.60 30.93935
818.70 30.51408
818.80 30.16924
818.90 29.95952
819.00 29.84938
819.10 29.75662
819.20 29.59472
819.30 29.28001
819.40 28.76529
819.50 28.13356
819.60 27.63342
819.70 27.55368
819.80 28.09814
819.90 29.27409
820.00 30.9337
820.10 32.86298
820.20 34.75854
820.30 36.34537
820.40 37.46824
820.50 38.01474
820.60 37.93799
820.70 37.35291
820.80 36.50134
820.90 35.62917
821.00 34.9015
821.10 34.39475
821.20 34.11401
821.30 34.02996
821.40 34.07143
821.50 34.09844
821.60 33.99352
821.70 33.67366
821.80 33.09719
821.90 32.35029
822.00 31.61176
822.10 31.03554
822.20 30.73601
822.30 30.79577
822.40 31.20996
822.50 31.8976
822.60 32.77296
822.70 33.74904
822.80 34.71393
822.90 35.51257
823.00 35.97365
823.10 36.02197
823.20 35.73399
823.30 35.28421
823.40 34.87351
823.50 34.63845
823.60 34.63354
823.70 34.89285
823.80 35.42814
823.90 36.20482
824.00 37.08905
824.10 37.84561
824.20 38.2532
824.30 38.22381
824.40 37.82309
824.50 37.23063
824.60 36.657
824.70 36.26226
824.80 36.12578
824.90 36.28692
825.00 36.71939
825.10 37.29192
825.20 37.85601
825.30 38.28362
825.40 38.47274
825.50 38.42108
825.60 38.20527
825.70 37.92313
825.80 37.73923
825.90 37.78502
826.00 38.05672
826.10 38.49662
826.20 39.03366
826.30 39.59233
826.40 40.11304
826.50 40.51478
826.60 40.62521
826.70 40.29575
826.80 39.54947
826.90 38.54447
827.00 37.51003
827.10 36.67583
827.20 36.17204
827.30 36.01224
827.40 36.14441
827.50 36.43296
827.60 36.71563
827.70 36.89513
827.80 36.90765
827.90 36.6967
828.00 36.28491
828.10 35.75051
828.20 35.16806
828.30 34.65091
828.40 34.32593
828.50 34.25127
828.60 34.51944
828.70 35.27792
828.80 36.57109
828.90 38.32156
829.00 40.29886
829.10 42.12628
829.20 43.4216
829.30 43.96947
829.40 43.79937
829.50 43.08671
829.60 42.03312
829.70 40.83821
829.80 39.75644
829.90 39.08482
830.00 38.85903
830.10 38.85347
830.20 38.88298
830.30 38.8347
830.40 38.65978
830.50 38.38662
830.60 38.11385
830.70 37.92962
830.80 37.819
830.90 37.81193
831.00 38.0186
831.10 38.50849
831.20 39.25123
831.30 40.11945
831.40 41.01255
831.50 41.84564
831.60 42.50433
831.70 42.94295
831.80 43.23299
831.90 43.47883
832.00 43.77868
832.10 44.22597
832.20 44.90865
832.30 45.816
832.40 46.78105
832.50 47.56536
832.60 47.94804
832.70 47.83088
832.80 47.2456
832.90 46.31855
833.00 45.22113
833.10 44.08977
833.20 43.01756
833.30 42.08034
833.40 41.37661
833.50 41.03695
833.60 41.07587
833.70 41.33538
833.80 41.63504
833.90 41.83222
834.00 41.87499
834.10 41.79252
834.20 41.6733
834.30 41.64042
834.40 41.8595
834.50 42.47392
834.60 43.44848
834.70 44.6438
834.80 45.8351
834.90 46.7192
835.00 47.08397
835.10 46.8372
835.20 46.11152
835.30 45.23704
835.40 44.43418
835.50 43.8389
835.60 43.53061
835.70 43.52908
835.80 43.76622
835.90 44.10015
836.00 44.44682
836.10 44.74891
836.20 44.94002
836.30 44.9736
836.40 44.88779
836.50 44.85529
836.60 44.97547
836.70 45.21555
836.80 45.57916
836.90 46.0441
837.00 46.54203
837.10 46.99404
837.20 47.28891
837.30 47.33278
837.40 47.13549
837.50 46.82006
837.60 46.58027
837.70 46.59903
837.80 46.93869
837.90 47.51573
838.00 48.19764
838.10 48.83374
838.20 49.2793
838.30 49.47808
838.40 49.41823
838.50 49.08377
838.60 48.51835
838.70 47.82668
838.80 47.13363
838.90 46.51854
839.00 45.94242
839.10 45.36385
839.20 44.85688
839.30 44.54116
839.40 44.49423
839.50 44.72107
839.60 45.12992
839.70 45.53709
839.80 45.86097
839.90 46.18331
840.00 46.51577
840.10 46.78764
840.20 46.95933
840.30 47.03988
840.40 47.15814
840.50 47.49354
840.60 48.1294
840.70 49.02448
840.80 49.96749
840.90 50.7745
841.00 51.46688
841.10 52.05893
841.20 52.33786
841.30 52.03325
841.40 51.1751
841.50 50.07548
841.60 49.07358
841.70 48.40577
841.80 48.15343
841.90 48.23922
842.00 48.48363
842.10 48.76724
842.20 49.1526
842.30 49.70925
842.40 50.33739
842.50 50.93422
842.60 51.61171
842.70 52.52375
842.80 53.59841
842.90 54.60686
843.00 55.2949
843.10 55.4281
843.20 54.88479
843.30 53.71827
843.40 52.16401
843.50 50.4991
843.60 48.95411
843.70 47.75828
843.80 47.11394
843.90 47.14072
844.00 47.76097
844.10 48.77463
844.20 50.0057
844.30 51.26423
844.40 52.34282
844.50 53.09264
844.60 53.46854
844.70 53.52229
844.80 53.28026
844.90 52.7068
845.00 51.82487
845.10 50.73531
845.20 49.59087
845.30 48.56835
845.40 47.81484
845.50 47.37235
845.60 47.1739
845.70 47.15906
845.80 47.30382
845.90 47.59834
846.00 48.06609
846.10 48.66814
846.20 49.26189
846.30 49.73846
846.40 50.05553
846.50 50.20587
846.60 50.2254
846.70 50.15669
846.80 50.04789
846.90 49.94512
847.00 49.90748
847.10 49.96607
847.20 50.18745
847.30 50.62849
847.40 51.10995
847.50 51.38104
847.60 51.4028
847.70 51.28881
847.80 51.13719
847.90 50.9813
848.00 50.78928
848.10 50.55611
848.20 50.36513
848.30 50.3334
848.40 50.52754
848.50 50.93349
848.60 51.3971
848.70 51.75026
848.80 51.96265
848.90 52.07788
849.00 52.16774
849.10 52.25609
849.20 52.29716
849.30 52.27444
849.40 52.24035
849.50 52.21039
849.60 52.10669
849.70 51.90241
849.80 51.70377
849.90 51.65914
850.00 51.86622
850.10 52.23492
850.20 52.52474
850.30 52.58541
850.40 52.40666
850.50 52.07235
850.60 51.7536
850.70 51.59118
850.80 51.60103
850.90 51.78667
851.00 52.17469
851.10 52.66575
851.20 53.01296
851.30 52.9814
851.40 52.42561
851.50 51.36431
851.60 49.9606
851.70 48.26259
851.80 46.15901
851.90 43.6033
852.00 40.70664
852.10 37.72605
852.20 35.08466
852.30 33.26239
852.40 32.62425
852.50 33.34621
852.60 35.39189
852.70 38.45823
852.80 42.06696
852.90 45.74977
853.00 49.15488
853.10 52.08385
853.20 54.46875
853.30 56.31512
853.40 57.68222
853.50 58.69086
853.60 59.43201
853.70 59.90658
853.80 60.10456
853.90 60.07954
854.00 59.89472
854.10 59.61908
854.20 59.34707
854.30 59.1149
854.40 58.86081
854.50 58.49234
854.60 57.93914
854.70 57.23975
854.80 56.54565
854.90 56.01346
855.00 55.80711
855.10 56.06219
855.20 56.78967
855.30 57.86845
855.40 59.15351
855.50 60.51128
855.60 61.77649
855.70 62.78071
855.80 63.41109
855.90 63.67192
856.00 63.69817
856.10 63.61686
856.20 63.52632
856.30 63.55235
856.40 63.76591
856.50 64.16691
856.60 64.73362
856.70 65.46136
856.80 66.34726
856.90 67.2855
857.00 68.01266
857.10 68.25109
857.20 67.86442
857.30 66.87732
857.40 65.42606
857.50 63.7461
857.60 62.12361
857.70 60.7822
857.80 59.87653
857.90 59.49026
858.00 59.62515
858.10 60.19113
858.20 60.96482
858.30 61.67173
858.40 62.16328
858.50 62.42163
858.60 62.46702
858.70 62.30146
858.80 61.89793
858.90 61.2483
859.00 60.36657
859.10 59.30849
859.20 58.16554
859.30 57.05752
859.40 56.16502
859.50 55.63508
859.60 55.56551
859.70 56.02113
859.80 56.9818
859.90 58.30741
860.00 59.75759
860.10 61.10722
860.20 62.21323
860.30 63.01852
860.40 63.53675
860.50 63.78856
860.60 63.76604
860.70 63.46948
860.80 62.8331
860.90 61.7733
861.00 60.27183
861.10 58.37503
861.20 56.16886
861.30 53.7793
861.40 51.40777
861.50 49.29182
861.60 47.61458
861.70 46.36332
861.80 45.41203
861.90 44.6949
862.00 44.18472
862.10 43.83009
862.20 43.61114
862.30 43.52186
862.40 43.50251
862.50 43.4748
862.60 43.35839
862.70 43.00778
862.80 42.18706
862.90 40.79988
863.00 39.10743
863.10 37.64789
863.20 36.9158
863.30 37.19169
863.40 38.57988
863.50 40.95933
863.60 43.92707
863.70 46.91682
863.80 49.36771
863.90 50.82153
864.00 51.05265
864.10 50.20516
864.20 48.7766
864.30 47.27086
864.40 45.9296
864.50 44.80088
864.60 43.85992
864.70 43.07785
864.80 42.43031
864.90 41.93231
865.00 41.67555
865.10 41.7404
865.20 42.13055
865.30 42.80237
865.40 43.67391
865.50 44.6356
865.60 45.58516
865.70 46.45666
865.80 47.25613
865.90 47.99822
866.00 48.70263
866.10 49.43213
866.20 50.22524
866.30 51.0775
866.40 51.97511
866.50 52.86905
866.60 53.63469
866.70 54.08848
866.80 54.08692
866.90 53.7388
867.00 53.3864
867.10 53.26853
867.20 53.39384
867.30 53.76074
867.40 54.40526
867.50 55.27492
867.60 56.24675
867.70 57.04306
867.80 57.24613
867.90 56.61982
868.00 55.2607
868.10 53.50762
868.20 51.80683
868.30 50.5164
868.40 49.82859
868.50 49.86907
868.60 50.66129
868.70 52.00158
868.80 53.48485
868.90 54.64773
869.00 55.08241
869.10 54.62887
869.20 53.47892
869.30 51.95114
869.40 50.36979
869.50 49.11437
869.60 48.55892
869.70 48.81509
869.80 49.62099
869.90 50.62893
870.00 51.59451
870.10 52.29774
870.20 52.5025
870.30 52.00948
870.40 50.78468
870.50 49.14076
870.60 47.59665
870.70 46.54884
870.80 46.21575
870.90 46.62101
871.00 47.62325
871.10 48.9993
871.20 50.46336
871.30 51.76446
871.40 52.73781
871.50 53.30047
871.60 53.46631
871.70 53.38344
871.80 53.22133
871.90 52.96329
872.00 52.48906
872.10 51.82443
872.20 51.11841
872.30 50.55527
872.40 50.23238
872.50 50.19293
872.60 50.56268
872.70 51.33304
872.80 52.3144
872.90 53.28772
873.00 54.05988
873.10 54.45839
873.20 54.41736
873.30 54.00058
873.40 53.30097
873.50 52.465
873.60 51.67417
873.70 51.07748
873.80 50.79428
873.90 50.85193
874.00 51.11713
874.10 51.41468
874.20 51.67161
874.30 51.8964
874.40 52.13236
874.50 52.42635
874.60 52.79227
874.70 53.18632
874.80 53.50227
874.90 53.68738
875.00 53.79278
875.10 53.85198
875.20 53.8289
875.30 53.73305
875.40 53.70968
875.50 53.8842
875.60 54.21299
875.70 54.58342
875.80 54.94606
875.90 55.27922
876.00 55.50282
876.10 55.58169
876.20 55.61386
876.30 55.60692
876.40 55.48512
876.50 55.24748
876.60 54.92246
876.70 54.59492
876.80 54.45498
876.90 54.66992
877.00 55.36419
877.10 56.61106
877.20 58.33441
877.30 60.35198
877.40 62.43173
877.50 64.20957
877.60 65.26383
877.70 65.39088
877.80 64.48575
877.90 62.66036
878.00 60.41316
878.10 58.2668
878.20 56.48994
878.30 55.27215
878.40 54.66664
878.50 54.5158
878.60 54.60026
878.70 54.68196
878.80 54.61268
878.90 54.44735
879.00 54.40004
879.10 54.68828
879.20 55.55291
879.30 57.07673
879.40 59.03465
879.50 61.01016
879.60 62.5425
879.70 63.25952
879.80 63.04846
879.90 62.09211
880.00 60.71081
880.10 59.27113
880.20 58.12295
880.30 57.52113
880.40 57.55739
880.50 58.13882
880.60 59.04894
880.70 60.02701
880.80 60.84717
880.90 61.42172
881.00 61.8241
881.10 62.1891
881.20 62.5814
881.30 62.99866
881.40 63.47223
881.50 64.06047
881.60 64.77255
881.70 65.49503
881.80 65.98987
881.90 65.99848
882.00 65.42363
882.10 64.46442
882.20 63.68896
882.30 63.82668
882.40 65.20491
882.50 67.66354
882.60 70.69994
882.70 73.52632
882.80 75.31693
882.90 75.47082
883.00 73.71125
883.10 70.21332
883.20 65.65718
883.30 61.01738
883.40 57.36256
883.50 55.51178
883.60 55.63735
883.70 57.27604
883.80 59.82621
883.90 62.68815
884.00 65.31257
884.10 67.40195
884.20 68.74753
884.30 69.10747
884.40 68.44116
884.50 67.03465
884.60 65.35416
884.70 63.89807
884.80 63.02096
884.90 62.869
885.00 63.43536
885.10 64.62152
885.20 66.18957
885.30 67.73644
885.40 68.82836
885.50 69.14478
885.60 68.6486
885.70 67.6022
885.80 66.3639
885.90 65.22302
886.00 64.3939
886.10 64.05058
886.20 64.27545
886.30 64.99961
886.40 66.0223
886.50 66.97679
886.60 67.50743
886.70 67.48965
886.80 66.98037
886.90 66.13106
887.00 65.09112
887.10 64.04446
887.20 63.2126
887.30 62.76202
887.40 62.76856
887.50 63.28873
887.60 64.30805
887.70 65.63299
887.80 66.91724
887.90 67.94144
888.00 68.70455
888.10 69.09577
888.20 68.76593
888.30 67.60264
888.40 66.14673
888.50 65.15958
888.60 65.15265
888.70 66.32619
888.80 68.54037
888.90 71.31244
889.00 73.97839
889.10 75.93911
889.20 76.85477
889.30 76.59762
889.40 75.17068
889.50 73.01011
889.60 71.10407
889.70 70.30518
889.80 70.73706
889.90 72.08505
890.00 73.91841
890.10 75.74306
890.20 77.13704
890.30 77.82724
890.40 77.66008
890.50 76.61
890.60 74.85038
890.70 72.71546
890.80 70.6139
890.90 68.92284
891.00 67.82337
891.10 67.29929
891.20 67.28212
891.30 67.67698
891.40 68.38152
891.50 69.24345
891.60 69.88557
891.70 69.65822
891.80 68.12681
891.90 65.52555
892.00 62.46372
892.10 59.59747
892.20 57.46187
892.30 56.31433
892.40 56.1843
892.50 56.95331
892.60 58.34399
892.70 59.92983
892.80 61.28426
892.90 62.12874
893.00 62.50111
893.10 62.89029
893.20 63.81613
893.30 65.3939
893.40 67.40214
893.50 69.4411
893.60 71.04681
893.70 71.90784
893.80 71.87548
893.90 70.71389
894.00 68.14488
894.10 64.16843
894.20 59.16396
894.30 53.87778
894.40 49.29169
894.50 46.24558
894.60 45.21484
894.70 46.22366
894.80 48.89857
894.90 52.66412
895.00 56.91935
895.10 61.08875
895.20 64.74794
895.30 67.66927
895.40 69.84902
895.50 71.45121
895.60 72.62536
895.70 73.37993
895.80 73.61905
895.90 73.32837
896.00 72.53821
896.10 71.36547
896.20 70.04085
896.30 68.81819
896.40 67.93573
896.50 67.52816
896.60 67.55247
896.70 67.98815
896.80 68.80493
896.90 69.84576
897.00 70.93918
897.10 71.99113
897.20 73.03129
897.30 74.12253
897.40 75.30208
897.50 76.53235
897.60 77.76074
897.70 78.95248
897.80 79.95994
897.90 80.56748
898.00 80.67995
898.10 80.41392
898.20 80.12436
898.30 80.2593
898.40 80.89482
898.50 81.49783
898.60 81.36051
898.70 80.10955
898.80 77.84051
898.90 74.9777
899.00 72.08487
899.10 69.70706
899.20 68.3223
899.30 68.26846
899.40 69.58801
899.50 72.02394
899.60 75.02795
899.70 77.67104
899.80 79.30545
899.90 80.32708
900.00 80.28534
900.10 80.2436
900.20 80.20185
900.30 80.16011
900.40 80.11837
900.50 80.07663
900.60 80.03488
900.70 79.99314
900.80 79.9514
900.90 80.27113
901.00 80.77707
901.10 81.28302
901.20 81.78896
901.30 82.2949
901.40 82.80085
901.50 83.30679
901.60 83.81274
901.70 84.31868
901.80 84.82462
901.90 85.33057
902.00 85.83651
902.10 86.34245
902.20 86.8484
902.30 87.35434
902.40 87.86029
902.50 88.36623
902.60 88.87217
902.70 89.37812
902.80 89.88406
902.90 90.39001
903.00 90.89595
903.10 91.40189
903.20 91.90784
903.30 92.41378
903.40 92.91973
903.50 93.42567
903.60 93.93161
903.70 94.43756
903.80 94.9435
903.90 95.44945
904.00 95.95539
904.10 96.46133
904.20 96.96728
904.30 97.41939
904.40 97.81546
904.50 98.21154
904.60 98.60762
904.70 99.0037
904.80 99.39978
904.90 99.79585
905.00 100.1919
905.10 100.588
905.20 100.9841
905.30 101.3802
905.40 101.7762
905.50 102.1723
905.60 102.5684
905.70 102.9645
905.80 103.3606
905.90 103.7566
906.00 104.1527
906.10 104.5488
906.20 104.9449
906.30 105.3409
906.40 105.737
906.50 106.1331
906.60 106.5292
906.70 106.9253
906.80 107.3213
906.90 107.7174
907.00 108.1135
907.10 108.5096
907.20 108.9057
907.30 109.3017
907.40 109.6978
907.50 110.0939
907.60 110.49
907.70 110.8112
907.80 110.6724
907.90 110.5337
908.00 110.395
908.10 110.2562
908.20 110.1175
908.30 109.9787
908.40 109.84
908.50 109.7013
908.60 109.5625
908.70 109.4238
908.80 109.2851
908.90 109.1463
909.00 109.0076
909.10 108.8689
909.20 108.7301
909.30 108.5914
909.40 108.4526
909.50 108.3139
909.60 108.1752
909.70 108.0364
909.80 107.8977
909.90 107.759
910.00 107.6202
910.10 107.4815
910.20 107.3428
910.30 107.204
910.40 107.0653
910.50 106.9265
910.60 106.7878
910.70 106.6491
910.80 106.5103
910.90 106.3716
911.00 106.2329
911.10 106.0941
911.20 106.0108
911.30 105.9628
911.40 105.9149
911.50 105.8669
911.60 105.819
911.70 105.771
911.80 105.7231
911.90 105.6752
912.00 105.6272
912.10 105.5793
912.20 105.5313
912.30 105.4834
912.40 105.4354
912.50 105.3875
912.60 105.3395
912.70 105.2916
912.80 105.2436
912.90 105.1957
913.00 105.1478
913.10 105.0998
913.20 105.0519
913.30 105.0039
913.40 104.956
913.50 104.908
913.60 104.8601
913.70 104.8121
913.80 104.7642
913.90 104.7162
914.00 104.6683
914.10 104.6203
914.20 104.5724
914.30 104.5245
914.40 104.4765
914.50 104.4286
914.60 104.3806
914.70 104.7837
914.80 105.2425
914.90 105.7013
915.00 106.16
915.10 106.6188
915.20 107.0776
915.30 107.5364
915.40 107.9952
915.50 108.454
915.60 108.9128
915.70 109.3716
915.80 109.8304
915.90 110.2892
916.00 110.7479
916.10 111.2067
916.20 111.6655
916.30 112.1243
916.40 112.5831
916.50 113.0419
916.60 113.5007
916.70 113.9595
916.80 114.4183
916.90 114.8771
917.00 115.3358
917.10 115.7946
917.20 116.2534
917.30 116.7122
917.40 117.171
917.50 117.6298
917.60 118.0886
917.70 118.5474
917.80 119.0062
917.90 119.465
918.00 119.9237
918.10 120.379
918.20 120.4874
918.30 120.5958
918.40 120.7042
918.50 120.8125
918.60 120.9209
918.70 121.0293
918.80 121.1377
918.90 121.246
919.00 121.3544
919.10 121.4628
919.20 121.5712
919.30 121.6795
919.40 121.7879
919.50 121.8963
919.60 122.0047
919.70 122.113
919.80 122.2214
919.90 122.3298
920.00 122.4382
920.10 122.5466
920.20 122.6549
920.30 122.7633
920.40 122.8717
920.50 122.9801
920.60 123.0884
920.70 123.1968
920.80 123.3052
920.90 123.4136
921.00 123.5219
921.10 123.6303
921.20 123.7387
921.30 123.8471
921.40 123.9554
921.50 124.0638
921.60 124.1722
921.70 124.2031
921.80 124.229
921.90 124.2549
922.00 124.2809
922.10 124.3068
922.20 124.3327
922.30 124.3587
922.40 124.3846
922.50 124.4105
922.60 124.4364
922.70 124.4624
922.80 124.4883
922.90 124.5142
923.00 124.5402
923.10 124.5661
923.20 124.592
923.30 124.618
923.40 124.6439
923.50 124.6698
923.60 124.6958
923.70 124.7217
923.80 124.7476
923.90 124.7735
924.00 124.7995
924.10 124.8254
924.20 124.8513
924.30 124.8773
924.40 124.9032
924.50 124.9291
924.60 124.9551
924.70 124.981
924.80 125.0069
924.90 125.0328
925.00 125.0588
925.10 125.0847
925.20 124.9091
925.30 124.6471
925.40 124.3851
925.50 124.1231
925.60 123.8611
925.70 123.5991
925.80 123.3371
925.90 123.0751
926.00 122.8131
926.10 122.5511
926.20 122.2891
926.30 122.0271
926.40 121.7651
926.50 121.5031
926.60 121.2411
926.70 120.9791
926.80 120.7171
926.90 120.4551
927.00 120.1931
927.10 119.9311
927.20 119.6691
927.30 119.4071
927.40 119.1451
927.50 118.8831
927.60 118.6211
927.70 118.3591
927.80 118.0971
927.90 117.8351
928.00 117.5731
928.10 117.3111
928.20 117.0491
928.30 116.7872
928.40 116.5252
928.50 116.2632
928.60 116.0012
928.70 115.9346
928.80 116.3467
928.90 116.7587
929.00 117.1708
929.10 117.5828
929.20 117.9949
929.30 118.4069
929.40 118.819
929.50 119.231
929.60 119.643
929.70 120.0551
929.80 120.4671
929.90 120.8792
930.00 121.2912
930.10 121.7033
930.20 122.1153
930.30 122.5274
930.40 122.9394
930.50 123.3515
930.60 123.7635
930.70 124.1755
930.80 124.5876
930.90 124.9996
931.00 125.4117
931.10 125.8237
931.20 126.2358
931.30 126.6478
931.40 127.0599
931.50 127.4719
931.60 127.884
931.70 128.296
931.80 128.7081
931.90 129.1201
932.00 129.5321
932.10 129.9442
932.20 130.3562
932.30 130.1679
932.40 129.7222
932.50 129.2766
932.60 128.831
932.70 128.3853
932.80 127.9397
932.90 127.494
933.00 127.0484
933.10 126.6027
933.20 126.1571
933.30 125.7114
933.40 125.2658
933.50 124.8201
933.60 124.3745
933.70 123.9288
933.80 123.4832
933.90 123.0375
934.00 122.5919
934.10 122.1462
934.20 121.7006
934.30 121.2549
934.40 120.8093
934.50 120.3636
934.60 119.918
934.70 119.4724
934.80 119.0267
934.90 118.5811
935.00 118.1354
935.10 117.6898
935.20 117.2441
935.30 116.7985
935.40 116.3528
935.50 115.9072
935.60 115.4615
935.70 115.0159
935.80 114.5702
935.90 114.7669
936.00 115.0045
936.10 115.2422
936.20 115.4799
936.30 115.7175
936.40 115.9552
936.50 116.1928
936.60 116.4305
936.70 116.6681
936.80 116.9058
936.90 117.1434
937.00 117.3811
937.10 117.6188
937.20 117.8564
937.30 118.0941
937.40 118.3317
937.50 118.5694
937.60 118.807
937.70 119.0447
937.80 119.2823
937.90 119.52
938.00 119.7577
938.10 119.9953
938.20 120.233
938.30 120.4706
938.40 120.7083
938.50 120.9459
938.60 121.1836
938.70 121.4212
938.80 121.6589
938.90 121.8966
939.00 122.1342
939.10 122.3719
939.20 122.6095
939.30 122.8472
939.40 123.0833
939.50 123.2448
939.60 123.4063
939.70 123.5678
939.80 123.7292
939.90 123.8907
940.00 124.0522
940.10 124.2137
940.20 124.3752
940.30 124.5367
940.40 124.6982
940.50 124.8597
940.60 125.0211
940.70 125.1826
940.80 125.3441
940.90 125.5056
941.00 125.6671
941.10 125.8286
941.20 125.9901
941.30 126.1515
941.40 126.313
941.50 126.4745
941.60 126.636
941.70 126.7975
941.80 126.959
941.90 127.1205
942.00 127.2819
942.10 127.4434
942.20 127.6049
942.30 127.7664
942.40 127.9279
942.50 128.0894
942.60 128.2509
942.70 128.4123
942.80 128.5738
942.90 128.7353
943.00 128.8968
943.10 129.4258
943.20 129.9825
943.30 130.5392
943.40 131.0959
943.50 131.6525
943.60 132.2092
943.70 132.7659
943.80 133.3226
943.90 133.8793
944.00 134.4359
944.10 134.9926
944.20 135.5493
944.30 136.106
944.40 136.6627
944.50 137.2193
944.60 137.776
944.70 138.3327
944.80 138.8894
944.90 139.4461
945.00 140.0027
945.10 140.5594
945.20 141.1161
945.30 141.6728
945.40 142.2295
945.50 142.7861
945.60 143.3428
945.70 143.8995
945.80 144.4562
945.90 145.0129
946.00 145.5695
946.10 146.1262
946.20 146.6829
946.30 147.2396
946.40 147.7963
946.50 148.3529
946.60 148.9096
946.70 149.2224
946.80 149.415
946.90 149.6076
947.00 149.8002
947.10 149.9928
947.20 150.1854
947.30 150.378
947.40 150.5707
947.50 150.7633
947.60 150.9559
947.70 151.1485
947.80 151.3411
947.90 151.5337
948.00 151.7263
948.10 151.9189
948.20 152.1115
948.30 152.3041
948.40 152.4968
948.50 152.6894
948.60 152.882
948.70 153.0746
948.80 153.2672
948.90 153.4598
949.00 153.6524
949.10 153.845
949.20 154.0376
949.30 154.2302
949.40 154.4229
949.50 154.6155
949.60 154.8081
949.70 155.0007
949.80 155.1933
949.90 155.3859
950.00 155.5785
950.10 155.7711
950.20 155.9637
950.30 156.0644
950.40 155.889
950.50 155.7136
950.60 155.5382
950.70 155.3628
950.80 155.1874
950.90 155.012
951.00 154.8366
951.10 154.6613
951.20 154.4859
951.30 154.3105
951.40 154.1351
951.50 153.9597
951.60 153.7843
951.70 153.6089
951.80 153.4336
951.90 153.2582
952.00 153.0828
952.10 152.9074
952.20 152.732
952.30 152.5566
952.40 152.3812
952.50 152.2058
952.60 152.0305
952.70 151.8551
952.80 151.6797
952.90 151.5043
953.00 151.3289
953.10 151.1535
953.20 150.9781
953.30 150.8028
953.40 150.6274
953.50 150.452
953.60 150.2766
953.70 150.1012
953.80 149.9258
953.90 149.7504
954.00 149.9425
954.10 150.3239
954.20 150.7052
954.30 151.0866
954.40 151.468
954.50 151.8494
954.60 152.2307
954.70 152.6121
954.80 152.9935
954.90 153.3748
955.00 153.7562
955.10 154.1376
955.20 154.5189
955.30 154.9003
955.40 155.2817
955.50 155.663
955.60 156.0444
955.70 156.4258
955.80 156.8071
955.90 157.1885
956.00 157.5699
956.10 157.9512
956.20 158.3326
956.30 158.714
956.40 159.0954
956.50 159.4767
956.60 159.8581
956.70 160.2395
956.80 160.6208
956.90 161.0022
957.00 161.3836
957.10 161.7649
957.20 162.1463
957.30 162.5277
957.40 162.909
957.50 163.2904
957.60 163.6718
957.70 163.3917
957.80 163.0541
957.90 162.7165
958.00 162.3789
958.10 162.0414
958.20 161.7038
958.30 161.3662
958.40 161.0286
958.50 160.691
958.60 160.3534
958.70 160.0158
958.80 159.6782
958.90 159.3407
959.00 159.0031
959.10 158.6655
959.20 158.3279
959.30 157.9903
959.40 157.6527
959.50 157.3151
959.60 156.9775
959.70 156.64
959.80 156.3024
959.90 155.9648
960.00 155.6272
960.10 155.2896
960.20 154.952
960.30 154.6144
960.40 154.2768
960.50 153.9393
960.60 153.6017
960.70 153.2641
960.80 152.9265
960.90 152.5889
961.00 152.2513
961.10 151.9137
961.20 151.5761
961.30 151.2508
961.40 151.5246
961.50 151.7984
961.60 152.0722
961.70 152.346
961.80 152.6199
961.90 152.8937
962.00 153.1675
962.10 153.4413
962.20 153.7151
962.30 153.9889
962.40 154.2627
962.50 154.5365
962.60 154.8104
962.70 155.0842
962.80 155.358
962.90 155.6318
963.00 155.9056
963.10 156.1794
963.20 156.4532
963.30 156.7271
963.40 157.0009
963.50 157.2747
963.60 157.5485
963.70 157.8223
963.80 158.0961
963.90 158.3699
964.00 158.6437
964.10 158.9176
964.20 159.1914
964.30 159.4652
964.40 159.739
964.50 160.0128
964.60 160.2866
964.70 160.5604
964.80 160.8343
964.90 161.1081
965.00 161.3819
965.10 161.3968
965.20 161.401
965.30 161.4052
965.40 161.4094
965.50 161.4135
965.60 161.4177
965.70 161.4219
965.80 161.4261
965.90 161.4303
966.00 161.4344
966.10 161.4386
966.20 161.4428
966.30 161.447
966.40 161.4511
966.50 161.4553
966.60 161.4595
966.70 161.4637
966.80 161.4678
966.90 161.472
967.00 161.4762
967.10 161.4804
967.20 161.4846
967.30 161.4887
967.40 161.4929
967.50 161.4971
967.60 161.5013
967.70 161.5054
967.80 161.5096
967.90 161.5138
968.00 161.518
968.10 161.5221
968.20 161.5263
968.30 161.5305
968.40 161.5347
968.50 161.5388
968.60 161.543
968.70 161.5472
968.80 161.4888
968.90 161.4083
969.00 161.3279
969.10 161.2474
969.20 161.167
969.30 161.0866
969.40 161.0061
969.50 160.9257
969.60 160.8453
969.70 160.7648
969.80 160.6844
969.90 160.604
970.00 160.5235
970.10 160.4431
970.20 160.3626
970.30 160.2822
970.40 160.2018
970.50 160.1213
970.60 160.0409
970.70 159.9605
970.80 159.88
970.90 159.7996
971.00 159.7191
971.10 159.6387
971.20 159.5583
971.30 159.4778
971.40 159.3974
971.50 159.317
971.60 159.2365
971.70 159.1561
971.80 159.0756
971.90 158.9952
972.00 158.9148
972.10 158.8343
972.20 158.7539
972.30 158.6735
972.40 158.593
972.50 158.6803
972.60 159.0531
972.70 159.4259
972.80 159.7987
972.90 160.1714
973.00 160.5442
973.10 160.917
973.20 161.2898
973.30 161.6626
973.40 162.0354
973.50 162.4082
973.60 162.781
973.70 163.1538
973.80 163.5266
973.90 163.8994
974.00 164.2722
974.10 164.645
974.20 165.0177
974.30 165.3905
974.40 165.7633
974.50 166.1361
974.60 166.5089
974.70 166.8817
974.80 167.2545
974.90 167.6273
975.00 168.0001
975.10 168.3729
975.20 168.7457
975.30 169.1185
975.40 169.4912
975.50 169.864
975.60 170.2368
975.70 170.6096
975.80 170.9824
975.90 171.3552
976.00 171.728
976.10 172.1008
976.20 172.4736
976.30 172.3502
976.40 172.1392
976.50 171.9282
976.60 171.7172
976.70 171.5062
976.80 171.2952
976.90 171.0842
977.00 170.8732
977.10 170.6623
977.20 170.4513
977.30 170.2403
977.40 170.0293
977.50 169.8183
977.60 169.6073
977.70 169.3963
977.80 169.1853
977.90 168.9744
978.00 168.7634
978.10 168.5524
978.20 168.3414
978.30 168.1304
978.40 167.9194
978.50 167.7084
978.60 167.4974
978.70 167.2865
978.80 167.0755
978.90 166.8645
979.00 166.6535
979.10 166.4425
979.20 166.2315
979.30 166.0205
979.40 165.8095
979.50 165.5986
979.60 165.3876
979.70 165.1766
979.80 164.9656
979.90 164.7546
980.00 164.642
980.10 164.9773
980.20 165.3126
980.30 165.6479
980.40 165.9832
980.50 166.3185
980.60 166.6539
980.70 166.9892
980.80 167.3245
980.90 167.6598
981.00 167.9951
981.10 168.3304
981.20 168.6658
981.30 169.0011
981.40 169.3364
981.50 169.6717
981.60 170.007
981.70 170.3423
981.80 170.6777
981.90 171.013
982.00 171.3483
982.10 171.6836
982.20 172.0189
982.30 172.3543
982.40 172.6896
982.50 173.0249
982.60 173.3602
982.70 173.6955
982.80 174.0308
982.90 174.3662
983.00 174.7015
983.10 175.0368
983.20 175.3721
983.30 175.7074
983.40 176.0427
983.50 176.3781
983.60 176.7134
983.70 177.0487
983.80 177.1429
983.90 176.8085
984.00 176.474
984.10 176.1396
984.20 175.8052
984.30 175.4707
984.40 175.1363
984.50 174.8018
984.60 174.4674
984.70 174.133
984.80 173.7985
984.90 173.4641
985.00 173.1297
985.10 172.7952
985.20 172.4608
985.30 172.1263
985.40 171.7919
985.50 171.4575
985.60 171.123
985.70 170.7886
985.80 170.4542
985.90 170.1197
986.00 169.7853
986.10 169.4509
986.20 169.1164
986.30 168.782
986.40 168.4475
986.50 168.1131
986.60 167.7787
986.70 167.4442
986.80 167.1098
986.90 166.7754
987.00 166.4409
987.10 166.1065
987.20 165.772
987.30 165.4376
987.40 165.1032
987.50 164.7687
987.60 164.5737
987.70 164.5876
987.80 164.6016
987.90 164.6155
988.00 164.6294
988.10 164.6434
988.20 164.6573
988.30 164.6713
988.40 164.6852
988.50 164.6992
988.60 164.7131
988.70 164.7271
988.80 164.741
988.90 164.755
989.00 164.7689
989.10 164.7829
989.20 164.7968
989.30 164.8108
989.40 164.8247
989.50 164.8387
989.60 164.8526
989.70 164.8666
989.80 164.8805
989.90 164.8945
990.00 164.9084
990.10 164.9224
990.20 164.9363
990.30 164.9503
990.40 164.9642
990.50 164.9782
990.60 164.9921
990.70 165.0061
990.80 165.02
990.90 165.034
991.00 165.0479
991.10 165.0618
991.20 165.0758
991.30 165.0897
991.40 165.0678
991.50 164.9582
991.60 164.8485
991.70 164.7388
991.80 164.6292
991.90 164.5195
992.00 164.4099
992.10 164.3002
992.20 164.1905
992.30 164.0809
992.40 163.9712
992.50 163.8615
992.60 163.7519
992.70 163.6422
992.80 163.5325
992.90 163.4229
993.00 163.3132
993.10 163.2035
993.20 163.0939
993.30 162.9842
993.40 162.8745
993.50 162.7649
993.60 162.6552
993.70 162.5455
993.80 162.4359
993.90 162.3262
994.00 162.2165
994.10 162.1069
994.20 161.9972
994.30 161.8875
994.40 161.7779
994.50 161.6682
994.60 161.5585
994.70 161.4489
994.80 161.3392
994.90 161.2295
995.00 161.1199
995.10 161.0102
995.20 160.8848
995.30 160.2495
995.40 159.6142
995.50 158.9789
995.60 158.3436
995.70 157.7083
995.80 157.073
995.90 156.4377
996.00 155.8024
996.10 155.1671
996.20 154.5318
996.30 153.8965
996.40 153.2612
996.50 152.6259
996.60 151.9906
996.70 151.3553
996.80 150.72
996.90 150.0847
997.00 149.4494
997.10 148.8141
997.20 148.1788
997.30 147.5435
997.40 146.9082
997.50 146.2729
997.60 145.6376
997.70 145.0023
997.80 144.367
997.90 143.7317
998.00 143.0964
998.10 142.4611
998.20 141.8258
998.30 141.1905
998.40 140.5552
998.50 139.9199
998.60 139.2846
998.70 138.6493
998.80 138.014
998.90 137.3787
999.00 136.7434
999.10 136.4518
999.20 136.3536
999.30 136.2554
999.40 136.1572
999.50 136.059
999.60 135.9608
999.70 135.8626
999.80 135.7644
999.90 135.6662
1000.00 135.568
1000.10 135.4698
1000.20 135.3716
1000.30 135.2734
1000.40 135.1752
1000.50 135.077
1000.60 134.9788
1000.70 134.8805
1000.80 134.7823
1000.90 134.6841
1001.00 134.5859
1001.10 134.4877
1001.20 134.3895
1001.30 134.2913
1001.40 134.1931
1001.50 134.0949
1001.60 133.9967
1001.70 133.8985
1001.80 133.8003
1001.90 133.7021
1002.00 133.6039
1002.10 133.5057
1002.20 133.4074
1002.30 133.3092
1002.40 133.211
1002.50 133.1128
1002.60 133.0146
1002.70 132.9164
1002.80 132.8182
1002.90 132.7503
1003.00 132.9556
1003.10 133.1608
1003.20 133.366
1003.30 133.5713
1003.40 133.7765
1003.50 133.9817
1003.60 134.187
1003.70 134.3922
1003.80 134.5974
1003.90 134.8027
1004.00 135.0079
1004.10 135.2131
1004.20 135.4184
1004.30 135.6236
1004.40 135.8288
1004.50 136.0341
1004.60 136.2393
1004.70 136.4445
1004.80 136.6498
1004.90 136.855
1005.00 137.0602
1005.10 137.2655
1005.20 137.4707
1005.30 137.6759
1005.40 137.8812
1005.50 138.0864
1005.60 138.2916
1005.70 138.4969
1005.80 138.7021
1005.90 138.9073
1006.00 139.1126
1006.10 139.3178
1006.20 139.523
1006.30 139.7283
1006.40 139.9335
1006.50 140.1387
1006.60 140.3439
1006.70 140.5492
1006.80 140.8326
1006.90 141.2332
1007.00 141.6339
1007.10 142.0345
1007.20 142.4352
1007.30 142.8359
1007.40 143.2365
1007.50 143.6372
1007.60 144.0378
1007.70 144.4385
1007.80 144.8391
1007.90 145.2398
1008.00 145.6404
1008.10 146.0411
1008.20 146.4417
1008.30 146.8424
1008.40 147.243
1008.50 147.6437
1008.60 148.0444
1008.70 148.445
1008.80 148.8457
1008.90 149.2463
1009.00 149.647
1009.10 150.0476
1009.20 150.4483
1009.30 150.8489
1009.40 151.2496
1009.50 151.6502
1009.60 152.0509
1009.70 152.4515
1009.80 152.8522
1009.90 153.2529
1010.00 153.6535
1010.10 154.0542
1010.20 154.4548
1010.30 154.8555
1010.40 155.2561
1010.50 155.6568
1010.60 156.0574
1010.70 156.1654
1010.80 156.0782
1010.90 155.991
1011.00 155.9038
1011.10 155.8166
1011.20 155.7294
1011.30 155.6422
1011.40 155.555
1011.50 155.4678
1011.60 155.3806
1011.70 155.2934
1011.80 155.2062
1011.90 155.119
1012.00 155.0318
1012.10 154.9447
1012.20 154.8575
1012.30 154.7703
1012.40 154.6831
1012.50 154.5959
1012.60 154.5087
1012.70 154.4215
1012.80 154.3343
1012.90 154.2471
1013.00 154.1599
1013.10 154.0727
1013.20 153.9855
1013.30 153.8983
1013.40 153.8111
1013.50 153.7239
1013.60 153.6367
1013.70 153.5495
1013.80 153.4624
1013.90 153.3752
1014.00 153.288
1014.10 153.2008
1014.20 153.1136
1014.30 153.0264
1014.40 152.9392
1014.50 152.852
1014.60 153.1059
1014.70 153.5061
1014.80 153.9063
1014.90 154.3064
1015.00 154.7066
1015.10 155.1068
1015.20 155.5069
1015.30 155.9071
1015.40 156.3073
1015.50 156.7074
1015.60 157.1076
1015.70 157.5078
1015.80 157.9079
1015.90 158.3081
1016.00 158.7082
1016.10 159.1084
1016.20 159.5086
1016.30 159.9087
1016.40 160.3089
1016.50 160.7091
1016.60 161.1092
1016.70 161.5094
1016.80 161.9096
1016.90 162.3097
1017.00 162.7099
1017.10 163.11
1017.20 163.5102
1017.30 163.9104
1017.40 164.3105
1017.50 164.7107
1017.60 165.1109
1017.70 165.511
1017.80 165.9112
1017.90 166.3114
1018.00 166.7115
1018.10 167.1117
1018.20 167.5119
1018.30 167.912
1018.40 168.3122
1018.50 168.4997
1018.60 168.5456
1018.70 168.5914
1018.80 168.6372
1018.90 168.6831
1019.00 168.7289
1019.10 168.7747
1019.20 168.8206
1019.30 168.8664
1019.40 168.9122
1019.50 168.9581
1019.60 169.0039
1019.70 169.0497
1019.80 169.0956
1019.90 169.1414
1020.00 169.1872
1020.10 169.2331
1020.20 169.2789
1020.30 169.3247
1020.40 169.3706
1020.50 169.4164
1020.60 169.4622
1020.70 169.5081
1020.80 169.5539
1020.90 169.5997
1021.00 169.6456
1021.10 169.6914
1021.20 169.7372
1021.30 169.7831
1021.40 169.8289
1021.50 169.8747
1021.60 169.9206
1021.70 169.9664
1021.80 170.0122
1021.90 170.0581
1022.00 170.1039
1022.10 170.1497
1022.20 170.1956
1022.30 170.2414
1022.40 170.1999
1022.50 170.0709
1022.60 169.942
1022.70 169.8131
1022.80 169.6841
1022.90 169.5552
1023.00 169.4263
1023.10 169.2973
1023.20 169.1684
1023.30 169.0395
1023.40 168.9106
1023.50 168.7816
1023.60 168.6527
1023.70 168.5238
1023.80 168.3948
1023.90 168.2659
1024.00 168.137
1024.10 168.008
1024.20 167.8791
1024.30 167.7502
1024.40 167.6212
1024.50 167.4923
1024.60 167.3634
1024.70 167.2345
1024.80 167.1055
1024.90 166.9766
1025.00 166.8477
1025.10 166.7187
1025.20 166.5898
1025.30 166.4609
1025.40 166.3319
1025.50 166.203
1025.60 166.0741
1025.70 165.9452
1025.80 165.8162
1025.90 165.6873
1026.00 165.5584
1026.10 165.4294
1026.20 165.3005
1026.30 165.1981
1026.40 165.3339
1026.50 165.4697
1026.60 165.6055
1026.70 165.7413
1026.80 165.8771
1026.90 166.013
1027.00 166.1488
1027.10 166.2846
1027.20 166.4204
1027.30 166.5562
1027.40 166.692
1027.50 166.8279
1027.60 166.9637
1027.70 167.0995
1027.80 167.2353
1027.90 167.3711
1028.00 167.5069
1028.10 167.6428
1028.20 167.7786
1028.30 167.9144
1028.40 168.0502
1028.50 168.186
1028.60 168.3219
1028.70 168.4577
1028.80 168.5935
1028.90 168.7293
1029.00 168.8651
1029.10 169.0009
1029.20 169.1368
1029.30 169.2726
1029.40 169.4084
1029.50 169.5442
1029.60 169.68
1029.70 169.8158
1029.80 169.9517
1029.90 170.0875
1030.00 170.2233
1030.10 170.3591
1030.20 170.4949
1030.30 170.5834
1030.40 170.6517
1030.50 170.7199
1030.60 170.7882
1030.70 170.8564
1030.80 170.9246
1030.90 170.9929
1031.00 171.0611
1031.10 171.1293
1031.20 171.1976
1031.30 171.2658
1031.40 171.334
1031.50 171.4023
1031.60 171.4705
1031.70 171.5387
1031.80 171.607
1031.90 171.6752
1032.00 171.7434
1032.10 171.8117
1032.20 171.8799
1032.30 171.9482
1032.40 172.0164
1032.50 172.0846
1032.60 172.1529
1032.70 172.2211
1032.80 172.2893
1032.90 172.3576
1033.00 172.4258
1033.10 172.494
1033.20 172.5623
1033.30 172.6305
1033.40 172.6987
1033.50 172.767
1033.60 172.8352
1033.70 172.9035
1033.80 172.9717
1033.90 173.0399
1034.00 173.1082
1034.10 173.1764
1034.20 173.2811
1034.30 173.7142
1034.40 174.1473
1034.50 174.5804
1034.60 175.0135
1034.70 175.4466
1034.80 175.8797
1034.90 176.3128
1035.00 176.7459
1035.10 177.179
1035.20 177.6121
1035.30 178.0452
1035.40 178.4783
1035.50 178.9114
1035.60 179.3446
1035.70 179.7777
1035.80 180.2108
1035.90 180.6439
1036.00 181.077
1036.10 181.5101
1036.20 181.9432
1036.30 182.3763
1036.40 182.8094
1036.50 183.2425
1036.60 183.6756
1036.70 184.1087
1036.80 184.5418
1036.90 184.9749
1037.00 185.408
1037.10 185.8411
1037.20 186.2742
1037.30 186.7073
1037.40 187.1404
1037.50 187.5735
1037.60 188.0066
1037.70 188.4397
1037.80 188.8728
1037.90 189.3059
1038.00 189.739
1038.10 190.1721
1038.20 190.3964
1038.30 190.3076
1038.40 190.2188
1038.50 190.13
1038.60 190.0412
1038.70 189.9524
1038.80 189.8636
1038.90 189.7747
1039.00 189.6859
1039.10 189.5971
1039.20 189.5083
1039.30 189.4195
1039.40 189.3307
1039.50 189.2419
1039.60 189.153
1039.70 189.0642
1039.80 188.9754
1039.90 188.8866
1040.00 188.7978
1040.10 188.709
1040.20 188.6202
1040.30 188.5313
1040.40 188.4425
1040.50 188.3537
1040.60 188.2649
1040.70 188.1761
1040.80 188.0873
1040.90 187.9985
1041.00 187.9096
1041.10 187.8208
1041.20 187.732
1041.30 187.6432
1041.40 187.5544
1041.50 187.4656
1041.60 187.3768
1041.70 187.2879
1041.80 187.1991
1041.90 187.1103
1042.00 187.0215
1042.10 186.9327
1042.20 187.1264
1042.30 187.5086
1042.40 187.8907
1042.50 188.2729
1042.60 188.655
1042.70 189.0371
1042.80 189.4193
1042.90 189.8014
1043.00 190.1835
1043.10 190.5657
1043.20 190.9478
1043.30 191.33
1043.40 191.7121
1043.50 192.0942
1043.60 192.4764
1043.70 192.8585
1043.80 193.2407
1043.90 193.6228
1044.00 194.0049
1044.10 194.3871
1044.20 194.7692
1044.30 195.1513
1044.40 195.5335
1044.50 195.9156
1044.60 196.2978
1044.70 196.6799
1044.80 197.062
1044.90 197.4442
1045.00 197.8263
1045.10 198.2085
1045.20 198.5906
1045.30 198.9727
1045.40 199.3549
1045.50 199.737
1045.60 200.1191
1045.70 200.5013
1045.80 200.8834
1045.90 201.2656
1046.00 201.6477
1046.10 202.0298
1046.20 202.0887
1046.30 202.009
1046.40 201.9293
1046.50 201.8496
1046.60 201.7699
1046.70 201.6902
1046.80 201.6105
1046.90 201.5308
1047.00 201.4511
1047.10 201.3714
1047.20 201.2918
1047.30 201.2121
1047.40 201.1324
1047.50 201.0527
1047.60 200.973
1047.70 200.8933
1047.80 200.8136
1047.90 200.7339
1048.00 200.6542
1048.10 200.5745
1048.20 200.4948
1048.30 200.4151
1048.40 200.3354
1048.50 200.2557
1048.60 200.176
1048.70 200.0963
1048.80 200.0167
1048.90 199.937
1049.00 199.8573
1049.10 199.7776
1049.20 199.6979
1049.30 199.6182
1049.40 199.5385
1049.50 199.4588
1049.60 199.3791
1049.70 199.2994
1049.80 199.2197
1049.90 199.14
1050.00 199.0603
1050.10 198.9806
1050.20 198.9924
1050.30 199.0434
1050.40 199.0944
1050.50 199.1454
1050.60 199.1964
1050.70 199.2473
1050.80 199.2983
1050.90 199.3493
1051.00 199.4003
1051.10 199.4513
1051.20 199.5023
1051.30 199.5532
1051.40 199.6042
1051.50 199.6552
1051.60 199.7062
1051.70 199.7572
1051.80 199.8082
1051.90 199.8592
1052.00 199.9101
1052.10 199.9611
1052.20 200.0121
1052.30 200.0631
1052.40 200.1141
1052.50 200.1651
1052.60 200.216
1052.70 200.267
1052.80 200.318
1052.90 200.369
1053.00 200.42
1053.10 200.471
1053.20 200.522
1053.30 200.5729
1053.40 200.6239
1053.50 200.6749
1053.60 200.7259
1053.70 200.7769
1053.80 200.8279
1053.90 200.8788
1054.00 200.9298
1054.10 200.9808
1054.20 201.0682
1054.30 201.1919
1054.40 201.3156
1054.50 201.4394
1054.60 201.5631
1054.70 201.6868
1054.80 201.8106
1054.90 201.9343
1055.00 202.058
1055.10 202.1818
1055.20 202.3055
1055.30 202.4292
1055.40 202.553
1055.50 202.6767
1055.60 202.8004
1055.70 202.9242
1055.80 203.0479
1055.90 203.1716
1056.00 203.2954
1056.10 203.4191
1056.20 203.5428
1056.30 203.6666
1056.40 203.7903
1056.50 203.914
1056.60 204.0378
1056.70 204.1615
1056.80 204.2852
1056.90 204.409
1057.00 204.5327
1057.10 204.6564
1057.20 204.7802
1057.30 204.9039
1057.40 205.0276
1057.50 205.1514
1057.60 205.2751
1057.70 205.3988
1057.80 205.5226
1057.90 205.6463
1058.00 205.77
1058.10 205.8938
1058.20 206.0149
1058.30 206.1302
1058.40 206.2454
1058.50 206.3606
1058.60 206.4758
1058.70 206.5911
1058.80 206.7063
1058.90 206.8215
1059.00 206.9367
1059.10 207.052
1059.20 207.1672
1059.30 207.2824
1059.40 207.3976
1059.50 207.5129
1059.60 207.6281
1059.70 207.7433
1059.80 207.8585
1059.90 207.9738
1060.00 208.089
1060.10 208.2042
1060.20 208.3194
1060.30 208.4347
1060.40 208.5499
1060.50 208.6651
1060.60 208.7803
1060.70 208.8956
1060.80 209.0108
1060.90 209.126
1061.00 209.2412
1061.10 209.3565
1061.20 209.4717
1061.30 209.5869
1061.40 209.7021
1061.50 209.8173
1061.60 209.9326
1061.70 210.0478
1061.80 210.163
1061.90 210.2782
1062.00 210.3935
1062.10 210.5087
1062.20 210.6239
1062.30 210.7688
1062.40 210.9169
1062.50 211.0651
1062.60 211.2133
1062.70 211.3614
1062.80 211.5096
1062.90 211.6577
1063.00 211.8059
1063.10 211.954
1063.20 212.1022
1063.30 212.2504
1063.40 212.3985
1063.50 212.5467
1063.60 212.6948
1063.70 212.843
1063.80 212.9911
1063.90 213.1393
1064.00 213.2875
1064.10 213.4356
1064.20 213.5838
1064.30 213.7319
1064.40 213.8801
1064.50 214.0282
1064.60 214.1764
1064.70 214.3246
1064.80 214.4727
1064.90 214.6209
1065.00 214.769
1065.10 214.9172
1065.20 215.0654
1065.30 215.2135
1065.40 215.3617
1065.50 215.5098
1065.60 215.658
1065.70 215.8061
1065.80 215.9543
1065.90 216.1025
1066.00 216.2506
1066.10 216.3988
1066.20 216.5469
1066.30 216.7041
1066.40 216.8748
1066.50 217.0455
1066.60 217.2162
1066.70 217.387
1066.80 217.5577
1066.90 217.7284
1067.00 217.8991
1067.10 218.0698
1067.20 218.2405
1067.30 218.4112
1067.40 218.5819
1067.50 218.7526
1067.60 218.9234
1067.70 219.0941
1067.80 219.2648
1067.90 219.4355
1068.00 219.6062
1068.10 219.7769
1068.20 219.9476
1068.30 220.1183
1068.40 220.2891
1068.50 220.4598
1068.60 220.6305
1068.70 220.8012
1068.80 220.9719
1068.90 221.1426
1069.00 221.3133
1069.10 221.484
1069.20 221.6547
1069.30 221.8255
1069.40 221.9962
1069.50 222.1669
1069.60 222.3376
1069.70 222.5083
1069.80 222.679
1069.90 222.8497
1070.00 223.0204
1070.10 223.1911
1070.20 223.3619
1070.30 223.5326
1070.40 223.6827
1070.50 223.8304
1070.60 223.9782
1070.70 224.126
1070.80 224.2738
1070.90 224.4216
1071.00 224.5694
1071.10 224.7172
1071.20 224.8649
1071.30 225.0127
1071.40 225.1605
1071.50 225.3083
1071.60 225.4561
1071.70 225.6039
1071.80 225.7517
1071.90 225.8995
1072.00 226.0472
1072.10 226.195
1072.20 226.3428
1072.30 226.4906
1072.40 226.6384
1072.50 226.7862
1072.60 226.934
1072.70 227.0817
1072.80 227.2295
1072.90 227.3773
1073.00 227.5251
1073.10 227.6729
1073.20 227.8207
1073.30 227.9685
1073.40 228.1162
1073.50 228.264
1073.60 228.4118
1073.70 228.5596
1073.80 228.7074
1073.90 228.8552
1074.00 229.003
1074.10 229.1508
1074.20 229.2985
1074.30 229.4463
1074.40 229.5967
1074.50 229.7577
1074.60 229.9186
1074.70 230.0795
1074.80 230.2404
1074.90 230.4014
1075.00 230.5623
1075.10 230.7232
1075.20 230.8841
1075.30 231.0451
1075.40 231.206
1075.50 231.3669
1075.60 231.5278
1075.70 231.6888
1075.80 231.8497
1075.90 232.0106
1076.00 232.1715
1076.10 232.3325
1076.20 232.4934
1076.30 232.6543
1076.40 232.8152
1076.50 232.9762
1076.60 233.1371
1076.70 233.298
1076.80 233.4589
1076.90 233.6199
1077.00 233.7808
1077.10 233.9417
1077.20 234.1026
1077.30 234.2636
1077.40 234.4245
1077.50 234.5854
1077.60 234.7463
1077.70 234.9073
1077.80 235.0682
1077.90 235.2291
1078.00 235.39
1078.10 235.551
1078.20 235.7119
1078.30 235.8728
1078.40 236.0338
1078.50 236.1255
1078.60 236.1134
1078.70 236.1013
1078.80 236.0892
1078.90 236.0772
1079.00 236.0651
1079.10 236.053
1079.20 236.0409
1079.30 236.0288
1079.40 236.0168
1079.50 236.0047
1079.60 235.9926
1079.70 235.9805
1079.80 235.9684
1079.90 235.9564
1080.00 235.9443
1080.10 235.9322
1080.20 235.9201
1080.30 235.908
1080.40 235.896
1080.50 235.8839
1080.60 235.8718
1080.70 235.8597
1080.80 235.8476
1080.90 235.8356
1081.00 235.8235
1081.10 235.8114
1081.20 235.7993
1081.30 235.7872
1081.40 235.7752
1081.50 235.7631
1081.60 235.751
1081.70 235.7389
1081.80 235.7268
1081.90 235.7148
1082.00 235.7027
1082.10 235.6906
1082.20 235.6785
1082.30 235.6664
1082.40 235.6544
1082.50 235.6423
1082.60 235.8239
1082.70 236.1992
1082.80 236.5745
1082.90 236.9498
1083.00 237.325
1083.10 237.7003
1083.20 238.0756
1083.30 238.4509
1083.40 238.8262
1083.50 239.2015
1083.60 239.5768
1083.70 239.9521
1083.80 240.3274
1083.90 240.7027
1084.00 241.078
1084.10 241.4532
1084.20 241.8285
1084.30 242.2038
1084.40 242.5791
1084.50 242.9544
1084.60 243.3297
1084.70 243.705
1084.80 244.0803
1084.90 244.4556
1085.00 244.8309
1085.10 245.2061
1085.20 245.5814
1085.30 245.9567
1085.40 246.332
1085.50 246.7073
1085.60 247.0826
1085.70 247.4579
1085.80 247.8332
1085.90 248.2085
1086.00 248.5838
1086.10 248.959
1086.20 249.3343
1086.30 249.7096
1086.40 250.0849
1086.50 250.4602
1086.60 250.8355
1086.70 251.0836
1086.80 251.2468
1086.90 251.4101
1087.00 251.5733
1087.10 251.7366
1087.20 251.8998
1087.30 252.0631
1087.40 252.2263
1087.50 252.3896
1087.60 252.5528
1087.70 252.7161
1087.80 252.8793
1087.90 253.0426
1088.00 253.2059
1088.10 253.3691
1088.20 253.5324
1088.30 253.6956
1088.40 253.8589
1088.50 254.0221
1088.60 254.1854
1088.70 254.3486
1088.80 254.5119
1088.90 254.6751
1089.00 254.8384
1089.10 255.0016
1089.20 255.1649
1089.30 255.3281
1089.40 255.4914
1089.50 255.6547
1089.60 255.8179
1089.70 255.9812
1089.80 256.1444
1089.90 256.3077
1090.00 256.4709
1090.10 256.6342
1090.20 256.7974
1090.30 256.9607
1090.40 257.1239
1090.50 257.2872
1090.60 257.4504
1090.70 257.6137
1090.80 257.6666
1090.90 257.609
1091.00 257.5515
1091.10 257.494
1091.20 257.4365
1091.30 257.379
1091.40 257.3215
1091.50 257.264
1091.60 257.2064
1091.70 257.1489
1091.80 257.0914
1091.90 257.0339
1092.00 256.9764
1092.10 256.9189
1092.20 256.8614
1092.30 256.8038
1092.40 256.7463
1092.50 256.6888
1092.60 256.6313
1092.70 256.5738
1092.80 256.5163
1092.90 256.4588
1093.00 256.4012
1093.10 256.3437
1093.20 256.2862
1093.30 256.2287
1093.40 256.1712
1093.50 256.1137
1093.60 256.0561
1093.70 255.9986
1093.80 255.9411
1093.90 255.8836
1094.00 255.8261
1094.10 255.7686
1094.20 255.7111
1094.30 255.6535
1094.40 255.596
1094.50 255.5385
1094.60 255.481
1094.70 255.4235
1094.80 255.366
1094.90 255.449
1095.00 255.7429
1095.10 256.0368
1095.20 256.3306
1095.30 256.6245
1095.40 256.9184
1095.50 257.2122
1095.60 257.5061
1095.70 257.8
1095.80 258.0939
1095.90 258.3877
1096.00 258.6816
1096.10 258.9755
1096.20 259.2694
1096.30 259.5632
1096.40 259.8571
1096.50 260.151
1096.60 260.4449
1096.70 260.7387
1096.80 261.0326
1096.90 261.3265
1097.00 261.6203
1097.10 261.9142
1097.20 262.2081
1097.30 262.502
1097.40 262.7958
1097.50 263.0897
1097.60 263.3836
1097.70 263.6775
1097.80 263.9713
1097.90 264.2652
1098.00 264.5591
1098.10 264.8529
1098.20 265.1468
1098.30 265.4407
1098.40 265.7346
1098.50 266.0284
1098.60 266.3223
1098.70 266.6162
1098.80 266.9101
1098.90 267.2039
1099.00 267.4496
1099.10 267.2619
1099.20 267.0741
1099.30 266.8864
1099.40 266.6987
1099.50 266.5109
1099.60 266.3232
1099.70 266.1354
1099.80 265.9477
1099.90 265.7599
1100.00 265.5722
1100.10 265.3844
1100.20 265.1967
1100.30 265.0089
1100.40 264.8212
1100.50 264.6334
1100.60 264.4457
1100.70 264.2579
1100.80 264.0702
1100.90 263.8825
1101.00 263.6947
1101.10 263.507
1101.20 263.3192
1101.30 263.1315
1101.40 262.9437
1101.50 262.756
1101.60 262.5682
1101.70 262.3805
1101.80 262.1927
1101.90 262.005
1102.00 261.8172
1102.10 261.6295
1102.20 261.4418
1102.30 261.254
1102.40 261.0663
1102.50 260.8785
1102.60 260.6908
1102.70 260.503
1102.80 260.3153
1102.90 260.1275
1103.00 259.9398
1103.10 259.752
1103.20 259.559
1103.30 259.3645
1103.40 259.1701
1103.50 258.9757
1103.60 258.7813
1103.70 258.5869
1103.80 258.3925
1103.90 258.1981
1104.00 258.0037
1104.10 257.8093
1104.20 257.6148
1104.30 257.4204
1104.40 257.226
1104.50 257.0316
1104.60 256.8372
1104.70 256.6428
1104.80 256.4484
1104.90 256.254
1105.00 256.0596
1105.10 255.8651
1105.20 255.6707
1105.30 255.4763
1105.40 255.2819
1105.50 255.0875
1105.60 254.8931
1105.70 254.6987
1105.80 254.5043
1105.90 254.3099
1106.00 254.1155
1106.10 253.921
1106.20 253.7266
1106.30 253.5322
1106.40 253.3378
1106.50 253.1434
1106.60 252.949
1106.70 252.7546
1106.80 252.5602
1106.90 252.3658
1107.00 252.1713
1107.10 251.9769
1107.20 251.7825
1107.30 251.6201
1107.40 251.5055
1107.50 251.391
1107.60 251.2764
1107.70 251.1619
1107.80 251.0473
1107.90 250.9328
1108.00 250.8182
1108.10 250.7037
1108.20 250.5891
1108.30 250.4746
1108.40 250.36
1108.50 250.2455
1108.60 250.1309
1108.70 250.0164
1108.80 249.9018
1108.90 249.7873
1109.00 249.6727
1109.10 249.5582
1109.20 249.4436
1109.30 249.3291
1109.40 249.2146
1109.50 249.1
1109.60 248.9855
1109.70 248.8709
1109.80 248.7564
1109.90 248.6418
1110.00 248.5273
1110.10 248.4127
1110.20 248.2982
1110.30 248.1836
1110.40 248.0691
1110.50 247.9545
1110.60 247.84
1110.70 247.7254
1110.80 247.6109
1110.90 247.4963
1111.00 247.3818
1111.10 247.2672
1111.20 247.1527
1111.30 247.0381
1111.40 246.9236
1111.50 246.6919
1111.60 246.4473
1111.70 246.2026
1111.80 245.958
1111.90 245.7133
1112.00 245.4686
1112.10 245.224
1112.20 244.9793
1112.30 244.7346
1112.40 244.49
1112.50 244.2453
1112.60 244.0007
1112.70 243.756
1112.80 243.5113
1112.90 243.2667
1113.00 243.022
1113.10 242.7773
1113.20 242.5327
1113.30 242.288
1113.40 242.0434
1113.50 241.7987
1113.60 241.554
1113.70 241.3094
1113.80 241.0647
1113.90 240.8201
1114.00 240.5754
1114.10 240.3307
1114.20 240.0861
1114.30 239.8414
1114.40 239.5967
1114.50 239.3521
1114.60 239.1074
1114.70 238.8628
1114.80 238.6181
1114.90 238.3734
1115.00 238.1288
1115.10 237.8841
1115.20 237.6394
1115.30 237.3948
1115.40 237.1501
1115.50 236.9055
1115.60 236.8364
1115.70 237.1769
1115.80 237.5174
1115.90 237.8579
1116.00 238.1984
1116.10 238.539
1116.20 238.8795
1116.30 239.22
1116.40 239.5605
1116.50 239.901
1116.60 240.2416
1116.70 240.5821
1116.80 240.9226
1116.90 241.2631
1117.00 241.6036
1117.10 241.9442
1117.20 242.2847
1117.30 242.6252
1117.40 242.9657
1117.50 243.3062
1117.60 243.6468
1117.70 243.9873
1117.80 244.3278
1117.90 244.6683
1118.00 245.0088
1118.10 245.3494
1118.20 245.6899
1118.30 246.0304
1118.40 246.3709
1118.50 246.7115
1118.60 247.052
1118.70 247.3925
1118.80 247.733
1118.90 248.0735
1119.00 248.4141
1119.10 248.7546
1119.20 249.0951
1119.30 249.4356
1119.40 249.7761
1119.50 250.1167
1119.60 250.4572
1119.70 250.7977
1119.80 250.9515
1119.90 250.9808
1120.00 251.01
1120.10 251.0393
1120.20 251.0686
1120.30 251.0979
1120.40 251.1272
1120.50 251.1564
1120.60 251.1857
1120.70 251.215
1120.80 251.2443
1120.90 251.2736
1121.00 251.3028
1121.10 251.3321
1121.20 251.3614
1121.30 251.3907
1121.40 251.4199
1121.50 251.4492
1121.60 251.4785
1121.70 251.5078
1121.80 251.5371
1121.90 251.5663
1122.00 251.5956
1122.10 251.6249
1122.20 251.6542
1122.30 251.6835
1122.40 251.7127
1122.50 251.742
1122.60 251.7713
1122.70 251.8006
1122.80 251.8299
1122.90 251.8591
1123.00 251.8884
1123.10 251.9177
1123.20 251.947
1123.30 251.9763
1123.40 252.0055
1123.50 252.0348
1123.60 252.0641
1123.70 252.0934
1123.80 252.1227
1123.90 252.1519
1124.00 252.035
1124.10 251.9018
1124.20 251.7687
1124.30 251.6355
1124.40 251.5023
1124.50 251.3691
1124.60 251.2359
1124.70 251.1028
1124.80 250.9696
1124.90 250.8364
1125.00 250.7032
1125.10 250.5701
1125.20 250.4369
1125.30 250.3037
1125.40 250.1705
1125.50 250.0373
1125.60 249.9042
1125.70 249.771
1125.80 249.6378
1125.90 249.5046
1126.00 249.3715
1126.10 249.2383
1126.20 249.1051
1126.30 248.9719
1126.40 248.8388
1126.50 248.7056
1126.60 248.5724
1126.70 248.4392
1126.80 248.306
1126.90 248.1729
1127.00 248.0397
1127.10 247.9065
1127.20 247.7733
1127.30 247.6402
1127.40 247.507
1127.50 247.3738
1127.60 247.2406
1127.70 247.1074
1127.80 246.9743
1127.90 246.8411
1128.00 246.7079
1128.10 246.5778
1128.20 246.4754
1128.30 246.373
1128.40 246.2706
1128.50 246.1682
1128.60 246.0658
1128.70 245.9634
1128.80 245.861
1128.90 245.7586
1129.00 245.6562
1129.10 245.5538
1129.20 245.4515
1129.30 245.3491
1129.40 245.2467
1129.50 245.1443
1129.60 245.0419
1129.70 244.9395
1129.80 244.8371
1129.90 244.7347
1130.00 244.6323
1130.10 244.5299
1130.20 244.4275
1130.30 244.3251
1130.40 244.2227
1130.50 244.1203
1130.60 244.0179
1130.70 243.9155
1130.80 243.8131
1130.90 243.7107
1131.00 243.6083
1131.10 243.5059
1131.20 243.4035
1131.30 243.3011
1131.40 243.1987
1131.50 243.0963
1131.60 242.9939
1131.70 242.8915
1131.80 242.7891
1131.90 242.6867
1132.00 242.5843
1132.10 242.4819
1132.20 242.3795
1132.30 242.3885
1132.40 242.8428
1132.50 243.2971
1132.60 243.7514
1132.70 244.2058
1132.80 244.6601
1132.90 245.1144
1133.00 245.5687
1133.10 246.023
1133.20 246.4773
1133.30 246.9317
1133.40 247.386
1133.50 247.8403
1133.60 248.2946
1133.70 248.7489
1133.80 249.2033
1133.90 249.6576
1134.00 250.1119
1134.10 250.5662
1134.20 251.0205
1134.30 251.4748
1134.40 251.9292
1134.50 252.3835
1134.60 252.8378
1134.70 253.2921
1134.80 253.7464
1134.90 254.2007
1135.00 254.6551
1135.10 255.1094
1135.20 255.5637
1135.30 256.018
1135.40 256.4723
1135.50 256.9267
1135.60 257.381
1135.70 257.8353
1135.80 258.2896
1135.90 258.7439
1136.00 259.1982
1136.10 259.6526
1136.20 260.1069
1136.30 260.5612
1136.40 261.0155
1136.50 261.2219
1136.60 260.8496
1136.70 260.4774
1136.80 260.1051
1136.90 259.7329
1137.00 259.3606
1137.10 258.9884
1137.20 258.6162
1137.30 258.2439
1137.40 257.8717
1137.50 257.4994
1137.60 257.1272
1137.70 256.7549
1137.80 256.3827
1137.90 256.0104
1138.00 255.6382
1138.10 255.266
1138.20 254.8937
1138.30 254.5215
1138.40 254.1492
1138.50 253.777
1138.60 253.4047
1138.70 253.0325
1138.80 252.6602
1138.90 252.288
1139.00 251.9158
1139.10 251.5435
1139.20 251.1713
1139.30 250.799
1139.40 250.4268
1139.50 250.0545
1139.60 249.6823
1139.70 249.3101
1139.80 248.9378
1139.90 248.5656
1140.00 248.1933
1140.10 247.8211
1140.20 247.4488
1140.30 247.0766
1140.40 246.7043
1140.50 246.3321
1140.60 245.9599
1140.70 245.6517
1140.80 245.4932
1140.90 245.3346
1141.00 245.176
1141.10 245.0175
1141.20 244.8589
1141.30 244.7003
1141.40 244.5418
1141.50 244.3832
1141.60 244.2246
1141.70 244.0661
1141.80 243.9075
1141.90 243.7489
1142.00 243.5904
1142.10 243.4318
1142.20 243.2732
1142.30 243.1147
1142.40 242.9561
1142.50 242.7976
1142.60 242.639
1142.70 242.4804
1142.80 242.3219
1142.90 242.1633
1143.00 242.0047
1143.10 241.8462
1143.20 241.6876
1143.30 241.529
1143.40 241.3705
1143.50 241.2119
1143.60 241.0533
1143.70 240.8948
1143.80 240.7362
1143.90 240.5776
1144.00 240.4191
1144.10 240.2605
1144.20 240.1019
1144.30 239.9434
1144.40 239.7848
1144.50 239.6263
1144.60 239.4677
1144.70 239.3091
1144.80 239.1506
1144.90 239.0977
1145.00 239.4676
1145.10 239.8375
1145.20 240.2074
1145.30 240.5773
1145.40 240.9472
1145.50 241.3171
1145.60 241.687
1145.70 242.0569
1145.80 242.4268
1145.90 242.7967
1146.00 243.1666
1146.10 243.5365
1146.20 243.9064
1146.30 244.2763
1146.40 244.6462
1146.50 245.0161
1146.60 245.386
1146.70 245.7559
1146.80 246.1259
1146.90 246.4958
1147.00 246.8657
1147.10 247.2356
1147.20 247.6055
1147.30 247.9754
1147.40 248.3453
1147.50 248.7152
1147.60 249.0851
1147.70 249.455
1147.80 249.8249
1147.90 250.1948
1148.00 250.5647
1148.10 250.9346
1148.20 251.3045
1148.30 251.6744
1148.40 252.0443
1148.50 252.4142
1148.60 252.7841
1148.70 253.154
1148.80 253.5239
1148.90 253.8938
1149.00 254.2637
1149.10 254.6336
1149.20 254.9853
1149.30 255.3369
1149.40 255.6886
1149.50 256.0402
1149.60 256.3919
1149.70 256.7435
1149.80 257.0951
1149.90 257.4468
1150.00 257.7984
1150.10 258.1501
1150.20 258.5017
1150.30 258.8534
1150.40 259.205
1150.50 259.5567
1150.60 259.9083
1150.70 260.2599
1150.80 260.6116
1150.90 260.9632
1151.00 261.3149
1151.10 261.6665
1151.20 262.0182
1151.30 262.3698
1151.40 262.7215
1151.50 263.0731
1151.60 263.4248
1151.70 263.7764
1151.80 264.128
1151.90 264.4797
1152.00 264.8313
1152.10 265.183
1152.20 265.5346
1152.30 265.8863
1152.40 266.2379
1152.50 266.5896
1152.60 266.9412
1152.70 267.2928
1152.80 267.6445
1152.90 267.9961
1153.00 268.3478
1153.10 268.6994
1153.20 269.0511
1153.30 269.4027
1153.40 269.4883
1153.50 269.5074
1153.60 269.5265
1153.70 269.5457
1153.80 269.5648
1153.90 269.5839
1154.00 269.603
1154.10 269.6221
1154.20 269.6412
1154.30 269.6603
1154.40 269.6794
1154.50 269.6985
1154.60 269.7176
1154.70 269.7367
1154.80 269.7558
1154.90 269.7749
1155.00 269.794
1155.10 269.8132
1155.20 269.8323
1155.30 269.8514
1155.40 269.8705
1155.50 269.8896
1155.60 269.9087
1155.70 269.9278
1155.80 269.9469
1155.90 269.966
1156.00 269.9851
1156.10 270.0042
1156.20 270.0233
1156.30 270.0424
1156.40 270.0615
1156.50 270.0806
1156.60 270.0998
1156.70 270.1189
1156.80 270.138
1156.90 270.1571
1157.00 270.1762
1157.10 270.1953
1157.20 270.2144
1157.30 270.2335
1157.40 270.2526
1157.50 270.2717
1157.60 270.3845
1157.70 270.5598
1157.80 270.7351
1157.90 270.9104
1158.00 271.0856
1158.10 271.2609
1158.20 271.4362
1158.30 271.6115
1158.40 271.7868
1158.50 271.9621
1158.60 272.1373
1158.70 272.3126
1158.80 272.4879
1158.90 272.6632
1159.00 272.8385
1159.10 273.0137
1159.20 273.189
1159.30 273.3643
1159.40 273.5396
1159.50 273.7149
1159.60 273.8901
1159.70 274.0654
1159.80 274.2407
1159.90 274.416
1160.00 274.5913
1160.10 274.7665
1160.20 274.9418
1160.30 275.1171
1160.40 275.2924
1160.50 275.4677
1160.60 275.6429
1160.70 275.8182
1160.80 275.9935
1160.90 276.1688
1161.00 276.3441
1161.10 276.5193
1161.20 276.6946
1161.30 276.8699
1161.40 277.0452
1161.50 277.2205
1161.60 277.3957
1161.70 277.571
1161.80 277.7248
1161.90 277.7927
1162.00 277.8605
1162.10 277.9284
1162.20 277.9963
1162.30 278.0641
1162.40 278.132
1162.50 278.1999
1162.60 278.2677
1162.70 278.3356
1162.80 278.4035
1162.90 278.4713
1163.00 278.5392
1163.10 278.6071
1163.20 278.6749
1163.30 278.7428
1163.40 278.8107
1163.50 278.8785
1163.60 278.9464
1163.70 279.0143
1163.80 279.0821
1163.90 279.15
1164.00 279.2179
1164.10 279.2857
1164.20 279.3536
1164.30 279.4215
1164.40 279.4893
1164.50 279.5572
1164.60 279.6251
1164.70 279.6929
1164.80 279.7608
1164.90 279.8287
1165.00 279.8965
1165.10 279.9644
1165.20 280.0323
1165.30 280.1001
1165.40 280.168
1165.50 280.2359
1165.60 280.3037
1165.70 280.3716
1165.80 280.4395
1165.90 280.5073
1166.00 280.5752
1166.10 280.231
1166.20 279.8411
1166.30 279.4511
1166.40 279.0611
1166.50 278.6711
1166.60 278.2812
1166.70 277.8912
1166.80 277.5012
1166.90 277.1113
1167.00 276.7213
1167.10 276.3313
1167.20 275.9414
1167.30 275.5514
1167.40 275.1614
1167.50 274.7715
1167.60 274.3815
1167.70 273.9915
1167.80 273.6015
1167.90 273.2116
1168.00 272.8216
1168.10 272.4316
1168.20 272.0417
1168.30 271.6517
1168.40 271.2617
1168.50 270.8718
1168.60 270.4818
1168.70 270.0918
1168.80 269.7018
1168.90 269.3119
1169.00 268.9219
1169.10 268.5319
1169.20 268.142
1169.30 267.752
1169.40 267.362
1169.50 266.9721
1169.60 266.5821
1169.70 266.1921
1169.80 265.8022
1169.90 265.4122
1170.00 265.0222
1170.10 264.6322
1170.20 264.2423
1170.30 263.898
1170.40 263.6221
1170.50 263.3463
1170.60 263.0705
1170.70 262.7947
1170.80 262.5189
1170.90 262.2431
1171.00 261.9672
1171.10 261.6914
1171.20 261.4156
1171.30 261.1398
1171.40 260.864
1171.50 260.5881
1171.60 260.3123
1171.70 260.0365
1171.80 259.7607
1171.90 259.4849
1172.00 259.209
1172.10 258.9332
1172.20 258.6574
1172.30 258.3816
1172.40 258.1058
1172.50 257.8299
1172.60 257.5541
1172.70 257.2783
1172.80 257.0025
1172.90 256.7267
1173.00 256.4509
1173.10 256.175
1173.20 255.8992
1173.30 255.6234
1173.40 255.3476
1173.50 255.0718
1173.60 254.7959
1173.70 254.5201
1173.80 254.2443
1173.90 253.9685
1174.00 253.6927
1174.10 253.4168
1174.20 253.141
1174.30 252.8652
1174.40 252.5894
1174.50 252.3136
1174.60 252.2245
1174.70 252.1562
1174.80 252.0879
1174.90 252.0196
1175.00 251.9513
1175.10 251.883
1175.20 251.8146
1175.30 251.7463
1175.40 251.678
1175.50 251.6097
1175.60 251.5414
1175.70 251.4731
1175.80 251.4048
1175.90 251.3365
1176.00 251.2682
1176.10 251.1998
1176.20 251.1315
1176.30 251.0632
1176.40 250.9949
1176.50 250.9266
1176.60 250.8583
1176.70 250.79
1176.80 250.7217
1176.90 250.6534
1177.00 250.5851
1177.10 250.5167
1177.20 250.4484
1177.30 250.3801
1177.40 250.3118
1177.50 250.2435
1177.60 250.1752
1177.70 250.1069
1177.80 250.0386
1177.90 249.9703
1178.00 249.9019
1178.10 249.8336
1178.20 249.7653
1178.30 249.697
1178.40 249.6287
1178.50 249.5604
1178.60 249.4921
1178.70 249.4238
1178.80 249.4626
1178.90 249.6623
1179.00 249.8619
1179.10 250.0615
1179.20 250.2611
1179.30 250.4607
1179.40 250.6604
1179.50 250.86
1179.60 251.0596
1179.70 251.2592
1179.80 251.4588
1179.90 251.6585
1180.00 251.8581
1180.10 252.0577
1180.20 252.2573
1180.30 252.4569
1180.40 252.6565
1180.50 252.8562
1180.60 253.0558
1180.70 253.2554
1180.80 253.455
1180.90 253.6546
1181.00 253.8543
1181.10 254.0539
1181.20 254.2535
1181.30 254.4531
1181.40 254.6527
1181.50 254.8524
1181.60 255.052
1181.70 255.2516
1181.80 255.4512
1181.90 255.6508
1182.00 255.8505
1182.10 256.0501
1182.20 256.2497
1182.30 256.4493
1182.40 256.6489
1182.50 256.8486
1182.60 257.0482
1182.70 257.2478
1182.80 257.4474
1182.90 257.647
1183.00 257.8467
1183.10 257.7897
1183.20 257.6686
1183.30 257.5475
1183.40 257.4264
1183.50 257.3053
1183.60 257.1842
1183.70 257.0632
1183.80 256.9421
1183.90 256.821
1184.00 256.6999
1184.10 256.5788
1184.20 256.4577
1184.30 256.3366
1184.40 256.2155
1184.50 256.0944
1184.60 255.9733
1184.70 255.8522
1184.80 255.7311
1184.90 255.61
1185.00 255.4889
1185.10 255.3678
1185.20 255.2468
1185.30 255.1257
1185.40 255.0046
1185.50 254.8835
1185.60 254.7624
1185.70 254.6413
1185.80 254.5202
1185.90 254.3991
1186.00 254.278
1186.10 254.1569
1186.20 254.0358
1186.30 253.9147
1186.40 253.7936
1186.50 253.6725
1186.60 253.5514
1186.70 253.4303
1186.80 253.3093
1186.90 253.1882
1187.00 253.0671
1187.10 252.946
1187.20 252.8249
1187.30 252.8065
1187.40 253.199
1187.50 253.5915
1187.60 253.984
1187.70 254.3765
1187.80 254.769
1187.90 255.1615
1188.00 255.554
1188.10 255.9465
1188.20 256.339
1188.30 256.7315
1188.40 257.124
1188.50 257.5165
1188.60 257.909
1188.70 258.3014
1188.80 258.6939
1188.90 259.0864
1189.00 259.4789
1189.10 259.8714
1189.20 260.2639
1189.30 260.6564
1189.40 261.0489
1189.50 261.4414
1189.60 261.8339
1189.70 262.2264
1189.80 262.6189
1189.90 263.0114
1190.00 263.4039
1190.10 263.7964
1190.20 264.1889
1190.30 264.5814
1190.40 264.9739
1190.50 265.3664
1190.60 265.7589
1190.70 266.1514
1190.80 266.5439
1190.90 266.9364
1191.00 267.3289
1191.10 267.7213
1191.20 268.1138
1191.30 268.5063
1191.40 268.8988
1191.50 269.2913
1191.60 269.4963
1191.70 269.5137
1191.80 269.5311
1191.90 269.5485
1192.00 269.5659
1192.10 269.5833
1192.20 269.6007
1192.30 269.6181
1192.40 269.6355
1192.50 269.6529
1192.60 269.6703
1192.70 269.6877
1192.80 269.7051
1192.90 269.7225
1193.00 269.7399
1193.10 269.7573
1193.20 269.7747
1193.30 269.7921
1193.40 269.8095
1193.50 269.8269
1193.60 269.8443
1193.70 269.8617
1193.80 269.8792
1193.90 269.8966
1194.00 269.914
1194.10 269.9314
1194.20 269.9488
1194.30 269.9662
1194.40 269.9836
1194.50 270.001
1194.60 270.0184
1194.70 270.0358
1194.80 270.0532
1194.90 270.0706
1195.00 270.088
1195.10 270.1054
1195.20 270.1228
1195.30 270.1402
1195.40 270.1576
1195.50 270.175
1195.60 270.1924
1195.70 270.2098
1195.80 270.2272
1195.90 270.2289
1196.00 270.2265
1196.10 270.2242
1196.20 270.2219
1196.30 270.2196
1196.40 270.2173
1196.50 270.215
1196.60 270.2127
1196.70 270.2104
1196.80 270.2081
1196.90 270.2058
1197.00 270.2035
1197.10 270.2012
1197.20 270.1989
1197.30 270.1966
1197.40 270.1943
1197.50 270.192
1197.60 270.1897
1197.70 270.1874
1197.80 270.185
1197.90 270.1827
1198.00 270.1804
1198.10 270.1781
1198.20 270.1758
1198.30 270.1735
1198.40 270.1712
1198.50 270.1689
1198.60 270.1666
1198.70 270.1643
1198.80 270.162
1198.90 270.1597
1199.00 270.1574
1199.10 270.1551
1199.20 270.1528
1199.30 270.1505
1199.40 270.1482
1199.50 270.1459
1199.60 270.1435
1199.70 270.1412
1199.80 270.1389
1199.90 270.1366
1200.00 270.1343
1200.10 270.132
1200.20 269.8685
1200.30 269.605
1200.40 269.3414
1200.50 269.0779
1200.60 268.8144
1200.70 268.5509
1200.80 268.2873
1200.90 268.0238
1201.00 267.7603
1201.10 267.4968
1201.20 267.2332
1201.30 266.9697
1201.40 266.7062
1201.50 266.4427
1201.60 266.1791
1201.70 265.9156
1201.80 265.6521
1201.90 265.3885
1202.00 265.125
1202.10 264.8615
1202.20 264.598
1202.30 264.3344
1202.40 264.0709
1202.50 263.8074
1202.60 263.5439
1202.70 263.2803
1202.80 263.0168
1202.90 262.7533
1203.00 262.4898
1203.10 262.2262
1203.20 261.9627
1203.30 261.6992
1203.40 261.4356
1203.50 261.1721
1203.60 260.9086
1203.70 260.6451
1203.80 260.3815
1203.90 260.118
1204.00 259.8545
1204.10 259.591
1204.20 259.3274
1204.30 259.0639
1204.40 258.8895
1204.50 259.0716
1204.60 259.2537
1204.70 259.4357
1204.80 259.6178
1204.90 259.7999
1205.00 259.9819
1205.10 260.164
1205.20 260.3461
1205.30 260.5282
1205.40 260.7102
1205.50 260.8923
1205.60 261.0744
1205.70 261.2565
1205.80 261.4385
1205.90 261.6206
1206.00 261.8027
1206.10 261.9848
1206.20 262.1668
1206.30 262.3489
1206.40 262.531
1206.50 262.7131
1206.60 262.8951
1206.70 263.0772
1206.80 263.2593
1206.90 263.4414
1207.00 263.6234
1207.10 263.8055
1207.20 263.9876
1207.30 264.1697
1207.40 264.3517
1207.50 264.5338
1207.60 264.7159
1207.70 264.898
1207.80 265.08
1207.90 265.2621
1208.00 265.4442
1208.10 265.6263
1208.20 265.8083
1208.30 265.9904
1208.40 266.1725
1208.50 266.3546
1208.60 266.5366
1208.70 266.8312
1208.80 267.2945
1208.90 267.7579
1209.00 268.2212
1209.10 268.6845
1209.20 269.1478
1209.30 269.6112
1209.40 270.0745
1209.50 270.5378
1209.60 271.0011
1209.70 271.4645
1209.80 271.9278
1209.90 272.3911
1210.00 272.8544
1210.10 273.3178
1210.20 273.7811
1210.30 274.2444
1210.40 274.7078
1210.50 275.1711
1210.60 275.6344
1210.70 276.0977
1210.80 276.5611
1210.90 277.0244
1211.00 277.4877
1211.10 277.951
1211.20 278.4144
1211.30 278.8777
1211.40 279.341
1211.50 279.8043
1211.60 280.2677
1211.70 280.731
1211.80 281.1943
1211.90 281.6576
1212.00 282.121
1212.10 282.5843
1212.20 283.0476
1212.30 283.5109
1212.40 283.9743
1212.50 284.4376
1212.60 284.9009
1212.70 285.3643
1212.80 285.8276
1212.90 286.2909
1213.00 286.5554
1213.10 286.6211
1213.20 286.6867
1213.30 286.7524
1213.40 286.8181
1213.50 286.8837
1213.60 286.9494
1213.70 287.0151
1213.80 287.0807
1213.90 287.1464
1214.00 287.2121
1214.10 287.2777
1214.20 287.3434
1214.30 287.409
1214.40 287.4747
1214.50 287.5404
1214.60 287.606
1214.70 287.6717
1214.80 287.7374
1214.90 287.803
1215.00 287.8687
1215.10 287.9344
1215.20 288
1215.30 288.0657
1215.40 288.1314
1215.50 288.197
1215.60 288.2627
1215.70 288.3284
1215.80 288.394
1215.90 288.4597
1216.00 288.5254
1216.10 288.591
1216.20 288.6567
1216.30 288.7223
1216.40 288.788
1216.50 288.8537
1216.60 288.9193
1216.70 288.985
1216.80 289.0507
1216.90 289.1163
1217.00 289.182
1217.10 289.2477
1217.20 289.3133
1217.30 289.3947
1217.40 289.4864
1217.50 289.5782
1217.60 289.6699
1217.70 289.7617
1217.80 289.8534
1217.90 289.9452
1218.00 290.0369
1218.10 290.1287
1218.20 290.2204
1218.30 290.3122
1218.40 290.404
1218.50 290.4957
1218.60 290.5875
1218.70 290.6792
1218.80 290.771
1218.90 290.8627
1219.00 290.9545
1219.10 291.0462
1219.20 291.138
1219.30 291.2297
1219.40 291.3215
1219.50 291.4133
1219.60 291.505
1219.70 291.5968
1219.80 291.6885
1219.90 291.7803
1220.00 291.872
1220.10 291.9638
1220.20 292.0555
1220.30 292.1473
1220.40 292.239
1220.50 292.3308
1220.60 292.4226
1220.70 292.5143
1220.80 292.6061
1220.90 292.6978
1221.00 292.7896
1221.10 292.8813
1221.20 292.9731
1221.30 293.0648
1221.40 293.1566
1221.50 293.2483
1221.60 293.4513
1221.70 293.7019
1221.80 293.9525
1221.90 294.2031
1222.00 294.4536
1222.10 294.7042
1222.20 294.9548
1222.30 295.2054
1222.40 295.456
1222.50 295.7066
1222.60 295.9572
1222.70 296.2078
1222.80 296.4584
1222.90 296.709
1223.00 296.9596
1223.10 297.2101
1223.20 297.4607
1223.30 297.7113
1223.40 297.9619
1223.50 298.2125
1223.60 298.4631
1223.70 298.7137
1223.80 298.9643
1223.90 299.2149
1224.00 299.4655
1224.10 299.7161
1224.20 299.9666
1224.30 300.2172
1224.40 300.4678
1224.50 300.7184
1224.60 300.969
1224.70 301.2196
1224.80 301.4702
1224.90 301.7208
1225.00 301.9714
1225.10 302.222
1225.20 302.4726
1225.30 302.7231
1225.40 302.9737
1225.50 303.2243
1225.60 303.4749
1225.70 303.7255
1225.80 303.9761
1225.90 304.0086
1226.00 303.9477
1226.10 303.8868
1226.20 303.8259
1226.30 303.765
1226.40 303.7041
1226.50 303.6432
1226.60 303.5822
1226.70 303.5213
1226.80 303.4604
1226.90 303.3995
1227.00 303.3386
1227.10 303.2777
1227.20 303.2167
1227.30 303.1558
1227.40 303.0949
1227.50 303.034
1227.60 302.9731
1227.70 302.9122
1227.80 302.8513
1227.90 302.7903
1228.00 302.7294
1228.10 302.6685
1228.20 302.6076
1228.30 302.5467
1228.40 302.4858
1228.50 302.4248
1228.60 302.3639
1228.70 302.303
1228.80 302.2421
1228.90 302.1812
1229.00 302.1203
1229.10 302.0594
1229.20 301.9984
1229.30 301.9375
1229.40 301.8766
1229.50 301.8157
1229.60 301.7548
1229.70 301.6939
1229.80 301.633
1229.90 301.572
1230.00 301.5111
1230.10 301.4502
1230.20 301.6421
1230.30 301.8972
1230.40 302.1522
1230.50 302.4073
1230.60 302.6624
1230.70 302.9175
1230.80 303.1725
1230.90 303.4276
1231.00 303.6827
1231.10 303.9378
1231.20 304.1928
1231.30 304.4479
1231.40 304.703
1231.50 304.9581
1231.60 305.2131
1231.70 305.4682
1231.80 305.7233
1231.90 305.9784
1232.00 306.2334
1232.10 306.4885
1232.20 306.7436
1232.30 306.9987
1232.40 307.2537
1232.50 307.5088
1232.60 307.7639
1232.70 308.019
1232.80 308.274
1232.90 308.5291
1233.00 308.7842
1233.10 309.0393
1233.20 309.2943
1233.30 309.5494
1233.40 309.8045
1233.50 310.0595
1233.60 310.3146
1233.70 310.5697
1233.80 310.8248
1233.90 311.0798
1234.00 311.3349
1234.10 311.59
1234.20 311.8451
1234.30 312.1001
1234.40 312.3552
1234.50 312.4657
1234.60 312.5142
1234.70 312.5627
1234.80 312.6112
1234.90 312.6597
1235.00 312.7082
1235.10 312.7567
1235.20 312.8052
1235.30 312.8537
1235.40 312.9022
1235.50 312.9507
1235.60 312.9992
1235.70 313.0477
1235.80 313.0962
1235.90 313.1447
1236.00 313.1932
1236.10 313.2417
1236.20 313.2902
1236.30 313.3386
1236.40 313.3871
1236.50 313.4356
1236.60 313.4841
1236.70 313.5326
1236.80 313.5811
1236.90 313.6296
1237.00 313.6781
1237.10 313.7266
1237.20 313.7751
1237.30 313.8236
1237.40 313.8721
1237.50 313.9206
1237.60 313.9691
1237.70 314.0176
1237.80 314.0661
1237.90 314.1146
1238.00 314.1631
1238.10 314.2116
1238.20 314.2601
1238.30 314.3086
1238.40 314.3571
1238.50 314.4056
1238.60 314.4541
1238.70 314.5026
1238.80 314.3333
1238.90 314.0706
1239.00 313.8079
1239.10 313.5452
1239.20 313.2826
1239.30 313.0199
1239.40 312.7572
1239.50 312.4945
1239.60 312.2318
1239.70 311.9692
1239.80 311.7065
1239.90 311.4438
1240.00 311.1811
1240.10 310.9185
1240.20 310.6558
1240.30 310.3931
1240.40 310.1304
1240.50 309.8677
1240.60 309.6051
1240.70 309.3424
1240.80 309.0797
1240.90 308.817
1241.00 308.5544
1241.10 308.2917
1241.20 308.029
1241.30 307.7663
1241.40 307.5036
1241.50 307.241
1241.60 306.9783
1241.70 306.7156
1241.80 306.4529
1241.90 306.1902
1242.00 305.9276
1242.10 305.6649
1242.20 305.4022
1242.30 305.1395
1242.40 304.8769
1242.50 304.6142
1242.60 304.3515
1242.70 304.0888
1242.80 303.8261
1242.90 303.5635
1243.00 303.3008
1243.10 303.2129
1243.20 303.1999
1243.30 303.1869
1243.40 303.1739
1243.50 303.1609
1243.60 303.1479
1243.70 303.1349
1243.80 303.1219
1243.90 303.109
1244.00 303.096
1244.10 303.083
1244.20 303.07
1244.30 303.057
1244.40 303.044
1244.50 303.031
1244.60 303.018
1244.70 303.005
1244.80 302.992
1244.90 302.979
1245.00 302.966
1245.10 302.9531
1245.20 302.9401
1245.30 302.9271
1245.40 302.9141
1245.50 302.9011
1245.60 302.8881
1245.70 302.8751
1245.80 302.8621
1245.90 302.8491
1246.00 302.8361
1246.10 302.8231
1246.20 302.8101
1246.30 302.7971
1246.40 302.7842
1246.50 302.7712
1246.60 302.7582
1246.70 302.7452
1246.80 302.7322
1246.90 302.7192
1247.00 302.7062
1247.10 302.6932
1247.20 302.6802
1247.30 302.6672
1247.40 302.5596
1247.50 302.3889
1247.60 302.2182
1247.70 302.0475
1247.80 301.8768
1247.90 301.7061
1248.00 301.5354
1248.10 301.3646
1248.20 301.1939
1248.30 301.0232
1248.40 300.8525
1248.50 300.6818
1248.60 300.5111
1248.70 300.3404
1248.80 300.1697
1248.90 299.999
1249.00 299.8283
1249.10 299.6576
1249.20 299.4869
1249.30 299.3161
1249.40 299.1454
1249.50 298.9747
1249.60 298.804
1249.70 298.6333
1249.80 298.4626
1249.90 298.2919
1250.00 298.1212
1250.10 297.9505
1250.20 297.7798
1250.30 297.6091
1250.40 297.4384
1250.50 297.2676
1250.60 297.0969
1250.70 296.9262
1250.80 296.7555
1250.90 296.5848
1251.00 296.4141
1251.10 296.2434
1251.20 296.0727
1251.30 295.902
1251.40 295.7313
1251.50 295.5606
1251.60 295.3899
1251.70 295.3719
1251.80 295.5067
1251.90 295.6416
1252.00 295.7764
1252.10 295.9112
1252.20 296.0461
1252.30 296.1809
1252.40 296.3157
1252.50 296.4505
1252.60 296.5854
1252.70 296.7202
1252.80 296.855
1252.90 296.9899
1253.00 297.1247
1253.10 297.2595
1253.20 297.3943
1253.30 297.5292
1253.40 297.664
1253.50 297.7988
1253.60 297.9337
1253.70 298.0685
1253.80 298.2033
1253.90 298.3382
1254.00 298.473
1254.10 298.6078
1254.20 298.7426
1254.30 298.8775
1254.40 299.0123
1254.50 299.1471
1254.60 299.282
1254.70 299.4168
1254.80 299.5516
1254.90 299.6864
1255.00 299.8213
1255.10 299.9561
1255.20 300.0909
1255.30 300.2258
1255.40 300.3606
1255.50 300.4954
1255.60 300.6303
1255.70 300.7651
1255.80 300.8999
1255.90 301.0347
1256.00 301.1069
1256.10 301.0852
1256.20 301.0635
1256.30 301.0417
1256.40 301.02
1256.50 300.9982
1256.60 300.9765
1256.70 300.9548
1256.80 300.933
1256.90 300.9113
1257.00 300.8896
1257.10 300.8678
1257.20 300.8461
1257.30 300.8243
1257.40 300.8026
1257.50 300.7809
1257.60 300.7591
1257.70 300.7374
1257.80 300.7156
1257.90 300.6939
1258.00 300.6722
1258.10 300.6504
1258.20 300.6287
1258.30 300.6069
1258.40 300.5852
1258.50 300.5635
1258.60 300.5417
1258.70 300.52
1258.80 300.4982
1258.90 300.4765
1259.00 300.4548
1259.10 300.433
1259.20 300.4113
1259.30 300.3896
1259.40 300.3678
1259.50 300.3461
1259.60 300.3243
1259.70 300.3026
1259.80 300.2809
1259.90 300.2591
1260.00 300.2374
1260.10 300.2156
1260.20 300.1939
1260.30 300.2745
1260.40 300.7642
1260.50 301.254
1260.60 301.7438
1260.70 302.2335
1260.80 302.7233
1260.90 303.213
1261.00 303.7028
1261.10 304.1926
1261.20 304.6823
1261.30 305.1721
1261.40 305.6619
1261.50 306.1516
1261.60 306.6414
1261.70 307.1312
1261.80 307.6209
1261.90 308.1107
1262.00 308.6004
1262.10 309.0902
1262.20 309.58
1262.30 310.0697
1262.40 310.5595
1262.50 311.0493
1262.60 311.539
1262.70 312.0288
1262.80 312.5185
1262.90 313.0083
1263.00 313.4981
1263.10 313.9878
1263.20 314.4776
1263.30 314.9674
1263.40 315.4571
1263.50 315.9469
1263.60 316.4367
1263.70 316.9264
1263.80 317.4162
1263.90 317.9059
1264.00 318.3957
1264.10 318.8855
1264.20 319.3752
1264.30 319.865
1264.40 320.3548
1264.50 320.8445
1264.60 321.321
1264.70 321.6778
1264.80 322.0346
1264.90 322.3914
1265.00 322.7482
1265.10 323.105
1265.20 323.4618
1265.30 323.8187
1265.40 324.1755
1265.50 324.5323
1265.60 324.8891
1265.70 325.2459
1265.80 325.6027
1265.90 325.9595
1266.00 326.3163
1266.10 326.6731
1266.20 327.0299
1266.30 327.3867
1266.40 327.7435
1266.50 328.1003
1266.60 328.4572
1266.70 328.814
1266.80 329.1708
1266.90 329.5276
1267.00 329.8844
1267.10 330.2412
1267.20 330.598
1267.30 330.9548
1267.40 331.3116
1267.50 331.6684
1267.60 332.0252
1267.70 332.382
1267.80 332.7389
1267.90 333.0957
1268.00 333.4525
1268.10 333.8093
1268.20 334.1661
1268.30 334.5229
1268.40 334.8797
1268.50 335.2365
1268.60 335.5933
1268.70 335.9501
1268.80 336.3069
1268.90 336.6637
1269.00 336.98
1269.10 337.2962
1269.20 337.6124
1269.30 337.9286
1269.40 338.2448
1269.50 338.5611
1269.60 338.8773
1269.70 339.1935
1269.80 339.5097
1269.90 339.8259
1270.00 340.1422
1270.10 340.4584
1270.20 340.7746
1270.30 341.0908
1270.40 341.407
1270.50 341.7233
1270.60 342.0395
1270.70 342.3557
1270.80 342.6719
1270.90 342.9881
1271.00 343.3044
1271.10 343.6206
1271.20 343.9368
1271.30 344.253
1271.40 344.5692
1271.50 344.8855
1271.60 345.2017
1271.70 345.5179
1271.80 345.8341
1271.90 346.1503
1272.00 346.4666
1272.10 346.7828
1272.20 347.099
1272.30 347.4152
1272.40 347.7314
1272.50 348.0477
1272.60 348.3639
1272.70 348.6801
1272.80 348.9963
1272.90 349.3125
1273.00 349.6288
1273.10 349.945
1273.20 350.2612
1273.30 350.5104
1273.40 350.7429
1273.50 350.9753
1273.60 351.2078
1273.70 351.4403
1273.80 351.6727
1273.90 351.9052
1274.00 352.1377
1274.10 352.3701
1274.20 352.6026
1274.30 352.8351
1274.40 353.0675
1274.50 353.3
1274.60 353.5324
1274.70 353.7649
1274.80 353.9974
1274.90 354.2298
1275.00 354.4623
1275.10 354.6948
1275.20 354.9272
1275.30 355.1597
1275.40 355.3922
1275.50 355.6246
1275.60 355.8571
1275.70 356.0895
1275.80 356.322
1275.90 356.5545
1276.00 356.7869
1276.10 357.0194
1276.20 357.2519
1276.30 357.4843
1276.40 357.7168
1276.50 357.9493
1276.60 358.1817
1276.70 358.4142
1276.80 358.6466
1276.90 358.8791
1277.00 359.1116
1277.10 359.344
1277.20 359.5765
1277.30 359.809
1277.40 360.0414
1277.50 360.2739
1277.60 360.4239
1277.70 360.519
1277.80 360.6142
1277.90 360.7093
1278.00 360.8044
1278.10 360.8995
1278.20 360.9946
1278.30 361.0897
1278.40 361.1848
1278.50 361.2799
1278.60 361.375
1278.70 361.4701
1278.80 361.5652
1278.90 361.6603
1279.00 361.7555
1279.10 361.8506
1279.20 361.9457
1279.30 362.0408
1279.40 362.1359
1279.50 362.231
1279.60 362.3261
1279.70 362.4212
1279.80 362.5163
1279.90 362.6114
1280.00 362.7065
1280.10 362.8016
1280.20 362.8968
1280.30 362.9919
1280.40 363.087
1280.50 363.1821
1280.60 363.2772
1280.70 363.3723
1280.80 363.4674
1280.90 363.5625
1281.00 363.6576
1281.10 363.7527
1281.20 363.8478
1281.30 363.9429
1281.40 364.038
1281.50 364.1332
1281.60 364.2283
1281.70 364.3234
1281.80 364.4185
1281.90 364.3826
1282.00 364.2156
1282.10 364.0487
1282.20 363.8818
1282.30 363.7148
1282.40 363.5479
1282.50 363.381
1282.60 363.214
1282.70 363.0471
1282.80 362.8802
1282.90 362.7132
1283.00 362.5463
1283.10 362.3794
1283.20 362.2124
1283.30 362.0455
1283.40 361.8786
1283.50 361.7116
1283.60 361.5447
1283.70 361.3778
1283.80 361.2108
1283.90 361.0439
1284.00 360.877
1284.10 360.71
1284.20 360.5431
1284.30 360.3762
1284.40 360.2092
1284.50 360.0423
1284.60 359.8754
1284.70 359.7084
1284.80 359.5415
1284.90 359.3746
1285.00 359.2076
1285.10 359.0407
1285.20 358.8737
1285.30 358.7068
1285.40 358.5399
1285.50 358.3729
1285.60 358.206
1285.70 358.0391
1285.80 357.8721
1285.90 357.7052
1286.00 357.5383
1286.10 357.3713
1286.20 357.3014
1286.30 357.4576
1286.40 357.6138
1286.50 357.77
1286.60 357.9262
1286.70 358.0824
1286.80 358.2387
1286.90 358.3949
1287.00 358.5511
1287.10 358.7073
1287.20 358.8635
1287.30 359.0197
1287.40 359.176
1287.50 359.3322
1287.60 359.4884
1287.70 359.6446
1287.80 359.8008
1287.90 359.957
1288.00 360.1133
1288.10 360.2695
1288.20 360.4257
1288.30 360.5819
1288.40 360.7381
1288.50 360.8943
1288.60 361.0506
1288.70 361.2068
1288.80 361.363
1288.90 361.5192
1289.00 361.6754
1289.10 361.8316
1289.20 361.9879
1289.30 362.1441
1289.40 362.3003
1289.50 362.4565
1289.60 362.6127
1289.70 362.7689
1289.80 362.9252
1289.90 363.0814
1290.00 363.2376
1290.10 363.3938
1290.20 363.55
1290.30 363.7062
1290.40 363.8625
1290.50 363.9877
1290.60 363.8339
1290.70 363.6801
1290.80 363.5263
1290.90 363.3725
1291.00 363.2187
1291.10 363.0649
1291.20 362.9111
1291.30 362.7573
1291.40 362.6036
1291.50 362.4498
1291.60 362.296
1291.70 362.1422
1291.80 361.9884
1291.90 361.8346
1292.00 361.6808
1292.10 361.527
1292.20 361.3732
1292.30 361.2194
1292.40 361.0656
1292.50 360.9118
1292.60 360.7581
1292.70 360.6043
1292.80 360.4505
1292.90 360.2967
1293.00 360.1429
1293.10 359.9891
1293.20 359.8353
1293.30 359.6815
1293.40 359.5277
1293.50 359.3739
1293.60 359.2201
1293.70 359.0663
1293.80 358.9125
1293.90 358.7588
1294.00 358.605
1294.10 358.4512
1294.20 358.2974
1294.30 358.1436
1294.40 357.9898
1294.50 357.836
1294.60 357.6822
1294.70 357.5284
1294.80 357.3746
1294.90 357.4344
1295.00 357.518
1295.10 357.6015
1295.20 357.6851
1295.30 357.7686
1295.40 357.8522
1295.50 357.9357
1295.60 358.0193
1295.70 358.1028
1295.80 358.1863
1295.90 358.2699
1296.00 358.3534
1296.10 358.437
1296.20 358.5205
1296.30 358.6041
1296.40 358.6876
1296.50 358.7712
1296.60 358.8547
1296.70 358.9383
1296.80 359.0218
1296.90 359.1053
1297.00 359.1889
1297.10 359.2724
1297.20 359.356
1297.30 359.4395
1297.40 359.5231
1297.50 359.6066
1297.60 359.6902
1297.70 359.7737
1297.80 359.8573
1297.90 359.9408
1298.00 360.0243
1298.10 360.1079
1298.20 360.1914
1298.30 360.275
1298.40 360.3585
1298.50 360.4421
1298.60 360.5256
1298.70 360.6092
1298.80 360.6927
1298.90 360.7762
1299.00 360.8598
1299.10 360.9433
1299.20 360.7899
1299.30 360.5349
1299.40 360.2799
1299.50 360.0249
1299.60 359.7699
1299.70 359.5149
1299.80 359.2599
1299.90 359.0049
