# Version 2.1 - nm, norm@500 to 1, cut digits
# Wavelength(nm)  Flambda(ergs/cm^s/s/nm)
300.00 1.063634e-95
300.10 1.063634e-95
300.20 1.063634e-95
300.30 1.063634e-95
300.40 1.063634e-95
300.50 1.063634e-95
300.60 1.063634e-95
300.70 1.063634e-95
300.80 1.063634e-95
300.90 1.063634e-95
301.00 1.063634e-95
301.10 1.063634e-95
301.20 1.063634e-95
301.30 1.063634e-95
301.40 1.063634e-95
301.50 1.063634e-95
301.60 1.063634e-95
301.70 1.063634e-95
301.80 1.063634e-95
301.90 1.063634e-95
302.00 1.063634e-95
302.10 1.063634e-95
302.20 1.063634e-95
302.30 1.063634e-95
302.40 1.063634e-95
302.50 1.063634e-95
302.60 1.063634e-95
302.70 1.063634e-95
302.80 1.063634e-95
302.90 1.063634e-95
303.00 1.063634e-95
303.10 1.063634e-95
303.20 1.063634e-95
303.30 1.063634e-95
303.40 1.063634e-95
303.50 1.063634e-95
303.60 1.063634e-95
303.70 1.063634e-95
303.80 1.063634e-95
303.90 1.063634e-95
304.00 1.063634e-95
304.10 1.063634e-95
304.20 1.063634e-95
304.30 1.063634e-95
304.40 1.063634e-95
304.50 1.063634e-95
304.60 1.063634e-95
304.70 1.063634e-95
304.80 1.063634e-95
304.90 1.063634e-95
305.00 1.063634e-95
305.10 1.063634e-95
305.20 1.063634e-95
305.30 1.063634e-95
305.40 1.063634e-95
305.50 1.063634e-95
305.60 1.063634e-95
305.70 1.063634e-95
305.80 1.063634e-95
305.90 1.063634e-95
306.00 1.063634e-95
306.10 1.063634e-95
306.20 1.063634e-95
306.30 1.063634e-95
306.40 1.063634e-95
306.50 1.063634e-95
306.60 1.063634e-95
306.70 1.063634e-95
306.80 1.063634e-95
306.90 1.063634e-95
307.00 1.063634e-95
307.10 1.063634e-95
307.20 1.063634e-95
307.30 1.063634e-95
307.40 1.063634e-95
307.50 1.063634e-95
307.60 1.063634e-95
307.70 1.063634e-95
307.80 1.063634e-95
307.90 1.063634e-95
308.00 1.063634e-95
308.10 1.063634e-95
308.20 1.063634e-95
308.30 1.063634e-95
308.40 1.063634e-95
308.50 1.063634e-95
308.60 1.063634e-95
308.70 1.063634e-95
308.80 1.063634e-95
308.90 1.063634e-95
309.00 1.063634e-95
309.10 1.063634e-95
309.20 1.063634e-95
309.30 1.063634e-95
309.40 1.063634e-95
309.50 1.063634e-95
309.60 1.063634e-95
309.70 1.063634e-95
309.80 1.063634e-95
309.90 1.063634e-95
310.00 1.063634e-95
310.10 1.063634e-95
310.20 1.063634e-95
310.30 1.063634e-95
310.40 1.063634e-95
310.50 1.063634e-95
310.60 1.063634e-95
310.70 1.063634e-95
310.80 1.063634e-95
310.90 1.063634e-95
311.00 1.063634e-95
311.10 1.063634e-95
311.20 1.063634e-95
311.30 1.063634e-95
311.40 1.063634e-95
311.50 1.063634e-95
311.60 1.063634e-95
311.70 1.063634e-95
311.80 1.063634e-95
311.90 1.063634e-95
312.00 1.063634e-95
312.10 1.063634e-95
312.20 1.063634e-95
312.30 1.063634e-95
312.40 1.063634e-95
312.50 1.063634e-95
312.60 1.063634e-95
312.70 1.063634e-95
312.80 1.063634e-95
312.90 1.063634e-95
313.00 1.063634e-95
313.10 1.063634e-95
313.20 1.063634e-95
313.30 1.063634e-95
313.40 1.063634e-95
313.50 1.063634e-95
313.60 1.063634e-95
313.70 1.063634e-95
313.80 1.063634e-95
313.90 1.063634e-95
314.00 1.063634e-95
314.10 1.063634e-95
314.20 1.063634e-95
314.30 1.063634e-95
314.40 1.063634e-95
314.50 1.063634e-95
314.60 1.063634e-95
314.70 1.063634e-95
314.80 1.063634e-95
314.90 1.063634e-95
315.00 1.063634e-95
315.10 1.063634e-95
315.20 1.063634e-95
315.30 1.063634e-95
315.40 1.063634e-95
315.50 1.063634e-95
315.60 1.063634e-95
315.70 1.063634e-95
315.80 1.063634e-95
315.90 1.063634e-95
316.00 1.063634e-95
316.10 1.063634e-95
316.20 1.063634e-95
316.30 1.063634e-95
316.40 1.063634e-95
316.50 1.063634e-95
316.60 1.063634e-95
316.70 1.063634e-95
316.80 1.063634e-95
316.90 1.063634e-95
317.00 1.063634e-95
317.10 1.063634e-95
317.20 1.063634e-95
317.30 1.063634e-95
317.40 1.063634e-95
317.50 1.063634e-95
317.60 1.063634e-95
317.70 1.063634e-95
317.80 1.063634e-95
317.90 1.063634e-95
318.00 1.063634e-95
318.10 1.063634e-95
318.20 1.063634e-95
318.30 1.063634e-95
318.40 1.063634e-95
318.50 1.063634e-95
318.60 1.063634e-95
318.70 1.063634e-95
318.80 1.063634e-95
318.90 1.063634e-95
319.00 1.063634e-95
319.10 1.063634e-95
319.20 1.063634e-95
319.30 1.063634e-95
319.40 1.063634e-95
319.50 1.063634e-95
319.60 1.063634e-95
319.70 1.063634e-95
319.80 1.063634e-95
319.90 1.063634e-95
320.00 1.063634e-95
320.10 1.063634e-95
320.20 1.063634e-95
320.30 1.063634e-95
320.40 1.063634e-95
320.50 1.063634e-95
320.60 1.063634e-95
320.70 1.063634e-95
320.80 1.063634e-95
320.90 1.063634e-95
321.00 1.063634e-95
321.10 1.063634e-95
321.20 1.063634e-95
321.30 1.063634e-95
321.40 1.063634e-95
321.50 1.063634e-95
321.60 1.063634e-95
321.70 1.063634e-95
321.80 1.063634e-95
321.90 1.063634e-95
322.00 1.063634e-95
322.10 1.063634e-95
322.20 1.063634e-95
322.30 1.063634e-95
322.40 1.063634e-95
322.50 1.063634e-95
322.60 1.063634e-95
322.70 1.063634e-95
322.80 1.063634e-95
322.90 1.063634e-95
323.00 1.063634e-95
323.10 1.063634e-95
323.20 1.063634e-95
323.30 1.063634e-95
323.40 1.063634e-95
323.50 1.063634e-95
323.60 1.063634e-95
323.70 1.063634e-95
323.80 1.063634e-95
323.90 1.063634e-95
324.00 1.063634e-95
324.10 1.063634e-95
324.20 1.063634e-95
324.30 1.063634e-95
324.40 1.063634e-95
324.50 1.063634e-95
324.60 1.063634e-95
324.70 1.063634e-95
324.80 1.063634e-95
324.90 1.063634e-95
325.00 1.063634e-95
325.10 1.063634e-95
325.20 1.063634e-95
325.30 1.063634e-95
325.40 1.063634e-95
325.50 1.063634e-95
325.60 1.063634e-95
325.70 1.063634e-95
325.80 1.063634e-95
325.90 1.063634e-95
326.00 1.063634e-95
326.10 1.063634e-95
326.20 1.063634e-95
326.30 1.063634e-95
326.40 1.063634e-95
326.50 1.063634e-95
326.60 1.063634e-95
326.70 1.063634e-95
326.80 1.063634e-95
326.90 1.063634e-95
327.00 1.063634e-95
327.10 1.063634e-95
327.20 1.063634e-95
327.30 1.063634e-95
327.40 1.063634e-95
327.50 1.063634e-95
327.60 1.063634e-95
327.70 1.063634e-95
327.80 1.063634e-95
327.90 1.063634e-95
328.00 1.063634e-95
328.10 1.063634e-95
328.20 1.063634e-95
328.30 1.063634e-95
328.40 1.063634e-95
328.50 1.063634e-95
328.60 1.063634e-95
328.70 1.063634e-95
328.80 1.063634e-95
328.90 1.063634e-95
329.00 1.063634e-95
329.10 1.063634e-95
329.20 1.063634e-95
329.30 1.063634e-95
329.40 1.063634e-95
329.50 1.063634e-95
329.60 1.063634e-95
329.70 1.063634e-95
329.80 1.063634e-95
329.90 1.063634e-95
330.00 1.063634e-95
330.10 1.063634e-95
330.20 1.063634e-95
330.30 1.063634e-95
330.40 1.063634e-95
330.50 1.063634e-95
330.60 1.063634e-95
330.70 1.063634e-95
330.80 1.063634e-95
330.90 1.063634e-95
331.00 1.063634e-95
331.10 1.063634e-95
331.20 1.063634e-95
331.30 1.063634e-95
331.40 1.063634e-95
331.50 1.063634e-95
331.60 1.063634e-95
331.70 1.063634e-95
331.80 1.063634e-95
331.90 1.063634e-95
332.00 1.063634e-95
332.10 1.063634e-95
332.20 1.063634e-95
332.30 1.063634e-95
332.40 1.063634e-95
332.50 1.063634e-95
332.60 1.063634e-95
332.70 1.063634e-95
332.80 1.063634e-95
332.90 1.063634e-95
333.00 1.063634e-95
333.10 1.063634e-95
333.20 1.063634e-95
333.30 1.063634e-95
333.40 1.063634e-95
333.50 1.063634e-95
333.60 1.063634e-95
333.70 1.063634e-95
333.80 1.063634e-95
333.90 1.063634e-95
334.00 1.063634e-95
334.10 1.063634e-95
334.20 1.063634e-95
334.30 1.063634e-95
334.40 1.063634e-95
334.50 1.063634e-95
334.60 1.063634e-95
334.70 1.063634e-95
334.80 1.063634e-95
334.90 1.063634e-95
335.00 1.063634e-95
335.10 1.063634e-95
335.20 1.063634e-95
335.30 1.063634e-95
335.40 1.063634e-95
335.50 1.063634e-95
335.60 1.063634e-95
335.70 1.063634e-95
335.80 1.063634e-95
335.90 1.063634e-95
336.00 1.063634e-95
336.10 1.063634e-95
336.20 1.063634e-95
336.30 1.063634e-95
336.40 1.063634e-95
336.50 1.063634e-95
336.60 1.063634e-95
336.70 1.063634e-95
336.80 1.063634e-95
336.90 1.063634e-95
337.00 1.063634e-95
337.10 1.063634e-95
337.20 1.063634e-95
337.30 1.063634e-95
337.40 1.063634e-95
337.50 1.063634e-95
337.60 1.063634e-95
337.70 1.063634e-95
337.80 1.063634e-95
337.90 1.063634e-95
338.00 1.063634e-95
338.10 1.063634e-95
338.20 1.063634e-95
338.30 1.063634e-95
338.40 1.063634e-95
338.50 1.063634e-95
338.60 1.063634e-95
338.70 1.063634e-95
338.80 1.063634e-95
338.90 1.063634e-95
339.00 1.063634e-95
339.10 1.063634e-95
339.20 1.063634e-95
339.30 1.063634e-95
339.40 1.063634e-95
339.50 1.063634e-95
339.60 1.063634e-95
339.70 1.063634e-95
339.80 1.063634e-95
339.90 1.063634e-95
340.00 1.063634e-95
340.10 1.063634e-95
340.20 1.063634e-95
340.30 1.063634e-95
340.40 1.063634e-95
340.50 1.063634e-95
340.60 1.063634e-95
340.70 1.063634e-95
340.80 1.063634e-95
340.90 1.063634e-95
341.00 1.063634e-95
341.10 1.063634e-95
341.20 1.063634e-95
341.30 1.063634e-95
341.40 1.063634e-95
341.50 1.063634e-95
341.60 1.063634e-95
341.70 1.063634e-95
341.80 1.063634e-95
341.90 1.063634e-95
342.00 1.063634e-95
342.10 1.063634e-95
342.20 1.063634e-95
342.30 1.063634e-95
342.40 1.063634e-95
342.50 1.063634e-95
342.60 1.063634e-95
342.70 1.063634e-95
342.80 1.063634e-95
342.90 1.063634e-95
343.00 1.063634e-95
343.10 1.063634e-95
343.20 1.063634e-95
343.30 1.063634e-95
343.40 1.063634e-95
343.50 1.063634e-95
343.60 1.063634e-95
343.70 1.063634e-95
343.80 1.063634e-95
343.90 1.063634e-95
344.00 1.063634e-95
344.10 1.063634e-95
344.20 1.063634e-95
344.30 1.063634e-95
344.40 1.063634e-95
344.50 1.063634e-95
344.60 1.063634e-95
344.70 1.063634e-95
344.80 1.063634e-95
344.90 1.063634e-95
345.00 1.063634e-95
345.10 1.063634e-95
345.20 1.063634e-95
345.30 1.063634e-95
345.40 1.063634e-95
345.50 1.063634e-95
345.60 1.063634e-95
345.70 1.063634e-95
345.80 1.063634e-95
345.90 1.063634e-95
346.00 1.063634e-95
346.10 1.063634e-95
346.20 1.063634e-95
346.30 1.063634e-95
346.40 1.063634e-95
346.50 1.063634e-95
346.60 1.063634e-95
346.70 1.063634e-95
346.80 1.063634e-95
346.90 1.063634e-95
347.00 1.063634e-95
347.10 1.063634e-95
347.20 1.063634e-95
347.30 1.063634e-95
347.40 1.063634e-95
347.50 1.063634e-95
347.60 1.063634e-95
347.70 1.063634e-95
347.80 1.063634e-95
347.90 1.063634e-95
348.00 1.063634e-95
348.10 1.063634e-95
348.20 1.063634e-95
348.30 1.063634e-95
348.40 1.063634e-95
348.50 1.063634e-95
348.60 1.063634e-95
348.70 1.063634e-95
348.80 1.063634e-95
348.90 1.063634e-95
349.00 1.063634e-95
349.10 1.063634e-95
349.20 1.063634e-95
349.30 1.063634e-95
349.40 1.063634e-95
349.50 1.063634e-95
349.60 1.063634e-95
349.70 1.063634e-95
349.80 1.063634e-95
349.90 1.063634e-95
350.00 1.063634e-95
350.10 1.063634e-95
350.20 1.063634e-95
350.30 1.063634e-95
350.40 1.063634e-95
350.50 1.063634e-95
350.60 1.063634e-95
350.70 1.063634e-95
350.80 1.063634e-95
350.90 1.063634e-95
351.00 1.063634e-95
351.10 1.063634e-95
351.20 1.063634e-95
351.30 1.063634e-95
351.40 1.063634e-95
351.50 1.063634e-95
351.60 1.063634e-95
351.70 1.063634e-95
351.80 1.063634e-95
351.90 1.063634e-95
352.00 1.063634e-95
352.10 1.063634e-95
352.20 1.063634e-95
352.30 1.063634e-95
352.40 1.063634e-95
352.50 1.063634e-95
352.60 1.063634e-95
352.70 1.063634e-95
352.80 1.063634e-95
352.90 1.063634e-95
353.00 1.063634e-95
353.10 1.063634e-95
353.20 1.063634e-95
353.30 1.063634e-95
353.40 1.063634e-95
353.50 1.063634e-95
353.60 1.063634e-95
353.70 1.063634e-95
353.80 1.063634e-95
353.90 1.063634e-95
354.00 1.063634e-95
354.10 1.063634e-95
354.20 1.063634e-95
354.30 1.063634e-95
354.40 1.063634e-95
354.50 1.063634e-95
354.60 1.063634e-95
354.70 1.063634e-95
354.80 1.063634e-95
354.90 1.063634e-95
355.00 1.063634e-95
355.10 1.063634e-95
355.20 1.063634e-95
355.30 1.063634e-95
355.40 1.063634e-95
355.50 1.063634e-95
355.60 1.063634e-95
355.70 1.063634e-95
355.80 1.063634e-95
355.90 1.063634e-95
356.00 1.063634e-95
356.10 1.063634e-95
356.20 1.063634e-95
356.30 1.063634e-95
356.40 1.063634e-95
356.50 1.063634e-95
356.60 1.063634e-95
356.70 1.063634e-95
356.80 1.063634e-95
356.90 1.063634e-95
357.00 1.063634e-95
357.10 1.063634e-95
357.20 1.063634e-95
357.30 1.063634e-95
357.40 1.063634e-95
357.50 1.063634e-95
357.60 1.063634e-95
357.70 1.063634e-95
357.80 1.063634e-95
357.90 1.063634e-95
358.00 1.063634e-95
358.10 1.063634e-95
358.20 1.063634e-95
358.30 1.063634e-95
358.40 1.063634e-95
358.50 1.063634e-95
358.60 1.063634e-95
358.70 1.063634e-95
358.80 1.063634e-95
358.90 1.063634e-95
359.00 1.063634e-95
359.10 1.063634e-95
359.20 1.063634e-95
359.30 1.063634e-95
359.40 1.063634e-95
359.50 1.063634e-95
359.60 1.063634e-95
359.70 1.063634e-95
359.80 1.063634e-95
359.90 1.063634e-95
360.00 1.063634e-95
360.10 1.063634e-95
360.20 1.063634e-95
360.30 1.063634e-95
360.40 1.063634e-95
360.50 1.063634e-95
360.60 1.063634e-95
360.70 1.063634e-95
360.80 1.063634e-95
360.90 1.063634e-95
361.00 1.063634e-95
361.10 1.063634e-95
361.20 1.063634e-95
361.30 1.063634e-95
361.40 1.063634e-95
361.50 1.063634e-95
361.60 1.063634e-95
361.70 1.063634e-95
361.80 1.063634e-95
361.90 1.063634e-95
362.00 1.063634e-95
362.10 1.063634e-95
362.20 1.063634e-95
362.30 1.063634e-95
362.40 1.063634e-95
362.50 1.063634e-95
362.60 1.063634e-95
362.70 1.063634e-95
362.80 1.063634e-95
362.90 1.063634e-95
363.00 1.063634e-95
363.10 1.063634e-95
363.20 1.063634e-95
363.30 1.063634e-95
363.40 1.063634e-95
363.50 1.063634e-95
363.60 1.063634e-95
363.70 1.063634e-95
363.80 1.063634e-95
363.90 1.063634e-95
364.00 1.063634e-95
364.10 1.063634e-95
364.20 1.063634e-95
364.30 1.063634e-95
364.40 1.063634e-95
364.50 1.063634e-95
364.60 1.063634e-95
364.70 1.063634e-95
364.80 1.063634e-95
364.90 1.063634e-95
365.00 1.063634e-95
365.10 1.063634e-95
365.20 1.063634e-95
365.30 1.063634e-95
365.40 1.063634e-95
365.50 1.063634e-95
365.60 1.063634e-95
365.70 1.063634e-95
365.80 1.063634e-95
365.90 1.063634e-95
366.00 1.063634e-95
366.10 1.063634e-95
366.20 1.063634e-95
366.30 1.063634e-95
366.40 1.063634e-95
366.50 1.063634e-95
366.60 1.063634e-95
366.70 1.063634e-95
366.80 1.063634e-95
366.90 1.063634e-95
367.00 1.063634e-95
367.10 1.063634e-95
367.20 1.063634e-95
367.30 1.063634e-95
367.40 1.063634e-95
367.50 1.063634e-95
367.60 1.063634e-95
367.70 1.063634e-95
367.80 1.063634e-95
367.90 1.063634e-95
368.00 1.063634e-95
368.10 1.063634e-95
368.20 1.063634e-95
368.30 1.063634e-95
368.40 1.063634e-95
368.50 1.063634e-95
368.60 1.063634e-95
368.70 1.063634e-95
368.80 1.063634e-95
368.90 1.063634e-95
369.00 1.063634e-95
369.10 1.063634e-95
369.20 1.063634e-95
369.30 1.063634e-95
369.40 1.063634e-95
369.50 1.063634e-95
369.60 1.063634e-95
369.70 1.063634e-95
369.80 1.063634e-95
369.90 1.063634e-95
370.00 1.063634e-95
370.10 1.063634e-95
370.20 1.063634e-95
370.30 1.063634e-95
370.40 1.063634e-95
370.50 1.063634e-95
370.60 1.063634e-95
370.70 1.063634e-95
370.80 1.063634e-95
370.90 1.063634e-95
371.00 1.063634e-95
371.10 1.063634e-95
371.20 1.063634e-95
371.30 1.063634e-95
371.40 1.063634e-95
371.50 1.063634e-95
371.60 1.063634e-95
371.70 1.063634e-95
371.80 1.063634e-95
371.90 1.063634e-95
372.00 1.063634e-95
372.10 1.063634e-95
372.20 1.063634e-95
372.30 1.063634e-95
372.40 1.063634e-95
372.50 1.063634e-95
372.60 1.063634e-95
372.70 1.063634e-95
372.80 1.063634e-95
372.90 1.063634e-95
373.00 1.063634e-95
373.10 1.063634e-95
373.20 1.063634e-95
373.30 1.063634e-95
373.40 1.063634e-95
373.50 1.063634e-95
373.60 1.063634e-95
373.70 1.063634e-95
373.80 1.063634e-95
373.90 1.063634e-95
374.00 1.063634e-95
374.10 1.063634e-95
374.20 1.063634e-95
374.30 1.063634e-95
374.40 1.063634e-95
374.50 1.063634e-95
374.60 1.063634e-95
374.70 1.063634e-95
374.80 1.063634e-95
374.90 1.063634e-95
375.00 1.063634e-95
375.10 1.063634e-95
375.20 1.063634e-95
375.30 1.063634e-95
375.40 1.063634e-95
375.50 1.063634e-95
375.60 1.063634e-95
375.70 1.063634e-95
375.80 1.063634e-95
375.90 1.063634e-95
376.00 1.063634e-95
376.10 1.063634e-95
376.20 1.063634e-95
376.30 1.063634e-95
376.40 1.063634e-95
376.50 1.063634e-95
376.60 1.063634e-95
376.70 1.063634e-95
376.80 1.063634e-95
376.90 1.063634e-95
377.00 1.063634e-95
377.10 1.063634e-95
377.20 1.063634e-95
377.30 1.063634e-95
377.40 1.063634e-95
377.50 1.063634e-95
377.60 1.063634e-95
377.70 1.063634e-95
377.80 1.063634e-95
377.90 1.063634e-95
378.00 1.063634e-95
378.10 1.063634e-95
378.20 1.063634e-95
378.30 1.063634e-95
378.40 1.063634e-95
378.50 1.063634e-95
378.60 1.063634e-95
378.70 1.063634e-95
378.80 1.063634e-95
378.90 1.063634e-95
379.00 1.063634e-95
379.10 1.063634e-95
379.20 1.063634e-95
379.30 1.063634e-95
379.40 1.063634e-95
379.50 1.063634e-95
379.60 1.063634e-95
379.70 1.063634e-95
379.80 1.063634e-95
379.90 1.063634e-95
380.00 1.063634e-95
380.10 1.063634e-95
380.20 1.063634e-95
380.30 1.063634e-95
380.40 1.063634e-95
380.50 1.063634e-95
380.60 1.063634e-95
380.70 1.063634e-95
380.80 1.063634e-95
380.90 1.063634e-95
381.00 1.063634e-95
381.10 1.063634e-95
381.20 1.063634e-95
381.30 1.063634e-95
381.40 1.063634e-95
381.50 1.063634e-95
381.60 1.063634e-95
381.70 1.063634e-95
381.80 1.063634e-95
381.90 1.063634e-95
382.00 1.063634e-95
382.10 1.063634e-95
382.20 1.063634e-95
382.30 1.063634e-95
382.40 1.063634e-95
382.50 1.063634e-95
382.60 1.063634e-95
382.70 1.063634e-95
382.80 1.063634e-95
382.90 1.063634e-95
383.00 1.063634e-95
383.10 1.063634e-95
383.20 1.063634e-95
383.30 1.063634e-95
383.40 1.063634e-95
383.50 1.063634e-95
383.60 1.063634e-95
383.70 1.063634e-95
383.80 1.063634e-95
383.90 1.063634e-95
384.00 1.063634e-95
384.10 1.063634e-95
384.20 1.063634e-95
384.30 1.063634e-95
384.40 1.063634e-95
384.50 1.063634e-95
384.60 1.063634e-95
384.70 1.063634e-95
384.80 1.063634e-95
384.90 1.063634e-95
385.00 1.063634e-95
385.10 1.063634e-95
385.20 1.063634e-95
385.30 1.063634e-95
385.40 1.063634e-95
385.50 1.063634e-95
385.60 1.063634e-95
385.70 1.063634e-95
385.80 1.063634e-95
385.90 1.063634e-95
386.00 1.063634e-95
386.10 1.063634e-95
386.20 1.063634e-95
386.30 1.063634e-95
386.40 1.063634e-95
386.50 1.063634e-95
386.60 1.063634e-95
386.70 1.063634e-95
386.80 1.063634e-95
386.90 1.063634e-95
387.00 1.063634e-95
387.10 1.063634e-95
387.20 1.063634e-95
387.30 1.063634e-95
387.40 1.063634e-95
387.50 1.063634e-95
387.60 1.063634e-95
387.70 1.063634e-95
387.80 1.063634e-95
387.90 1.063634e-95
388.00 1.063634e-95
388.10 1.063634e-95
388.20 1.063634e-95
388.30 1.063634e-95
388.40 1.063634e-95
388.50 1.063634e-95
388.60 1.063634e-95
388.70 1.063634e-95
388.80 1.063634e-95
388.90 1.063634e-95
389.00 1.063634e-95
389.10 1.063634e-95
389.20 1.063634e-95
389.30 1.063634e-95
389.40 1.063634e-95
389.50 1.063634e-95
389.60 1.063634e-95
389.70 1.063634e-95
389.80 1.063634e-95
389.90 1.063634e-95
390.00 1.063634e-95
390.10 1.063634e-95
390.20 1.063634e-95
390.30 1.063634e-95
390.40 1.063634e-95
390.50 1.063634e-95
390.60 1.063634e-95
390.70 1.063634e-95
390.80 1.063634e-95
390.90 1.063634e-95
391.00 1.063634e-95
391.10 1.063634e-95
391.20 1.063634e-95
391.30 1.063634e-95
391.40 1.063634e-95
391.50 1.063634e-95
391.60 1.063634e-95
391.70 1.063634e-95
391.80 1.063634e-95
391.90 1.063634e-95
392.00 1.063634e-95
392.10 1.063634e-95
392.20 1.063634e-95
392.30 1.063634e-95
392.40 1.063634e-95
392.50 1.063634e-95
392.60 1.063634e-95
392.70 1.063634e-95
392.80 1.063634e-95
392.90 1.063634e-95
393.00 1.063634e-95
393.10 1.063634e-95
393.20 1.063634e-95
393.30 1.063634e-95
393.40 1.063634e-95
393.50 1.063634e-95
393.60 1.063634e-95
393.70 1.063634e-95
393.80 1.063634e-95
393.90 1.063634e-95
394.00 1.063634e-95
394.10 1.063634e-95
394.20 1.063634e-95
394.30 1.063634e-95
394.40 1.063634e-95
394.50 1.063634e-95
394.60 1.063634e-95
394.70 1.063634e-95
394.80 1.063634e-95
394.90 1.063634e-95
395.00 1.052997e-95
395.10 1.042361e-95
395.20 1.031725e-95
395.30 1.021088e-95
395.40 1.010452e-95
395.50 9.998157e-96
395.60 9.891794e-96
395.70 9.78543e-96
395.80 9.679067e-96
395.90 9.572703e-96
396.00 9.46634e-96
396.10 9.359977e-96
396.20 9.253613e-96
396.30 9.14725e-96
396.40 9.040887e-96
396.50 8.934523e-96
396.60 8.82816e-96
396.70 8.721796e-96
396.80 8.615433e-96
396.90 8.50907e-96
397.00 8.402706e-96
397.10 8.296343e-96
397.20 8.18998e-96
397.30 8.083616e-96
397.40 7.977253e-96
397.50 7.870889e-96
397.60 7.764526e-96
397.70 0.002541169
397.80 0.0136763
397.90 0.03194318
398.00 0.05329735
398.10 0.0720354
398.20 0.08336678
398.30 0.08402468
398.40 0.08402468
398.50 0.08402468
398.60 0.08402468
398.70 0.08402468
398.80 0.08402468
398.90 0.08402468
399.00 0.08743519
399.10 0.105867
399.20 0.1355241
399.30 0.1709041
399.40 0.2073507
399.50 0.2420575
399.60 0.2730835
399.70 0.3002421
399.80 0.3265011
399.90 0.3553407
400.00 0.3880283
400.10 0.4233715
400.20 0.4580974
400.30 0.4888557
400.40 0.5143534
400.50 0.5351174
400.60 0.552647
400.70 0.5696951
400.80 0.5891762
400.90 0.6129079
401.00 0.6417377
401.10 0.6753529
401.20 0.7117682
401.30 0.7470977
401.40 0.7766469
401.50 0.7963672
401.60 0.8040341
401.70 0.8040341
401.80 0.8040341
401.90 0.8040341
402.00 0.8040341
402.10 0.8040341
402.20 0.8040341
402.30 0.8048562
402.40 0.8224425
402.50 0.8562326
402.60 0.9016242
402.70 0.9517059
402.80 1.000379
402.90 1.043212
403.00 1.077317
403.10 1.10372
403.20 1.126531
403.30 1.149267
403.40 1.173179
403.50 1.197901
403.60 1.223497
403.70 1.249462
403.80 1.273204
403.90 1.292284
404.00 1.305184
404.10 1.311606
404.20 1.311969
404.30 1.311969
404.40 1.311969
404.50 1.311969
404.60 1.311969
404.70 1.311969
404.80 1.311969
404.90 1.311969
405.00 1.311969
405.10 1.311969
405.20 1.311969
405.30 1.311969
405.40 1.311969
405.50 1.311969
405.60 1.311969
405.70 1.313955
405.80 1.322629
405.90 1.336363
406.00 1.351646
406.10 1.364487
406.20 1.371305
406.30 1.371305
406.40 1.371305
406.50 1.371305
406.60 1.371305
406.70 1.371305
406.80 1.371305
406.90 1.371305
407.00 1.371305
407.10 1.371305
407.20 1.371305
407.30 1.371305
407.40 1.371305
407.50 1.371305
407.60 1.371305
407.70 1.368764
407.80 1.357629
407.90 1.339362
408.00 1.318008
408.10 1.299269
408.20 1.287938
408.30 1.28728
408.40 1.28728
408.50 1.28728
408.60 1.28728
408.70 1.2964
408.80 1.311423
408.90 1.328202
409.00 1.339784
409.10 1.332045
409.20 1.308244
409.30 1.274663
409.40 1.238217
409.50 1.20351
409.60 1.172484
409.70 1.145326
409.80 1.119066
409.90 1.090227
410.00 1.057539
410.10 1.022196
410.20 0.9874702
410.30 0.9567119
410.40 0.9363041
410.50 0.926684
410.60 0.9252166
410.70 0.9263832
410.80 0.9248917
410.90 0.9174085
411.00 0.9019959
411.10 0.8791212
411.20 0.8523965
411.30 0.8274272
411.40 0.8100019
411.50 0.8048926
411.60 0.8142401
411.70 0.8318193
411.80 0.8474802
411.90 0.8590794
412.00 0.8652095
412.10 0.8655946
412.20 0.8655946
412.30 0.8647724
412.40 0.8471862
412.50 0.8133961
412.60 0.7680045
412.70 0.7179228
412.80 0.6692501
412.90 0.6264169
413.00 0.5923117
413.10 0.5689605
413.20 0.5518694
413.30 0.5350116
413.40 0.5140786
413.50 0.4893565
413.60 0.4637606
413.70 0.4377961
413.80 0.4140535
413.90 0.394974
414.00 0.3820739
414.10 0.3756519
414.20 0.3752892
414.30 0.3752892
414.40 0.3752892
414.50 0.3752892
414.60 0.3752892
414.70 0.3752892
414.80 0.3752892
414.90 0.3752892
415.00 0.3752892
415.10 0.3752892
415.20 0.3752892
415.30 0.3752892
415.40 0.3752892
415.50 0.3752892
415.60 0.3752892
415.70 0.3733025
415.80 0.3646291
415.90 0.3508946
416.00 0.3356122
416.10 0.3227703
416.20 0.3159529
416.30 0.3159529
416.40 0.3159529
416.50 0.3159529
416.60 0.3159529
416.70 0.3159529
416.80 0.3159529
416.90 0.3159529
417.00 0.3159529
417.10 0.3159529
417.20 0.3159529
417.30 0.3159529
417.40 0.3159529
417.50 0.3159529
417.60 0.3216291
417.70 0.3374103
417.80 0.3606919
417.90 0.389097
418.00 0.4197416
418.10 0.4494377
418.20 0.4764743
418.30 0.5021803
418.40 0.5302289
418.50 0.5645152
418.60 0.6083314
418.70 0.6535624
418.80 0.7002611
418.90 0.7465075
419.00 0.7896305
419.10 0.8275178
419.20 0.857873
419.30 0.8775057
419.40 0.8828231
419.50 0.8828231
419.60 0.8828231
419.70 0.8828231
419.80 0.8828231
419.90 0.8828231
420.00 0.8828231
420.10 0.8828231
420.20 0.8836229
420.30 0.9004214
420.40 0.9278053
420.50 0.9606653
420.60 0.9926496
420.70 1.018844
420.80 1.036709
420.90 1.046164
421.00 1.049623
421.10 1.050447
421.20 1.051687
421.30 1.056326
421.40 1.06697
421.50 1.084195
421.60 1.10603
421.70 1.129838
421.80 1.152439
421.90 1.170798
422.00 1.183878
422.10 1.192262
422.20 1.192262
422.30 1.192262
422.40 1.192262
422.50 1.192262
422.60 1.192262
422.70 1.192262
422.80 1.192262
422.90 1.192262
423.00 1.192262
423.10 1.189211
423.20 1.183491
423.30 1.177613
423.40 1.174633
423.50 1.174633
423.60 1.174633
423.70 1.178587
423.80 1.191211
423.90 1.214306
424.00 1.248056
424.10 1.290623
424.20 1.337283
424.30 1.381168
424.40 1.416127
424.50 1.438725
424.60 1.448328
424.70 1.448328
424.80 1.448328
424.90 1.448328
425.00 1.448328
425.10 1.448328
425.20 1.448328
425.30 1.448328
425.40 1.448328
425.50 1.448328
425.60 1.448328
425.70 1.448328
425.80 1.448328
425.90 1.448328
426.00 1.448328
426.10 1.448328
426.20 1.448328
426.30 1.448328
426.40 1.44864
426.50 1.452317
426.60 1.459286
426.70 1.46834
426.80 1.477437
426.90 1.484505
427.00 1.487313
427.10 1.487313
427.20 1.487313
427.30 1.487313
427.40 1.487313
427.50 1.487313
427.60 1.483665
427.70 1.481888
427.80 1.48304
427.90 1.485763
428.00 1.48795
428.10 1.487034
428.20 1.479429
428.30 1.460814
428.40 1.432765
428.50 1.398479
428.60 1.354663
428.70 1.300312
428.80 1.23859
428.90 1.175565
429.00 1.117449
429.10 1.068869
429.20 1.032658
429.30 1.011226
429.40 1.005908
429.50 1.005908
429.60 1.005908
429.70 1.005908
429.80 1.005908
429.90 1.005908
430.00 1.006796
430.10 1.008607
430.20 1.008868
430.30 0.9925054
430.40 0.9625372
430.50 0.9255472
430.60 0.8890732
430.70 0.8589141
430.80 0.8373265
430.90 0.824515
431.00 0.8192258
431.10 0.8184512
431.20 0.8173505
431.30 0.8101053
431.40 0.793461
431.50 0.7685025
431.60 0.7393275
431.70 0.710403
431.80 0.6856398
431.90 0.6686322
432.00 0.6613686
432.10 0.663381
432.20 0.6724841
432.30 0.6786862
432.40 0.6807503
432.50 0.6807503
432.60 0.6807503
432.70 0.6807503
432.80 0.6807503
432.90 0.6807503
433.00 0.6807503
433.10 0.6807503
433.20 0.6807503
433.30 0.6807503
433.40 0.6807503
433.50 0.6807503
433.60 0.6807503
433.70 0.6767962
433.80 0.6671567
433.90 0.6521335
434.00 0.6309621
434.10 0.6049625
434.20 0.5793066
434.30 0.5613636
434.40 0.5566837
434.50 0.5672766
434.60 0.5927623
434.70 0.6287627
434.80 0.6644368
434.90 0.6993043
435.00 0.7339368
435.10 0.7695418
435.20 0.8067443
435.30 0.8446303
435.40 0.8814777
435.50 0.9148659
435.60 0.94113
435.70 0.9565606
435.80 0.9594487
435.90 0.9594487
436.00 0.9594487
436.10 0.9594487
436.20 0.9594487
436.30 0.9594487
436.40 0.9591366
436.50 0.9554592
436.60 0.9484907
436.70 0.9394369
436.80 0.9303401
436.90 0.9232712
437.00 0.9204636
437.10 0.9204636
437.20 0.9204636
437.30 0.9204636
437.40 0.9204636
437.50 0.9204636
437.60 0.9184352
437.70 0.9044313
437.80 0.8824792
437.90 0.8597347
438.00 0.8411286
438.10 0.8308976
438.20 0.8320121
438.30 0.8451018
438.40 0.8622452
438.50 0.8738263
438.60 0.878382
438.70 0.878382
438.80 0.878382
438.90 0.878382
439.00 0.878382
439.10 0.878382
439.20 0.878382
439.30 0.878382
439.40 0.878382
439.50 0.878382
439.60 0.878382
439.70 0.8833521
439.80 0.8986632
439.90 0.9218741
440.00 0.948445
440.10 0.9749854
440.20 1.000982
440.30 1.025853
440.40 1.04737
440.50 1.062684
440.60 1.070882
440.70 1.073424
440.80 1.072412
440.90 1.068212
441.00 1.059782
441.10 1.048992
441.20 1.039162
441.30 1.031409
441.40 1.025285
441.50 1.018407
441.60 1.012595
441.70 1.012533
441.80 1.018999
441.90 1.03182
442.00 1.050411
442.10 1.073601
442.20 1.10015
442.30 1.129962
442.40 1.163085
442.50 1.195967
442.60 1.225379
442.70 1.251614
442.80 1.275448
442.90 1.297464
443.00 1.318561
443.10 1.339452
443.20 1.360698
443.30 1.382275
443.40 1.402747
443.50 1.420969
443.60 1.437083
443.70 1.450956
443.80 1.459053
443.90 1.459118
444.00 1.452217
444.10 1.43952
444.20 1.421774
444.30 1.400515
444.40 1.3785
444.50 1.359745
444.60 1.347666
444.70 1.344568
444.80 1.351745
444.90 1.367351
445.00 1.386034
445.10 1.401559
445.20 1.409367
445.30 1.407224
445.40 1.395285
445.50 1.377099
445.60 1.359447
445.70 1.349805
445.80 1.35319
445.90 1.361909
446.00 1.37417
446.10 1.38976
446.20 1.40632
446.30 1.421351
446.40 1.433443
446.50 1.441358
446.60 1.444072
446.70 1.444072
446.80 1.444072
446.90 1.444072
447.00 1.444166
447.10 1.447699
447.20 1.456088
447.30 1.471144
447.40 1.494153
447.50 1.526262
447.60 1.568773
447.70 1.621576
447.80 1.679825
447.90 1.736042
448.00 1.7857
448.10 1.826008
448.20 1.855208
448.30 1.872124
448.40 1.878439
448.50 1.878992
448.60 1.879196
448.70 1.880716
448.80 1.88233
448.90 1.885608
449.00 1.89034
449.10 1.895428
449.20 1.900202
449.30 1.905402
449.40 1.912417
449.50 1.921388
449.60 1.931042
449.70 1.935586
449.80 1.929054
449.90 1.912252
450.00 1.88648
450.10 1.858128
450.20 1.831071
450.30 1.805764
450.40 1.781741
450.50 1.759413
450.60 1.739643
450.70 1.722851
450.80 1.710461
450.90 1.70758
451.00 1.714671
451.10 1.728314
451.20 1.744233
451.30 1.762348
451.40 1.78408
451.50 1.811586
451.60 1.842837
451.70 1.873995
451.80 1.904818
451.90 1.933665
452.00 1.956671
452.10 1.970461
452.20 1.973713
452.30 1.96647
452.40 1.950957
452.50 1.931978
452.60 1.914682
452.70 1.901991
452.80 1.894722
452.90 1.892341
453.00 1.892635
453.10 1.89171
453.20 1.885444
453.30 1.871808
453.40 1.852883
453.50 1.834661
453.60 1.818548
453.70 1.805963
453.80 1.800258
453.90 1.801107
454.00 1.807146
454.10 1.81649
454.20 1.82615
454.30 1.831749
454.40 1.829055
454.50 1.815452
454.60 1.792442
454.70 1.75954
454.80 1.716689
454.90 1.669015
455.00 1.624798
455.10 1.590457
455.20 1.570667
455.30 1.567889
455.40 1.579783
455.50 1.598731
455.60 1.615422
455.70 1.62178
455.80 1.615507
455.90 1.606788
456.00 1.594527
456.10 1.578938
456.20 1.562377
456.30 1.547346
456.40 1.535254
456.50 1.527339
456.60 1.524626
456.70 1.524626
456.80 1.524626
456.90 1.525594
457.00 1.535975
457.10 1.550608
457.20 1.565189
457.30 1.574964
457.40 1.575726
457.50 1.563705
457.60 1.535421
457.70 1.48915
457.80 1.428419
457.90 1.363818
458.00 1.299935
458.10 1.241078
458.20 1.191331
458.30 1.154235
458.40 1.130777
458.50 1.118643
458.60 1.116117
458.70 1.120304
458.80 1.125757
458.90 1.129282
459.00 1.131225
459.10 1.133931
459.20 1.139522
459.30 1.147838
459.40 1.156722
459.50 1.164254
459.60 1.169512
459.70 1.171504
459.80 1.169475
459.90 1.164471
460.00 1.162785
460.10 1.162785
460.20 1.162785
460.30 1.162785
460.40 1.162785
460.50 1.16299
460.60 1.167656
460.70 1.176857
460.80 1.189382
460.90 1.200276
461.00 1.208791
461.10 1.214076
461.20 1.214875
461.30 1.209439
461.40 1.19556
461.50 1.171041
461.60 1.135928
461.70 1.092369
461.80 1.041581
461.90 0.9869625
462.00 0.9334186
462.10 0.8856569
462.20 0.8517713
462.30 0.8340578
462.40 0.8310857
462.50 0.8374542
462.60 0.8464669
462.70 0.8526295
462.80 0.8525164
462.90 0.8452433
463.00 0.8330295
463.10 0.8209968
463.20 0.8149094
463.30 0.8191127
463.40 0.8348979
463.50 0.8581936
463.60 0.8861285
463.70 0.914073
463.80 0.9352894
463.90 0.9475714
464.00 0.9515436
464.10 0.9498947
464.20 0.9468517
464.30 0.947147
464.40 0.9548944
464.50 0.9717167
464.60 0.9935541
464.70 1.017834
464.80 1.042508
464.90 1.062741
465.00 1.073221
465.10 1.071544
465.20 1.05709
465.30 1.031706
465.40 1.000788
465.50 0.9721014
465.60 0.9531887
465.70 0.9495616
465.80 0.9605391
465.90 0.9743055
466.00 0.9914559
466.10 1.01176
466.20 1.033788
466.30 1.055976
466.40 1.077611
466.50 1.098562
466.60 1.119062
466.70 1.139451
466.80 1.160104
466.90 1.180438
467.00 1.191425
467.10 1.194136
467.20 1.191175
467.30 1.184652
467.40 1.177087
467.50 1.172398
467.60 1.174513
467.70 1.186052
467.80 1.205229
467.90 1.22347
468.00 1.23837
468.10 1.248633
468.20 1.253915
468.30 1.254269
468.40 1.254269
468.50 1.254269
468.60 1.252035
468.70 1.246327
468.80 1.239261
468.90 1.232457
469.00 1.225783
469.10 1.217989
469.20 1.207623
469.30 1.194108
469.40 1.178209
469.50 1.161705
469.60 1.152489
469.70 1.150513
469.80 1.154857
469.90 1.164444
470.00 1.174818
470.10 1.185463
470.20 1.197805
470.30 1.212829
470.40 1.230686
470.50 1.250161
470.60 1.265144
470.70 1.27352
470.80 1.274355
470.90 1.268117
471.00 1.256119
471.10 1.241014
471.20 1.226526
471.30 1.215682
471.40 1.210577
471.50 1.212914
471.60 1.222937
471.70 1.239767
471.80 1.264395
471.90 1.296192
472.00 1.332965
472.10 1.371646
472.20 1.403709
472.30 1.42477
472.40 1.432622
472.50 1.427663
472.60 1.412899
472.70 1.393427
472.80 1.376976
472.90 1.364613
473.00 1.357695
473.10 1.355187
473.20 1.354623
473.30 1.353498
473.40 1.349651
473.50 1.341884
473.60 1.330921
473.70 1.319841
473.80 1.312611
473.90 1.312476
474.00 1.319964
474.10 1.331918
474.20 1.343381
474.30 1.350331
474.40 1.350377
474.50 1.341933
474.60 1.325513
474.70 1.304364
474.80 1.283463
474.90 1.267958
475.00 1.261701
475.10 1.266269
475.20 1.281456
475.30 1.304926
475.40 1.331976
475.50 1.358063
475.60 1.379358
475.70 1.39273
475.80 1.396826
475.90 1.391624
476.00 1.378239
476.10 1.358978
476.20 1.337092
476.30 1.316148
476.40 1.29861
476.50 1.285226
476.60 1.274587
476.70 1.264002
476.80 1.25156
476.90 1.236437
477.00 1.21872
477.10 1.198926
477.20 1.178917
477.30 1.160612
477.40 1.147045
477.50 1.138358
477.60 1.133609
477.70 1.131378
477.80 1.130405
477.90 1.130733
478.00 1.133899
478.10 1.14171
478.20 1.155268
478.30 1.17483
478.40 1.196665
478.50 1.221351
478.60 1.248439
478.70 1.275798
478.80 1.301008
478.90 1.322066
479.00 1.337316
479.10 1.345756
479.20 1.347332
479.30 1.347332
479.40 1.347332
479.50 1.347332
479.60 1.341636
479.70 1.332106
479.80 1.321012
479.90 1.31002
480.00 1.299646
480.10 1.289001
480.20 1.276659
480.30 1.265089
480.40 1.256588
480.50 1.250472
480.60 1.24666
480.70 1.24472
480.80 1.242673
480.90 1.238166
481.00 1.231401
481.10 1.227578
481.20 1.225347
481.30 1.223513
481.40 1.220764
481.50 1.215441
481.60 1.205419
481.70 1.188589
481.80 1.16888
481.90 1.144918
482.00 1.115711
482.10 1.08098
482.20 1.043899
482.30 1.01178
482.40 0.9872271
482.50 0.9719148
482.60 0.9655488
482.70 0.9653149
482.80 0.9653149
482.90 0.9653149
483.00 0.9660656
483.10 0.9654551
483.20 0.9599064
483.30 0.9488866
483.40 0.9354016
483.50 0.9198724
483.60 0.9029007
483.70 0.8847471
483.80 0.8718864
483.90 0.8641861
484.00 0.8585433
484.10 0.8530598
484.20 0.8471146
484.30 0.8404634
484.40 0.8332224
484.50 0.8270798
484.60 0.8245277
484.70 0.8270036
484.80 0.833918
484.90 0.8434337
485.00 0.8531247
485.10 0.860639
485.20 0.8641708
485.30 0.8628511
485.40 0.8572617
485.50 0.8485913
485.60 0.8387313
485.70 0.8302942
485.80 0.8259401
485.90 0.8270087
486.00 0.8324316
486.10 0.8391144
486.20 0.8426047
486.30 0.8413612
486.40 0.8372638
486.50 0.8296969
486.60 0.8198364
486.70 0.8100318
486.80 0.801822
486.90 0.7956419
487.00 0.791897
487.10 0.7949256
487.20 0.8122795
487.30 0.8409278
487.40 0.8749551
487.50 0.9097678
487.60 0.9424532
487.70 0.9724501
487.80 1.001004
487.90 1.028847
488.00 1.054649
488.10 1.075893
488.20 1.09026
488.30 1.095674
488.40 1.089217
488.50 1.068786
488.60 1.041698
488.70 1.014339
488.80 0.9891294
488.90 0.968071
489.00 0.9528213
489.10 0.9465824
489.20 0.9539731
489.30 0.9664161
489.40 0.978109
489.50 0.9845282
489.60 0.9845282
489.70 0.9845282
489.80 0.9845282
489.90 0.9845282
490.00 0.9845282
490.10 0.9845282
490.20 0.9845282
490.30 0.9847874
490.40 0.9866351
490.50 0.9892294
490.60 0.9911096
490.70 0.9920046
490.80 0.9945372
490.90 1.002767
491.00 1.017961
491.10 1.035084
491.20 1.054467
491.30 1.075332
491.40 1.095919
491.50 1.114332
491.60 1.128925
491.70 1.138621
491.80 1.13847
491.90 1.13188
492.00 1.124314
492.10 1.12087
492.20 1.123278
492.30 1.12849
492.40 1.13711
492.50 1.149023
492.60 1.163168
492.70 1.178144
492.80 1.192998
492.90 1.207704
493.00 1.219796
493.10 1.231023
493.20 1.245529
493.30 1.264161
493.40 1.284384
493.50 1.30704
493.60 1.332854
493.70 1.361444
493.80 1.38495
493.90 1.400995
494.00 1.410428
494.10 1.415513
494.20 1.418353
494.30 1.41954
494.40 1.418782
494.50 1.415714
494.60 1.412849
494.70 1.407242
494.80 1.396555
494.90 1.379511
495.00 1.356499
495.10 1.329305
495.20 1.299818
495.30 1.270087
495.40 1.242742
495.50 1.219862
495.60 1.202038
495.70 1.188582
495.80 1.177863
495.90 1.16823
496.00 1.159042
496.10 1.158742
496.20 1.169644
496.30 1.189397
496.40 1.211324
496.50 1.232061
496.60 1.248862
496.70 1.259877
496.80 1.264318
496.90 1.264318
497.00 1.264318
497.10 1.260206
497.20 1.242852
497.30 1.214201
497.40 1.177534
497.50 1.136009
497.60 1.091731
497.70 1.045895
497.80 1.000673
497.90 0.9580127
498.00 0.9187398
498.10 0.8842504
498.20 0.8559772
498.30 0.836152
498.40 0.8280012
498.50 0.8342803
498.60 0.8493263
498.70 0.8689903
498.80 0.8922165
498.90 0.9175285
499.00 0.9430893
499.10 0.9641216
499.20 0.9739175
499.30 0.9749347
499.40 0.9714819
499.50 0.9691726
499.60 0.97124
499.70 0.9735737
499.80 0.9781863
499.90 0.9866123
500.00 1
500.10 1.01905
500.20 1.043065
500.30 1.065543
500.40 1.079021
500.50 1.082771
500.60 1.077535
500.70 1.06513
500.80 1.050418
500.90 1.036229
501.00 1.021035
501.10 1.003912
501.20 0.9845282
501.30 0.9636632
501.40 0.9436883
501.50 0.9301922
501.60 0.9233961
501.70 0.9232918
501.80 0.9291538
501.90 0.9391038
502.00 0.9505698
502.10 0.9612747
502.20 0.9698209
502.30 0.975768
502.40 0.9787087
502.50 0.9787877
502.60 0.9768872
502.70 0.9746048
502.80 0.9732062
502.90 0.9717352
503.00 0.9680873
503.10 0.9605753
503.20 0.9474151
503.30 0.9287831
503.40 0.9085609
503.50 0.8859045
503.60 0.8600903
503.70 0.8315004
503.80 0.8014926
503.90 0.7720143
504.00 0.7450491
504.10 0.7219279
504.20 0.7036938
504.30 0.6916318
504.40 0.6862666
504.50 0.6862666
504.60 0.6862666
504.70 0.6862666
504.80 0.6862666
504.90 0.6862666
505.00 0.6899451
505.10 0.6954369
505.20 0.7006474
505.30 0.7042364
505.40 0.7055007
505.50 0.7055007
505.60 0.7055007
505.70 0.7055007
505.80 0.7055007
505.90 0.7055007
506.00 0.7055007
506.10 0.6980741
506.20 0.6842977
506.30 0.6670393
506.40 0.6472792
506.50 0.6271862
506.60 0.6103844
506.70 0.5993694
506.80 0.5949287
506.90 0.5949287
507.00 0.5949287
507.10 0.5977309
507.20 0.6048986
507.30 0.615877
507.40 0.6291783
507.50 0.6427435
507.60 0.6551903
507.70 0.6666446
507.80 0.6763488
507.90 0.6840395
508.00 0.6906276
508.10 0.6955784
508.20 0.6981165
508.30 0.697236
508.40 0.6909036
508.50 0.6803696
508.60 0.6653236
508.70 0.6456595
508.80 0.6224333
508.90 0.5971213
509.00 0.5715605
509.10 0.5483272
509.20 0.5295646
509.30 0.5161044
509.40 0.5078643
509.50 0.5037544
509.60 0.501687
509.70 0.4993533
509.80 0.4947407
509.90 0.4868277
510.00 0.4770829
510.10 0.4664915
510.20 0.456703
510.30 0.4501727
510.40 0.449976
510.50 0.4586167
510.60 0.4774124
510.70 0.5054845
510.80 0.5367948
510.90 0.5654032
511.00 0.5895101
511.10 0.6079656
511.20 0.6208724
511.30 0.629456
511.40 0.6348713
511.50 0.6350814
511.60 0.6328774
511.70 0.6302394
511.80 0.6278646
511.90 0.6252708
512.00 0.6217775
512.10 0.617592
512.20 0.6126407
512.30 0.6064962
512.40 0.5991981
512.50 0.5906637
512.60 0.5800179
512.70 0.5673245
512.80 0.5538691
512.90 0.5406341
513.00 0.5291794
513.10 0.52065
513.20 0.5165247
513.30 0.5165247
513.40 0.5165247
513.50 0.5165247
513.60 0.517914
513.70 0.5219524
513.80 0.5265481
513.90 0.5309025
514.00 0.5353606
514.10 0.5410857
514.20 0.5497062
514.30 0.562687
514.40 0.5804535
514.50 0.602209
514.60 0.6261105
514.70 0.6496055
514.80 0.6703192
514.90 0.6868067
515.00 0.6951611
515.10 0.6985225
515.20 0.7009776
515.30 0.7057618
515.40 0.7155135
515.50 0.7308178
515.60 0.7509943
515.70 0.7753633
515.80 0.8031194
515.90 0.8339636
516.00 0.867382
516.10 0.9023771
516.20 0.9371849
516.30 0.9702551
516.40 1.002926
516.50 1.034658
516.60 1.06214
516.70 1.083038
516.80 1.097344
516.90 1.106407
517.00 1.112555
517.10 1.115963
517.20 1.117383
517.30 1.117937
517.40 1.118507
517.50 1.120036
517.60 1.122581
517.70 1.125125
517.80 1.127102
517.90 1.129299
518.00 1.13341
518.10 1.14072
518.20 1.150981
518.30 1.162826
518.40 1.175142
518.50 1.183853
518.60 1.18821
518.70 1.189825
518.80 1.191194
518.90 1.194926
519.00 1.203187
519.10 1.217023
519.20 1.236578
519.30 1.260868
519.40 1.287912
519.50 1.315698
519.60 1.342194
519.70 1.365571
519.80 1.384875
519.90 1.399671
520.00 1.407703
520.10 1.407853
520.20 1.400324
520.30 1.387075
520.40 1.37017
520.50 1.350474
520.60 1.327743
520.70 1.302278
520.80 1.27562
520.90 1.249855
521.00 1.227459
521.10 1.210779
521.20 1.200686
521.30 1.196061
521.40 1.194716
521.50 1.194081
521.60 1.191771
521.70 1.1867
521.80 1.179647
521.90 1.173193
522.00 1.169801
522.10 1.169958
522.20 1.172633
522.30 1.176391
522.40 1.179976
522.50 1.182989
522.60 1.18712
522.70 1.193688
522.80 1.202924
522.90 1.216519
523.00 1.234996
523.10 1.256503
523.20 1.277427
523.30 1.294172
523.40 1.305121
523.50 1.311282
523.60 1.313738
523.70 1.313891
523.80 1.316398
523.90 1.325123
524.00 1.342561
524.10 1.367803
524.20 1.395976
524.30 1.420438
524.40 1.436097
524.50 1.44091
524.60 1.435553
524.70 1.422409
524.80 1.404392
524.90 1.387905
525.00 1.375872
525.10 1.367019
525.20 1.359353
525.30 1.35098
525.40 1.340456
525.50 1.329019
525.60 1.31707
525.70 1.306344
525.80 1.297276
525.90 1.287789
526.00 1.275498
526.10 1.259644
526.20 1.240367
526.30 1.217807
526.40 1.193273
526.50 1.170387
526.60 1.153661
526.70 1.146099
526.80 1.148326
526.90 1.158702
527.00 1.173586
527.10 1.187993
527.20 1.197489
527.30 1.200656
527.40 1.198292
527.50 1.191549
527.60 1.182095
527.70 1.171479
527.80 1.159708
527.90 1.146067
528.00 1.130774
528.10 1.113684
528.20 1.095951
528.30 1.079482
528.40 1.066992
528.50 1.060863
528.60 1.061311
528.70 1.067186
528.80 1.076347
528.90 1.086706
529.00 1.096038
529.10 1.102418
529.20 1.105308
529.30 1.105473
529.40 1.104357
529.50 1.103642
529.60 1.105112
529.70 1.11017
529.80 1.119324
529.90 1.132303
530.00 1.148365
530.10 1.166359
530.20 1.184433
530.30 1.19998
530.40 1.210746
530.50 1.21643
530.60 1.218502
530.70 1.218804
530.80 1.218772
530.90 1.219456
531.00 1.221288
531.10 1.223768
531.20 1.226076
531.30 1.227787
531.40 1.228632
531.50 1.228424
531.60 1.227358
531.70 1.225491
531.80 1.224289
531.90 1.222141
532.00 1.21756
532.10 1.210378
532.20 1.2017
532.30 1.193027
532.40 1.185487
532.50 1.179204
532.60 1.173653
532.70 1.167707
532.80 1.160177
532.90 1.150297
533.00 1.13835
533.10 1.126947
533.20 1.120488
533.30 1.122656
533.40 1.1342
533.50 1.152735
533.60 1.173823
533.70 1.192158
533.80 1.203467
533.90 1.204374
534.00 1.192049
534.10 1.166663
534.20 1.132381
534.30 1.095457
534.40 1.062032
534.50 1.035463
534.60 1.016919
534.70 1.006568
534.80 1.003871
534.90 1.004742
535.00 1.007655
535.10 1.013513
535.20 1.022319
535.30 1.033342
535.40 1.0453
535.50 1.054377
535.60 1.059091
535.70 1.058468
535.80 1.053302
535.90 1.046614
536.00 1.041723
536.10 1.039894
536.20 1.040416
536.30 1.041464
536.40 1.04018
536.50 1.032821
536.60 1.022064
536.70 1.008729
536.80 0.9921956
536.90 0.9727558
537.00 0.9517251
537.10 0.931107
537.20 0.9130229
537.30 0.8983245
537.40 0.8868169
537.50 0.8784659
537.60 0.8729286
537.70 0.8695457
537.80 0.8681002
537.90 0.8681002
538.00 0.870701
538.10 0.8743338
538.20 0.8743338
538.30 0.8743338
538.40 0.8736137
538.50 0.8710314
538.60 0.8662261
538.70 0.8587357
538.80 0.8482063
538.90 0.8341159
539.00 0.8165222
539.10 0.7963071
539.20 0.775024
539.30 0.7551626
539.40 0.7371535
539.50 0.7215702
539.60 0.7089116
539.70 0.6996944
539.80 0.6936521
539.90 0.6893662
540.00 0.6859738
540.10 0.6840148
540.20 0.6845387
540.30 0.6885184
540.40 0.696004
540.50 0.7060012
540.60 0.7176844
540.70 0.7307403
540.80 0.744814
540.90 0.7595716
541.00 0.7745811
541.10 0.7894797
541.20 0.8045072
541.30 0.8201549
541.40 0.8367818
541.50 0.8545162
541.60 0.8728865
541.70 0.8905181
541.80 0.9041507
541.90 0.9134212
542.00 0.9180836
542.10 0.9180836
542.20 0.9180836
542.30 0.9179848
542.40 0.9176754
542.50 0.9174884
542.60 0.9173094
542.70 0.9166877
542.80 0.9149818
542.90 0.9112666
543.00 0.9047374
543.10 0.8946328
543.20 0.8801677
543.30 0.8621442
543.40 0.8434631
543.50 0.8267568
543.60 0.8146835
543.70 0.809429
543.80 0.8121095
543.90 0.8230523
544.00 0.8424537
544.10 0.8695524
544.20 0.9020935
544.30 0.9374059
544.40 0.9728389
544.50 1.006879
544.60 1.03909
544.70 1.069574
544.80 1.098489
544.90 1.12551
545.00 1.150873
545.10 1.175768
545.20 1.201324
545.30 1.227159
545.40 1.251277
545.50 1.271554
545.60 1.286728
545.70 1.296255
545.80 1.299552
545.90 1.296341
546.00 1.287721
546.10 1.275921
546.20 1.263712
546.30 1.254242
546.40 1.250051
546.50 1.252822
546.60 1.25735
546.70 1.260638
546.80 1.261979
546.90 1.261979
547.00 1.261979
547.10 1.261979
547.20 1.261979
547.30 1.261979
547.40 1.261979
547.50 1.261979
547.60 1.261979
547.70 1.261979
547.80 1.261979
547.90 1.262009
548.00 1.261437
548.10 1.262321
548.20 1.269823
548.30 1.280381
548.40 1.293335
548.50 1.306936
548.60 1.318916
548.70 1.32706
548.80 1.329433
548.90 1.329433
549.00 1.329433
549.10 1.329433
549.20 1.32827
549.30 1.323676
549.40 1.315758
549.50 1.30427
549.60 1.288963
549.70 1.269745
549.80 1.247329
549.90 1.223327
550.00 1.826336
550.10 1.826336
550.20 1.826336
550.30 1.824113
550.40 1.814582
550.50 1.794607
550.60 1.762459
550.70 1.719278
550.80 1.666548
550.90 1.604302
551.00 1.536942
551.10 1.466534
551.20 1.397655
551.30 1.334473
551.40 1.278276
551.50 1.22718
551.60 1.176602
551.70 1.12075
551.80 1.054394
551.90 0.9846649
552.00 0.913976
552.10 0.8370903
552.20 0.7511876
552.30 0.6590426
552.40 0.5676207
552.50 0.484569
552.60 0.4142786
552.70 0.3579111
552.80 0.3158665
552.90 0.2872199
553.00 0.2703343
553.10 0.2766738
553.20 0.2983941
553.30 0.328619
553.40 0.3627011
553.50 0.3986558
553.60 0.4375385
553.70 0.4816252
553.80 0.5310365
553.90 0.5819562
554.00 0.6288242
554.10 0.6698962
554.20 0.7045019
554.30 0.7321486
554.40 0.752686
554.50 0.7671735
554.60 0.7765059
554.70 0.7809912
554.80 0.7810834
554.90 0.781008
555.00 0.7759358
555.10 0.7646444
555.20 0.7458903
555.30 0.7194952
555.40 0.6871093
555.50 0.6531058
555.60 0.6231569
555.70 0.6027973
555.80 0.5968649
555.90 0.5968649
556.00 0.6501151
556.10 0.7497973
556.20 0.8766252
556.30 1.006464
556.40 1.11694
556.50 1.201433
556.60 1.274591
556.70 1.355989
556.80 1.455984
556.90 1.573063
557.00 1.69813
557.10 1.808611
557.20 1.90172
557.30 1.974701
557.40 2.024641
557.50 2.047967
557.60 2.041993
557.70 2.007928
557.80 1.955165
557.90 1.904245
558.00 1.857377
558.10 1.816305
558.20 1.781699
558.30 1.760597
558.40 1.757878
558.50 1.766675
558.60 1.778336
558.70 1.784584
558.80 1.784492
558.90 1.784492
559.00 1.784492
559.10 1.784492
559.20 1.784492
559.30 1.784492
559.40 1.784492
559.50 1.784492
559.60 1.784492
559.70 1.790173
559.80 1.800393
559.90 1.813328
560.00 1.773626
560.10 1.686928
560.20 1.572373
560.30 1.453355
560.40 1.352399
560.50 1.278159
560.60 1.219311
560.70 1.159851
560.80 1.092751
560.90 1.021709
561.00 0.9541867
561.10 0.8951417
561.20 0.8471724
561.30 0.8109933
561.40 0.7886719
561.50 0.7832194
561.60 0.7953013
561.70 0.8246131
561.80 0.8664299
561.90 0.9039078
562.00 0.9361739
562.10 0.9605299
562.20 0.9734351
562.30 0.9668907
562.40 0.9490723
562.50 0.9257874
562.60 0.9047946
562.70 0.8940612
562.80 0.8940612
562.90 0.8940612
563.00 0.894092
563.10 0.8996488
563.20 0.9069897
563.30 0.9144748
563.40 0.9217242
563.50 0.9291764
563.60 0.9385273
563.70 0.945726
563.80 0.9515619
563.90 0.9557057
564.00 0.9579789
564.10 0.9581166
564.20 0.9568589
564.30 0.956494
564.40 0.9581536
564.50 0.9606519
564.60 0.9597845
564.70 0.9490969
564.80 0.923185
564.90 0.8811013
565.00 0.8260133
565.10 0.7641891
565.20 0.7055432
565.30 0.6602879
565.40 0.6325163
565.50 0.6196295
565.60 0.6146698
565.70 0.607891
565.80 0.5893278
565.90 0.5529522
566.00 0.5206861
566.10 0.4963301
566.20 0.4834249
566.30 0.4834249
566.40 0.4834249
566.50 0.4834249
566.60 0.4834249
566.70 0.484657
566.80 0.4942881
566.90 0.5127387
567.00 0.541815
567.10 0.5781464
567.20 0.6253895
567.30 0.6819064
567.40 0.7434155
567.50 0.8046424
567.60 0.8589861
567.70 0.9008417
567.80 0.9286512
567.90 0.9449319
568.00 0.9543697
568.10 0.9610138
568.20 0.9641822
568.30 0.9592309
568.40 0.9480524
568.50 0.9353008
568.60 0.921858
568.70 0.9106072
568.80 0.9036241
568.90 0.8996713
569.00 0.8950584
569.10 0.8853282
569.20 0.8656067
569.30 0.832378
569.40 0.7863825
569.50 0.7457929
569.60 0.7274756
569.70 0.7417245
569.80 0.7935169
569.90 0.8811467
570.00 0.9753114
570.10 1.066204
570.20 1.143781
570.30 1.20066
570.40 1.235979
570.50 1.253887
570.60 1.261498
570.70 1.266479
570.80 1.27258
570.90 1.289654
571.00 1.320366
571.10 1.360835
571.20 1.405693
571.30 1.450058
571.40 1.488155
571.50 1.514987
571.60 1.530177
571.70 1.536586
571.80 1.537419
571.90 1.535207
572.00 1.531139
572.10 1.526893
572.20 1.526744
572.30 1.536005
572.40 1.551548
572.50 1.567224
572.60 1.580603
572.70 1.587873
572.80 1.587873
572.90 1.587873
573.00 1.587873
573.10 1.587873
573.20 1.587873
573.30 1.587873
573.40 1.599005
573.50 1.611842
573.60 1.613004
573.70 1.592024
573.80 1.542369
573.90 1.464676
574.00 1.370511
574.10 1.279619
574.20 1.202042
574.30 1.145162
574.40 1.109844
574.50 1.099441
574.60 1.109584
574.70 1.125322
574.80 1.12873
574.90 1.104328
575.00 1.045747
575.10 0.9633898
575.20 0.8639479
575.30 0.7555802
575.40 0.6487246
575.50 0.553214
575.60 0.4761622
575.70 0.431571
575.80 0.4182254
575.90 0.4308244
576.00 0.4619816
576.10 0.501102
576.20 0.5346237
576.30 0.5507556
576.40 0.5421771
576.50 0.5265004
576.60 0.5131216
576.70 0.5058521
576.80 0.5058521
576.90 0.5058521
577.00 0.5058521
577.10 0.5058521
577.20 0.5058521
577.30 0.5058521
577.40 0.4947201
577.50 0.4692748
577.60 0.4350796
577.70 0.4010343
577.80 0.3756429
577.90 0.3646039
578.00 0.3646039
578.10 0.373561
578.20 0.3930233
578.30 0.4237266
578.40 0.4660235
578.50 0.5111299
578.60 0.5532182
578.70 0.5958967
578.80 0.6444691
578.90 0.7029377
579.00 0.7728561
579.10 0.8455594
579.20 0.9208129
579.30 0.9998993
579.40 1.083486
579.50 1.171545
579.60 1.260821
579.70 1.336287
579.80 1.395247
579.90 1.437004
580.00 1.461979
580.10 1.472461
580.20 1.475426
580.30 1.481552
580.40 1.50231
580.50 1.528236
580.60 1.561656
580.70 1.609419
580.80 1.673189
580.90 1.75008
581.00 1.833933
581.10 1.916024
581.20 1.985818
581.30 2.033507
581.40 2.052893
581.50 2.052893
581.60 2.052893
581.70 2.052893
581.80 2.052893
581.90 2.052893
582.00 2.052893
582.10 2.043936
582.20 2.024473
582.30 1.99377
582.40 1.958384
582.50 1.933858
582.60 1.916732
582.70 1.901717
582.80 1.883492
582.90 1.858917
583.00 1.827085
583.10 1.789132
583.20 1.74721
583.30 1.70418
583.40 1.663024
583.50 1.626316
583.60 1.598125
583.70 1.583488
583.80 1.587882
583.90 1.618042
584.00 1.679725
584.10 1.775369
584.20 1.900631
584.30 2.042512
584.40 2.182619
584.50 2.302652
584.60 2.386942
584.70 2.425551
584.80 2.417383
584.90 2.369137
585.00 2.293041
585.10 2.21095
585.20 2.141156
585.30 2.093467
585.40 2.074081
585.50 2.074081
585.60 2.075678
585.70 2.083133
585.80 2.095991
585.90 2.110584
586.00 2.121914
586.10 2.128053
586.20 2.12916
586.30 2.12916
586.40 2.122248
586.50 2.094162
586.60 2.051446
586.70 2.001832
586.80 1.952345
586.90 1.907328
587.00 1.868005
587.10 1.833254
587.20 1.799922
587.30 1.763866
587.40 1.721435
587.50 1.670085
587.60 1.613162
587.70 1.561782
587.80 1.514292
587.90 1.464265
588.00 1.400697
588.10 1.312964
588.20 1.193536
588.30 1.043623
588.40 0.8760915
588.50 0.7301332
588.60 0.6124226
588.70 0.5260511
588.80 0.4704486
588.90 0.4418033
589.00 0.434047
589.10 0.434047
589.20 0.434047
589.30 0.4373585
589.40 0.4494457
589.50 0.4739197
589.60 0.5127415
589.70 0.5633872
589.80 0.6249727
589.90 0.6957927
590.00 0.771606
590.10 0.8441492
590.20 0.9048845
590.30 0.9444884
590.40 0.9606456
590.50 0.9606456
590.60 0.9606456
590.70 0.9606456
590.80 0.9606456
590.90 0.9606456
591.00 0.9606456
591.10 0.9606456
591.20 0.9606456
591.30 0.9606456
591.40 0.9606456
591.50 0.9606456
591.60 0.9546492
591.70 0.9286473
591.80 0.8814311
591.90 0.8157946
592.00 0.7403564
592.10 0.667323
592.20 0.6109679
592.30 0.5819752
592.40 0.5816773
592.50 0.5816773
592.60 0.5816773
592.70 0.5816773
592.80 0.5816773
592.90 0.5816773
593.00 0.5816773
593.10 0.5833963
593.20 0.5930297
593.30 0.6024568
593.40 0.6028216
593.50 0.5890774
593.60 0.5583456
593.70 0.5092058
593.80 0.4398907
593.90 0.3544773
594.00 0.2673341
594.10 0.188652
594.20 0.1268103
594.30 0.08720638
594.40 0.07104915
594.50 0.07104915
594.60 0.07104915
594.70 0.07104915
594.80 0.07499701
594.90 0.1076951
595.00 0.1712813
595.10 0.2628071
595.20 0.3760103
595.30 0.5030402
595.40 0.6355755
595.50 0.7657292
595.60 0.8871853
595.70 0.9958228
595.80 1.089253
595.90 1.166375
596.00 1.227564
596.10 1.275804
596.20 1.313998
596.30 1.340844
596.40 1.35386
596.50 1.35386
596.60 1.35386
596.70 1.35386
596.80 1.35386
596.90 1.35386
597.00 1.35386
597.10 1.352141
597.20 1.342507
597.30 1.329769
597.40 1.317317
597.50 1.306587
597.60 1.2969
597.70 1.287939
597.80 1.282811
597.90 1.282811
598.00 1.282811
598.10 1.282811
598.20 1.282811
598.30 1.282811
598.40 1.282811
598.50 1.282811
598.60 1.282811
598.70 1.282811
598.80 1.278863
598.90 1.246165
599.00 1.182579
599.10 1.091053
599.20 0.9778495
599.30 0.8508197
599.40 0.7328768
599.50 0.6385961
599.60 0.5755528
599.70 0.5460741
599.80 0.5480604
599.90 0.5750115
600.00 0
600.10 0
600.20 0
600.30 0
600.40 0
600.50 0
600.60 0
600.70 0
600.80 0
600.90 0
601.00 0
601.10 0
601.20 0
601.30 0
601.40 0.5836965
601.50 1.434921
601.60 2.336515
601.70 3.166351
601.80 3.816675
601.90 4.1629
602.00 4.11509
602.10 3.658339
602.20 2.833871
602.30 1.776773
602.40 0.7340803
602.50 0
602.60 0
602.70 0
602.80 0
602.90 0
603.00 0.0760182
603.10 0.2944669
603.20 0.371272
603.30 0.3134516
603.40 0.203905
603.50 0.1584335
603.60 0.2576171
603.70 0.5074872
603.80 0.8224552
603.90 1.056656
604.00 1.085804
604.10 0.8717772
604.20 0.4510234
604.30 0
604.40 0
604.50 0
604.60 0
604.70 0
604.80 0
604.90 0.1365156
605.00 0.6031841
605.10 0.903583
605.20 0.9473827
605.30 0.7415686
605.40 0.3331133
605.50 0
605.60 0
605.70 0
605.80 0
605.90 0
606.00 0
606.10 0
606.20 0
606.30 0
606.40 0.4530049
606.50 1.452356
606.60 2.398589
606.70 3.184396
606.80 3.714655
606.90 3.926767
607.00 3.829573
607.10 3.517931
607.20 3.08481
607.30 2.565692
607.40 2.01438
607.50 1.535486
607.60 1.200212
607.70 0.9583634
607.80 0.7032111
607.90 0.430197
608.00 0.2119141
608.10 0.05232871
608.20 0
608.30 0.05881034
608.40 0.39254
608.50 0.8722508
608.60 1.325923
608.70 1.683783
608.80 1.937214
608.90 2.085046
609.00 2.141896
609.10 2.192664
609.20 2.355841
609.30 2.635314
609.40 2.925521
609.50 3.157952
609.60 3.284025
609.70 3.228371
609.80 2.934085
609.90 2.439385
610.00 1.867812
610.10 1.335925
610.20 0.8935387
610.30 0.519877
610.40 0.1787849
610.50 0
610.60 0
610.70 0
610.80 0
610.90 0
611.00 0
611.10 0
611.20 0.3128356
611.30 1.063432
611.40 1.679145
611.50 1.991454
611.60 1.939674
611.70 1.586402
611.80 1.052631
611.90 0.4877028
612.00 0.01080351
612.10 0
612.20 0
612.30 0
612.40 0
612.50 0
612.60 0
612.70 0
612.80 0
612.90 0
613.00 0
613.10 0
613.20 0
613.30 0
613.40 0
613.50 0
613.60 0
613.70 0
613.80 0
613.90 0
614.00 0
614.10 0.2320463
614.20 0.5572171
614.30 0.8374068
614.40 1.094055
614.50 1.368212
614.60 1.668835
614.70 1.971904
614.80 2.260859
614.90 2.531394
615.00 2.74532
615.10 2.823719
615.20 2.706331
615.30 2.413628
615.40 1.982902
615.50 1.435504
615.60 0.8165807
615.70 0.1967756
615.80 0
615.90 0
616.00 0
616.10 0
616.20 0
616.30 0
616.40 0
616.50 0
616.60 0
616.70 0.07600969
616.80 0.288144
616.90 0.2605845
617.00 0.05401365
617.10 0
617.20 0
617.30 0
617.40 0
617.50 0
617.60 0.3832372
617.70 0.8273583
617.80 1.249679
617.90 1.550553
618.00 1.69738
618.10 1.713918
618.20 1.653886
618.30 1.568467
618.40 1.450736
618.50 1.27727
618.60 1.092202
618.70 0.9935309
618.80 1.09223
618.90 1.437887
619.00 2.005422
619.10 2.663464
619.20 3.263332
619.30 3.746771
619.40 4.069516
619.50 4.224027
619.60 4.238461
619.70 4.166812
619.80 4.098555
619.90 4.101591
620.00 4.172861
620.10 4.248803
620.20 4.253793
620.30 4.162597
620.40 3.972635
620.50 3.726912
620.60 3.512938
620.70 3.355987
620.80 3.25385
620.90 3.186742
621.00 3.081301
621.10 2.85241
621.20 2.476423
621.30 2.002567
621.40 1.509206
621.50 1.074316
621.60 0.7806035
621.70 0.7119384
621.80 0.9006542
621.90 1.301114
622.00 1.809746
622.10 2.341064
622.20 2.830045
622.30 3.216791
622.40 3.490483
622.50 3.655001
622.60 3.704442
622.70 3.626177
622.80 3.429876
622.90 3.156105
623.00 2.807965
623.10 2.346937
623.20 1.800687
623.30 1.275105
623.40 0.8689502
623.50 0.6209534
623.60 0.5451775
623.70 0.6523053
623.80 0.9041192
623.90 1.229688
624.00 1.497535
624.10 1.623883
624.20 1.641901
624.30 1.611854
624.40 1.550993
624.50 1.436868
624.60 1.249049
624.70 0.9538173
624.80 0.556869
624.90 0.1070931
625.00 0
625.10 0
625.20 0
625.30 0
625.40 0
625.50 0
625.60 0
625.70 0
625.80 0
625.90 0.9203425
626.00 1.912906
626.10 2.734337
626.20 3.269422
626.30 3.460779
626.40 3.35113
626.50 3.077966
626.60 2.816675
626.70 2.6365
626.80 2.51636
626.90 2.391342
627.00 2.172275
627.10 1.802673
627.20 1.257811
627.30 0.6104679
627.40 0
627.50 0
627.60 0
627.70 0
627.80 0.3524284
627.90 1.268651
628.00 2.238124
628.10 3.124467
628.20 3.858965
628.30 4.422755
628.40 4.775205
628.50 4.846061
628.60 4.664675
628.70 4.334147
628.80 3.943005
628.90 3.511772
629.00 3.059737
629.10 2.645209
629.20 2.313551
629.30 2.089073
629.40 1.931307
629.50 1.742243
629.60 1.473951
629.70 1.205652
629.80 1.079161
629.90 1.195691
630.00 1.582132
630.10 2.182033
630.20 2.862493
630.30 3.496236
630.40 3.946257
630.50 4.06789
630.60 3.821237
630.70 3.292026
630.80 2.656401
630.90 2.093192
631.00 1.695119
631.10 1.453818
631.20 1.312313
631.30 1.233789
631.40 1.161862
631.50 1.042107
631.60 0.9207701
631.70 0.8781511
631.80 0.9620657
631.90 1.196816
632.00 1.547569
632.10 1.908811
632.20 2.181234
632.30 2.347168
632.40 2.431428
632.50 2.429333
632.60 2.346621
632.70 2.262635
632.80 2.256755
632.90 2.356849
633.00 2.548548
633.10 2.773257
633.20 2.977685
633.30 3.111844
633.40 3.112397
633.50 2.964704
633.60 2.705275
633.70 2.371667
633.80 1.975916
633.90 1.519715
634.00 1.058864
634.10 0.6521898
634.20 0.3488559
634.30 0.1738747
634.40 0.1079444
634.50 0.1508973
634.60 0.304933
634.70 0.5621032
634.80 0.9219053
634.90 1.363147
635.00 1.817022
635.10 2.197787
635.20 2.467297
635.30 2.642888
635.40 2.731775
635.50 2.712359
635.60 2.570199
635.70 2.354329
635.80 2.141954
635.90 1.963453
636.00 1.808679
636.10 1.664101
636.20 1.54579
636.30 1.517409
636.40 1.648902
636.50 1.939621
636.60 2.322858
636.70 2.717638
636.80 3.028521
636.90 3.170295
637.00 3.100108
637.10 2.808813
637.20 2.333131
637.30 1.767294
637.40 1.255659
637.50 0.9588963
637.60 0.9498204
637.70 1.1882
637.80 1.613466
637.90 2.179552
638.00 2.818557
638.10 3.440488
638.20 3.975691
638.30 4.384211
638.40 4.662959
638.50 4.828466
638.60 4.912562
638.70 4.95711
638.80 4.974472
638.90 4.938547
639.00 4.832703
639.10 4.641198
639.20 4.319888
639.30 3.855864
639.40 3.323643
639.50 2.834983
639.60 2.451672
639.70 2.183924
639.80 2.01129
639.90 1.887929
640.00 1.765248
640.10 1.606375
640.20 1.385075
640.30 1.08013
640.40 0.6967095
640.50 0.3025667
640.60 0.002446868
640.70 0
640.80 0
640.90 0.125212
641.00 0.3956595
641.10 0.7040245
641.20 1.018822
641.30 1.343263
641.40 1.671561
641.50 1.979498
641.60 2.243911
641.70 2.45143
641.80 2.603134
641.90 2.669862
642.00 2.595649
642.10 2.355549
642.20 1.982742
642.30 1.544181
642.40 1.127914
642.50 0.8274493
642.60 0.7142076
642.70 0.8137664
642.80 1.122052
642.90 1.606564
643.00 2.191494
643.10 2.760683
643.20 3.195479
643.30 3.457193
643.40 3.562869
643.50 3.53272
643.60 3.40104
643.70 3.233666
643.80 3.108039
643.90 3.083269
644.00 3.159502
644.10 3.281827
644.20 3.366551
644.30 3.332413
644.40 3.137486
644.50 2.798407
644.60 2.398305
644.70 2.033563
644.80 1.795305
644.90 1.743295
645.00 1.863177
645.10 2.071637
645.20 2.29452
645.30 2.471678
645.40 2.568726
645.50 2.620139
645.60 2.671142
645.70 2.753442
645.80 2.928783
645.90 3.234205
646.00 3.607909
646.10 3.951358
646.20 4.175398
646.30 4.23631
646.40 4.147879
646.50 3.971423
646.60 3.758218
646.70 3.536835
646.80 3.31777
646.90 3.052711
647.00 2.734798
647.10 2.431764
647.20 2.160374
647.30 1.89125
647.40 1.63027
647.50 1.426387
647.60 1.370242
647.70 1.511802
647.80 1.816381
647.90 2.2155
648.00 2.62585
648.10 2.985555
648.20 3.284892
648.30 3.576492
648.40 3.903759
648.50 4.256591
648.60 4.612485
648.70 4.961577
648.80 5.2843
648.90 5.503853
649.00 5.53532
649.10 5.371099
649.20 5.087914
649.30 4.771886
649.40 4.46414
649.50 4.149116
649.60 3.79958
649.70 3.42493
649.80 3.021152
649.90 2.582326
650.00 2.168264
650.10 1.871647
650.20 1.787065
650.30 2
650.40 2.532136
650.50 3.323851
650.60 4.211839
650.70 4.987642
650.80 5.512267
650.90 5.737353
651.00 5.670197
651.10 5.34239
651.20 4.852131
651.30 4.317932
651.40 3.829799
651.50 3.509774
651.60 3.414285
651.70 3.480424
651.80 3.606688
651.90 3.6934
652.00 3.713121
652.10 3.708259
652.20 3.723097
652.30 3.780721
652.40 3.895643
652.50 4.06314
652.60 4.256834
652.70 4.464375
652.80 4.6606
652.90 4.779007
653.00 4.829934
653.10 4.912912
653.20 5.066387
653.30 5.24477
653.40 5.369377
653.50 5.362529
653.60 5.199711
653.70 4.915215
653.80 4.573257
653.90 4.29139
654.00 4.160798
654.10 4.20428
654.20 4.416662
654.30 4.750179
654.40 5.108179
654.50 5.375928
654.60 5.509683
654.70 5.54831
654.80 5.569123
654.90 5.633625
655.00 5.722978
655.10 5.81324
655.20 5.906383
655.30 5.947655
655.40 5.890626
655.50 5.737718
655.60 5.505562
655.70 5.249696
655.80 4.990309
655.90 4.701798
656.00 4.404582
656.10 4.144163
656.20 3.947252
656.30 3.825957
656.40 3.817541
656.50 3.936281
656.60 4.142036
656.70 4.399037
656.80 4.674015
656.90 4.931007
657.00 5.158757
657.10 5.333008
657.20 5.447077
657.30 5.524787
657.40 5.538761
657.50 5.434122
657.60 5.187527
657.70 4.843115
657.80 4.479701
657.90 4.164978
658.00 3.948781
658.10 3.882595
658.20 4.008938
658.30 4.302269
658.40 4.691213
658.50 5.093204
658.60 5.402903
658.70 5.518477
658.80 5.408509
658.90 5.174493
659.00 4.99412
659.10 4.987282
659.20 5.187181
659.30 5.601274
659.40 6.228179
659.50 6.987986
659.60 7.740977
659.70 8.354697
659.80 8.715081
659.90 8.727311
660.00 8.393938
660.10 7.878181
660.20 7.368684
660.30 6.943745
660.40 6.589156
660.50 6.275666
660.60 6.002272
660.70 5.792975
660.80 5.649954
660.90 5.558516
661.00 5.506951
661.10 5.495976
661.20 5.536499
661.30 5.634075
661.40 5.772085
661.50 5.881549
661.60 5.88434
661.70 5.742388
661.80 5.469012
661.90 5.135888
662.00 4.85656
662.10 4.728168
662.20 4.808476
662.30 5.111506
662.40 5.602705
662.50 6.191519
662.60 6.730171
662.70 7.098773
662.80 7.279065
662.90 7.305748
663.00 7.217332
663.10 7.058923
663.20 6.867449
663.30 6.648388
663.40 6.379091
663.50 6.025082
663.60 5.601173
663.70 5.178638
663.80 4.818451
663.90 4.584353
664.00 4.521372
664.10 4.653241
664.20 4.954041
664.30 5.339546
664.40 5.72601
664.50 6.055796
664.60 6.313939
664.70 6.503445
664.80 6.619098
664.90 6.663411
665.00 6.637653
665.10 6.530012
665.20 6.345236
665.30 6.109055
665.40 5.877337
665.50 5.708648
665.60 5.667947
665.70 5.802919
665.80 6.104901
665.90 6.483728
666.00 6.788086
666.10 6.913958
666.20 6.864133
666.30 6.68942
666.40 6.403532
666.50 6.058277
666.60 5.752692
666.70 5.550982
666.80 5.484585
666.90 5.57071
667.00 5.775464
667.10 6.018509
667.20 6.239898
667.30 6.454564
667.40 6.721939
667.50 7.050547
667.60 7.36592
667.70 7.589407
667.80 7.717093
667.90 7.75645
668.00 7.727721
668.10 7.703738
668.20 7.784122
668.30 8.039711
668.40 8.467401
668.50 9.012901
668.60 9.580385
668.70 10.02122
668.80 10.19193
668.90 10.03929
669.00 9.604716
669.10 8.994312
669.20 8.346879
669.30 7.794016
669.40 7.429078
669.50 7.278906
669.60 7.293959
669.70 7.396672
669.80 7.531569
669.90 7.63379
670.00 7.657304
670.10 7.612683
670.20 7.512094
670.30 7.387565
670.40 7.322226
670.50 7.413284
670.60 7.700666
670.70 8.131513
670.80 8.61595
670.90 9.066377
671.00 9.404206
671.10 9.551186
671.20 9.465574
671.30 9.211483
671.40 8.885434
671.50 8.570878
671.60 8.349657
671.70 8.258497
671.80 8.27039
671.90 8.296195
672.00 8.257275
672.10 8.15369
672.20 8.010757
672.30 7.877527
672.40 7.835309
672.50 7.9239
672.60 8.0955
672.70 8.252529
672.80 8.334627
672.90 8.32817
673.00 8.292048
673.10 8.305157
673.20 8.37511
673.30 8.471843
673.40 8.546677
673.50 8.531568
673.60 8.383505
673.70 8.083382
673.80 7.618536
673.90 7.061123
674.00 6.559639
674.10 6.262329
674.20 6.267564
674.30 6.601669
674.40 7.183224
674.50 7.865883
674.60 8.544256
674.70 9.105288
674.80 9.434407
674.90 9.47813
675.00 9.234016
675.10 8.763983
675.20 8.199038
675.30 7.69032
675.40 7.362984
675.50 7.266803
675.60 7.366122
675.70 7.575684
675.80 7.804643
675.90 7.980983
676.00 8.033551
676.10 7.94674
676.20 7.781324
676.30 7.626543
676.40 7.519351
676.50 7.456871
676.60 7.476074
676.70 7.592918
676.80 7.784811
676.90 8.030349
677.00 8.27997
677.10 8.457951
677.20 8.5517
677.30 8.615011
677.40 8.703829
677.50 8.858783
677.60 9.06884
677.70 9.282623
677.80 9.501874
677.90 9.762183
678.00 10.04141
678.10 10.26175
678.20 10.31949
678.30 10.13419
678.40 9.723413
678.50 9.188745
678.60 8.613917
678.70 8.054205
678.80 7.585274
678.90 7.294081
679.00 7.252251
679.10 7.481571
679.20 7.938062
679.30 8.507622
679.40 9.019219
679.50 9.328402
679.60 9.37697
679.70 9.198816
679.80 8.889371
679.90 8.567786
680.00 8.313986
680.10 8.155565
680.20 8.092629
680.30 8.116247
680.40 8.235332
680.50 8.445237
680.60 8.695479
680.70 8.911088
680.80 9.066212
680.90 9.159013
681.00 9.162368
681.10 9.05876
681.20 8.846899
681.30 8.529613
681.40 8.156615
681.50 7.813947
681.60 7.602572
681.70 7.605777
681.80 7.840992
681.90 8.283919
682.00 8.868049
682.10 9.496588
682.20 10.06252
682.30 10.50037
682.40 10.806
682.50 10.91418
682.60 10.74987
682.70 10.33303
682.80 9.738872
682.90 9.103327
683.00 8.53682
683.10 8.080808
683.20 7.769336
683.30 7.644016
683.40 7.752289
683.50 8.103961
683.60 8.628005
683.70 9.179325
683.80 9.597724
683.90 9.826307
684.00 9.881894
684.10 9.779619
684.20 9.573997
684.30 9.32628
684.40 9.1358
684.50 9.124681
684.60 9.31763
684.70 9.646044
684.80 9.998314
684.90 10.25073
685.00 10.31335
685.10 10.15428
685.20 9.792728
685.30 9.307255
685.40 8.799983
685.50 8.358037
685.60 8.036188
685.70 7.862116
685.80 7.820851
685.90 7.864921
686.00 7.99427
686.10 8.196329
686.20 8.40018
686.30 8.596669
686.40 8.807778
686.50 9.010444
686.60 9.1829
686.70 9.30861
686.80 9.398271
686.90 9.494475
687.00 9.638211
687.10 9.803626
687.20 9.91187
687.30 9.904691
687.40 9.743599
687.50 9.452919
687.60 9.154101
687.70 8.944061
687.80 8.866006
687.90 8.967127
688.00 9.246277
688.10 9.649718
688.20 10.08063
688.30 10.4118
688.40 10.52589
688.50 10.39172
688.60 10.07032
688.70 9.636072
688.80 9.142204
688.90 8.639987
689.00 8.170179
689.10 7.749878
689.20 7.406918
689.30 7.17327
689.40 7.083601
689.50 7.153228
689.60 7.356231
689.70 7.638653
689.80 7.939318
689.90 8.196391
690.00 8.355216
690.10 8.401413
690.20 8.372629
690.30 8.313063
690.40 8.305186
690.50 8.459305
690.60 8.805052
690.70 9.302948
690.80 9.878638
690.90 10.43584
691.00 10.87592
691.10 11.15643
691.20 11.29066
691.30 11.28635
691.40 11.13873
691.50 10.84146
691.60 10.40457
691.70 9.881918
691.80 9.326267
691.90 8.783522
692.00 8.321762
692.10 7.992459
692.20 7.864978
692.30 7.955274
692.40 8.193872
692.50 8.511639
692.60 8.83259
692.70 9.092744
692.80 9.289901
692.90 9.46965
693.00 9.675018
693.10 9.881675
693.20 9.996456
693.30 9.945091
693.40 9.718918
693.50 9.358156
693.60 8.856702
693.70 8.231261
693.80 7.614473
693.90 7.141872
694.00 6.913665
694.10 6.992637
694.20 7.347891
694.30 7.877419
694.40 8.485715
694.50 9.074491
694.60 9.553212
694.70 9.865622
694.80 10.0027
694.90 10.02157
695.00 10.00212
695.10 9.997413
695.20 10.01884
695.30 10.04499
695.40 10.05157
695.50 10.04393
695.60 10.04002
695.70 10.039
695.80 9.996528
695.90 9.918111
696.00 9.885096
696.10 9.935735
696.20 10.01685
696.30 10.04058
696.40 9.968687
696.50 9.776922
696.60 9.470053
696.70 9.122926
696.80 8.817484
696.90 8.594735
697.00 8.453718
697.10 8.385022
697.20 8.38762
697.30 8.467344
697.40 8.581847
697.50 8.685657
697.60 8.79788
697.70 8.919654
697.80 9.026958
697.90 9.138334
698.00 9.255995
698.10 9.32976
698.20 9.309264
698.30 9.164953
698.40 8.930484
698.50 8.670975
698.60 8.444041
698.70 8.266053
698.80 8.140627
698.90 8.055814
699.00 7.968137
699.10 7.86252
699.20 7.757087
699.30 7.686056
699.40 7.642557
699.50 7.603653
699.60 7.60078
699.70 7.664504
699.80 7.780222
699.90 7.942312
700.00 8.133434
700.10 8.326204
700.20 8.494681
700.30 8.599295
700.40 8.613732
700.50 8.542428
700.60 8.406877
700.70 8.22887
700.80 8.076605
700.90 8.011859
701.00 8.016964
701.10 8.082771
701.20 8.237126
701.30 8.478791
701.40 8.771525
701.50 9.046714
701.60 9.240198
701.70 9.335287
701.80 9.365596
701.90 9.37646
702.00 9.389361
702.10 9.414331
702.20 9.436896
702.30 9.436304
702.40 9.399824
702.50 9.303326
702.60 9.149277
702.70 8.96073
702.80 8.773394
702.90 8.66324
703.00 8.706277
703.10 8.92934
703.20 9.274677
703.30 9.627028
703.40 9.881959
703.50 9.988268
703.60 9.967956
703.70 9.865728
703.80 9.712555
703.90 9.554065
704.00 9.404953
704.10 9.252999
704.20 9.1119
704.30 9.003069
704.40 8.954462
704.50 8.99911
704.60 9.160178
704.70 9.437001
704.80 9.791864
704.90 10.15505
705.00 10.43923
705.10 10.58299
705.20 10.59287
705.30 10.4995
705.40 10.32145
705.50 10.09163
705.60 9.885631
705.70 9.777717
705.80 9.775936
705.90 9.844369
706.00 9.938517
706.10 10.0498
706.20 10.21102
706.30 10.41664
706.40 10.57884
706.50 10.64149
706.60 10.63342
706.70 10.58714
706.80 10.55655
706.90 10.59921
707.00 10.69839
707.10 10.80064
707.20 10.8616
707.30 10.87127
707.40 10.86545
707.50 10.85383
707.60 10.81194
707.70 10.7562
707.80 10.75151
707.90 10.8163
708.00 10.91403
708.10 11.01035
708.20 11.05821
708.30 11.02464
708.40 10.91724
708.50 10.75934
708.60 10.62192
708.70 10.58015
708.80 10.63396
708.90 10.74788
709.00 10.88322
709.10 11.01135
709.20 11.15559
709.30 11.35924
709.40 11.58885
709.50 11.76233
709.60 11.84276
709.70 11.82844
709.80 11.75122
709.90 11.67775
710.00 11.64739
710.10 11.66811
710.20 11.75739
710.30 11.94599
710.40 12.24711
710.50 12.62923
710.60 13.01216
710.70 13.2891
710.80 13.39105
710.90 13.32659
711.00 13.13582
711.10 12.87666
711.20 12.59607
711.30 12.29977
711.40 12.01387
711.50 11.80003
711.60 11.71762
711.70 11.77787
711.80 11.934
711.90 12.13119
712.00 12.3168
712.10 12.43628
712.20 12.44151
712.30 12.3014
712.40 12.05812
712.50 11.80078
712.60 11.60957
712.70 11.56402
712.80 11.69338
712.90 11.93403
713.00 12.19409
713.10 12.43418
713.20 12.643
713.30 12.78426
713.40 12.83331
713.50 12.80454
713.60 12.74065
713.70 12.67312
713.80 12.57533
713.90 12.40425
714.00 12.13646
714.10 11.77325
714.20 11.34468
714.30 10.90507
714.40 10.49477
714.50 10.10108
714.60 9.705511
714.70 9.328473
714.80 9.015831
714.90 8.816391
715.00 8.756178
715.10 8.847018
715.20 9.109671
715.30 9.520445
715.40 10.0032
715.50 10.46325
715.60 10.79349
715.70 10.93305
715.80 10.8929
715.90 10.74065
716.00 10.57476
716.10 10.47004
716.20 10.45913
716.30 10.52841
716.40 10.64354
716.50 10.78374
716.60 10.90178
716.70 10.94096
716.80 10.89267
716.90 10.78199
717.00 10.65514
717.10 10.56745
717.20 10.59577
717.30 10.80166
717.40 11.19747
717.50 11.74266
717.60 12.33209
717.70 12.8546
717.80 13.22594
717.90 13.38386
718.00 13.30301
718.10 13.00566
718.20 12.553
718.30 12.0526
718.40 11.655
718.50 11.4924
718.60 11.59922
718.70 11.92071
718.80 12.38911
718.90 12.96671
719.00 13.6227
719.10 14.30989
719.20 14.95753
719.30 15.46746
719.40 15.73982
719.50 15.71605
719.60 15.40336
719.70 14.86178
719.80 14.17345
719.90 13.42788
720.00 12.73423
720.10 12.20461
720.20 11.91276
720.30 11.85569
720.40 11.97627
720.50 12.17647
720.60 12.35798
720.70 12.47919
720.80 12.5298
720.90 12.50985
721.00 12.41704
721.10 12.24404
721.20 12.00682
721.30 11.7577
721.40 11.55712
721.50 11.44445
721.60 11.39632
721.70 11.34189
721.80 11.23666
721.90 11.11791
722.00 11.07664
722.10 11.14012
722.20 11.2617
722.30 11.40701
722.40 11.57605
722.50 11.76677
722.60 11.94973
722.70 12.06874
722.80 12.07757
722.90 11.96411
723.00 11.74527
723.10 11.49527
723.20 11.31021
723.30 11.20921
723.40 11.09687
723.50 10.89529
723.60 10.65073
723.70 10.42354
723.80 10.27924
723.90 10.3345
724.00 10.64692
724.10 11.19588
724.20 11.94685
724.30 12.82741
724.40 13.72245
724.50 14.49499
724.60 14.98413
724.70 15.04949
724.80 14.64943
724.90 13.85281
725.00 12.83866
725.10 11.85194
725.20 11.04209
725.30 10.44691
725.40 10.13949
725.50 10.21771
725.60 10.66177
725.70 11.34529
725.80 12.10808
725.90 12.76787
726.00 13.19286
726.10 13.36611
726.20 13.38503
726.30 13.36542
726.40 13.30173
726.50 13.12181
726.60 12.83052
726.70 12.49701
726.80 12.15871
726.90 11.81941
727.00 11.52768
727.10 11.38243
727.20 11.47364
727.30 11.85201
727.40 12.49978
727.50 13.3098
727.60 14.10104
727.70 14.68329
727.80 14.92649
727.90 14.79914
728.00 14.35175
728.10 13.70723
728.20 13.04596
728.30 12.52239
728.40 12.1961
728.50 12.06183
728.60 12.08924
728.70 12.22166
728.80 12.35383
728.90 12.34494
729.00 12.08178
729.10 11.50486
729.20 10.64883
729.30 9.675903
729.40 8.821228
729.50 8.272468
729.60 8.14371
729.70 8.471532
729.80 9.160646
729.90 9.971202
730.00 10.62629
730.10 10.91013
730.20 10.71705
730.30 10.11433
730.40 9.296217
730.50 8.50624
730.60 7.962091
730.70 7.778265
730.80 7.962378
730.90 8.45224
731.00 9.096655
731.10 9.694992
731.20 10.06601
731.30 10.12361
731.40 9.933709
731.50 9.680569
731.60 9.576006
731.70 9.744125
731.80 10.20091
731.90 10.87726
732.00 11.66134
732.10 12.40263
732.20 12.92161
732.30 13.05813
732.40 12.76956
732.50 12.13419
732.60 11.33823
732.70 10.59902
732.80 10.03078
732.90 9.662959
733.00 9.463584
733.10 9.370367
733.20 9.338654
733.30 9.36582
733.40 9.424952
733.50 9.422169
733.60 9.252044
733.70 8.888674
733.80 8.456382
733.90 8.166106
734.00 8.168615
734.10 8.510957
734.20 9.156427
734.30 9.971978
734.40 10.76011
734.50 11.32748
734.60 11.51256
734.70 11.24523
734.80 10.60265
734.90 9.809149
735.00 9.177497
735.10 8.948415
735.20 9.114352
735.30 9.491371
735.40 9.884692
735.50 10.15797
735.60 10.23751
735.70 10.11218
735.80 9.860653
735.90 9.609327
736.00 9.455419
736.10 9.39057
736.20 9.347678
736.30 9.277719
736.40 9.175309
736.50 9.092951
736.60 9.073172
736.70 9.1184
736.80 9.243354
736.90 9.461349
737.00 9.751459
737.10 10.04615
737.20 10.24759
737.30 10.27237
737.40 10.12088
737.50 9.893366
737.60 9.707279
737.70 9.630945
737.80 9.645867
737.90 9.670549
738.00 9.656159
738.10 9.603823
738.20 9.530987
738.30 9.474787
738.40 9.487955
738.50 9.612707
738.60 9.871298
738.70 10.25087
738.80 10.67755
738.90 11.07612
739.00 11.4396
739.10 11.77463
739.20 12.03014
739.30 12.11097
739.40 11.95329
739.50 11.59069
739.60 11.12587
739.70 10.64572
739.80 10.18013
739.90 9.770486
740.00 9.462543
740.10 9.270407
740.20 9.189203
740.30 9.184796
740.40 9.171856
740.50 9.053726
740.60 8.816658
740.70 8.547406
740.80 8.350104
740.90 8.247499
741.00 8.186531
741.10 8.104254
741.20 7.970623
741.30 7.747205
741.40 7.412259
741.50 7.00472
741.60 6.607458
741.70 6.306479
741.80 6.156437
741.90 6.205207
742.00 6.467367
742.10 6.874714
742.20 7.315032
742.30 7.697897
742.40 7.994192
742.50 8.234174
742.60 8.451159
742.70 8.679576
742.80 8.960113
742.90 9.27993
743.00 9.559248
743.10 9.718624
743.20 9.732173
743.30 9.62093
743.40 9.463626
743.50 9.395202
743.60 9.510231
743.70 9.841801
743.80 10.31233
743.90 10.75506
744.00 11.04801
744.10 11.07941
744.20 10.76409
744.30 10.15834
744.40 9.424781
744.50 8.720203
744.60 8.148461
744.70 7.753403
744.80 7.508989
744.90 7.33783
745.00 7.200436
745.10 7.069632
745.20 6.924568
745.30 6.793263
745.40 6.714923
745.50 6.754371
745.60 6.953092
745.70 7.23256
745.80 7.466508
745.90 7.571109
746.00 7.469077
746.10 7.1398
746.20 6.67558
746.30 6.199159
746.40 5.803081
746.50 5.543558
746.60 5.444738
746.70 5.498597
746.80 5.677238
746.90 5.96137
747.00 6.336721
747.10 6.801639
747.20 7.331888
747.30 7.865651
747.40 8.360312
747.50 8.766329
747.60 8.972668
747.70 8.885814
747.80 8.47403
747.90 7.799923
748.00 7.049571
748.10 6.459132
748.20 6.185027
748.30 6.234149
748.40 6.529067
748.50 6.953119
748.60 7.355525
748.70 7.588583
748.80 7.569598
748.90 7.279211
749.00 6.761117
749.10 6.119264
749.20 5.506885
749.30 5.081665
749.40 4.926903
749.50 5.013762
749.60 5.267815
749.70 5.602359
749.80 5.877521
749.90 5.964131
750.00 5.835573
750.10 5.560445
750.20 5.237254
750.30 4.942207
750.40 4.722543
750.50 4.611932
750.60 4.623778
750.70 4.730875
750.80 4.879816
750.90 5.024644
751.00 5.133036
751.10 5.18898
751.20 5.199217
751.30 5.175907
751.40 5.102496
751.50 4.926882
751.60 4.597752
751.70 4.114172
751.80 3.561739
751.90 3.079686
752.00 2.739453
752.10 2.522274
752.20 2.451834
752.30 2.596277
752.40 2.937059
752.50 3.386113
752.60 3.852413
752.70 4.25304
752.80 4.535717
752.90 4.69281
753.00 4.737998
753.10 4.705434
753.20 4.633255
753.30 4.546404
753.40 4.526731
753.50 4.702097
753.60 5.078582
753.70 5.512936
753.80 5.852951
753.90 5.999601
754.00 5.919579
754.10 5.652346
754.20 5.273655
754.30 4.851363
754.40 4.466321
754.50 4.228504
754.60 4.203825
754.70 4.378236
754.80 4.673951
754.90 4.980774
755.00 5.187966
755.10 5.221716
755.20 5.082167
755.30 4.837215
755.40 4.57521
755.50 4.361786
755.60 4.252441
755.70 4.294544
755.80 4.491735
755.90 4.802999
756.00 5.163612
756.10 5.492279
756.20 5.747414
756.30 5.925205
756.40 6.028618
756.50 6.098543
756.60 6.184351
756.70 6.296249
756.80 6.424473
756.90 6.566072
757.00 6.703102
757.10 6.813097
757.20 6.892856
757.30 6.92983
757.40 6.90479
757.50 6.793414
757.60 6.575875
757.70 6.262369
757.80 5.882878
757.90 5.463738
758.00 5.000509
758.10 4.50125
758.20 4.017129
758.30 3.599126
758.40 3.296219
758.50 3.148274
758.60 3.150506
758.70 3.256667
758.80 3.433331
758.90 3.682497
759.00 3.977676
759.10 4.263842
759.20 4.532332
759.30 4.789793
759.40 5.103119
759.50 5.560648
759.60 6.168611
759.70 6.835681
759.80 7.437741
759.90 7.875701
760.00 8.070105
760.10 7.93375
760.20 7.399243
760.30 6.541439
760.40 5.521686
760.50 4.495802
760.60 3.573161
760.70 2.858049
760.80 2.425603
760.90 2.279877
761.00 2.378028
761.10 2.625063
761.20 2.874957
761.30 2.986437
761.40 2.901512
761.50 2.717474
761.60 2.61637
761.70 2.715243
761.80 3.043372
761.90 3.569129
762.00 4.215887
762.10 4.831318
762.20 5.199524
762.30 5.178333
762.40 4.758836
762.50 4.04479
762.60 3.203025
762.70 2.414347
762.80 1.836036
762.90 1.530161
763.00 1.455898
763.10 1.499985
763.20 1.578319
763.30 1.654785
763.40 1.692674
763.50 1.664666
763.60 1.583251
763.70 1.430586
763.80 1.173507
763.90 0.8641137
764.00 0.6021678
764.10 0.4461803
764.20 0.4118628
764.30 0.5166969
764.40 0.7480343
764.50 1.034363
764.60 1.270866
764.70 1.385264
764.80 1.377576
764.90 1.299658
765.00 1.206143
765.10 1.157855
765.20 1.19604
765.30 1.276473
765.40 1.296877
765.50 1.216857
765.60 1.04632
765.70 0.778494
765.80 0.4569394
765.90 0.2136883
766.00 0.1805072
766.10 0.402297
766.20 0.8405006
766.30 1.405461
766.40 1.985322
766.50 2.43797
766.60 2.606505
766.70 2.431243
766.80 1.993865
766.90 1.404112
767.00 0.7679034
767.10 0.2131287
767.20 0
767.30 0
767.40 0
767.50 0
767.60 0.2314336
767.70 0.6060252
767.80 0.9753168
767.90 1.33066
768.00 1.72989
768.10 2.20324
768.20 2.678717
768.30 3.058525
768.40 3.288131
768.50 3.355643
768.60 3.296256
768.70 3.161803
768.80 2.978641
768.90 2.76124
769.00 2.551925
769.10 2.416415
769.20 2.411435
769.30 2.55615
769.40 2.758891
769.50 2.886135
769.60 2.890456
769.70 2.761813
769.80 2.509357
769.90 2.183852
770.00 1.846039
770.10 1.568815
770.20 1.413494
770.30 1.37312
770.40 1.372036
770.50 1.300976
770.60 0.9899452
770.70 0.2590538
770.80 0
770.90 0
771.00 0
771.10 0
771.20 0
771.30 0
771.40 0
771.50 0
771.60 0
771.70 1.557026
771.80 2.792056
771.90 3.520963
772.00 3.738156
772.10 3.525698
772.20 3.010671
772.30 2.328249
772.40 1.583608
772.50 0.8504566
772.60 0.1940187
772.70 0
772.80 0
772.90 0
773.00 0.6035663
773.10 1.505337
773.20 2.425474
773.30 3.171497
773.40 3.625238
773.50 3.782075
773.60 3.688483
773.70 3.420844
773.80 3.070596
773.90 2.726488
774.00 2.438681
774.10 2.232794
774.20 2.081577
774.30 1.935349
774.40 1.760756
774.50 1.527895
774.60 1.2818
774.70 1.017045
774.80 0.6727725
774.90 0.3462168
775.00 0.2577287
775.10 0.5419693
775.20 1.196083
775.30 2.106644
775.40 3.044039
775.50 3.722964
775.60 3.930011
775.70 3.6113
775.80 2.921362
775.90 2.092309
776.00 1.241588
776.10 0.5382391
776.20 0.2127801
776.30 0.297573
776.40 0.6376694
776.50 1.06561
776.60 1.469277
776.70 1.740382
776.80 1.848644
776.90 1.916182
777.00 2.073566
777.10 2.345073
777.20 2.686183
777.30 3.067561
777.40 3.520396
777.50 4.0478
777.60 4.618189
777.70 5.181156
777.80 5.599515
777.90 5.751977
778.00 5.602767
778.10 5.209923
778.20 4.68471
778.30 4.125283
778.40 3.662267
778.50 3.390241
778.60 3.268822
778.70 3.17118
778.80 3.060436
778.90 3.041455
779.00 3.095344
779.10 3.110979
779.20 3.116369
779.30 3.17128
779.40 3.239367
779.50 3.256117
779.60 3.203543
779.70 3.058513
779.80 2.771787
779.90 2.386663
780.00 2.064804
780.10 1.9905
780.20 2.193319
780.30 2.495514
780.40 2.774496
780.50 3.0051
780.60 3.137327
780.70 3.133495
780.80 3.044824
780.90 3.011645
781.00 3.147544
781.10 3.505863
781.20 4.091182
781.30 4.839149
781.40 5.622886
781.50 6.26529
781.60 6.607687
781.70 6.593257
781.80 6.262419
781.90 5.761255
782.00 5.283121
782.10 4.968315
782.20 4.945009
782.30 5.278745
782.40 5.927299
782.50 6.770907
782.60 7.642436
782.70 8.373599
782.80 8.816189
782.90 8.926101
783.00 8.788852
783.10 8.516191
783.20 8.190832
783.30 7.859666
783.40 7.566219
783.50 7.380684
783.60 7.323723
783.70 7.395258
783.80 7.592993
783.90 7.863168
784.00 8.140601
784.10 8.385765
784.20 8.572283
784.30 8.656869
784.40 8.619134
784.50 8.494155
784.60 8.332406
784.70 8.15462
784.80 7.991052
784.90 7.975376
785.00 8.395181
785.10 9.445754
785.20 11.07228
785.30 13.05371
785.40 15.02197
785.50 16.60064
785.60 17.54164
785.70 17.73806
785.80 17.18585
785.90 16.00106
786.00 14.44227
786.10 12.86423
786.20 11.59338
786.30 10.77975
786.40 10.28606
786.50 9.892774
786.60 9.521712
786.70 9.24146
786.80 9.215178
786.90 9.548064
787.00 10.23028
787.10 11.13406
787.20 12.00135
787.30 12.6019
787.40 12.82274
787.50 12.58973
787.60 11.92826
787.70 11.08007
787.80 10.38135
787.90 10.07417
788.00 10.26407
788.10 10.91968
788.20 11.86693
788.30 12.79251
788.40 13.40693
788.50 13.58888
788.60 13.40485
788.70 12.97398
788.80 12.39545
788.90 11.83838
789.00 11.4785
789.10 11.2977
789.20 11.16731
789.30 11.03552
789.40 10.89079
789.50 10.71829
789.60 10.5549
789.70 10.53041
789.80 10.73934
789.90 11.13619
790.00 11.60841
790.10 12.05495
790.20 12.40596
790.30 12.62797
790.40 12.70962
790.50 12.68827
790.60 12.62654
790.70 12.51848
790.80 12.26829
790.90 11.81833
791.00 11.17727
791.10 10.37267
791.20 9.468525
791.30 8.619303
791.40 8.025889
791.50 7.810193
791.60 8.014159
791.70 8.588024
791.80 9.409551
791.90 10.35762
792.00 11.29179
792.10 12.06611
792.20 12.65062
792.30 13.07001
792.40 13.38026
792.50 13.64761
792.60 13.82056
792.70 13.75656
792.80 13.34195
792.90 12.6098
793.00 11.74646
793.10 10.9529
793.20 10.41975
793.30 10.25031
793.40 10.4288
793.50 10.95749
793.60 11.78876
793.70 12.75238
793.80 13.57916
793.90 14.04583
794.00 14.09546
794.10 13.81551
794.20 13.28823
794.30 12.496
794.40 11.37307
794.50 9.961965
794.60 8.416695
794.70 6.959055
794.80 5.864575
794.90 5.319903
795.00 5.386938
795.10 6.033496
795.20 7.138526
795.30 8.50181
795.40 9.939474
795.50 11.29301
795.60 12.45825
795.70 13.40821
795.80 14.12042
795.90 14.62139
796.00 14.96056
796.10 15.20057
796.20 15.46569
796.30 15.83932
796.40 16.34818
796.50 16.99451
796.60 17.76257
796.70 18.61979
796.80 19.46546
796.90 20.17345
797.00 20.67017
797.10 20.94304
797.20 21.0437
797.30 21.01316
797.40 20.82357
797.50 20.42582
797.60 19.80407
797.70 18.97326
797.80 17.98361
797.90 16.94643
798.00 15.98599
798.10 15.21624
798.20 14.75915
798.30 14.72318
798.40 15.10592
798.50 15.79326
798.60 16.64411
798.70 17.5218
798.80 18.29656
798.90 18.84598
799.00 19.02797
799.10 18.77782
799.20 18.23098
799.30 17.65168
799.40 17.21647
799.50 16.92887
799.60 16.74896
799.70 16.66133
799.80 16.70519
799.90 16.95257
800.00 17.42338
800.10 18.05115
800.20 18.75963
800.30 19.48086
800.40 20.151
800.50 20.71878
800.60 21.05917
800.70 20.99915
800.80 20.56546
800.90 19.99651
801.00 19.50177
801.10 19.12718
801.20 18.88836
801.30 18.81116
801.40 18.83618
801.50 18.89728
801.60 18.95093
801.70 18.96854
801.80 18.91758
801.90 18.80543
802.00 18.701
802.10 18.73252
802.20 18.94864
802.30 19.33066
802.40 19.87539
802.50 20.63161
802.60 21.55712
802.70 22.45788
802.80 23.20321
802.90 23.68367
803.00 23.83271
803.10 23.6915
803.20 23.36016
803.30 22.92277
803.40 22.46154
803.50 22.02994
803.60 21.71458
803.70 21.61181
803.80 21.73657
803.90 22.00742
804.00 22.28369
804.10 22.49382
804.20 22.6663
804.30 22.90142
804.40 23.24618
804.50 23.66312
804.60 24.142
804.70 24.70021
804.80 25.29478
804.90 25.83767
805.00 26.23918
805.10 26.42149
805.20 26.36547
805.30 26.1384
805.40 25.87029
805.50 25.65353
805.60 25.46368
805.70 25.2902
805.80 25.19063
805.90 25.21828
806.00 25.36043
806.10 25.55376
806.20 25.77065
806.30 26.01321
806.40 26.24336
806.50 26.38034
806.60 26.39081
806.70 26.27838
806.80 26.03026
806.90 25.67631
807.00 25.34084
807.10 25.13584
807.20 25.14771
807.30 25.43633
807.40 26.00196
807.50 26.78769
807.60 27.63898
807.70 28.35775
807.80 28.8006
807.90 28.91503
808.00 28.71892
808.10 28.32787
808.20 27.94005
808.30 27.71843
808.40 27.74159
808.50 28.02073
808.60 28.50376
808.70 29.10594
808.80 29.71015
808.90 30.18889
809.00 30.46263
809.10 30.49646
809.20 30.2941
809.30 29.90632
809.40 29.39618
809.50 28.8017
809.60 28.18318
809.70 27.68573
809.80 27.42317
809.90 27.38042
810.00 27.49883
810.10 27.70823
810.20 27.9358
810.30 28.15755
810.40 28.39041
810.50 28.65764
810.60 28.97668
810.70 29.33286
810.80 29.67907
810.90 29.93814
811.00 30.03965
811.10 29.96794
811.20 29.75986
811.30 29.50064
811.40 29.25354
811.50 29.04493
811.60 28.92589
811.70 28.94392
811.80 29.09295
811.90 29.33699
812.00 29.62479
812.10 29.9113
812.20 30.20817
812.30 30.58385
812.40 31.07783
812.50 31.64629
812.60 32.19493
812.70 32.66269
812.80 33.04232
812.90 33.32057
813.00 33.46165
813.10 33.407
813.20 33.11774
813.30 32.66746
813.40 32.22343
813.50 31.91587
813.60 31.7747
813.70 31.77196
813.80 31.88641
813.90 32.07322
814.00 32.24371
814.10 32.25851
814.20 32.01027
814.30 31.55139
814.40 31.03746
814.50 30.66462
814.60 30.58873
814.70 30.79558
814.80 31.18537
814.90 31.71234
815.00 32.33812
815.10 32.98027
815.20 33.54278
815.30 33.94671
815.40 34.16136
815.50 34.24054
815.60 34.25845
815.70 34.22493
815.80 34.12903
815.90 34.00012
816.00 33.93997
816.10 34.07982
816.20 34.45678
816.30 34.9935
816.40 35.58568
816.50 36.1498
816.60 36.62306
816.70 36.98482
816.80 37.24683
816.90 37.429
817.00 37.55305
817.10 37.6467
817.20 37.74119
817.30 37.83157
817.40 37.88357
817.50 37.86399
817.60 37.77324
817.70 37.64699
817.80 37.52565
817.90 37.44708
818.00 37.43373
818.10 37.44489
818.20 37.4072
818.30 37.26013
818.40 36.97813
818.50 36.59916
818.60 36.18393
818.70 35.80525
818.80 35.53201
818.90 35.38122
819.00 35.29501
819.10 35.18331
819.20 34.96121
819.30 34.5647
819.40 33.97549
819.50 33.30474
819.60 32.8186
819.70 32.8143
819.80 33.48833
819.90 34.82351
820.00 36.65279
820.10 38.74328
820.20 40.77506
820.30 42.4644
820.40 43.64277
820.50 44.19318
820.60 44.07016
820.70 43.38563
820.80 42.39047
820.90 41.3602
821.00 40.49418
821.10 39.88998
821.20 39.55787
821.30 39.45082
821.40 39.47036
821.50 39.47465
821.60 39.36786
821.70 39.09272
821.80 38.61683
821.90 38.00725
822.00 37.41974
822.10 37.00515
822.20 36.86817
822.30 37.05264
822.40 37.50592
822.50 38.12424
822.60 38.84473
822.70 39.6314
822.80 40.4191
822.90 41.08383
823.00 41.48156
823.10 41.54905
823.20 41.35811
823.30 41.07656
823.40 40.88406
823.50 40.87729
823.60 41.0667
823.70 41.45425
823.80 42.0518
823.90 42.84945
824.00 43.73768
824.10 44.5207
824.20 45.01917
824.30 45.14971
824.40 44.94447
824.50 44.54415
824.60 44.1255
824.70 43.81122
824.80 43.65564
824.90 43.69788
825.00 43.94845
825.10 44.33786
825.20 44.76847
825.30 45.13644
825.40 45.34315
825.50 45.36948
825.60 45.2614
825.70 45.10153
825.80 45.0393
825.90 45.17736
826.00 45.49631
826.10 45.93948
826.20 46.4529
826.30 46.98979
826.40 47.50894
826.50 47.93749
826.60 48.10962
826.70 47.86117
826.80 47.17088
826.90 46.16002
827.00 45.05598
827.10 44.11251
827.20 43.49745
827.30 43.26238
827.40 43.37111
827.50 43.69229
827.60 44.06754
827.70 44.385
827.80 44.55469
827.90 44.50493
828.00 44.23537
828.10 43.79256
828.20 43.24654
828.30 42.72005
828.40 42.33063
828.50 42.11481
828.60 42.17545
828.70 42.72255
828.80 43.85839
828.90 45.51041
829.00 47.44407
829.10 49.29168
829.20 50.64433
829.30 51.22286
829.40 51.03686
829.50 50.30586
829.60 49.30189
829.70 48.26196
829.80 47.41494
829.90 47.01399
830.00 47.04983
830.10 47.22915
830.20 47.31769
830.30 47.2159
830.40 46.90829
830.50 46.45675
830.60 46.02032
830.70 45.76224
830.80 45.70725
830.90 45.86707
831.00 46.26289
831.10 46.87122
831.20 47.63581
831.30 48.43759
831.40 49.18332
831.50 49.81087
831.60 50.25776
831.70 50.53295
831.80 50.73682
831.90 50.98944
832.00 51.39445
832.10 52.00972
832.20 52.85583
832.30 53.8655
832.40 54.86262
832.50 55.63491
832.60 55.98771
832.70 55.84216
832.80 55.24235
832.90 54.32142
833.00 53.25269
833.10 52.16567
833.20 51.14723
833.30 50.26698
833.40 49.60632
833.50 49.28855
833.60 49.31548
833.70 49.53511
833.80 49.80617
833.90 50.01616
834.00 50.17443
834.10 50.34652
834.20 50.62579
834.30 51.0962
834.40 51.78205
834.50 52.68083
834.60 53.68114
834.70 54.64296
834.80 55.41598
834.90 55.80787
835.00 55.735
835.10 55.21904
835.20 54.44859
835.30 53.74781
835.40 53.23166
835.50 52.92002
835.60 52.77849
835.70 52.72989
835.80 52.72266
835.90 52.69962
836.00 52.66277
836.10 52.6306
836.20 52.59522
836.30 52.53766
836.40 52.48759
836.50 52.58658
836.60 52.89221
836.70 53.33575
836.80 53.90122
836.90 54.52938
837.00 55.12273
837.10 55.62158
837.20 55.95942
837.30 56.07912
837.40 56.00147
837.50 55.82103
837.60 55.69907
837.70 55.82061
837.80 56.28532
837.90 57.03163
838.00 57.90463
838.10 58.70443
838.20 59.23464
838.30 59.41986
838.40 59.25492
838.50 58.71778
838.60 57.86084
838.70 56.83567
838.80 55.83866
838.90 55.01779
839.00 54.35642
839.10 53.8045
839.20 53.40628
839.30 53.26179
839.40 53.44086
839.50 53.8971
839.60 54.5202
839.70 55.15791
839.80 55.7172
839.90 56.25339
840.00 56.7691
840.10 57.17089
840.20 57.36021
840.30 57.31451
840.40 57.21041
840.50 57.28411
840.60 57.6501
840.70 58.2772
840.80 58.96997
840.90 59.616
841.00 60.27459
841.10 60.94435
841.20 61.4329
841.30 61.48152
841.40 61.06132
841.50 60.40551
841.60 59.79845
841.70 59.43636
841.80 59.35757
841.90 59.47464
842.00 59.6607
842.10 59.83894
842.20 60.06824
842.30 60.42979
842.40 60.83153
842.50 61.16485
842.60 61.56184
842.70 62.23654
842.80 63.20517
842.90 64.28405
843.00 65.21839
843.10 65.7359
843.20 65.63124
843.30 64.84158
843.40 63.47988
843.50 61.77181
843.60 59.99066
843.70 58.42975
843.80 57.38864
843.90 57.09032
844.00 57.51374
844.10 58.47311
844.20 59.75703
844.30 61.12393
844.40 62.3057
844.50 63.0781
844.60 63.35759
844.70 63.21266
844.80 62.71888
844.90 61.91964
845.00 60.92999
845.10 59.92334
845.20 59.0622
845.30 58.46439
845.40 58.16427
845.50 58.07377
845.60 58.04519
845.70 57.99614
845.80 57.94026
845.90 57.96615
846.00 58.21459
846.10 58.74828
846.20 59.50427
846.30 60.41987
846.40 61.38705
846.50 62.24216
846.60 62.87436
846.70 63.21694
846.80 63.2828
846.90 63.15291
847.00 62.91154
847.10 62.61197
847.20 62.37563
847.30 62.31659
847.40 62.30372
847.50 62.13
847.60 61.77119
847.70 61.3068
847.80 60.84094
847.90 60.46846
848.00 60.21438
848.10 60.10258
848.20 60.18285
848.30 60.48665
848.40 61.00428
848.50 61.66662
848.60 62.26595
848.70 62.63688
848.80 62.80473
848.90 62.87944
849.00 62.99423
849.10 63.19791
849.20 63.4435
849.30 63.67843
849.40 63.86894
849.50 63.94166
849.60 63.77352
849.70 63.34502
849.80 62.82083
849.90 62.44864
850.00 62.43821
850.10 62.74837
850.20 63.09627
850.30 63.27275
850.40 63.21226
850.50 62.94597
850.60 62.60648
850.70 62.31317
850.80 62.08866
850.90 61.99896
851.00 62.15862
851.10 62.52807
851.20 62.87441
851.30 62.91597
851.40 62.41703
851.50 61.31936
851.60 59.74284
851.70 57.67736
851.80 54.97732
851.90 51.64216
852.00 47.87375
852.10 44.05368
852.20 40.76022
852.30 38.58549
852.40 37.93963
852.50 38.99838
852.60 41.6791
852.70 45.59687
852.80 50.16006
852.90 54.74657
853.00 58.86892
853.10 62.28042
853.20 64.93089
853.30 66.86811
853.40 68.22012
853.50 69.19481
853.60 69.94022
853.70 70.48455
853.80 70.81097
853.90 70.9279
854.00 70.84199
854.10 70.58284
854.20 70.26548
854.30 70.00198
854.40 69.81395
854.50 69.66149
854.60 69.47841
854.70 69.2502
854.80 69.02872
854.90 68.85144
855.00 68.79584
855.10 68.97544
855.20 69.44906
855.30 70.19797
855.40 71.19222
855.50 72.38775
855.60 73.65334
855.70 74.8142
855.80 75.7241
855.90 76.31628
856.00 76.6298
856.10 76.71232
856.20 76.62295
856.30 76.48719
856.40 76.41958
856.50 76.48897
856.60 76.73171
856.70 77.18147
856.80 77.85707
856.90 78.67212
857.00 79.39103
857.10 79.74424
857.20 79.56532
857.30 78.84306
857.40 77.68385
857.50 76.29622
857.60 74.94863
857.70 73.85662
857.80 73.16382
857.90 72.91394
858.00 73.08563
858.10 73.60114
858.20 74.25964
858.30 74.82853
858.40 75.20556
858.50 75.40448
858.60 75.4602
858.70 75.36092
858.80 75.04892
858.90 74.4894
859.00 73.67594
859.10 72.65295
859.20 71.52071
859.30 70.44268
859.40 69.62672
859.50 69.21716
859.60 69.30669
859.70 69.93266
859.80 71.02852
859.90 72.41972
860.00 73.8541
860.10 75.10747
860.20 76.04642
860.30 76.64655
860.40 76.99609
860.50 77.17768
860.60 77.16846
860.70 76.90556
860.80 76.2529
860.90 75.07491
861.00 73.35687
861.10 71.17332
861.20 68.60223
861.30 65.749
861.40 62.81601
861.50 60.07559
861.60 57.79197
861.70 56.05159
861.80 54.77143
861.90 53.90339
862.00 53.45192
862.10 53.33635
862.20 53.44917
862.30 53.68461
862.40 53.91063
862.50 54.00926
862.60 53.88135
862.70 53.40923
862.80 52.42495
862.90 50.90421
863.00 49.15067
863.10 47.6904
863.20 46.97085
863.30 47.21087
863.40 48.46586
863.50 50.64232
863.60 53.43644
863.70 56.36257
863.80 58.84036
863.90 60.35088
864.00 60.64603
864.10 59.85531
864.20 58.44785
864.30 56.90123
864.40 55.45452
864.50 54.19732
864.60 53.17337
864.70 52.40883
864.80 51.89814
864.90 51.63629
865.00 51.65643
865.10 51.97169
865.20 52.54789
865.30 53.33521
865.40 54.27551
865.50 55.28607
865.60 56.28501
865.70 57.23617
865.80 58.17196
865.90 59.10274
866.00 60.02511
866.10 60.96376
866.20 61.8996
866.30 62.7834
866.40 63.58758
866.50 64.26061
866.60 64.6784
866.70 64.70716
866.80 64.28088
866.90 63.56728
867.00 62.94297
867.10 62.66363
867.20 62.74008
867.30 63.17238
867.40 63.99302
867.50 65.13019
867.60 66.44277
867.70 67.6269
867.80 68.22909
867.90 67.986
868.00 66.97436
868.10 65.49279
868.20 63.95403
868.30 62.7325
868.40 62.08153
868.50 62.17364
868.60 63.03372
868.70 64.4219
868.80 65.88853
868.90 66.96784
869.00 67.28668
869.10 66.71194
869.20 65.43329
869.30 63.77498
869.40 62.08569
869.50 60.75123
869.60 60.12249
869.70 60.28675
869.80 60.9809
869.90 61.88113
870.00 62.78925
870.10 63.53451
870.20 63.90503
870.30 63.68594
870.40 62.79358
870.50 61.47569
870.60 60.20016
870.70 59.32317
870.80 59.02496
870.90 59.31898
871.00 60.08638
871.10 61.14463
871.20 62.24864
871.30 63.18323
871.40 63.81435
871.50 64.0872
871.60 64.04175
871.70 63.831
871.80 63.61324
871.90 63.36779
872.00 62.96463
872.10 62.40749
872.20 61.8324
872.30 61.41316
872.40 61.24132
872.50 61.35381
872.60 61.86133
872.70 62.76029
872.80 63.88935
872.90 65.044
873.00 66.01931
873.10 66.63155
873.20 66.80798
873.30 66.59244
873.40 66.05067
873.50 65.31281
873.60 64.56846
873.70 63.99426
873.80 63.73638
873.90 63.84231
874.00 64.19128
874.10 64.59445
874.20 64.93477
874.30 65.1922
874.40 65.41712
874.50 65.66525
874.60 65.94131
874.70 66.19638
874.80 66.33136
874.90 66.30845
875.00 66.19016
875.10 66.02971
875.20 65.83307
875.30 65.66386
875.40 65.72682
875.50 66.17192
875.60 66.94725
875.70 67.90591
875.80 68.91023
875.90 69.80523
876.00 70.34964
876.10 70.35509
876.20 69.85696
876.30 68.92836
876.40 67.6521
876.50 66.21793
876.60 64.8385
876.70 63.72531
876.80 63.09452
876.90 63.08975
877.00 63.82508
877.10 65.33575
877.20 67.44029
877.30 69.83774
877.40 72.27094
877.50 74.45224
877.60 76.06449
877.70 76.92865
877.80 76.81997
877.90 75.67839
878.00 73.87551
878.10 71.89719
878.20 70.05703
878.30 68.62584
878.40 67.70711
878.50 67.1796
878.60 66.9167
878.70 66.82151
878.80 66.85914
878.90 67.08679
879.00 67.57678
879.10 68.37463
879.20 69.6501
879.30 71.48217
879.40 73.63619
879.50 75.67591
879.60 77.14151
879.70 77.69375
879.80 77.27432
879.90 76.12448
880.00 74.61027
880.10 73.10295
880.20 71.89447
880.30 71.1737
880.40 71.01938
880.50 71.36447
880.60 72.0444
880.70 72.86247
880.80 73.63131
880.90 74.26425
881.00 74.80979
881.10 75.36451
881.20 75.96547
881.30 76.59546
881.40 77.26571
881.50 78.01957
881.60 78.87632
881.70 79.76499
881.80 80.49557
881.90 80.82453
882.00 80.60187
882.10 79.92731
882.20 79.26338
882.30 79.37683
882.40 80.73641
882.50 83.30927
882.60 86.64858
882.70 89.90356
882.80 92.12916
882.90 92.58743
883.00 90.88895
883.10 87.13098
883.20 81.99066
883.30 76.55946
883.40 72.1159
883.50 69.72833
883.60 69.78071
883.70 71.77479
883.80 74.92112
883.90 78.42899
884.00 81.58404
884.10 83.98071
884.20 85.37295
884.30 85.57184
884.40 84.59362
884.50 82.75755
884.60 80.56865
884.70 78.56452
884.80 77.14045
884.90 76.47373
885.00 76.60431
885.10 77.51224
885.20 79.00361
885.30 80.66547
885.40 82.01623
885.50 82.69312
885.60 82.6046
885.70 81.93221
885.80 80.99845
885.90 80.09759
886.00 79.45099
886.10 79.2431
886.20 79.58748
886.30 80.48135
886.40 81.81317
886.50 83.25753
886.60 84.40056
886.70 84.98635
886.80 84.9127
886.90 84.21777
887.00 83.01532
887.10 81.51935
887.20 80.03277
887.30 78.86234
887.40 78.25256
887.50 78.41508
887.60 79.43193
887.70 81.09109
887.80 82.91198
887.90 84.54099
888.00 85.93624
888.10 86.92477
888.20 87.04853
888.30 86.14853
888.40 84.90218
888.50 84.17479
888.60 84.34099
888.70 85.45815
888.80 87.36648
888.90 89.62417
889.00 91.61692
889.10 92.80772
889.20 92.92924
889.30 91.92355
889.40 89.82301
889.50 87.13298
889.60 84.98076
889.70 84.28966
889.80 85.03526
889.90 86.76079
890.00 89.10225
890.10 91.60294
890.20 93.72194
890.30 95.0128
890.40 95.20281
890.50 94.2176
890.60 92.25177
890.70 89.71223
890.80 87.11739
890.90 84.9762
891.00 83.57572
891.10 82.94941
891.20 83.02792
891.30 83.67491
891.40 84.74837
891.50 86.08751
891.60 87.37963
891.70 88.09294
891.80 87.77711
891.90 86.44239
892.00 84.41464
892.10 82.12501
892.20 79.9722
892.30 78.20957
892.40 77.00148
892.50 76.45075
892.60 76.54605
892.70 77.10101
892.80 77.84783
892.90 78.56601
893.00 79.18387
893.10 79.89716
893.20 80.96357
893.30 82.42594
893.40 84.09635
893.50 85.65301
893.60 86.72601
893.70 87.05724
893.80 86.51548
893.90 84.87705
894.00 81.85745
894.10 77.44972
894.20 72.01945
894.30 66.28105
894.40 61.20035
894.50 57.65304
894.60 56.21491
894.70 57.02581
894.80 59.78587
894.90 63.92628
895.00 68.80374
895.10 73.7916
895.20 78.40739
895.30 82.36282
895.40 85.64746
895.50 88.4368
895.60 90.8473
895.70 92.79289
895.80 94.02529
895.90 94.39268
896.00 93.78761
896.10 92.2333
896.20 90.0175
896.30 87.57513
896.40 85.39293
896.50 83.87831
896.60 83.22519
896.70 83.53426
896.80 84.68746
896.90 86.30563
897.00 88.00723
897.10 89.55278
897.20 90.90886
897.30 92.11993
897.40 93.2657
897.50 94.39798
897.60 95.52797
897.70 96.65541
897.80 97.66645
897.90 98.34845
898.00 98.57022
898.10 98.42759
898.20 98.29327
898.30 98.64193
898.40 99.52471
898.50 100.3153
898.60 100.2529
898.70 99.02066
898.80 96.74018
898.90 93.81381
899.00 90.81274
899.10 88.30978
899.20 86.81502
899.30 86.68462
899.40 87.96542
899.50 90.39953
899.60 93.47442
899.70 96.28773
899.80 98.20904
899.90 99.72346
900.00 99.68621
900.10 99.64895
900.20 99.6117
900.30 99.57445
900.40 99.5372
900.50 99.49994
900.60 99.46269
900.70 99.42544
900.80 99.38818
900.90 99.67352
901.00 100.125
901.10 100.5766
901.20 101.0281
901.30 101.4796
901.40 101.9311
901.50 102.3827
901.60 102.8342
901.70 103.2857
901.80 103.7372
901.90 104.1888
902.00 104.6403
902.10 105.0918
902.20 105.5433
902.30 105.9949
902.40 106.4464
902.50 106.8979
902.60 107.3494
902.70 107.801
902.80 108.2525
902.90 108.704
903.00 109.1555
903.10 109.6071
903.20 110.0586
903.30 110.5101
903.40 110.9616
903.50 111.4132
903.60 111.8647
903.70 112.3162
903.80 112.7677
903.90 113.2193
904.00 113.6708
904.10 114.1223
904.20 114.5738
904.30 114.9773
904.40 115.3308
904.50 115.6843
904.60 116.0377
904.70 116.3912
904.80 116.7447
904.90 117.0982
905.00 117.4516
905.10 117.8051
905.20 118.1586
905.30 118.5121
905.40 118.8655
905.50 119.219
905.60 119.5725
905.70 119.926
905.80 120.2794
905.90 120.6329
906.00 120.9864
906.10 121.3399
906.20 121.6933
906.30 122.0468
906.40 122.4003
906.50 122.7538
906.60 123.1072
906.70 123.4607
906.80 123.8142
906.90 124.1677
907.00 124.5211
907.10 124.8746
907.20 125.2281
907.30 125.5816
907.40 125.9351
907.50 126.2885
907.60 126.642
907.70 126.9287
907.80 126.8048
907.90 126.681
908.00 126.5572
908.10 126.4334
908.20 126.3096
908.30 126.1858
908.40 126.062
908.50 125.9381
908.60 125.8143
908.70 125.6905
908.80 125.5667
908.90 125.4429
909.00 125.3191
909.10 125.1953
909.20 125.0714
909.30 124.9476
909.40 124.8238
909.50 124.7
909.60 124.5762
909.70 124.4524
909.80 124.3286
909.90 124.2048
910.00 124.0809
910.10 123.9571
910.20 123.8333
910.30 123.7095
910.40 123.5857
910.50 123.4619
910.60 123.3381
910.70 123.2142
910.80 123.0904
910.90 122.9666
911.00 122.8428
911.10 122.719
911.20 122.6446
911.30 122.6018
911.40 122.559
911.50 122.5162
911.60 122.4734
911.70 122.4307
911.80 122.3879
911.90 122.3451
912.00 122.3023
912.10 122.2595
912.20 122.2167
912.30 122.1739
912.40 122.1311
912.50 122.0883
912.60 122.0456
912.70 122.0028
912.80 121.96
912.90 121.9172
913.00 121.8744
913.10 121.8316
913.20 121.7888
913.30 121.746
913.40 121.7032
913.50 121.6605
913.60 121.6177
913.70 121.5749
913.80 121.5321
913.90 121.4893
914.00 121.4465
914.10 121.4037
914.20 121.3609
914.30 121.3182
914.40 121.2754
914.50 121.2326
914.60 121.1898
914.70 121.5495
914.80 121.9589
914.90 122.3684
915.00 122.7778
915.10 123.1873
915.20 123.5967
915.30 124.0061
915.40 124.4156
915.50 124.825
915.60 125.2345
915.70 125.6439
915.80 126.0533
915.90 126.4628
916.00 126.8722
916.10 127.2817
916.20 127.6911
916.30 128.1006
916.40 128.51
916.50 128.9194
916.60 129.3289
916.70 129.7383
916.80 130.1478
916.90 130.5572
917.00 130.9667
917.10 131.3761
917.20 131.7855
917.30 132.195
917.40 132.6044
917.50 133.0139
917.60 133.4233
917.70 133.8328
917.80 134.2422
917.90 134.6516
918.00 135.0611
918.10 135.4674
918.20 135.5641
918.30 135.6608
918.40 135.7576
918.50 135.8543
918.60 135.951
918.70 136.0477
918.80 136.1444
918.90 136.2411
919.00 136.3379
919.10 136.4346
919.20 136.5313
919.30 136.628
919.40 136.7247
919.50 136.8215
919.60 136.9182
919.70 137.0149
919.80 137.1116
919.90 137.2083
920.00 137.3051
920.10 137.4018
920.20 137.4985
920.30 137.5952
920.40 137.6919
920.50 137.7887
920.60 137.8854
920.70 137.9821
920.80 138.0788
920.90 138.1755
921.00 138.2723
921.10 138.369
921.20 138.4657
921.30 138.5624
921.40 138.6591
921.50 138.7559
921.60 138.8526
921.70 138.8801
921.80 138.9033
921.90 138.9264
922.00 138.9496
922.10 138.9727
922.20 138.9958
922.30 139.019
922.40 139.0421
922.50 139.0653
922.60 139.0884
922.70 139.1115
922.80 139.1347
922.90 139.1578
923.00 139.181
923.10 139.2041
923.20 139.2272
923.30 139.2504
923.40 139.2735
923.50 139.2967
923.60 139.3198
923.70 139.3429
923.80 139.3661
923.90 139.3892
924.00 139.4124
924.10 139.4355
924.20 139.4587
924.30 139.4818
924.40 139.5049
924.50 139.5281
924.60 139.5512
924.70 139.5744
924.80 139.5975
924.90 139.6206
925.00 139.6438
925.10 139.6669
925.20 139.5102
925.30 139.2764
925.40 139.0426
925.50 138.8087
925.60 138.5749
925.70 138.3411
925.80 138.1073
925.90 137.8735
926.00 137.6397
926.10 137.4058
926.20 137.172
926.30 136.9382
926.40 136.7044
926.50 136.4706
926.60 136.2368
926.70 136.0029
926.80 135.7691
926.90 135.5353
927.00 135.3015
927.10 135.0677
927.20 134.8339
927.30 134.6
927.40 134.3662
927.50 134.1324
927.60 133.8986
927.70 133.6648
927.80 133.4309
927.90 133.1971
928.00 132.9633
928.10 132.7295
928.20 132.4957
928.30 132.2619
928.40 132.028
928.50 131.7942
928.60 131.5604
928.70 131.501
928.80 131.8688
928.90 132.2365
929.00 132.6042
929.10 132.9719
929.20 133.3397
929.30 133.7074
929.40 134.0751
929.50 134.4428
929.60 134.8106
929.70 135.1783
929.80 135.546
929.90 135.9138
930.00 136.2815
930.10 136.6492
930.20 137.0169
930.30 137.3847
930.40 137.7524
930.50 138.1201
930.60 138.4878
930.70 138.8556
930.80 139.2233
930.90 139.591
931.00 139.9587
931.10 140.3265
931.20 140.6942
931.30 141.0619
931.40 141.4296
931.50 141.7974
931.60 142.1651
931.70 142.5328
931.80 142.9005
931.90 143.2683
932.00 143.636
932.10 144.0037
932.20 144.3714
932.30 144.2034
932.40 143.8057
932.50 143.4079
932.60 143.0102
932.70 142.6125
932.80 142.2148
932.90 141.8171
933.00 141.4194
933.10 141.0217
933.20 140.6239
933.30 140.2262
933.40 139.8285
933.50 139.4308
933.60 139.0331
933.70 138.6354
933.80 138.2377
933.90 137.8399
934.00 137.4422
934.10 137.0445
934.20 136.6468
934.30 136.2491
934.40 135.8514
934.50 135.4537
934.60 135.056
934.70 134.6582
934.80 134.2605
934.90 133.8628
935.00 133.4651
935.10 133.0674
935.20 132.6697
935.30 132.272
935.40 131.8742
935.50 131.4765
935.60 131.0788
935.70 130.6811
935.80 130.2834
935.90 130.4589
936.00 130.671
936.10 130.8831
936.20 131.0952
936.30 131.3073
936.40 131.5194
936.50 131.7315
936.60 131.9435
936.70 132.1556
936.80 132.3677
936.90 132.5798
937.00 132.7919
937.10 133.004
937.20 133.2161
937.30 133.4282
937.40 133.6403
937.50 133.8524
937.60 134.0645
937.70 134.2766
937.80 134.4887
937.90 134.7008
938.00 134.9129
938.10 135.1249
938.20 135.337
938.30 135.5491
938.40 135.7612
938.50 135.9733
938.60 136.1854
938.70 136.3975
938.80 136.6096
938.90 136.8217
939.00 137.0338
939.10 137.2459
939.20 137.458
939.30 137.6701
939.40 137.8808
939.50 138.0249
939.60 138.169
939.70 138.3131
939.80 138.4573
939.90 138.6014
940.00 138.7455
940.10 138.8896
940.20 139.0337
940.30 139.1778
940.40 139.322
940.50 139.4661
940.60 139.6102
940.70 139.7543
940.80 139.8984
940.90 140.0425
941.00 140.1867
941.10 140.3308
941.20 140.4749
941.30 140.619
941.40 140.7631
941.50 140.9072
941.60 141.0514
941.70 141.1955
941.80 141.3396
941.90 141.4837
942.00 141.6278
942.10 141.7719
942.20 141.9161
942.30 142.0602
942.40 142.2043
942.50 142.3484
942.60 142.4925
942.70 142.6366
942.80 142.7808
942.90 142.9249
943.00 143.069
943.10 143.5411
943.20 144.0379
943.30 144.5347
943.40 145.0315
943.50 145.5283
943.60 146.0251
943.70 146.5219
943.80 147.0187
943.90 147.5155
944.00 148.0123
944.10 148.5091
944.20 149.0059
944.30 149.5028
944.40 149.9996
944.50 150.4964
944.60 150.9932
944.70 151.49
944.80 151.9868
944.90 152.4836
945.00 152.9804
945.10 153.4772
945.20 153.974
945.30 154.4708
945.40 154.9676
945.50 155.4644
945.60 155.9612
945.70 156.458
945.80 156.9548
945.90 157.4516
946.00 157.9484
946.10 158.4452
946.20 158.942
946.30 159.4388
946.40 159.9356
946.50 160.4324
946.60 160.9292
946.70 161.2083
946.80 161.3802
946.90 161.5521
947.00 161.724
947.10 161.8959
947.20 162.0678
947.30 162.2397
947.40 162.4116
947.50 162.5835
947.60 162.7554
947.70 162.9273
947.80 163.0992
947.90 163.2711
948.00 163.4429
948.10 163.6148
948.20 163.7867
948.30 163.9586
948.40 164.1305
948.50 164.3024
948.60 164.4743
948.70 164.6462
948.80 164.8181
948.90 164.99
949.00 165.1619
949.10 165.3338
949.20 165.5057
949.30 165.6776
949.40 165.8495
949.50 166.0213
949.60 166.1932
949.70 166.3651
949.80 166.537
949.90 166.7089
950.00 166.8808
950.10 167.0527
950.20 167.2246
950.30 167.3144
950.40 167.1579
950.50 167.0013
950.60 166.8448
950.70 166.6883
950.80 166.5318
950.90 166.3753
951.00 166.2187
951.10 166.0622
951.20 165.9057
951.30 165.7492
951.40 165.5926
951.50 165.4361
951.60 165.2796
951.70 165.1231
951.80 164.9666
951.90 164.81
952.00 164.6535
952.10 164.497
952.20 164.3405
952.30 164.1839
952.40 164.0274
952.50 163.8709
952.60 163.7144
952.70 163.5579
952.80 163.4013
952.90 163.2448
953.00 163.0883
953.10 162.9318
953.20 162.7752
953.30 162.6187
953.40 162.4622
953.50 162.3057
953.60 162.1492
953.70 161.9926
953.80 161.8361
953.90 161.6796
954.00 161.851
954.10 162.1914
954.20 162.5317
954.30 162.8721
954.40 163.2124
954.50 163.5527
954.60 163.8931
954.70 164.2334
954.80 164.5738
954.90 164.9141
955.00 165.2545
955.10 165.5948
955.20 165.9352
955.30 166.2755
955.40 166.6159
955.50 166.9562
955.60 167.2966
955.70 167.6369
955.80 167.9773
955.90 168.3176
956.00 168.658
956.10 168.9983
956.20 169.3387
956.30 169.679
956.40 170.0194
956.50 170.3597
956.60 170.7001
956.70 171.0404
956.80 171.3808
956.90 171.7211
957.00 172.0615
957.10 172.4018
957.20 172.7422
957.30 173.0825
957.40 173.4229
957.50 173.7632
957.60 174.1035
957.70 173.8536
957.80 173.5523
957.90 173.251
958.00 172.9498
958.10 172.6485
958.20 172.3472
958.30 172.0459
958.40 171.7447
958.50 171.4434
958.60 171.1421
958.70 170.8408
958.80 170.5396
958.90 170.2383
959.00 169.937
959.10 169.6357
959.20 169.3345
959.30 169.0332
959.40 168.7319
959.50 168.4306
959.60 168.1294
959.70 167.8281
959.80 167.5268
959.90 167.2255
960.00 166.9242
960.10 166.623
960.20 166.3217
960.30 166.0204
960.40 165.7191
960.50 165.4179
960.60 165.1166
960.70 164.8153
960.80 164.514
960.90 164.2128
961.00 163.9115
961.10 163.6102
961.20 163.3089
961.30 163.0186
961.40 163.2629
961.50 163.5073
961.60 163.7517
961.70 163.996
961.80 164.2404
961.90 164.4847
962.00 164.7291
962.10 164.9735
962.20 165.2178
962.30 165.4622
962.40 165.7065
962.50 165.9509
962.60 166.1953
962.70 166.4396
962.80 166.684
962.90 166.9284
963.00 167.1727
963.10 167.4171
963.20 167.6614
963.30 167.9058
963.40 168.1502
963.50 168.3945
963.60 168.6389
963.70 168.8833
963.80 169.1276
963.90 169.372
964.00 169.6163
964.10 169.8607
964.20 170.1051
964.30 170.3494
964.40 170.5938
964.50 170.8381
964.60 171.0825
964.70 171.3269
964.80 171.5712
964.90 171.8156
965.00 172.06
965.10 172.0733
965.20 172.077
965.30 172.0808
965.40 172.0845
965.50 172.0882
965.60 172.0919
965.70 172.0957
965.80 172.0994
965.90 172.1031
966.00 172.1069
966.10 172.1106
966.20 172.1143
966.30 172.118
966.40 172.1218
966.50 172.1255
966.60 172.1292
966.70 172.1329
966.80 172.1367
966.90 172.1404
967.00 172.1441
967.10 172.1479
967.20 172.1516
967.30 172.1553
967.40 172.159
967.50 172.1628
967.60 172.1665
967.70 172.1702
967.80 172.1739
967.90 172.1777
968.00 172.1814
968.10 172.1851
968.20 172.1889
968.30 172.1926
968.40 172.1963
968.50 172.2
968.60 172.2038
968.70 172.2075
968.80 172.1553
968.90 172.0836
969.00 172.0118
969.10 171.94
969.20 171.8682
969.30 171.7964
969.40 171.7246
969.50 171.6528
969.60 171.5811
969.70 171.5093
969.80 171.4375
969.90 171.3657
970.00 171.2939
970.10 171.2221
970.20 171.1503
970.30 171.0786
970.40 171.0068
970.50 170.935
970.60 170.8632
970.70 170.7914
970.80 170.7196
970.90 170.6478
971.00 170.5761
971.10 170.5043
971.20 170.4325
971.30 170.3607
971.40 170.2889
971.50 170.2171
971.60 170.1454
971.70 170.0736
971.80 170.0018
971.90 169.93
972.00 169.8582
972.10 169.7864
972.20 169.7146
972.30 169.6429
972.40 169.5711
972.50 169.6489
972.60 169.9816
972.70 170.3143
972.80 170.647
972.90 170.9797
973.00 171.3124
973.10 171.6451
973.20 171.9778
973.30 172.3105
973.40 172.6432
973.50 172.9759
973.60 173.3086
973.70 173.6413
973.80 173.974
973.90 174.3067
974.00 174.6394
974.10 174.972
974.20 175.3047
974.30 175.6374
974.40 175.9701
974.50 176.3028
974.60 176.6355
974.70 176.9682
974.80 177.3009
974.90 177.6336
975.00 177.9663
975.10 178.299
975.20 178.6317
975.30 178.9644
975.40 179.2971
975.50 179.6298
975.60 179.9625
975.70 180.2952
975.80 180.6278
975.90 180.9605
976.00 181.2932
976.10 181.6259
976.20 181.9586
976.30 181.8485
976.40 181.6602
976.50 181.4719
976.60 181.2836
976.70 181.0953
976.80 180.907
976.90 180.7187
977.00 180.5304
977.10 180.3421
977.20 180.1538
977.30 179.9655
977.40 179.7772
977.50 179.589
977.60 179.4007
977.70 179.2124
977.80 179.0241
977.90 178.8358
978.00 178.6475
978.10 178.4592
978.20 178.2709
978.30 178.0826
978.40 177.8943
978.50 177.706
978.60 177.5177
978.70 177.3294
978.80 177.1411
978.90 176.9528
979.00 176.7645
979.10 176.5763
979.20 176.388
979.30 176.1997
979.40 176.0114
979.50 175.8231
979.60 175.6348
979.70 175.4465
979.80 175.2582
979.90 175.0699
980.00 174.9694
980.10 175.2686
980.20 175.5679
980.30 175.8671
980.40 176.1664
980.50 176.4656
980.60 176.7649
980.70 177.0641
980.80 177.3634
980.90 177.6626
981.00 177.9619
981.10 178.2611
981.20 178.5604
981.30 178.8596
981.40 179.1589
981.50 179.4581
981.60 179.7574
981.70 180.0566
981.80 180.3559
981.90 180.6551
982.00 180.9544
982.10 181.2536
982.20 181.5529
982.30 181.8521
982.40 182.1514
982.50 182.4506
982.60 182.7499
982.70 183.0491
982.80 183.3484
982.90 183.6476
983.00 183.9469
983.10 184.2461
983.20 184.5454
983.30 184.8446
983.40 185.1439
983.50 185.4431
983.60 185.7424
983.70 186.0416
983.80 186.1257
983.90 185.8272
984.00 185.5288
984.10 185.2303
984.20 184.9319
984.30 184.6334
984.40 184.3349
984.50 184.0365
984.60 183.738
984.70 183.4395
984.80 183.1411
984.90 182.8426
985.00 182.5441
985.10 182.2457
985.20 181.9472
985.30 181.6487
985.40 181.3503
985.50 181.0518
985.60 180.7533
985.70 180.4549
985.80 180.1564
985.90 179.858
986.00 179.5595
986.10 179.261
986.20 178.9626
986.30 178.6641
986.40 178.3656
986.50 178.0672
986.60 177.7687
986.70 177.4702
986.80 177.1718
986.90 176.8733
987.00 176.5748
987.10 176.2764
987.20 175.9779
987.30 175.6794
987.40 175.381
987.50 175.0825
987.60 174.9084
987.70 174.9209
987.80 174.9333
987.90 174.9458
988.00 174.9582
988.10 174.9707
988.20 174.9831
988.30 174.9956
988.40 175.008
988.50 175.0205
988.60 175.0329
988.70 175.0453
988.80 175.0578
988.90 175.0702
989.00 175.0827
989.10 175.0951
989.20 175.1076
989.30 175.12
989.40 175.1325
989.50 175.1449
989.60 175.1574
989.70 175.1698
989.80 175.1823
989.90 175.1947
990.00 175.2072
990.10 175.2196
990.20 175.2321
990.30 175.2445
990.40 175.257
990.50 175.2694
990.60 175.2819
990.70 175.2943
990.80 175.3068
990.90 175.3192
991.00 175.3317
991.10 175.3441
991.20 175.3566
991.30 175.369
991.40 175.3495
991.50 175.2516
991.60 175.1537
991.70 175.0558
991.80 174.958
991.90 174.8601
992.00 174.7622
992.10 174.6644
992.20 174.5665
992.30 174.4686
992.40 174.3708
992.50 174.2729
992.60 174.175
992.70 174.0771
992.80 173.9793
992.90 173.8814
993.00 173.7835
993.10 173.6857
993.20 173.5878
993.30 173.4899
993.40 173.3921
993.50 173.2942
993.60 173.1963
993.70 173.0984
993.80 173.0006
993.90 172.9027
994.00 172.8048
994.10 172.707
994.20 172.6091
994.30 172.5112
994.40 172.4134
994.50 172.3155
994.60 172.2176
994.70 172.1197
994.80 172.0219
994.90 171.924
995.00 171.8261
995.10 171.7283
995.20 171.6163
995.30 171.0494
995.40 170.4824
995.50 169.9154
995.60 169.3485
995.70 168.7815
995.80 168.2145
995.90 167.6476
996.00 167.0806
996.10 166.5136
996.20 165.9467
996.30 165.3797
996.40 164.8127
996.50 164.2458
996.60 163.6788
996.70 163.1118
996.80 162.5449
996.90 161.9779
997.00 161.4109
997.10 160.844
997.20 160.277
997.30 159.71
997.40 159.1431
997.50 158.5761
997.60 158.0091
997.70 157.4422
997.80 156.8752
997.90 156.3082
998.00 155.7413
998.10 155.1743
998.20 154.6073
998.30 154.0404
998.40 153.4734
998.50 152.9064
998.60 152.3395
998.70 151.7725
998.80 151.2055
998.90 150.6386
999.00 150.0716
999.10 149.8114
999.20 149.7238
999.30 149.6361
999.40 149.5485
999.50 149.4608
999.60 149.3732
999.70 149.2856
999.80 149.1979
999.90 149.1103
1000.00 149.0226
1000.10 148.935
1000.20 148.8473
1000.30 148.7597
1000.40 148.672
1000.50 148.5844
1000.60 148.4968
1000.70 148.4091
1000.80 148.3215
1000.90 148.2338
1001.00 148.1462
1001.10 148.0585
1001.20 147.9709
1001.30 147.8833
1001.40 147.7956
1001.50 147.708
1001.60 147.6203
1001.70 147.5327
1001.80 147.445
1001.90 147.3574
1002.00 147.2698
1002.10 147.1821
1002.20 147.0945
1002.30 147.0068
1002.40 146.9192
1002.50 146.8315
1002.60 146.7439
1002.70 146.6563
1002.80 146.5686
1002.90 146.508
1003.00 146.6912
1003.10 146.8744
1003.20 147.0575
1003.30 147.2407
1003.40 147.4238
1003.50 147.607
1003.60 147.7901
1003.70 147.9733
1003.80 148.1565
1003.90 148.3396
1004.00 148.5228
1004.10 148.7059
1004.20 148.8891
1004.30 149.0723
1004.40 149.2554
1004.50 149.4386
1004.60 149.6217
1004.70 149.8049
1004.80 149.988
1004.90 150.1712
1005.00 150.3544
1005.10 150.5375
1005.20 150.7207
1005.30 150.9038
1005.40 151.087
1005.50 151.2701
1005.60 151.4533
1005.70 151.6365
1005.80 151.8196
1005.90 152.0028
1006.00 152.1859
1006.10 152.3691
1006.20 152.5522
1006.30 152.7354
1006.40 152.9186
1006.50 153.1017
1006.60 153.2849
1006.70 153.468
1006.80 153.721
1006.90 154.0785
1007.00 154.4361
1007.10 154.7936
1007.20 155.1512
1007.30 155.5087
1007.40 155.8663
1007.50 156.2239
1007.60 156.5814
1007.70 156.939
1007.80 157.2965
1007.90 157.6541
1008.00 158.0117
1008.10 158.3692
1008.20 158.7268
1008.30 159.0843
1008.40 159.4419
1008.50 159.7995
1008.60 160.157
1008.70 160.5146
1008.80 160.8721
1008.90 161.2297
1009.00 161.5873
1009.10 161.9448
1009.20 162.3024
1009.30 162.6599
1009.40 163.0175
1009.50 163.3751
1009.60 163.7326
1009.70 164.0902
1009.80 164.4477
1009.90 164.8053
1010.00 165.1628
1010.10 165.5204
1010.20 165.878
1010.30 166.2355
1010.40 166.5931
1010.50 166.9506
1010.60 167.3082
1010.70 167.4045
1010.80 167.3267
1010.90 167.2489
1011.00 167.1711
1011.10 167.0933
1011.20 167.0155
1011.30 166.9376
1011.40 166.8598
1011.50 166.782
1011.60 166.7042
1011.70 166.6264
1011.80 166.5486
1011.90 166.4708
1012.00 166.3929
1012.10 166.3151
1012.20 166.2373
1012.30 166.1595
1012.40 166.0817
1012.50 166.0039
1012.60 165.926
1012.70 165.8482
1012.80 165.7704
1012.90 165.6926
1013.00 165.6148
1013.10 165.537
1013.20 165.4591
1013.30 165.3813
1013.40 165.3035
1013.50 165.2257
1013.60 165.1479
1013.70 165.0701
1013.80 164.9923
1013.90 164.9144
1014.00 164.8366
1014.10 164.7588
1014.20 164.681
1014.30 164.6032
1014.40 164.5254
1014.50 164.4475
1014.60 164.6742
1014.70 165.0313
1014.80 165.3884
1014.90 165.7456
1015.00 166.1027
1015.10 166.4598
1015.20 166.8169
1015.30 167.174
1015.40 167.5312
1015.50 167.8883
1015.60 168.2454
1015.70 168.6025
1015.80 168.9597
1015.90 169.3168
1016.00 169.6739
1016.10 170.031
1016.20 170.3881
1016.30 170.7453
1016.40 171.1024
1016.50 171.4595
1016.60 171.8166
1016.70 172.1738
1016.80 172.5309
1016.90 172.888
1017.00 173.2451
1017.10 173.6022
1017.20 173.9594
1017.30 174.3165
1017.40 174.6736
1017.50 175.0307
1017.60 175.3878
1017.70 175.745
1017.80 176.1021
1017.90 176.4592
1018.00 176.8163
1018.10 177.1735
1018.20 177.5306
1018.30 177.8877
1018.40 178.2448
1018.50 178.4122
1018.60 178.4531
1018.70 178.494
1018.80 178.5349
1018.90 178.5758
1019.00 178.6167
1019.10 178.6576
1019.20 178.6985
1019.30 178.7394
1019.40 178.7803
1019.50 178.8212
1019.60 178.8622
1019.70 178.9031
1019.80 178.944
1019.90 178.9849
1020.00 179.0258
1020.10 179.0667
1020.20 179.1076
1020.30 179.1485
1020.40 179.1894
1020.50 179.2303
1020.60 179.2712
1020.70 179.3121
1020.80 179.353
1020.90 179.3939
1021.00 179.4348
1021.10 179.4757
1021.20 179.5166
1021.30 179.5575
1021.40 179.5984
1021.50 179.6393
1021.60 179.6802
1021.70 179.7211
1021.80 179.762
1021.90 179.8029
1022.00 179.8438
1022.10 179.8847
1022.20 179.9256
1022.30 179.9665
1022.40 179.9295
1022.50 179.8144
1022.60 179.6993
1022.70 179.5843
1022.80 179.4692
1022.90 179.3541
1023.00 179.2391
1023.10 179.124
1023.20 179.009
1023.30 178.8939
1023.40 178.7788
1023.50 178.6638
1023.60 178.5487
1023.70 178.4336
1023.80 178.3186
1023.90 178.2035
1024.00 178.0885
1024.10 177.9734
1024.20 177.8583
1024.30 177.7433
1024.40 177.6282
1024.50 177.5132
1024.60 177.3981
1024.70 177.283
1024.80 177.168
1024.90 177.0529
1025.00 176.9378
1025.10 176.8228
1025.20 176.7077
1025.30 176.5927
1025.40 176.4776
1025.50 176.3625
1025.60 176.2475
1025.70 176.1324
1025.80 176.0173
1025.90 175.9023
1026.00 175.7872
1026.10 175.6722
1026.20 175.5571
1026.30 175.4657
1026.40 175.5869
1026.50 175.7081
1026.60 175.8293
1026.70 175.9505
1026.80 176.0717
1026.90 176.1929
1027.00 176.3141
1027.10 176.4353
1027.20 176.5565
1027.30 176.6777
1027.40 176.799
1027.50 176.9202
1027.60 177.0414
1027.70 177.1626
1027.80 177.2838
1027.90 177.405
1028.00 177.5262
1028.10 177.6474
1028.20 177.7686
1028.30 177.8898
1028.40 178.011
1028.50 178.1323
1028.60 178.2535
1028.70 178.3747
1028.80 178.4959
1028.90 178.6171
1029.00 178.7383
1029.10 178.8595
1029.20 178.9807
1029.30 179.1019
1029.40 179.2231
1029.50 179.3443
1029.60 179.4655
1029.70 179.5868
1029.80 179.708
1029.90 179.8292
1030.00 179.9504
1030.10 180.0716
1030.20 180.1928
1030.30 180.2718
1030.40 180.3327
1030.50 180.3936
1030.60 180.4545
1030.70 180.5154
1030.80 180.5763
1030.90 180.6372
1031.00 180.6981
1031.10 180.759
1031.20 180.8199
1031.30 180.8808
1031.40 180.9417
1031.50 181.0025
1031.60 181.0634
1031.70 181.1243
1031.80 181.1852
1031.90 181.2461
1032.00 181.307
1032.10 181.3679
1032.20 181.4288
1032.30 181.4897
1032.40 181.5506
1032.50 181.6115
1032.60 181.6724
1032.70 181.7333
1032.80 181.7942
1032.90 181.8551
1033.00 181.916
1033.10 181.9769
1033.20 182.0378
1033.30 182.0987
1033.40 182.1596
1033.50 182.2205
1033.60 182.2814
1033.70 182.3423
1033.80 182.4032
1033.90 182.4641
1034.00 182.525
1034.10 182.5858
1034.20 182.6793
1034.30 183.0658
1034.40 183.4523
1034.50 183.8389
1034.60 184.2254
1034.70 184.6119
1034.80 184.9984
1034.90 185.3849
1035.00 185.7714
1035.10 186.158
1035.20 186.5445
1035.30 186.931
1035.40 187.3175
1035.50 187.704
1035.60 188.0906
1035.70 188.4771
1035.80 188.8636
1035.90 189.2501
1036.00 189.6366
1036.10 190.0231
1036.20 190.4097
1036.30 190.7962
1036.40 191.1827
1036.50 191.5692
1036.60 191.9557
1036.70 192.3422
1036.80 192.7288
1036.90 193.1153
1037.00 193.5018
1037.10 193.8883
1037.20 194.2748
1037.30 194.6613
1037.40 195.0479
1037.50 195.4344
1037.60 195.8209
1037.70 196.2074
1037.80 196.5939
1037.90 196.9805
1038.00 197.367
1038.10 197.7535
1038.20 197.9537
1038.30 197.8744
1038.40 197.7952
1038.50 197.7159
1038.60 197.6366
1038.70 197.5574
1038.80 197.4781
1038.90 197.3989
1039.00 197.3196
1039.10 197.2403
1039.20 197.1611
1039.30 197.0818
1039.40 197.0026
1039.50 196.9233
1039.60 196.844
1039.70 196.7648
1039.80 196.6855
1039.90 196.6063
1040.00 196.527
1040.10 196.4477
1040.20 196.3685
1040.30 196.2892
1040.40 196.2099
1040.50 196.1307
1040.60 196.0514
1040.70 195.9722
1040.80 195.8929
1040.90 195.8136
1041.00 195.7344
1041.10 195.6551
1041.20 195.5759
1041.30 195.4966
1041.40 195.4173
1041.50 195.3381
1041.60 195.2588
1041.70 195.1795
1041.80 195.1003
1041.90 195.021
1042.00 194.9418
1042.10 194.8625
1042.20 195.0354
1042.30 195.3765
1042.40 195.7175
1042.50 196.0585
1042.60 196.3996
1042.70 196.7406
1042.80 197.0816
1042.90 197.4227
1043.00 197.7637
1043.10 198.1047
1043.20 198.4458
1043.30 198.7868
1043.40 199.1278
1043.50 199.4689
1043.60 199.8099
1043.70 200.1509
1043.80 200.492
1043.90 200.833
1044.00 201.1741
1044.10 201.5151
1044.20 201.8561
1044.30 202.1972
1044.40 202.5382
1044.50 202.8792
1044.60 203.2203
1044.70 203.5613
1044.80 203.9023
1044.90 204.2434
1045.00 204.5844
1045.10 204.9254
1045.20 205.2665
1045.30 205.6075
1045.40 205.9485
1045.50 206.2896
1045.60 206.6306
1045.70 206.9716
1045.80 207.3127
1045.90 207.6537
1046.00 207.9948
1046.10 208.3358
1046.20 208.3883
1046.30 208.3172
1046.40 208.2461
1046.50 208.1749
1046.60 208.1038
1046.70 208.0327
1046.80 207.9616
1046.90 207.8905
1047.00 207.8193
1047.10 207.7482
1047.20 207.6771
1047.30 207.606
1047.40 207.5349
1047.50 207.4637
1047.60 207.3926
1047.70 207.3215
1047.80 207.2504
1047.90 207.1792
1048.00 207.1081
1048.10 207.037
1048.20 206.9659
1048.30 206.8948
1048.40 206.8236
1048.50 206.7525
1048.60 206.6814
1048.70 206.6103
1048.80 206.5391
1048.90 206.468
1049.00 206.3969
1049.10 206.3258
1049.20 206.2547
1049.30 206.1835
1049.40 206.1124
1049.50 206.0413
1049.60 205.9702
1049.70 205.8991
1049.80 205.8279
1049.90 205.7568
1050.00 205.6857
1050.10 205.6146
1050.20 205.6251
1050.30 205.6706
1050.40 205.7161
1050.50 205.7616
1050.60 205.8071
1050.70 205.8526
1050.80 205.8981
1050.90 205.9436
1051.00 205.9891
1051.10 206.0346
1051.20 206.0801
1051.30 206.1256
1051.40 206.1711
1051.50 206.2166
1051.60 206.2621
1051.70 206.3076
1051.80 206.3531
1051.90 206.3986
1052.00 206.4441
1052.10 206.4896
1052.20 206.5351
1052.30 206.5806
1052.40 206.6261
1052.50 206.6716
1052.60 206.7171
1052.70 206.7626
1052.80 206.8081
1052.90 206.8536
1053.00 206.8991
1053.10 206.9446
1053.20 206.9901
1053.30 207.0356
1053.40 207.0811
1053.50 207.1266
1053.60 207.1721
1053.70 207.2176
1053.80 207.2631
1053.90 207.3086
1054.00 207.3541
1054.10 207.3996
1054.20 207.4776
1054.30 207.588
1054.40 207.6984
1054.50 207.8088
1054.60 207.9193
1054.70 208.0297
1054.80 208.1401
1054.90 208.2505
1055.00 208.361
1055.10 208.4714
1055.20 208.5818
1055.30 208.6922
1055.40 208.8027
1055.50 208.9131
1055.60 209.0235
1055.70 209.1339
1055.80 209.2444
1055.90 209.3548
1056.00 209.4652
1056.10 209.5756
1056.20 209.6861
1056.30 209.7965
1056.40 209.9069
1056.50 210.0173
1056.60 210.1277
1056.70 210.2382
1056.80 210.3486
1056.90 210.459
1057.00 210.5694
1057.10 210.6799
1057.20 210.7903
1057.30 210.9007
1057.40 211.0111
1057.50 211.1216
1057.60 211.232
1057.70 211.3424
1057.80 211.4528
1057.90 211.5633
1058.00 211.6737
1058.10 211.7841
1058.20 211.8923
1058.30 211.9951
1058.40 212.0979
1058.50 212.2008
1058.60 212.3036
1058.70 212.4064
1058.80 212.5092
1058.90 212.6121
1059.00 212.7149
1059.10 212.8177
1059.20 212.9206
1059.30 213.0234
1059.40 213.1262
1059.50 213.2291
1059.60 213.3319
1059.70 213.4347
1059.80 213.5376
1059.90 213.6404
1060.00 213.7432
1060.10 213.846
1060.20 213.9489
1060.30 214.0517
1060.40 214.1545
1060.50 214.2574
1060.60 214.3602
1060.70 214.463
1060.80 214.5659
1060.90 214.6687
1061.00 214.7715
1061.10 214.8744
1061.20 214.9772
1061.30 215.08
1061.40 215.1828
1061.50 215.2857
1061.60 215.3885
1061.70 215.4913
1061.80 215.5942
1061.90 215.697
1062.00 215.7998
1062.10 215.9027
1062.20 216.0055
1062.30 216.1348
1062.40 216.267
1062.50 216.3992
1062.60 216.5314
1062.70 216.6637
1062.80 216.7959
1062.90 216.9281
1063.00 217.0603
1063.10 217.1925
1063.20 217.3248
1063.30 217.457
1063.40 217.5892
1063.50 217.7214
1063.60 217.8537
1063.70 217.9859
1063.80 218.1181
1063.90 218.2503
1064.00 218.3825
1064.10 218.5148
1064.20 218.647
1064.30 218.7792
1064.40 218.9114
1064.50 219.0436
1064.60 219.1759
1064.70 219.3081
1064.80 219.4403
1064.90 219.5725
1065.00 219.7048
1065.10 219.837
1065.20 219.9692
1065.30 220.1014
1065.40 220.2336
1065.50 220.3659
1065.60 220.4981
1065.70 220.6303
1065.80 220.7625
1065.90 220.8948
1066.00 221.027
1066.10 221.1592
1066.20 221.2914
1066.30 221.4317
1066.40 221.584
1066.50 221.7364
1066.60 221.8887
1066.70 222.0411
1066.80 222.1934
1066.90 222.3458
1067.00 222.4981
1067.10 222.6505
1067.20 222.8028
1067.30 222.9552
1067.40 223.1075
1067.50 223.2599
1067.60 223.4122
1067.70 223.5646
1067.80 223.7169
1067.90 223.8693
1068.00 224.0216
1068.10 224.174
1068.20 224.3263
1068.30 224.4787
1068.40 224.631
1068.50 224.7834
1068.60 224.9357
1068.70 225.0881
1068.80 225.2404
1068.90 225.3928
1069.00 225.5451
1069.10 225.6975
1069.20 225.8498
1069.30 226.0022
1069.40 226.1545
1069.50 226.3069
1069.60 226.4592
1069.70 226.6116
1069.80 226.7639
1069.90 226.9163
1070.00 227.0686
1070.10 227.221
1070.20 227.3733
1070.30 227.5257
1070.40 227.6596
1070.50 227.7915
1070.60 227.9234
1070.70 228.0553
1070.80 228.1872
1070.90 228.3191
1071.00 228.451
1071.10 228.5829
1071.20 228.7147
1071.30 228.8466
1071.40 228.9785
1071.50 229.1104
1071.60 229.2423
1071.70 229.3742
1071.80 229.5061
1071.90 229.638
1072.00 229.7699
1072.10 229.9018
1072.20 230.0336
1072.30 230.1655
1072.40 230.2974
1072.50 230.4293
1072.60 230.5612
1072.70 230.6931
1072.80 230.825
1072.90 230.9569
1073.00 231.0888
1073.10 231.2207
1073.20 231.3526
1073.30 231.4844
1073.40 231.6163
1073.50 231.7482
1073.60 231.8801
1073.70 232.012
1073.80 232.1439
1073.90 232.2758
1074.00 232.4077
1074.10 232.5396
1074.20 232.6715
1074.30 232.8033
1074.40 232.9376
1074.50 233.0812
1074.60 233.2248
1074.70 233.3684
1074.80 233.512
1074.90 233.6557
1075.00 233.7993
1075.10 233.9429
1075.20 234.0865
1075.30 234.2301
1075.40 234.3737
1075.50 234.5174
1075.60 234.661
1075.70 234.8046
1075.80 234.9482
1075.90 235.0918
1076.00 235.2354
1076.10 235.3791
1076.20 235.5227
1076.30 235.6663
1076.40 235.8099
1076.50 235.9535
1076.60 236.0971
1076.70 236.2408
1076.80 236.3844
1076.90 236.528
1077.00 236.6716
1077.10 236.8152
1077.20 236.9588
1077.30 237.1024
1077.40 237.2461
1077.50 237.3897
1077.60 237.5333
1077.70 237.6769
1077.80 237.8205
1077.90 237.9641
1078.00 238.1078
1078.10 238.2514
1078.20 238.395
1078.30 238.5386
1078.40 238.6822
1078.50 238.7641
1078.60 238.7533
1078.70 238.7425
1078.80 238.7317
1078.90 238.721
1079.00 238.7102
1079.10 238.6994
1079.20 238.6886
1079.30 238.6778
1079.40 238.6671
1079.50 238.6563
1079.60 238.6455
1079.70 238.6347
1079.80 238.6239
1079.90 238.6132
1080.00 238.6024
1080.10 238.5916
1080.20 238.5808
1080.30 238.57
1080.40 238.5593
1080.50 238.5485
1080.60 238.5377
1080.70 238.5269
1080.80 238.5161
1080.90 238.5054
1081.00 238.4946
1081.10 238.4838
1081.20 238.473
1081.30 238.4622
1081.40 238.4514
1081.50 238.4407
1081.60 238.4299
1081.70 238.4191
1081.80 238.4083
1081.90 238.3975
1082.00 238.3868
1082.10 238.376
1082.20 238.3652
1082.30 238.3544
1082.40 238.3436
1082.50 238.3329
1082.60 238.4949
1082.70 238.8299
1082.80 239.1648
1082.90 239.4997
1083.00 239.8346
1083.10 240.1696
1083.20 240.5045
1083.30 240.8394
1083.40 241.1743
1083.50 241.5092
1083.60 241.8442
1083.70 242.1791
1083.80 242.514
1083.90 242.8489
1084.00 243.1839
1084.10 243.5188
1084.20 243.8537
1084.30 244.1886
1084.40 244.5236
1084.50 244.8585
1084.60 245.1934
1084.70 245.5283
1084.80 245.8633
1084.90 246.1982
1085.00 246.5331
1085.10 246.868
1085.20 247.203
1085.30 247.5379
1085.40 247.8728
1085.50 248.2077
1085.60 248.5426
1085.70 248.8776
1085.80 249.2125
1085.90 249.5474
1086.00 249.8823
1086.10 250.2173
1086.20 250.5522
1086.30 250.8871
1086.40 251.222
1086.50 251.557
1086.60 251.8919
1086.70 252.1133
1086.80 252.259
1086.90 252.4047
1087.00 252.5504
1087.10 252.696
1087.20 252.8417
1087.30 252.9874
1087.40 253.1331
1087.50 253.2788
1087.60 253.4245
1087.70 253.5702
1087.80 253.7159
1087.90 253.8616
1088.00 254.0073
1088.10 254.153
1088.20 254.2987
1088.30 254.4444
1088.40 254.5901
1088.50 254.7358
1088.60 254.8814
1088.70 255.0271
1088.80 255.1728
1088.90 255.3185
1089.00 255.4642
1089.10 255.6099
1089.20 255.7556
1089.30 255.9013
1089.40 256.047
1089.50 256.1927
1089.60 256.3384
1089.70 256.4841
1089.80 256.6298
1089.90 256.7755
1090.00 256.9212
1090.10 257.0669
1090.20 257.2125
1090.30 257.3582
1090.40 257.5039
1090.50 257.6496
1090.60 257.7953
1090.70 257.941
1090.80 257.9882
1090.90 257.9369
1091.00 257.8855
1091.10 257.8342
1091.20 257.7829
1091.30 257.7316
1091.40 257.6802
1091.50 257.6289
1091.60 257.5776
1091.70 257.5262
1091.80 257.4749
1091.90 257.4236
1092.00 257.3723
1092.10 257.3209
1092.20 257.2696
1092.30 257.2183
1092.40 257.1669
1092.50 257.1156
1092.60 257.0643
1092.70 257.013
1092.80 256.9616
1092.90 256.9103
1093.00 256.859
1093.10 256.8076
1093.20 256.7563
1093.30 256.705
1093.40 256.6537
1093.50 256.6023
1093.60 256.551
1093.70 256.4997
1093.80 256.4483
1093.90 256.397
1094.00 256.3457
1094.10 256.2944
1094.20 256.243
1094.30 256.1917
1094.40 256.1404
1094.50 256.089
1094.60 256.0377
1094.70 255.9864
1094.80 255.9351
1094.90 256.0092
1095.00 256.2714
1095.10 256.5337
1095.20 256.796
1095.30 257.0582
1095.40 257.3205
1095.50 257.5828
1095.60 257.845
1095.70 258.1073
1095.80 258.3695
1095.90 258.6318
1096.00 258.8941
1096.10 259.1563
1096.20 259.4186
1096.30 259.6809
1096.40 259.9431
1096.50 260.2054
1096.60 260.4677
1096.70 260.7299
1096.80 260.9922
1096.90 261.2544
1097.00 261.5167
1097.10 261.779
1097.20 262.0412
1097.30 262.3035
1097.40 262.5658
1097.50 262.828
1097.60 263.0903
1097.70 263.3526
1097.80 263.6148
1097.90 263.8771
1098.00 264.1393
1098.10 264.4016
1098.20 264.6639
1098.30 264.9261
1098.40 265.1884
1098.50 265.4507
1098.60 265.7129
1098.70 265.9752
1098.80 266.2375
1098.90 266.4997
1099.00 266.719
1099.10 266.5514
1099.20 266.3839
1099.30 266.2163
1099.40 266.0488
1099.50 265.8812
1099.60 265.7137
1099.70 265.5461
1099.80 265.3786
1099.90 265.211
1100.00 265.0435
1100.10 264.8759
1100.20 264.7084
1100.30 264.5408
1100.40 264.3733
1100.50 264.2057
1100.60 264.0382
1100.70 263.8706
1100.80 263.7031
1100.90 263.5355
1101.00 263.368
1101.10 263.2004
1101.20 263.0329
1101.30 262.8653
1101.40 262.6977
1101.50 262.5302
1101.60 262.3626
1101.70 262.1951
1101.80 262.0275
1101.90 261.86
1102.00 261.6924
1102.10 261.5249
1102.20 261.3573
1102.30 261.1898
1102.40 261.0222
1102.50 260.8547
1102.60 260.6871
1102.70 260.5196
1102.80 260.352
1102.90 260.1845
1103.00 260.0169
1103.10 259.8494
1103.20 259.677
1103.30 259.5035
1103.40 259.33
1103.50 259.1565
1103.60 258.983
1103.70 258.8095
1103.80 258.636
1103.90 258.4625
1104.00 258.289
1104.10 258.1155
1104.20 257.942
1104.30 257.7685
1104.40 257.595
1104.50 257.4215
1104.60 257.248
1104.70 257.0745
1104.80 256.901
1104.90 256.7275
1105.00 256.554
1105.10 256.3805
1105.20 256.207
1105.30 256.0335
1105.40 255.86
1105.50 255.6865
1105.60 255.513
1105.70 255.3395
1105.80 255.166
1105.90 254.9925
1106.00 254.819
1106.10 254.6455
1106.20 254.472
1106.30 254.2985
1106.40 254.125
1106.50 253.9515
1106.60 253.778
1106.70 253.6045
1106.80 253.431
1106.90 253.2575
1107.00 253.084
1107.10 252.9105
1107.20 252.737
1107.30 252.5921
1107.40 252.4898
1107.50 252.3876
1107.60 252.2854
1107.70 252.1831
1107.80 252.0809
1107.90 251.9787
1108.00 251.8765
1108.10 251.7742
1108.20 251.672
1108.30 251.5698
1108.40 251.4676
1108.50 251.3653
1108.60 251.2631
1108.70 251.1609
1108.80 251.0587
1108.90 250.9564
1109.00 250.8542
1109.10 250.752
1109.20 250.6497
1109.30 250.5475
1109.40 250.4453
1109.50 250.3431
1109.60 250.2408
1109.70 250.1386
1109.80 250.0364
1109.90 249.9342
1110.00 249.8319
1110.10 249.7297
1110.20 249.6275
1110.30 249.5252
1110.40 249.423
1110.50 249.3208
1110.60 249.2186
1110.70 249.1163
1110.80 249.0141
1110.90 248.9119
1111.00 248.8097
1111.10 248.7074
1111.20 248.6052
1111.30 248.503
1111.40 248.4007
1111.50 248.194
1111.60 247.9757
1111.70 247.7573
1111.80 247.539
1111.90 247.3206
1112.00 247.1023
1112.10 246.8839
1112.20 246.6656
1112.30 246.4472
1112.40 246.2289
1112.50 246.0106
1112.60 245.7922
1112.70 245.5739
1112.80 245.3555
1112.90 245.1372
1113.00 244.9188
1113.10 244.7005
1113.20 244.4821
1113.30 244.2638
1113.40 244.0454
1113.50 243.8271
1113.60 243.6087
1113.70 243.3904
1113.80 243.1721
1113.90 242.9537
1114.00 242.7354
1114.10 242.517
1114.20 242.2987
1114.30 242.0803
1114.40 241.862
1114.50 241.6436
1114.60 241.4253
1114.70 241.2069
1114.80 240.9886
1114.90 240.7702
1115.00 240.5519
1115.10 240.3336
1115.20 240.1152
1115.30 239.8969
1115.40 239.6785
1115.50 239.4602
1115.60 239.3985
1115.70 239.7024
1115.80 240.0063
1115.90 240.3102
1116.00 240.6141
1116.10 240.918
1116.20 241.2219
1116.30 241.5258
1116.40 241.8297
1116.50 242.1335
1116.60 242.4374
1116.70 242.7413
1116.80 243.0452
1116.90 243.3491
1117.00 243.653
1117.10 243.9569
1117.20 244.2608
1117.30 244.5647
1117.40 244.8686
1117.50 245.1725
1117.60 245.4764
1117.70 245.7803
1117.80 246.0842
1117.90 246.3881
1118.00 246.692
1118.10 246.9958
1118.20 247.2997
1118.30 247.6036
1118.40 247.9075
1118.50 248.2114
1118.60 248.5153
1118.70 248.8192
1118.80 249.1231
1118.90 249.427
1119.00 249.7309
1119.10 250.0348
1119.20 250.3387
1119.30 250.6426
1119.40 250.9465
1119.50 251.2504
1119.60 251.5543
1119.70 251.8582
1119.80 251.9954
1119.90 252.0215
1120.00 252.0477
1120.10 252.0738
1120.20 252.0999
1120.30 252.126
1120.40 252.1522
1120.50 252.1783
1120.60 252.2044
1120.70 252.2306
1120.80 252.2567
1120.90 252.2828
1121.00 252.309
1121.10 252.3351
1121.20 252.3612
1121.30 252.3873
1121.40 252.4135
1121.50 252.4396
1121.60 252.4657
1121.70 252.4919
1121.80 252.518
1121.90 252.5441
1122.00 252.5703
1122.10 252.5964
1122.20 252.6225
1122.30 252.6486
1122.40 252.6748
1122.50 252.7009
1122.60 252.727
1122.70 252.7532
1122.80 252.7793
1122.90 252.8054
1123.00 252.8316
1123.10 252.8577
1123.20 252.8838
1123.30 252.91
1123.40 252.9361
1123.50 252.9622
1123.60 252.9883
1123.70 253.0145
1123.80 253.0406
1123.90 253.0667
1124.00 252.9624
1124.10 252.8435
1124.20 252.7247
1124.30 252.6058
1124.40 252.487
1124.50 252.3681
1124.60 252.2493
1124.70 252.1304
1124.80 252.0116
1124.90 251.8927
1125.00 251.7739
1125.10 251.655
1125.20 251.5361
1125.30 251.4173
1125.40 251.2984
1125.50 251.1796
1125.60 251.0607
1125.70 250.9419
1125.80 250.823
1125.90 250.7042
1126.00 250.5853
1126.10 250.4665
1126.20 250.3476
1126.30 250.2288
1126.40 250.1099
1126.50 249.9911
1126.60 249.8722
1126.70 249.7534
1126.80 249.6345
1126.90 249.5157
1127.00 249.3968
1127.10 249.2779
1127.20 249.1591
1127.30 249.0402
1127.40 248.9214
1127.50 248.8025
1127.60 248.6837
1127.70 248.5648
1127.80 248.446
1127.90 248.3271
1128.00 248.2083
1128.10 248.0922
1128.20 248.0008
1128.30 247.9094
1128.40 247.818
1128.50 247.7266
1128.60 247.6353
1128.70 247.5439
1128.80 247.4525
1128.90 247.3611
1129.00 247.2697
1129.10 247.1783
1129.20 247.087
1129.30 246.9956
1129.40 246.9042
1129.50 246.8128
1129.60 246.7214
1129.70 246.63
1129.80 246.5387
1129.90 246.4473
1130.00 246.3559
1130.10 246.2645
1130.20 246.1731
1130.30 246.0817
1130.40 245.9904
1130.50 245.899
1130.60 245.8076
1130.70 245.7162
1130.80 245.6248
1130.90 245.5334
1131.00 245.4421
1131.10 245.3507
1131.20 245.2593
1131.30 245.1679
1131.40 245.0765
1131.50 244.9851
1131.60 244.8938
1131.70 244.8024
1131.80 244.711
1131.90 244.6196
1132.00 244.5282
1132.10 244.4368
1132.20 244.3455
1132.30 244.3534
1132.40 244.7589
1132.50 245.1643
1132.60 245.5698
1132.70 245.9752
1132.80 246.3807
1132.90 246.7862
1133.00 247.1916
1133.10 247.5971
1133.20 248.0025
1133.30 248.408
1133.40 248.8134
1133.50 249.2189
1133.60 249.6243
1133.70 250.0298
1133.80 250.4352
1133.90 250.8407
1134.00 251.2461
1134.10 251.6516
1134.20 252.057
1134.30 252.4625
1134.40 252.8679
1134.50 253.2734
1134.60 253.6788
1134.70 254.0843
1134.80 254.4897
1134.90 254.8952
1135.00 255.3006
1135.10 255.7061
1135.20 256.1115
1135.30 256.517
1135.40 256.9224
1135.50 257.3279
1135.60 257.7333
1135.70 258.1388
1135.80 258.5442
1135.90 258.9497
1136.00 259.3551
1136.10 259.7606
1136.20 260.166
1136.30 260.5715
1136.40 260.9769
1136.50 261.1611
1136.60 260.8289
1136.70 260.4967
1136.80 260.1645
1136.90 259.8323
1137.00 259.5001
1137.10 259.1679
1137.20 258.8357
1137.30 258.5034
1137.40 258.1712
1137.50 257.839
1137.60 257.5068
1137.70 257.1746
1137.80 256.8424
1137.90 256.5102
1138.00 256.178
1138.10 255.8458
1138.20 255.5136
1138.30 255.1814
1138.40 254.8492
1138.50 254.517
1138.60 254.1848
1138.70 253.8526
1138.80 253.5204
1138.90 253.1882
1139.00 252.856
1139.10 252.5238
1139.20 252.1915
1139.30 251.8593
1139.40 251.5271
1139.50 251.1949
1139.60 250.8627
1139.70 250.5305
1139.80 250.1983
1139.90 249.8661
1140.00 249.5339
1140.10 249.2017
1140.20 248.8695
1140.30 248.5373
1140.40 248.2051
1140.50 247.8729
1140.60 247.5407
1140.70 247.2657
1140.80 247.1242
1140.90 246.9827
1141.00 246.8411
1141.10 246.6996
1141.20 246.5581
1141.30 246.4166
1141.40 246.2751
1141.50 246.1336
1141.60 245.9921
1141.70 245.8506
1141.80 245.7091
1141.90 245.5676
1142.00 245.4261
1142.10 245.2845
1142.20 245.143
1142.30 245.0015
1142.40 244.86
1142.50 244.7185
1142.60 244.577
1142.70 244.4355
1142.80 244.294
1142.90 244.1525
1143.00 244.011
1143.10 243.8695
1143.20 243.7279
1143.30 243.5864
1143.40 243.4449
1143.50 243.3034
1143.60 243.1619
1143.70 243.0204
1143.80 242.8789
1143.90 242.7374
1144.00 242.5959
1144.10 242.4544
1144.20 242.3128
1144.30 242.1713
1144.40 242.0298
1144.50 241.8883
1144.60 241.7468
1144.70 241.6053
1144.80 241.4638
1144.90 241.4166
1145.00 241.7467
1145.10 242.0768
1145.20 242.407
1145.30 242.7371
1145.40 243.0672
1145.50 243.3973
1145.60 243.7274
1145.70 244.0575
1145.80 244.3877
1145.90 244.7178
1146.00 245.0479
1146.10 245.378
1146.20 245.7081
1146.30 246.0382
1146.40 246.3683
1146.50 246.6985
1146.60 247.0286
1146.70 247.3587
1146.80 247.6888
1146.90 248.0189
1147.00 248.349
1147.10 248.6792
1147.20 249.0093
1147.30 249.3394
1147.40 249.6695
1147.50 249.9996
1147.60 250.3297
1147.70 250.6599
1147.80 250.99
1147.90 251.3201
1148.00 251.6502
1148.10 251.9803
1148.20 252.3104
1148.30 252.6406
1148.40 252.9707
1148.50 253.3008
1148.60 253.6309
1148.70 253.961
1148.80 254.2911
1148.90 254.6213
1149.00 254.9514
1149.10 255.2815
1149.20 255.5953
1149.30 255.9091
1149.40 256.223
1149.50 256.5368
1149.60 256.8506
1149.70 257.1644
1149.80 257.4782
1149.90 257.7921
1150.00 258.1059
1150.10 258.4197
1150.20 258.7335
1150.30 259.0473
1150.40 259.3612
1150.50 259.675
1150.60 259.9888
1150.70 260.3026
1150.80 260.6165
1150.90 260.9303
1151.00 261.2441
1151.10 261.5579
1151.20 261.8717
1151.30 262.1856
1151.40 262.4994
1151.50 262.8132
1151.60 263.127
1151.70 263.4409
1151.80 263.7547
1151.90 264.0685
1152.00 264.3823
1152.10 264.6961
1152.20 265.01
1152.30 265.3238
1152.40 265.6376
1152.50 265.9514
1152.60 266.2653
1152.70 266.5791
1152.80 266.8929
1152.90 267.2067
1153.00 267.5205
1153.10 267.8344
1153.20 268.1482
1153.30 268.462
1153.40 268.5384
1153.50 268.5555
1153.60 268.5725
1153.70 268.5896
1153.80 268.6066
1153.90 268.6237
1154.00 268.6407
1154.10 268.6578
1154.20 268.6748
1154.30 268.6919
1154.40 268.7089
1154.50 268.726
1154.60 268.743
1154.70 268.7601
1154.80 268.7771
1154.90 268.7942
1155.00 268.8112
1155.10 268.8283
1155.20 268.8453
1155.30 268.8624
1155.40 268.8794
1155.50 268.8965
1155.60 268.9136
1155.70 268.9306
1155.80 268.9477
1155.90 268.9647
1156.00 268.9818
1156.10 268.9988
1156.20 269.0159
1156.30 269.0329
1156.40 269.05
1156.50 269.067
1156.60 269.0841
1156.70 269.1011
1156.80 269.1182
1156.90 269.1352
1157.00 269.1523
1157.10 269.1693
1157.20 269.1864
1157.30 269.2034
1157.40 269.2205
1157.50 269.2375
1157.60 269.3382
1157.70 269.4946
1157.80 269.6511
1157.90 269.8075
1158.00 269.9639
1158.10 270.1203
1158.20 270.2768
1158.30 270.4332
1158.40 270.5896
1158.50 270.7461
1158.60 270.9025
1158.70 271.0589
1158.80 271.2153
1158.90 271.3718
1159.00 271.5282
1159.10 271.6846
1159.20 271.841
1159.30 271.9975
1159.40 272.1539
1159.50 272.3103
1159.60 272.4668
1159.70 272.6232
1159.80 272.7796
1159.90 272.936
1160.00 273.0925
1160.10 273.2489
1160.20 273.4053
1160.30 273.5617
1160.40 273.7182
1160.50 273.8746
1160.60 274.031
1160.70 274.1874
1160.80 274.3439
1160.90 274.5003
1161.00 274.6567
1161.10 274.8132
1161.20 274.9696
1161.30 275.126
1161.40 275.2824
1161.50 275.4389
1161.60 275.5953
1161.70 275.7517
1161.80 275.889
1161.90 275.9495
1162.00 276.0101
1162.10 276.0707
1162.20 276.1312
1162.30 276.1918
1162.40 276.2524
1162.50 276.3129
1162.60 276.3735
1162.70 276.4341
1162.80 276.4946
1162.90 276.5552
1163.00 276.6158
1163.10 276.6763
1163.20 276.7369
1163.30 276.7975
1163.40 276.858
1163.50 276.9186
1163.60 276.9792
1163.70 277.0397
1163.80 277.1003
1163.90 277.1609
1164.00 277.2214
1164.10 277.282
1164.20 277.3426
1164.30 277.4031
1164.40 277.4637
1164.50 277.5243
1164.60 277.5848
1164.70 277.6454
1164.80 277.706
1164.90 277.7665
1165.00 277.8271
1165.10 277.8877
1165.20 277.9482
1165.30 278.0088
1165.40 278.0694
1165.50 278.1299
1165.60 278.1905
1165.70 278.2511
1165.80 278.3116
1165.90 278.3722
1166.00 278.4328
1166.10 278.1256
1166.20 277.7776
1166.30 277.4296
1166.40 277.0815
1166.50 276.7335
1166.60 276.3855
1166.70 276.0375
1166.80 275.6894
1166.90 275.3414
1167.00 274.9934
1167.10 274.6454
1167.20 274.2973
1167.30 273.9493
1167.40 273.6013
1167.50 273.2533
1167.60 272.9053
1167.70 272.5572
1167.80 272.2092
1167.90 271.8612
1168.00 271.5132
1168.10 271.1651
1168.20 270.8171
1168.30 270.4691
1168.40 270.1211
1168.50 269.773
1168.60 269.425
1168.70 269.077
1168.80 268.729
1168.90 268.3809
1169.00 268.0329
1169.10 267.6849
1169.20 267.3369
1169.30 266.9888
1169.40 266.6408
1169.50 266.2928
1169.60 265.9448
1169.70 265.5967
1169.80 265.2487
1169.90 264.9007
1170.00 264.5527
1170.10 264.2046
1170.20 263.8566
1170.30 263.5493
1170.40 263.3032
1170.50 263.057
1170.60 262.8109
1170.70 262.5647
1170.80 262.3186
1170.90 262.0724
1171.00 261.8263
1171.10 261.5801
1171.20 261.334
1171.30 261.0878
1171.40 260.8417
1171.50 260.5955
1171.60 260.3494
1171.70 260.1032
1171.80 259.8571
1171.90 259.6109
1172.00 259.3648
1172.10 259.1186
1172.20 258.8725
1172.30 258.6263
1172.40 258.3802
1172.50 258.134
1172.60 257.8879
1172.70 257.6417
1172.80 257.3956
1172.90 257.1494
1173.00 256.9033
1173.10 256.6571
1173.20 256.4109
1173.30 256.1648
1173.40 255.9186
1173.50 255.6725
1173.60 255.4263
1173.70 255.1802
1173.80 254.934
1173.90 254.6879
1174.00 254.4417
1174.10 254.1956
1174.20 253.9494
1174.30 253.7033
1174.40 253.4571
1174.50 253.211
1174.60 253.1315
1174.70 253.0705
1174.80 253.0096
1174.90 252.9486
1175.00 252.8876
1175.10 252.8267
1175.20 252.7657
1175.30 252.7048
1175.40 252.6438
1175.50 252.5828
1175.60 252.5219
1175.70 252.4609
1175.80 252.3999
1175.90 252.339
1176.00 252.278
1176.10 252.217
1176.20 252.1561
1176.30 252.0951
1176.40 252.0342
1176.50 251.9732
1176.60 251.9122
1176.70 251.8513
1176.80 251.7903
1176.90 251.7293
1177.00 251.6684
1177.10 251.6074
1177.20 251.5465
1177.30 251.4855
1177.40 251.4245
1177.50 251.3636
1177.60 251.3026
1177.70 251.2416
1177.80 251.1807
1177.90 251.1197
1178.00 251.0587
1178.10 250.9978
1178.20 250.9368
1178.30 250.8759
1178.40 250.8149
1178.50 250.7539
1178.60 250.693
1178.70 250.632
1178.80 250.6667
1178.90 250.8448
1179.00 251.023
1179.10 251.2011
1179.20 251.3793
1179.30 251.5574
1179.40 251.7356
1179.50 251.9137
1179.60 252.0919
1179.70 252.27
1179.80 252.4482
1179.90 252.6263
1180.00 252.8045
1180.10 252.9826
1180.20 253.1608
1180.30 253.3389
1180.40 253.5171
1180.50 253.6952
1180.60 253.8734
1180.70 254.0515
1180.80 254.2297
1180.90 254.4078
1181.00 254.586
1181.10 254.7641
1181.20 254.9423
1181.30 255.1204
1181.40 255.2986
1181.50 255.4767
1181.60 255.6549
1181.70 255.833
1181.80 256.0111
1181.90 256.1893
1182.00 256.3674
1182.10 256.5456
1182.20 256.7237
1182.30 256.9019
1182.40 257.08
1182.50 257.2582
1182.60 257.4363
1182.70 257.6145
1182.80 257.7926
1182.90 257.9708
1183.00 258.1489
1183.10 258.0981
1183.20 257.99
1183.30 257.882
1183.40 257.7739
1183.50 257.6658
1183.60 257.5578
1183.70 257.4497
1183.80 257.3416
1183.90 257.2336
1184.00 257.1255
1184.10 257.0174
1184.20 256.9094
1184.30 256.8013
1184.40 256.6932
1184.50 256.5851
1184.60 256.4771
1184.70 256.369
1184.80 256.2609
1184.90 256.1529
1185.00 256.0448
1185.10 255.9367
1185.20 255.8287
1185.30 255.7206
1185.40 255.6125
1185.50 255.5045
1185.60 255.3964
1185.70 255.2883
1185.80 255.1803
1185.90 255.0722
1186.00 254.9641
1186.10 254.856
1186.20 254.748
1186.30 254.6399
1186.40 254.5318
1186.50 254.4238
1186.60 254.3157
1186.70 254.2076
1186.80 254.0996
1186.90 253.9915
1187.00 253.8834
1187.10 253.7754
1187.20 253.6673
1187.30 253.6509
1187.40 254.0012
1187.50 254.3514
1187.60 254.7017
1187.70 255.052
1187.80 255.4023
1187.90 255.7526
1188.00 256.1028
1188.10 256.4531
1188.20 256.8034
1188.30 257.1537
1188.40 257.504
1188.50 257.8542
1188.60 258.2045
1188.70 258.5548
1188.80 258.9051
1188.90 259.2554
1189.00 259.6056
1189.10 259.9559
1189.20 260.3062
1189.30 260.6565
1189.40 261.0067
1189.50 261.357
1189.60 261.7073
1189.70 262.0576
1189.80 262.4079
1189.90 262.7581
1190.00 263.1084
1190.10 263.4587
1190.20 263.809
1190.30 264.1593
1190.40 264.5095
1190.50 264.8598
1190.60 265.2101
1190.70 265.5604
1190.80 265.9106
1190.90 266.2609
1191.00 266.6112
1191.10 266.9615
1191.20 267.3118
1191.30 267.662
1191.40 268.0123
1191.50 268.3626
1191.60 268.5455
1191.70 268.561
1191.80 268.5766
1191.90 268.5921
1192.00 268.6076
1192.10 268.6232
1192.20 268.6387
1192.30 268.6542
1192.40 268.6698
1192.50 268.6853
1192.60 268.7008
1192.70 268.7163
1192.80 268.7319
1192.90 268.7474
1193.00 268.7629
1193.10 268.7785
1193.20 268.794
1193.30 268.8095
1193.40 268.8251
1193.50 268.8406
1193.60 268.8561
1193.70 268.8717
1193.80 268.8872
1193.90 268.9027
1194.00 268.9183
1194.10 268.9338
1194.20 268.9493
1194.30 268.9649
1194.40 268.9804
1194.50 268.9959
1194.60 269.0114
1194.70 269.027
1194.80 269.0425
1194.90 269.058
1195.00 269.0736
1195.10 269.0891
1195.20 269.1046
1195.30 269.1202
1195.40 269.1357
1195.50 269.1512
1195.60 269.1668
1195.70 269.1823
1195.80 269.1978
1195.90 269.1993
1196.00 269.1972
1196.10 269.1952
1196.20 269.1931
1196.30 269.1911
1196.40 269.189
1196.50 269.1869
1196.60 269.1849
1196.70 269.1828
1196.80 269.1808
1196.90 269.1787
1197.00 269.1766
1197.10 269.1746
1197.20 269.1725
1197.30 269.1705
1197.40 269.1684
1197.50 269.1664
1197.60 269.1643
1197.70 269.1622
1197.80 269.1602
1197.90 269.1581
1198.00 269.1561
1198.10 269.154
1198.20 269.152
1198.30 269.1499
1198.40 269.1478
1198.50 269.1458
1198.60 269.1437
1198.70 269.1417
1198.80 269.1396
1198.90 269.1376
1199.00 269.1355
1199.10 269.1334
1199.20 269.1314
1199.30 269.1293
1199.40 269.1273
1199.50 269.1252
1199.60 269.1232
1199.70 269.1211
1199.80 269.119
1199.90 269.117
1200.00 269.1149
1200.10 269.1129
1200.20 268.8777
1200.30 268.6425
1200.40 268.4073
1200.50 268.1721
1200.60 267.937
1200.70 267.7018
1200.80 267.4666
1200.90 267.2314
1201.00 266.9962
1201.10 266.7611
1201.20 266.5259
1201.30 266.2907
1201.40 266.0555
1201.50 265.8203
1201.60 265.5851
1201.70 265.35
1201.80 265.1148
1201.90 264.8796
1202.00 264.6444
1202.10 264.4092
1202.20 264.1741
1202.30 263.9389
1202.40 263.7037
1202.50 263.4685
1202.60 263.2333
1202.70 262.9981
1202.80 262.763
1202.90 262.5278
1203.00 262.2926
1203.10 262.0574
1203.20 261.8222
1203.30 261.5871
1203.40 261.3519
1203.50 261.1167
1203.60 260.8815
1203.70 260.6463
1203.80 260.4112
1203.90 260.176
1204.00 259.9408
1204.10 259.7056
1204.20 259.4704
1204.30 259.2352
1204.40 259.0796
1204.50 259.2421
1204.60 259.4046
1204.70 259.5671
1204.80 259.7296
1204.90 259.8921
1205.00 260.0545
1205.10 260.217
1205.20 260.3795
1205.30 260.542
1205.40 260.7045
1205.50 260.867
1205.60 261.0295
1205.70 261.192
1205.80 261.3545
1205.90 261.517
1206.00 261.6794
1206.10 261.8419
1206.20 262.0044
1206.30 262.1669
1206.40 262.3294
1206.50 262.4919
1206.60 262.6544
1206.70 262.8169
1206.80 262.9794
1206.90 263.1419
1207.00 263.3044
1207.10 263.4668
1207.20 263.6293
1207.30 263.7918
1207.40 263.9543
1207.50 264.1168
1207.60 264.2793
1207.70 264.4418
1207.80 264.6043
1207.90 264.7668
1208.00 264.9293
1208.10 265.0917
1208.20 265.2542
1208.30 265.4167
1208.40 265.5792
1208.50 265.7417
1208.60 265.9042
1208.70 266.1671
1208.80 266.5806
1208.90 266.9941
1209.00 267.4076
1209.10 267.8211
1209.20 268.2345
1209.30 268.648
1209.40 269.0615
1209.50 269.475
1209.60 269.8885
1209.70 270.302
1209.80 270.7155
1209.90 271.129
1210.00 271.5425
1210.10 271.956
1210.20 272.3694
1210.30 272.7829
1210.40 273.1964
1210.50 273.6099
1210.60 274.0234
1210.70 274.4369
1210.80 274.8504
1210.90 275.2639
1211.00 275.6774
1211.10 276.0909
1211.20 276.5044
1211.30 276.9178
1211.40 277.3313
1211.50 277.7448
1211.60 278.1583
1211.70 278.5718
1211.80 278.9853
1211.90 279.3988
1212.00 279.8123
1212.10 280.2258
1212.20 280.6393
1212.30 281.0527
1212.40 281.4662
1212.50 281.8797
1212.60 282.2932
1212.70 282.7067
1212.80 283.1202
1212.90 283.5337
1213.00 283.7697
1213.10 283.8283
1213.20 283.8869
1213.30 283.9455
1213.40 284.0041
1213.50 284.0627
1213.60 284.1213
1213.70 284.1799
1213.80 284.2386
1213.90 284.2972
1214.00 284.3558
1214.10 284.4144
1214.20 284.473
1214.30 284.5316
1214.40 284.5902
1214.50 284.6488
1214.60 284.7074
1214.70 284.766
1214.80 284.8246
1214.90 284.8832
1215.00 284.9418
1215.10 285.0004
1215.20 285.059
1215.30 285.1176
1215.40 285.1762
1215.50 285.2348
1215.60 285.2934
1215.70 285.352
1215.80 285.4106
1215.90 285.4692
1216.00 285.5278
1216.10 285.5864
1216.20 285.645
1216.30 285.7036
1216.40 285.7622
1216.50 285.8208
1216.60 285.8794
1216.70 285.938
1216.80 285.9966
1216.90 286.0552
1217.00 286.1138
1217.10 286.1724
1217.20 286.231
1217.30 286.3036
1217.40 286.3855
1217.50 286.4674
1217.60 286.5493
1217.70 286.6311
1217.80 286.713
1217.90 286.7949
1218.00 286.8768
1218.10 286.9587
1218.20 287.0406
1218.30 287.1224
1218.40 287.2043
1218.50 287.2862
1218.60 287.3681
1218.70 287.45
1218.80 287.5319
1218.90 287.6138
1219.00 287.6956
1219.10 287.7775
1219.20 287.8594
1219.30 287.9413
1219.40 288.0232
1219.50 288.1051
1219.60 288.187
1219.70 288.2688
1219.80 288.3507
1219.90 288.4326
1220.00 288.5145
1220.10 288.5964
1220.20 288.6783
1220.30 288.7602
1220.40 288.842
1220.50 288.9239
1220.60 289.0058
1220.70 289.0877
1220.80 289.1696
1220.90 289.2515
1221.00 289.3334
1221.10 289.4152
1221.20 289.4971
1221.30 289.579
1221.40 289.6609
1221.50 289.7428
1221.60 289.9239
1221.70 290.1475
1221.80 290.3712
1221.90 290.5948
1222.00 290.8184
1222.10 291.0421
1222.20 291.2657
1222.30 291.4894
1222.40 291.713
1222.50 291.9366
1222.60 292.1603
1222.70 292.3839
1222.80 292.6075
1222.90 292.8312
1223.00 293.0548
1223.10 293.2785
1223.20 293.5021
1223.30 293.7257
1223.40 293.9494
1223.50 294.173
1223.60 294.3966
1223.70 294.6203
1223.80 294.8439
1223.90 295.0676
1224.00 295.2912
1224.10 295.5148
1224.20 295.7385
1224.30 295.9621
1224.40 296.1857
1224.50 296.4094
1224.60 296.633
1224.70 296.8566
1224.80 297.0803
1224.90 297.3039
1225.00 297.5276
1225.10 297.7512
1225.20 297.9748
1225.30 298.1985
1225.40 298.4221
1225.50 298.6457
1225.60 298.8694
1225.70 299.093
1225.80 299.3167
1225.90 299.3457
1226.00 299.2913
1226.10 299.237
1226.20 299.1826
1226.30 299.1282
1226.40 299.0739
1226.50 299.0195
1226.60 298.9652
1226.70 298.9108
1226.80 298.8564
1226.90 298.8021
1227.00 298.7477
1227.10 298.6933
1227.20 298.639
1227.30 298.5846
1227.40 298.5302
1227.50 298.4759
1227.60 298.4215
1227.70 298.3672
1227.80 298.3128
1227.90 298.2584
1228.00 298.2041
1228.10 298.1497
1228.20 298.0953
1228.30 298.041
1228.40 297.9866
1228.50 297.9323
1228.60 297.8779
1228.70 297.8235
1228.80 297.7692
1228.90 297.7148
1229.00 297.6604
1229.10 297.6061
1229.20 297.5517
1229.30 297.4974
1229.40 297.443
1229.50 297.3886
1229.60 297.3343
1229.70 297.2799
1229.80 297.2255
1229.90 297.1712
1230.00 297.1168
1230.10 297.0624
1230.20 297.2337
1230.30 297.4613
1230.40 297.689
1230.50 297.9166
1230.60 298.1442
1230.70 298.3719
1230.80 298.5995
1230.90 298.8272
1231.00 299.0548
1231.10 299.2824
1231.20 299.5101
1231.30 299.7377
1231.40 299.9654
1231.50 300.193
1231.60 300.4206
1231.70 300.6483
1231.80 300.8759
1231.90 301.1035
1232.00 301.3312
1232.10 301.5588
1232.20 301.7865
1232.30 302.0141
1232.40 302.2417
1232.50 302.4694
1232.60 302.697
1232.70 302.9247
1232.80 303.1523
1232.90 303.3799
1233.00 303.6076
1233.10 303.8352
1233.20 304.0628
1233.30 304.2905
1233.40 304.5181
1233.50 304.7458
1233.60 304.9734
1233.70 305.201
1233.80 305.4287
1233.90 305.6563
1234.00 305.884
1234.10 306.1116
1234.20 306.3392
1234.30 306.5669
1234.40 306.7945
1234.50 306.8931
1234.60 306.9364
1234.70 306.9797
1234.80 307.0229
1234.90 307.0662
1235.00 307.1095
1235.10 307.1528
1235.20 307.1961
1235.30 307.2393
1235.40 307.2826
1235.50 307.3259
1235.60 307.3692
1235.70 307.4125
1235.80 307.4558
1235.90 307.499
1236.00 307.5423
1236.10 307.5856
1236.20 307.6289
1236.30 307.6722
1236.40 307.7154
1236.50 307.7587
1236.60 307.802
1236.70 307.8453
1236.80 307.8886
1236.90 307.9318
1237.00 307.9751
1237.10 308.0184
1237.20 308.0617
1237.30 308.105
1237.40 308.1483
1237.50 308.1915
1237.60 308.2348
1237.70 308.2781
1237.80 308.3214
1237.90 308.3647
1238.00 308.4079
1238.10 308.4512
1238.20 308.4945
1238.30 308.5378
1238.40 308.5811
1238.50 308.6243
1238.60 308.6676
1238.70 308.7109
1238.80 308.5598
1238.90 308.3254
1239.00 308.091
1239.10 307.8565
1239.20 307.6221
1239.30 307.3877
1239.40 307.1533
1239.50 306.9188
1239.60 306.6844
1239.70 306.45
1239.80 306.2156
1239.90 305.9811
1240.00 305.7467
1240.10 305.5123
1240.20 305.2779
1240.30 305.0434
1240.40 304.809
1240.50 304.5746
1240.60 304.3402
1240.70 304.1057
1240.80 303.8713
1240.90 303.6369
1241.00 303.4025
1241.10 303.168
1241.20 302.9336
1241.30 302.6992
1241.40 302.4648
1241.50 302.2303
1241.60 301.9959
1241.70 301.7615
1241.80 301.5271
1241.90 301.2926
1242.00 301.0582
1242.10 300.8238
1242.20 300.5894
1242.30 300.355
1242.40 300.1205
1242.50 299.8861
1242.60 299.6517
1242.70 299.4173
1242.80 299.1828
1242.90 298.9484
1243.00 298.714
1243.10 298.6355
1243.20 298.6239
1243.30 298.6123
1243.40 298.6008
1243.50 298.5892
1243.60 298.5776
1243.70 298.566
1243.80 298.5544
1243.90 298.5428
1244.00 298.5312
1244.10 298.5196
1244.20 298.508
1244.30 298.4964
1244.40 298.4848
1244.50 298.4732
1244.60 298.4616
1244.70 298.45
1244.80 298.4384
1244.90 298.4268
1245.00 298.4152
1245.10 298.4036
1245.20 298.3921
1245.30 298.3805
1245.40 298.3689
1245.50 298.3573
1245.60 298.3457
1245.70 298.3341
1245.80 298.3225
1245.90 298.3109
1246.00 298.2993
1246.10 298.2877
1246.20 298.2761
1246.30 298.2645
1246.40 298.2529
1246.50 298.2413
1246.60 298.2297
1246.70 298.2181
1246.80 298.2065
1246.90 298.1949
1247.00 298.1833
1247.10 298.1718
1247.20 298.1602
1247.30 298.1486
1247.40 298.0525
1247.50 297.9002
1247.60 297.7478
1247.70 297.5955
1247.80 297.4431
1247.90 297.2908
1248.00 297.1384
1248.10 296.9861
1248.20 296.8337
1248.30 296.6814
1248.40 296.529
1248.50 296.3767
1248.60 296.2244
1248.70 296.072
1248.80 295.9197
1248.90 295.7673
1249.00 295.615
1249.10 295.4626
1249.20 295.3103
1249.30 295.1579
1249.40 295.0056
1249.50 294.8532
1249.60 294.7009
1249.70 294.5485
1249.80 294.3962
1249.90 294.2438
1250.00 294.0915
1250.10 293.9392
1250.20 293.7868
1250.30 293.6345
1250.40 293.4821
1250.50 293.3298
1250.60 293.1774
1250.70 293.0251
1250.80 292.8727
1250.90 292.7204
1251.00 292.568
1251.10 292.4157
1251.20 292.2633
1251.30 292.111
1251.40 291.9586
1251.50 291.8063
1251.60 291.6539
1251.70 291.6379
1251.80 291.7583
1251.90 291.8786
1252.00 291.9989
1252.10 292.1192
1252.20 292.2396
1252.30 292.3599
1252.40 292.4802
1252.50 292.6006
1252.60 292.7209
1252.70 292.8412
1252.80 292.9615
1252.90 293.0819
1253.00 293.2022
1253.10 293.3225
1253.20 293.4428
1253.30 293.5632
1253.40 293.6835
1253.50 293.8038
1253.60 293.9241
1253.70 294.0445
1253.80 294.1648
1253.90 294.2851
1254.00 294.4055
1254.10 294.5258
1254.20 294.6461
1254.30 294.7664
1254.40 294.8868
1254.50 295.0071
1254.60 295.1274
1254.70 295.2477
1254.80 295.3681
1254.90 295.4884
1255.00 295.6087
1255.10 295.7291
1255.20 295.8494
1255.30 295.9697
1255.40 296.09
1255.50 296.2104
1255.60 296.3307
1255.70 296.451
1255.80 296.5713
1255.90 296.6917
1256.00 296.7561
1256.10 296.7367
1256.20 296.7173
1256.30 296.6979
1256.40 296.6785
1256.50 296.6591
1256.60 296.6397
1256.70 296.6203
1256.80 296.6009
1256.90 296.5815
1257.00 296.5621
1257.10 296.5427
1257.20 296.5233
1257.30 296.5039
1257.40 296.4845
1257.50 296.4651
1257.60 296.4457
1257.70 296.4263
1257.80 296.4069
1257.90 296.3875
1258.00 296.3681
1258.10 296.3487
1258.20 296.3293
1258.30 296.3099
1258.40 296.2905
1258.50 296.2711
1258.60 296.2517
1258.70 296.2323
1258.80 296.2129
1258.90 296.1935
1259.00 296.1741
1259.10 296.1547
1259.20 296.1353
1259.30 296.1159
1259.40 296.0965
1259.50 296.0771
1259.60 296.0577
1259.70 296.0383
1259.80 296.0189
1259.90 295.9995
1260.00 295.9801
1260.10 295.9607
1260.20 295.9413
1260.30 296.0132
1260.40 296.4503
1260.50 296.8873
1260.60 297.3244
1260.70 297.7615
1260.80 298.1986
1260.90 298.6357
1261.00 299.0728
1261.10 299.5098
1261.20 299.9469
1261.30 300.384
1261.40 300.8211
1261.50 301.2582
1261.60 301.6953
1261.70 302.1323
1261.80 302.5694
1261.90 303.0065
1262.00 303.4436
1262.10 303.8807
1262.20 304.3178
1262.30 304.7549
1262.40 305.1919
1262.50 305.629
1262.60 306.0661
1262.70 306.5032
1262.80 306.9403
1262.90 307.3774
1263.00 307.8144
1263.10 308.2515
1263.20 308.6886
1263.30 309.1257
1263.40 309.5628
1263.50 309.9999
1263.60 310.4369
1263.70 310.874
1263.80 311.3111
1263.90 311.7482
1264.00 312.1853
1264.10 312.6224
1264.20 313.0595
1264.30 313.4965
1264.40 313.9336
1264.50 314.3707
1264.60 314.7959
1264.70 315.1144
1264.80 315.4328
1264.90 315.7512
1265.00 316.0696
1265.10 316.3881
1265.20 316.7065
1265.30 317.0249
1265.40 317.3434
1265.50 317.6618
1265.60 317.9802
1265.70 318.2986
1265.80 318.6171
1265.90 318.9355
1266.00 319.2539
1266.10 319.5724
1266.20 319.8908
1266.30 320.2092
1266.40 320.5277
1266.50 320.8461
1266.60 321.1645
1266.70 321.4829
1266.80 321.8014
1266.90 322.1198
1267.00 322.4382
1267.10 322.7567
1267.20 323.0751
1267.30 323.3935
1267.40 323.712
1267.50 324.0304
1267.60 324.3488
1267.70 324.6672
1267.80 324.9857
1267.90 325.3041
1268.00 325.6225
1268.10 325.941
1268.20 326.2594
1268.30 326.5778
1268.40 326.8962
1268.50 327.2147
1268.60 327.5331
1268.70 327.8515
1268.80 328.17
1268.90 328.4884
1269.00 328.7706
1269.10 329.0528
1269.20 329.335
1269.30 329.6172
1269.40 329.8994
1269.50 330.1816
1269.60 330.4638
1269.70 330.7461
1269.80 331.0283
1269.90 331.3105
1270.00 331.5927
1270.10 331.8749
1270.20 332.1571
1270.30 332.4393
1270.40 332.7215
1270.50 333.0037
1270.60 333.2859
1270.70 333.5681
1270.80 333.8503
1270.90 334.1325
1271.00 334.4147
1271.10 334.697
1271.20 334.9792
1271.30 335.2614
1271.40 335.5436
1271.50 335.8258
1271.60 336.108
1271.70 336.3902
1271.80 336.6724
1271.90 336.9546
1272.00 337.2368
1272.10 337.519
1272.20 337.8012
1272.30 338.0834
1272.40 338.3656
1272.50 338.6479
1272.60 338.9301
1272.70 339.2123
1272.80 339.4945
1272.90 339.7767
1273.00 340.0589
1273.10 340.3411
1273.20 340.6233
1273.30 340.8457
1273.40 341.0532
1273.50 341.2606
1273.60 341.4681
1273.70 341.6756
1273.80 341.883
1273.90 342.0905
1274.00 342.2979
1274.10 342.5054
1274.20 342.7129
1274.30 342.9203
1274.40 343.1278
1274.50 343.3352
1274.60 343.5427
1274.70 343.7501
1274.80 343.9576
1274.90 344.1651
1275.00 344.3725
1275.10 344.58
1275.20 344.7874
1275.30 344.9949
1275.40 345.2024
1275.50 345.4098
1275.60 345.6173
1275.70 345.8247
1275.80 346.0322
1275.90 346.2397
1276.00 346.4471
1276.10 346.6546
1276.20 346.862
1276.30 347.0695
1276.40 347.277
1276.50 347.4844
1276.60 347.6919
1276.70 347.8993
1276.80 348.1068
1276.90 348.3143
1277.00 348.5217
1277.10 348.7292
1277.20 348.9366
1277.30 349.1441
1277.40 349.3516
1277.50 349.559
1277.60 349.6929
1277.70 349.7778
1277.80 349.8627
1277.90 349.9476
1278.00 350.0324
1278.10 350.1173
1278.20 350.2022
1278.30 350.2871
1278.40 350.372
1278.50 350.4568
1278.60 350.5417
1278.70 350.6266
1278.80 350.7115
1278.90 350.7963
1279.00 350.8812
1279.10 350.9661
1279.20 351.051
1279.30 351.1359
1279.40 351.2207
1279.50 351.3056
1279.60 351.3905
1279.70 351.4754
1279.80 351.5603
1279.90 351.6451
1280.00 351.73
1280.10 351.8149
1280.20 351.8998
1280.30 351.9846
1280.40 352.0695
1280.50 352.1544
1280.60 352.2393
1280.70 352.3242
1280.80 352.409
1280.90 352.4939
1281.00 352.5788
1281.10 352.6637
1281.20 352.7485
1281.30 352.8334
1281.40 352.9183
1281.50 353.0032
1281.60 353.0881
1281.70 353.1729
1281.80 353.2578
1281.90 353.2258
1282.00 353.0768
1282.10 352.9278
1282.20 352.7788
1282.30 352.6299
1282.40 352.4809
1282.50 352.3319
1282.60 352.1829
1282.70 352.0339
1282.80 351.885
1282.90 351.736
1283.00 351.587
1283.10 351.438
1283.20 351.289
1283.30 351.1401
1283.40 350.9911
1283.50 350.8421
1283.60 350.6931
1283.70 350.5442
1283.80 350.3952
1283.90 350.2462
1284.00 350.0972
1284.10 349.9482
1284.20 349.7993
1284.30 349.6503
1284.40 349.5013
1284.50 349.3523
1284.60 349.2033
1284.70 349.0544
1284.80 348.9054
1284.90 348.7564
1285.00 348.6074
1285.10 348.4585
1285.20 348.3095
1285.30 348.1605
1285.40 348.0115
1285.50 347.8625
1285.60 347.7136
1285.70 347.5646
1285.80 347.4156
1285.90 347.2666
1286.00 347.1177
1286.10 346.9687
1286.20 346.9062
1286.30 347.0456
1286.40 347.185
1286.50 347.3245
1286.60 347.4639
1286.70 347.6033
1286.80 347.7427
1286.90 347.8821
1287.00 348.0215
1287.10 348.1609
1287.20 348.3004
1287.30 348.4398
1287.40 348.5792
1287.50 348.7186
1287.60 348.858
1287.70 348.9974
1287.80 349.1368
1287.90 349.2763
1288.00 349.4157
1288.10 349.5551
1288.20 349.6945
1288.30 349.8339
1288.40 349.9733
1288.50 350.1127
1288.60 350.2522
1288.70 350.3916
1288.80 350.531
1288.90 350.6704
1289.00 350.8098
1289.10 350.9492
1289.20 351.0886
1289.30 351.2281
1289.40 351.3675
1289.50 351.5069
1289.60 351.6463
1289.70 351.7857
1289.80 351.9251
1289.90 352.0645
1290.00 352.204
1290.10 352.3434
1290.20 352.4828
1290.30 352.6222
1290.40 352.7616
1290.50 352.8734
1290.60 352.7361
1290.70 352.5989
1290.80 352.4616
1290.90 352.3244
1291.00 352.1871
1291.10 352.0499
1291.20 351.9126
1291.30 351.7754
1291.40 351.6381
1291.50 351.5009
1291.60 351.3636
1291.70 351.2264
1291.80 351.0891
1291.90 350.9519
1292.00 350.8146
1292.10 350.6774
1292.20 350.5401
1292.30 350.4029
1292.40 350.2656
1292.50 350.1284
1292.60 349.9911
1292.70 349.8539
1292.80 349.7166
1292.90 349.5794
1293.00 349.4421
1293.10 349.3049
1293.20 349.1676
1293.30 349.0304
1293.40 348.8931
1293.50 348.7559
1293.60 348.6186
1293.70 348.4814
1293.80 348.3441
1293.90 348.2069
1294.00 348.0696
1294.10 347.9324
1294.20 347.7951
1294.30 347.6579
1294.40 347.5206
1294.50 347.3834
1294.60 347.2461
1294.70 347.1089
1294.80 346.9716
1294.90 347.025
1295.00 347.0995
1295.10 347.1741
1295.20 347.2487
1295.30 347.3232
1295.40 347.3978
1295.50 347.4723
1295.60 347.5469
1295.70 347.6215
1295.80 347.696
1295.90 347.7706
1296.00 347.8451
1296.10 347.9197
1296.20 347.9943
1296.30 348.0688
1296.40 348.1434
1296.50 348.2179
1296.60 348.2925
1296.70 348.367
1296.80 348.4416
1296.90 348.5162
1297.00 348.5907
1297.10 348.6653
1297.20 348.7398
1297.30 348.8144
1297.40 348.889
1297.50 348.9635
1297.60 349.0381
1297.70 349.1126
1297.80 349.1872
1297.90 349.2618
1298.00 349.3363
1298.10 349.4109
1298.20 349.4854
1298.30 349.56
1298.40 349.6345
1298.50 349.7091
1298.60 349.7837
1298.70 349.8582
1298.80 349.9328
1298.90 350.0073
1299.00 350.0819
1299.10 350.1565
1299.20 350.0195
1299.30 349.792
1299.40 349.5644
1299.50 349.3368
1299.60 349.1092
1299.70 348.8816
1299.80 348.6541
1299.90 348.4265
