# Version 2.1 - nm, norm@500 to 1, cut digits
# Wavelength(nm)  Flambda(ergs/cm^s/s/nm)
300.00 1.262902e-95
300.10 1.262902e-95
300.20 1.262902e-95
300.30 1.262902e-95
300.40 1.262902e-95
300.50 1.262902e-95
300.60 1.262902e-95
300.70 1.262902e-95
300.80 1.262902e-95
300.90 1.262902e-95
301.00 1.262902e-95
301.10 1.262902e-95
301.20 1.262902e-95
301.30 1.262902e-95
301.40 1.262902e-95
301.50 1.262902e-95
301.60 1.262902e-95
301.70 1.262902e-95
301.80 1.262902e-95
301.90 1.262902e-95
302.00 1.262902e-95
302.10 1.262902e-95
302.20 1.262902e-95
302.30 1.262902e-95
302.40 1.262902e-95
302.50 1.262902e-95
302.60 1.262902e-95
302.70 1.262902e-95
302.80 1.262902e-95
302.90 1.262902e-95
303.00 1.262902e-95
303.10 1.262902e-95
303.20 1.262902e-95
303.30 1.262902e-95
303.40 1.262902e-95
303.50 1.262902e-95
303.60 1.262902e-95
303.70 1.262902e-95
303.80 1.262902e-95
303.90 1.262902e-95
304.00 1.262902e-95
304.10 1.262902e-95
304.20 1.262902e-95
304.30 1.262902e-95
304.40 1.262902e-95
304.50 1.262902e-95
304.60 1.262902e-95
304.70 1.262902e-95
304.80 1.262902e-95
304.90 1.262902e-95
305.00 1.262902e-95
305.10 1.262902e-95
305.20 1.262902e-95
305.30 1.262902e-95
305.40 1.262902e-95
305.50 1.262902e-95
305.60 1.262902e-95
305.70 1.262902e-95
305.80 1.262902e-95
305.90 1.262902e-95
306.00 1.262902e-95
306.10 1.262902e-95
306.20 1.262902e-95
306.30 1.262902e-95
306.40 1.262902e-95
306.50 1.262902e-95
306.60 1.262902e-95
306.70 1.262902e-95
306.80 1.262902e-95
306.90 1.262902e-95
307.00 1.262902e-95
307.10 1.262902e-95
307.20 1.262902e-95
307.30 1.262902e-95
307.40 1.262902e-95
307.50 1.262902e-95
307.60 1.262902e-95
307.70 1.262902e-95
307.80 1.262902e-95
307.90 1.262902e-95
308.00 1.262902e-95
308.10 1.262902e-95
308.20 1.262902e-95
308.30 1.262902e-95
308.40 1.262902e-95
308.50 1.262902e-95
308.60 1.262902e-95
308.70 1.262902e-95
308.80 1.262902e-95
308.90 1.262902e-95
309.00 1.262902e-95
309.10 1.262902e-95
309.20 1.262902e-95
309.30 1.262902e-95
309.40 1.262902e-95
309.50 1.262902e-95
309.60 1.262902e-95
309.70 1.262902e-95
309.80 1.262902e-95
309.90 1.262902e-95
310.00 1.262902e-95
310.10 1.262902e-95
310.20 1.262902e-95
310.30 1.262902e-95
310.40 1.262902e-95
310.50 1.262902e-95
310.60 1.262902e-95
310.70 1.262902e-95
310.80 1.262902e-95
310.90 1.262902e-95
311.00 1.262902e-95
311.10 1.262902e-95
311.20 1.262902e-95
311.30 1.262902e-95
311.40 1.262902e-95
311.50 1.262902e-95
311.60 1.262902e-95
311.70 1.262902e-95
311.80 1.262902e-95
311.90 1.262902e-95
312.00 1.262902e-95
312.10 1.262902e-95
312.20 1.262902e-95
312.30 1.262902e-95
312.40 1.262902e-95
312.50 1.262902e-95
312.60 1.262902e-95
312.70 1.262902e-95
312.80 1.262902e-95
312.90 1.262902e-95
313.00 1.262902e-95
313.10 1.262902e-95
313.20 1.262902e-95
313.30 1.262902e-95
313.40 1.262902e-95
313.50 1.262902e-95
313.60 1.262902e-95
313.70 1.262902e-95
313.80 1.262902e-95
313.90 1.262902e-95
314.00 1.262902e-95
314.10 1.262902e-95
314.20 1.262902e-95
314.30 1.262902e-95
314.40 1.262902e-95
314.50 1.262902e-95
314.60 1.262902e-95
314.70 1.262902e-95
314.80 1.262902e-95
314.90 1.262902e-95
315.00 1.262902e-95
315.10 1.262902e-95
315.20 1.262902e-95
315.30 1.262902e-95
315.40 1.262902e-95
315.50 1.262902e-95
315.60 1.262902e-95
315.70 1.262902e-95
315.80 1.262902e-95
315.90 1.262902e-95
316.00 1.262902e-95
316.10 1.262902e-95
316.20 1.262902e-95
316.30 1.262902e-95
316.40 1.262902e-95
316.50 1.262902e-95
316.60 1.262902e-95
316.70 1.262902e-95
316.80 1.262902e-95
316.90 1.262902e-95
317.00 1.262902e-95
317.10 1.262902e-95
317.20 1.262902e-95
317.30 1.262902e-95
317.40 1.262902e-95
317.50 1.262902e-95
317.60 1.262902e-95
317.70 1.262902e-95
317.80 1.262902e-95
317.90 1.262902e-95
318.00 1.262902e-95
318.10 1.262902e-95
318.20 1.262902e-95
318.30 1.262902e-95
318.40 1.262902e-95
318.50 1.262902e-95
318.60 1.262902e-95
318.70 1.262902e-95
318.80 1.262902e-95
318.90 1.262902e-95
319.00 1.262902e-95
319.10 1.262902e-95
319.20 1.262902e-95
319.30 1.262902e-95
319.40 1.262902e-95
319.50 1.262902e-95
319.60 1.262902e-95
319.70 1.262902e-95
319.80 1.262902e-95
319.90 1.262902e-95
320.00 1.262902e-95
320.10 1.262902e-95
320.20 1.262902e-95
320.30 1.262902e-95
320.40 1.262902e-95
320.50 1.262902e-95
320.60 1.262902e-95
320.70 1.262902e-95
320.80 1.262902e-95
320.90 1.262902e-95
321.00 1.262902e-95
321.10 1.262902e-95
321.20 1.262902e-95
321.30 1.262902e-95
321.40 1.262902e-95
321.50 1.262902e-95
321.60 1.262902e-95
321.70 1.262902e-95
321.80 1.262902e-95
321.90 1.262902e-95
322.00 1.262902e-95
322.10 1.262902e-95
322.20 1.262902e-95
322.30 1.262902e-95
322.40 1.262902e-95
322.50 1.262902e-95
322.60 1.262902e-95
322.70 1.262902e-95
322.80 1.262902e-95
322.90 1.262902e-95
323.00 1.262902e-95
323.10 1.262902e-95
323.20 1.262902e-95
323.30 1.262902e-95
323.40 1.262902e-95
323.50 1.262902e-95
323.60 1.262902e-95
323.70 1.262902e-95
323.80 1.262902e-95
323.90 1.262902e-95
324.00 1.262902e-95
324.10 1.262902e-95
324.20 1.262902e-95
324.30 1.262902e-95
324.40 1.262902e-95
324.50 1.262902e-95
324.60 1.262902e-95
324.70 1.262902e-95
324.80 1.262902e-95
324.90 1.262902e-95
325.00 1.262902e-95
325.10 1.262902e-95
325.20 1.262902e-95
325.30 1.262902e-95
325.40 1.262902e-95
325.50 1.262902e-95
325.60 1.262902e-95
325.70 1.262902e-95
325.80 1.262902e-95
325.90 1.262902e-95
326.00 1.262902e-95
326.10 1.262902e-95
326.20 1.262902e-95
326.30 1.262902e-95
326.40 1.262902e-95
326.50 1.262902e-95
326.60 1.262902e-95
326.70 1.262902e-95
326.80 1.262902e-95
326.90 1.262902e-95
327.00 1.262902e-95
327.10 1.262902e-95
327.20 1.262902e-95
327.30 1.262902e-95
327.40 1.262902e-95
327.50 1.262902e-95
327.60 1.262902e-95
327.70 1.262902e-95
327.80 1.262902e-95
327.90 1.262902e-95
328.00 1.262902e-95
328.10 1.262902e-95
328.20 1.262902e-95
328.30 1.262902e-95
328.40 1.262902e-95
328.50 1.262902e-95
328.60 1.262902e-95
328.70 1.262902e-95
328.80 1.262902e-95
328.90 1.262902e-95
329.00 1.262902e-95
329.10 1.262902e-95
329.20 1.262902e-95
329.30 1.262902e-95
329.40 1.262902e-95
329.50 1.262902e-95
329.60 1.262902e-95
329.70 1.262902e-95
329.80 1.262902e-95
329.90 1.262902e-95
330.00 1.262902e-95
330.10 1.262902e-95
330.20 1.262902e-95
330.30 1.262902e-95
330.40 1.262902e-95
330.50 1.262902e-95
330.60 1.262902e-95
330.70 1.262902e-95
330.80 1.262902e-95
330.90 1.262902e-95
331.00 1.262902e-95
331.10 1.262902e-95
331.20 1.262902e-95
331.30 1.262902e-95
331.40 1.262902e-95
331.50 1.262902e-95
331.60 1.262902e-95
331.70 1.262902e-95
331.80 1.262902e-95
331.90 1.262902e-95
332.00 1.262902e-95
332.10 1.262902e-95
332.20 1.262902e-95
332.30 1.262902e-95
332.40 1.262902e-95
332.50 1.262902e-95
332.60 1.262902e-95
332.70 1.262902e-95
332.80 1.262902e-95
332.90 1.262902e-95
333.00 1.262902e-95
333.10 1.262902e-95
333.20 1.262902e-95
333.30 1.262902e-95
333.40 1.262902e-95
333.50 1.262902e-95
333.60 1.262902e-95
333.70 1.262902e-95
333.80 1.262902e-95
333.90 1.262902e-95
334.00 1.262902e-95
334.10 1.262902e-95
334.20 1.262902e-95
334.30 1.262902e-95
334.40 1.262902e-95
334.50 1.262902e-95
334.60 1.262902e-95
334.70 1.262902e-95
334.80 1.262902e-95
334.90 1.262902e-95
335.00 1.262902e-95
335.10 1.262902e-95
335.20 1.262902e-95
335.30 1.262902e-95
335.40 1.262902e-95
335.50 1.262902e-95
335.60 1.262902e-95
335.70 1.262902e-95
335.80 1.262902e-95
335.90 1.262902e-95
336.00 1.262902e-95
336.10 1.262902e-95
336.20 1.262902e-95
336.30 1.262902e-95
336.40 1.262902e-95
336.50 1.262902e-95
336.60 1.262902e-95
336.70 1.262902e-95
336.80 1.262902e-95
336.90 1.262902e-95
337.00 1.262902e-95
337.10 1.262902e-95
337.20 1.262902e-95
337.30 1.262902e-95
337.40 1.262902e-95
337.50 1.262902e-95
337.60 1.262902e-95
337.70 1.262902e-95
337.80 1.262902e-95
337.90 1.262902e-95
338.00 1.262902e-95
338.10 1.262902e-95
338.20 1.262902e-95
338.30 1.262902e-95
338.40 1.262902e-95
338.50 1.262902e-95
338.60 1.262902e-95
338.70 1.262902e-95
338.80 1.262902e-95
338.90 1.262902e-95
339.00 1.262902e-95
339.10 1.262902e-95
339.20 1.262902e-95
339.30 1.262902e-95
339.40 1.262902e-95
339.50 1.262902e-95
339.60 1.262902e-95
339.70 1.262902e-95
339.80 1.262902e-95
339.90 1.262902e-95
340.00 1.262902e-95
340.10 1.262902e-95
340.20 1.262902e-95
340.30 1.262902e-95
340.40 1.262902e-95
340.50 1.262902e-95
340.60 1.262902e-95
340.70 1.262902e-95
340.80 1.262902e-95
340.90 1.262902e-95
341.00 1.262902e-95
341.10 1.262902e-95
341.20 1.262902e-95
341.30 1.262902e-95
341.40 1.262902e-95
341.50 1.262902e-95
341.60 1.262902e-95
341.70 1.262902e-95
341.80 1.262902e-95
341.90 1.262902e-95
342.00 1.262902e-95
342.10 1.262902e-95
342.20 1.262902e-95
342.30 1.262902e-95
342.40 1.262902e-95
342.50 1.262902e-95
342.60 1.262902e-95
342.70 1.262902e-95
342.80 1.262902e-95
342.90 1.262902e-95
343.00 1.262902e-95
343.10 1.262902e-95
343.20 1.262902e-95
343.30 1.262902e-95
343.40 1.262902e-95
343.50 1.262902e-95
343.60 1.262902e-95
343.70 1.262902e-95
343.80 1.262902e-95
343.90 1.262902e-95
344.00 1.262902e-95
344.10 1.262902e-95
344.20 1.262902e-95
344.30 1.262902e-95
344.40 1.262902e-95
344.50 1.262902e-95
344.60 1.262902e-95
344.70 1.262902e-95
344.80 1.262902e-95
344.90 1.262902e-95
345.00 1.262902e-95
345.10 1.262902e-95
345.20 1.262902e-95
345.30 1.262902e-95
345.40 1.262902e-95
345.50 1.262902e-95
345.60 1.262902e-95
345.70 1.262902e-95
345.80 1.262902e-95
345.90 1.262902e-95
346.00 1.262902e-95
346.10 1.262902e-95
346.20 1.262902e-95
346.30 1.262902e-95
346.40 1.262902e-95
346.50 1.262902e-95
346.60 1.262902e-95
346.70 1.262902e-95
346.80 1.262902e-95
346.90 1.262902e-95
347.00 1.262902e-95
347.10 1.262902e-95
347.20 1.262902e-95
347.30 1.262902e-95
347.40 1.262902e-95
347.50 1.262902e-95
347.60 1.262902e-95
347.70 1.262902e-95
347.80 1.262902e-95
347.90 1.262902e-95
348.00 1.262902e-95
348.10 1.262902e-95
348.20 1.262902e-95
348.30 1.262902e-95
348.40 1.262902e-95
348.50 1.262902e-95
348.60 1.262902e-95
348.70 1.262902e-95
348.80 1.262902e-95
348.90 1.262902e-95
349.00 1.262902e-95
349.10 1.262902e-95
349.20 1.262902e-95
349.30 1.262902e-95
349.40 1.262902e-95
349.50 1.262902e-95
349.60 1.262902e-95
349.70 1.262902e-95
349.80 1.262902e-95
349.90 1.262902e-95
350.00 1.262902e-95
350.10 1.262902e-95
350.20 1.262902e-95
350.30 1.262902e-95
350.40 1.262902e-95
350.50 1.262902e-95
350.60 1.262902e-95
350.70 1.262902e-95
350.80 1.262902e-95
350.90 1.262902e-95
351.00 1.262902e-95
351.10 1.262902e-95
351.20 1.262902e-95
351.30 1.262902e-95
351.40 1.262902e-95
351.50 1.262902e-95
351.60 1.262902e-95
351.70 1.262902e-95
351.80 1.262902e-95
351.90 1.262902e-95
352.00 1.262902e-95
352.10 1.262902e-95
352.20 1.262902e-95
352.30 1.262902e-95
352.40 1.262902e-95
352.50 1.262902e-95
352.60 1.262902e-95
352.70 1.262902e-95
352.80 1.262902e-95
352.90 1.262902e-95
353.00 1.262902e-95
353.10 1.262902e-95
353.20 1.262902e-95
353.30 1.262902e-95
353.40 1.262902e-95
353.50 1.262902e-95
353.60 1.262902e-95
353.70 1.262902e-95
353.80 1.262902e-95
353.90 1.262902e-95
354.00 1.262902e-95
354.10 1.262902e-95
354.20 1.262902e-95
354.30 1.262902e-95
354.40 1.262902e-95
354.50 1.262902e-95
354.60 1.262902e-95
354.70 1.262902e-95
354.80 1.262902e-95
354.90 1.262902e-95
355.00 1.262902e-95
355.10 1.262902e-95
355.20 1.262902e-95
355.30 1.262902e-95
355.40 1.262902e-95
355.50 1.262902e-95
355.60 1.262902e-95
355.70 1.262902e-95
355.80 1.262902e-95
355.90 1.262902e-95
356.00 1.262902e-95
356.10 1.262902e-95
356.20 1.262902e-95
356.30 1.262902e-95
356.40 1.262902e-95
356.50 1.262902e-95
356.60 1.262902e-95
356.70 1.262902e-95
356.80 1.262902e-95
356.90 1.262902e-95
357.00 1.262902e-95
357.10 1.262902e-95
357.20 1.262902e-95
357.30 1.262902e-95
357.40 1.262902e-95
357.50 1.262902e-95
357.60 1.262902e-95
357.70 1.262902e-95
357.80 1.262902e-95
357.90 1.262902e-95
358.00 1.262902e-95
358.10 1.262902e-95
358.20 1.262902e-95
358.30 1.262902e-95
358.40 1.262902e-95
358.50 1.262902e-95
358.60 1.262902e-95
358.70 1.262902e-95
358.80 1.262902e-95
358.90 1.262902e-95
359.00 1.262902e-95
359.10 1.262902e-95
359.20 1.262902e-95
359.30 1.262902e-95
359.40 1.262902e-95
359.50 1.262902e-95
359.60 1.262902e-95
359.70 1.262902e-95
359.80 1.262902e-95
359.90 1.262902e-95
360.00 1.262902e-95
360.10 1.262902e-95
360.20 1.262902e-95
360.30 1.262902e-95
360.40 1.262902e-95
360.50 1.262902e-95
360.60 1.262902e-95
360.70 1.262902e-95
360.80 1.262902e-95
360.90 1.262902e-95
361.00 1.262902e-95
361.10 1.262902e-95
361.20 1.262902e-95
361.30 1.262902e-95
361.40 1.262902e-95
361.50 1.262902e-95
361.60 1.262902e-95
361.70 1.262902e-95
361.80 1.262902e-95
361.90 1.262902e-95
362.00 1.262902e-95
362.10 1.262902e-95
362.20 1.262902e-95
362.30 1.262902e-95
362.40 1.262902e-95
362.50 1.262902e-95
362.60 1.262902e-95
362.70 1.262902e-95
362.80 1.262902e-95
362.90 1.262902e-95
363.00 1.262902e-95
363.10 1.262902e-95
363.20 1.262902e-95
363.30 1.262902e-95
363.40 1.262902e-95
363.50 1.262902e-95
363.60 1.262902e-95
363.70 1.262902e-95
363.80 1.262902e-95
363.90 1.262902e-95
364.00 1.262902e-95
364.10 1.262902e-95
364.20 1.262902e-95
364.30 1.262902e-95
364.40 1.262902e-95
364.50 1.262902e-95
364.60 1.262902e-95
364.70 1.262902e-95
364.80 1.262902e-95
364.90 1.262902e-95
365.00 1.262902e-95
365.10 1.262902e-95
365.20 1.262902e-95
365.30 1.262902e-95
365.40 1.262902e-95
365.50 1.262902e-95
365.60 1.262902e-95
365.70 1.262902e-95
365.80 1.262902e-95
365.90 1.262902e-95
366.00 1.262902e-95
366.10 1.262902e-95
366.20 1.262902e-95
366.30 1.262902e-95
366.40 1.262902e-95
366.50 1.262902e-95
366.60 1.262902e-95
366.70 1.262902e-95
366.80 1.262902e-95
366.90 1.262902e-95
367.00 1.262902e-95
367.10 1.262902e-95
367.20 1.262902e-95
367.30 1.262902e-95
367.40 1.262902e-95
367.50 1.262902e-95
367.60 1.262902e-95
367.70 1.262902e-95
367.80 1.262902e-95
367.90 1.262902e-95
368.00 1.262902e-95
368.10 1.262902e-95
368.20 1.262902e-95
368.30 1.262902e-95
368.40 1.262902e-95
368.50 1.262902e-95
368.60 1.262902e-95
368.70 1.262902e-95
368.80 1.262902e-95
368.90 1.262902e-95
369.00 1.262902e-95
369.10 1.262902e-95
369.20 1.262902e-95
369.30 1.262902e-95
369.40 1.262902e-95
369.50 1.262902e-95
369.60 1.262902e-95
369.70 1.262902e-95
369.80 1.262902e-95
369.90 1.262902e-95
370.00 1.262902e-95
370.10 1.262902e-95
370.20 1.262902e-95
370.30 1.262902e-95
370.40 1.262902e-95
370.50 1.262902e-95
370.60 1.262902e-95
370.70 1.262902e-95
370.80 1.262902e-95
370.90 1.262902e-95
371.00 1.262902e-95
371.10 1.262902e-95
371.20 1.262902e-95
371.30 1.262902e-95
371.40 1.262902e-95
371.50 1.262902e-95
371.60 1.262902e-95
371.70 1.262902e-95
371.80 1.262902e-95
371.90 1.262902e-95
372.00 1.262902e-95
372.10 1.262902e-95
372.20 1.262902e-95
372.30 1.262902e-95
372.40 1.262902e-95
372.50 1.262902e-95
372.60 1.262902e-95
372.70 1.262902e-95
372.80 1.262902e-95
372.90 1.262902e-95
373.00 1.262902e-95
373.10 1.262902e-95
373.20 1.262902e-95
373.30 1.262902e-95
373.40 1.262902e-95
373.50 1.262902e-95
373.60 1.262902e-95
373.70 1.262902e-95
373.80 1.262902e-95
373.90 1.262902e-95
374.00 1.262902e-95
374.10 1.262902e-95
374.20 1.262902e-95
374.30 1.262902e-95
374.40 1.262902e-95
374.50 1.262902e-95
374.60 1.262902e-95
374.70 1.262902e-95
374.80 1.262902e-95
374.90 1.262902e-95
375.00 1.262902e-95
375.10 1.262902e-95
375.20 1.262902e-95
375.30 1.262902e-95
375.40 1.262902e-95
375.50 1.262902e-95
375.60 1.262902e-95
375.70 1.262902e-95
375.80 1.262902e-95
375.90 1.262902e-95
376.00 1.262902e-95
376.10 1.262902e-95
376.20 1.262902e-95
376.30 1.262902e-95
376.40 1.262902e-95
376.50 1.262902e-95
376.60 1.262902e-95
376.70 1.262902e-95
376.80 1.262902e-95
376.90 1.262902e-95
377.00 1.262902e-95
377.10 1.262902e-95
377.20 1.262902e-95
377.30 1.262902e-95
377.40 1.262902e-95
377.50 1.262902e-95
377.60 1.262902e-95
377.70 1.262902e-95
377.80 1.262902e-95
377.90 1.262902e-95
378.00 1.262902e-95
378.10 1.262902e-95
378.20 1.262902e-95
378.30 1.262902e-95
378.40 1.262902e-95
378.50 1.262902e-95
378.60 1.262902e-95
378.70 1.262902e-95
378.80 1.262902e-95
378.90 1.262902e-95
379.00 1.262902e-95
379.10 1.262902e-95
379.20 1.262902e-95
379.30 1.262902e-95
379.40 1.262902e-95
379.50 1.262902e-95
379.60 1.262902e-95
379.70 1.262902e-95
379.80 1.262902e-95
379.90 1.262902e-95
380.00 1.262902e-95
380.10 1.262902e-95
380.20 1.262902e-95
380.30 1.262902e-95
380.40 1.262902e-95
380.50 1.262902e-95
380.60 1.262902e-95
380.70 1.262902e-95
380.80 1.262902e-95
380.90 1.262902e-95
381.00 1.262902e-95
381.10 1.262902e-95
381.20 1.262902e-95
381.30 1.262902e-95
381.40 1.262902e-95
381.50 1.262902e-95
381.60 1.262902e-95
381.70 1.262902e-95
381.80 1.262902e-95
381.90 1.262902e-95
382.00 1.262902e-95
382.10 1.262902e-95
382.20 1.262902e-95
382.30 1.262902e-95
382.40 1.262902e-95
382.50 1.262902e-95
382.60 1.262902e-95
382.70 1.262902e-95
382.80 1.262902e-95
382.90 1.262902e-95
383.00 1.262902e-95
383.10 1.262902e-95
383.20 1.262902e-95
383.30 1.262902e-95
383.40 1.262902e-95
383.50 1.262902e-95
383.60 1.262902e-95
383.70 1.262902e-95
383.80 1.262902e-95
383.90 1.262902e-95
384.00 1.262902e-95
384.10 1.262902e-95
384.20 1.262902e-95
384.30 1.262902e-95
384.40 1.262902e-95
384.50 1.262902e-95
384.60 1.262902e-95
384.70 1.262902e-95
384.80 1.262902e-95
384.90 1.262902e-95
385.00 1.262902e-95
385.10 1.262902e-95
385.20 1.262902e-95
385.30 1.262902e-95
385.40 1.262902e-95
385.50 1.262902e-95
385.60 1.262902e-95
385.70 1.262902e-95
385.80 1.262902e-95
385.90 1.262902e-95
386.00 1.262902e-95
386.10 1.262902e-95
386.20 1.262902e-95
386.30 1.262902e-95
386.40 1.262902e-95
386.50 1.262902e-95
386.60 1.262902e-95
386.70 1.262902e-95
386.80 1.262902e-95
386.90 1.262902e-95
387.00 1.262902e-95
387.10 1.262902e-95
387.20 1.262902e-95
387.30 1.262902e-95
387.40 1.262902e-95
387.50 1.262902e-95
387.60 1.262902e-95
387.70 1.262902e-95
387.80 1.262902e-95
387.90 1.262902e-95
388.00 1.262902e-95
388.10 1.262902e-95
388.20 1.262902e-95
388.30 1.262902e-95
388.40 1.262902e-95
388.50 1.262902e-95
388.60 1.262902e-95
388.70 1.262902e-95
388.80 1.262902e-95
388.90 1.262902e-95
389.00 1.262902e-95
389.10 1.262902e-95
389.20 1.262902e-95
389.30 1.262902e-95
389.40 1.262902e-95
389.50 1.262902e-95
389.60 1.262902e-95
389.70 1.262902e-95
389.80 1.262902e-95
389.90 1.262902e-95
390.00 1.262902e-95
390.10 1.262902e-95
390.20 1.262902e-95
390.30 1.262902e-95
390.40 1.262902e-95
390.50 1.262902e-95
390.60 1.262902e-95
390.70 1.262902e-95
390.80 1.262902e-95
390.90 1.262902e-95
391.00 1.262902e-95
391.10 1.262902e-95
391.20 1.262902e-95
391.30 1.262902e-95
391.40 1.262902e-95
391.50 1.262902e-95
391.60 1.262902e-95
391.70 1.262902e-95
391.80 1.262902e-95
391.90 1.262902e-95
392.00 1.262902e-95
392.10 1.262902e-95
392.20 1.262902e-95
392.30 1.262902e-95
392.40 1.262902e-95
392.50 1.262902e-95
392.60 1.262902e-95
392.70 1.262902e-95
392.80 1.262902e-95
392.90 1.262902e-95
393.00 1.262902e-95
393.10 1.262902e-95
393.20 1.262902e-95
393.30 1.262902e-95
393.40 1.262902e-95
393.50 1.262902e-95
393.60 1.262902e-95
393.70 1.262902e-95
393.80 1.262902e-95
393.90 1.262902e-95
394.00 1.262902e-95
394.10 1.262902e-95
394.20 1.262902e-95
394.30 1.262902e-95
394.40 1.262902e-95
394.50 1.262902e-95
394.60 1.262902e-95
394.70 1.262902e-95
394.80 1.262902e-95
394.90 1.262902e-95
395.00 1.250272e-95
395.10 1.237643e-95
395.20 1.225014e-95
395.30 1.212385e-95
395.40 1.199756e-95
395.50 1.187127e-95
395.60 1.174498e-95
395.70 1.161869e-95
395.80 1.14924e-95
395.90 1.136611e-95
396.00 1.123982e-95
396.10 1.111353e-95
396.20 1.098724e-95
396.30 1.086095e-95
396.40 1.073466e-95
396.50 1.060837e-95
396.60 1.048208e-95
396.70 1.035579e-95
396.80 1.02295e-95
396.90 1.010321e-95
397.00 9.976922e-96
397.10 9.850632e-96
397.20 9.724342e-96
397.30 9.598051e-96
397.40 9.471761e-96
397.50 0.004141311
397.60 0.01588416
397.70 0.03475487
397.80 0.0596174
397.90 0.0881693
398.00 0.1160508
398.10 0.1379451
398.20 0.1502039
398.30 0.1508841
398.40 0.1508841
398.50 0.1508841
398.60 0.1508841
398.70 0.1508841
398.80 0.1508841
398.90 0.1508841
399.00 0.1508841
399.10 0.1609811
399.20 0.1813542
399.30 0.206736
399.40 0.232691
399.50 0.257081
399.60 0.278683
399.70 0.2974605
399.80 0.3159806
399.90 0.3374374
400.00 0.3634006
400.10 0.393623
400.20 0.4255414
400.30 0.456017
400.40 0.4833562
400.50 0.5068767
400.60 0.5270032
400.70 0.5458664
400.80 0.5656616
400.90 0.5871487
401.00 0.610413
401.10 0.635315
401.20 0.6608688
401.30 0.6846717
401.40 0.7035916
401.50 0.7146316
401.60 0.715812
401.70 0.715812
401.80 0.715812
401.90 0.715812
402.00 0.715812
402.10 0.715812
402.20 0.715812
402.30 0.7198713
402.40 0.7390843
402.50 0.771184
402.60 0.8098664
402.70 0.8467659
402.80 0.874954
402.90 0.890439
403.00 0.8925054
403.10 0.8925054
403.20 0.8925054
403.30 0.8925054
403.40 0.8925054
403.50 0.8980709
403.60 0.9101889
403.70 0.9288754
403.80 0.9517271
403.90 0.9757873
404.00 0.9982173
404.10 1.017166
404.20 1.031346
404.30 1.039499
404.40 1.041082
404.50 1.041082
404.60 1.041082
404.70 1.041082
404.80 1.041082
404.90 1.041082
405.00 1.041082
405.10 1.041082
405.20 1.041082
405.30 1.041082
405.40 1.041082
405.50 1.041082
405.60 1.041082
405.70 1.041082
405.80 1.048297
405.90 1.062204
406.00 1.079352
406.10 1.096164
406.20 1.109455
406.30 1.117352
406.40 1.120695
406.50 1.121351
406.60 1.121351
406.70 1.122077
406.80 1.123236
406.90 1.123397
407.00 1.123397
407.10 1.123397
407.20 1.123397
407.30 1.123397
407.40 1.123397
407.50 1.119256
407.60 1.107513
407.70 1.088642
407.80 1.063779
407.90 1.035228
408.00 1.007346
408.10 0.9854517
408.20 0.9731929
408.30 0.9725128
408.40 0.9725128
408.50 0.9772667
408.60 0.9915191
408.70 1.012596
408.80 1.035697
408.90 1.0561
409.00 1.069989
409.10 1.064841
409.20 1.044468
409.30 1.019086
409.40 0.9931312
409.50 0.9687412
409.60 0.9471391
409.70 0.9283617
409.80 0.9098416
409.90 0.8883847
410.00 0.8624215
410.10 0.8324512
410.20 0.8051573
410.30 0.783446
410.40 0.7680702
410.50 0.7585267
410.60 0.7527289
410.70 0.7463807
410.80 0.7361019
410.90 0.7213769
411.00 0.7027576
411.10 0.6814758
411.20 0.6601849
411.30 0.6425192
411.40 0.6321877
411.50 0.6324008
411.60 0.6447983
411.70 0.6591632
411.80 0.6726313
411.90 0.6840265
412.00 0.6923609
412.10 0.6970431
412.20 0.6979086
412.30 0.6938493
412.40 0.6746364
412.50 0.6425366
412.60 0.6038543
412.70 0.5669548
412.80 0.5387667
412.90 0.5232816
413.00 0.5212153
413.10 0.5212153
413.20 0.5212153
413.30 0.5212153
413.40 0.5212153
413.50 0.5156498
413.60 0.5035317
413.70 0.4848453
413.80 0.4619936
413.90 0.4379333
414.00 0.4155034
414.10 0.3965543
414.20 0.3823745
414.30 0.3742212
414.40 0.372639
414.50 0.372639
414.60 0.372639
414.70 0.372639
414.80 0.372639
414.90 0.372639
415.00 0.372639
415.10 0.372639
415.20 0.372639
415.30 0.372639
415.40 0.372639
415.50 0.372639
415.60 0.372639
415.70 0.372639
415.80 0.3654239
415.90 0.351517
416.00 0.3343683
416.10 0.3181707
416.20 0.3060663
416.30 0.2991149
416.40 0.2957723
416.50 0.2951156
416.60 0.2951156
416.70 0.2943904
416.80 0.2932314
416.90 0.2930702
417.00 0.2930702
417.10 0.2930702
417.20 0.2930702
417.30 0.2930702
417.40 0.2930702
417.50 0.2930702
417.60 0.297039
417.70 0.3079603
417.80 0.3227351
417.90 0.3392364
418.00 0.3555742
418.10 0.3698952
418.20 0.3817407
418.30 0.3931065
418.40 0.4074008
418.50 0.4232336
418.60 0.439129
418.70 0.4592467
418.80 0.485875
418.90 0.5185446
419.00 0.5558319
419.10 0.5964033
419.20 0.6341622
419.30 0.6619393
419.40 0.6775413
419.50 0.6802273
419.60 0.6802273
419.70 0.6802273
419.80 0.6802273
419.90 0.6802273
420.00 0.6802273
420.10 0.6799752
420.20 0.681792
420.30 0.6947595
420.40 0.7193563
420.50 0.7526965
420.60 0.7893725
420.70 0.8241656
420.80 0.853394
420.90 0.8754267
421.00 0.8913407
421.10 0.9039325
421.20 0.9164797
421.30 0.9324431
421.40 0.954677
421.50 0.9840314
421.60 1.018704
421.70 1.055643
421.80 1.090718
421.90 1.119557
422.00 1.140352
422.10 1.154059
422.20 1.162459
422.30 1.164239
422.40 1.164239
422.50 1.164239
422.60 1.164239
422.70 1.164239
422.80 1.164239
422.90 1.164239
423.00 1.164239
423.10 1.164239
423.20 1.164239
423.30 1.164239
423.40 1.164239
423.50 1.164239
423.60 1.164239
423.70 1.164239
423.80 1.167711
423.90 1.181959
424.00 1.208001
424.10 1.244534
424.20 1.287185
424.30 1.329065
424.40 1.363942
424.50 1.388212
424.60 1.400813
424.70 1.402636
424.80 1.402636
424.90 1.402636
425.00 1.402636
425.10 1.402636
425.20 1.402636
425.30 1.402636
425.40 1.402636
425.50 1.402636
425.60 1.402636
425.70 1.402636
425.80 1.402636
425.90 1.402636
426.00 1.402636
426.10 1.402022
426.20 1.400835
426.30 1.401677
426.40 1.40567
426.50 1.411817
426.60 1.419775
426.70 1.428371
426.80 1.435712
426.90 1.440242
427.00 1.440954
427.10 1.440954
427.20 1.440954
427.30 1.440954
427.40 1.440954
427.50 1.442336
427.60 1.447705
427.70 1.453285
427.80 1.459429
427.90 1.464807
428.00 1.467655
428.10 1.466405
428.20 1.458818
428.30 1.447452
428.40 1.433158
428.50 1.412571
428.60 1.382423
428.70 1.341228
428.80 1.291499
428.90 1.238427
429.00 1.187251
429.10 1.14173
429.20 1.103971
429.30 1.076194
429.40 1.060592
429.50 1.057906
429.60 1.057906
429.70 1.057906
429.80 1.057906
429.90 1.057906
430.00 1.057906
430.10 1.057906
430.20 1.051465
430.30 1.029733
430.40 0.9942551
430.50 0.9516335
430.60 0.9084215
430.70 0.8705052
430.80 0.8409627
430.90 0.8207938
431.00 0.8094667
431.10 0.8049514
431.20 0.8032793
431.30 0.7987315
431.40 0.7871044
431.50 0.7680284
431.60 0.7440051
431.70 0.71797
431.80 0.6931783
431.90 0.6735186
432.00 0.6614232
432.10 0.6567088
432.20 0.657759
432.30 0.6622965
432.40 0.6638311
432.50 0.6638311
432.60 0.6638311
432.70 0.6638311
432.80 0.6638311
432.90 0.6638311
433.00 0.6638311
433.10 0.6638311
433.20 0.6638311
433.30 0.6638311
433.40 0.6638311
433.50 0.6638311
433.60 0.6638311
433.70 0.6638311
433.80 0.6635453
433.90 0.6583016
434.00 0.6467712
434.10 0.6294142
434.20 0.6104163
434.30 0.596557
434.40 0.5927959
434.50 0.6007031
434.60 0.6200092
434.70 0.6489197
434.80 0.6777209
434.90 0.7047586
435.00 0.7313979
435.10 0.7593943
435.20 0.7891709
435.30 0.8190871
435.40 0.8468399
435.50 0.8701264
435.60 0.8858668
435.70 0.8910559
435.80 0.8910559
435.90 0.8910559
436.00 0.8910559
436.10 0.8910559
436.20 0.8910559
436.30 0.8892678
436.40 0.8852753
436.50 0.8791281
436.60 0.8711703
436.70 0.8625742
436.80 0.8552331
436.90 0.8507032
437.00 0.8499917
437.10 0.8499917
437.20 0.8499917
437.30 0.8499917
437.40 0.8499917
437.50 0.8486098
437.60 0.8392717
437.70 0.8227703
437.80 0.8018512
437.90 0.779972
438.00 0.7647565
438.10 0.7624479
438.20 0.7749588
438.30 0.7960672
438.40 0.8184597
438.50 0.8383661
438.60 0.8526948
438.70 0.8589003
438.80 0.8589003
438.90 0.8589003
439.00 0.8589003
439.10 0.8589003
439.20 0.8589003
439.30 0.8589003
439.40 0.8589003
439.50 0.8589003
439.60 0.8589003
439.70 0.8615966
439.80 0.8750943
439.90 0.8969997
440.00 0.9234057
440.10 0.9505726
440.20 0.975973
440.30 0.9989472
440.40 1.01887
440.50 1.032996
440.60 1.041231
440.70 1.045127
440.80 1.047003
440.90 1.047733
441.00 1.046139
441.10 1.040558
441.20 1.030554
441.30 1.017526
441.40 1.00345
441.50 0.9897875
441.60 0.9783885
441.70 0.9719849
441.80 0.9723982
441.90 0.980382
442.00 0.9968031
442.10 1.021547
442.20 1.053244
442.30 1.090636
442.40 1.132314
442.50 1.172558
442.60 1.207826
442.70 1.237832
442.80 1.263353
442.90 1.285568
443.00 1.305775
443.10 1.324929
443.20 1.344021
443.30 1.363136
443.40 1.380566
443.50 1.395109
443.60 1.407371
443.70 1.417867
443.80 1.423376
443.90 1.421318
444.00 1.412245
444.10 1.397243
444.20 1.377253
444.30 1.353922
444.40 1.330414
444.50 1.31133
444.60 1.300441
444.70 1.299941
444.80 1.31078
444.90 1.330957
445.00 1.354917
445.10 1.376357
445.20 1.391345
445.30 1.398818
445.40 1.399614
445.50 1.396699
445.60 1.395391
445.70 1.401617
445.80 1.412841
445.90 1.42555
446.00 1.440622
446.10 1.458205
446.20 1.476848
446.30 1.494971
446.40 1.511996
446.50 1.527448
446.60 1.54039
446.70 1.550566
446.80 1.559045
446.90 1.567062
447.00 1.57528
447.10 1.584243
447.20 1.595181
447.30 1.610014
447.40 1.630578
447.50 1.658825
447.60 1.697042
447.70 1.745888
447.80 1.80324
447.90 1.864736
448.00 1.921359
448.10 1.965866
448.20 1.995078
448.30 2.007301
448.40 2.00463
448.50 1.992965
448.60 1.979396
448.70 1.97319
448.80 1.97319
448.90 1.975857
449.00 1.98226
449.10 1.991448
449.20 2.002575
449.30 2.015741
449.40 2.031617
449.50 2.049857
449.60 2.068966
449.70 2.085162
449.80 2.089355
449.90 2.082139
450.00 2.065099
450.10 2.0404
450.20 2.014999
450.30 1.992025
450.40 1.97102
450.50 1.952198
450.60 1.93617
450.70 1.922883
450.80 1.911805
450.90 1.905643
451.00 1.905525
451.10 1.91056
451.20 1.919267
451.30 1.931026
451.40 1.945721
451.50 1.962835
451.60 1.9816
451.70 2.001706
451.80 2.022783
451.90 2.042631
452.00 2.055961
452.10 2.057821
452.20 2.046335
452.30 2.022206
452.40 1.988912
452.50 1.952626
452.60 1.920015
452.70 1.89547
452.80 1.880473
452.90 1.874118
453.00 1.87357
453.10 1.874298
453.20 1.871299
453.30 1.861748
453.40 1.847211
453.50 1.832668
453.60 1.820407
453.70 1.80991
453.80 1.802728
453.90 1.800767
454.00 1.80402
454.10 1.811771
454.20 1.822064
454.30 1.831562
454.40 1.836402
454.50 1.833368
454.60 1.820484
454.70 1.797439
454.80 1.76557
454.90 1.728697
455.00 1.692782
455.10 1.66337
455.20 1.644366
455.30 1.637896
455.40 1.642312
455.50 1.651699
455.60 1.658799
455.70 1.657477
455.80 1.646253
455.90 1.633543
456.00 1.618472
456.10 1.600889
456.20 1.582246
456.30 1.564122
456.40 1.547097
456.50 1.531646
456.60 1.518704
456.70 1.508527
456.80 1.500049
456.90 1.492032
457.00 1.492407
457.10 1.5001
457.20 1.511133
457.30 1.520416
457.40 1.522994
457.50 1.51404
457.60 1.488882
457.70 1.445062
457.80 1.38771
457.90 1.326214
458.00 1.265621
458.10 1.21035
458.20 1.16437
458.30 1.131039
458.40 1.111317
458.50 1.105798
458.60 1.113732
458.70 1.12692
458.80 1.142817
458.90 1.157497
459.00 1.169903
459.10 1.181518
459.20 1.193667
459.30 1.205855
459.40 1.215689
459.50 1.221058
459.60 1.221181
459.70 1.215998
459.80 1.206197
459.90 1.193807
460.00 1.184441
460.10 1.181973
460.20 1.181973
460.30 1.181973
460.40 1.181973
460.50 1.183441
460.60 1.188548
460.70 1.197891
460.80 1.212135
460.90 1.228221
461.00 1.24423
461.10 1.258612
461.20 1.269008
461.30 1.273018
461.40 1.268332
461.50 1.252989
461.60 1.225513
461.70 1.186542
461.80 1.1413
461.90 1.092893
462.00 1.046108
462.10 1.008074
462.20 0.98434
462.30 0.9767391
462.40 0.9838109
462.50 1.000539
462.60 1.020392
462.70 1.037248
462.80 1.046562
462.90 1.04618
463.00 1.037411
463.10 1.02525
463.20 1.015842
463.30 1.014267
463.40 1.022849
463.50 1.039191
463.60 1.059965
463.70 1.082734
463.80 1.102587
463.90 1.114835
464.00 1.118479
464.10 1.114912
464.20 1.107463
464.30 1.099987
464.40 1.095789
464.50 1.0964
464.60 1.10105
464.70 1.107666
464.80 1.113797
464.90 1.116526
465.00 1.11295
465.10 1.101169
465.20 1.08064
465.30 1.052784
465.40 1.02207
465.50 0.9949122
465.60 0.9772359
465.70 0.973146
465.80 0.9815878
465.90 0.9924846
466.00 1.005978
466.10 1.021569
466.20 1.037785
466.30 1.053224
466.40 1.067672
466.50 1.081946
466.60 1.097372
466.70 1.115073
466.80 1.135593
466.90 1.158851
467.00 1.175091
467.10 1.183291
467.20 1.185213
467.30 1.183002
467.40 1.179438
467.50 1.178497
467.60 1.183909
467.70 1.197973
467.80 1.21682
467.90 1.233178
468.00 1.244616
468.10 1.249799
468.20 1.249799
468.30 1.249799
468.40 1.249799
468.50 1.247077
468.60 1.238383
468.70 1.225195
468.80 1.209298
468.90 1.191952
469.00 1.173142
469.10 1.15234
469.20 1.129063
469.30 1.10371
469.40 1.077999
469.50 1.05772
469.60 1.045502
469.70 1.040942
469.80 1.043143
469.90 1.051686
470.00 1.064123
470.10 1.079811
470.20 1.100405
470.30 1.126561
470.40 1.157662
470.50 1.190198
470.60 1.218866
470.70 1.239654
470.80 1.24951
470.90 1.247359
471.00 1.233933
471.10 1.212402
471.20 1.188165
471.30 1.167872
471.40 1.152743
471.50 1.143103
471.60 1.143022
471.70 1.155944
471.80 1.179723
471.90 1.214058
472.00 1.256492
472.10 1.301032
472.20 1.341111
472.30 1.372008
472.40 1.390519
472.50 1.395638
472.60 1.389221
472.70 1.376059
472.80 1.362384
472.90 1.353545
473.00 1.351589
473.10 1.355395
473.20 1.362426
473.30 1.369928
473.40 1.37535
473.50 1.376729
473.60 1.373597
473.70 1.367739
473.80 1.362114
473.90 1.359638
474.00 1.361433
474.10 1.365614
474.20 1.368744
474.30 1.368349
474.40 1.363649
474.50 1.354513
474.60 1.342315
474.70 1.329983
474.80 1.320943
474.90 1.31845
475.00 1.324851
475.10 1.340951
475.20 1.366626
475.30 1.400109
475.40 1.437198
475.50 1.473643
475.60 1.506018
475.70 1.531373
475.80 1.548089
475.90 1.555813
476.00 1.555057
476.10 1.547519
476.20 1.536214
476.30 1.524698
476.40 1.515488
476.50 1.509119
476.60 1.503511
476.70 1.495329
476.80 1.482346
476.90 1.463977
477.00 1.441073
477.10 1.416216
477.20 1.392325
477.30 1.37042
477.40 1.350842
477.50 1.336189
477.60 1.326091
477.70 1.319237
477.80 1.314403
477.90 1.311554
478.00 1.312152
478.10 1.318142
478.20 1.329694
478.30 1.342876
478.40 1.359221
478.50 1.379962
478.60 1.404761
478.70 1.43166
478.80 1.458472
478.90 1.483302
479.00 1.504464
479.10 1.520825
479.20 1.532002
479.30 1.538717
479.40 1.54237
479.50 1.540594
479.60 1.53358
479.70 1.524431
479.80 1.51434
479.90 1.503497
480.00 1.49106
480.10 1.47604
480.20 1.459313
480.30 1.440978
480.40 1.421222
480.50 1.401082
480.60 1.382765
480.70 1.36828
480.80 1.357762
480.90 1.350176
481.00 1.345035
481.10 1.342001
481.20 1.342001
481.30 1.342001
481.40 1.342001
481.50 1.342001
481.60 1.341171
481.70 1.335448
481.80 1.322816
481.90 1.302379
482.00 1.274455
482.10 1.240328
482.20 1.201958
482.30 1.161928
482.40 1.126427
482.50 1.100622
482.60 1.084529
482.70 1.075374
482.80 1.073629
482.90 1.077702
483.00 1.083784
483.10 1.087583
483.20 1.085161
483.30 1.074238
483.40 1.05734
483.50 1.03962
483.60 1.021977
483.70 1.005066
483.80 0.997827
483.90 1.000365
484.00 1.009857
484.10 1.02365
484.20 1.039448
484.30 1.054884
484.40 1.068378
484.50 1.080576
484.60 1.09331
484.70 1.107765
484.80 1.123827
484.90 1.140557
485.00 1.156525
485.10 1.17007
485.20 1.179039
485.30 1.181441
485.40 1.176904
485.50 1.166367
485.60 1.152102
485.70 1.137418
485.80 1.125873
485.90 1.120037
486.00 1.120339
486.10 1.124802
486.20 1.129347
486.30 1.128714
486.40 1.123477
486.50 1.115571
486.60 1.105754
486.70 1.096235
486.80 1.088696
486.90 1.083808
487.00 1.081879
487.10 1.088846
487.20 1.109295
487.30 1.141374
487.40 1.181733
487.50 1.223139
487.60 1.261675
487.70 1.295924
487.80 1.326835
487.90 1.355726
488.00 1.38212
488.10 1.404311
488.20 1.420467
488.30 1.428356
488.40 1.424725
488.50 1.407208
488.60 1.382409
488.70 1.35551
488.80 1.328698
488.90 1.303868
489.00 1.282706
489.10 1.266345
489.20 1.25792
489.30 1.257763
489.40 1.261253
489.50 1.263671
489.60 1.263671
489.70 1.263671
489.80 1.263671
489.90 1.263671
490.00 1.263671
490.10 1.263004
490.20 1.260755
490.30 1.261345
490.40 1.264151
490.50 1.267928
490.60 1.270564
490.70 1.270936
490.80 1.270673
490.90 1.273146
491.00 1.280731
491.10 1.2942
491.20 1.311349
491.30 1.330856
491.40 1.351286
491.50 1.370768
491.60 1.384162
491.70 1.389288
491.80 1.385799
491.90 1.375898
492.00 1.363829
492.10 1.354308
492.20 1.351426
492.30 1.357801
492.40 1.371135
492.50 1.388231
492.60 1.407829
492.70 1.428252
492.80 1.44374
492.90 1.452067
493.00 1.455426
493.10 1.457929
493.20 1.463973
493.30 1.476522
493.40 1.494084
493.50 1.513256
493.60 1.535008
493.70 1.559437
493.80 1.57719
493.90 1.586262
494.00 1.587125
494.10 1.581997
494.20 1.573392
494.30 1.562868
494.40 1.551243
494.50 1.538301
494.60 1.52498
494.70 1.509052
494.80 1.488129
494.90 1.460821
495.00 1.42767
495.10 1.389781
495.20 1.349905
495.30 1.310957
495.40 1.276153
495.50 1.247647
495.60 1.22568
495.70 1.209006
495.80 1.195392
495.90 1.182609
496.00 1.169568
496.10 1.159147
496.20 1.159447
496.30 1.171769
496.40 1.190286
496.50 1.208558
496.60 1.22408
496.70 1.235124
496.80 1.240725
496.90 1.240725
497.00 1.240725
497.10 1.233757
497.20 1.213308
497.30 1.181229
497.40 1.14087
497.50 1.095764
497.60 1.048855
497.70 1.00237
497.80 0.9574474
497.90 0.9150467
498.00 0.8766167
498.10 0.8432529
498.20 0.8155445
498.30 0.7944736
498.40 0.7817592
498.50 0.7830812
498.60 0.7939129
498.70 0.8110292
498.80 0.8332204
498.90 0.8591221
499.00 0.8870742
499.10 0.9143643
499.20 0.9356778
499.30 0.9485349
499.40 0.955564
499.50 0.9608996
499.60 0.9668549
499.70 0.971581
499.80 0.9772745
499.90 0.9861025
500.00 1
500.10 1.02042
500.20 1.045789
500.30 1.068503
500.40 1.085717
500.50 1.095904
500.60 1.099116
500.70 1.096707
500.80 1.089797
500.90 1.07835
501.00 1.065802
501.10 1.051365
501.20 1.034216
501.30 1.019043
501.40 1.007774
501.50 1.000882
501.60 0.9988236
501.70 1.001898
501.80 1.009861
501.90 1.021311
502.00 1.033751
502.10 1.044375
502.20 1.051384
502.30 1.054063
502.40 1.052139
502.50 1.046227
502.60 1.037922
502.70 1.029649
502.80 1.023532
502.90 1.01944
503.00 1.016033
503.10 1.011973
503.20 1.005033
503.30 0.9923981
503.40 0.9748355
503.50 0.9556636
503.60 0.9339118
503.70 0.9094829
503.80 0.8832283
503.90 0.8568609
504.00 0.8323758
504.10 0.81117
504.20 0.794341
504.30 0.7831126
504.40 0.7776923
504.50 0.7769038
504.60 0.7769038
504.70 0.7769038
504.80 0.7769038
504.90 0.7794318
505.00 0.7858679
505.10 0.7954476
505.20 0.8063537
505.30 0.8172121
505.40 0.8266418
505.50 0.8333542
505.60 0.8360325
505.70 0.8360325
505.80 0.8360325
505.90 0.8360325
506.00 0.8360325
506.10 0.8339384
506.20 0.8241825
506.30 0.8085706
506.40 0.7900537
506.50 0.7717813
506.60 0.7562596
506.70 0.7452149
506.80 0.7396148
506.90 0.7396148
507.00 0.7396148
507.10 0.7433654
507.20 0.7515908
507.30 0.7634995
507.40 0.7776031
507.50 0.7922146
507.60 0.8065618
507.70 0.8211233
507.80 0.8364618
507.90 0.8523976
508.00 0.8678804
508.10 0.8814358
508.20 0.892025
508.30 0.8992053
508.40 0.9024798
508.50 0.8979341
508.60 0.8871024
508.70 0.8699861
508.80 0.8477948
508.90 0.8218932
509.00 0.7939411
509.10 0.766651
509.20 0.7425858
509.30 0.7231699
509.40 0.7089983
509.50 0.6996909
509.60 0.6939435
509.70 0.6897344
509.80 0.6855417
509.90 0.680362
510.00 0.6735659
510.10 0.6653432
510.20 0.6567381
510.30 0.6500522
510.40 0.6486282
510.50 0.6553801
510.60 0.6717843
510.70 0.6969852
510.80 0.728744
510.90 0.7641632
511.00 0.7960951
511.10 0.822344
511.20 0.8424294
511.30 0.8527052
511.40 0.8541091
511.50 0.8494914
511.60 0.8415146
511.70 0.8323639
511.80 0.8233288
511.90 0.814685
512.00 0.8063919
512.10 0.7988412
512.20 0.7917316
512.30 0.7843121
512.40 0.7763891
512.50 0.7676703
512.60 0.756877
512.70 0.7447264
512.80 0.7309359
512.90 0.7159902
513.00 0.7010223
513.10 0.6872544
513.20 0.6768561
513.30 0.6723743
513.40 0.6723743
513.50 0.6723743
513.60 0.6723743
513.70 0.6723743
513.80 0.6723743
513.90 0.6725645
514.00 0.6740436
514.10 0.6783685
514.20 0.6871275
514.30 0.7012215
514.40 0.7203222
514.50 0.7430182
514.60 0.7670671
514.70 0.7897776
514.80 0.8089609
514.90 0.8210484
515.00 0.824395
515.10 0.8217015
515.20 0.8164351
515.30 0.8119455
515.40 0.8115476
515.50 0.8180418
515.60 0.8333292
515.70 0.8557846
515.80 0.882309
515.90 0.9125747
516.00 0.9458605
516.10 0.9809998
516.20 1.016982
516.30 1.053561
516.40 1.090556
516.50 1.126831
516.60 1.160314
516.70 1.189124
516.80 1.212737
516.90 1.231846
517.00 1.247926
517.10 1.259116
517.20 1.266084
517.30 1.269849
517.40 1.271371
517.50 1.27163
517.60 1.270764
517.70 1.267852
517.80 1.262569
517.90 1.256207
518.00 1.251036
518.10 1.248888
518.20 1.249986
518.30 1.253226
518.40 1.257619
518.50 1.261945
518.60 1.263507
518.70 1.263882
518.80 1.265215
518.90 1.269501
519.00 1.278014
519.10 1.291021
519.20 1.308256
519.30 1.328709
519.40 1.350743
519.50 1.37285
519.60 1.393417
519.70 1.411432
519.80 1.426253
519.90 1.437559
520.00 1.444783
520.10 1.446636
520.20 1.442434
520.30 1.433038
520.40 1.419592
520.50 1.40224
520.60 1.380411
520.70 1.354396
520.80 1.325534
520.90 1.295752
521.00 1.267814
521.10 1.244673
521.20 1.227917
521.30 1.217039
521.40 1.210253
521.50 1.205402
521.60 1.200617
521.70 1.194777
521.80 1.188189
521.90 1.182086
522.00 1.178345
522.10 1.17711
522.20 1.177728
522.30 1.179488
522.40 1.181857
522.50 1.184825
522.60 1.190082
522.70 1.197644
522.80 1.208544
522.90 1.224053
523.00 1.244263
523.10 1.267068
523.20 1.288864
523.30 1.306286
523.40 1.318015
523.50 1.325175
523.60 1.330028
523.70 1.334788
523.80 1.341528
523.90 1.352728
524.00 1.369807
524.10 1.391462
524.20 1.413402
524.30 1.430505
524.40 1.439497
524.50 1.439824
524.60 1.433115
524.70 1.422101
524.80 1.409328
524.90 1.396772
525.00 1.386664
525.10 1.379777
525.20 1.376473
525.30 1.376135
525.40 1.376449
525.50 1.375297
525.60 1.372454
525.70 1.368769
525.80 1.364151
525.90 1.356787
526.00 1.345023
526.10 1.328907
526.20 1.309359
526.30 1.287069
526.40 1.263238
526.50 1.240703
526.60 1.223115
526.70 1.213016
526.80 1.210881
526.90 1.215368
527.00 1.223721
527.10 1.232231
527.20 1.237578
527.30 1.238804
527.40 1.236613
527.50 1.231673
527.60 1.224778
527.70 1.216524
527.80 1.206469
527.90 1.196895
528.00 1.186583
528.10 1.175176
528.20 1.163488
528.30 1.153068
528.40 1.145401
528.50 1.141075
528.60 1.142548
528.70 1.149534
528.80 1.15996
528.90 1.17173
529.00 1.182734
529.10 1.191213
529.20 1.196501
529.30 1.198965
529.40 1.199613
529.50 1.199736
529.60 1.200742
529.70 1.203713
529.80 1.209019
529.90 1.216581
530.00 1.226171
530.10 1.237263
530.20 1.248724
530.30 1.258634
530.40 1.265293
530.50 1.268887
530.60 1.2711
530.70 1.273663
530.80 1.277805
530.90 1.284295
531.00 1.293296
531.10 1.303941
531.20 1.314664
531.30 1.324116
531.40 1.331203
531.50 1.335108
531.60 1.335501
531.70 1.335092
531.80 1.335092
531.90 1.334393
532.00 1.331548
532.10 1.326573
532.20 1.320436
532.30 1.314194
532.40 1.308338
532.50 1.302904
532.60 1.297148
532.70 1.290889
532.80 1.282723
532.90 1.271933
533.00 1.259255
533.10 1.247733
533.20 1.242112
533.30 1.246212
533.40 1.260601
533.50 1.282762
533.60 1.308264
533.70 1.331934
533.80 1.349469
533.90 1.35702
534.00 1.351124
534.10 1.331462
534.20 1.301868
534.30 1.270671
534.40 1.242578
534.50 1.219555
534.60 1.202216
534.70 1.190518
534.80 1.184109
534.90 1.182049
535.00 1.182994
535.10 1.188166
535.20 1.195005
535.30 1.201226
535.40 1.206197
535.50 1.209261
535.60 1.20907
535.70 1.204752
535.80 1.197234
535.90 1.189564
536.00 1.184795
536.10 1.183491
536.20 1.183767
536.30 1.182485
536.40 1.176136
536.50 1.162396
536.60 1.146502
536.70 1.127791
536.80 1.106313
536.90 1.082716
537.00 1.058283
537.10 1.034832
537.20 1.014292
537.30 0.9973915
537.40 0.9839572
537.50 0.9740265
537.60 0.9674404
537.70 0.9640456
537.80 0.9640456
537.90 0.9640456
538.00 0.9658903
538.10 0.9674654
538.20 0.9674654
538.30 0.9674654
538.40 0.9674654
538.50 0.9674654
538.60 0.9644296
538.70 0.9570697
538.80 0.9453097
538.90 0.9292542
539.00 0.9097369
539.10 0.8882509
539.20 0.8657272
539.30 0.8428112
539.40 0.8205713
539.50 0.8013502
539.60 0.7854663
539.70 0.7733231
539.80 0.7647481
539.90 0.7583028
540.00 0.7527807
540.10 0.7485256
540.20 0.7466047
540.30 0.7480336
540.40 0.7528949
540.50 0.7599205
540.60 0.7677988
540.70 0.7760936
540.80 0.7844633
540.90 0.7923416
541.00 0.7992011
541.10 0.8049152
541.20 0.8103986
541.30 0.81743
541.40 0.8277207
541.50 0.8421778
541.60 0.8606268
541.70 0.8787412
541.80 0.8929774
541.90 0.9026606
542.00 0.9072567
542.10 0.9072567
542.20 0.9072567
542.30 0.9072567
542.40 0.9072567
542.50 0.9072567
542.60 0.9072567
542.70 0.9059535
542.80 0.9032196
542.90 0.8985012
543.00 0.8909683
543.10 0.8796858
543.20 0.8635108
543.30 0.8434516
543.40 0.8215151
543.50 0.7996023
543.60 0.7799047
543.70 0.7646482
543.80 0.7555156
543.90 0.7540154
544.00 0.7618246
544.10 0.7794289
544.20 0.805226
544.30 0.8341345
544.40 0.8643109
544.50 0.8952052
544.60 0.9264808
544.70 0.9579226
544.80 0.9891484
544.90 1.020009
545.00 1.050175
545.10 1.07774
545.20 1.103743
545.30 1.128194
545.40 1.149872
545.50 1.167595
545.60 1.181035
545.70 1.190349
545.80 1.195105
545.90 1.194573
546.00 1.189006
546.10 1.179719
546.20 1.169049
546.30 1.160258
546.40 1.156234
546.50 1.157868
546.60 1.158745
546.70 1.159208
546.80 1.15967
546.90 1.160739
547.00 1.162773
547.10 1.16594
547.20 1.170225
547.30 1.175091
547.40 1.179441
547.50 1.182767
547.60 1.185568
547.70 1.188367
547.80 1.191706
547.90 1.196109
548.00 1.200452
548.10 1.208189
548.20 1.22181
548.30 1.240041
548.40 1.261709
548.50 1.283913
548.60 1.303103
548.70 1.315997
548.80 1.319926
548.90 1.319926
549.00 1.319926
549.10 1.319926
549.20 1.319926
549.30 1.319926
549.40 1.319483
549.50 1.316475
549.60 1.310578
549.70 1.301218
549.80 1.288166
549.90 1.272095
550.00 1.713243
550.10 1.721159
550.20 1.731871
550.30 1.740382
550.40 1.7408
550.50 1.730594
550.60 1.710955
550.70 1.685019
550.80 1.655509
550.90 1.622914
551.00 1.587206
551.10 1.550681
551.20 1.517478
551.30 1.490784
551.40 1.469513
551.50 1.447788
551.60 1.417574
551.70 1.371205
551.80 1.302963
551.90 1.225812
552.00 1.148034
552.10 1.066192
552.20 0.9782476
552.30 0.8864912
552.40 0.7965042
552.50 0.7144002
552.60 0.6434707
552.70 0.5840535
552.80 0.5361926
552.90 0.4994444
553.00 0.471479
553.10 0.4630809
553.20 0.4713376
553.30 0.4913029
553.40 0.5187455
553.50 0.5510432
553.60 0.5871396
553.70 0.6255021
553.80 0.662411
553.90 0.6937554
554.00 0.7168975
554.10 0.7304637
554.20 0.7343788
554.30 0.7301906
554.40 0.7212008
554.50 0.7128854
554.60 0.705882
554.70 0.6988858
554.80 0.6905369
554.90 0.6795307
555.00 0.6640601
555.10 0.6407805
555.20 0.6067279
555.30 0.5611511
555.40 0.5069811
555.50 0.4514703
555.60 0.4034951
555.70 0.3712592
555.80 0.3614365
555.90 0.3614365
556.00 0.3614365
556.10 0.3905748
556.20 0.4541303
556.30 0.5322415
556.40 0.6035901
556.50 0.6582039
556.60 0.7050748
556.70 0.7614679
556.80 0.8391099
556.90 0.9389144
557.00 1.055686
557.10 1.170264
557.20 1.276218
557.30 1.368059
557.40 1.439999
557.50 1.485404
557.60 1.499446
557.70 1.483195
557.80 1.44513
557.90 1.411114
558.00 1.382886
558.10 1.361403
558.20 1.346776
558.30 1.347862
558.40 1.369359
558.50 1.400499
558.60 1.43049
558.70 1.450474
558.80 1.455496
558.90 1.455496
559.00 1.455496
559.10 1.455496
559.20 1.455496
559.30 1.455496
559.40 1.455496
559.50 1.455496
559.60 1.455496
559.70 1.455496
559.80 1.459126
559.90 1.469164
560.00 1.484781
560.10 1.475926
560.20 1.436439
560.30 1.383749
560.40 1.336747
560.50 1.304879
560.60 1.281312
560.70 1.252467
560.80 1.209953
560.90 1.154495
561.00 1.091774
561.10 1.027512
561.20 0.966731
561.30 0.9129952
561.40 0.8712281
561.50 0.8473422
561.60 0.8436651
561.70 0.8593543
561.80 0.8897014
561.90 0.9116933
562.00 0.9243972
562.10 0.9261973
562.20 0.9261973
562.30 0.9171323
562.40 0.8937525
562.50 0.8626124
562.60 0.832621
562.70 0.8126366
562.80 0.8076147
562.90 0.8076147
563.00 0.8077053
563.10 0.8121568
563.20 0.8163921
563.30 0.8181935
563.40 0.8181935
563.50 0.8181935
563.60 0.8181935
563.70 0.8181935
563.80 0.8145639
563.90 0.8045261
564.00 0.7889087
564.10 0.7686258
564.20 0.7445567
564.30 0.7197613
564.40 0.6981437
564.50 0.6818735
564.60 0.6685367
564.70 0.6511178
564.80 0.6227771
564.90 0.5817924
565.00 0.5305684
565.10 0.4738504
565.20 0.4204616
565.30 0.3807707
565.40 0.3596996
565.50 0.3557944
565.60 0.3638321
565.70 0.3763495
565.80 0.3846813
565.90 0.3821019
566.00 0.369398
566.10 0.3675979
566.20 0.3675979
566.30 0.3675979
566.40 0.3675979
566.50 0.3675979
566.60 0.3675979
566.70 0.3675979
566.80 0.3675979
566.90 0.3779229
567.00 0.4031297
567.10 0.440729
567.20 0.4941072
567.30 0.5604159
567.40 0.6317742
567.50 0.6997417
567.60 0.7586569
567.70 0.8042811
567.80 0.8353222
567.90 0.8534085
568.00 0.8625213
568.10 0.8670474
568.20 0.8685986
568.30 0.8679732
568.40 0.865244
568.50 0.8587686
568.60 0.848802
568.70 0.8386726
568.80 0.8318846
568.90 0.8285231
569.00 0.8256968
569.10 0.8194139
569.20 0.8042797
569.30 0.7753544
569.40 0.7318344
569.50 0.6833846
569.60 0.6554142
569.70 0.6558429
569.80 0.6889579
569.90 0.7537186
570.00 0.8414568
570.10 0.9245699
570.20 0.9948492
570.30 1.047469
570.40 1.083365
570.50 1.107002
570.60 1.124619
570.70 1.14404
570.80 1.17485
570.90 1.215169
571.00 1.263078
571.10 1.31342
571.20 1.360403
571.30 1.399926
571.40 1.429283
571.50 1.446889
571.60 1.454559
571.70 1.456802
571.80 1.457953
571.90 1.460759
572.00 1.465274
572.10 1.470956
572.20 1.479627
572.30 1.491397
572.40 1.504001
572.50 1.515975
572.60 1.524681
572.70 1.526852
572.80 1.526852
572.90 1.526852
573.00 1.526852
573.10 1.526852
573.20 1.526852
573.30 1.526852
573.40 1.526852
573.50 1.53294
573.60 1.527562
573.70 1.502593
573.80 1.453649
573.90 1.382803
574.00 1.297368
574.10 1.214254
574.20 1.143975
574.30 1.091355
574.40 1.057452
574.50 1.0476
574.60 1.052982
574.70 1.059976
574.80 1.053482
574.90 1.022262
575.00 0.9635846
575.10 0.8819619
575.20 0.7863461
575.30 0.6880417
575.40 0.5975087
575.50 0.5229637
575.60 0.4693521
575.70 0.4369353
575.80 0.420772
575.90 0.4138831
576.00 0.4109155
576.10 0.4059947
576.20 0.3957725
576.30 0.3840017
576.40 0.3713983
576.50 0.3594244
576.60 0.3507186
576.70 0.3485471
576.80 0.3485471
576.90 0.3485471
577.00 0.3485471
577.10 0.3485471
577.20 0.3485471
577.30 0.3485471
577.40 0.3485471
577.50 0.3369125
577.60 0.3135675
577.70 0.2866341
577.80 0.2637843
577.90 0.2555215
578.00 0.2669837
578.10 0.290173
578.20 0.3234101
578.30 0.3675453
578.40 0.4207351
578.50 0.4717954
578.60 0.5205861
578.70 0.570347
578.80 0.623931
578.90 0.6823717
579.00 0.7454112
579.10 0.8119823
579.20 0.8807817
579.30 0.9503483
579.40 1.019624
579.50 1.087135
579.60 1.150048
579.70 1.206839
579.80 1.258647
579.90 1.30649
580.00 1.349317
580.10 1.386848
580.20 1.418934
580.30 1.442897
580.40 1.462999
580.50 1.485542
580.60 1.518344
580.70 1.567479
580.80 1.6351
580.90 1.719427
581.00 1.814652
581.10 1.910967
581.20 1.995608
581.30 2.056469
581.40 2.086077
581.50 2.086077
581.60 2.086077
581.70 2.086077
581.80 2.086077
581.90 2.081013
582.00 2.067248
582.10 2.044059
582.20 2.010821
582.30 1.966686
582.40 1.917956
582.50 1.876101
582.60 1.839802
582.70 1.807575
582.80 1.777961
582.90 1.749442
583.00 1.720601
583.10 1.691076
583.20 1.660582
583.30 1.628908
583.40 1.597057
583.50 1.567345
583.60 1.54383
583.70 1.531201
583.80 1.534783
583.90 1.561614
584.00 1.617761
584.10 1.705068
584.20 1.817822
584.30 1.941816
584.40 2.058587
584.50 2.150921
584.60 2.204589
584.70 2.210938
584.80 2.168982
584.90 2.084655
585.00 1.98943
585.10 1.893114
585.20 1.808474
585.30 1.747613
585.40 1.718005
585.50 1.718005
585.60 1.718005
585.70 1.718005
585.80 1.718005
585.90 1.721348
586.00 1.725168
586.10 1.726157
586.20 1.726157
586.30 1.726157
586.40 1.719705
586.50 1.696715
586.60 1.661223
586.70 1.617275
586.80 1.568987
586.90 1.519642
587.00 1.470916
587.10 1.423099
587.20 1.375813
587.30 1.328591
587.40 1.280984
587.50 1.233487
587.60 1.200337
587.70 1.180369
587.80 1.171163
587.90 1.165713
588.00 1.152503
588.10 1.118628
588.20 1.051756
588.30 0.9481916
588.40 0.817529
588.50 0.7026516
588.60 0.6161815
588.70 0.5606979
588.80 0.5350333
588.90 0.5350333
589.00 0.5350333
589.10 0.5350333
589.20 0.5350333
589.30 0.5350333
589.40 0.5350333
589.50 0.5500727
589.60 0.585173
589.70 0.6412894
589.80 0.7160658
589.90 0.7992928
590.00 0.882325
590.10 0.956541
590.20 1.011838
590.30 1.043216
590.40 1.050709
590.50 1.050709
590.60 1.050709
590.70 1.050709
590.80 1.050709
590.90 1.050709
591.00 1.050709
591.10 1.050709
591.20 1.050709
591.30 1.050709
591.40 1.050709
591.50 1.049379
591.60 1.030158
591.70 0.9905135
591.80 0.9283009
591.90 0.8450729
592.00 0.7486484
592.10 0.6523983
592.20 0.5744303
592.30 0.530039
592.40 0.5238278
592.50 0.5238278
592.60 0.5238278
592.70 0.5238278
592.80 0.5238278
592.90 0.5238278
593.00 0.5238278
593.10 0.5238278
593.20 0.5295144
593.30 0.5371712
593.40 0.5442843
593.50 0.5350779
593.60 0.5053549
593.70 0.4540808
593.80 0.380168
593.90 0.2935974
594.00 0.206745
594.10 0.1315409
594.20 0.07624408
594.30 0.04486558
594.40 0.03737278
594.50 0.03737278
594.60 0.03737278
594.70 0.03737278
594.80 0.03737278
594.90 0.05107979
595.00 0.0945977
595.10 0.1650061
595.20 0.2560755
595.30 0.3595329
595.40 0.4665949
595.50 0.5698486
595.60 0.6648693
595.70 0.7502184
595.80 0.8260923
595.90 0.8936282
596.00 0.9549082
596.10 1.012912
596.20 1.068441
596.30 1.117041
596.40 1.152639
596.50 1.171329
596.60 1.173041
596.70 1.173041
596.80 1.173041
596.90 1.173041
597.00 1.173041
597.10 1.173041
597.20 1.167354
597.30 1.159697
597.40 1.152584
597.50 1.146751
597.60 1.141374
597.70 1.136531
597.80 1.135668
597.90 1.135668
598.00 1.135668
598.10 1.135668
598.20 1.135668
598.30 1.135668
598.40 1.135668
598.50 1.135668
598.60 1.135668
598.70 1.135668
598.80 1.135668
598.90 1.121961
599.00 1.078443
599.10 1.008034
599.20 0.9169651
599.30 0.8135076
599.40 0.7064456
599.50 0.611468
599.60 0.5445437
599.70 0.5076355
599.80 0.4984134
599.90 0.510469
600.00 0
600.10 0
600.20 0
600.30 0
600.40 0
600.50 0
600.60 0
600.70 0
600.80 0
600.90 0
601.00 0
601.10 0
601.20 0
601.30 0
601.40 0
601.50 0.3310404
601.60 1.123857
601.70 1.937638
601.80 2.666071
601.90 3.183662
602.00 3.387013
602.10 3.215902
602.20 2.65358
602.30 1.80823
602.40 0.9322041
602.50 0.2578189
602.60 0
602.70 0
602.80 0
602.90 0.1727292
603.00 0.3514367
603.10 0.3861676
603.20 0.2385382
603.30 0
603.40 0
603.50 0
603.60 0
603.70 0
603.80 0
603.90 0.0333076
604.00 0.2328258
604.10 0.2200007
604.20 0
604.30 0
604.40 0
604.50 0
604.60 0
604.70 0
604.80 0
604.90 0
605.00 0.3831082
605.10 0.7489301
605.20 0.8878872
605.30 0.7878531
605.40 0.4678096
605.50 0
605.60 0
605.70 0
605.80 0
605.90 0
606.00 0
606.10 0
606.20 0
606.30 0
606.40 0
606.50 0.5660339
606.60 1.340386
606.70 1.932101
606.80 2.273044
606.90 2.344499
607.00 2.166698
607.10 1.836379
607.20 1.455389
607.30 1.060962
607.40 0.6926038
607.50 0.4403889
607.60 0.3476961
607.70 0.3135421
607.80 0.1929805
607.90 0
608.00 0
608.10 0
608.20 0
608.30 0
608.40 0.2482556
608.50 0.7977308
608.60 1.324453
608.70 1.746642
608.80 2.033533
608.90 2.170673
609.00 2.191493
609.10 2.211729
609.20 2.366173
609.30 2.663068
609.40 2.988622
609.50 3.268881
609.60 3.447059
609.70 3.4322
609.80 3.158099
609.90 2.631544
610.00 1.947275
610.10 1.233588
610.20 0.5697209
610.30 0
610.40 0
610.50 0
610.60 0
610.70 0
610.80 0
610.90 0
611.00 0
611.10 0
611.20 0
611.30 0.616411
611.40 1.210711
611.50 1.500707
611.60 1.438908
611.70 1.075125
611.80 0.5047593
611.90 0
612.00 0
612.10 0
612.20 0
612.30 0
612.40 0
612.50 0
612.60 0
612.70 0
612.80 0
612.90 0
613.00 0
613.10 0
613.20 0
613.30 0
613.40 0
613.50 0
613.60 0
613.70 0
613.80 0
613.90 0
614.00 0
614.10 0
614.20 0.195389
614.30 0.4193611
614.40 0.634263
614.50 0.8728529
614.60 1.137643
614.70 1.401905
614.80 1.642831
614.90 1.853468
615.00 2.015542
615.10 2.076589
615.20 1.973798
615.30 1.708957
615.40 1.302037
615.50 0.761686
615.60 0.1272118
615.70 0
615.80 0
615.90 0
616.00 0
616.10 0
616.20 0
616.30 0
616.40 0
616.50 0
616.60 0
616.70 0
616.80 0
616.90 0
617.00 0
617.10 0
617.20 0
617.30 0
617.40 0
617.50 0
617.60 0.4637246
617.70 1.016863
617.80 1.5352
617.90 1.89453
618.00 2.049518
618.10 2.019528
618.20 1.868811
618.30 1.68365
618.40 1.487126
618.50 1.264261
618.60 1.035701
618.70 0.8535064
618.80 0.8011687
618.90 0.9393135
619.00 1.277932
619.10 1.734838
619.20 2.219536
619.30 2.71753
619.40 3.178784
619.50 3.548797
619.60 3.795325
619.70 3.90632
619.80 3.919144
619.90 3.882054
620.00 3.814766
620.10 3.711791
620.20 3.565903
620.30 3.395025
620.40 3.203486
620.50 3.008631
620.60 2.852964
620.70 2.740532
620.80 2.676547
620.90 2.64932
621.00 2.588051
621.10 2.40265
621.20 2.065979
621.30 1.631173
621.40 1.167792
621.50 0.7322051
621.60 0.3912888
621.70 0.2384464
621.80 0.3285217
621.90 0.6405103
622.00 1.104691
622.10 1.638247
622.20 2.155391
622.30 2.594444
622.40 2.934988
622.50 3.15281
622.60 3.21651
622.70 3.090896
622.80 2.789589
622.90 2.382864
623.00 1.902114
623.10 1.323844
623.20 0.6891404
623.30 0.1166234
623.40 0
623.50 0
623.60 0
623.70 0
623.80 0
623.90 0.03301955
624.00 0.2993286
624.10 0.4584822
624.20 0.5538136
624.30 0.6390239
624.40 0.7164518
624.50 0.7443141
624.60 0.6813885
624.70 0.4832209
624.80 0.1573684
624.90 0
625.00 0
625.10 0
625.20 0
625.30 0
625.40 0
625.50 0
625.60 0
625.70 0
625.80 0
625.90 0.3566001
626.00 1.378344
626.10 2.250858
626.20 2.827129
626.30 3.005362
626.40 2.795062
626.50 2.336521
626.60 1.839156
626.70 1.40768
626.80 1.061849
626.90 0.785495
627.00 0.512135
627.10 0.1758931
627.20 0
627.30 0
627.40 0
627.50 0
627.60 0
627.70 0
627.80 0
627.90 0.7760556
628.00 1.741605
628.10 2.615766
628.20 3.331547
628.30 3.854426
628.40 4.143813
628.50 4.16313
628.60 3.976624
628.70 3.687076
628.80 3.362728
628.90 3.027897
629.00 2.710086
629.10 2.445827
629.20 2.24019
629.30 2.076737
629.40 1.897084
629.50 1.59163
629.60 1.118486
629.70 0.6459924
629.80 0.4369559
629.90 0.646594
630.00 1.289857
630.10 2.252851
630.20 3.281068
630.30 4.124254
630.40 4.59638
630.50 4.568541
630.60 4.058853
630.70 3.21375
630.80 2.266269
630.90 1.474246
631.00 0.9996126
631.10 0.8127642
631.20 0.770452
631.30 0.7708676
631.40 0.7170585
631.50 0.5527663
631.60 0.3967476
631.70 0.3964119
631.80 0.5950607
631.90 0.9822626
632.00 1.488457
632.10 1.987439
632.20 2.368066
632.30 2.599009
632.40 2.683656
632.50 2.605742
632.60 2.382433
632.70 2.112966
632.80 1.907955
632.90 1.819772
633.00 1.845083
633.10 1.936713
633.20 2.055421
633.30 2.15983
633.40 2.176845
633.50 2.080672
633.60 1.898601
633.70 1.65844
633.80 1.370417
633.90 1.037887
634.00 0.7144366
634.10 0.4467787
634.20 0.2648655
634.30 0.174808
634.40 0.1447283
634.50 0.1719797
634.60 0.2558531
634.70 0.3987425
634.80 0.6268409
634.90 0.9302828
635.00 1.244605
635.10 1.497467
635.20 1.671283
635.30 1.797025
635.40 1.900732
635.50 1.991084
635.60 2.06412
635.70 2.155702
635.80 2.304068
635.90 2.479012
636.00 2.615165
636.10 2.65043
636.20 2.566707
636.30 2.4401
636.40 2.379142
636.50 2.415928
636.60 2.527191
636.70 2.694739
636.80 2.861129
636.90 2.935471
637.00 2.855342
637.10 2.588734
637.20 2.149483
637.30 1.619634
637.40 1.140855
637.50 0.8704519
637.60 0.8801418
637.70 1.113535
637.80 1.491538
637.90 1.977456
638.00 2.522534
638.10 3.049169
638.20 3.491662
638.30 3.809865
638.40 4.007178
638.50 4.112607
638.60 4.165188
638.70 4.202228
638.80 4.222949
638.90 4.198166
639.00 4.121569
639.10 3.990617
639.20 3.769815
639.30 3.444641
639.40 3.070898
639.50 2.729502
639.60 2.451389
639.70 2.231891
639.80 2.050763
639.90 1.877053
640.00 1.694538
640.10 1.491836
640.20 1.247329
640.30 0.9443942
640.40 0.5950084
640.50 0.2559922
640.60 0
640.70 0
640.80 0
640.90 0.03516992
641.00 0.2611949
641.10 0.5545927
641.20 0.8871398
641.30 1.251063
641.40 1.612051
641.50 1.915397
641.60 2.128721
641.70 2.238044
641.80 2.251144
641.90 2.166293
642.00 1.96757
642.10 1.658485
642.20 1.276805
642.30 0.8840172
642.40 0.5583956
642.50 0.3830953
642.60 0.4107128
642.70 0.6431915
642.80 1.058448
642.90 1.617438
643.00 2.244115
643.10 2.824416
643.20 3.239083
643.30 3.451449
643.40 3.493596
643.50 3.40814
643.60 3.245747
643.70 3.065254
643.80 2.928078
643.90 2.883287
644.00 2.925965
644.10 3.000529
644.20 3.037151
644.30 2.973296
644.40 2.780539
644.50 2.485834
644.60 2.175815
644.70 1.938842
644.80 1.845923
644.90 1.923351
645.00 2.118327
645.10 2.332026
645.20 2.498825
645.30 2.569759
645.40 2.522376
645.50 2.405015
645.60 2.274769
645.70 2.191175
645.80 2.251317
645.90 2.510047
646.00 2.907835
646.10 3.340596
646.20 3.700735
646.30 3.930077
646.40 4.032659
646.50 4.044325
646.60 3.976164
646.70 3.826581
646.80 3.607498
646.90 3.29398
647.00 2.905554
647.10 2.522394
647.20 2.159933
647.30 1.786612
647.40 1.4175
647.50 1.123133
647.60 1.019386
647.70 1.165825
647.80 1.520719
647.90 2.017232
648.00 2.582495
648.10 3.145368
648.20 3.654585
648.30 4.10747
648.40 4.502934
648.50 4.812972
648.60 5.038077
648.70 5.220266
648.80 5.385973
648.90 5.476411
649.00 5.4084
649.10 5.185449
649.20 4.883675
649.30 4.561666
649.40 4.234128
649.50 3.872191
649.60 3.457994
649.70 3.025547
649.80 2.591024
649.90 2.158325
650.00 1.781228
650.10 1.542939
650.20 1.531185
650.30 1.826705
650.40 2.438361
650.50 3.273803
650.60 4.167287
650.70 4.942762
650.80 5.476375
650.90 5.726331
651.00 5.699115
651.10 5.41295
651.20 4.955649
651.30 4.44536
651.40 3.969824
651.50 3.631654
651.60 3.462763
651.70 3.391264
651.80 3.34301
651.90 3.271679
652.00 3.188979
652.10 3.151027
652.20 3.190863
652.30 3.305109
652.40 3.485846
652.50 3.71603
652.60 3.963758
652.70 4.208359
652.80 4.416838
652.90 4.513067
653.00 4.504557
653.10 4.503309
653.20 4.564359
653.30 4.650825
653.40 4.691166
653.50 4.618335
653.60 4.415329
653.70 4.125481
653.80 3.812736
653.90 3.564757
654.00 3.432698
654.10 3.435988
654.20 3.595281
654.30 3.899601
654.40 4.294832
654.50 4.69318
654.60 5.042565
654.70 5.340621
654.80 5.597526
654.90 5.815718
655.00 5.962845
655.10 6.032778
655.20 6.058196
655.30 6.026635
655.40 5.935664
655.50 5.791758
655.60 5.587874
655.70 5.34855
655.80 5.071972
655.90 4.731764
656.00 4.352449
656.10 4.012319
656.20 3.791983
656.30 3.730698
656.40 3.858363
656.50 4.148739
656.60 4.510828
656.70 4.880492
656.80 5.209215
656.90 5.454545
657.00 5.609883
657.10 5.682588
657.20 5.688178
657.30 5.657456
657.40 5.597378
657.50 5.479594
657.60 5.287681
657.70 5.061044
657.80 4.845377
657.90 4.675613
658.00 4.585913
658.10 4.603162
658.20 4.748344
658.30 5.007616
658.40 5.33845
658.50 5.678248
658.60 5.944574
658.70 6.048931
658.80 5.946951
658.90 5.717305
659.00 5.515325
659.10 5.456883
659.20 5.599712
659.30 5.963836
659.40 6.531985
659.50 7.223369
659.60 7.909805
659.70 8.448206
659.80 8.700903
659.90 8.566911
660.00 8.058718
660.10 7.358291
660.20 6.687001
660.30 6.162145
660.40 5.801111
660.50 5.575631
660.60 5.454475
660.70 5.432039
660.80 5.48341
660.90 5.558252
661.00 5.615942
661.10 5.650097
661.20 5.686498
661.30 5.749897
661.40 5.838852
661.50 5.898452
661.60 5.858237
661.70 5.679179
661.80 5.370588
661.90 5.008595
662.00 4.715809
662.10 4.591749
662.20 4.698172
662.30 5.049111
662.40 5.590277
662.50 6.204307
662.60 6.734008
662.70 7.073364
662.80 7.223377
662.90 7.235315
663.00 7.163195
663.10 7.061568
663.20 6.963479
663.30 6.847898
663.40 6.663153
663.50 6.354867
663.60 5.923089
663.70 5.438995
663.80 4.984612
663.90 4.659937
664.00 4.534409
664.10 4.621938
664.20 4.886622
664.30 5.239594
664.40 5.579971
664.50 5.849533
664.60 6.052906
664.70 6.220685
664.80 6.367142
664.90 6.499401
665.00 6.612412
665.10 6.676718
665.20 6.671746
665.30 6.594903
665.40 6.481181
665.50 6.384459
665.60 6.355718
665.70 6.433199
665.80 6.6209
665.90 6.840947
666.00 6.959408
666.10 6.90186
666.20 6.69926
666.30 6.427182
666.40 6.127593
666.50 5.859398
666.60 5.702721
666.70 5.69227
666.80 5.824428
666.90 6.084852
667.00 6.430615
667.10 6.779208
667.20 7.067327
667.30 7.309963
667.40 7.564113
667.50 7.841243
667.60 8.091379
667.70 8.257528
667.80 8.330782
667.90 8.328733
668.00 8.28718
668.10 8.27043
668.20 8.353967
668.30 8.588814
668.40 8.967008
668.50 9.451834
668.60 9.968779
668.70 10.38211
668.80 10.55725
668.90 10.44036
669.00 10.05341
669.10 9.480731
669.20 8.85158
669.30 8.280619
669.40 7.857288
669.50 7.632396
669.60 7.587357
669.70 7.660576
669.80 7.792435
669.90 7.911796
670.00 7.975884
670.10 7.992106
670.20 7.948542
670.30 7.848086
670.40 7.766078
670.50 7.809316
670.60 8.044904
670.70 8.460973
670.80 8.988796
670.90 9.532506
671.00 9.995695
671.10 10.2897
671.20 10.35756
671.30 10.22579
671.40 9.959449
671.50 9.638177
671.60 9.367559
671.70 9.217242
671.80 9.179268
671.90 9.177405
672.00 9.12642
672.10 8.996927
672.20 8.804192
672.30 8.60308
672.40 8.476801
672.50 8.463477
672.60 8.521663
672.70 8.571317
672.80 8.56595
672.90 8.511265
673.00 8.480129
673.10 8.558851
673.20 8.754762
673.30 9.017162
673.40 9.2761
673.50 9.452452
673.60 9.480848
673.70 9.317869
673.80 8.938537
673.90 8.417723
674.00 7.910545
674.10 7.565625
674.20 7.490113
674.30 7.720568
674.40 8.196451
674.50 8.801753
674.60 9.458515
674.70 10.07166
674.80 10.52478
674.90 10.73558
675.00 10.64834
675.10 10.27557
675.20 9.724843
675.30 9.138774
675.40 8.655024
675.50 8.365265
675.60 8.274162
675.70 8.324335
675.80 8.44004
675.90 8.544133
676.00 8.553677
676.10 8.44963
676.20 8.286872
676.30 8.149988
676.40 8.085254
676.50 8.098792
676.60 8.223862
676.70 8.461306
676.80 8.767847
676.90 9.098122
677.00 9.390934
677.10 9.578823
677.20 9.662364
677.30 9.706121
677.40 9.768445
677.50 9.87866
677.60 10.01682
677.70 10.13278
677.80 10.23694
677.90 10.37649
678.00 10.53377
678.10 10.64827
678.20 10.64438
678.30 10.45753
678.40 10.10972
678.50 9.69405
678.60 9.284651
678.70 8.923919
678.80 8.662384
678.90 8.563116
679.00 8.680157
679.10 9.030739
679.20 9.560683
679.30 10.13586
679.40 10.58799
679.50 10.78579
679.60 10.68552
679.70 10.33833
679.80 9.869125
679.90 9.452761
680.00 9.197574
680.10 9.122295
680.20 9.205399
680.30 9.410246
680.40 9.713875
680.50 10.05874
680.60 10.358
680.70 10.53425
680.80 10.56683
680.90 10.4729
681.00 10.26266
681.10 9.974861
681.20 9.65023
681.30 9.280557
681.40 8.890597
681.50 8.547898
681.60 8.342628
681.70 8.358556
681.80 8.622551
681.90 9.134897
682.00 9.832712
682.10 10.59626
682.20 11.3005
682.30 11.85481
682.40 12.2082
682.50 12.22322
682.60 11.78746
682.70 10.97082
682.80 9.938558
682.90 8.919985
683.00 8.094856
683.10 7.547317
683.20 7.329794
683.30 7.453481
683.40 7.902027
683.50 8.608402
683.60 9.432724
683.70 10.19724
683.80 10.74759
683.90 11.07436
684.00 11.23101
684.10 11.22314
684.20 11.08988
684.30 10.88554
684.40 10.7068
684.50 10.66715
684.60 10.77272
684.70 10.94602
684.80 11.10103
684.90 11.17575
685.00 11.13155
685.10 10.94685
685.20 10.63152
685.30 10.24988
685.40 9.882586
685.50 9.586788
685.60 9.375217
685.70 9.235289
685.80 9.132423
685.90 9.020697
686.00 8.92263
686.10 8.887364
686.20 8.924577
686.30 9.061594
686.40 9.323281
686.50 9.684545
686.60 10.09152
686.70 10.47388
686.80 10.79564
686.90 11.06406
687.00 11.31536
687.10 11.52873
687.20 11.63653
687.30 11.60732
687.40 11.42307
687.50 11.10704
687.60 10.75203
687.70 10.43962
687.80 10.22211
687.90 10.16671
688.00 10.31297
688.10 10.64689
688.20 11.08732
688.30 11.49323
688.40 11.70166
688.50 11.65328
688.60 11.41081
688.70 11.04916
688.80 10.62023
688.90 10.16606
689.00 9.716896
689.10 9.29274
689.20 8.931911
689.30 8.665755
689.40 8.510791
689.50 8.476551
689.60 8.543448
689.70 8.664179
689.80 8.809197
689.90 8.95085
690.00 9.041649
690.10 9.064195
690.20 9.055791
690.30 9.066725
690.40 9.181381
690.50 9.486729
690.60 9.973634
690.70 10.56268
690.80 11.16445
690.90 11.69907
691.00 12.09808
691.10 12.35178
691.20 12.48334
691.30 12.49526
691.40 12.37983
691.50 12.12281
691.60 11.71906
691.70 11.19997
691.80 10.58781
691.90 9.909978
692.00 9.225964
692.10 8.611778
692.20 8.195731
692.30 8.041377
692.40 8.114595
692.50 8.386376
692.60 8.803272
692.70 9.285663
692.80 9.794906
692.90 10.31841
693.00 10.82889
693.10 11.25029
693.20 11.47889
693.30 11.45516
693.40 11.1965
693.50 10.76719
693.60 10.17389
693.70 9.441126
693.80 8.711168
693.90 8.126725
694.00 7.802199
694.10 7.834304
694.20 8.205357
694.30 8.797263
694.40 9.491411
694.50 10.15765
694.60 10.67854
694.70 10.98301
694.80 11.06242
694.90 10.99727
695.00 10.88949
695.10 10.80632
695.20 10.76787
695.30 10.75109
695.40 10.72424
695.50 10.67339
695.60 10.60796
695.70 10.55241
695.80 10.49172
695.90 10.44426
696.00 10.47678
696.10 10.60384
696.20 10.75738
696.30 10.83154
696.40 10.78056
696.50 10.58556
696.60 10.26196
696.70 9.909408
696.80 9.640779
696.90 9.512786
697.00 9.508841
697.10 9.576997
697.20 9.67454
697.30 9.762333
697.40 9.777834
697.50 9.704417
697.60 9.6032
697.70 9.513546
697.80 9.436785
697.90 9.414814
698.00 9.474719
698.10 9.569879
698.20 9.633534
698.30 9.619336
698.40 9.549726
698.50 9.477673
698.60 9.446867
698.70 9.478047
698.80 9.578428
698.90 9.720446
699.00 9.846031
699.10 9.931791
699.20 9.978439
699.30 9.995276
699.40 9.967625
699.50 9.868243
699.60 9.723593
699.70 9.56079
699.80 9.370053
699.90 9.167885
700.00 8.971361
700.10 8.804391
700.20 8.688329
700.30 8.602623
700.40 8.522385
700.50 8.456024
700.60 8.42939
700.70 8.447559
700.80 8.533465
700.90 8.707161
701.00 8.915147
701.10 9.122385
701.20 9.354346
701.30 9.620063
701.40 9.895448
701.50 10.11606
701.60 10.23222
701.70 10.26337
701.80 10.27428
701.90 10.30297
702.00 10.35041
702.10 10.41806
702.20 10.48028
702.30 10.49632
702.40 10.44279
702.50 10.30679
702.60 10.10332
702.70 9.862209
702.80 9.62856
702.90 9.498344
703.00 9.571388
703.10 9.872372
703.20 10.31266
703.30 10.7411
703.40 11.03494
703.50 11.14309
703.60 11.09175
703.70 10.93862
703.80 10.73176
703.90 10.52215
704.00 10.32736
704.10 10.13893
704.20 9.967987
704.30 9.813244
704.40 9.665654
704.50 9.539973
704.60 9.482058
704.70 9.56196
704.80 9.813723
704.90 10.20543
705.00 10.66238
705.10 11.10792
705.20 11.49875
705.30 11.79963
705.40 11.97857
705.50 12.03196
705.60 12.00383
705.70 11.96245
705.80 11.93696
705.90 11.92993
706.00 11.93403
706.10 11.93887
706.20 11.95508
706.30 11.96593
706.40 11.8876
706.50 11.67366
706.60 11.37942
706.70 11.08606
706.80 10.8774
706.90 10.82445
707.00 10.92435
707.10 11.12393
707.20 11.36502
707.30 11.60906
707.40 11.84375
707.50 12.02841
707.60 12.10699
707.70 12.08607
707.80 12.0286
707.90 11.97003
708.00 11.91204
708.10 11.85164
708.20 11.77054
708.30 11.66473
708.40 11.55666
708.50 11.47432
708.60 11.47721
708.70 11.60773
708.80 11.83007
708.90 12.08899
709.00 12.34033
709.10 12.55299
709.20 12.74734
709.30 12.95005
709.40 13.10422
709.50 13.12792
709.60 13.0079
709.70 12.77807
709.80 12.51107
709.90 12.30026
710.00 12.19496
710.10 12.20872
710.20 12.35901
710.30 12.66562
710.40 13.1113
710.50 13.62045
710.60 14.08427
710.70 14.40142
710.80 14.52738
710.90 14.48366
711.00 14.30842
711.10 14.05009
711.20 13.75567
711.30 13.44832
711.40 13.18005
711.50 13.02983
711.60 13.04509
711.70 13.20952
711.80 13.45621
711.90 13.72404
712.00 13.95475
712.10 14.08673
712.20 14.06757
712.30 13.87311
712.40 13.5594
712.50 13.2244
712.60 12.95382
712.70 12.83274
712.80 12.89317
712.90 13.07635
713.00 13.31553
713.10 13.58435
713.20 13.85198
713.30 14.05373
713.40 14.14824
713.50 14.14669
713.60 14.08924
713.70 14.00454
713.80 13.87115
713.90 13.66544
714.00 13.38506
714.10 13.03779
714.20 12.64909
714.30 12.26061
714.40 11.88663
714.50 11.50319
714.60 11.11062
714.70 10.74803
714.80 10.46335
714.90 10.30133
715.00 10.28452
715.10 10.42021
715.20 10.72206
715.30 11.15864
715.40 11.64765
715.50 12.09518
715.60 12.3926
715.70 12.47653
715.80 12.37273
715.90 12.16574
716.00 11.96154
716.10 11.83628
716.20 11.81512
716.30 11.87024
716.40 11.9591
716.50 12.06141
716.60 12.14022
716.70 12.14901
716.80 12.08008
716.90 11.95721
717.00 11.83333
717.10 11.77433
717.20 11.85741
717.30 12.13505
717.40 12.59977
717.50 13.19351
717.60 13.80761
717.70 14.33333
717.80 14.68951
717.90 14.81777
718.00 14.69801
718.10 14.36078
718.20 13.8763
718.30 13.35561
718.40 12.95228
718.50 12.79865
718.60 12.92066
718.70 13.26173
718.80 13.75795
718.90 14.36774
719.00 15.05039
719.10 15.75512
719.20 16.40835
719.30 16.90799
719.40 17.15607
719.50 17.10534
719.60 16.7735
719.70 16.2232
719.80 15.52939
719.90 14.77225
720.00 14.06117
720.10 13.50381
720.20 13.16344
720.30 13.04185
720.40 13.11137
720.50 13.29953
720.60 13.5201
720.70 13.73227
720.80 13.90854
720.90 14.01512
721.00 14.01754
721.10 13.89718
721.20 13.67585
721.30 13.42341
721.40 13.22196
721.50 13.12273
721.60 13.11211
721.70 13.12497
721.80 13.09843
721.90 13.03783
722.00 13.00058
722.10 12.99012
722.20 12.9604
722.30 12.91171
722.40 12.89892
722.50 12.95791
722.60 13.07479
722.70 13.1931
722.80 13.2639
722.90 13.27204
723.00 13.19955
723.10 13.07187
723.20 12.96028
723.30 12.88811
723.40 12.77356
723.50 12.53334
723.60 12.20195
723.70 11.83906
723.80 11.51084
723.90 11.3509
724.00 11.439
724.10 11.77532
724.20 12.33734
724.30 13.07777
724.40 13.93736
724.50 14.79791
724.60 15.4718
724.70 15.7744
724.80 15.62314
724.90 15.06297
725.00 14.24316
725.10 13.37346
725.20 12.59235
725.30 11.93994
725.40 11.51845
725.50 11.4681
725.60 11.80193
725.70 12.40354
725.80 13.10765
725.90 13.75459
726.00 14.23581
726.10 14.52801
726.20 14.70095
726.30 14.82644
726.40 14.86009
726.50 14.71369
726.60 14.38972
726.70 13.97257
726.80 13.52091
726.90 13.06046
727.00 12.6577
727.10 12.41002
727.20 12.38846
727.30 12.63567
727.40 13.15922
727.50 13.85269
727.60 14.51372
727.70 14.97112
727.80 15.1399
727.90 15.0143
728.00 14.61836
728.10 14.02452
728.20 13.38604
728.30 12.85278
728.40 12.49944
728.50 12.37749
728.60 12.51427
728.70 12.853
728.80 13.23444
728.90 13.48751
729.00 13.51686
729.10 13.25589
729.20 12.68211
729.30 11.88898
729.40 11.10165
729.50 10.54079
729.60 10.34839
729.70 10.58599
729.80 11.16461
729.90 11.82775
730.00 12.31722
730.10 12.46867
730.20 12.20501
730.30 11.60333
730.40 10.83381
730.50 10.09817
730.60 9.597252
730.70 9.445706
730.80 9.634577
730.90 10.08695
731.00 10.64017
731.10 11.07678
731.20 11.20078
731.30 10.93621
731.40 10.41393
731.50 9.895203
731.60 9.638798
731.70 9.781615
731.80 10.34239
731.90 11.23641
732.00 12.31464
732.10 13.37742
732.20 14.18588
732.30 14.51197
732.40 14.25214
732.50 13.45953
732.60 12.36632
732.70 11.28676
732.80 10.39662
732.90 9.750057
733.00 9.357322
733.10 9.202746
733.20 9.248038
733.30 9.48035
733.40 9.825731
733.50 10.09708
733.60 10.11596
733.70 9.829776
733.80 9.381533
733.90 9.04146
734.00 9.024886
734.10 9.387165
734.20 10.06598
734.30 10.93054
734.40 11.79977
734.50 12.47581
734.60 12.76399
734.70 12.55451
734.80 11.92094
734.90 11.11229
735.00 10.46218
735.10 10.2202
735.20 10.37306
735.30 10.71973
735.40 11.05084
735.50 11.24251
735.60 11.25301
735.70 11.08168
735.80 10.78935
735.90 10.49178
736.00 10.30547
736.10 10.24413
736.20 10.23585
736.30 10.21066
736.40 10.16233
736.50 10.17251
736.60 10.32582
736.70 10.65049
736.80 11.14912
736.90 11.77728
737.00 12.4328
737.10 12.98505
737.20 13.28536
737.30 13.21557
737.40 12.77546
737.50 12.10394
737.60 11.39965
737.70 10.84502
737.80 10.51376
737.90 10.35731
738.00 10.31229
738.10 10.33884
738.20 10.414
738.30 10.54752
738.40 10.75167
738.50 11.01592
738.60 11.3271
738.70 11.64222
738.80 11.87643
738.90 11.97835
739.00 12.00911
739.10 12.05584
739.20 12.11374
739.30 12.10558
739.40 11.97444
739.50 11.76416
739.60 11.5481
739.70 11.33941
739.80 11.08782
739.90 10.80222
740.00 10.56495
740.10 10.45178
740.20 10.48539
740.30 10.60878
740.40 10.68281
740.50 10.56323
740.60 10.22879
740.70 9.79457
740.80 9.398421
740.90 9.06485
741.00 8.766471
741.10 8.50387
741.20 8.305803
741.30 8.139286
741.40 7.929549
741.50 7.66085
741.60 7.388197
741.70 7.186395
741.80 7.096852
741.90 7.161094
742.00 7.396352
742.10 7.736903
742.20 8.07936
742.30 8.358239
742.40 8.565492
742.50 8.746996
742.60 8.95149
742.70 9.210992
742.80 9.54626
742.90 9.926158
743.00 10.26352
743.10 10.47625
743.20 10.53604
743.30 10.44968
743.40 10.27466
743.50 10.13533
743.60 10.13455
743.70 10.32214
743.80 10.64722
743.90 10.97267
744.00 11.19356
744.10 11.21402
744.20 10.95725
744.30 10.458
744.40 9.833428
744.50 9.206474
744.60 8.669719
744.70 8.276197
744.80 8.011117
744.90 7.810098
745.00 7.655347
745.10 7.537768
745.20 7.428991
745.30 7.339908
745.40 7.306241
745.50 7.385395
745.60 7.616323
745.70 7.934038
745.80 8.225849
745.90 8.408484
746.00 8.396366
746.10 8.158044
746.20 7.781714
746.30 7.379179
746.40 7.020686
746.50 6.740918
746.60 6.56136
746.70 6.490003
746.80 6.520996
746.90 6.661267
747.00 6.907813
747.10 7.255229
747.20 7.693989
747.30 8.193616
747.40 8.716269
747.50 9.184502
747.60 9.445118
747.70 9.375903
747.80 8.944467
747.90 8.227287
748.00 7.429326
748.10 6.816184
748.20 6.562377
748.30 6.660697
748.40 7.024758
748.50 7.545928
748.60 8.064125
748.70 8.409998
748.80 8.492058
748.90 8.28226
749.00 7.814967
749.10 7.190252
749.20 6.55096
749.30 6.056602
749.40 5.81137
749.50 5.792269
749.60 5.928172
749.70 6.16081
749.80 6.375098
749.90 6.450089
750.00 6.361353
750.10 6.153746
750.20 5.887991
750.30 5.629574
750.40 5.443593
750.50 5.379197
750.60 5.449398
750.70 5.612835
750.80 5.793936
750.90 5.932593
751.00 5.990782
751.10 5.959256
751.20 5.865739
751.30 5.741599
751.40 5.577985
751.50 5.326184
751.60 4.93757
751.70 4.409679
751.80 3.808803
751.90 3.239663
752.00 2.757294
752.10 2.337399
752.20 2.007389
752.30 1.870178
752.40 1.970479
752.50 2.271658
752.60 2.692413
752.70 3.143602
752.80 3.567239
752.90 3.94222
753.00 4.250783
753.10 4.474384
753.20 4.604174
753.30 4.644924
753.40 4.671032
753.50 4.833903
753.60 5.193211
753.70 5.64909
753.80 6.065478
753.90 6.347961
754.00 6.471183
754.10 6.458198
754.20 6.337085
754.30 6.12519
754.40 5.871398
754.50 5.679215
754.60 5.622612
754.70 5.69824
754.80 5.843806
754.90 5.969128
755.00 5.981743
755.10 5.826594
755.20 5.521627
755.30 5.150579
755.40 4.803188
755.50 4.543692
755.60 4.427603
755.70 4.481055
755.80 4.680381
755.90 4.970531
756.00 5.290859
756.10 5.578231
756.20 5.815878
756.30 6.01608
756.40 6.167787
756.50 6.270784
756.60 6.336708
756.70 6.358989
756.80 6.344144
756.90 6.33554
757.00 6.357693
757.10 6.422663
757.20 6.546049
757.30 6.715811
757.40 6.89775
757.50 7.032638
757.60 7.050808
757.70 6.914741
757.80 6.646221
757.90 6.289669
758.00 5.863779
758.10 5.392638
758.20 4.925916
758.30 4.501825
758.40 4.164126
758.50 3.960456
758.60 3.90028
758.70 3.951072
758.80 4.090002
758.90 4.325493
759.00 4.629233
759.10 4.939707
759.20 5.224727
759.30 5.455899
759.40 5.666134
759.50 5.94973
759.60 6.362523
759.70 6.840422
759.80 7.262538
759.90 7.541421
760.00 7.639357
760.10 7.515671
760.20 7.118504
760.30 6.510692
760.40 5.819014
760.50 5.138696
760.60 4.489821
760.70 3.909751
760.80 3.457311
760.90 3.149959
761.00 2.985139
761.10 2.93043
761.20 2.918843
761.30 2.868237
761.40 2.726874
761.50 2.571837
761.60 2.552763
761.70 2.745022
761.80 3.131938
761.90 3.647953
762.00 4.2205
762.10 4.723926
762.20 4.978912
762.30 4.858124
762.40 4.33706
762.50 3.567971
762.60 2.790221
762.70 2.212931
762.80 1.961097
762.90 1.984922
763.00 2.123977
763.10 2.197308
763.20 2.124906
763.30 1.925045
763.40 1.627539
763.50 1.272093
763.60 0.9328065
763.70 0.6390401
763.80 0.3894552
763.90 0.1878068
764.00 0.03492921
764.10 0
764.20 0
764.30 0
764.40 0.0734346
764.50 0.3464461
764.60 0.6260819
764.70 0.8146337
764.80 0.8922386
764.90 0.8964665
765.00 0.8552087
765.10 0.8088087
765.20 0.8059526
765.30 0.8385862
765.40 0.8484066
765.50 0.8177211
765.60 0.7511366
765.70 0.62431
765.80 0.4562228
765.90 0.3527772
766.00 0.4420661
766.10 0.7825484
766.20 1.325625
766.30 1.953489
766.40 2.544065
766.50 2.954934
766.60 3.020597
766.70 2.68286
766.80 2.045704
766.90 1.25721
767.00 0.4670118
767.10 0
767.20 0
767.30 0
767.40 0
767.50 0
767.60 0
767.70 0.3008429
767.80 0.5799925
767.90 0.8476516
768.00 1.185289
768.10 1.626173
768.20 2.095114
768.30 2.488263
768.40 2.7427
768.50 2.843242
768.60 2.818121
768.70 2.701189
768.80 2.503398
768.90 2.23736
769.00 1.986172
769.10 1.887041
769.20 2.013151
769.30 2.343622
769.40 2.745103
769.50 3.050735
769.60 3.191856
769.70 3.144756
769.80 2.890888
769.90 2.458764
770.00 1.9201
770.10 1.38853
770.20 0.9777665
770.30 0.7336264
770.40 0.6045595
770.50 0.4759115
770.60 0.1966995
770.70 0
770.80 0
770.90 0
771.00 0
771.10 0
771.20 0
771.30 0
771.40 0
771.50 0
771.60 0.8757956
771.70 2.578968
771.80 3.947175
771.90 4.804316
772.00 5.107256
772.10 4.903552
772.20 4.312416
772.30 3.476339
772.40 2.510596
772.50 1.526503
772.60 0.6202741
772.70 0
772.80 0
772.90 0
773.00 0.2098047
773.10 1.05045
773.20 2.01665
773.30 2.894264
773.40 3.512576
773.50 3.798814
773.60 3.752496
773.70 3.447866
773.80 3.000877
773.90 2.541552
774.00 2.171122
774.10 1.951979
774.20 1.861232
774.30 1.824816
774.40 1.764411
774.50 1.584237
774.60 1.248135
774.70 0.6686639
774.80 0
774.90 0
775.00 0
775.10 0
775.20 0
775.30 0
775.40 0.8752954
775.50 2.227355
775.60 3.20154
775.70 3.638667
775.80 3.591946
775.90 3.229454
776.00 2.653606
776.10 2.066554
776.20 1.765028
776.30 1.78243
776.40 1.916204
776.50 1.989708
776.60 1.931446
776.70 1.742515
776.80 1.510587
776.90 1.409258
777.00 1.573581
777.10 2.008772
777.20 2.603496
777.30 3.239499
777.40 3.889233
777.50 4.526062
777.60 5.101903
777.70 5.563308
777.80 5.800166
777.90 5.749906
778.00 5.4366
778.10 4.937015
778.20 4.361405
778.30 3.823551
778.40 3.456385
778.50 3.325182
778.60 3.361861
778.70 3.415734
778.80 3.412082
778.90 3.412368
779.00 3.348685
779.10 3.073469
779.20 2.633845
779.30 2.15967
779.40 1.685995
779.50 1.219921
779.60 0.8303148
779.70 0.563597
779.80 0.3929979
779.90 0.3280865
780.00 0.4569638
780.10 0.8795106
780.20 1.5559
780.30 2.27905
780.40 2.932012
780.50 3.507593
780.60 3.953859
780.70 4.20922
780.80 4.321941
780.90 4.438472
781.00 4.65268
781.10 4.998763
781.20 5.495562
781.30 6.116501
781.40 6.76161
781.50 7.25951
781.60 7.462125
781.70 7.328573
781.80 6.92569
781.90 6.450717
782.00 6.113188
782.10 5.992932
782.20 6.143824
782.30 6.608889
782.40 7.345056
782.50 8.215527
782.60 9.041772
782.70 9.663186
782.80 9.964128
782.90 9.947648
783.00 9.725448
783.10 9.411551
783.20 9.084889
783.30 8.767562
783.40 8.482852
783.50 8.324518
783.60 8.336202
783.70 8.485569
783.80 8.726706
783.90 8.982935
784.00 9.17002
784.10 9.261442
784.20 9.267725
784.30 9.195595
784.40 9.078557
784.50 8.979225
784.60 8.951193
784.70 8.979967
784.80 9.061349
784.90 9.300877
785.00 9.9487
785.10 11.17753
785.20 12.90173
785.30 14.87593
785.40 16.72561
785.50 18.07648
785.60 18.70379
785.70 18.54536
785.80 17.65184
785.90 16.20082
786.00 14.5012
786.10 12.94852
786.20 11.85541
786.30 11.30578
786.40 11.08355
786.50 10.88531
786.60 10.59065
786.70 10.27055
786.80 10.14903
786.90 10.40334
787.00 11.06206
787.10 12.02203
787.20 13.03719
787.30 13.87285
787.40 14.37571
787.50 14.39376
787.60 13.89065
787.70 13.08965
787.80 12.33567
787.90 11.9402
788.00 12.08816
788.10 12.78562
788.20 13.84589
788.30 14.91188
788.40 15.65186
788.50 15.8965
788.60 15.66938
788.70 15.06305
788.80 14.1786
788.90 13.23796
789.00 12.50569
789.10 12.04395
789.20 11.77873
789.30 11.64665
789.40 11.59691
789.50 11.59035
789.60 11.63148
789.70 11.8212
789.80 12.23802
789.90 12.81481
790.00 13.40972
790.10 13.90002
790.20 14.22537
790.30 14.38619
790.40 14.38824
790.50 14.26759
790.60 14.08988
790.70 13.85346
790.80 13.46268
790.90 12.85815
791.00 11.97944
791.10 10.80219
791.20 9.449842
791.30 8.160545
791.40 7.246067
791.50 6.938228
791.60 7.319557
791.70 8.302043
791.80 9.66925
791.90 11.20924
792.00 12.68763
792.10 13.85753
792.20 14.61753
792.30 14.98225
792.40 15.12425
792.50 15.24054
792.60 15.30551
792.70 15.20216
792.80 14.85368
792.90 14.31178
793.00 13.76871
793.10 13.40776
793.20 13.37879
793.30 13.71444
793.40 14.32378
793.50 15.15758
793.60 16.13977
793.70 17.08497
793.80 17.72057
793.90 17.84705
794.00 17.47086
794.10 16.74162
794.20 15.75982
794.30 14.52008
794.40 12.97044
794.50 11.16686
794.60 9.311358
794.70 7.672265
794.80 6.518112
794.90 5.988973
795.00 6.099541
795.10 6.786546
795.20 7.915409
795.30 9.296558
795.40 10.78161
795.50 12.24677
795.60 13.60022
795.70 14.80507
795.80 15.81248
795.90 16.60895
796.00 17.18064
796.10 17.54311
796.20 17.84625
796.30 18.25014
796.40 18.8298
796.50 19.5724
796.60 20.42478
796.70 21.31721
796.80 22.11638
796.90 22.68989
797.00 22.99981
797.10 23.08428
797.20 23.04658
797.30 22.98942
797.40 22.91966
797.50 22.76866
797.60 22.45573
797.70 21.874
797.80 20.97641
797.90 19.86801
798.00 18.72489
798.10 17.73081
798.20 17.06611
798.30 16.88939
798.40 17.23135
798.50 17.98479
798.60 19.00355
798.70 20.11712
798.80 21.11924
798.90 21.78577
799.00 21.90298
799.10 21.44451
799.20 20.6384
799.30 19.82422
799.40 19.22975
799.50 18.89191
799.60 18.79031
799.70 18.88985
799.80 19.16933
799.90 19.6328
800.00 20.24196
800.10 20.90075
800.20 21.55981
800.30 22.21762
800.40 22.86
800.50 23.43035
800.60 23.76342
800.70 23.65677
800.80 23.1351
800.90 22.45535
801.00 21.85539
801.10 21.38043
801.20 21.06507
801.30 20.97742
801.40 21.05626
801.50 21.20027
801.60 21.31907
801.70 21.36258
801.80 21.31373
801.90 21.22649
802.00 21.22826
802.10 21.47085
802.20 22.00213
802.30 22.76598
802.40 23.68164
802.50 24.74367
802.60 25.83624
802.70 26.69405
802.80 27.19379
802.90 27.29325
803.00 27.02326
803.10 26.51307
803.20 25.92578
803.30 25.35664
803.40 24.87287
803.50 24.52602
803.60 24.35995
803.70 24.41616
803.80 24.68094
803.90 25.06519
804.00 25.45605
804.10 25.80819
804.20 26.15281
804.30 26.57439
804.40 27.08137
804.50 27.58627
804.60 28.0352
804.70 28.44765
804.80 28.81136
804.90 29.06589
805.00 29.16869
805.10 29.10411
805.20 28.90879
805.30 28.68039
805.40 28.54606
805.50 28.56906
805.60 28.67734
805.70 28.82837
805.80 29.06433
805.90 29.43879
806.00 29.94079
806.10 30.47045
806.20 30.95522
806.30 31.37403
806.40 31.68183
806.50 31.79275
806.60 31.68598
806.70 31.40641
806.80 30.98869
806.90 30.49189
807.00 30.0485
807.10 29.74404
807.20 29.64058
807.30 29.7937
807.40 30.22206
807.50 30.91548
807.60 31.75576
807.70 32.55439
807.80 33.15542
807.90 33.48937
808.00 33.53973
808.10 33.36621
808.20 33.1132
808.30 32.9231
808.40 32.89386
808.50 33.08138
808.60 33.46979
808.70 33.97302
808.80 34.47022
808.90 34.85444
809.00 35.06377
809.10 35.06418
809.20 34.85916
809.30 34.49269
809.40 34.01123
809.50 33.45268
809.60 32.90458
809.70 32.52801
809.80 32.42268
809.90 32.54175
810.00 32.81384
810.10 33.18569
810.20 33.56067
810.30 33.86136
810.40 34.08373
810.50 34.26379
810.60 34.43877
810.70 34.6264
810.80 34.82955
810.90 35.0019
811.00 35.06273
811.10 34.97419
811.20 34.75993
811.30 34.49044
811.40 34.20946
811.50 33.94539
811.60 33.7862
811.70 33.82095
811.80 34.06088
811.90 34.4624
812.00 34.97295
812.10 35.53394
812.20 36.10658
812.30 36.70281
812.40 37.3272
812.50 37.92521
812.60 38.42722
812.70 38.81702
812.80 39.10899
812.90 39.28365
813.00 39.30538
813.10 39.12872
813.20 38.72706
813.30 38.18117
813.40 37.65246
813.50 37.25596
813.60 37.01429
813.70 36.91576
813.80 36.96929
813.90 37.16421
814.00 37.41755
814.10 37.57599
814.20 37.5313
814.30 37.3348
814.40 37.12288
814.50 37.05504
814.60 37.23491
814.70 37.59301
814.80 37.98115
814.90 38.33327
815.00 38.64898
815.10 38.9193
815.20 39.12348
815.30 39.23659
815.40 39.27008
815.50 39.30401
815.60 39.39058
815.70 39.49505
815.80 39.57759
815.90 39.63427
816.00 39.74265
816.10 40.0419
816.20 40.59699
816.30 41.35386
816.40 42.19331
816.50 42.99327
816.60 43.65659
816.70 44.12711
816.80 44.38576
816.90 44.45664
817.00 44.41012
817.10 44.33452
817.20 44.29297
817.30 44.28288
817.40 44.271
817.50 44.22701
817.60 44.13687
817.70 44.02234
817.80 43.92197
817.90 43.8506
818.00 43.79648
818.10 43.72316
818.20 43.59093
818.30 43.35711
818.40 43.00987
818.50 42.60487
818.60 42.21317
818.70 41.91476
818.80 41.75311
818.90 41.69134
819.00 41.64223
819.10 41.50803
819.20 41.20935
819.30 40.71239
819.40 40.0404
819.50 39.34012
819.60 38.89232
819.70 38.99476
819.80 39.82612
819.90 41.33534
820.00 43.33455
820.10 45.57305
820.20 47.71975
820.30 49.48949
820.40 50.70131
820.50 51.23623
820.60 51.05255
820.70 50.25361
820.80 49.09356
820.90 47.87923
821.00 46.85078
821.10 46.13196
821.20 45.73993
821.30 45.60449
821.40 45.59229
821.50 45.56431
821.60 45.45893
821.70 45.2575
821.80 44.94188
821.90 44.54954
822.00 44.19783
822.10 44.0274
822.20 44.12532
822.30 44.47894
822.40 44.97016
822.50 45.46695
822.60 45.94114
822.70 46.43019
822.80 46.93749
822.90 47.38767
823.00 47.68073
823.10 47.77271
823.20 47.72617
823.30 47.69305
823.40 47.81616
823.50 48.13219
823.60 48.58893
823.70 49.14287
823.80 49.8056
823.90 50.60244
824.00 51.46241
824.10 52.25296
824.20 52.86079
824.30 53.21232
824.40 53.2911
824.50 53.17751
824.60 52.99378
824.70 52.80517
824.80 52.62854
824.90 52.50121
825.00 52.48521
825.10 52.60104
825.20 52.82664
825.30 53.0963
825.40 53.31997
825.50 53.45548
825.60 53.50375
825.70 53.52273
825.80 53.63477
825.90 53.89793
826.00 54.27144
826.10 54.70233
826.20 55.16281
826.30 55.64843
826.40 56.14556
826.50 56.59567
826.60 56.84838
826.70 56.72387
826.80 56.13903
826.90 55.15846
827.00 53.99821
827.10 52.93634
827.20 52.18753
827.30 51.85509
827.40 51.92657
827.50 52.2816
827.60 52.77332
827.70 53.27358
827.80 53.65884
827.90 53.83874
828.00 53.78041
828.10 53.4839
828.20 53.01017
828.30 52.49059
828.40 52.02498
828.50 51.61795
828.60 51.38308
828.70 51.61065
828.80 52.48088
828.90 53.93077
829.00 55.72899
829.10 57.53462
829.20 58.91667
829.30 59.51644
829.40 59.31507
829.50 58.58606
829.60 57.69051
829.70 56.90919
829.80 56.42618
829.90 56.42293
830.00 56.82705
830.10 57.26074
830.20 57.4293
830.30 57.2558
830.40 56.77244
830.50 56.08611
830.60 55.4351
830.70 55.08253
830.80 55.10825
830.90 55.49776
831.00 56.1457
831.10 56.89816
831.20 57.66446
831.30 58.34178
831.40 58.85083
831.50 59.16405
831.60 59.29465
831.70 59.32843
831.80 59.40278
831.90 59.65534
832.00 60.19349
832.10 61.0226
832.20 62.06732
832.30 63.18304
832.40 64.18743
832.50 64.91327
832.60 65.21041
832.70 65.03029
832.80 64.43284
832.90 63.55569
833.00 62.56826
833.10 61.58536
833.20 60.68175
833.30 59.91559
833.40 59.34098
833.50 59.06627
833.60 59.07521
833.70 59.23014
833.80 59.45043
833.90 59.67051
834.00 59.98594
834.10 60.51111
834.20 61.34273
834.30 62.50626
834.40 63.82541
834.50 65.09167
834.60 66.09019
834.70 66.68542
834.80 66.83797
834.90 66.51949
835.00 65.83109
835.10 64.95449
835.20 64.1502
835.30 63.72154
835.40 63.63016
835.50 63.73116
835.60 63.83062
835.70 63.71738
835.80 63.36517
835.90 62.83867
836.00 62.26136
836.10 61.75817
836.20 61.40414
836.30 61.22001
836.40 61.22235
836.50 61.50335
836.60 62.05932
836.70 62.77339
836.80 63.60248
836.90 64.43727
837.00 65.14281
837.10 65.68882
837.20 66.07446
837.30 66.29674
837.40 66.39107
837.50 66.40824
837.60 66.45742
837.70 66.71953
837.80 67.34319
837.90 68.30018
838.00 69.40985
838.10 70.41041
838.20 71.03998
838.30 71.199
838.40 70.89185
838.50 70.08885
838.60 68.85274
838.70 67.39551
838.80 66.00708
838.90 64.9268
839.00 64.17021
839.10 63.677
839.20 63.44761
839.30 63.55056
839.40 64.04211
839.50 64.80505
839.60 65.70707
839.70 66.64617
839.80 67.51672
839.90 68.33459
840.00 69.08953
840.10 69.65954
840.20 69.86656
840.30 69.64421
840.40 69.22994
840.50 68.93108
840.60 68.90182
840.70 69.12639
840.80 69.43918
840.90 69.83312
841.00 70.41884
841.10 71.17283
841.20 71.9389
841.30 72.48474
841.40 72.69933
841.50 72.69555
841.60 72.66953
841.70 72.75316
841.80 72.92259
841.90 73.0794
842.00 73.1759
842.10 73.19848
842.20 73.19854
842.30 73.27065
842.40 73.33719
842.50 73.28549
842.60 73.27104
842.70 73.58467
842.80 74.36653
842.90 75.50376
843.00 76.75044
843.10 77.79118
843.20 78.31024
843.30 78.08317
843.40 77.04548
843.50 75.34161
843.60 73.29475
843.70 71.2776
843.80 69.71563
843.90 68.96937
844.00 69.09855
844.10 69.94459
844.20 71.25421
844.30 72.72207
844.40 74.00452
844.50 74.77937
844.60 74.91197
844.70 74.49189
844.80 73.66126
844.90 72.5735
845.00 71.46943
845.10 70.61832
845.20 70.1903
845.30 70.21535
845.40 70.56725
845.50 70.9775
845.60 71.19001
845.70 71.09451
845.80 70.7573
845.90 70.40265
846.00 70.33176
846.10 70.74851
846.20 71.70489
846.30 73.20583
846.40 75.05462
846.50 76.87281
846.60 78.34651
846.70 79.25713
846.80 79.56722
846.90 79.40397
847.00 78.88398
847.10 78.08981
847.20 77.2158
847.30 76.45248
847.40 75.74167
847.50 74.94615
847.60 74.06334
847.70 73.1216
847.80 72.22953
847.90 71.56527
848.00 71.23321
848.10 71.29715
848.20 71.75759
848.30 72.52384
848.40 73.47876
848.50 74.47806
848.60 75.2463
848.70 75.62819
848.80 75.72669
848.90 75.74132
849.00 75.88693
849.10 76.2458
849.20 76.77097
849.30 77.36095
849.40 77.86154
849.50 78.07653
849.60 77.82376
849.70 77.09484
849.80 76.13069
849.90 75.3099
850.00 74.99256
850.10 75.20819
850.20 75.62487
850.30 75.95823
850.40 76.06713
850.50 75.9071
850.60 75.55127
850.70 75.08422
850.80 74.53716
850.90 74.06188
851.00 73.89281
851.10 74.07633
851.20 74.40822
851.30 74.55152
851.40 74.15194
851.50 73.04476
851.60 71.28425
851.70 68.77838
851.80 65.33866
851.90 61.02949
852.00 56.17321
852.10 51.31285
852.20 47.22377
852.30 44.63404
852.40 44.00192
852.50 45.49611
852.60 48.97175
852.70 53.94299
852.80 59.68056
852.90 65.36887
853.00 70.34731
853.10 74.31039
853.20 77.23494
853.30 79.22661
853.40 80.50572
853.50 81.39523
853.60 82.11822
853.70 82.74036
853.80 83.23579
853.90 83.54881
854.00 83.60592
854.10 83.37995
854.20 83.01063
854.30 82.71291
854.40 82.6254
854.50 82.78394
854.60 83.13076
854.70 83.57697
854.80 84.03169
854.90 84.3626
855.00 84.52211
855.10 84.58822
855.20 84.68511
855.30 84.93937
855.40 85.48482
855.50 86.40551
855.60 87.62336
855.70 88.96123
855.80 90.23136
855.90 91.26907
856.00 91.97649
856.10 92.28734
856.20 92.20304
856.30 91.84387
856.40 91.38159
856.50 90.97982
856.60 90.75557
856.70 90.79543
856.80 91.14814
856.90 91.75804
857.00 92.43787
857.10 92.93976
857.20 93.06118
857.30 92.74067
857.40 92.03831
857.50 91.11663
857.60 90.20885
857.70 89.51087
857.80 89.14526
857.90 89.09762
858.00 89.31472
858.10 89.73926
858.20 90.20991
858.30 90.5621
858.40 90.76293
858.50 90.8703
858.60 90.93849
858.70 90.93663
858.80 90.76587
858.90 90.355
859.00 89.66903
859.10 88.73463
859.20 87.66073
859.30 86.66621
859.40 85.98951
859.50 85.76566
859.60 86.07656
859.70 86.91932
859.80 88.16439
859.90 89.59516
860.00 90.95249
860.10 92.02205
860.20 92.68914
860.30 92.97652
860.40 93.07438
860.50 93.14983
860.60 93.15975
860.70 92.95445
860.80 92.30368
860.90 91.00365
861.00 89.04519
861.10 86.53981
861.20 83.55123
861.30 80.15177
861.40 76.53746
861.50 73.0193
861.60 69.96608
861.70 67.60106
861.80 65.90509
861.90 64.85697
862.00 64.50566
862.10 64.73226
862.20 65.30953
862.30 65.99474
862.40 66.55882
862.50 66.83218
862.60 66.6929
862.70 66.06711
862.80 64.8893
862.90 63.23788
863.00 61.46493
863.10 60.05935
863.20 59.38498
863.30 59.56517
863.40 60.58409
863.50 62.39071
863.60 64.83292
863.70 67.55753
863.80 69.97879
863.90 71.51178
864.00 71.88614
864.10 71.20579
864.20 69.88184
864.30 68.33649
864.40 66.79598
864.50 65.40521
864.60 64.30309
864.70 63.59249
864.80 63.29464
864.90 63.37641
865.00 63.78698
865.10 64.44403
865.20 65.2611
865.30 66.18155
865.40 67.18313
865.50 68.22418
865.60 69.25476
865.70 70.28219
865.80 71.37488
865.90 72.53675
866.00 73.73187
866.10 74.93019
866.20 76.03197
866.30 76.92662
866.40 77.56812
866.50 77.90336
866.60 77.81374
866.70 77.24092
866.80 76.23083
866.90 75.0281
867.00 74.04342
867.10 73.54661
867.20 73.55112
867.30 74.05933
867.40 75.09749
867.50 76.56922
867.60 78.31316
867.70 80.00004
867.80 81.14315
867.90 81.45074
868.00 80.96864
868.10 79.92721
868.20 78.67608
868.30 77.59848
868.40 77.02442
868.50 77.18596
868.60 78.10909
868.70 79.51197
868.80 80.89913
868.90 81.81919
869.00 81.9622
869.10 81.23817
869.20 79.82648
869.30 78.04701
869.40 76.26968
869.50 74.87444
869.60 74.16616
869.70 74.19429
869.80 74.70406
869.90 75.41776
870.00 76.21006
870.10 76.98627
870.20 77.57684
870.30 77.75313
870.40 77.3645
870.50 76.55752
870.60 75.71013
870.70 75.10794
870.80 74.8704
870.90 74.99603
871.00 75.40236
871.10 75.97123
871.20 76.52441
871.30 76.90553
871.40 77.02905
871.50 76.88204
871.60 76.53978
871.70 76.15642
871.80 75.86832
871.90 75.65003
872.00 75.36268
872.10 74.97866
872.20 74.61048
872.30 74.41056
872.40 74.4587
872.50 74.78155
872.60 75.46435
872.70 76.5107
872.80 77.80538
872.90 79.17215
873.00 80.39727
873.10 81.28811
873.20 81.76507
873.30 81.84208
873.40 81.54395
873.50 80.97287
873.60 80.32258
873.70 79.80206
873.80 79.58979
873.90 79.7599
874.00 80.21391
874.10 80.75093
874.20 81.19608
874.30 81.4898
874.40 81.69054
874.50 81.86442
874.60 82.003
874.70 82.05196
874.80 81.9261
874.90 81.61016
875.00 81.18035
875.10 80.7157
875.20 80.28134
875.30 80.01495
875.40 80.19747
875.50 81.00788
875.60 82.38451
875.70 84.13769
875.80 86.01027
875.90 87.66493
876.00 88.64183
876.10 88.54334
876.20 87.31498
876.30 85.11964
876.40 82.261
876.50 79.19103
876.60 76.37451
876.70 74.1938
876.80 72.89358
876.90 72.57858
877.00 73.34384
877.10 75.1696
877.20 77.7324
877.30 80.57509
877.40 83.41483
877.50 86.08295
877.60 88.42202
877.70 90.29465
877.80 91.31537
877.90 91.18348
878.00 90.07712
878.10 88.41169
878.20 86.55232
878.30 84.87422
878.40 83.54801
878.50 82.50847
878.60 81.76482
878.70 81.42335
878.80 81.61059
878.90 82.38477
879.00 83.6152
879.10 85.10259
879.20 86.90986
879.30 89.10753
879.40 91.45643
879.50 93.50905
879.60 94.82445
879.70 95.12279
879.80 94.42497
879.90 93.04565
880.00 91.40141
880.10 89.85605
880.20 88.60849
880.30 87.74714
880.40 87.32946
880.50 87.32746
880.60 87.65624
880.70 88.21704
880.80 88.88404
880.90 89.57532
881.00 90.3023
881.10 91.10391
881.20 91.97675
881.30 92.88324
881.40 93.80582
881.50 94.76491
881.60 95.79337
881.70 96.88292
881.80 97.91869
881.90 98.68771
882.00 98.97113
882.10 98.72447
882.20 98.24344
882.30 98.31829
882.40 99.59964
882.50 102.2357
882.60 105.8756
882.70 109.6119
882.80 112.3672
882.90 113.238
883.00 111.6907
883.10 107.7087
883.20 101.9391
883.30 95.59702
883.40 90.20862
883.50 87.15374
883.60 87.10071
883.70 89.52082
883.80 93.3894
883.90 97.67603
884.00 101.4604
884.10 104.1998
884.20 105.6048
884.30 105.5686
884.40 104.187
884.50 101.8141
884.60 98.99041
884.70 96.28844
884.80 94.14592
884.90 92.77737
885.00 92.28727
885.10 92.76747
885.20 94.09361
885.30 95.85452
885.40 97.51945
885.50 98.67981
885.60 99.17061
885.70 99.0523
885.80 98.58444
885.90 98.05706
886.00 97.69301
886.10 97.68438
886.20 98.18448
886.30 99.28403
886.40 101.0018
886.50 103.0831
886.60 105.0478
886.70 106.464
886.80 107.0086
886.90 106.5583
887.00 105.1721
887.10 103.0984
887.20 100.7435
887.30 98.60073
887.40 97.14346
887.50 96.79447
887.60 97.76903
887.70 99.8371
887.80 102.3467
887.90 104.7681
888.00 107.0032
888.10 108.7979
888.20 109.5578
888.30 109.0641
888.40 108.1614
888.50 107.8288
888.60 108.2333
888.70 109.2281
888.80 110.6315
888.90 112.0763
889.00 113.0419
889.10 113.0995
889.20 112.0944
889.30 110.0695
889.40 107.0974
889.50 103.762
889.60 101.3441
889.70 100.8316
889.80 101.992
889.90 104.1851
890.00 107.1551
890.10 110.5155
890.20 113.578
890.30 115.6683
890.40 116.3557
890.50 115.4997
890.60 113.3175
890.70 110.3032
890.80 107.1104
890.90 104.415
891.00 102.6427
891.10 101.8958
891.20 102.1065
891.30 103.085
891.40 104.6388
891.50 106.601
891.60 108.7622
891.70 110.7773
891.80 112.191
891.90 112.6966
892.00 112.2072
892.10 110.8196
892.20 108.7246
892.30 106.1602
892.40 103.4751
892.50 101.0808
892.60 99.34227
892.70 98.41956
892.80 98.27944
892.90 98.79176
893.00 99.73288
893.10 100.8769
893.20 102.1012
893.30 103.3447
893.40 104.4741
893.50 105.29
893.60 105.5694
893.70 105.1395
893.80 103.8987
893.90 101.6491
894.00 98.10804
894.10 93.25916
894.20 87.43447
894.30 81.27609
894.40 75.69045
894.50 71.57036
894.60 69.61151
894.70 70.11185
894.80 72.8869
894.90 77.39897
895.00 82.96945
895.10 88.92337
895.20 94.71456
895.30 99.98011
895.40 104.7005
895.50 109.0606
895.60 113.1259
895.70 116.68
895.80 119.2688
895.90 120.5519
896.00 120.2314
896.10 118.1973
896.20 114.8069
896.30 110.7345
896.40 106.7992
896.50 103.7783
896.60 102.193
896.70 102.3114
896.80 103.8959
896.90 106.268
897.00 108.764
897.10 110.9479
897.20 112.6986
897.30 114.0328
897.40 115.0871
897.50 116.0377
897.60 116.9856
897.70 117.9792
897.80 118.9567
897.90 119.7179
898.00 120.0856
898.10 120.1228
898.20 120.2129
898.30 120.8502
898.40 122.0487
898.50 123.0741
898.60 123.1199
898.70 121.9612
898.80 119.7515
898.90 116.847
899.00 113.8075
899.10 111.2232
899.20 109.6301
899.30 109.3965
899.40 110.5737
899.50 112.9123
899.60 115.97
899.70 118.9165
899.80 121.1699
899.90 123.3228
900.00 123.2933
900.10 123.2638
900.20 123.2343
900.30 123.2048
900.40 123.1753
900.50 123.1458
900.60 123.1163
900.70 123.0868
900.80 123.0574
900.90 123.2832
901.00 123.6406
901.10 123.998
901.20 124.3555
901.30 124.7129
901.40 125.0703
901.50 125.4277
901.60 125.7851
901.70 126.1425
901.80 126.4999
901.90 126.8573
902.00 127.2147
902.10 127.5721
902.20 127.9296
902.30 128.287
902.40 128.6444
902.50 129.0018
902.60 129.3592
902.70 129.7166
902.80 130.074
902.90 130.4314
903.00 130.7888
903.10 131.1463
903.20 131.5037
903.30 131.8611
903.40 132.2185
903.50 132.5759
903.60 132.9333
903.70 133.2907
903.80 133.6481
903.90 134.0055
904.00 134.3629
904.10 134.7204
904.20 135.0778
904.30 135.3971
904.40 135.6769
904.50 135.9567
904.60 136.2365
904.70 136.5163
904.80 136.7961
904.90 137.0759
905.00 137.3557
905.10 137.6355
905.20 137.9153
905.30 138.1951
905.40 138.4749
905.50 138.7547
905.60 139.0345
905.70 139.3143
905.80 139.5941
905.90 139.8739
906.00 140.1537
906.10 140.4335
906.20 140.7133
906.30 140.9931
906.40 141.2729
906.50 141.5527
906.60 141.8325
906.70 142.1123
906.80 142.3921
906.90 142.6719
907.00 142.9517
907.10 143.2315
907.20 143.5113
907.30 143.7911
907.40 144.0709
907.50 144.3507
907.60 144.6305
907.70 144.8574
907.80 144.7594
907.90 144.6614
908.00 144.5634
908.10 144.4654
908.20 144.3674
908.30 144.2694
908.40 144.1714
908.50 144.0734
908.60 143.9754
908.70 143.8773
908.80 143.7793
908.90 143.6813
909.00 143.5833
909.10 143.4853
909.20 143.3873
909.30 143.2893
909.40 143.1913
909.50 143.0933
909.60 142.9953
909.70 142.8973
909.80 142.7993
909.90 142.7013
910.00 142.6033
910.10 142.5053
910.20 142.4072
910.30 142.3092
910.40 142.2112
910.50 142.1132
910.60 142.0152
910.70 141.9172
910.80 141.8192
910.90 141.7212
911.00 141.6232
911.10 141.5252
911.20 141.4663
911.30 141.4324
911.40 141.3986
911.50 141.3647
911.60 141.3308
911.70 141.297
911.80 141.2631
911.90 141.2292
912.00 141.1953
912.10 141.1615
912.20 141.1276
912.30 141.0937
912.40 141.0599
912.50 141.026
912.60 140.9921
912.70 140.9583
912.80 140.9244
912.90 140.8905
913.00 140.8566
913.10 140.8228
913.20 140.7889
913.30 140.755
913.40 140.7212
913.50 140.6873
913.60 140.6534
913.70 140.6196
913.80 140.5857
913.90 140.5518
914.00 140.5179
914.10 140.4841
914.20 140.4502
914.30 140.4163
914.40 140.3825
914.50 140.3486
914.60 140.3147
914.70 140.5994
914.80 140.9235
914.90 141.2476
915.00 141.5717
915.10 141.8958
915.20 142.2199
915.30 142.544
915.40 142.8681
915.50 143.1922
915.60 143.5163
915.70 143.8404
915.80 144.1645
915.90 144.4886
916.00 144.8127
916.10 145.1368
916.20 145.4609
916.30 145.785
916.40 146.1091
916.50 146.4332
916.60 146.7573
916.70 147.0814
916.80 147.4055
916.90 147.7296
917.00 148.0537
917.10 148.3778
917.20 148.7019
917.30 149.026
917.40 149.3501
917.50 149.6742
917.60 149.9983
917.70 150.3224
917.80 150.6465
917.90 150.9706
918.00 151.2947
918.10 151.6164
918.20 151.6929
918.30 151.7695
918.40 151.846
918.50 151.9226
918.60 151.9992
918.70 152.0757
918.80 152.1523
918.90 152.2288
919.00 152.3054
919.10 152.382
919.20 152.4585
919.30 152.5351
919.40 152.6116
919.50 152.6882
919.60 152.7648
919.70 152.8413
919.80 152.9179
919.90 152.9944
920.00 153.071
920.10 153.1476
920.20 153.2241
920.30 153.3007
920.40 153.3772
920.50 153.4538
920.60 153.5304
920.70 153.6069
920.80 153.6835
920.90 153.76
921.00 153.8366
921.10 153.9132
921.20 153.9897
921.30 154.0663
921.40 154.1428
921.50 154.2194
921.60 154.296
921.70 154.3178
921.80 154.3361
921.90 154.3544
922.00 154.3727
922.10 154.391
922.20 154.4094
922.30 154.4277
922.40 154.446
922.50 154.4643
922.60 154.4826
922.70 154.5009
922.80 154.5193
922.90 154.5376
923.00 154.5559
923.10 154.5742
923.20 154.5925
923.30 154.6108
923.40 154.6292
923.50 154.6475
923.60 154.6658
923.70 154.6841
923.80 154.7024
923.90 154.7208
924.00 154.7391
924.10 154.7574
924.20 154.7757
924.30 154.794
924.40 154.8123
924.50 154.8307
924.60 154.849
924.70 154.8673
924.80 154.8856
924.90 154.9039
925.00 154.9222
925.10 154.9406
925.20 154.8165
925.30 154.6314
925.40 154.4463
925.50 154.2613
925.60 154.0762
925.70 153.8911
925.80 153.706
925.90 153.5209
926.00 153.3359
926.10 153.1508
926.20 152.9657
926.30 152.7806
926.40 152.5955
926.50 152.4104
926.60 152.2254
926.70 152.0403
926.80 151.8552
926.90 151.6701
927.00 151.485
927.10 151.3
927.20 151.1149
927.30 150.9298
927.40 150.7447
927.50 150.5596
927.60 150.3746
927.70 150.1895
927.80 150.0044
927.90 149.8193
928.00 149.6342
928.10 149.4491
928.20 149.2641
928.30 149.079
928.40 148.8939
928.50 148.7088
928.60 148.5237
928.70 148.4767
928.80 148.7678
928.90 149.0589
929.00 149.35
929.10 149.6411
929.20 149.9321
929.30 150.2232
929.40 150.5143
929.50 150.8054
929.60 151.0965
929.70 151.3875
929.80 151.6786
929.90 151.9697
930.00 152.2608
930.10 152.5518
930.20 152.8429
930.30 153.134
930.40 153.4251
930.50 153.7162
930.60 154.0072
930.70 154.2983
930.80 154.5894
930.90 154.8805
931.00 155.1716
931.10 155.4626
931.20 155.7537
931.30 156.0448
931.40 156.3359
931.50 156.6269
931.60 156.918
931.70 157.2091
931.80 157.5002
931.90 157.7913
932.00 158.0823
932.10 158.3734
932.20 158.6645
932.30 158.5314
932.40 158.2166
932.50 157.9018
932.60 157.587
932.70 157.2722
932.80 156.9574
932.90 156.6426
933.00 156.3277
933.10 156.0129
933.20 155.6981
933.30 155.3833
933.40 155.0685
933.50 154.7537
933.60 154.4388
933.70 154.124
933.80 153.8092
933.90 153.4944
934.00 153.1796
934.10 152.8648
934.20 152.5499
934.30 152.2351
934.40 151.9203
934.50 151.6055
934.60 151.2907
934.70 150.9759
934.80 150.6611
934.90 150.3462
935.00 150.0314
935.10 149.7166
935.20 149.4018
935.30 149.087
935.40 148.7722
935.50 148.4573
935.60 148.1425
935.70 147.8277
935.80 147.5129
935.90 147.6518
936.00 147.8197
936.10 147.9876
936.20 148.1555
936.30 148.3234
936.40 148.4912
936.50 148.6591
936.60 148.827
936.70 148.9949
936.80 149.1628
936.90 149.3307
937.00 149.4986
937.10 149.6664
937.20 149.8343
937.30 150.0022
937.40 150.1701
937.50 150.338
937.60 150.5059
937.70 150.6738
937.80 150.8416
937.90 151.0095
938.00 151.1774
938.10 151.3453
938.20 151.5132
938.30 151.6811
938.40 151.849
938.50 152.0168
938.60 152.1847
938.70 152.3526
938.80 152.5205
938.90 152.6884
939.00 152.8563
939.10 153.0242
939.20 153.192
939.30 153.3599
939.40 153.5267
939.50 153.6408
939.60 153.7549
939.70 153.869
939.80 153.983
939.90 154.0971
940.00 154.2112
940.10 154.3253
940.20 154.4394
940.30 154.5534
940.40 154.6675
940.50 154.7816
940.60 154.8957
940.70 155.0097
940.80 155.1238
940.90 155.2379
941.00 155.352
941.10 155.4661
941.20 155.5801
941.30 155.6942
941.40 155.8083
941.50 155.9224
941.60 156.0364
941.70 156.1505
941.80 156.2646
941.90 156.3787
942.00 156.4927
942.10 156.6068
942.20 156.7209
942.30 156.835
942.40 156.9491
942.50 157.0631
942.60 157.1772
942.70 157.2913
942.80 157.4054
942.90 157.5194
943.00 157.6335
943.10 158.0072
943.20 158.4005
943.30 158.7937
943.40 159.187
943.50 159.5802
943.60 159.9735
943.70 160.3667
943.80 160.76
943.90 161.1532
944.00 161.5465
944.10 161.9398
944.20 162.333
944.30 162.7263
944.40 163.1195
944.50 163.5128
944.60 163.906
944.70 164.2993
944.80 164.6925
944.90 165.0858
945.00 165.479
945.10 165.8723
945.20 166.2655
945.30 166.6588
945.40 167.052
945.50 167.4453
945.60 167.8385
945.70 168.2318
945.80 168.625
945.90 169.0183
946.00 169.4115
946.10 169.8048
946.20 170.198
946.30 170.5913
946.40 170.9845
946.50 171.3778
946.60 171.771
946.70 171.992
946.80 172.128
946.90 172.2641
947.00 172.4002
947.10 172.5362
947.20 172.6723
947.30 172.8084
947.40 172.9444
947.50 173.0805
947.60 173.2166
947.70 173.3526
947.80 173.4887
947.90 173.6248
948.00 173.7608
948.10 173.8969
948.20 174.0329
948.30 174.169
948.40 174.3051
948.50 174.4411
948.60 174.5772
948.70 174.7133
948.80 174.8493
948.90 174.9854
949.00 175.1215
949.10 175.2575
949.20 175.3936
949.30 175.5297
949.40 175.6657
949.50 175.8018
949.60 175.9378
949.70 176.0739
949.80 176.21
949.90 176.346
950.00 176.4821
950.10 176.6182
950.20 176.7542
950.30 176.8253
950.40 176.7014
950.50 176.5775
950.60 176.4536
950.70 176.3297
950.80 176.2058
950.90 176.0819
951.00 175.958
951.10 175.8341
951.20 175.7102
951.30 175.5863
951.40 175.4624
951.50 175.3385
951.60 175.2146
951.70 175.0907
951.80 174.9668
951.90 174.843
952.00 174.7191
952.10 174.5952
952.20 174.4713
952.30 174.3474
952.40 174.2235
952.50 174.0996
952.60 173.9757
952.70 173.8518
952.80 173.7279
952.90 173.604
953.00 173.4801
953.10 173.3562
953.20 173.2323
953.30 173.1084
953.40 172.9845
953.50 172.8606
953.60 172.7367
953.70 172.6128
953.80 172.4889
953.90 172.365
954.00 172.5007
954.10 172.7701
954.20 173.0395
954.30 173.3089
954.40 173.5783
954.50 173.8477
954.60 174.1171
954.70 174.3865
954.80 174.656
954.90 174.9254
955.00 175.1948
955.10 175.4642
955.20 175.7336
955.30 176.003
955.40 176.2724
955.50 176.5418
955.60 176.8112
955.70 177.0806
955.80 177.35
955.90 177.6194
956.00 177.8888
956.10 178.1583
956.20 178.4277
956.30 178.6971
956.40 178.9665
956.50 179.2359
956.60 179.5053
956.70 179.7747
956.80 180.0441
956.90 180.3135
957.00 180.5829
957.10 180.8523
957.20 181.1217
957.30 181.3911
957.40 181.6605
957.50 181.93
957.60 182.1994
957.70 182.0015
957.80 181.763
957.90 181.5246
958.00 181.2861
958.10 181.0476
958.20 180.8091
958.30 180.5706
958.40 180.3322
958.50 180.0937
958.60 179.8552
958.70 179.6167
958.80 179.3782
958.90 179.1398
959.00 178.9013
959.10 178.6628
959.20 178.4243
959.30 178.1858
959.40 177.9474
959.50 177.7089
959.60 177.4704
959.70 177.2319
959.80 176.9934
959.90 176.755
960.00 176.5165
960.10 176.278
960.20 176.0395
960.30 175.801
960.40 175.5626
960.50 175.3241
960.60 175.0856
960.70 174.8471
960.80 174.6086
960.90 174.3702
961.00 174.1317
961.10 173.8932
961.20 173.6547
961.30 173.4249
961.40 173.6183
961.50 173.8117
961.60 174.0052
961.70 174.1986
961.80 174.392
961.90 174.5855
962.00 174.7789
962.10 174.9723
962.20 175.1657
962.30 175.3592
962.40 175.5526
962.50 175.746
962.60 175.9395
962.70 176.1329
962.80 176.3263
962.90 176.5197
963.00 176.7132
963.10 176.9066
963.20 177.1
963.30 177.2935
963.40 177.4869
963.50 177.6803
963.60 177.8737
963.70 178.0672
963.80 178.2606
963.90 178.454
964.00 178.6474
964.10 178.8409
964.20 179.0343
964.30 179.2277
964.40 179.4212
964.50 179.6146
964.60 179.808
964.70 180.0014
964.80 180.1949
964.90 180.3883
965.00 180.5817
965.10 180.5923
965.20 180.5952
965.30 180.5982
965.40 180.6011
965.50 180.6041
965.60 180.6071
965.70 180.61
965.80 180.613
965.90 180.6159
966.00 180.6189
966.10 180.6218
966.20 180.6248
966.30 180.6277
966.40 180.6307
966.50 180.6336
966.60 180.6366
966.70 180.6395
966.80 180.6425
966.90 180.6454
967.00 180.6484
967.10 180.6513
967.20 180.6543
967.30 180.6572
967.40 180.6602
967.50 180.6631
967.60 180.6661
967.70 180.669
967.80 180.672
967.90 180.6749
968.00 180.6779
968.10 180.6808
968.20 180.6838
968.30 180.6867
968.40 180.6897
968.50 180.6926
968.60 180.6956
968.70 180.6985
968.80 180.6572
968.90 180.6004
969.00 180.5436
969.10 180.4868
969.20 180.4299
969.30 180.3731
969.40 180.3163
969.50 180.2595
969.60 180.2026
969.70 180.1458
969.80 180.089
969.90 180.0322
970.00 179.9754
970.10 179.9185
970.20 179.8617
970.30 179.8049
970.40 179.7481
970.50 179.6912
970.60 179.6344
970.70 179.5776
970.80 179.5208
970.90 179.464
971.00 179.4071
971.10 179.3503
971.20 179.2935
971.30 179.2367
971.40 179.1798
971.50 179.123
971.60 179.0662
971.70 179.0094
971.80 178.9526
971.90 178.8957
972.00 178.8389
972.10 178.7821
972.20 178.7253
972.30 178.6684
972.40 178.6116
972.50 178.6733
972.60 178.9366
972.70 179.2
972.80 179.4633
972.90 179.7267
973.00 179.99
973.10 180.2533
973.20 180.5167
973.30 180.78
973.40 181.0434
973.50 181.3067
973.60 181.5701
973.70 181.8334
973.80 182.0968
973.90 182.3601
974.00 182.6235
974.10 182.8868
974.20 183.1502
974.30 183.4135
974.40 183.6769
974.50 183.9402
974.60 184.2036
974.70 184.4669
974.80 184.7303
974.90 184.9936
975.00 185.257
975.10 185.5203
975.20 185.7837
975.30 186.047
975.40 186.3104
975.50 186.5737
975.60 186.8371
975.70 187.1004
975.80 187.3638
975.90 187.6271
976.00 187.8905
976.10 188.1538
976.20 188.4172
976.30 188.33
976.40 188.1809
976.50 188.0319
976.60 187.8828
976.70 187.7338
976.80 187.5847
976.90 187.4357
977.00 187.2866
977.10 187.1376
977.20 186.9886
977.30 186.8395
977.40 186.6905
977.50 186.5414
977.60 186.3924
977.70 186.2433
977.80 186.0943
977.90 185.9452
978.00 185.7962
978.10 185.6471
978.20 185.4981
978.30 185.349
978.40 185.2
978.50 185.0509
978.60 184.9019
978.70 184.7529
978.80 184.6038
978.90 184.4548
979.00 184.3057
979.10 184.1567
979.20 184.0076
979.30 183.8586
979.40 183.7095
979.50 183.5605
979.60 183.4114
979.70 183.2624
979.80 183.1133
979.90 182.9643
980.00 182.8847
980.10 183.1216
980.20 183.3585
980.30 183.5953
980.40 183.8322
980.50 184.0691
980.60 184.306
980.70 184.5428
980.80 184.7797
980.90 185.0166
981.00 185.2535
981.10 185.4904
981.20 185.7272
981.30 185.9641
981.40 186.201
981.50 186.4379
981.60 186.6747
981.70 186.9116
981.80 187.1485
981.90 187.3854
982.00 187.6222
982.10 187.8591
982.20 188.096
982.30 188.3329
982.40 188.5697
982.50 188.8066
982.60 189.0435
982.70 189.2804
982.80 189.5172
982.90 189.7541
983.00 189.991
983.10 190.2279
983.20 190.4647
983.30 190.7016
983.40 190.9385
983.50 191.1754
983.60 191.4123
983.70 191.6491
983.80 191.7157
983.90 191.4794
984.00 191.2432
984.10 191.0069
984.20 190.7707
984.30 190.5344
984.40 190.2982
984.50 190.0619
984.60 189.8256
984.70 189.5894
984.80 189.3531
984.90 189.1169
985.00 188.8806
985.10 188.6444
985.20 188.4081
985.30 188.1719
985.40 187.9356
985.50 187.6994
985.60 187.4631
985.70 187.2269
985.80 186.9906
985.90 186.7543
986.00 186.5181
986.10 186.2818
986.20 186.0456
986.30 185.8093
986.40 185.5731
986.50 185.3368
986.60 185.1006
986.70 184.8643
986.80 184.6281
986.90 184.3918
987.00 184.1556
987.10 183.9193
987.20 183.683
987.30 183.4468
987.40 183.2105
987.50 182.9743
987.60 182.8365
987.70 182.8463
987.80 182.8562
987.90 182.866
988.00 182.8759
988.10 182.8857
988.20 182.8956
988.30 182.9054
988.40 182.9153
988.50 182.9252
988.60 182.935
988.70 182.9449
988.80 182.9547
988.90 182.9646
989.00 182.9744
989.10 182.9843
989.20 182.9941
989.30 183.004
989.40 183.0138
989.50 183.0237
989.60 183.0335
989.70 183.0434
989.80 183.0532
989.90 183.0631
990.00 183.073
990.10 183.0828
990.20 183.0927
990.30 183.1025
990.40 183.1124
990.50 183.1222
990.60 183.1321
990.70 183.1419
990.80 183.1518
990.90 183.1616
991.00 183.1715
991.10 183.1813
991.20 183.1912
991.30 183.201
991.40 183.1856
991.50 183.1081
991.60 183.0306
991.70 182.9532
991.80 182.8757
991.90 182.7982
992.00 182.7208
992.10 182.6433
992.20 182.5658
992.30 182.4883
992.40 182.4109
992.50 182.3334
992.60 182.2559
992.70 182.1785
992.80 182.101
992.90 182.0235
993.00 181.9461
993.10 181.8686
993.20 181.7911
993.30 181.7136
993.40 181.6362
993.50 181.5587
993.60 181.4812
993.70 181.4038
993.80 181.3263
993.90 181.2488
994.00 181.1714
994.10 181.0939
994.20 181.0164
994.30 180.9389
994.40 180.8615
994.50 180.784
994.60 180.7065
994.70 180.6291
994.80 180.5516
994.90 180.4741
995.00 180.3966
995.10 180.3192
995.20 180.2306
995.30 179.7818
995.40 179.333
995.50 178.8842
995.60 178.4354
995.70 177.9866
995.80 177.5378
995.90 177.089
996.00 176.6402
996.10 176.1915
996.20 175.7427
996.30 175.2939
996.40 174.8451
996.50 174.3963
996.60 173.9475
996.70 173.4987
996.80 173.0499
996.90 172.6011
997.00 172.1523
997.10 171.7036
997.20 171.2548
997.30 170.806
997.40 170.3572
997.50 169.9084
997.60 169.4596
997.70 169.0108
997.80 168.562
997.90 168.1132
998.00 167.6644
998.10 167.2157
998.20 166.7669
998.30 166.3181
998.40 165.8693
998.50 165.4205
998.60 164.9717
998.70 164.5229
998.80 164.0741
998.90 163.6253
999.00 163.1765
999.10 162.9706
999.20 162.9012
999.30 162.8318
999.40 162.7625
999.50 162.6931
999.60 162.6237
999.70 162.5543
999.80 162.485
999.90 162.4156
1000.00 162.3462
1000.10 162.2768
1000.20 162.2075
1000.30 162.1381
1000.40 162.0687
1000.50 161.9993
1000.60 161.9299
1000.70 161.8606
1000.80 161.7912
1000.90 161.7218
1001.00 161.6524
1001.10 161.5831
1001.20 161.5137
1001.30 161.4443
1001.40 161.3749
1001.50 161.3056
1001.60 161.2362
1001.70 161.1668
1001.80 161.0974
1001.90 161.0281
1002.00 160.9587
1002.10 160.8893
1002.20 160.8199
1002.30 160.7506
1002.40 160.6812
1002.50 160.6118
1002.60 160.5424
1002.70 160.4731
1002.80 160.4037
1002.90 160.3558
1003.00 160.5007
1003.10 160.6457
1003.20 160.7907
1003.30 160.9357
1003.40 161.0807
1003.50 161.2256
1003.60 161.3706
1003.70 161.5156
1003.80 161.6606
1003.90 161.8056
1004.00 161.9505
1004.10 162.0955
1004.20 162.2405
1004.30 162.3855
1004.40 162.5305
1004.50 162.6754
1004.60 162.8204
1004.70 162.9654
1004.80 163.1104
1004.90 163.2554
1005.00 163.4004
1005.10 163.5453
1005.20 163.6903
1005.30 163.8353
1005.40 163.9803
1005.50 164.1253
1005.60 164.2702
1005.70 164.4152
1005.80 164.5602
1005.90 164.7052
1006.00 164.8502
1006.10 164.9951
1006.20 165.1401
1006.30 165.2851
1006.40 165.4301
1006.50 165.5751
1006.60 165.72
1006.70 165.865
1006.80 166.0652
1006.90 166.3483
1007.00 166.6313
1007.10 166.9143
1007.20 167.1974
1007.30 167.4804
1007.40 167.7634
1007.50 168.0464
1007.60 168.3295
1007.70 168.6125
1007.80 168.8955
1007.90 169.1786
1008.00 169.4616
1008.10 169.7446
1008.20 170.0277
1008.30 170.3107
1008.40 170.5937
1008.50 170.8768
1008.60 171.1598
1008.70 171.4428
1008.80 171.7259
1008.90 172.0089
1009.00 172.2919
1009.10 172.5749
1009.20 172.858
1009.30 173.141
1009.40 173.424
1009.50 173.7071
1009.60 173.9901
1009.70 174.2731
1009.80 174.5562
1009.90 174.8392
1010.00 175.1222
1010.10 175.4053
1010.20 175.6883
1010.30 175.9713
1010.40 176.2544
1010.50 176.5374
1010.60 176.8204
1010.70 176.8967
1010.80 176.8351
1010.90 176.7735
1011.00 176.7119
1011.10 176.6503
1011.20 176.5887
1011.30 176.5271
1011.40 176.4655
1011.50 176.4039
1011.60 176.3423
1011.70 176.2807
1011.80 176.2191
1011.90 176.1575
1012.00 176.0959
1012.10 176.0343
1012.20 175.9727
1012.30 175.9111
1012.40 175.8495
1012.50 175.7879
1012.60 175.7263
1012.70 175.6647
1012.80 175.6032
1012.90 175.5416
1013.00 175.48
1013.10 175.4184
1013.20 175.3568
1013.30 175.2952
1013.40 175.2336
1013.50 175.172
1013.60 175.1104
1013.70 175.0488
1013.80 174.9872
1013.90 174.9256
1014.00 174.864
1014.10 174.8024
1014.20 174.7408
1014.30 174.6792
1014.40 174.6176
1014.50 174.556
1014.60 174.7354
1014.70 175.0181
1014.80 175.3008
1014.90 175.5835
1015.00 175.8662
1015.10 176.1488
1015.20 176.4315
1015.30 176.7142
1015.40 176.9969
1015.50 177.2796
1015.60 177.5623
1015.70 177.845
1015.80 178.1276
1015.90 178.4103
1016.00 178.693
1016.10 178.9757
1016.20 179.2584
1016.30 179.5411
1016.40 179.8237
1016.50 180.1064
1016.60 180.3891
1016.70 180.6718
1016.80 180.9545
1016.90 181.2372
1017.00 181.5199
1017.10 181.8025
1017.20 182.0852
1017.30 182.3679
1017.40 182.6506
1017.50 182.9333
1017.60 183.216
1017.70 183.4987
1017.80 183.7813
1017.90 184.064
1018.00 184.3467
1018.10 184.6294
1018.20 184.9121
1018.30 185.1948
1018.40 185.4775
1018.50 185.61
1018.60 185.6423
1018.70 185.6747
1018.80 185.7071
1018.90 185.7395
1019.00 185.7718
1019.10 185.8042
1019.20 185.8366
1019.30 185.869
1019.40 185.9013
1019.50 185.9337
1019.60 185.9661
1019.70 185.9985
1019.80 186.0309
1019.90 186.0632
1020.00 186.0956
1020.10 186.128
1020.20 186.1604
1020.30 186.1927
1020.40 186.2251
1020.50 186.2575
1020.60 186.2899
1020.70 186.3223
1020.80 186.3546
1020.90 186.387
1021.00 186.4194
1021.10 186.4518
1021.20 186.4841
1021.30 186.5165
1021.40 186.5489
1021.50 186.5813
1021.60 186.6137
1021.70 186.646
1021.80 186.6784
1021.90 186.7108
1022.00 186.7432
1022.10 186.7755
1022.20 186.8079
1022.30 186.8403
1022.40 186.8109
1022.50 186.7199
1022.60 186.6288
1022.70 186.5377
1022.80 186.4466
1022.90 186.3556
1023.00 186.2645
1023.10 186.1734
1023.20 186.0823
1023.30 185.9912
1023.40 185.9002
1023.50 185.8091
1023.60 185.718
1023.70 185.6269
1023.80 185.5358
1023.90 185.4448
1024.00 185.3537
1024.10 185.2626
1024.20 185.1715
1024.30 185.0804
1024.40 184.9894
1024.50 184.8983
1024.60 184.8072
1024.70 184.7161
1024.80 184.625
1024.90 184.534
1025.00 184.4429
1025.10 184.3518
1025.20 184.2607
1025.30 184.1696
1025.40 184.0786
1025.50 183.9875
1025.60 183.8964
1025.70 183.8053
1025.80 183.7143
1025.90 183.6232
1026.00 183.5321
1026.10 183.441
1026.20 183.3499
1026.30 183.2776
1026.40 183.3735
1026.50 183.4694
1026.60 183.5654
1026.70 183.6613
1026.80 183.7573
1026.90 183.8532
1027.00 183.9492
1027.10 184.0451
1027.20 184.1411
1027.30 184.237
1027.40 184.333
1027.50 184.4289
1027.60 184.5248
1027.70 184.6208
1027.80 184.7167
1027.90 184.8127
1028.00 184.9086
1028.10 185.0046
1028.20 185.1005
1028.30 185.1965
1028.40 185.2924
1028.50 185.3883
1028.60 185.4843
1028.70 185.5802
1028.80 185.6762
1028.90 185.7721
1029.00 185.8681
1029.10 185.964
1029.20 186.06
1029.30 186.1559
1029.40 186.2518
1029.50 186.3478
1029.60 186.4437
1029.70 186.5397
1029.80 186.6356
1029.90 186.7316
1030.00 186.8275
1030.10 186.9235
1030.20 187.0194
1030.30 187.0819
1030.40 187.1301
1030.50 187.1783
1030.60 187.2265
1030.70 187.2747
1030.80 187.3229
1030.90 187.3711
1031.00 187.4193
1031.10 187.4676
1031.20 187.5158
1031.30 187.564
1031.40 187.6122
1031.50 187.6604
1031.60 187.7086
1031.70 187.7568
1031.80 187.805
1031.90 187.8532
1032.00 187.9014
1032.10 187.9496
1032.20 187.9978
1032.30 188.046
1032.40 188.0942
1032.50 188.1424
1032.60 188.1906
1032.70 188.2388
1032.80 188.287
1032.90 188.3352
1033.00 188.3834
1033.10 188.4316
1033.20 188.4798
1033.30 188.528
1033.40 188.5762
1033.50 188.6244
1033.60 188.6726
1033.70 188.7208
1033.80 188.769
1033.90 188.8172
1034.00 188.8654
1034.10 188.9136
1034.20 188.9876
1034.30 189.2936
1034.40 189.5995
1034.50 189.9055
1034.60 190.2114
1034.70 190.5174
1034.80 190.8233
1034.90 191.1293
1035.00 191.4353
1035.10 191.7412
1035.20 192.0472
1035.30 192.3531
1035.40 192.6591
1035.50 192.965
1035.60 193.271
1035.70 193.5769
1035.80 193.8829
1035.90 194.1888
1036.00 194.4948
1036.10 194.8007
1036.20 195.1067
1036.30 195.4126
1036.40 195.7186
1036.50 196.0246
1036.60 196.3305
1036.70 196.6365
1036.80 196.9424
1036.90 197.2484
1037.00 197.5543
1037.10 197.8603
1037.20 198.1662
1037.30 198.4722
1037.40 198.7781
1037.50 199.0841
1037.60 199.39
1037.70 199.696
1037.80 200.0019
1037.90 200.3079
1038.00 200.6139
1038.10 200.9198
1038.20 201.0783
1038.30 201.0155
1038.40 200.9528
1038.50 200.8901
1038.60 200.8273
1038.70 200.7646
1038.80 200.7018
1038.90 200.6391
1039.00 200.5764
1039.10 200.5136
1039.20 200.4509
1039.30 200.3881
1039.40 200.3254
1039.50 200.2627
1039.60 200.1999
1039.70 200.1372
1039.80 200.0744
1039.90 200.0117
1040.00 199.949
1040.10 199.8862
1040.20 199.8235
1040.30 199.7607
1040.40 199.698
1040.50 199.6353
1040.60 199.5725
1040.70 199.5098
1040.80 199.447
1040.90 199.3843
1041.00 199.3216
1041.10 199.2588
1041.20 199.1961
1041.30 199.1333
1041.40 199.0706
1041.50 199.0079
1041.60 198.9451
1041.70 198.8824
1041.80 198.8196
1041.90 198.7569
1042.00 198.6941
1042.10 198.6314
1042.20 198.7683
1042.30 199.0382
1042.40 199.3082
1042.50 199.5781
1042.60 199.8481
1042.70 200.118
1042.80 200.388
1042.90 200.6579
1043.00 200.9279
1043.10 201.1978
1043.20 201.4678
1043.30 201.7377
1043.40 202.0077
1043.50 202.2776
1043.60 202.5476
1043.70 202.8175
1043.80 203.0875
1043.90 203.3575
1044.00 203.6274
1044.10 203.8974
1044.20 204.1673
1044.30 204.4373
1044.40 204.7072
1044.50 204.9772
1044.60 205.2471
1044.70 205.5171
1044.80 205.787
1044.90 206.057
1045.00 206.3269
1045.10 206.5969
1045.20 206.8668
1045.30 207.1368
1045.40 207.4067
1045.50 207.6767
1045.60 207.9466
1045.70 208.2166
1045.80 208.4865
1045.90 208.7565
1046.00 209.0264
1046.10 209.2964
1046.20 209.338
1046.30 209.2817
1046.40 209.2254
1046.50 209.1691
1046.60 209.1128
1046.70 209.0565
1046.80 209.0002
1046.90 208.9439
1047.00 208.8876
1047.10 208.8313
1047.20 208.775
1047.30 208.7187
1047.40 208.6624
1047.50 208.6061
1047.60 208.5498
1047.70 208.4935
1047.80 208.4372
1047.90 208.3809
1048.00 208.3246
1048.10 208.2683
1048.20 208.212
1048.30 208.1557
1048.40 208.0994
1048.50 208.0431
1048.60 207.9868
1048.70 207.9305
1048.80 207.8742
1048.90 207.8179
1049.00 207.7616
1049.10 207.7053
1049.20 207.649
1049.30 207.5927
1049.40 207.5364
1049.50 207.4801
1049.60 207.4238
1049.70 207.3675
1049.80 207.3112
1049.90 207.255
1050.00 207.1987
1050.10 207.1424
1050.20 207.1507
1050.30 207.1867
1050.40 207.2227
1050.50 207.2587
1050.60 207.2947
1050.70 207.3308
1050.80 207.3668
1050.90 207.4028
1051.00 207.4388
1051.10 207.4748
1051.20 207.5108
1051.30 207.5469
1051.40 207.5829
1051.50 207.6189
1051.60 207.6549
1051.70 207.6909
1051.80 207.7269
1051.90 207.763
1052.00 207.799
1052.10 207.835
1052.20 207.871
1052.30 207.907
1052.40 207.943
1052.50 207.9791
1052.60 208.0151
1052.70 208.0511
1052.80 208.0871
1052.90 208.1231
1053.00 208.1591
1053.10 208.1952
1053.20 208.2312
1053.30 208.2672
1053.40 208.3032
1053.50 208.3392
1053.60 208.3752
1053.70 208.4113
1053.80 208.4473
1053.90 208.4833
1054.00 208.5193
1054.10 208.5553
1054.20 208.617
1054.30 208.7044
1054.40 208.7919
1054.50 208.8793
1054.60 208.9667
1054.70 209.0541
1054.80 209.1415
1054.90 209.2289
1055.00 209.3163
1055.10 209.4037
1055.20 209.4911
1055.30 209.5785
1055.40 209.6659
1055.50 209.7533
1055.60 209.8408
1055.70 209.9282
1055.80 210.0156
1055.90 210.103
1056.00 210.1904
1056.10 210.2778
1056.20 210.3652
1056.30 210.4526
1056.40 210.54
1056.50 210.6274
1056.60 210.7148
1056.70 210.8022
1056.80 210.8896
1056.90 210.9771
1057.00 211.0645
1057.10 211.1519
1057.20 211.2393
1057.30 211.3267
1057.40 211.4141
1057.50 211.5015
1057.60 211.5889
1057.70 211.6763
1057.80 211.7637
1057.90 211.8511
1058.00 211.9385
1058.10 212.0259
1058.20 212.1116
1058.30 212.193
1058.40 212.2743
1058.50 212.3557
1058.60 212.4371
1058.70 212.5185
1058.80 212.5999
1058.90 212.6813
1059.00 212.7627
1059.10 212.8441
1059.20 212.9255
1059.30 213.0069
1059.40 213.0883
1059.50 213.1697
1059.60 213.2511
1059.70 213.3325
1059.80 213.4139
1059.90 213.4953
1060.00 213.5767
1060.10 213.6581
1060.20 213.7395
1060.30 213.8209
1060.40 213.9023
1060.50 213.9837
1060.60 214.0651
1060.70 214.1465
1060.80 214.2279
1060.90 214.3093
1061.00 214.3907
1061.10 214.4721
1061.20 214.5535
1061.30 214.6349
1061.40 214.7163
1061.50 214.7977
1061.60 214.8791
1061.70 214.9605
1061.80 215.0418
1061.90 215.1232
1062.00 215.2046
1062.10 215.286
1062.20 215.3674
1062.30 215.4698
1062.40 215.5744
1062.50 215.6791
1062.60 215.7838
1062.70 215.8884
1062.80 215.9931
1062.90 216.0977
1063.00 216.2024
1063.10 216.3071
1063.20 216.4117
1063.30 216.5164
1063.40 216.6211
1063.50 216.7257
1063.60 216.8304
1063.70 216.935
1063.80 217.0397
1063.90 217.1444
1064.00 217.249
1064.10 217.3537
1064.20 217.4584
1064.30 217.563
1064.40 217.6677
1064.50 217.7723
1064.60 217.877
1064.70 217.9817
1064.80 218.0863
1064.90 218.191
1065.00 218.2956
1065.10 218.4003
1065.20 218.505
1065.30 218.6096
1065.40 218.7143
1065.50 218.819
1065.60 218.9236
1065.70 219.0283
1065.80 219.1329
1065.90 219.2376
1066.00 219.3423
1066.10 219.4469
1066.20 219.5516
1066.30 219.6626
1066.40 219.7832
1066.50 219.9038
1066.60 220.0244
1066.70 220.145
1066.80 220.2656
1066.90 220.3862
1067.00 220.5068
1067.10 220.6274
1067.20 220.748
1067.30 220.8686
1067.40 220.9892
1067.50 221.1098
1067.60 221.2304
1067.70 221.3509
1067.80 221.4715
1067.90 221.5921
1068.00 221.7127
1068.10 221.8333
1068.20 221.9539
1068.30 222.0745
1068.40 222.1951
1068.50 222.3157
1068.60 222.4363
1068.70 222.5569
1068.80 222.6775
1068.90 222.7981
1069.00 222.9187
1069.10 223.0393
1069.20 223.1599
1069.30 223.2805
1069.40 223.4011
1069.50 223.5217
1069.60 223.6422
1069.70 223.7628
1069.80 223.8834
1069.90 224.004
1070.00 224.1246
1070.10 224.2452
1070.20 224.3658
1070.30 224.4864
1070.40 224.5924
1070.50 224.6968
1070.60 224.8012
1070.70 224.9056
1070.80 225.01
1070.90 225.1144
1071.00 225.2188
1071.10 225.3232
1071.20 225.4276
1071.30 225.532
1071.40 225.6364
1071.50 225.7408
1071.60 225.8452
1071.70 225.9496
1071.80 226.054
1071.90 226.1584
1072.00 226.2628
1072.10 226.3672
1072.20 226.4716
1072.30 226.576
1072.40 226.6804
1072.50 226.7848
1072.60 226.8892
1072.70 226.9936
1072.80 227.098
1072.90 227.2024
1073.00 227.3068
1073.10 227.4112
1073.20 227.5156
1073.30 227.62
1073.40 227.7244
1073.50 227.8288
1073.60 227.9332
1073.70 228.0376
1073.80 228.142
1073.90 228.2464
1074.00 228.3508
1074.10 228.4552
1074.20 228.5596
1074.30 228.664
1074.40 228.7703
1074.50 228.884
1074.60 228.9976
1074.70 229.1113
1074.80 229.225
1074.90 229.3387
1075.00 229.4524
1075.10 229.566
1075.20 229.6797
1075.30 229.7934
1075.40 229.9071
1075.50 230.0208
1075.60 230.1345
1075.70 230.2481
1075.80 230.3618
1075.90 230.4755
1076.00 230.5892
1076.10 230.7029
1076.20 230.8165
1076.30 230.9302
1076.40 231.0439
1076.50 231.1576
1076.60 231.2713
1076.70 231.3849
1076.80 231.4986
1076.90 231.6123
1077.00 231.726
1077.10 231.8397
1077.20 231.9534
1077.30 232.067
1077.40 232.1807
1077.50 232.2944
1077.60 232.4081
1077.70 232.5218
1077.80 232.6354
1077.90 232.7491
1078.00 232.8628
1078.10 232.9765
1078.20 233.0902
1078.30 233.2038
1078.40 233.3175
1078.50 233.3823
1078.60 233.3738
1078.70 233.3653
1078.80 233.3567
1078.90 233.3482
1079.00 233.3397
1079.10 233.3311
1079.20 233.3226
1079.30 233.3141
1079.40 233.3055
1079.50 233.297
1079.60 233.2885
1079.70 233.2799
1079.80 233.2714
1079.90 233.2629
1080.00 233.2543
1080.10 233.2458
1080.20 233.2373
1080.30 233.2287
1080.40 233.2202
1080.50 233.2117
1080.60 233.2031
1080.70 233.1946
1080.80 233.1861
1080.90 233.1775
1081.00 233.169
1081.10 233.1605
1081.20 233.1519
1081.30 233.1434
1081.40 233.1349
1081.50 233.1263
1081.60 233.1178
1081.70 233.1093
1081.80 233.1007
1081.90 233.0922
1082.00 233.0837
1082.10 233.0751
1082.20 233.0666
1082.30 233.0581
1082.40 233.0495
1082.50 233.041
1082.60 233.1693
1082.70 233.4344
1082.80 233.6995
1082.90 233.9646
1083.00 234.2297
1083.10 234.4948
1083.20 234.76
1083.30 235.0251
1083.40 235.2902
1083.50 235.5553
1083.60 235.8204
1083.70 236.0855
1083.80 236.3506
1083.90 236.6158
1084.00 236.8809
1084.10 237.146
1084.20 237.4111
1084.30 237.6762
1084.40 237.9413
1084.50 238.2064
1084.60 238.4716
1084.70 238.7367
1084.80 239.0018
1084.90 239.2669
1085.00 239.532
1085.10 239.7971
1085.20 240.0622
1085.30 240.3273
1085.40 240.5925
1085.50 240.8576
1085.60 241.1227
1085.70 241.3878
1085.80 241.6529
1085.90 241.918
1086.00 242.1831
1086.10 242.4483
1086.20 242.7134
1086.30 242.9785
1086.40 243.2436
1086.50 243.5087
1086.60 243.7738
1086.70 243.9491
1086.80 244.0644
1086.90 244.1797
1087.00 244.295
1087.10 244.4104
1087.20 244.5257
1087.30 244.641
1087.40 244.7563
1087.50 244.8717
1087.60 244.987
1087.70 245.1023
1087.80 245.2176
1087.90 245.333
1088.00 245.4483
1088.10 245.5636
1088.20 245.679
1088.30 245.7943
1088.40 245.9096
1088.50 246.0249
1088.60 246.1403
1088.70 246.2556
1088.80 246.3709
1088.90 246.4862
1089.00 246.6016
1089.10 246.7169
1089.20 246.8322
1089.30 246.9475
1089.40 247.0629
1089.50 247.1782
1089.60 247.2935
1089.70 247.4088
1089.80 247.5242
1089.90 247.6395
1090.00 247.7548
1090.10 247.8701
1090.20 247.9855
1090.30 248.1008
1090.40 248.2161
1090.50 248.3314
1090.60 248.4468
1090.70 248.5621
1090.80 248.5994
1090.90 248.5588
1091.00 248.5182
1091.10 248.4776
1091.20 248.4369
1091.30 248.3963
1091.40 248.3557
1091.50 248.315
1091.60 248.2744
1091.70 248.2338
1091.80 248.1931
1091.90 248.1525
1092.00 248.1119
1092.10 248.0713
1092.20 248.0306
1092.30 247.99
1092.40 247.9494
1092.50 247.9087
1092.60 247.8681
1092.70 247.8275
1092.80 247.7869
1092.90 247.7462
1093.00 247.7056
1093.10 247.665
1093.20 247.6243
1093.30 247.5837
1093.40 247.5431
1093.50 247.5024
1093.60 247.4618
1093.70 247.4212
1093.80 247.3806
1093.90 247.3399
1094.00 247.2993
1094.10 247.2587
1094.20 247.218
1094.30 247.1774
1094.40 247.1368
1094.50 247.0961
1094.60 247.0555
1094.70 247.0149
1094.80 246.9743
1094.90 247.0329
1095.00 247.2405
1095.10 247.4481
1095.20 247.6557
1095.30 247.8633
1095.40 248.0709
1095.50 248.2785
1095.60 248.4861
1095.70 248.6937
1095.80 248.9013
1095.90 249.1089
1096.00 249.3165
1096.10 249.5241
1096.20 249.7317
1096.30 249.9393
1096.40 250.1469
1096.50 250.3545
1096.60 250.5621
1096.70 250.7697
1096.80 250.9773
1096.90 251.1849
1097.00 251.3925
1097.10 251.6001
1097.20 251.8077
1097.30 252.0153
1097.40 252.2229
1097.50 252.4305
1097.60 252.6381
1097.70 252.8457
1097.80 253.0533
1097.90 253.2609
1098.00 253.4685
1098.10 253.6761
1098.20 253.8837
1098.30 254.0913
1098.40 254.2989
1098.50 254.5065
1098.60 254.7141
1098.70 254.9217
1098.80 255.1293
1098.90 255.3369
1099.00 255.5104
1099.10 255.3778
1099.20 255.2452
1099.30 255.1126
1099.40 254.9799
1099.50 254.8473
1099.60 254.7147
1099.70 254.582
1099.80 254.4494
1099.90 254.3168
1100.00 254.1842
1100.10 254.0515
1100.20 253.9189
1100.30 253.7863
1100.40 253.6536
1100.50 253.521
1100.60 253.3884
1100.70 253.2558
1100.80 253.1231
1100.90 252.9905
1101.00 252.8579
1101.10 252.7252
1101.20 252.5926
1101.30 252.46
1101.40 252.3274
1101.50 252.1947
1101.60 252.0621
1101.70 251.9295
1101.80 251.7968
1101.90 251.6642
1102.00 251.5316
1102.10 251.399
1102.20 251.2663
1102.30 251.1337
1102.40 251.0011
1102.50 250.8684
1102.60 250.7358
1102.70 250.6032
1102.80 250.4706
1102.90 250.3379
1103.00 250.2053
1103.10 250.0727
1103.20 249.9363
1103.30 249.7989
1103.40 249.6616
1103.50 249.5243
1103.60 249.3869
1103.70 249.2496
1103.80 249.1123
1103.90 248.9749
1104.00 248.8376
1104.10 248.7003
1104.20 248.5629
1104.30 248.4256
1104.40 248.2882
1104.50 248.1509
1104.60 248.0136
1104.70 247.8762
1104.80 247.7389
1104.90 247.6016
1105.00 247.4642
1105.10 247.3269
1105.20 247.1896
1105.30 247.0522
1105.40 246.9149
1105.50 246.7775
1105.60 246.6402
1105.70 246.5029
1105.80 246.3655
1105.90 246.2282
1106.00 246.0909
1106.10 245.9535
1106.20 245.8162
1106.30 245.6789
1106.40 245.5415
1106.50 245.4042
1106.60 245.2668
1106.70 245.1295
1106.80 244.9922
1106.90 244.8548
1107.00 244.7175
1107.10 244.5802
1107.20 244.4428
1107.30 244.3281
1107.40 244.2471
1107.50 244.1662
1107.60 244.0853
1107.70 244.0044
1107.80 243.9235
1107.90 243.8425
1108.00 243.7616
1108.10 243.6807
1108.20 243.5998
1108.30 243.5189
1108.40 243.4379
1108.50 243.357
1108.60 243.2761
1108.70 243.1952
1108.80 243.1143
1108.90 243.0333
1109.00 242.9524
1109.10 242.8715
1109.20 242.7906
1109.30 242.7097
1109.40 242.6288
1109.50 242.5478
1109.60 242.4669
1109.70 242.386
1109.80 242.3051
1109.90 242.2242
1110.00 242.1432
1110.10 242.0623
1110.20 241.9814
1110.30 241.9005
1110.40 241.8196
1110.50 241.7386
1110.60 241.6577
1110.70 241.5768
1110.80 241.4959
1110.90 241.415
1111.00 241.334
1111.10 241.2531
1111.20 241.1722
1111.30 241.0913
1111.40 241.0104
1111.50 240.8467
1111.60 240.6739
1111.70 240.5011
1111.80 240.3282
1111.90 240.1554
1112.00 239.9825
1112.10 239.8097
1112.20 239.6369
1112.30 239.464
1112.40 239.2912
1112.50 239.1184
1112.60 238.9455
1112.70 238.7727
1112.80 238.5999
1112.90 238.427
1113.00 238.2542
1113.10 238.0814
1113.20 237.9085
1113.30 237.7357
1113.40 237.5629
1113.50 237.39
1113.60 237.2172
1113.70 237.0444
1113.80 236.8715
1113.90 236.6987
1114.00 236.5258
1114.10 236.353
1114.20 236.1802
1114.30 236.0073
1114.40 235.8345
1114.50 235.6617
1114.60 235.4888
1114.70 235.316
1114.80 235.1432
1114.90 234.9703
1115.00 234.7975
1115.10 234.6247
1115.20 234.4518
1115.30 234.279
1115.40 234.1062
1115.50 233.9333
1115.60 233.8845
1115.70 234.1251
1115.80 234.3656
1115.90 234.6062
1116.00 234.8467
1116.10 235.0873
1116.20 235.3278
1116.30 235.5684
1116.40 235.8089
1116.50 236.0495
1116.60 236.29
1116.70 236.5306
1116.80 236.7711
1116.90 237.0117
1117.00 237.2522
1117.10 237.4928
1117.20 237.7333
1117.30 237.9739
1117.40 238.2144
1117.50 238.455
1117.60 238.6955
1117.70 238.9361
1117.80 239.1766
1117.90 239.4172
1118.00 239.6577
1118.10 239.8983
1118.20 240.1388
1118.30 240.3794
1118.40 240.62
1118.50 240.8605
1118.60 241.1011
1118.70 241.3416
1118.80 241.5822
1118.90 241.8227
1119.00 242.0633
1119.10 242.3038
1119.20 242.5444
1119.30 242.7849
1119.40 243.0255
1119.50 243.266
1119.60 243.5066
1119.70 243.7471
1119.80 243.8558
1119.90 243.8764
1120.00 243.8971
1120.10 243.9178
1120.20 243.9385
1120.30 243.9592
1120.40 243.9799
1120.50 244.0005
1120.60 244.0212
1120.70 244.0419
1120.80 244.0626
1120.90 244.0833
1121.00 244.104
1121.10 244.1246
1121.20 244.1453
1121.30 244.166
1121.40 244.1867
1121.50 244.2074
1121.60 244.2281
1121.70 244.2487
1121.80 244.2694
1121.90 244.2901
1122.00 244.3108
1122.10 244.3315
1122.20 244.3522
1122.30 244.3728
1122.40 244.3935
1122.50 244.4142
1122.60 244.4349
1122.70 244.4556
1122.80 244.4763
1122.90 244.497
1123.00 244.5176
1123.10 244.5383
1123.20 244.559
1123.30 244.5797
1123.40 244.6004
1123.50 244.6211
1123.60 244.6417
1123.70 244.6624
1123.80 244.6831
1123.90 244.7038
1124.00 244.6212
1124.10 244.5271
1124.20 244.433
1124.30 244.3389
1124.40 244.2449
1124.50 244.1508
1124.60 244.0567
1124.70 243.9626
1124.80 243.8686
1124.90 243.7745
1125.00 243.6804
1125.10 243.5863
1125.20 243.4922
1125.30 243.3982
1125.40 243.3041
1125.50 243.21
1125.60 243.1159
1125.70 243.0218
1125.80 242.9278
1125.90 242.8337
1126.00 242.7396
1126.10 242.6455
1126.20 242.5514
1126.30 242.4574
1126.40 242.3633
1126.50 242.2692
1126.60 242.1751
1126.70 242.081
1126.80 241.987
1126.90 241.8929
1127.00 241.7988
1127.10 241.7047
1127.20 241.6106
1127.30 241.5166
1127.40 241.4225
1127.50 241.3284
1127.60 241.2343
1127.70 241.1402
1127.80 241.0462
1127.90 240.9521
1128.00 240.858
1128.10 240.7661
1128.20 240.6938
1128.30 240.6214
1128.40 240.5491
1128.50 240.4768
1128.60 240.4044
1128.70 240.3321
1128.80 240.2598
1128.90 240.1874
1129.00 240.1151
1129.10 240.0427
1129.20 239.9704
1129.30 239.8981
1129.40 239.8257
1129.50 239.7534
1129.60 239.6811
1129.70 239.6087
1129.80 239.5364
1129.90 239.4641
1130.00 239.3917
1130.10 239.3194
1130.20 239.2471
1130.30 239.1747
1130.40 239.1024
1130.50 239.03
1130.60 238.9577
1130.70 238.8854
1130.80 238.813
1130.90 238.7407
1131.00 238.6684
1131.10 238.596
1131.20 238.5237
1131.30 238.4514
1131.40 238.379
1131.50 238.3067
1131.60 238.2344
1131.70 238.162
1131.80 238.0897
1131.90 238.0174
1132.00 237.945
1132.10 237.8727
1132.20 237.8003
1132.30 237.8067
1132.40 238.1276
1132.50 238.4485
1132.60 238.7695
1132.70 239.0904
1132.80 239.4114
1132.90 239.7323
1133.00 240.0532
1133.10 240.3742
1133.20 240.6951
1133.30 241.0161
1133.40 241.337
1133.50 241.658
1133.60 241.9789
1133.70 242.2998
1133.80 242.6208
1133.90 242.9417
1134.00 243.2627
1134.10 243.5836
1134.20 243.9045
1134.30 244.2255
1134.40 244.5464
1134.50 244.8674
1134.60 245.1883
1134.70 245.5092
1134.80 245.8302
1134.90 246.1511
1135.00 246.4721
1135.10 246.793
1135.20 247.1139
1135.30 247.4349
1135.40 247.7558
1135.50 248.0768
1135.60 248.3977
1135.70 248.7186
1135.80 249.0396
1135.90 249.3605
1136.00 249.6815
1136.10 250.0024
1136.20 250.3233
1136.30 250.6443
1136.40 250.9652
1136.50 251.111
1136.60 250.848
1136.70 250.5851
1136.80 250.3221
1136.90 250.0591
1137.00 249.7962
1137.10 249.5332
1137.20 249.2703
1137.30 249.0073
1137.40 248.7443
1137.50 248.4814
1137.60 248.2184
1137.70 247.9555
1137.80 247.6925
1137.90 247.4295
1138.00 247.1666
1138.10 246.9036
1138.20 246.6406
1138.30 246.3777
1138.40 246.1147
1138.50 245.8518
1138.60 245.5888
1138.70 245.3258
1138.80 245.0629
1138.90 244.7999
1139.00 244.5369
1139.10 244.274
1139.20 244.011
1139.30 243.7481
1139.40 243.4851
1139.50 243.2221
1139.60 242.9592
1139.70 242.6962
1139.80 242.4333
1139.90 242.1703
1140.00 241.9073
1140.10 241.6444
1140.20 241.3814
1140.30 241.1184
1140.40 240.8555
1140.50 240.5925
1140.60 240.3296
1140.70 240.1119
1140.80 239.9999
1140.90 239.8879
1141.00 239.7758
1141.10 239.6638
1141.20 239.5518
1141.30 239.4398
1141.40 239.3278
1141.50 239.2158
1141.60 239.1038
1141.70 238.9917
1141.80 238.8797
1141.90 238.7677
1142.00 238.6557
1142.10 238.5437
1142.20 238.4317
1142.30 238.3197
1142.40 238.2076
1142.50 238.0956
1142.60 237.9836
1142.70 237.8716
1142.80 237.7596
1142.90 237.6476
1143.00 237.5356
1143.10 237.4236
1143.20 237.3115
1143.30 237.1995
1143.40 237.0875
1143.50 236.9755
1143.60 236.8635
1143.70 236.7515
1143.80 236.6395
1143.90 236.5274
1144.00 236.4154
1144.10 236.3034
1144.20 236.1914
1144.30 236.0794
1144.40 235.9674
1144.50 235.8554
1144.60 235.7433
1144.70 235.6313
1144.80 235.5193
1144.90 235.482
1145.00 235.7433
1145.10 236.0046
1145.20 236.2659
1145.30 236.5272
1145.40 236.7885
1145.50 237.0498
1145.60 237.3111
1145.70 237.5724
1145.80 237.8337
1145.90 238.095
1146.00 238.3564
1146.10 238.6177
1146.20 238.879
1146.30 239.1403
1146.40 239.4016
1146.50 239.6629
1146.60 239.9242
1146.70 240.1855
1146.80 240.4468
1146.90 240.7081
1147.00 240.9694
1147.10 241.2307
1147.20 241.4921
1147.30 241.7534
1147.40 242.0147
1147.50 242.276
1147.60 242.5373
1147.70 242.7986
1147.80 243.0599
1147.90 243.3212
1148.00 243.5825
1148.10 243.8438
1148.20 244.1051
1148.30 244.3664
1148.40 244.6278
1148.50 244.8891
1148.60 245.1504
1148.70 245.4117
1148.80 245.673
1148.90 245.9343
1149.00 246.1956
1149.10 246.4569
1149.20 246.7053
1149.30 246.9537
1149.40 247.2021
1149.50 247.4506
1149.60 247.699
1149.70 247.9474
1149.80 248.1958
1149.90 248.4442
1150.00 248.6926
1150.10 248.941
1150.20 249.1894
1150.30 249.4378
1150.40 249.6862
1150.50 249.9347
1150.60 250.1831
1150.70 250.4315
1150.80 250.6799
1150.90 250.9283
1151.00 251.1767
1151.10 251.4251
1151.20 251.6735
1151.30 251.9219
1151.40 252.1703
1151.50 252.4188
1151.60 252.6672
1151.70 252.9156
1151.80 253.164
1151.90 253.4124
1152.00 253.6608
1152.10 253.9092
1152.20 254.1576
1152.30 254.406
1152.40 254.6544
1152.50 254.9029
1152.60 255.1513
1152.70 255.3997
1152.80 255.6481
1152.90 255.8965
1153.00 256.1449
1153.10 256.3933
1153.20 256.6417
1153.30 256.8901
1153.40 256.9506
1153.50 256.9641
1153.60 256.9776
1153.70 256.9911
1153.80 257.0046
1153.90 257.0181
1154.00 257.0316
1154.10 257.0451
1154.20 257.0586
1154.30 257.0721
1154.40 257.0856
1154.50 257.0991
1154.60 257.1126
1154.70 257.1261
1154.80 257.1396
1154.90 257.1531
1155.00 257.1666
1155.10 257.1801
1155.20 257.1936
1155.30 257.2071
1155.40 257.2206
1155.50 257.2341
1155.60 257.2476
1155.70 257.2611
1155.80 257.2746
1155.90 257.2881
1156.00 257.3016
1156.10 257.3151
1156.20 257.3286
1156.30 257.342
1156.40 257.3555
1156.50 257.369
1156.60 257.3825
1156.70 257.396
1156.80 257.4095
1156.90 257.423
1157.00 257.4365
1157.10 257.45
1157.20 257.4635
1157.30 257.477
1157.40 257.4905
1157.50 257.504
1157.60 257.5837
1157.70 257.7075
1157.80 257.8314
1157.90 257.9552
1158.00 258.079
1158.10 258.2028
1158.20 258.3266
1158.30 258.4505
1158.40 258.5743
1158.50 258.6981
1158.60 258.8219
1158.70 258.9458
1158.80 259.0696
1158.90 259.1934
1159.00 259.3172
1159.10 259.441
1159.20 259.5649
1159.30 259.6887
1159.40 259.8125
1159.50 259.9363
1159.60 260.0602
1159.70 260.184
1159.80 260.3078
1159.90 260.4316
1160.00 260.5554
1160.10 260.6793
1160.20 260.8031
1160.30 260.9269
1160.40 261.0507
1160.50 261.1745
1160.60 261.2984
1160.70 261.4222
1160.80 261.546
1160.90 261.6698
1161.00 261.7937
1161.10 261.9175
1161.20 262.0413
1161.30 262.1651
1161.40 262.2889
1161.50 262.4128
1161.60 262.5366
1161.70 262.6604
1161.80 262.7691
1161.90 262.817
1162.00 262.8649
1162.10 262.9129
1162.20 262.9608
1162.30 263.0088
1162.40 263.0567
1162.50 263.1047
1162.60 263.1526
1162.70 263.2005
1162.80 263.2485
1162.90 263.2964
1163.00 263.3444
1163.10 263.3923
1163.20 263.4403
1163.30 263.4882
1163.40 263.5361
1163.50 263.5841
1163.60 263.632
1163.70 263.68
1163.80 263.7279
1163.90 263.7759
1164.00 263.8238
1164.10 263.8717
1164.20 263.9197
1164.30 263.9676
1164.40 264.0156
1164.50 264.0635
1164.60 264.1114
1164.70 264.1594
1164.80 264.2073
1164.90 264.2553
1165.00 264.3032
1165.10 264.3512
1165.20 264.3991
1165.30 264.447
1165.40 264.495
1165.50 264.5429
1165.60 264.5909
1165.70 264.6388
1165.80 264.6868
1165.90 264.7347
1166.00 264.7826
1166.10 264.5395
1166.20 264.264
1166.30 263.9885
1166.40 263.7131
1166.50 263.4376
1166.60 263.1621
1166.70 262.8866
1166.80 262.6111
1166.90 262.3356
1167.00 262.0602
1167.10 261.7847
1167.20 261.5092
1167.30 261.2337
1167.40 260.9582
1167.50 260.6827
1167.60 260.4073
1167.70 260.1318
1167.80 259.8563
1167.90 259.5808
1168.00 259.3053
1168.10 259.0298
1168.20 258.7544
1168.30 258.4789
1168.40 258.2034
1168.50 257.9279
1168.60 257.6524
1168.70 257.3769
1168.80 257.1015
1168.90 256.826
1169.00 256.5505
1169.10 256.275
1169.20 255.9995
1169.30 255.724
1169.40 255.4485
1169.50 255.1731
1169.60 254.8976
1169.70 254.6221
1169.80 254.3466
1169.90 254.0711
1170.00 253.7956
1170.10 253.5202
1170.20 253.2447
1170.30 253.0015
1170.40 252.8066
1170.50 252.6118
1170.60 252.4169
1170.70 252.2221
1170.80 252.0272
1170.90 251.8324
1171.00 251.6375
1171.10 251.4427
1171.20 251.2478
1171.30 251.053
1171.40 250.8582
1171.50 250.6633
1171.60 250.4685
1171.70 250.2736
1171.80 250.0788
1171.90 249.8839
1172.00 249.6891
1172.10 249.4942
1172.20 249.2994
1172.30 249.1046
1172.40 248.9097
1172.50 248.7149
1172.60 248.52
1172.70 248.3252
1172.80 248.1303
1172.90 247.9355
1173.00 247.7406
1173.10 247.5458
1173.20 247.351
1173.30 247.1561
1173.40 246.9613
1173.50 246.7664
1173.60 246.5716
1173.70 246.3767
1173.80 246.1819
1173.90 245.987
1174.00 245.7922
1174.10 245.5973
1174.20 245.4025
1174.30 245.2077
1174.40 245.0128
1174.50 244.818
1174.60 244.7551
1174.70 244.7068
1174.80 244.6585
1174.90 244.6103
1175.00 244.562
1175.10 244.5138
1175.20 244.4655
1175.30 244.4173
1175.40 244.369
1175.50 244.3207
1175.60 244.2725
1175.70 244.2242
1175.80 244.176
1175.90 244.1277
1176.00 244.0795
1176.10 244.0312
1176.20 243.983
1176.30 243.9347
1176.40 243.8864
1176.50 243.8382
1176.60 243.7899
1176.70 243.7417
1176.80 243.6934
1176.90 243.6452
1177.00 243.5969
1177.10 243.5486
1177.20 243.5004
1177.30 243.4521
1177.40 243.4039
1177.50 243.3556
1177.60 243.3074
1177.70 243.2591
1177.80 243.2109
1177.90 243.1626
1178.00 243.1143
1178.10 243.0661
1178.20 243.0178
1178.30 242.9696
1178.40 242.9213
1178.50 242.8731
1178.60 242.8248
1178.70 242.7765
1178.80 242.804
1178.90 242.945
1179.00 243.086
1179.10 243.227
1179.20 243.3681
1179.30 243.5091
1179.40 243.6501
1179.50 243.7911
1179.60 243.9321
1179.70 244.0731
1179.80 244.2142
1179.90 244.3552
1180.00 244.4962
1180.10 244.6372
1180.20 244.7782
1180.30 244.9192
1180.40 245.0603
1180.50 245.2013
1180.60 245.3423
1180.70 245.4833
1180.80 245.6243
1180.90 245.7653
1181.00 245.9064
1181.10 246.0474
1181.20 246.1884
1181.30 246.3294
1181.40 246.4704
1181.50 246.6114
1181.60 246.7525
1181.70 246.8935
1181.80 247.0345
1181.90 247.1755
1182.00 247.3165
1182.10 247.4575
1182.20 247.5985
1182.30 247.7396
1182.40 247.8806
1182.50 248.0216
1182.60 248.1626
1182.70 248.3036
1182.80 248.4446
1182.90 248.5857
1183.00 248.7267
1183.10 248.6864
1183.20 248.6009
1183.30 248.5154
1183.40 248.4298
1183.50 248.3443
1183.60 248.2587
1183.70 248.1732
1183.80 248.0876
1183.90 248.0021
1184.00 247.9166
1184.10 247.831
1184.20 247.7455
1184.30 247.6599
1184.40 247.5744
1184.50 247.4888
1184.60 247.4033
1184.70 247.3178
1184.80 247.2322
1184.90 247.1467
1185.00 247.0611
1185.10 246.9756
1185.20 246.89
1185.30 246.8045
1185.40 246.719
1185.50 246.6334
1185.60 246.5479
1185.70 246.4623
1185.80 246.3768
1185.90 246.2912
1186.00 246.2057
1186.10 246.1201
1186.20 246.0346
1186.30 245.9491
1186.40 245.8635
1186.50 245.778
1186.60 245.6924
1186.70 245.6069
1186.80 245.5213
1186.90 245.4358
1187.00 245.3503
1187.10 245.2647
1187.20 245.1792
1187.30 245.1662
1187.40 245.4435
1187.50 245.7207
1187.60 245.998
1187.70 246.2753
1187.80 246.5525
1187.90 246.8298
1188.00 247.1071
1188.10 247.3843
1188.20 247.6616
1188.30 247.9389
1188.40 248.2161
1188.50 248.4934
1188.60 248.7707
1188.70 249.0479
1188.80 249.3252
1188.90 249.6025
1189.00 249.8797
1189.10 250.157
1189.20 250.4343
1189.30 250.7116
1189.40 250.9888
1189.50 251.2661
1189.60 251.5434
1189.70 251.8206
1189.80 252.0979
1189.90 252.3752
1190.00 252.6524
1190.10 252.9297
1190.20 253.207
1190.30 253.4842
1190.40 253.7615
1190.50 254.0388
1190.60 254.316
1190.70 254.5933
1190.80 254.8706
1190.90 255.1478
1191.00 255.4251
1191.10 255.7024
1191.20 255.9796
1191.30 256.2569
1191.40 256.5342
1191.50 256.8115
1191.60 256.9562
1191.70 256.9685
1191.80 256.9808
1191.90 256.9931
1192.00 257.0054
1192.10 257.0177
1192.20 257.03
1192.30 257.0423
1192.40 257.0546
1192.50 257.0669
1192.60 257.0792
1192.70 257.0915
1192.80 257.1038
1192.90 257.1161
1193.00 257.1283
1193.10 257.1406
1193.20 257.1529
1193.30 257.1652
1193.40 257.1775
1193.50 257.1898
1193.60 257.2021
1193.70 257.2144
1193.80 257.2267
1193.90 257.239
1194.00 257.2513
1194.10 257.2636
1194.20 257.2759
1194.30 257.2882
1194.40 257.3005
1194.50 257.3128
1194.60 257.3251
1194.70 257.3373
1194.80 257.3496
1194.90 257.3619
1195.00 257.3742
1195.10 257.3865
1195.20 257.3988
1195.30 257.4111
1195.40 257.4234
1195.50 257.4357
1195.60 257.448
1195.70 257.4603
1195.80 257.4726
1195.90 257.4737
1196.00 257.4721
1196.10 257.4705
1196.20 257.4689
1196.30 257.4672
1196.40 257.4656
1196.50 257.464
1196.60 257.4623
1196.70 257.4607
1196.80 257.4591
1196.90 257.4575
1197.00 257.4558
1197.10 257.4542
1197.20 257.4526
1197.30 257.4509
1197.40 257.4493
1197.50 257.4477
1197.60 257.4461
1197.70 257.4444
1197.80 257.4428
1197.90 257.4412
1198.00 257.4395
1198.10 257.4379
1198.20 257.4363
1198.30 257.4347
1198.40 257.433
1198.50 257.4314
1198.60 257.4298
1198.70 257.4281
1198.80 257.4265
1198.90 257.4249
1199.00 257.4233
1199.10 257.4216
1199.20 257.42
1199.30 257.4184
1199.40 257.4167
1199.50 257.4151
1199.60 257.4135
1199.70 257.4118
1199.80 257.4102
1199.90 257.4086
1200.00 257.407
1200.10 257.4053
1200.20 257.2192
1200.30 257.033
1200.40 256.8469
1200.50 256.6607
1200.60 256.4745
1200.70 256.2884
1200.80 256.1022
1200.90 255.916
1201.00 255.7299
1201.10 255.5437
1201.20 255.3576
1201.30 255.1714
1201.40 254.9852
1201.50 254.7991
1201.60 254.6129
1201.70 254.4268
1201.80 254.2406
1201.90 254.0544
1202.00 253.8683
1202.10 253.6821
1202.20 253.4959
1202.30 253.3098
1202.40 253.1236
1202.50 252.9375
1202.60 252.7513
1202.70 252.5651
1202.80 252.379
1202.90 252.1928
1203.00 252.0067
1203.10 251.8205
1203.20 251.6343
1203.30 251.4482
1203.40 251.262
1203.50 251.0759
1203.60 250.8897
1203.70 250.7035
1203.80 250.5174
1203.90 250.3312
1204.00 250.145
1204.10 249.9589
1204.20 249.7727
1204.30 249.5866
1204.40 249.4634
1204.50 249.592
1204.60 249.7206
1204.70 249.8492
1204.80 249.9778
1204.90 250.1065
1205.00 250.2351
1205.10 250.3637
1205.20 250.4923
1205.30 250.621
1205.40 250.7496
1205.50 250.8782
1205.60 251.0068
1205.70 251.1354
1205.80 251.2641
1205.90 251.3927
1206.00 251.5213
1206.10 251.6499
1206.20 251.7786
1206.30 251.9072
1206.40 252.0358
1206.50 252.1644
1206.60 252.293
1206.70 252.4217
1206.80 252.5503
1206.90 252.6789
1207.00 252.8075
1207.10 252.9361
1207.20 253.0648
1207.30 253.1934
1207.40 253.322
1207.50 253.4506
1207.60 253.5793
1207.70 253.7079
1207.80 253.8365
1207.90 253.9651
1208.00 254.0937
1208.10 254.2224
1208.20 254.351
1208.30 254.4796
1208.40 254.6082
1208.50 254.7368
1208.60 254.8655
1208.70 255.0736
1208.80 255.4009
1208.90 255.7282
1209.00 256.0555
1209.10 256.3828
1209.20 256.7101
1209.30 257.0374
1209.40 257.3647
1209.50 257.692
1209.60 258.0193
1209.70 258.3466
1209.80 258.6739
1209.90 259.0012
1210.00 259.3285
1210.10 259.6558
1210.20 259.9831
1210.30 260.3104
1210.40 260.6377
1210.50 260.965
1210.60 261.2923
1210.70 261.6196
1210.80 261.947
1210.90 262.2743
1211.00 262.6016
1211.10 262.9289
1211.20 263.2562
1211.30 263.5835
1211.40 263.9108
1211.50 264.2381
1211.60 264.5654
1211.70 264.8927
1211.80 265.22
1211.90 265.5473
1212.00 265.8746
1212.10 266.2019
1212.20 266.5292
1212.30 266.8565
1212.40 267.1838
1212.50 267.5111
1212.60 267.8384
1212.70 268.1657
1212.80 268.493
1212.90 268.8203
1213.00 269.0072
1213.10 269.0536
1213.20 269.1
1213.30 269.1464
1213.40 269.1927
1213.50 269.2391
1213.60 269.2855
1213.70 269.3319
1213.80 269.3783
1213.90 269.4247
1214.00 269.4711
1214.10 269.5174
1214.20 269.5638
1214.30 269.6102
1214.40 269.6566
1214.50 269.703
1214.60 269.7494
1214.70 269.7958
1214.80 269.8422
1214.90 269.8885
1215.00 269.9349
1215.10 269.9813
1215.20 270.0277
1215.30 270.0741
1215.40 270.1205
1215.50 270.1669
1215.60 270.2133
1215.70 270.2596
1215.80 270.306
1215.90 270.3524
1216.00 270.3988
1216.10 270.4452
1216.20 270.4916
1216.30 270.538
1216.40 270.5844
1216.50 270.6307
1216.60 270.6771
1216.70 270.7235
1216.80 270.7699
1216.90 270.8163
1217.00 270.8627
1217.10 270.9091
1217.20 270.9555
1217.30 271.0129
1217.40 271.0777
1217.50 271.1425
1217.60 271.2074
1217.70 271.2722
1217.80 271.337
1217.90 271.4018
1218.00 271.4666
1218.10 271.5314
1218.20 271.5963
1218.30 271.6611
1218.40 271.7259
1218.50 271.7907
1218.60 271.8555
1218.70 271.9203
1218.80 271.9852
1218.90 272.05
1219.00 272.1148
1219.10 272.1796
1219.20 272.2444
1219.30 272.3093
1219.40 272.3741
1219.50 272.4389
1219.60 272.5037
1219.70 272.5685
1219.80 272.6333
1219.90 272.6982
1220.00 272.763
1220.10 272.8278
1220.20 272.8926
1220.30 272.9574
1220.40 273.0222
1220.50 273.0871
1220.60 273.1519
1220.70 273.2167
1220.80 273.2815
1220.90 273.3463
1221.00 273.4112
1221.10 273.476
1221.20 273.5408
1221.30 273.6056
1221.40 273.6704
1221.50 273.7352
1221.60 273.8786
1221.70 274.0556
1221.80 274.2326
1221.90 274.4097
1222.00 274.5867
1222.10 274.7637
1222.20 274.9407
1222.30 275.1178
1222.40 275.2948
1222.50 275.4718
1222.60 275.6488
1222.70 275.8259
1222.80 276.0029
1222.90 276.1799
1223.00 276.3569
1223.10 276.5339
1223.20 276.711
1223.30 276.888
1223.40 277.065
1223.50 277.242
1223.60 277.4191
1223.70 277.5961
1223.80 277.7731
1223.90 277.9501
1224.00 278.1272
1224.10 278.3042
1224.20 278.4812
1224.30 278.6582
1224.40 278.8352
1224.50 279.0123
1224.60 279.1893
1224.70 279.3663
1224.80 279.5433
1224.90 279.7204
1225.00 279.8974
1225.10 280.0744
1225.20 280.2514
1225.30 280.4285
1225.40 280.6055
1225.50 280.7825
1225.60 280.9595
1225.70 281.1366
1225.80 281.3136
1225.90 281.3366
1226.00 281.2935
1226.10 281.2505
1226.20 281.2075
1226.30 281.1644
1226.40 281.1214
1226.50 281.0784
1226.60 281.0353
1226.70 280.9923
1226.80 280.9493
1226.90 280.9062
1227.00 280.8632
1227.10 280.8202
1227.20 280.7771
1227.30 280.7341
1227.40 280.6911
1227.50 280.6481
1227.60 280.605
1227.70 280.562
1227.80 280.519
1227.90 280.4759
1228.00 280.4329
1228.10 280.3899
1228.20 280.3468
1228.30 280.3038
1228.40 280.2608
1228.50 280.2177
1228.60 280.1747
1228.70 280.1317
1228.80 280.0886
1228.90 280.0456
1229.00 280.0026
1229.10 279.9595
1229.20 279.9165
1229.30 279.8735
1229.40 279.8304
1229.50 279.7874
1229.60 279.7444
1229.70 279.7014
1229.80 279.6583
1229.90 279.6153
1230.00 279.5723
1230.10 279.5292
1230.20 279.6648
1230.30 279.845
1230.40 280.0252
1230.50 280.2053
1230.60 280.3855
1230.70 280.5657
1230.80 280.7459
1230.90 280.9261
1231.00 281.1063
1231.10 281.2865
1231.20 281.4667
1231.30 281.6469
1231.40 281.8271
1231.50 282.0072
1231.60 282.1874
1231.70 282.3676
1231.80 282.5478
1231.90 282.728
1232.00 282.9082
1232.10 283.0884
1232.20 283.2686
1232.30 283.4488
1232.40 283.629
1232.50 283.8092
1232.60 283.9893
1232.70 284.1695
1232.80 284.3497
1232.90 284.5299
1233.00 284.7101
1233.10 284.8903
1233.20 285.0705
1233.30 285.2507
1233.40 285.4309
1233.50 285.6111
1233.60 285.7913
1233.70 285.9714
1233.80 286.1516
1233.90 286.3318
1234.00 286.512
1234.10 286.6922
1234.20 286.8724
1234.30 287.0526
1234.40 287.2328
1234.50 287.3108
1234.60 287.3451
1234.70 287.3793
1234.80 287.4136
1234.90 287.4479
1235.00 287.4821
1235.10 287.5164
1235.20 287.5506
1235.30 287.5849
1235.40 287.6192
1235.50 287.6534
1235.60 287.6877
1235.70 287.7219
1235.80 287.7562
1235.90 287.7905
1236.00 287.8247
1236.10 287.859
1236.20 287.8932
1236.30 287.9275
1236.40 287.9618
1236.50 287.996
1236.60 288.0303
1236.70 288.0645
1236.80 288.0988
1236.90 288.1331
1237.00 288.1673
1237.10 288.2016
1237.20 288.2358
1237.30 288.2701
1237.40 288.3044
1237.50 288.3386
1237.60 288.3729
1237.70 288.4071
1237.80 288.4414
1237.90 288.4757
1238.00 288.5099
1238.10 288.5442
1238.20 288.5784
1238.30 288.6127
1238.40 288.6469
1238.50 288.6812
1238.60 288.7155
1238.70 288.7497
1238.80 288.6301
1238.90 288.4446
1239.00 288.259
1239.10 288.0734
1239.20 287.8879
1239.30 287.7023
1239.40 287.5167
1239.50 287.3312
1239.60 287.1456
1239.70 286.9601
1239.80 286.7745
1239.90 286.5889
1240.00 286.4034
1240.10 286.2178
1240.20 286.0322
1240.30 285.8467
1240.40 285.6611
1240.50 285.4756
1240.60 285.29
1240.70 285.1044
1240.80 284.9189
1240.90 284.7333
1241.00 284.5478
1241.10 284.3622
1241.20 284.1766
1241.30 283.9911
1241.40 283.8055
1241.50 283.6199
1241.60 283.4344
1241.70 283.2488
1241.80 283.0633
1241.90 282.8777
1242.00 282.6921
1242.10 282.5066
1242.20 282.321
1242.30 282.1355
1242.40 281.9499
1242.50 281.7643
1242.60 281.5788
1242.70 281.3932
1242.80 281.2076
1242.90 281.0221
1243.00 280.8365
1243.10 280.7744
1243.20 280.7652
1243.30 280.7561
1243.40 280.7469
1243.50 280.7377
1243.60 280.7285
1243.70 280.7194
1243.80 280.7102
1243.90 280.701
1244.00 280.6918
1244.10 280.6826
1244.20 280.6735
1244.30 280.6643
1244.40 280.6551
1244.50 280.6459
1244.60 280.6368
1244.70 280.6276
1244.80 280.6184
1244.90 280.6092
1245.00 280.6
1245.10 280.5909
1245.20 280.5817
1245.30 280.5725
1245.40 280.5633
1245.50 280.5542
1245.60 280.545
1245.70 280.5358
1245.80 280.5266
1245.90 280.5174
1246.00 280.5083
1246.10 280.4991
1246.20 280.4899
1246.30 280.4807
1246.40 280.4716
1246.50 280.4624
1246.60 280.4532
1246.70 280.444
1246.80 280.4348
1246.90 280.4257
1247.00 280.4165
1247.10 280.4073
1247.20 280.3981
1247.30 280.389
1247.40 280.3129
1247.50 280.1923
1247.60 280.0717
1247.70 279.9511
1247.80 279.8306
1247.90 279.71
1248.00 279.5894
1248.10 279.4688
1248.20 279.3482
1248.30 279.2276
1248.40 279.107
1248.50 278.9864
1248.60 278.8658
1248.70 278.7452
1248.80 278.6246
1248.90 278.504
1249.00 278.3834
1249.10 278.2629
1249.20 278.1423
1249.30 278.0217
1249.40 277.9011
1249.50 277.7805
1249.60 277.6599
1249.70 277.5393
1249.80 277.4187
1249.90 277.2981
1250.00 277.1775
1250.10 277.0569
1250.20 276.9363
1250.30 276.8157
1250.40 276.6952
1250.50 276.5746
1250.60 276.454
1250.70 276.3334
1250.80 276.2128
1250.90 276.0922
1251.00 275.9716
1251.10 275.851
1251.20 275.7304
1251.30 275.6098
1251.40 275.4892
1251.50 275.3686
1251.60 275.248
1251.70 275.2354
1251.80 275.3306
1251.90 275.4259
1252.00 275.5211
1252.10 275.6164
1252.20 275.7116
1252.30 275.8069
1252.40 275.9021
1252.50 275.9973
1252.60 276.0926
1252.70 276.1878
1252.80 276.2831
1252.90 276.3783
1253.00 276.4736
1253.10 276.5688
1253.20 276.6641
1253.30 276.7593
1253.40 276.8546
1253.50 276.9498
1253.60 277.0451
1253.70 277.1403
1253.80 277.2356
1253.90 277.3308
1254.00 277.426
1254.10 277.5213
1254.20 277.6165
1254.30 277.7118
1254.40 277.807
1254.50 277.9023
1254.60 277.9975
1254.70 278.0928
1254.80 278.188
1254.90 278.2833
1255.00 278.3785
1255.10 278.4738
1255.20 278.569
1255.30 278.6642
1255.40 278.7595
1255.50 278.8547
1255.60 278.95
1255.70 279.0452
1255.80 279.1405
1255.90 279.2357
1256.00 279.2867
1256.10 279.2714
1256.20 279.256
1256.30 279.2407
1256.40 279.2253
1256.50 279.2099
1256.60 279.1946
1256.70 279.1792
1256.80 279.1639
1256.90 279.1485
1257.00 279.1332
1257.10 279.1178
1257.20 279.1024
1257.30 279.0871
1257.40 279.0717
1257.50 279.0564
1257.60 279.041
1257.70 279.0257
1257.80 279.0103
1257.90 278.995
1258.00 278.9796
1258.10 278.9642
1258.20 278.9489
1258.30 278.9335
1258.40 278.9182
1258.50 278.9028
1258.60 278.8875
1258.70 278.8721
1258.80 278.8567
1258.90 278.8414
1259.00 278.826
1259.10 278.8107
1259.20 278.7953
1259.30 278.78
1259.40 278.7646
1259.50 278.7492
1259.60 278.7339
1259.70 278.7185
1259.80 278.7032
1259.90 278.6878
1260.00 278.6725
1260.10 278.6571
1260.20 278.6417
1260.30 278.6987
1260.40 279.0446
1260.50 279.3906
1260.60 279.7366
1260.70 280.0826
1260.80 280.4286
1260.90 280.7745
1261.00 281.1205
1261.10 281.4665
1261.20 281.8125
1261.30 282.1585
1261.40 282.5044
1261.50 282.8504
1261.60 283.1964
1261.70 283.5424
1261.80 283.8884
1261.90 284.2343
1262.00 284.5803
1262.10 284.9263
1262.20 285.2723
1262.30 285.6183
1262.40 285.9642
1262.50 286.3102
1262.60 286.6562
1262.70 287.0022
1262.80 287.3482
1262.90 287.6941
1263.00 288.0401
1263.10 288.3861
1263.20 288.7321
1263.30 289.0781
1263.40 289.424
1263.50 289.77
1263.60 290.116
1263.70 290.462
1263.80 290.808
1263.90 291.1539
1264.00 291.4999
1264.10 291.8459
1264.20 292.1919
1264.30 292.5379
1264.40 292.8838
1264.50 293.2298
1264.60 293.5664
1264.70 293.8185
1264.80 294.0705
1264.90 294.3226
1265.00 294.5746
1265.10 294.8267
1265.20 295.0788
1265.30 295.3308
1265.40 295.5829
1265.50 295.8349
1265.60 296.087
1265.70 296.339
1265.80 296.5911
1265.90 296.8432
1266.00 297.0952
1266.10 297.3473
1266.20 297.5993
1266.30 297.8514
1266.40 298.1034
1266.50 298.3555
1266.60 298.6076
1266.70 298.8596
1266.80 299.1117
1266.90 299.3637
1267.00 299.6158
1267.10 299.8678
1267.20 300.1199
1267.30 300.372
1267.40 300.624
1267.50 300.8761
1267.60 301.1281
1267.70 301.3802
1267.80 301.6322
1267.90 301.8843
1268.00 302.1364
1268.10 302.3884
1268.20 302.6405
1268.30 302.8925
1268.40 303.1446
1268.50 303.3966
1268.60 303.6487
1268.70 303.9008
1268.80 304.1528
1268.90 304.4049
1269.00 304.6283
1269.10 304.8516
1269.20 305.075
1269.30 305.2984
1269.40 305.5218
1269.50 305.7452
1269.60 305.9686
1269.70 306.192
1269.80 306.4153
1269.90 306.6387
1270.00 306.8621
1270.10 307.0855
1270.20 307.3089
1270.30 307.5323
1270.40 307.7557
1270.50 307.979
1270.60 308.2024
1270.70 308.4258
1270.80 308.6492
1270.90 308.8726
1271.00 309.096
1271.10 309.3193
1271.20 309.5427
1271.30 309.7661
1271.40 309.9895
1271.50 310.2129
1271.60 310.4363
1271.70 310.6597
1271.80 310.883
1271.90 311.1064
1272.00 311.3298
1272.10 311.5532
1272.20 311.7766
1272.30 312
1272.40 312.2234
1272.50 312.4467
1272.60 312.6701
1272.70 312.8935
1272.80 313.1169
1272.90 313.3403
1273.00 313.5637
1273.10 313.7871
1273.20 314.0104
1273.30 314.1865
1273.40 314.3507
1273.50 314.5149
1273.60 314.6791
1273.70 314.8434
1273.80 315.0076
1273.90 315.1718
1274.00 315.336
1274.10 315.5002
1274.20 315.6644
1274.30 315.8287
1274.40 315.9929
1274.50 316.1571
1274.60 316.3213
1274.70 316.4855
1274.80 316.6498
1274.90 316.814
1275.00 316.9782
1275.10 317.1424
1275.20 317.3066
1275.30 317.4708
1275.40 317.6351
1275.50 317.7993
1275.60 317.9635
1275.70 318.1277
1275.80 318.2919
1275.90 318.4561
1276.00 318.6204
1276.10 318.7846
1276.20 318.9488
1276.30 319.113
1276.40 319.2772
1276.50 319.4415
1276.60 319.6057
1276.70 319.7699
1276.80 319.9341
1276.90 320.0983
1277.00 320.2625
1277.10 320.4268
1277.20 320.591
1277.30 320.7552
1277.40 320.9194
1277.50 321.0836
1277.60 321.1896
1277.70 321.2568
1277.80 321.324
1277.90 321.3912
1278.00 321.4584
1278.10 321.5256
1278.20 321.5927
1278.30 321.6599
1278.40 321.7271
1278.50 321.7943
1278.60 321.8615
1278.70 321.9287
1278.80 321.9959
1278.90 322.0631
1279.00 322.1302
1279.10 322.1974
1279.20 322.2646
1279.30 322.3318
1279.40 322.399
1279.50 322.4662
1279.60 322.5334
1279.70 322.6005
1279.80 322.6677
1279.90 322.7349
1280.00 322.8021
1280.10 322.8693
1280.20 322.9365
1280.30 323.0037
1280.40 323.0709
1280.50 323.138
1280.60 323.2052
1280.70 323.2724
1280.80 323.3396
1280.90 323.4068
1281.00 323.474
1281.10 323.5412
1281.20 323.6083
1281.30 323.6755
1281.40 323.7427
1281.50 323.8099
1281.60 323.8771
1281.70 323.9443
1281.80 324.0115
1281.90 323.9861
1282.00 323.8682
1282.10 323.7502
1282.20 323.6323
1282.30 323.5144
1282.40 323.3965
1282.50 323.2785
1282.60 323.1606
1282.70 323.0427
1282.80 322.9248
1282.90 322.8068
1283.00 322.6889
1283.10 322.571
1283.20 322.4531
1283.30 322.3351
1283.40 322.2172
1283.50 322.0993
1283.60 321.9814
1283.70 321.8634
1283.80 321.7455
1283.90 321.6276
1284.00 321.5096
1284.10 321.3917
1284.20 321.2738
1284.30 321.1559
1284.40 321.0379
1284.50 320.92
1284.60 320.8021
1284.70 320.6842
1284.80 320.5662
1284.90 320.4483
1285.00 320.3304
1285.10 320.2125
1285.20 320.0945
1285.30 319.9766
1285.40 319.8587
1285.50 319.7408
1285.60 319.6228
1285.70 319.5049
1285.80 319.387
1285.90 319.2691
1286.00 319.1511
1286.10 319.0332
1286.20 318.9838
1286.30 319.0941
1286.40 319.2045
1286.50 319.3148
1286.60 319.4252
1286.70 319.5355
1286.80 319.6459
1286.90 319.7562
1287.00 319.8666
1287.10 319.977
1287.20 320.0873
1287.30 320.1977
1287.40 320.308
1287.50 320.4184
1287.60 320.5287
1287.70 320.6391
1287.80 320.7494
1287.90 320.8598
1288.00 320.9702
1288.10 321.0805
1288.20 321.1909
1288.30 321.3012
1288.40 321.4116
1288.50 321.5219
1288.60 321.6323
1288.70 321.7426
1288.80 321.853
1288.90 321.9634
1289.00 322.0737
1289.10 322.1841
1289.20 322.2944
1289.30 322.4048
1289.40 322.5151
1289.50 322.6255
1289.60 322.7358
1289.70 322.8462
1289.80 322.9566
1289.90 323.0669
1290.00 323.1773
1290.10 323.2876
1290.20 323.398
1290.30 323.5083
1290.40 323.6187
1290.50 323.7071
1290.60 323.5985
1290.70 323.4899
1290.80 323.3812
1290.90 323.2726
1291.00 323.1639
1291.10 323.0553
1291.20 322.9466
1291.30 322.838
1291.40 322.7294
1291.50 322.6207
1291.60 322.5121
1291.70 322.4034
1291.80 322.2948
1291.90 322.1861
1292.00 322.0775
1292.10 321.9689
1292.20 321.8602
1292.30 321.7516
1292.40 321.6429
1292.50 321.5343
1292.60 321.4257
1292.70 321.317
1292.80 321.2084
1292.90 321.0997
1293.00 320.9911
1293.10 320.8824
1293.20 320.7738
1293.30 320.6652
1293.40 320.5565
1293.50 320.4479
1293.60 320.3392
1293.70 320.2306
1293.80 320.1219
1293.90 320.0133
1294.00 319.9047
1294.10 319.796
1294.20 319.6874
1294.30 319.5787
1294.40 319.4701
1294.50 319.3615
1294.60 319.2528
1294.70 319.1442
1294.80 319.0355
1294.90 319.0778
1295.00 319.1368
1295.10 319.1958
1295.20 319.2548
1295.30 319.3138
1295.40 319.3729
1295.50 319.4319
1295.60 319.4909
1295.70 319.5499
1295.80 319.6089
1295.90 319.668
1296.00 319.727
1296.10 319.786
1296.20 319.845
1296.30 319.904
1296.40 319.963
1296.50 320.0221
1296.60 320.0811
1296.70 320.1401
1296.80 320.1991
1296.90 320.2581
1297.00 320.3172
1297.10 320.3762
1297.20 320.4352
1297.30 320.4942
1297.40 320.5532
1297.50 320.6123
1297.60 320.6713
1297.70 320.7303
1297.80 320.7893
1297.90 320.8483
1298.00 320.9073
1298.10 320.9664
1298.20 321.0254
1298.30 321.0844
1298.40 321.1434
1298.50 321.2024
1298.60 321.2615
1298.70 321.3205
1298.80 321.3795
1298.90 321.4385
1299.00 321.4975
1299.10 321.5565
1299.20 321.4481
1299.30 321.268
1299.40 321.0879
1299.50 320.9077
1299.60 320.7276
1299.70 320.5474
1299.80 320.3673
1299.90 320.1872
