# Version 2.1 - nm, norm@500 to 1, cut digits
# Wavelength(nm)  Flambda(ergs/cm^s/s/nm)
300.00 1.409703e-95
300.10 1.409703e-95
300.20 1.409703e-95
300.30 1.409703e-95
300.40 1.409703e-95
300.50 1.409703e-95
300.60 1.409703e-95
300.70 1.409703e-95
300.80 1.409703e-95
300.90 1.409703e-95
301.00 1.409703e-95
301.10 1.409703e-95
301.20 1.409703e-95
301.30 1.409703e-95
301.40 1.409703e-95
301.50 1.409703e-95
301.60 1.409703e-95
301.70 1.409703e-95
301.80 1.409703e-95
301.90 1.409703e-95
302.00 1.409703e-95
302.10 1.409703e-95
302.20 1.409703e-95
302.30 1.409703e-95
302.40 1.409703e-95
302.50 1.409703e-95
302.60 1.409703e-95
302.70 1.409703e-95
302.80 1.409703e-95
302.90 1.409703e-95
303.00 1.409703e-95
303.10 1.409703e-95
303.20 1.409703e-95
303.30 1.409703e-95
303.40 1.409703e-95
303.50 1.409703e-95
303.60 1.409703e-95
303.70 1.409703e-95
303.80 1.409703e-95
303.90 1.409703e-95
304.00 1.409703e-95
304.10 1.409703e-95
304.20 1.409703e-95
304.30 1.409703e-95
304.40 1.409703e-95
304.50 1.409703e-95
304.60 1.409703e-95
304.70 1.409703e-95
304.80 1.409703e-95
304.90 1.409703e-95
305.00 1.409703e-95
305.10 1.409703e-95
305.20 1.409703e-95
305.30 1.409703e-95
305.40 1.409703e-95
305.50 1.409703e-95
305.60 1.409703e-95
305.70 1.409703e-95
305.80 1.409703e-95
305.90 1.409703e-95
306.00 1.409703e-95
306.10 1.409703e-95
306.20 1.409703e-95
306.30 1.409703e-95
306.40 1.409703e-95
306.50 1.409703e-95
306.60 1.409703e-95
306.70 1.409703e-95
306.80 1.409703e-95
306.90 1.409703e-95
307.00 1.409703e-95
307.10 1.409703e-95
307.20 1.409703e-95
307.30 1.409703e-95
307.40 1.409703e-95
307.50 1.409703e-95
307.60 1.409703e-95
307.70 1.409703e-95
307.80 1.409703e-95
307.90 1.409703e-95
308.00 1.409703e-95
308.10 1.409703e-95
308.20 1.409703e-95
308.30 1.409703e-95
308.40 1.409703e-95
308.50 1.409703e-95
308.60 1.409703e-95
308.70 1.409703e-95
308.80 1.409703e-95
308.90 1.409703e-95
309.00 1.409703e-95
309.10 1.409703e-95
309.20 1.409703e-95
309.30 1.409703e-95
309.40 1.409703e-95
309.50 1.409703e-95
309.60 1.409703e-95
309.70 1.409703e-95
309.80 1.409703e-95
309.90 1.409703e-95
310.00 1.409703e-95
310.10 1.409703e-95
310.20 1.409703e-95
310.30 1.409703e-95
310.40 1.409703e-95
310.50 1.409703e-95
310.60 1.409703e-95
310.70 1.409703e-95
310.80 1.409703e-95
310.90 1.409703e-95
311.00 1.409703e-95
311.10 1.409703e-95
311.20 1.409703e-95
311.30 1.409703e-95
311.40 1.409703e-95
311.50 1.409703e-95
311.60 1.409703e-95
311.70 1.409703e-95
311.80 1.409703e-95
311.90 1.409703e-95
312.00 1.409703e-95
312.10 1.409703e-95
312.20 1.409703e-95
312.30 1.409703e-95
312.40 1.409703e-95
312.50 1.409703e-95
312.60 1.409703e-95
312.70 1.409703e-95
312.80 1.409703e-95
312.90 1.409703e-95
313.00 1.409703e-95
313.10 1.409703e-95
313.20 1.409703e-95
313.30 1.409703e-95
313.40 1.409703e-95
313.50 1.409703e-95
313.60 1.409703e-95
313.70 1.409703e-95
313.80 1.409703e-95
313.90 1.409703e-95
314.00 1.409703e-95
314.10 1.409703e-95
314.20 1.409703e-95
314.30 1.409703e-95
314.40 1.409703e-95
314.50 1.409703e-95
314.60 1.409703e-95
314.70 1.409703e-95
314.80 1.409703e-95
314.90 1.409703e-95
315.00 1.409703e-95
315.10 1.409703e-95
315.20 1.409703e-95
315.30 1.409703e-95
315.40 1.409703e-95
315.50 1.409703e-95
315.60 1.409703e-95
315.70 1.409703e-95
315.80 1.409703e-95
315.90 1.409703e-95
316.00 1.409703e-95
316.10 1.409703e-95
316.20 1.409703e-95
316.30 1.409703e-95
316.40 1.409703e-95
316.50 1.409703e-95
316.60 1.409703e-95
316.70 1.409703e-95
316.80 1.409703e-95
316.90 1.409703e-95
317.00 1.409703e-95
317.10 1.409703e-95
317.20 1.409703e-95
317.30 1.409703e-95
317.40 1.409703e-95
317.50 1.409703e-95
317.60 1.409703e-95
317.70 1.409703e-95
317.80 1.409703e-95
317.90 1.409703e-95
318.00 1.409703e-95
318.10 1.409703e-95
318.20 1.409703e-95
318.30 1.409703e-95
318.40 1.409703e-95
318.50 1.409703e-95
318.60 1.409703e-95
318.70 1.409703e-95
318.80 1.409703e-95
318.90 1.409703e-95
319.00 1.409703e-95
319.10 1.409703e-95
319.20 1.409703e-95
319.30 1.409703e-95
319.40 1.409703e-95
319.50 1.409703e-95
319.60 1.409703e-95
319.70 1.409703e-95
319.80 1.409703e-95
319.90 1.409703e-95
320.00 1.409703e-95
320.10 1.409703e-95
320.20 1.409703e-95
320.30 1.409703e-95
320.40 1.409703e-95
320.50 1.409703e-95
320.60 1.409703e-95
320.70 1.409703e-95
320.80 1.409703e-95
320.90 1.409703e-95
321.00 1.409703e-95
321.10 1.409703e-95
321.20 1.409703e-95
321.30 1.409703e-95
321.40 1.409703e-95
321.50 1.409703e-95
321.60 1.409703e-95
321.70 1.409703e-95
321.80 1.409703e-95
321.90 1.409703e-95
322.00 1.409703e-95
322.10 1.409703e-95
322.20 1.409703e-95
322.30 1.409703e-95
322.40 1.409703e-95
322.50 1.409703e-95
322.60 1.409703e-95
322.70 1.409703e-95
322.80 1.409703e-95
322.90 1.409703e-95
323.00 1.409703e-95
323.10 1.409703e-95
323.20 1.409703e-95
323.30 1.409703e-95
323.40 1.409703e-95
323.50 1.409703e-95
323.60 1.409703e-95
323.70 1.409703e-95
323.80 1.409703e-95
323.90 1.409703e-95
324.00 1.409703e-95
324.10 1.409703e-95
324.20 1.409703e-95
324.30 1.409703e-95
324.40 1.409703e-95
324.50 1.409703e-95
324.60 1.409703e-95
324.70 1.409703e-95
324.80 1.409703e-95
324.90 1.409703e-95
325.00 1.409703e-95
325.10 1.409703e-95
325.20 1.409703e-95
325.30 1.409703e-95
325.40 1.409703e-95
325.50 1.409703e-95
325.60 1.409703e-95
325.70 1.409703e-95
325.80 1.409703e-95
325.90 1.409703e-95
326.00 1.409703e-95
326.10 1.409703e-95
326.20 1.409703e-95
326.30 1.409703e-95
326.40 1.409703e-95
326.50 1.409703e-95
326.60 1.409703e-95
326.70 1.409703e-95
326.80 1.409703e-95
326.90 1.409703e-95
327.00 1.409703e-95
327.10 1.409703e-95
327.20 1.409703e-95
327.30 1.409703e-95
327.40 1.409703e-95
327.50 1.409703e-95
327.60 1.409703e-95
327.70 1.409703e-95
327.80 1.409703e-95
327.90 1.409703e-95
328.00 1.409703e-95
328.10 1.409703e-95
328.20 1.409703e-95
328.30 1.409703e-95
328.40 1.409703e-95
328.50 1.409703e-95
328.60 1.409703e-95
328.70 1.409703e-95
328.80 1.409703e-95
328.90 1.409703e-95
329.00 1.409703e-95
329.10 1.409703e-95
329.20 1.409703e-95
329.30 1.409703e-95
329.40 1.409703e-95
329.50 1.409703e-95
329.60 1.409703e-95
329.70 1.409703e-95
329.80 1.409703e-95
329.90 1.409703e-95
330.00 1.409703e-95
330.10 1.409703e-95
330.20 1.409703e-95
330.30 1.409703e-95
330.40 1.409703e-95
330.50 1.409703e-95
330.60 1.409703e-95
330.70 1.409703e-95
330.80 1.409703e-95
330.90 1.409703e-95
331.00 1.409703e-95
331.10 1.409703e-95
331.20 1.409703e-95
331.30 1.409703e-95
331.40 1.409703e-95
331.50 1.409703e-95
331.60 1.409703e-95
331.70 1.409703e-95
331.80 1.409703e-95
331.90 1.409703e-95
332.00 1.409703e-95
332.10 1.409703e-95
332.20 1.409703e-95
332.30 1.409703e-95
332.40 1.409703e-95
332.50 1.409703e-95
332.60 1.409703e-95
332.70 1.409703e-95
332.80 1.409703e-95
332.90 1.409703e-95
333.00 1.409703e-95
333.10 1.409703e-95
333.20 1.409703e-95
333.30 1.409703e-95
333.40 1.409703e-95
333.50 1.409703e-95
333.60 1.409703e-95
333.70 1.409703e-95
333.80 1.409703e-95
333.90 1.409703e-95
334.00 1.409703e-95
334.10 1.409703e-95
334.20 1.409703e-95
334.30 1.409703e-95
334.40 1.409703e-95
334.50 1.409703e-95
334.60 1.409703e-95
334.70 1.409703e-95
334.80 1.409703e-95
334.90 1.409703e-95
335.00 1.409703e-95
335.10 1.409703e-95
335.20 1.409703e-95
335.30 1.409703e-95
335.40 1.409703e-95
335.50 1.409703e-95
335.60 1.409703e-95
335.70 1.409703e-95
335.80 1.409703e-95
335.90 1.409703e-95
336.00 1.409703e-95
336.10 1.409703e-95
336.20 1.409703e-95
336.30 1.409703e-95
336.40 1.409703e-95
336.50 1.409703e-95
336.60 1.409703e-95
336.70 1.409703e-95
336.80 1.409703e-95
336.90 1.409703e-95
337.00 1.409703e-95
337.10 1.409703e-95
337.20 1.409703e-95
337.30 1.409703e-95
337.40 1.409703e-95
337.50 1.409703e-95
337.60 1.409703e-95
337.70 1.409703e-95
337.80 1.409703e-95
337.90 1.409703e-95
338.00 1.409703e-95
338.10 1.409703e-95
338.20 1.409703e-95
338.30 1.409703e-95
338.40 1.409703e-95
338.50 1.409703e-95
338.60 1.409703e-95
338.70 1.409703e-95
338.80 1.409703e-95
338.90 1.409703e-95
339.00 1.409703e-95
339.10 1.409703e-95
339.20 1.409703e-95
339.30 1.409703e-95
339.40 1.409703e-95
339.50 1.409703e-95
339.60 1.409703e-95
339.70 1.409703e-95
339.80 1.409703e-95
339.90 1.409703e-95
340.00 1.409703e-95
340.10 1.409703e-95
340.20 1.409703e-95
340.30 1.409703e-95
340.40 1.409703e-95
340.50 1.409703e-95
340.60 1.409703e-95
340.70 1.409703e-95
340.80 1.409703e-95
340.90 1.409703e-95
341.00 1.409703e-95
341.10 1.409703e-95
341.20 1.409703e-95
341.30 1.409703e-95
341.40 1.409703e-95
341.50 1.409703e-95
341.60 1.409703e-95
341.70 1.409703e-95
341.80 1.409703e-95
341.90 1.409703e-95
342.00 1.409703e-95
342.10 1.409703e-95
342.20 1.409703e-95
342.30 1.409703e-95
342.40 1.409703e-95
342.50 1.409703e-95
342.60 1.409703e-95
342.70 1.409703e-95
342.80 1.409703e-95
342.90 1.409703e-95
343.00 1.409703e-95
343.10 1.409703e-95
343.20 1.409703e-95
343.30 1.409703e-95
343.40 1.409703e-95
343.50 1.409703e-95
343.60 1.409703e-95
343.70 1.409703e-95
343.80 1.409703e-95
343.90 1.409703e-95
344.00 1.409703e-95
344.10 1.409703e-95
344.20 1.409703e-95
344.30 1.409703e-95
344.40 1.409703e-95
344.50 1.409703e-95
344.60 1.409703e-95
344.70 1.409703e-95
344.80 1.409703e-95
344.90 1.409703e-95
345.00 1.409703e-95
345.10 1.409703e-95
345.20 1.409703e-95
345.30 1.409703e-95
345.40 1.409703e-95
345.50 1.409703e-95
345.60 1.409703e-95
345.70 1.409703e-95
345.80 1.409703e-95
345.90 1.409703e-95
346.00 1.409703e-95
346.10 1.409703e-95
346.20 1.409703e-95
346.30 1.409703e-95
346.40 1.409703e-95
346.50 1.409703e-95
346.60 1.409703e-95
346.70 1.409703e-95
346.80 1.409703e-95
346.90 1.409703e-95
347.00 1.409703e-95
347.10 1.409703e-95
347.20 1.409703e-95
347.30 1.409703e-95
347.40 1.409703e-95
347.50 1.409703e-95
347.60 1.409703e-95
347.70 1.409703e-95
347.80 1.409703e-95
347.90 1.409703e-95
348.00 1.409703e-95
348.10 1.409703e-95
348.20 1.409703e-95
348.30 1.409703e-95
348.40 1.409703e-95
348.50 1.409703e-95
348.60 1.409703e-95
348.70 1.409703e-95
348.80 1.409703e-95
348.90 1.409703e-95
349.00 1.409703e-95
349.10 1.409703e-95
349.20 1.409703e-95
349.30 1.409703e-95
349.40 1.409703e-95
349.50 1.409703e-95
349.60 1.409703e-95
349.70 1.409703e-95
349.80 1.409703e-95
349.90 1.409703e-95
350.00 1.409703e-95
350.10 1.409703e-95
350.20 1.409703e-95
350.30 1.409703e-95
350.40 1.409703e-95
350.50 1.409703e-95
350.60 1.409703e-95
350.70 1.409703e-95
350.80 1.409703e-95
350.90 1.409703e-95
351.00 1.409703e-95
351.10 1.409703e-95
351.20 1.409703e-95
351.30 1.409703e-95
351.40 1.409703e-95
351.50 1.409703e-95
351.60 1.409703e-95
351.70 1.409703e-95
351.80 1.409703e-95
351.90 1.409703e-95
352.00 1.409703e-95
352.10 1.409703e-95
352.20 1.409703e-95
352.30 1.409703e-95
352.40 1.409703e-95
352.50 1.409703e-95
352.60 1.409703e-95
352.70 1.409703e-95
352.80 1.409703e-95
352.90 1.409703e-95
353.00 1.409703e-95
353.10 1.409703e-95
353.20 1.409703e-95
353.30 1.409703e-95
353.40 1.409703e-95
353.50 1.409703e-95
353.60 1.409703e-95
353.70 1.409703e-95
353.80 1.409703e-95
353.90 1.409703e-95
354.00 1.409703e-95
354.10 1.409703e-95
354.20 1.409703e-95
354.30 1.409703e-95
354.40 1.409703e-95
354.50 1.409703e-95
354.60 1.409703e-95
354.70 1.409703e-95
354.80 1.409703e-95
354.90 1.409703e-95
355.00 1.409703e-95
355.10 1.409703e-95
355.20 1.409703e-95
355.30 1.409703e-95
355.40 1.409703e-95
355.50 1.409703e-95
355.60 1.409703e-95
355.70 1.409703e-95
355.80 1.409703e-95
355.90 1.409703e-95
356.00 1.409703e-95
356.10 1.409703e-95
356.20 1.409703e-95
356.30 1.409703e-95
356.40 1.409703e-95
356.50 1.409703e-95
356.60 1.409703e-95
356.70 1.409703e-95
356.80 1.409703e-95
356.90 1.409703e-95
357.00 1.409703e-95
357.10 1.409703e-95
357.20 1.409703e-95
357.30 1.409703e-95
357.40 1.409703e-95
357.50 1.409703e-95
357.60 1.409703e-95
357.70 1.409703e-95
357.80 1.409703e-95
357.90 1.409703e-95
358.00 1.409703e-95
358.10 1.409703e-95
358.20 1.409703e-95
358.30 1.409703e-95
358.40 1.409703e-95
358.50 1.409703e-95
358.60 1.409703e-95
358.70 1.409703e-95
358.80 1.409703e-95
358.90 1.409703e-95
359.00 1.409703e-95
359.10 1.409703e-95
359.20 1.409703e-95
359.30 1.409703e-95
359.40 1.409703e-95
359.50 1.409703e-95
359.60 1.409703e-95
359.70 1.409703e-95
359.80 1.409703e-95
359.90 1.409703e-95
360.00 1.409703e-95
360.10 1.409703e-95
360.20 1.409703e-95
360.30 1.409703e-95
360.40 1.409703e-95
360.50 1.409703e-95
360.60 1.409703e-95
360.70 1.409703e-95
360.80 1.409703e-95
360.90 1.409703e-95
361.00 1.409703e-95
361.10 1.409703e-95
361.20 1.409703e-95
361.30 1.409703e-95
361.40 1.409703e-95
361.50 1.409703e-95
361.60 1.409703e-95
361.70 1.409703e-95
361.80 1.409703e-95
361.90 1.409703e-95
362.00 1.409703e-95
362.10 1.409703e-95
362.20 1.409703e-95
362.30 1.409703e-95
362.40 1.409703e-95
362.50 1.409703e-95
362.60 1.409703e-95
362.70 1.409703e-95
362.80 1.409703e-95
362.90 1.409703e-95
363.00 1.409703e-95
363.10 1.409703e-95
363.20 1.409703e-95
363.30 1.409703e-95
363.40 1.409703e-95
363.50 1.409703e-95
363.60 1.409703e-95
363.70 1.409703e-95
363.80 1.409703e-95
363.90 1.409703e-95
364.00 1.409703e-95
364.10 1.409703e-95
364.20 1.409703e-95
364.30 1.409703e-95
364.40 1.409703e-95
364.50 1.409703e-95
364.60 1.409703e-95
364.70 1.409703e-95
364.80 1.409703e-95
364.90 1.409703e-95
365.00 1.409703e-95
365.10 1.409703e-95
365.20 1.409703e-95
365.30 1.409703e-95
365.40 1.409703e-95
365.50 1.409703e-95
365.60 1.409703e-95
365.70 1.409703e-95
365.80 1.409703e-95
365.90 1.409703e-95
366.00 1.409703e-95
366.10 1.409703e-95
366.20 1.409703e-95
366.30 1.409703e-95
366.40 1.409703e-95
366.50 1.409703e-95
366.60 1.409703e-95
366.70 1.409703e-95
366.80 1.409703e-95
366.90 1.409703e-95
367.00 1.409703e-95
367.10 1.409703e-95
367.20 1.409703e-95
367.30 1.409703e-95
367.40 1.409703e-95
367.50 1.409703e-95
367.60 1.409703e-95
367.70 1.409703e-95
367.80 1.409703e-95
367.90 1.409703e-95
368.00 1.409703e-95
368.10 1.409703e-95
368.20 1.409703e-95
368.30 1.409703e-95
368.40 1.409703e-95
368.50 1.409703e-95
368.60 1.409703e-95
368.70 1.409703e-95
368.80 1.409703e-95
368.90 1.409703e-95
369.00 1.409703e-95
369.10 1.409703e-95
369.20 1.409703e-95
369.30 1.409703e-95
369.40 1.409703e-95
369.50 1.409703e-95
369.60 1.409703e-95
369.70 1.409703e-95
369.80 1.409703e-95
369.90 1.409703e-95
370.00 1.409703e-95
370.10 1.409703e-95
370.20 1.409703e-95
370.30 1.409703e-95
370.40 1.409703e-95
370.50 1.409703e-95
370.60 1.409703e-95
370.70 1.409703e-95
370.80 1.409703e-95
370.90 1.409703e-95
371.00 1.409703e-95
371.10 1.409703e-95
371.20 1.409703e-95
371.30 1.409703e-95
371.40 1.409703e-95
371.50 1.409703e-95
371.60 1.409703e-95
371.70 1.409703e-95
371.80 1.409703e-95
371.90 1.409703e-95
372.00 1.409703e-95
372.10 1.409703e-95
372.20 1.409703e-95
372.30 1.409703e-95
372.40 1.409703e-95
372.50 1.409703e-95
372.60 1.409703e-95
372.70 1.409703e-95
372.80 1.409703e-95
372.90 1.409703e-95
373.00 1.409703e-95
373.10 1.409703e-95
373.20 1.409703e-95
373.30 1.409703e-95
373.40 1.409703e-95
373.50 1.409703e-95
373.60 1.409703e-95
373.70 1.409703e-95
373.80 1.409703e-95
373.90 1.409703e-95
374.00 1.409703e-95
374.10 1.409703e-95
374.20 1.409703e-95
374.30 1.409703e-95
374.40 1.409703e-95
374.50 1.409703e-95
374.60 1.409703e-95
374.70 1.409703e-95
374.80 1.409703e-95
374.90 1.409703e-95
375.00 1.409703e-95
375.10 1.409703e-95
375.20 1.409703e-95
375.30 1.409703e-95
375.40 1.409703e-95
375.50 1.409703e-95
375.60 1.409703e-95
375.70 1.409703e-95
375.80 1.409703e-95
375.90 1.409703e-95
376.00 1.409703e-95
376.10 1.409703e-95
376.20 1.409703e-95
376.30 1.409703e-95
376.40 1.409703e-95
376.50 1.409703e-95
376.60 1.409703e-95
376.70 1.409703e-95
376.80 1.409703e-95
376.90 1.409703e-95
377.00 1.409703e-95
377.10 1.409703e-95
377.20 1.409703e-95
377.30 1.409703e-95
377.40 1.409703e-95
377.50 1.409703e-95
377.60 1.409703e-95
377.70 1.409703e-95
377.80 1.409703e-95
377.90 1.409703e-95
378.00 1.409703e-95
378.10 1.409703e-95
378.20 1.409703e-95
378.30 1.409703e-95
378.40 1.409703e-95
378.50 1.409703e-95
378.60 1.409703e-95
378.70 1.409703e-95
378.80 1.409703e-95
378.90 1.409703e-95
379.00 1.409703e-95
379.10 1.409703e-95
379.20 1.409703e-95
379.30 1.409703e-95
379.40 1.409703e-95
379.50 1.409703e-95
379.60 1.409703e-95
379.70 1.409703e-95
379.80 1.409703e-95
379.90 1.409703e-95
380.00 1.409703e-95
380.10 1.409703e-95
380.20 1.409703e-95
380.30 1.409703e-95
380.40 1.409703e-95
380.50 1.409703e-95
380.60 1.409703e-95
380.70 1.409703e-95
380.80 1.409703e-95
380.90 1.409703e-95
381.00 1.409703e-95
381.10 1.409703e-95
381.20 1.409703e-95
381.30 1.409703e-95
381.40 1.409703e-95
381.50 1.409703e-95
381.60 1.409703e-95
381.70 1.409703e-95
381.80 1.409703e-95
381.90 1.409703e-95
382.00 1.409703e-95
382.10 1.409703e-95
382.20 1.409703e-95
382.30 1.409703e-95
382.40 1.409703e-95
382.50 1.409703e-95
382.60 1.409703e-95
382.70 1.409703e-95
382.80 1.409703e-95
382.90 1.409703e-95
383.00 1.409703e-95
383.10 1.409703e-95
383.20 1.409703e-95
383.30 1.409703e-95
383.40 1.409703e-95
383.50 1.409703e-95
383.60 1.409703e-95
383.70 1.409703e-95
383.80 1.409703e-95
383.90 1.409703e-95
384.00 1.409703e-95
384.10 1.409703e-95
384.20 1.409703e-95
384.30 1.409703e-95
384.40 1.409703e-95
384.50 1.409703e-95
384.60 1.409703e-95
384.70 1.409703e-95
384.80 1.409703e-95
384.90 1.409703e-95
385.00 1.409703e-95
385.10 1.409703e-95
385.20 1.409703e-95
385.30 1.409703e-95
385.40 1.409703e-95
385.50 1.409703e-95
385.60 1.409703e-95
385.70 1.409703e-95
385.80 1.409703e-95
385.90 1.409703e-95
386.00 1.409703e-95
386.10 1.409703e-95
386.20 1.409703e-95
386.30 1.409703e-95
386.40 1.409703e-95
386.50 1.409703e-95
386.60 1.409703e-95
386.70 1.409703e-95
386.80 1.409703e-95
386.90 1.409703e-95
387.00 1.409703e-95
387.10 1.409703e-95
387.20 1.409703e-95
387.30 1.409703e-95
387.40 1.409703e-95
387.50 1.409703e-95
387.60 1.409703e-95
387.70 1.409703e-95
387.80 1.409703e-95
387.90 1.409703e-95
388.00 1.409703e-95
388.10 1.409703e-95
388.20 1.409703e-95
388.30 1.409703e-95
388.40 1.409703e-95
388.50 1.409703e-95
388.60 1.409703e-95
388.70 1.409703e-95
388.80 1.409703e-95
388.90 1.409703e-95
389.00 1.409703e-95
389.10 1.409703e-95
389.20 1.409703e-95
389.30 1.409703e-95
389.40 1.409703e-95
389.50 1.409703e-95
389.60 1.409703e-95
389.70 1.409703e-95
389.80 1.409703e-95
389.90 1.409703e-95
390.00 1.409703e-95
390.10 1.409703e-95
390.20 1.409703e-95
390.30 1.409703e-95
390.40 1.409703e-95
390.50 1.409703e-95
390.60 1.409703e-95
390.70 1.409703e-95
390.80 1.409703e-95
390.90 1.409703e-95
391.00 1.409703e-95
391.10 1.409703e-95
391.20 1.409703e-95
391.30 1.409703e-95
391.40 1.409703e-95
391.50 1.409703e-95
391.60 1.409703e-95
391.70 1.409703e-95
391.80 1.409703e-95
391.90 1.409703e-95
392.00 1.409703e-95
392.10 1.409703e-95
392.20 1.409703e-95
392.30 1.409703e-95
392.40 1.409703e-95
392.50 1.409703e-95
392.60 1.409703e-95
392.70 1.409703e-95
392.80 1.409703e-95
392.90 1.409703e-95
393.00 1.409703e-95
393.10 1.409703e-95
393.20 1.409703e-95
393.30 1.409703e-95
393.40 1.409703e-95
393.50 1.409703e-95
393.60 1.409703e-95
393.70 1.409703e-95
393.80 1.409703e-95
393.90 1.409703e-95
394.00 1.409703e-95
394.10 1.409703e-95
394.20 1.409703e-95
394.30 1.409703e-95
394.40 1.409703e-95
394.50 1.409703e-95
394.60 1.409703e-95
394.70 1.409703e-95
394.80 1.409703e-95
394.90 1.409703e-95
395.00 1.395606e-95
395.10 1.381509e-95
395.20 1.367412e-95
395.30 1.353315e-95
395.40 1.339218e-95
395.50 1.325121e-95
395.60 1.311024e-95
395.70 1.296927e-95
395.80 1.28283e-95
395.90 1.268733e-95
396.00 1.254636e-95
396.10 1.240539e-95
396.20 1.226442e-95
396.30 1.212345e-95
396.40 1.198248e-95
396.50 1.184151e-95
396.60 0.0001487379
396.70 0.004568792
396.80 0.01302115
396.90 0.02487133
397.00 0.0393511
397.10 0.05517705
397.20 0.07103625
397.30 0.08743565
397.40 0.107321
397.50 0.1340083
397.60 0.1679433
397.70 0.2067038
397.80 0.2474509
397.90 0.2869823
398.00 0.3209252
398.10 0.3449692
398.20 0.3573184
398.30 0.357965
398.40 0.357965
398.50 0.357965
398.60 0.357965
398.70 0.357965
398.80 0.357965
398.90 0.357965
399.00 0.357965
399.10 0.357965
399.20 0.3641411
399.30 0.3739142
399.40 0.3835531
399.50 0.3920042
399.60 0.3991096
399.70 0.4050349
399.80 0.4115779
399.90 0.4212569
400.00 0.4358963
400.10 0.4565248
400.20 0.4817576
400.30 0.5090276
400.40 0.5362685
400.50 0.5612574
400.60 0.5829565
400.70 0.6024733
400.80 0.6208462
400.90 0.6373626
401.00 0.6510898
401.10 0.6621307
401.20 0.6709155
401.30 0.6772306
401.40 0.6803054
401.50 0.6803054
401.60 0.6803054
401.70 0.6803054
401.80 0.6803054
401.90 0.6803054
402.00 0.6803054
402.10 0.6803054
402.20 0.6803054
402.30 0.6882781
402.40 0.7078624
402.50 0.7347404
402.60 0.7609376
402.70 0.7769386
402.80 0.7769386
402.90 0.7769386
403.00 0.7769386
403.10 0.7769386
403.20 0.7769386
403.30 0.7769386
403.40 0.7769386
403.50 0.7769386
403.60 0.7769386
403.70 0.7842434
403.80 0.8037919
403.90 0.8322186
404.00 0.8651958
404.10 0.8989879
404.20 0.9301633
404.30 0.9550509
404.40 0.9710524
404.50 0.9768056
404.60 0.9768056
404.70 0.9768056
404.80 0.9768056
404.90 0.9768056
405.00 0.9768056
405.10 0.9768056
405.20 0.9768056
405.30 0.9768056
405.40 0.9768056
405.50 0.9768056
405.60 0.9768056
405.70 0.9768056
405.80 0.9814177
405.90 0.9942616
406.00 1.012291
406.10 1.032801
406.20 1.05344
406.30 1.072457
406.40 1.090469
406.50 1.108718
406.60 1.127895
406.70 1.144141
406.80 1.156174
406.90 1.162297
407.00 1.161407
407.10 1.153657
407.20 1.140263
407.30 1.123863
407.40 1.103978
407.50 1.077291
407.60 1.043356
407.70 1.004595
407.80 0.963848
407.90 0.9243166
408.00 0.8903737
408.10 0.8663297
408.20 0.8574685
408.30 0.8667926
408.40 0.8849635
408.50 0.9113067
408.60 0.9439911
408.70 0.9789583
408.80 1.01062
408.90 1.033931
409.00 1.045067
409.10 1.045067
409.20 1.038891
409.30 1.029118
409.40 1.019479
409.50 1.011028
409.60 1.003922
409.70 0.9979968
409.80 0.9914538
409.90 0.9817748
410.00 0.97184
410.10 0.9636937
410.20 0.9564921
410.30 0.9498052
410.40 0.9425269
410.50 0.9339712
410.60 0.9229726
410.70 0.9072544
410.80 0.8888815
410.90 0.8723651
411.00 0.8586378
411.10 0.8475969
411.20 0.8388122
411.30 0.8324971
411.40 0.8325271
411.50 0.8382845
411.60 0.8460467
411.70 0.8548173
411.80 0.8641282
411.90 0.8741945
412.00 0.8846765
412.10 0.894619
412.20 0.9030494
412.30 0.8999907
412.40 0.8804064
412.50 0.8535284
412.60 0.8273311
412.70 0.8113302
412.80 0.8113302
412.90 0.8113302
413.00 0.8113302
413.10 0.8113302
413.20 0.8113302
413.30 0.8113302
413.40 0.8113302
413.50 0.8113302
413.60 0.8113302
413.70 0.8040254
413.80 0.7844769
413.90 0.7560502
414.00 0.723073
414.10 0.6892809
414.20 0.6581055
414.30 0.6332178
414.40 0.6172163
414.50 0.6114631
414.60 0.6114631
414.70 0.6114631
414.80 0.6114631
414.90 0.6114631
415.00 0.6114631
415.10 0.6114631
415.20 0.6114631
415.30 0.6114631
415.40 0.6114631
415.50 0.6125596
415.60 0.6149227
415.70 0.618098
415.80 0.61734
415.90 0.6083809
416.00 0.5939087
416.10 0.577393
416.20 0.5618096
416.30 0.5490852
416.40 0.5375088
416.50 0.5233825
416.60 0.5040564
416.70 0.4833903
416.80 0.4629051
416.90 0.4449316
417.00 0.4313427
417.10 0.4232664
417.20 0.4208015
417.30 0.4208015
417.40 0.4208015
417.50 0.4208015
417.60 0.4221387
417.70 0.4256045
417.80 0.4277324
417.90 0.4277324
418.00 0.4277324
418.10 0.4277324
418.20 0.4242444
418.30 0.4142737
418.40 0.3961028
418.50 0.3702771
418.60 0.3468249
418.70 0.3317896
418.80 0.329344
418.90 0.340985
419.00 0.3670746
419.10 0.4043115
419.20 0.4406147
419.30 0.4742214
419.40 0.5020051
419.50 0.5209381
419.60 0.5292616
419.70 0.5292616
419.80 0.5292616
419.90 0.5292616
420.00 0.524557
420.10 0.5147021
420.20 0.5099911
420.30 0.5156593
420.40 0.5342775
420.50 0.5651575
420.60 0.604645
420.70 0.6476025
420.80 0.6865791
420.90 0.7167968
421.00 0.7403278
421.10 0.7611926
421.20 0.7842341
421.30 0.8136947
421.40 0.849224
421.50 0.8919281
421.60 0.9403951
421.70 0.9913064
421.80 1.039655
421.90 1.079707
422.00 1.108795
422.10 1.128282
422.20 1.141433
422.30 1.152991
422.40 1.166522
422.50 1.177982
422.60 1.187293
422.70 1.194657
422.80 1.200288
422.90 1.204365
423.00 1.206682
423.10 1.206682
423.20 1.206682
423.30 1.206682
423.40 1.206682
423.50 1.206682
423.60 1.206682
423.70 1.206682
423.80 1.206682
423.90 1.20788
424.00 1.221287
424.10 1.246431
424.20 1.279807
424.30 1.315141
424.40 1.346667
424.50 1.3709
424.60 1.386304
424.70 1.393045
424.80 1.393045
424.90 1.393045
425.00 1.393045
425.10 1.393045
425.20 1.393045
425.30 1.393045
425.40 1.393045
425.50 1.391948
425.60 1.389585
425.70 1.38641
425.80 1.382556
425.90 1.378671
426.00 1.376233
426.10 1.377173
426.20 1.378794
426.30 1.380079
426.40 1.382143
426.50 1.38687
426.60 1.3954
426.70 1.402591
426.80 1.406923
426.90 1.407667
427.00 1.407667
427.10 1.407667
427.20 1.407667
427.30 1.408482
427.40 1.415943
427.50 1.429999
427.60 1.446821
427.70 1.461634
427.80 1.473824
427.90 1.481412
428.00 1.481412
428.10 1.481412
428.20 1.481412
428.30 1.481412
428.40 1.481412
428.50 1.480895
428.60 1.471663
428.70 1.451731
428.80 1.422515
428.90 1.387563
429.00 1.350337
429.10 1.3131
429.20 1.276797
429.30 1.243191
429.40 1.215407
429.50 1.196474
429.60 1.18815
429.70 1.18815
429.80 1.18815
429.90 1.18815
430.00 1.18815
430.10 1.185523
430.20 1.172203
430.30 1.145951
430.40 1.107371
430.50 1.061244
430.60 1.013115
430.70 0.9684395
430.80 0.9310979
430.90 0.903051
431.00 0.8847736
431.10 0.87572
431.20 0.8734459
431.30 0.8728955
431.40 0.868998
431.50 0.8594902
431.60 0.844526
431.70 0.8247386
431.80 0.802212
431.90 0.7808634
432.00 0.7634876
432.10 0.7502953
432.20 0.7396789
432.30 0.7290902
432.40 0.7162494
432.50 0.704789
432.60 0.6954785
432.70 0.6881138
432.80 0.6824829
432.90 0.6784063
433.00 0.6760897
433.10 0.6760897
433.20 0.6760897
433.30 0.6760897
433.40 0.6760897
433.50 0.6760897
433.60 0.6760897
433.70 0.6760897
433.80 0.6792492
433.90 0.6874537
434.00 0.6897723
434.10 0.6854819
434.20 0.677073
434.30 0.6699133
434.40 0.6677192
434.50 0.6713324
434.60 0.6806553
434.70 0.6948123
434.80 0.7118294
434.90 0.7259784
435.00 0.7395493
435.10 0.7548613
435.20 0.7720301
435.30 0.7886046
435.40 0.801726
435.50 0.8094613
435.60 0.8097919
435.70 0.8097919
435.80 0.8097919
435.90 0.8097919
436.00 0.8086732
436.10 0.8037383
436.20 0.7970621
436.30 0.7894842
436.40 0.7809846
436.50 0.7721351
436.60 0.7636052
436.70 0.7564141
436.80 0.7520818
436.90 0.7513378
437.00 0.7513378
437.10 0.752226
437.20 0.7532807
437.30 0.7524658
437.40 0.745005
437.50 0.7309487
437.60 0.7127901
437.70 0.6945112
437.80 0.6801934
437.90 0.6726048
438.00 0.6726048
438.10 0.6726048
438.20 0.6828099
438.30 0.7031872
438.40 0.7304568
438.50 0.7595484
438.60 0.785499
438.70 0.8038893
438.80 0.8110795
438.90 0.8110795
439.00 0.8110795
439.10 0.8110795
439.20 0.8110795
439.30 0.8110795
439.40 0.8110795
439.50 0.8110795
439.60 0.8110795
439.70 0.8110795
439.80 0.8209201
439.90 0.8390606
440.00 0.8616196
440.10 0.8846932
440.20 0.9055384
440.30 0.9232861
440.40 0.9383408
440.50 0.949581
440.60 0.9571014
440.70 0.9624283
440.80 0.9679572
440.90 0.9751543
441.00 0.9827684
441.10 0.9873963
441.20 0.9860413
441.30 0.9781674
441.40 0.9650962
441.50 0.9483179
441.60 0.9305738
441.70 0.9163592
441.80 0.9087128
441.90 0.9095435
442.00 0.9215634
442.10 0.9460675
442.20 0.9816447
442.30 1.02561
442.40 1.074756
442.50 1.121019
442.60 1.160772
442.70 1.192988
442.80 1.218377
442.90 1.238792
443.00 1.255941
443.10 1.271013
443.20 1.285477
443.30 1.299554
443.40 1.311334
443.50 1.31965
443.60 1.325668
443.70 1.330714
443.80 1.332281
443.90 1.3276
444.00 1.316492
444.10 1.299828
444.20 1.278719
444.30 1.25481
444.40 1.231507
444.50 1.213757
444.60 1.205458
444.70 1.208448
444.80 1.223134
444.90 1.247495
445.00 1.276224
445.10 1.303511
445.20 1.326623
445.30 1.346147
445.40 1.363748
445.50 1.381343
445.60 1.40182
445.70 1.41963
445.80 1.436374
445.90 1.453191
446.00 1.470588
446.10 1.48918
446.20 1.508852
446.30 1.529391
446.40 1.551372
446.50 1.575377
446.60 1.600673
446.70 1.625585
446.80 1.648979
446.90 1.670082
447.00 1.688303
447.10 1.702744
447.20 1.714988
447.30 1.728149
447.40 1.743562
447.50 1.764067
447.60 1.793043
447.70 1.832108
447.80 1.879654
447.90 1.931324
448.00 1.981928
448.10 2.027312
448.20 2.053824
448.30 2.058693
448.40 2.044361
448.50 2.017585
448.60 1.991635
448.70 1.973244
448.80 1.966054
448.90 1.967662
449.00 1.975686
449.10 1.989454
449.20 2.007968
449.30 2.030468
449.40 2.056615
449.50 2.085444
449.60 2.115311
449.70 2.144876
449.80 2.162896
449.90 2.169053
450.00 2.165171
450.10 2.15398
450.20 2.138315
450.30 2.120567
450.40 2.105513
450.50 2.093086
450.60 2.083506
450.70 2.076099
450.80 2.068935
450.90 2.059567
451.00 2.049906
451.10 2.040277
451.20 2.030665
451.30 2.021973
451.40 2.015742
451.50 2.012885
451.60 2.013357
451.70 2.016948
451.80 2.023151
451.90 2.029229
452.00 2.028496
452.10 2.014372
452.20 1.984418
452.30 1.940152
452.40 1.890315
452.50 1.844053
452.60 1.804299
452.70 1.772083
452.80 1.748237
452.90 1.737204
453.00 1.735591
453.10 1.738441
453.20 1.740052
453.30 1.736803
453.40 1.729431
453.50 1.721115
453.60 1.715097
453.70 1.710051
453.80 1.705324
453.90 1.700602
454.00 1.699861
454.10 1.704782
454.20 1.714957
454.30 1.72874
454.40 1.743116
454.50 1.754373
454.60 1.759066
454.70 1.755259
454.80 1.742755
454.90 1.723621
455.00 1.702045
455.10 1.681898
455.20 1.665701
455.30 1.654938
455.40 1.649033
455.50 1.644875
455.60 1.638605
455.70 1.627226
455.80 1.610483
455.90 1.593666
456.00 1.576269
456.10 1.557677
456.20 1.538005
456.30 1.517466
456.40 1.495485
456.50 1.471479
456.60 1.446184
456.70 1.421272
456.80 1.397878
456.90 1.376775
457.00 1.363855
457.10 1.361634
457.20 1.36694
457.30 1.374707
457.40 1.379453
457.50 1.375396
457.60 1.356718
457.70 1.320216
457.80 1.272671
457.90 1.221001
458.00 1.170396
458.10 1.125012
458.20 1.088295
458.30 1.063049
458.40 1.05248
458.50 1.059907
458.60 1.076354
458.70 1.098232
458.80 1.124356
458.90 1.152457
459.00 1.177578
459.10 1.199922
459.20 1.219634
459.30 1.235822
459.40 1.246001
459.50 1.248005
459.60 1.24131
459.70 1.2271
459.80 1.207907
459.90 1.186881
460.00 1.168204
460.10 1.156322
460.20 1.151141
460.30 1.151203
460.40 1.152599
460.50 1.155603
460.60 1.160821
460.70 1.169485
460.80 1.183539
460.90 1.20444
461.00 1.228895
461.10 1.253999
461.20 1.276149
461.30 1.292304
461.40 1.300238
461.50 1.298481
461.60 1.286032
461.70 1.262766
461.80 1.231363
461.90 1.19695
462.00 1.166098
462.10 1.144802
462.20 1.136727
462.30 1.143235
462.40 1.15903
462.50 1.178343
462.60 1.200593
462.70 1.224297
462.80 1.245241
462.90 1.254027
463.00 1.250639
463.10 1.239436
463.20 1.226501
463.30 1.217414
463.40 1.215653
463.50 1.22126
463.60 1.230614
463.70 1.242701
463.80 1.255155
463.90 1.265441
464.00 1.26831
464.10 1.262532
464.20 1.249936
464.30 1.232854
464.40 1.213216
464.50 1.192282
464.60 1.17116
464.70 1.15108
464.80 1.131881
464.90 1.112505
465.00 1.091782
465.10 1.06933
465.20 1.045246
465.30 1.01991
465.40 0.9950916
465.50 0.9739205
465.60 0.9595247
465.70 0.9552012
465.80 0.9594984
465.90 0.9655796
466.00 0.9729736
466.10 0.980869
466.20 0.9878754
466.30 0.9929364
466.40 0.9965155
466.50 1.000616
466.60 1.007883
466.70 1.020377
466.80 1.038818
466.90 1.062507
467.00 1.0842
467.10 1.098913
467.20 1.107128
467.30 1.110837
467.40 1.112907
467.50 1.117021
467.60 1.1263
467.70 1.142405
467.80 1.159063
467.90 1.171406
468.00 1.177193
468.10 1.177193
468.20 1.177193
468.30 1.177193
468.40 1.174825
468.50 1.165082
468.60 1.148635
468.70 1.126757
468.80 1.100634
468.90 1.070925
469.00 1.03778
469.10 1.001668
469.20 0.9634411
469.30 0.9252059
469.40 0.8941567
469.50 0.8710287
469.60 0.8559664
469.70 0.8484057
469.80 0.8475618
469.90 0.8539276
470.00 0.8679445
470.10 0.8888581
470.20 0.9184757
470.30 0.9568965
470.40 1.001264
470.50 1.048088
470.60 1.092234
470.70 1.127541
470.80 1.148437
470.90 1.151901
471.00 1.13783
471.10 1.109783
471.20 1.077833
471.30 1.049333
471.40 1.025965
471.50 1.008403
471.60 0.9968597
471.70 0.9973979
471.80 1.015556
471.90 1.048801
472.00 1.092166
472.10 1.140021
472.20 1.187002
472.30 1.228066
472.40 1.258985
472.50 1.276986
472.60 1.282227
472.70 1.27865
472.80 1.272477
472.90 1.27001
473.00 1.274811
473.10 1.286632
473.20 1.303077
473.30 1.321316
473.40 1.33852
473.50 1.351891
473.60 1.35943
473.70 1.361037
473.80 1.358061
473.90 1.352711
474.00 1.346795
474.10 1.343463
474.20 1.342025
474.30 1.34106
474.40 1.340291
474.50 1.339873
474.60 1.339873
474.70 1.339873
474.80 1.345727
474.90 1.359364
475.00 1.380798
475.10 1.409061
475.20 1.443662
475.30 1.484097
475.40 1.528274
475.50 1.573623
475.60 1.617675
475.70 1.656558
475.80 1.688448
475.90 1.712585
476.00 1.728637
476.10 1.737336
476.20 1.741105
476.30 1.743155
476.40 1.745837
476.50 1.749358
476.60 1.750939
476.70 1.746701
476.80 1.734209
476.90 1.713242
477.00 1.686248
477.10 1.658426
477.20 1.631607
477.30 1.606969
477.40 1.584741
477.50 1.564179
477.60 1.547931
477.70 1.535586
477.80 1.526083
477.90 1.519288
478.00 1.516428
478.10 1.517416
478.20 1.518237
478.30 1.521267
478.40 1.52882
478.50 1.542405
478.60 1.561868
478.70 1.585658
478.80 1.612105
478.90 1.639626
479.00 1.666658
479.10 1.691998
479.20 1.714862
479.30 1.735138
479.40 1.749598
479.50 1.761389
479.60 1.772415
479.70 1.782697
479.80 1.791446
479.90 1.796909
480.00 1.796603
480.10 1.788555
480.20 1.771665
480.30 1.746067
480.40 1.713228
480.50 1.676372
480.60 1.640531
480.70 1.610767
480.80 1.589997
480.90 1.579036
481.00 1.578079
481.10 1.586602
481.20 1.599144
481.30 1.611761
481.40 1.624735
481.50 1.638573
481.60 1.653395
481.70 1.663082
481.80 1.661003
481.90 1.647135
482.00 1.623505
482.10 1.593347
482.20 1.560029
482.30 1.526746
482.40 1.496957
482.50 1.474826
482.60 1.463093
482.70 1.46151
482.80 1.468011
482.90 1.479445
483.00 1.492029
483.10 1.501319
483.20 1.503265
483.30 1.495788
483.40 1.479709
483.50 1.460731
483.60 1.443838
483.70 1.431553
483.80 1.432438
483.90 1.448311
484.00 1.476979
484.10 1.511864
484.20 1.548244
484.30 1.582392
484.40 1.612329
484.50 1.638916
484.60 1.664857
484.70 1.692984
484.80 1.719678
484.90 1.744415
485.00 1.767219
485.10 1.787501
485.20 1.802843
485.30 1.809953
485.40 1.807233
485.50 1.7952
485.60 1.776422
485.70 1.754822
485.80 1.73482
485.90 1.720374
486.00 1.713862
486.10 1.714968
486.20 1.720489
486.30 1.725278
486.40 1.723876
486.50 1.716255
486.60 1.707407
486.70 1.699151
486.80 1.693203
486.90 1.69048
487.00 1.69048
487.10 1.700584
487.20 1.723237
487.30 1.75688
487.40 1.798384
487.50 1.844045
487.60 1.886755
487.70 1.92346
487.80 1.954622
487.90 1.982219
488.00 2.006946
488.10 2.028331
488.20 2.045358
488.30 2.055795
488.40 2.056246
488.50 2.044219
488.60 2.024756
488.70 2.000966
488.80 1.97452
488.90 1.946998
489.00 1.919966
489.10 1.894626
489.20 1.871762
489.30 1.851034
489.40 1.831745
489.50 1.812608
489.60 1.793472
489.70 1.775396
489.80 1.758823
489.90 1.743723
490.00 1.730702
490.10 1.723272
490.20 1.720548
490.30 1.721523
490.40 1.725337
490.50 1.73033
490.60 1.733723
490.70 1.733367
490.80 1.729424
490.90 1.724038
491.00 1.71928
491.10 1.716426
491.20 1.716478
491.30 1.719757
491.40 1.725108
491.50 1.73036
491.60 1.733252
491.70 1.731688
491.80 1.724101
491.90 1.71073
492.00 1.693927
492.10 1.677238
492.20 1.664416
492.30 1.658228
492.40 1.659644
492.50 1.666842
492.60 1.676086
492.70 1.683287
492.80 1.68523
492.90 1.681106
493.00 1.672578
493.10 1.663287
493.20 1.657555
493.30 1.658571
493.40 1.667204
493.50 1.679977
493.60 1.694325
493.70 1.709561
493.80 1.71804
493.90 1.717027
494.00 1.706453
494.10 1.688265
494.20 1.665289
494.30 1.640222
494.40 1.615275
494.50 1.591131
494.60 1.566867
494.70 1.541032
494.80 1.512365
494.90 1.479698
495.00 1.442029
495.10 1.398825
495.20 1.350371
495.30 1.302826
495.40 1.261368
495.50 1.228053
495.60 1.202637
495.70 1.183245
495.80 1.16706
495.90 1.151288
496.00 1.134354
496.10 1.116654
496.20 1.102874
496.30 1.099646
496.40 1.107065
496.50 1.120374
496.60 1.132757
496.70 1.142816
496.80 1.149432
496.90 1.151568
497.00 1.151568
497.10 1.141464
497.20 1.118811
497.30 1.085169
497.40 1.043664
497.50 0.9980031
497.60 0.9519642
497.70 0.9089368
497.80 0.8706181
497.90 0.8374731
498.00 0.8098192
498.10 0.7874462
498.20 0.7695982
498.30 0.7561306
498.40 0.7481266
498.50 0.746569
498.60 0.7508091
498.70 0.7629589
498.80 0.7817173
498.90 0.8059947
499.00 0.8345199
499.10 0.864652
499.20 0.8935098
499.30 0.9190157
499.40 0.9392841
499.50 0.9542566
499.60 0.9648116
499.70 0.9722695
499.80 0.9788668
499.90 0.9874076
500.00 1
500.10 1.014903
500.20 1.033318
500.30 1.054236
500.40 1.0748
500.50 1.092574
500.60 1.106685
500.70 1.117746
500.80 1.126521
500.90 1.132843
501.00 1.136485
501.10 1.137899
501.20 1.138229
501.30 1.138756
501.40 1.140073
501.50 1.142573
501.60 1.146986
501.70 1.153987
501.80 1.163997
501.90 1.17637
502.00 1.188832
502.10 1.198361
502.20 1.202682
502.30 1.20078
502.40 1.192589
502.50 1.179285
502.60 1.163263
502.70 1.14782
502.80 1.136017
502.90 1.128831
503.00 1.126059
503.10 1.126952
503.20 1.1289
503.30 1.128094
503.40 1.120981
503.50 1.108208
503.60 1.093861
503.70 1.077216
503.80 1.058374
503.90 1.038579
504.00 1.019655
504.10 1.002958
504.20 0.9895538
504.30 0.9804731
504.40 0.9754832
504.50 0.9730399
504.60 0.9713626
504.70 0.9690703
504.80 0.9665839
504.90 0.9667877
505.00 0.9704396
505.10 0.9792076
505.20 0.99516
505.30 1.014644
505.40 1.03402
505.50 1.050848
505.60 1.062595
505.70 1.067544
505.80 1.067544
505.90 1.067544
506.00 1.067544
506.10 1.067544
506.20 1.065027
506.30 1.056355
506.40 1.044076
506.50 1.030768
506.60 1.018384
506.70 1.008326
506.80 1.001709
506.90 0.9995735
507.00 0.9998418
507.10 1.004501
507.20 1.013364
507.30 1.0254
507.40 1.039257
507.50 1.053898
507.60 1.069431
507.70 1.086759
507.80 1.106105
507.90 1.126514
508.00 1.146259
508.10 1.163559
508.20 1.177297
508.30 1.187197
508.40 1.193322
508.50 1.196067
508.60 1.1921
508.70 1.17995
508.80 1.161191
508.90 1.136914
509.00 1.108389
509.10 1.078973
509.20 1.051884
509.30 1.029258
509.40 1.012155
509.50 1.000596
509.60 0.9938167
509.70 0.990387
509.80 0.9889114
509.90 0.9878355
510.00 0.9855788
510.10 0.9812592
510.20 0.9750217
510.30 0.9687506
510.40 0.9658322
510.50 0.9694536
510.60 0.9811647
510.70 1.000219
510.80 1.024921
510.90 1.053006
511.00 1.080827
511.10 1.104016
511.20 1.118826
511.30 1.123641
511.40 1.119599
511.50 1.109011
511.60 1.094124
511.70 1.077192
511.80 1.060168
511.90 1.044309
512.00 1.030425
512.10 1.019115
512.20 1.009805
512.30 1.001385
512.40 0.99337
512.50 0.9852166
512.60 0.9762358
512.70 0.9659331
512.80 0.9529795
512.90 0.9371547
513.00 0.9189206
513.10 0.8994887
513.20 0.8817422
513.30 0.8690302
513.40 0.8637364
513.50 0.8637364
513.60 0.8637364
513.70 0.8637364
513.80 0.8637364
513.90 0.8637364
514.00 0.8637364
514.10 0.8658037
514.20 0.8739328
514.30 0.888193
514.40 0.9072878
514.50 0.9291223
514.60 0.9511329
514.70 0.9706942
514.80 0.9846733
514.90 0.9895394
515.00 0.985938
515.10 0.9754698
515.20 0.9604588
515.30 0.9440949
515.40 0.9302821
515.50 0.9226541
515.60 0.9242741
515.70 0.9371585
515.80 0.9595866
515.90 0.9862746
516.00 1.016293
516.10 1.04836
516.20 1.081551
516.30 1.116077
516.40 1.152496
516.50 1.19057
516.60 1.228895
516.70 1.265515
516.80 1.299272
516.90 1.32992
517.00 1.357402
517.10 1.377866
517.20 1.391539
517.30 1.399212
517.40 1.401854
517.50 1.400406
517.60 1.3951
517.70 1.385225
517.80 1.370811
517.90 1.353696
518.00 1.336703
518.10 1.322219
518.20 1.311071
518.30 1.302606
518.40 1.296481
518.50 1.293736
518.60 1.293464
518.70 1.293464
518.80 1.294627
518.90 1.299248
519.00 1.307306
519.10 1.317289
519.20 1.328081
519.30 1.338667
519.40 1.348402
519.50 1.357155
519.60 1.364642
519.70 1.371003
519.80 1.376735
519.90 1.382366
520.00 1.387846
520.10 1.391785
520.20 1.392382
520.30 1.388968
520.40 1.381355
520.50 1.368721
520.60 1.350113
520.70 1.325787
520.80 1.296684
520.90 1.264344
521.00 1.231657
521.10 1.202102
521.20 1.17807
521.30 1.159915
521.40 1.146548
521.50 1.136561
521.60 1.12932
521.70 1.124587
521.80 1.120821
521.90 1.117037
522.00 1.113179
522.10 1.110216
522.20 1.10805
522.30 1.106998
522.40 1.107534
522.50 1.110167
522.60 1.115424
522.70 1.1236
522.80 1.135694
522.90 1.152299
523.00 1.172929
523.10 1.195335
523.20 1.216263
523.30 1.232963
523.40 1.244637
523.50 1.252456
523.60 1.258194
523.70 1.263265
523.80 1.268899
523.90 1.276993
524.00 1.289402
524.10 1.304292
524.20 1.315933
524.30 1.321696
524.40 1.321015
524.50 1.315366
524.60 1.307488
524.70 1.300322
524.80 1.295683
524.90 1.294112
525.00 1.296338
525.10 1.303145
525.20 1.314385
525.30 1.328644
525.40 1.343292
525.50 1.355879
525.60 1.365369
525.70 1.371359
525.80 1.373067
525.90 1.369202
526.00 1.359228
526.10 1.344263
526.20 1.32617
526.30 1.306308
526.40 1.285623
526.50 1.265646
526.60 1.248548
526.70 1.236026
526.80 1.228306
526.90 1.224573
527.00 1.223494
527.10 1.223399
527.20 1.22275
527.30 1.22129
527.40 1.219531
527.50 1.217441
527.60 1.214578
527.70 1.210221
527.80 1.205288
527.90 1.201994
528.00 1.199243
528.10 1.196426
528.20 1.193836
528.30 1.192401
528.40 1.192401
528.50 1.192401
528.60 1.192809
528.70 1.199313
528.80 1.210449
528.90 1.222996
529.00 1.235192
529.10 1.245668
529.20 1.253642
529.30 1.258923
529.40 1.26185
529.50 1.263072
529.60 1.263369
529.70 1.263299
529.80 1.263011
529.90 1.262691
530.00 1.262813
530.10 1.263727
530.20 1.265359
530.30 1.266878
530.40 1.267475
530.50 1.267964
530.60 1.27016
530.70 1.275482
530.80 1.284769
530.90 1.298352
531.00 1.31602
531.10 1.336498
531.20 1.357377
531.30 1.37621
531.40 1.390913
531.50 1.399905
531.60 1.401815
531.70 1.401815
531.80 1.401815
531.90 1.401815
532.00 1.401533
532.10 1.399946
532.20 1.397748
532.30 1.395438
532.40 1.392767
532.50 1.389211
532.60 1.383955
532.70 1.377864
532.80 1.369612
532.90 1.358618
533.00 1.34615
533.10 1.335541
533.20 1.331551
533.30 1.337831
533.40 1.354655
533.50 1.379563
533.60 1.408546
533.70 1.437088
533.80 1.461247
533.90 1.476903
534.00 1.480075
534.10 1.469825
534.20 1.450056
534.30 1.430032
534.40 1.411618
534.50 1.395432
534.60 1.3813
534.70 1.368905
534.80 1.35817
534.90 1.348965
535.00 1.340119
535.10 1.333453
535.20 1.328596
535.30 1.323957
535.40 1.319207
535.50 1.314018
535.60 1.307342
535.70 1.298528
535.80 1.288592
535.90 1.280331
536.00 1.276168
536.10 1.275681
536.20 1.275604
536.30 1.271353
536.40 1.258883
536.50 1.240786
536.60 1.219558
536.70 1.195461
536.80 1.169424
536.90 1.142509
537.00 1.115837
537.10 1.090809
537.20 1.068922
537.30 1.050673
537.40 1.035933
537.50 1.02483
537.60 1.017466
537.70 1.014371
537.80 1.014371
537.90 1.014371
538.00 1.015042
538.10 1.015042
538.20 1.015042
538.30 1.015042
538.40 1.015042
538.50 1.015042
538.60 1.014633
538.70 1.00813
538.80 0.9958313
538.90 0.9786625
539.00 0.9584087
539.10 0.9372339
539.20 0.9166986
539.30 0.8979514
539.40 0.8816755
539.50 0.8679286
539.60 0.8563677
539.70 0.84605
539.80 0.8354835
539.90 0.826775
540.00 0.8189431
540.10 0.8120402
540.20 0.8070573
540.30 0.8049727
540.40 0.8059044
540.50 0.808339
540.60 0.8104427
540.70 0.8116566
540.80 0.8116892
540.90 0.8097183
541.00 0.8051387
541.10 0.7981492
541.20 0.790474
541.30 0.7854326
541.40 0.7863696
541.50 0.7951404
541.60 0.8119802
541.70 0.8290302
541.80 0.8427439
541.90 0.8520749
542.00 0.856156
542.10 0.856156
542.20 0.856156
542.30 0.856156
542.40 0.856156
542.50 0.856156
542.60 0.856156
542.70 0.8540707
542.80 0.8502284
542.90 0.8446187
543.00 0.8364551
543.10 0.8246593
543.20 0.8077205
543.30 0.7868263
543.40 0.7626127
543.50 0.7358349
543.60 0.7078618
543.70 0.6807659
543.80 0.6568249
543.90 0.6389725
544.00 0.6306925
544.10 0.6340782
544.20 0.6476789
544.30 0.6647276
544.40 0.685134
544.50 0.7089897
544.60 0.7361211
544.70 0.765911
544.80 0.7972989
544.90 0.8292275
545.00 0.8612074
545.10 0.8897505
545.20 0.913929
545.30 0.9342764
545.40 0.950706
545.50 0.9633979
545.60 0.9732916
545.70 0.9814585
545.80 0.9877071
545.90 0.9907753
546.00 0.989772
546.10 0.9846783
546.20 0.9770362
546.30 0.9699645
546.40 0.9667016
546.50 0.9667016
546.60 0.9667016
546.70 0.9667016
546.80 0.9667016
546.90 0.9701667
547.00 0.9788636
547.10 0.99303
547.20 1.011689
547.30 1.032579
547.40 1.052956
547.50 1.071046
547.60 1.086334
547.70 1.098799
547.80 1.109179
547.90 1.118967
548.00 1.129422
548.10 1.144225
548.20 1.164691
548.30 1.191398
548.40 1.222602
548.50 1.254146
548.60 1.28111
548.70 1.299103
548.80 1.304729
548.90 1.304729
549.00 1.304729
549.10 1.304729
549.20 1.304729
549.30 1.304729
549.40 1.304729
549.50 1.304729
549.60 1.304729
549.70 1.304729
549.80 1.304729
549.90 1.300663
550.00 1.445134
550.10 1.48055
550.20 1.527197
550.30 1.57421
550.40 1.61444
550.50 1.644792
550.60 1.66614
550.70 1.681013
550.80 1.69233
550.90 1.70206
551.00 1.71162
551.10 1.723395
551.20 1.740559
551.30 1.764704
551.40 1.791698
551.50 1.810919
551.60 1.810501
551.70 1.781008
551.80 1.716605
551.90 1.636784
552.00 1.556834
552.10 1.476023
552.20 1.393542
552.30 1.310823
552.40 1.231096
552.50 1.157874
552.60 1.092686
552.70 1.034745
552.80 0.983621
552.90 0.9395484
553.00 0.9023536
553.10 0.8752029
553.20 0.8648484
553.30 0.8693616
553.40 0.8850369
553.50 0.9023639
553.60 0.9213083
553.70 0.9402058
553.80 0.9552551
553.90 0.9550442
554.00 0.9342045
554.10 0.8987885
554.20 0.8521422
554.30 0.7999155
554.40 0.7489744
554.50 0.7037486
554.60 0.6655292
554.70 0.6343658
554.80 0.6084169
554.90 0.5839456
555.00 0.5561302
555.10 0.519124
555.20 0.4679583
555.30 0.4011919
555.40 0.3231815
555.50 0.2443216
555.60 0.1769111
555.70 0.131929
555.80 0.1178625
555.90 0.1178625
556.00 0.1178625
556.10 0.1178625
556.20 0.1178625
556.30 0.1201602
556.40 0.1330244
556.50 0.142965
556.60 0.1506412
556.70 0.1686558
556.80 0.2094609
556.90 0.2771006
557.00 0.3691735
557.10 0.4785403
557.20 0.5916758
557.30 0.699984
557.40 0.7943993
557.50 0.864849
557.60 0.9041178
557.70 0.9129845
557.80 0.8997117
557.90 0.8912599
558.00 0.8903573
558.10 0.8903573
558.20 0.8903573
558.30 0.901921
558.40 0.9305002
558.50 0.969159
558.60 1.008291
558.70 1.03868
558.80 1.055442
558.90 1.05964
559.00 1.05964
559.10 1.05964
559.20 1.05964
559.30 1.05964
559.40 1.05964
559.50 1.05964
559.60 1.05964
559.70 1.05964
559.80 1.05964
559.90 1.064905
560.00 1.081814
560.10 1.109886
560.20 1.147355
560.30 1.187466
560.40 1.216339
560.50 1.243589
560.60 1.268971
560.70 1.283381
560.80 1.277402
560.90 1.247749
561.00 1.197217
561.10 1.132011
561.20 1.059894
561.30 0.9878807
561.40 0.9242202
561.50 0.8781219
561.60 0.8539001
561.70 0.850077
561.80 0.8606274
561.90 0.8606274
562.00 0.8606274
562.10 0.8606274
562.20 0.8606274
562.30 0.8490637
562.40 0.8204845
562.50 0.7818258
562.60 0.7426936
562.70 0.7123045
562.80 0.6955429
562.90 0.6913445
563.00 0.691506
563.10 0.6940789
563.20 0.6940789
563.30 0.6940789
563.40 0.6940789
563.50 0.6940789
563.60 0.6940789
563.70 0.6940789
563.80 0.6940789
563.90 0.6888143
564.00 0.671905
564.10 0.643833
564.20 0.6063642
564.30 0.5639555
564.40 0.5222179
564.50 0.4850279
564.60 0.4564034
564.70 0.431681
564.80 0.4027535
564.90 0.3670322
565.00 0.3256873
565.10 0.2810049
565.20 0.2395425
565.30 0.210913
565.40 0.2006796
565.50 0.2090411
565.60 0.2335585
565.70 0.2704877
565.80 0.3136915
565.90 0.3555685
566.00 0.3797615
566.10 0.3865676
566.20 0.3865676
566.30 0.3865676
566.40 0.3865676
566.50 0.3865676
566.60 0.3865676
566.70 0.3865676
566.80 0.3865676
566.90 0.3865676
567.00 0.4043048
567.10 0.4400921
567.20 0.4963697
567.30 0.5635984
567.40 0.6317744
567.50 0.692486
567.60 0.7395944
567.70 0.768905
567.80 0.7800666
567.90 0.7800666
568.00 0.7800666
568.10 0.7800666
568.20 0.7800666
568.30 0.7800666
568.40 0.7800666
568.50 0.7800666
568.60 0.7756328
568.70 0.7679307
568.80 0.7620316
568.90 0.7597662
569.00 0.7595701
569.10 0.7584398
569.20 0.7507912
569.30 0.730256
569.40 0.6940592
569.50 0.6440194
569.60 0.6058529
569.70 0.5879249
569.80 0.5932098
569.90 0.6216455
570.00 0.668524
570.10 0.7268012
570.20 0.7808798
570.30 0.8229666
570.40 0.8562953
570.50 0.8853272
570.60 0.9145703
570.70 0.9496934
570.80 0.9976261
570.90 1.063604
571.00 1.129855
571.10 1.188608
571.20 1.234043
571.30 1.263477
571.40 1.278524
571.50 1.282266
571.60 1.279256
571.70 1.27577
571.80 1.277235
571.90 1.282596
572.00 1.284933
572.10 1.287152
572.20 1.291373
572.30 1.29808
572.40 1.305617
572.50 1.311571
572.60 1.313275
572.70 1.313275
572.80 1.313275
572.90 1.313275
573.00 1.313275
573.10 1.313275
573.20 1.313275
573.30 1.313275
573.40 1.313275
573.50 1.313275
573.60 1.299729
573.70 1.271792
573.80 1.228336
573.90 1.173144
574.00 1.112558
574.10 1.053702
574.20 1.003269
574.30 0.9661065
574.40 0.9443
574.50 0.9360934
574.60 0.9346675
574.70 0.929422
574.80 0.910409
574.90 0.8730512
575.00 0.8196963
575.10 0.7575624
575.20 0.6962459
575.30 0.6443524
575.40 0.6052386
575.50 0.5780771
575.60 0.5605119
575.70 0.5472417
575.80 0.5346146
575.90 0.5292542
576.00 0.5269172
576.10 0.5246978
576.20 0.5204771
576.30 0.5137704
576.40 0.5062335
576.50 0.5002793
576.60 0.4985755
576.70 0.4985755
576.80 0.4985755
576.90 0.4985755
577.00 0.4985755
577.10 0.4985755
577.20 0.4985755
577.30 0.4985755
577.40 0.4985755
577.50 0.4985755
577.60 0.4917791
577.70 0.4786095
577.80 0.4736198
577.90 0.4810639
578.00 0.502429
578.10 0.5361006
578.20 0.5808618
578.30 0.6337753
578.40 0.6893882
578.50 0.7435968
578.60 0.796739
578.70 0.8512648
578.80 0.9065141
578.90 0.9594896
579.00 1.007557
579.10 1.048882
579.20 1.08239
579.30 1.108936
579.40 1.131433
579.50 1.152768
579.60 1.174895
579.70 1.201661
579.80 1.233408
579.90 1.258158
580.00 1.275084
580.10 1.284363
580.20 1.289035
580.30 1.293461
580.40 1.301596
580.50 1.317564
580.60 1.3465
580.70 1.392889
580.80 1.459332
580.90 1.545683
581.00 1.647136
581.10 1.753357
581.20 1.849813
581.30 1.922479
581.40 1.962885
581.50 1.969471
581.60 1.969471
581.70 1.967635
581.80 1.955266
581.90 1.9327
582.00 1.900849
582.10 1.860951
582.20 1.812544
582.30 1.754706
582.40 1.692816
582.50 1.631882
582.60 1.573543
582.70 1.521496
582.80 1.47954
582.90 1.448442
583.00 1.426243
583.10 1.41063
583.20 1.398115
583.30 1.384434
583.40 1.367874
583.50 1.350194
583.60 1.335062
583.70 1.326267
583.80 1.328439
583.90 1.348366
584.00 1.391962
584.10 1.46011
584.20 1.545813
584.30 1.634582
584.40 1.70958
584.50 1.756627
584.60 1.764723
584.70 1.727727
584.80 1.661284
584.90 1.574933
585.00 1.47348
585.10 1.367259
585.20 1.270803
585.30 1.198137
585.40 1.157731
585.50 1.151145
585.60 1.151145
585.70 1.151145
585.80 1.151145
585.90 1.151145
586.00 1.151145
586.10 1.151145
586.20 1.151145
586.30 1.151145
586.40 1.1459
586.50 1.131801
586.60 1.10918
586.70 1.076824
586.80 1.03461
586.90 0.9841128
587.00 0.9274504
587.10 0.8667575
587.20 0.8053687
587.30 0.747735
587.40 0.7050216
587.50 0.6833767
587.60 0.6848113
587.70 0.708331
587.80 0.750722
587.90 0.8048579
588.00 0.8596181
588.10 0.9002716
588.20 0.9092677
588.30 0.8767495
588.40 0.807088
588.50 0.7440742
588.60 0.7070408
588.70 0.6976484
588.80 0.6976484
588.90 0.6976484
589.00 0.6976484
589.10 0.6976484
589.20 0.6976484
589.30 0.6976484
589.40 0.6976484
589.50 0.6987868
589.60 0.7235772
589.70 0.7718525
589.80 0.8401245
589.90 0.920188
590.00 0.9985878
590.10 1.062197
590.20 1.103684
590.30 1.121246
590.40 1.121246
590.50 1.121246
590.60 1.121246
590.70 1.121246
590.80 1.121246
590.90 1.121246
591.00 1.121246
591.10 1.121246
591.20 1.121246
591.30 1.121246
591.40 1.113913
591.50 1.094611
591.60 1.059648
591.70 1.005604
591.80 0.9292935
591.90 0.8304808
592.00 0.7151979
592.10 0.5971171
592.20 0.497746
592.30 0.437069
592.40 0.4235975
592.50 0.4235975
592.60 0.4235975
592.70 0.4235975
592.80 0.4235975
592.90 0.4235975
593.00 0.4235975
593.10 0.4235975
593.20 0.4235975
593.30 0.4238079
593.40 0.4238079
593.50 0.4226696
593.60 0.3978792
593.70 0.3496038
593.80 0.2813319
593.90 0.2012683
594.00 0.1228686
594.10 0.05925896
594.20 0.0177728
594.30 0.0002104296
594.40 0.0002104296
594.50 0.0002104296
594.60 0.0002104296
594.70 0.0002104296
594.80 0.0002104296
594.90 0.0002104296
595.00 0.01308858
595.10 0.04896912
595.20 0.1022442
595.30 0.1648503
595.40 0.2282067
595.50 0.2862176
595.60 0.3373759
595.70 0.3839321
595.80 0.4294895
595.90 0.4780485
596.00 0.533757
596.10 0.5993144
596.20 0.6726596
596.30 0.7455783
596.40 0.8077994
596.50 0.851235
596.60 0.8723701
596.70 0.872607
596.80 0.872607
596.90 0.872607
597.00 0.872607
597.10 0.872607
597.20 0.872607
597.30 0.8723966
597.40 0.8723966
597.50 0.8723966
597.60 0.8723966
597.70 0.8723966
597.80 0.8723966
597.90 0.8723966
598.00 0.8723966
598.10 0.8723966
598.20 0.8723966
598.30 0.8723966
598.40 0.8723966
598.50 0.8723966
598.60 0.8723966
598.70 0.8723966
598.80 0.8723966
598.90 0.8723966
599.00 0.8595184
599.10 0.8236379
599.20 0.7703628
599.30 0.7077567
599.40 0.6444003
599.50 0.5863894
599.60 0.5352312
599.70 0.4919042
599.80 0.4686835
599.90 0.4598772
600.00 0
600.10 0
600.20 0
600.30 0
600.40 0
600.50 0
600.60 0
600.70 0
600.80 0
600.90 0
601.00 0
601.10 0
601.20 0
601.30 0
601.40 0
601.50 0
601.60 0
601.70 0.1291711
601.80 0.8934697
601.90 1.590109
602.00 2.107453
602.10 2.330812
602.20 2.168159
602.30 1.68197
602.40 1.108205
602.50 0.6688348
602.60 0.4567309
602.70 0.4425256
602.80 0.5546326
602.90 0.6839989
603.00 0.6838248
603.10 0.4718365
603.20 0.04046144
603.30 0
603.40 0
603.50 0
603.60 0
603.70 0
603.80 0
603.90 0
604.00 0
604.10 0
604.20 0
604.30 0
604.40 0
604.50 0
604.60 0
604.70 0
604.80 0
604.90 0
605.00 0.05584336
605.10 0.4743964
605.20 0.726565
605.30 0.7760196
605.40 0.6028804
605.50 0.1711155
605.60 0
605.70 0
605.80 0
605.90 0
606.00 0
606.10 0
606.20 0
606.30 0
606.40 0
606.50 0
606.60 0
606.70 0.09289393
606.80 0.1512577
606.90 0.02965365
607.00 0
607.10 0
607.20 0
607.30 0
607.40 0
607.50 0
607.60 0
607.70 0
607.80 0
607.90 0
608.00 0
608.10 0
608.20 0
608.30 0
608.40 0.03396769
608.50 0.6248698
608.60 1.199486
608.70 1.66772
608.80 1.972312
608.90 2.082544
609.00 2.053677
609.10 2.031567
609.20 2.160092
609.30 2.452502
609.40 2.794665
609.50 3.112282
609.60 3.342969
609.70 3.383559
609.80 3.161668
609.90 2.641802
610.00 1.871725
610.10 0.983377
610.20 0.08762714
610.30 0
610.40 0
610.50 0
610.60 0
610.70 0
610.80 0
610.90 0
611.00 0
611.10 0
611.20 0
611.30 0
611.40 0.4774107
611.50 0.7108992
611.60 0.6415605
611.70 0.2976357
611.80 0
611.90 0
612.00 0
612.10 0
612.20 0
612.30 0
612.40 0
612.50 0
612.60 0
612.70 0
612.80 0
612.90 0
613.00 0
613.10 0
613.20 0
613.30 0
613.40 0
613.50 0
613.60 0
613.70 0
613.80 0
613.90 0
614.00 0
614.10 0
614.20 0
614.30 0
614.40 0
614.50 0.1352488
614.60 0.3279525
614.70 0.516236
614.80 0.6711293
614.90 0.782814
615.00 0.861111
615.10 0.8934921
615.20 0.8195921
615.30 0.6162783
615.40 0.2787059
615.50 0
615.60 0
615.70 0
615.80 0
615.90 0
616.00 0
616.10 0
616.20 0
616.30 0
616.40 0
616.50 0
616.60 0
616.70 0
616.80 0
616.90 0
617.00 0
617.10 0
617.20 0
617.30 0
617.40 0
617.50 0
617.60 0.5273282
617.70 1.173577
617.80 1.771028
617.90 2.174458
618.00 2.325866
618.10 2.236996
618.20 1.980087
618.30 1.679928
618.40 1.397228
618.50 1.129591
618.60 0.8646176
618.70 0.5886473
618.80 0.3409925
618.90 0.1912755
619.00 0.1950452
619.10 0.3429336
619.20 0.62997
619.30 1.101001
619.40 1.702987
619.50 2.324252
619.60 2.855492
619.70 3.198246
619.80 3.317341
619.90 3.230515
620.00 2.985836
620.10 2.655295
620.20 2.322989
620.30 2.062374
620.40 1.886536
620.50 1.777198
620.60 1.713267
620.70 1.670282
620.80 1.662805
620.90 1.690965
621.00 1.693931
621.10 1.583391
621.20 1.330098
621.30 0.9874333
621.40 0.606826
621.50 0.2107745
621.60 0
621.70 0
621.80 0
621.90 0
622.00 0.06762883
622.10 0.5545955
622.20 1.061031
622.30 1.528631
622.40 1.926146
622.50 2.194383
622.60 2.271067
622.70 2.094363
622.80 1.681873
622.90 1.136712
623.00 0.5248587
623.10 0
623.20 0
623.30 0
623.40 0
623.50 0
623.60 0
623.70 0
623.80 0
623.90 0
624.00 0
624.10 0
624.20 0
624.30 0
624.40 0
624.50 0
624.60 0
624.70 0
624.80 0
624.90 0
625.00 0
625.10 0
625.20 0
625.30 0
625.40 0
625.50 0
625.60 0
625.70 0
625.80 0
625.90 0
626.00 0.5418302
626.10 1.401008
626.20 1.978339
626.30 2.122624
626.40 1.798457
626.50 1.136815
626.60 0.372761
626.70 0
626.80 0
626.90 0
627.00 0
627.10 0
627.20 0
627.30 0
627.40 0
627.50 0
627.60 0
627.70 0
627.80 0
627.90 0.05110498
628.00 0.9217711
628.10 1.698594
628.20 2.323085
628.30 2.743176
628.40 2.922102
628.50 2.871318
628.60 2.695349
628.70 2.487009
628.80 2.281311
628.90 2.105349
629.00 1.994953
629.10 1.9544
629.20 1.934886
629.30 1.867496
629.40 1.675521
629.50 1.244179
629.60 0.5434779
629.70 0
629.80 0
629.90 0
630.00 0.7826807
630.10 2.137461
630.20 3.531079
630.30 4.573539
630.40 5.031108
630.50 4.807751
630.60 3.996787
630.70 2.811505
630.80 1.538706
630.90 0.5169867
631.00 0
631.10 0
631.20 0
631.30 0.08572763
631.40 0.06092942
631.50 0
631.60 0
631.70 0
631.80 0.05337441
631.90 0.6066665
632.00 1.271863
632.10 1.907053
632.20 2.395736
632.30 2.69139
632.40 2.768686
632.50 2.597521
632.60 2.208611
632.70 1.718343
632.80 1.268454
632.90 0.9389253
633.00 0.7413595
633.10 0.6481015
633.20 0.6421735
633.30 0.6974536
633.40 0.7347081
633.50 0.71575
633.60 0.6531177
633.70 0.5591145
633.80 0.4406233
633.90 0.3028874
634.00 0.1915856
634.10 0.1330362
634.20 0.1289462
634.30 0.1598083
634.40 0.1800377
634.50 0.1839477
634.60 0.1670401
634.70 0.1451938
634.80 0.1775504
634.90 0.2701724
635.00 0.3703416
635.10 0.4302004
635.20 0.4610411
635.30 0.5090373
635.40 0.6227523
635.50 0.8501953
635.60 1.201659
635.70 1.692224
635.80 2.304922
635.90 2.93206
636.00 3.44115
636.10 3.7115
636.20 3.681394
636.30 3.436361
636.40 3.125996
636.50 2.822813
636.60 2.563275
636.70 2.414098
636.80 2.373526
636.90 2.351592
637.00 2.265727
637.10 2.056603
637.20 1.706434
637.30 1.273495
637.40 0.8827328
637.50 0.6723813
637.60 0.7060428
637.70 0.9111484
637.80 1.191401
637.90 1.525935
638.00 1.895897
638.10 2.247316
638.20 2.525833
638.30 2.69478
638.40 2.765832
638.50 2.781846
638.60 2.787774
638.70 2.811422
638.80 2.83467
638.90 2.826955
639.00 2.796237
639.10 2.757702
639.20 2.69062
639.30 2.579675
639.40 2.450687
639.50 2.33618
639.60 2.223325
639.70 2.088161
639.80 1.912599
639.90 1.688294
640.00 1.443429
640.10 1.201465
640.20 0.9489105
640.30 0.676778
640.40 0.4049517
640.50 0.1704868
640.60 0
640.70 0
640.80 0
640.90 0
641.00 0.05871988
641.10 0.3050292
641.20 0.630213
641.30 1.012662
641.40 1.383448
641.50 1.652532
641.60 1.778333
641.70 1.747356
641.80 1.575537
641.90 1.297669
642.00 0.952384
642.10 0.5805774
642.20 0.2225882
642.30 0
642.40 0
642.50 0
642.60 0
642.70 0.3573763
642.80 0.8758387
642.90 1.48162
643.00 2.105419
643.10 2.646549
643.20 2.996021
643.30 3.123259
643.40 3.077292
643.50 2.926472
643.60 2.738456
643.70 2.557338
643.80 2.417598
643.90 2.350432
644.00 2.344674
644.10 2.349011
644.20 2.318479
644.30 2.221169
644.40 2.049191
644.50 1.840672
644.60 1.678841
644.70 1.633219
644.80 1.741558
644.90 1.983347
645.00 2.259739
645.10 2.460534
645.20 2.537509
645.30 2.461068
645.40 2.226661
645.50 1.896515
645.60 1.538143
645.70 1.242446
645.80 1.144319
645.90 1.317133
646.00 1.709896
646.10 2.22083
646.20 2.7279
646.30 3.159173
646.40 3.505389
646.50 3.7653
646.60 3.895707
646.70 3.85518
646.80 3.656421
646.90 3.307798
647.00 2.861994
647.10 2.408227
647.20 1.95873
647.30 1.481984
647.40 1.003841
647.50 0.6168908
647.60 0.4596906
647.70 0.5989948
647.80 0.9876099
647.90 1.56709
648.00 2.285165
648.10 3.06503
648.20 3.805117
648.30 4.4297
648.40 4.878818
648.50 5.103341
648.60 5.134196
648.70 5.078254
648.80 5.020467
648.90 4.931381
649.00 4.737841
649.10 4.457759
649.20 4.159378
649.30 3.859351
649.40 3.536004
649.50 3.145507
649.60 2.684083
649.70 2.215199
649.80 1.780288
649.90 1.395899
650.00 1.10282
650.10 0.9639705
650.20 1.049832
650.30 1.427357
650.40 2.087595
650.50 2.903394
650.60 3.721174
650.70 4.424187
650.80 4.920148
650.90 5.17985
651.00 5.208097
651.10 5.003702
651.20 4.632559
651.30 4.201354
651.40 3.786683
651.50 3.455874
651.60 3.205386
651.70 2.958106
651.80 2.683036
651.90 2.408864
652.00 2.198101
652.10 2.119816
652.20 2.189083
652.30 2.367764
652.40 2.618944
652.50 2.910829
652.60 3.207164
652.70 3.478164
652.80 3.683519
652.90 3.741415
653.00 3.654921
653.10 3.542158
653.20 3.475042
653.30 3.431652
653.40 3.356563
653.50 3.203046
653.60 2.965631
653.70 2.695612
653.80 2.450634
653.90 2.270601
654.00 2.148863
654.10 2.098579
654.20 2.172715
654.30 2.410071
654.40 2.817937
654.50 3.352377
654.60 3.955099
654.70 4.569309
654.80 5.115261
654.90 5.516881
655.00 5.726915
655.10 5.763409
655.20 5.696705
655.30 5.571546
655.40 5.444041
655.50 5.32543
655.60 5.177956
655.70 4.982785
655.80 4.70911
655.90 4.331983
656.00 3.87909
656.10 3.464905
656.20 3.233987
656.30 3.257931
656.40 3.554095
656.50 4.044981
656.60 4.580639
656.70 5.065286
656.80 5.434708
656.90 5.641796
657.00 5.686732
657.10 5.6181
657.20 5.479396
657.30 5.307814
657.40 5.155171
657.50 5.030904
657.60 4.929291
657.70 4.8798
657.80 4.879983
657.90 4.918111
658.00 5.004398
658.10 5.130624
658.20 5.287292
658.30 5.477342
658.40 5.70043
658.50 5.926238
658.60 6.110341
658.70 6.19014
658.80 6.108218
658.90 5.905695
659.00 5.693839
659.10 5.572429
659.20 5.626353
659.30 5.890429
659.40 6.327936
659.50 6.864416
659.60 7.398885
659.70 7.787452
659.80 7.873955
659.90 7.558611
660.00 6.865919
660.10 5.985794
660.20 5.16242
660.30 4.553888
660.40 4.217844
660.50 4.129952
660.60 4.221822
660.70 4.449127
660.80 4.753368
660.90 5.041641
661.00 5.238775
661.10 5.329572
661.20 5.357129
661.30 5.369342
661.40 5.38502
661.50 5.372993
661.60 5.279516
661.70 5.06791
661.80 4.741309
661.90 4.374676
662.00 4.091247
662.10 3.984453
662.20 4.115604
662.30 4.497443
662.40 5.054568
662.50 5.644988
662.60 6.113624
662.70 6.382698
662.80 6.478649
662.90 6.469936
663.00 6.426111
663.10 6.409181
663.20 6.443972
663.30 6.476275
663.40 6.420751
663.50 6.201699
663.60 5.799597
663.70 5.278878
663.80 4.741856
663.90 4.327288
664.00 4.130523
664.10 4.151154
664.20 4.343389
664.30 4.620457
664.40 4.868136
664.50 5.032842
664.60 5.144736
664.70 5.268136
664.80 5.441815
664.90 5.678351
665.00 5.964785
665.10 6.251009
665.20 6.484805
665.30 6.626281
665.40 6.679509
665.50 6.687154
665.60 6.676932
665.70 6.671021
665.80 6.689824
665.90 6.67899
666.00 6.540068
666.10 6.244767
666.20 5.858503
666.30 5.482652
666.40 5.192728
666.50 5.051579
666.60 5.10681
666.70 5.350818
666.80 5.733859
666.90 6.201104
667.00 6.70164
667.10 7.157745
667.20 7.507544
667.30 7.764714
667.40 7.977731
667.50 8.160894
667.60 8.301334
667.70 8.376055
667.80 8.370365
667.90 8.313627
668.00 8.258938
668.10 8.25333
668.20 8.333287
668.30 8.51883
668.40 8.796297
668.50 9.155675
668.60 9.557622
668.70 9.896115
668.80 10.06086
668.90 10.00219
669.00 9.714306
669.10 9.244826
669.20 8.698341
669.30 8.156425
669.40 7.695022
669.50 7.391987
669.60 7.271488
669.70 7.298817
669.80 7.4144
669.90 7.545391
670.00 7.657303
670.10 7.752658
670.20 7.788719
670.30 7.729497
670.40 7.633015
670.50 7.608858
670.60 7.753918
670.70 8.111755
670.80 8.648054
670.90 9.264898
671.00 9.851214
671.10 10.31278
671.20 10.57773
671.30 10.62032
671.40 10.45786
671.50 10.15753
671.60 9.846574
671.70 9.631813
671.80 9.531273
671.90 9.492914
672.00 9.430675
672.10 9.278872
672.20 9.038033
672.30 8.765631
672.40 8.539669
672.50 8.39251
672.60 8.294976
672.70 8.197707
672.80 8.076915
672.90 7.963388
673.00 7.941753
673.10 8.100126
673.20 8.444779
673.30 8.902377
673.40 9.381268
673.50 9.794998
673.60 10.05463
673.70 10.08855
673.80 9.857791
673.90 9.433858
674.00 8.966241
674.10 8.590258
674.20 8.414741
674.30 8.486416
674.40 8.778044
674.50 9.224598
674.60 9.791716
674.70 10.41697
674.80 10.99236
674.90 11.40503
675.00 11.5338
675.10 11.32455
675.20 10.84383
675.30 10.20968
675.40 9.563553
675.50 9.044147
675.60 8.709125
675.70 8.543391
675.80 8.498245
675.90 8.496917
676.00 8.448551
676.10 8.331323
676.20 8.187206
676.30 8.086757
676.40 8.084306
676.50 8.197341
676.60 8.451105
676.70 8.826335
676.80 9.256353
676.90 9.66826
677.00 9.991118
677.10 10.17469
677.20 10.23694
677.30 10.25072
677.40 10.27214
677.50 10.31282
677.60 10.34286
677.70 10.3184
677.80 10.26033
677.90 10.22688
678.00 10.20792
678.10 10.17152
678.20 10.08632
678.30 9.914759
678.40 9.682715
678.50 9.46336
678.60 9.311242
678.70 9.247735
678.80 9.285369
678.90 9.449692
679.00 9.766424
679.10 10.24516
679.20 10.82323
679.30 11.35244
679.40 11.68375
679.50 11.71556
679.60 11.42734
679.70 10.88836
679.80 10.25099
679.90 9.747685
680.00 9.514361
680.10 9.556269
680.20 9.825209
680.30 10.25122
680.40 10.77124
680.50 11.26294
680.60 11.59938
680.70 11.70709
680.80 11.57423
680.90 11.24154
681.00 10.76773
681.10 10.26254
681.20 9.818605
681.30 9.413836
681.40 9.037614
681.50 8.726705
681.60 8.548592
681.70 8.579904
681.80 8.857522
681.90 9.414286
682.00 10.19796
682.10 11.06953
682.20 11.89167
682.30 12.54884
682.40 12.93269
682.50 12.82285
682.60 12.0678
682.70 10.79712
682.80 9.280102
682.90 7.848483
683.00 6.757226
683.10 6.139237
683.20 6.066434
683.30 6.508658
683.40 7.366529
683.50 8.477405
683.60 9.623139
683.70 10.5992
683.80 11.27332
683.90 11.69989
684.00 11.97593
684.10 12.0939
684.20 12.06893
684.30 11.94106
684.40 11.79448
684.50 11.72069
684.60 11.70065
684.70 11.65226
684.80 11.53144
684.90 11.36372
685.00 11.18204
685.10 10.98053
685.20 10.75575
685.30 10.54718
685.40 10.39952
685.50 10.32489
685.60 10.27913
685.70 10.19745
685.80 10.0225
685.90 9.714661
686.00 9.324295
686.10 8.977761
686.20 8.790662
686.30 8.836131
686.40 9.140546
686.50 9.678454
686.60 10.35845
686.70 11.04546
686.80 11.64495
686.90 12.11668
687.00 12.48719
687.10 12.7443
687.20 12.84151
687.30 12.78581
687.40 12.58799
687.50 12.26771
687.60 11.8712
687.70 11.45213
687.80 11.06999
687.90 10.81228
688.00 10.76885
688.10 10.9796
688.20 11.39175
688.30 11.85899
688.40 12.17311
688.50 12.24292
688.60 12.12758
688.70 11.89576
688.80 11.59273
688.90 11.24442
689.00 10.86434
689.10 10.47447
689.20 10.12347
689.30 9.83895
689.40 9.61184
689.50 9.443117
689.60 9.323412
689.70 9.21863
689.80 9.143888
689.90 9.119411
690.00 9.111616
690.10 9.100723
690.20 9.12011
690.30 9.223467
690.40 9.489874
690.50 9.967294
690.60 10.59606
690.70 11.25121
690.80 11.83165
690.90 12.28668
691.00 12.59421
691.10 12.78879
691.20 12.90461
691.30 12.93693
691.40 12.87487
691.50 12.69508
691.60 12.37276
691.70 11.9066
691.80 11.27639
691.90 10.48248
692.00 9.567437
692.10 8.632723
692.20 7.872864
692.30 7.408596
692.40 7.255823
692.50 7.441414
692.60 7.946749
692.70 8.67888
692.80 9.554451
692.90 10.48494
693.00 11.35238
693.10 12.01926
693.20 12.37747
693.30 12.39257
693.40 12.11488
693.50 11.6346
693.60 10.97467
693.70 10.16773
693.80 9.355578
693.90 8.677189
694.00 8.255148
694.10 8.222154
694.20 8.579683
694.30 9.199285
694.40 9.942745
694.50 10.64976
694.60 11.17816
694.70 11.44383
694.80 11.43943
694.90 11.26898
695.00 11.05413
695.10 10.87469
695.20 10.76046
695.30 10.68835
695.40 10.61969
695.50 10.51628
695.60 10.37541
695.70 10.25273
695.80 10.17354
695.90 10.17151
696.00 10.28788
696.10 10.50441
696.20 10.73969
696.30 10.87379
696.40 10.85527
696.50 10.67408
696.60 10.35838
696.70 10.03138
696.80 9.83649
696.90 9.845971
697.00 10.02406
697.10 10.26727
697.20 10.48159
697.30 10.57192
697.40 10.45477
697.50 10.15328
697.60 9.778578
697.70 9.417032
697.80 9.103448
697.90 8.906785
698.00 8.884578
698.10 8.999254
698.20 9.168529
698.30 9.328095
698.40 9.48345
698.50 9.666536
698.60 9.898533
698.70 10.20404
698.80 10.59438
698.90 11.02384
699.00 11.42041
699.10 11.75185
699.20 11.99573
699.30 12.12746
699.40 12.12338
699.50 11.95307
699.60 11.63395
699.70 11.18604
699.80 10.60685
699.90 9.940683
700.00 9.248642
700.10 8.620394
700.20 8.137993
700.30 7.808006
700.40 7.60974
700.50 7.556095
700.60 7.67629
700.70 7.952775
700.80 8.346365
700.90 8.819953
701.00 9.277512
701.10 9.652948
701.20 9.966221
701.30 10.23913
701.40 10.46595
701.50 10.59374
701.60 10.59661
701.70 10.54014
701.80 10.52432
701.90 10.57396
702.00 10.66278
702.10 10.78071
702.20 10.88971
702.30 10.9263
702.40 10.85514
702.50 10.67943
702.60 10.42936
702.70 10.14098
702.80 9.867648
702.90 9.722936
703.00 9.828967
703.10 10.20527
703.20 10.7305
703.30 11.21999
703.40 11.53811
703.50 11.63866
703.60 11.55095
703.70 11.34459
703.80 11.08579
703.90 10.8279
704.00 10.59066
704.10 10.37138
704.20 10.17677
704.30 9.975548
704.40 9.710478
704.50 9.370723
704.60 9.027954
704.70 8.839442
704.80 8.931176
704.90 9.324311
705.00 9.967802
705.10 10.77193
705.20 11.63133
705.30 12.42679
705.40 13.06225
705.50 13.48605
705.60 13.69628
705.70 13.74692
705.80 13.69238
705.90 13.58599
706.00 13.47036
706.10 13.33368
706.20 13.15619
706.30 12.90787
706.40 12.51804
706.50 11.95739
706.60 11.31119
706.70 10.7176
706.80 10.29233
706.90 10.11756
707.00 10.20917
707.10 10.51919
707.20 10.97664
707.30 11.50862
707.40 12.04028
707.50 12.46794
707.60 12.69888
707.70 12.72606
707.80 12.60398
707.90 12.38734
708.00 12.12835
708.10 11.86586
708.20 11.62138
708.30 11.42963
708.40 11.33071
708.50 11.35617
708.60 11.54476
708.70 11.89151
708.80 12.31656
708.90 12.7436
709.00 13.12534
709.10 13.43027
709.20 13.673
709.30 13.85562
709.40 13.89548
709.50 13.71849
709.60 13.34393
709.70 12.84983
709.80 12.35611
709.90 11.98284
710.00 11.788
710.10 11.79126
710.20 12.00845
710.30 12.44298
710.40 13.03887
710.50 13.66909
710.60 14.19703
710.70 14.538
710.80 14.6841
710.90 14.67193
711.00 14.53356
711.10 14.30032
711.20 14.01492
711.30 13.72145
711.40 13.50148
711.50 13.44954
711.60 13.59282
711.70 13.88005
711.80 14.22385
711.90 14.56045
712.00 14.8295
712.10 14.96578
712.20 14.91606
712.30 14.66762
712.40 14.28973
712.50 13.88291
712.60 13.53228
712.70 13.32232
712.80 13.28579
712.90 13.37579
713.00 13.56508
713.10 13.84701
713.20 14.16774
713.30 14.43089
713.40 14.57688
713.50 14.61154
713.60 14.56798
713.70 14.46838
713.80 14.3002
713.90 14.0677
714.00 13.79668
714.10 13.50279
714.20 13.20305
714.30 12.91841
714.40 12.62731
714.50 12.29307
714.60 11.94093
714.70 11.63116
714.80 11.40998
714.90 11.31261
715.00 11.35487
715.10 11.53741
715.20 11.86318
715.30 12.29341
715.40 12.7453
715.50 13.13466
715.60 13.36096
715.70 13.36335
715.80 13.18485
715.90 12.92452
716.00 12.68852
716.10 12.54765
716.20 12.51488
716.30 12.54613
716.40 12.59192
716.50 12.63451
716.60 12.654
716.70 12.62169
716.80 12.53181
716.90 12.40419
717.00 12.29575
717.10 12.28025
717.20 12.42819
717.30 12.77516
717.40 13.28804
717.50 13.89098
717.60 14.48073
717.70 14.96188
717.80 15.26488
717.90 15.34192
718.00 15.1817
718.10 14.82294
718.20 14.34129
718.30 13.84207
718.40 13.46861
718.50 13.34114
718.60 13.47196
718.70 13.8073
718.80 14.29429
718.90 14.8901
719.00 15.5447
719.10 16.2072
719.20 16.80719
719.30 17.24677
719.40 17.43963
719.50 17.35788
719.60 17.03147
719.70 16.52073
719.80 15.8841
719.90 15.18194
720.00 14.51382
720.10 13.97147
720.20 13.59842
720.30 13.40258
720.40 13.39798
720.50 13.55272
720.60 13.80457
720.70 14.11759
720.80 14.44402
720.90 14.7084
721.00 14.8368
721.10 14.79741
721.20 14.61769
721.30 14.38431
721.40 14.2004
721.50 14.1282
721.60 14.16827
721.70 14.26913
721.80 14.34934
721.90 14.37145
722.00 14.34299
722.10 14.23548
722.20 14.008
722.30 13.70671
722.40 13.45412
722.50 13.33306
722.60 13.35149
722.70 13.45788
722.80 13.60425
722.90 13.77279
723.00 13.901
723.10 13.9473
723.20 13.94344
723.30 13.91619
723.40 13.80934
723.50 13.54024
723.60 13.12455
723.70 12.6155
723.80 12.074
723.90 11.64372
724.00 11.4263
724.10 11.44957
724.20 11.70897
724.30 12.1949
724.40 12.92767
724.50 13.82492
724.60 14.68108
724.70 15.27001
724.80 15.46256
724.90 15.26778
725.00 14.78171
725.10 14.14789
725.20 13.4774
725.30 12.80975
725.40 12.27623
725.50 12.06015
725.60 12.21687
725.70 12.65405
725.80 13.21499
725.90 13.7848
726.00 14.29585
726.10 14.71856
726.20 15.07956
726.30 15.38572
726.40 15.54526
726.50 15.45688
726.60 15.11967
726.70 14.63043
726.80 14.07048
726.90 13.49223
727.00 12.97971
727.10 12.61928
727.20 12.45026
727.30 12.50068
727.40 12.81098
727.50 13.28555
727.60 13.7126
727.70 13.96204
727.80 14.01653
727.90 13.90491
728.00 13.61392
728.10 13.14242
728.20 12.59345
728.30 12.09687
728.40 11.74051
728.50 11.64622
728.60 11.91524
728.70 12.49596
728.80 13.17233
728.90 13.7491
729.00 14.1634
729.10 14.34541
729.20 14.19901
729.30 13.71784
729.40 13.0929
729.50 12.56809
729.60 12.30922
729.70 12.40516
729.80 12.78361
729.90 13.18977
730.00 13.41428
730.10 13.37618
730.20 13.04348
730.30 12.49906
730.40 11.86542
730.50 11.27011
730.60 10.87303
730.70 10.77834
730.80 10.95597
730.90 11.31664
731.00 11.69761
731.10 11.87931
731.20 11.66441
731.30 10.99743
731.40 10.08313
731.50 9.260586
731.60 8.826749
731.70 8.922767
731.80 9.569277
731.90 10.66875
732.00 12.0367
732.10 13.42685
732.20 14.54389
732.30 15.09094
732.40 14.89332
732.50 13.96595
732.60 12.5803
732.70 11.14993
732.80 9.915841
732.90 8.959888
733.00 8.347358
733.10 8.125819
733.20 8.268962
733.30 8.75159
733.40 9.444276
733.50 10.05375
733.60 10.32137
733.70 10.16407
733.80 9.736319
733.90 9.361834
734.00 9.321508
734.10 9.676562
734.20 10.33653
734.30 11.18572
734.40 12.08172
734.50 12.83899
734.60 13.23703
734.70 13.1237
734.80 12.56092
734.90 11.80729
735.00 11.1931
735.10 10.9565
735.20 11.07784
735.30 11.35208
735.40 11.56998
735.50 11.63571
735.60 11.55371
735.70 11.33733
735.80 11.01807
735.90 10.68686
736.00 10.47489
736.10 10.42392
736.20 10.46227
736.30 10.49877
736.40 10.52661
736.50 10.65847
736.60 11.02696
736.70 11.69182
736.80 12.6394
736.90 13.75283
737.00 14.83177
737.10 15.6741
737.20 16.07754
737.30 15.88888
737.40 15.10714
737.50 13.90952
737.60 12.58384
737.70 11.4468
737.80 10.68749
737.90 10.30551
738.00 10.22407
738.10 10.35272
738.20 10.61705
738.30 10.98961
738.40 11.42791
738.50 11.8525
738.60 12.20447
738.70 12.40492
738.80 12.36227
738.90 12.06157
739.00 11.6485
739.10 11.30879
739.20 11.0994
739.30 10.97405
739.40 10.89025
739.50 10.90139
739.60 11.0351
739.70 11.20556
739.80 11.26098
739.90 11.16631
740.00 11.04475
740.10 11.04676
740.20 11.22941
740.30 11.51072
740.40 11.69313
740.50 11.58273
740.60 11.1503
740.70 10.53778
740.80 9.914879
740.90 9.306178
741.00 8.720855
741.10 8.24365
741.20 7.978579
741.30 7.902944
741.40 7.878634
741.50 7.818906
741.60 7.736731
741.70 7.685119
741.80 7.684075
741.90 7.762857
742.00 7.940608
742.10 8.160998
742.20 8.341947
742.30 8.457103
742.40 8.527093
742.50 8.614233
742.60 8.783177
742.70 9.059777
742.80 9.436443
742.90 9.860685
743.00 10.24364
743.10 10.50732
743.20 10.62285
743.30 10.57748
743.40 10.39525
743.50 10.17488
743.60 10.02068
743.70 10.00003
743.80 10.10214
743.90 10.24192
744.00 10.34678
744.10 10.35085
744.20 10.19551
744.30 9.883793
744.40 9.461686
744.50 8.995844
744.60 8.555315
744.70 8.20038
744.80 7.93253
744.90 7.710608
745.00 7.547226
745.10 7.458097
745.20 7.407517
745.30 7.382667
745.40 7.411334
745.50 7.535761
745.60 7.787927
745.70 8.126823
745.80 8.46822
745.90 8.737314
746.00 8.845491
746.10 8.749853
746.20 8.524963
746.30 8.257744
746.40 7.982363
746.50 7.701747
746.60 7.43186
746.70 7.201173
746.80 7.033599
746.90 6.970175
747.00 7.023107
747.10 7.18252
747.20 7.459272
747.30 7.867249
747.40 8.378457
747.50 8.885658
747.60 9.194005
747.70 9.154598
747.80 8.737188
747.90 8.029534
748.00 7.24259
748.10 6.656308
748.20 6.452976
748.30 6.60737
748.40 7.029256
748.50 7.630736
748.60 8.254267
748.70 8.717535
748.80 8.925894
748.90 8.842394
749.00 8.485833
749.10 7.941857
749.20 7.326275
749.30 6.786202
749.40 6.443841
749.50 6.286076
749.60 6.252766
749.70 6.328733
749.80 6.442438
749.90 6.495063
750.00 6.467349
750.10 6.368515
750.20 6.203565
750.30 6.017701
750.40 5.893635
750.50 5.896473
750.60 6.037494
750.70 6.260423
750.80 6.467327
750.90 6.584925
751.00 6.571174
751.10 6.426645
751.20 6.204303
751.30 5.958057
751.40 5.690087
751.50 5.360699
751.60 4.929342
751.70 4.391754
751.80 3.782484
751.90 3.150784
752.00 2.524835
752.10 1.87527
752.20 1.231886
752.30 0.7341262
752.40 0.5063847
752.50 0.5836015
752.60 0.9049124
752.70 1.381206
752.80 1.95232
752.90 2.581252
753.00 3.210225
753.10 3.752569
753.20 4.137987
753.30 4.344069
753.40 4.428429
753.50 4.55961
753.60 4.862781
753.70 5.304844
753.80 5.78378
753.90 6.220053
754.00 6.601203
754.10 6.926396
754.20 7.157918
754.30 7.244557
754.40 7.188291
754.50 7.074441
754.60 6.980784
754.70 6.918464
754.80 6.851507
754.90 6.724633
755.00 6.478192
755.10 6.087092
755.20 5.591212
755.30 5.087505
755.40 4.659213
755.50 4.362758
755.60 4.248512
755.70 4.312042
755.80 4.495683
755.90 4.730897
756.00 4.968082
756.10 5.174032
756.20 5.366427
756.30 5.577737
756.40 5.77936
756.50 5.916624
756.60 5.950072
756.70 5.851507
756.80 5.648422
756.90 5.441543
757.00 5.309384
757.10 5.308646
757.20 5.478394
757.30 5.808379
757.40 6.247743
757.50 6.696491
757.60 7.025374
757.70 7.137118
757.80 7.040613
757.90 6.800133
758.00 6.463288
758.10 6.073174
758.20 5.672861
758.30 5.280092
758.40 4.927647
758.50 4.669038
758.60 4.531738
758.70 4.504429
758.80 4.580443
758.90 4.775938
759.00 5.06281
759.10 5.376665
759.20 5.65712
759.30 5.831979
759.40 5.886052
759.50 5.912782
759.60 6.028562
759.70 6.211353
759.80 6.355769
759.90 6.397915
760.00 6.358899
760.10 6.263494
760.20 6.085242
760.30 5.865215
760.40 5.672601
760.50 5.513473
760.60 5.287708
760.70 4.940495
760.80 4.503579
760.90 4.010562
761.00 3.512517
761.10 3.062968
761.20 2.705901
761.30 2.445172
761.40 2.242137
761.50 2.139938
761.60 2.231355
761.70 2.529527
761.80 2.958419
761.90 3.413595
762.00 3.834607
762.10 4.142824
762.20 4.224068
762.30 3.982499
762.40 3.375218
762.50 2.60461
762.60 1.983942
762.70 1.74044
762.80 1.944699
762.90 2.403283
763.00 2.812147
763.10 2.917424
763.20 2.651968
763.30 2.104435
763.40 1.390041
763.50 0.6336347
763.60 0
763.70 0
763.80 0
763.90 0
764.00 0
764.10 0
764.20 0
764.30 0
764.40 0
764.50 0
764.60 0
764.70 0
764.80 0.166116
764.90 0.2788244
765.00 0.3106586
765.10 0.2710714
765.20 0.2140858
765.30 0.1803367
765.40 0.1752177
765.50 0.2127683
765.60 0.2901435
765.70 0.3619727
765.80 0.4128981
765.90 0.5043541
766.00 0.7476671
766.10 1.213836
766.20 1.845466
766.30 2.498381
766.40 3.048305
766.50 3.36564
766.60 3.28886
766.70 2.767154
766.80 1.9244
766.90 0.94574
767.00 0.02484341
767.10 0
767.20 0
767.30 0
767.40 0
767.50 0
767.60 0
767.70 0
767.80 0.002172419
767.90 0.128757
768.00 0.3534027
768.10 0.7103066
768.20 1.127027
768.30 1.501342
768.40 1.765058
768.50 1.900037
768.60 1.922665
768.70 1.839816
768.80 1.641007
768.90 1.335217
769.00 1.051862
769.10 1.010153
769.20 1.298293
769.30 1.844264
769.40 2.471858
769.50 2.98553
769.60 3.294854
769.70 3.360203
769.80 3.128045
769.90 2.594747
770.00 1.839916
770.10 1.020616
770.20 0.3094507
770.30 0
770.40 0
770.50 0
770.60 0
770.70 0
770.80 0
770.90 0
771.00 0
771.10 0
771.20 0
771.30 0
771.40 0
771.50 0.2999585
771.60 2.00571
771.70 3.693875
771.80 5.111509
771.90 6.058992
772.00 6.447442
772.10 6.27426
772.20 5.637157
772.30 4.675088
772.40 3.506006
772.50 2.280726
772.60 1.127606
772.70 0.1580883
772.80 0
772.90 0
773.00 0
773.10 0.3499914
773.20 1.287499
773.30 2.258003
773.40 3.037003
773.50 3.468158
773.60 3.488798
773.70 3.163435
773.80 2.629745
773.90 2.06038
774.00 1.61485
774.10 1.398493
774.20 1.396319
774.30 1.508826
774.40 1.605374
774.50 1.511763
774.60 1.087587
774.70 0.1448251
774.80 0
774.90 0
775.00 0
775.10 0
775.20 0
775.30 0
775.40 0
775.50 0.03824526
775.60 1.938683
775.70 3.336971
775.80 4.147087
775.90 4.436628
776.00 4.278574
776.10 3.900183
776.20 3.658385
776.30 3.584852
776.40 3.432749
776.50 3.029667
776.60 2.364592
776.70 1.583493
776.80 0.9222311
776.90 0.6065048
777.00 0.7647615
777.10 1.376473
777.20 2.252088
777.30 3.166487
777.40 4.016837
777.50 4.739544
777.60 5.269126
777.70 5.553068
777.80 5.527371
777.90 5.213098
778.00 4.711406
778.10 4.116752
778.20 3.527812
778.30 3.068506
778.40 2.862481
778.50 2.930106
778.60 3.172914
778.70 3.422597
778.80 3.56122
778.90 3.587015
779.00 3.373421
779.10 2.738285
779.20 1.749688
779.30 0.6183227
779.40 0
779.50 0
779.60 0
779.70 0
779.80 0
779.90 0
780.00 0
780.10 0
780.20 0.5665728
780.30 1.780474
780.40 2.868448
780.50 3.847788
780.60 4.66882
780.70 5.243988
780.80 5.613159
780.90 5.917284
781.00 6.215384
781.10 6.513106
781.20 6.846441
781.30 7.241346
781.40 7.642805
781.50 7.902936
781.60 7.901472
781.70 7.622442
781.80 7.161494
781.90 6.765351
782.00 6.645525
782.10 6.794289
782.20 7.162041
782.30 7.757968
782.40 8.541879
782.50 9.367101
782.60 10.05659
782.70 10.47482
782.80 10.56008
782.90 10.37761
783.00 10.06346
783.10 9.724066
783.20 9.426017
783.30 9.156508
783.40 8.909821
783.50 8.802246
783.60 8.903824
783.70 9.142473
783.80 9.418735
783.90 9.632682
784.00 9.682646
784.10 9.561813
784.20 9.328635
784.30 9.055498
784.40 8.844226
784.50 8.788111
784.60 8.939907
784.70 9.239775
784.80 9.638246
784.90 10.19377
785.00 11.08363
785.10 12.43457
785.20 14.12809
785.30 15.90932
785.40 17.43006
785.50 18.35353
785.60 18.50682
785.70 17.8928
785.80 16.6299
785.90 14.96081
786.00 13.2324
786.10 11.85755
786.20 11.10155
786.30 10.95286
786.40 11.11105
786.50 11.18973
786.60 11.02371
786.70 10.68051
786.80 10.44406
786.90 10.57061
787.00 11.13702
787.10 12.08228
787.20 13.19913
787.30 14.26878
787.40 15.09873
787.50 15.44783
787.60 15.20135
787.70 14.53728
787.80 13.78009
787.90 13.30435
788.00 13.38296
788.10 14.07112
788.20 15.18269
788.30 16.33578
788.40 17.17343
788.50 17.47845
788.60 17.21531
788.70 16.43273
788.80 15.22498
788.90 13.86334
789.00 12.70553
789.10 11.91435
789.20 11.49505
789.30 11.37486
789.40 11.45564
789.50 11.66961
789.60 11.97799
789.70 12.43399
789.80 13.08764
789.90 13.84933
790.00 14.55159
790.10 15.05436
790.20 15.31548
790.30 15.38025
790.40 15.27661
790.50 15.03556
790.60 14.72065
790.70 14.33607
790.80 13.79524
790.90 13.042
791.00 11.92993
791.10 10.36813
791.20 8.547359
791.30 6.794554
791.40 5.53949
791.50 5.138119
791.60 5.7191
791.70 7.151904
791.80 9.115347
791.90 11.29681
792.00 13.35918
792.10 14.9447
792.20 15.8667
792.30 16.1251
792.40 16.03091
792.50 15.93617
792.60 15.85201
792.70 15.70609
792.80 15.47763
792.90 15.23822
793.00 15.17007
793.10 15.41601
793.20 16.05795
793.30 17.03185
793.40 18.15562
793.50 19.31636
793.60 20.40735
793.70 21.24035
793.80 21.56352
793.90 21.2274
794.00 20.32178
794.10 19.06478
794.20 17.57179
794.30 15.85407
794.40 13.88281
794.50 11.72658
794.60 9.632256
794.70 7.904913
794.80 6.778873
794.90 6.319466
795.00 6.477463
795.10 7.154265
795.20 8.209862
795.30 9.486407
795.40 10.89633
795.50 12.37335
795.60 13.85053
795.70 15.2813
795.80 16.58638
795.90 17.70052
796.00 18.52727
796.10 19.0184
796.20 19.34377
796.30 19.75024
796.40 20.3699
796.50 21.17111
796.60 22.0561
796.70 22.91229
796.80 23.57561
796.90 23.91761
797.00 23.95115
797.10 23.7781
797.20 23.56052
797.30 23.47337
797.40 23.56891
797.50 23.75899
797.60 23.88441
797.70 23.68683
797.80 22.99465
797.90 21.89478
798.00 20.61573
798.10 19.41665
798.20 18.53855
798.30 18.19169
798.40 18.44784
798.50 19.2189
798.60 20.36557
798.70 21.68835
798.80 22.89872
798.90 23.65858
799.00 23.67902
799.10 22.98705
799.20 21.91216
799.30 20.86233
799.40 20.11199
799.50 19.73893
799.60 19.75055
799.70 20.08892
799.80 20.65474
799.90 21.36155
800.00 22.09749
800.10 22.73621
800.20 23.26855
800.30 23.7812
800.40 24.32714
800.50 24.84791
800.60 25.14034
800.70 24.98181
800.80 24.39198
800.90 23.6285
801.00 22.94482
801.10 22.38094
801.20 21.99343
801.30 21.90009
801.40 22.04293
801.50 22.28346
801.60 22.47755
801.70 22.55135
801.80 22.50985
801.90 22.46373
802.00 22.60607
802.10 23.10589
802.20 24.00551
802.30 25.20448
802.40 26.52672
802.50 27.89541
802.60 29.1079
802.70 29.82912
802.80 29.95695
802.90 29.54219
803.00 28.74193
803.10 27.79009
803.20 26.91813
803.30 26.22723
803.40 25.75851
803.50 25.55621
803.60 25.60342
803.70 25.86511
803.80 26.29089
803.90 26.78974
804.00 27.29617
804.10 27.80382
804.20 28.34459
804.30 28.97412
804.40 29.64902
804.50 30.2236
804.60 30.59115
804.70 30.77211
804.80 30.79606
804.90 30.64477
805.00 30.34212
805.10 29.95631
805.20 29.59451
805.30 29.38556
805.40 29.44101
805.50 29.77964
805.60 30.27301
805.70 30.8401
805.80 31.49885
805.90 32.29818
806.00 33.23047
806.10 34.1567
806.20 34.95148
806.30 35.56499
806.40 35.94711
806.50 36.0132
806.60 35.76096
806.70 35.28582
806.80 34.68213
806.90 34.04215
807.00 33.4969
807.10 33.08891
807.20 32.84221
807.30 32.80151
807.40 33.00815
807.50 33.51481
807.60 34.26245
807.70 35.09275
807.80 35.84761
807.90 36.44148
808.00 36.81383
808.10 36.94471
808.20 36.89389
808.30 36.76323
808.40 36.66725
808.50 36.71593
808.60 36.94284
808.70 37.2682
808.80 37.5774
808.90 37.80064
809.00 37.90516
809.10 37.86124
809.20 37.67176
809.30 37.36756
809.40 36.96883
809.50 36.50976
809.60 36.10592
809.70 35.92453
809.80 36.03736
809.90 36.35986
810.00 36.81034
810.10 37.36297
810.20 37.89849
810.30 38.27588
810.40 38.4637
810.50 38.51149
810.60 38.47929
810.70 38.42611
810.80 38.42078
810.90 38.46219
811.00 38.46345
811.10 38.36083
811.20 38.15827
811.30 37.9002
811.40 37.60043
811.50 37.28738
811.60 37.08976
811.70 37.14343
811.80 37.48156
811.90 38.05451
812.00 38.81285
812.10 39.68553
812.20 40.57048
812.30 41.40365
812.40 42.14286
812.50 42.72449
812.60 43.11809
812.70 43.36835
812.80 43.51703
812.90 43.53817
813.00 43.3997
813.10 43.07773
813.20 42.56441
813.30 41.94251
813.40 41.35068
813.50 40.87312
813.60 40.52069
813.70 40.30436
813.80 40.27217
813.90 40.45975
814.00 40.79936
814.10 41.13346
814.20 41.36271
814.30 41.53218
814.40 41.74024
814.50 42.08293
814.60 42.58508
814.70 43.11038
814.80 43.46028
814.90 43.54794
815.00 43.42338
815.10 43.17578
815.20 42.88609
815.30 42.60325
815.40 42.39352
815.50 42.36431
815.60 42.53385
815.70 42.8115
815.80 43.12289
815.90 43.42025
816.00 43.74194
816.10 44.22466
816.20 44.96426
816.30 45.94262
816.40 47.03184
816.50 48.07008
816.60 48.92367
816.70 49.49464
816.80 49.72481
816.90 49.64161
817.00 49.37335
817.10 49.08044
817.20 48.86246
817.30 48.72013
817.40 48.62469
817.50 48.55244
817.60 48.47149
817.70 48.38312
817.80 48.31987
817.90 48.26467
818.00 48.16154
818.10 47.98306
818.20 47.73782
818.30 47.41074
818.40 47.00929
818.50 46.60739
818.60 46.28328
818.70 46.11897
818.80 46.12022
818.90 46.18216
819.00 46.18679
819.10 46.03524
819.20 45.66281
819.30 45.07888
819.40 44.35959
819.50 43.68522
819.60 43.32982
819.70 43.56422
819.80 44.52689
819.90 46.12658
820.00 48.16532
820.10 50.39206
820.20 52.4917
820.30 54.20361
820.40 55.34721
820.50 55.81192
820.60 55.56489
820.70 54.68854
820.80 53.41769
820.90 52.0722
821.00 50.92401
821.10 50.12003
821.20 49.685
821.30 49.5245
821.40 49.47138
821.50 49.40323
821.60 49.30952
821.70 49.22447
821.80 49.15058
821.90 49.08262
822.00 49.07609
822.10 49.24509
822.20 49.64523
822.30 50.19021
822.40 50.68608
822.50 50.97566
822.60 51.07937
822.70 51.12854
822.80 51.21709
822.90 51.34109
823.00 51.46821
823.10 51.58412
823.20 51.73328
823.30 52.03249
823.40 52.56247
823.50 53.27697
823.60 54.0456
823.70 54.76862
823.80 55.45616
823.90 56.17793
824.00 56.92057
824.10 57.64766
824.20 58.34399
824.30 58.95576
824.40 59.40364
824.50 59.68063
824.60 59.82533
824.70 59.8208
824.80 59.63267
824.90 59.29242
825.00 58.9246
825.10 58.66708
825.20 58.60001
825.30 58.71434
825.40 58.93971
825.50 59.20733
825.60 59.45833
825.70 59.71259
825.80 60.04519
825.90 60.44972
826.00 60.86087
826.10 61.23545
826.20 61.58299
826.30 61.95555
826.40 62.37733
826.50 62.81419
826.60 63.15024
826.70 63.20155
826.80 62.8108
826.90 61.96143
827.00 60.83446
827.10 59.71431
827.20 58.85779
827.30 58.42718
827.40 58.44263
827.50 58.80955
827.60 59.40998
827.70 60.10604
827.80 60.74124
827.90 61.20879
828.00 61.43584
828.10 61.36078
828.20 61.02686
828.30 60.56469
828.40 60.04134
828.50 59.4187
828.60 58.81398
828.70 58.59694
828.80 59.0343
828.90 60.08161
829.00 61.53332
829.10 63.11561
829.20 64.40823
829.30 64.98045
829.40 64.77743
829.50 64.11876
829.60 63.45008
829.70 63.0841
829.80 63.12839
829.90 63.65254
830.00 64.50722
830.10 65.23777
830.20 65.49672
830.30 65.24429
830.40 64.57291
830.50 63.63913
830.60 62.76421
830.70 62.31915
830.80 62.44945
830.90 63.1072
831.00 64.02912
831.10 64.9027
831.20 65.6001
831.30 66.04954
831.40 66.19764
831.50 66.06516
831.60 65.76442
831.70 65.47512
831.80 65.37089
831.90 65.59991
832.00 66.26453
832.10 67.30006
832.20 68.51098
832.30 69.66362
832.40 70.58435
832.50 71.18121
832.60 71.37697
832.70 71.16777
832.80 70.62894
832.90 69.89128
833.00 69.10333
833.10 68.34972
833.20 67.68222
833.30 67.13844
833.40 66.73125
833.50 66.53912
833.60 66.5234
833.70 66.57817
833.80 66.71073
833.90 66.92374
834.00 67.41815
834.10 68.36251
834.20 69.84894
834.30 71.82305
834.40 73.85904
834.50 75.49471
834.60 76.39812
834.70 76.4522
834.80 75.76823
834.90 74.53784
835.00 73.09756
835.10 71.82441
835.20 71.04996
835.30 71.0218
835.40 71.50188
835.50 72.14039
835.60 72.55002
835.70 72.36163
835.80 71.58491
835.90 70.44004
836.00 69.20003
836.10 68.11932
836.20 67.37584
836.30 67.04105
836.40 67.11264
836.50 67.60877
836.60 68.44489
836.70 69.45119
836.80 70.55267
836.90 71.58379
837.00 72.37249
837.10 72.93027
837.20 73.34346
837.30 73.68104
837.40 73.99455
837.50 74.27204
837.60 74.54347
837.70 74.96754
837.80 75.74393
837.90 76.89125
838.00 78.21153
838.10 79.38525
838.20 80.08803
838.30 80.19754
838.40 79.73046
838.50 78.64968
838.60 77.02585
838.70 75.13131
838.80 73.35307
838.90 72.02932
839.00 71.2168
839.10 70.84722
839.20 70.86291
839.30 71.28424
839.40 72.14427
839.50 73.24285
839.60 74.43075
839.70 75.68209
839.80 76.88432
839.90 77.99953
840.00 79.00143
840.10 79.74145
840.20 79.95269
840.30 79.51689
840.40 78.72999
840.50 77.96511
840.60 77.41472
840.70 77.08492
840.80 76.86506
840.90 76.88829
841.00 77.32303
841.10 78.11862
841.20 79.18136
841.30 80.33549
841.40 81.37147
841.50 82.23225
841.60 82.97872
841.70 83.64534
841.80 84.128
841.90 84.3229
842.00 84.29177
842.10 84.10593
842.20 83.80215
842.30 83.48396
842.40 83.10005
842.50 82.54287
842.60 81.98444
842.70 81.7904
842.80 82.2521
842.90 83.36104
843.00 84.90589
843.10 86.54342
843.20 87.84094
843.30 88.3806
843.40 87.86871
843.50 86.32867
843.60 84.11976
843.70 81.68528
843.80 79.57806
843.90 78.30744
844.00 78.03464
844.10 78.65191
844.20 79.87394
844.30 81.33927
844.40 82.63604
844.50 83.34216
844.60 83.26777
844.70 82.52202
844.80 81.32209
844.90 79.95299
845.00 78.79981
845.10 78.2339
845.20 78.41968
845.30 79.26791
845.40 80.4513
845.50 81.48714
845.60 81.99944
845.70 81.85122
845.80 81.17247
845.90 80.34642
846.00 79.85887
846.10 80.08193
846.20 81.21506
846.30 83.3524
846.40 86.19791
846.50 89.12367
846.60 91.57578
846.70 93.15467
846.80 93.75967
846.90 93.56735
847.00 92.7264
847.10 91.35046
847.20 89.71249
847.30 88.08663
847.40 86.51683
847.50 84.97107
847.60 83.47577
847.70 81.98884
847.80 80.61476
847.90 79.62547
848.00 79.22089
848.10 79.51182
848.20 80.43336
848.30 81.74135
848.40 83.18714
848.50 84.54024
848.60 85.46098
848.70 85.82191
848.80 85.81936
848.90 85.75299
849.00 85.92595
849.10 86.45715
849.20 87.30408
849.30 88.30984
849.40 89.17489
849.50 89.5585
849.60 89.21703
849.70 88.15764
849.80 86.69994
849.90 85.36084
850.00 84.6662
850.10 84.73651
850.20 85.20564
850.30 85.71598
850.40 86.03927
850.50 86.03493
850.60 85.69048
850.70 85.03655
850.80 84.11281
850.90 83.17062
851.00 82.58159
851.10 82.50164
851.20 82.78355
851.30 83.04839
851.40 82.81759
851.50 81.80065
851.60 79.9598
851.70 77.10301
851.80 73.00243
851.90 67.80259
852.00 61.95556
852.10 56.16787
852.20 51.40409
852.30 48.50487
852.40 47.94967
852.50 49.88219
852.60 54.08859
852.70 59.99431
852.80 66.75546
852.90 73.37572
853.00 79.02637
853.10 83.35239
853.20 86.36856
853.30 88.2474
853.40 89.3111
853.50 90.0051
853.60 90.63123
853.70 91.2987
853.80 91.97211
853.90 92.51594
854.00 92.75731
854.10 92.59631
854.20 92.19241
854.30 91.877
854.40 91.93084
854.50 92.48685
854.60 93.50377
854.70 94.80238
854.80 96.11108
854.90 97.08479
855.00 97.51457
855.10 97.42413
855.20 97.01271
855.30 96.58778
855.40 96.48773
855.50 96.95865
855.60 98.0001
855.70 99.44833
855.80 101.0779
855.90 102.6097
856.00 103.7735
856.10 104.3581
856.20 104.2883
856.30 103.6664
856.40 102.724
856.50 101.7351
856.60 100.9128
856.70 100.4056
856.80 100.2976
856.90 100.579
857.00 101.1439
857.10 101.7962
857.20 102.3044
857.30 102.5461
857.40 102.5145
857.50 102.296
857.60 102.0554
857.70 101.9445
857.80 102.0465
857.90 102.2713
858.00 102.5285
858.10 102.793
858.20 102.971
858.30 103.0032
858.40 102.9519
858.50 102.9279
858.60 103.0063
858.70 103.1338
858.80 103.166
858.90 102.9904
859.00 102.5371
859.10 101.8069
859.20 100.9101
859.30 100.1186
859.40 99.68932
859.50 99.73239
859.60 100.3078
859.70 101.3596
859.80 102.6868
859.90 104.0371
860.00 105.1663
860.10 105.8929
860.20 106.1377
860.30 105.9838
860.40 105.7391
860.50 105.6668
860.60 105.7012
860.70 105.5913
860.80 105.0035
860.90 103.6625
861.00 101.5672
861.10 98.86804
861.20 95.60372
861.30 91.79605
861.40 87.61443
861.50 83.39226
861.60 79.60264
861.70 76.6294
861.80 74.53986
861.90 73.35043
862.00 73.16449
862.10 73.82353
862.20 74.96275
862.30 76.18045
862.40 77.14018
862.50 77.61973
862.60 77.47832
862.70 76.70698
862.80 75.38207
862.90 73.71085
863.00 72.07685
863.10 70.8743
863.20 70.32244
863.30 70.40659
863.40 71.018
863.50 72.16664
863.60 73.91561
863.70 76.12007
863.80 78.24151
863.90 79.6619
864.00 80.10645
864.10 79.63559
864.20 78.54528
864.30 77.14515
864.40 75.62342
864.50 74.1848
864.60 73.08143
864.70 72.50831
864.80 72.52022
864.90 73.04983
865.00 73.93974
865.10 74.98874
865.20 76.04917
865.30 77.06057
865.40 78.05033
865.50 79.03511
865.60 80.0119
865.70 81.04498
865.80 82.24412
865.90 83.60435
866.00 85.04995
866.10 86.48114
866.20 87.70053
866.30 88.52646
866.40 88.89277
866.50 88.74917
866.60 87.99538
866.70 86.67842
866.80 84.9884
866.90 83.24911
867.00 81.87828
867.10 81.13937
867.20 81.04813
867.30 81.60974
867.40 82.83977
867.50 84.61822
867.60 86.77187
867.70 88.9684
867.80 90.72226
867.90 91.73113
868.00 91.99566
868.10 91.63429
868.20 90.88058
868.30 90.09385
868.40 89.67503
868.50 89.91358
868.60 90.83454
868.70 92.12659
868.80 93.27959
868.90 93.90314
869.00 93.7998
869.10 92.94517
869.20 91.48826
869.30 89.71349
869.40 87.98455
869.50 86.63837
869.60 85.89044
869.70 85.73554
869.80 85.95361
869.90 86.3538
870.00 86.91898
870.10 87.66411
870.20 88.49148
870.30 89.17543
870.40 89.49052
870.50 89.43565
870.60 89.23439
870.70 89.05234
870.80 88.91728
870.90 88.80806
871.00 88.69811
871.10 88.56552
871.20 88.33728
871.30 87.94945
871.40 87.38874
871.50 86.69891
871.60 85.99508
871.70 85.41853
871.80 85.06399
871.90 84.90195
872.00 84.79477
872.10 84.67588
872.20 84.61614
872.30 84.72545
872.40 85.06067
872.50 85.63234
872.60 86.48405
872.70 87.62855
872.80 89.02247
872.90 90.54344
873.00 91.98587
873.10 93.16321
873.20 93.99416
873.30 94.45176
873.40 94.50425
873.50 94.20726
873.60 93.74203
873.70 93.341
873.80 93.20889
873.90 93.44827
874.00 93.99933
874.10 94.66386
874.20 95.20659
874.30 95.52115
874.40 95.67118
874.50 95.7305
874.60 95.67399
874.70 95.44524
874.80 94.98537
874.90 94.31041
875.00 93.50764
875.10 92.68297
875.20 91.97388
875.30 91.60344
875.40 91.92747
875.50 93.14677
875.60 95.19249
875.70 97.83584
875.80 100.6853
875.90 103.1931
876.00 104.6524
876.10 104.4253
876.20 102.3432
876.30 98.67291
876.40 93.98256
876.50 89.02971
876.60 84.57013
876.70 81.17711
876.80 79.11042
876.90 78.4135
877.00 79.14737
877.10 81.22113
877.20 84.15327
877.30 87.32203
877.40 90.43683
877.50 93.50232
877.60 96.58745
877.70 99.62273
877.80 102.0455
877.90 103.2641
878.00 103.1836
878.10 102.0876
878.20 100.3754
878.30 98.52597
878.40 96.78289
878.50 95.16126
878.60 93.84953
878.70 93.21335
878.80 93.5815
878.90 95.00813
879.00 97.10561
879.10 99.36874
879.20 101.713
879.30 104.1911
879.40 106.5801
879.50 108.4592
879.60 109.4533
879.70 109.3874
879.80 108.3855
879.90 106.8301
880.00 105.1663
880.10 103.714
880.20 102.5305
880.30 101.5629
880.40 100.8349
880.50 100.3731
880.60 100.2059
880.70 100.3737
880.80 100.8437
880.90 101.5481
881.00 102.4481
881.10 103.5025
881.20 104.6546
881.30 105.8433
881.40 107.0146
881.50 108.1566
881.60 109.3171
881.70 110.5718
881.80 111.9158
881.90 113.1966
882.00 114.1245
882.10 114.4679
882.20 114.2739
882.30 114.2906
882.40 115.3493
882.50 117.8244
882.60 121.5245
882.70 125.5518
882.80 128.7531
882.90 130.0898
883.00 128.8865
883.10 124.9774
883.20 118.9098
883.30 111.9495
883.40 105.8093
883.50 102.1538
883.60 101.966
883.70 104.7259
883.80 109.1924
883.90 114.113
884.00 118.38
884.10 121.3192
884.20 122.6106
884.30 122.2661
884.40 120.4783
884.50 117.6143
884.60 114.2115
884.70 110.8356
884.80 107.9399
884.90 105.7683
885.00 104.5011
885.10 104.3698
885.20 105.3538
885.30 107.0824
885.40 109.0091
885.50 110.7024
885.60 111.9155
885.70 112.5425
885.80 112.7356
885.90 112.7522
886.00 112.7964
886.10 113.0527
886.20 113.7127
886.30 114.9827
886.40 117.0525
886.50 119.7847
886.60 122.6558
886.70 125.041
886.80 126.3546
886.90 126.2703
887.00 124.7694
887.10 122.1226
887.20 118.8356
887.30 115.6031
887.40 113.1579
887.50 112.1634
887.60 112.9914
887.70 115.4093
887.80 118.5986
887.90 121.8452
888.00 124.9859
888.10 127.6825
888.20 129.2149
888.30 129.3056
888.40 128.9422
888.50 129.1636
888.60 129.8463
888.70 130.5867
888.80 131.1905
888.90 131.4238
889.00 130.9383
889.10 129.4887
889.20 127.0837
889.30 123.8961
889.40 120.0449
889.50 116.1639
889.60 113.6184
889.70 113.3903
889.80 114.9927
889.90 117.6018
890.00 121.129
890.10 125.3167
890.20 129.3452
890.30 132.3008
890.40 133.5836
890.50 132.9784
890.60 130.7122
890.70 127.3486
890.80 123.6599
890.90 120.4802
891.00 118.3796
891.10 117.5424
891.20 117.9087
891.30 119.2358
891.40 121.2817
891.50 123.8876
891.60 126.9999
891.70 130.5532
891.80 134.1277
891.90 137.0255
892.00 138.6204
892.10 138.5573
892.20 136.7335
892.30 133.3446
892.40 128.9513
892.50 124.3359
892.60 120.3285
892.70 117.533
892.80 116.2304
892.90 116.4223
893.00 117.7044
893.10 119.3131
893.20 120.633
893.30 121.4709
893.40 121.7783
893.50 121.5366
893.60 120.7383
893.70 119.3394
893.80 117.2875
893.90 114.4367
894.00 110.5335
894.10 105.5503
894.20 99.74393
894.30 93.60091
894.40 87.86483
894.50 83.36828
894.60 80.90124
894.70 80.9435
894.80 83.48066
894.90 88.06623
895.00 94.03781
895.10 100.7191
895.20 107.5302
895.30 114.0431
895.40 120.2279
895.50 126.265
895.60 132.1459
895.70 137.5018
895.80 141.6476
895.90 144.0253
896.00 144.1117
896.10 141.6307
896.20 136.9985
896.30 131.1439
896.40 125.2507
896.50 120.5139
896.60 117.8404
896.70 117.6951
896.80 119.704
896.90 122.8551
897.00 126.172
897.10 128.9993
897.20 131.1103
897.30 132.4837
897.40 133.3189
897.50 133.9405
897.60 134.5589
897.70 135.2828
897.80 136.1251
897.90 136.9206
898.00 137.4476
898.10 137.7196
898.20 138.0988
898.30 139.0595
898.40 140.565
898.50 141.8064
898.60 141.9914
898.70 141.0377
898.80 139.1272
898.90 136.5214
899.00 133.7133
899.10 131.2613
899.20 129.6857
899.30 129.337
899.40 130.2676
899.50 132.2625
899.60 135.0134
899.70 137.8627
899.80 140.3469
899.90 143.146
900.00 143.1295
900.10 143.113
900.20 143.0966
900.30 143.0801
900.40 143.0637
900.50 143.0472
900.60 143.0308
900.70 143.0143
900.80 142.9978
900.90 143.1239
901.00 143.3234
901.10 143.5229
901.20 143.7223
901.30 143.9218
901.40 144.1213
901.50 144.3208
901.60 144.5203
901.70 144.7197
901.80 144.9192
901.90 145.1187
902.00 145.3182
902.10 145.5176
902.20 145.7171
902.30 145.9166
902.40 146.1161
902.50 146.3156
902.60 146.515
902.70 146.7145
902.80 146.914
902.90 147.1135
903.00 147.3129
903.10 147.5124
903.20 147.7119
903.30 147.9114
903.40 148.1109
903.50 148.3103
903.60 148.5098
903.70 148.7093
903.80 148.9088
903.90 149.1083
904.00 149.3077
904.10 149.5072
904.20 149.7067
904.30 149.8849
904.40 150.0411
904.50 150.1973
904.60 150.3534
904.70 150.5096
904.80 150.6657
904.90 150.8219
905.00 150.9781
905.10 151.1342
905.20 151.2904
905.30 151.4466
905.40 151.6027
905.50 151.7589
905.60 151.915
905.70 152.0712
905.80 152.2274
905.90 152.3835
906.00 152.5397
906.10 152.6958
906.20 152.852
906.30 153.0082
906.40 153.1643
906.50 153.3205
906.60 153.4767
906.70 153.6328
906.80 153.789
906.90 153.9451
907.00 154.1013
907.10 154.2575
907.20 154.4136
907.30 154.5698
907.40 154.7259
907.50 154.8821
907.60 155.0383
907.70 155.1649
907.80 155.1102
907.90 155.0555
908.00 155.0008
908.10 154.9461
908.20 154.8914
908.30 154.8367
908.40 154.782
908.50 154.7273
908.60 154.6726
908.70 154.6179
908.80 154.5632
908.90 154.5085
909.00 154.4538
909.10 154.3991
909.20 154.3444
909.30 154.2897
909.40 154.235
909.50 154.1803
909.60 154.1256
909.70 154.0709
909.80 154.0162
909.90 153.9615
910.00 153.9068
910.10 153.8521
910.20 153.7974
910.30 153.7427
910.40 153.688
910.50 153.6333
910.60 153.5786
910.70 153.5239
910.80 153.4692
910.90 153.4145
911.00 153.3598
911.10 153.3051
911.20 153.2723
911.30 153.2534
911.40 153.2345
911.50 153.2155
911.60 153.1966
911.70 153.1777
911.80 153.1588
911.90 153.1399
912.00 153.121
912.10 153.1021
912.20 153.0832
912.30 153.0643
912.40 153.0454
912.50 153.0265
912.60 153.0076
912.70 152.9887
912.80 152.9698
912.90 152.9509
913.00 152.932
913.10 152.9131
913.20 152.8942
913.30 152.8753
913.40 152.8564
913.50 152.8375
913.60 152.8186
913.70 152.7997
913.80 152.7808
913.90 152.7619
914.00 152.743
914.10 152.7241
914.20 152.7052
914.30 152.6863
914.40 152.6673
914.50 152.6484
914.60 152.6295
914.70 152.7884
914.80 152.9693
914.90 153.1502
915.00 153.3311
915.10 153.512
915.20 153.6929
915.30 153.8738
915.40 154.0547
915.50 154.2355
915.60 154.4164
915.70 154.5973
915.80 154.7782
915.90 154.9591
916.00 155.14
916.10 155.3209
916.20 155.5018
916.30 155.6826
916.40 155.8635
916.50 156.0444
916.60 156.2253
916.70 156.4062
916.80 156.5871
916.90 156.768
917.00 156.9488
917.10 157.1297
917.20 157.3106
917.30 157.4915
917.40 157.6724
917.50 157.8533
917.60 158.0342
917.70 158.2151
917.80 158.3959
917.90 158.5768
918.00 158.7577
918.10 158.9372
918.20 158.98
918.30 159.0227
918.40 159.0654
918.50 159.1081
918.60 159.1509
918.70 159.1936
918.80 159.2363
918.90 159.2791
919.00 159.3218
919.10 159.3645
919.20 159.4072
919.30 159.45
919.40 159.4927
919.50 159.5354
919.60 159.5782
919.70 159.6209
919.80 159.6636
919.90 159.7064
920.00 159.7491
920.10 159.7918
920.20 159.8345
920.30 159.8773
920.40 159.92
920.50 159.9627
920.60 160.0055
920.70 160.0482
920.80 160.0909
920.90 160.1336
921.00 160.1764
921.10 160.2191
921.20 160.2618
921.30 160.3046
921.40 160.3473
921.50 160.39
921.60 160.4328
921.70 160.4449
921.80 160.4552
921.90 160.4654
922.00 160.4756
922.10 160.4858
922.20 160.496
922.30 160.5063
922.40 160.5165
922.50 160.5267
922.60 160.5369
922.70 160.5472
922.80 160.5574
922.90 160.5676
923.00 160.5778
923.10 160.5881
923.20 160.5983
923.30 160.6085
923.40 160.6187
923.50 160.629
923.60 160.6392
923.70 160.6494
923.80 160.6596
923.90 160.6698
924.00 160.6801
924.10 160.6903
924.20 160.7005
924.30 160.7107
924.40 160.721
924.50 160.7312
924.60 160.7414
924.70 160.7516
924.80 160.7619
924.90 160.7721
925.00 160.7823
925.10 160.7925
925.20 160.7233
925.30 160.62
925.40 160.5167
925.50 160.4134
925.60 160.3101
925.70 160.2068
925.80 160.1035
925.90 160.0002
926.00 159.8969
926.10 159.7936
926.20 159.6903
926.30 159.587
926.40 159.4837
926.50 159.3804
926.60 159.2771
926.70 159.1738
926.80 159.0705
926.90 158.9672
927.00 158.8639
927.10 158.7606
927.20 158.6573
927.30 158.554
927.40 158.4507
927.50 158.3474
927.60 158.2441
927.70 158.1408
927.80 158.0375
927.90 157.9342
928.00 157.8309
928.10 157.7277
928.20 157.6244
928.30 157.5211
928.40 157.4178
928.50 157.3145
928.60 157.2112
928.70 157.1849
928.80 157.3474
928.90 157.5098
929.00 157.6723
929.10 157.8348
929.20 157.9972
929.30 158.1597
929.40 158.3221
929.50 158.4846
929.60 158.647
929.70 158.8095
929.80 158.972
929.90 159.1344
930.00 159.2969
930.10 159.4593
930.20 159.6218
930.30 159.7842
930.40 159.9467
930.50 160.1092
930.60 160.2716
930.70 160.4341
930.80 160.5965
930.90 160.759
931.00 160.9214
931.10 161.0839
931.20 161.2464
931.30 161.4088
931.40 161.5713
931.50 161.7337
931.60 161.8962
931.70 162.0586
931.80 162.2211
931.90 162.3836
932.00 162.546
932.10 162.7085
932.20 162.8709
932.30 162.7967
932.40 162.621
932.50 162.4453
932.60 162.2696
932.70 162.0939
932.80 161.9181
932.90 161.7424
933.00 161.5667
933.10 161.391
933.20 161.2153
933.30 161.0396
933.40 160.8639
933.50 160.6882
933.60 160.5125
933.70 160.3368
933.80 160.1611
933.90 159.9854
934.00 159.8097
934.10 159.634
934.20 159.4583
934.30 159.2826
934.40 159.1069
934.50 158.9312
934.60 158.7555
934.70 158.5797
934.80 158.404
934.90 158.2283
935.00 158.0526
935.10 157.8769
935.20 157.7012
935.30 157.5255
935.40 157.3498
935.50 157.1741
935.60 156.9984
935.70 156.8227
935.80 156.647
935.90 156.7245
936.00 156.8182
936.10 156.9119
936.20 157.0056
936.30 157.0993
936.40 157.193
936.50 157.2867
936.60 157.3804
936.70 157.4741
936.80 157.5678
936.90 157.6615
937.00 157.7552
937.10 157.8489
937.20 157.9426
937.30 158.0363
937.40 158.13
937.50 158.2237
937.60 158.3174
937.70 158.4111
937.80 158.5048
937.90 158.5985
938.00 158.6922
938.10 158.7859
938.20 158.8796
938.30 158.9733
938.40 159.067
938.50 159.1607
938.60 159.2544
938.70 159.3481
938.80 159.4418
938.90 159.5355
939.00 159.6292
939.10 159.7229
939.20 159.8166
939.30 159.9103
939.40 160.0034
939.50 160.0671
939.60 160.1308
939.70 160.1944
939.80 160.2581
939.90 160.3218
940.00 160.3855
940.10 160.4491
940.20 160.5128
940.30 160.5765
940.40 160.6401
940.50 160.7038
940.60 160.7675
940.70 160.8311
940.80 160.8948
940.90 160.9585
941.00 161.0221
941.10 161.0858
941.20 161.1495
941.30 161.2131
941.40 161.2768
941.50 161.3405
941.60 161.4042
941.70 161.4678
941.80 161.5315
941.90 161.5952
942.00 161.6588
942.10 161.7225
942.20 161.7862
942.30 161.8498
942.40 161.9135
942.50 161.9772
942.60 162.0408
942.70 162.1045
942.80 162.1682
942.90 162.2319
943.00 162.2955
943.10 162.5041
943.20 162.7236
943.30 162.9431
943.40 163.1625
943.50 163.382
943.60 163.6015
943.70 163.821
943.80 164.0405
943.90 164.26
944.00 164.4794
944.10 164.6989
944.20 164.9184
944.30 165.1379
944.40 165.3574
944.50 165.5768
944.60 165.7963
944.70 166.0158
944.80 166.2353
944.90 166.4548
945.00 166.6743
945.10 166.8937
945.20 167.1132
945.30 167.3327
945.40 167.5522
945.50 167.7717
945.60 167.9911
945.70 168.2106
945.80 168.4301
945.90 168.6496
946.00 168.8691
946.10 169.0886
946.20 169.308
946.30 169.5275
946.40 169.747
946.50 169.9665
946.60 170.186
946.70 170.3093
946.80 170.3852
946.90 170.4612
947.00 170.5371
947.10 170.613
947.20 170.689
947.30 170.7649
947.40 170.8409
947.50 170.9168
947.60 170.9927
947.70 171.0687
947.80 171.1446
947.90 171.2206
948.00 171.2965
948.10 171.3724
948.20 171.4484
948.30 171.5243
948.40 171.6003
948.50 171.6762
948.60 171.7521
948.70 171.8281
948.80 171.904
948.90 171.98
949.00 172.0559
949.10 172.1318
949.20 172.2078
949.30 172.2837
949.40 172.3597
949.50 172.4356
949.60 172.5115
949.70 172.5875
949.80 172.6634
949.90 172.7394
950.00 172.8153
950.10 172.8912
950.20 172.9672
950.30 173.0069
950.40 172.9377
950.50 172.8686
950.60 172.7994
950.70 172.7303
950.80 172.6611
950.90 172.592
951.00 172.5228
951.10 172.4537
951.20 172.3845
951.30 172.3154
951.40 172.2462
951.50 172.1771
951.60 172.1079
951.70 172.0388
951.80 171.9696
951.90 171.9005
952.00 171.8313
952.10 171.7622
952.20 171.693
952.30 171.6239
952.40 171.5547
952.50 171.4856
952.60 171.4164
952.70 171.3473
952.80 171.2781
952.90 171.209
953.00 171.1398
953.10 171.0707
953.20 171.0015
953.30 170.9324
953.40 170.8632
953.50 170.7941
953.60 170.7249
953.70 170.6558
953.80 170.5866
953.90 170.5175
954.00 170.5932
954.10 170.7436
954.20 170.8939
954.30 171.0443
954.40 171.1946
954.50 171.345
954.60 171.4954
954.70 171.6457
954.80 171.7961
954.90 171.9465
955.00 172.0968
955.10 172.2472
955.20 172.3975
955.30 172.5479
955.40 172.6983
955.50 172.8486
955.60 172.999
955.70 173.1494
955.80 173.2997
955.90 173.4501
956.00 173.6004
956.10 173.7508
956.20 173.9012
956.30 174.0515
956.40 174.2019
956.50 174.3522
956.60 174.5026
956.70 174.653
956.80 174.8033
956.90 174.9537
957.00 175.1041
957.10 175.2544
957.20 175.4048
957.30 175.5551
957.40 175.7055
957.50 175.8559
957.60 176.0062
957.70 175.8958
957.80 175.7627
957.90 175.6296
958.00 175.4965
958.10 175.3634
958.20 175.2303
958.30 175.0972
958.40 174.9641
958.50 174.831
958.60 174.6979
958.70 174.5648
958.80 174.4317
958.90 174.2986
959.00 174.1655
959.10 174.0324
959.20 173.8993
959.30 173.7662
959.40 173.6331
959.50 173.5
959.60 173.3669
959.70 173.2338
959.80 173.1007
959.90 172.9676
960.00 172.8345
960.10 172.7014
960.20 172.5683
960.30 172.4352
960.40 172.3021
960.50 172.169
960.60 172.0359
960.70 171.9028
960.80 171.7697
960.90 171.6366
961.00 171.5035
961.10 171.3704
961.20 171.2373
961.30 171.109
961.40 171.217
961.50 171.3249
961.60 171.4329
961.70 171.5408
961.80 171.6488
961.90 171.7567
962.00 171.8647
962.10 171.9727
962.20 172.0806
962.30 172.1886
962.40 172.2965
962.50 172.4045
962.60 172.5124
962.70 172.6204
962.80 172.7284
962.90 172.8363
963.00 172.9443
963.10 173.0522
963.20 173.1602
963.30 173.2681
963.40 173.3761
963.50 173.4841
963.60 173.592
963.70 173.7
963.80 173.8079
963.90 173.9159
964.00 174.0238
964.10 174.1318
964.20 174.2397
964.30 174.3477
964.40 174.4557
964.50 174.5636
964.60 174.6716
964.70 174.7795
964.80 174.8875
964.90 174.9954
965.00 175.1034
965.10 175.1093
965.20 175.1109
965.30 175.1126
965.40 175.1142
965.50 175.1159
965.60 175.1175
965.70 175.1192
965.80 175.1208
965.90 175.1225
966.00 175.1241
966.10 175.1258
966.20 175.1274
966.30 175.1291
966.40 175.1307
966.50 175.1323
966.60 175.134
966.70 175.1356
966.80 175.1373
966.90 175.1389
967.00 175.1406
967.10 175.1422
967.20 175.1439
967.30 175.1455
967.40 175.1472
967.50 175.1488
967.60 175.1505
967.70 175.1521
967.80 175.1538
967.90 175.1554
968.00 175.157
968.10 175.1587
968.20 175.1603
968.30 175.162
968.40 175.1636
968.50 175.1653
968.60 175.1669
968.70 175.1686
968.80 175.1455
968.90 175.1138
969.00 175.0821
969.10 175.0504
969.20 175.0187
969.30 174.987
969.40 174.9553
969.50 174.9235
969.60 174.8918
969.70 174.8601
969.80 174.8284
969.90 174.7967
970.00 174.765
970.10 174.7333
970.20 174.7015
970.30 174.6698
970.40 174.6381
970.50 174.6064
970.60 174.5747
970.70 174.543
970.80 174.5113
970.90 174.4795
971.00 174.4478
971.10 174.4161
971.20 174.3844
971.30 174.3527
971.40 174.321
971.50 174.2893
971.60 174.2575
971.70 174.2258
971.80 174.1941
971.90 174.1624
972.00 174.1307
972.10 174.099
972.20 174.0673
972.30 174.0355
972.40 174.0038
972.50 174.0382
972.60 174.1852
972.70 174.3322
972.80 174.4792
972.90 174.6262
973.00 174.7731
973.10 174.9201
973.20 175.0671
973.30 175.2141
973.40 175.3611
973.50 175.508
973.60 175.655
973.70 175.802
973.80 175.949
973.90 176.096
974.00 176.2429
974.10 176.3899
974.20 176.5369
974.30 176.6839
974.40 176.8309
974.50 176.9778
974.60 177.1248
974.70 177.2718
974.80 177.4188
974.90 177.5658
975.00 177.7127
975.10 177.8597
975.20 178.0067
975.30 178.1537
975.40 178.3007
975.50 178.4476
975.60 178.5946
975.70 178.7416
975.80 178.8886
975.90 179.0356
976.00 179.1826
976.10 179.3295
976.20 179.4765
976.30 179.4279
976.40 179.3447
976.50 179.2615
976.60 179.1783
976.70 179.0951
976.80 179.0119
976.90 178.9287
977.00 178.8455
977.10 178.7624
977.20 178.6792
977.30 178.596
977.40 178.5128
977.50 178.4296
977.60 178.3464
977.70 178.2632
977.80 178.1801
977.90 178.0969
978.00 178.0137
978.10 177.9305
978.20 177.8473
978.30 177.7641
978.40 177.6809
978.50 177.5978
978.60 177.5146
978.70 177.4314
978.80 177.3482
978.90 177.265
979.00 177.1818
979.10 177.0986
979.20 177.0155
979.30 176.9323
979.40 176.8491
979.50 176.7659
979.60 176.6827
979.70 176.5995
979.80 176.5163
979.90 176.4332
980.00 176.3887
980.10 176.5209
980.20 176.6532
980.30 176.7854
980.40 176.9176
980.50 177.0498
980.60 177.182
980.70 177.3142
980.80 177.4464
980.90 177.5786
981.00 177.7108
981.10 177.843
981.20 177.9752
981.30 178.1074
981.40 178.2396
981.50 178.3718
981.60 178.504
981.70 178.6362
981.80 178.7684
981.90 178.9006
982.00 179.0328
982.10 179.1651
982.20 179.2973
982.30 179.4295
982.40 179.5617
982.50 179.6939
982.60 179.8261
982.70 179.9583
982.80 180.0905
982.90 180.2227
983.00 180.3549
983.10 180.4871
983.20 180.6193
983.30 180.7515
983.40 180.8837
983.50 181.0159
983.60 181.1481
983.70 181.2803
983.80 181.3175
983.90 181.1856
984.00 181.0538
984.10 180.9219
984.20 180.79
984.30 180.6582
984.40 180.5263
984.50 180.3945
984.60 180.2626
984.70 180.1308
984.80 179.9989
984.90 179.867
985.00 179.7352
985.10 179.6033
985.20 179.4715
985.30 179.3396
985.40 179.2078
985.50 179.0759
985.60 178.944
985.70 178.8122
985.80 178.6803
985.90 178.5485
986.00 178.4166
986.10 178.2847
986.20 178.1529
986.30 178.021
986.40 177.8892
986.50 177.7573
986.60 177.6255
986.70 177.4936
986.80 177.3617
986.90 177.2299
987.00 177.098
987.10 176.9662
987.20 176.8343
987.30 176.7024
987.40 176.5706
987.50 176.4387
987.60 176.3618
987.70 176.3673
987.80 176.3728
987.90 176.3783
988.00 176.3838
988.10 176.3893
988.20 176.3948
988.30 176.4003
988.40 176.4058
988.50 176.4113
988.60 176.4168
988.70 176.4223
988.80 176.4278
988.90 176.4333
989.00 176.4388
989.10 176.4443
989.20 176.4498
989.30 176.4553
989.40 176.4608
989.50 176.4663
989.60 176.4718
989.70 176.4773
989.80 176.4828
989.90 176.4883
990.00 176.4938
990.10 176.4993
990.20 176.5048
990.30 176.5103
990.40 176.5158
990.50 176.5213
990.60 176.5268
990.70 176.5323
990.80 176.5378
990.90 176.5433
991.00 176.5488
991.10 176.5543
991.20 176.5598
991.30 176.5653
991.40 176.5567
991.50 176.5134
991.60 176.4702
991.70 176.4269
991.80 176.3837
991.90 176.3405
992.00 176.2972
992.10 176.254
992.20 176.2108
992.30 176.1675
992.40 176.1243
992.50 176.081
992.60 176.0378
992.70 175.9946
992.80 175.9513
992.90 175.9081
993.00 175.8649
993.10 175.8216
993.20 175.7784
993.30 175.7351
993.40 175.6919
993.50 175.6487
993.60 175.6054
993.70 175.5622
993.80 175.5189
993.90 175.4757
994.00 175.4325
994.10 175.3892
994.20 175.346
994.30 175.3028
994.40 175.2595
994.50 175.2163
994.60 175.173
994.70 175.1298
994.80 175.0866
994.90 175.0433
995.00 175.0001
995.10 174.9569
995.20 174.9074
995.30 174.6569
995.40 174.4064
995.50 174.156
995.60 173.9055
995.70 173.655
995.80 173.4045
995.90 173.154
996.00 172.9036
996.10 172.6531
996.20 172.4026
996.30 172.1521
996.40 171.9017
996.50 171.6512
996.60 171.4007
996.70 171.1502
996.80 170.8997
996.90 170.6493
997.00 170.3988
997.10 170.1483
997.20 169.8978
997.30 169.6473
997.40 169.3969
997.50 169.1464
997.60 168.8959
997.70 168.6454
997.80 168.3949
997.90 168.1445
998.00 167.894
998.10 167.6435
998.20 167.393
998.30 167.1426
998.40 166.8921
998.50 166.6416
998.60 166.3911
998.70 166.1406
998.80 165.8902
998.90 165.6397
999.00 165.3892
999.10 165.2742
999.20 165.2355
999.30 165.1968
999.40 165.1581
999.50 165.1194
999.60 165.0806
999.70 165.0419
999.80 165.0032
999.90 164.9645
1000.00 164.9258
1000.10 164.887
1000.20 164.8483
1000.30 164.8096
1000.40 164.7709
1000.50 164.7322
1000.60 164.6934
1000.70 164.6547
1000.80 164.616
1000.90 164.5773
1001.00 164.5386
1001.10 164.4998
1001.20 164.4611
1001.30 164.4224
1001.40 164.3837
1001.50 164.345
1001.60 164.3062
1001.70 164.2675
1001.80 164.2288
1001.90 164.1901
1002.00 164.1514
1002.10 164.1127
1002.20 164.0739
1002.30 164.0352
1002.40 163.9965
1002.50 163.9578
1002.60 163.9191
1002.70 163.8803
1002.80 163.8416
1002.90 163.8149
1003.00 163.8958
1003.10 163.9767
1003.20 164.0576
1003.30 164.1385
1003.40 164.2194
1003.50 164.3004
1003.60 164.3813
1003.70 164.4622
1003.80 164.5431
1003.90 164.624
1004.00 164.7049
1004.10 164.7859
1004.20 164.8668
1004.30 164.9477
1004.40 165.0286
1004.50 165.1095
1004.60 165.1904
1004.70 165.2714
1004.80 165.3523
1004.90 165.4332
1005.00 165.5141
1005.10 165.595
1005.20 165.6759
1005.30 165.7569
1005.40 165.8378
1005.50 165.9187
1005.60 165.9996
1005.70 166.0805
1005.80 166.1614
1005.90 166.2424
1006.00 166.3233
1006.10 166.4042
1006.20 166.4851
1006.30 166.566
1006.40 166.6469
1006.50 166.7279
1006.60 166.8088
1006.70 166.8897
1006.80 167.0014
1006.90 167.1594
1007.00 167.3174
1007.10 167.4753
1007.20 167.6333
1007.30 167.7913
1007.40 167.9492
1007.50 168.1072
1007.60 168.2652
1007.70 168.4231
1007.80 168.5811
1007.90 168.7391
1008.00 168.897
1008.10 169.055
1008.20 169.213
1008.30 169.3709
1008.40 169.5289
1008.50 169.6868
1008.60 169.8448
1008.70 170.0028
1008.80 170.1607
1008.90 170.3187
1009.00 170.4767
1009.10 170.6346
1009.20 170.7926
1009.30 170.9506
1009.40 171.1085
1009.50 171.2665
1009.60 171.4245
1009.70 171.5824
1009.80 171.7404
1009.90 171.8984
1010.00 172.0563
1010.10 172.2143
1010.20 172.3723
1010.30 172.5302
1010.40 172.6882
1010.50 172.8462
1010.60 173.0041
1010.70 173.0467
1010.80 173.0123
1010.90 172.9779
1011.00 172.9436
1011.10 172.9092
1011.20 172.8748
1011.30 172.8404
1011.40 172.806
1011.50 172.7717
1011.60 172.7373
1011.70 172.7029
1011.80 172.6685
1011.90 172.6341
1012.00 172.5998
1012.10 172.5654
1012.20 172.531
1012.30 172.4966
1012.40 172.4623
1012.50 172.4279
1012.60 172.3935
1012.70 172.3591
1012.80 172.3247
1012.90 172.2904
1013.00 172.256
1013.10 172.2216
1013.20 172.1872
1013.30 172.1529
1013.40 172.1185
1013.50 172.0841
1013.60 172.0497
1013.70 172.0153
1013.80 171.981
1013.90 171.9466
1014.00 171.9122
1014.10 171.8778
1014.20 171.8435
1014.30 171.8091
1014.40 171.7747
1014.50 171.7403
1014.60 171.8404
1014.70 171.9982
1014.80 172.156
1014.90 172.3138
1015.00 172.4715
1015.10 172.6293
1015.20 172.7871
1015.30 172.9449
1015.40 173.1026
1015.50 173.2604
1015.60 173.4182
1015.70 173.5759
1015.80 173.7337
1015.90 173.8915
1016.00 174.0493
1016.10 174.207
1016.20 174.3648
1016.30 174.5226
1016.40 174.6803
1016.50 174.8381
1016.60 174.9959
1016.70 175.1537
1016.80 175.3114
1016.90 175.4692
1017.00 175.627
1017.10 175.7848
1017.20 175.9425
1017.30 176.1003
1017.40 176.2581
1017.50 176.4158
1017.60 176.5736
1017.70 176.7314
1017.80 176.8892
1017.90 177.0469
1018.00 177.2047
1018.10 177.3625
1018.20 177.5203
1018.30 177.678
1018.40 177.8358
1018.50 177.9097
1018.60 177.9278
1018.70 177.9459
1018.80 177.964
1018.90 177.982
1019.00 178.0001
1019.10 178.0182
1019.20 178.0362
1019.30 178.0543
1019.40 178.0724
1019.50 178.0905
1019.60 178.1085
1019.70 178.1266
1019.80 178.1447
1019.90 178.1627
1020.00 178.1808
1020.10 178.1989
1020.20 178.2169
1020.30 178.235
1020.40 178.2531
1020.50 178.2712
1020.60 178.2892
1020.70 178.3073
1020.80 178.3254
1020.90 178.3434
1021.00 178.3615
1021.10 178.3796
1021.20 178.3977
1021.30 178.4157
1021.40 178.4338
1021.50 178.4519
1021.60 178.4699
1021.70 178.488
1021.80 178.5061
1021.90 178.5241
1022.00 178.5422
1022.10 178.5603
1022.20 178.5784
1022.30 178.5964
1022.40 178.5801
1022.50 178.5292
1022.60 178.4784
1022.70 178.4276
1022.80 178.3767
1022.90 178.3259
1023.00 178.2751
1023.10 178.2242
1023.20 178.1734
1023.30 178.1226
1023.40 178.0717
1023.50 178.0209
1023.60 177.9701
1023.70 177.9192
1023.80 177.8684
1023.90 177.8176
1024.00 177.7667
1024.10 177.7159
1024.20 177.6651
1024.30 177.6142
1024.40 177.5634
1024.50 177.5126
1024.60 177.4617
1024.70 177.4109
1024.80 177.3601
1024.90 177.3092
1025.00 177.2584
1025.10 177.2076
1025.20 177.1567
1025.30 177.1059
1025.40 177.0551
1025.50 177.0042
1025.60 176.9534
1025.70 176.9026
1025.80 176.8517
1025.90 176.8009
1026.00 176.7501
1026.10 176.6992
1026.20 176.6484
1026.30 176.608
1026.40 176.6615
1026.50 176.7151
1026.60 176.7686
1026.70 176.8222
1026.80 176.8757
1026.90 176.9293
1027.00 176.9828
1027.10 177.0364
1027.20 177.0899
1027.30 177.1435
1027.40 177.197
1027.50 177.2506
1027.60 177.3041
1027.70 177.3577
1027.80 177.4112
1027.90 177.4648
1028.00 177.5183
1028.10 177.5719
1028.20 177.6254
1028.30 177.679
1028.40 177.7325
1028.50 177.7861
1028.60 177.8396
1028.70 177.8932
1028.80 177.9467
1028.90 178.0003
1029.00 178.0538
1029.10 178.1074
1029.20 178.1609
1029.30 178.2145
1029.40 178.268
1029.50 178.3216
1029.60 178.3751
1029.70 178.4286
1029.80 178.4822
1029.90 178.5357
1030.00 178.5893
1030.10 178.6428
1030.20 178.6964
1030.30 178.7313
1030.40 178.7582
1030.50 178.7851
1030.60 178.812
1030.70 178.8389
1030.80 178.8658
1030.90 178.8927
1031.00 178.9196
1031.10 178.9465
1031.20 178.9734
1031.30 179.0003
1031.40 179.0272
1031.50 179.0541
1031.60 179.081
1031.70 179.1079
1031.80 179.1348
1031.90 179.1617
1032.00 179.1886
1032.10 179.2155
1032.20 179.2425
1032.30 179.2694
1032.40 179.2963
1032.50 179.3232
1032.60 179.3501
1032.70 179.377
1032.80 179.4039
1032.90 179.4308
1033.00 179.4577
1033.10 179.4846
1033.20 179.5115
1033.30 179.5384
1033.40 179.5653
1033.50 179.5922
1033.60 179.6191
1033.70 179.646
1033.80 179.6729
1033.90 179.6998
1034.00 179.7267
1034.10 179.7536
1034.20 179.7949
1034.30 179.9657
1034.40 180.1364
1034.50 180.3072
1034.60 180.4779
1034.70 180.6487
1034.80 180.8195
1034.90 180.9902
1035.00 181.161
1035.10 181.3317
1035.20 181.5025
1035.30 181.6732
1035.40 181.844
1035.50 182.0148
1035.60 182.1855
1035.70 182.3563
1035.80 182.527
1035.90 182.6978
1036.00 182.8686
1036.10 183.0393
1036.20 183.2101
1036.30 183.3808
1036.40 183.5516
1036.50 183.7224
1036.60 183.8931
1036.70 184.0639
1036.80 184.2346
1036.90 184.4054
1037.00 184.5762
1037.10 184.7469
1037.20 184.9177
1037.30 185.0884
1037.40 185.2592
1037.50 185.4299
1037.60 185.6007
1037.70 185.7715
1037.80 185.9422
1037.90 186.113
1038.00 186.2837
1038.10 186.4545
1038.20 186.5429
1038.30 186.5079
1038.40 186.4729
1038.50 186.4379
1038.60 186.4029
1038.70 186.3679
1038.80 186.3328
1038.90 186.2978
1039.00 186.2628
1039.10 186.2278
1039.20 186.1928
1039.30 186.1578
1039.40 186.1227
1039.50 186.0877
1039.60 186.0527
1039.70 186.0177
1039.80 185.9827
1039.90 185.9477
1040.00 185.9126
1040.10 185.8776
1040.20 185.8426
1040.30 185.8076
1040.40 185.7726
1040.50 185.7376
1040.60 185.7025
1040.70 185.6675
1040.80 185.6325
1040.90 185.5975
1041.00 185.5625
1041.10 185.5275
1041.20 185.4924
1041.30 185.4574
1041.40 185.4224
1041.50 185.3874
1041.60 185.3524
1041.70 185.3174
1041.80 185.2823
1041.90 185.2473
1042.00 185.2123
1042.10 185.1773
1042.20 185.2537
1042.30 185.4044
1042.40 185.555
1042.50 185.7057
1042.60 185.8564
1042.70 186.007
1042.80 186.1577
1042.90 186.3083
1043.00 186.459
1043.10 186.6097
1043.20 186.7603
1043.30 186.911
1043.40 187.0617
1043.50 187.2123
1043.60 187.363
1043.70 187.5137
1043.80 187.6643
1043.90 187.815
1044.00 187.9657
1044.10 188.1163
1044.20 188.267
1044.30 188.4177
1044.40 188.5683
1044.50 188.719
1044.60 188.8697
1044.70 189.0203
1044.80 189.171
1044.90 189.3217
1045.00 189.4723
1045.10 189.623
1045.20 189.7736
1045.30 189.9243
1045.40 190.075
1045.50 190.2256
1045.60 190.3763
1045.70 190.527
1045.80 190.6776
1045.90 190.8283
1046.00 190.979
1046.10 191.1296
1046.20 191.1528
1046.30 191.1214
1046.40 191.09
1046.50 191.0586
1046.60 191.0272
1046.70 190.9957
1046.80 190.9643
1046.90 190.9329
1047.00 190.9015
1047.10 190.8701
1047.20 190.8386
1047.30 190.8072
1047.40 190.7758
1047.50 190.7444
1047.60 190.713
1047.70 190.6815
1047.80 190.6501
1047.90 190.6187
1048.00 190.5873
1048.10 190.5558
1048.20 190.5244
1048.30 190.493
1048.40 190.4616
1048.50 190.4302
1048.60 190.3987
1048.70 190.3673
1048.80 190.3359
1048.90 190.3045
1049.00 190.2731
1049.10 190.2416
1049.20 190.2102
1049.30 190.1788
1049.40 190.1474
1049.50 190.116
1049.60 190.0845
1049.70 190.0531
1049.80 190.0217
1049.90 189.9903
1050.00 189.9589
1050.10 189.9274
1050.20 189.9321
1050.30 189.9522
1050.40 189.9723
1050.50 189.9924
1050.60 190.0125
1050.70 190.0326
1050.80 190.0527
1050.90 190.0728
1051.00 190.0929
1051.10 190.113
1051.20 190.1331
1051.30 190.1532
1051.40 190.1733
1051.50 190.1934
1051.60 190.2135
1051.70 190.2336
1051.80 190.2537
1051.90 190.2738
1052.00 190.2939
1052.10 190.314
1052.20 190.3341
1052.30 190.3542
1052.40 190.3743
1052.50 190.3944
1052.60 190.4145
1052.70 190.4346
1052.80 190.4547
1052.90 190.4748
1053.00 190.4949
1053.10 190.515
1053.20 190.5351
1053.30 190.5552
1053.40 190.5753
1053.50 190.5954
1053.60 190.6155
1053.70 190.6356
1053.80 190.6557
1053.90 190.6758
1054.00 190.6959
1054.10 190.716
1054.20 190.7505
1054.30 190.7993
1054.40 190.8481
1054.50 190.8968
1054.60 190.9456
1054.70 190.9944
1054.80 191.0432
1054.90 191.092
1055.00 191.1408
1055.10 191.1895
1055.20 191.2383
1055.30 191.2871
1055.40 191.3359
1055.50 191.3847
1055.60 191.4335
1055.70 191.4822
1055.80 191.531
1055.90 191.5798
1056.00 191.6286
1056.10 191.6774
1056.20 191.7262
1056.30 191.775
1056.40 191.8237
1056.50 191.8725
1056.60 191.9213
1056.70 191.9701
1056.80 192.0189
1056.90 192.0677
1057.00 192.1164
1057.10 192.1652
1057.20 192.214
1057.30 192.2628
1057.40 192.3116
1057.50 192.3604
1057.60 192.4091
1057.70 192.4579
1057.80 192.5067
1057.90 192.5555
1058.00 192.6043
1058.10 192.6531
1058.20 192.7008
1058.30 192.7463
1058.40 192.7917
1058.50 192.8371
1058.60 192.8826
1058.70 192.928
1058.80 192.9734
1058.90 193.0189
1059.00 193.0643
1059.10 193.1097
1059.20 193.1551
1059.30 193.2006
1059.40 193.246
1059.50 193.2914
1059.60 193.3369
1059.70 193.3823
1059.80 193.4277
1059.90 193.4731
1060.00 193.5186
1060.10 193.564
1060.20 193.6094
1060.30 193.6549
1060.40 193.7003
1060.50 193.7457
1060.60 193.7912
1060.70 193.8366
1060.80 193.882
1060.90 193.9274
1061.00 193.9729
1061.10 194.0183
1061.20 194.0637
1061.30 194.1092
1061.40 194.1546
1061.50 194.2
1061.60 194.2454
1061.70 194.2909
1061.80 194.3363
1061.90 194.3817
1062.00 194.4272
1062.10 194.4726
1062.20 194.518
1062.30 194.5751
1062.40 194.6336
1062.50 194.692
1062.60 194.7504
1062.70 194.8088
1062.80 194.8672
1062.90 194.9256
1063.00 194.984
1063.10 195.0425
1063.20 195.1009
1063.30 195.1593
1063.40 195.2177
1063.50 195.2761
1063.60 195.3345
1063.70 195.3929
1063.80 195.4513
1063.90 195.5098
1064.00 195.5682
1064.10 195.6266
1064.20 195.685
1064.30 195.7434
1064.40 195.8018
1064.50 195.8602
1064.60 195.9187
1064.70 195.9771
1064.80 196.0355
1064.90 196.0939
1065.00 196.1523
1065.10 196.2107
1065.20 196.2691
1065.30 196.3276
1065.40 196.386
1065.50 196.4444
1065.60 196.5028
1065.70 196.5612
1065.80 196.6196
1065.90 196.678
1066.00 196.7365
1066.10 196.7949
1066.20 196.8533
1066.30 196.9153
1066.40 196.9826
1066.50 197.0499
1066.60 197.1172
1066.70 197.1845
1066.80 197.2518
1066.90 197.3191
1067.00 197.3864
1067.10 197.4537
1067.20 197.521
1067.30 197.5883
1067.40 197.6556
1067.50 197.7229
1067.60 197.7902
1067.70 197.8575
1067.80 197.9249
1067.90 197.9922
1068.00 198.0595
1068.10 198.1268
1068.20 198.1941
1068.30 198.2614
1068.40 198.3287
1068.50 198.396
1068.60 198.4633
1068.70 198.5306
1068.80 198.5979
1068.90 198.6652
1069.00 198.7325
1069.10 198.7998
1069.20 198.8671
1069.30 198.9344
1069.40 199.0018
1069.50 199.0691
1069.60 199.1364
1069.70 199.2037
1069.80 199.271
1069.90 199.3383
1070.00 199.4056
1070.10 199.4729
1070.20 199.5402
1070.30 199.6075
1070.40 199.6667
1070.50 199.725
1070.60 199.7832
1070.70 199.8415
1070.80 199.8998
1070.90 199.958
1071.00 200.0163
1071.10 200.0746
1071.20 200.1328
1071.30 200.1911
1071.40 200.2494
1071.50 200.3076
1071.60 200.3659
1071.70 200.4242
1071.80 200.4824
1071.90 200.5407
1072.00 200.599
1072.10 200.6572
1072.20 200.7155
1072.30 200.7738
1072.40 200.832
1072.50 200.8903
1072.60 200.9486
1072.70 201.0068
1072.80 201.0651
1072.90 201.1234
1073.00 201.1816
1073.10 201.2399
1073.20 201.2982
1073.30 201.3564
1073.40 201.4147
1073.50 201.473
1073.60 201.5313
1073.70 201.5895
1073.80 201.6478
1073.90 201.7061
1074.00 201.7643
1074.10 201.8226
1074.20 201.8809
1074.30 201.9391
1074.40 201.9984
1074.50 202.0619
1074.60 202.1253
1074.70 202.1888
1074.80 202.2522
1074.90 202.3157
1075.00 202.3791
1075.10 202.4426
1075.20 202.506
1075.30 202.5695
1075.40 202.6329
1075.50 202.6964
1075.60 202.7598
1075.70 202.8233
1075.80 202.8867
1075.90 202.9501
1076.00 203.0136
1076.10 203.077
1076.20 203.1405
1076.30 203.2039
1076.40 203.2674
1076.50 203.3308
1076.60 203.3943
1076.70 203.4577
1076.80 203.5212
1076.90 203.5846
1077.00 203.6481
1077.10 203.7115
1077.20 203.775
1077.30 203.8384
1077.40 203.9019
1077.50 203.9653
1077.60 204.0288
1077.70 204.0922
1077.80 204.1557
1077.90 204.2191
1078.00 204.2826
1078.10 204.346
1078.20 204.4094
1078.30 204.4729
1078.40 204.5363
1078.50 204.5725
1078.60 204.5677
1078.70 204.563
1078.80 204.5582
1078.90 204.5535
1079.00 204.5487
1079.10 204.5439
1079.20 204.5392
1079.30 204.5344
1079.40 204.5296
1079.50 204.5249
1079.60 204.5201
1079.70 204.5154
1079.80 204.5106
1079.90 204.5058
1080.00 204.5011
1080.10 204.4963
1080.20 204.4915
1080.30 204.4868
1080.40 204.482
1080.50 204.4773
1080.60 204.4725
1080.70 204.4677
1080.80 204.463
1080.90 204.4582
1081.00 204.4534
1081.10 204.4487
1081.20 204.4439
1081.30 204.4392
1081.40 204.4344
1081.50 204.4296
1081.60 204.4249
1081.70 204.4201
1081.80 204.4153
1081.90 204.4106
1082.00 204.4058
1082.10 204.4011
1082.20 204.3963
1082.30 204.3915
1082.40 204.3868
1082.50 204.382
1082.60 204.4536
1082.70 204.6016
1082.80 204.7495
1082.90 204.8975
1083.00 205.0455
1083.10 205.1934
1083.20 205.3414
1083.30 205.4894
1083.40 205.6373
1083.50 205.7853
1083.60 205.9333
1083.70 206.0812
1083.80 206.2292
1083.90 206.3772
1084.00 206.5251
1084.10 206.6731
1084.20 206.821
1084.30 206.969
1084.40 207.117
1084.50 207.2649
1084.60 207.4129
1084.70 207.5609
1084.80 207.7088
1084.90 207.8568
1085.00 208.0048
1085.10 208.1527
1085.20 208.3007
1085.30 208.4487
1085.40 208.5966
1085.50 208.7446
1085.60 208.8926
1085.70 209.0405
1085.80 209.1885
1085.90 209.3365
1086.00 209.4844
1086.10 209.6324
1086.20 209.7804
1086.30 209.9283
1086.40 210.0763
1086.50 210.2243
1086.60 210.3722
1086.70 210.47
1086.80 210.5344
1086.90 210.5988
1087.00 210.6631
1087.10 210.7275
1087.20 210.7919
1087.30 210.8562
1087.40 210.9206
1087.50 210.985
1087.60 211.0493
1087.70 211.1137
1087.80 211.178
1087.90 211.2424
1088.00 211.3068
1088.10 211.3711
1088.20 211.4355
1088.30 211.4999
1088.40 211.5642
1088.50 211.6286
1088.60 211.693
1088.70 211.7573
1088.80 211.8217
1088.90 211.8861
1089.00 211.9504
1089.10 212.0148
1089.20 212.0792
1089.30 212.1435
1089.40 212.2079
1089.50 212.2723
1089.60 212.3366
1089.70 212.401
1089.80 212.4654
1089.90 212.5297
1090.00 212.5941
1090.10 212.6585
1090.20 212.7228
1090.30 212.7872
1090.40 212.8516
1090.50 212.9159
1090.60 212.9803
1090.70 213.0447
1090.80 213.0655
1090.90 213.0428
1091.00 213.0201
1091.10 212.9975
1091.20 212.9748
1091.30 212.9521
1091.40 212.9294
1091.50 212.9068
1091.60 212.8841
1091.70 212.8614
1091.80 212.8387
1091.90 212.8161
1092.00 212.7934
1092.10 212.7707
1092.20 212.748
1092.30 212.7254
1092.40 212.7027
1092.50 212.68
1092.60 212.6573
1092.70 212.6346
1092.80 212.612
1092.90 212.5893
1093.00 212.5666
1093.10 212.5439
1093.20 212.5213
1093.30 212.4986
1093.40 212.4759
1093.50 212.4532
1093.60 212.4306
1093.70 212.4079
1093.80 212.3852
1093.90 212.3625
1094.00 212.3399
1094.10 212.3172
1094.20 212.2945
1094.30 212.2718
1094.40 212.2492
1094.50 212.2265
1094.60 212.2038
1094.70 212.1811
1094.80 212.1584
1094.90 212.1912
1095.00 212.3071
1095.10 212.4229
1095.20 212.5388
1095.30 212.6546
1095.40 212.7705
1095.50 212.8864
1095.60 213.0022
1095.70 213.1181
1095.80 213.234
1095.90 213.3498
1096.00 213.4657
1096.10 213.5816
1096.20 213.6974
1096.30 213.8133
1096.40 213.9292
1096.50 214.045
1096.60 214.1609
1096.70 214.2768
1096.80 214.3926
1096.90 214.5085
1097.00 214.6244
1097.10 214.7402
1097.20 214.8561
1097.30 214.9719
1097.40 215.0878
1097.50 215.2037
1097.60 215.3195
1097.70 215.4354
1097.80 215.5513
1097.90 215.6671
1098.00 215.783
1098.10 215.8989
1098.20 216.0147
1098.30 216.1306
1098.40 216.2465
1098.50 216.3623
1098.60 216.4782
1098.70 216.5941
1098.80 216.7099
1098.90 216.8258
1099.00 216.9227
1099.10 216.8486
1099.20 216.7746
1099.30 216.7006
1099.40 216.6266
1099.50 216.5526
1099.60 216.4785
1099.70 216.4045
1099.80 216.3305
1099.90 216.2565
1100.00 216.1824
1100.10 216.1084
1100.20 216.0344
1100.30 215.9604
1100.40 215.8864
1100.50 215.8123
1100.60 215.7383
1100.70 215.6643
1100.80 215.5903
1100.90 215.5162
1101.00 215.4422
1101.10 215.3682
1101.20 215.2942
1101.30 215.2201
1101.40 215.1461
1101.50 215.0721
1101.60 214.9981
1101.70 214.9241
1101.80 214.85
1101.90 214.776
1102.00 214.702
1102.10 214.628
1102.20 214.5539
1102.30 214.4799
1102.40 214.4059
1102.50 214.3319
1102.60 214.2579
1102.70 214.1838
1102.80 214.1098
1102.90 214.0358
1103.00 213.9618
1103.10 213.8877
1103.20 213.8116
1103.30 213.735
1103.40 213.6583
1103.50 213.5817
1103.60 213.505
1103.70 213.4284
1103.80 213.3517
1103.90 213.2751
1104.00 213.1984
1104.10 213.1218
1104.20 213.0451
1104.30 212.9685
1104.40 212.8918
1104.50 212.8152
1104.60 212.7385
1104.70 212.6619
1104.80 212.5852
1104.90 212.5086
1105.00 212.4319
1105.10 212.3553
1105.20 212.2786
1105.30 212.202
1105.40 212.1253
1105.50 212.0487
1105.60 211.972
1105.70 211.8954
1105.80 211.8187
1105.90 211.7421
1106.00 211.6654
1106.10 211.5888
1106.20 211.5121
1106.30 211.4355
1106.40 211.3588
1106.50 211.2822
1106.60 211.2055
1106.70 211.1289
1106.80 211.0522
1106.90 210.9756
1107.00 210.8989
1107.10 210.8223
1107.20 210.7456
1107.30 210.6815
1107.40 210.6364
1107.50 210.5912
1107.60 210.5461
1107.70 210.5009
1107.80 210.4557
1107.90 210.4106
1108.00 210.3654
1108.10 210.3202
1108.20 210.2751
1108.30 210.2299
1108.40 210.1848
1108.50 210.1396
1108.60 210.0944
1108.70 210.0493
1108.80 210.0041
1108.90 209.9589
1109.00 209.9138
1109.10 209.8686
1109.20 209.8235
1109.30 209.7783
1109.40 209.7331
1109.50 209.688
1109.60 209.6428
1109.70 209.5976
1109.80 209.5525
1109.90 209.5073
1110.00 209.4622
1110.10 209.417
1110.20 209.3718
1110.30 209.3267
1110.40 209.2815
1110.50 209.2363
1110.60 209.1912
1110.70 209.146
1110.80 209.1009
1110.90 209.0557
1111.00 209.0105
1111.10 208.9654
1111.20 208.9202
1111.30 208.875
1111.40 208.8299
1111.50 208.7385
1111.60 208.6421
1111.70 208.5456
1111.80 208.4492
1111.90 208.3527
1112.00 208.2562
1112.10 208.1598
1112.20 208.0633
1112.30 207.9668
1112.40 207.8704
1112.50 207.7739
1112.60 207.6775
1112.70 207.581
1112.80 207.4845
1112.90 207.3881
1113.00 207.2916
1113.10 207.1951
1113.20 207.0987
1113.30 207.0022
1113.40 206.9058
1113.50 206.8093
1113.60 206.7128
1113.70 206.6164
1113.80 206.5199
1113.90 206.4234
1114.00 206.327
1114.10 206.2305
1114.20 206.134
1114.30 206.0376
1114.40 205.9411
1114.50 205.8447
1114.60 205.7482
1114.70 205.6517
1114.80 205.5553
1114.90 205.4588
1115.00 205.3623
1115.10 205.2659
1115.20 205.1694
1115.30 205.073
1115.40 204.9765
1115.50 204.88
1115.60 204.8528
1115.70 204.987
1115.80 205.1213
1115.90 205.2556
1116.00 205.3898
1116.10 205.5241
1116.20 205.6583
1116.30 205.7926
1116.40 205.9268
1116.50 206.0611
1116.60 206.1954
1116.70 206.3296
1116.80 206.4639
1116.90 206.5981
1117.00 206.7324
1117.10 206.8666
1117.20 207.0009
1117.30 207.1352
1117.40 207.2694
1117.50 207.4037
1117.60 207.5379
1117.70 207.6722
1117.80 207.8064
1117.90 207.9407
1118.00 208.075
1118.10 208.2092
1118.20 208.3435
1118.30 208.4777
1118.40 208.612
1118.50 208.7462
1118.60 208.8805
1118.70 209.0147
1118.80 209.149
1118.90 209.2833
1119.00 209.4175
1119.10 209.5518
1119.20 209.686
1119.30 209.8203
1119.40 209.9545
1119.50 210.0888
1119.60 210.2231
1119.70 210.3573
1119.80 210.4179
1119.90 210.4295
1120.00 210.441
1120.10 210.4526
1120.20 210.4641
1120.30 210.4757
1120.40 210.4872
1120.50 210.4988
1120.60 210.5103
1120.70 210.5218
1120.80 210.5334
1120.90 210.5449
1121.00 210.5565
1121.10 210.568
1121.20 210.5796
1121.30 210.5911
1121.40 210.6027
1121.50 210.6142
1121.60 210.6257
1121.70 210.6373
1121.80 210.6488
1121.90 210.6604
1122.00 210.6719
1122.10 210.6835
1122.20 210.695
1122.30 210.7065
1122.40 210.7181
1122.50 210.7296
1122.60 210.7412
1122.70 210.7527
1122.80 210.7643
1122.90 210.7758
1123.00 210.7874
1123.10 210.7989
1123.20 210.8104
1123.30 210.822
1123.40 210.8335
1123.50 210.8451
1123.60 210.8566
1123.70 210.8682
1123.80 210.8797
1123.90 210.8913
1124.00 210.8452
1124.10 210.7926
1124.20 210.7401
1124.30 210.6876
1124.40 210.6351
1124.50 210.5826
1124.60 210.5301
1124.70 210.4776
1124.80 210.4251
1124.90 210.3726
1125.00 210.3201
1125.10 210.2676
1125.20 210.2151
1125.30 210.1625
1125.40 210.11
1125.50 210.0575
1125.60 210.005
1125.70 209.9525
1125.80 209.9
1125.90 209.8475
1126.00 209.795
1126.10 209.7425
1126.20 209.69
1126.30 209.6375
1126.40 209.585
1126.50 209.5325
1126.60 209.4799
1126.70 209.4274
1126.80 209.3749
1126.90 209.3224
1127.00 209.2699
1127.10 209.2174
1127.20 209.1649
1127.30 209.1124
1127.40 209.0599
1127.50 209.0074
1127.60 208.9549
1127.70 208.9024
1127.80 208.8499
1127.90 208.7973
1128.00 208.7448
1128.10 208.6935
1128.20 208.6532
1128.30 208.6128
1128.40 208.5724
1128.50 208.5321
1128.60 208.4917
1128.70 208.4513
1128.80 208.4109
1128.90 208.3706
1129.00 208.3302
1129.10 208.2898
1129.20 208.2495
1129.30 208.2091
1129.40 208.1687
1129.50 208.1283
1129.60 208.088
1129.70 208.0476
1129.80 208.0072
1129.90 207.9669
1130.00 207.9265
1130.10 207.8861
1130.20 207.8457
1130.30 207.8054
1130.40 207.765
1130.50 207.7246
1130.60 207.6842
1130.70 207.6439
1130.80 207.6035
1130.90 207.5631
1131.00 207.5228
1131.10 207.4824
1131.20 207.442
1131.30 207.4016
1131.40 207.3613
1131.50 207.3209
1131.60 207.2805
1131.70 207.2402
1131.80 207.1998
1131.90 207.1594
1132.00 207.119
1132.10 207.0787
1132.20 207.0383
1132.30 207.0418
1132.40 207.2209
1132.50 207.4001
1132.60 207.5792
1132.70 207.7583
1132.80 207.9374
1132.90 208.1166
1133.00 208.2957
1133.10 208.4748
1133.20 208.6539
1133.30 208.8331
1133.40 209.0122
1133.50 209.1913
1133.60 209.3704
1133.70 209.5496
1133.80 209.7287
1133.90 209.9078
1134.00 210.0869
1134.10 210.266
1134.20 210.4452
1134.30 210.6243
1134.40 210.8034
1134.50 210.9825
1134.60 211.1617
1134.70 211.3408
1134.80 211.5199
1134.90 211.699
1135.00 211.8782
1135.10 212.0573
1135.20 212.2364
1135.30 212.4155
1135.40 212.5947
1135.50 212.7738
1135.60 212.9529
1135.70 213.132
1135.80 213.3111
1135.90 213.4903
1136.00 213.6694
1136.10 213.8485
1136.20 214.0276
1136.30 214.2068
1136.40 214.3859
1136.50 214.4672
1136.60 214.3205
1136.70 214.1737
1136.80 214.027
1136.90 213.8802
1137.00 213.7334
1137.10 213.5867
1137.20 213.4399
1137.30 213.2931
1137.40 213.1464
1137.50 212.9996
1137.60 212.8528
1137.70 212.7061
1137.80 212.5593
1137.90 212.4125
1138.00 212.2658
1138.10 212.119
1138.20 211.9723
1138.30 211.8255
1138.40 211.6787
1138.50 211.532
1138.60 211.3852
1138.70 211.2384
1138.80 211.0917
1138.90 210.9449
1139.00 210.7981
1139.10 210.6514
1139.20 210.5046
1139.30 210.3578
1139.40 210.2111
1139.50 210.0643
1139.60 209.9175
1139.70 209.7708
1139.80 209.624
1139.90 209.4773
1140.00 209.3305
1140.10 209.1837
1140.20 209.037
1140.30 208.8902
1140.40 208.7434
1140.50 208.5967
1140.60 208.4499
1140.70 208.3284
1140.80 208.2659
1140.90 208.2034
1141.00 208.1409
1141.10 208.0783
1141.20 208.0158
1141.30 207.9533
1141.40 207.8908
1141.50 207.8283
1141.60 207.7658
1141.70 207.7032
1141.80 207.6407
1141.90 207.5782
1142.00 207.5157
1142.10 207.4532
1142.20 207.3907
1142.30 207.3281
1142.40 207.2656
1142.50 207.2031
1142.60 207.1406
1142.70 207.0781
1142.80 207.0156
1142.90 206.953
1143.00 206.8905
1143.10 206.828
1143.20 206.7655
1143.30 206.703
1143.40 206.6404
1143.50 206.5779
1143.60 206.5154
1143.70 206.4529
1143.80 206.3904
1143.90 206.3279
1144.00 206.2653
1144.10 206.2028
1144.20 206.1403
1144.30 206.0778
1144.40 206.0153
1144.50 205.9528
1144.60 205.8902
1144.70 205.8277
1144.80 205.7652
1144.90 205.7444
1145.00 205.8902
1145.10 206.036
1145.20 206.1819
1145.30 206.3277
1145.40 206.4736
1145.50 206.6194
1145.60 206.7653
1145.70 206.9111
1145.80 207.0569
1145.90 207.2028
1146.00 207.3486
1146.10 207.4945
1146.20 207.6403
1146.30 207.7861
1146.40 207.932
1146.50 208.0778
1146.60 208.2237
1146.70 208.3695
1146.80 208.5154
1146.90 208.6612
1147.00 208.807
1147.10 208.9529
1147.20 209.0987
1147.30 209.2446
1147.40 209.3904
1147.50 209.5362
1147.60 209.6821
1147.70 209.8279
1147.80 209.9738
1147.90 210.1196
1148.00 210.2654
1148.10 210.4113
1148.20 210.5571
1148.30 210.703
1148.40 210.8488
1148.50 210.9947
1148.60 211.1405
1148.70 211.2863
1148.80 211.4322
1148.90 211.578
1149.00 211.7239
1149.10 211.8697
1149.20 212.0083
1149.30 212.147
1149.40 212.2856
1149.50 212.4243
1149.60 212.5629
1149.70 212.7016
1149.80 212.8402
1149.90 212.9788
1150.00 213.1175
1150.10 213.2561
1150.20 213.3948
1150.30 213.5334
1150.40 213.6721
1150.50 213.8107
1150.60 213.9493
1150.70 214.088
1150.80 214.2266
1150.90 214.3653
1151.00 214.5039
1151.10 214.6426
1151.20 214.7812
1151.30 214.9198
1151.40 215.0585
1151.50 215.1971
1151.60 215.3358
1151.70 215.4744
1151.80 215.6131
1151.90 215.7517
1152.00 215.8903
1152.10 216.029
1152.20 216.1676
1152.30 216.3063
1152.40 216.4449
1152.50 216.5836
1152.60 216.7222
1152.70 216.8609
1152.80 216.9995
1152.90 217.1381
1153.00 217.2768
1153.10 217.4154
1153.20 217.5541
1153.30 217.6927
1153.40 217.7265
1153.50 217.734
1153.60 217.7415
1153.70 217.7491
1153.80 217.7566
1153.90 217.7641
1154.00 217.7717
1154.10 217.7792
1154.20 217.7867
1154.30 217.7943
1154.40 217.8018
1154.50 217.8093
1154.60 217.8169
1154.70 217.8244
1154.80 217.8319
1154.90 217.8395
1155.00 217.847
1155.10 217.8545
1155.20 217.8621
1155.30 217.8696
1155.40 217.8771
1155.50 217.8847
1155.60 217.8922
1155.70 217.8997
1155.80 217.9073
1155.90 217.9148
1156.00 217.9223
1156.10 217.9299
1156.20 217.9374
1156.30 217.9449
1156.40 217.9525
1156.50 217.96
1156.60 217.9675
1156.70 217.9751
1156.80 217.9826
1156.90 217.9901
1157.00 217.9977
1157.10 218.0052
1157.20 218.0127
1157.30 218.0203
1157.40 218.0278
1157.50 218.0353
1157.60 218.0798
1157.70 218.1489
1157.80 218.218
1157.90 218.2871
1158.00 218.3562
1158.10 218.4253
1158.20 218.4945
1158.30 218.5636
1158.40 218.6327
1158.50 218.7018
1158.60 218.7709
1158.70 218.84
1158.80 218.9091
1158.90 218.9782
1159.00 219.0473
1159.10 219.1164
1159.20 219.1855
1159.30 219.2546
1159.40 219.3237
1159.50 219.3928
1159.60 219.462
1159.70 219.5311
1159.80 219.6002
1159.90 219.6693
1160.00 219.7384
1160.10 219.8075
1160.20 219.8766
1160.30 219.9457
1160.40 220.0148
1160.50 220.0839
1160.60 220.153
1160.70 220.2221
1160.80 220.2912
1160.90 220.3604
1161.00 220.4295
1161.10 220.4986
1161.20 220.5677
1161.30 220.6368
1161.40 220.7059
1161.50 220.775
1161.60 220.8441
1161.70 220.9132
1161.80 220.9739
1161.90 221.0006
1162.00 221.0274
1162.10 221.0541
1162.20 221.0809
1162.30 221.1076
1162.40 221.1344
1162.50 221.1612
1162.60 221.1879
1162.70 221.2147
1162.80 221.2414
1162.90 221.2682
1163.00 221.2949
1163.10 221.3217
1163.20 221.3485
1163.30 221.3752
1163.40 221.402
1163.50 221.4287
1163.60 221.4555
1163.70 221.4823
1163.80 221.509
1163.90 221.5358
1164.00 221.5625
1164.10 221.5893
1164.20 221.616
1164.30 221.6428
1164.40 221.6696
1164.50 221.6963
1164.60 221.7231
1164.70 221.7498
1164.80 221.7766
1164.90 221.8033
1165.00 221.8301
1165.10 221.8569
1165.20 221.8836
1165.30 221.9104
1165.40 221.9371
1165.50 221.9639
1165.60 221.9906
1165.70 222.0174
1165.80 222.0442
1165.90 222.0709
1166.00 222.0977
1166.10 221.962
1166.20 221.8082
1166.30 221.6545
1166.40 221.5007
1166.50 221.347
1166.60 221.1932
1166.70 221.0395
1166.80 220.8857
1166.90 220.732
1167.00 220.5782
1167.10 220.4244
1167.20 220.2707
1167.30 220.1169
1167.40 219.9632
1167.50 219.8094
1167.60 219.6557
1167.70 219.5019
1167.80 219.3482
1167.90 219.1944
1168.00 219.0407
1168.10 218.8869
1168.20 218.7332
1168.30 218.5794
1168.40 218.4257
1168.50 218.2719
1168.60 218.1182
1168.70 217.9644
1168.80 217.8106
1168.90 217.6569
1169.00 217.5031
1169.10 217.3494
1169.20 217.1956
1169.30 217.0419
1169.40 216.8881
1169.50 216.7344
1169.60 216.5806
1169.70 216.4269
1169.80 216.2731
1169.90 216.1194
1170.00 215.9656
1170.10 215.8119
1170.20 215.6581
1170.30 215.5224
1170.40 215.4136
1170.50 215.3049
1170.60 215.1961
1170.70 215.0874
1170.80 214.9786
1170.90 214.8699
1171.00 214.7611
1171.10 214.6524
1171.20 214.5436
1171.30 214.4349
1171.40 214.3261
1171.50 214.2174
1171.60 214.1086
1171.70 213.9999
1171.80 213.8911
1171.90 213.7824
1172.00 213.6737
1172.10 213.5649
1172.20 213.4562
1172.30 213.3474
1172.40 213.2387
1172.50 213.1299
1172.60 213.0212
1172.70 212.9124
1172.80 212.8037
1172.90 212.6949
1173.00 212.5862
1173.10 212.4774
1173.20 212.3687
1173.30 212.2599
1173.40 212.1512
1173.50 212.0424
1173.60 211.9337
1173.70 211.825
1173.80 211.7162
1173.90 211.6075
1174.00 211.4987
1174.10 211.39
1174.20 211.2812
1174.30 211.1725
1174.40 211.0637
1174.50 210.955
1174.60 210.9199
1174.70 210.8929
1174.80 210.866
1174.90 210.8391
1175.00 210.8121
1175.10 210.7852
1175.20 210.7583
1175.30 210.7313
1175.40 210.7044
1175.50 210.6775
1175.60 210.6505
1175.70 210.6236
1175.80 210.5967
1175.90 210.5697
1176.00 210.5428
1176.10 210.5159
1176.20 210.4889
1176.30 210.462
1176.40 210.4351
1176.50 210.4081
1176.60 210.3812
1176.70 210.3543
1176.80 210.3273
1176.90 210.3004
1177.00 210.2735
1177.10 210.2465
1177.20 210.2196
1177.30 210.1927
1177.40 210.1657
1177.50 210.1388
1177.60 210.1119
1177.70 210.0849
1177.80 210.058
1177.90 210.0311
1178.00 210.0041
1178.10 209.9772
1178.20 209.9503
1178.30 209.9234
1178.40 209.8964
1178.50 209.8695
1178.60 209.8426
1178.70 209.8156
1178.80 209.8309
1178.90 209.9096
1179.00 209.9883
1179.10 210.0671
1179.20 210.1458
1179.30 210.2245
1179.40 210.3032
1179.50 210.3819
1179.60 210.4606
1179.70 210.5393
1179.80 210.618
1179.90 210.6967
1180.00 210.7754
1180.10 210.8541
1180.20 210.9328
1180.30 211.0115
1180.40 211.0902
1180.50 211.1689
1180.60 211.2476
1180.70 211.3263
1180.80 211.405
1180.90 211.4837
1181.00 211.5624
1181.10 211.6411
1181.20 211.7198
1181.30 211.7985
1181.40 211.8772
1181.50 211.9559
1181.60 212.0347
1181.70 212.1134
1181.80 212.1921
1181.90 212.2708
1182.00 212.3495
1182.10 212.4282
1182.20 212.5069
1182.30 212.5856
1182.40 212.6643
1182.50 212.743
1182.60 212.8217
1182.70 212.9004
1182.80 212.9791
1182.90 213.0578
1183.00 213.1365
1183.10 213.1141
1183.20 213.0663
1183.30 213.0186
1183.40 212.9708
1183.50 212.9231
1183.60 212.8753
1183.70 212.8276
1183.80 212.7799
1183.90 212.7321
1184.00 212.6844
1184.10 212.6366
1184.20 212.5889
1184.30 212.5411
1184.40 212.4934
1184.50 212.4456
1184.60 212.3979
1184.70 212.3502
1184.80 212.3024
1184.90 212.2547
1185.00 212.2069
1185.10 212.1592
1185.20 212.1114
1185.30 212.0637
1185.40 212.016
1185.50 211.9682
1185.60 211.9205
1185.70 211.8727
1185.80 211.825
1185.90 211.7772
1186.00 211.7295
1186.10 211.6818
1186.20 211.634
1186.30 211.5863
1186.40 211.5385
1186.50 211.4908
1186.60 211.443
1186.70 211.3953
1186.80 211.3475
1186.90 211.2998
1187.00 211.2521
1187.10 211.2043
1187.20 211.1566
1187.30 211.1493
1187.40 211.3041
1187.50 211.4588
1187.60 211.6136
1187.70 211.7683
1187.80 211.9231
1187.90 212.0778
1188.00 212.2326
1188.10 212.3873
1188.20 212.5421
1188.30 212.6968
1188.40 212.8516
1188.50 213.0063
1188.60 213.1611
1188.70 213.3158
1188.80 213.4706
1188.90 213.6253
1189.00 213.7801
1189.10 213.9348
1189.20 214.0896
1189.30 214.2443
1189.40 214.3991
1189.50 214.5538
1189.60 214.7086
1189.70 214.8633
1189.80 215.0181
1189.90 215.1728
1190.00 215.3276
1190.10 215.4823
1190.20 215.6371
1190.30 215.7918
1190.40 215.9466
1190.50 216.1013
1190.60 216.256
1190.70 216.4108
1190.80 216.5655
1190.90 216.7203
1191.00 216.875
1191.10 217.0298
1191.20 217.1845
1191.30 217.3393
1191.40 217.494
1191.50 217.6488
1191.60 217.7296
1191.70 217.7365
1191.80 217.7433
1191.90 217.7502
1192.00 217.757
1192.10 217.7639
1192.20 217.7708
1192.30 217.7776
1192.40 217.7845
1192.50 217.7914
1192.60 217.7982
1192.70 217.8051
1192.80 217.8119
1192.90 217.8188
1193.00 217.8257
1193.10 217.8325
1193.20 217.8394
1193.30 217.8462
1193.40 217.8531
1193.50 217.86
1193.60 217.8668
1193.70 217.8737
1193.80 217.8806
1193.90 217.8874
1194.00 217.8943
1194.10 217.9011
1194.20 217.908
1194.30 217.9149
1194.40 217.9217
1194.50 217.9286
1194.60 217.9354
1194.70 217.9423
1194.80 217.9492
1194.90 217.956
1195.00 217.9629
1195.10 217.9698
1195.20 217.9766
1195.30 217.9835
1195.40 217.9903
1195.50 217.9972
1195.60 218.0041
1195.70 218.0109
1195.80 218.0178
1195.90 218.0184
1196.00 218.0175
1196.10 218.0166
1196.20 218.0157
1196.30 218.0148
1196.40 218.0139
1196.50 218.013
1196.60 218.0121
1196.70 218.0112
1196.80 218.0102
1196.90 218.0093
1197.00 218.0084
1197.10 218.0075
1197.20 218.0066
1197.30 218.0057
1197.40 218.0048
1197.50 218.0039
1197.60 218.003
1197.70 218.0021
1197.80 218.0012
1197.90 218.0002
1198.00 217.9993
1198.10 217.9984
1198.20 217.9975
1198.30 217.9966
1198.40 217.9957
1198.50 217.9948
1198.60 217.9939
1198.70 217.993
1198.80 217.9921
1198.90 217.9912
1199.00 217.9902
1199.10 217.9893
1199.20 217.9884
1199.30 217.9875
1199.40 217.9866
1199.50 217.9857
1199.60 217.9848
1199.70 217.9839
1199.80 217.983
1199.90 217.9821
1200.00 217.9812
1200.10 217.9802
1200.20 217.8763
1200.30 217.7724
1200.40 217.6685
1200.50 217.5646
1200.60 217.4607
1200.70 217.3568
1200.80 217.2529
1200.90 217.149
1201.00 217.0451
1201.10 216.9412
1201.20 216.8373
1201.30 216.7334
1201.40 216.6295
1201.50 216.5256
1201.60 216.4217
1201.70 216.3178
1201.80 216.2139
1201.90 216.11
1202.00 216.0061
1202.10 215.9022
1202.20 215.7983
1202.30 215.6944
1202.40 215.5905
1202.50 215.4866
1202.60 215.3827
1202.70 215.2788
1202.80 215.1749
1202.90 215.071
1203.00 214.9671
1203.10 214.8632
1203.20 214.7593
1203.30 214.6554
1203.40 214.5515
1203.50 214.4476
1203.60 214.3437
1203.70 214.2398
1203.80 214.1359
1203.90 214.032
1204.00 213.9281
1204.10 213.8242
1204.20 213.7203
1204.30 213.6164
1204.40 213.5477
1204.50 213.6195
1204.60 213.6912
1204.70 213.763
1204.80 213.8348
1204.90 213.9066
1205.00 213.9784
1205.10 214.0502
1205.20 214.122
1205.30 214.1937
1205.40 214.2655
1205.50 214.3373
1205.60 214.4091
1205.70 214.4809
1205.80 214.5527
1205.90 214.6245
1206.00 214.6963
1206.10 214.768
1206.20 214.8398
1206.30 214.9116
1206.40 214.9834
1206.50 215.0552
1206.60 215.127
1206.70 215.1988
1206.80 215.2705
1206.90 215.3423
1207.00 215.4141
1207.10 215.4859
1207.20 215.5577
1207.30 215.6295
1207.40 215.7013
1207.50 215.773
1207.60 215.8448
1207.70 215.9166
1207.80 215.9884
1207.90 216.0602
1208.00 216.132
1208.10 216.2038
1208.20 216.2756
1208.30 216.3473
1208.40 216.4191
1208.50 216.4909
1208.60 216.5627
1208.70 216.6788
1208.80 216.8615
1208.90 217.0442
1209.00 217.2269
1209.10 217.4095
1209.20 217.5922
1209.30 217.7749
1209.40 217.9576
1209.50 218.1402
1209.60 218.3229
1209.70 218.5056
1209.80 218.6883
1209.90 218.8709
1210.00 219.0536
1210.10 219.2363
1210.20 219.419
1210.30 219.6016
1210.40 219.7843
1210.50 219.967
1210.60 220.1497
1210.70 220.3323
1210.80 220.515
1210.90 220.6977
1211.00 220.8804
1211.10 221.063
1211.20 221.2457
1211.30 221.4284
1211.40 221.6111
1211.50 221.7937
1211.60 221.9764
1211.70 222.1591
1211.80 222.3418
1211.90 222.5244
1212.00 222.7071
1212.10 222.8898
1212.20 223.0725
1212.30 223.2552
1212.40 223.4378
1212.50 223.6205
1212.60 223.8032
1212.70 223.9859
1212.80 224.1685
1212.90 224.3512
1213.00 224.4555
1213.10 224.4814
1213.20 224.5073
1213.30 224.5332
1213.40 224.559
1213.50 224.5849
1213.60 224.6108
1213.70 224.6367
1213.80 224.6626
1213.90 224.6885
1214.00 224.7144
1214.10 224.7403
1214.20 224.7662
1214.30 224.7921
1214.40 224.8179
1214.50 224.8438
1214.60 224.8697
1214.70 224.8956
1214.80 224.9215
1214.90 224.9474
1215.00 224.9733
1215.10 224.9992
1215.20 225.0251
1215.30 225.0509
1215.40 225.0768
1215.50 225.1027
1215.60 225.1286
1215.70 225.1545
1215.80 225.1804
1215.90 225.2063
1216.00 225.2322
1216.10 225.2581
1216.20 225.284
1216.30 225.3098
1216.40 225.3357
1216.50 225.3616
1216.60 225.3875
1216.70 225.4134
1216.80 225.4393
1216.90 225.4652
1217.00 225.4911
1217.10 225.517
1217.20 225.5429
1217.30 225.5749
1217.40 225.6111
1217.50 225.6473
1217.60 225.6834
1217.70 225.7196
1217.80 225.7558
1217.90 225.792
1218.00 225.8281
1218.10 225.8643
1218.20 225.9005
1218.30 225.9367
1218.40 225.9729
1218.50 226.009
1218.60 226.0452
1218.70 226.0814
1218.80 226.1176
1218.90 226.1537
1219.00 226.1899
1219.10 226.2261
1219.20 226.2623
1219.30 226.2984
1219.40 226.3346
1219.50 226.3708
1219.60 226.407
1219.70 226.4431
1219.80 226.4793
1219.90 226.5155
1220.00 226.5517
1220.10 226.5878
1220.20 226.624
1220.30 226.6602
1220.40 226.6964
1220.50 226.7325
1220.60 226.7687
1220.70 226.8049
1220.80 226.8411
1220.90 226.8773
1221.00 226.9134
1221.10 226.9496
1221.20 226.9858
1221.30 227.022
1221.40 227.0581
1221.50 227.0943
1221.60 227.1743
1221.70 227.2731
1221.80 227.3719
1221.90 227.4707
1222.00 227.5695
1222.10 227.6683
1222.20 227.7671
1222.30 227.8659
1222.40 227.9647
1222.50 228.0635
1222.60 228.1623
1222.70 228.2611
1222.80 228.3599
1222.90 228.4587
1223.00 228.5575
1223.10 228.6563
1223.20 228.7551
1223.30 228.8539
1223.40 228.9527
1223.50 229.0515
1223.60 229.1503
1223.70 229.2491
1223.80 229.3479
1223.90 229.4467
1224.00 229.5455
1224.10 229.6443
1224.20 229.7431
1224.30 229.8419
1224.40 229.9407
1224.50 230.0395
1224.60 230.1383
1224.70 230.2371
1224.80 230.3359
1224.90 230.4347
1225.00 230.5335
1225.10 230.6323
1225.20 230.7311
1225.30 230.8299
1225.40 230.9287
1225.50 231.0275
1225.60 231.1263
1225.70 231.2251
1225.80 231.3239
1225.90 231.3368
1226.00 231.3127
1226.10 231.2887
1226.20 231.2647
1226.30 231.2407
1226.40 231.2167
1226.50 231.1927
1226.60 231.1686
1226.70 231.1446
1226.80 231.1206
1226.90 231.0966
1227.00 231.0726
1227.10 231.0486
1227.20 231.0245
1227.30 231.0005
1227.40 230.9765
1227.50 230.9525
1227.60 230.9285
1227.70 230.9045
1227.80 230.8804
1227.90 230.8564
1228.00 230.8324
1228.10 230.8084
1228.20 230.7844
1228.30 230.7604
1228.40 230.7363
1228.50 230.7123
1228.60 230.6883
1228.70 230.6643
1228.80 230.6403
1228.90 230.6163
1229.00 230.5922
1229.10 230.5682
1229.20 230.5442
1229.30 230.5202
1229.40 230.4962
1229.50 230.4722
1229.60 230.4481
1229.70 230.4241
1229.80 230.4001
1229.90 230.3761
1230.00 230.3521
1230.10 230.3281
1230.20 230.4037
1230.30 230.5043
1230.40 230.6048
1230.50 230.7054
1230.60 230.806
1230.70 230.9065
1230.80 231.0071
1230.90 231.1077
1231.00 231.2082
1231.10 231.3088
1231.20 231.4094
1231.30 231.51
1231.40 231.6105
1231.50 231.7111
1231.60 231.8117
1231.70 231.9122
1231.80 232.0128
1231.90 232.1134
1232.00 232.2139
1232.10 232.3145
1232.20 232.4151
1232.30 232.5156
1232.40 232.6162
1232.50 232.7168
1232.60 232.8173
1232.70 232.9179
1232.80 233.0185
1232.90 233.119
1233.00 233.2196
1233.10 233.3202
1233.20 233.4207
1233.30 233.5213
1233.40 233.6219
1233.50 233.7225
1233.60 233.823
1233.70 233.9236
1233.80 234.0242
1233.90 234.1247
1234.00 234.2253
1234.10 234.3259
1234.20 234.4264
1234.30 234.527
1234.40 234.6276
1234.50 234.6711
1234.60 234.6902
1234.70 234.7094
1234.80 234.7285
1234.90 234.7476
1235.00 234.7667
1235.10 234.7858
1235.20 234.805
1235.30 234.8241
1235.40 234.8432
1235.50 234.8623
1235.60 234.8815
1235.70 234.9006
1235.80 234.9197
1235.90 234.9388
1236.00 234.9579
1236.10 234.9771
1236.20 234.9962
1236.30 235.0153
1236.40 235.0344
1236.50 235.0535
1236.60 235.0727
1236.70 235.0918
1236.80 235.1109
1236.90 235.13
1237.00 235.1491
1237.10 235.1683
1237.20 235.1874
1237.30 235.2065
1237.40 235.2256
1237.50 235.2448
1237.60 235.2639
1237.70 235.283
1237.80 235.3021
1237.90 235.3212
1238.00 235.3404
1238.10 235.3595
1238.20 235.3786
1238.30 235.3977
1238.40 235.4168
1238.50 235.436
1238.60 235.4551
1238.70 235.4742
1238.80 235.4074
1238.90 235.3039
1239.00 235.2003
1239.10 235.0968
1239.20 234.9932
1239.30 234.8896
1239.40 234.7861
1239.50 234.6825
1239.60 234.5789
1239.70 234.4754
1239.80 234.3718
1239.90 234.2682
1240.00 234.1647
1240.10 234.0611
1240.20 233.9575
1240.30 233.854
1240.40 233.7504
1240.50 233.6468
1240.60 233.5433
1240.70 233.4397
1240.80 233.3361
1240.90 233.2326
1241.00 233.129
1241.10 233.0254
1241.20 232.9219
1241.30 232.8183
1241.40 232.7147
1241.50 232.6112
1241.60 232.5076
1241.70 232.404
1241.80 232.3005
1241.90 232.1969
1242.00 232.0933
1242.10 231.9898
1242.20 231.8862
1242.30 231.7826
1242.40 231.6791
1242.50 231.5755
1242.60 231.4719
1242.70 231.3684
1242.80 231.2648
1242.90 231.1612
1243.00 231.0577
1243.10 231.023
1243.20 231.0179
1243.30 231.0128
1243.40 231.0077
1243.50 231.0025
1243.60 230.9974
1243.70 230.9923
1243.80 230.9872
1243.90 230.982
1244.00 230.9769
1244.10 230.9718
1244.20 230.9667
1244.30 230.9616
1244.40 230.9564
1244.50 230.9513
1244.60 230.9462
1244.70 230.9411
1244.80 230.9359
1244.90 230.9308
1245.00 230.9257
1245.10 230.9206
1245.20 230.9155
1245.30 230.9103
1245.40 230.9052
1245.50 230.9001
1245.60 230.895
1245.70 230.8898
1245.80 230.8847
1245.90 230.8796
1246.00 230.8745
1246.10 230.8694
1246.20 230.8642
1246.30 230.8591
1246.40 230.854
1246.50 230.8489
1246.60 230.8437
1246.70 230.8386
1246.80 230.8335
1246.90 230.8284
1247.00 230.8233
1247.10 230.8181
1247.20 230.813
1247.30 230.8079
1247.40 230.7655
1247.50 230.6981
1247.60 230.6308
1247.70 230.5635
1247.80 230.4962
1247.90 230.4289
1248.00 230.3616
1248.10 230.2943
1248.20 230.227
1248.30 230.1597
1248.40 230.0924
1248.50 230.0251
1248.60 229.9578
1248.70 229.8905
1248.80 229.8232
1248.90 229.7559
1249.00 229.6886
1249.10 229.6213
1249.20 229.554
1249.30 229.4867
1249.40 229.4194
1249.50 229.352
1249.60 229.2847
1249.70 229.2174
1249.80 229.1501
1249.90 229.0828
1250.00 229.0155
1250.10 228.9482
1250.20 228.8809
1250.30 228.8136
1250.40 228.7463
1250.50 228.679
1250.60 228.6117
1250.70 228.5444
1250.80 228.4771
1250.90 228.4098
1251.00 228.3425
1251.10 228.2752
1251.20 228.2079
1251.30 228.1406
1251.40 228.0732
1251.50 228.0059
1251.60 227.9386
1251.70 227.9316
1251.80 227.9847
1251.90 228.0379
1252.00 228.091
1252.10 228.1442
1252.20 228.1974
1252.30 228.2505
1252.40 228.3037
1252.50 228.3568
1252.60 228.41
1252.70 228.4632
1252.80 228.5163
1252.90 228.5695
1253.00 228.6226
1253.10 228.6758
1253.20 228.729
1253.30 228.7821
1253.40 228.8353
1253.50 228.8884
1253.60 228.9416
1253.70 228.9947
1253.80 229.0479
1253.90 229.1011
1254.00 229.1542
1254.10 229.2074
1254.20 229.2605
1254.30 229.3137
1254.40 229.3669
1254.50 229.42
1254.60 229.4732
1254.70 229.5263
1254.80 229.5795
1254.90 229.6327
1255.00 229.6858
1255.10 229.739
1255.20 229.7921
1255.30 229.8453
1255.40 229.8985
1255.50 229.9516
1255.60 230.0048
1255.70 230.0579
1255.80 230.1111
1255.90 230.1642
1256.00 230.1927
1256.10 230.1841
1256.20 230.1756
1256.30 230.167
1256.40 230.1584
1256.50 230.1499
1256.60 230.1413
1256.70 230.1327
1256.80 230.1241
1256.90 230.1156
1257.00 230.107
1257.10 230.0984
1257.20 230.0899
1257.30 230.0813
1257.40 230.0727
1257.50 230.0641
1257.60 230.0556
1257.70 230.047
1257.80 230.0384
1257.90 230.0299
1258.00 230.0213
1258.10 230.0127
1258.20 230.0042
1258.30 229.9956
1258.40 229.987
1258.50 229.9784
1258.60 229.9699
1258.70 229.9613
1258.80 229.9527
1258.90 229.9442
1259.00 229.9356
1259.10 229.927
1259.20 229.9184
1259.30 229.9099
1259.40 229.9013
1259.50 229.8927
1259.60 229.8842
1259.70 229.8756
1259.80 229.867
1259.90 229.8584
1260.00 229.8499
1260.10 229.8413
1260.20 229.8327
1260.30 229.8645
1260.40 230.0576
1260.50 230.2507
1260.60 230.4438
1260.70 230.6369
1260.80 230.83
1260.90 231.0231
1261.00 231.2162
1261.10 231.4093
1261.20 231.6024
1261.30 231.7955
1261.40 231.9886
1261.50 232.1817
1261.60 232.3748
1261.70 232.5679
1261.80 232.761
1261.90 232.9541
1262.00 233.1472
1262.10 233.3403
1262.20 233.5334
1262.30 233.7265
1262.40 233.9196
1262.50 234.1127
1262.60 234.3058
1262.70 234.4989
1262.80 234.692
1262.90 234.8851
1263.00 235.0782
1263.10 235.2713
1263.20 235.4644
1263.30 235.6575
1263.40 235.8506
1263.50 236.0437
1263.60 236.2368
1263.70 236.4299
1263.80 236.6229
1263.90 236.816
1264.00 237.0091
1264.10 237.2022
1264.20 237.3953
1264.30 237.5884
1264.40 237.7815
1264.50 237.9746
1264.60 238.1625
1264.70 238.3032
1264.80 238.4439
1264.90 238.5845
1265.00 238.7252
1265.10 238.8659
1265.20 239.0066
1265.30 239.1472
1265.40 239.2879
1265.50 239.4286
1265.60 239.5693
1265.70 239.71
1265.80 239.8506
1265.90 239.9913
1266.00 240.132
1266.10 240.2727
1266.20 240.4134
1266.30 240.554
1266.40 240.6947
1266.50 240.8354
1266.60 240.9761
1266.70 241.1167
1266.80 241.2574
1266.90 241.3981
1267.00 241.5388
1267.10 241.6795
1267.20 241.8201
1267.30 241.9608
1267.40 242.1015
1267.50 242.2422
1267.60 242.3829
1267.70 242.5235
1267.80 242.6642
1267.90 242.8049
1268.00 242.9456
1268.10 243.0862
1268.20 243.2269
1268.30 243.3676
1268.40 243.5083
1268.50 243.649
1268.60 243.7896
1268.70 243.9303
1268.80 244.071
1268.90 244.2117
1269.00 244.3363
1269.10 244.461
1269.20 244.5857
1269.30 244.7104
1269.40 244.8351
1269.50 244.9597
1269.60 245.0844
1269.70 245.2091
1269.80 245.3338
1269.90 245.4584
1270.00 245.5831
1270.10 245.7078
1270.20 245.8325
1270.30 245.9571
1270.40 246.0818
1270.50 246.2065
1270.60 246.3312
1270.70 246.4558
1270.80 246.5805
1270.90 246.7052
1271.00 246.8299
1271.10 246.9545
1271.20 247.0792
1271.30 247.2039
1271.40 247.3286
1271.50 247.4532
1271.60 247.5779
1271.70 247.7026
1271.80 247.8273
1271.90 247.9519
1272.00 248.0766
1272.10 248.2013
1272.20 248.326
1272.30 248.4507
1272.40 248.5753
1272.50 248.7
1272.60 248.8247
1272.70 248.9494
1272.80 249.074
1272.90 249.1987
1273.00 249.3234
1273.10 249.4481
1273.20 249.5727
1273.30 249.671
1273.40 249.7626
1273.50 249.8543
1273.60 249.946
1273.70 250.0376
1273.80 250.1293
1273.90 250.2209
1274.00 250.3126
1274.10 250.4042
1274.20 250.4959
1274.30 250.5875
1274.40 250.6792
1274.50 250.7708
1274.60 250.8625
1274.70 250.9541
1274.80 251.0458
1274.90 251.1374
1275.00 251.2291
1275.10 251.3208
1275.20 251.4124
1275.30 251.5041
1275.40 251.5957
1275.50 251.6874
1275.60 251.779
1275.70 251.8707
1275.80 251.9623
1275.90 252.054
1276.00 252.1456
1276.10 252.2373
1276.20 252.3289
1276.30 252.4206
1276.40 252.5122
1276.50 252.6039
1276.60 252.6956
1276.70 252.7872
1276.80 252.8789
1276.90 252.9705
1277.00 253.0622
1277.10 253.1538
1277.20 253.2455
1277.30 253.3371
1277.40 253.4288
1277.50 253.5204
1277.60 253.5796
1277.70 253.6171
1277.80 253.6546
1277.90 253.6921
1278.00 253.7296
1278.10 253.7671
1278.20 253.8046
1278.30 253.8421
1278.40 253.8796
1278.50 253.9171
1278.60 253.9546
1278.70 253.9921
1278.80 254.0296
1278.90 254.0671
1279.00 254.1046
1279.10 254.1421
1279.20 254.1796
1279.30 254.2171
1279.40 254.2546
1279.50 254.2921
1279.60 254.3296
1279.70 254.3671
1279.80 254.4046
1279.90 254.4421
1280.00 254.4795
1280.10 254.517
1280.20 254.5545
1280.30 254.592
1280.40 254.6295
1280.50 254.667
1280.60 254.7045
1280.70 254.742
1280.80 254.7795
1280.90 254.817
1281.00 254.8545
1281.10 254.892
1281.20 254.9295
1281.30 254.967
1281.40 255.0045
1281.50 255.042
1281.60 255.0795
1281.70 255.117
1281.80 255.1545
1281.90 255.1404
1282.00 255.0745
1282.10 255.0087
1282.20 254.9429
1282.30 254.8771
1282.40 254.8113
1282.50 254.7455
1282.60 254.6796
1282.70 254.6138
1282.80 254.548
1282.90 254.4822
1283.00 254.4164
1283.10 254.3506
1283.20 254.2847
1283.30 254.2189
1283.40 254.1531
1283.50 254.0873
1283.60 254.0215
1283.70 253.9557
1283.80 253.8898
1283.90 253.824
1284.00 253.7582
1284.10 253.6924
1284.20 253.6266
1284.30 253.5608
1284.40 253.4949
1284.50 253.4291
1284.60 253.3633
1284.70 253.2975
1284.80 253.2317
1284.90 253.1658
1285.00 253.1
1285.10 253.0342
1285.20 252.9684
1285.30 252.9026
1285.40 252.8368
1285.50 252.7709
1285.60 252.7051
1285.70 252.6393
1285.80 252.5735
1285.90 252.5077
1286.00 252.4419
1286.10 252.376
1286.20 252.3485
1286.30 252.41
1286.40 252.4716
1286.50 252.5332
1286.60 252.5948
1286.70 252.6564
1286.80 252.718
1286.90 252.7796
1287.00 252.8412
1287.10 252.9028
1287.20 252.9644
1287.30 253.026
1287.40 253.0876
1287.50 253.1491
1287.60 253.2107
1287.70 253.2723
1287.80 253.3339
1287.90 253.3955
1288.00 253.4571
1288.10 253.5187
1288.20 253.5803
1288.30 253.6419
1288.40 253.7035
1288.50 253.7651
1288.60 253.8266
1288.70 253.8882
1288.80 253.9498
1288.90 254.0114
1289.00 254.073
1289.10 254.1346
1289.20 254.1962
1289.30 254.2578
1289.40 254.3194
1289.50 254.381
1289.60 254.4426
1289.70 254.5042
1289.80 254.5657
1289.90 254.6273
1290.00 254.6889
1290.10 254.7505
1290.20 254.8121
1290.30 254.8737
1290.40 254.9353
1290.50 254.9847
1290.60 254.924
1290.70 254.8634
1290.80 254.8028
1290.90 254.7421
1291.00 254.6815
1291.10 254.6209
1291.20 254.5602
1291.30 254.4996
1291.40 254.4389
1291.50 254.3783
1291.60 254.3177
1291.70 254.257
1291.80 254.1964
1291.90 254.1358
1292.00 254.0751
1292.10 254.0145
1292.20 253.9539
1292.30 253.8932
1292.40 253.8326
1292.50 253.772
1292.60 253.7113
1292.70 253.6507
1292.80 253.5901
1292.90 253.5294
1293.00 253.4688
1293.10 253.4081
1293.20 253.3475
1293.30 253.2869
1293.40 253.2262
1293.50 253.1656
1293.60 253.105
1293.70 253.0443
1293.80 252.9837
1293.90 252.9231
1294.00 252.8624
1294.10 252.8018
1294.20 252.7412
1294.30 252.6805
1294.40 252.6199
1294.50 252.5592
1294.60 252.4986
1294.70 252.438
1294.80 252.3773
1294.90 252.4009
1295.00 252.4339
1295.10 252.4668
1295.20 252.4997
1295.30 252.5327
1295.40 252.5656
1295.50 252.5986
1295.60 252.6315
1295.70 252.6644
1295.80 252.6974
1295.90 252.7303
1296.00 252.7633
1296.10 252.7962
1296.20 252.8291
1296.30 252.8621
1296.40 252.895
1296.50 252.928
1296.60 252.9609
1296.70 252.9938
1296.80 253.0268
1296.90 253.0597
1297.00 253.0926
1297.10 253.1256
1297.20 253.1585
1297.30 253.1915
1297.40 253.2244
1297.50 253.2573
1297.60 253.2903
1297.70 253.3232
1297.80 253.3562
1297.90 253.3891
1298.00 253.422
1298.10 253.455
1298.20 253.4879
1298.30 253.5209
1298.40 253.5538
1298.50 253.5867
1298.60 253.6197
1298.70 253.6526
1298.80 253.6856
1298.90 253.7185
1299.00 253.7514
1299.10 253.7844
1299.20 253.7239
1299.30 253.6233
1299.40 253.5228
1299.50 253.4223
1299.60 253.3217
1299.70 253.2212
1299.80 253.1206
1299.90 253.0201
