# Version 2.1 - nm, norm@500 to 1, cut digits
# Wavelength(nm)  Flambda(ergs/cm^s/s/nm)
300.00 0.009899818
300.10 0.01315723
300.20 0.01514178
300.30 0.01596341
300.40 0.01617953
300.50 0.01624341
300.60 0.0163068
300.70 0.01637048
300.80 0.01643719
300.90 0.016512
301.00 0.01660044
301.10 0.01670498
301.20 0.01682318
301.30 0.0169496
301.40 0.01707925
301.50 0.01720956
301.60 0.01733987
301.70 0.01747019
301.80 0.0176005
301.90 0.01773082
302.00 0.01786114
302.10 0.01799146
302.20 0.01812178
302.30 0.0182521
302.40 0.01838242
302.50 0.01851274
302.60 0.01864307
302.70 0.01877389
302.80 0.01890717
302.90 0.01904669
303.00 0.01919658
303.10 0.0193587
303.20 0.01953119
303.30 0.01970991
303.40 0.01989109
303.50 0.02007277
303.60 0.02025446
303.70 0.02043614
303.80 0.02061783
303.90 0.02079952
304.00 0.02098121
304.10 0.02116289
304.20 0.02134458
304.30 0.02152627
304.40 0.02170795
304.50 0.02188962
304.60 0.02207129
304.70 0.02225143
304.80 0.02242405
304.90 0.02257761
305.00 0.02269943
305.10 0.02278387
305.20 0.02283658
305.30 0.02287021
305.40 0.02289633
305.50 0.02292093
305.60 0.02294551
305.70 0.02297009
305.80 0.02299467
305.90 0.02301924
306.00 0.02304381
306.10 0.02306839
306.20 0.02309296
306.30 0.02311753
306.40 0.0231421
306.50 0.02316668
306.60 0.02319125
306.70 0.02321583
306.80 0.02324042
306.90 0.02326505
307.00 0.02328976
307.10 0.02331454
307.20 0.02333939
307.30 0.02336429
307.40 0.0233892
307.50 0.02341411
307.60 0.02343903
307.70 0.02346394
307.80 0.02348886
307.90 0.02351377
308.00 0.02353868
308.10 0.0235636
308.20 0.02358851
308.30 0.02361343
308.40 0.02363836
308.50 0.0236633
308.60 0.02368828
308.70 0.02371706
308.80 0.02376466
308.90 0.02385997
309.00 0.02403473
309.10 0.02430302
309.20 0.02465075
309.30 0.0250462
309.40 0.02546047
309.50 0.02587854
309.60 0.02629664
309.70 0.02671476
309.80 0.02713289
309.90 0.02755102
310.00 0.02796915
310.10 0.02838729
310.20 0.02880542
310.30 0.02922355
310.40 0.02964167
310.50 0.03005977
310.60 0.03047784
310.70 0.03089209
310.80 0.03128742
310.90 0.03163478
311.00 0.03190228
311.10 0.03207576
311.20 0.03216937
311.30 0.03221502
311.40 0.03224174
311.50 0.03226465
311.60 0.03228752
311.70 0.03231038
311.80 0.03233323
311.90 0.03235607
312.00 0.03237891
312.10 0.03240175
312.20 0.0324246
312.30 0.03244745
312.40 0.0324703
312.50 0.03249319
312.60 0.0325161
312.70 0.03254374
312.80 0.03259475
312.90 0.032705
313.00 0.03291388
313.10 0.03323889
313.20 0.03366254
313.30 0.03414542
313.40 0.03465167
313.50 0.03516264
313.60 0.03567365
313.70 0.03618468
313.80 0.03669572
313.90 0.03720677
314.00 0.03771782
314.10 0.03822886
314.20 0.03873991
314.30 0.03925096
314.40 0.03976202
314.50 0.0402731
314.60 0.0407842
314.70 0.04129859
314.80 0.04182924
314.90 0.04240113
315.00 0.04304168
315.10 0.04376307
315.20 0.04455311
315.30 0.04538439
315.40 0.04623193
315.50 0.04708277
315.60 0.04793363
315.70 0.0487845
315.80 0.04963538
315.90 0.05048627
316.00 0.05133715
316.10 0.05218804
316.20 0.05303892
316.30 0.05388979
316.40 0.05474064
316.50 0.05559142
316.60 0.05644211
316.70 0.05728072
316.80 0.05805954
316.90 0.05868678
317.00 0.05906164
317.10 0.05913937
317.20 0.05896471
317.30 0.05863849
317.40 0.05825246
317.50 0.05785436
317.60 0.05745616
317.70 0.0570579
317.80 0.05665962
317.90 0.05626132
318.00 0.05586303
318.10 0.05546473
318.20 0.05506643
318.30 0.05466814
318.40 0.05426988
318.50 0.05387165
318.60 0.05347351
318.70 0.0530846
318.80 0.05274147
318.90 0.05251438
319.00 0.05248047
319.10 0.05267402
319.20 0.05306076
319.30 0.05356352
319.40 0.05411207
319.50 0.05466986
319.60 0.05522772
319.70 0.05578562
319.80 0.05634355
319.90 0.05690149
320.00 0.05745943
320.10 0.05801737
320.20 0.05857531
320.30 0.05913324
320.40 0.05969117
320.50 0.06024908
320.60 0.06080696
320.70 0.06136142
320.80 0.06189896
320.90 0.06239358
321.00 0.06281675
321.10 0.06315579
321.20 0.06342338
321.30 0.06364806
321.40 0.06385581
321.50 0.06406014
321.60 0.06426444
321.70 0.06446873
321.80 0.06467301
321.90 0.06487728
322.00 0.06508155
322.10 0.06528583
322.20 0.06549011
322.30 0.06569439
322.40 0.06589871
322.50 0.06610309
322.60 0.06630756
322.70 0.06652453
322.80 0.06680334
322.90 0.06723889
323.00 0.06793543
323.10 0.06893925
323.20 0.07020406
323.30 0.07162562
323.40 0.07310902
323.50 0.0746049
323.60 0.07610089
323.70 0.07759694
323.80 0.07909301
323.90 0.0805891
324.00 0.08208519
324.10 0.08358128
324.20 0.08507737
324.30 0.08657345
324.40 0.08806954
324.50 0.08956561
324.60 0.09106167
324.70 0.09255569
324.80 0.09403968
324.90 0.0954982
325.00 0.09691432
325.10 0.09828053
325.20 0.09960435
325.30 0.1009027
325.40 0.102191
325.50 0.1034773
325.60 0.1047635
325.70 0.1060498
325.80 0.1073361
325.90 0.1086223
326.00 0.1099085
326.10 0.1111948
326.20 0.112481
326.30 0.1137673
326.40 0.1150535
326.50 0.1163398
326.60 0.1176261
326.70 0.1189168
326.80 0.1202292
326.90 0.1215964
327.00 0.123055
327.10 0.1246212
327.20 0.1262787
327.30 0.1279912
327.40 0.1297252
327.50 0.1314637
327.60 0.1332022
327.70 0.1349407
327.80 0.1366792
327.90 0.1384177
328.00 0.1401563
328.10 0.1418948
328.20 0.1436333
328.30 0.1453718
328.40 0.1471102
328.50 0.1488486
328.60 0.1505867
328.70 0.1522991
328.80 0.1538845
328.90 0.155148
329.00 0.1558753
329.10 0.1559713
329.20 0.1555313
329.30 0.1547692
329.40 0.1538801
329.50 0.1529654
329.60 0.1520504
329.70 0.1511353
329.80 0.1502202
329.90 0.149305
330.00 0.1483899
330.10 0.1474747
330.20 0.1465595
330.30 0.1456444
330.40 0.1447293
330.50 0.1438143
330.60 0.1428994
330.70 0.1420036
330.80 0.141202
330.90 0.1406393
331.00 0.1404743
331.10 0.1407775
331.20 0.1414784
331.30 0.1424182
331.40 0.1434522
331.50 0.1445053
331.60 0.1455585
331.70 0.1466118
331.80 0.1476651
331.90 0.1487185
332.00 0.1497718
332.10 0.1508252
332.20 0.1518786
332.30 0.1529319
332.40 0.1539852
332.50 0.1550385
332.60 0.1560917
332.70 0.1571328
332.80 0.1581142
332.90 0.1589444
333.00 0.1595229
333.10 0.1598048
333.20 0.159835
333.30 0.1597139
333.40 0.1595331
333.50 0.1593403
333.60 0.1591474
333.70 0.1589544
333.80 0.1587615
333.90 0.1585685
334.00 0.1583755
334.10 0.1581825
334.20 0.1579896
334.30 0.1577969
334.40 0.1576043
334.50 0.1574117
334.60 0.1573797
334.70 0.1578709
334.80 0.1590254
334.90 0.1601989
335.00 0.1601649
335.10 0.158589
335.20 0.1574029
335.30 0.1602173
335.40 0.1695407
335.50 0.1839465
335.60 0.1979205
335.70 0.2050678
335.80 0.2022372
335.90 0.1910814
336.00 0.1762946
336.10 0.1627097
336.20 0.1536983
336.30 0.150674
336.40 0.1524936
336.50 0.1555985
336.60 0.1561474
336.70 0.1532032
336.80 0.1499264
336.90 0.151095
337.00 0.1590114
337.10 0.1712563
337.20 0.1820732
337.30 0.1863234
337.40 0.183094
337.50 0.1762668
337.60 0.17155
337.70 0.1722442
337.80 0.1773039
337.90 0.1832539
338.00 0.1874368
338.10 0.1891212
338.20 0.1879219
338.30 0.1825765
338.40 0.172656
338.50 0.1610918
338.60 0.1537208
338.70 0.155092
338.80 0.1642217
338.90 0.1749076
339.00 0.1807125
339.10 0.1802358
339.20 0.1779757
339.30 0.1799053
339.40 0.1879716
339.50 0.1988335
339.60 0.2074744
339.70 0.2114162
339.80 0.2113535
339.90 0.2086684
340.00 0.2039118
340.10 0.1976527
340.20 0.1912061
340.30 0.1855712
340.40 0.1800765
340.50 0.1730843
340.60 0.164201
340.70 0.1551893
340.80 0.1485725
340.90 0.1457862
341.00 0.1467344
341.10 0.1505408
341.20 0.1561954
341.30 0.1625111
341.40 0.1680899
341.50 0.1718625
341.60 0.1737229
341.70 0.174575
341.80 0.1756448
341.90 0.1775748
342.00 0.1798539
342.10 0.1809175
342.20 0.1790998
342.30 0.1740345
342.40 0.1674094
342.50 0.1621116
342.60 0.1602883
342.70 0.1620076
342.80 0.1655388
342.90 0.1687184
343.00 0.1702813
343.10 0.1704287
343.20 0.1703576
343.30 0.1710963
343.40 0.1726083
343.50 0.1740046
343.60 0.1744841
343.70 0.1738269
343.80 0.1722038
343.90 0.1700162
344.00 0.1679981
344.10 0.1669984
344.20 0.1672388
344.30 0.1679398
344.40 0.1680053
344.50 0.1670717
344.60 0.1658032
344.70 0.1653099
344.80 0.1664402
344.90 0.1694936
345.00 0.1743112
345.10 0.1803953
345.20 0.1869356
345.30 0.1928103
345.40 0.1967662
345.50 0.1980221
345.60 0.1969208
345.70 0.1948721
345.80 0.1933888
345.90 0.193029
346.00 0.1931463
346.10 0.1924559
346.20 0.1899311
346.30 0.1856119
346.40 0.1808643
346.50 0.1775857
346.60 0.1766965
346.70 0.1773406
346.80 0.1776809
346.90 0.1763952
347.00 0.1733579
347.10 0.1693867
347.20 0.1658378
347.30 0.1642239
347.40 0.1655066
347.50 0.1693391
347.60 0.1742274
347.70 0.1786787
347.80 0.1821999
347.90 0.1852821
348.00 0.1886254
348.10 0.1923548
348.20 0.1957681
348.30 0.1978001
348.40 0.1978854
348.50 0.1964539
348.60 0.1944876
348.70 0.192625
348.80 0.1908614
348.90 0.1889914
349.00 0.1870258
349.10 0.1851391
349.20 0.1834878
349.30 0.1822964
349.40 0.1819677
349.50 0.1827585
349.60 0.1842772
349.70 0.1855428
349.80 0.1858532
349.90 0.1857723
350.00 0.1870626
350.10 0.1912967
350.20 0.1983493
350.30 0.2062396
350.40 0.212482
350.50 0.2156576
350.60 0.2158806
350.70 0.214135
350.80 0.2114371
350.90 0.2083557
351.00 0.2047906
351.10 0.2000197
351.20 0.193264
351.30 0.1846903
351.40 0.1759593
351.50 0.1694276
351.60 0.1664783
351.70 0.1665459
351.80 0.1677737
351.90 0.1685609
352.00 0.1684572
352.10 0.1677871
352.20 0.1669282
352.30 0.1662079
352.40 0.1663292
352.50 0.1685796
352.60 0.1741243
352.70 0.1828011
352.80 0.1926593
352.90 0.2010486
353.00 0.2065702
353.10 0.2099702
353.20 0.2129949
353.30 0.2166126
353.40 0.2205873
353.50 0.2244447
353.60 0.2282814
353.70 0.2324631
353.80 0.2369835
353.90 0.2414409
354.00 0.24531
354.10 0.2479085
354.20 0.2484136
354.30 0.2464968
354.40 0.2430351
354.50 0.2398128
354.60 0.2381889
354.70 0.2380951
354.80 0.2384116
354.90 0.2381429
355.00 0.2371028
355.10 0.2356913
355.20 0.2343342
355.30 0.2332286
355.40 0.2324695
355.50 0.2320982
355.60 0.2318814
355.70 0.2311661
355.80 0.2291839
355.90 0.2256894
356.00 0.2212523
356.10 0.216794
356.20 0.212798
356.30 0.2089241
356.40 0.2043813
356.50 0.1987884
356.60 0.1927995
356.70 0.1878709
356.80 0.1852454
356.90 0.1850345
357.00 0.186228
357.10 0.1874748
357.20 0.1877893
357.30 0.1867512
357.40 0.1843827
357.50 0.1810156
357.60 0.1771948
357.70 0.1734876
357.80 0.1702528
357.90 0.1675606
358.00 0.1653909
358.10 0.163981
358.20 0.1639175
358.30 0.1657518
358.40 0.1694465
358.50 0.174176
358.60 0.1786463
358.70 0.1816489
358.80 0.1825637
358.90 0.1816593
359.00 0.1801112
359.10 0.1795616
359.20 0.1812149
359.30 0.1849978
359.40 0.1894632
359.50 0.1926959
359.60 0.1936108
359.70 0.1926267
359.80 0.1911911
359.90 0.190557
360.00 0.1907876
360.10 0.1907585
360.20 0.1891177
360.30 0.1853719
360.40 0.1803016
360.50 0.1755711
360.60 0.1729574
360.70 0.1736432
360.80 0.1776834
360.90 0.183881
361.00 0.1903752
361.10 0.1957
361.20 0.1994789
361.30 0.2021367
361.40 0.2040416
361.50 0.2051137
361.60 0.2053335
361.70 0.2052927
361.80 0.2058724
361.90 0.2073493
362.00 0.2090647
362.10 0.2101153
362.20 0.2101833
362.30 0.2096273
362.40 0.2090483
362.50 0.2089481
362.60 0.2094939
362.70 0.2102296
362.80 0.2101575
362.90 0.208532
363.00 0.2057282
363.10 0.2031312
363.20 0.2020198
363.30 0.2026135
363.40 0.2041658
363.50 0.2057453
363.60 0.2068357
363.70 0.2073856
363.80 0.2074994
363.90 0.207134
364.00 0.206023
364.10 0.2038623
364.20 0.2006177
364.30 0.1966968
364.40 0.1928631
364.50 0.1899872
364.60 0.1887107
364.70 0.1890881
364.80 0.1905096
364.90 0.1921621
365.00 0.193772
365.10 0.1958811
365.20 0.1991785
365.30 0.2034741
365.40 0.2074488
365.50 0.2095674
365.60 0.2093448
365.70 0.2077131
365.80 0.2061237
365.90 0.2053695
366.00 0.2052881
366.10 0.2054229
366.20 0.2057424
366.30 0.2065778
366.40 0.2080148
366.50 0.2095601
366.60 0.2104
366.70 0.2099265
366.80 0.2080541
366.90 0.2051732
367.00 0.2019466
367.10 0.1991272
367.20 0.1973988
367.30 0.1972007
367.40 0.1985377
367.50 0.2009411
367.60 0.2036983
367.70 0.2062225
367.80 0.2082968
367.90 0.210035
368.00 0.2116398
368.10 0.2131589
368.20 0.2143993
368.30 0.2150212
368.40 0.2147589
368.50 0.2136704
368.60 0.2122419
368.70 0.2111859
368.80 0.2110069
368.90 0.211693
369.00 0.212857
369.10 0.2141919
369.20 0.2156813
369.30 0.2173107
369.40 0.2186983
369.50 0.2191911
369.60 0.2184296
369.70 0.2167894
369.80 0.2152504
369.90 0.2148413
370.00 0.2161059
370.10 0.2188899
370.20 0.2225153
370.30 0.2261455
370.40 0.2290735
370.50 0.2308407
370.60 0.2312881
370.70 0.2306822
370.80 0.2297316
370.90 0.22927
371.00 0.2297157
371.10 0.2307246
371.20 0.2313199
371.30 0.2303981
371.40 0.2273445
371.50 0.222442
371.60 0.2168294
371.70 0.2119686
371.80 0.2089773
371.90 0.2082665
372.00 0.209575
372.10 0.2120447
372.20 0.2141621
372.30 0.2140212
372.40 0.2102058
372.50 0.202899
372.60 0.1942188
372.70 0.1872697
372.80 0.1845612
372.90 0.1869089
373.00 0.1933732
373.10 0.201942
373.20 0.2103643
373.30 0.2167601
373.40 0.2199964
373.50 0.2197683
373.60 0.2163912
373.70 0.2105001
373.80 0.2029148
373.90 0.1947145
374.00 0.187252
374.10 0.181919
374.20 0.1797917
374.30 0.1814412
374.40 0.1869777
374.50 0.1960905
374.60 0.2079337
374.70 0.2209645
374.80 0.2330412
374.90 0.241966
375.00 0.246239
375.10 0.2455406
375.20 0.2406792
375.30 0.2331706
375.40 0.2247722
375.50 0.2171145
375.60 0.2113129
375.70 0.2076689
375.80 0.2056883
375.90 0.2044923
376.00 0.203427
376.10 0.2025442
376.20 0.2027043
376.30 0.2052197
376.40 0.2112152
376.50 0.2211433
376.60 0.2347723
376.70 0.2513349
376.80 0.2694228
376.90 0.2866923
377.00 0.3000559
377.10 0.3067406
377.20 0.3055552
377.30 0.297353
377.40 0.2844036
377.50 0.2693203
377.60 0.254313
377.70 0.2409728
377.80 0.2302148
377.90 0.2222306
378.00 0.2166016
378.10 0.2126621
378.20 0.209889
378.30 0.208
378.40 0.2067992
378.50 0.2061251
378.60 0.2060035
378.70 0.206732
378.80 0.2087526
378.90 0.2125605
379.00 0.2188529
379.10 0.2286157
379.20 0.2427135
379.30 0.2611326
379.40 0.2825132
379.50 0.3043448
379.60 0.3235454
379.70 0.3370756
379.80 0.342626
379.90 0.339337
380.00 0.3282379
380.10 0.3119482
380.20 0.2936783
380.30 0.2761303
380.40 0.2609298
380.50 0.2486655
380.60 0.2392092
380.70 0.2319893
380.80 0.2261949
380.90 0.2211278
381.00 0.2165465
381.10 0.2126563
381.20 0.2096954
381.30 0.2075435
381.40 0.2058384
381.50 0.204488
381.60 0.2038788
381.70 0.2043882
381.80 0.2056994
381.90 0.206739
382.00 0.2064673
382.10 0.204505
382.20 0.2012366
382.30 0.198062
382.40 0.1989405
382.50 0.2075915
382.60 0.2259492
382.70 0.2551172
382.80 0.2952688
382.90 0.3424763
383.00 0.3835727
383.10 0.4042954
383.20 0.4018394
383.30 0.3813203
383.40 0.3519854
383.50 0.3205605
383.60 0.2886052
383.70 0.2545167
383.80 0.2163173
383.90 0.1779354
384.00 0.1520956
384.10 0.1495513
384.20 0.1673479
384.30 0.1941432
384.40 0.2228062
384.50 0.2482692
384.60 0.2612433
384.70 0.2534118
384.80 0.2408172
384.90 0.2495139
385.00 0.2815283
385.10 0.3078091
385.20 0.3020664
385.30 0.2703658
385.40 0.2362363
385.50 0.2115808
385.60 0.1954747
385.70 0.1890153
385.80 0.1981439
385.90 0.2209562
386.00 0.2428686
386.10 0.2501246
386.20 0.2399693
386.30 0.2178275
386.40 0.1915772
386.50 0.1725684
386.60 0.1772331
386.70 0.2179973
386.80 0.2888732
386.90 0.360061
387.00 0.3951264
387.10 0.3769875
387.20 0.3211066
387.30 0.2626732
387.40 0.2268259
387.50 0.21093
387.60 0.1960569
387.70 0.1750311
387.80 0.1612984
387.90 0.1705664
388.00 0.2005452
388.10 0.2329806
388.20 0.2555346
388.30 0.2699072
388.40 0.2798252
388.50 0.2826909
388.60 0.2765369
388.70 0.2673161
388.80 0.2620726
388.90 0.2596052
389.00 0.2539633
389.10 0.2455799
389.20 0.2376161
389.30 0.2277719
389.40 0.2122864
389.50 0.1929278
389.60 0.1763595
389.70 0.1696356
389.80 0.1700626
389.90 0.1782451
390.00 0.1937319
390.10 0.2103298
390.20 0.2259333
390.30 0.2391771
390.40 0.2520641
390.50 0.2710446
390.60 0.2937426
390.70 0.3111431
390.80 0.3156721
390.90 0.3066749
391.00 0.2891704
391.10 0.2691979
391.20 0.254259
391.30 0.2537388
391.40 0.2818173
391.50 0.3316727
391.60 0.3772027
391.70 0.3949381
391.80 0.3819449
391.90 0.3503717
392.00 0.3109254
392.10 0.2702929
392.20 0.2376091
392.30 0.2182675
392.40 0.2118387
392.50 0.2133876
392.60 0.2239584
392.70 0.248806
392.80 0.2791002
392.90 0.2980039
393.00 0.3032371
393.10 0.3198693
393.20 0.3768617
393.30 0.4678852
393.40 0.5484207
393.50 0.5677009
393.60 0.5091899
393.70 0.4060076
393.80 0.3149972
393.90 0.273074
394.00 0.2727789
394.10 0.278491
394.20 0.2634341
394.30 0.2286334
394.40 0.198133
394.50 0.1896863
394.60 0.2037704
394.70 0.2263958
394.80 0.2438461
394.90 0.2504552
395.00 0.2553454
395.10 0.2654593
395.20 0.2747032
395.30 0.2723878
395.40 0.2623818
395.50 0.2615285
395.60 0.2800771
395.70 0.3073841
395.80 0.3211073
395.90 0.3121754
396.00 0.2907258
396.10 0.2732385
396.20 0.2657932
396.30 0.2653753
396.40 0.2736204
396.50 0.2966315
396.60 0.3395044
396.70 0.3982673
396.80 0.4560742
396.90 0.4919641
397.00 0.49116
397.10 0.4553112
397.20 0.405515
397.30 0.3690653
397.40 0.3602543
397.50 0.373806
397.60 0.3914787
397.70 0.3958168
397.80 0.3823546
397.90 0.3602128
398.00 0.343263
398.10 0.3392973
398.20 0.3490095
398.30 0.3726826
398.40 0.4103411
398.50 0.4538824
398.60 0.4858692
398.70 0.4916936
398.80 0.4684757
398.90 0.4299797
399.00 0.3943603
399.10 0.3772338
399.20 0.3838632
399.30 0.4064163
399.40 0.4299886
399.50 0.4411022
399.60 0.4311784
399.70 0.4022538
399.80 0.3713979
399.90 0.3593005
400.00 0.3710021
400.10 0.3915485
400.20 0.4046882
400.30 0.410822
400.40 0.4196544
400.50 0.4311045
400.60 0.4337886
400.70 0.4214255
400.80 0.4020803
400.90 0.3931863
401.00 0.4051785
401.10 0.4280452
401.20 0.4423323
401.30 0.4384573
401.40 0.4288187
401.50 0.4304542
401.60 0.4427584
401.70 0.4501647
401.80 0.4463108
401.90 0.4370295
402.00 0.4273228
402.10 0.4118168
402.20 0.3881302
402.30 0.3705381
402.40 0.3765536
402.50 0.4023915
402.60 0.4221624
402.70 0.4148616
402.80 0.3856108
402.90 0.3558561
403.00 0.3394699
403.10 0.3314778
403.20 0.3175521
403.30 0.2920738
403.40 0.2657359
403.50 0.2570913
403.60 0.2769559
403.70 0.3207148
403.80 0.3745637
403.90 0.4245522
404.00 0.4619991
404.10 0.4827776
404.20 0.4818264
404.30 0.455158
404.40 0.4079509
404.50 0.3574966
404.60 0.3244713
404.70 0.3187792
404.80 0.3369497
404.90 0.368901
405.00 0.4018882
405.10 0.4235738
405.20 0.4269057
405.30 0.4136654
405.40 0.392284
405.50 0.371744
405.60 0.3569089
405.70 0.3488653
405.80 0.3467111
405.90 0.3513282
406.00 0.3651235
406.10 0.3864095
406.20 0.4091449
406.30 0.4281583
406.40 0.4426263
406.50 0.4537826
406.60 0.4610926
406.70 0.4647361
406.80 0.4675478
406.90 0.4690698
407.00 0.4634832
407.10 0.4480727
407.20 0.4301607
407.30 0.4240137
407.40 0.4318065
407.50 0.4347228
407.60 0.4144064
407.70 0.3716074
407.80 0.3278942
407.90 0.3070018
408.00 0.315251
408.10 0.3410821
408.20 0.3694168
408.30 0.3914314
408.40 0.4037313
408.50 0.4046868
408.60 0.3965095
408.70 0.3864696
408.80 0.3787702
408.90 0.368412
409.00 0.3500888
409.10 0.3322081
409.20 0.3323517
409.30 0.3566955
409.40 0.3923267
409.50 0.4190242
409.60 0.4254748
409.70 0.4148538
409.80 0.4012596
409.90 0.4019765
410.00 0.4242253
410.10 0.4570179
410.20 0.4804752
410.30 0.4838574
410.40 0.4709323
410.50 0.4499345
410.60 0.4255732
410.70 0.4013284
410.80 0.3886813
410.90 0.3921944
411.00 0.4039772
411.10 0.4081901
411.20 0.3969748
411.30 0.3778636
411.40 0.3651244
411.50 0.3670761
411.60 0.3796301
411.70 0.3975479
411.80 0.4199795
411.90 0.4431192
412.00 0.4577558
412.10 0.4535932
412.20 0.4281257
412.30 0.3935729
412.40 0.3704354
412.50 0.3715142
412.60 0.3934278
412.70 0.4204968
412.80 0.437394
412.90 0.4374109
413.00 0.4215875
413.10 0.3957757
413.20 0.3685917
413.30 0.3488761
413.40 0.3421729
413.50 0.3473963
413.60 0.3577471
413.70 0.3669904
413.80 0.3730324
413.90 0.3761809
414.00 0.3758119
414.10 0.3711307
414.20 0.3631057
414.30 0.3582769
414.40 0.3585183
414.50 0.3614135
414.60 0.3658104
414.70 0.3742667
414.80 0.3873529
414.90 0.4045174
415.00 0.4215527
415.10 0.4296183
415.20 0.4230695
415.30 0.4068243
415.40 0.3939854
415.50 0.3961448
415.60 0.4089869
415.70 0.4149119
415.80 0.4020002
415.90 0.3762189
416.00 0.353322
416.10 0.3451099
416.20 0.3536062
416.30 0.3765884
416.40 0.4100667
416.50 0.4452979
416.60 0.4677938
416.70 0.4704006
416.80 0.4559717
416.90 0.4356823
417.00 0.4181404
417.10 0.4029984
417.20 0.3879812
417.30 0.3724093
417.40 0.3610485
417.50 0.3575421
417.60 0.3600612
417.70 0.3653182
417.80 0.3740791
417.90 0.3880423
418.00 0.4059253
418.10 0.4177733
418.20 0.4175646
418.30 0.4108569
418.40 0.4073473
418.50 0.4078155
418.60 0.4021113
418.70 0.3872609
418.80 0.3688745
418.90 0.3547366
419.00 0.3458081
419.10 0.3397667
419.20 0.3394158
419.30 0.3509448
419.40 0.3739834
419.50 0.3986122
419.60 0.412648
419.70 0.4110495
419.80 0.3986929
419.90 0.3844316
420.00 0.3746124
420.10 0.3703587
420.20 0.3699349
420.30 0.3722554
420.40 0.3789908
420.50 0.3899083
420.60 0.3989915
420.70 0.3996658
420.80 0.3919908
420.90 0.3858571
421.00 0.387706
421.10 0.3939155
421.20 0.3966934
421.30 0.3933039
421.40 0.3851746
421.50 0.3705646
421.60 0.3464741
421.70 0.3163525
421.80 0.2892016
421.90 0.2699438
422.00 0.2555926
422.10 0.2395695
422.20 0.2167221
422.30 0.1859311
422.40 0.1522389
422.50 0.1254094
422.60 0.1121664
422.70 0.1090042
422.80 0.1126039
422.90 0.1222255
423.00 0.1406217
423.10 0.1680138
423.20 0.2004372
423.30 0.2329947
423.40 0.2634713
423.50 0.2912372
423.60 0.3164313
423.70 0.3385476
423.80 0.3510958
423.90 0.3473679
424.00 0.3293717
424.10 0.3078882
424.20 0.2923471
424.30 0.2844347
424.40 0.2810084
424.50 0.2815677
424.60 0.2846981
424.70 0.2828287
424.80 0.2685498
424.90 0.2487107
425.00 0.2396378
425.10 0.2504216
425.20 0.2725412
425.30 0.287141
425.40 0.2839517
425.50 0.2708149
425.60 0.2654273
425.70 0.2783172
425.80 0.3043601
425.90 0.3306835
426.00 0.3488294
426.10 0.3578885
426.20 0.3597461
426.30 0.3571201
426.40 0.3540606
426.50 0.353857
426.60 0.3549712
426.70 0.3520577
426.80 0.343743
426.90 0.335054
427.00 0.3325152
427.10 0.3387671
427.20 0.3455957
427.30 0.3429948
427.40 0.3271502
427.50 0.3031904
427.60 0.2830656
427.70 0.2796831
427.80 0.2978416
427.90 0.3311504
428.00 0.3649504
428.10 0.386402
428.20 0.3918266
428.30 0.3849831
428.40 0.3715732
428.50 0.3554054
428.60 0.338688
428.70 0.3229551
428.80 0.3099019
428.90 0.3016906
429.00 0.3012114
429.10 0.3104504
429.20 0.3297083
429.30 0.3523755
429.40 0.3683805
429.50 0.3738625
429.60 0.3735884
429.70 0.3731798
429.80 0.3721531
429.90 0.3664031
430.00 0.3543865
430.10 0.3392456
430.20 0.327181
430.30 0.3262703
430.40 0.3416595
430.50 0.3664859
430.60 0.3822994
430.70 0.3754498
430.80 0.3528331
430.90 0.3372035
431.00 0.3451834
431.10 0.3712406
431.20 0.3949228
431.30 0.4009911
431.40 0.3917378
431.50 0.3816497
431.60 0.3822484
431.70 0.3952153
431.80 0.4155673
431.90 0.4368157
432.00 0.4536968
432.10 0.4624896
432.20 0.4626735
432.30 0.45372
432.40 0.4333451
432.50 0.3997322
432.60 0.3590779
432.70 0.3274283
432.80 0.3214438
432.90 0.3443571
433.00 0.3819365
433.10 0.414227
433.20 0.4303908
433.30 0.4349582
433.40 0.4397685
433.50 0.4519045
433.60 0.4737979
433.70 0.5097585
433.80 0.5640609
433.90 0.6352858
434.00 0.7037074
434.10 0.7397312
434.20 0.7247812
434.30 0.6673641
434.40 0.5969166
434.50 0.5418826
434.60 0.5141088
434.70 0.5095808
434.80 0.5165928
434.90 0.5208935
435.00 0.5093298
435.10 0.4774703
435.20 0.4334161
435.30 0.3923254
435.40 0.3694836
435.50 0.3743354
435.60 0.404139
435.70 0.4430709
435.80 0.4713109
435.90 0.4790449
436.00 0.4708122
436.10 0.4584401
436.20 0.4515755
436.30 0.4564924
436.40 0.4673436
436.50 0.4725244
436.60 0.4678722
436.70 0.4606161
436.80 0.4618497
436.90 0.4738009
437.00 0.4885858
437.10 0.4962795
437.20 0.4920645
437.30 0.4773137
437.40 0.4590968
437.50 0.4482722
437.60 0.4521028
437.70 0.4664364
437.80 0.4779096
437.90 0.4769062
438.00 0.4660716
438.10 0.4546415
438.20 0.4452014
438.30 0.4326656
438.40 0.415316
438.50 0.4019943
438.60 0.4034572
438.70 0.4184169
438.80 0.4349912
438.90 0.4447878
439.00 0.450461
439.10 0.459604
439.20 0.4743662
439.30 0.4898254
439.40 0.5009545
439.50 0.5075812
439.60 0.5125119
439.70 0.5175361
439.80 0.5211186
439.90 0.5200289
440.00 0.5158485
440.10 0.513649
440.20 0.5165537
440.30 0.5219187
440.40 0.52182
440.50 0.5124306
440.60 0.4943364
440.70 0.4755044
440.80 0.4704861
440.90 0.4899741
441.00 0.531901
441.10 0.5751927
441.20 0.5960725
441.30 0.5885475
441.40 0.5685637
441.50 0.5578963
441.60 0.5656956
441.70 0.584362
441.80 0.5990395
441.90 0.6001319
442.00 0.5889152
442.10 0.5734341
442.20 0.5586479
442.30 0.5417438
442.40 0.5185505
442.50 0.4932363
442.60 0.4790839
442.70 0.4871361
442.80 0.5142497
442.90 0.5452696
443.00 0.5666955
443.10 0.5765922
443.20 0.5805493
443.30 0.5812013
443.40 0.5775733
443.50 0.5731496
443.60 0.5778445
443.70 0.5978249
443.80 0.624955
443.90 0.6473759
444.00 0.6591368
444.10 0.6634399
444.20 0.6644846
444.30 0.6624544
444.40 0.6572624
444.50 0.653752
444.60 0.657994
444.70 0.6686827
444.80 0.6779334
444.90 0.6809064
445.00 0.6803582
445.10 0.6794238
445.20 0.6732212
445.30 0.6525674
445.40 0.6156878
445.50 0.5732111
445.60 0.5419943
445.70 0.5339265
445.80 0.5496031
445.90 0.5787264
446.00 0.6080617
446.10 0.6297485
446.20 0.6432749
446.30 0.6515802
446.40 0.6578935
446.50 0.6651811
446.60 0.675357
446.70 0.6875735
446.80 0.6987459
446.90 0.7070907
447.00 0.7139774
447.10 0.7222951
447.20 0.7338375
447.30 0.7476467
447.40 0.7600751
447.50 0.7678005
447.60 0.7716504
447.70 0.776513
447.80 0.7857017
447.90 0.7950388
448.00 0.7944505
448.10 0.7819353
448.20 0.7647033
448.30 0.7553121
448.40 0.7639316
448.50 0.7879416
448.60 0.8152431
448.70 0.8326264
448.80 0.832956
448.90 0.8184019
449.00 0.7990736
449.10 0.7859376
449.20 0.7824811
449.30 0.7825016
449.40 0.7770886
449.50 0.7646322
449.60 0.7528922
449.70 0.7510491
449.80 0.7615463
449.90 0.7799569
450.00 0.8002595
450.10 0.8188358
450.20 0.833878
450.30 0.8431392
450.40 0.8439972
450.50 0.8350551
450.60 0.817291
450.70 0.7940096
450.80 0.7699533
450.90 0.7504929
451.00 0.7402288
451.10 0.7402356
451.20 0.7460947
451.30 0.7506908
451.40 0.7499885
451.50 0.7454131
451.60 0.7414235
451.70 0.7418853
451.80 0.7491762
451.90 0.7637081
452.00 0.7822185
452.10 0.7995559
452.20 0.8141028
452.30 0.828895
452.40 0.8445203
452.50 0.8538714
452.60 0.8492871
452.70 0.8343192
452.80 0.8225151
452.90 0.8236444
453.00 0.8346975
453.10 0.844817
453.20 0.8456245
453.30 0.8351296
453.40 0.8165482
453.50 0.7985679
453.60 0.7941369
453.70 0.8129997
453.80 0.8526959
453.90 0.8985124
454.00 0.9348857
454.10 0.9552358
454.20 0.9603041
454.30 0.9503237
454.40 0.9236136
454.50 0.8832713
454.60 0.8409976
454.70 0.8110622
454.80 0.8013616
454.90 0.8107434
455.00 0.8314101
455.10 0.8525056
455.20 0.8645173
455.30 0.8650231
455.40 0.8611093
455.50 0.8635862
455.60 0.8779855
455.70 0.9025853
455.80 0.9326521
455.90 0.962945
456.00 0.9873753
456.10 1.001074
456.20 1.004847
456.30 1.005336
456.40 1.009116
456.50 1.018003
456.60 1.030325
456.70 1.043252
456.80 1.053292
456.90 1.057212
457.00 1.055584
457.10 1.054129
457.20 1.058228
457.30 1.067201
457.40 1.074771
457.50 1.074267
457.60 1.062922
457.70 1.042424
457.80 1.017786
457.90 0.9962424
458.00 0.9841381
458.10 0.9821115
458.20 0.9834448
458.30 0.976393
458.40 0.9509638
458.50 0.9078723
458.60 0.8606268
458.70 0.8269202
458.80 0.8165591
458.90 0.8267901
459.00 0.847272
459.10 0.8678687
459.20 0.8826767
459.30 0.8917164
459.40 0.900668
459.50 0.9155612
459.60 0.9375988
459.70 0.962831
459.80 0.9847126
459.90 0.9971205
460.00 0.9975289
460.10 0.9895785
460.20 0.9813709
460.30 0.9773904
460.40 0.9712789
460.50 0.9511728
460.60 0.9149889
460.70 0.8794049
460.80 0.8705495
460.90 0.9020814
461.00 0.962414
461.10 1.025243
461.20 1.071317
461.30 1.098869
461.40 1.115659
461.50 1.126131
461.60 1.129738
461.70 1.128075
461.80 1.126608
461.90 1.129859
462.00 1.13935
462.10 1.155054
462.20 1.173437
462.30 1.182642
462.40 1.166757
462.50 1.119583
462.60 1.051858
462.70 0.9830408
462.80 0.9289421
462.90 0.8976408
463.00 0.8905691
463.10 0.9019163
463.20 0.9192475
463.30 0.9313714
463.40 0.9360697
463.50 0.9378446
463.60 0.9380312
463.70 0.9318162
463.80 0.9179607
463.90 0.9059591
464.00 0.9085098
464.10 0.9281578
464.20 0.9555008
464.30 0.9794395
464.40 0.9954835
464.50 1.004114
464.60 1.006572
464.70 1.003874
464.80 0.9965085
464.90 0.9850085
465.00 0.9723904
465.10 0.9660027
465.20 0.9736558
465.30 0.9948761
465.40 1.018382
465.50 1.031593
465.60 1.03207
465.70 1.030181
465.80 1.040645
465.90 1.069953
466.00 1.111109
466.10 1.148923
466.20 1.171057
466.30 1.175837
466.40 1.168617
466.50 1.152387
466.60 1.125047
466.70 1.084164
466.80 1.032553
466.90 0.9780587
467.00 0.928072
467.10 0.8856378
467.20 0.8503679
467.30 0.823362
467.40 0.8105967
467.50 0.8183507
467.60 0.8443422
467.70 0.8764843
467.80 0.9023135
467.90 0.9181625
468.00 0.9277739
468.10 0.9340545
468.20 0.9357948
468.30 0.9318864
468.40 0.9260113
468.50 0.9257448
468.60 0.9364669
468.70 0.9565529
468.80 0.9787722
468.90 0.9967459
469.00 1.010064
469.10 1.022371
469.20 1.034725
469.30 1.043092
469.40 1.043705
469.50 1.038483
469.60 1.033571
469.70 1.033626
469.80 1.040094
469.90 1.053951
470.00 1.074278
470.10 1.094628
470.20 1.107035
470.30 1.11042
470.40 1.110717
470.50 1.11182
470.60 1.11047
470.70 1.103097
470.80 1.092323
470.90 1.082912
471.00 1.076046
471.10 1.06971
471.20 1.06129
471.30 1.047289
471.40 1.023137
471.50 0.9887124
471.60 0.9541322
471.70 0.9347019
471.80 0.9388533
471.90 0.9614717
472.00 0.9887083
472.10 1.008518
472.20 1.017285
472.30 1.020034
472.40 1.025812
472.50 1.040242
472.60 1.060378
472.70 1.076654
472.80 1.080572
472.90 1.071917
473.00 1.059137
473.10 1.053336
473.20 1.060772
473.30 1.078625
473.40 1.097614
473.50 1.108671
473.60 1.107364
473.70 1.09526
473.80 1.079463
473.90 1.06977
474.00 1.07254
474.10 1.085458
474.20 1.099397
474.30 1.106738
474.40 1.107433
474.50 1.107108
474.60 1.111398
474.70 1.121982
474.80 1.136394
474.90 1.150755
475.00 1.162299
475.10 1.169831
475.20 1.174373
475.30 1.180356
475.40 1.193091
475.50 1.211533
475.60 1.223354
475.70 1.211495
475.80 1.168503
475.90 1.10227
476.00 1.027101
476.10 0.9519519
476.20 0.8781103
476.30 0.8060715
476.40 0.7407025
476.50 0.6915244
476.60 0.6645064
476.70 0.6569761
476.80 0.6614271
476.90 0.6695471
477.00 0.6766003
477.10 0.6836006
477.20 0.6959837
477.30 0.7189623
477.40 0.7516308
477.50 0.7849563
477.60 0.8067883
477.70 0.8099106
477.80 0.7965874
477.90 0.7758942
478.00 0.7567501
478.10 0.7440372
478.20 0.7402125
478.30 0.7482254
478.40 0.7708724
478.50 0.8057539
478.60 0.8429944
478.70 0.8709708
478.80 0.8843337
478.90 0.8867702
479.00 0.8869287
479.10 0.8916447
479.20 0.9024026
479.30 0.9165397
479.40 0.9303457
479.50 0.9419138
479.60 0.9517348
479.70 0.9611922
479.80 0.9714941
479.90 0.9833666
480.00 0.9966618
480.10 1.009507
480.20 1.016846
480.30 1.010275
480.40 0.9821957
480.50 0.9334291
480.60 0.8764361
480.70 0.827527
480.80 0.7943065
480.90 0.7726827
481.00 0.7567495
481.10 0.7478102
481.20 0.7519799
481.30 0.7720898
481.40 0.8046603
481.50 0.8428138
481.60 0.8781111
481.70 0.9017521
481.80 0.9092953
481.90 0.9050798
482.00 0.8990917
482.10 0.8983884
482.20 0.9028347
482.30 0.9092156
482.40 0.9160961
482.50 0.922596
482.60 0.9264033
482.70 0.9263966
482.80 0.9253498
482.90 0.9260174
483.00 0.9248492
483.10 0.9150653
483.20 0.8985369
483.30 0.8891914
483.40 0.9001641
483.50 0.9300958
483.60 0.9656021
483.70 0.9954137
483.80 1.016878
483.90 1.02945
484.00 1.028584
484.10 1.009569
484.20 0.9761799
484.30 0.9431631
484.40 0.9271003
484.50 0.931877
484.60 0.9431518
484.70 0.9400251
484.80 0.9140289
484.90 0.8752974
485.00 0.8411769
485.10 0.8231997
485.20 0.8237441
485.30 0.8388729
485.40 0.8605545
485.50 0.8791243
485.60 0.8892979
485.70 0.8961487
485.80 0.915802
485.90 0.9681237
486.00 1.060082
486.10 1.169544
486.20 1.249786
486.30 1.260384
486.40 1.19923
486.50 1.102887
486.60 1.015335
486.70 0.9597351
486.80 0.9371269
486.90 0.9395007
487.00 0.9570674
487.10 0.9786028
487.20 0.9940829
487.30 0.999476
487.40 0.9965362
487.50 0.9887987
487.60 0.980963
487.70 0.98021
487.80 0.9921146
487.90 1.014584
488.00 1.038332
488.10 1.05435
488.20 1.060714
488.30 1.061865
488.40 1.06274
488.50 1.06436
488.60 1.065102
488.70 1.065433
488.80 1.069806
488.90 1.08143
489.00 1.095593
489.10 1.10231
489.20 1.097112
489.30 1.086756
489.40 1.08232
489.50 1.088359
489.60 1.099847
489.70 1.10848
489.80 1.109918
489.90 1.10567
490.00 1.100878
490.10 1.100609
490.20 1.107823
490.30 1.12447
490.40 1.151559
490.50 1.186594
490.60 1.223232
490.70 1.255485
490.80 1.282372
490.90 1.306156
491.00 1.326816
491.10 1.341581
491.20 1.348696
491.30 1.348578
491.40 1.342334
491.50 1.331162
491.60 1.317211
491.70 1.302786
491.80 1.288205
491.90 1.273626
492.00 1.263707
492.10 1.267421
492.20 1.291051
492.30 1.331151
492.40 1.375674
492.50 1.414288
492.60 1.446373
492.70 1.476659
492.80 1.503877
492.90 1.517944
493.00 1.510697
493.10 1.486275
493.20 1.457397
493.30 1.434273
493.40 1.420821
493.50 1.418427
493.60 1.428038
493.70 1.447555
493.80 1.470315
493.90 1.488797
494.00 1.499407
494.10 1.503666
494.20 1.506639
494.30 1.51412
494.40 1.530115
494.50 1.555917
494.60 1.590409
494.70 1.63019
494.80 1.669674
494.90 1.702722
495.00 1.724581
495.10 1.72877
495.20 1.699964
495.30 1.615515
495.40 1.463574
495.50 1.262583
495.60 1.057738
495.70 0.8947744
495.80 0.7955142
495.90 0.7543965
496.00 0.7512412
496.10 0.7644091
496.20 0.778294
496.30 0.7865825
496.40 0.7912458
496.50 0.7983608
496.60 0.8141748
496.70 0.8426577
496.80 0.8840097
496.90 0.9336154
497.00 0.9830438
497.10 1.024526
497.20 1.053596
497.30 1.068217
497.40 1.068173
497.50 1.056593
497.60 1.040884
497.70 1.028221
497.80 1.020379
497.90 1.014667
498.00 1.008342
498.10 1.001462
498.20 0.9984611
498.30 1.007934
498.40 1.037196
498.50 1.08325
498.60 1.13052
498.70 1.161588
498.80 1.169883
498.90 1.162175
499.00 1.151746
499.10 1.148716
499.20 1.153373
499.30 1.158416
499.40 1.159823
499.50 1.163636
499.60 1.166414
499.70 1.130799
499.80 1.0016
499.90 0.7618198
500.00 1
500.10 0.8993653
500.20 0.9250781
500.30 0.958852
500.40 0.9471232
500.50 0.9275368
500.60 0.9250459
500.70 0.9566574
500.80 0.9324075
500.90 0.9058691
501.00 0.9355929
501.10 0.9968011
501.20 0.95405
501.30 0.939389
501.40 0.8551105
501.50 0.8084654
501.60 0.8639386
501.70 0.881268
501.80 0.9773572
501.90 1.023133
502.00 1.041125
502.10 1.06187
502.20 1.051463
502.30 1.042317
502.40 1.072542
502.50 1.076199
502.60 1.075064
502.70 1.057221
502.80 1.045582
502.90 1.05921
503.00 1.077761
503.10 1.137677
503.20 1.143919
503.30 1.158328
503.40 1.159242
503.50 1.208683
503.60 1.208773
503.70 1.141345
503.80 1.151881
503.90 1.202421
504.00 1.164561
504.10 1.14889
504.20 1.127968
504.30 1.159354
504.40 1.174403
504.50 1.189218
504.60 1.263014
504.70 1.288683
504.80 1.314886
504.90 1.282809
505.00 1.169099
505.10 1.102753
505.20 1.149131
505.30 1.184662
505.40 1.169224
505.50 1.121602
505.60 1.146959
505.70 1.139586
505.80 1.183329
505.90 1.182208
506.00 1.190901
506.10 1.230638
506.20 1.22731
506.30 1.23521
506.40 1.197256
506.50 1.14227
506.60 1.159598
506.70 1.166242
506.80 1.128381
506.90 1.140037
507.00 1.172996
507.10 1.243066
507.20 1.249091
507.30 1.199134
507.40 1.221876
507.50 1.342653
507.60 1.36455
507.70 1.280305
507.80 1.176268
507.90 1.256199
508.00 1.280733
508.10 1.256787
508.20 1.159879
508.30 1.146332
508.40 1.19103
508.50 1.223141
508.60 1.264305
508.70 1.378598
508.80 1.330011
508.90 1.222616
509.00 1.225047
509.10 1.279416
509.20 1.232586
509.30 1.271161
509.40 1.396599
509.50 1.364648
509.60 1.167247
509.70 1.163635
509.80 1.320255
509.90 1.399021
510.00 1.318192
510.10 1.176072
510.20 1.154081
510.30 1.150099
510.40 1.14577
510.50 1.155312
510.60 1.190857
510.70 1.18585
510.80 1.119817
510.90 1.108164
511.00 1.202362
511.10 1.20384
511.20 1.21315
511.30 1.231068
511.40 1.273694
511.50 1.288135
511.60 1.380199
511.70 1.439964
511.80 1.412677
511.90 1.404225
512.00 1.388107
512.10 1.351493
512.20 1.387167
512.30 1.357159
512.40 1.293235
512.50 1.281325
512.60 1.263064
512.70 1.208476
512.80 1.205396
512.90 1.180391
513.00 1.181755
513.10 1.206968
513.20 1.266815
513.30 1.31737
513.40 1.343405
513.50 1.291634
513.60 1.315752
513.70 1.46033
513.80 1.545422
513.90 1.483156
514.00 1.376839
514.10 1.360996
514.20 1.39853
514.30 1.436756
514.40 1.384404
514.50 1.268656
514.60 1.182461
514.70 1.204795
514.80 1.320558
514.90 1.356572
515.00 1.379562
515.10 1.29555
515.20 1.278377
515.30 1.18368
515.40 1.08126
515.50 1.082951
515.60 1.193961
515.70 1.266657
515.80 1.432889
515.90 1.55986
516.00 1.537779
516.10 1.578751
516.20 1.696554
516.30 1.723808
516.40 1.611833
516.50 1.614351
516.60 1.609514
516.70 1.347901
516.80 0.9156617
516.90 0.6568161
517.00 0.6070529
517.10 0.6059866
517.20 0.636881
517.30 0.6574934
517.40 0.6404028
517.50 0.7033292
517.60 0.7168159
517.70 0.7118043
517.80 0.753899
517.90 0.7805187
518.00 0.7568374
518.10 0.763113
518.20 0.7257027
518.30 0.7453781
518.40 0.7781646
518.50 0.8248786
518.60 0.980025
518.70 1.068204
518.80 1.070023
518.90 1.118508
519.00 1.148889
519.10 1.14163
519.20 1.123774
519.30 1.098447
519.40 1.066839
519.50 1.095145
519.60 1.157348
519.70 1.221955
519.80 1.297803
519.90 1.272086
520.00 1.24879
520.10 1.223982
520.20 1.214379
520.30 1.147222
520.40 1.067862
520.50 0.9537025
520.60 0.8803595
520.70 0.8295665
520.80 0.8728131
520.90 0.8549534
521.00 0.8046926
521.10 0.8301394
521.20 1.022329
521.30 1.267543
521.40 1.450322
521.50 1.503876
521.60 1.460618
521.70 1.448362
521.80 1.542255
521.90 1.582608
522.00 1.55029
522.10 1.572652
522.20 1.665955
522.30 1.663715
522.40 1.615624
522.50 1.524253
522.60 1.488562
522.70 1.453323
522.80 1.514309
522.90 1.620908
523.00 1.700557
523.10 1.768927
523.20 1.746509
523.30 1.695319
523.40 1.663397
523.50 1.652935
523.60 1.604495
523.70 1.637642
523.80 1.700949
523.90 1.699804
524.00 1.724888
524.10 1.651452
524.20 1.500773
524.30 1.430497
524.40 1.487532
524.50 1.514595
524.60 1.52817
524.70 1.517109
524.80 1.460282
524.90 1.418988
525.00 1.39628
525.10 1.419861
525.20 1.509512
525.30 1.555634
525.40 1.605633
525.50 1.65496
525.60 1.698593
525.70 1.719405
525.80 1.678394
525.90 1.696067
526.00 1.770235
526.10 1.680686
526.20 1.56045
526.30 1.47099
526.40 1.427147
526.50 1.36016
526.60 1.347045
526.70 1.338183
526.80 1.363337
526.90 1.341591
527.00 1.186237
527.10 1.156047
527.20 1.301207
527.30 1.499154
527.40 1.630665
527.50 1.665254
527.60 1.674487
527.70 1.682218
527.80 1.708132
527.90 1.770205
528.00 1.694433
528.10 1.622586
528.20 1.593203
528.30 1.588008
528.40 1.603232
528.50 1.688522
528.60 1.759791
528.70 1.854369
528.80 1.844634
528.90 1.845884
529.00 1.815211
529.10 1.810236
529.20 1.856716
529.30 1.800483
529.40 1.765907
529.50 1.839502
529.60 1.850924
529.70 1.755422
529.80 1.690543
529.90 1.671721
530.00 1.665446
530.10 1.678843
530.20 1.704911
530.30 1.793997
530.40 1.879877
530.50 1.946553
530.60 1.95135
530.70 1.873345
530.80 1.763688
530.90 1.750813
531.00 1.722192
531.10 1.726869
531.20 1.777307
531.30 1.815106
531.40 1.75375
531.50 1.732189
531.60 1.761672
531.70 1.784045
531.80 1.847239
531.90 1.839779
532.00 1.829202
532.10 1.811982
532.20 1.782842
532.30 1.845611
532.40 1.888962
532.50 1.805523
532.60 1.780794
532.70 1.820239
532.80 1.685365
532.90 1.453193
533.00 1.443904
533.10 1.621938
533.20 1.813002
533.30 1.834978
533.40 1.762107
533.50 1.761863
533.60 1.819154
533.70 1.808403
533.80 1.754061
533.90 1.740127
534.00 1.761878
534.10 1.768117
534.20 1.783957
534.30 1.850816
534.40 1.867991
534.50 1.882984
534.60 1.862951
534.70 1.789731
534.80 1.72168
534.90 1.803511
535.00 1.855784
535.10 1.930501
535.20 2.055215
535.30 2.122535
535.40 2.058862
535.50 2.054729
535.60 2.070561
535.70 2.056647
535.80 2.051643
535.90 1.972441
536.00 1.899149
536.10 1.854124
536.20 1.86994
536.30 1.8918
536.40 1.940647
536.50 1.917045
536.60 1.904058
536.70 1.947185
536.80 1.907065
536.90 1.951934
537.00 2.001298
537.10 1.853364
537.20 1.682196
537.30 1.683595
537.40 1.871951
537.50 2.00289
537.60 2.021484
537.70 2.000102
537.80 1.987662
537.90 2.054375
538.00 2.167331
538.10 2.228616
538.20 2.193332
538.30 2.152902
538.40 2.108476
538.50 2.10869
538.60 2.05182
538.70 2.12039
538.80 2.197599
538.90 2.246136
539.00 2.220407
539.10 2.224999
539.20 2.16383
539.30 2.093689
539.40 2.068152
539.50 2.074689
539.60 2.078445
539.70 2.002939
539.80 1.902331
539.90 1.925509
540.00 2.067934
540.10 2.231495
540.20 2.306893
540.30 2.316883
540.40 2.27052
540.50 2.209531
540.60 2.063717
540.70 1.953388
540.80 1.99772
540.90 2.077348
541.00 2.049015
541.10 1.945383
541.20 1.976736
541.30 2.017102
541.40 2.078258
541.50 2.209897
541.60 2.263101
541.70 2.233651
541.80 2.275591
541.90 2.361888
542.00 2.34642
542.10 2.254264
542.20 2.279085
542.30 2.320361
542.40 2.207044
542.50 2.184969
542.60 2.259971
542.70 2.266439
542.80 2.25745
542.90 2.240353
543.00 2.138622
543.10 2.046746
543.20 2.066063
543.30 2.140947
543.40 2.131903
543.50 2.057905
543.60 2.054149
543.70 2.186072
543.80 2.357315
543.90 2.37101
544.00 2.348072
544.10 2.36241
544.20 2.451568
544.30 2.514735
544.40 2.597371
544.50 2.54955
544.60 2.410442
544.70 2.173571
544.80 1.901066
544.90 1.646953
545.00 1.462646
545.10 1.323313
545.20 1.296347
545.30 1.298858
545.40 1.228831
545.50 1.282771
545.60 1.362347
545.70 1.335899
545.80 1.292802
545.90 1.412416
546.00 1.525152
546.10 1.533324
546.20 1.539561
546.30 1.562365
546.40 1.617401
546.50 1.680698
546.60 1.651744
546.70 1.676184
546.80 1.751076
546.90 1.76775
547.00 1.682376
547.10 1.600951
547.20 1.640969
547.30 1.661263
547.40 1.749364
547.50 1.748502
547.60 1.68906
547.70 1.626279
547.80 1.608272
547.90 1.633413
548.00 1.67983
548.10 1.727971
548.20 1.737666
548.30 1.731136
548.40 1.732852
548.50 1.775536
548.60 1.812003
548.70 1.857711
548.80 1.820409
548.90 1.795095
549.00 1.788332
549.10 1.8284
549.20 1.853477
549.30 1.872872
549.40 1.883079
549.50 1.901868
549.60 1.85658
549.70 1.735702
549.80 1.582988
549.90 1.502577
550.00 1.409177
550.10 1.39382
550.20 1.361016
550.30 1.401396
550.40 1.439934
550.50 1.366995
550.60 1.318461
550.70 1.347522
550.80 1.400537
550.90 1.417287
551.00 1.425303
551.10 1.408837
551.20 1.370165
551.30 1.339971
551.40 1.347266
551.50 1.328779
551.60 1.315473
551.70 1.397926
551.80 1.485366
551.90 1.454576
552.00 1.379904
552.10 1.408584
552.20 1.448511
552.30 1.460442
552.40 1.407945
552.50 1.362992
552.60 1.318269
552.70 1.326171
552.80 1.368958
552.90 1.373218
553.00 1.408794
553.10 1.469251
553.20 1.464853
553.30 1.421682
553.40 1.393415
553.50 1.317445
553.60 1.276227
553.70 1.264685
553.80 1.25045
553.90 1.214702
554.00 1.228382
554.10 1.322822
554.20 1.240116
554.30 1.157797
554.40 1.192992
554.50 1.273548
554.60 1.257134
554.70 1.248925
554.80 1.330567
554.90 1.422766
555.00 1.384872
555.10 1.321864
555.20 1.328657
555.30 1.328541
555.40 1.29306
555.50 1.32694
555.60 1.387946
555.70 1.472016
555.80 1.514788
555.90 1.506808
556.00 1.465839
556.10 1.484321
556.20 1.544593
556.30 1.595971
556.40 1.591285
556.50 1.620103
556.60 1.623078
556.70 1.640842
556.80 1.67122
556.90 1.635542
557.00 1.63497
557.10 1.706794
557.20 1.709998
557.30 1.710912
557.40 1.710519
557.50 1.710487
557.60 1.710487
557.70 1.710487
557.80 1.710487
557.90 1.710487
558.00 1.710487
558.10 1.710488
558.20 1.71045
558.30 1.71022
558.40 1.704364
558.50 1.722984
558.60 1.853593
558.70 1.949647
558.80 1.889271
558.90 1.75233
559.00 1.666607
559.10 1.699285
559.20 1.854901
559.30 1.934887
559.40 1.915999
559.50 1.811972
559.60 1.756631
559.70 1.81673
559.80 1.731399
559.90 1.501524
560.00 1.337532
560.10 1.36548
560.20 1.490866
560.30 1.600506
560.40 1.60783
560.50 1.516009
560.60 1.501669
560.70 1.529533
560.80 1.541624
560.90 1.555602
561.00 1.58406
561.10 1.617751
561.20 1.663771
561.30 1.713932
561.40 1.758473
561.50 1.710742
561.60 1.641145
561.70 1.563805
561.80 1.53695
561.90 1.565036
562.00 1.59556
562.10 1.527578
562.20 1.471159
562.30 1.515791
562.40 1.585427
562.50 1.667948
562.60 1.690637
562.70 1.653529
562.80 1.636206
562.90 1.584952
563.00 1.43974
563.10 1.383037
563.20 1.424618
563.30 1.491378
563.40 1.562699
563.50 1.693351
563.60 1.713912
563.70 1.648225
563.80 1.636147
563.90 1.602243
564.00 1.554
564.10 1.577405
564.20 1.656506
564.30 1.651451
564.40 1.632848
564.50 1.670013
564.60 1.684236
564.70 1.647484
564.80 1.65442
564.90 1.690396
565.00 1.671079
565.10 1.743902
565.20 1.81774
565.30 1.823637
565.40 1.840936
565.50 1.852973
565.60 1.86458
565.70 1.932081
565.80 1.975697
565.90 1.8744
566.00 1.767691
566.10 1.830382
566.20 1.844245
566.30 1.773173
566.40 1.682789
566.50 1.640312
566.60 1.665992
566.70 1.706036
566.80 1.727347
566.90 1.698385
567.00 1.686895
567.10 1.61119
567.20 1.61449
567.30 1.649994
567.40 1.707417
567.50 1.746349
567.60 1.762666
567.70 1.740928
567.80 1.791418
567.90 1.864789
568.00 1.867782
568.10 1.792644
568.20 1.781343
568.30 1.815356
568.40 1.835681
568.50 1.865897
568.60 1.918917
568.70 2.024427
568.80 1.981412
568.90 1.84147
569.00 1.730904
569.10 1.808955
569.20 1.92903
569.30 1.961961
569.40 1.979332
569.50 1.977933
569.60 1.943934
569.70 1.936712
569.80 1.923612
569.90 1.964375
570.00 1.992068
570.10 2.004449
570.20 2.029127
570.30 2.046573
570.40 1.977336
570.50 1.958482
570.60 2.019254
570.70 2.121039
570.80 2.145844
570.90 2.193245
571.00 2.240445
571.10 2.214855
571.20 2.115072
571.30 2.089724
571.40 2.060875
571.50 2.01086
571.60 1.971583
571.70 2.017617
571.80 2.018926
571.90 2.002126
572.00 2.025995
572.10 2.081425
572.20 2.006272
572.30 1.93087
572.40 2.007775
572.50 2.06388
572.60 2.024533
572.70 1.964064
572.80 1.995608
572.90 1.97369
573.00 2.010263
573.10 2.08182
573.20 2.107423
573.30 2.086759
573.40 2.127293
573.50 2.181676
573.60 2.175606
573.70 2.115618
573.80 2.064301
573.90 2.068413
574.00 2.0792
574.10 2.137873
574.20 2.106852
574.30 2.116355
574.40 2.129738
574.50 2.171103
574.60 2.19911
574.70 2.252488
574.80 2.304957
574.90 2.365236
575.00 2.389865
575.10 2.382062
575.20 2.390015
575.30 2.415434
575.40 2.421471
575.50 2.392486
575.60 2.394803
575.70 2.422983
575.80 2.391485
575.90 2.338127
576.00 2.224948
576.10 2.085644
576.20 1.966658
576.30 1.878123
576.40 1.853597
576.50 1.82596
576.60 1.79471
576.70 1.813789
576.80 1.916486
576.90 1.946086
577.00 1.933652
577.10 1.99556
577.20 2.039743
577.30 2.073131
577.40 2.07457
577.50 2.092452
577.60 2.01955
577.70 1.943901
577.80 1.971152
577.90 1.996347
578.00 2.024697
578.10 2.047207
578.20 2.080117
578.30 2.137369
578.40 2.203082
578.50 2.282825
578.60 2.245163
578.70 2.146016
578.80 2.138121
578.90 2.225676
579.00 2.2039
579.10 2.129002
579.20 2.0805
579.30 2.172252
579.40 2.228926
579.50 2.374427
579.60 2.452687
579.70 2.414209
579.80 2.406764
579.90 2.443155
580.00 2.464907
580.10 2.438473
580.20 2.407092
580.30 2.389086
580.40 2.42352
580.50 2.503504
580.60 2.469265
580.70 2.491361
580.80 2.544098
580.90 2.526671
581.00 2.478863
581.10 2.383693
581.20 2.215865
581.30 2.070912
581.40 1.976055
581.50 1.959837
581.60 1.93684
581.70 1.898886
581.80 1.856362
581.90 1.859108
582.00 1.870238
582.10 1.814719
582.20 1.829502
582.30 1.871672
582.40 1.937912
582.50 1.914915
582.60 1.878761
582.70 1.921127
582.80 1.991637
582.90 1.988089
583.00 2.007732
583.10 1.994431
583.20 1.987812
583.30 2.122927
583.40 2.158629
583.50 2.051851
583.60 1.999432
583.70 2.086952
583.80 2.111509
583.90 2.072805
584.00 2.053786
584.10 1.974242
584.20 1.990638
584.30 2.030979
584.40 2.023628
584.50 2.016719
584.60 2.019115
584.70 2.039186
584.80 1.968115
584.90 1.818185
585.00 1.677333
585.10 1.619265
585.20 1.585377
585.30 1.578861
585.40 1.596003
585.50 1.595796
585.60 1.59237
585.70 1.579935
585.80 1.53498
585.90 1.545592
586.00 1.577532
586.10 1.607813
586.20 1.586463
586.30 1.503834
586.40 1.444153
586.50 1.434496
586.60 1.409778
586.70 1.341512
586.80 1.429585
586.90 1.522752
587.00 1.538074
587.10 1.504807
587.20 1.495606
587.30 1.410062
587.40 1.300478
587.50 1.271452
587.60 1.293355
587.70 1.334789
587.80 1.330938
587.90 1.289415
588.00 1.276599
588.10 1.246044
588.20 1.155642
588.30 1.057299
588.40 1.030362
588.50 1.078635
588.60 1.038563
588.70 0.9150269
588.80 0.7496247
588.90 0.7122536
589.00 0.7354925
589.10 0.7605676
589.20 0.6579457
589.30 0.6198575
589.40 0.7453474
589.50 0.7244738
589.60 0.7024437
589.70 0.6618403
589.80 0.612178
589.90 0.6800407
590.00 0.7798092
590.10 0.8645067
590.20 0.8243161
590.30 0.9224861
590.40 1.060512
590.50 1.121594
590.60 1.113176
590.70 1.111299
590.80 1.156827
590.90 1.129518
591.00 1.105314
591.10 1.159765
591.20 1.240785
591.30 1.215516
591.40 1.17804
591.50 1.18179
591.60 1.176868
591.70 1.234172
591.80 1.306917
591.90 1.291463
592.00 1.285233
592.10 1.309622
592.20 1.313489
592.30 1.260037
592.40 1.256424
592.50 1.259498
592.60 1.248791
592.70 1.242854
592.80 1.267509
592.90 1.329791
593.00 1.361374
593.10 1.355763
593.20 1.370381
593.30 1.390516
593.40 1.388878
593.50 1.404553
593.60 1.456948
593.70 1.50992
593.80 1.533475
593.90 1.562699
594.00 1.529175
594.10 1.472475
594.20 1.458955
594.30 1.521752
594.40 1.579993
594.50 1.633998
594.60 1.599262
594.70 1.580989
594.80 1.542518
594.90 1.512457
595.00 1.449019
595.10 1.380319
595.20 1.397189
595.30 1.41883
595.40 1.409137
595.50 1.465978
595.60 1.495026
595.70 1.435009
595.80 1.37452
595.90 1.390136
596.00 1.327107
596.10 1.316067
596.20 1.412017
596.30 1.449465
596.40 1.461214
596.50 1.415894
596.60 1.45979
596.70 1.470777
596.80 1.483146
596.90 1.510382
597.00 1.561786
597.10 1.562692
597.20 1.534007
597.30 1.468436
597.40 1.419735
597.50 1.448204
597.60 1.478351
597.70 1.478584
597.80 1.523195
597.90 1.590021
598.00 1.608654
598.10 1.554852
598.20 1.602409
598.30 1.633904
598.40 1.574443
598.50 1.614608
598.60 1.662523
598.70 1.664137
598.80 1.639554
598.90 1.653718
599.00 1.661806
599.10 1.644541
599.20 1.712787
599.30 1.7759
599.40 1.826035
599.50 1.871675
599.60 1.819988
599.70 1.80317
599.80 1.842587
599.90 1.854255
600.00 1.763502
600.10 1.692004
600.20 1.696412
600.30 1.685285
600.40 1.692409
600.50 1.702959
600.60 1.753079
600.70 1.721725
600.80 1.680173
600.90 1.655959
601.00 1.663274
601.10 1.689876
601.20 1.731952
601.30 1.756833
601.40 1.786136
601.50 1.777875
601.60 1.730718
601.70 1.777235
601.80 1.807724
601.90 1.809745
602.00 1.815379
602.10 1.835048
602.20 1.847815
602.30 1.833795
602.40 1.848783
602.50 1.893903
602.60 1.938356
602.70 1.933866
602.80 1.936237
602.90 1.956874
603.00 1.944628
603.10 1.911446
603.20 1.938287
603.30 1.988519
603.40 1.996818
603.50 1.963061
603.60 1.925358
603.70 1.849586
603.80 1.715785
603.90 1.65937
604.00 1.745719
604.10 1.851698
604.20 1.930575
604.30 1.995015
604.40 2.027851
604.50 2.031617
604.60 2.083629
604.70 2.123056
604.80 2.101461
604.90 2.087423
605.00 2.178998
605.10 2.217143
605.20 2.15548
605.30 2.094847
605.40 2.080972
605.50 2.090866
605.60 2.121586
605.70 2.10307
605.80 2.086029
605.90 2.103704
606.00 2.110585
606.10 2.141359
606.20 2.211189
606.30 2.20068
606.40 2.144213
606.50 2.109479
606.60 2.06442
606.70 1.984793
606.80 2.034863
606.90 2.157564
607.00 2.231688
607.10 2.24187
607.20 2.237453
607.30 2.247919
607.40 2.148951
607.50 2.082377
607.60 2.138101
607.70 2.235004
607.80 2.299798
607.90 2.267754
608.00 2.161262
608.10 2.071664
608.20 2.028954
608.30 2.07092
608.40 2.097928
608.50 2.130816
608.60 2.164609
608.70 2.19462
608.80 2.178997
608.90 2.169603
609.00 2.179928
609.10 2.190566
609.20 2.19047
609.30 2.190422
609.40 2.242507
609.50 2.300987
609.60 2.318778
609.70 2.319817
609.80 2.329489
609.90 2.329235
610.00 2.306491
610.10 2.263562
610.20 2.193348
610.30 2.107434
610.40 2.04683
610.50 2.043458
610.60 2.118517
610.70 2.179792
610.80 2.213044
610.90 2.256622
611.00 2.296103
611.10 2.286229
611.20 2.26444
611.30 2.246905
611.40 2.249923
611.50 2.286937
611.60 2.298979
611.70 2.259098
611.80 2.193754
611.90 2.176406
612.00 2.158696
612.10 2.112651
612.20 2.039391
612.30 1.93527
612.40 1.921254
612.50 2.009319
612.60 2.156005
612.70 2.239279
612.80 2.216522
612.90 2.2371
613.00 2.257965
613.10 2.281105
613.20 2.287864
613.30 2.240569
613.40 2.195499
613.50 2.160722
613.60 2.193211
613.70 2.225946
613.80 2.2164
613.90 2.223972
614.00 2.262489
614.10 2.283809
614.20 2.270269
614.30 2.287988
614.40 2.352381
614.50 2.420697
614.60 2.447207
614.70 2.428333
614.80 2.312506
614.90 2.178503
615.00 2.061389
615.10 1.939205
615.20 1.873948
615.30 1.919748
615.40 1.994144
615.50 1.999271
615.60 1.963905
615.70 1.938057
615.80 1.855984
615.90 1.679248
616.00 1.531763
616.10 1.442136
616.20 1.33789
616.30 1.242803
616.40 1.227253
616.50 1.27065
616.60 1.258268
616.70 1.227464
616.80 1.267094
616.90 1.319561
617.00 1.326013
617.10 1.34852
617.20 1.38293
617.30 1.37467
617.40 1.373664
617.50 1.360768
617.60 1.346886
617.70 1.302596
617.80 1.341668
617.90 1.423484
618.00 1.437847
618.10 1.400531
618.20 1.382483
618.30 1.410398
618.40 1.38457
618.50 1.357386
618.60 1.329058
618.70 1.257633
618.80 1.156909
618.90 1.108498
619.00 1.144173
619.10 1.169563
619.20 1.159125
619.30 1.115962
619.40 1.104283
619.50 1.124607
619.60 1.135638
619.70 1.140222
619.80 1.184744
619.90 1.220431
620.00 1.230345
620.10 1.240694
620.20 1.226792
620.30 1.203837
620.40 1.20963
620.50 1.265153
620.60 1.317097
620.70 1.279242
620.80 1.27663
620.90 1.31189
621.00 1.326388
621.10 1.312962
621.20 1.282415
621.30 1.273329
621.40 1.243133
621.50 1.174805
621.60 1.098881
621.70 1.060507
621.80 1.074213
621.90 1.082618
622.00 1.126779
622.10 1.165734
622.20 1.173883
622.30 1.145629
622.40 1.057586
622.50 0.9937438
622.60 0.9738608
622.70 1.031479
622.80 1.050222
622.90 1.058167
623.00 1.07499
623.10 1.063369
623.20 1.058925
623.30 1.090142
623.40 1.108827
623.50 1.09059
623.60 1.075529
623.70 1.127835
623.80 1.143039
623.90 1.128408
624.00 1.132016
624.10 1.135296
624.20 1.138078
624.30 1.142208
624.40 1.203792
624.50 1.186989
624.60 1.152134
624.70 1.141054
624.80 1.136682
624.90 1.195956
625.00 1.228151
625.10 1.215844
625.20 1.205291
625.30 1.234361
625.40 1.276557
625.50 1.299296
625.60 1.313459
625.70 1.316391
625.80 1.326656
625.90 1.325051
626.00 1.331313
626.10 1.313485
626.20 1.326829
626.30 1.40582
626.40 1.460316
626.50 1.486924
626.60 1.51751
626.70 1.52942
626.80 1.477075
626.90 1.414774
627.00 1.414595
627.10 1.446054
627.20 1.457723
627.30 1.489143
627.40 1.522123
627.50 1.520962
627.60 1.46353
627.70 1.397887
627.80 1.390726
627.90 1.42425
628.00 1.430992
628.10 1.441676
628.20 1.473538
628.30 1.487686
628.40 1.537053
628.50 1.575891
628.60 1.622586
628.70 1.64705
628.80 1.651784
628.90 1.684304
629.00 1.736471
629.10 1.770787
629.20 1.74607
629.30 1.731494
629.40 1.752622
629.50 1.744815
629.60 1.69192
629.70 1.752442
629.80 1.839555
629.90 1.786791
630.00 1.777644
630.10 2.014694
630.20 2.351869
630.30 2.142694
630.40 1.823328
630.50 1.875144
630.60 1.971214
630.70 1.990353
630.80 2.035793
630.90 2.110266
631.00 2.130131
631.10 2.098749
631.20 2.136879
631.30 2.209051
631.40 2.247016
631.50 2.256958
631.60 2.271359
631.70 2.276712
631.80 2.28373
631.90 2.313024
632.00 2.317212
632.10 2.282607
632.20 2.298707
632.30 2.325133
632.40 2.268983
632.50 2.24851
632.60 2.272717
632.70 2.311362
632.80 2.376129
632.90 2.420588
633.00 2.408024
633.10 2.368374
633.20 2.38332
633.30 2.419373
633.40 2.468576
633.50 2.514015
633.60 2.55313
633.70 2.529927
633.80 2.510167
633.90 2.554834
634.00 2.626316
634.10 2.640479
634.20 2.633394
634.30 2.672768
634.40 2.738935
634.50 2.78122
634.60 2.755773
634.70 2.738626
634.80 2.763371
634.90 2.822593
635.00 2.833727
635.10 2.831247
635.20 2.80385
635.30 2.723391
635.40 2.644598
635.50 2.606298
635.60 2.623441
635.70 2.584724
635.80 2.502473
635.90 2.42373
636.00 2.403601
636.10 2.386044
636.20 2.383044
636.30 2.428792
636.40 2.531108
636.50 2.587618
636.60 2.501377
636.70 2.417486
636.80 2.402529
636.90 2.431769
637.00 2.440869
637.10 2.468268
637.20 2.483824
637.30 2.535533
637.40 2.587945
637.50 2.56912
637.60 2.523991
637.70 2.501183
637.80 2.496183
637.90 2.467764
638.00 2.411811
638.10 2.322399
638.20 2.226752
638.30 2.154109
638.40 2.156983
638.50 2.212947
638.60 2.226301
638.70 2.20842
638.80 2.199116
638.90 2.186252
639.00 2.169222
639.10 2.213612
639.20 2.313404
639.30 2.394291
639.40 2.434285
639.50 2.492126
639.60 2.570588
639.70 2.66719
639.80 2.71608
639.90 2.732027
640.00 2.750609
640.10 2.761528
640.20 2.775712
640.30 2.787497
640.40 2.845065
640.50 2.906626
640.60 2.950749
640.70 2.98708
640.80 3.003985
640.90 3.021323
641.00 3.033647
641.10 3.039278
641.20 3.050714
641.30 3.056841
641.40 3.02752
641.50 2.996282
641.60 2.966924
641.70 2.910388
641.80 2.876558
641.90 2.876957
642.00 2.862815
642.10 2.820874
642.20 2.795712
642.30 2.796986
642.40 2.830364
642.50 2.876863
642.60 2.893254
642.70 2.896953
642.80 2.882304
642.90 2.893335
643.00 2.929783
643.10 2.965853
643.20 2.986382
643.30 2.981999
643.40 2.997395
643.50 3.036129
643.60 3.064247
643.70 3.065742
643.80 3.014236
643.90 2.967016
644.00 2.922085
644.10 2.902234
644.20 2.978989
644.30 3.138179
644.40 3.289652
644.50 3.377287
644.60 3.419893
644.70 3.387952
644.80 3.267994
644.90 3.114235
645.00 2.996491
645.10 2.963773
645.20 3.024395
645.30 3.117126
645.40 3.237677
645.50 3.310228
645.60 3.316154
645.70 3.314095
645.80 3.339038
645.90 3.372742
646.00 3.369645
646.10 3.332493
646.20 3.242925
646.30 3.134148
646.40 3.113426
646.50 3.177718
646.60 3.292991
646.70 3.400989
646.80 3.504002
646.90 3.598415
647.00 3.607767
647.10 3.57895
647.20 3.557745
647.30 3.551765
647.40 3.591718
647.50 3.64886
647.60 3.716583
647.70 3.763068
647.80 3.746998
647.90 3.682929
648.00 3.574493
648.10 3.457129
648.20 3.388378
648.30 3.360242
648.40 3.331953
648.50 3.265744
648.60 3.208929
648.70 3.209376
648.80 3.254468
648.90 3.318523
649.00 3.414715
649.10 3.469887
649.20 3.456526
649.30 3.402305
649.40 3.343273
649.50 3.280451
649.60 3.201365
649.70 3.212163
649.80 3.337105
649.90 3.422719
650.00 3.44349
650.10 3.426767
650.20 3.475283
650.30 3.605622
650.40 3.737617
650.50 3.818076
650.60 3.82067
650.70 3.804369
650.80 3.824824
650.90 3.861588
651.00 3.911302
651.10 3.967292
651.20 3.975871
651.30 3.91983
651.40 3.827612
651.50 3.758762
651.60 3.725648
651.70 3.763865
651.80 3.838866
651.90 3.90349
652.00 3.962666
652.10 4.009862
652.20 4.027349
652.30 4.045113
652.40 4.092169
652.50 4.132354
652.60 4.16213
652.70 4.181197
652.80 4.219077
652.90 4.266828
653.00 4.277313
653.10 4.277419
653.20 4.266879
653.30 4.267394
653.40 4.339115
653.50 4.394397
653.60 4.41978
653.70 4.468683
653.80 4.520058
653.90 4.561733
654.00 4.617613
654.10 4.676233
654.20 4.690751
654.30 4.628364
654.40 4.488518
654.50 4.335052
654.60 4.218697
654.70 4.126137
654.80 4.069518
654.90 4.04658
655.00 4.022368
655.10 3.97976
655.20 3.897131
655.30 3.84549
655.40 3.827007
655.50 3.82105
655.60 3.808773
655.70 3.830955
655.80 3.91975
655.90 3.998463
656.00 4.083268
656.10 4.228291
656.20 4.482134
656.30 4.891568
656.40 5.27997
656.50 5.276548
656.60 4.790719
656.70 4.146737
656.80 3.753452
656.90 3.653903
657.00 3.633046
657.10 3.622231
657.20 3.546516
657.30 3.429657
657.40 3.334424
657.50 3.303651
657.60 3.387075
657.70 3.533962
657.80 3.607248
657.90 3.57659
658.00 3.462606
658.10 3.356566
658.20 3.364951
658.30 3.437257
658.40 3.509104
658.50 3.573947
658.60 3.642182
658.70 3.695419
658.80 3.726275
658.90 3.783838
659.00 3.84527
659.10 3.841454
659.20 3.783115
659.30 3.702645
659.40 3.575153
659.50 3.428459
659.60 3.368889
659.70 3.421919
659.80 3.509001
659.90 3.524984
660.00 3.484432
660.10 3.458299
660.20 3.476381
660.30 3.539602
660.40 3.59012
660.50 3.587272
660.60 3.53416
660.70 3.464946
660.80 3.415397
660.90 3.418086
661.00 3.443074
661.10 3.494088
661.20 3.546429
661.30 3.552298
661.40 3.546739
661.50 3.550907
661.60 3.574373
661.70 3.544435
661.80 3.458435
661.90 3.384354
662.00 3.316596
662.10 3.273229
662.20 3.268908
662.30 3.271573
662.40 3.258299
662.50 3.20698
662.60 3.112562
662.70 3.012402
662.80 2.957099
662.90 2.947335
663.00 2.977189
663.10 3.066044
663.20 3.189602
663.30 3.25997
663.40 3.259095
663.50 3.209445
663.60 3.093771
663.70 2.969185
663.80 2.868818
663.90 2.845024
664.00 2.898474
664.10 2.964708
664.20 3.02132
664.30 3.064118
664.40 3.106325
664.50 3.123435
664.60 3.107305
664.70 3.092153
664.80 3.085601
664.90 3.073505
665.00 2.981772
665.10 2.81277
665.20 2.637262
665.30 2.492944
665.40 2.416615
665.50 2.396496
665.60 2.442962
665.70 2.527778
665.80 2.547747
665.90 2.519116
666.00 2.497249
666.10 2.535379
666.20 2.600119
666.30 2.627328
666.40 2.647037
666.50 2.697172
666.60 2.746294
666.70 2.799034
666.80 2.83635
666.90 2.879918
667.00 2.924466
667.10 2.941576
667.20 2.929201
667.30 2.902471
667.40 2.89459
667.50 2.894735
667.60 2.873524
667.70 2.847061
667.80 2.852855
667.90 2.869346
668.00 2.793225
668.10 2.633894
668.20 2.441638
668.30 2.276197
668.40 2.204337
668.50 2.212833
668.60 2.279598
668.70 2.335218
668.80 2.352457
668.90 2.390581
669.00 2.408042
669.10 2.414594
669.20 2.428355
669.30 2.409329
669.40 2.370461
669.50 2.338606
669.60 2.365918
669.70 2.417661
669.80 2.473652
669.90 2.524872
670.00 2.522565
670.10 2.518444
670.20 2.522471
670.30 2.524493
670.40 2.557766
670.50 2.578468
670.60 2.602351
670.70 2.629702
670.80 2.613459
670.90 2.65252
671.00 2.708677
671.10 2.691065
671.20 2.659258
671.30 2.621889
671.40 2.551737
671.50 2.436444
671.60 2.301332
671.70 2.1815
671.80 2.076699
671.90 1.993529
672.00 1.982488
672.10 1.998668
672.20 2.000167
672.30 2.001264
672.40 2.031457
672.50 2.103412
672.60 2.145245
672.70 2.175657
672.80 2.210105
672.90 2.220892
673.00 2.22446
673.10 2.221916
673.20 2.240717
673.30 2.268358
673.40 2.262888
673.50 2.267228
673.60 2.282756
673.70 2.294842
673.80 2.313645
673.90 2.342028
674.00 2.381136
674.10 2.411714
674.20 2.409803
674.30 2.416405
674.40 2.438432
674.50 2.453076
674.60 2.451805
674.70 2.400258
674.80 2.301696
674.90 2.182556
675.00 2.085516
675.10 2.059048
675.20 2.087676
675.30 2.153193
675.40 2.210805
675.50 2.233215
675.60 2.249815
675.70 2.273945
675.80 2.285778
675.90 2.291695
676.00 2.278704
676.10 2.263615
676.20 2.283484
676.30 2.324506
676.40 2.368018
676.50 2.420807
676.60 2.475888
676.70 2.514115
676.80 2.523883
676.90 2.514763
677.00 2.492891
677.10 2.510181
677.20 2.524022
677.30 2.515661
677.40 2.53226
677.50 2.568445
677.60 2.624377
677.70 2.667328
677.80 2.653111
677.90 2.622755
678.00 2.594388
678.10 2.553258
678.20 2.492138
678.30 2.366135
678.40 2.222652
678.50 2.126446
678.60 2.098681
678.70 2.122866
678.80 2.124934
678.90 2.119435
679.00 2.140605
679.10 2.184889
679.20 2.245772
679.30 2.256694
679.40 2.231841
679.50 2.232952
679.60 2.263835
679.70 2.290911
679.80 2.276678
679.90 2.265096
680.00 2.304882
680.10 2.362319
680.20 2.394697
680.30 2.397818
680.40 2.388034
680.50 2.364027
680.60 2.335301
680.70 2.337534
680.80 2.362371
680.90 2.383159
681.00 2.384273
681.10 2.397613
681.20 2.426241
681.30 2.464939
681.40 2.49954
681.50 2.495163
681.60 2.435994
681.70 2.334648
681.80 2.256882
681.90 2.260379
682.00 2.310068
682.10 2.338371
682.20 2.362725
682.30 2.364161
682.40 2.353929
682.50 2.353123
682.60 2.373079
682.70 2.400552
682.80 2.427146
682.90 2.471329
683.00 2.482919
683.10 2.471275
683.20 2.448675
683.30 2.462512
683.40 2.51023
683.50 2.527623
683.60 2.524662
683.70 2.46516
683.80 2.447763
683.90 2.482418
684.00 2.497321
684.10 2.518503
684.20 2.536133
684.30 2.548556
684.40 2.556024
684.50 2.559111
684.60 2.581613
684.70 2.575946
684.80 2.518797
684.90 2.498378
685.00 2.503816
685.10 2.484607
685.20 2.399237
685.30 2.296119
685.40 2.274918
685.50 2.321324
685.60 2.343657
685.70 2.332304
685.80 2.336452
685.90 2.348334
686.00 2.344155
686.10 2.321332
686.20 2.323795
686.30 2.359072
686.40 2.418323
686.50 2.507973
686.60 2.578959
686.70 2.578647
686.80 2.542075
686.90 2.472988
687.00 2.394783
687.10 2.348683
687.20 2.37728
687.30 2.451733
687.40 2.50823
687.50 2.557193
687.60 2.611309
687.70 2.654956
687.80 2.699752
687.90 2.733481
688.00 2.731409
688.10 2.723203
688.20 2.699181
688.30 2.662305
688.40 2.618614
688.50 2.565396
688.60 2.516945
688.70 2.500316
688.80 2.526587
688.90 2.602288
689.00 2.674445
689.10 2.702577
689.20 2.69335
689.30 2.687574
689.40 2.708407
689.50 2.761546
689.60 2.79553
689.70 2.794999
689.80 2.796554
689.90 2.772408
690.00 2.735326
690.10 2.683799
690.20 2.576755
690.30 2.47902
690.40 2.480455
690.50 2.59938
690.60 2.765879
690.70 2.918731
690.80 3.009313
690.90 3.028597
691.00 3.028508
691.10 3.037868
691.20 3.043827
691.30 3.032277
691.40 3.038478
691.50 3.093971
691.60 3.120076
691.70 3.070389
691.80 2.964662
691.90 2.800775
692.00 2.648732
692.10 2.622052
692.20 2.764493
692.30 2.99269
692.40 3.180537
692.50 3.264331
692.60 3.271445
692.70 3.268387
692.80 3.279069
692.90 3.272356
693.00 3.29186
693.10 3.33385
693.20 3.392195
693.30 3.493365
693.40 3.546394
693.50 3.552832
693.60 3.54516
693.70 3.525211
693.80 3.512417
693.90 3.517358
694.00 3.56282
694.10 3.617661
694.20 3.690613
694.30 3.762712
694.40 3.8226
694.50 3.908128
694.60 3.940314
694.70 3.958398
694.80 4.061494
694.90 4.15737
695.00 4.178264
695.10 4.127659
695.20 4.058862
695.30 3.966592
695.40 3.896575
695.50 3.87558
695.60 3.854164
695.70 3.843866
695.80 3.826835
695.90 3.820784
696.00 3.847062
696.10 3.871293
696.20 3.866448
696.30 3.866382
696.40 3.911224
696.50 3.987105
696.60 4.041381
696.70 4.061541
696.80 4.073223
696.90 4.096712
697.00 4.092643
697.10 4.044316
697.20 4.009754
697.30 3.988826
697.40 4.00655
697.50 4.051491
697.60 4.128209
697.70 4.223381
697.80 4.267575
697.90 4.268083
698.00 4.276139
698.10 4.264033
698.20 4.252565
698.30 4.307365
698.40 4.355994
698.50 4.38023
698.60 4.412292
698.70 4.424033
698.80 4.405068
698.90 4.381052
699.00 4.344109
699.10 4.291601
699.20 4.243599
699.30 4.200345
699.40 4.192517
699.50 4.231718
699.60 4.273433
699.70 4.324684
699.80 4.362172
699.90 4.357673
700.00 4.328239
700.10 4.351416
700.20 4.42749
700.30 4.489723
700.40 4.509044
700.50 4.470932
700.60 4.40212
700.70 4.387669
700.80 4.462743
700.90 4.53704
701.00 4.560194
701.10 4.552877
701.20 4.567933
701.30 4.643563
701.40 4.777598
701.50 4.89728
701.60 4.917248
701.70 4.847671
701.80 4.77953
701.90 4.784352
702.00 4.86799
702.10 4.97927
702.20 5.037869
702.30 5.008557
702.40 4.89938
702.50 4.756366
702.60 4.645499
702.70 4.639228
702.80 4.801899
702.90 5.087635
703.00 5.352364
703.10 5.475037
703.20 5.456829
703.30 5.406433
703.40 5.387943
703.50 5.439161
703.60 5.583932
703.70 5.768632
703.80 5.900531
703.90 5.930671
704.00 5.907069
704.10 5.923415
704.20 6.002001
704.30 6.124859
704.40 6.227647
704.50 6.264534
704.60 6.26418
704.70 6.259405
704.80 6.287607
704.90 6.331192
705.00 6.333637
705.10 6.361701
705.20 6.351295
705.30 6.192327
705.40 5.787477
705.50 5.074888
705.60 4.269822
705.70 3.681218
705.80 3.451199
705.90 3.509765
706.00 3.599445
706.10 3.515988
706.20 3.361151
706.30 3.2802
706.40 3.342161
706.50 3.457545
706.60 3.542709
706.70 3.635678
706.80 3.734789
706.90 3.803186
707.00 3.817684
707.10 3.853034
707.20 3.948565
707.30 4.039422
707.40 4.075565
707.50 4.076712
707.60 4.068578
707.70 4.081712
707.80 4.075882
707.90 4.065925
708.00 4.12924
708.10 4.206295
708.20 4.225895
708.30 4.238912
708.40 4.268285
708.50 4.306323
708.60 4.320098
708.70 4.17317
708.80 3.808549
708.90 3.308641
709.00 2.843064
709.10 2.579571
709.20 2.56712
709.30 2.702626
709.40 2.830587
709.50 2.856931
709.60 2.805304
709.70 2.747325
709.80 2.766654
709.90 2.86064
710.00 2.952955
710.10 2.996554
710.20 2.992784
710.30 2.975962
710.40 2.972235
710.50 2.989443
710.60 3.047719
710.70 3.127906
710.80 3.214752
710.90 3.340778
711.00 3.479362
711.10 3.580856
711.20 3.634433
711.30 3.643699
711.40 3.63801
711.50 3.637119
711.60 3.60512
711.70 3.561247
711.80 3.571934
711.90 3.649968
712.00 3.758311
712.10 3.861381
712.20 3.938504
712.30 3.97761
712.40 3.920646
712.50 3.687336
712.60 3.257533
712.70 2.730858
712.80 2.315239
712.90 2.154223
713.00 2.2061
713.10 2.303648
713.20 2.34277
713.30 2.286918
713.40 2.216386
713.50 2.216156
713.60 2.273117
713.70 2.338638
713.80 2.375927
713.90 2.366962
714.00 2.349263
714.10 2.368125
714.20 2.437303
714.30 2.547239
714.40 2.623943
714.50 2.651136
714.60 2.641387
714.70 2.601357
714.80 2.579829
714.90 2.579206
715.00 2.60177
715.10 2.655739
715.20 2.730343
715.30 2.829175
715.40 2.915343
715.50 2.980296
715.60 3.056311
715.70 3.121158
715.80 3.125117
715.90 3.04423
716.00 2.916446
716.10 2.80546
716.20 2.757545
716.30 2.795178
716.40 2.869206
716.50 2.902396
716.60 2.88952
716.70 2.880383
716.80 2.887706
716.90 2.899056
717.00 2.940477
717.10 3.006007
717.20 3.0777
717.30 3.150783
717.40 3.190984
717.50 3.173468
717.60 3.139918
717.70 3.123608
717.80 3.127847
717.90 3.176858
718.00 3.244011
718.10 3.2955
718.20 3.33514
718.30 3.379481
718.40 3.43367
718.50 3.504559
718.60 3.58306
718.70 3.621687
718.80 3.629461
718.90 3.630669
719.00 3.651338
719.10 3.703332
719.20 3.728085
719.30 3.718659
719.40 3.718404
719.50 3.760916
719.60 3.770898
719.70 3.642022
719.80 3.432509
719.90 3.279027
720.00 3.219974
720.10 3.190775
720.20 3.165992
720.30 3.165511
720.40 3.186475
720.50 3.201978
720.60 3.211287
720.70 3.225417
720.80 3.260327
720.90 3.292699
721.00 3.301367
721.10 3.320112
721.20 3.355804
721.30 3.408913
721.40 3.475139
721.50 3.517029
721.60 3.538624
721.70 3.546009
721.80 3.580476
721.90 3.674074
722.00 3.73432
722.10 3.764054
722.20 3.807578
722.30 3.836564
722.40 3.863025
722.50 3.899726
722.60 3.964346
722.70 4.069913
722.80 4.139648
722.90 4.130835
723.00 4.065331
723.10 3.994952
723.20 3.961477
723.30 3.955542
723.40 3.965677
723.50 4.010749
723.60 4.095171
723.70 4.198385
723.80 4.27939
723.90 4.342378
724.00 4.381753
724.10 4.339282
724.20 4.267089
724.30 4.270241
724.40 4.36733
724.50 4.469384
724.60 4.469682
724.70 4.435327
724.80 4.458148
724.90 4.545917
725.00 4.675491
725.10 4.775424
725.20 4.771503
725.30 4.695121
725.40 4.641421
725.50 4.682472
725.60 4.776874
725.70 4.84923
725.80 4.882785
725.90 4.881492
726.00 4.863663
726.10 4.874577
726.20 4.934984
726.30 5.042507
726.40 5.148128
726.50 5.191102
726.60 5.185973
726.70 5.19942
726.80 5.250233
726.90 5.275269
727.00 5.237609
727.10 5.134364
727.20 4.980145
727.30 4.84401
727.40 4.850822
727.50 5.041488
727.60 5.331074
727.70 5.537735
727.80 5.426697
727.90 5.126696
728.00 5.044606
728.10 5.150778
728.20 5.199188
728.30 5.225053
728.40 5.323471
728.50 5.427333
728.60 5.463721
728.70 5.490573
728.80 5.550925
728.90 5.58888
729.00 5.619593
729.10 5.660253
729.20 5.699013
729.30 5.723456
729.40 5.702349
729.50 5.676853
729.60 5.708712
729.70 5.797482
729.80 5.904193
729.90 5.947277
730.00 5.894234
730.10 5.835211
730.20 5.867633
730.30 5.974147
730.40 6.040245
730.50 6.033459
730.60 6.026623
730.70 6.066641
730.80 6.147144
730.90 6.182254
731.00 6.166717
731.10 6.159863
731.20 6.156888
731.30 6.200847
731.40 6.303313
731.50 6.409707
731.60 6.468812
731.70 6.500458
731.80 6.521898
731.90 6.529707
732.00 6.527862
732.10 6.545251
732.20 6.546193
732.30 6.536524
732.40 6.567767
732.50 6.522425
732.60 6.373253
732.70 6.210954
732.80 6.13794
732.90 6.275862
733.00 6.486391
733.10 6.59165
733.20 6.66326
733.30 6.713066
733.40 6.740882
733.50 6.789804
733.60 6.840487
733.70 6.899059
733.80 6.948193
733.90 6.985043
734.00 7.075031
734.10 7.189912
734.20 7.223158
734.30 7.151656
734.40 7.020162
734.50 6.872232
734.60 6.795023
734.70 6.81298
734.80 6.846952
734.90 6.89156
735.00 6.956281
735.10 7.02809
735.20 7.079638
735.30 7.091414
735.40 7.079212
735.50 7.044873
735.60 6.975381
735.70 6.880693
735.80 6.818346
735.90 6.85542
736.00 6.993356
736.10 7.137841
736.20 7.179857
736.30 7.14063
736.40 7.160075
736.50 7.232549
736.60 7.272053
736.70 7.314348
736.80 7.342023
736.90 7.436334
737.00 7.583492
737.10 7.595067
737.20 7.532902
737.30 7.481186
737.40 7.477167
737.50 7.482208
737.60 7.470363
737.70 7.489047
737.80 7.534464
737.90 7.592183
738.00 7.639184
738.10 7.655621
738.20 7.630201
738.30 7.576518
738.40 7.542261
738.50 7.581383
738.60 7.653574
738.70 7.703474
738.80 7.757039
738.90 7.807634
739.00 7.844482
739.10 7.850052
739.20 7.794954
739.30 7.725891
739.40 7.67744
739.50 7.639917
739.60 7.625803
739.70 7.661094
739.80 7.705596
739.90 7.739305
740.00 7.748941
740.10 7.730345
740.20 7.732535
740.30 7.782267
740.40 7.853416
740.50 7.873459
740.60 7.827448
740.70 7.719604
740.80 7.654325
740.90 7.696499
741.00 7.761857
741.10 7.801359
741.20 7.828006
741.30 7.870595
741.40 7.913077
741.50 7.926182
741.60 7.916758
741.70 7.893106
741.80 7.831769
741.90 7.737594
742.00 7.705089
742.10 7.760766
742.20 7.83227
742.30 7.878865
742.40 7.863828
742.50 7.83807
742.60 7.877896
742.70 7.948293
742.80 8.038571
742.90 8.099626
743.00 8.105614
743.10 8.13101
743.20 8.155421
743.30 8.130865
743.40 8.062509
743.50 7.971841
743.60 7.892803
743.70 7.869711
743.80 7.938561
743.90 8.111053
744.00 8.287891
744.10 8.302371
744.20 8.163234
744.30 8.035228
744.40 8.00214
744.50 8.011469
744.60 7.998298
744.70 7.958404
744.80 7.917872
744.90 7.872675
745.00 7.827218
745.10 7.835009
745.20 7.929194
745.30 8.059446
745.40 8.122649
745.50 8.091402
745.60 8.027619
745.70 8.006445
745.80 8.078126
745.90 8.174287
746.00 8.193284
746.10 8.139121
746.20 8.066126
746.30 8.018382
746.40 8.009015
746.50 8.032764
746.60 8.0844
746.70 8.135256
746.80 8.167344
746.90 8.213636
747.00 8.278394
747.10 8.347592
747.20 8.396104
747.30 8.381659
747.40 8.3026
747.50 8.198633
747.60 8.117954
747.70 8.123627
747.80 8.221709
747.90 8.318775
748.00 8.338814
748.10 8.296145
748.20 8.255154
748.30 8.265039
748.40 8.344796
748.50 8.423926
748.60 8.414039
748.70 8.340904
748.80 8.223171
748.90 8.129811
749.00 8.158605
749.10 8.218919
749.20 8.233272
749.30 8.22451
749.40 8.186676
749.50 8.150932
749.60 8.142872
749.70 8.153278
749.80 8.23606
749.90 8.399797
750.00 8.546315
750.10 8.623202
750.20 8.636132
750.30 8.598876
750.40 8.581995
750.50 8.604215
750.60 8.579021
750.70 8.467109
750.80 8.367529
750.90 8.37763
751.00 8.497786
751.10 8.629829
751.20 8.659457
751.30 8.604192
751.40 8.547114
751.50 8.56512
751.60 8.659854
751.70 8.770373
751.80 8.820163
751.90 8.762448
752.00 8.661338
752.10 8.599038
752.20 8.600893
752.30 8.679081
752.40 8.818389
752.50 8.87116
752.60 8.749302
752.70 8.540778
752.80 8.341379
752.90 8.255582
753.00 8.315642
753.10 8.476144
753.20 8.643342
753.30 8.729764
753.40 8.73888
753.50 8.685888
753.60 8.654798
753.70 8.707268
753.80 8.779831
753.90 8.875351
754.00 8.99877
754.10 9.079828
754.20 9.098563
754.30 9.070372
754.40 9.02904
754.50 9.036945
754.60 9.07673
754.70 9.083268
754.80 9.048502
754.90 9.009556
755.00 9.005164
755.10 9.025764
755.20 9.033971
755.30 9.030658
755.40 9.020938
755.50 9.001385
755.60 8.964384
755.70 8.953808
755.80 8.991045
755.90 9.010597
756.00 9.036426
756.10 9.094921
756.20 9.10068
756.30 9.054425
756.40 8.993432
756.50 8.918048
756.60 8.846797
756.70 8.778798
756.80 8.705292
756.90 8.652256
757.00 8.671708
757.10 8.788269
757.20 8.980961
757.30 9.203081
757.40 9.32025
757.50 9.312252
757.60 9.24333
757.70 9.141391
757.80 9.070045
757.90 9.021459
758.00 8.988799
758.10 9.050993
758.20 9.214276
758.30 9.357397
758.40 9.405668
758.50 9.388895
758.60 9.370847
758.70 9.337817
758.80 9.162314
758.90 8.75215
759.00 8.108576
759.10 7.428778
759.20 6.991929
759.30 6.892861
759.40 7.041804
759.50 7.233518
759.60 7.361281
759.70 7.429949
759.80 7.491893
759.90 7.589232
760.00 7.652908
760.10 7.653903
760.20 7.536637
760.30 7.329946
760.40 7.302493
760.50 7.465525
760.60 7.606417
760.70 7.635
760.80 7.516556
760.90 7.412599
761.00 7.4287
761.10 7.474797
761.20 7.579713
761.30 7.815828
761.40 8.069182
761.50 8.156804
761.60 8.07314
761.70 7.956021
761.80 8.033475
761.90 8.280304
762.00 8.48078
762.10 8.53882
762.20 8.457596
762.30 8.319259
762.40 8.242091
762.50 8.272561
762.60 8.267509
762.70 8.076251
762.80 7.659693
762.90 7.108671
763.00 6.630537
763.10 6.352363
763.20 6.327881
763.30 6.491434
763.40 6.673178
763.50 6.756208
763.60 6.702654
763.70 6.640015
763.80 6.665634
763.90 6.738496
764.00 6.765049
764.10 6.669485
764.20 6.587995
764.30 6.694958
764.40 6.847075
764.50 6.854962
764.60 6.724379
764.70 6.628614
764.80 6.739541
764.90 6.89553
765.00 6.876013
765.10 6.733459
765.20 6.632267
765.30 6.673609
765.40 6.746826
765.50 6.686057
765.60 6.56715
765.70 6.59145
765.80 6.762061
765.90 6.884732
766.00 6.761523
766.10 6.40919
766.20 5.980622
766.30 5.51431
766.40 4.951026
766.50 4.23574
766.60 3.528189
766.70 3.172182
766.80 3.304726
766.90 3.816185
767.00 4.432791
767.10 4.86947
767.20 5.02828
767.30 4.967766
767.40 4.88587
767.50 4.91085
767.60 5.040075
767.70 5.175779
767.80 5.262818
767.90 5.368925
768.00 5.473261
768.10 5.540808
768.20 5.594935
768.30 5.622588
768.40 5.631291
768.50 5.644222
768.60 5.664079
768.70 5.696816
768.80 5.750093
768.90 5.79631
769.00 5.79776
769.10 5.792054
769.20 5.807297
769.30 5.824078
769.40 5.837725
769.50 5.812029
769.60 5.671441
769.70 5.350338
769.80 4.853635
769.90 4.250206
770.00 3.715573
770.10 3.50895
770.20 3.731776
770.30 4.271812
770.40 4.84361
770.50 5.218424
770.60 5.365002
770.70 5.355868
770.80 5.332331
770.90 5.37814
771.00 5.493059
771.10 5.643869
771.20 5.787009
771.30 5.897175
771.40 5.979763
771.50 5.951463
771.60 5.843691
771.70 5.861593
771.80 5.981942
771.90 6.086846
772.00 6.071607
772.10 5.967064
772.20 5.990452
772.30 6.110538
772.40 6.183949
772.50 6.205269
772.60 6.245353
772.70 6.344852
772.80 6.426044
772.90 6.45354
773.00 6.484029
773.10 6.523734
773.20 6.549118
773.30 6.567572
773.40 6.607138
773.50 6.672976
773.60 6.733103
773.70 6.770421
773.80 6.78006
773.90 6.795327
774.00 6.83724
774.10 6.863341
774.20 6.83591
774.30 6.742175
774.40 6.597829
774.50 6.443284
774.60 6.298386
774.70 6.17701
774.80 6.087444
774.90 6.010962
775.00 5.964033
775.10 5.862584
775.20 5.670166
775.30 5.568464
775.40 5.588276
775.50 5.665616
775.60 5.781019
775.70 5.854601
775.80 5.835715
775.90 5.800949
776.00 5.864433
776.10 5.945358
776.20 5.967148
776.30 5.950414
776.40 5.893849
776.50 5.865627
776.60 5.876933
776.70 5.901306
776.80 5.987969
776.90 6.127026
777.00 6.230641
777.10 6.268414
777.20 6.273122
777.30 6.289479
777.40 6.347848
777.50 6.400936
777.60 6.420314
777.70 6.429683
777.80 6.435597
777.90 6.43008
778.00 6.439222
778.10 6.439815
778.20 6.350159
778.30 6.203488
778.40 6.067414
778.50 5.960102
778.60 5.900397
778.70 5.885295
778.80 5.905237
778.90 5.957351
779.00 6.008452
779.10 6.036068
779.20 6.094016
779.30 6.239052
779.40 6.420111
779.50 6.538069
779.60 6.563989
779.70 6.462608
779.80 6.304278
779.90 6.221734
780.00 6.180706
780.10 6.146621
780.20 6.133852
780.30 6.199345
780.40 6.389356
780.50 6.602133
780.60 6.778468
780.70 6.936165
780.80 7.048595
780.90 7.11224
781.00 7.099201
781.10 6.996159
781.20 6.898882
781.30 6.879827
781.40 6.931847
781.50 7.034601
781.60 7.137626
781.70 7.190098
781.80 7.193895
781.90 7.174712
782.00 7.178214
782.10 7.202689
782.20 7.144049
782.30 6.946455
782.40 6.74768
782.50 6.693805
782.60 6.74236
782.70 6.774167
782.80 6.702814
782.90 6.51214
783.00 6.291158
783.10 6.156483
783.20 6.128043
783.30 6.177351
783.40 6.2797
783.50 6.361418
783.60 6.393969
783.70 6.421093
783.80 6.466254
783.90 6.543867
784.00 6.623981
784.10 6.643684
784.20 6.640124
784.30 6.657526
784.40 6.661996
784.50 6.660236
784.60 6.710769
784.70 6.813073
784.80 6.902509
784.90 6.920327
785.00 6.904638
785.10 6.926231
785.20 6.994284
785.30 7.088626
785.40 7.151024
785.50 7.110947
785.60 7.025167
785.70 7.004793
785.80 7.010061
785.90 7.04284
786.00 7.12625
786.10 7.146524
786.20 7.073374
786.30 6.962048
786.40 6.837756
786.50 6.782815
786.60 6.809416
786.70 6.885163
786.80 7.028768
786.90 7.15927
787.00 7.199443
787.10 7.128955
787.20 7.006912
787.30 6.959779
787.40 6.967176
787.50 6.981492
787.60 7.029114
787.70 7.139131
787.80 7.277714
787.90 7.350879
788.00 7.372573
788.10 7.407346
788.20 7.482361
788.30 7.543552
788.40 7.521669
788.50 7.479921
788.60 7.48003
788.70 7.500255
788.80 7.533325
788.90 7.589754
789.00 7.657317
789.10 7.715311
789.20 7.742065
789.30 7.71351
789.40 7.681975
789.50 7.697267
789.60 7.703537
789.70 7.69386
789.80 7.688393
789.90 7.656057
790.00 7.582474
790.10 7.479183
790.20 7.395049
790.30 7.384733
790.40 7.453036
790.50 7.557099
790.60 7.652812
790.70 7.662541
790.80 7.528136
790.90 7.316326
791.00 7.111653
791.10 6.998866
791.20 7.054328
791.30 7.221121
791.40 7.354924
791.50 7.407772
791.60 7.397892
791.70 7.323775
791.80 7.301696
791.90 7.346142
792.00 7.374176
792.10 7.405377
792.20 7.430983
792.30 7.449751
792.40 7.436707
792.50 7.395598
792.60 7.402346
792.70 7.429028
792.80 7.457827
792.90 7.506223
793.00 7.578377
793.10 7.700078
793.20 7.829061
793.30 7.917549
793.40 7.982783
793.50 7.984291
793.60 7.922609
793.70 7.88507
793.80 7.885585
793.90 7.894071
794.00 7.881231
794.10 7.821216
794.20 7.732846
794.30 7.674652
794.40 7.712455
794.50 7.809633
794.60 7.8281
794.70 7.704562
794.80 7.514071
794.90 7.413317
795.00 7.449398
795.10 7.54566
795.20 7.692019
795.30 7.860443
795.40 7.98396
795.50 8.061327
795.60 8.119461
795.70 8.171591
795.80 8.199737
795.90 8.180085
796.00 8.125668
796.10 8.041398
796.20 7.945656
796.30 7.940648
796.40 8.135688
796.50 8.420953
796.60 8.526669
796.70 8.429195
796.80 8.287726
796.90 8.233139
797.00 8.30589
797.10 8.385399
797.20 8.412917
797.30 8.396808
797.40 8.355492
797.50 8.363644
797.60 8.408481
797.70 8.451049
797.80 8.487409
797.90 8.478582
798.00 8.439212
798.10 8.412486
798.20 8.363215
798.30 8.301212
798.40 8.286154
798.50 8.31053
798.60 8.310413
798.70 8.265575
798.80 8.211068
798.90 8.155316
799.00 8.128294
799.10 8.200433
799.20 8.367333
799.30 8.589159
799.40 8.794169
799.50 8.790284
799.60 8.589154
799.70 8.415893
799.80 8.312389
799.90 8.247303
800.00 8.265953
800.10 8.32187
800.20 8.366332
800.30 8.439995
800.40 8.527263
800.50 8.585863
800.60 8.604874
800.70 8.596253
800.80 8.595639
800.90 8.621895
801.00 8.678058
801.10 8.724294
801.20 8.73978
801.30 8.787841
801.40 8.880227
801.50 8.936572
801.60 8.927295
801.70 8.879903
801.80 8.825336
801.90 8.848998
802.00 8.937954
802.10 8.942792
802.20 8.847121
802.30 8.777395
802.40 8.766835
802.50 8.806358
802.60 8.923191
802.70 9.008
802.80 8.995634
802.90 8.995515
803.00 9.029109
803.10 9.068711
803.20 9.131405
803.30 9.177184
803.40 9.191135
803.50 9.225673
803.60 9.249581
803.70 9.214912
803.80 9.177915
803.90 9.17819
804.00 9.180169
804.10 9.159396
804.20 9.130938
804.30 9.13905
804.40 9.219528
804.50 9.322215
804.60 9.358788
804.70 9.304062
804.80 9.207191
804.90 9.148255
805.00 9.189733
805.10 9.346754
805.20 9.547075
805.30 9.694416
805.40 9.762917
805.50 9.765661
805.60 9.741388
805.70 9.735966
805.80 9.733799
805.90 9.6899
806.00 9.660989
806.10 9.744523
806.20 9.878166
806.30 9.951633
806.40 9.952807
806.50 9.87643
806.60 9.753457
806.70 9.675358
806.80 9.674124
806.90 9.674733
807.00 9.625211
807.10 9.593267
807.20 9.617871
807.30 9.676042
807.40 9.776007
807.50 9.865433
807.60 9.893181
807.70 9.918025
807.80 9.955511
807.90 9.967301
808.00 9.965623
808.10 9.96947
808.20 9.974695
808.30 9.994921
808.40 10.05647
808.50 10.12022
808.60 10.12622
808.70 10.09154
808.80 10.06434
808.90 10.07826
809.00 10.13809
809.10 10.18865
809.20 10.1914
809.30 10.19456
809.40 10.21193
809.50 10.20236
809.60 10.18152
809.70 10.16589
809.80 10.15511
809.90 10.17022
810.00 10.18864
810.10 10.17786
810.20 10.15927
810.30 10.13285
810.40 10.11159
810.50 10.13924
810.60 10.16228
810.70 10.13158
810.80 10.12522
810.90 10.18626
811.00 10.26589
811.10 10.31725
811.20 10.31677
811.30 10.30333
811.40 10.3281
811.50 10.35323
811.60 10.31036
811.70 10.16577
811.80 9.974297
811.90 9.884813
812.00 9.967132
812.10 10.15818
812.20 10.36611
812.30 10.47531
812.40 10.46134
812.50 10.43212
812.60 10.44281
812.70 10.50631
812.80 10.58191
812.90 10.58797
813.00 10.57311
813.10 10.58673
813.20 10.5736
813.30 10.53731
813.40 10.51542
813.50 10.48458
813.60 10.46128
813.70 10.49942
813.80 10.57876
813.90 10.66256
814.00 10.72247
814.10 10.7291
814.20 10.67149
814.30 10.56439
814.40 10.46309
814.50 10.4074
814.60 10.40463
814.70 10.4584
814.80 10.50727
814.90 10.46501
815.00 10.37732
815.10 10.35707
815.20 10.41665
815.30 10.51186
815.40 10.57825
815.50 10.56559
815.60 10.51384
815.70 10.48208
815.80 10.46577
815.90 10.43785
816.00 10.39461
816.10 10.35648
816.20 10.32234
816.30 10.26463
816.40 10.23369
816.50 10.26969
816.60 10.33101
816.70 10.46202
816.80 10.63626
816.90 10.70534
817.00 10.66108
817.10 10.56912
817.20 10.48503
817.30 10.46907
817.40 10.50184
817.50 10.52959
817.60 10.51914
817.70 10.43797
817.80 10.28262
817.90 10.12491
818.00 10.0269
818.10 9.839874
818.20 9.354144
818.30 8.5109
818.40 7.50649
818.50 6.859208
818.60 6.904438
818.70 7.547181
818.80 8.440312
818.90 9.135229
819.00 9.460324
819.10 9.523287
819.20 9.400142
819.30 9.038614
819.40 8.326502
819.50 7.33148
819.60 6.464239
819.70 6.137189
819.80 6.454786
819.90 7.229395
820.00 8.055991
820.10 8.674764
820.20 9.126858
820.30 9.494541
820.40 9.7647
820.50 9.887302
820.60 9.860962
820.70 9.759715
820.80 9.698953
820.90 9.716078
821.00 9.789156
821.10 9.908777
821.20 10.03569
821.30 10.11056
821.40 10.11726
821.50 10.09907
821.60 10.10866
821.70 10.12738
821.80 10.11847
821.90 10.09432
822.00 10.05997
822.10 10.03375
822.20 10.04371
822.30 10.08098
822.40 10.1376
822.50 10.2201
822.60 10.30584
822.70 10.34299
822.80 10.33958
822.90 10.34976
823.00 10.39137
823.10 10.46115
823.20 10.51214
823.30 10.47467
823.40 10.36473
823.50 10.26937
823.60 10.24124
823.70 10.30089
823.80 10.4132
823.90 10.51146
824.00 10.63467
824.10 10.77092
824.20 10.79432
824.30 10.70608
824.40 10.59067
824.50 10.50899
824.60 10.5366
824.70 10.67795
824.80 10.86791
824.90 11.04254
825.00 11.1324
825.10 11.10928
825.20 10.99805
825.30 10.8371
825.40 10.6757
825.50 10.52849
825.60 10.38241
825.70 10.23677
825.80 10.12539
825.90 10.11896
826.00 10.23321
826.10 10.43803
826.20 10.66218
826.30 10.78292
826.40 10.81233
826.50 10.84064
826.60 10.87525
826.70 10.93031
826.80 10.99549
826.90 11.00281
827.00 10.93823
827.10 10.81929
827.20 10.6403
827.30 10.41803
827.40 10.19171
827.50 10.01506
827.60 9.963677
827.70 10.03524
827.80 10.168
827.90 10.31275
828.00 10.38089
828.10 10.3694
828.20 10.34192
828.30 10.28292
828.40 10.2217
828.50 10.20254
828.60 10.21473
828.70 10.29236
828.80 10.38523
828.90 10.34193
829.00 10.14263
829.10 9.912006
829.20 9.773091
829.30 9.765707
829.40 9.807552
829.50 9.851671
829.60 9.938745
829.70 10.03384
829.80 10.13088
829.90 10.29579
830.00 10.32425
830.10 10.14705
830.20 9.969841
830.30 9.854463
830.40 9.739085
830.50 9.693423
830.60 9.647761
830.70 9.637009
830.80 9.626257
830.90 9.803872
831.00 9.981487
831.10 10.05689
831.20 10.1323
831.30 10.0933
831.40 10.0543
831.50 10.05504
831.60 10.05578
831.70 10.0606
831.80 10.06542
831.90 10.06497
832.00 10.06453
832.10 10.08079
832.20 10.09705
832.30 10.10792
832.40 10.11878
832.50 10.10122
832.60 10.08365
832.70 9.887877
832.80 9.692106
832.90 9.624023
833.00 9.55594
833.10 9.72513
833.20 9.89432
833.30 10.01788
833.40 10.14143
833.50 9.99311
833.60 9.844791
833.70 9.818865
833.80 9.79294
833.90 9.899282
834.00 10.00562
834.10 10.09351
834.20 10.1814
834.30 10.32933
834.40 10.47725
834.50 10.5392
834.60 10.60114
834.70 10.33456
834.80 10.06797
834.90 9.900155
835.00 9.732335
835.10 9.861311
835.20 9.990287
835.30 10.01199
835.40 10.0337
835.50 10.01099
835.60 9.988277
835.70 10.00097
835.80 10.01366
835.90 10.06733
836.00 10.121
836.10 10.11575
836.20 10.11049
836.30 10.00493
836.40 9.899368
836.50 9.786602
836.60 9.673835
836.70 9.74158
836.80 9.809325
836.90 9.982709
837.00 10.15609
837.10 10.22035
837.20 10.2846
837.30 10.21365
837.40 10.1427
837.50 9.969752
837.60 9.796806
837.70 9.643189
837.80 9.489572
837.90 9.488311
838.00 9.487051
838.10 9.536204
838.20 9.585357
838.30 9.524051
838.40 9.462744
838.50 9.353285
838.60 9.243826
838.70 9.157316
838.80 9.070807
838.90 9.009067
839.00 8.947328
839.10 9.12972
839.20 9.312112
839.30 9.530008
839.40 9.747904
839.50 9.718454
839.60 9.689004
839.70 9.70539
839.80 9.721775
839.90 9.800378
840.00 9.878981
840.10 9.774919
840.20 9.832133
840.30 9.93745
840.40 10.00924
840.50 10.04965
840.60 10.0919
840.70 10.14485
840.80 10.19017
840.90 10.21718
841.00 10.23893
841.10 10.15474
841.20 9.97724
841.30 9.809873
841.40 9.730652
841.50 9.654581
841.60 9.807209
841.70 10.01993
841.80 10.13619
841.90 10.18224
842.00 10.18265
842.10 10.03344
842.20 9.873227
842.30 9.838465
842.40 9.780886
842.50 9.647338
842.60 9.478765
842.70 9.354769
842.80 9.296241
842.90 9.279171
843.00 9.399979
843.10 9.533504
843.20 9.483564
843.30 9.361823
843.40 9.130986
843.50 8.626604
843.60 8.130622
843.70 7.986381
843.80 7.775557
843.90 7.971752
844.00 8.413797
844.10 8.753258
844.20 8.917037
844.30 9.09527
844.40 9.001081
844.50 8.887096
844.60 8.848675
844.70 8.814567
844.80 8.829321
844.90 8.98848
845.00 9.090135
845.10 8.908315
845.20 8.777234
845.30 8.572728
845.40 8.331817
845.50 8.175564
845.60 8.111756
845.70 8.027264
845.80 8.023331
845.90 8.012805
846.00 8.0646
846.10 8.142495
846.20 8.194918
846.30 8.224656
846.40 8.241146
846.50 8.202816
846.60 8.154505
846.70 8.029998
846.80 7.880038
846.90 7.791562
847.00 7.780918
847.10 7.779021
847.20 7.840255
847.30 7.913468
847.40 7.933111
847.50 7.947897
847.60 7.979324
847.70 8.026538
847.80 8.065615
847.90 8.112075
848.00 8.170199
848.10 8.186993
848.20 8.21322
848.30 8.275288
848.40 8.358307
848.50 8.426327
848.60 8.479551
848.70 8.530105
848.80 8.543922
848.90 8.546599
849.00 8.568314
849.10 8.61822
849.20 8.672541
849.30 8.719721
849.40 8.760264
849.50 8.72603
849.60 8.686933
849.70 8.718833
849.80 8.791893
849.90 8.854402
850.00 8.877038
850.10 8.941308
850.20 8.841135
850.30 8.723648
850.40 8.56722
850.50 8.412831
850.60 8.276355
850.70 8.179432
850.80 8.084295
850.90 8.117135
851.00 8.101078
851.10 8.141651
851.20 8.228592
851.30 8.265646
851.40 8.198
851.50 8.13136
851.60 8.00663
851.70 7.898897
851.80 7.851022
851.90 7.828621
852.00 7.847928
852.10 7.917067
852.20 7.972504
852.30 8.04319
852.40 8.077818
852.50 8.134246
852.60 8.218045
852.70 8.300283
852.80 8.387602
852.90 8.467281
853.00 8.421972
853.10 8.369989
853.20 8.392745
853.30 8.442575
853.40 8.487733
853.50 8.513121
853.60 8.523656
853.70 8.568829
853.80 8.613244
853.90 8.582223
854.00 8.510627
854.10 8.504446
854.20 8.590758
854.30 8.680228
854.40 8.658483
854.50 8.736664
854.60 8.726716
854.70 8.690089
854.80 8.690182
854.90 8.72479
855.00 8.747391
855.10 8.818123
855.20 8.882561
855.30 8.962629
855.40 9.045885
855.50 9.077916
855.60 9.054153
855.70 9.014885
855.80 8.977534
855.90 8.964679
856.00 8.853552
856.10 8.724491
856.20 8.653926
856.30 8.610582
856.40 8.594681
856.50 8.704237
856.60 8.809167
856.70 8.959634
856.80 9.13836
856.90 9.136817
857.00 9.036384
857.10 8.977431
857.20 8.980156
857.30 8.975905
857.40 8.957553
857.50 8.928637
857.60 8.970998
857.70 9.041682
857.80 9.095036
857.90 9.145492
858.00 9.195223
858.10 9.162046
858.20 9.135908
858.30 9.092277
858.40 9.042958
858.50 9.04728
858.60 9.132745
858.70 9.217036
858.80 9.256916
858.90 9.290182
859.00 9.269137
859.10 9.234554
859.20 9.190742
859.30 9.140347
859.40 9.112348
859.50 9.176305
859.60 9.220883
859.70 9.288429
859.80 9.361527
859.90 9.387243
860.00 9.366332
860.10 9.362019
860.20 9.40151
860.30 9.440176
860.40 9.484132
860.50 9.516968
860.60 9.552165
860.70 9.604157
860.80 9.634236
860.90 9.583076
861.00 9.550017
861.10 9.468773
861.20 9.382285
861.30 9.308604
861.40 9.239789
861.50 9.186984
861.60 9.204055
861.70 9.227429
861.80 9.241755
861.90 9.225188
862.00 9.25146
862.10 9.32266
862.20 9.364734
862.30 9.360745
862.40 9.375602
862.50 9.370594
862.60 9.36556
862.70 9.386955
862.80 9.439854
862.90 9.476418
863.00 9.458753
863.10 9.428926
863.20 9.389356
863.30 9.325853
863.40 9.365862
863.50 9.474957
863.60 9.555545
863.70 9.569288
863.80 9.588924
863.90 9.57951
864.00 9.593178
864.10 9.641653
864.20 9.678883
864.30 9.687616
864.40 9.690941
864.50 9.703473
864.60 9.674555
864.70 9.656742
864.80 9.627658
864.90 9.594973
865.00 9.594495
865.10 9.625439
865.20 9.650164
865.30 9.699374
865.40 9.735847
865.50 9.708972
865.60 9.675625
865.70 9.653291
865.80 9.642992
865.90 9.60794
866.00 9.530824
866.10 9.430042
866.20 9.368691
866.30 9.321763
866.40 9.35454
866.50 9.448249
866.60 9.580622
866.70 9.669753
866.80 9.763716
866.90 9.805856
867.00 9.824988
867.10 9.836262
867.20 9.833464
867.30 9.808938
867.40 9.801124
867.50 9.781586
867.60 9.69477
867.70 9.591866
867.80 9.626498
867.90 9.755863
868.00 9.855742
868.10 9.873007
868.20 9.882626
868.30 9.802283
868.40 9.708297
868.50 9.680632
868.60 9.694506
868.70 9.654555
868.80 9.541071
868.90 9.434557
869.00 9.26637
869.10 9.111259
869.20 9.036495
869.30 9.005614
869.40 8.996461
869.50 8.993025
869.60 8.985438
869.70 9.03515
869.80 9.050853
869.90 9.108055
870.00 9.176197
870.10 9.257325
870.20 9.357716
870.30 9.456261
870.40 9.530047
870.50 9.603344
870.60 9.650182
870.70 9.703998
870.80 9.690861
870.90 9.592854
871.00 9.498916
871.10 9.415731
871.20 9.327977
871.30 9.291484
871.40 9.253681
871.50 9.218846
871.60 9.205657
871.70 9.199672
871.80 9.167953
871.90 9.126537
872.00 9.233369
872.10 9.352775
872.20 9.428181
872.30 9.463428
872.40 9.488875
872.50 9.504441
872.60 9.533615
872.70 9.666666
872.80 9.764974
872.90 9.830237
873.00 9.917064
873.10 9.968265
873.20 9.895389
873.30 9.834501
873.40 9.744303
873.50 9.635092
873.60 9.599149
873.70 9.586236
873.80 9.586107
873.90 9.623389
874.00 9.67714
874.10 9.811286
874.20 9.917183
874.30 10.03682
874.40 10.1489
874.50 10.20349
874.60 10.21184
874.70 10.22246
874.80 10.1087
874.90 10.02339
875.00 10.01086
875.10 9.967493
875.20 9.979633
875.30 10.10207
875.40 10.19983
875.50 10.20236
875.60 10.22583
875.70 10.19902
875.80 10.13671
875.90 10.16065
876.00 10.26667
876.10 10.34651
876.20 10.3616
876.30 10.41018
876.40 10.41403
876.50 10.41163
876.60 10.29075
876.70 10.07646
876.80 9.942216
876.90 10.02044
877.00 10.05325
877.10 10.17762
877.20 10.31073
877.30 10.38948
877.40 10.44413
877.50 10.51801
877.60 10.60912
877.70 10.72064
877.80 10.6555
877.90 10.65558
878.00 10.59559
878.10 10.45378
878.20 10.37318
878.30 10.46119
878.40 10.52036
878.50 10.58462
878.60 10.66522
878.70 10.70031
878.80 10.72057
878.90 10.74594
879.00 10.78209
879.10 10.80799
879.20 10.82698
879.30 10.84588
879.40 10.84255
879.50 10.82996
879.60 10.85527
879.70 10.92704
879.80 10.96342
879.90 10.97645
880.00 11.05215
880.10 10.81042
880.20 10.53107
880.30 10.33182
880.40 10.16007
880.50 9.967942
880.60 9.946626
880.70 9.914869
880.80 9.973911
880.90 10.05785
881.00 10.2099
881.10 10.37308
881.20 10.53613
881.30 10.75982
881.40 10.98526
881.50 11.10697
881.60 11.23529
881.70 11.28301
881.80 11.26183
881.90 11.23052
882.00 11.21854
882.10 11.23834
882.20 11.01202
882.30 10.80626
882.40 10.55281
882.50 10.24538
882.60 10.03278
882.70 9.999185
882.80 9.975585
882.90 10.23234
883.00 10.47386
883.10 10.71499
883.20 10.95816
883.30 11.12227
883.40 11.20408
883.50 11.29744
883.60 11.32029
883.70 11.32858
883.80 11.26335
883.90 11.17887
884.00 11.13236
884.10 11.11477
884.20 11.09967
884.30 11.16005
884.40 11.27774
884.50 11.20933
884.60 11.1141
884.70 11.02261
884.80 10.91132
884.90 10.79091
885.00 10.75453
885.10 10.68264
885.20 10.8503
885.30 11.00081
885.40 11.12144
885.50 11.29991
885.60 11.43631
885.70 11.35616
885.80 11.34231
885.90 11.08209
886.00 10.82702
886.10 10.51019
886.20 10.13213
886.30 9.85997
886.40 9.797053
886.50 9.660844
886.60 9.837642
886.70 10.01751
886.80 10.03067
886.90 10.03894
887.00 9.972034
887.10 9.731587
887.20 9.527697
887.30 9.37368
887.40 9.129029
887.50 9.143459
887.60 9.211705
887.70 9.310177
887.80 9.478081
887.90 9.642297
888.00 9.788512
888.10 9.964251
888.20 9.977504
888.30 10.0079
888.40 10.01072
888.50 9.929278
888.60 9.848285
888.70 9.838809
888.80 9.790314
888.90 9.850562
889.00 9.926667
889.10 10.00964
889.20 10.10384
889.30 10.16994
889.40 10.12826
889.50 10.09713
889.60 10.00983
889.70 9.937343
889.80 9.910391
889.90 9.867224
890.00 9.840277
890.10 9.954555
890.20 10.02909
890.30 10.181
890.40 10.36829
890.50 10.46024
890.60 10.53738
890.70 10.60499
890.80 10.62964
890.90 10.65055
891.00 10.5737
891.10 10.50279
891.20 10.45421
891.30 10.37927
891.40 10.35705
891.50 10.454
891.60 10.52617
891.70 10.54609
891.80 10.59706
891.90 10.58693
892.00 10.55688
892.10 10.54356
892.20 10.55959
892.30 10.57227
892.40 10.50765
892.50 10.45492
892.60 10.4654
892.70 10.47542
892.80 10.49409
892.90 10.51665
893.00 10.53659
893.10 10.59164
893.20 10.61314
893.30 10.68541
893.40 10.78464
893.50 10.83059
893.60 10.8943
893.70 10.90807
893.80 10.70579
893.90 10.55449
894.00 10.44378
894.10 10.24043
894.20 10.16665
894.30 10.15849
894.40 10.16482
894.50 10.19393
894.60 10.21134
894.70 10.2359
894.80 10.2417
894.90 10.26578
895.00 10.32839
895.10 10.3806
895.20 10.39419
895.30 10.423
895.40 10.38686
895.50 10.30554
895.60 10.33726
895.70 10.40702
895.80 10.47537
895.90 10.53975
896.00 10.60322
896.10 10.59594
896.20 10.59732
896.30 10.54993
896.40 10.49025
896.50 10.4298
896.60 10.4003
896.70 10.41083
896.80 10.45356
896.90 10.4596
897.00 10.52335
897.10 10.57343
897.20 10.57279
897.30 10.56521
897.40 10.58099
897.50 10.60994
897.60 10.62718
897.70 10.72394
897.80 10.82349
897.90 10.82019
898.00 10.79233
898.10 10.79517
898.20 10.77714
898.30 10.74631
898.40 10.87016
898.50 10.91546
898.60 10.99045
898.70 11.1136
898.80 11.14574
898.90 11.05967
899.00 11.01654
899.10 10.94649
899.20 10.85903
899.30 10.90663
899.40 10.97397
899.50 11.00573
899.60 11.00937
899.70 10.98268
899.80 10.90629
899.90 10.84561
900.00 10.7045
900.10 10.51992
900.20 10.49427
900.30 10.61263
900.40 10.74326
900.50 10.97678
900.60 11.21228
900.70 11.24149
900.80 11.32674
900.90 11.23146
901.00 11.00545
901.10 10.8536
901.20 10.82004
901.30 10.73209
901.40 10.7633
901.50 10.82405
901.60 10.82934
901.70 10.84292
901.80 10.82707
901.90 10.6978
902.00 10.54436
902.10 10.4903
902.20 10.4561
902.30 10.45878
902.40 10.47125
902.50 10.45332
902.60 10.38144
902.70 10.30016
902.80 10.23112
902.90 10.15582
903.00 10.26167
903.10 10.40294
903.20 10.55693
903.30 10.71063
903.40 10.84401
903.50 10.94692
903.60 11.06065
903.70 11.08255
903.80 11.08434
903.90 11.12405
904.00 11.22169
904.10 11.30431
904.20 11.29529
904.30 11.32256
904.40 11.28026
904.50 11.19966
904.60 11.17471
904.70 11.17763
904.80 11.19173
904.90 11.29555
905.00 11.42051
905.10 11.3372
905.20 11.31735
905.30 11.26591
905.40 11.1752
905.50 11.09627
905.60 11.04717
905.70 10.99769
905.80 11.06319
905.90 11.12218
906.00 11.14612
906.10 11.14658
906.20 11.15169
906.30 11.18886
906.40 11.201
906.50 11.18597
906.60 11.20922
906.70 11.20611
906.80 11.1953
906.90 11.18456
907.00 11.15394
907.10 11.10451
907.20 11.08707
907.30 11.05186
907.40 11.04101
907.50 11.05067
907.60 11.09432
907.70 11.15667
907.80 11.25229
907.90 11.40313
908.00 11.51327
908.10 11.55055
908.20 11.6397
908.30 11.60996
908.40 11.49013
908.50 11.39307
908.60 11.36467
908.70 11.32671
908.80 11.17422
908.90 11.04118
909.00 10.97973
909.10 10.90619
909.20 10.90203
909.30 11.02864
909.40 11.1556
909.50 11.32464
909.60 11.50891
909.70 11.57433
909.80 11.60347
909.90 11.60008
910.00 11.5725
910.10 11.5552
910.20 11.58999
910.30 11.6481
910.40 11.61295
910.50 11.586
910.60 11.54098
910.70 11.45088
910.80 11.3611
910.90 11.32584
911.00 11.24838
911.10 11.34464
911.20 11.46661
911.30 11.59573
911.40 11.74834
911.50 11.83626
911.60 11.76674
911.70 11.72852
911.80 11.65347
911.90 11.54833
912.00 11.49363
912.10 11.45536
912.20 11.46702
912.30 11.57594
912.40 11.68415
912.50 11.66845
912.60 11.66515
912.70 11.65442
912.80 11.63495
912.90 11.63925
913.00 11.68122
913.10 11.72048
913.20 11.74217
913.30 11.74835
913.40 11.74946
913.50 11.76377
913.60 11.76151
913.70 11.75539
913.80 11.75024
913.90 11.57845
914.00 11.42179
914.10 11.41772
914.20 11.353
914.30 11.34128
914.40 11.37755
914.50 11.42369
914.60 11.55018
914.70 11.70275
914.80 11.66794
914.90 11.67201
915.00 11.67665
915.10 11.65068
915.20 11.64304
915.30 11.68941
915.40 11.68352
915.50 11.685
915.60 11.68073
915.70 11.77396
915.80 11.95003
915.90 12.04601
916.00 11.96261
916.10 11.90739
916.20 11.85123
916.30 11.80145
916.40 11.79023
916.50 11.74321
916.60 11.75058
916.70 11.85646
916.80 11.92996
916.90 11.91716
917.00 11.94781
917.10 11.94302
917.20 11.93085
917.30 11.90769
917.40 11.86447
917.50 11.82229
917.60 11.77121
917.70 11.71636
917.80 11.76376
917.90 11.8165
918.00 11.8754
918.10 11.9178
918.20 11.94759
918.30 12.00236
918.40 12.08196
918.50 11.94786
918.60 11.82547
918.70 11.80915
918.80 11.799
918.90 11.82476
919.00 11.97847
919.10 12.10322
919.20 12.10847
919.30 12.21827
919.40 12.16332
919.50 12.04922
919.60 11.986
919.70 11.96999
919.80 11.9156
919.90 12.00162
920.00 12.11258
920.10 12.10586
920.20 12.09518
920.30 12.11504
920.40 12.15852
920.50 12.16427
920.60 12.1063
920.70 12.07435
920.80 11.92448
920.90 11.81293
921.00 11.711
921.10 11.54442
921.20 11.43471
921.30 11.58662
921.40 11.7173
921.50 11.84551
921.60 11.99534
921.70 12.02033
921.80 11.99715
921.90 11.96698
922.00 11.89466
922.10 11.84883
922.20 11.86388
922.30 11.88064
922.40 11.85362
922.50 11.78588
922.60 11.73209
922.70 11.732
922.80 11.72481
922.90 11.72258
923.00 11.75645
923.10 11.64367
923.20 11.4996
923.30 11.37262
923.40 11.23115
923.50 11.09006
923.60 11.13404
923.70 11.19568
923.80 11.27349
923.90 11.3532
924.00 11.39308
924.10 11.37366
924.20 11.37058
924.30 11.50691
924.40 11.65235
924.50 11.63279
924.60 11.67305
924.70 11.65645
924.80 11.58461
924.90 11.51722
925.00 11.4434
925.10 11.33419
925.20 11.26061
925.30 11.1771
925.40 11.19554
925.50 11.22381
925.60 11.26063
925.70 11.35926
925.80 11.45951
925.90 11.53306
926.00 11.67753
926.10 11.70319
926.20 11.69435
926.30 11.69994
926.40 11.68275
926.50 11.65317
926.60 11.74926
926.70 11.80907
926.80 11.83206
926.90 11.89343
927.00 11.87229
927.10 11.78538
927.20 11.73606
927.30 11.72099
927.40 11.70371
927.50 11.60931
927.60 11.50333
927.70 11.3976
927.80 11.30375
927.90 11.23022
928.00 11.15451
928.10 11.05152
928.20 11.13812
928.30 11.20187
928.40 11.24713
928.50 11.30484
928.60 11.34164
928.70 11.35788
928.80 11.40602
928.90 11.33174
929.00 11.22359
929.10 11.10583
929.20 10.98946
929.30 10.95962
929.40 11.01254
929.50 11.05465
929.60 11.066
929.70 11.07714
929.80 11.0704
929.90 11.09426
930.00 11.11726
930.10 11.1165
930.20 11.09983
930.30 11.02608
930.40 10.93501
930.50 10.96146
930.60 11.00608
930.70 11.08195
930.80 11.14293
930.90 11.12475
931.00 11.07754
931.10 11.03533
931.20 11.12685
931.30 11.24766
931.40 11.34714
931.50 11.41323
931.60 11.49797
931.70 11.4248
931.80 11.26822
931.90 11.14932
932.00 11.12905
932.10 11.10299
932.20 11.0731
932.30 11.1724
932.40 11.26726
932.50 11.28321
932.60 11.16239
932.70 11.06527
932.80 11.03108
932.90 11.02372
933.00 11.00145
933.10 11.10622
933.20 11.23106
933.30 11.31095
933.40 11.2261
933.50 11.14235
933.60 11.09627
933.70 11.07632
933.80 11.05273
933.90 11.10059
934.00 11.17311
934.10 11.25116
934.20 11.37784
934.30 11.51794
934.40 11.53161
934.50 11.3255
934.60 11.12487
934.70 11.03307
934.80 10.99309
934.90 10.9524
935.00 11.05368
935.10 11.17834
935.20 11.27087
935.30 11.26296
935.40 11.24458
935.50 11.2107
935.60 11.159
935.70 11.09649
935.80 11.04292
935.90 10.97306
936.00 10.90973
936.10 10.96276
936.20 11.0119
936.30 11.06685
936.40 11.13467
936.50 11.24436
936.60 11.27768
936.70 11.26197
936.80 11.2576
936.90 11.16025
937.00 11.05534
937.10 10.93556
937.20 10.77038
937.30 10.57085
937.40 10.54162
937.50 10.71691
937.60 10.86057
937.70 10.98531
937.80 11.11005
937.90 11.23114
938.00 11.15237
938.10 11.10506
938.20 11.09109
938.30 11.10456
938.40 11.09137
938.50 11.12228
938.60 11.19581
938.70 11.26308
938.80 11.20257
938.90 11.12533
939.00 11.08079
939.10 11.13175
939.20 11.16994
939.30 11.20852
939.40 11.25582
939.50 11.3165
939.60 11.27877
939.70 11.22123
939.80 11.1736
939.90 11.14429
940.00 11.07501
940.10 11.01011
940.20 10.98834
940.30 10.96705
940.40 11.01356
940.50 11.09427
940.60 11.17257
940.70 11.26143
940.80 11.34777
940.90 11.40806
941.00 11.37843
941.10 11.37967
941.20 11.35279
941.30 11.28074
941.40 11.23804
941.50 11.22212
941.60 11.20729
941.70 11.17367
941.80 11.12841
941.90 11.06197
942.00 11.03256
942.10 11.06922
942.20 11.11049
942.30 11.16407
942.40 11.23837
942.50 11.31712
942.60 11.37722
942.70 11.44041
942.80 11.47459
942.90 11.36062
943.00 11.23617
943.10 11.19031
943.20 11.24964
943.30 11.28977
943.40 11.40103
943.50 11.5541
943.60 11.71517
943.70 11.68263
943.80 11.67095
943.90 11.62905
944.00 11.50668
944.10 11.37558
944.20 11.25635
944.30 11.13378
944.40 11.00864
944.50 10.96455
944.60 10.91448
944.70 10.8528
944.80 10.85397
944.90 10.86387
945.00 10.91651
945.10 11.0038
945.20 11.08005
945.30 11.15761
945.40 11.25026
945.50 11.34077
945.60 11.31866
945.70 11.30566
945.80 11.29579
945.90 11.26636
946.00 11.22325
946.10 11.17894
946.20 11.12687
946.30 11.07786
946.40 11.11572
946.50 11.19776
946.60 11.28681
946.70 11.38053
946.80 11.45287
946.90 11.47842
947.00 11.44717
947.10 11.41963
947.20 11.43036
947.30 11.46528
947.40 11.49851
947.50 11.50401
947.60 11.50229
947.70 11.51413
947.80 11.55999
947.90 11.59418
948.00 11.63996
948.10 11.69401
948.20 11.76248
948.30 11.66747
948.40 11.5436
948.50 11.46147
948.60 11.56331
948.70 11.67352
948.80 11.7359
948.90 11.7305
949.00 11.70839
949.10 11.72495
949.20 11.77195
949.30 11.82067
949.40 11.78124
949.50 11.76382
949.60 11.73285
949.70 11.64298
949.80 11.50576
949.90 11.50029
950.00 11.59425
950.10 11.68627
950.20 11.60297
950.30 11.50836
950.40 11.44985
950.50 11.48009
950.60 11.5091
950.70 11.54132
950.80 11.58353
950.90 11.61387
951.00 11.63481
951.10 11.6622
951.20 11.69082
951.30 11.71735
951.40 11.76094
951.50 11.77951
951.60 11.73182
951.70 11.66079
951.80 11.60262
951.90 11.54975
952.00 11.49655
952.10 11.51405
952.20 11.52749
952.30 11.53754
952.40 11.55867
952.50 11.56616
952.60 11.60449
952.70 11.68575
952.80 11.78447
952.90 11.78504
953.00 11.75509
953.10 11.73132
953.20 11.71901
953.30 11.72323
953.40 11.73123
953.50 11.74183
953.60 11.75287
953.70 11.7366
953.80 11.68835
953.90 11.63831
954.00 11.65635
954.10 11.68194
954.20 11.69294
954.30 11.67988
954.40 11.66274
954.50 11.58657
954.60 11.44755
954.70 11.34436
954.80 11.33765
954.90 11.34303
955.00 11.34671
955.10 11.49932
955.20 11.65561
955.30 11.76684
955.40 11.79425
955.50 11.82495
955.60 11.79647
955.70 11.73061
955.80 11.66373
955.90 11.69249
956.00 11.74114
956.10 11.79235
956.20 11.83222
956.30 11.90849
956.40 11.96194
956.50 11.9733
956.60 11.96515
956.70 11.87904
956.80 11.76644
956.90 11.66272
957.00 11.69739
957.10 11.74475
957.20 11.74994
957.30 11.70135
957.40 11.68965
957.50 11.65807
957.60 11.60077
957.70 11.54046
957.80 11.62267
957.90 11.69121
958.00 11.72241
958.10 11.68392
958.20 11.63474
958.30 11.60124
958.40 11.58338
958.50 11.58975
958.60 11.67026
958.70 11.78612
958.80 11.88907
958.90 11.86564
959.00 11.84508
959.10 11.80871
959.20 11.7399
959.30 11.62514
959.40 11.55881
959.50 11.53863
959.60 11.52704
959.70 11.46307
959.80 11.42006
959.90 11.3253
960.00 11.11617
960.10 10.86435
960.20 10.85698
960.30 11.02354
960.40 11.15294
960.50 11.29111
960.60 11.46826
960.70 11.6285
960.80 11.62666
960.90 11.64805
961.00 11.67751
961.10 11.71043
961.20 11.75032
961.30 11.73119
961.40 11.68249
961.50 11.63138
961.60 11.64039
961.70 11.62117
961.80 11.62146
961.90 11.70564
962.00 11.8023
962.10 11.84634
962.20 11.86151
962.30 11.88818
962.40 11.89389
962.50 11.87746
962.60 11.84566
962.70 11.81021
962.80 11.80012
962.90 11.79508
963.00 11.78308
963.10 11.77325
963.20 11.79176
963.30 11.83195
963.40 11.86862
963.50 11.84784
963.60 11.86118
963.70 11.70833
963.80 11.24054
963.90 10.79544
964.00 10.57077
964.10 10.41538
964.20 10.22652
964.30 10.55011
964.40 10.9474
964.50 11.2304
964.60 11.10457
964.70 11.05746
964.80 10.95243
964.90 10.78905
965.00 10.6261
965.10 10.74766
965.20 10.94267
965.30 11.12897
965.40 11.27825
965.50 11.42235
965.60 11.53575
965.70 11.6102
965.80 11.69629
965.90 11.75125
966.00 11.78905
966.10 11.80871
966.20 11.81618
966.30 11.83432
966.40 11.83167
966.50 11.74455
966.60 11.67976
966.70 11.65518
966.80 11.6529
966.90 11.64673
967.00 11.60404
967.10 11.56184
967.20 11.50894
967.30 11.39709
967.40 11.32738
967.50 11.17414
967.60 10.89643
967.70 10.62162
967.80 10.62799
967.90 10.69719
968.00 10.74004
968.10 11.03596
968.20 11.37526
968.30 11.62165
968.40 11.61366
968.50 11.66564
968.60 11.6339
968.70 11.55181
968.80 11.467
968.90 11.30822
969.00 11.09189
969.10 10.93283
969.20 11.11034
969.30 11.23398
969.40 11.36724
969.50 11.5225
969.60 11.70696
969.70 11.81714
969.80 11.91924
969.90 12.02574
970.00 11.99568
970.10 11.9688
970.20 11.89944
970.30 11.75007
970.40 11.63896
970.50 11.41947
970.60 11.12101
970.70 10.84222
970.80 10.85897
970.90 10.82471
971.00 10.85276
971.10 11.18523
971.20 11.51922
971.30 11.73999
971.40 11.8548
971.50 11.99371
971.60 11.97172
971.70 11.93041
971.80 11.89207
971.90 11.76993
972.00 11.65648
972.10 11.6029
972.20 11.63926
972.30 11.64582
972.40 11.67786
972.50 11.73323
972.60 11.77736
972.70 11.54717
972.80 11.34521
972.90 11.17459
973.00 11.05047
973.10 10.88175
973.20 10.90354
973.30 11.07249
973.40 11.1901
973.50 11.28767
973.60 11.40442
973.70 11.49969
973.80 11.46926
973.90 11.44319
974.00 11.4577
974.10 11.5301
974.20 11.61198
974.30 11.51912
974.40 11.35926
974.50 11.23251
974.60 11.23059
974.70 11.17941
974.80 11.17582
974.90 11.29844
975.00 11.41379
975.10 11.53227
975.20 11.65077
975.30 11.76912
975.40 11.75939
975.50 11.72661
975.60 11.69694
975.70 11.68024
975.80 11.6778
975.90 11.69415
976.00 11.73693
976.10 11.78375
976.20 11.76845
976.30 11.72402
976.40 11.68316
976.50 11.7517
976.60 11.80617
976.70 11.81473
976.80 11.7486
976.90 11.73358
977.00 11.58263
977.10 11.35974
977.20 11.1543
977.30 11.21204
977.40 11.22371
977.50 11.25632
977.60 11.38976
977.70 11.53349
977.80 11.61426
977.90 11.65752
978.00 11.7278
978.10 11.59347
978.20 11.44643
978.30 11.28115
978.40 10.95323
978.50 10.58819
978.60 10.33667
978.70 10.25217
978.80 10.12346
978.90 10.25855
979.00 10.48095
979.10 10.69175
979.20 10.93961
979.30 11.17935
979.40 11.3754
979.50 11.48999
979.60 11.67234
979.70 11.78365
979.80 11.83544
979.90 11.89468
980.00 11.89474
980.10 11.88822
980.20 11.87563
980.30 11.8581
980.40 11.85167
980.50 11.84651
980.60 11.8409
980.70 11.8353
980.80 11.81687
980.90 11.78167
981.00 11.74297
981.10 11.78263
981.20 11.83125
981.30 11.84624
981.40 11.79785
981.50 11.78177
981.60 11.76728
981.70 11.72956
981.80 11.68121
981.90 11.70228
982.00 11.72042
982.10 11.72541
982.20 11.706
982.30 11.6976
982.40 11.70485
982.50 11.72365
982.60 11.7337
982.70 11.72971
982.80 11.7344
982.90 11.74129
983.00 11.71078
983.10 11.68885
983.20 11.66533
983.30 11.64394
983.40 11.61408
983.50 11.56808
983.60 11.51804
983.70 11.48105
983.80 11.49455
983.90 11.47893
984.00 11.47521
984.10 11.53634
984.20 11.60247
984.30 11.6431
984.40 11.67738
984.50 11.72844
984.60 11.74605
984.70 11.73463
984.80 11.71101
984.90 11.68216
985.00 11.68943
985.10 11.68822
985.20 11.66176
985.30 11.63249
985.40 11.66964
985.50 11.6987
985.60 11.70623
985.70 11.71081
985.80 11.74384
985.90 11.76167
986.00 11.7419
986.10 11.72956
986.20 11.71769
986.30 11.70167
986.40 11.67394
986.50 11.66987
986.60 11.67785
986.70 11.69201
986.80 11.67528
986.90 11.68306
987.00 11.69017
987.10 11.68563
987.20 11.65193
987.30 11.70127
987.40 11.75403
987.50 11.79186
987.60 11.7927
987.70 11.83337
987.80 11.82492
987.90 11.74479
988.00 11.67822
988.10 11.6741
988.20 11.66136
988.30 11.63153
988.40 11.69432
988.50 11.74649
988.60 11.78882
988.70 11.81987
988.80 11.89465
988.90 11.90144
989.00 11.87275
989.10 11.84735
989.20 11.80743
989.30 11.78291
989.40 11.73199
989.50 11.55389
989.60 11.44992
989.70 11.24827
989.80 10.92996
989.90 10.58418
990.00 10.45537
990.10 10.35067
990.20 10.22283
990.30 10.08404
990.40 9.997037
990.50 9.865492
990.60 9.654013
990.70 9.414127
990.80 9.306086
990.90 9.21343
991.00 9.096368
991.10 9.192307
991.20 9.294723
991.30 9.331497
991.40 9.217809
991.50 9.158546
991.60 9.11419
991.70 9.057166
991.80 8.969168
991.90 9.120145
992.00 9.276172
992.10 9.394061
992.20 9.41537
992.30 9.524554
992.40 9.546831
992.50 9.452969
992.60 9.344665
992.70 9.390928
992.80 9.439347
992.90 9.470492
993.00 9.681907
993.10 9.911305
993.20 10.0505
993.30 10.03592
993.40 10.11511
993.50 10.13146
993.60 10.07821
993.70 9.979161
993.80 10.15731
993.90 10.30994
994.00 10.44056
994.10 10.52774
994.20 10.68942
994.30 10.70008
994.40 10.60205
994.50 10.5292
994.60 10.53495
994.70 10.52526
994.80 10.51706
994.90 10.58188
995.00 10.62519
995.10 10.69921
995.20 10.80893
995.30 10.92953
995.40 10.95699
995.50 10.99138
995.60 11.03908
995.70 10.8915
995.80 10.74909
995.90 10.64375
996.00 10.60619
996.10 10.53081
996.20 10.57923
996.30 10.66409
996.40 10.70291
996.50 10.87792
996.60 11.07834
996.70 11.21018
996.80 11.09955
996.90 11.14597
997.00 11.04019
997.10 10.78698
997.20 10.51826
997.30 10.43085
997.40 10.30655
997.50 10.18038
997.60 10.31985
997.70 10.43581
997.80 10.53907
997.90 10.62976
998.00 10.73319
998.10 10.80717
998.20 10.90632
998.30 11.01288
998.40 10.86876
998.50 10.73844
998.60 10.63903
998.70 10.58399
998.80 10.48058
998.90 10.46634
999.00 10.51626
999.10 10.57886
999.20 10.65464
999.30 10.69849
999.40 10.71877
999.50 10.73831
999.60 10.78198
999.70 10.77762
999.80 10.72505
999.90 10.66448
1000.00 10.73369
1000.10 10.79264
1000.20 10.83272
1000.30 10.91013
1000.40 11.02751
1000.50 11.10088
1000.60 11.09834
1000.70 11.15026
1000.80 11.06119
1000.90 10.92967
1001.00 10.82226
1001.10 10.77079
1001.20 10.65992
1001.30 10.61257
1001.40 10.76787
1001.50 10.85739
1001.60 10.98538
1001.70 11.15123
1001.80 11.32761
1001.90 11.28802
1002.00 11.27725
1002.10 11.27453
1002.20 11.22253
1002.30 11.12548
1002.40 11.09431
1002.50 11.13394
1002.60 11.17278
1002.70 11.18136
1002.80 11.2249
1002.90 11.28151
1003.00 11.22912
1003.10 11.13923
1003.20 11.06552
1003.30 11.03833
1003.40 11.03626
1003.50 10.98426
1003.60 10.90447
1003.70 10.827
1003.80 10.88149
1003.90 10.88312
1004.00 10.91496
1004.10 11.04952
1004.20 11.15272
1004.30 11.21938
1004.40 11.28393
1004.50 11.37996
1004.60 11.37556
1004.70 11.40008
1004.80 11.40339
1004.90 11.29207
1005.00 11.24613
1005.10 11.14688
1005.20 10.97689
1005.30 10.79352
1005.40 10.65732
1005.50 10.48294
1005.60 10.29898
1005.70 10.32137
1005.80 10.28985
1005.90 10.28518
1006.00 10.33938
1006.10 10.40809
1006.20 10.43976
1006.30 10.47866
1006.40 10.54509
1006.50 10.62261
1006.60 10.65249
1006.70 10.69947
1006.80 10.83485
1006.90 10.97453
1007.00 11.06185
1007.10 11.15453
1007.20 11.30127
1007.30 11.29665
1007.40 11.22437
1007.50 11.17365
1007.60 11.26523
1007.70 11.31984
1007.80 11.33802
1007.90 11.34553
1008.00 11.39252
1008.10 11.3898
1008.20 11.36436
1008.30 11.34136
1008.40 11.3664
1008.50 11.37936
1008.60 11.35895
1008.70 11.3085
1008.80 11.31914
1008.90 11.25099
1009.00 11.1516
1009.10 11.06317
1009.20 11.08169
1009.30 11.04635
1009.40 11.03519
1009.50 11.13068
1009.60 11.18096
1009.70 11.25648
1009.80 11.34203
1009.90 11.41908
1010.00 11.51845
1010.10 11.62871
1010.20 11.72316
1010.30 11.73677
1010.40 11.82552
1010.50 11.83886
1010.60 11.77189
1010.70 11.72417
1010.80 11.62121
1010.90 11.50544
1011.00 11.39706
1011.10 11.29961
1011.20 11.20513
1011.30 11.14484
1011.40 11.13358
1011.50 11.07971
1011.60 11.0299
1011.70 10.98727
1011.80 10.94904
1011.90 10.95395
1012.00 10.8958
1012.10 10.90404
1012.20 11.12893
1012.30 11.34959
1012.40 11.45941
1012.50 11.51435
1012.60 11.60256
1012.70 11.57882
1012.80 11.55888
1012.90 11.53863
1013.00 11.52664
1013.10 11.51177
1013.20 11.48118
1013.30 11.44779
1013.40 11.46865
1013.50 11.3314
1013.60 11.16969
1013.70 11.02285
1013.80 10.95301
1013.90 10.78163
1014.00 10.70514
1014.10 10.79172
1014.20 10.82839
1014.30 10.90951
1014.40 11.04024
1014.50 11.17354
1014.60 11.08515
1014.70 11.03443
1014.80 11.02739
1014.90 11.05302
1015.00 10.97902
1015.10 11.05281
1015.20 11.21075
1015.30 11.36576
1015.40 11.32298
1015.50 11.36209
1015.60 11.37019
1015.70 11.17842
1015.80 10.96789
1015.90 10.88172
1016.00 10.87393
1016.10 10.81085
1016.20 10.88172
1016.30 10.98163
1016.40 11.07657
1016.50 11.08707
1016.60 11.07485
1016.70 11.07802
1016.80 11.12102
1016.90 11.21967
1017.00 11.14042
1017.10 11.0204
1017.20 10.9304
1017.30 11.01772
1017.40 11.00529
1017.50 11.05717
1017.60 11.2696
1017.70 11.54446
1017.80 11.52088
1017.90 11.39784
1018.00 11.33843
1018.10 11.25201
1018.20 11.12012
1018.30 10.98612
1018.40 10.90811
1018.50 10.8406
1018.60 10.8254
1018.70 10.82436
1018.80 10.77436
1018.90 10.89396
1019.00 11.01011
1019.10 11.09629
1019.20 11.11476
1019.30 11.18774
1019.40 11.21365
1019.50 11.18006
1019.60 11.151
1019.70 11.157
1019.80 11.17664
1019.90 11.19381
1020.00 11.14117
1020.10 11.09439
1020.20 11.07943
1020.30 11.10976
1020.40 11.10394
1020.50 11.16253
1020.60 11.24659
1020.70 11.32403
1020.80 11.34942
1020.90 11.39723
1021.00 11.42107
1021.10 11.37671
1021.20 11.37753
1021.30 11.30609
1021.40 11.17466
1021.50 11.04256
1021.60 11.01892
1021.70 10.99981
1021.80 10.96355
1021.90 10.87636
1022.00 10.76352
1022.10 10.72805
1022.20 10.76752
1022.30 10.75145
1022.40 10.88115
1022.50 11.05222
1022.60 11.20181
1022.70 11.19408
1022.80 11.22867
1022.90 11.24461
1023.00 11.20924
1023.10 11.19724
1023.20 11.15421
1023.30 11.08243
1023.40 11.00426
1023.50 11.07894
1023.60 11.1135
1023.70 11.13639
1023.80 11.17632
1023.90 11.25031
1024.00 11.30021
1024.10 11.31817
1024.20 11.32645
1024.30 11.37309
1024.40 11.47531
1024.50 11.56048
1024.60 11.48126
1024.70 11.40787
1024.80 11.35392
1024.90 11.32024
1025.00 11.27856
1025.10 11.19652
1025.20 11.11628
1025.30 11.05684
1025.40 11.04526
1025.50 10.97189
1025.60 10.95197
1025.70 11.01893
1025.80 11.11815
1025.90 11.02652
1026.00 10.90654
1026.10 10.81886
1026.20 10.73018
1026.30 10.57478
1026.40 10.51867
1026.50 10.65871
1026.60 10.71606
1026.70 10.84182
1026.80 11.00256
1026.90 11.15985
1027.00 11.18349
1027.10 11.27464
1027.20 11.33222
1027.30 11.25325
1027.40 11.224
1027.50 11.18034
1027.60 11.11653
1027.70 11.02322
1027.80 11.02091
1027.90 11.01912
1028.00 11.00218
1028.10 10.90633
1028.20 10.84752
1028.30 10.79201
1028.40 10.72637
1028.50 10.59881
1028.60 10.68249
1028.70 10.77458
1028.80 10.83108
1028.90 10.9356
1029.00 11.12124
1029.10 11.2399
1029.20 11.20007
1029.30 11.19354
1029.40 11.18025
1029.50 11.14547
1029.60 11.0975
1029.70 11.08754
1029.80 11.10184
1029.90 11.09826
1030.00 11.03806
1030.10 10.97219
1030.20 10.97709
1030.30 11.01691
1030.40 11.03016
1030.50 11.12449
1030.60 11.21488
1030.70 11.28226
1030.80 11.24346
1030.90 11.27071
1031.00 11.28599
1031.10 11.26857
1031.20 11.22583
1031.30 11.25291
1031.40 11.29794
1031.50 11.32018
1031.60 11.25992
1031.70 11.25862
1031.80 11.23507
1031.90 11.1583
1032.00 11.04675
1032.10 11.02736
1032.20 11.04326
1032.30 11.06374
1032.40 11.02328
1032.50 10.96987
1032.60 10.95335
1032.70 11.02007
1032.80 11.00268
1032.90 11.1034
1033.00 11.26723
1033.10 11.4371
1033.20 11.47038
1033.30 11.56847
1033.40 11.60461
1033.50 11.42248
1033.60 11.31939
1033.70 11.1759
1033.80 10.98557
1033.90 10.75212
1034.00 10.65523
1034.10 10.55243
1034.20 10.37355
1034.30 10.07459
1034.40 9.810232
1034.50 9.661542
1034.60 9.594748
1034.70 9.483766
1034.80 9.683578
1034.90 9.954634
1035.00 10.21717
1035.10 10.36466
1035.20 10.55631
1035.30 10.70517
1035.40 10.80948
1035.50 10.87027
1035.60 10.9464
1035.70 11.02877
1035.80 11.10011
1035.90 11.19146
1036.00 11.27792
1036.10 11.36054
1036.20 11.43335
1036.30 11.54001
1036.40 11.56403
1036.50 11.53304
1036.60 11.50883
1036.70 11.5159
1036.80 11.51436
1036.90 11.51019
1037.00 11.53646
1037.10 11.53344
1037.20 11.5676
1037.30 11.63732
1037.40 11.73529
1037.50 11.67905
1037.60 11.64859
1037.70 11.61637
1037.80 11.46477
1037.90 11.34137
1038.00 11.22873
1038.10 11.11329
1038.20 10.93337
1038.30 10.96905
1038.40 11.01199
1038.50 11.01377
1038.60 11.12295
1038.70 11.26631
1038.80 11.34568
1038.90 11.29581
1039.00 11.29223
1039.10 11.26595
1039.20 11.2287
1039.30 11.1872
1039.40 11.08391
1039.50 10.99002
1039.60 10.87854
1039.70 10.75419
1039.80 10.58917
1039.90 10.57244
1040.00 10.64042
1040.10 10.68508
1040.20 10.85803
1040.30 11.04966
1040.40 11.22317
1040.50 11.31393
1040.60 11.43131
1040.70 11.49891
1040.80 11.52222
1040.90 11.57285
1041.00 11.52798
1041.10 11.49768
1041.20 11.4809
1041.30 11.38786
1041.40 11.25615
1041.50 11.1949
1041.60 11.23032
1041.70 11.15927
1041.80 11.22029
1041.90 11.36053
1042.00 11.50278
1042.10 11.48052
1042.20 11.55274
1042.30 11.5707
1042.40 11.44828
1042.50 11.34185
1042.60 11.2152
1042.70 11.07628
1042.80 10.93213
1042.90 10.91883
1043.00 10.8224
1043.10 10.78991
1043.20 11.01524
1043.30 11.17392
1043.40 11.28568
1043.50 11.39051
1043.60 11.56608
1043.70 11.57997
1043.80 11.60296
1043.90 11.62374
1044.00 11.61348
1044.10 11.58712
1044.20 11.5819
1044.30 11.59828
1044.40 11.60358
1044.50 11.54281
1044.60 11.47497
1044.70 11.4355
1044.80 11.49687
1044.90 11.51703
1045.00 11.5494
1045.10 11.61159
1045.20 11.65357
1045.30 11.72065
1045.40 11.81514
1045.50 11.9306
1045.60 11.94361
1045.70 12.00873
1045.80 12.05691
1045.90 12.0131
1046.00 11.99839
1046.10 11.9398
1046.20 11.8546
1046.30 11.74886
1046.40 11.68354
1046.50 11.60606
1046.60 11.52073
1046.70 11.41103
1046.80 11.31058
1046.90 11.21079
1047.00 11.10671
1047.10 10.9802
1047.20 10.97669
1047.30 10.95663
1047.40 10.94664
1047.50 11.04158
1047.60 11.15608
1047.70 11.2242
1047.80 11.24909
1047.90 11.29849
1048.00 11.3238
1048.10 11.32239
1048.20 11.30348
1048.30 11.37772
1048.40 11.43371
1048.50 11.4671
1048.60 11.47048
1048.70 11.51876
1048.80 11.54552
1048.90 11.56001
1049.00 11.57424
1049.10 11.59443
1049.20 11.60449
1049.30 11.58279
1049.40 11.51772
1049.50 11.51216
1049.60 11.3809
1049.70 11.16058
1049.80 10.95475
1049.90 11.00902
1050.00 11.01162
1050.10 11.05463
1050.20 11.24695
1050.30 11.46046
1050.40 11.53672
1050.50 11.53134
1050.60 11.55514
1050.70 11.53938
1050.80 11.51654
1050.90 11.48026
1051.00 11.43808
1051.10 11.43265
1051.20 11.38752
1051.30 11.28435
1051.40 11.17219
1051.50 11.13245
1051.60 11.07897
1051.70 11.00964
1051.80 11.04124
1051.90 11.08892
1052.00 11.11472
1052.10 11.09525
1052.20 11.06507
1052.30 11.09677
1052.40 11.13492
1052.50 11.14856
1052.60 11.28371
1052.70 11.42677
1052.80 11.54603
1052.90 11.60341
1053.00 11.72179
1053.10 11.72793
1053.20 11.64532
1053.30 11.55269
1053.40 11.57537
1053.50 11.58718
1053.60 11.58595
1053.70 11.55969
1053.80 11.5701
1053.90 11.57021
1054.00 11.55391
1054.10 11.51804
1054.20 11.55562
1054.30 11.59038
1054.40 11.60815
1054.50 11.5544
1054.60 11.56024
1054.70 11.54614
1054.80 11.4908
1054.90 11.39842
1055.00 11.44833
1055.10 11.49581
1055.20 11.51332
1055.30 11.50369
1055.40 11.55197
1055.50 11.55967
1055.60 11.48358
1055.70 11.44665
1055.80 11.37277
1055.90 11.27477
1056.00 11.17035
1056.10 11.18107
1056.20 11.15977
1056.30 11.1359
1056.40 11.13503
1056.50 11.1128
1056.60 11.13608
1056.70 11.19618
1056.80 11.26649
1056.90 11.25729
1057.00 11.24365
1057.10 11.2496
1057.20 11.29193
1057.30 11.31188
1057.40 11.33894
1057.50 11.38021
1057.60 11.42564
1057.70 11.43067
1057.80 11.445
1057.90 11.47038
1058.00 11.50182
1058.10 11.52312
1058.20 11.5002
1058.30 11.44801
1058.40 11.43108
1058.50 11.28336
1058.60 11.10474
1058.70 10.97476
1058.80 11.00962
1058.90 10.9993
1059.00 11.02798
1059.10 11.12848
1059.20 11.22968
1059.30 11.30539
1059.40 11.35826
1059.50 11.39318
1059.60 11.43141
1059.70 11.49051
1059.80 11.52251
1059.90 11.46493
1060.00 11.44119
1060.10 11.42289
1060.20 11.39735
1060.30 11.36142
1060.40 11.34457
1060.50 11.33889
1060.60 11.30637
1060.70 11.21418
1060.80 11.12531
1060.90 11.09262
1061.00 11.08018
1061.10 11.03111
1061.20 11.08586
1061.30 11.14255
1061.40 11.19709
1061.50 11.27204
1061.60 11.37851
1061.70 11.39409
1061.80 11.31838
1061.90 11.27639
1062.00 11.25829
1062.10 11.24115
1062.20 11.21627
1062.30 11.22021
1062.40 11.19319
1062.50 11.20715
1062.60 11.30392
1062.70 11.37182
1062.80 11.4458
1062.90 11.53698
1063.00 11.64331
1063.10 11.59316
1063.20 11.57756
1063.30 11.57531
1063.40 11.56055
1063.50 11.51892
1063.60 11.51479
1063.70 11.52088
1063.80 11.51126
1063.90 11.54209
1064.00 11.56962
1064.10 11.59147
1064.20 11.5958
1064.30 11.63442
1064.40 11.65605
1064.50 11.66025
1064.60 11.65926
1064.70 11.63609
1064.80 11.61128
1064.90 11.58525
1065.00 11.57662
1065.10 11.57335
1065.20 11.53414
1065.30 11.46445
1065.40 11.43304
1065.50 11.39762
1065.60 11.33256
1065.70 11.25426
1065.80 11.27516
1065.90 11.2897
1066.00 11.25163
1066.10 11.1598
1066.20 11.12225
1066.30 11.02921
1066.40 10.89613
1066.50 10.77615
1066.60 10.87244
1066.70 10.93828
1066.80 10.98897
1066.90 11.02108
1067.00 11.08367
1067.10 11.10733
1067.20 11.09236
1067.30 11.04114
1067.40 11.12328
1067.50 11.20318
1067.60 11.25092
1067.70 11.24129
1067.80 11.26936
1067.90 11.30907
1068.00 11.34817
1068.10 11.3815
1068.20 11.47248
1068.30 11.54843
1068.40 11.63136
1068.50 11.73091
1068.60 11.85029
1068.70 11.89236
1068.80 11.8745
1068.90 11.88106
1069.00 11.84986
1069.10 11.80049
1069.20 11.75698
1069.30 11.74798
1069.40 11.7684
1069.50 11.73669
1069.60 11.64795
1069.70 11.54465
1069.80 11.52485
1069.90 11.49866
1070.00 11.45819
1070.10 11.43975
1070.20 11.44993
1070.30 11.45136
1070.40 11.41157
1070.50 11.32884
1070.60 11.33608
1070.70 11.37676
1070.80 11.41177
1070.90 11.39851
1071.00 11.42881
1071.10 11.47091
1071.20 11.49807
1071.30 11.47587
1071.40 11.48137
1071.50 11.51456
1071.60 11.55692
1071.70 11.5245
1071.80 11.50574
1071.90 11.49954
1072.00 11.50174
1072.10 11.4975
1072.20 11.46818
1072.30 11.43626
1072.40 11.42864
1072.50 11.32314
1072.60 11.18299
1072.70 11.05624
1072.80 11.05135
1072.90 11.00333
1073.00 11.0389
1073.10 11.15549
1073.20 11.29679
1073.30 11.2757
1073.40 11.23491
1073.50 11.20159
1073.60 11.21667
1073.70 11.17944
1073.80 11.20292
1073.90 11.32368
1074.00 11.44077
1074.10 11.46816
1074.20 11.46696
1074.30 11.48034
1074.40 11.46894
1074.50 11.48828
1074.60 11.48701
1074.70 11.43832
1074.80 11.37649
1074.90 11.3544
1075.00 11.35667
1075.10 11.356
1075.20 11.37029
1075.30 11.38073
1075.40 11.37918
1075.50 11.34453
1075.60 11.28215
1075.70 11.30219
1075.80 11.37732
1075.90 11.43807
1076.00 11.4346
1076.10 11.46633
1076.20 11.50978
1076.30 11.51376
1076.40 11.51249
1076.50 11.52331
1076.60 11.54897
1076.70 11.5664
1076.80 11.56709
1076.90 11.55685
1077.00 11.54711
1077.10 11.52323
1077.20 11.51919
1077.30 11.48187
1077.40 11.40952
1077.50 11.34909
1077.60 11.29522
1077.70 11.2218
1077.80 11.15833
1077.90 11.23687
1078.00 11.28977
1078.10 11.32107
1078.20 11.33448
1078.30 11.37527
1078.40 11.39759
1078.50 11.40461
1078.60 11.41078
1078.70 11.38772
1078.80 11.39605
1078.90 11.39656
1079.00 11.34765
1079.10 11.29192
1079.20 11.25431
1079.30 11.23001
1079.40 11.20155
1079.50 11.23903
1079.60 11.2477
1079.70 11.25008
1079.80 11.28461
1079.90 11.33068
1080.00 11.34568
1080.10 11.34063
1080.20 11.33661
1080.30 11.37145
1080.40 11.41401
1080.50 11.45904
1080.60 11.50238
1080.70 11.52867
1080.80 11.52538
1080.90 11.49742
1081.00 11.49302
1081.10 11.48352
1081.20 11.47183
1081.30 11.45673
1081.40 11.46645
1081.50 11.46645
1081.60 11.47128
1081.70 11.47926
1081.80 11.49704
1081.90 11.49621
1082.00 11.50948
1082.10 11.5445
1082.20 11.46574
1082.30 11.38986
1082.40 11.33771
1082.50 11.32689
1082.60 11.28593
1082.70 11.34765
1082.80 11.44345
1082.90 11.52969
1083.00 11.67901
1083.10 11.82893
1083.20 11.91491
1083.30 11.85707
1083.40 11.82834
1083.50 11.70124
1083.60 11.51285
1083.70 11.32659
1083.80 11.3028
1083.90 11.26864
1084.00 11.24097
1084.10 11.30387
1084.20 11.38522
1084.30 11.40448
1084.40 11.3598
1084.50 11.33213
1084.60 11.29263
1084.70 11.25649
1084.80 11.2329
1084.90 11.26857
1085.00 11.25308
1085.10 11.26587
1085.20 11.32751
1085.30 11.42603
1085.40 11.41654
1085.50 11.37257
1085.60 11.32847
1085.70 11.38357
1085.80 11.41642
1085.90 11.45019
1086.00 11.4895
1086.10 11.53748
1086.20 11.55623
1086.30 11.57709
1086.40 11.60802
1086.50 11.57562
1086.60 11.56794
1086.70 11.56679
1086.80 11.55443
1086.90 11.50599
1087.00 11.51969
1087.10 11.57326
1087.20 11.62339
1087.30 11.5618
1087.40 11.54224
1087.50 11.51931
1087.60 11.45381
1087.70 11.35298
1087.80 11.33215
1087.90 11.36628
1088.00 11.39487
1088.10 11.38312
1088.20 11.38865
1088.30 11.39885
1088.40 11.39475
1088.50 11.36706
1088.60 11.35977
1088.70 11.39088
1088.80 11.44264
1088.90 11.46078
1089.00 11.46318
1089.10 11.45069
1089.20 11.42367
1089.30 11.40728
1089.40 11.37407
1089.50 11.32156
1089.60 11.25287
1089.70 11.28602
1089.80 11.32138
1089.90 11.34333
1090.00 11.37267
1090.10 11.43546
1090.20 11.47613
1090.30 11.47001
1090.40 11.46549
1090.50 11.43103
1090.60 11.39387
1090.70 11.3717
1090.80 11.32479
1090.90 11.28529
1091.00 11.25478
1091.10 11.2271
1091.20 11.16581
1091.30 11.17967
1091.40 11.23017
1091.50 11.24778
1091.60 11.33141
1091.70 11.43544
1091.80 11.5085
1091.90 11.46133
1092.00 11.43068
1092.10 11.42884
1092.20 11.44194
1092.30 11.45157
1092.40 11.42729
1092.50 11.40318
1092.60 11.39052
1092.70 11.38408
1092.80 11.37134
1092.90 11.35638
1093.00 11.34854
1093.10 11.35392
1093.20 11.35641
1093.30 11.35374
1093.40 11.35227
1093.50 11.39402
1093.60 11.43609
1093.70 11.48386
1093.80 11.53889
1093.90 11.5716
1094.00 11.67622
1094.10 11.79599
1094.20 11.88204
1094.30 11.76646
1094.40 11.72173
1094.50 11.67078
1094.60 11.56893
1094.70 11.40608
1094.80 11.35271
1094.90 11.318
1095.00 11.25722
1095.10 11.31265
1095.20 11.37228
1095.30 11.41294
1095.40 11.40757
1095.50 11.45646
1095.60 11.46457
1095.70 11.4513
1095.80 11.44237
1095.90 11.41979
1096.00 11.3688
1096.10 11.32455
1096.20 11.35078
1096.30 11.38582
1096.40 11.40479
1096.50 11.41762
1096.60 11.44902
1096.70 11.34399
1096.80 11.24767
1096.90 11.18367
1097.00 11.16975
1097.10 11.12938
1097.20 11.11508
1097.30 11.11725
1097.40 11.0673
1097.50 11.08407
1097.60 11.12963
1097.70 11.18085
1097.80 11.18784
1097.90 11.19555
1098.00 11.21786
1098.10 11.26707
1098.20 11.34884
1098.30 11.34283
1098.40 11.29781
1098.50 11.25413
1098.60 11.24835
1098.70 11.2382
1098.80 11.22487
1098.90 11.22022
1099.00 11.19839
1099.10 11.22703
1099.20 11.26472
1099.30 11.28138
1099.40 11.27154
1099.50 11.28667
1099.60 11.30927
1099.70 11.30944
1099.80 11.31936
1099.90 11.31041
1100.00 11.29255
1100.10 11.27885
1100.20 11.26224
1100.30 11.25379
1100.40 11.24832
1100.50 11.22209
1100.60 11.16599
1100.70 11.15162
1100.80 11.16974
1100.90 11.16609
1101.00 11.18719
1101.10 11.23502
1101.20 11.30215
1101.30 11.34471
1101.40 11.3438
1101.50 11.30606
1101.60 11.26269
1101.70 11.27703
1101.80 11.21376
1101.90 11.14852
1102.00 11.10891
1102.10 11.09249
1102.20 11.05636
1102.30 11.04411
1102.40 11.06985
1102.50 11.00184
1102.60 11.06414
1102.70 11.16091
1102.80 11.23827
1102.90 11.23067
1103.00 11.2761
1103.10 11.27927
1103.20 11.19284
1103.30 11.18467
1103.40 11.13234
1103.50 11.04348
1103.60 10.93627
1103.70 10.99599
1103.80 10.98828
1103.90 10.96686
1104.00 10.9798
1104.10 11.01904
1104.20 11.00438
1104.30 10.97191
1104.40 10.96196
1104.50 10.97858
1104.60 10.97307
1104.70 10.97446
1104.80 11.04164
1104.90 11.1253
1105.00 11.12214
1105.10 11.08363
1105.20 11.08594
1105.30 11.01819
1105.40 10.91437
1105.50 10.83438
1105.60 10.83451
1105.70 10.79873
1105.80 10.80182
1105.90 10.85755
1106.00 10.90249
1106.10 10.90087
1106.20 10.90452
1106.30 10.91118
1106.40 10.8762
1106.50 10.83111
1106.60 10.80608
1106.70 10.80766
1106.80 10.85231
1106.90 10.8348
1107.00 10.78895
1107.10 10.7322
1107.20 10.79121
1107.30 10.81777
1107.40 10.84745
1107.50 10.88855
1107.60 10.95624
1107.70 10.99199
1107.80 11.00655
1107.90 11.0122
1108.00 10.97451
1108.10 10.93499
1108.20 10.93104
1108.30 10.99802
1108.40 11.07272
1108.50 11.10972
1108.60 11.12665
1108.70 11.14275
1108.80 11.12359
1108.90 11.11245
1109.00 11.09715
1109.10 11.06256
1109.20 11.02253
1109.30 11.02032
1109.40 11.04722
1109.50 11.06763
1109.60 11.08898
1109.70 11.11342
1109.80 11.12555
1109.90 11.10509
1110.00 11.11725
1110.10 11.10951
1110.20 11.07399
1110.30 11.05617
1110.40 11.00076
1110.50 10.92095
1110.60 10.83727
1110.70 10.87371
1110.80 10.87426
1110.90 10.8665
1111.00 10.84992
1111.10 10.86551
1111.20 10.84704
1111.30 10.81593
1111.40 10.79651
1111.50 10.76774
1111.60 10.72769
1111.70 10.72572
1111.80 10.79658
1111.90 10.86276
1112.00 10.84725
1112.10 10.79999
1112.20 10.75248
1112.30 10.7417
1112.40 10.7138
1112.50 10.73281
1112.60 10.84788
1112.70 10.94943
1112.80 11.0041
1112.90 11.03762
1113.00 11.08134
1113.10 11.01207
1113.20 10.94927
1113.30 10.92457
1113.40 10.96574
1113.50 11.0218
1113.60 11.0206
1113.70 10.97523
1113.80 10.94115
1113.90 10.92858
1114.00 10.88506
1114.10 10.85802
1114.20 10.94995
1114.30 11.01976
1114.40 11.08525
1114.50 11.15592
1114.60 11.24818
1114.70 11.29819
1114.80 11.3608
1114.90 11.40251
1115.00 11.2036
1115.10 10.98879
1115.20 10.8638
1115.30 10.85276
1115.40 10.83602
1115.50 10.86358
1115.60 10.91869
1115.70 10.99822
1115.80 11.04994
1115.90 11.07997
1116.00 11.09182
1116.10 11.0981
1116.20 11.08414
1116.30 11.0578
1116.40 11.03389
1116.50 11.04617
1116.60 10.8248
1116.70 10.59134
1116.80 10.46805
1116.90 10.59547
1117.00 10.74084
1117.10 10.7837
1117.20 10.7741
1117.30 10.77121
1117.40 10.68935
1117.50 10.58206
1117.60 10.53693
1117.70 10.63641
1117.80 10.72571
1117.90 10.84644
1118.00 10.90498
1118.10 10.95266
1118.20 10.99045
1118.30 10.98885
1118.40 10.99107
1118.50 11.00987
1118.60 11.06087
1118.70 11.10999
1118.80 11.17427
1118.90 11.17693
1119.00 11.02839
1119.10 10.883
1119.20 10.7563
1119.30 10.68251
1119.40 10.60343
1119.50 10.51577
1119.60 10.61349
1119.70 10.7542
1119.80 10.87942
1119.90 10.94175
1120.00 10.96188
1120.10 10.99481
1120.20 10.99199
1120.30 10.8932
1120.40 10.79024
1120.50 10.7209
1120.60 10.81423
1120.70 10.91607
1120.80 11.00608
1120.90 11.04627
1121.00 11.08537
1121.10 11.12777
1121.20 11.09883
1121.30 11.00979
1121.40 10.91677
1121.50 10.86756
1121.60 10.92007
1121.70 10.98296
1121.80 11.04443
1121.90 11.03371
1122.00 11.00938
1122.10 10.97962
1122.20 10.9026
1122.30 10.805
1122.40 10.71111
1122.50 10.62917
1122.60 10.52133
1122.70 10.40274
1122.80 10.39923
1122.90 10.66776
1123.00 10.96322
1123.10 11.24816
1123.20 11.2807
1123.30 11.33922
1123.40 11.40772
1123.50 11.22548
1123.60 10.94679
1123.70 10.63246
1123.80 10.55414
1123.90 10.68104
1124.00 10.80072
1124.10 10.88969
1124.20 10.95722
1124.30 11.03778
1124.40 11.12701
1124.50 11.08248
1124.60 11.04438
1124.70 11.02206
1124.80 11.05418
1124.90 11.12994
1125.00 11.20656
1125.10 11.23512
1125.20 11.19627
1125.30 11.13568
1125.40 11.01997
1125.50 10.5949
1125.60 10.15709
1125.70 9.741606
1125.80 10.13742
1125.90 10.54003
1126.00 10.94413
1126.10 10.99391
1126.20 10.89881
1126.30 10.80517
1126.40 10.7671
1126.50 10.77905
1126.60 10.77815
1126.70 10.78792
1126.80 10.8688
1126.90 10.95689
1127.00 11.04518
1127.10 11.04917
1127.20 11.05752
1127.30 11.07856
1127.40 11.00963
1127.50 10.90442
1127.60 10.79702
1127.70 10.7184
1127.80 10.66437
1127.90 10.59473
1128.00 10.55663
1128.10 10.6433
1128.20 10.7306
1128.30 10.82034
1128.40 10.84933
1128.50 10.87911
1128.60 10.91486
1128.70 10.95088
1128.80 10.9948
1128.90 11.04859
1129.00 11.07109
1129.10 11.06571
1129.20 11.05744
1129.30 11.0396
1129.40 11.02914
1129.50 10.99977
1129.60 10.96744
1129.70 10.88357
1129.80 10.79388
1129.90 10.71728
1130.00 10.6798
1130.10 10.67959
1130.20 10.72655
1130.30 10.7515
1130.40 10.76334
1130.50 10.76618
1130.60 10.76808
1130.70 10.77718
1130.80 10.76088
1130.90 10.72991
1131.00 10.74594
1131.10 10.75621
1131.20 10.75983
1131.30 10.74802
1131.40 10.7301
1131.50 10.72799
1131.60 10.74472
1131.70 10.78639
1131.80 10.83419
1131.90 10.8795
1132.00 10.91393
1132.10 10.95588
1132.20 11.00049
1132.30 10.9566
1132.40 10.90116
1132.50 10.84144
1132.60 10.81859
1132.70 10.81452
1132.80 10.80589
1132.90 10.83172
1133.00 10.91311
1133.10 11.00644
1133.20 11.06214
1133.30 10.95806
1133.40 10.85204
1133.50 10.74976
1133.60 10.72205
1133.70 10.70576
1133.80 10.68911
1133.90 10.6913
1134.00 10.7019
1134.10 10.70749
1134.20 10.71946
1134.30 10.7301
1134.40 10.7319
1134.50 10.73211
1134.60 10.72584
1134.70 10.69485
1134.80 10.70153
1134.90 10.50353
1135.00 10.29136
1135.10 10.09054
1135.20 10.25234
1135.30 10.59797
1135.40 10.95259
1135.50 11.14267
1135.60 11.11313
1135.70 11.07705
1135.80 11.014
1135.90 10.84912
1136.00 10.65047
1136.10 10.47413
1136.20 10.46629
1136.30 10.4895
1136.40 10.51844
1136.50 10.55597
1136.60 10.62848
1136.70 10.70952
1136.80 10.73724
1136.90 10.68555
1137.00 10.62861
1137.10 10.5803
1137.20 10.60469
1137.30 10.64196
1137.40 10.68512
1137.50 10.47579
1137.60 10.2502
1137.70 10.05502
1137.80 9.826617
1137.90 9.619553
1138.00 9.448637
1138.10 9.195201
1138.20 8.86241
1138.30 8.449197
1138.40 8.146208
1138.50 8.357478
1138.60 8.430907
1138.70 8.473795
1138.80 8.886047
1138.90 9.354914
1139.00 9.855123
1139.10 10.06551
1139.20 10.13177
1139.30 10.26776
1139.40 10.33634
1139.50 10.33888
1139.60 10.36901
1139.70 10.36981
1139.80 10.11274
1139.90 9.892196
1140.00 9.671194
1140.10 9.270778
1140.20 8.898945
1140.30 8.549346
1140.40 8.161523
1140.50 7.756622
1140.60 7.253682
1140.70 7.117059
1140.80 7.370226
1140.90 7.445454
1141.00 7.594173
1141.10 8.220641
1141.20 8.882225
1141.30 9.510189
1141.40 9.707173
1141.50 9.878172
1141.60 10.0854
1141.70 10.22097
1141.80 10.34781
1141.90 10.50204
1142.00 10.54902
1142.10 10.45117
1142.20 10.37242
1142.30 10.30313
1142.40 10.29011
1142.50 10.26897
1142.60 10.24779
1142.70 10.31268
1142.80 10.38305
1142.90 10.45841
1143.00 10.51347
1143.10 10.56735
1143.20 10.629
1143.30 10.68563
1143.40 10.73511
1143.50 10.78285
1143.60 10.81663
1143.70 10.73302
1143.80 10.66989
1143.90 10.61318
1144.00 10.4897
1144.10 10.33852
1144.20 10.17696
1144.30 10.12018
1144.40 10.13283
1144.50 10.14221
1144.60 10.18069
1144.70 10.27444
1144.80 10.36021
1144.90 10.43407
1145.00 10.46278
1145.10 10.4955
1145.20 10.54173
1145.30 10.56598
1145.40 10.59456
1145.50 10.62098
1145.60 10.60977
1145.70 10.57467
1145.80 10.5377
1145.90 10.5499
1146.00 10.62924
1146.10 10.69546
1146.20 10.74592
1146.30 10.74202
1146.40 10.73897
1146.50 10.74526
1146.60 10.67956
1146.70 10.60791
1146.80 10.56239
1146.90 10.57492
1147.00 10.64494
1147.10 10.71682
1147.20 10.7027
1147.30 10.56172
1147.40 10.39728
1147.50 10.27504
1147.60 10.47308
1147.70 10.66657
1147.80 10.84835
1147.90 10.83842
1148.00 10.81403
1148.10 10.79785
1148.20 10.80972
1148.30 10.84088
1148.40 10.89842
1148.50 10.89862
1148.60 10.80574
1148.70 10.67611
1148.80 10.57478
1148.90 10.58477
1149.00 10.59438
1149.10 10.59972
1149.20 10.70069
1149.30 10.83783
1149.40 10.98455
1149.50 10.9496
1149.60 10.82293
1149.70 10.68946
1149.80 10.56339
1149.90 10.42687
1150.00 10.29748
1150.10 10.21936
1150.20 10.37974
1150.30 10.54312
1150.40 10.69877
1150.50 10.74122
1150.60 10.75913
1150.70 10.76725
1150.80 10.76111
1150.90 10.74494
1151.00 10.74019
1151.10 10.71038
1151.20 10.64833
1151.30 10.59396
1151.40 10.56626
1151.50 10.6364
1151.60 10.70625
1151.70 10.76897
1151.80 10.75184
1151.90 10.719
1152.00 10.68936
1152.10 10.68865
1152.20 10.70991
1152.30 10.74827
1152.40 10.72279
1152.50 10.61736
1152.60 10.50207
1152.70 10.42544
1152.80 10.44841
1152.90 10.46306
1153.00 10.46254
1153.10 10.54379
1153.20 10.64241
1153.30 10.74092
1153.40 10.74637
1153.50 10.70967
1153.60 10.65983
1153.70 10.6304
1153.80 10.61915
1153.90 10.60124
1154.00 10.57558
1154.10 10.52237
1154.20 10.48313
1154.30 10.45505
1154.40 10.47419
1154.50 10.51562
1154.60 10.57558
1154.70 10.61098
1154.80 10.64067
1154.90 10.64206
1155.00 10.65765
1155.10 10.67804
1155.20 10.68073
1155.30 10.67645
1155.40 10.6875
1155.50 10.70088
1155.60 10.71888
1155.70 10.65593
1155.80 10.59458
1155.90 10.5503
1156.00 10.58536
1156.10 10.66795
1156.20 10.74418
1156.30 10.75627
1156.40 10.70142
1156.50 10.64402
1156.60 10.60259
1156.70 10.62791
1156.80 10.66885
1156.90 10.71455
1157.00 10.70061
1157.10 10.68258
1157.20 10.65657
1157.30 10.66821
1157.40 10.68415
1157.50 10.69636
1157.60 10.665
1157.70 10.59239
1157.80 10.51999
1157.90 10.47744
1158.00 10.53191
1158.10 10.58392
1158.20 10.63279
1158.30 10.65509
1158.40 10.68553
1158.50 10.71729
1158.60 10.69022
1158.70 10.64217
1158.80 10.60309
1158.90 10.55064
1159.00 10.48647
1159.10 10.44402
1159.20 10.40396
1159.30 10.38153
1159.40 10.36051
1159.50 10.33744
1159.60 10.31995
1159.70 10.27126
1159.80 10.19767
1159.90 10.24224
1160.00 10.29994
1160.10 10.3479
1160.20 10.3736
1160.30 10.3811
1160.40 10.41222
1160.50 10.38257
1160.60 10.22437
1160.70 10.12024
1160.80 10.02532
1160.90 9.902704
1161.00 9.757369
1161.10 9.578864
1161.20 9.674079
1161.30 9.794773
1161.40 9.870412
1161.50 9.990382
1161.60 10.14664
1161.70 10.35098
1161.80 10.49378
1161.90 10.52348
1162.00 10.58083
1162.10 10.64484
1162.20 10.5917
1162.30 10.52855
1162.40 10.45694
1162.50 10.4698
1162.60 10.49185
1162.70 10.50478
1162.80 10.54283
1162.90 10.60498
1163.00 10.66778
1163.10 10.70779
1163.20 10.70218
1163.30 10.71411
1163.40 10.71132
1163.50 10.60036
1163.60 10.51504
1163.70 10.45173
1163.80 10.28923
1163.90 10.10153
1164.00 9.894169
1164.10 9.888788
1164.20 9.986595
1164.30 10.00911
1164.40 10.07493
1164.50 10.22431
1164.60 10.39779
1164.70 10.55468
1164.80 10.55299
1164.90 10.56977
1165.00 10.5958
1165.10 10.57176
1165.20 10.54771
1165.30 10.52424
1165.40 10.49782
1165.50 10.47335
1165.60 10.43869
1165.70 10.42972
1165.80 10.45169
1165.90 10.45625
1166.00 10.47108
1166.10 10.53374
1166.20 10.59706
1166.30 10.65218
1166.40 10.66364
1166.50 10.68359
1166.60 10.71334
1166.70 10.68672
1166.80 10.62626
1166.90 10.58461
1167.00 10.56363
1167.10 10.57672
1167.20 10.58589
1167.30 10.59628
1167.40 10.58878
1167.50 10.5796
1167.60 10.5639
1167.70 10.5577
1167.80 10.5506
1167.90 10.53931
1168.00 10.52894
1168.10 10.5202
1168.20 10.53054
1168.30 10.52061
1168.40 10.48873
1168.50 10.48855
1168.60 10.47221
1168.70 10.31824
1168.80 10.23463
1168.90 10.18317
1169.00 9.829404
1169.10 9.438777
1169.20 8.990315
1169.30 8.984055
1169.40 9.076111
1169.50 8.960323
1169.60 9.04801
1169.70 9.378166
1169.80 9.729319
1169.90 10.01317
1170.00 10.11031
1170.10 10.26489
1170.20 10.44623
1170.30 10.47821
1170.40 10.5173
1170.50 10.57831
1170.60 10.57838
1170.70 10.56386
1170.80 10.5649
1170.90 10.55106
1171.00 10.52856
1171.10 10.50659
1171.20 10.49344
1171.30 10.51181
1171.40 10.52727
1171.50 10.5422
1171.60 10.53644
1171.70 10.54162
1171.80 10.56226
1171.90 10.54807
1172.00 10.51691
1172.10 10.47674
1172.20 10.4663
1172.30 10.47982
1172.40 10.48419
1172.50 10.49058
1172.60 10.51155
1172.70 10.52496
1172.80 10.52473
1172.90 10.51339
1173.00 10.50319
1173.10 10.50164
1173.20 10.5072
1173.30 10.52701
1173.40 10.56495
1173.50 10.56363
1173.60 10.52921
1173.70 10.4925
1173.80 10.46683
1173.90 10.44153
1174.00 10.40289
1174.10 10.36415
1174.20 10.40504
1174.30 10.44385
1174.40 10.47538
1174.50 10.50475
1174.60 10.53922
1174.70 10.58509
1174.80 10.60182
1174.90 10.60118
1175.00 10.61398
1175.10 10.61314
1175.20 10.57472
1175.30 10.53158
1175.40 10.49424
1175.50 10.5327
1175.60 10.5603
1175.70 10.57575
1175.80 10.56933
1175.90 10.56761
1176.00 10.57945
1176.10 10.56235
1176.20 10.53527
1176.30 10.51983
1176.40 10.51084
1176.50 10.49592
1176.60 10.52272
1176.70 10.51667
1176.80 10.24847
1176.90 10.06088
1177.00 9.910645
1177.10 9.517259
1177.20 9.075962
1177.30 8.572234
1177.40 8.385019
1177.50 8.343151
1177.60 8.063216
1177.70 8.109044
1177.80 8.563173
1177.90 8.96267
1178.00 9.305237
1178.10 9.454952
1178.20 9.672416
1178.30 9.927756
1178.40 9.919343
1178.50 9.907076
1178.60 9.922156
1178.70 9.982458
1178.80 10.0801
1178.90 10.18191
1179.00 10.26465
1179.10 10.32682
1179.20 10.41407
1179.30 10.484
1179.40 10.41652
1179.50 10.35766
1179.60 10.30384
1179.70 10.26785
1179.80 10.22893
1179.90 10.18075
1180.00 10.21038
1180.10 10.26817
1180.20 10.31763
1180.30 10.36507
1180.40 10.40177
1180.50 10.45032
1180.60 10.48517
1180.70 10.4692
1180.80 10.46336
1180.90 10.45856
1181.00 10.44972
1181.10 10.4396
1181.20 10.42765
1181.30 10.44121
1181.40 10.46468
1181.50 10.48864
1181.60 10.49059
1181.70 10.46603
1181.80 10.4302
1181.90 10.3983
1182.00 10.38179
1182.10 10.36289
1182.20 10.33479
1182.30 10.32295
1182.40 10.32974
1182.50 10.34553
1182.60 10.24367
1182.70 10.10728
1182.80 9.986418
1182.90 9.887697
1183.00 9.804787
1183.10 9.678906
1183.20 9.649176
1183.30 9.7797
1183.40 9.901194
1183.50 10.02606
1183.60 10.07739
1183.70 10.148
1183.80 10.21706
1183.90 10.27732
1184.00 10.32553
1184.10 10.34016
1184.20 10.38524
1184.30 10.44504
1184.40 10.52472
1184.50 10.55878
1184.60 10.50147
1184.70 10.47575
1184.80 10.45024
1184.90 10.3796
1185.00 10.30315
1185.10 10.21748
1185.20 10.24217
1185.30 10.28233
1185.40 10.30141
1185.50 10.32951
1185.60 10.3546
1185.70 10.39282
1185.80 10.41787
1185.90 10.41662
1186.00 10.4154
1186.10 10.41453
1186.20 10.42793
1186.30 10.44097
1186.40 10.45696
1186.50 10.43436
1186.60 10.41202
1186.70 10.40168
1186.80 10.381
1186.90 10.35904
1187.00 10.32599
1187.10 10.31801
1187.20 10.33936
1187.30 10.34751
1187.40 10.35099
1187.50 10.34168
1187.60 10.33862
1187.70 10.34
1187.80 10.29498
1187.90 10.26828
1188.00 10.26725
1188.10 10.05805
1188.20 9.78052
1188.30 9.551516
1188.40 9.335753
1188.50 9.150344
1188.60 8.863513
1188.70 8.717242
1188.80 9.019288
1188.90 9.261788
1189.00 9.463058
1189.10 9.61845
1189.20 9.799085
1189.30 10.03786
1189.40 10.10625
1189.50 10.11897
1189.60 10.13378
1189.70 10.18484
1189.80 10.27248
1189.90 10.36075
1190.00 10.42269
1190.10 10.40161
1190.20 10.39651
1190.30 10.39646
1190.40 10.36522
1190.50 10.33616
1190.60 10.31116
1190.70 10.30685
1190.80 10.30633
1190.90 10.27417
1191.00 10.26786
1191.10 10.27522
1191.20 10.28859
1191.30 10.30129
1191.40 10.31127
1191.50 10.32802
1191.60 10.34929
1191.70 10.36187
1191.80 10.37529
1191.90 10.38548
1192.00 10.39899
1192.10 10.40936
1192.20 10.42778
1192.30 10.42286
1192.40 10.40376
1192.50 10.38803
1192.60 10.3824
1192.70 10.39301
1192.80 10.38934
1192.90 10.38228
1193.00 10.39277
1193.10 10.40358
1193.20 10.4142
1193.30 10.3813
1193.40 10.34449
1193.50 10.32987
1193.60 10.2852
1193.70 10.23189
1193.80 10.18771
1193.90 10.16225
1194.00 10.1727
1194.10 10.16232
1194.20 10.14996
1194.30 10.15023
1194.40 10.1486
1194.50 10.14526
1194.60 10.13118
1194.70 10.13173
1194.80 10.15148
1194.90 10.11059
1195.00 10.03774
1195.10 9.931715
1195.20 9.901431
1195.30 9.953499
1195.40 9.969337
1195.50 9.986661
1195.60 10.0061
1195.70 10.05088
1195.80 10.11413
1195.90 10.09876
1196.00 10.09676
1196.10 10.10189
1196.20 10.10023
1196.30 10.09377
1196.40 10.07207
1196.50 10.06097
1196.60 10.05919
1196.70 10.04996
1196.80 10.02681
1196.90 9.97617
1197.00 9.969129
1197.10 9.964698
1197.20 9.70608
1197.30 9.469247
1197.40 9.248366
1197.50 9.127709
1197.60 9.028598
1197.70 8.822918
1197.80 8.85895
1197.90 9.078705
1198.00 9.279416
1198.10 9.445243
1198.20 9.556451
1198.30 9.686028
1198.40 9.807722
1198.50 9.848363
1198.60 9.890193
1198.70 9.942674
1198.80 9.902239
1198.90 9.863891
1199.00 9.875883
1199.10 9.872603
1199.20 9.86687
1199.30 9.841783
1199.40 9.837284
1199.50 9.863932
1199.60 9.868218
1199.70 9.863652
1199.80 9.874148
1199.90 9.885793
1200.00 9.900387
