# Version 2.1 - nm, norm@500 to 1, cut digits
# Wavelength(nm)  Flambda(ergs/cm^s/s/nm)
300.00 0.009437057
300.10 0.0125442
300.20 0.01443625
300.30 0.01521838
300.40 0.0154229
300.50 0.01548262
300.60 0.01554235
300.70 0.01560268
300.80 0.0156661
300.90 0.01573735
301.00 0.01582164
301.10 0.01592128
301.20 0.01603396
301.30 0.01615446
301.40 0.01627805
301.50 0.01640225
301.60 0.01652646
301.70 0.01665067
301.80 0.01677487
301.90 0.01689908
302.00 0.01702328
302.10 0.01714749
302.20 0.01727169
302.30 0.0173959
302.40 0.0175201
302.50 0.01764431
302.60 0.01776851
302.70 0.01789319
302.80 0.0180202
302.90 0.01815316
303.00 0.01829602
303.10 0.01845053
303.20 0.01861494
303.30 0.0187853
303.40 0.01895799
303.50 0.01913116
303.60 0.01930432
303.70 0.01947749
303.80 0.01965065
303.90 0.01982382
304.00 0.01999698
304.10 0.02017015
304.20 0.02034331
304.30 0.02051648
304.40 0.02068964
304.50 0.02086281
304.60 0.02103597
304.70 0.0212077
304.80 0.02137228
304.90 0.02151867
305.00 0.02163479
305.10 0.02171526
305.20 0.02176545
305.30 0.02179746
305.40 0.02182231
305.50 0.02184573
305.60 0.02186915
305.70 0.02189257
305.80 0.02191599
305.90 0.02193941
306.00 0.02196283
306.10 0.02198626
306.20 0.02200968
306.30 0.0220331
306.40 0.02205652
306.50 0.02207994
306.60 0.02210336
306.70 0.02212678
306.80 0.02215022
306.90 0.0221737
307.00 0.02219724
307.10 0.02222086
307.20 0.02224455
307.30 0.02226828
307.40 0.02229202
307.50 0.02231576
307.60 0.02233951
307.70 0.02236326
307.80 0.022387
307.90 0.02241075
308.00 0.02243449
308.10 0.02245824
308.20 0.02248198
308.30 0.02250573
308.40 0.02252947
308.50 0.02255322
308.60 0.02257696
308.70 0.0226043
308.80 0.02264955
308.90 0.02274028
309.00 0.0229068
309.10 0.02316255
309.20 0.02349407
309.30 0.02387109
309.40 0.02426602
309.50 0.02466454
309.60 0.02506306
309.70 0.02546158
309.80 0.02586009
309.90 0.02625861
310.00 0.02665713
310.10 0.02705565
310.20 0.02745417
310.30 0.02785269
310.40 0.0282512
310.50 0.02864972
310.60 0.02904824
310.70 0.02944315
310.80 0.02982006
310.90 0.03015123
311.00 0.03040622
311.10 0.03057152
311.20 0.03066063
311.30 0.03070402
311.40 0.0307294
311.50 0.03075117
311.60 0.03077294
311.70 0.03079471
311.80 0.03081648
311.90 0.03083826
312.00 0.03086003
312.10 0.0308818
312.20 0.03090357
312.30 0.03092534
312.40 0.03094711
312.50 0.03096888
312.60 0.03099065
312.70 0.03101688
312.80 0.03106535
312.90 0.03117029
313.00 0.03136932
313.10 0.03167914
313.20 0.03208304
313.30 0.03254342
313.40 0.03302604
313.50 0.03351311
313.60 0.03400019
313.70 0.03448726
313.80 0.03497434
313.90 0.03546141
314.00 0.03594849
314.10 0.03643556
314.20 0.03692264
314.30 0.03740971
314.40 0.03789678
314.50 0.03838386
314.60 0.03887093
314.70 0.03936111
314.80 0.03986677
314.90 0.04041174
315.00 0.04102221
315.10 0.04170979
315.20 0.04246286
315.30 0.04325525
315.40 0.04406312
315.50 0.04487409
315.60 0.04568506
315.70 0.04649603
315.80 0.047307
315.90 0.04811797
316.00 0.04892894
316.10 0.04973991
316.20 0.05055089
316.30 0.05136186
316.40 0.05217283
316.50 0.0529838
316.60 0.05379477
316.70 0.05459434
316.80 0.055337
316.90 0.05593515
317.00 0.05629256
317.10 0.0563665
317.20 0.05619971
317.30 0.05588841
317.40 0.0555202
317.50 0.05514058
317.60 0.05476097
317.70 0.05438135
317.80 0.05400174
317.90 0.05362212
318.00 0.05324251
318.10 0.05286289
318.20 0.05248328
318.30 0.05210367
318.40 0.05172405
318.50 0.05134444
318.60 0.05096482
318.70 0.05059393
318.80 0.05026661
318.90 0.05004991
319.00 0.05001749
319.10 0.05020206
319.20 0.05057092
319.30 0.05105039
319.40 0.05157343
319.50 0.0521052
319.60 0.05263696
319.70 0.05316873
319.80 0.05370049
319.90 0.05423226
320.00 0.05476403
320.10 0.05529579
320.20 0.05582756
320.30 0.05635932
320.40 0.05689109
320.50 0.05742285
320.60 0.05795462
320.70 0.05848316
320.80 0.05899559
320.90 0.0594671
321.00 0.05987045
321.10 0.06019355
321.20 0.0604485
321.30 0.06066253
321.40 0.06086045
321.50 0.06105514
321.60 0.06124983
321.70 0.06144453
321.80 0.06163922
321.90 0.06183391
322.00 0.0620286
322.10 0.06222329
322.20 0.06241798
322.30 0.06261267
322.40 0.06280737
322.50 0.06300206
322.60 0.06319675
322.70 0.06340323
322.80 0.06366856
322.90 0.06408334
323.00 0.06474707
323.10 0.06570394
323.20 0.06690976
323.30 0.06826503
323.40 0.06967915
323.50 0.07110506
323.60 0.07253097
323.70 0.07395687
323.80 0.07538278
323.90 0.07680869
324.00 0.0782346
324.10 0.07966051
324.20 0.08108642
324.30 0.08251232
324.40 0.08393823
324.50 0.08536414
324.60 0.08679005
324.70 0.08821404
324.80 0.08962847
324.90 0.09101863
325.00 0.09236835
325.10 0.09367045
325.20 0.09493211
325.30 0.09616949
325.40 0.09739732
325.50 0.09862323
325.60 0.09984913
325.70 0.101075
325.80 0.102301
325.90 0.1035269
326.00 0.1047528
326.10 0.1059787
326.20 0.1072046
326.30 0.1084305
326.40 0.1096564
326.50 0.1108823
326.60 0.1121082
326.70 0.1133383
326.80 0.1145889
326.90 0.1158919
327.00 0.117282
327.10 0.1187747
327.20 0.1203547
327.30 0.1219869
327.40 0.1236397
327.50 0.1252967
327.60 0.1269537
327.70 0.1286107
327.80 0.1302676
327.90 0.1319246
328.00 0.1335816
328.10 0.1352385
328.20 0.1368955
328.30 0.1385525
328.40 0.1402095
328.50 0.1418664
328.60 0.1435234
328.70 0.1451562
328.80 0.146668
328.90 0.1478729
329.00 0.1485663
329.10 0.1486576
329.20 0.1482375
329.30 0.1475104
329.40 0.1466624
329.50 0.1457901
329.60 0.1449179
329.70 0.1440456
329.80 0.1431734
329.90 0.1423012
330.00 0.1414289
330.10 0.1405567
330.20 0.1396845
330.30 0.1388122
330.40 0.13794
330.50 0.1370678
330.60 0.1361955
330.70 0.1353413
330.80 0.1345767
330.90 0.1340398
331.00 0.1338823
331.10 0.1341715
331.20 0.1348401
331.30 0.1357364
331.40 0.1367224
331.50 0.1377263
331.60 0.1387303
331.70 0.1397342
331.80 0.1407382
331.90 0.1417421
332.00 0.1427461
332.10 0.14375
332.20 0.144754
332.30 0.1457579
332.40 0.1467619
332.50 0.1477658
332.60 0.1487698
332.70 0.1497624
332.80 0.1506981
332.90 0.1514898
333.00 0.1520412
333.10 0.1523098
333.20 0.1523382
333.30 0.1522224
333.40 0.1520498
333.50 0.1518659
333.60 0.1516819
333.70 0.151498
333.80 0.151314
333.90 0.1511301
334.00 0.1509461
334.10 0.1507622
334.20 0.1505782
334.30 0.1503943
334.40 0.1502103
334.50 0.1500264
334.60 0.1499956
334.70 0.1504643
334.80 0.1515659
334.90 0.152685
335.00 0.1526498
335.10 0.1511406
335.20 0.1500019
335.30 0.1526817
335.40 0.1615764
335.50 0.175325
335.60 0.1886633
335.70 0.1954861
335.80 0.1927847
335.90 0.1821372
336.00 0.1680253
336.10 0.1550625
336.20 0.1464669
336.30 0.1435871
336.40 0.1453307
336.50 0.148299
336.60 0.1488238
336.70 0.1460108
336.80 0.142878
336.90 0.1439887
337.00 0.1515419
337.10 0.1632284
337.20 0.1735516
337.30 0.1776054
337.40 0.174518
337.50 0.167996
337.60 0.16349
337.70 0.1641512
337.80 0.1689813
337.90 0.1746622
338.00 0.1786566
338.10 0.1802667
338.20 0.1791245
338.30 0.1740244
338.40 0.1645561
338.50 0.1535177
338.60 0.1464821
338.70 0.1477922
338.80 0.1565085
338.90 0.1667086
339.00 0.1722461
339.10 0.171784
339.20 0.1696181
339.30 0.1714526
339.40 0.1791471
339.50 0.189512
339.60 0.1977573
339.70 0.2015175
339.80 0.2014561
339.90 0.1988936
340.00 0.1943558
340.10 0.1883858
340.20 0.1822389
340.30 0.1768686
340.40 0.1716328
340.50 0.164967
340.60 0.1564946
340.70 0.1478979
340.80 0.1415859
340.90 0.1389289
341.00 0.1398352
341.10 0.1434681
341.20 0.1488637
341.30 0.1548894
341.40 0.1602107
341.50 0.1638073
341.60 0.1655786
341.70 0.1663881
341.80 0.1674068
341.90 0.1692483
342.00 0.1714246
342.10 0.1724416
342.20 0.1707083
342.30 0.1658746
342.40 0.1595516
342.50 0.1544957
342.60 0.1527566
342.70 0.1543993
342.80 0.1577711
342.90 0.1608062
343.00 0.1622969
343.10 0.1624357
343.20 0.1623659
343.30 0.1630698
343.40 0.1645127
343.50 0.1658456
343.60 0.1663036
343.70 0.1656767
343.80 0.1641278
343.90 0.1620401
344.00 0.1601145
344.10 0.1591613
344.20 0.1593919
344.30 0.1600622
344.40 0.1601252
344.50 0.1592334
344.60 0.158021
344.70 0.1575476
344.80 0.1586233
344.90 0.1615342
345.00 0.1661286
345.10 0.1719318
345.20 0.1781706
345.30 0.1837745
345.40 0.1875471
345.50 0.1887429
345.60 0.1876892
345.70 0.1857324
345.80 0.1843167
345.90 0.1839749
346.00 0.1840895
346.10 0.1834334
346.20 0.1810262
346.30 0.1769056
346.40 0.1723759
346.50 0.1692488
346.60 0.1684033
346.70 0.1690217
346.80 0.1693499
346.90 0.1681252
347.00 0.1652276
347.10 0.1614375
347.20 0.1580498
347.30 0.1565087
347.40 0.1577321
347.50 0.1613887
347.60 0.1660523
347.70 0.1702976
347.80 0.1736543
347.90 0.1765917
348.00 0.1797788
348.10 0.1833354
348.20 0.1865913
348.30 0.1885293
348.40 0.1886097
348.50 0.187243
348.60 0.1853665
348.70 0.18359
348.80 0.1819085
348.90 0.1801257
349.00 0.1782514
349.10 0.1764521
349.20 0.1748772
349.30 0.1737408
349.40 0.1734275
349.50 0.1741825
349.60 0.1756318
349.70 0.1768384
349.80 0.1771319
349.90 0.1770505
350.00 0.1782775
350.10 0.1823145
350.20 0.1890427
350.30 0.1965708
350.40 0.2025263
350.50 0.2055546
350.60 0.2057657
350.70 0.2040992
350.80 0.2015259
350.90 0.1985885
351.00 0.1951912
351.10 0.190644
351.20 0.1842023
351.30 0.1760246
351.40 0.1676961
351.50 0.1614665
351.60 0.1586564
351.70 0.1587255
351.80 0.1599009
351.90 0.1606543
352.00 0.160556
352.10 0.1599158
352.20 0.1590943
352.30 0.1584037
352.40 0.1585151
352.50 0.1606579
352.60 0.1659448
352.70 0.1742211
352.80 0.1836247
352.90 0.1916254
353.00 0.196888
353.10 0.2001252
353.20 0.2030048
353.30 0.2064513
353.40 0.2102392
353.50 0.2139154
353.60 0.217572
353.70 0.2215584
353.80 0.2258689
353.90 0.23012
354.00 0.2338105
354.10 0.2362891
354.20 0.2367702
354.30 0.2349399
354.40 0.2316353
354.50 0.22856
354.60 0.2270114
354.70 0.2269239
354.80 0.2272281
354.90 0.2269732
355.00 0.2259816
355.10 0.2246353
355.20 0.2233411
355.30 0.2222869
355.40 0.2215639
355.50 0.2212116
355.60 0.2210072
355.70 0.2203276
355.80 0.2184388
355.90 0.2151069
356.00 0.2108759
356.10 0.2066254
356.20 0.202817
356.30 0.1991255
356.40 0.1947952
356.50 0.1894618
356.60 0.1837497
356.70 0.1790489
356.80 0.1765462
356.90 0.1763481
357.00 0.1774904
357.10 0.1786831
357.20 0.1789856
357.30 0.1779969
357.40 0.1757384
357.50 0.1725271
357.60 0.1688831
357.70 0.1653476
357.80 0.1622629
357.90 0.1596956
358.00 0.157626
358.10 0.1562805
358.20 0.1562192
358.30 0.1579688
358.40 0.1614938
358.50 0.1660065
358.60 0.1702716
358.70 0.1731354
358.80 0.174006
358.90 0.1731397
359.00 0.171659
359.10 0.1711318
359.20 0.172708
359.30 0.1763176
359.40 0.180579
359.50 0.1836635
359.60 0.1845354
359.70 0.1835945
359.80 0.1822235
359.90 0.1816189
360.00 0.181841
360.10 0.1818159
360.20 0.1802524
360.30 0.176679
360.40 0.1718403
360.50 0.1673251
360.60 0.1648297
360.70 0.1654832
360.80 0.1693379
360.90 0.1752512
361.00 0.1814467
361.10 0.1865252
361.20 0.1901277
361.30 0.1926604
361.40 0.194475
361.50 0.1954954
361.60 0.1957027
361.70 0.1956616
361.80 0.1962136
361.90 0.1976225
362.00 0.1992594
362.10 0.2002617
362.20 0.2003259
362.30 0.1997945
362.40 0.1992414
362.50 0.1991459
362.60 0.1996676
362.70 0.200371
362.80 0.2003034
362.90 0.1987525
363.00 0.1960766
363.10 0.1935978
363.20 0.1925373
363.30 0.1931046
363.40 0.1945867
363.50 0.1960946
363.60 0.1971355
363.70 0.1976605
363.80 0.1977698
363.90 0.1974223
364.00 0.1963638
364.10 0.1943036
364.20 0.1912089
364.30 0.1874687
364.40 0.1838114
364.50 0.1810681
364.60 0.1798509
364.70 0.1802118
364.80 0.1815684
364.90 0.1831445
365.00 0.1846788
365.10 0.1866891
365.20 0.1898339
365.30 0.193932
365.40 0.1977242
365.50 0.1997448
365.60 0.1995306
365.70 0.1979716
365.80 0.1964536
365.90 0.1957335
366.00 0.1956557
366.10 0.1957842
366.20 0.1960889
366.30 0.1968861
366.40 0.1982579
366.50 0.1997333
366.60 0.2005359
366.70 0.2000849
366.80 0.1982987
366.90 0.19555
367.00 0.1924713
367.10 0.189781
367.20 0.1881317
367.30 0.1879428
367.40 0.1892187
367.50 0.191512
367.60 0.1941423
367.70 0.1965496
367.80 0.1985272
367.90 0.200184
368.00 0.2017137
368.10 0.2031624
368.20 0.2043454
368.30 0.2049384
368.40 0.2046876
368.50 0.2036483
368.60 0.2022844
368.70 0.2012762
368.80 0.201105
368.90 0.2017596
369.00 0.2028701
369.10 0.2041434
369.20 0.2055644
369.30 0.207119
369.40 0.2084431
369.50 0.208913
369.60 0.2081854
369.70 0.2066188
369.80 0.2051484
369.90 0.2047564
370.00 0.205962
370.10 0.2086178
370.20 0.2120766
370.30 0.2155399
370.40 0.2183328
370.50 0.2200177
370.60 0.2204429
370.70 0.2198631
370.80 0.2189547
370.90 0.2185138
371.00 0.2189401
371.10 0.2199048
371.20 0.2204756
371.30 0.2195986
371.40 0.2166867
371.50 0.2120098
371.60 0.2066548
371.70 0.2020174
371.80 0.1991645
371.90 0.1984887
372.00 0.1997405
372.10 0.2021012
372.20 0.204126
372.30 0.2039953
372.40 0.2003565
372.50 0.1933841
372.60 0.1850998
372.70 0.1784672
372.80 0.1758817
372.90 0.1781219
373.00 0.1842909
373.10 0.1924678
373.20 0.2005046
373.30 0.2066071
373.40 0.2096948
373.50 0.2094769
373.60 0.206255
373.70 0.200635
373.80 0.1933988
373.90 0.1855755
374.00 0.1784558
374.10 0.1733671
374.20 0.1713361
374.30 0.1729077
374.40 0.1781872
374.50 0.1868786
374.60 0.1981751
374.70 0.2106053
374.80 0.2221255
374.90 0.2306386
375.00 0.2347132
375.10 0.2340447
375.20 0.2294047
375.30 0.2222398
375.40 0.2142274
375.50 0.2069232
375.60 0.2013912
375.70 0.1979185
375.80 0.1960327
375.90 0.1948939
376.00 0.1938776
376.10 0.1930327
376.20 0.1931804
376.30 0.1955735
376.40 0.201286
376.50 0.2107501
376.60 0.2237456
376.70 0.2395409
376.80 0.2567934
376.90 0.2732667
377.00 0.2860148
377.10 0.292391
377.20 0.2912587
377.30 0.2834324
377.40 0.2710785
377.50 0.2566909
377.60 0.2423779
377.70 0.2296572
377.80 0.2194013
377.90 0.211792
378.00 0.2064291
378.10 0.2026769
378.20 0.200036
378.30 0.198237
378.40 0.1970931
378.50 0.1964502
378.60 0.1963325
378.70 0.1970241
378.80 0.1989464
378.90 0.2025716
379.00 0.2085653
379.10 0.2178687
379.20 0.2313081
379.30 0.2488716
379.40 0.2692624
379.50 0.2900854
379.60 0.3084002
379.70 0.3213061
379.80 0.3265998
379.90 0.3234605
380.00 0.3128709
380.10 0.2973309
380.20 0.2799043
380.30 0.2631694
380.40 0.2486763
380.50 0.2369858
380.60 0.2279745
380.70 0.2210962
380.80 0.2155765
380.90 0.2107488
381.00 0.2063831
381.10 0.2026756
381.20 0.1998539
381.30 0.1978034
381.40 0.1961785
381.50 0.1948913
381.60 0.1943041
381.70 0.1947691
381.80 0.195979
381.90 0.1969035
382.00 0.1965391
382.10 0.1947784
382.20 0.1925488
382.30 0.1919854
382.40 0.1946609
382.50 0.2005796
382.60 0.2115685
382.70 0.2339585
382.80 0.2752559
382.90 0.3345747
383.00 0.3967223
383.10 0.4405204
383.20 0.4558682
383.30 0.448466
383.40 0.4298653
383.50 0.4055386
383.60 0.3730809
383.70 0.3309007
383.80 0.2836929
383.90 0.2434956
384.00 0.2253673
384.10 0.235569
384.20 0.2624367
384.30 0.2844989
384.40 0.2883059
384.50 0.2738047
384.60 0.2475365
384.70 0.2213545
384.80 0.2163848
384.90 0.2487067
385.00 0.3044345
385.10 0.3438668
385.20 0.3391502
385.30 0.301055
385.40 0.2598985
385.50 0.2331138
385.60 0.2208688
385.70 0.2200738
385.80 0.2298185
385.90 0.2448647
386.00 0.2547111
386.10 0.2520627
386.20 0.2353702
386.30 0.2053728
386.40 0.1667725
386.50 0.1343357
386.60 0.1295609
386.70 0.1659396
386.80 0.2357449
386.90 0.3100718
387.00 0.357074
387.10 0.3619853
387.20 0.3347667
387.30 0.2991989
387.40 0.2721405
387.50 0.2522057
387.60 0.2286789
387.70 0.2005639
387.80 0.1809183
387.90 0.1827698
388.00 0.2044562
388.10 0.2312353
388.20 0.2514636
388.30 0.2618444
388.40 0.2604286
388.50 0.2471383
388.60 0.2320371
388.70 0.232798
388.80 0.2559577
388.90 0.2861759
389.00 0.3016297
389.10 0.2973907
389.20 0.2826194
389.30 0.2635479
389.40 0.2389397
389.50 0.2076472
389.60 0.1746367
389.70 0.1473902
389.80 0.1328927
389.90 0.1364845
390.00 0.1567115
390.10 0.1835273
390.20 0.2064931
390.30 0.2230144
390.40 0.2371537
390.50 0.2534981
390.60 0.2726664
390.70 0.2914929
390.80 0.3034388
390.90 0.3006183
391.00 0.279962
391.10 0.2478408
391.20 0.2193927
391.30 0.2132444
391.40 0.2393042
391.50 0.2876989
391.60 0.3333658
391.70 0.3542274
391.80 0.3465995
391.90 0.3217252
392.00 0.2915793
392.10 0.2638942
392.20 0.2436325
392.30 0.2313589
392.40 0.2241329
392.50 0.2213445
392.60 0.2286707
392.70 0.2503701
392.80 0.2778763
392.90 0.2975736
393.00 0.313386
393.10 0.3520508
393.20 0.4368802
393.30 0.5515
393.40 0.6382873
393.50 0.641742
393.60 0.5556732
393.70 0.4289703
393.80 0.3255169
393.90 0.2779821
394.00 0.2729037
394.10 0.2736166
394.20 0.2543109
394.30 0.2167117
394.40 0.1817107
394.50 0.1689913
394.60 0.1821868
394.70 0.2080172
394.80 0.228116
394.90 0.2352661
395.00 0.2370235
395.10 0.2411963
395.20 0.2439655
395.30 0.2378114
395.40 0.2276995
395.50 0.2303976
395.60 0.253017
395.70 0.280534
395.80 0.2911819
395.90 0.2767685
396.00 0.2483235
396.10 0.2243898
396.20 0.2155992
396.30 0.2237111
396.40 0.2499938
396.50 0.2990311
396.60 0.3746053
396.70 0.4685108
396.80 0.5541614
396.90 0.5981247
397.00 0.5791591
397.10 0.5043708
397.20 0.4102884
397.30 0.3420641
397.40 0.3242656
397.50 0.3473103
397.60 0.3789949
397.70 0.3913427
397.80 0.379461
397.90 0.3565334
398.00 0.3383453
398.10 0.3322218
398.20 0.3395927
398.30 0.3614485
398.40 0.3966542
398.50 0.4359597
398.60 0.4626662
398.70 0.4633951
398.80 0.4366555
398.90 0.395586
399.00 0.3639554
399.10 0.36269
399.20 0.3940151
399.30 0.4393081
399.40 0.4739347
399.50 0.4826948
399.60 0.4620773
399.70 0.4192388
399.80 0.3739676
399.90 0.349461
400.00 0.3523251
400.10 0.3671362
400.20 0.3760913
400.30 0.3791351
400.40 0.3871991
400.50 0.401731
400.60 0.4112234
400.70 0.406542
400.80 0.3941245
400.90 0.3895228
401.00 0.3975904
401.10 0.4064323
401.20 0.4025692
401.30 0.3886323
401.40 0.382306
401.50 0.394464
401.60 0.4152351
401.70 0.4266551
401.80 0.4233264
401.90 0.4145449
402.00 0.4078558
402.10 0.3999319
402.20 0.3887065
402.30 0.3843041
402.40 0.3964871
402.50 0.416811
402.60 0.4226796
402.70 0.4000866
402.80 0.3581981
402.90 0.3191529
403.00 0.2985897
403.10 0.2943815
403.20 0.2912495
403.30 0.2779305
403.40 0.2604967
403.50 0.2573609
403.60 0.2802016
403.70 0.3230862
403.80 0.3700253
403.90 0.409709
404.00 0.4418284
404.10 0.4698784
404.20 0.4891676
404.30 0.4861419
404.40 0.4521244
404.50 0.3964617
404.60 0.3437413
404.70 0.3155515
404.80 0.3174758
404.90 0.3399894
405.00 0.365608
405.10 0.3793544
405.20 0.3770491
405.30 0.3645069
405.40 0.3496319
405.50 0.3372163
405.60 0.3298443
405.70 0.3303618
405.80 0.3388059
405.90 0.3510355
406.00 0.3622743
406.10 0.3695544
406.20 0.3735616
406.30 0.3784358
406.40 0.3894164
406.50 0.4078109
406.60 0.4271192
406.70 0.4367602
406.80 0.4310465
406.90 0.4121928
407.00 0.3880049
407.10 0.3680782
407.20 0.3598244
407.30 0.3653297
407.40 0.3768929
407.50 0.3790821
407.60 0.3612924
407.70 0.3286829
407.80 0.2989647
407.90 0.2881592
408.00 0.299611
408.10 0.326949
408.20 0.361986
408.30 0.3950648
408.40 0.4138638
408.50 0.4105782
408.60 0.3925677
408.70 0.3781445
408.80 0.3753897
408.90 0.3725769
409.00 0.3568812
409.10 0.3370786
409.20 0.3371685
409.30 0.366951
409.40 0.4095008
409.50 0.4377362
409.60 0.4374921
409.70 0.415493
409.80 0.3935801
409.90 0.396256
410.00 0.4327864
410.10 0.4867527
410.20 0.526844
410.30 0.5327127
410.40 0.507779
410.50 0.4682498
410.60 0.4273321
410.70 0.3929063
410.80 0.3717915
410.90 0.368063
411.00 0.3773624
411.10 0.387168
411.20 0.3877079
411.30 0.3791669
411.40 0.368741
411.50 0.3639217
411.60 0.3681202
411.70 0.3816293
411.80 0.4034842
411.90 0.4284952
412.00 0.44495
412.10 0.4402122
412.20 0.4113666
412.30 0.3731805
412.40 0.3494081
412.50 0.3529878
412.60 0.3771771
412.70 0.4043123
412.80 0.421391
412.90 0.4245214
413.00 0.4128949
413.10 0.387333
413.20 0.3540547
413.30 0.324326
413.40 0.306154
413.50 0.2978398
413.60 0.2920785
413.70 0.2858132
413.80 0.2826953
413.90 0.2871132
414.00 0.2985045
414.10 0.3117764
414.20 0.322156
414.30 0.3267714
414.40 0.3253868
414.50 0.3220062
414.60 0.3244937
414.70 0.3382179
414.80 0.3599394
414.90 0.3812199
415.00 0.3962373
415.10 0.4030263
415.20 0.4003532
415.30 0.3891015
415.40 0.3767454
415.50 0.3726888
415.60 0.3752269
415.70 0.3708428
415.80 0.3500398
415.90 0.3204198
416.00 0.2999583
416.10 0.300295
416.20 0.3201006
416.30 0.3520735
416.40 0.3897708
416.50 0.4257391
416.60 0.4480829
416.70 0.4460149
416.80 0.4217046
416.90 0.39172
417.00 0.372503
417.10 0.3647247
417.20 0.3557574
417.30 0.3372951
417.40 0.3140224
417.50 0.2951718
417.60 0.2849454
417.70 0.2837299
417.80 0.2944417
417.90 0.3202872
418.00 0.3554246
418.10 0.3845336
418.20 0.3961426
418.30 0.3934887
418.40 0.3881806
418.50 0.3841297
418.60 0.3739316
418.70 0.3532814
418.80 0.3301758
418.90 0.3153086
419.00 0.3096136
419.10 0.3074045
419.20 0.3087903
419.30 0.320518
419.40 0.3440161
419.50 0.3690919
419.60 0.3817296
419.70 0.3771205
419.80 0.363366
419.90 0.3516757
420.00 0.3450176
420.10 0.3384874
420.20 0.3296733
420.30 0.3245629
420.40 0.3294973
420.50 0.3400769
420.60 0.343912
420.70 0.333593
420.80 0.3143071
420.90 0.2980931
421.00 0.2922572
421.10 0.2955778
421.20 0.303213
421.30 0.3115104
421.40 0.3170522
421.50 0.3148396
421.60 0.3019214
421.70 0.2822832
421.80 0.2636083
421.90 0.2487426
422.00 0.2336026
422.10 0.2127389
422.20 0.1855592
422.30 0.1568466
422.40 0.1330038
422.50 0.1178147
422.60 0.1099576
422.70 0.1047437
422.80 0.1004892
422.90 0.1019044
423.00 0.1144559
423.10 0.1378451
423.20 0.1667359
423.30 0.1962161
423.40 0.2253253
423.50 0.2546154
423.60 0.2822204
423.70 0.3034469
423.80 0.3120549
423.90 0.3039439
424.00 0.2828367
424.10 0.2595189
424.20 0.2434135
424.30 0.2371612
424.40 0.2392023
424.50 0.2480707
424.60 0.2592736
424.70 0.2629078
424.80 0.2528545
424.90 0.237714
425.00 0.2345958
425.10 0.2497514
425.20 0.2704391
425.30 0.2774494
425.40 0.2645621
425.50 0.2434527
425.60 0.2320894
425.70 0.2392301
425.80 0.2594169
425.90 0.2808171
426.00 0.2952166
426.10 0.30177
426.20 0.303231
426.30 0.3031615
426.40 0.3047489
426.50 0.3080436
426.60 0.3075938
426.70 0.2971309
426.80 0.2801066
426.90 0.270272
427.00 0.2779491
427.10 0.297039
427.20 0.3102846
427.30 0.3064669
427.40 0.2887481
427.50 0.2686178
427.60 0.2569569
427.70 0.2606242
427.80 0.2806475
427.90 0.3104995
428.00 0.3384962
428.10 0.3549521
428.20 0.3573659
428.30 0.3488949
428.40 0.3336364
428.50 0.314319
428.60 0.2938629
428.70 0.2769251
428.80 0.268679
428.90 0.2715843
429.00 0.2833215
429.10 0.2985381
429.20 0.3121491
429.30 0.3208524
429.40 0.3237737
429.50 0.3233262
429.60 0.3239853
429.70 0.3276781
429.80 0.3309262
429.90 0.3281876
430.00 0.3180756
430.10 0.3058533
430.20 0.3001762
430.30 0.3083208
430.40 0.3306042
430.50 0.3555226
430.60 0.3641042
430.70 0.3454473
430.80 0.3093414
430.90 0.2808709
431.00 0.2799779
431.10 0.3054374
431.20 0.3380584
431.30 0.3572678
431.40 0.3562707
431.50 0.3439028
431.60 0.3341737
431.70 0.3358284
431.80 0.3494962
431.90 0.3707907
432.00 0.3931751
432.10 0.409772
432.20 0.4169156
432.30 0.4157006
432.40 0.4071628
432.50 0.3884292
432.60 0.3579815
432.70 0.3243017
432.80 0.3049408
432.90 0.3115588
433.00 0.3378971
433.10 0.3666344
433.20 0.3859745
433.30 0.3974141
433.40 0.4082776
433.50 0.4223181
433.60 0.4415858
433.70 0.4745329
433.80 0.5338643
433.90 0.6201592
434.00 0.7092079
434.10 0.7614251
434.20 0.7510777
434.30 0.6875964
434.40 0.6059679
434.50 0.5385223
434.60 0.4981479
434.70 0.4818825
434.80 0.4798348
434.90 0.477816
435.00 0.4604365
435.10 0.4218481
435.20 0.3727885
435.30 0.333406
435.40 0.3201946
435.50 0.3369865
435.60 0.3730073
435.70 0.4095017
435.80 0.4311989
435.90 0.4346282
436.00 0.4257194
436.10 0.4126313
436.20 0.4033128
436.30 0.4044621
436.40 0.4152595
436.50 0.4245734
436.60 0.422358
436.70 0.4124345
436.80 0.4086186
436.90 0.4182008
437.00 0.4343111
437.10 0.4443634
437.20 0.4423214
437.30 0.431126
437.40 0.4180265
437.50 0.4103852
437.60 0.4110651
437.70 0.4158094
437.80 0.4168695
437.90 0.4116693
438.00 0.4057988
438.10 0.4046025
438.20 0.4037421
438.30 0.3947795
438.40 0.3794327
438.50 0.3714015
438.60 0.381519
438.70 0.4041983
438.80 0.4232957
438.90 0.4292426
439.00 0.4267175
439.10 0.4257316
439.20 0.4296364
439.30 0.433384
439.40 0.4316464
439.50 0.4260362
439.60 0.4230657
439.70 0.4270507
439.80 0.4360166
439.90 0.4456292
440.00 0.4554796
440.10 0.4685194
440.20 0.4846105
440.30 0.4972485
440.40 0.4978016
440.50 0.482721
440.60 0.4569363
440.70 0.4324669
440.80 0.4242162
440.90 0.4416648
441.00 0.479312
441.10 0.5166445
441.20 0.5336593
441.30 0.5280479
441.40 0.5159305
441.50 0.514909
441.60 0.5288748
441.70 0.5488028
441.80 0.5621687
441.90 0.5605696
442.00 0.5431505
442.10 0.5170366
442.20 0.4920523
442.30 0.4726955
442.40 0.4570322
442.50 0.4444392
442.60 0.4407351
442.70 0.4516432
442.80 0.4734101
442.90 0.495476
443.00 0.5115175
443.10 0.5234572
443.20 0.5339605
443.30 0.5394979
443.40 0.5363036
443.50 0.5296637
443.60 0.5311067
443.70 0.5462544
443.80 0.5695675
443.90 0.5918171
444.00 0.6096318
444.10 0.6247353
444.20 0.6365132
444.30 0.6412998
444.40 0.6379145
444.50 0.6313375
444.60 0.6287895
444.70 0.6323477
444.80 0.6387372
444.90 0.6445271
445.00 0.648497
445.10 0.6493332
445.20 0.6424738
445.30 0.6217238
445.40 0.5858642
445.50 0.5439768
445.60 0.5131046
445.70 0.5079282
445.80 0.5298716
445.90 0.5663159
446.00 0.600985
446.10 0.6239351
446.20 0.6336425
446.30 0.6340371
446.40 0.6317818
446.50 0.6331461
446.60 0.6402298
446.70 0.649959
446.80 0.6579611
446.90 0.6635774
447.00 0.669954
447.10 0.6807672
447.20 0.697552
447.30 0.7180971
447.40 0.7365223
447.50 0.747024
447.60 0.7495541
447.70 0.7507224
447.80 0.7566248
447.90 0.7645543
448.00 0.7644053
448.10 0.7498847
448.20 0.7276284
448.30 0.713662
448.40 0.7204014
448.50 0.7463154
448.60 0.7764753
448.70 0.793456
448.80 0.7890159
448.90 0.7692067
449.00 0.7503602
449.10 0.7470308
449.20 0.7602215
449.30 0.7759705
449.40 0.7772205
449.50 0.7601311
449.60 0.7381439
449.70 0.7286879
449.80 0.7380782
449.90 0.7592639
450.00 0.781394
450.10 0.799139
450.20 0.813001
450.30 0.8242285
450.40 0.8312631
450.50 0.8296724
450.60 0.8160909
450.70 0.7926272
450.80 0.766482
450.90 0.7455804
451.00 0.7339365
451.10 0.7303889
451.20 0.73077
451.30 0.7308552
451.40 0.7280179
451.50 0.7212387
451.60 0.7113873
451.70 0.7031028
451.80 0.7050137
451.90 0.7231101
452.00 0.7524564
452.10 0.78007
452.20 0.7980352
452.30 0.8099837
452.40 0.8217991
452.50 0.8304222
452.60 0.8279388
452.70 0.8146426
452.80 0.8014476
452.90 0.7989913
453.00 0.8076426
453.10 0.8181859
453.20 0.8197956
453.30 0.8074616
453.40 0.7854655
453.50 0.7666492
453.60 0.7659262
453.70 0.7903853
453.80 0.8334193
453.90 0.8783565
454.00 0.9108339
454.10 0.9272337
454.20 0.9304038
454.30 0.919608
454.40 0.8898875
454.50 0.8423967
454.60 0.790833
454.70 0.7540981
454.80 0.7432356
454.90 0.756684
455.00 0.7838797
455.10 0.8111965
455.20 0.8278531
455.30 0.8312708
455.40 0.8284722
455.50 0.8304597
455.60 0.8436466
455.70 0.8667045
455.80 0.8939487
455.90 0.9194626
456.00 0.939039
456.10 0.9508987
456.20 0.9563125
456.30 0.9592257
456.40 0.9642374
456.50 0.9748949
456.60 0.9926687
456.70 1.015282
456.80 1.036408
456.90 1.04906
457.00 1.051721
457.10 1.050784
457.20 1.054612
457.30 1.065472
457.40 1.076815
457.50 1.077721
457.60 1.061073
457.70 1.029166
457.80 0.9930343
457.90 0.9662515
458.00 0.9567179
458.10 0.9612876
458.20 0.9675318
458.30 0.9603777
458.40 0.9308138
458.50 0.8827833
458.60 0.8314555
458.70 0.7930539
458.80 0.775361
458.90 0.7770339
459.00 0.7928903
459.10 0.8173162
459.20 0.8433566
459.30 0.8646351
459.40 0.8809723
459.50 0.8979297
459.60 0.9194158
459.70 0.9419199
459.80 0.9570972
459.90 0.9600769
460.00 0.9541822
460.10 0.9475239
460.20 0.9455804
460.30 0.9453378
460.40 0.9359931
460.50 0.9087392
460.60 0.8686063
460.70 0.8366529
460.80 0.8375765
460.90 0.8806109
461.00 0.951093
461.10 1.022097
461.20 1.074257
461.30 1.105412
461.40 1.123479
461.50 1.133791
461.60 1.136289
461.70 1.131611
461.80 1.12435
461.90 1.120807
462.00 1.12658
462.10 1.144199
462.20 1.168006
462.30 1.180406
462.40 1.160892
462.50 1.10379
462.60 1.024891
462.70 0.9495689
462.80 0.8963833
462.90 0.8711921
463.00 0.8704212
463.10 0.8847503
463.20 0.9018766
463.30 0.9123867
463.40 0.9143128
463.50 0.9110759
463.60 0.9046181
463.70 0.893205
463.80 0.8781423
463.90 0.8682612
464.00 0.8734135
464.10 0.8941685
464.20 0.9212458
464.30 0.9444501
464.40 0.9596358
464.50 0.9674612
464.60 0.9705039
464.70 0.9720984
464.80 0.9740046
464.90 0.9746528
465.00 0.9714742
465.10 0.9660954
465.20 0.9649865
465.30 0.9720383
465.40 0.982499
465.50 0.9877629
465.60 0.985722
465.70 0.9860744
465.80 1.003429
465.90 1.043263
466.00 1.094899
466.10 1.137889
466.20 1.156999
466.30 1.153578
466.40 1.140988
466.50 1.128653
466.60 1.113564
466.70 1.086306
466.80 1.042716
466.90 0.9874681
467.00 0.9279649
467.10 0.8698422
467.20 0.8193336
467.30 0.7861128
467.40 0.7794786
467.50 0.7996111
467.60 0.8327917
467.70 0.8590136
467.80 0.8667521
467.90 0.8600359
468.00 0.8514917
468.10 0.8499374
468.20 0.8555617
468.30 0.865072
468.40 0.8776058
468.50 0.8942888
468.60 0.9139001
468.70 0.931823
468.80 0.9446161
468.90 0.9545006
469.00 0.9672703
469.10 0.9850669
469.20 1.002279
469.30 1.010109
469.40 1.005981
469.50 0.9966725
469.60 0.991954
469.70 0.9964327
469.80 1.008469
469.90 1.024716
470.00 1.041447
470.10 1.053675
470.20 1.05865
470.30 1.059937
470.40 1.063165
470.50 1.067697
470.60 1.066937
470.70 1.058498
470.80 1.047921
470.90 1.040441
471.00 1.035246
471.10 1.029007
471.20 1.020158
471.30 1.006697
471.40 0.9838394
471.50 0.9501044
471.60 0.9152644
471.70 0.8962481
471.80 0.9038341
471.90 0.9337428
472.00 0.970106
472.10 0.9974028
472.20 1.009709
472.30 1.011839
472.40 1.013699
472.50 1.021498
472.60 1.032941
472.70 1.040815
472.80 1.04074
472.90 1.035195
473.00 1.0305
473.10 1.031817
473.20 1.041421
473.30 1.058484
473.40 1.078476
473.50 1.093655
473.60 1.096065
473.70 1.083274
473.80 1.062127
473.90 1.045598
474.00 1.043736
474.10 1.055957
474.20 1.072374
474.30 1.083436
474.40 1.087896
474.50 1.091686
474.60 1.10116
474.70 1.117659
474.80 1.137187
474.90 1.154317
475.00 1.165816
475.10 1.171561
475.20 1.174571
475.30 1.180724
475.40 1.195448
475.50 1.217029
475.60 1.232282
475.70 1.222805
475.80 1.179372
475.90 1.108645
476.00 1.02485
476.10 0.9376066
476.20 0.850204
476.30 0.7679549
476.40 0.7020305
476.50 0.662013
476.60 0.6470787
476.70 0.6467837
476.80 0.6496554
476.90 0.6502125
477.00 0.6496656
477.10 0.6527222
477.20 0.664187
477.30 0.6863891
477.40 0.7176548
477.50 0.7517131
477.60 0.778646
477.70 0.788756
477.80 0.7791738
477.90 0.7572578
478.00 0.7352881
478.10 0.7217829
478.20 0.7190063
478.30 0.727129
478.40 0.747177
478.50 0.7779245
478.60 0.8126648
478.70 0.8419722
478.80 0.8593906
478.90 0.8651886
479.00 0.8659778
479.10 0.8696667
479.20 0.8793102
479.30 0.8918553
479.40 0.9026502
479.50 0.910764
479.60 0.9190867
479.70 0.9304137
479.80 0.9458062
479.90 0.9650833
480.00 0.986329
480.10 1.00504
480.20 1.014352
480.30 1.006826
480.40 0.9776454
480.50 0.9285433
480.60 0.8694675
480.70 0.8140736
480.80 0.7711646
480.90 0.7412414
481.00 0.7217232
481.10 0.7130103
481.20 0.7185317
481.30 0.73992
481.40 0.7736834
481.50 0.8120188
481.60 0.8448474
481.70 0.8635229
481.80 0.8662744
481.90 0.8604154
482.00 0.8570612
482.10 0.8622913
482.20 0.8740173
482.30 0.8873207
482.40 0.8996303
482.50 0.9094361
482.60 0.9140725
482.70 0.9119947
482.80 0.9061763
482.90 0.9014147
483.00 0.8978598
483.10 0.891413
483.20 0.8822758
483.30 0.8791574
483.40 0.891553
483.50 0.919192
483.60 0.9524793
483.70 0.9829425
483.80 1.008459
483.90 1.02748
484.00 1.032944
484.10 1.016328
484.20 0.9793991
484.30 0.9400219
484.40 0.9215153
484.50 0.9318636
484.60 0.9532126
484.70 0.9561149
484.80 0.9262597
484.90 0.8752972
485.00 0.8268053
485.10 0.7977346
485.20 0.7926883
485.30 0.8076203
485.40 0.8325562
485.50 0.8538529
485.60 0.8629345
485.70 0.8669699
485.80 0.8911574
485.90 0.9651954
486.00 1.096118
486.10 1.247479
486.20 1.352024
486.30 1.358172
486.40 1.270209
486.50 1.141681
486.60 1.029807
486.70 0.960607
486.80 0.9318001
486.90 0.9321881
487.00 0.9504173
487.10 0.9735729
487.20 0.9896631
487.30 0.994083
487.40 0.9900686
487.50 0.9827892
487.60 0.9761746
487.70 0.9743545
487.80 0.9809087
487.90 0.9954886
488.00 1.012544
488.10 1.024645
488.20 1.028264
488.30 1.026416
488.40 1.025572
488.50 1.029531
488.60 1.037271
488.70 1.046659
488.80 1.058081
488.90 1.071516
489.00 1.081366
489.10 1.079982
489.20 1.067387
489.30 1.053684
489.40 1.049571
489.50 1.05652
489.60 1.067208
489.70 1.073928
489.80 1.074847
489.90 1.073314
490.00 1.073604
490.10 1.077298
490.20 1.084241
490.30 1.097216
490.40 1.122272
490.50 1.161689
490.60 1.208319
490.70 1.249851
490.80 1.279573
490.90 1.300243
491.00 1.317673
491.10 1.334099
491.20 1.347406
491.30 1.35362
491.40 1.349973
491.50 1.337458
491.60 1.321173
491.70 1.306365
491.80 1.293639
491.90 1.281092
492.00 1.271629
492.10 1.27421
492.20 1.295603
492.30 1.332288
492.40 1.372706
492.50 1.408489
492.60 1.440769
492.70 1.473664
492.80 1.503518
492.90 1.518545
493.00 1.510381
493.10 1.483765
493.20 1.452872
493.30 1.430312
493.40 1.421614
493.50 1.426616
493.60 1.44246
493.70 1.464644
493.80 1.48718
493.90 1.504586
494.00 1.514729
494.10 1.519857
494.20 1.525358
494.30 1.536247
494.40 1.554486
494.50 1.579934
494.60 1.612463
494.70 1.651632
494.80 1.694147
494.90 1.732901
495.00 1.759288
495.10 1.76345
495.20 1.729914
495.30 1.638393
495.40 1.478619
495.50 1.268268
495.60 1.051702
495.70 0.8764878
495.80 0.7684206
495.90 0.7246211
496.00 0.7235961
496.10 0.7391767
496.20 0.7513515
496.30 0.7528476
496.40 0.7488706
496.50 0.7504715
496.60 0.7671024
496.70 0.8023533
496.80 0.8535763
496.90 0.9131971
497.00 0.970659
497.10 1.016525
497.20 1.045693
497.30 1.05777
497.40 1.056034
497.50 1.04626
497.60 1.035168
497.70 1.027159
497.80 1.022373
497.90 1.018162
498.00 1.011264
498.10 0.9999448
498.20 0.9877382
498.30 0.9856776
498.40 1.006132
498.50 1.050099
498.60 1.102285
498.70 1.141932
498.80 1.157823
498.90 1.153498
499.00 1.14158
499.10 1.133117
499.20 1.129879
499.30 1.126634
499.40 1.122369
499.50 1.126218
499.60 1.13566
499.70 1.110794
499.80 0.9918776
499.90 0.7586171
500.00 1
500.10 0.8835842
500.20 0.8867973
500.30 0.9334238
500.40 0.9066998
500.50 0.8748162
500.60 0.8850444
500.70 0.9023586
500.80 0.8753397
500.90 0.8750909
501.00 0.9085777
501.10 0.9988933
501.20 0.9546717
501.30 0.9257073
501.40 0.8694494
501.50 0.8172444
501.60 0.851266
501.70 0.8435777
501.80 0.9323509
501.90 1.015073
502.00 1.064103
502.10 1.082251
502.20 1.03835
502.30 1.014944
502.40 1.064627
502.50 1.070826
502.60 1.05149
502.70 1.035856
502.80 1.072784
502.90 1.091064
503.00 1.102174
503.10 1.16167
503.20 1.166455
503.30 1.182588
503.40 1.164755
503.50 1.174392
503.60 1.180708
503.70 1.134199
503.80 1.165329
503.90 1.190716
504.00 1.152258
504.10 1.128278
504.20 1.145233
504.30 1.155793
504.40 1.173986
504.50 1.193925
504.60 1.305889
504.70 1.329678
504.80 1.321392
504.90 1.260282
505.00 1.158754
505.10 1.110744
505.20 1.1606
505.30 1.193779
505.40 1.191155
505.50 1.100775
505.60 1.143037
505.70 1.167727
505.80 1.21419
505.90 1.197505
506.00 1.184074
506.10 1.217275
506.20 1.215609
506.30 1.238564
506.40 1.201637
506.50 1.148914
506.60 1.153181
506.70 1.17894
506.80 1.17921
506.90 1.15738
507.00 1.195951
507.10 1.256915
507.20 1.239217
507.30 1.216059
507.40 1.249744
507.50 1.351688
507.60 1.362924
507.70 1.282213
507.80 1.170688
507.90 1.242268
508.00 1.290713
508.10 1.291974
508.20 1.185346
508.30 1.153147
508.40 1.192585
508.50 1.217804
508.60 1.274174
508.70 1.390113
508.80 1.373653
508.90 1.274242
509.00 1.244621
509.10 1.248123
509.20 1.274861
509.30 1.327584
509.40 1.416874
509.50 1.353242
509.60 1.151943
509.70 1.154273
509.80 1.319242
509.90 1.426916
510.00 1.332864
510.10 1.191099
510.20 1.188273
510.30 1.152719
510.40 1.132015
510.50 1.168402
510.60 1.215496
510.70 1.201153
510.80 1.136643
510.90 1.131711
511.00 1.213954
511.10 1.208944
511.20 1.215676
511.30 1.250374
511.40 1.293528
511.50 1.325299
511.60 1.429011
511.70 1.438332
511.80 1.412652
511.90 1.459037
512.00 1.406922
512.10 1.342839
512.20 1.383752
512.30 1.398658
512.40 1.334902
512.50 1.311406
512.60 1.274805
512.70 1.236403
512.80 1.234038
512.90 1.203472
513.00 1.197145
513.10 1.250588
513.20 1.305675
513.30 1.354886
513.40 1.392128
513.50 1.344303
513.60 1.331434
513.70 1.458755
513.80 1.55802
513.90 1.541628
514.00 1.438017
514.10 1.35439
514.20 1.371706
514.30 1.419295
514.40 1.363701
514.50 1.28165
514.60 1.214314
514.70 1.2124
514.80 1.297569
514.90 1.343222
515.00 1.379406
515.10 1.315256
515.20 1.301881
515.30 1.22394
515.40 1.116768
515.50 1.122708
515.60 1.217871
515.70 1.301318
515.80 1.454083
515.90 1.574221
516.00 1.543733
516.10 1.587314
516.20 1.710041
516.30 1.784876
516.40 1.658005
516.50 1.653896
516.60 1.661664
516.70 1.373079
516.80 0.90527
516.90 0.6600047
517.00 0.6028698
517.10 0.6066289
517.20 0.6174426
517.30 0.6475755
517.40 0.6465972
517.50 0.6919165
517.60 0.6979206
517.70 0.6845344
517.80 0.7469349
517.90 0.7914527
518.00 0.7487689
518.10 0.7410851
518.20 0.7149409
518.30 0.7520879
518.40 0.7960258
518.50 0.8173333
518.60 0.9662328
518.70 1.080116
518.80 1.087543
518.90 1.125443
519.00 1.138714
519.10 1.125496
519.20 1.137149
519.30 1.109917
519.40 1.064219
519.50 1.115064
519.60 1.166173
519.70 1.207807
519.80 1.283474
519.90 1.27655
520.00 1.25615
520.10 1.16838
520.20 1.139423
520.30 1.14476
520.40 1.100813
520.50 0.9644338
520.60 0.8547617
520.70 0.8018171
520.80 0.8577305
520.90 0.8707125
521.00 0.7928487
521.10 0.8041791
521.20 1.038786
521.30 1.30643
521.40 1.462707
521.50 1.49691
521.60 1.474168
521.70 1.50228
521.80 1.56509
521.90 1.605012
522.00 1.606746
522.10 1.60732
522.20 1.664006
522.30 1.671031
522.40 1.63881
522.50 1.530977
522.60 1.484447
522.70 1.469912
522.80 1.536528
522.90 1.601331
523.00 1.703759
523.10 1.764892
523.20 1.735294
523.30 1.689765
523.40 1.704784
523.50 1.67684
523.60 1.588598
523.70 1.626696
523.80 1.707002
523.90 1.700798
524.00 1.715029
524.10 1.634588
524.20 1.496955
524.30 1.431195
524.40 1.479493
524.50 1.525303
524.60 1.540952
524.70 1.505624
524.80 1.456121
524.90 1.44234
525.00 1.432287
525.10 1.448532
525.20 1.519066
525.30 1.596478
525.40 1.639902
525.50 1.670018
525.60 1.71826
525.70 1.733898
525.80 1.728336
525.90 1.749277
526.00 1.796235
526.10 1.680725
526.20 1.560925
526.30 1.491055
526.40 1.444907
526.50 1.382074
526.60 1.361607
526.70 1.356743
526.80 1.400898
526.90 1.365063
527.00 1.20542
527.10 1.173424
527.20 1.306396
527.30 1.508675
527.40 1.632269
527.50 1.673024
527.60 1.695541
527.70 1.670547
527.80 1.706551
527.90 1.792295
528.00 1.719723
528.10 1.636119
528.20 1.587967
528.30 1.597987
528.40 1.649325
528.50 1.716582
528.60 1.767954
528.70 1.858235
528.80 1.847326
528.90 1.828276
529.00 1.836754
529.10 1.862288
529.20 1.889623
529.30 1.825642
529.40 1.782421
529.50 1.833737
529.60 1.856985
529.70 1.79825
529.80 1.720354
529.90 1.675883
530.00 1.675433
530.10 1.696993
530.20 1.741801
530.30 1.838949
530.40 1.899891
530.50 1.960765
530.60 1.980028
530.70 1.944564
530.80 1.816061
530.90 1.760794
531.00 1.749536
531.10 1.76201
531.20 1.770442
531.30 1.78125
531.40 1.750583
531.50 1.749153
531.60 1.771073
531.70 1.796674
531.80 1.874571
531.90 1.860723
532.00 1.830573
532.10 1.814102
532.20 1.800637
532.30 1.864855
532.40 1.893451
532.50 1.815701
532.60 1.804623
532.70 1.829301
532.80 1.713137
532.90 1.480011
533.00 1.454961
533.10 1.633338
533.20 1.813618
533.30 1.857379
533.40 1.793308
533.50 1.750436
533.60 1.794929
533.70 1.805974
533.80 1.778503
533.90 1.749423
534.00 1.792407
534.10 1.806345
534.20 1.81596
534.30 1.878185
534.40 1.894678
534.50 1.893451
534.60 1.890738
534.70 1.821612
534.80 1.756989
534.90 1.820103
535.00 1.851919
535.10 1.955485
535.20 2.114846
535.30 2.182768
535.40 2.119654
535.50 2.126949
535.60 2.142925
535.70 2.128672
535.80 2.089706
535.90 2.001599
536.00 1.940894
536.10 1.908188
536.20 1.905385
536.30 1.916902
536.40 1.951904
536.50 1.928386
536.60 1.909888
536.70 1.950902
536.80 1.923815
536.90 1.984238
537.00 2.012992
537.10 1.866465
537.20 1.713317
537.30 1.720838
537.40 1.879119
537.50 2.02138
537.60 2.037817
537.70 2.010876
537.80 2.016595
537.90 2.076872
538.00 2.185008
538.10 2.248787
538.20 2.23119
538.30 2.183511
538.40 2.145987
538.50 2.147473
538.60 2.093399
538.70 2.151459
538.80 2.236707
538.90 2.311563
539.00 2.291141
539.10 2.274231
539.20 2.198406
539.30 2.118145
539.40 2.109273
539.50 2.11416
539.60 2.108103
539.70 2.036263
539.80 1.96126
539.90 1.989552
540.00 2.141765
540.10 2.294079
540.20 2.368362
540.30 2.386961
540.40 2.351182
540.50 2.301476
540.60 2.121545
540.70 2.005944
540.80 2.034991
540.90 2.131846
541.00 2.109825
541.10 1.98524
541.20 1.986783
541.30 2.033494
541.40 2.106639
541.50 2.245927
541.60 2.293561
541.70 2.269806
541.80 2.314705
541.90 2.424383
542.00 2.435439
542.10 2.315909
542.20 2.311631
542.30 2.362395
542.40 2.240264
542.50 2.209281
542.60 2.28272
542.70 2.317936
542.80 2.289857
542.90 2.262578
543.00 2.181496
543.10 2.099546
543.20 2.113721
543.30 2.178602
543.40 2.192349
543.50 2.140651
543.60 2.081747
543.70 2.186832
543.80 2.372876
543.90 2.409376
544.00 2.385407
544.10 2.410592
544.20 2.520034
544.30 2.594013
544.40 2.66574
544.50 2.62119
544.60 2.51579
544.70 2.265776
544.80 1.972957
544.90 1.674521
545.00 1.429202
545.10 1.258323
545.20 1.269198
545.30 1.28657
545.40 1.205465
545.50 1.27333
545.60 1.354379
545.70 1.334733
545.80 1.273893
545.90 1.359614
546.00 1.479279
546.10 1.509755
546.20 1.514957
546.30 1.545309
546.40 1.587393
546.50 1.619772
546.60 1.675354
546.70 1.709073
546.80 1.747791
546.90 1.749085
547.00 1.664704
547.10 1.603031
547.20 1.651408
547.30 1.666111
547.40 1.741677
547.50 1.744751
547.60 1.673947
547.70 1.613839
547.80 1.623915
547.90 1.640802
548.00 1.648931
548.10 1.694955
548.20 1.708814
548.30 1.703635
548.40 1.735237
548.50 1.791383
548.60 1.820497
548.70 1.853596
548.80 1.834288
548.90 1.819371
549.00 1.785619
549.10 1.814271
549.20 1.836585
549.30 1.864022
549.40 1.883026
549.50 1.918242
549.60 1.847528
549.70 1.683629
549.80 1.558065
549.90 1.505702
550.00 1.401484
550.10 1.380678
550.20 1.344685
550.30 1.352555
550.40 1.381951
550.50 1.322552
550.60 1.27109
550.70 1.281537
550.80 1.347297
550.90 1.368835
551.00 1.370141
551.10 1.350585
551.20 1.345586
551.30 1.35081
551.40 1.321786
551.50 1.30151
551.60 1.300057
551.70 1.361877
551.80 1.406843
551.90 1.388323
552.00 1.347185
552.10 1.365209
552.20 1.385778
552.30 1.405886
552.40 1.342141
552.50 1.275357
552.60 1.228218
552.70 1.25078
552.80 1.309357
552.90 1.306475
553.00 1.332695
553.10 1.380645
553.20 1.368677
553.30 1.327449
553.40 1.322383
553.50 1.256668
553.60 1.194646
553.70 1.190863
553.80 1.205228
553.90 1.162368
554.00 1.157448
554.10 1.243664
554.20 1.1946
554.30 1.10458
554.40 1.106343
554.50 1.186979
554.60 1.160218
554.70 1.145323
554.80 1.220146
554.90 1.31529
555.00 1.28559
555.10 1.231899
555.20 1.249811
555.30 1.271821
555.40 1.225144
555.50 1.234286
555.60 1.311395
555.70 1.426466
555.80 1.466073
555.90 1.451561
556.00 1.417155
556.10 1.433548
556.20 1.483118
556.30 1.525798
556.40 1.537665
556.50 1.578521
556.60 1.614683
556.70 1.652432
556.80 1.666663
556.90 1.608592
557.00 1.62333
557.10 1.702363
557.20 1.693694
557.30 1.694066
557.40 1.693874
557.50 1.693863
557.60 1.693863
557.70 1.693863
557.80 1.693863
557.90 1.693863
558.00 1.693863
558.10 1.693863
558.20 1.69375
558.30 1.693548
558.40 1.688358
558.50 1.715164
558.60 1.865215
558.70 1.97182
558.80 1.890276
558.90 1.735001
559.00 1.66825
559.10 1.723157
559.20 1.883127
559.30 1.933688
559.40 1.886223
559.50 1.781577
559.60 1.730622
559.70 1.784932
559.80 1.740844
559.90 1.55077
560.00 1.361753
560.10 1.353287
560.20 1.498035
560.30 1.625649
560.40 1.610822
560.50 1.505094
560.60 1.485843
560.70 1.495986
560.80 1.511872
560.90 1.53494
561.00 1.558538
561.10 1.591941
561.20 1.651734
561.30 1.681468
561.40 1.713137
561.50 1.661169
561.60 1.599676
561.70 1.54943
561.80 1.534648
561.90 1.545883
562.00 1.534265
562.10 1.516949
562.20 1.491551
562.30 1.519877
562.40 1.590433
562.50 1.675456
562.60 1.656013
562.70 1.605102
562.80 1.624298
562.90 1.582282
563.00 1.428234
563.10 1.373462
563.20 1.398298
563.30 1.443523
563.40 1.519494
563.50 1.656632
563.60 1.667654
563.70 1.606825
563.80 1.607241
563.90 1.594351
564.00 1.546503
564.10 1.543125
564.20 1.596906
564.30 1.621787
564.40 1.635466
564.50 1.641467
564.60 1.638258
564.70 1.625131
564.80 1.654425
564.90 1.670513
565.00 1.651565
565.10 1.744402
565.20 1.839298
565.30 1.834108
565.40 1.814935
565.50 1.820756
565.60 1.849971
565.70 1.956993
565.80 1.992603
565.90 1.895804
566.00 1.787037
566.10 1.81328
566.20 1.795312
566.30 1.762967
566.40 1.693007
566.50 1.648706
566.60 1.661428
566.70 1.690069
566.80 1.7171
566.90 1.7001
567.00 1.65447
567.10 1.561397
567.20 1.571755
567.30 1.612206
567.40 1.662655
567.50 1.699008
567.60 1.732907
567.70 1.708274
567.80 1.75655
567.90 1.826475
568.00 1.849285
568.10 1.804082
568.20 1.790426
568.30 1.80227
568.40 1.816084
568.50 1.866881
568.60 1.943573
568.70 2.038098
568.80 1.967317
568.90 1.825237
569.00 1.745089
569.10 1.812019
569.20 1.901827
569.30 1.937404
569.40 1.962059
569.50 1.975052
569.60 1.919908
569.70 1.919221
569.80 1.912174
569.90 1.954618
570.00 1.99893
570.10 2.01324
570.20 2.048951
570.30 2.060536
570.40 1.974342
570.50 1.962206
570.60 2.048951
570.70 2.153215
570.80 2.166939
570.90 2.1886
571.00 2.249113
571.10 2.24962
571.20 2.155624
571.30 2.11703
571.40 2.0858
571.50 2.025601
571.60 1.993436
571.70 2.007138
571.80 1.978834
571.90 1.962138
572.00 1.990273
572.10 2.050888
572.20 2.015638
572.30 1.954471
572.40 2.037614
572.50 2.056033
572.60 2.029508
572.70 1.98085
572.80 2.013229
572.90 1.937032
573.00 1.960236
573.10 2.048017
573.20 2.109026
573.30 2.104196
573.40 2.173671
573.50 2.20408
573.60 2.166308
573.70 2.11121
573.80 2.070365
573.90 2.058228
574.00 2.028315
574.10 2.101044
574.20 2.137115
574.30 2.142891
574.40 2.105581
574.50 2.148509
574.60 2.205634
574.70 2.230436
574.80 2.265438
574.90 2.329701
575.00 2.38991
575.10 2.406516
575.20 2.412956
575.30 2.415208
575.40 2.423854
575.50 2.411312
575.60 2.417887
575.70 2.437398
575.80 2.394053
575.90 2.346397
576.00 2.232372
576.10 2.083481
576.20 1.945161
576.30 1.838859
576.40 1.844027
576.50 1.824415
576.60 1.768315
576.70 1.798014
576.80 1.910699
576.90 1.957353
577.00 1.947851
577.10 1.997883
577.20 2.02067
577.30 2.031602
577.40 2.042861
577.50 2.047927
577.60 1.971471
577.70 1.907479
577.80 1.979994
577.90 2.032683
578.00 2.072538
578.10 2.071187
578.20 2.099209
578.30 2.141889
578.40 2.189534
578.50 2.260664
578.60 2.252784
578.70 2.156874
578.80 2.104173
578.90 2.194465
579.00 2.191955
579.10 2.130552
579.20 2.07641
579.30 2.183883
579.40 2.254439
579.50 2.3891
579.60 2.467739
579.70 2.42274
579.80 2.405278
579.90 2.445853
580.00 2.490943
580.10 2.462549
580.20 2.414149
580.30 2.405965
580.40 2.452023
580.50 2.518886
580.60 2.479324
580.70 2.488804
580.80 2.551862
580.90 2.552582
581.00 2.532159
581.10 2.453633
581.20 2.255688
581.30 2.101866
581.40 2.030476
581.50 1.998548
581.60 1.944969
581.70 1.907963
581.80 1.852797
581.90 1.839107
582.00 1.868964
582.10 1.821961
582.20 1.815836
582.30 1.848845
582.40 1.944282
582.50 1.920494
582.60 1.883746
582.70 1.905542
582.80 1.974432
582.90 1.971832
583.00 1.972046
583.10 1.966687
583.20 1.975187
583.30 2.133006
583.40 2.190435
583.50 2.083019
583.60 2.011292
583.70 2.090652
583.80 2.059838
583.90 2.003299
584.00 2.020828
584.10 1.963365
584.20 1.977078
584.30 2.017721
584.40 2.02353
584.50 2.048839
584.60 2.048996
584.70 2.05037
584.80 1.967193
584.90 1.809655
585.00 1.648526
585.10 1.586717
585.20 1.568997
585.30 1.558966
585.40 1.571688
585.50 1.569211
585.60 1.552785
585.70 1.522027
585.80 1.471916
585.90 1.515598
586.00 1.56777
586.10 1.569019
586.20 1.570899
586.30 1.520496
586.40 1.444142
586.50 1.391498
586.60 1.355527
586.70 1.300823
586.80 1.415816
586.90 1.537383
587.00 1.54514
587.10 1.468516
587.20 1.434854
587.30 1.342276
587.40 1.260619
587.50 1.283012
587.60 1.305315
587.70 1.333641
587.80 1.316258
587.90 1.27369
588.00 1.247154
588.10 1.211724
588.20 1.13474
588.30 1.026954
588.40 1.000676
588.50 1.069224
588.60 1.021615
588.70 0.8479279
588.80 0.6906736
588.90 0.690114
589.00 0.7515981
589.10 0.8021526
589.20 0.6010628
589.30 0.4997163
589.40 0.6749254
589.50 0.7922813
589.60 0.744797
589.70 0.644046
589.80 0.600689
589.90 0.6361967
590.00 0.7425374
590.10 0.8579748
590.20 0.8582811
590.30 0.9178647
590.40 1.03838
590.50 1.100871
590.60 1.092428
590.70 1.091931
590.80 1.106809
590.90 1.05096
591.00 1.048466
591.10 1.128413
591.20 1.208313
591.30 1.184862
591.40 1.153294
591.50 1.135033
591.60 1.133997
591.70 1.197381
591.80 1.26295
591.90 1.242797
592.00 1.235693
592.10 1.239161
592.20 1.250363
592.30 1.22958
592.40 1.241131
592.50 1.231415
592.60 1.219887
592.70 1.206016
592.80 1.226146
592.90 1.296522
593.00 1.304673
593.10 1.299224
593.20 1.315526
593.30 1.347714
593.40 1.355674
593.50 1.348964
593.60 1.406674
593.70 1.464553
593.80 1.509643
593.90 1.525472
594.00 1.467818
594.10 1.42829
594.20 1.439244
594.30 1.52116
594.40 1.55247
594.50 1.588699
594.60 1.57037
594.70 1.552121
594.80 1.513358
594.90 1.480878
595.00 1.432591
595.10 1.382322
595.20 1.413868
595.30 1.421861
595.40 1.374869
595.50 1.409567
595.60 1.439537
595.70 1.410603
595.80 1.353028
595.90 1.367461
596.00 1.290645
596.10 1.282506
596.20 1.37935
596.30 1.385767
596.40 1.408126
596.50 1.39519
596.60 1.438164
596.70 1.422548
596.80 1.43035
596.90 1.452664
597.00 1.495142
597.10 1.506018
597.20 1.492384
597.30 1.424473
597.40 1.382221
597.50 1.414093
597.60 1.441192
597.70 1.430677
597.80 1.492879
597.90 1.568141
598.00 1.576844
598.10 1.486372
598.20 1.517332
598.30 1.58826
598.40 1.575031
598.50 1.595127
598.60 1.640938
598.70 1.654222
598.80 1.645283
598.90 1.620875
599.00 1.61931
599.10 1.626617
599.20 1.69169
599.30 1.769823
599.40 1.801864
599.50 1.813393
599.60 1.762629
599.70 1.76568
599.80 1.81247
599.90 1.82571
600.00 1.756223
600.10 1.682346
600.20 1.66601
600.30 1.640262
600.40 1.659942
600.50 1.67388
600.60 1.710649
600.70 1.676278
600.80 1.647569
600.90 1.634396
601.00 1.631289
601.10 1.654414
601.20 1.694021
601.30 1.72998
601.40 1.758182
601.50 1.760794
601.60 1.730216
601.70 1.762832
601.80 1.77579
601.90 1.764115
602.00 1.78867
602.10 1.821251
602.20 1.818763
602.30 1.787319
602.40 1.814046
602.50 1.89201
602.60 1.928633
602.70 1.896502
602.80 1.897932
602.90 1.907254
603.00 1.892595
603.10 1.86696
603.20 1.911262
603.30 1.978913
603.40 1.990757
603.50 1.933114
603.60 1.877374
603.70 1.811333
603.80 1.706731
603.90 1.624838
604.00 1.70681
604.10 1.83269
604.20 1.905092
604.30 1.965302
604.40 2.018903
604.50 2.045394
604.60 2.078392
604.70 2.123009
604.80 2.117256
604.90 2.071423
605.00 2.128289
605.10 2.189354
605.20 2.142238
605.30 2.058915
605.40 2.045979
605.50 2.070725
605.60 2.078989
605.70 2.080812
605.80 2.096552
605.90 2.102079
606.00 2.101922
606.10 2.145796
606.20 2.226743
606.30 2.198552
606.40 2.135843
606.50 2.099062
606.60 2.024813
606.70 1.950407
606.80 2.002297
606.90 2.122435
607.00 2.206782
607.10 2.236729
607.20 2.257737
607.30 2.254213
607.40 2.146854
607.50 2.077581
607.60 2.130811
607.70 2.222656
607.80 2.283609
607.90 2.252232
608.00 2.134762
608.10 2.05198
608.20 2.021064
608.30 2.053229
608.40 2.090191
608.50 2.111266
608.60 2.133986
608.70 2.165959
608.80 2.157324
608.90 2.131588
609.00 2.135303
609.10 2.163223
609.20 2.167119
609.30 2.170868
609.40 2.221902
609.50 2.278115
609.60 2.283114
609.70 2.289869
609.80 2.312622
609.90 2.328766
610.00 2.306891
610.10 2.252333
610.20 2.191538
610.30 2.124742
610.40 2.063069
610.50 2.040857
610.60 2.112572
610.70 2.181023
610.80 2.217207
610.90 2.243315
611.00 2.279196
611.10 2.270673
611.20 2.247684
611.30 2.228871
611.40 2.238801
611.50 2.277856
611.60 2.283519
611.70 2.244588
611.80 2.179953
611.90 2.164214
612.00 2.150715
612.10 2.105952
612.20 2.033201
612.30 1.958963
612.40 1.971719
612.50 2.047578
612.60 2.165565
612.70 2.238643
612.80 2.185346
612.90 2.181901
613.00 2.223152
613.10 2.263761
613.20 2.254506
613.30 2.187508
613.40 2.159835
613.50 2.142328
613.60 2.18243
613.70 2.189917
613.80 2.181248
613.90 2.186022
614.00 2.238046
614.10 2.278903
614.20 2.264312
614.30 2.25678
614.40 2.304313
614.50 2.360368
614.60 2.370805
614.70 2.36933
614.80 2.270347
614.90 2.121061
615.00 2.001441
615.10 1.893969
615.20 1.824651
615.30 1.849938
615.40 1.923117
615.50 1.949247
615.60 1.897234
615.70 1.871193
615.80 1.822219
615.90 1.659604
616.00 1.503417
616.10 1.394459
616.20 1.29641
616.30 1.216746
616.40 1.203292
616.50 1.236887
616.60 1.22126
616.70 1.186753
616.80 1.234703
616.90 1.293325
617.00 1.284825
617.10 1.281087
617.20 1.321291
617.30 1.343638
617.40 1.326447
617.50 1.29686
617.60 1.296016
617.70 1.271056
617.80 1.305923
617.90 1.362057
618.00 1.358466
618.10 1.322326
618.20 1.30643
618.30 1.330106
618.40 1.318442
618.50 1.297378
618.60 1.274951
618.70 1.204114
618.80 1.140966
618.90 1.116917
619.00 1.119856
619.10 1.118079
619.20 1.096916
619.30 1.056996
619.40 1.055925
619.50 1.091875
619.60 1.101635
619.70 1.087128
619.80 1.121984
619.90 1.165137
620.00 1.198912
620.10 1.210779
620.20 1.179965
620.30 1.156874
620.40 1.172377
620.50 1.218885
620.60 1.285984
620.70 1.259527
620.80 1.251084
620.90 1.268782
621.00 1.276831
621.10 1.274084
621.20 1.257039
621.30 1.247492
621.40 1.204091
621.50 1.130338
621.60 1.062755
621.70 1.031014
621.80 1.059089
621.90 1.064643
622.00 1.092916
622.10 1.139998
622.20 1.13966
622.30 1.095632
622.40 1.031573
622.50 0.9747768
622.60 0.9544161
622.70 1.002584
622.80 1.001632
622.90 1.018898
623.00 1.061635
623.10 1.040107
623.20 1.018604
623.30 1.05128
623.40 1.070544
623.50 1.059309
623.60 1.053821
623.70 1.124753
623.80 1.124184
623.90 1.074373
624.00 1.063745
624.10 1.094959
624.20 1.125404
624.30 1.11572
624.40 1.167749
624.50 1.168965
624.60 1.143082
624.70 1.124534
624.80 1.110051
624.90 1.166072
625.00 1.185864
625.10 1.159666
625.20 1.165813
625.30 1.214843
625.40 1.256521
625.50 1.273668
625.60 1.274332
625.70 1.271585
625.80 1.289137
625.90 1.30053
626.00 1.316731
626.10 1.297063
626.20 1.294496
626.30 1.356124
626.40 1.416987
626.50 1.458496
626.60 1.493915
626.70 1.520451
626.80 1.453723
626.90 1.369623
627.00 1.369094
627.10 1.40923
627.20 1.446157
627.30 1.487137
627.40 1.520428
627.50 1.497776
627.60 1.413632
627.70 1.374104
627.80 1.398658
627.90 1.416165
628.00 1.414836
628.10 1.42641
628.20 1.459307
628.30 1.462256
628.40 1.504982
628.50 1.539815
628.60 1.57878
628.70 1.616518
628.80 1.636918
628.90 1.671617
629.00 1.71164
629.10 1.739831
629.20 1.722955
629.30 1.713284
629.40 1.731894
629.50 1.741857
629.60 1.702645
629.70 1.756133
629.80 1.838364
629.90 1.802405
630.00 1.818594
630.10 2.088896
630.20 2.344584
630.30 2.027864
630.40 1.764171
630.50 1.868379
630.60 1.998897
630.70 2.033347
630.80 2.063137
630.90 2.11193
631.00 2.107292
631.10 2.07578
631.20 2.132657
631.30 2.208189
631.40 2.261723
631.50 2.286131
631.60 2.301622
631.70 2.314502
631.80 2.326109
631.90 2.357486
632.00 2.359974
632.10 2.334069
632.20 2.333427
632.30 2.32379
632.40 2.260383
632.50 2.251185
632.60 2.298447
632.70 2.328203
632.80 2.380262
632.90 2.417673
633.00 2.410333
633.10 2.396812
633.20 2.411706
633.30 2.437916
633.40 2.475023
633.50 2.529739
633.60 2.581156
633.70 2.551873
633.80 2.523074
633.90 2.556421
634.00 2.633248
634.10 2.667293
634.20 2.689371
634.30 2.734044
634.40 2.773493
634.50 2.800333
634.60 2.776815
634.70 2.787791
634.80 2.836979
634.90 2.876226
635.00 2.874256
635.10 2.872758
635.20 2.84092
635.30 2.750842
635.40 2.671391
635.50 2.634588
635.60 2.639992
635.70 2.605361
635.80 2.518661
635.90 2.4452
636.00 2.429247
636.10 2.413451
636.20 2.415849
636.30 2.488162
636.40 2.620932
636.50 2.627934
636.60 2.462808
636.70 2.395247
636.80 2.448397
636.90 2.491933
637.00 2.488815
637.10 2.494669
637.20 2.518402
637.30 2.589115
637.40 2.644574
637.50 2.607602
637.60 2.567961
637.70 2.554383
637.80 2.546671
637.90 2.51901
638.00 2.44359
638.10 2.364421
638.20 2.290814
638.30 2.226383
638.40 2.223309
638.50 2.281346
638.60 2.288315
638.70 2.247076
638.80 2.231629
638.90 2.23038
639.00 2.231629
639.10 2.270707
639.20 2.356225
639.30 2.432275
639.40 2.469304
639.50 2.540952
639.60 2.624444
639.70 2.710492
639.80 2.754388
639.90 2.782421
640.00 2.820801
640.10 2.825878
640.20 2.845322
640.30 2.867456
640.40 2.914223
640.50 2.97674
640.60 3.030747
640.70 3.064274
640.80 3.074395
640.90 3.094334
641.00 3.107011
641.10 3.095628
641.20 3.090562
641.30 3.114813
641.40 3.107911
641.50 3.088468
641.60 3.051473
641.70 2.97128
641.80 2.934229
641.90 2.935366
642.00 2.922104
642.10 2.891357
642.20 2.841877
642.30 2.822591
642.40 2.853788
642.50 2.902615
642.60 2.934634
642.70 2.947795
642.80 2.943213
642.90 2.940714
643.00 2.958018
643.10 3.005821
643.20 3.031073
643.30 3.028484
643.40 3.046835
643.50 3.076759
643.60 3.10763
643.70 3.125868
643.80 3.075893
643.90 3.035745
644.00 3.001227
644.10 2.989462
644.20 3.05055
644.30 3.196999
644.40 3.363025
644.50 3.455524
644.60 3.488162
644.70 3.44869
644.80 3.343807
644.90 3.208065
645.00 3.095595
645.10 3.038008
645.20 3.08276
645.30 3.182644
645.40 3.30724
645.50 3.397183
645.60 3.390575
645.70 3.381838
645.80 3.407248
645.90 3.458001
646.00 3.470554
646.10 3.436362
646.20 3.359839
646.30 3.255542
646.40 3.224897
646.50 3.284814
646.60 3.39429
646.70 3.498576
646.80 3.594677
646.90 3.669624
647.00 3.685498
647.10 3.671234
647.20 3.657949
647.30 3.660234
647.40 3.724069
647.50 3.768179
647.60 3.807145
647.70 3.844894
647.80 3.841674
647.90 3.79628
648.00 3.672303
648.10 3.539252
648.20 3.462695
648.30 3.444468
648.40 3.402159
648.50 3.323677
648.60 3.273567
648.70 3.276336
648.80 3.319816
648.90 3.381737
649.00 3.460219
649.10 3.511568
649.20 3.521183
649.30 3.495401
649.40 3.461277
649.50 3.387951
649.60 3.307668
649.70 3.314007
649.80 3.441192
649.90 3.532452
650.00 3.566115
650.10 3.577283
650.20 3.613906
650.30 3.725082
650.40 3.85658
650.50 3.942616
650.60 3.932292
650.70 3.91572
650.80 3.960438
650.90 4.009311
651.00 4.046745
651.10 4.087354
651.20 4.09842
651.30 4.055233
651.40 3.954696
651.50 3.870293
651.60 3.839636
651.70 3.902525
651.80 3.986513
651.90 4.044223
652.00 4.095201
652.10 4.14297
652.20 4.175484
652.30 4.209687
652.40 4.266845
652.50 4.305934
652.60 4.330815
652.70 4.350833
652.80 4.387918
652.90 4.435495
653.00 4.450356
653.10 4.46435
653.20 4.476239
653.30 4.476667
653.40 4.526418
653.50 4.551479
653.60 4.57296
653.70 4.641287
653.80 4.718327
653.90 4.792092
654.00 4.868503
654.10 4.913007
654.20 4.909821
654.30 4.829132
654.40 4.675422
654.50 4.522624
654.60 4.42641
654.70 4.3373
654.80 4.256949
654.90 4.209259
655.00 4.161197
655.10 4.103183
655.20 4.023451
655.30 3.991703
655.40 3.999189
655.50 3.977754
655.60 3.944418
655.70 3.965403
655.80 4.080441
655.90 4.181552
656.00 4.258278
656.10 4.439211
656.20 4.817806
656.30 5.387433
656.40 5.885086
656.50 5.88065
656.60 5.275953
656.70 4.463022
656.80 3.924141
656.90 3.762381
657.00 3.743918
657.10 3.734922
657.20 3.637571
657.30 3.495469
657.40 3.412416
657.50 3.395044
657.60 3.477872
657.70 3.628992
657.80 3.685172
657.90 3.647501
658.00 3.534208
658.10 3.419508
658.20 3.416401
658.30 3.502291
658.40 3.587145
658.50 3.656643
658.60 3.736892
658.70 3.804206
658.80 3.836101
658.90 3.887191
659.00 3.946635
659.10 3.950013
659.20 3.897425
659.30 3.806841
659.40 3.668205
659.50 3.511253
659.60 3.444795
659.70 3.501638
659.80 3.590174
659.90 3.612004
660.00 3.58307
660.10 3.555779
660.20 3.553224
660.30 3.607275
660.40 3.68525
660.50 3.699639
660.60 3.626358
660.70 3.544611
660.80 3.502055
660.90 3.50479
661.00 3.521768
661.10 3.57001
661.20 3.637988
661.30 3.649607
661.40 3.635151
661.50 3.653783
661.60 3.675039
661.70 3.635691
661.80 3.541954
661.90 3.456222
662.00 3.383988
662.10 3.34168
662.20 3.338505
662.30 3.344235
662.40 3.344472
662.50 3.280468
662.60 3.159542
662.70 3.057755
662.80 3.006552
662.90 2.99338
663.00 3.017338
663.10 3.102642
663.20 3.223996
663.30 3.307803
663.40 3.32093
663.50 3.270335
663.60 3.159722
663.70 3.019522
663.80 2.89228
663.90 2.859608
664.00 2.912129
664.10 2.98327
664.20 3.050415
664.30 3.11184
664.40 3.163516
664.50 3.176655
664.60 3.159531
664.70 3.160116
664.80 3.157459
664.90 3.120734
665.00 3.011461
665.10 2.831249
665.20 2.649989
665.30 2.491843
665.40 2.408273
665.50 2.403161
665.60 2.458744
665.70 2.537327
665.80 2.532824
665.90 2.500704
666.00 2.503113
666.10 2.57717
666.20 2.658737
666.30 2.660358
666.40 2.664681
666.50 2.719847
666.60 2.770848
666.70 2.831564
666.80 2.872004
666.90 2.920753
667.00 2.976797
667.10 2.991894
667.20 2.978294
667.30 2.950418
667.40 2.930491
667.50 2.908897
667.60 2.886899
667.70 2.890952
667.80 2.915754
667.90 2.939667
668.00 2.864202
668.10 2.692827
668.20 2.480315
668.30 2.294496
668.40 2.223771
668.50 2.231145
668.60 2.288292
668.70 2.337334
668.80 2.349313
668.90 2.398095
669.00 2.422312
669.10 2.426669
669.20 2.432444
669.30 2.411166
669.40 2.380149
669.50 2.362744
669.60 2.405537
669.70 2.467964
669.80 2.513133
669.90 2.546277
670.00 2.555971
670.10 2.571192
670.20 2.57565
670.30 2.573883
670.40 2.598066
670.50 2.618421
670.60 2.647332
670.70 2.685588
670.80 2.66431
670.90 2.686297
671.00 2.734967
671.10 2.723776
671.20 2.716954
671.30 2.695507
671.40 2.625063
671.50 2.485313
671.60 2.322
671.70 2.201502
671.80 2.099164
671.90 2.009727
672.00 1.987211
672.10 1.997028
672.20 2.003265
672.30 2.020805
672.40 2.065614
672.50 2.141664
672.60 2.175371
672.70 2.198766
672.80 2.241773
672.90 2.260214
673.00 2.253684
673.10 2.235288
673.20 2.25105
673.30 2.297175
673.40 2.322113
673.50 2.31994
673.60 2.322912
673.70 2.334564
673.80 2.347703
673.90 2.378145
674.00 2.42444
674.10 2.458136
674.20 2.454319
674.30 2.454803
674.40 2.479763
674.50 2.507459
674.60 2.520169
674.70 2.459993
674.80 2.348356
674.90 2.226619
675.00 2.12535
675.10 2.107202
675.20 2.13089
675.30 2.186427
675.40 2.242313
675.50 2.272283
675.60 2.294608
675.70 2.313128
675.80 2.325895
675.90 2.3407
676.00 2.33283
676.10 2.310426
676.20 2.325974
676.30 2.373282
676.40 2.421738
676.50 2.46828
676.60 2.517569
676.70 2.560035
676.80 2.589093
676.90 2.595049
677.00 2.574446
677.10 2.587325
677.20 2.595375
677.30 2.589431
677.40 2.61278
677.50 2.658208
677.60 2.716774
677.70 2.748353
677.80 2.734236
677.90 2.70484
678.00 2.679182
678.10 2.643257
678.20 2.5633
678.30 2.41943
678.40 2.266631
678.50 2.168537
678.60 2.141281
678.70 2.15219
678.80 2.161692
678.90 2.186314
679.00 2.222915
679.10 2.25579
679.20 2.293955
679.30 2.303041
679.40 2.301555
679.50 2.313916
679.60 2.335206
679.70 2.355212
679.80 2.340903
679.90 2.336872
680.00 2.361832
680.10 2.41111
680.20 2.449771
680.30 2.451786
680.40 2.446326
680.50 2.437083
680.60 2.429281
680.70 2.435867
680.80 2.437015
680.90 2.444952
681.00 2.458338
681.10 2.47723
681.20 2.513122
681.30 2.55194
681.40 2.582642
681.50 2.579794
681.60 2.519967
681.70 2.411988
681.80 2.325468
681.90 2.336647
682.00 2.399863
682.10 2.432444
682.20 2.445752
682.30 2.43348
682.40 2.418991
682.50 2.42051
682.60 2.442104
682.70 2.482364
682.80 2.534704
682.90 2.584072
683.00 2.573646
683.10 2.533736
683.20 2.509136
683.30 2.54827
683.40 2.614852
683.50 2.625581
683.60 2.607298
683.70 2.544003
683.80 2.526238
683.90 2.568974
684.00 2.581696
684.10 2.612645
684.20 2.651284
684.30 2.659446
684.40 2.662283
684.50 2.653918
684.60 2.669511
684.70 2.675557
684.80 2.629454
684.90 2.606025
685.00 2.606937
685.10 2.579321
685.20 2.481925
685.30 2.367923
685.40 2.344956
685.50 2.393051
685.60 2.416649
685.70 2.411346
685.80 2.415208
685.90 2.419317
686.00 2.410569
686.10 2.381996
686.20 2.386285
686.30 2.442003
686.40 2.522106
686.50 2.629645
686.60 2.699988
686.70 2.681164
686.80 2.622305
686.90 2.546795
687.00 2.498959
687.10 2.463878
687.20 2.480472
687.30 2.541526
687.40 2.607129
687.50 2.690362
687.60 2.732648
687.70 2.751517
687.80 2.807629
687.90 2.843464
688.00 2.843284
688.10 2.849127
688.20 2.825721
688.30 2.780327
688.40 2.725904
688.50 2.662419
688.60 2.612308
688.70 2.586796
688.80 2.608559
688.90 2.689247
689.00 2.765601
689.10 2.802495
689.20 2.79431
689.30 2.786992
689.40 2.806188
689.50 2.85461
689.60 2.888576
689.70 2.895016
689.80 2.914054
689.90 2.896648
690.00 2.836743
690.10 2.765365
690.20 2.663094
690.30 2.587472
690.40 2.600892
690.50 2.723822
690.60 2.897763
690.70 3.051428
690.80 3.144309
690.90 3.16579
691.00 3.162221
691.10 3.158979
691.20 3.150288
691.30 3.151537
691.40 3.172962
691.50 3.21768
691.60 3.246501
691.70 3.208077
691.80 3.09126
691.90 2.912613
692.00 2.745595
692.10 2.714837
692.20 2.871092
692.30 3.106526
692.40 3.315977
692.50 3.406933
692.60 3.4053
692.70 3.418225
692.80 3.419351
692.90 3.4002
693.00 3.429799
693.10 3.486214
693.20 3.557525
693.30 3.666899
693.40 3.740889
693.50 3.746451
693.60 3.711674
693.70 3.681333
693.80 3.676885
693.90 3.688166
694.00 3.72461
694.10 3.780586
694.20 3.871205
694.30 3.957984
694.40 4.034676
694.50 4.127613
694.60 4.160094
694.70 4.183759
694.80 4.297536
694.90 4.402745
695.00 4.426342
695.10 4.369533
695.20 4.285793
695.30 4.175979
695.40 4.080441
695.50 4.048096
695.60 4.038436
695.70 4.040474
695.80 4.026401
695.90 4.018407
696.00 4.037423
696.10 4.073866
696.20 4.082625
696.30 4.084539
696.40 4.127422
696.50 4.197865
696.60 4.264853
696.70 4.295295
696.80 4.313432
696.90 4.337683
697.00 4.32442
697.10 4.269908
697.20 4.225212
697.30 4.20676
697.40 4.228421
697.50 4.282494
697.60 4.367236
697.70 4.477129
697.80 4.547921
697.90 4.558358
698.00 4.558954
698.10 4.52662
698.20 4.508731
698.30 4.568738
698.40 4.617802
698.50 4.650687
698.60 4.67639
698.70 4.678844
698.80 4.670052
698.90 4.65724
699.00 4.621765
699.10 4.549565
699.20 4.484188
699.30 4.445876
699.40 4.448521
699.50 4.495378
699.60 4.540997
699.70 4.595049
699.80 4.643977
699.90 4.645216
700.00 4.607703
700.10 4.611778
700.20 4.677865
700.30 4.754467
700.40 4.790809
700.50 4.74304
700.60 4.650845
700.70 4.63425
700.80 4.73043
700.90 4.835347
701.00 4.864472
701.10 4.855882
701.20 4.872218
701.30 4.941941
701.40 5.083357
701.50 5.217432
701.60 5.247053
701.70 5.19003
701.80 5.128638
701.90 5.133546
702.00 5.213177
702.10 5.319985
702.20 5.379294
702.30 5.351621
702.40 5.240422
702.50 5.090889
702.60 4.978699
702.70 4.981818
702.80 5.155849
702.90 5.450514
703.00 5.721333
703.10 5.845569
703.20 5.834581
703.30 5.786508
703.40 5.758891
703.50 5.816692
703.60 5.985443
703.70 6.192878
703.80 6.335454
703.90 6.367405
704.00 6.342873
704.10 6.360413
704.20 6.437375
704.30 6.56455
704.40 6.682639
704.50 6.725612
704.60 6.716098
704.70 6.709895
704.80 6.755953
704.90 6.816973
705.00 6.811806
705.10 6.818628
705.20 6.812357
705.30 6.654571
705.40 6.210002
705.50 5.419362
705.60 4.514383
705.70 3.8292
705.80 3.542799
705.90 3.59873
706.00 3.702127
706.10 3.610427
706.20 3.432906
706.30 3.337334
706.40 3.387501
706.50 3.507324
706.60 3.614143
706.70 3.725195
706.80 3.84289
706.90 3.919705
707.00 3.934319
707.10 3.969321
707.20 4.060063
707.30 4.157561
707.40 4.207446
707.50 4.211465
707.60 4.204823
707.70 4.218761
707.80 4.219785
707.90 4.21473
708.00 4.273555
708.10 4.355505
708.20 4.389494
708.30 4.414307
708.40 4.442003
708.50 4.485786
708.60 4.504779
708.70 4.339327
708.80 3.945487
708.90 3.410783
709.00 2.909325
709.10 2.612386
709.20 2.573523
709.30 2.70627
709.40 2.846459
709.50 2.89541
709.60 2.855679
709.70 2.791518
709.80 2.803137
709.90 2.897121
710.00 3.00403
710.10 3.057935
710.20 3.039753
710.30 3.002601
710.40 3.002589
710.50 3.036545
710.60 3.117188
710.70 3.207131
710.80 3.286536
710.90 3.408914
711.00 3.556376
711.10 3.677111
711.20 3.750166
711.30 3.767853
711.40 3.758801
711.50 3.757304
711.60 3.741812
711.70 3.71307
711.80 3.70878
711.90 3.769317
712.00 3.875562
712.10 3.984452
712.20 4.069926
712.30 4.116839
712.40 4.06263
712.50 3.818369
712.60 3.36119
712.70 2.799151
712.80 2.357115
712.90 2.18771
713.00 2.235525
713.10 2.335904
713.20 2.37658
713.30 2.317632
713.40 2.24613
713.50 2.246141
713.60 2.309503
713.70 2.372066
713.80 2.40288
713.90 2.385598
714.00 2.361156
714.10 2.397825
714.20 2.484717
714.30 2.602817
714.40 2.690114
714.50 2.712507
714.60 2.691893
714.70 2.647839
714.80 2.630028
714.90 2.653637
715.00 2.691127
715.10 2.728224
715.20 2.791698
715.30 2.884028
715.40 2.977168
715.50 3.067212
715.60 3.152517
715.70 3.214562
715.80 3.210464
715.90 3.11971
716.00 2.977326
716.10 2.854024
716.20 2.809216
716.30 2.858336
716.40 2.93576
716.50 2.972935
716.60 2.964322
716.70 2.949461
716.80 2.94444
716.90 2.952107
717.00 3.001677
717.10 3.077694
717.20 3.160195
717.30 3.238812
717.40 3.279736
717.50 3.262488
717.60 3.230008
717.70 3.218243
717.80 3.226529
717.90 3.268241
718.00 3.331266
718.10 3.39062
718.20 3.440933
718.30 3.499353
718.40 3.541707
718.50 3.592763
718.60 3.685194
718.70 3.737906
718.80 3.750504
718.90 3.764824
719.00 3.789097
719.10 3.830247
719.20 3.847979
719.30 3.852628
719.40 3.861399
719.50 3.886752
719.60 3.888317
719.70 3.76577
719.80 3.560283
719.90 3.385002
720.00 3.29713
720.10 3.269041
720.20 3.261047
720.30 3.279669
720.40 3.310719
720.50 3.320874
720.60 3.322777
720.70 3.325231
720.80 3.349054
720.90 3.387861
721.00 3.409263
721.10 3.434257
721.20 3.471015
721.30 3.527645
721.40 3.590568
721.50 3.630535
721.60 3.666123
721.70 3.673508
721.80 3.699504
721.90 3.795706
722.00 3.861353
722.10 3.903032
722.20 3.965437
722.30 4.010527
722.40 4.044166
722.50 4.068045
722.60 4.122648
722.70 4.24336
722.80 4.332515
722.90 4.333799
723.00 4.273049
723.10 4.200331
723.20 4.149128
723.30 4.125733
723.40 4.130124
723.50 4.165892
723.60 4.24497
723.70 4.373192
723.80 4.481733
723.90 4.543958
724.00 4.576101
724.10 4.532171
724.20 4.462155
724.30 4.460433
724.40 4.533252
724.50 4.637583
724.60 4.703939
724.70 4.725713
724.80 4.7349
724.90 4.78563
725.00 4.907963
725.10 5.029092
725.20 5.047499
725.30 4.970492
725.40 4.905441
725.50 4.952535
725.60 5.067257
725.70 5.161951
725.80 5.185977
725.90 5.14888
726.00 5.12436
726.10 5.144208
726.20 5.217095
726.30 5.338347
726.40 5.453813
726.50 5.515441
726.60 5.527082
726.70 5.536798
726.80 5.578578
726.90 5.615122
727.00 5.588834
727.10 5.469552
727.20 5.274073
727.30 5.103633
727.40 5.113113
727.50 5.333382
727.60 5.648773
727.70 5.880222
727.80 5.797372
727.90 5.50604
728.00 5.386161
728.10 5.430001
728.20 5.474404
728.30 5.542258
728.40 5.653862
728.50 5.769744
728.60 5.830843
728.70 5.85658
728.80 5.916531
728.90 5.957646
729.00 5.993526
729.10 6.048963
729.20 6.089549
729.30 6.104973
729.40 6.082659
729.50 6.074913
729.60 6.132229
729.70 6.225966
729.80 6.330973
729.90 6.379327
730.00 6.319917
730.10 6.262849
730.20 6.29722
730.30 6.402655
730.40 6.493419
730.50 6.495311
730.60 6.488995
730.70 6.539365
730.80 6.625356
730.90 6.676739
731.00 6.670277
731.10 6.646927
731.20 6.628441
731.30 6.674454
731.40 6.7961
731.50 6.922903
731.60 6.984418
731.70 7.029159
731.80 7.062079
731.90 7.057373
732.00 7.031951
732.10 7.019027
732.20 7.045214
732.30 7.091632
732.40 7.138343
732.50 7.099287
732.60 6.94202
732.70 6.758812
732.80 6.705482
732.90 6.87054
733.00 7.089222
733.10 7.205048
733.20 7.264447
733.30 7.300147
733.40 7.332729
733.50 7.385823
733.60 7.455411
733.70 7.52635
733.80 7.573241
733.90 7.61573
734.00 7.723506
734.10 7.876214
734.20 7.930863
734.30 7.820103
734.40 7.612195
734.50 7.424395
734.60 7.351227
734.70 7.380859
734.80 7.450672
734.90 7.516161
735.00 7.574682
735.10 7.643561
735.20 7.703613
735.30 7.73839
735.40 7.745021
735.50 7.710492
735.60 7.634836
735.70 7.54406
735.80 7.475541
735.90 7.499026
736.00 7.629691
736.10 7.776837
736.20 7.842597
736.30 7.826306
736.40 7.851435
736.50 7.929162
736.60 7.96466
736.70 7.991781
736.80 8.027054
736.90 8.152224
737.00 8.334249
737.10 8.372494
737.20 8.297941
737.30 8.208313
737.40 8.188847
737.50 8.196379
737.60 8.182836
737.70 8.210959
737.80 8.268861
737.90 8.32558
738.00 8.363622
738.10 8.373315
738.20 8.351114
738.30 8.313117
738.40 8.292548
738.50 8.314817
738.60 8.376704
738.70 8.44923
738.80 8.517614
738.90 8.57332
739.00 8.611947
739.10 8.630456
739.20 8.593495
739.30 8.523918
739.40 8.455636
739.50 8.384518
739.60 8.351441
739.70 8.378033
739.80 8.427581
739.90 8.487475
740.00 8.507864
740.10 8.50568
740.20 8.544183
740.30 8.587641
740.40 8.632528
740.50 8.648638
740.60 8.587089
740.70 8.458102
740.80 8.372482
740.90 8.415467
741.00 8.503867
741.10 8.55373
741.20 8.585107
741.30 8.635466
741.40 8.688808
741.50 8.713588
741.60 8.700697
741.70 8.65375
741.80 8.569177
741.90 8.470993
742.00 8.452631
742.10 8.534479
742.20 8.60714
742.30 8.631818
742.40 8.615741
742.50 8.606735
742.60 8.659863
742.70 8.739009
742.80 8.824786
742.90 8.878095
743.00 8.894566
743.10 8.932495
743.20 8.961451
743.30 8.932878
743.40 8.855747
743.50 8.759071
743.60 8.669883
743.70 8.635421
743.80 8.70368
743.90 8.891909
744.00 9.109724
744.10 9.146111
744.20 8.976583
744.30 8.811524
744.40 8.761852
744.50 8.770713
744.60 8.772064
744.70 8.732851
744.80 8.672529
744.90 8.620177
745.00 8.583081
745.10 8.604821
745.20 8.714736
745.30 8.853889
745.40 8.917015
745.50 8.889758
745.60 8.824133
745.70 8.794715
745.80 8.861736
745.90 8.949979
746.00 8.966405
746.10 8.922847
746.20 8.87081
746.30 8.833647
746.40 8.8216
746.50 8.842969
746.60 8.899328
746.70 8.95589
746.80 8.979656
746.90 9.01458
747.00 9.085518
747.10 9.172309
747.20 9.217534
747.30 9.187125
747.40 9.099816
747.50 8.995947
747.60 8.946331
747.70 8.969951
747.80 9.062923
747.90 9.166365
748.00 9.177037
748.10 9.11452
748.20 9.059151
748.30 9.068034
748.40 9.1767
748.50 9.288112
748.60 9.273499
748.70 9.164214
748.80 9.016482
748.90 8.929827
749.00 8.972023
749.10 9.042129
749.20 9.076692
749.30 9.071738
749.40 9.021785
749.50 8.958682
749.60 8.925605
749.70 8.943044
749.80 9.048163
749.90 9.23745
750.00 9.409511
750.10 9.504655
750.20 9.530392
750.30 9.498373
750.40 9.480394
750.50 9.490661
750.60 9.448048
750.70 9.329262
750.80 9.230537
750.90 9.239206
751.00 9.372156
751.10 9.532869
751.20 9.579658
751.30 9.521205
751.40 9.4469
751.50 9.455569
751.60 9.561093
751.70 9.687063
751.80 9.741204
751.90 9.666595
752.00 9.531011
752.10 9.447981
752.20 9.437826
752.30 9.517512
752.40 9.692005
752.50 9.788715
752.60 9.689202
752.70 9.454128
752.80 9.185538
752.90 9.056044
753.00 9.137937
753.10 9.353715
753.20 9.567702
753.30 9.664152
753.40 9.639001
753.50 9.557153
753.60 9.529739
753.70 9.597683
753.80 9.697038
753.90 9.826025
754.00 9.980737
754.10 10.07461
754.20 10.07217
754.30 10.03014
754.40 9.997883
754.50 10.00778
754.60 10.0467
754.70 10.05573
754.80 10.02691
754.90 9.993391
755.00 9.982617
755.10 9.989046
755.20 10.00194
755.30 10.02024
755.40 10.0147
755.50 9.978812
755.60 9.93621
755.70 9.934071
755.80 9.983101
755.90 10.00615
756.00 10.0148
756.10 10.06024
756.20 10.07459
756.30 10.03192
756.40 9.964379
756.50 9.872803
756.60 9.787454
756.70 9.720973
756.80 9.629015
756.90 9.541864
757.00 9.550263
757.10 9.681952
757.20 9.929725
757.30 10.21941
757.40 10.36657
757.50 10.3618
757.60 10.27217
757.70 10.12683
757.80 10.02913
757.90 9.979679
758.00 9.965122
758.10 10.06109
758.20 10.26295
758.30 10.42195
758.40 10.46155
758.50 10.4426
758.60 10.42876
758.70 10.37321
758.80 10.14091
758.90 9.642379
759.00 8.87367
759.10 8.071671
759.20 7.546322
759.30 7.406865
759.40 7.577452
759.50 7.805749
759.60 7.942909
759.70 8.006935
759.80 8.086723
759.90 8.225989
760.00 8.329836
760.10 8.346915
760.20 8.191662
760.30 7.950418
760.40 7.952929
760.50 8.144197
760.60 8.297885
760.70 8.33685
760.80 8.184412
760.90 8.032627
761.00 8.037839
761.10 8.105772
761.20 8.264346
761.30 8.544566
761.40 8.808833
761.50 8.916733
761.60 8.841077
761.70 8.734022
761.80 8.846121
761.90 9.111491
762.00 9.316044
762.10 9.356248
762.20 9.231336
762.30 9.072583
762.40 9.00868
762.50 9.056708
762.60 9.055447
762.70 8.824865
762.80 8.310595
762.90 7.659942
763.00 7.12812
763.10 6.821127
763.20 6.76666
763.30 6.921304
763.40 7.130417
763.50 7.234466
763.60 7.193722
763.70 7.134999
763.80 7.159812
763.90 7.252513
764.00 7.283192
764.10 7.161963
764.20 7.07023
764.30 7.181766
764.40 7.336073
764.50 7.340171
764.60 7.19934
764.70 7.112448
764.80 7.236943
764.90 7.378866
765.00 7.342997
765.10 7.201232
765.20 7.10441
765.30 7.159959
765.40 7.229456
765.50 7.125305
765.60 6.983439
765.70 7.011033
765.80 7.183871
765.90 7.310865
766.00 7.151188
766.10 6.734945
766.20 6.255384
766.30 5.72238
766.40 5.080069
766.50 4.297524
766.60 3.541673
766.70 3.17312
766.80 3.323632
766.90 3.87242
767.00 4.536246
767.10 5.015142
767.20 5.197359
767.30 5.144433
767.40 5.076163
767.50 5.123819
767.60 5.265855
767.70 5.409669
767.80 5.516341
767.90 5.64203
768.00 5.75494
768.10 5.82527
768.20 5.890085
768.30 5.931054
768.40 5.944688
768.50 5.964277
768.60 5.996836
768.70 6.041555
768.80 6.101224
768.90 6.149905
769.00 6.154161
769.10 6.145424
769.20 6.150389
769.30 6.156018
769.40 6.155782
769.50 6.103802
769.60 5.920449
769.70 5.55444
769.80 5.006631
769.90 4.358511
770.00 3.79816
770.10 3.561521
770.20 3.782804
770.30 4.368294
770.40 5.000236
770.50 5.432118
770.60 5.616203
770.70 5.623566
770.80 5.603616
770.90 5.651779
771.00 5.781419
771.10 5.95974
771.20 6.127625
771.30 6.261272
771.40 6.359974
771.50 6.32683
771.60 6.205735
771.70 6.21696
771.80 6.357858
771.90 6.493982
772.00 6.486113
772.10 6.36772
772.20 6.370321
772.30 6.474235
772.40 6.548642
772.50 6.611936
772.60 6.710976
772.70 6.832037
772.80 6.914527
772.90 6.945949
773.00 6.968792
773.10 7.009862
773.20 7.05055
773.30 7.076106
773.40 7.123639
773.50 7.195906
773.60 7.249789
773.70 7.28487
773.80 7.305551
773.90 7.333056
774.00 7.379924
774.10 7.418687
774.20 7.40476
774.30 7.299551
774.40 7.119654
774.50 6.919942
774.60 6.732288
774.70 6.580593
774.80 6.473875
774.90 6.393108
775.00 6.330477
775.10 6.208403
775.20 6.026513
775.30 5.930142
775.40 5.930367
775.50 5.993358
775.60 6.109836
775.70 6.19755
775.80 6.215248
775.90 6.205758
776.00 6.249834
776.10 6.347376
776.20 6.416266
776.30 6.399108
776.40 6.318769
776.50 6.257917
776.60 6.24908
776.70 6.297648
776.80 6.410693
776.90 6.556095
777.00 6.674341
777.10 6.734292
777.20 6.746192
777.30 6.761762
777.40 6.82983
777.50 6.892956
777.60 6.906635
777.70 6.901546
777.80 6.897054
777.90 6.899812
778.00 6.921563
778.10 6.91903
778.20 6.817086
778.30 6.653558
778.40 6.493836
778.50 6.370692
778.60 6.312475
778.70 6.301453
778.80 6.322979
778.90 6.371953
779.00 6.429416
779.10 6.482949
779.20 6.559202
779.30 6.706349
779.40 6.892348
779.50 7.033595
779.60 7.082794
779.70 6.958153
779.80 6.750042
779.90 6.649922
780.00 6.606577
780.10 6.563784
780.20 6.549891
780.30 6.629645
780.40 6.856738
780.50 7.119744
780.60 7.328631
780.70 7.506918
780.80 7.655573
780.90 7.7417
781.00 7.715941
781.10 7.583937
781.20 7.446664
781.30 7.412776
781.40 7.490695
781.50 7.635241
781.60 7.776961
781.70 7.842834
781.80 7.831586
781.90 7.793803
782.00 7.800322
782.10 7.823638
782.20 7.721435
782.30 7.461727
782.40 7.25409
782.50 7.223343
782.60 7.262432
782.70 7.291647
782.80 7.22895
782.90 7.025635
783.00 6.786418
783.10 6.621359
783.20 6.55435
783.30 6.600621
783.40 6.728021
783.50 6.846616
783.60 6.91375
783.70 6.945217
783.80 6.978677
783.90 7.05091
784.00 7.144039
784.10 7.194229
784.20 7.206771
784.30 7.22054
784.40 7.216689
784.50 7.202729
784.60 7.24497
784.70 7.362339
784.80 7.483107
784.90 7.516229
785.00 7.479211
785.10 7.462346
785.20 7.550004
785.30 7.732659
785.40 7.8505
785.50 7.776094
785.60 7.603256
785.70 7.503383
785.80 7.5217
785.90 7.63255
786.00 7.749761
786.10 7.765962
786.20 7.672303
786.30 7.536032
786.40 7.389381
786.50 7.310494
786.60 7.330083
786.70 7.416536
786.80 7.587776
786.90 7.747655
787.00 7.807966
787.10 7.733605
787.20 7.576776
787.30 7.515621
787.40 7.538824
787.50 7.563435
787.60 7.624906
787.70 7.764273
787.80 7.938124
787.90 8.0416
788.00 8.058971
788.10 8.060975
788.20 8.120183
788.30 8.189253
788.40 8.185706
788.50 8.151762
788.60 8.136811
788.70 8.142677
788.80 8.186359
788.90 8.274805
789.00 8.368407
789.10 8.43572
789.20 8.462223
789.30 8.417696
789.40 8.373833
789.50 8.397026
789.60 8.412213
789.70 8.402452
789.80 8.38177
789.90 8.323373
790.00 8.230807
790.10 8.126397
790.20 8.052599
790.30 8.056798
790.40 8.133017
790.50 8.238486
790.60 8.351666
790.70 8.371514
790.80 8.207975
790.90 7.947435
791.00 7.694516
791.10 7.549846
791.20 7.594902
791.30 7.782264
791.40 7.962363
791.50 8.03257
791.60 7.996713
791.70 7.885154
791.80 7.84987
791.90 7.904428
792.00 7.961418
792.10 8.03033
792.20 8.068316
792.30 8.093039
792.40 8.080745
792.50 8.026435
792.60 8.032796
792.70 8.065039
792.80 8.100042
792.90 8.156525
793.00 8.240906
793.10 8.372212
793.20 8.50479
793.30 8.615325
793.40 8.702431
793.50 8.709715
793.60 8.652207
793.70 8.616338
793.80 8.61358
793.90 8.617892
794.00 8.596568
794.10 8.519696
794.20 8.414251
794.30 8.345485
794.40 8.386623
794.50 8.495851
794.60 8.529277
794.70 8.402294
794.80 8.165408
794.90 8.022573
795.00 8.050696
795.10 8.166612
795.20 8.364331
795.30 8.577373
795.40 8.723056
795.50 8.825293
795.60 8.891886
795.70 8.927091
795.80 8.943708
795.90 8.92547
796.00 8.877149
796.10 8.79619
796.20 8.687784
796.30 8.658298
796.40 8.854722
796.50 9.184637
796.60 9.357824
796.70 9.297063
796.80 9.100447
796.90 8.967081
797.00 9.033685
797.10 9.145998
797.20 9.211387
797.30 9.227565
797.40 9.192957
797.50 9.189287
797.60 9.217962
797.70 9.249834
797.80 9.284904
797.90 9.278047
798.00 9.235829
798.10 9.196481
798.20 9.129651
798.30 9.053083
798.40 9.029598
798.50 9.055763
798.60 9.072301
798.70 9.042714
798.80 8.985522
798.90 8.919221
799.00 8.873839
799.10 8.933024
799.20 9.130664
799.30 9.422143
799.40 9.685678
799.50 9.666787
799.60 9.392004
799.70 9.163291
799.80 9.050336
799.90 9.009896
800.00 9.062045
800.10 9.142587
800.20 9.204609
800.30 9.289035
800.40 9.375027
800.50 9.419959
800.60 9.423798
800.70 9.412663
800.80 9.433266
800.90 9.489907
801.00 9.558785
801.10 9.597706
801.20 9.612296
801.30 9.68024
801.40 9.802315
801.50 9.880526
801.60 9.864663
801.70 9.797102
801.80 9.741655
801.90 9.766828
802.00 9.848564
802.10 9.87045
802.20 9.79789
802.30 9.719228
802.40 9.691431
802.50 9.735936
802.60 9.875381
802.70 9.977697
802.80 9.961902
802.90 9.935872
803.00 9.954066
803.10 10.01924
803.20 10.12353
803.30 10.20235
803.40 10.22367
803.50 10.23754
803.60 10.24355
803.70 10.20964
803.80 10.18034
803.90 10.1776
804.00 10.16892
804.10 10.14867
804.20 10.13447
804.30 10.16285
804.40 10.26841
804.50 10.386
804.60 10.42084
804.70 10.36468
804.80 10.25808
804.90 10.1842
805.00 10.22447
805.10 10.38812
805.20 10.61697
805.30 10.81486
805.40 10.92053
805.50 10.9315
805.60 10.89149
805.70 10.86348
805.80 10.84859
805.90 10.80578
806.00 10.79582
806.10 10.9113
806.20 11.06429
806.30 11.13047
806.40 11.11212
806.50 11.02316
806.60 10.89403
806.70 10.8121
806.80 10.81221
806.90 10.80535
807.00 10.74332
807.10 10.69754
807.20 10.71429
807.30 10.80286
807.40 10.94238
807.50 11.04759
807.60 11.08678
807.70 11.10918
807.80 11.14301
807.90 11.18291
808.00 11.20691
808.10 11.21194
808.20 11.21555
808.30 11.23256
808.40 11.29493
808.50 11.37611
808.60 11.40256
808.70 11.37059
808.80 11.32848
808.90 11.32927
809.00 11.38298
809.10 11.43656
809.20 11.45717
809.30 11.47439
809.40 11.4906
809.50 11.48149
809.60 11.46921
809.70 11.45221
809.80 11.42542
809.90 11.43488
810.00 11.45886
810.10 11.44895
810.20 11.42868
810.30 11.39919
810.40 11.37802
810.50 11.39513
810.60 11.4038
810.70 11.3859
810.80 11.41
810.90 11.50569
811.00 11.61163
811.10 11.66027
811.20 11.64518
811.30 11.63032
811.40 11.6588
811.50 11.6829
811.60 11.62616
811.70 11.45886
811.80 11.26127
811.90 11.18216
812.00 11.28165
812.10 11.49556
812.20 11.72422
812.30 11.84626
812.40 11.83275
812.50 11.79773
812.60 11.80719
812.70 11.87057
812.80 11.94904
812.90 11.97516
813.00 11.97978
813.10 11.98912
813.20 11.97167
813.30 11.9406
813.40 11.91088
813.50 11.869
813.60 11.85402
813.70 11.91279
813.80 12.01389
813.90 12.11938
814.00 12.19189
814.10 12.1911
814.20 12.10993
814.30 11.97663
814.40 11.84626
814.50 11.76508
814.60 11.7661
814.70 11.83916
814.80 11.89365
814.90 11.85436
815.00 11.75855
815.10 11.71014
815.20 11.76182
815.30 11.87834
815.40 11.96571
815.50 11.96165
815.60 11.90232
815.70 11.8538
815.80 11.83466
815.90 11.81946
816.00 11.77735
816.10 11.73457
816.20 11.70091
816.30 11.63494
816.40 11.60319
816.50 11.66083
816.60 11.75529
816.70 11.90885
816.80 12.07379
816.90 12.12479
817.00 12.07795
817.10 11.98845
817.20 11.90953
817.30 11.89726
817.40 11.9191
817.50 11.92934
817.60 11.912
817.70 11.81867
817.80 11.63629
817.90 11.45615
818.00 11.32286
818.10 11.06059
818.20 10.46471
818.30 9.487903
818.40 8.351508
818.50 7.613636
818.60 7.656035
818.70 8.394335
818.80 9.42695
818.90 10.24767
819.00 10.64838
819.10 10.72674
819.20 10.5746
819.30 10.13048
819.40 9.277417
819.50 8.133907
819.60 7.164124
819.70 6.808664
819.80 7.179312
819.90 8.048659
820.00 8.970436
820.10 9.677831
820.20 10.20643
820.30 10.64012
820.40 10.96955
820.50 11.12296
820.60 11.08103
820.70 10.94375
820.80 10.85956
820.90 10.8784
821.00 10.98156
821.10 11.13315
821.20 11.2758
821.30 11.35933
821.40 11.36237
821.50 11.33366
821.60 11.34008
821.70 11.35956
821.80 11.35731
821.90 11.35348
822.00 11.3456
822.10 11.33941
822.20 11.36372
822.30 11.40493
822.40 11.45469
822.50 11.54206
822.60 11.64721
822.70 11.7053
822.80 11.71318
822.90 11.70992
823.00 11.73885
823.10 11.82869
823.20 11.90863
823.30 11.88352
823.40 11.76249
823.50 11.63471
823.60 11.59801
823.70 11.69663
823.80 11.84378
823.90 11.94105
824.00 12.05397
824.10 12.20078
824.20 12.2591
824.30 12.19155
824.40 12.05386
824.50 11.94128
824.60 11.95985
824.70 12.11229
824.80 12.33948
824.90 12.55463
825.00 12.65134
825.10 12.60315
825.20 12.44644
825.30 12.23681
825.40 12.04992
825.50 11.89613
825.60 11.73536
825.70 11.56086
825.80 11.42801
825.90 11.4217
826.00 11.55388
826.10 11.79987
826.20 12.07683
826.30 12.22701
826.40 12.26101
826.50 12.28736
826.60 12.32203
826.70 12.39634
826.80 12.48731
826.90 12.48303
827.00 12.3763
827.10 12.21925
827.20 12.0068
827.30 11.74955
827.40 11.50141
827.50 11.33062
827.60 11.29572
827.70 11.37307
827.80 11.51819
827.90 11.68571
828.00 11.76711
828.10 11.76306
828.20 11.7232
828.30 11.61996
828.40 11.53271
828.50 11.53136
828.60 11.5487
828.70 11.59666
828.80 11.69359
828.90 11.67671
829.00 11.45424
829.10 11.187
829.20 11.02175
829.30 10.97062
829.40 10.9874
829.50 11.0513
829.60 11.17751
829.70 11.30563
829.80 11.40403
829.90 11.54329
830.00 11.55005
830.10 11.36152
830.20 11.17298
830.30 11.02009
830.40 10.8672
830.50 10.83002
830.60 10.79285
830.70 10.79692
830.80 10.801
830.90 11.00423
831.00 11.20746
831.10 11.28503
831.20 11.3626
831.30 11.31006
831.40 11.25752
831.50 11.26885
831.60 11.28019
831.70 11.32257
831.80 11.36496
831.90 11.36845
832.00 11.37194
832.10 11.40634
832.20 11.44073
832.30 11.45925
832.40 11.47777
832.50 11.45857
832.60 11.43938
832.70 11.2006
832.80 10.96181
832.90 10.85838
833.00 10.75495
833.10 10.97469
833.20 11.19443
833.30 11.33188
833.40 11.46933
833.50 11.27979
833.60 11.09025
833.70 11.06288
833.80 11.03552
833.90 11.15436
834.00 11.27321
834.10 11.3778
834.20 11.48239
834.30 11.63646
834.40 11.79053
834.50 11.84372
834.60 11.89692
834.70 11.59373
834.80 11.29054
834.90 11.08928
835.00 10.88801
835.10 11.05982
835.20 11.23163
835.30 11.28006
835.40 11.32848
835.50 11.29691
835.60 11.26533
835.70 11.26797
835.80 11.27062
835.90 11.34509
836.00 11.41956
836.10 11.42193
836.20 11.42429
836.30 11.3005
836.40 11.17671
836.50 11.06103
836.60 10.94535
836.70 11.03109
836.80 11.11683
836.90 11.31103
837.00 11.50524
837.10 11.58855
837.20 11.67186
837.30 11.56238
837.40 11.45289
837.50 11.23886
837.60 11.02484
837.70 10.85518
837.80 10.68553
837.90 10.70696
838.00 10.72839
838.10 10.78546
838.20 10.84252
838.30 10.78073
838.40 10.71894
838.50 10.57997
838.60 10.441
838.70 10.31821
838.80 10.19542
838.90 10.12032
839.00 10.04522
839.10 10.25703
839.20 10.46884
839.30 10.71386
839.40 10.95888
839.50 10.94238
839.60 10.92588
839.70 10.96483
839.80 11.00379
839.90 11.1277
840.00 11.25161
840.10 11.12353
840.20 11.18629
840.30 11.28541
840.40 11.35171
840.50 11.3877
840.60 11.42694
840.70 11.47998
840.80 11.53302
840.90 11.57014
841.00 11.60488
841.10 11.5149
841.20 11.31867
841.30 11.152
841.40 11.09011
841.50 11.02823
841.60 11.2213
841.70 11.44269
841.80 11.54276
841.90 11.5513
842.00 11.51407
842.10 11.33956
842.20 11.16504
842.30 11.10801
842.40 11.0612
842.50 10.94156
842.60 10.77337
842.70 10.64462
842.80 10.61728
842.90 10.58994
843.00 10.70174
843.10 10.82086
843.20 10.74325
843.30 10.55009
843.40 10.23927
843.50 9.653893
843.60 9.068517
843.70 8.866796
843.80 8.672905
843.90 8.911024
844.00 9.371693
844.10 9.726332
844.20 9.865698
844.30 10.00212
844.40 9.847438
844.50 9.692752
844.60 9.604084
844.70 9.545077
844.80 9.560097
844.90 9.706723
845.00 9.840523
845.10 9.666521
845.20 9.492519
845.30 9.259581
845.40 9.002571
845.50 8.809196
845.60 8.715354
845.70 8.628043
845.80 8.627499
845.90 8.626956
846.00 8.697918
846.10 8.792715
846.20 8.8487
846.30 8.851087
846.40 8.849175
846.50 8.808568
846.60 8.76796
846.70 8.637551
846.80 8.481814
846.90 8.389896
847.00 8.375978
847.10 8.376509
847.20 8.473733
847.30 8.570958
847.40 8.586168
847.50 8.58214
847.60 8.60398
847.70 8.652744
847.80 8.70625
847.90 8.784656
848.00 8.863062
848.10 8.889348
848.20 8.905706
848.30 8.961866
848.40 9.054764
848.50 9.142698
848.60 9.209472
848.70 9.276246
848.80 9.30574
848.90 9.329664
849.00 9.378095
849.10 9.446577
849.20 9.510188
849.30 9.557492
849.40 9.604797
849.50 9.581146
849.60 9.550478
849.70 9.606116
849.80 9.724251
849.90 9.82178
850.00 9.860665
850.10 9.89955
850.20 9.756903
850.30 9.602669
850.40 9.411227
850.50 9.19698
850.60 9.007132
850.70 8.877021
850.80 8.746909
850.90 8.75395
851.00 8.765232
851.10 8.834368
851.20 8.934654
851.30 8.978479
851.40 8.907668
851.50 8.836202
851.60 8.699932
851.70 8.563663
851.80 8.502295
851.90 8.474579
852.00 8.477363
852.10 8.534368
852.20 8.592284
852.30 8.672063
852.40 8.751842
852.50 8.847312
852.60 8.948885
852.70 9.048812
852.80 9.146269
852.90 9.231899
853.00 9.181513
853.10 9.131127
853.20 9.16457
853.30 9.224486
853.40 9.27216
853.50 9.303605
853.60 9.340593
853.70 9.42242
853.80 9.504247
853.90 9.485551
854.00 9.440134
854.10 9.507247
854.20 9.701254
854.30 9.872006
854.40 9.910973
854.50 9.949941
854.60 9.874991
854.70 9.776708
854.80 9.729981
854.90 9.732785
855.00 9.746192
855.10 9.804793
855.20 9.863395
855.30 9.942599
855.40 10.02488
855.50 10.04844
855.60 10.02197
855.70 9.993321
855.80 9.956926
855.90 9.92053
856.00 9.781823
856.10 9.631747
856.20 9.538681
856.30 9.486897
856.40 9.48495
856.50 9.624845
856.60 9.764739
856.70 9.956727
856.80 10.15204
856.90 10.14654
857.00 10.01797
857.10 9.928995
857.20 9.932417
857.30 9.935838
857.40 9.910145
857.50 9.883857
857.60 9.932221
857.70 10.01904
857.80 10.09208
857.90 10.13836
858.00 10.1832
858.10 10.15762
858.20 10.13204
858.30 10.07744
858.40 10.01039
858.50 10.0073
858.60 10.10857
858.70 10.20593
858.80 10.24205
858.90 10.27817
859.00 10.25807
859.10 10.21823
859.20 10.17251
859.30 10.11868
859.40 10.07634
859.50 10.13744
859.60 10.19853
859.70 10.28303
859.80 10.37413
859.90 10.41508
860.00 10.39717
860.10 10.38677
860.20 10.42253
860.30 10.4583
860.40 10.50597
860.50 10.55625
860.60 10.61901
860.70 10.69423
860.80 10.74739
860.90 10.70004
861.00 10.65268
861.10 10.56349
861.20 10.46749
861.30 10.38072
861.40 10.30181
861.50 10.24201
861.60 10.25001
861.70 10.25801
861.80 10.26074
861.90 10.26288
862.00 10.31253
862.10 10.39657
862.20 10.45619
862.30 10.44626
862.40 10.43633
862.50 10.42773
862.60 10.4192
862.70 10.43423
862.80 10.46311
862.90 10.47379
863.00 10.44397
863.10 10.41414
863.20 10.37261
863.30 10.33095
863.40 10.39881
863.50 10.52061
863.60 10.61244
863.70 10.64861
863.80 10.68339
863.90 10.6732
864.00 10.66301
864.10 10.68658
864.20 10.72395
864.30 10.75003
864.40 10.75847
864.50 10.76458
864.60 10.73983
864.70 10.71508
864.80 10.67855
864.90 10.63829
865.00 10.62949
865.10 10.66072
865.20 10.69687
865.30 10.76914
865.40 10.84141
865.50 10.83462
865.60 10.80806
865.70 10.79513
865.80 10.79697
865.90 10.78859
866.00 10.7266
866.10 10.66461
866.20 10.65856
866.30 10.66315
866.40 10.72423
866.50 10.83539
866.60 10.93275
866.70 10.97819
866.80 11.02363
866.90 11.01926
867.00 11.00874
867.10 11.00583
867.20 11.00867
867.30 11.00526
867.40 10.98309
867.50 10.96093
867.60 10.86433
867.70 10.76212
867.80 10.81258
867.90 10.95662
868.00 11.06279
868.10 11.08062
868.20 11.09845
868.30 11.01323
868.40 10.92591
868.50 10.8988
868.60 10.9027
868.70 10.86565
868.80 10.75254
868.90 10.63711
869.00 10.44643
869.10 10.25574
869.20 10.16206
869.30 10.10801
869.40 10.06707
869.50 10.04665
869.60 10.02911
869.70 10.04986
869.80 10.07061
869.90 10.1416
870.00 10.22846
870.10 10.33034
870.20 10.45132
870.30 10.56788
870.40 10.65189
870.50 10.7359
870.60 10.79028
870.70 10.83726
870.80 10.80272
870.90 10.68335
871.00 10.56947
871.10 10.48244
871.20 10.39542
871.30 10.34789
871.40 10.30732
871.50 10.27452
871.60 10.24832
871.70 10.21907
871.80 10.17905
871.90 10.13902
872.00 10.26434
872.10 10.40803
872.20 10.50191
872.30 10.55972
872.40 10.61241
872.50 10.65128
872.60 10.69014
872.70 10.83233
872.80 10.97995
872.90 11.09041
873.00 11.17903
873.10 11.21194
873.20 11.12644
873.30 11.04095
873.40 10.92155
873.50 10.80214
873.60 10.75563
873.70 10.74342
873.80 10.75695
873.90 10.81428
874.00 10.87563
874.10 11.01354
874.20 11.15144
874.30 11.31159
874.40 11.47997
874.50 11.5771
874.60 11.57584
874.70 11.56283
874.80 11.44408
874.90 11.32534
875.00 11.29179
875.10 11.28228
875.20 11.34129
875.30 11.48073
875.40 11.60043
875.50 11.60834
875.60 11.61625
875.70 11.5854
875.80 11.5466
875.90 11.59397
876.00 11.72087
876.10 11.82552
876.20 11.8412
876.30 11.85687
876.40 11.85073
876.50 11.84162
876.60 11.69009
876.70 11.43112
876.80 11.26249
876.90 11.36492
877.00 11.46735
877.10 11.64327
877.20 11.82389
877.30 11.95412
877.40 12.05345
877.50 12.15163
877.60 12.24711
877.70 12.34258
877.80 12.28291
877.90 12.22167
878.00 12.08961
878.10 11.92268
878.20 11.84221
878.30 11.92234
878.40 12.00288
878.50 12.09358
878.60 12.18428
878.70 12.22673
878.80 12.25042
878.90 12.28252
879.00 12.32672
879.10 12.36917
879.20 12.39378
879.30 12.41839
879.40 12.43638
879.50 12.45249
879.60 12.4959
879.70 12.57136
879.80 12.64124
879.90 12.67687
880.00 12.7125
880.10 12.41252
880.20 12.04381
880.30 11.75196
880.40 11.53396
880.50 11.35669
880.60 11.34238
880.70 11.32806
880.80 11.42323
880.90 11.53333
881.00 11.71195
881.10 11.94226
881.20 12.17884
881.30 12.43422
881.40 12.68961
881.50 12.8343
881.60 12.97192
881.70 13.03331
881.80 13.04798
881.90 13.05186
882.00 13.03172
882.10 13.01158
882.20 12.7435
882.30 12.47291
882.40 12.14715
882.50 11.79542
882.60 11.55814
882.70 11.52431
882.80 11.50711
882.90 11.80575
883.00 12.10439
883.10 12.39379
883.20 12.67978
883.30 12.88974
883.40 12.99471
883.50 13.09223
883.60 13.12279
883.70 13.15335
883.80 13.09433
883.90 13.01149
884.00 12.96195
884.10 12.94996
884.20 12.95384
884.30 13.04105
884.40 13.12825
884.50 13.00977
884.60 12.8521
884.70 12.70076
884.80 12.55503
884.90 12.437
885.00 12.42316
885.10 12.40932
885.20 12.62102
885.30 12.85779
885.40 13.07194
885.50 13.26972
885.60 13.386
885.70 13.28194
885.80 13.17789
885.90 12.82391
886.00 12.45952
886.10 12.02246
886.20 11.54453
886.30 11.18524
886.40 11.06682
886.50 10.95168
886.60 11.1602
886.70 11.36872
886.80 11.41215
886.90 11.38483
887.00 11.25308
887.10 10.95097
887.20 10.65359
887.30 10.4192
887.40 10.1848
887.50 10.20742
887.60 10.3157
887.70 10.47578
887.80 10.70178
887.90 10.92465
888.00 11.12663
888.10 11.32861
888.20 11.36399
888.30 11.36028
888.40 11.31319
888.50 11.22271
888.60 11.1452
888.70 11.12682
888.80 11.10843
888.90 11.1952
889.00 11.29769
889.10 11.40909
889.20 11.5275
889.30 11.60524
889.40 11.55421
889.50 11.50318
889.60 11.41077
889.70 11.31525
889.80 11.24518
889.90 11.1907
890.00 11.19197
890.10 11.32329
890.20 11.45462
890.30 11.69878
890.40 11.94409
890.50 12.0686
890.60 12.13361
890.70 12.18152
890.80 12.19902
890.90 12.21135
891.00 12.12561
891.10 12.03986
891.20 11.9675
891.30 11.9001
891.40 11.90798
891.50 12.01983
891.60 12.12491
891.70 12.17519
891.80 12.22546
891.90 12.20514
892.00 12.16605
892.10 12.15415
892.20 12.1717
892.30 12.17463
892.40 12.10626
892.50 12.03788
892.60 12.03376
892.70 12.04097
892.80 12.0585
892.90 12.08482
893.00 12.12367
893.10 12.20447
893.20 12.28527
893.30 12.41707
893.40 12.55393
893.50 12.63309
893.60 12.67378
893.70 12.62585
893.80 12.36091
893.90 12.09597
894.00 11.87957
894.10 11.66416
894.20 11.57715
894.30 11.55629
894.40 11.56185
894.50 11.61649
894.60 11.67044
894.70 11.7079
894.80 11.74536
894.90 11.79003
895.00 11.8375
895.10 11.8728
895.20 11.89059
895.30 11.90229
895.40 11.85921
895.50 11.81612
895.60 11.878
895.70 11.96778
895.80 12.0559
895.90 12.14217
896.00 12.21454
896.10 12.21401
896.20 12.21347
896.30 12.15651
896.40 12.08959
896.50 12.0266
896.60 11.96709
896.70 11.92758
896.80 11.95897
896.90 11.99035
897.00 12.07248
897.10 12.15962
897.20 12.19899
897.30 12.20651
897.40 12.22167
897.50 12.25647
897.60 12.29127
897.70 12.40823
897.80 12.52773
897.90 12.54913
898.00 12.51999
898.10 12.48958
898.20 12.45682
898.30 12.42855
898.40 12.54518
898.50 12.6618
898.60 12.81128
898.70 12.97352
898.80 13.02881
898.90 12.93016
899.00 12.83081
899.10 12.72504
899.20 12.61928
899.30 12.66106
899.40 12.74205
899.50 12.7844
899.60 12.78319
899.70 12.7707
899.80 12.69906
899.90 12.62741
900.00 12.45966
900.10 12.27494
900.20 12.25798
900.30 12.38392
900.40 12.55223
900.50 12.86242
900.60 13.17261
900.70 13.25139
900.80 13.30729
900.90 13.16718
901.00 12.8964
901.10 12.68563
901.20 12.62178
901.30 12.55793
901.40 12.62744
901.50 12.69967
901.60 12.70533
901.70 12.6782
901.80 12.60159
901.90 12.43305
902.00 12.26965
902.10 12.22939
902.20 12.18913
902.30 12.18638
902.40 12.19749
902.50 12.16752
902.60 12.08081
902.70 11.9948
902.80 11.91439
902.90 11.83397
903.00 11.94835
903.10 12.11142
903.20 12.29482
903.30 12.49936
903.40 12.69128
903.50 12.82161
903.60 12.95193
903.70 12.98589
903.80 13.00417
903.90 13.07542
904.00 13.19
904.10 13.27999
904.20 13.29213
904.30 13.30426
904.40 13.22248
904.50 13.13364
904.60 13.09906
904.70 13.09774
904.80 13.14344
904.90 13.29378
905.00 13.44411
905.10 13.36793
905.20 13.28947
905.30 13.18478
905.40 13.06777
905.50 12.96773
905.60 12.89663
905.70 12.83414
905.80 12.90666
905.90 12.97918
906.00 13.0044
906.10 13.01386
906.20 13.02732
906.30 13.04589
906.40 13.06178
906.50 13.05973
906.60 13.05768
906.70 13.02978
906.80 12.9962
906.90 12.96571
907.00 12.9382
907.10 12.91387
907.20 12.90315
907.30 12.89243
907.40 12.90521
907.50 12.9212
907.60 12.98027
907.70 13.07185
907.80 13.18247
907.90 13.3473
908.00 13.51213
908.10 13.59996
908.20 13.68374
908.30 13.63889
908.40 13.52167
908.50 13.42672
908.60 13.37696
908.70 13.32444
908.80 13.13685
908.90 12.94926
909.00 12.83655
909.10 12.75443
909.20 12.77237
909.30 12.94042
909.40 13.11383
909.50 13.34148
909.60 13.56914
909.70 13.65222
909.80 13.69452
909.90 13.7037
910.00 13.67553
910.10 13.66229
910.20 13.72741
910.30 13.79254
910.40 13.74466
910.50 13.67526
910.60 13.57581
910.70 13.44973
910.80 13.34124
910.90 13.29514
911.00 13.24903
911.10 13.39665
911.20 13.56343
911.30 13.73623
911.40 13.91305
911.50 14.01861
911.60 13.94969
911.70 13.88078
911.80 13.77055
911.90 13.65948
912.00 13.60424
912.10 13.57651
912.20 13.60756
912.30 13.7431
912.40 13.87129
912.50 13.86004
912.60 13.84878
912.70 13.81325
912.80 13.76919
912.90 13.76824
913.00 13.82443
913.10 13.87879
913.20 13.91963
913.30 13.96047
913.40 13.99421
913.50 14.02627
913.60 14.03607
913.70 14.02359
913.80 13.96583
913.90 13.71503
914.00 13.46423
914.10 13.4057
914.20 13.37338
914.30 13.40149
914.40 13.47519
914.50 13.57258
914.60 13.73746
914.70 13.90234
914.80 13.87651
914.90 13.84064
915.00 13.80807
915.10 13.77737
915.20 13.77335
915.30 13.8235
915.40 13.87327
915.50 13.90436
915.60 13.93546
915.70 14.08507
915.80 14.28309
915.90 14.36858
916.00 14.28529
916.10 14.20167
916.20 14.11478
916.30 14.02788
916.40 13.97979
916.50 13.94265
916.60 13.98173
916.70 14.10674
916.80 14.21501
916.90 14.23538
917.00 14.25575
917.10 14.23677
917.20 14.21084
917.30 14.17383
917.40 14.12737
917.50 14.07739
917.60 14.01623
917.70 13.95506
917.80 14.00195
917.90 14.05698
918.00 14.11257
918.10 14.16853
918.20 14.23347
918.30 14.31841
918.40 14.40336
918.50 14.25018
918.60 14.097
918.70 14.05759
918.80 14.06928
918.90 14.14508
919.00 14.32545
919.10 14.49879
919.20 14.57852
919.30 14.65826
919.40 14.57301
919.50 14.43567
919.60 14.33917
919.70 14.29257
919.80 14.27
919.90 14.39502
920.00 14.52003
920.10 14.53286
920.20 14.52273
920.30 14.52468
920.40 14.53779
920.50 14.53622
920.60 14.47944
920.70 14.42266
920.80 14.24387
920.90 14.05302
921.00 13.85119
921.10 13.64206
921.20 13.54671
921.30 13.72991
921.40 13.91311
921.50 14.07755
921.60 14.2416
921.70 14.26566
921.80 14.22077
921.90 14.17017
922.00 14.10939
922.10 14.05158
922.20 14.05017
922.30 14.04876
922.40 13.99721
922.50 13.92805
922.60 13.88637
922.70 13.88111
922.80 13.87502
922.90 13.86293
923.00 13.85084
923.10 13.68857
923.20 13.49332
923.30 13.31881
923.40 13.16422
923.50 13.0566
923.60 13.13687
923.70 13.21714
923.80 13.31077
923.90 13.40605
924.00 13.45596
924.10 13.47302
924.20 13.52474
924.30 13.67017
924.40 13.8156
924.50 13.81103
924.60 13.80021
924.70 13.74084
924.80 13.65533
924.90 13.56025
925.00 13.44743
925.10 13.33596
925.20 13.25705
925.30 13.17814
925.40 13.21216
925.50 13.28795
925.60 13.38386
925.70 13.50756
925.80 13.62913
925.90 13.73352
926.00 13.83792
926.10 13.83002
926.20 13.79404
926.30 13.76318
926.40 13.73745
926.50 13.73935
926.60 13.85905
926.70 13.97875
926.80 14.06066
926.90 14.13742
927.00 14.10948
927.10 14.00255
927.20 13.91397
927.30 13.87761
927.40 13.84125
927.50 13.72239
927.60 13.59918
927.70 13.47503
927.80 13.35036
927.90 13.2346
928.00 13.13615
928.10 13.04375
928.20 13.14708
928.30 13.2504
928.40 13.32751
928.50 13.39443
928.60 13.4453
928.70 13.47308
928.80 13.48554
928.90 13.36009
929.00 13.23464
929.10 13.09607
929.20 12.95402
929.30 12.90849
929.40 12.96341
929.50 13.00967
929.60 13.01639
929.70 13.02312
929.80 13.02683
929.90 13.0301
930.00 13.03435
930.10 13.03937
930.20 13.01732
930.30 12.91409
930.40 12.81085
930.50 12.85097
930.60 12.89864
930.70 12.99245
930.80 13.11221
930.90 13.13525
931.00 13.11278
931.10 13.0903
931.20 13.19339
931.30 13.30171
931.40 13.39852
931.50 13.45886
931.60 13.51921
931.70 13.47065
931.80 13.32155
931.90 13.17245
932.00 13.10593
932.10 13.05879
932.20 13.02655
932.30 13.14501
932.40 13.26347
932.50 13.2935
932.60 13.17297
932.70 13.05244
932.80 12.9988
932.90 12.98116
933.00 12.96353
933.10 13.07921
933.20 13.20492
933.30 13.28291
933.40 13.19173
933.50 13.10054
933.60 13.04073
933.70 13.0123
933.80 12.98386
933.90 13.05396
934.00 13.15185
934.10 13.25319
934.20 13.40856
934.30 13.56394
934.40 13.58101
934.50 13.34123
934.60 13.10145
934.70 12.98389
934.80 12.93811
934.90 12.89234
935.00 13.02042
935.10 13.1657
935.20 13.27747
935.30 13.25525
935.40 13.23302
935.50 13.18473
935.60 13.1082
935.70 13.03166
935.80 12.97108
935.90 12.91554
936.00 12.86596
936.10 12.9297
936.20 12.99344
936.30 13.07049
936.40 13.17455
936.50 13.2786
936.60 13.29671
936.70 13.25986
936.80 13.22301
936.90 13.07151
937.00 12.90727
937.10 12.73684
937.20 12.5382
937.30 12.33957
937.40 12.32512
937.50 12.5269
937.60 12.72868
937.70 12.91422
937.80 13.09436
937.90 13.26695
938.00 13.19566
938.10 13.12437
938.20 13.08005
938.30 13.09305
938.40 13.10605
938.50 13.16032
938.60 13.24211
938.70 13.32389
938.80 13.25814
938.90 13.17227
939.00 13.10794
939.10 13.14875
939.20 13.18956
939.30 13.24009
939.40 13.30248
939.50 13.36488
939.60 13.32564
939.70 13.25068
939.80 13.17606
939.90 13.11815
940.00 13.06025
940.10 13.01174
940.20 12.98515
940.30 12.95856
940.40 13.0178
940.50 13.13667
940.60 13.25555
940.70 13.36844
940.80 13.48044
940.90 13.57254
941.00 13.56012
941.10 13.5477
941.20 13.50691
941.30 13.43002
941.40 13.35312
941.50 13.31417
941.60 13.28925
941.70 13.26389
941.80 13.19459
941.90 13.1253
942.00 13.09455
942.10 13.15374
942.20 13.21293
942.30 13.29193
942.40 13.38528
942.50 13.47863
942.60 13.54777
942.70 13.61329
942.80 13.65009
942.90 13.52413
943.00 13.39817
943.10 13.34413
943.20 13.38163
943.30 13.41913
943.40 13.56109
943.50 13.74368
943.60 13.92405
943.70 13.8861
943.80 13.84814
943.90 13.77282
944.00 13.60603
944.10 13.43923
944.20 13.27828
944.30 13.12158
944.40 12.96487
944.50 12.91514
944.60 12.88281
944.70 12.85846
944.80 12.87923
944.90 12.9
945.00 12.95727
945.10 13.061
945.20 13.16472
945.30 13.27217
945.40 13.38105
945.50 13.4886
945.60 13.46385
945.70 13.4391
945.80 13.41251
945.90 13.38144
946.00 13.35036
946.10 13.31107
946.20 13.26583
946.30 13.22059
946.40 13.25698
946.50 13.30558
946.60 13.36313
946.70 13.47143
946.80 13.57974
946.90 13.63177
947.00 13.61219
947.10 13.59262
947.20 13.61911
947.30 13.66352
947.40 13.70757
947.50 13.71621
947.60 13.72485
947.70 13.74844
947.80 13.80688
947.90 13.86532
948.00 13.93445
948.10 14.0113
948.20 14.08816
948.30 13.98083
948.40 13.84598
948.50 13.74859
948.60 13.84784
948.70 13.9471
948.80 14.00343
948.90 14.00513
949.00 14.00684
949.10 14.04326
949.20 14.09253
949.30 14.14021
949.40 14.10958
949.50 14.07895
949.60 14.02175
949.70 13.90256
949.80 13.78337
949.90 13.80005
950.00 13.91114
950.10 14.02222
950.20 13.92595
950.30 13.8014
950.40 13.70529
950.50 13.74801
950.60 13.79072
950.70 13.83719
950.80 13.88825
950.90 13.9393
951.00 13.96912
951.10 13.99147
951.20 14.01413
951.30 14.04691
951.40 14.07969
951.50 14.07728
951.60 14.00008
951.70 13.92289
951.80 13.86148
951.90 13.81058
952.00 13.75969
952.10 13.78571
952.20 13.82123
952.30 13.8556
952.40 13.88477
952.50 13.91393
952.60 13.97966
952.70 14.08661
952.80 14.19356
952.90 14.20058
953.00 14.17428
953.10 14.14875
953.20 14.14148
953.30 14.13421
953.40 14.12847
953.50 14.12585
953.60 14.12324
953.70 14.0894
953.80 14.03643
953.90 13.98347
954.00 13.99144
954.10 14.00544
954.20 14.01536
954.30 14.00899
954.40 14.00262
954.50 13.94109
954.60 13.81983
954.70 13.69856
954.80 13.67678
954.90 13.68472
955.00 13.70292
955.10 13.88193
955.20 14.06094
955.30 14.19381
955.40 14.24101
955.50 14.2882
955.60 14.26332
955.70 14.19788
955.80 14.13245
955.90 14.18072
956.00 14.23755
956.10 14.29263
956.20 14.34111
956.30 14.38959
956.40 14.4211
956.50 14.43564
956.60 14.45019
956.70 14.34444
956.80 14.20672
956.90 14.0854
957.00 14.15262
957.10 14.21984
957.20 14.23877
957.30 14.1755
957.40 14.11223
957.50 14.03857
957.60 13.95955
957.70 13.88054
957.80 13.964
957.90 14.05602
958.00 14.11335
958.10 14.06079
958.20 14.00824
958.30 13.97993
958.40 13.97312
958.50 13.9663
958.60 14.05075
958.70 14.15523
958.80 14.24322
958.90 14.19778
959.00 14.15233
959.10 14.08494
959.20 13.98325
959.30 13.88155
959.40 13.82344
959.50 13.78584
959.60 13.74824
959.70 13.69296
959.80 13.63712
959.90 13.5331
960.00 13.29194
960.10 13.05078
960.20 13.05326
960.30 13.25508
960.40 13.4569
960.50 13.64406
960.60 13.82843
960.70 13.98877
960.80 13.98832
960.90 13.98786
961.00 14.00298
961.10 14.03962
961.20 14.07627
961.30 14.05094
961.40 14.00029
961.50 13.94965
961.60 13.96814
961.70 13.98663
961.80 14.03226
961.90 14.14434
962.00 14.25643
962.10 14.30651
962.20 14.31171
962.30 14.3169
962.40 14.31761
962.50 14.31765
962.60 14.31275
962.70 14.28188
962.80 14.25102
962.90 14.22505
963.00 14.20508
963.10 14.1851
963.20 14.20719
963.30 14.24329
963.40 14.277
963.50 14.25328
963.60 14.22955
963.70 14.0502
963.80 13.55488
963.90 13.05955
964.00 12.77912
964.10 12.63039
964.20 12.48166
964.30 12.84379
964.40 13.25645
964.50 13.56739
964.60 13.47151
964.70 13.37563
964.80 13.23964
964.90 13.06192
965.00 12.8842
965.10 13.01344
965.20 13.22926
965.30 13.44111
965.40 13.60031
965.50 13.7595
965.60 13.90071
965.70 14.00992
965.80 14.11914
965.90 14.18705
966.00 14.2327
966.10 14.27836
966.20 14.30775
966.30 14.33611
966.40 14.33701
966.50 14.25097
966.60 14.16493
966.70 14.13132
966.80 14.1442
966.90 14.15708
967.00 14.10946
967.10 14.04855
967.20 13.98246
967.30 13.87436
967.40 13.76626
967.50 13.58272
967.60 13.28602
967.70 12.98931
967.80 12.96624
967.90 13.06611
968.00 13.16597
968.10 13.51726
968.20 13.87109
968.30 14.12839
968.40 14.13749
968.50 14.14659
968.60 14.07596
968.70 13.94518
968.80 13.8144
968.90 13.61409
969.00 13.40247
969.10 13.25212
969.20 13.449
969.30 13.64587
969.40 13.84399
969.50 14.04367
969.60 14.24336
969.70 14.38121
969.80 14.49732
969.90 14.60859
970.00 14.56297
970.10 14.51736
970.20 14.43166
970.30 14.26079
970.40 14.08992
970.50 13.83539
970.60 13.52737
970.70 13.21935
970.80 13.21095
970.90 13.23218
971.00 13.32385
971.10 13.69728
971.20 14.07072
971.30 14.33543
971.40 14.48698
971.50 14.63853
971.60 14.62475
971.70 14.56433
971.80 14.49735
971.90 14.35489
972.00 14.21244
972.10 14.13493
972.20 14.168
972.30 14.20107
972.40 14.24192
972.50 14.28679
972.60 14.33166
972.70 14.08236
972.80 13.81758
972.90 13.58151
973.00 13.43158
973.10 13.28165
973.20 13.28698
973.30 13.42457
973.40 13.56217
973.50 13.67711
973.60 13.7874
973.70 13.88227
973.80 13.86392
973.90 13.84557
974.00 13.87129
974.10 13.95787
974.20 14.04445
974.30 13.96092
974.40 13.80791
974.50 13.65491
974.60 13.62747
974.70 13.60004
974.80 13.61097
974.90 13.71142
975.00 13.81187
975.10 13.93622
975.20 14.07718
975.30 14.21814
975.40 14.21021
975.50 14.18198
975.60 14.16025
975.70 14.16815
975.80 14.17604
975.90 14.19196
976.00 14.21694
976.10 14.24192
976.20 14.21433
976.30 14.17104
976.40 14.13479
976.50 14.20882
976.60 14.28285
976.70 14.31432
976.80 14.26674
976.90 14.21917
977.00 14.04625
977.10 13.80583
977.20 13.56542
977.30 13.60305
977.40 13.65843
977.50 13.73427
977.60 13.87863
977.70 14.02298
977.80 14.11937
977.90 14.17321
978.00 14.22705
978.10 14.07146
978.20 13.86989
978.30 13.64812
978.40 13.27822
978.50 12.90831
978.60 12.63753
978.70 12.5094
978.80 12.38126
978.90 12.53824
979.00 12.81168
979.10 13.08512
979.20 13.36837
979.30 13.65161
979.40 13.90122
979.50 14.06847
979.60 14.23572
979.70 14.34991
979.80 14.42722
979.90 14.50453
980.00 14.49686
980.10 14.47759
980.20 14.45844
980.30 14.43983
980.40 14.42122
980.50 14.40285
980.60 14.38476
980.70 14.36666
980.80 14.33438
980.90 14.29786
981.00 14.26656
981.10 14.31702
981.20 14.36747
981.30 14.37909
981.40 14.32168
981.50 14.26427
981.60 14.21981
981.70 14.18232
981.80 14.14483
981.90 14.15504
982.00 14.16775
982.10 14.17701
982.20 14.17534
982.30 14.17367
982.40 14.18641
982.50 14.21142
982.60 14.23643
982.70 14.2384
982.80 14.23564
982.90 14.22928
983.00 14.19875
983.10 14.16821
983.20 14.13854
983.30 14.11006
983.40 14.08158
983.50 14.03308
983.60 13.97679
983.70 13.9211
983.80 13.9259
983.90 13.93069
984.00 13.95798
984.10 14.03534
984.20 14.11269
984.30 14.16758
984.40 14.20748
984.50 14.24739
984.60 14.24786
984.70 14.24396
984.80 14.23854
984.90 14.2267
985.00 14.21486
985.10 14.19062
985.20 14.15346
985.30 14.11631
985.40 14.14481
985.50 14.19075
985.60 14.23516
985.70 14.26189
985.80 14.28862
985.90 14.30053
986.00 14.28828
986.10 14.27602
986.20 14.26133
986.30 14.24545
986.40 14.22956
986.50 14.22997
986.60 14.23089
986.70 14.22926
986.80 14.22075
986.90 14.21223
987.00 14.20201
987.10 14.19046
987.20 14.17891
987.30 14.22807
987.40 14.2871
987.50 14.34174
987.60 14.37152
987.70 14.40129
987.80 14.37509
987.90 14.28047
988.00 14.18586
988.10 14.1614
988.20 14.16032
988.30 14.16262
988.40 14.24614
988.50 14.32966
988.60 14.4081
988.70 14.47665
988.80 14.5452
988.90 14.54065
989.00 14.495
989.10 14.44934
989.20 14.3917
989.30 14.33316
989.40 14.23688
989.50 14.01425
989.60 13.79163
989.70 13.46899
989.80 13.05767
989.90 12.64635
990.00 12.44316
990.10 12.28567
990.20 12.12657
990.30 11.95565
990.40 11.78473
990.50 11.5632
990.60 11.27176
990.70 10.98033
990.80 10.82735
990.90 10.73092
991.00 10.63664
991.10 10.75483
991.20 10.87302
991.30 10.92286
991.40 10.82058
991.50 10.71829
991.60 10.64178
991.70 10.58244
991.80 10.52311
991.90 10.69548
992.00 10.89359
992.10 11.06911
992.20 11.15428
992.30 11.23945
992.40 11.2333
992.50 11.13209
992.60 11.03089
992.70 11.06618
992.80 11.13775
992.90 11.22838
993.00 11.51179
993.10 11.79519
993.20 11.97857
993.30 12.00549
993.40 12.03241
993.50 12.00212
993.60 11.94491
993.70 11.88771
993.80 12.10391
993.90 12.3257
994.00 12.53002
994.10 12.68938
994.20 12.84875
994.30 12.85803
994.40 12.75861
994.50 12.6592
994.60 12.6486
994.70 12.65126
994.80 12.66525
994.90 12.73451
995.00 12.80377
995.10 12.91325
995.20 13.06807
995.30 13.22289
995.40 13.27327
995.50 13.29245
995.60 13.29808
995.70 13.12368
995.80 12.94928
995.90 12.80835
996.00 12.72691
996.10 12.64548
996.20 12.68943
996.30 12.79796
996.40 12.9065
996.50 13.1479
996.60 13.39483
996.70 13.5603
996.80 13.49392
996.90 13.42754
997.00 13.21438
997.10 12.88589
997.20 12.55741
997.30 12.40117
997.40 12.27532
997.50 12.19406
997.60 12.36539
997.70 12.53673
997.80 12.68883
997.90 12.81743
998.00 12.94602
998.10 13.04694
998.20 13.13863
998.30 13.21799
998.40 13.06305
998.50 12.9081
998.60 12.7758
998.70 12.68557
998.80 12.59533
998.90 12.58852
999.00 12.62864
999.10 12.66875
999.20 12.73497
999.30 12.80285
999.40 12.86267
999.50 12.89694
999.60 12.93122
999.70 12.92505
999.80 12.88444
999.90 12.84383
1000.00 12.91809
1000.10 13.01424
1000.20 13.11445
1000.30 13.25117
1000.40 13.3879
1000.50 13.47592
1000.60 13.49089
1000.70 13.50586
1000.80 13.38581
1000.90 13.20788
1001.00 13.02996
1001.10 12.92459
1001.20 12.81922
1001.30 12.79227
1001.40 12.9483
1001.50 13.10433
1001.60 13.29597
1001.70 13.51134
1001.80 13.7267
1001.90 13.72449
1002.00 13.69809
1002.10 13.66307
1002.20 13.59356
1002.30 13.52405
1002.40 13.50927
1002.50 13.54922
1002.60 13.58916
1002.70 13.60916
1002.80 13.62417
1002.90 13.62868
1003.00 13.53861
1003.10 13.44854
1003.20 13.38216
1003.30 13.3513
1003.40 13.32045
1003.50 13.24234
1003.60 13.14397
1003.70 13.04561
1003.80 13.09606
1003.90 13.14652
1004.00 13.22705
1004.10 13.37779
1004.20 13.52853
1004.30 13.64414
1004.40 13.73633
1004.50 13.82853
1004.60 13.8442
1004.70 13.85137
1004.80 13.83169
1004.90 13.7046
1005.00 13.5775
1005.10 13.39101
1005.20 13.14512
1005.30 12.89923
1005.40 12.6899
1005.50 12.48971
1005.60 12.31184
1005.70 12.33486
1005.80 12.35787
1005.90 12.41056
1006.00 12.50776
1006.10 12.60496
1006.20 12.67472
1006.30 12.73272
1006.40 12.79072
1006.50 12.86356
1006.60 12.93641
1006.70 13.03902
1006.80 13.21106
1006.90 13.3831
1007.00 13.51214
1007.10 13.61251
1007.20 13.71287
1007.30 13.66849
1007.40 13.60803
1007.50 13.57859
1007.60 13.67325
1007.70 13.7679
1007.80 13.82847
1007.90 13.85494
1008.00 13.88142
1008.10 13.86814
1008.20 13.84491
1008.30 13.82844
1008.40 13.87272
1008.50 13.917
1008.60 13.92137
1008.70 13.86587
1008.80 13.81037
1008.90 13.69723
1009.00 13.55938
1009.10 13.42152
1009.20 13.39867
1009.30 13.37582
1009.40 13.38839
1009.50 13.48358
1009.60 13.57878
1009.70 13.70079
1009.80 13.84069
1009.90 13.98058
1010.00 14.14405
1010.10 14.31013
1010.20 14.45298
1010.30 14.50289
1010.40 14.5528
1010.50 14.53343
1010.60 14.44478
1010.70 14.35613
1010.80 14.20637
1010.90 14.04133
1011.00 13.87899
1011.10 13.74093
1011.20 13.60287
1011.30 13.49937
1011.40 13.44771
1011.50 13.39604
1011.60 13.34587
1011.70 13.29633
1011.80 13.24679
1011.90 13.24504
1012.00 13.24329
1012.10 13.32446
1012.20 13.59913
1012.30 13.87379
1012.40 14.03489
1012.50 14.12029
1012.60 14.20568
1012.70 14.20255
1012.80 14.18958
1012.90 14.17298
1013.00 14.14183
1013.10 14.11068
1013.20 14.0668
1013.30 14.01017
1013.40 13.95355
1013.50 13.75425
1013.60 13.51928
1013.70 13.29268
1013.80 13.14136
1013.90 12.99004
1014.00 12.93907
1014.10 13.03862
1014.20 13.13817
1014.30 13.27647
1014.40 13.42445
1014.50 13.54935
1014.60 13.4665
1014.70 13.38365
1014.80 13.33579
1014.90 13.34041
1015.00 13.34504
1015.10 13.47212
1015.20 13.65167
1015.30 13.83121
1015.40 13.83026
1015.50 13.8293
1015.60 13.75607
1015.70 13.51423
1015.80 13.27238
1015.90 13.16196
1016.00 13.13915
1016.10 13.11634
1016.20 13.22135
1016.30 13.34056
1016.40 13.44104
1016.50 13.46656
1016.60 13.49208
1016.70 13.53692
1016.80 13.60109
1016.90 13.66527
1017.00 13.55498
1017.10 13.40107
1017.20 13.26845
1017.30 13.32741
1017.40 13.38637
1017.50 13.53398
1017.60 13.81457
1017.70 14.09515
1017.80 14.08341
1017.90 13.94639
1018.00 13.80937
1018.10 13.65242
1018.20 13.49547
1018.30 13.3535
1018.40 13.24646
1018.50 13.13942
1018.60 13.09003
1018.70 13.07906
1018.80 13.0681
1018.90 13.21411
1019.00 13.37756
1019.10 13.52393
1019.20 13.60194
1019.30 13.67996
1019.40 13.70623
1019.50 13.68075
1019.60 13.65528
1019.70 13.66132
1019.80 13.67525
1019.90 13.68138
1020.00 13.61738
1020.10 13.55337
1020.20 13.51869
1020.30 13.52799
1020.40 13.53728
1020.50 13.61515
1020.60 13.72239
1020.70 13.82964
1020.80 13.88189
1020.90 13.93413
1021.00 13.95641
1021.10 13.90875
1021.20 13.86109
1021.30 13.73607
1021.40 13.55948
1021.50 13.38289
1021.60 13.32256
1021.70 13.27515
1021.80 13.21143
1021.90 13.08246
1022.00 12.95349
1022.10 12.91671
1022.20 12.97213
1022.30 13.02754
1022.40 13.20729
1022.50 13.41811
1022.60 13.61274
1022.70 13.66165
1022.80 13.71056
1022.90 13.72415
1023.00 13.68474
1023.10 13.64534
1023.20 13.5806
1023.30 13.505
1023.40 13.4294
1023.50 13.48849
1023.60 13.54758
1023.70 13.61282
1023.80 13.69242
1023.90 13.77202
1024.00 13.82757
1024.10 13.8671
1024.20 13.90663
1024.30 13.98271
1024.40 14.06286
1024.50 14.11007
1024.60 14.02555
1024.70 13.94103
1024.80 13.86165
1024.90 13.78743
1025.00 13.71321
1025.10 13.60671
1025.20 13.49213
1025.30 13.39031
1025.40 13.33953
1025.50 13.28874
1025.60 13.2923
1025.70 13.35022
1025.80 13.40814
1025.90 13.29907
1026.00 13.14825
1026.10 12.99688
1026.20 12.8406
1026.30 12.68431
1026.40 12.65059
1026.50 12.8007
1026.60 12.95081
1026.70 13.14511
1026.80 13.35836
1026.90 13.5716
1027.00 13.66625
1027.10 13.7609
1027.20 13.80443
1027.30 13.72867
1027.40 13.6529
1027.50 13.55815
1027.60 13.45074
1027.70 13.34332
1027.80 13.3217
1027.90 13.30961
1028.00 13.27956
1028.10 13.17769
1028.20 13.07583
1028.30 12.97654
1028.40 12.87985
1028.50 12.78315
1028.60 12.8808
1028.70 13.02703
1028.80 13.17696
1028.90 13.36018
1029.00 13.5434
1029.10 13.64383
1029.20 13.62006
1029.30 13.59629
1029.40 13.5661
1029.50 13.53316
1029.60 13.50022
1029.70 13.48763
1029.80 13.47503
1029.90 13.44389
1030.00 13.36946
1030.10 13.29503
1030.20 13.29853
1030.30 13.35399
1030.40 13.40945
1030.50 13.52086
1030.60 13.63849
1030.70 13.73186
1030.80 13.72819
1030.90 13.72452
1031.00 13.71655
1031.10 13.7043
1031.20 13.69204
1031.30 13.72591
1031.40 13.77132
1031.50 13.80819
1031.60 13.76822
1031.70 13.72826
1031.80 13.65588
1031.90 13.55109
1032.00 13.44631
1032.10 13.42021
1032.20 13.41379
1032.30 13.40232
1032.40 13.3454
1032.50 13.28849
1032.60 13.28032
1032.70 13.34529
1032.80 13.41025
1032.90 13.59063
1033.00 13.82047
1033.10 14.0503
1033.20 14.14421
1033.30 14.23811
1033.40 14.24376
1033.50 14.04348
1033.60 13.84321
1033.70 13.61264
1033.80 13.36187
1033.90 13.1111
1034.00 12.98031
1034.10 12.86285
1034.20 12.70808
1034.30 12.40411
1034.40 12.10013
1034.50 11.91376
1034.60 11.84501
1034.70 11.77625
1034.80 11.98676
1034.90 12.26709
1035.00 12.53749
1035.10 12.7185
1035.20 12.89951
1035.30 13.04299
1035.40 13.13018
1035.50 13.21737
1035.60 13.32639
1035.70 13.44477
1035.80 13.56315
1035.90 13.69888
1036.00 13.8346
1036.10 13.95898
1036.20 14.05689
1036.30 14.1548
1036.40 14.17635
1036.50 14.14699
1036.60 14.11764
1036.70 14.12183
1036.80 14.12975
1036.90 14.14251
1037.00 14.17459
1037.10 14.20668
1037.20 14.27776
1037.30 14.37483
1037.40 14.4719
1037.50 14.4153
1037.60 14.34162
1037.70 14.244
1037.80 14.05065
1037.90 13.8573
1038.00 13.66722
1038.10 13.48042
1038.20 13.29361
1038.30 13.30622
1038.40 13.36868
1038.50 13.44206
1038.60 13.61365
1038.70 13.78523
1038.80 13.87449
1038.90 13.84025
1039.00 13.80602
1039.10 13.75594
1039.20 13.69906
1039.30 13.64219
1039.40 13.51372
1039.50 13.38525
1039.60 13.25382
1039.70 13.11551
1039.80 12.9772
1039.90 12.97852
1040.00 13.07292
1040.10 13.16733
1040.20 13.38422
1040.30 13.61473
1040.40 13.82498
1040.50 13.95424
1040.60 14.08351
1040.70 14.16615
1040.80 14.20218
1040.90 14.2382
1041.00 14.17683
1041.10 14.0911
1041.20 13.99916
1041.30 13.85143
1041.40 13.7037
1041.50 13.62531
1041.60 13.65096
1041.70 13.6766
1041.80 13.81933
1041.90 14.01224
1042.00 14.18933
1042.10 14.22415
1042.20 14.25897
1042.30 14.21098
1042.40 14.03876
1042.50 13.86655
1042.60 13.68153
1042.70 13.49101
1042.80 13.3005
1042.90 13.23011
1043.00 13.15973
1043.10 13.18661
1043.20 13.44047
1043.30 13.69432
1043.40 13.90397
1043.50 14.08414
1043.60 14.26432
1043.70 14.30268
1043.80 14.32528
1043.90 14.33694
1044.00 14.30483
1044.10 14.27272
1044.20 14.26459
1044.30 14.28044
1044.40 14.29628
1044.50 14.24608
1044.60 14.17936
1044.70 14.12384
1044.80 14.16913
1044.90 14.21441
1045.00 14.27664
1045.10 14.36429
1045.20 14.45194
1045.30 14.57905
1045.40 14.72307
1045.50 14.8671
1045.60 14.90308
1045.70 14.93907
1045.80 14.94355
1045.90 14.87453
1046.00 14.8055
1046.10 14.68856
1046.20 14.55109
1046.30 14.41361
1046.40 14.30148
1046.50 14.18936
1046.60 14.0703
1046.70 13.93508
1046.80 13.79985
1046.90 13.66513
1047.00 13.53074
1047.10 13.39635
1047.20 13.37792
1047.30 13.37237
1047.40 13.3957
1047.50 13.53451
1047.60 13.67332
1047.70 13.75646
1047.80 13.78394
1047.90 13.81142
1048.00 13.81698
1048.10 13.81707
1048.20 13.82613
1048.30 13.91603
1048.40 14.00593
1048.50 14.07305
1048.60 14.10599
1048.70 14.13893
1048.80 14.16101
1048.90 14.17844
1049.00 14.19587
1049.10 14.2166
1049.20 14.23732
1049.30 14.2369
1049.40 14.18716
1049.50 14.13741
1049.60 13.97001
1049.70 13.72416
1049.80 13.47831
1049.90 13.48431
1050.00 13.51831
1050.10 13.60951
1050.20 13.83422
1050.30 14.05893
1050.40 14.15452
1050.50 14.16402
1050.60 14.17353
1050.70 14.143
1050.80 14.10801
1050.90 14.06863
1051.00 14.01167
1051.10 13.95471
1051.20 13.85914
1051.30 13.72496
1051.40 13.59078
1051.50 13.52224
1051.60 13.47012
1051.70 13.42774
1051.80 13.47298
1051.90 13.51822
1052.00 13.53738
1052.10 13.5174
1052.20 13.49743
1052.30 13.54036
1052.40 13.61024
1052.50 13.68013
1052.60 13.86247
1052.70 14.04481
1052.80 14.20054
1052.90 14.29415
1053.00 14.38776
1053.10 14.36499
1053.20 14.26462
1053.30 14.16425
1053.40 14.17327
1053.50 14.19445
1053.60 14.20369
1053.70 14.18509
1053.80 14.1665
1053.90 14.14567
1054.00 14.12336
1054.10 14.10106
1054.20 14.13515
1054.30 14.17552
1054.40 14.19907
1054.50 14.15537
1054.60 14.11167
1054.70 14.04808
1054.80 13.9646
1054.90 13.88112
1055.00 13.92928
1055.10 14.01034
1055.20 14.08625
1055.30 14.1159
1055.40 14.14555
1055.50 14.12839
1055.60 14.04104
1055.70 13.95368
1055.80 13.8299
1055.90 13.6905
1056.00 13.55111
1056.10 13.53672
1056.20 13.52234
1056.30 13.50918
1056.40 13.49888
1056.50 13.48858
1056.60 13.52977
1056.70 13.60528
1056.80 13.6808
1056.90 13.68094
1057.00 13.67271
1057.10 13.68147
1057.20 13.72984
1057.30 13.7782
1057.40 13.83318
1057.50 13.89256
1057.60 13.95193
1057.70 13.97649
1057.80 13.99717
1057.90 14.02136
1058.00 14.0596
1058.10 14.09783
1058.20 14.08979
1058.30 14.03545
1058.40 13.98112
1058.50 13.81694
1058.60 13.6253
1058.70 13.45185
1058.80 13.44213
1058.90 13.43242
1059.00 13.46807
1059.10 13.57177
1059.20 13.67547
1059.30 13.75405
1059.40 13.82185
1059.50 13.88965
1059.60 13.94756
1059.70 14.00548
1059.80 14.03145
1059.90 13.98287
1060.00 13.9343
1060.10 13.89234
1060.20 13.8548
1060.30 13.81725
1060.40 13.80062
1060.50 13.78398
1060.60 13.73846
1060.70 13.62554
1060.80 13.51262
1060.90 13.45517
1061.00 13.4347
1061.10 13.41423
1061.20 13.48652
1061.30 13.56912
1061.40 13.6602
1061.50 13.78517
1061.60 13.91014
1061.70 13.93597
1061.80 13.86266
1061.90 13.78936
1062.00 13.74331
1062.10 13.70407
1062.20 13.66824
1062.30 13.66307
1062.40 13.6579
1062.50 13.70268
1062.60 13.8224
1062.70 13.94211
1062.80 14.06031
1062.90 14.17785
1063.00 14.2954
1063.10 14.26383
1063.20 14.23226
1063.30 14.20161
1063.40 14.17234
1063.50 14.14307
1063.60 14.13896
1063.70 14.14563
1063.80 14.1523
1063.90 14.19225
1064.00 14.2322
1064.10 14.26804
1064.20 14.29431
1064.30 14.32058
1064.40 14.33376
1064.50 14.33822
1064.60 14.34269
1064.70 14.31645
1064.80 14.2868
1064.90 14.26008
1065.00 14.24507
1065.10 14.23006
1065.20 14.18007
1065.30 14.09509
1065.40 14.01011
1065.50 13.9291
1065.60 13.84908
1065.70 13.77893
1065.80 13.79761
1065.90 13.81629
1066.00 13.78912
1066.10 13.69316
1066.20 13.59721
1066.30 13.45829
1066.40 13.30864
1066.50 13.182
1066.60 13.26248
1066.70 13.34295
1066.80 13.40922
1066.90 13.45417
1067.00 13.49912
1067.10 13.50954
1067.20 13.50516
1067.30 13.50078
1067.40 13.61829
1067.50 13.73579
1067.60 13.8272
1067.70 13.85772
1067.80 13.88824
1067.90 13.93183
1068.00 13.98412
1068.10 14.0364
1068.20 14.15587
1068.30 14.2828
1068.40 14.41245
1068.50 14.55301
1068.60 14.69357
1068.70 14.75762
1068.80 14.74515
1068.90 14.73269
1069.00 14.68159
1069.10 14.62084
1069.20 14.56856
1069.30 14.55017
1069.40 14.53178
1069.50 14.45696
1069.60 14.32569
1069.70 14.19443
1069.80 14.14853
1069.90 14.12397
1070.00 14.10135
1070.10 14.09618
1070.20 14.09101
1070.30 14.06492
1070.40 14.00746
1070.50 13.95
1070.60 13.97421
1070.70 14.03342
1070.80 14.09263
1070.90 14.10794
1071.00 14.12324
1071.10 14.13693
1071.20 14.14685
1071.30 14.15678
1071.40 14.18569
1071.50 14.22726
1071.60 14.26884
1071.70 14.2585
1071.80 14.24239
1071.90 14.23065
1072.00 14.22911
1072.10 14.22756
1072.20 14.1944
1072.30 14.14015
1072.40 14.0859
1072.50 13.94691
1072.60 13.79851
1072.70 13.67525
1072.80 13.65257
1072.90 13.62989
1073.00 13.68582
1073.10 13.82038
1073.20 13.95494
1073.30 13.93081
1073.40 13.86702
1073.50 13.80818
1073.60 13.79396
1073.70 13.77974
1073.80 13.83334
1073.90 13.98866
1074.00 14.14398
1074.10 14.19849
1074.20 14.20979
1074.30 14.22109
1074.40 14.23118
1074.50 14.24127
1074.60 14.21225
1074.70 14.12456
1074.80 14.03687
1074.90 13.99497
1075.00 13.97271
1075.10 13.95044
1075.20 13.96916
1075.30 13.98789
1075.40 13.99163
1075.50 13.96044
1075.60 13.92925
1075.70 13.97957
1075.80 14.08424
1075.90 14.1889
1076.00 14.23261
1076.10 14.26956
1076.20 14.29804
1076.30 14.29271
1076.40 14.28737
1076.50 14.2949
1076.60 14.31529
1076.70 14.33568
1076.80 14.33655
1076.90 14.33255
1077.00 14.32679
1077.10 14.30527
1077.20 14.28375
1077.30 14.22227
1077.40 14.12082
1077.50 14.01937
1077.60 13.94524
1077.70 13.87794
1077.80 13.82398
1077.90 13.89011
1078.00 13.95625
1078.10 14.0076
1078.20 14.03679
1078.30 14.06598
1078.40 14.08682
1078.50 14.10408
1078.60 14.12134
1078.70 14.11025
1078.80 14.09916
1078.90 14.07029
1079.00 13.99995
1079.10 13.9296
1079.20 13.8774
1079.30 13.83729
1079.40 13.79717
1079.50 13.81576
1079.60 13.84088
1079.70 13.87841
1079.80 13.94492
1079.90 14.01143
1080.00 14.03731
1080.10 14.0361
1080.20 14.03489
1080.30 14.08989
1080.40 14.15115
1080.50 14.20825
1080.60 14.24874
1080.70 14.28923
1080.80 14.30388
1080.90 14.29271
1081.00 14.28153
1081.10 14.26766
1081.20 14.2531
1081.30 14.24197
1081.40 14.26165
1081.50 14.28134
1081.60 14.29877
1081.70 14.31282
1081.80 14.32687
1081.90 14.33491
1082.00 14.34037
1082.10 14.34583
1082.20 14.23663
1082.30 14.12742
1082.40 14.04617
1082.50 14.00685
1082.60 13.96753
1082.70 14.04263
1082.80 14.16676
1082.90 14.29089
1083.00 14.48087
1083.10 14.67084
1083.20 14.78566
1083.30 14.72511
1083.40 14.66457
1083.50 14.49477
1083.60 14.25213
1083.70 14.00949
1083.80 13.96162
1083.90 13.9354
1084.00 13.93489
1084.10 14.03726
1084.20 14.13962
1084.30 14.16527
1084.40 14.11419
1084.50 14.06311
1084.60 14.02023
1084.70 13.97939
1084.80 13.94849
1084.90 13.95733
1085.00 13.96617
1085.10 14.01235
1085.20 14.09587
1085.30 14.17939
1085.40 14.16504
1085.50 14.12622
1085.60 14.09658
1085.70 14.14953
1085.80 14.20249
1085.90 14.2616
1086.00 14.32994
1086.10 14.39829
1086.20 14.43592
1086.30 14.4604
1086.40 14.48487
1086.50 14.46215
1086.60 14.43942
1086.70 14.41417
1086.80 14.38302
1086.90 14.35188
1087.00 14.37223
1087.10 14.42692
1087.20 14.48161
1087.30 14.42786
1087.40 14.37411
1087.50 14.31173
1087.60 14.22921
1087.70 14.14669
1087.80 14.12997
1087.90 14.15712
1088.00 14.18426
1088.10 14.1875
1088.20 14.18809
1088.30 14.18619
1088.40 14.17434
1088.50 14.1625
1088.60 14.17059
1088.70 14.19861
1088.80 14.22663
1088.90 14.24351
1089.00 14.25761
1089.10 14.26856
1089.20 14.25129
1089.30 14.23401
1089.40 14.19114
1089.50 14.12267
1089.60 14.0542
1089.70 14.08928
1089.80 14.15024
1089.90 14.2109
1090.00 14.26891
1090.10 14.32691
1090.20 14.35881
1090.30 14.35155
1090.40 14.3443
1090.50 14.30934
1090.60 14.26251
1090.70 14.21569
1090.80 14.14843
1090.90 14.08117
1091.00 14.02154
1091.10 13.97972
1091.20 13.9379
1091.30 13.9602
1091.40 14.02525
1091.50 14.09029
1091.60 14.21593
1091.70 14.34831
1091.80 14.42784
1091.90 14.3841
1092.00 14.34036
1092.10 14.34161
1092.20 14.37284
1092.30 14.40407
1092.40 14.37661
1092.50 14.34262
1092.60 14.31427
1092.70 14.30843
1092.80 14.30259
1092.90 14.2973
1093.00 14.29254
1093.10 14.28779
1093.20 14.28007
1093.30 14.2716
1093.40 14.26909
1093.50 14.32008
1093.60 14.37108
1093.70 14.42674
1093.80 14.4894
1093.90 14.55205
1094.00 14.66843
1094.10 14.79823
1094.20 14.90506
1094.30 14.80507
1094.40 14.70508
1094.50 14.58252
1094.60 14.42611
1094.70 14.2697
1094.80 14.2137
1094.90 14.20073
1095.00 14.18777
1095.10 14.29143
1095.20 14.39509
1095.30 14.47487
1095.40 14.49893
1095.50 14.52299
1095.60 14.51635
1095.70 14.48924
1095.80 14.46214
1095.90 14.41657
1096.00 14.36896
1096.10 14.33957
1096.20 14.38313
1096.30 14.42669
1096.40 14.4501
1096.50 14.46006
1096.60 14.47003
1096.70 14.3369
1096.80 14.18788
1096.90 14.05808
1097.00 14.00521
1097.10 13.95233
1097.20 13.9239
1097.30 13.91989
1097.40 13.91589
1097.50 13.96579
1097.60 14.02917
1097.70 14.08767
1097.80 14.10222
1097.90 14.11678
1098.00 14.14627
1098.10 14.19819
1098.20 14.2501
1098.30 14.22851
1098.40 14.17543
1098.50 14.12591
1098.60 14.10852
1098.70 14.09113
1098.80 14.07696
1098.90 14.06762
1099.00 14.05828
1099.10 14.09448
1099.20 14.15018
1099.30 14.20589
1099.40 14.2154
1099.50 14.22491
1099.60 14.23496
1099.70 14.24631
1099.80 14.25765
1099.90 14.24214
1100.00 14.20874
1100.10 14.17534
1100.20 14.14431
1100.30 14.11354
1100.40 14.0788
1100.50 14.02823
1100.60 13.97765
1100.70 13.97018
1100.80 13.99145
1100.90 14.01271
1101.00 14.07019
1101.10 14.1317
1101.20 14.1864
1101.30 14.21392
1101.40 14.24144
1101.50 14.24278
1101.60 14.21793
1101.70 14.19307
1101.80 14.10301
1101.90 13.99664
1102.00 13.89208
1102.10 13.8038
1102.20 13.71553
1102.30 13.6622
1102.40 13.66128
1102.50 13.66036
1102.60 13.76593
1102.70 13.91714
1102.80 14.05922
1102.90 14.11914
1103.00 14.17906
1103.10 14.17525
1103.20 14.07584
1103.30 13.97644
1103.40 13.84947
1103.50 13.7107
1103.60 13.57194
1103.70 13.58578
1103.80 13.59962
1103.90 13.62701
1104.00 13.68602
1104.10 13.74502
1104.20 13.74207
1104.30 13.69783
1104.40 13.65359
1104.50 13.65251
1104.60 13.65622
1104.70 13.6818
1104.80 13.79486
1104.90 13.90792
1105.00 13.91174
1105.10 13.84273
1105.20 13.77372
1105.30 13.66474
1105.40 13.55132
1105.50 13.45469
1105.60 13.42516
1105.70 13.39564
1105.80 13.40911
1105.90 13.46557
1106.00 13.52203
1106.10 13.54256
1106.20 13.55411
1106.30 13.56034
1106.40 13.51868
1106.50 13.47703
1106.60 13.45735
1106.70 13.47066
1106.80 13.48396
1106.90 13.44482
1107.00 13.3832
1107.10 13.33431
1107.20 13.40003
1107.30 13.46574
1107.40 13.52279
1107.50 13.56682
1107.60 13.61085
1107.70 13.65375
1107.80 13.69615
1107.90 13.73856
1108.00 13.71221
1108.10 13.68585
1108.20 13.69179
1108.30 13.77306
1108.40 13.85432
1108.50 13.89296
1108.60 13.90318
1108.70 13.91339
1108.80 13.91014
1108.90 13.90538
1109.00 13.89727
1109.10 13.8757
1109.20 13.85414
1109.30 13.85827
1109.40 13.87954
1109.50 13.9008
1109.60 13.92631
1109.70 13.95229
1109.80 13.97253
1109.90 13.96982
1110.00 13.96711
1110.10 13.94713
1110.20 13.9099
1110.30 13.87266
1110.40 13.78852
1110.50 13.69266
1110.60 13.607
1110.70 13.61313
1110.80 13.61926
1110.90 13.62046
1111.00 13.61427
1111.10 13.60807
1111.20 13.57892
1111.30 13.54401
1111.40 13.50527
1111.50 13.43197
1111.60 13.35866
1111.70 13.34307
1111.80 13.41404
1111.90 13.48501
1112.00 13.47825
1112.10 13.43818
1112.20 13.39811
1112.30 13.39615
1112.40 13.39419
1112.50 13.43502
1112.60 13.57571
1112.70 13.7164
1112.80 13.80234
1112.90 13.8518
1113.00 13.90125
1113.10 13.84002
1113.20 13.7665
1113.30 13.72875
1113.40 13.77449
1113.50 13.82024
1113.60 13.81834
1113.70 13.78469
1113.80 13.75104
1113.90 13.70317
1114.00 13.65372
1114.10 13.63418
1114.20 13.73429
1114.30 13.83441
1114.40 13.92504
1114.50 14.00618
1114.60 14.08733
1114.70 14.17007
1114.80 14.25322
1114.90 14.30712
1115.00 14.09784
1115.10 13.88856
1115.20 13.74508
1115.30 13.70031
1115.40 13.65553
1115.50 13.69134
1115.60 13.7473
1115.70 13.79913
1115.80 13.81376
1115.90 13.8284
1116.00 13.84375
1116.10 13.86018
1116.20 13.87661
1116.30 13.87322
1116.40 13.86134
1116.50 13.84945
1116.60 13.55895
1116.70 13.26844
1116.80 13.11203
1116.90 13.26852
1117.00 13.42501
1117.10 13.48493
1117.20 13.48047
1117.30 13.47601
1117.40 13.36635
1117.50 13.25668
1117.60 13.20933
1117.70 13.30736
1117.80 13.40539
1117.90 13.55064
1118.00 13.61467
1118.10 13.67871
1118.20 13.74274
1118.30 13.77177
1118.40 13.79691
1118.50 13.82206
1118.60 13.87797
1118.70 13.95439
1118.80 14.03081
1118.90 14.03408
1119.00 13.86669
1119.10 13.69929
1119.20 13.53912
1119.30 13.444
1119.40 13.34889
1119.50 13.25377
1119.60 13.36247
1119.70 13.52213
1119.80 13.68179
1119.90 13.77064
1120.00 13.8123
1120.10 13.85396
1120.20 13.85269
1120.30 13.75126
1120.40 13.64983
1120.50 13.56657
1120.60 13.64688
1120.70 13.72719
1120.80 13.8075
1120.90 13.85981
1121.00 13.90513
1121.10 13.95044
1121.20 13.90761
1121.30 13.80601
1121.40 13.70441
1121.50 13.64936
1121.60 13.70292
1121.70 13.75649
1121.80 13.81005
1121.90 13.78433
1122.00 13.75861
1122.10 13.73289
1122.20 13.65114
1122.30 13.55538
1122.40 13.45961
1122.50 13.35252
1122.60 13.23409
1122.70 13.11567
1122.80 13.12895
1122.90 13.44954
1123.00 13.77013
1123.10 14.09072
1123.20 14.12791
1123.30 14.1651
1123.40 14.20228
1123.50 13.96335
1123.60 13.65538
1123.70 13.34741
1123.80 13.2635
1123.90 13.40363
1124.00 13.54376
1124.10 13.67229
1124.20 13.77375
1124.30 13.87521
1124.40 13.97667
1124.50 13.9309
1124.60 13.88513
1124.70 13.83936
1124.80 13.88009
1124.90 13.94246
1125.00 14.00482
1125.10 14.04191
1125.20 14.05371
1125.30 14.06551
1125.40 13.96871
1125.50 13.43745
1125.60 12.9062
1125.70 12.37495
1125.80 12.83446
1125.90 13.29397
1126.00 13.75348
1126.10 13.81472
1126.20 13.70527
1126.30 13.59581
1126.40 13.54542
1126.50 13.55409
1126.60 13.56275
1126.70 13.58976
1126.80 13.69013
1126.90 13.79051
1127.00 13.89088
1127.10 13.90204
1127.20 13.9132
1127.30 13.92435
1127.40 13.82579
1127.50 13.68021
1127.60 13.53462
1127.70 13.43382
1127.80 13.3778
1127.90 13.32178
1128.00 13.29941
1128.10 13.4116
1128.20 13.5238
1128.30 13.636
1128.40 13.66445
1128.50 13.6929
1128.60 13.72135
1128.70 13.76385
1128.80 13.81237
1128.90 13.86088
1129.00 13.87566
1129.10 13.85669
1129.20 13.83772
1129.30 13.81935
1129.40 13.80335
1129.50 13.78734
1129.60 13.77134
1129.70 13.69825
1129.80 13.61881
1129.90 13.53936
1130.00 13.52047
1130.10 13.52754
1130.20 13.5346
1130.30 13.53457
1130.40 13.52391
1130.50 13.51325
1130.60 13.50337
1130.70 13.49662
1130.80 13.48986
1130.90 13.48311
1131.00 13.51603
1131.10 13.55336
1131.20 13.59068
1131.30 13.60164
1131.40 13.6013
1131.50 13.60096
1131.60 13.62068
1131.70 13.6705
1131.80 13.72032
1131.90 13.76861
1132.00 13.81078
1132.10 13.85294
1132.20 13.89511
1132.30 13.83378
1132.40 13.76096
1132.50 13.68813
1132.60 13.66334
1132.70 13.65915
1132.80 13.65495
1132.90 13.69148
1133.00 13.78912
1133.10 13.88675
1133.20 13.93786
1133.30 13.8029
1133.40 13.66793
1133.50 13.53297
1133.60 13.49898
1133.70 13.47622
1133.80 13.45346
1133.90 13.46043
1134.00 13.48015
1134.10 13.49987
1134.20 13.52661
1134.30 13.56386
1134.40 13.60112
1134.50 13.63172
1134.60 13.63568
1134.70 13.63964
1134.80 13.64359
1134.90 13.3492
1135.00 13.02165
1135.10 12.6941
1135.20 12.87955
1135.30 13.28485
1135.40 13.69015
1135.50 13.91372
1135.60 13.86472
1135.70 13.81571
1135.80 13.74031
1135.90 13.55936
1136.00 13.3784
1136.10 13.19745
1136.20 13.17797
1136.30 13.17644
1136.40 13.1749
1136.50 13.22174
1136.60 13.30083
1136.70 13.37992
1136.80 13.40171
1136.90 13.33754
1137.00 13.27336
1137.10 13.21717
1137.20 13.23279
1137.30 13.24841
1137.40 13.26403
1137.50 12.99825
1137.60 12.7012
1137.70 12.40415
1137.80 12.09613
1137.90 11.78079
1138.00 11.46545
1138.10 11.09828
1138.20 10.65335
1138.30 10.20842
1138.40 9.82637
1138.50 10.01018
1138.60 10.19399
1138.70 10.3778
1138.80 10.93916
1138.90 11.54247
1139.00 12.14578
1139.10 12.46044
1139.20 12.58266
1139.30 12.70489
1139.40 12.77952
1139.50 12.78276
1139.60 12.786
1139.70 12.75816
1139.80 12.45064
1139.90 12.14311
1140.00 11.83558
1140.10 11.34567
1140.20 10.8355
1140.30 10.32533
1140.40 9.804338
1140.50 9.276128
1140.60 8.747918
1140.70 8.524406
1140.80 8.757942
1140.90 8.991477
1141.00 9.281816
1141.10 10.08338
1141.20 10.88494
1141.30 11.6865
1141.40 12.00563
1141.50 12.27116
1141.60 12.53669
1141.70 12.75224
1141.80 12.93449
1141.90 13.11673
1142.00 13.1871
1142.10 13.08967
1142.20 12.99223
1142.30 12.90451
1142.40 12.90423
1142.50 12.90395
1142.60 12.90367
1142.70 12.99367
1142.80 13.09369
1142.90 13.19372
1143.00 13.27507
1143.10 13.34395
1143.20 13.41284
1143.30 13.48032
1143.40 13.54569
1143.50 13.61105
1143.60 13.66015
1143.70 13.5628
1143.80 13.46545
1143.90 13.3681
1144.00 13.19345
1144.10 13.01021
1144.20 12.82697
1144.30 12.75647
1144.40 12.76111
1144.50 12.76575
1144.60 12.81462
1144.70 12.92983
1144.80 13.04504
1144.90 13.15333
1145.00 13.19928
1145.10 13.24523
1145.20 13.29117
1145.30 13.32049
1145.40 13.34795
1145.50 13.37541
1145.60 13.3647
1145.70 13.32853
1145.80 13.29236
1145.90 13.30451
1146.00 13.38911
1146.10 13.47372
1146.20 13.55228
1146.30 13.57634
1146.40 13.6004
1146.50 13.62447
1146.60 13.55536
1146.70 13.47591
1146.80 13.39645
1146.90 13.39327
1147.00 13.44094
1147.10 13.48862
1147.20 13.44794
1147.30 13.27473
1147.40 13.10152
1147.50 12.97047
1147.60 13.21878
1147.70 13.4671
1147.80 13.71542
1147.90 13.72549
1148.00 13.7091
1148.10 13.6927
1148.20 13.70856
1148.30 13.73824
1148.40 13.76792
1148.50 13.73106
1148.60 13.59437
1148.70 13.45769
1148.80 13.35119
1148.90 13.36542
1149.00 13.37964
1149.10 13.39387
1149.20 13.54668
1149.30 13.71488
1149.40 13.88309
1149.50 13.8348
1149.60 13.69373
1149.70 13.55266
1149.80 13.40309
1149.90 13.24076
1150.00 13.07843
1150.10 12.9866
1150.20 13.1768
1150.30 13.367
1150.40 13.55719
1150.50 13.59961
1150.60 13.62561
1150.70 13.65161
1150.80 13.65239
1150.90 13.64236
1151.00 13.63233
1151.10 13.60014
1151.20 13.5347
1151.30 13.46926
1151.40 13.4328
1151.50 13.51226
1151.60 13.59171
1151.70 13.67117
1151.80 13.65473
1151.90 13.62764
1152.00 13.60055
1152.10 13.59775
1152.20 13.60536
1152.30 13.61297
1152.40 13.57129
1152.50 13.45568
1152.60 13.34007
1152.70 13.24849
1152.80 13.25303
1152.90 13.25756
1153.00 13.2621
1153.10 13.36271
1153.20 13.47399
1153.30 13.58527
1153.40 13.5901
1153.50 13.54929
1153.60 13.50849
1153.70 13.48159
1153.80 13.47554
1153.90 13.46948
1154.00 13.45533
1154.10 13.40876
1154.20 13.36219
1154.30 13.31562
1154.40 13.34817
1154.50 13.38951
1154.60 13.43085
1154.70 13.44789
1154.80 13.4545
1154.90 13.46112
1155.00 13.46948
1155.10 13.48046
1155.20 13.49144
1155.30 13.50873
1155.40 13.55126
1155.50 13.5938
1155.60 13.63633
1155.70 13.57482
1155.80 13.51331
1155.90 13.4518
1156.00 13.49095
1156.10 13.57324
1156.20 13.65553
1156.30 13.66691
1156.40 13.60738
1156.50 13.54785
1156.60 13.50659
1156.70 13.53843
1156.80 13.57027
1156.90 13.60211
1157.00 13.58055
1157.10 13.55898
1157.20 13.53742
1157.30 13.53913
1157.40 13.55081
1157.50 13.56249
1157.60 13.52932
1157.70 13.4513
1157.80 13.37327
1157.90 13.3233
1158.00 13.38554
1158.10 13.44778
1158.20 13.51001
1158.30 13.53819
1158.40 13.56637
1158.50 13.59455
1158.60 13.56693
1158.70 13.51539
1158.80 13.46384
1158.90 13.39951
1159.00 13.32237
1159.10 13.24523
1159.20 13.17333
1159.30 13.12235
1159.40 13.07137
1159.50 13.02039
1159.60 12.96909
1159.70 12.9178
1159.80 12.8665
1159.90 12.92054
1160.00 13.00092
1160.10 13.0813
1160.20 13.14024
1160.30 13.17775
1160.40 13.21525
1160.50 13.19077
1160.60 13.02165
1160.70 12.85254
1160.80 12.68343
1160.90 12.5009
1161.00 12.31837
1161.10 12.13585
1161.20 12.2277
1161.30 12.38815
1161.40 12.5486
1161.50 12.73921
1161.60 12.95998
1161.70 13.18075
1161.80 13.35519
1161.90 13.42155
1162.00 13.4879
1162.10 13.55426
1162.20 13.47105
1162.30 13.38785
1162.40 13.30464
1162.50 13.30492
1162.60 13.32607
1162.70 13.34723
1162.80 13.39933
1162.90 13.4824
1163.00 13.56547
1163.10 13.62424
1163.20 13.62636
1163.30 13.62847
1163.40 13.61838
1163.50 13.49849
1163.60 13.37861
1163.70 13.25872
1163.80 13.04136
1163.90 12.79962
1164.00 12.55788
1164.10 12.51193
1164.20 12.59651
1164.30 12.68108
1164.40 12.80116
1164.50 13.00409
1164.60 13.20702
1164.70 13.39168
1164.80 13.41184
1164.90 13.432
1165.00 13.45217
1165.10 13.42862
1165.20 13.39414
1165.30 13.35966
1165.40 13.33123
1165.50 13.30684
1165.60 13.28245
1165.70 13.27134
1165.80 13.29126
1165.90 13.31117
1166.00 13.33597
1166.10 13.40479
1166.20 13.47361
1166.30 13.54242
1166.40 13.57458
1166.50 13.60265
1166.60 13.63073
1166.70 13.60135
1166.80 13.53366
1166.90 13.46597
1167.00 13.42889
1167.10 13.43772
1167.20 13.44656
1167.30 13.45205
1167.40 13.42742
1167.50 13.40279
1167.60 13.37817
1167.70 13.364
1167.80 13.35101
1167.90 13.33801
1168.00 13.32736
1168.10 13.31828
1168.20 13.30921
1168.30 13.28687
1168.40 13.24463
1168.50 13.2024
1168.60 13.14445
1168.70 12.94511
1168.80 12.74576
1168.90 12.54642
1169.00 12.05923
1169.10 11.54007
1169.20 11.0209
1169.30 10.90859
1169.40 10.97065
1169.50 11.0327
1169.60 11.25448
1169.70 11.71585
1169.80 12.17721
1169.90 12.58885
1170.00 12.8016
1170.10 13.01435
1170.20 13.2271
1170.30 13.29571
1170.40 13.34831
1170.50 13.4009
1170.60 13.41162
1170.70 13.40439
1170.80 13.39715
1170.90 13.38323
1171.00 13.35927
1171.10 13.33531
1171.20 13.32136
1171.30 13.34743
1171.40 13.3735
1171.50 13.39957
1171.60 13.39711
1171.70 13.39466
1171.80 13.3922
1171.90 13.36075
1172.00 13.31688
1172.10 13.27301
1172.20 13.25261
1172.30 13.25568
1172.40 13.25875
1172.50 13.26492
1172.60 13.2835
1172.70 13.30207
1172.80 13.32065
1172.90 13.32931
1173.00 13.33798
1173.10 13.34665
1173.20 13.37163
1173.30 13.40361
1173.40 13.43559
1173.50 13.43176
1173.60 13.39211
1173.70 13.35246
1173.80 13.31064
1173.90 13.26376
1174.00 13.21689
1174.10 13.17001
1174.20 13.20861
1174.30 13.2472
1174.40 13.2858
1174.50 13.33582
1174.60 13.3887
1174.70 13.44158
1174.80 13.47076
1174.90 13.47625
1175.00 13.48174
1175.10 13.47216
1175.20 13.4274
1175.30 13.38263
1175.40 13.33787
1175.50 13.36757
1175.60 13.39726
1175.70 13.42696
1175.80 13.42462
1175.90 13.41428
1176.00 13.40393
1176.10 13.37888
1176.20 13.34401
1176.30 13.30914
1176.40 13.27387
1176.50 13.23767
1176.60 13.20147
1176.70 13.13431
1176.80 12.78854
1176.90 12.44277
1177.00 12.09701
1177.10 11.52907
1177.20 10.90558
1177.30 10.2821
1177.40 9.960807
1177.50 9.840976
1177.60 9.721145
1177.70 9.875293
1177.80 10.44041
1177.90 11.00553
1178.00 11.54432
1178.10 11.84622
1178.20 12.14812
1178.30 12.45002
1178.40 12.49646
1178.50 12.5145
1178.60 12.53255
1178.70 12.61583
1178.80 12.74259
1178.90 12.86935
1179.00 12.98517
1179.10 13.08459
1179.20 13.184
1179.30 13.26626
1179.40 13.19406
1179.50 13.12187
1179.60 13.04967
1179.70 12.99303
1179.80 12.93811
1179.90 12.88319
1180.00 12.92575
1180.10 13.01008
1180.20 13.09442
1180.30 13.16348
1180.40 13.20964
1180.50 13.2558
1180.60 13.28931
1180.70 13.27222
1180.80 13.25513
1180.90 13.23803
1181.00 13.21885
1181.10 13.19942
1181.20 13.18
1181.30 13.19203
1181.40 13.21754
1181.50 13.24305
1181.60 13.23852
1181.70 13.20396
1181.80 13.1694
1181.90 13.13737
1182.00 13.11545
1182.10 13.09353
1182.20 13.07161
1182.30 13.08018
1182.40 13.08874
1182.50 13.0973
1182.60 12.98949
1182.70 12.8318
1182.80 12.67412
1182.90 12.54143
1183.00 12.43373
1183.10 12.32604
1183.20 12.29331
1183.30 12.43551
1183.40 12.57771
1183.50 12.7199
1183.60 12.78313
1183.70 12.84635
1183.80 12.90957
1183.90 12.96801
1184.00 13.02526
1184.10 13.08251
1184.20 13.14959
1184.30 13.22649
1184.40 13.3034
1184.50 13.34236
1184.60 13.29275
1184.70 13.24315
1184.80 13.19354
1184.90 13.10418
1185.00 13.01482
1185.10 12.92545
1185.20 12.94589
1185.30 12.99377
1185.40 13.04165
1185.50 13.0832
1185.60 13.12052
1185.70 13.15785
1185.80 13.18298
1185.90 13.17967
1186.00 13.17637
1186.10 13.17585
1186.20 13.20045
1186.30 13.22505
1186.40 13.24964
1186.50 13.22642
1186.60 13.19123
1186.70 13.15605
1186.80 13.1233
1186.90 13.09216
1187.00 13.06102
1187.10 13.04985
1187.20 13.06861
1187.30 13.08738
1187.40 13.1029
1187.50 13.08925
1187.60 13.0756
1187.70 13.06195
1187.80 13.02461
1187.90 12.98464
1188.00 12.94468
1188.10 12.68752
1188.20 12.33728
1188.30 11.98705
1188.40 11.6686
1188.50 11.39785
1188.60 11.1271
1188.70 10.97551
1188.80 11.3006
1188.90 11.62568
1189.00 11.95076
1189.10 12.20685
1189.20 12.45527
1189.30 12.7037
1189.40 12.80189
1189.50 12.8357
1189.60 12.86951
1189.70 12.93668
1189.80 13.03723
1189.90 13.13777
1190.00 13.21448
1190.10 13.19591
1190.20 13.17733
1190.30 13.15875
1190.40 13.12061
1190.50 13.08247
1190.60 13.04433
1190.70 13.02382
1190.80 13.01088
1190.90 12.99793
1191.00 13.00247
1191.10 13.02449
1191.20 13.04652
1191.30 13.0663
1191.40 13.08087
1191.50 13.09544
1191.60 13.11001
1191.70 13.11817
1191.80 13.12633
1191.90 13.13449
1192.00 13.14912
1192.10 13.16536
1192.20 13.18159
1192.30 13.17824
1192.40 13.15531
1192.50 13.13237
1192.60 13.11617
1192.70 13.11572
1192.80 13.11526
1192.90 13.11671
1193.00 13.13534
1193.10 13.15396
1193.20 13.17259
1193.30 13.14462
1193.40 13.10501
1193.50 13.06539
1193.60 13.00738
1193.70 12.9371
1193.80 12.86682
1193.90 12.81485
1194.00 12.8056
1194.10 12.79634
1194.20 12.7869
1194.30 12.77579
1194.40 12.76467
1194.50 12.75355
1194.60 12.73832
1194.70 12.72262
1194.80 12.70693
1194.90 12.64378
1195.00 12.549
1195.10 12.45422
1195.20 12.41803
1195.30 12.46971
1195.40 12.52139
1195.50 12.57168
1195.60 12.61637
1195.70 12.66106
1195.80 12.70575
1195.90 12.7036
1196.00 12.69625
1196.10 12.6889
1196.20 12.67267
1196.30 12.65265
1196.40 12.63262
1196.50 12.6164
1196.60 12.60588
1196.70 12.59536
1196.80 12.57689
1196.90 12.52661
1197.00 12.47634
1197.10 12.42606
1197.20 12.11052
1197.30 11.79498
1197.40 11.47944
1197.50 11.27987
1197.60 11.12999
1197.70 10.98012
1197.80 11.03358
1197.90 11.29037
1198.00 11.54716
1198.10 11.77542
1198.20 11.9371
1198.30 12.09877
1198.40 12.26045
1198.50 12.32378
1198.60 12.38711
1198.70 12.45044
1198.80 12.43766
1198.90 12.40587
1199.00 12.37407
1199.10 12.34364
1199.20 12.31458
1199.30 12.28552
1199.40 12.26745
1199.50 12.27501
1199.60 12.28258
1199.70 12.29088
1199.80 12.30582
1199.90 12.32076
1200.00 12.33571
