# Version 2.1 - nm, norm@500 to 1, cut digits
# Wavelength(nm)  Flambda(ergs/cm^s/s/nm)
300.00 0.007968105
300.10 0.01058614
300.20 0.01218293
300.30 0.01284633
300.40 0.01302311
300.50 0.01307673
300.60 0.01312908
300.70 0.01318105
300.80 0.01323506
300.90 0.01329538
301.00 0.01336661
301.10 0.01345077
301.20 0.01354591
301.30 0.01364766
301.40 0.01375202
301.50 0.01385693
301.60 0.01396184
301.70 0.01406677
301.80 0.0141717
301.90 0.01427663
302.00 0.01438156
302.10 0.01448649
302.20 0.01459142
302.30 0.01469635
302.40 0.01480129
302.50 0.01490623
302.60 0.01501118
302.70 0.01511654
302.80 0.01522389
302.90 0.01533625
303.00 0.01545695
303.10 0.01558747
303.20 0.01572633
303.30 0.01587021
303.40 0.01601607
303.50 0.01616235
303.60 0.01630863
303.70 0.01645492
303.80 0.01660121
303.90 0.0167475
304.00 0.01689379
304.10 0.01704008
304.20 0.01718638
304.30 0.01733266
304.40 0.01747894
304.50 0.0176252
304.60 0.01777143
304.70 0.01791641
304.80 0.01805531
304.90 0.01817888
305.00 0.01827693
305.10 0.01834496
305.20 0.01838747
305.30 0.01841465
305.40 0.01843575
305.50 0.0184556
305.60 0.01847541
305.70 0.01849521
305.80 0.018515
305.90 0.01853479
306.00 0.01855458
306.10 0.01857436
306.20 0.01859415
306.30 0.01861393
306.40 0.01863372
306.50 0.01865351
306.60 0.01867329
306.70 0.01869308
306.80 0.01871288
306.90 0.01873272
307.00 0.01875261
307.10 0.01877256
307.20 0.01879258
307.30 0.01881262
307.40 0.01883268
307.50 0.01885274
307.60 0.0188728
307.70 0.01889286
307.80 0.01891292
307.90 0.01893298
308.00 0.01895304
308.10 0.0189731
308.20 0.01899316
308.30 0.01901324
308.40 0.01903333
308.50 0.01905347
308.60 0.01907369
308.70 0.01909704
308.80 0.0191356
308.90 0.01921254
309.00 0.01935333
309.10 0.01956928
309.20 0.01984907
309.30 0.02016725
309.40 0.02050064
309.50 0.02083715
309.60 0.02117375
309.70 0.02151039
309.80 0.02184705
309.90 0.02218372
310.00 0.0225204
310.10 0.02285707
310.20 0.02319375
310.30 0.02353041
310.40 0.02386705
310.50 0.02420364
310.60 0.02454016
310.70 0.02487353
310.80 0.02519161
310.90 0.0254711
311.00 0.02568641
311.10 0.02582617
311.20 0.02590175
311.30 0.02593873
311.40 0.02596043
311.50 0.02597898
311.60 0.02599746
311.70 0.02601588
311.80 0.02603429
311.90 0.02605268
312.00 0.02607108
312.10 0.02608947
312.20 0.02610786
312.30 0.02612627
312.40 0.02614471
312.50 0.0261632
312.60 0.02618179
312.70 0.02620427
312.80 0.02624562
312.90 0.02633464
313.00 0.02650292
313.10 0.02676452
313.20 0.02710538
313.30 0.02749391
313.40 0.02790132
313.50 0.02831261
313.60 0.028724
313.70 0.02913544
313.80 0.02954692
313.90 0.0299584
314.00 0.03036989
314.10 0.03078138
314.20 0.03119287
314.30 0.03160437
314.40 0.03201589
314.50 0.03242745
314.60 0.03283908
314.70 0.03325341
314.80 0.03368088
314.90 0.03414153
315.00 0.03465736
315.10 0.03523814
315.20 0.0358741
315.30 0.03654324
315.40 0.03722552
315.50 0.03791051
315.60 0.03859556
315.70 0.03928065
315.80 0.03996576
315.90 0.04065088
316.00 0.041336
316.10 0.04202113
316.20 0.04270624
316.30 0.04339133
316.40 0.04407634
316.50 0.0447612
316.60 0.04544582
316.70 0.04612048
316.80 0.04674686
316.90 0.04725128
317.00 0.04755286
317.10 0.04761569
317.20 0.0474757
317.30 0.04721374
317.40 0.04690349
317.50 0.04658329
317.60 0.04626284
317.70 0.04594225
317.80 0.04562158
317.90 0.04530088
318.00 0.04498018
318.10 0.04465947
318.20 0.04433877
318.30 0.0440181
318.40 0.04369748
318.50 0.04337697
318.60 0.04305665
318.70 0.04274395
318.80 0.04246822
318.90 0.04228584
319.00 0.04225873
319.10 0.04241438
319.20 0.0427253
319.30 0.04312957
319.40 0.04357082
319.50 0.04401967
319.60 0.04446872
319.70 0.04491788
319.80 0.0453671
319.90 0.04581634
320.00 0.04626558
320.10 0.04671483
320.20 0.04716407
320.30 0.0476133
320.40 0.04806252
320.50 0.04851169
320.60 0.04896079
320.70 0.04940707
320.80 0.04983969
320.90 0.05023777
321.00 0.05057843
321.10 0.0508515
321.20 0.05106714
321.30 0.05124825
321.40 0.05141568
321.50 0.05158031
321.60 0.05174486
321.70 0.05190937
321.80 0.05207386
321.90 0.05223834
322.00 0.05240282
322.10 0.0525673
322.20 0.05273178
322.30 0.0528963
322.40 0.05306089
322.50 0.05322564
322.60 0.05339064
322.70 0.05356593
322.80 0.05379116
322.90 0.05414251
323.00 0.05470362
323.10 0.05551162
323.20 0.05652938
323.30 0.05767326
323.40 0.05886708
323.50 0.06007119
323.60 0.06127555
323.70 0.06248007
323.80 0.06368466
323.90 0.06488929
324.00 0.06609392
324.10 0.06729855
324.20 0.06850318
324.30 0.06970781
324.40 0.07091242
324.50 0.07211701
324.60 0.07332156
324.70 0.07452443
324.80 0.07571919
324.90 0.07689347
325.00 0.07803367
325.10 0.07913377
325.20 0.08019979
325.30 0.08124533
325.40 0.08228276
325.50 0.08331851
325.60 0.08435422
325.70 0.08538991
325.80 0.08642558
325.90 0.08746125
326.00 0.08849692
326.10 0.08953259
326.20 0.09056826
326.30 0.09160394
326.40 0.09263965
326.50 0.09367541
326.60 0.09471127
326.70 0.09575072
326.80 0.09680766
326.90 0.09790875
327.00 0.09908329
327.10 0.1003443
327.20 0.1016787
327.30 0.1030572
327.40 0.1044533
327.50 0.1058529
327.60 0.1072527
327.70 0.1086525
327.80 0.1100523
327.90 0.1114522
328.00 0.112852
328.10 0.1142518
328.20 0.1156517
328.30 0.1170514
328.40 0.118451
328.50 0.1198503
328.60 0.1212491
328.70 0.1226267
328.80 0.1239017
328.90 0.1249177
329.00 0.1255028
329.10 0.1255807
329.20 0.1252277
329.30 0.1246156
329.40 0.1239009
329.50 0.1231651
329.60 0.1224288
329.70 0.1216921
329.80 0.1209553
329.90 0.1202185
330.00 0.1194816
330.10 0.1187447
330.20 0.1180078
330.30 0.117271
330.40 0.1165343
330.50 0.1157978
330.60 0.1150618
330.70 0.1143413
330.80 0.113697
330.90 0.1132449
331.00 0.1131124
331.10 0.1133562
331.20 0.1139196
331.30 0.1146752
331.40 0.1155068
331.50 0.1163542
331.60 0.1172019
331.70 0.1180499
331.80 0.118898
331.90 0.1197462
332.00 0.1205943
332.10 0.1214425
332.20 0.1222906
332.30 0.1231387
332.40 0.1239868
332.50 0.1248347
332.60 0.1256823
332.70 0.12652
332.80 0.1273096
332.90 0.1279774
333.00 0.1284429
333.10 0.1286702
333.20 0.1286951
333.30 0.1285983
333.40 0.1284533
333.50 0.1282984
333.60 0.1281433
333.70 0.127988
333.80 0.1278327
333.90 0.1276773
334.00 0.1275219
334.10 0.1273665
334.20 0.1272115
334.30 0.1270567
334.40 0.1269023
334.50 0.1267482
334.60 0.1267228
334.70 0.1271173
334.80 0.1280444
334.90 0.1289882
335.00 0.1289662
335.10 0.1277109
335.20 0.1267716
335.30 0.1290424
335.40 0.1365331
335.50 0.1480974
335.60 0.1593115
335.70 0.1650462
335.80 0.1627737
335.90 0.1538195
336.00 0.141949
336.10 0.1310394
336.20 0.1237965
336.30 0.1213563
336.40 0.1228039
336.50 0.1252868
336.60 0.1257254
336.70 0.1233681
336.80 0.1207479
336.90 0.1216947
337.00 0.1280533
337.10 0.1378828
337.20 0.1465662
337.30 0.1499829
337.40 0.1474005
337.50 0.1419317
337.60 0.1381538
337.70 0.1387136
337.80 0.1427729
337.90 0.1475448
338.00 0.1508981
338.10 0.1522456
338.20 0.1512782
338.30 0.1469844
338.40 0.1390215
338.50 0.1297417
338.60 0.1238265
338.70 0.1249245
338.80 0.1322475
338.90 0.1408223
339.00 0.145487
339.10 0.1451178
339.20 0.1433203
339.30 0.1448827
339.40 0.1513651
339.50 0.1600874
339.60 0.1670264
339.70 0.1701942
339.80 0.1701464
339.90 0.167991
340.00 0.1641693
340.10 0.159138
340.20 0.1539524
340.30 0.1494149
340.40 0.1449884
340.50 0.1393614
340.60 0.1322198
340.70 0.1249782
340.80 0.1196611
340.90 0.1174202
341.00 0.1181789
341.10 0.1212341
341.20 0.125775
341.30 0.1308487
341.40 0.1353327
341.50 0.1383684
341.60 0.1398699
341.70 0.1405609
341.80 0.1414241
341.90 0.1429743
342.00 0.1448016
342.10 0.1456518
342.20 0.1441898
342.30 0.1401227
342.40 0.1348046
342.50 0.1305516
342.60 0.1290859
342.70 0.1304627
342.80 0.1332942
342.90 0.1358456
343.00 0.1371018
343.10 0.1372237
343.20 0.1371701
343.30 0.1377652
343.40 0.1389794
343.50 0.1400996
343.60 0.1404838
343.70 0.1399557
343.80 0.1386523
343.90 0.1368959
344.00 0.1352753
344.10 0.1344712
344.20 0.1346617
344.30 0.1352221
344.40 0.1352739
344.50 0.1345259
344.60 0.1335111
344.70 0.13312
344.80 0.134033
344.90 0.1364903
345.00 0.140364
345.10 0.1452542
345.20 0.1505102
345.30 0.1552315
345.40 0.1584125
345.50 0.159426
345.60 0.1585468
345.70 0.1569052
345.80 0.1557146
345.90 0.1554228
346.00 0.155512
346.10 0.1549523
346.20 0.1529213
346.30 0.1494511
346.40 0.1456374
346.50 0.1430017
346.60 0.1422821
346.70 0.1427921
346.80 0.1430588
346.90 0.1420224
347.00 0.1395822
347.10 0.1363942
347.20 0.1335467
347.30 0.1322528
347.40 0.1332841
347.50 0.1363623
347.60 0.1402896
347.70 0.1438684
347.80 0.1467025
347.90 0.1491847
348.00 0.1518754
348.10 0.1548741
348.20 0.1576175
348.30 0.1592511
348.40 0.1593214
348.50 0.1581733
348.60 0.1565944
348.70 0.1550972
348.80 0.1536784
348.90 0.1521739
349.00 0.1505928
349.10 0.1490756
349.20 0.1477481
349.30 0.1467905
349.40 0.1465258
349.50 0.1471601
349.60 0.1483796
349.70 0.1493978
349.80 0.1496523
349.90 0.1495951
350.00 0.1506395
350.10 0.1540456
350.20 0.1597123
350.30 0.1660504
350.40 0.1710656
350.50 0.1736191
350.60 0.1738016
350.70 0.1724013
350.80 0.1702329
350.90 0.1677526
351.00 0.1648808
351.10 0.1610396
351.20 0.1556056
351.30 0.1487139
351.40 0.1416971
351.50 0.1364459
351.60 0.1340697
351.70 0.1341155
351.80 0.1350941
351.90 0.1357219
352.00 0.1356374
352.10 0.1351008
352.20 0.1344149
352.30 0.1338426
352.40 0.1339481
352.50 0.1357639
352.60 0.1402242
352.70 0.1471982
352.80 0.1551211
352.90 0.1618667
353.00 0.1663127
353.10 0.1690564
353.20 0.171498
353.30 0.1744137
353.40 0.1776148
353.50 0.1807212
353.60 0.1838106
353.70 0.187176
353.80 0.1908119
353.90 0.1943956
354.00 0.1975055
354.10 0.1995939
354.20 0.2000013
354.30 0.1984644
354.40 0.1956869
354.50 0.1931002
354.60 0.1917944
354.70 0.1917153
354.80 0.1919655
354.90 0.1917466
355.00 0.1909096
355.10 0.189775
355.20 0.1886841
355.30 0.1877945
355.40 0.1871824
355.50 0.1868806
355.60 0.1867016
355.70 0.1861218
355.80 0.1845247
355.90 0.1817134
356.00 0.1781447
356.10 0.1745575
356.20 0.1713399
356.30 0.1682194
356.40 0.1645626
356.50 0.1600645
356.60 0.1552505
356.70 0.1512884
356.80 0.149175
356.90 0.1489996
357.00 0.1499516
357.10 0.1509472
357.20 0.1511951
357.30 0.1503579
357.40 0.1484528
357.50 0.1457458
357.60 0.1426742
357.70 0.1396933
357.80 0.1370917
357.90 0.1349267
358.00 0.1331828
358.10 0.1320509
358.20 0.1320012
358.30 0.1334757
358.40 0.1364436
358.50 0.1402422
358.60 0.1438332
358.70 0.146247
358.80 0.1469861
358.90 0.1462659
359.00 0.1450293
359.10 0.1445932
359.20 0.1459235
359.30 0.1489615
359.40 0.1525466
359.50 0.155143
359.60 0.1558801
359.70 0.1550931
359.80 0.1539424
359.90 0.1534323
360.00 0.1536137
360.10 0.1535851
360.20 0.1522634
360.30 0.1492537
360.40 0.1451829
360.50 0.1413864
360.60 0.1392901
360.70 0.1398427
360.80 0.1430881
360.90 0.1480661
361.00 0.1532839
361.10 0.1575648
361.20 0.1606058
361.30 0.1627467
361.40 0.1642822
361.50 0.1651483
361.60 0.1653295
361.70 0.1653006
361.80 0.1657684
361.90 0.1669551
362.00 0.1683327
362.10 0.1691768
362.20 0.1692327
362.30 0.1687878
362.40 0.1683239
362.50 0.1682433
362.60 0.1686799
362.70 0.169268
362.80 0.169208
362.90 0.1679021
363.00 0.1656515
363.10 0.1635672
363.20 0.1626746
363.30 0.1631501
363.40 0.1643948
363.50 0.165662
363.60 0.1665369
363.70 0.1669778
363.80 0.167068
363.90 0.1667723
364.00 0.1658772
364.10 0.1641388
364.20 0.1615305
364.30 0.1583798
364.40 0.1552995
364.50 0.1529884
364.60 0.1519615
364.70 0.152263
364.80 0.1534042
364.90 0.1547329
365.00 0.1560293
365.10 0.1577271
365.20 0.1603782
365.30 0.1638294
365.40 0.1670223
365.50 0.1687256
365.60 0.1685502
365.70 0.1672435
365.80 0.1659697
365.90 0.1653651
366.00 0.1652998
366.10 0.1654082
366.20 0.1656651
366.30 0.166336
366.40 0.167489
366.50 0.1687281
366.60 0.1694006
366.70 0.1690188
366.80 0.1675141
366.90 0.1652
367.00 0.1626088
367.10 0.1603446
367.20 0.1589565
367.30 0.1587971
367.40 0.1598706
367.50 0.1618009
367.60 0.1640164
367.70 0.1660459
367.80 0.167715
367.90 0.1691143
368.00 0.1704059
368.10 0.1716278
368.20 0.172625
368.30 0.1731251
368.40 0.1729153
368.50 0.1720424
368.60 0.1708967
368.70 0.17005
368.80 0.1699068
368.90 0.1704582
369.00 0.1713933
369.10 0.172466
369.20 0.1736627
369.30 0.1749714
369.40 0.1760857
369.50 0.176482
369.60 0.1758722
369.70 0.1745581
369.80 0.1733256
369.90 0.1730001
370.00 0.1740178
370.10 0.1762549
370.20 0.1791674
370.30 0.1820841
370.40 0.1844374
370.50 0.1858591
370.60 0.1862216
370.70 0.1857384
370.80 0.1849775
370.90 0.1846075
371.00 0.1849636
371.10 0.1857698
371.20 0.1862428
371.30 0.1854977
371.40 0.1830419
371.50 0.1791028
371.60 0.1745942
371.70 0.170689
371.80 0.1682841
371.90 0.1677089
372.00 0.1687534
372.10 0.170729
372.20 0.1724211
372.30 0.1723011
372.40 0.1692334
372.50 0.1633659
372.60 0.1563981
372.70 0.1508208
372.80 0.1486475
372.90 0.1505328
373.00 0.155723
373.10 0.1626032
373.20 0.1693667
373.30 0.1745037
373.40 0.1771037
373.50 0.1769207
373.60 0.1742076
373.70 0.1694742
373.80 0.1633794
373.90 0.1567909
374.00 0.1507961
374.10 0.1465131
374.20 0.1448068
374.30 0.1461359
374.40 0.1505887
374.50 0.1579149
374.60 0.1674339
374.70 0.177906
374.80 0.187611
374.90 0.194784
375.00 0.1982206
375.10 0.1976638
375.20 0.1937622
375.30 0.1877323
375.40 0.1809852
375.50 0.1748302
375.60 0.1701636
375.70 0.1672288
375.80 0.1656306
375.90 0.1646653
376.00 0.1638094
376.10 0.1631053
376.20 0.1632435
376.30 0.165277
376.40 0.1701079
376.50 0.1780985
376.60 0.1890614
376.70 0.202379
376.80 0.2169186
376.90 0.2307972
377.00 0.2415359
377.10 0.2469086
377.20 0.245959
377.30 0.2393714
377.40 0.2289674
377.50 0.2168452
377.60 0.2047797
377.70 0.1940501
377.80 0.1853929
377.90 0.1789634
378.00 0.174427
378.10 0.1712503
378.20 0.1690135
378.30 0.1674899
378.40 0.1665219
378.50 0.1659801
378.60 0.1658854
378.70 0.1664772
378.80 0.1681108
378.90 0.1711844
379.00 0.1762577
379.10 0.1841213
379.20 0.1954671
379.30 0.2102822
379.40 0.2274727
379.50 0.2450217
379.60 0.2604537
379.70 0.271328
379.80 0.2757905
379.90 0.2731507
380.00 0.2642351
380.10 0.2511461
380.20 0.2364613
380.30 0.2223513
380.40 0.2101226
380.50 0.2002504
380.60 0.1926336
380.70 0.1868147
380.80 0.1821438
380.90 0.1780604
381.00 0.1743704
381.10 0.1712378
381.20 0.1688531
381.30 0.1671194
381.40 0.1657462
381.50 0.164659
381.60 0.164181
381.70 0.1646301
381.80 0.165761
381.90 0.1667238
382.00 0.1667046
382.10 0.1686462
382.20 0.1796892
382.30 0.2037049
382.40 0.2410825
382.50 0.2874835
382.60 0.3357072
382.70 0.375243
382.80 0.3943623
382.90 0.3906739
383.00 0.3724301
383.10 0.357959
383.20 0.3654921
383.30 0.3946803
383.40 0.4360876
383.50 0.4734334
383.60 0.4862627
383.70 0.4611828
383.80 0.403568
383.90 0.3381939
384.00 0.2949056
384.10 0.286388
384.20 0.2968577
384.30 0.2983845
384.40 0.2801235
384.50 0.2514439
384.60 0.2257539
384.70 0.197584
384.80 0.1708851
384.90 0.1595848
385.00 0.1755123
385.10 0.2118803
385.20 0.2479229
385.30 0.2640812
385.40 0.253869
385.50 0.2298548
385.60 0.2157415
385.70 0.2244326
385.80 0.2447261
385.90 0.2568019
386.00 0.2544483
386.10 0.2469391
386.20 0.2427775
386.30 0.2413511
386.40 0.2402883
386.50 0.2420961
386.60 0.2526703
386.70 0.2751307
386.80 0.3043248
386.90 0.3252059
387.00 0.3207685
387.10 0.2882693
387.20 0.2481984
387.30 0.2315224
387.40 0.2513019
387.50 0.2872475
387.60 0.3028736
387.70 0.2810638
387.80 0.236488
387.90 0.1922534
388.00 0.1581086
388.10 0.138775
388.20 0.1477618
388.30 0.1923303
388.40 0.2531811
388.50 0.3032484
388.60 0.3457868
388.70 0.4075936
388.80 0.4917418
388.90 0.5579148
389.00 0.5623358
389.10 0.5050183
389.20 0.4243773
389.30 0.357381
389.40 0.3150658
389.50 0.2880859
389.60 0.2630129
389.70 0.2447933
389.80 0.23885
389.90 0.2631744
390.00 0.3163199
390.10 0.3651664
390.20 0.3881777
390.30 0.3832641
390.40 0.3696654
390.50 0.3697427
390.60 0.3738226
390.70 0.3623886
390.80 0.3323307
390.90 0.2979952
391.00 0.2754984
391.10 0.2748371
391.20 0.2977402
391.30 0.3249502
391.40 0.3477345
391.50 0.3533986
391.60 0.3386196
391.70 0.3089269
391.80 0.2710077
391.90 0.2328217
392.00 0.206337
392.10 0.1994804
392.20 0.209861
392.30 0.2231111
392.40 0.2322019
392.50 0.2331763
392.60 0.2284821
392.70 0.2355754
392.80 0.2659512
392.90 0.3184731
393.00 0.3860372
393.10 0.4836218
393.20 0.6330317
393.30 0.8039055
393.40 0.9113143
393.50 0.8791152
393.60 0.7154774
393.70 0.5106749
393.80 0.3580103
393.90 0.2871838
394.00 0.2689931
394.10 0.2650588
394.20 0.2584745
394.30 0.2466612
394.40 0.2418002
394.50 0.2481707
394.60 0.2647858
394.70 0.2845195
394.80 0.3038709
394.90 0.3138511
395.00 0.3168457
395.10 0.3165684
395.20 0.3167514
395.30 0.321589
395.40 0.3344645
395.50 0.3456633
395.60 0.3407536
395.70 0.3169604
395.80 0.2822053
395.90 0.2559976
396.00 0.2469621
396.10 0.2460632
396.20 0.2418558
396.30 0.2352367
396.40 0.2481273
396.50 0.3063256
396.60 0.4311766
396.70 0.6267382
396.80 0.856335
396.90 1.039902
397.00 1.093297
397.10 0.9926987
397.20 0.7967992
397.30 0.6007724
397.40 0.4659283
397.50 0.3960942
397.60 0.3664821
397.70 0.3569892
397.80 0.3581113
397.90 0.3607693
398.00 0.3538813
398.10 0.3338498
398.20 0.3111083
398.30 0.3022079
398.40 0.3131811
398.50 0.3344846
398.60 0.3530188
398.70 0.3653757
398.80 0.3694771
398.90 0.367243
399.00 0.3570072
399.10 0.3513426
399.20 0.3687267
399.30 0.407585
399.40 0.4401712
399.50 0.4402167
399.60 0.4094354
399.70 0.3736867
399.80 0.3548115
399.90 0.3512504
400.00 0.3506126
400.10 0.3477455
400.20 0.3476087
400.30 0.3531694
400.40 0.3576402
400.50 0.3528947
400.60 0.341998
400.70 0.3419813
400.80 0.3629311
400.90 0.3964852
401.00 0.425382
401.10 0.4324343
401.20 0.4157786
401.30 0.3853758
401.40 0.3583418
401.50 0.3412939
401.60 0.3273203
401.70 0.3074964
401.80 0.2899516
401.90 0.2840767
402.00 0.2925322
402.10 0.3088836
402.20 0.3223452
402.30 0.3242168
402.40 0.3154456
402.50 0.3087013
402.60 0.3168002
402.70 0.3377082
402.80 0.3526273
402.90 0.3424042
403.00 0.3064502
403.10 0.2622413
403.20 0.2285378
403.30 0.2140223
403.40 0.2190339
403.50 0.2414134
403.60 0.2757414
403.70 0.3119682
403.80 0.3453299
403.90 0.3779909
404.00 0.4103529
404.10 0.4374538
404.20 0.4518806
404.30 0.4492345
404.40 0.42771
404.50 0.3880792
404.60 0.3394267
404.70 0.2992602
404.80 0.2790326
404.90 0.2737048
405.00 0.2712809
405.10 0.2695968
405.20 0.2790848
405.30 0.3072977
405.40 0.3452851
405.50 0.3738236
405.60 0.3815133
405.70 0.3730408
405.80 0.3603542
405.90 0.3506664
406.00 0.3423092
406.10 0.3313788
406.20 0.3177804
406.30 0.307474
406.40 0.3078856
406.50 0.3198042
406.60 0.3324322
406.70 0.3300806
406.80 0.3068448
406.90 0.2727998
407.00 0.2464457
407.10 0.2397036
407.20 0.2468006
407.30 0.2548627
407.40 0.2541804
407.50 0.2418304
407.60 0.2302293
407.70 0.2307434
407.80 0.2458921
407.90 0.2705923
408.00 0.2961219
408.10 0.3152897
408.20 0.325376
408.30 0.3274086
408.40 0.3245793
408.50 0.3204564
408.60 0.3172886
408.70 0.3139442
408.80 0.3076778
408.90 0.298696
409.00 0.2906679
409.10 0.2855267
409.20 0.2812299
409.30 0.2747148
409.40 0.2668753
409.50 0.2623899
409.60 0.2655393
409.70 0.2783587
409.80 0.3040904
409.90 0.3502646
410.00 0.4244631
410.10 0.5181302
410.20 0.5939948
410.30 0.6036978
410.40 0.5301055
410.50 0.4100895
410.60 0.3072054
410.70 0.2554992
410.80 0.2532386
410.90 0.2683116
411.00 0.2774022
411.10 0.2751715
411.20 0.2662265
411.30 0.2577285
411.40 0.2562033
411.50 0.2613703
411.60 0.2571182
411.70 0.2333774
411.80 0.198248
411.90 0.169071
412.00 0.1637863
412.10 0.1862886
412.20 0.2243773
412.30 0.2596643
412.40 0.2807809
412.50 0.2873856
412.60 0.2851813
412.70 0.2800314
412.80 0.2750212
412.90 0.2697136
413.00 0.2632365
413.10 0.2576984
413.20 0.2568083
413.30 0.2603254
413.40 0.262166
413.50 0.2567327
413.60 0.2465276
413.70 0.2405526
413.80 0.2460861
413.90 0.2637893
414.00 0.2878364
414.10 0.3082475
414.20 0.3090894
414.30 0.29002
414.40 0.2579166
414.50 0.2267539
414.60 0.2087543
414.70 0.2062202
414.80 0.2085688
414.90 0.211965
415.00 0.2194828
415.10 0.2335001
415.20 0.2564302
415.30 0.2869195
415.40 0.3129107
415.50 0.3237025
415.60 0.3170344
415.70 0.3002376
415.80 0.285621
415.90 0.2826599
416.00 0.2906093
416.10 0.3016616
416.20 0.3070832
416.30 0.306019
416.40 0.3051844
416.50 0.3098029
416.60 0.3139398
416.70 0.3165088
416.80 0.3130655
416.90 0.3017661
417.00 0.282285
417.10 0.25616
417.20 0.2341739
417.30 0.2202073
417.40 0.2162858
417.50 0.2240821
417.60 0.2417749
417.70 0.2621146
417.80 0.2767378
417.90 0.2819304
418.00 0.2909665
418.10 0.3104008
418.20 0.3328249
418.30 0.3426938
418.40 0.3334762
418.50 0.3154437
418.60 0.3008597
418.70 0.2989155
418.80 0.2996399
418.90 0.2923608
419.00 0.2760955
419.10 0.2568457
419.20 0.2393434
419.30 0.2250637
419.40 0.2164203
419.50 0.2177652
419.60 0.2295155
419.70 0.2451177
419.80 0.2567514
419.90 0.2620143
420.00 0.2642163
420.10 0.265977
420.20 0.2654955
420.30 0.2569146
420.40 0.2397959
420.50 0.2205795
420.60 0.2054616
420.70 0.1974976
420.80 0.1936309
420.90 0.195466
421.00 0.2043772
421.10 0.2188903
421.20 0.2318845
421.30 0.2369063
421.40 0.2363788
421.50 0.2375823
421.60 0.2428901
421.70 0.2440416
421.80 0.2323171
421.90 0.2106481
422.00 0.1906497
422.10 0.1798076
422.20 0.1749464
422.30 0.1680985
422.40 0.1558934
422.50 0.1401494
422.60 0.1232612
422.70 0.1056315
422.80 0.100013
422.90 0.1098559
423.00 0.129062
423.10 0.1445713
423.20 0.1465174
423.30 0.1374275
423.40 0.1300225
423.50 0.13248
423.60 0.1433466
423.70 0.1577529
423.80 0.1697386
423.90 0.1826279
424.00 0.2020666
424.10 0.2260724
424.20 0.2457733
424.30 0.2542631
424.40 0.2504135
424.50 0.2403529
424.60 0.2306332
424.70 0.2247273
424.80 0.2220009
424.90 0.224658
425.00 0.2312138
425.10 0.2357709
425.20 0.2331902
425.30 0.2239408
425.40 0.2140743
425.50 0.2088406
425.60 0.2070453
425.70 0.2022928
425.80 0.1904674
425.90 0.1765739
426.00 0.1720062
426.10 0.1824793
426.20 0.200639
426.30 0.2139796
426.40 0.2181759
426.50 0.2200686
426.60 0.2272222
426.70 0.2400898
426.80 0.2556411
426.90 0.2691224
427.00 0.2761363
427.10 0.2794099
427.20 0.275289
427.30 0.2615884
427.40 0.2392018
427.50 0.2137361
427.60 0.1959949
427.70 0.1956646
427.80 0.2112574
427.90 0.2347499
428.00 0.2558612
428.10 0.2686885
428.20 0.2747775
428.30 0.2789562
428.40 0.2855018
428.50 0.2925731
428.60 0.2920275
428.70 0.2774171
428.80 0.2525516
428.90 0.2290785
429.00 0.2167114
429.10 0.2155585
429.20 0.2244782
429.30 0.2395329
429.40 0.2550501
429.50 0.267872
429.60 0.2793748
429.70 0.2919621
429.80 0.3026924
429.90 0.3028389
430.00 0.2868734
430.10 0.2624498
430.20 0.2480098
430.30 0.2560393
430.40 0.2791169
430.50 0.2967299
430.60 0.2953168
430.70 0.2794122
430.80 0.2635121
430.90 0.2560656
431.00 0.2550003
431.10 0.2558945
431.20 0.2581077
431.30 0.2623422
431.40 0.2654814
431.50 0.2620295
431.60 0.2515956
431.70 0.2430355
431.80 0.2463423
431.90 0.2623559
432.00 0.2831559
432.10 0.2977299
432.20 0.302348
432.30 0.2976994
432.40 0.2896277
432.50 0.2850893
432.60 0.2866886
432.70 0.2921022
432.80 0.2976441
432.90 0.3024252
433.00 0.3104492
433.10 0.3270401
433.20 0.3496536
433.30 0.3694256
433.40 0.380152
433.50 0.3829053
433.60 0.3922366
433.70 0.432533
433.80 0.5213643
433.90 0.6619309
434.00 0.8139016
434.10 0.9098566
434.20 0.8996207
434.30 0.7888279
434.40 0.6347149
434.50 0.5038314
434.60 0.4300347
434.70 0.4053155
434.80 0.4002374
434.90 0.3902854
435.00 0.3681527
435.10 0.3388707
435.20 0.3106281
435.30 0.2905532
435.40 0.28274
435.50 0.2854593
435.60 0.2903325
435.70 0.289631
435.80 0.2848012
435.90 0.2857383
436.00 0.2981554
436.10 0.3138303
436.20 0.3148038
436.30 0.3023737
436.40 0.2901039
436.50 0.2931139
436.60 0.3125698
436.70 0.3314114
436.80 0.3354664
436.90 0.3258627
437.00 0.312963
437.10 0.3047924
437.20 0.303022
437.30 0.3048568
437.40 0.3068912
437.50 0.3091272
437.60 0.3148446
437.70 0.3248523
437.80 0.3317799
437.90 0.3261183
438.00 0.3089035
438.10 0.2945456
438.20 0.2973217
438.30 0.3190788
438.40 0.3497993
438.50 0.3793098
438.60 0.4009727
438.70 0.4065081
438.80 0.3903064
438.90 0.3589163
439.00 0.3291145
439.10 0.3171597
439.20 0.3258301
439.30 0.3445399
439.40 0.362308
439.50 0.3772519
439.60 0.393162
439.70 0.4092466
439.80 0.4171142
439.90 0.4090057
440.00 0.3922386
440.10 0.3799435
440.20 0.3767662
440.30 0.3766677
440.40 0.3697385
440.50 0.3604012
440.60 0.3547538
440.70 0.3557264
440.80 0.3619265
440.90 0.3657926
441.00 0.3679919
441.10 0.3695698
441.20 0.3724543
441.30 0.3790131
441.40 0.3905318
441.50 0.4065786
441.60 0.4256003
441.70 0.4457305
441.80 0.463886
441.90 0.4750278
442.00 0.4747513
442.10 0.4637288
442.20 0.4485263
442.30 0.4364136
442.40 0.4304882
442.50 0.4290851
442.60 0.4285138
442.70 0.4267359
442.80 0.425134
442.90 0.4282056
443.00 0.4404898
443.10 0.4609013
443.20 0.4801385
443.30 0.4864986
443.40 0.4771555
443.50 0.4624715
443.60 0.458962
443.70 0.4755579
443.80 0.5024183
443.90 0.5304058
444.00 0.5504299
444.10 0.5566135
444.20 0.548115
444.30 0.5328472
444.40 0.5238027
444.50 0.52855
444.60 0.5430926
444.70 0.5585776
444.80 0.5710905
444.90 0.5813093
445.00 0.5891504
445.10 0.5905535
445.20 0.5803086
445.30 0.557193
445.40 0.5271507
445.50 0.5021269
445.60 0.4931079
445.70 0.5002311
445.80 0.5146933
445.90 0.5265881
446.00 0.5324414
446.10 0.5351756
446.20 0.5377144
446.30 0.5383295
446.40 0.5334933
446.50 0.5241405
446.60 0.5183318
446.70 0.5253228
446.80 0.5465692
446.90 0.5747893
447.00 0.6020824
447.10 0.6263893
447.20 0.6484179
447.30 0.6649689
447.40 0.6689253
447.50 0.656191
447.60 0.6321042
447.70 0.6106445
447.80 0.6059326
447.90 0.6216764
448.00 0.6451813
448.10 0.666604
448.20 0.6783935
448.30 0.6810448
448.40 0.6840986
448.50 0.6890688
448.60 0.6929504
448.70 0.6948797
448.80 0.6978649
448.90 0.7038662
449.00 0.7105606
449.10 0.713768
449.20 0.7110386
449.30 0.7027279
449.40 0.6912709
449.50 0.6808233
449.60 0.6766704
449.70 0.6823302
449.80 0.6969231
449.90 0.7164591
450.00 0.7361059
450.10 0.75027
450.20 0.7530255
450.30 0.74124
450.40 0.7187404
450.50 0.6956009
450.60 0.6813809
450.70 0.6793339
450.80 0.6865426
450.90 0.6969641
451.00 0.7041375
451.10 0.7041818
451.20 0.6990829
451.30 0.6961821
451.40 0.7013919
451.50 0.7135595
451.60 0.7271533
451.70 0.7396661
451.80 0.7539559
451.90 0.7729301
452.00 0.7941857
452.10 0.8108966
452.20 0.8173364
452.30 0.8131312
452.40 0.8028253
452.50 0.7914554
452.60 0.7811247
452.70 0.772287
452.80 0.767069
452.90 0.768404
453.00 0.7746702
453.10 0.7774102
453.20 0.7672667
453.30 0.7432507
453.40 0.7156053
453.50 0.6999777
453.60 0.7087214
453.70 0.7449735
453.80 0.8013067
453.90 0.8626974
454.00 0.9126282
454.10 0.9405314
454.20 0.9459198
454.30 0.9349153
454.40 0.9132168
454.50 0.8840675
454.60 0.851386
454.70 0.8213823
454.80 0.7988497
454.90 0.7834633
455.00 0.7721194
455.10 0.7628989
455.20 0.7558955
455.30 0.7529213
455.40 0.7574702
455.50 0.7729097
455.60 0.7997206
455.70 0.8346173
455.80 0.8723923
455.90 0.9077821
456.00 0.9365171
456.10 0.9577017
456.20 0.9747191
456.30 0.9921435
456.40 1.011902
456.50 1.033139
456.60 1.054473
456.70 1.073816
456.80 1.087605
456.90 1.093978
457.00 1.09719
457.10 1.105603
457.20 1.122806
457.30 1.14109
457.40 1.14629
457.50 1.130915
457.60 1.10166
457.70 1.073408
457.80 1.056218
457.90 1.049499
458.00 1.047328
458.10 1.044498
458.20 1.035389
458.30 1.01137
458.40 0.9656155
458.50 0.9017647
458.60 0.8345817
458.70 0.7801871
458.80 0.7465155
458.90 0.7328934
459.00 0.7354586
459.10 0.7498988
459.20 0.7698879
459.30 0.7878501
459.40 0.8007
459.50 0.8129753
459.60 0.8316491
459.70 0.8575692
459.80 0.8833071
459.90 0.9001203
460.00 0.9055641
460.10 0.90475
460.20 0.9057155
460.30 0.9117932
460.40 0.9167711
460.50 0.9088828
460.60 0.8839341
460.70 0.8562066
460.80 0.8523498
460.90 0.8896779
461.00 0.9598049
461.10 1.034669
461.20 1.089313
461.30 1.119575
461.40 1.139257
461.50 1.162836
461.60 1.191398
461.70 1.214553
461.80 1.223663
461.90 1.220601
462.00 1.213969
462.10 1.209492
462.20 1.204944
462.30 1.191791
462.40 1.159223
462.50 1.099332
462.60 1.01476
462.70 0.9220544
462.80 0.8447509
462.90 0.8003811
463.00 0.7919873
463.10 0.8101375
463.20 0.8401406
463.30 0.8673702
463.40 0.8810298
463.50 0.8784155
463.60 0.8656337
463.70 0.8526857
463.80 0.8462058
463.90 0.8469366
464.00 0.854038
464.10 0.8686457
464.20 0.8914149
464.30 0.9178194
464.40 0.9377262
464.50 0.9416934
464.60 0.9295374
464.70 0.9115785
464.80 0.900151
464.90 0.8995744
465.00 0.9055733
465.10 0.914232
465.20 0.9278529
465.30 0.949896
465.40 0.9767513
465.50 0.9990307
465.60 1.011815
465.70 1.021202
465.80 1.038721
465.90 1.069246
466.00 1.105655
466.10 1.136314
466.20 1.156462
466.30 1.170728
466.40 1.18502
466.50 1.19568
466.60 1.187751
466.70 1.145778
466.80 1.067843
466.90 0.969987
467.00 0.8760154
467.10 0.8024473
467.20 0.7536001
467.30 0.7275648
467.40 0.7210565
467.50 0.7293897
467.60 0.7461163
467.70 0.7656054
467.80 0.7837409
467.90 0.7959735
468.00 0.7989816
468.10 0.7961983
468.20 0.7976902
468.30 0.8110735
468.40 0.8349133
468.50 0.8627527
468.60 0.8909297
468.70 0.918738
468.80 0.9435702
468.90 0.9604735
469.00 0.9673415
469.10 0.9679239
469.20 0.9682083
469.30 0.9712067
469.40 0.976824
469.50 0.9854699
469.60 0.9993594
469.70 1.019542
469.80 1.04301
469.90 1.065337
470.00 1.086077
470.10 1.108377
470.20 1.131939
470.30 1.148889
470.40 1.149313
470.50 1.131258
470.60 1.103383
470.70 1.077317
470.80 1.060545
470.90 1.055886
471.00 1.062302
471.10 1.072709
471.20 1.073975
471.30 1.055229
471.40 1.01806
471.50 0.9759115
471.60 0.9433022
471.70 0.9282212
471.80 0.9323312
471.90 0.9533521
472.00 0.9846424
472.10 1.016188
472.20 1.04043
472.30 1.057137
472.40 1.071092
472.50 1.084632
472.60 1.093683
472.70 1.092292
472.80 1.081379
472.90 1.071492
473.00 1.074741
473.10 1.092885
473.20 1.115275
473.30 1.129926
473.40 1.134195
473.50 1.13336
473.60 1.131621
473.70 1.128598
473.80 1.124232
473.90 1.12164
474.00 1.123673
474.10 1.130216
474.20 1.140993
474.30 1.157615
474.40 1.179791
474.50 1.201703
474.60 1.215747
474.70 1.220168
474.80 1.221101
474.90 1.226683
475.00 1.239723
475.10 1.255603
475.20 1.266634
475.30 1.269254
475.40 1.266513
475.50 1.262609
475.60 1.255438
475.70 1.235441
475.80 1.191221
475.90 1.116052
476.00 1.012329
476.10 0.8941233
476.20 0.7845477
476.30 0.7048017
476.40 0.6599522
476.50 0.6415513
476.60 0.6332297
476.70 0.6223051
476.80 0.611479
476.90 0.6090891
477.00 0.6166611
477.10 0.6268715
477.20 0.6325336
477.30 0.6364825
477.40 0.6500359
477.50 0.6809305
477.60 0.7237589
477.70 0.7632745
477.80 0.7866853
477.90 0.7922009
478.00 0.7874572
478.10 0.7820528
478.20 0.7819563
478.30 0.7886839
478.40 0.8005295
478.50 0.8143392
478.60 0.8282456
478.70 0.8428708
478.80 0.8593101
478.90 0.8771581
479.00 0.8954008
479.10 0.9141086
479.20 0.9330665
479.30 0.9492483
479.40 0.9588702
479.50 0.9627943
479.60 0.9675426
479.70 0.9795914
479.80 0.9993047
479.90 1.021106
480.00 1.037964
480.10 1.043962
480.20 1.033646
480.30 1.002794
480.40 0.9513408
480.50 0.8841282
480.60 0.8091398
480.70 0.7360863
480.80 0.6768698
480.90 0.6433922
481.00 0.640272
481.10 0.6597258
481.20 0.6867596
481.30 0.7107989
481.40 0.7317781
481.50 0.7545497
481.60 0.7790393
481.70 0.7992399
481.80 0.8109994
481.90 0.8180048
482.00 0.8291842
482.10 0.8512093
482.20 0.8834687
482.30 0.9183351
482.40 0.9447534
482.50 0.9544362
482.60 0.9480547
482.70 0.9352922
482.80 0.9269319
482.90 0.9253951
483.00 0.9243962
483.10 0.9191062
483.20 0.915145
483.30 0.9239678
483.40 0.9493881
483.50 0.982157
483.60 1.010131
483.70 1.031066
483.80 1.050585
483.90 1.068273
484.00 1.071657
484.10 1.047298
484.20 0.9962341
484.30 0.9374536
484.40 0.895925
484.50 0.8850825
484.60 0.8968787
484.70 0.9073336
484.80 0.8950935
484.90 0.8575873
485.00 0.8103718
485.10 0.7730663
485.20 0.7580466
485.30 0.7683964
485.40 0.7988734
485.50 0.8366318
485.60 0.8683521
485.70 0.8981369
485.80 0.9619855
485.90 1.112263
486.00 1.365103
486.10 1.653109
486.20 1.845823
486.30 1.841932
486.40 1.651072
486.50 1.381196
486.60 1.148019
486.70 1.00243
486.80 0.9328753
486.90 0.9096937
487.00 0.9138012
487.10 0.9360961
487.20 0.9689323
487.30 1.003394
487.40 1.029807
487.50 1.039524
487.60 1.029453
487.70 1.006387
487.80 0.9846282
487.90 0.9762762
488.00 0.9826044
488.10 0.9954886
488.20 1.006638
488.30 1.014448
488.40 1.022732
488.50 1.035187
488.60 1.052451
488.70 1.072409
488.80 1.091681
488.90 1.107868
489.00 1.120729
489.10 1.130234
489.20 1.134931
489.30 1.13398
489.40 1.13037
489.50 1.129853
489.60 1.134958
489.70 1.141699
489.80 1.143942
489.90 1.139895
490.00 1.133839
490.10 1.133436
490.20 1.145425
490.30 1.171611
490.40 1.207258
490.50 1.243857
490.60 1.276057
490.70 1.305358
490.80 1.335073
490.90 1.363907
491.00 1.387474
491.10 1.404387
491.20 1.416907
491.30 1.42529
491.40 1.425799
491.50 1.417057
491.60 1.405113
491.70 1.399563
491.80 1.405981
491.90 1.423816
492.00 1.450055
492.10 1.481155
492.20 1.511575
492.30 1.535133
492.40 1.551068
492.50 1.566956
492.60 1.591786
492.70 1.625138
492.80 1.656077
492.90 1.673501
493.00 1.675258
493.10 1.667572
493.20 1.658167
493.30 1.651978
493.40 1.651275
493.50 1.655813
493.60 1.662661
493.70 1.667788
493.80 1.669343
493.90 1.669798
494.00 1.674882
494.10 1.690368
494.20 1.719206
494.30 1.759431
494.40 1.80361
494.50 1.842451
494.60 1.871644
494.70 1.89608
494.80 1.925225
494.90 1.962258
495.00 1.997406
495.10 2.008822
495.20 1.967539
495.30 1.846607
495.40 1.636561
495.50 1.360804
495.60 1.07431
495.70 0.838383
495.80 0.6896584
495.90 0.6276368
496.00 0.6246112
496.10 0.6455654
496.20 0.6650297
496.30 0.6751598
496.40 0.6837829
496.50 0.7040912
496.60 0.7438149
496.70 0.8015652
496.80 0.868625
496.90 0.9321741
497.00 0.98016
497.10 1.007748
497.20 1.020872
497.30 1.031898
497.40 1.050127
497.50 1.075234
497.60 1.098282
497.70 1.108966
497.80 1.102871
497.90 1.082846
498.00 1.055452
498.10 1.027807
498.20 1.008088
498.30 1.006257
498.40 1.028868
498.50 1.070999
498.60 1.1168
498.70 1.151802
498.80 1.174878
498.90 1.195812
499.00 1.221526
499.10 1.247706
499.20 1.265374
499.30 1.272614
499.40 1.276904
499.50 1.285752
499.60 1.285234
499.70 1.229876
499.80 1.069138
499.90 0.7985623
500.00 1
500.10 0.8852671
500.20 0.8721394
500.30 0.8814803
500.40 0.8722584
500.50 0.873065
500.60 0.8900362
500.70 0.8895972
500.80 0.8890776
500.90 0.8703028
501.00 0.956136
501.10 0.9642558
501.20 0.9649124
501.30 0.9701103
501.40 0.9655487
501.50 0.8909873
501.60 0.8966198
501.70 0.9580653
501.80 0.9771517
501.90 1.038089
502.00 1.062387
502.10 1.086827
502.20 1.108908
502.30 1.07895
502.40 1.051621
502.50 1.036479
502.60 1.080792
502.70 1.108821
502.80 1.146452
502.90 1.120626
503.00 1.10892
503.10 1.100438
503.20 1.181951
503.30 1.193399
503.40 1.188256
503.50 1.232148
503.60 1.261817
503.70 1.191049
503.80 1.216993
503.90 1.2374
504.00 1.213045
504.10 1.234834
504.20 1.293889
504.30 1.30223
504.40 1.334912
504.50 1.378396
504.60 1.455473
504.70 1.515035
504.80 1.490055
504.90 1.384991
505.00 1.280797
505.10 1.218188
505.20 1.236401
505.30 1.264521
505.40 1.31486
505.50 1.32218
505.60 1.258571
505.70 1.232017
505.80 1.260809
505.90 1.314891
506.00 1.355683
506.10 1.340297
506.20 1.351746
506.30 1.360754
506.40 1.40247
506.50 1.369915
506.60 1.312446
506.70 1.310242
506.80 1.373307
506.90 1.408566
507.00 1.392878
507.10 1.367211
507.20 1.373115
507.30 1.336958
507.40 1.357031
507.50 1.467438
507.60 1.523485
507.70 1.429956
507.80 1.422584
507.90 1.529375
508.00 1.498735
508.10 1.368996
508.20 1.322857
508.30 1.351325
508.40 1.300905
508.50 1.324963
508.60 1.476877
508.70 1.506278
508.80 1.502163
508.90 1.457614
509.00 1.349546
509.10 1.393622
509.20 1.539401
509.30 1.546447
509.40 1.492471
509.50 1.418004
509.60 1.322018
509.70 1.337826
509.80 1.424278
509.90 1.495585
510.00 1.448001
510.10 1.402733
510.20 1.366985
510.30 1.35221
510.40 1.364741
510.50 1.36701
510.60 1.318556
510.70 1.34154
510.80 1.366939
510.90 1.375207
511.00 1.391136
511.10 1.400459
511.20 1.372942
511.30 1.382469
511.40 1.453712
511.50 1.509881
511.60 1.584598
511.70 1.650918
511.80 1.656947
511.90 1.560642
512.00 1.508926
512.10 1.480758
512.20 1.465548
512.30 1.490964
512.40 1.482339
512.50 1.408803
512.60 1.383977
512.70 1.3845
512.80 1.359521
512.90 1.353118
513.00 1.362742
513.10 1.355831
513.20 1.458896
513.30 1.63441
513.40 1.658201
513.50 1.554816
513.60 1.557901
513.70 1.626328
513.80 1.727632
513.90 1.729724
514.00 1.646366
514.10 1.567609
514.20 1.573958
514.30 1.561234
514.40 1.541977
514.50 1.511149
514.60 1.456495
514.70 1.403453
514.80 1.46105
514.90 1.549928
515.00 1.53902
515.10 1.490879
515.20 1.49921
515.30 1.435749
515.40 1.311769
515.50 1.300867
515.60 1.333776
515.70 1.483653
515.80 1.70026
515.90 1.799188
516.00 1.830904
516.10 1.878804
516.20 1.988121
516.30 2.000686
516.40 1.945579
516.50 1.989922
516.60 1.888996
516.70 1.497065
516.80 1.031579
516.90 0.7186257
517.00 0.6189938
517.10 0.6378701
517.20 0.5913658
517.30 0.5711236
517.40 0.570386
517.50 0.6005947
517.60 0.6644216
517.70 0.6864063
517.80 0.6630111
517.90 0.7005772
518.00 0.6750287
518.10 0.6641649
518.20 0.6998435
518.30 0.7402083
518.40 0.7411817
518.50 0.819412
518.60 0.9650297
518.70 1.091347
518.80 1.093448
518.90 1.121474
519.00 1.156586
519.10 1.171143
519.20 1.172327
519.30 1.149813
519.40 1.123467
519.50 1.168437
519.60 1.198031
519.70 1.279302
519.80 1.405305
519.90 1.440762
520.00 1.323897
520.10 1.237385
520.20 1.21526
520.30 1.197388
520.40 1.142136
520.50 1.055998
520.60 0.94247
520.70 0.8498371
520.80 0.8423862
520.90 0.8540737
521.00 0.8661693
521.10 0.9114087
521.20 1.127437
521.30 1.431772
521.40 1.656845
521.50 1.702538
521.60 1.670064
521.70 1.646603
521.80 1.663717
521.90 1.689814
522.00 1.727639
522.10 1.742891
522.20 1.834384
522.30 1.872755
522.40 1.828529
522.50 1.786863
522.60 1.731245
522.70 1.663552
522.80 1.70264
522.90 1.779539
523.00 1.899329
523.10 2.039046
523.20 2.026016
523.30 1.905032
523.40 1.828927
523.50 1.779544
523.60 1.894206
523.70 1.962892
523.80 1.927773
523.90 1.937232
524.00 1.975966
524.10 1.823974
524.20 1.566838
524.30 1.474218
524.40 1.511589
524.50 1.648661
524.60 1.687802
524.70 1.612637
524.80 1.555593
524.90 1.621408
525.00 1.681686
525.10 1.638056
525.20 1.625645
525.30 1.693021
525.40 1.791939
525.50 1.87006
525.60 1.874258
525.70 1.909006
525.80 1.951047
525.90 1.956993
526.00 1.891995
526.10 1.769201
526.20 1.669556
526.30 1.631527
526.40 1.637432
526.50 1.57123
526.60 1.510635
526.70 1.502451
526.80 1.597446
526.90 1.588205
527.00 1.38709
527.10 1.292033
527.20 1.475468
527.30 1.712729
527.40 1.868246
527.50 1.924935
527.60 1.900223
527.70 1.891294
527.80 1.876113
527.90 1.874623
528.00 1.90672
528.10 1.867326
528.20 1.821839
528.30 1.812308
528.40 1.860487
528.50 1.89841
528.60 1.99571
528.70 2.062001
528.80 2.134495
528.90 2.092488
529.00 2.059128
529.10 2.057499
529.20 2.037309
529.30 2.054055
529.40 2.065609
529.50 2.118761
529.60 2.144301
529.70 2.087525
529.80 1.946754
529.90 1.880847
530.00 1.873923
530.10 1.93941
530.20 1.988667
530.30 2.114178
530.40 2.231746
530.50 2.253397
530.60 2.225619
530.70 2.220719
530.80 2.097169
530.90 1.981949
531.00 1.973261
531.10 1.959699
531.20 1.950512
531.30 1.936186
531.40 1.989287
531.50 2.004149
531.60 2.047247
531.70 2.081794
531.80 2.049925
531.90 2.044387
532.00 2.030822
532.10 2.015048
532.20 2.024675
532.30 2.062544
532.40 2.061376
532.50 2.038111
532.60 2.055304
532.70 2.030056
532.80 1.902025
532.90 1.731069
533.00 1.707252
533.10 1.893629
533.20 2.034707
533.30 2.031349
533.40 2.013495
533.50 2.014123
533.60 2.014158
533.70 2.006157
533.80 2.032893
533.90 2.069231
534.00 2.058821
534.10 2.046514
534.20 2.05217
534.30 2.051869
534.40 2.106941
534.50 2.159754
534.60 2.151256
534.70 2.052957
534.80 2.027345
534.90 2.090039
535.00 2.196917
535.10 2.248006
535.20 2.39388
535.30 2.513922
535.40 2.529189
535.50 2.53789
535.60 2.506125
535.70 2.468443
535.80 2.416127
535.90 2.286468
536.00 2.137808
536.10 2.099799
536.20 2.123648
536.30 2.200905
536.40 2.221431
536.50 2.190718
536.60 2.15396
536.70 2.194815
536.80 2.247397
536.90 2.258642
537.00 2.225032
537.10 2.149635
537.20 2.02517
537.30 2.027658
537.40 2.148587
537.50 2.314673
537.60 2.427231
537.70 2.419384
537.80 2.409735
537.90 2.425235
538.00 2.508207
538.10 2.60332
538.20 2.606952
538.30 2.549554
538.40 2.53193
538.50 2.51315
538.60 2.501036
538.70 2.562204
538.80 2.583113
538.90 2.599817
539.00 2.627684
539.10 2.585029
539.20 2.555154
539.30 2.500912
539.40 2.452521
539.50 2.433966
539.60 2.406594
539.70 2.320062
539.80 2.246318
539.90 2.358688
540.00 2.579672
540.10 2.74249
540.20 2.784465
540.30 2.807567
540.40 2.779865
540.50 2.656829
540.60 2.480917
540.70 2.338896
540.80 2.377617
540.90 2.516195
541.00 2.471831
541.10 2.33311
541.20 2.326025
541.30 2.384044
541.40 2.449521
541.50 2.529735
541.60 2.676621
541.70 2.735861
541.80 2.667401
541.90 2.678964
542.00 2.751148
542.10 2.777357
542.20 2.750823
542.30 2.720939
542.40 2.687377
542.50 2.695679
542.60 2.669041
542.70 2.688108
542.80 2.811946
542.90 2.803859
543.00 2.605953
543.10 2.45954
543.20 2.432317
543.30 2.46175
543.40 2.518859
543.50 2.528353
543.60 2.557545
543.70 2.730349
543.80 2.847915
543.90 2.805298
544.00 2.828997
544.10 2.9651
544.20 3.090569
544.30 3.166253
544.40 3.191267
544.50 3.150031
544.60 2.998019
544.70 2.654299
544.80 2.226403
544.90 1.819766
545.00 1.523062
545.10 1.388188
545.20 1.286061
545.30 1.238474
545.40 1.287204
545.50 1.339331
545.60 1.339634
545.70 1.337968
545.80 1.375149
545.90 1.386951
546.00 1.380375
546.10 1.404667
546.20 1.434664
546.30 1.530857
546.40 1.588878
546.50 1.660467
546.60 1.697289
546.70 1.812419
546.80 1.92467
546.90 1.897826
547.00 1.769072
547.10 1.708378
547.20 1.703765
547.30 1.744662
547.40 1.77281
547.50 1.758122
547.60 1.745481
547.70 1.727019
547.80 1.736047
547.90 1.721781
548.00 1.710109
548.10 1.740536
548.20 1.825471
548.30 1.894044
548.40 1.921139
548.50 1.961357
548.60 2.002974
548.70 1.992747
548.80 1.933167
548.90 1.870007
549.00 1.866572
549.10 1.918826
549.20 1.986013
549.30 2.031419
549.40 2.012627
549.50 1.966953
549.60 1.897416
549.70 1.780538
549.80 1.634443
549.90 1.49747
550.00 1.398297
550.10 1.332031
550.20 1.27646
550.30 1.245672
550.40 1.284036
550.50 1.335674
550.60 1.292031
550.70 1.267065
550.80 1.27694
550.90 1.271378
551.00 1.288917
551.10 1.285252
551.20 1.259325
551.30 1.237637
551.40 1.180907
551.50 1.148962
551.60 1.146541
551.70 1.14424
551.80 1.110167
551.90 1.152586
552.00 1.148911
552.10 1.118493
552.20 1.1182
552.30 1.128251
552.40 1.151382
552.50 1.109186
552.60 1.061981
552.70 1.056703
552.80 1.136884
552.90 1.126681
553.00 1.10977
553.10 1.113153
553.20 1.110705
553.30 1.081567
553.40 1.031375
553.50 1.014692
553.60 0.9737584
553.70 0.9230613
553.80 0.9343601
553.90 0.9785509
554.00 0.9386679
554.10 0.8965415
554.20 0.9365815
554.30 0.9084045
554.40 0.9095252
554.50 0.9512983
554.60 0.9753919
554.70 0.9346849
554.80 0.9582337
554.90 0.9824616
555.00 0.989524
555.10 1.016935
555.20 1.059373
555.30 1.087556
555.40 1.072427
555.50 1.068905
555.60 1.109726
555.70 1.207291
555.80 1.279336
555.90 1.325235
556.00 1.342171
556.10 1.352662
556.20 1.392677
556.30 1.431648
556.40 1.44522
556.50 1.48722
556.60 1.552425
556.70 1.570746
556.80 1.566067
556.90 1.554204
557.00 1.636212
557.10 1.732587
557.20 1.742301
557.30 1.739049
557.40 1.73887
557.50 1.738869
557.60 1.738869
557.70 1.738869
557.80 1.738869
557.90 1.738869
558.00 1.738869
558.10 1.738864
558.20 1.738791
558.30 1.737707
558.40 1.729562
558.50 1.815217
558.60 1.986308
558.70 2.039622
558.80 2.058727
558.90 2.010012
559.00 1.945704
559.10 1.99313
559.20 2.01312
559.30 1.999485
559.40 2.001498
559.50 1.999754
559.60 1.931082
559.70 1.913687
559.80 1.824961
559.90 1.59562
560.00 1.455662
560.10 1.524317
560.20 1.59391
560.30 1.648948
560.40 1.683271
560.50 1.650244
560.60 1.586199
560.70 1.63441
560.80 1.687569
560.90 1.710598
561.00 1.667003
561.10 1.652316
561.20 1.709796
561.30 1.770678
561.40 1.825473
561.50 1.7971
561.60 1.726332
561.70 1.61502
561.80 1.582459
561.90 1.610274
562.00 1.594437
562.10 1.552818
562.20 1.558004
562.30 1.592194
562.40 1.610137
562.50 1.6352
562.60 1.675694
562.70 1.755078
562.80 1.821906
562.90 1.750062
563.00 1.561824
563.10 1.417702
563.20 1.403167
563.30 1.484136
563.40 1.626055
563.50 1.722344
563.60 1.695681
563.70 1.667705
563.80 1.658688
563.90 1.626743
564.00 1.629368
564.10 1.656893
564.20 1.640455
564.30 1.605737
564.40 1.592343
564.50 1.643601
564.60 1.698448
564.70 1.729899
564.80 1.738646
564.90 1.799522
565.00 1.877332
565.10 1.885506
565.20 1.872559
565.30 1.906615
565.40 1.964833
565.50 1.96316
565.60 1.982575
565.70 1.981117
565.80 1.982024
565.90 2.028302
566.00 2.110777
566.10 2.111819
566.20 2.009995
566.30 1.922356
566.40 1.809315
566.50 1.753729
566.60 1.755374
566.70 1.809295
566.80 1.788873
566.90 1.672001
567.00 1.636434
567.10 1.662159
567.20 1.669889
567.30 1.667187
567.40 1.70124
567.50 1.741958
567.60 1.772082
567.70 1.787585
567.80 1.841544
567.90 1.87826
568.00 1.897421
568.10 1.912812
568.20 1.912625
568.30 1.91079
568.40 1.922499
568.50 2.031628
568.60 2.120615
568.70 2.093625
568.80 2.008948
568.90 1.918869
569.00 1.888743
569.10 1.92134
569.20 1.975773
569.30 1.996885
569.40 2.01215
569.50 2.000131
569.60 2.021682
569.70 2.043687
569.80 2.118781
569.90 2.145899
570.00 2.110137
570.10 2.144471
570.20 2.235506
570.30 2.236373
570.40 2.160572
570.50 2.241953
570.60 2.311804
570.70 2.322197
570.80 2.309437
570.90 2.371577
571.00 2.387617
571.10 2.406951
571.20 2.437084
571.30 2.403103
571.40 2.337994
571.50 2.274028
571.60 2.278307
571.70 2.243352
571.80 2.145155
571.90 2.082835
572.00 2.077541
572.10 2.07486
572.20 2.131866
572.30 2.217531
572.40 2.219084
572.50 2.166458
572.60 2.199631
572.70 2.213838
572.80 2.196657
572.90 2.195641
573.00 2.235305
573.10 2.280919
573.20 2.369345
573.30 2.427776
573.40 2.403271
573.50 2.371063
573.60 2.367421
573.70 2.301055
573.80 2.263922
573.90 2.228985
574.00 2.253873
574.10 2.304517
574.20 2.348842
574.30 2.311507
574.40 2.283567
574.50 2.338315
574.60 2.443348
574.70 2.508211
574.80 2.505624
574.90 2.534529
575.00 2.581206
575.10 2.638413
575.20 2.614835
575.30 2.602819
575.40 2.658719
575.50 2.699317
575.60 2.699995
575.70 2.716937
575.80 2.742115
575.90 2.65233
576.00 2.423162
576.10 2.246696
576.20 2.144673
576.30 2.04358
576.40 1.90417
576.50 1.836672
576.60 1.862801
576.70 1.865046
576.80 1.899228
576.90 2.028442
577.00 2.148546
577.10 2.126139
577.20 2.087867
577.30 2.107938
577.40 2.187798
577.50 2.174361
577.60 2.153829
577.70 2.129908
577.80 2.166502
577.90 2.21037
578.00 2.192712
578.10 2.229434
578.20 2.291047
578.30 2.312384
578.40 2.360592
578.50 2.468257
578.60 2.489514
578.70 2.395337
578.80 2.355446
578.90 2.386741
579.00 2.397822
579.10 2.378763
579.20 2.412753
579.30 2.504792
579.40 2.608387
579.50 2.651995
579.60 2.69056
579.70 2.685884
579.80 2.678626
579.90 2.738173
580.00 2.783985
580.10 2.780657
580.20 2.797438
580.30 2.800322
580.40 2.832387
580.50 2.838269
580.60 2.839968
580.70 2.855023
580.80 2.868829
580.90 2.83332
581.00 2.752766
581.10 2.558896
581.20 2.320196
581.30 2.207113
581.40 2.158193
581.50 2.062321
581.60 2.004501
581.70 1.988417
581.80 1.969055
581.90 1.909144
582.00 1.935074
582.10 1.978654
582.20 1.961808
582.30 1.909004
582.40 1.918574
582.50 1.974331
582.60 2.031076
582.70 2.089844
582.80 2.078573
582.90 2.06961
583.00 2.103979
583.10 2.16097
583.20 2.193061
583.30 2.200158
583.40 2.222903
583.50 2.280246
583.60 2.350909
583.70 2.312239
583.80 2.222116
583.90 2.18073
584.00 2.102802
584.10 2.05231
584.20 2.018213
584.30 2.066743
584.40 2.135876
584.50 2.171701
584.60 2.193799
584.70 2.169764
584.80 2.043264
584.90 1.813205
585.00 1.625195
585.10 1.495776
585.20 1.465245
585.30 1.473884
585.40 1.505431
585.50 1.52367
585.60 1.528791
585.70 1.517952
585.80 1.514145
585.90 1.523774
586.00 1.521428
586.10 1.527808
586.20 1.593129
586.30 1.527634
586.40 1.377944
586.50 1.328344
586.60 1.39925
586.70 1.471509
586.80 1.44675
586.90 1.452913
587.00 1.480556
587.10 1.453283
587.20 1.349684
587.30 1.295235
587.40 1.23576
587.50 1.201961
587.60 1.235177
587.70 1.276366
587.80 1.251989
587.90 1.163639
588.00 1.109585
588.10 1.103245
588.20 1.118257
588.30 1.089426
588.40 1.047838
588.50 0.9887937
588.60 0.9222895
588.70 0.8829838
588.80 0.8283251
588.90 0.7321236
589.00 0.6821746
589.10 0.6930391
589.20 0.6961859
589.30 0.6639361
589.40 0.6661353
589.50 0.6414913
589.60 0.5966184
589.70 0.5729899
589.80 0.5992248
589.90 0.5650763
590.00 0.6928104
590.10 0.8532343
590.20 0.9350155
590.30 0.9233472
590.40 0.927741
590.50 0.9354437
590.60 0.9413986
590.70 0.9552273
590.80 0.9397486
590.90 0.9282187
591.00 0.9911942
591.10 1.054764
591.20 1.058953
591.30 1.051855
591.40 1.034884
591.50 1.06489
591.60 1.083018
591.70 1.14059
591.80 1.200198
591.90 1.212715
592.00 1.191827
592.10 1.215076
592.20 1.242135
592.30 1.185553
592.40 1.132156
592.50 1.13893
592.60 1.169521
592.70 1.133828
592.80 1.121522
592.90 1.158879
593.00 1.181982
593.10 1.176294
593.20 1.173674
593.30 1.224797
593.40 1.310374
593.50 1.348699
593.60 1.365005
593.70 1.367368
593.80 1.393502
593.90 1.444729
594.00 1.452454
594.10 1.468023
594.20 1.479663
594.30 1.454699
594.40 1.495074
594.50 1.570916
594.60 1.581764
594.70 1.547426
594.80 1.526236
594.90 1.492741
595.00 1.42054
595.10 1.386173
595.20 1.347409
595.30 1.337883
595.40 1.394154
595.50 1.417159
595.60 1.382203
595.70 1.301515
595.80 1.236281
595.90 1.21094
596.00 1.235689
596.10 1.275253
596.20 1.31597
596.30 1.357085
596.40 1.336233
596.50 1.303287
596.60 1.353297
596.70 1.411007
596.80 1.462515
596.90 1.471986
597.00 1.445765
597.10 1.463499
597.20 1.470582
597.30 1.447153
597.40 1.3911
597.50 1.351792
597.60 1.381531
597.70 1.425321
597.80 1.462148
597.90 1.442094
598.00 1.453275
598.10 1.482351
598.20 1.517305
598.30 1.563641
598.40 1.567635
598.50 1.543747
598.60 1.561598
598.70 1.566473
598.80 1.562907
598.90 1.564933
599.00 1.599224
599.10 1.613501
599.20 1.626727
599.30 1.6808
599.40 1.746495
599.50 1.774413
599.60 1.839812
599.70 1.855589
599.80 1.828433
599.90 1.755648
600.00 1.702848
600.10 1.678439
600.20 1.641123
600.30 1.622297
600.40 1.647358
600.50 1.678785
600.60 1.647906
600.70 1.64198
600.80 1.636565
600.90 1.60862
601.00 1.627065
601.10 1.705633
601.20 1.740834
601.30 1.73916
601.40 1.721798
601.50 1.717304
601.60 1.738191
601.70 1.776377
601.80 1.793794
601.90 1.814739
602.00 1.842223
602.10 1.853342
602.20 1.846263
602.30 1.858512
602.40 1.861962
602.50 1.855383
602.60 1.852826
602.70 1.889258
602.80 1.942823
602.90 1.949701
603.00 1.941076
603.10 1.955222
603.20 1.980403
603.30 1.976701
603.40 2.003142
603.50 2.009504
603.60 1.969068
603.70 1.858782
603.80 1.780693
603.90 1.793646
604.00 1.86903
604.10 1.949251
604.20 2.000125
604.30 2.076539
604.40 2.045132
604.50 2.018144
604.60 2.054423
604.70 2.127293
604.80 2.197611
604.90 2.21298
605.00 2.199832
605.10 2.242688
605.20 2.24673
605.30 2.206757
605.40 2.126229
605.50 2.119875
605.60 2.180531
605.70 2.222333
605.80 2.226829
605.90 2.255934
606.00 2.310445
606.10 2.296523
606.20 2.253637
606.30 2.232365
606.40 2.191816
606.50 2.107946
606.60 2.028799
606.70 2.02135
606.80 2.093104
606.90 2.234304
607.00 2.334137
607.10 2.362341
607.20 2.363568
607.30 2.328994
607.40 2.280765
607.50 2.255377
607.60 2.278508
607.70 2.333169
607.80 2.373365
607.90 2.33983
608.00 2.236721
608.10 2.108633
608.20 2.0509
608.30 2.059012
608.40 2.082992
608.50 2.114137
608.60 2.165751
608.70 2.221205
608.80 2.238355
608.90 2.2606
609.00 2.27804
609.10 2.251
609.20 2.24892
609.30 2.324607
609.40 2.380724
609.50 2.37139
609.60 2.382717
609.70 2.399349
609.80 2.412024
609.90 2.411197
610.00 2.418434
610.10 2.397307
610.20 2.321219
610.30 2.231873
610.40 2.173633
610.50 2.177211
610.60 2.200217
610.70 2.268208
610.80 2.360919
610.90 2.401833
611.00 2.356872
611.10 2.290197
611.20 2.244477
611.30 2.267678
611.40 2.322634
611.50 2.329674
611.60 2.307769
611.70 2.216621
611.80 2.112155
611.90 2.101123
612.00 2.139289
612.10 2.1637
612.20 2.119389
612.30 2.054578
612.40 2.053939
612.50 2.115712
612.60 2.205219
612.70 2.270191
612.80 2.245468
612.90 2.220851
613.00 2.300924
613.10 2.346348
613.20 2.29877
613.30 2.226338
613.40 2.156849
613.50 2.12777
613.60 2.151773
613.70 2.200812
613.80 2.213726
613.90 2.196396
614.00 2.239222
614.10 2.266633
614.20 2.238747
614.30 2.18789
614.40 2.197849
614.50 2.260232
614.60 2.300578
614.70 2.279491
614.80 2.171354
614.90 2.038835
615.00 1.905455
615.10 1.771537
615.20 1.722729
615.30 1.77513
615.40 1.84147
615.50 1.818405
615.60 1.76996
615.70 1.699124
615.80 1.637766
615.90 1.578149
616.00 1.444529
616.10 1.269969
616.20 1.138155
616.30 1.076006
616.40 1.068225
616.50 1.111235
616.60 1.160035
616.70 1.167032
616.80 1.145758
616.90 1.169843
617.00 1.211441
617.10 1.213058
617.20 1.194354
617.30 1.205613
617.40 1.216531
617.50 1.158105
617.60 1.127452
617.70 1.130342
617.80 1.149332
617.90 1.166376
618.00 1.213874
618.10 1.223324
618.20 1.222526
618.30 1.236646
618.40 1.19032
618.50 1.119657
618.60 1.09932
618.70 1.084954
618.80 1.055869
618.90 1.034951
619.00 1.016649
619.10 0.9939748
619.20 0.9981775
619.30 1.019822
619.40 1.03849
619.50 1.017998
619.60 1.011021
619.70 1.0172
619.80 0.9879372
619.90 1.013986
620.00 1.067669
620.10 1.091273
620.20 1.068883
620.30 1.090687
620.40 1.110417
620.50 1.124152
620.60 1.138022
620.70 1.155088
620.80 1.148387
620.90 1.151738
621.00 1.146722
621.10 1.127989
621.20 1.118827
621.30 1.070462
621.40 1.036578
621.50 1.045197
621.60 1.030772
621.70 0.9965968
621.80 0.9792821
621.90 0.9972704
622.00 1.018281
622.10 1.034084
622.20 1.038919
622.30 0.9981179
622.40 0.9371117
622.50 0.9041671
622.60 0.9207429
622.70 0.9478704
622.80 0.924125
622.90 0.9086192
623.00 0.931303
623.10 0.941839
623.20 0.9474258
623.30 0.9456167
623.40 0.9544937
623.50 0.9597926
623.60 0.9968158
623.70 1.043089
623.80 1.045936
623.90 0.9929305
624.00 0.9526644
624.10 0.9646757
624.20 0.9962676
624.30 1.026112
624.40 1.020985
624.50 0.9950628
624.60 1.007157
624.70 1.054079
624.80 1.068276
624.90 1.093519
625.00 1.113229
625.10 1.130988
625.20 1.122858
625.30 1.13283
625.40 1.158699
625.50 1.117024
625.60 1.113783
625.70 1.145917
625.80 1.172186
625.90 1.210538
626.00 1.24568
626.10 1.248081
626.20 1.241035
626.30 1.271196
626.40 1.349443
626.50 1.375358
626.60 1.372192
626.70 1.366048
626.80 1.347621
626.90 1.322525
627.00 1.313995
627.10 1.340084
627.20 1.363343
627.30 1.387551
627.40 1.441802
627.50 1.476693
627.60 1.432611
627.70 1.38176
627.80 1.327759
627.90 1.291634
628.00 1.307028
628.10 1.39149
628.20 1.461429
628.30 1.472221
628.40 1.493969
628.50 1.556205
628.60 1.597392
628.70 1.626729
628.80 1.641984
628.90 1.673359
629.00 1.69959
629.10 1.688996
629.20 1.650699
629.30 1.665203
629.40 1.701051
629.50 1.728824
629.60 1.744991
629.70 1.750205
629.80 1.783322
629.90 1.833991
630.00 1.862201
630.10 1.987175
630.20 2.006767
630.30 1.903065
630.40 1.901186
630.50 1.987792
630.60 2.10538
630.70 2.143903
630.80 2.185574
630.90 2.209944
631.00 2.226196
631.10 2.229918
631.20 2.266543
631.30 2.342856
631.40 2.413812
631.50 2.455856
631.60 2.476548
631.70 2.50239
631.80 2.546851
631.90 2.588673
632.00 2.592042
632.10 2.563872
632.20 2.502583
632.30 2.435523
632.40 2.401827
632.50 2.414344
632.60 2.477958
632.70 2.524285
632.80 2.569206
632.90 2.601417
633.00 2.614978
633.10 2.640889
633.20 2.64878
633.30 2.693535
633.40 2.720471
633.50 2.771487
633.60 2.814891
633.70 2.832068
633.80 2.853111
633.90 2.875216
634.00 2.897724
634.10 2.970055
634.20 3.079159
634.30 3.144672
634.40 3.142089
634.50 3.136322
634.60 3.16058
634.70 3.186169
634.80 3.219517
634.90 3.282414
635.00 3.3088
635.10 3.274589
635.20 3.187484
635.30 3.081134
635.40 2.986552
635.50 2.913731
635.60 2.869805
635.70 2.836126
635.80 2.792827
635.90 2.734797
636.00 2.705469
636.10 2.693884
636.20 2.685388
636.30 2.718
636.40 2.792952
636.50 2.85693
636.60 2.868037
636.70 2.766368
636.80 2.715784
636.90 2.758023
637.00 2.828059
637.10 2.88254
637.20 2.903835
637.30 2.921867
637.40 2.922613
637.50 2.89709
637.60 2.882146
637.70 2.892154
637.80 2.884741
637.90 2.86638
638.00 2.791519
638.10 2.64738
638.20 2.519541
638.30 2.468225
638.40 2.480788
638.50 2.543004
638.60 2.590312
638.70 2.579703
638.80 2.51868
638.90 2.491992
639.00 2.523074
639.10 2.598446
639.20 2.678956
639.30 2.742025
639.40 2.80739
639.50 2.908011
639.60 3.023895
639.70 3.138307
639.80 3.209342
639.90 3.227395
640.00 3.22297
640.10 3.208245
640.20 3.2384
640.30 3.310442
640.40 3.381747
640.50 3.44199
640.60 3.499167
640.70 3.541865
640.80 3.578365
640.90 3.595581
641.00 3.588164
641.10 3.596334
641.20 3.607558
641.30 3.580416
641.40 3.549799
641.50 3.516004
641.60 3.469642
641.70 3.431453
641.80 3.400781
641.90 3.349991
642.00 3.292537
642.10 3.264854
642.20 3.226688
642.30 3.164874
642.40 3.127796
642.50 3.175419
642.60 3.255356
642.70 3.294659
642.80 3.305107
642.90 3.316571
643.00 3.348389
643.10 3.407787
643.20 3.46853
643.30 3.479438
643.40 3.467793
643.50 3.480087
643.60 3.531491
643.70 3.551577
643.80 3.51584
643.90 3.467105
644.00 3.44103
644.10 3.490926
644.20 3.627465
644.30 3.767365
644.40 3.865674
644.50 3.919958
644.60 3.93753
644.70 3.887266
644.80 3.771388
644.90 3.670321
645.00 3.59718
645.10 3.536181
645.20 3.566923
645.30 3.694318
645.40 3.822998
645.50 3.872689
645.60 3.883904
645.70 3.897456
645.80 3.899844
645.90 3.915439
646.00 3.932192
646.10 3.932724
646.20 3.895856
646.30 3.847619
646.40 3.810401
646.50 3.853271
646.60 3.988967
646.70 4.143104
646.80 4.250165
646.90 4.300302
647.00 4.322175
647.10 4.357201
647.20 4.373004
647.30 4.399363
647.40 4.42182
647.50 4.431815
647.60 4.473422
647.70 4.510638
647.80 4.494518
647.90 4.408685
648.00 4.256824
648.10 4.07523
648.20 3.961766
648.30 3.930016
648.40 3.914879
648.50 3.851679
648.60 3.762036
648.70 3.747136
648.80 3.809973
648.90 3.909467
649.00 4.017709
649.10 4.134329
649.20 4.169329
649.30 4.087162
649.40 4.015437
649.50 3.998124
649.60 4.024769
649.70 4.089614
649.80 4.180994
649.90 4.280333
650.00 4.33073
650.10 4.385185
650.20 4.444061
650.30 4.528053
650.40 4.628566
650.50 4.709063
650.60 4.765963
650.70 4.834377
650.80 4.895548
650.90 4.890862
651.00 4.914387
651.10 5.000019
651.20 5.022761
651.30 4.953692
651.40 4.842093
651.50 4.762814
651.60 4.747085
651.70 4.786697
651.80 4.896627
651.90 4.992577
652.00 5.074134
652.10 5.157755
652.20 5.266441
652.30 5.366554
652.40 5.413868
652.50 5.408902
652.60 5.387426
652.70 5.417465
652.80 5.503815
652.90 5.607804
653.00 5.670742
653.10 5.684313
653.20 5.720896
653.30 5.773296
653.40 5.806194
653.50 5.875772
653.60 5.958234
653.70 6.027277
653.80 6.105675
653.90 6.205719
654.00 6.317562
654.10 6.383244
654.20 6.368352
654.30 6.26012
654.40 6.095948
654.50 5.888342
654.60 5.68454
654.70 5.56185
654.80 5.506507
654.90 5.421026
655.00 5.27159
655.10 5.099602
655.20 4.95431
655.30 4.873615
655.40 4.873849
655.50 4.923793
655.60 4.962041
655.70 5.016654
655.80 5.100155
655.90 5.208725
656.00 5.353043
656.10 5.677006
656.20 6.49403
656.30 7.634987
656.40 8.466653
656.50 8.313017
656.60 7.180026
656.70 5.757259
656.80 4.807484
656.90 4.484378
657.00 4.440086
657.10 4.419646
657.20 4.311952
657.30 4.16656
657.40 4.121248
657.50 4.160581
657.60 4.267523
657.70 4.387791
657.80 4.42993
657.90 4.357541
658.00 4.179132
658.10 4.032568
658.20 4.014064
658.30 4.106299
658.40 4.253486
658.50 4.369211
658.60 4.462809
658.70 4.571662
658.80 4.684228
658.90 4.787218
659.00 4.82144
659.10 4.775893
659.20 4.724946
659.30 4.622525
659.40 4.457567
659.50 4.27771
659.60 4.150927
659.70 4.116177
659.80 4.155926
659.90 4.211595
660.00 4.249245
660.10 4.223288
660.20 4.173181
660.30 4.19732
660.40 4.257314
660.50 4.296905
660.60 4.267918
660.70 4.215607
660.80 4.199672
660.90 4.224925
661.00 4.228809
661.10 4.231299
661.20 4.281823
661.30 4.369186
661.40 4.448609
661.50 4.442967
661.60 4.39892
661.70 4.333356
661.80 4.234758
661.90 4.097482
662.00 3.987011
662.10 3.947993
662.20 3.91302
662.30 3.871897
662.40 3.826619
662.50 3.758309
662.60 3.62683
662.70 3.471185
662.80 3.360644
662.90 3.371737
663.00 3.484802
663.10 3.645806
663.20 3.782668
663.30 3.876263
663.40 3.912653
663.50 3.828848
663.60 3.638032
663.70 3.402257
663.80 3.2269
663.90 3.194077
664.00 3.259343
664.10 3.346025
664.20 3.437268
664.30 3.531693
664.40 3.622541
664.50 3.671029
664.60 3.680603
664.70 3.687085
664.80 3.674154
664.90 3.585621
665.00 3.4015
665.10 3.148517
665.20 2.9029
665.30 2.715967
665.40 2.627893
665.50 2.657434
665.60 2.742502
665.70 2.789335
665.80 2.792904
665.90 2.80342
666.00 2.816674
666.10 2.84894
666.20 2.888711
666.30 2.944208
666.40 3.024248
666.50 3.076241
666.60 3.132703
666.70 3.207866
666.80 3.27984
666.90 3.31998
667.00 3.33889
667.10 3.354983
667.20 3.376482
667.30 3.392744
667.40 3.368613
667.50 3.326866
667.60 3.298782
667.70 3.301775
667.80 3.324878
667.90 3.30851
668.00 3.219771
668.10 3.027189
668.20 2.749155
668.30 2.505754
668.40 2.398757
668.50 2.417839
668.60 2.485854
668.70 2.558978
668.80 2.609922
668.90 2.655145
669.00 2.675984
669.10 2.688914
669.20 2.673759
669.30 2.632513
669.40 2.624381
669.50 2.641243
669.60 2.670522
669.70 2.725536
669.80 2.788177
669.90 2.837363
670.00 2.861002
670.10 2.871079
670.20 2.88653
670.30 2.934547
670.40 2.997489
670.50 3.031224
670.60 3.051471
670.70 3.077388
670.80 3.110358
670.90 3.139607
671.00 3.148827
671.10 3.137996
671.20 3.1013
671.30 3.065837
671.40 3.000662
671.50 2.852277
671.60 2.65223
671.70 2.45708
671.80 2.320564
671.90 2.219021
672.00 2.155118
672.10 2.149128
672.20 2.199237
672.30 2.252702
672.40 2.293854
672.50 2.333641
672.60 2.394466
672.70 2.469999
672.80 2.512674
672.90 2.536379
673.00 2.545242
673.10 2.556337
673.20 2.568816
673.30 2.566236
673.40 2.57017
673.50 2.586399
673.60 2.590524
673.70 2.615121
673.80 2.664239
673.90 2.729232
674.00 2.783614
674.10 2.801119
674.20 2.819129
674.30 2.848516
674.40 2.896779
674.50 2.940265
674.60 2.956061
674.70 2.886351
674.80 2.724982
674.90 2.547207
675.00 2.433931
675.10 2.409176
675.20 2.429653
675.30 2.474291
675.40 2.516696
675.50 2.56442
675.60 2.605202
675.70 2.622565
675.80 2.665516
675.90 2.699245
676.00 2.684341
676.10 2.675755
676.20 2.708459
676.30 2.776508
676.40 2.8497
676.50 2.899058
676.60 2.959528
676.70 3.031065
676.80 3.067414
676.90 3.080637
677.00 3.080335
677.10 3.07336
677.20 3.078467
677.30 3.096954
677.40 3.1344
677.50 3.167576
677.60 3.212605
677.70 3.262355
677.80 3.285266
677.90 3.267728
678.00 3.232949
678.10 3.151086
678.20 2.987486
678.30 2.797413
678.40 2.615694
678.50 2.48196
678.60 2.416309
678.70 2.421605
678.80 2.473035
678.90 2.529563
679.00 2.572223
679.10 2.601191
679.20 2.628082
679.30 2.648853
679.40 2.652458
679.50 2.671013
679.60 2.730728
679.70 2.787036
679.80 2.812968
679.90 2.807189
680.00 2.800501
680.10 2.825231
680.20 2.897085
680.30 2.961858
680.40 2.994395
680.50 2.985052
680.60 2.929558
680.70 2.871672
680.80 2.864499
680.90 2.928141
681.00 2.98247
681.10 3.000153
681.20 3.038096
681.30 3.09273
681.40 3.128275
681.50 3.111433
681.60 3.028523
681.70 2.914278
681.80 2.847184
681.90 2.856256
682.00 2.883418
682.10 2.917346
682.20 2.945792
682.30 2.946478
682.40 2.920451
682.50 2.916568
682.60 2.962901
682.70 3.023806
682.80 3.063903
682.90 3.117114
683.00 3.210234
683.10 3.255417
683.20 3.233706
683.30 3.158733
683.40 3.115272
683.50 3.153552
683.60 3.184477
683.70 3.166715
683.80 3.102989
683.90 3.053641
684.00 3.080882
684.10 3.179562
684.20 3.240029
684.30 3.261196
684.40 3.290453
684.50 3.315878
684.60 3.302119
684.70 3.244052
684.80 3.211238
684.90 3.19453
685.00 3.163761
685.10 3.089067
685.20 2.969151
685.30 2.87756
685.40 2.846555
685.50 2.866318
685.60 2.916957
685.70 2.952444
685.80 2.967938
685.90 2.974674
686.00 2.955394
686.10 2.938682
686.20 2.933194
686.30 2.938992
686.40 3.001617
686.50 3.111517
686.60 3.184042
686.70 3.17961
686.80 3.098728
686.90 3.019872
687.00 3.008623
687.10 3.021654
687.20 3.06754
687.30 3.14035
687.40 3.227648
687.50 3.333051
687.60 3.421308
687.70 3.474571
687.80 3.497084
687.90 3.513727
688.00 3.523156
688.10 3.500711
688.20 3.456533
688.30 3.413988
688.40 3.375141
688.50 3.308737
688.60 3.225503
688.70 3.161812
688.80 3.203183
688.90 3.341433
689.00 3.455312
689.10 3.484334
689.20 3.440032
689.30 3.408187
689.40 3.440612
689.50 3.520578
689.60 3.597765
689.70 3.624701
689.80 3.602766
689.90 3.582437
690.00 3.55292
690.10 3.435467
690.20 3.267836
690.30 3.211544
690.40 3.304828
690.50 3.460219
690.60 3.621579
690.70 3.771397
690.80 3.895709
690.90 4.006283
691.00 4.058096
691.10 4.017748
691.20 3.969156
691.30 3.989938
691.40 4.100803
691.50 4.162173
691.60 4.14129
691.70 4.066462
691.80 3.878533
691.90 3.618519
692.00 3.393453
692.10 3.335535
692.20 3.472554
692.30 3.739258
692.40 4.010579
692.50 4.210242
692.60 4.301278
692.70 4.298598
692.80 4.265813
692.90 4.24741
693.00 4.294137
693.10 4.404549
693.20 4.541799
693.30 4.638047
693.40 4.693111
693.50 4.707843
693.60 4.682845
693.70 4.681823
693.80 4.726692
693.90 4.757392
694.00 4.774893
694.10 4.800704
694.20 4.872235
694.30 5.033107
694.40 5.232116
694.50 5.384666
694.60 5.486039
694.70 5.582094
694.80 5.677598
694.90 5.765173
695.00 5.801554
695.10 5.791258
695.20 5.707115
695.30 5.543559
695.40 5.368833
695.50 5.249467
695.60 5.233638
695.70 5.265497
695.80 5.306101
695.90 5.310346
696.00 5.284669
696.10 5.267055
696.20 5.277221
696.30 5.344072
696.40 5.435106
696.50 5.532582
696.60 5.622945
696.70 5.675687
696.80 5.696504
696.90 5.715596
697.00 5.720723
697.10 5.680148
697.20 5.613501
697.30 5.557522
697.40 5.569724
697.50 5.644504
697.60 5.768885
697.70 5.921469
697.80 6.047871
697.90 6.119883
698.00 6.150098
698.10 6.131012
698.20 6.103953
698.30 6.135631
698.40 6.216711
698.50 6.303264
698.60 6.334062
698.70 6.321451
698.80 6.308879
698.90 6.267344
699.00 6.200912
699.10 6.096105
699.20 5.987147
699.30 5.957539
699.40 5.99571
699.50 6.052951
699.60 6.123542
699.70 6.195573
699.80 6.252425
699.90 6.259586
700.00 6.214611
700.10 6.21251
700.20 6.285492
700.30 6.399922
700.40 6.440716
700.50 6.355471
700.60 6.244641
700.70 6.244185
700.80 6.380206
700.90 6.567313
701.00 6.668274
701.10 6.666569
701.20 6.672451
701.30 6.79639
701.40 7.002322
701.50 7.130191
701.60 7.140042
701.70 7.072282
701.80 7.011042
701.90 7.033175
702.00 7.139937
702.10 7.305602
702.20 7.436419
702.30 7.402296
702.40 7.176591
702.50 6.890033
702.60 6.745441
702.70 6.844035
702.80 7.144187
702.90 7.57268
703.00 7.976498
703.10 8.189405
703.20 8.193076
703.30 8.102793
703.40 8.060945
703.50 8.201165
703.60 8.498955
703.70 8.809109
703.80 8.954838
703.90 8.937365
704.00 8.910715
704.10 8.992547
704.20 9.189581
704.30 9.395604
704.40 9.503567
704.50 9.541634
704.60 9.577707
704.70 9.625202
704.80 9.672211
704.90 9.69049
705.00 9.675628
705.10 9.641711
705.20 9.595001
705.30 9.383691
705.40 8.684187
705.50 7.425852
705.60 5.920051
705.70 4.736201
705.80 4.243677
705.90 4.251236
706.00 4.333845
706.10 4.230235
706.20 4.015771
706.30 3.880689
706.40 3.942581
706.50 4.136499
706.60 4.330615
706.70 4.464086
706.80 4.54399
706.90 4.628741
707.00 4.726924
707.10 4.824936
707.20 4.946421
707.30 5.07489
707.40 5.176264
707.50 5.210157
707.60 5.174343
707.70 5.154108
707.80 5.189844
707.90 5.251519
708.00 5.31
708.10 5.379381
708.20 5.466782
708.30 5.529504
708.40 5.582523
708.50 5.632386
708.60 5.612346
708.70 5.400758
708.80 4.869552
708.90 4.105464
709.00 3.406836
709.10 3.026548
709.20 3.005748
709.30 3.139481
709.40 3.228877
709.50 3.203278
709.60 3.132061
709.70 3.117016
709.80 3.194951
709.90 3.32476
710.00 3.427825
710.10 3.483898
710.20 3.497903
710.30 3.477685
710.40 3.459899
710.50 3.486359
710.60 3.576249
710.70 3.713208
710.80 3.889018
710.90 4.086767
711.00 4.266745
711.10 4.419054
711.20 4.528952
711.30 4.581673
711.40 4.576943
711.50 4.526532
711.60 4.469085
711.70 4.435047
711.80 4.46492
711.90 4.594261
712.00 4.780567
712.10 4.947827
712.20 5.073068
712.30 5.12235
712.40 5.027228
712.50 4.690425
712.60 4.05573
712.70 3.286136
712.80 2.668169
712.90 2.402312
713.00 2.452957
713.10 2.587854
713.20 2.619428
713.30 2.542129
713.40 2.479177
713.50 2.501837
713.60 2.585257
713.70 2.661078
713.80 2.69478
713.90 2.684526
714.00 2.673103
714.10 2.710841
714.20 2.818489
714.30 2.969983
714.40 3.089773
714.50 3.133473
714.60 3.123937
714.70 3.117798
714.80 3.143681
714.90 3.19564
715.00 3.242434
715.10 3.269965
715.20 3.302445
715.30 3.35449
715.40 3.438462
715.50 3.573175
715.60 3.716278
715.70 3.8149
715.80 3.79157
715.90 3.638569
716.00 3.448223
716.10 3.304143
716.20 3.270107
716.30 3.305845
716.40 3.349971
716.50 3.378212
716.60 3.39093
716.70 3.418115
716.80 3.452483
716.90 3.482523
717.00 3.53691
717.10 3.624863
717.20 3.739214
717.30 3.844503
717.40 3.890927
717.50 3.882846
717.60 3.855617
717.70 3.83682
717.80 3.852777
717.90 3.908442
718.00 3.997905
718.10 4.097097
718.20 4.168635
718.30 4.226374
718.40 4.304719
718.50 4.415422
718.60 4.533802
718.70 4.610753
718.80 4.636857
718.90 4.666675
719.00 4.722399
719.10 4.76204
719.20 4.770035
719.30 4.76544
719.40 4.773594
719.50 4.795926
719.60 4.769987
719.70 4.621188
719.80 4.359054
719.90 4.096878
720.00 3.95654
720.10 3.936651
720.20 3.970812
720.30 3.992164
720.40 3.977876
720.50 3.970204
720.60 3.989776
720.70 4.00142
720.80 4.041054
720.90 4.131931
721.00 4.208329
721.10 4.247814
721.20 4.284414
721.30 4.371213
721.40 4.474915
721.50 4.527895
721.60 4.545446
721.70 4.590574
721.80 4.692644
721.90 4.77833
722.00 4.813801
722.10 4.833289
722.20 4.870684
722.30 4.942279
722.40 5.033455
722.50 5.156455
722.60 5.2816
722.70 5.383059
722.80 5.47094
722.90 5.512833
723.00 5.478389
723.10 5.355419
723.20 5.200421
723.30 5.128502
723.40 5.190861
723.50 5.349381
723.60 5.522583
723.70 5.654355
723.80 5.72383
723.90 5.753779
724.00 5.758504
724.10 5.774686
724.20 5.802808
724.30 5.777557
724.40 5.848429
724.50 5.995415
724.60 6.139021
724.70 6.269929
724.80 6.300631
724.90 6.374566
725.00 6.540252
725.10 6.652924
725.20 6.662674
725.30 6.610952
725.40 6.578123
725.50 6.660565
725.60 6.812386
725.70 6.920751
725.80 6.952975
725.90 6.925512
726.00 6.910115
726.10 6.964339
726.20 7.076867
726.30 7.225441
726.40 7.397883
726.50 7.533449
726.60 7.578494
726.70 7.559283
726.80 7.572074
726.90 7.640033
727.00 7.611915
727.10 7.373409
727.20 7.031008
727.30 6.844821
727.40 6.945533
727.50 7.230082
727.60 7.518787
727.70 7.68358
727.80 7.644222
727.90 7.485179
728.00 7.319255
728.10 7.284763
728.20 7.43301
728.30 7.563421
728.40 7.65513
728.50 7.794209
728.60 7.959602
728.70 8.113125
728.80 8.167603
728.90 8.162231
729.00 8.243298
729.10 8.343463
729.20 8.390843
729.30 8.405016
729.40 8.40945
729.50 8.462646
729.60 8.580989
729.70 8.739693
729.80 8.859941
729.90 8.886587
730.00 8.848393
730.10 8.835379
730.20 8.949695
730.30 9.13137
730.40 9.257165
730.50 9.291692
730.60 9.27974
730.70 9.318797
730.80 9.43576
730.90 9.571515
731.00 9.645835
731.10 9.624418
731.20 9.599087
731.30 9.669749
731.40 9.820388
731.50 9.962665
731.60 10.1134
731.70 10.22866
731.80 10.24834
731.90 10.21735
732.00 10.15343
732.10 10.16793
732.20 10.28641
732.30 10.40988
732.40 10.46126
732.50 10.40184
732.60 10.23104
732.70 10.01216
732.80 9.915937
732.90 10.10228
733.00 10.46015
733.10 10.75206
733.20 10.83972
733.30 10.75986
733.40 10.73404
733.50 10.83585
733.60 10.99591
733.70 11.17588
733.80 11.32398
733.90 11.4318
734.00 11.54314
734.10 11.64788
734.20 11.73008
734.30 11.66424
734.40 11.31951
734.50 10.92496
734.60 10.73442
734.70 10.7656
734.80 10.96113
734.90 11.16659
735.00 11.32863
735.10 11.45281
735.20 11.52631
735.30 11.58933
735.40 11.62527
735.50 11.56729
735.60 11.40844
735.70 11.22686
735.80 11.15644
735.90 11.27977
736.00 11.49973
736.10 11.67305
736.20 11.73622
736.30 11.72283
736.40 11.77513
736.50 11.90474
736.60 12.02587
736.70 12.11628
736.80 12.19744
736.90 12.30439
737.00 12.48315
737.10 12.64169
737.20 12.63155
737.30 12.49103
737.40 12.35836
737.50 12.30051
737.60 12.28198
737.70 12.2945
737.80 12.37244
737.90 12.50905
738.00 12.63514
738.10 12.68604
738.20 12.67011
738.30 12.63043
738.40 12.61716
738.50 12.6676
738.60 12.75872
738.70 12.85124
738.80 12.93602
738.90 13.02571
739.00 13.116
739.10 13.1753
739.20 13.15314
739.30 13.00833
739.40 12.79249
739.50 12.61339
739.60 12.54334
739.70 12.61795
739.80 12.77808
739.90 12.89592
740.00 12.91451
740.10 12.90937
740.20 12.97925
740.30 13.12169
740.40 13.20302
740.50 13.08865
740.60 12.84174
740.70 12.61387
740.80 12.5451
740.90 12.66835
741.00 12.86245
741.10 13.05567
741.20 13.1768
741.30 13.21346
741.40 13.25107
741.50 13.30773
741.60 13.33876
741.70 13.25277
741.80 13.03592
741.90 12.81147
742.00 12.72659
742.10 12.79901
742.20 12.92627
742.30 13.03446
742.40 13.10163
742.50 13.17234
742.60 13.2551
742.70 13.32232
742.80 13.38378
742.90 13.4562
743.00 13.55435
743.10 13.63833
743.20 13.65599
743.30 13.60908
743.40 13.49185
743.50 13.3187
743.60 13.10469
743.70 12.9697
743.80 13.08876
743.90 13.38905
744.00 13.68829
744.10 13.80351
744.20 13.64174
744.30 13.35404
744.40 13.1988
744.50 13.20822
744.60 13.24956
744.70 13.24986
744.80 13.17021
744.90 13.07331
745.00 13.05431
745.10 13.14582
745.20 13.32371
745.30 13.47565
745.40 13.53369
745.50 13.48736
745.60 13.37654
745.70 13.3224
745.80 13.35622
745.90 13.42068
746.00 13.46848
746.10 13.46293
746.20 13.44837
746.30 13.47479
746.40 13.5077
746.50 13.54656
746.60 13.61561
746.70 13.67233
746.80 13.68644
746.90 13.70021
747.00 13.79104
747.10 14.00228
747.20 14.16603
747.30 14.07947
747.40 13.79796
747.50 13.56099
747.60 13.51387
747.70 13.66393
747.80 13.88185
747.90 13.99388
748.00 13.97159
748.10 13.86171
748.20 13.74628
748.30 13.76823
748.40 13.95611
748.50 14.13674
748.60 14.16574
748.70 14.02433
748.80 13.82249
748.90 13.72675
749.00 13.76689
749.10 13.87148
749.20 13.96799
749.30 13.98594
749.40 13.892
749.50 13.72057
749.60 13.58505
749.70 13.60438
749.80 13.82636
749.90 14.18815
750.00 14.52923
750.10 14.70145
750.20 14.70457
750.30 14.65037
750.40 14.63211
750.50 14.64062
750.60 14.57488
750.70 14.38447
750.80 14.20751
750.90 14.25058
751.00 14.55337
751.10 14.90711
751.20 15.03306
751.30 14.89456
751.40 14.6861
751.50 14.63458
751.60 14.77404
751.70 14.94771
751.80 15.02394
751.90 14.94982
752.00 14.76517
752.10 14.57624
752.20 14.52543
752.30 14.67197
752.40 14.9107
752.50 15.04957
752.60 14.90326
752.70 14.49616
752.80 14.09199
752.90 13.94146
753.00 14.09525
753.10 14.43925
753.20 14.8153
753.30 15.08893
753.40 15.1443
753.50 14.98042
753.60 14.78901
753.70 14.785
753.80 15.01801
753.90 15.37305
754.00 15.68644
754.10 15.85816
754.20 15.88409
754.30 15.7993
754.40 15.74084
754.50 15.77307
754.60 15.82386
754.70 15.83349
754.80 15.74744
754.90 15.63536
755.00 15.62863
755.10 15.72419
755.20 15.82386
755.30 15.85282
755.40 15.80056
755.50 15.71023
755.60 15.66089
755.70 15.67439
755.80 15.73261
755.90 15.83177
756.00 15.93267
756.10 15.99249
756.20 15.9666
756.30 15.85597
756.40 15.73401
756.50 15.62104
756.60 15.45728
756.70 15.23489
756.80 15.01756
756.90 14.8705
757.00 14.89018
757.10 15.16729
757.20 15.64127
757.30 16.1157
757.40 16.41315
757.50 16.43677
757.60 16.25879
757.70 16.05954
757.80 15.87615
757.90 15.71956
758.00 15.72453
758.10 15.9658
758.20 16.34961
758.30 16.67429
758.40 16.81127
758.50 16.79875
758.60 16.71401
758.70 16.49987
758.80 15.91728
758.90 14.80767
759.00 13.26945
759.10 11.73266
759.20 10.71585
759.30 10.43153
759.40 10.7653
759.50 11.26131
759.60 11.54129
759.70 11.58545
759.80 11.59814
759.90 11.80332
760.00 12.16153
760.10 12.30642
760.20 12.01461
760.30 11.61754
760.40 11.5747
760.50 11.80053
760.60 11.97391
760.70 12.02736
760.80 11.98944
760.90 11.91642
761.00 11.86369
761.10 11.87852
761.20 12.13402
761.30 12.67357
761.40 13.19787
761.50 13.43568
761.60 13.36502
761.70 13.24042
761.80 13.3998
761.90 13.78922
762.00 14.1191
762.10 14.16383
762.20 13.96036
762.30 13.7437
762.40 13.65404
762.50 13.69566
762.60 13.58773
762.70 13.06529
762.80 12.17152
762.90 11.09167
763.00 10.16368
763.10 9.577544
763.20 9.340166
763.30 9.454323
763.40 9.777201
763.50 10.01035
763.60 10.02117
763.70 9.956886
763.80 9.955236
763.90 10.08071
764.00 10.14344
764.10 9.9776
764.20 9.894773
764.30 10.08437
764.40 10.27689
764.50 10.28582
764.60 10.11575
764.70 9.989677
764.80 10.17537
764.90 10.38468
765.00 10.27256
765.10 10.0016
765.20 9.806974
765.30 9.8108
765.40 9.86685
765.50 9.677182
765.60 9.396877
765.70 9.294274
765.80 9.363369
765.90 9.421038
766.00 9.095087
766.10 8.338431
766.20 7.426614
766.30 6.497733
766.40 5.551925
766.50 4.551142
766.60 3.658137
766.70 3.251422
766.80 3.506806
766.90 4.255903
767.00 5.113548
767.10 5.720099
767.20 6.003704
767.30 6.073
767.40 6.120786
767.50 6.273707
767.60 6.513129
767.70 6.778641
767.80 7.011329
767.90 7.183915
768.00 7.312715
768.10 7.439107
768.20 7.589244
768.30 7.728443
768.40 7.814848
768.50 7.844819
768.60 7.845908
768.70 7.87542
768.80 7.949604
768.90 8.032415
769.00 8.090097
769.10 8.095514
769.20 8.060698
769.30 8.009981
769.40 7.907459
769.50 7.676764
769.60 7.288176
769.70 6.689022
769.80 5.83969
769.90 4.863341
770.00 4.064539
770.10 3.786276
770.20 4.17035
770.30 5.022344
770.40 5.924638
770.50 6.585539
770.60 6.915274
770.70 7.012028
770.80 7.079944
770.90 7.232874
771.00 7.487858
771.10 7.79461
771.20 8.099253
771.30 8.339555
771.40 8.444699
771.50 8.418733
771.60 8.341967
771.70 8.309259
771.80 8.396283
771.90 8.517319
772.00 8.554906
772.10 8.609338
772.20 8.73874
772.30 8.886653
772.40 9.008829
772.50 9.119105
772.60 9.271835
772.70 9.463706
772.80 9.663891
772.90 9.822677
773.00 9.916014
773.10 9.960773
773.20 9.981218
773.30 10.02244
773.40 10.10845
773.50 10.21303
773.60 10.28754
773.70 10.3335
773.80 10.39085
773.90 10.48765
774.00 10.62946
774.10 10.72581
774.20 10.67749
774.30 10.45655
774.40 10.07574
774.50 9.65066
774.60 9.316845
774.70 9.122669
774.80 9.000946
774.90 8.832534
775.00 8.55077
775.10 8.230551
775.20 8.021706
775.30 7.984538
775.40 8.078007
775.50 8.210709
775.60 8.364028
775.70 8.496408
775.80 8.525962
775.90 8.503269
776.00 8.536361
776.10 8.663501
776.20 8.796211
776.30 8.803298
776.40 8.692829
776.50 8.570959
776.60 8.554513
776.70 8.713621
776.80 8.973942
776.90 9.215413
777.00 9.366061
777.10 9.408044
777.20 9.416773
777.30 9.475597
777.40 9.569711
777.50 9.662153
777.60 9.734429
777.70 9.761454
777.80 9.76929
777.90 9.789812
778.00 9.80258
778.10 9.762678
778.20 9.622542
778.30 9.375192
778.40 9.072468
778.50 8.779936
778.60 8.605313
778.70 8.595424
778.80 8.682509
778.90 8.81915
779.00 8.960041
779.10 9.106205
779.20 9.306281
779.30 9.509839
779.40 9.656801
779.50 9.765776
779.60 9.821697
779.70 9.807363
779.80 9.717296
779.90 9.527673
780.00 9.311175
780.10 9.121979
780.20 9.047258
780.30 9.261667
780.40 9.731344
780.50 10.25049
780.60 10.66498
780.70 10.92101
780.80 11.06704
780.90 11.14042
781.00 11.09102
781.10 10.9644
781.20 10.87856
781.30 10.89351
781.40 11.02251
781.50 11.22486
781.60 11.42541
781.70 11.54801
781.80 11.58445
781.90 11.55949
782.00 11.4554
782.10 11.24472
782.20 10.92785
782.30 10.6031
782.40 10.42612
782.50 10.38042
782.60 10.3933
782.70 10.40133
782.80 10.28978
782.90 10.00234
783.00 9.586673
783.10 9.25111
783.20 9.172129
783.30 9.320978
783.40 9.565386
783.50 9.791731
783.60 9.972578
783.70 10.0916
783.80 10.14265
783.90 10.16262
784.00 10.19933
784.10 10.26067
784.20 10.29243
784.30 10.29222
784.40 10.33979
784.50 10.47286
784.60 10.656
784.70 10.81242
784.80 10.89478
784.90 10.9
785.00 10.84939
785.10 10.8224
785.20 10.83023
785.30 10.87034
785.40 11.00359
785.50 11.10642
785.60 11.08008
785.70 11.04685
785.80 11.06607
785.90 11.15381
786.00 11.24427
786.10 11.22138
786.20 11.06643
786.30 10.82823
786.40 10.64911
786.50 10.58445
786.60 10.63693
786.70 10.80117
786.80 10.937
786.90 11.01562
787.00 11.091
787.10 11.1074
787.20 11.03865
787.30 10.92214
787.40 10.8429
787.50 10.87681
787.60 11.04762
787.70 11.32138
787.80 11.56629
787.90 11.72465
788.00 11.82031
788.10 11.86766
788.20 11.9493
788.30 12.08267
788.40 12.19562
788.50 12.24719
788.60 12.21227
788.70 12.14747
788.80 12.16964
788.90 12.30606
789.00 12.50483
789.10 12.63321
789.20 12.61178
789.30 12.54409
789.40 12.52961
789.50 12.56432
789.60 12.6007
789.70 12.5735
789.80 12.44962
789.90 12.27075
790.00 12.074
790.10 11.89816
790.20 11.81414
790.30 11.86581
790.40 12.05147
790.50 12.28013
790.60 12.42494
790.70 12.36138
790.80 12.06164
790.90 11.64985
791.00 11.27344
791.10 11.06585
791.20 11.00623
791.30 11.03539
791.40 11.1968
791.50 11.40891
791.60 11.57944
791.70 11.66264
791.80 11.60604
791.90 11.49376
792.00 11.43701
792.10 11.48829
792.20 11.59346
792.30 11.69064
792.40 11.78359
792.50 11.82969
792.60 11.82816
792.70 11.83888
792.80 11.87794
792.90 11.96391
793.00 12.11132
793.10 12.31979
793.20 12.59401
793.30 12.87639
793.40 13.04039
793.50 13.07562
793.60 13.06732
793.70 13.03685
793.80 12.98444
793.90 12.89073
794.00 12.73032
794.10 12.5156
794.20 12.30147
794.30 12.19999
794.40 12.28956
794.50 12.48568
794.60 12.57491
794.70 12.38189
794.80 11.97054
794.90 11.61847
795.00 11.55846
795.10 11.87133
795.20 12.37191
795.30 12.82344
795.40 13.16681
795.50 13.36004
795.60 13.4387
795.70 13.49566
795.80 13.52211
795.90 13.50997
796.00 13.44153
796.10 13.26028
796.20 13.05422
796.30 12.97092
796.40 13.07263
796.50 13.37166
796.60 13.66685
796.70 13.71918
796.80 13.64141
796.90 13.65551
797.00 13.81096
797.10 14.01263
797.20 14.12329
797.30 14.1347
797.40 14.13005
797.50 14.11513
797.60 14.04307
797.70 13.93715
797.80 13.86541
797.90 13.85489
798.00 13.88767
798.10 13.89384
798.20 13.79899
798.30 13.64132
798.40 13.53443
798.50 13.52839
798.60 13.55651
798.70 13.51171
798.80 13.36909
798.90 13.22954
799.00 13.20707
799.10 13.36015
799.20 13.67723
799.30 14.00437
799.40 14.17837
799.50 14.14014
799.60 13.91569
799.70 13.69242
799.80 13.61775
799.90 13.64744
800.00 13.73796
800.10 13.88715
800.20 14.04383
800.30 14.16518
800.40 14.25252
800.50 14.29723
800.60 14.31812
800.70 14.3595
800.80 14.43177
800.90 14.51623
801.00 14.59977
801.10 14.67479
801.20 14.75905
801.30 14.8645
801.40 14.98275
801.50 15.10249
801.60 15.17281
801.70 15.19406
801.80 15.20514
801.90 15.22182
802.00 15.28311
802.10 15.32855
802.20 15.25722
802.30 15.1288
802.40 15.06504
802.50 15.14299
802.60 15.33798
802.70 15.49994
802.80 15.55681
802.90 15.5781
803.00 15.64084
803.10 15.76442
803.20 15.90193
803.30 16.00762
803.40 16.04913
803.50 16.04372
803.60 16.03112
803.70 15.99556
803.80 15.94882
803.90 15.93852
804.00 15.96265
804.10 16.00428
804.20 16.06188
804.30 16.137
804.40 16.24764
804.50 16.38098
804.60 16.46251
804.70 16.41453
804.80 16.26489
804.90 16.15463
805.00 16.22383
805.10 16.51449
805.20 16.92294
805.30 17.27668
805.40 17.46882
805.50 17.52228
805.60 17.51016
805.70 17.46492
805.80 17.41683
805.90 17.41312
806.00 17.4844
806.10 17.61249
806.20 17.76108
806.30 17.85467
806.40 17.79451
806.50 17.61424
806.60 17.46802
806.70 17.42992
806.80 17.45491
806.90 17.4581
807.00 17.39845
807.10 17.32605
807.20 17.33144
807.30 17.45324
807.40 17.64269
807.50 17.83193
807.60 17.9656
807.70 18.00447
807.80 18.02046
807.90 18.09016
808.00 18.17308
808.10 18.23431
808.20 18.27552
808.30 18.32512
808.40 18.42138
808.50 18.54204
808.60 18.64178
808.70 18.68787
808.80 18.66589
808.90 18.61337
809.00 18.58609
809.10 18.62771
809.20 18.74546
809.30 18.86157
809.40 18.90203
809.50 18.86013
809.60 18.76556
809.70 18.68012
809.80 18.64295
809.90 18.64438
810.00 18.66371
810.10 18.69443
810.20 18.73525
810.30 18.76116
810.40 18.74152
810.50 18.67582
810.60 18.61844
810.70 18.63926
810.80 18.77671
810.90 19.01254
811.00 19.21732
811.10 19.27116
811.20 19.23065
811.30 19.21496
811.40 19.27009
811.50 19.32322
811.60 19.20802
811.70 18.91276
811.80 18.62478
811.90 18.56049
812.00 18.80465
812.10 19.19698
812.20 19.52596
812.30 19.69039
812.40 19.70846
812.50 19.70246
812.60 19.74798
812.70 19.83621
812.80 19.93921
812.90 20.01563
813.00 20.03514
813.10 20.00511
813.20 19.96182
813.30 19.93924
813.40 19.94759
813.50 19.98832
813.60 20.03868
813.70 20.09177
813.80 20.20747
813.90 20.3775
814.00 20.49362
814.10 20.4904
814.20 20.33693
814.30 20.08346
814.40 19.85807
814.50 19.73546
814.60 19.7487
814.70 19.84606
814.80 19.90487
814.90 19.87972
815.00 19.80153
815.10 19.77792
815.20 19.88237
815.30 19.9957
815.40 20.0161
815.50 19.95875
815.60 19.86828
815.70 19.82808
815.80 19.84644
815.90 19.83173
816.00 19.73943
816.10 19.59376
816.20 19.45257
816.30 19.38987
816.40 19.44723
816.50 19.61408
816.60 19.86864
816.70 20.13211
816.80 20.29325
816.90 20.33704
817.00 20.26919
817.10 20.13403
817.20 20.04741
817.30 20.02207
817.40 20.03394
817.50 20.0358
817.60 19.91423
817.70 19.65601
817.80 19.32573
817.90 18.97819
818.00 18.62799
818.10 17.99731
818.20 16.75208
818.30 14.93486
818.40 13.01493
818.50 11.8347
818.60 11.96798
818.70 13.27397
818.80 15.04144
818.90 16.43403
819.00 17.15063
819.10 17.3314
819.20 17.03407
819.30 16.13375
819.40 14.57777
819.50 12.64407
819.60 11.05251
819.70 10.48271
819.80 11.07115
819.90 12.47232
820.00 14.05801
820.10 15.3655
820.20 16.3643
820.30 17.15468
820.40 17.72319
820.50 18.01324
820.60 17.9965
820.70 17.7758
820.80 17.58304
820.90 17.58044
821.00 17.81652
821.10 18.16199
821.20 18.4394
821.30 18.58499
821.40 18.5912
821.50 18.52872
821.60 18.50023
821.70 18.51983
821.80 18.55584
821.90 18.60012
822.00 18.64301
822.10 18.68611
822.20 18.77112
822.30 18.88107
822.40 18.9951
822.50 19.17022
822.60 19.36309
822.70 19.47959
822.80 19.52027
822.90 19.50821
823.00 19.55485
823.10 19.76178
823.20 19.97144
823.30 19.98559
823.40 19.77401
823.50 19.46539
823.60 19.31302
823.70 19.41665
823.80 19.68667
823.90 20.0235
824.00 20.32806
824.10 20.53254
824.20 20.58614
824.30 20.4788
824.40 20.26125
824.50 20.08946
824.60 20.14032
824.70 20.40689
824.80 20.79311
824.90 21.13191
825.00 21.23303
825.10 21.05266
825.20 20.68066
825.30 20.26775
825.40 19.93469
825.50 19.69655
825.60 19.46451
825.70 19.17706
825.80 18.94397
825.90 18.94687
826.00 19.24251
826.10 19.722
826.20 20.17015
826.30 20.42578
826.40 20.52008
826.50 20.56896
826.60 20.65183
826.70 20.7603
826.80 20.81657
826.90 20.78438
827.00 20.64505
827.10 20.367
827.20 19.9415
827.30 19.44124
827.40 19.01465
827.50 18.80249
827.60 18.84129
827.70 18.99757
827.80 19.18976
827.90 19.43498
828.00 19.61641
828.10 19.62248
828.20 19.45155
828.30 19.20064
828.40 19.0356
828.50 19.03402
828.60 19.15925
828.70 19.20744
828.80 19.04571
828.90 18.77329
829.00 18.39419
829.10 18.03469
829.20 17.95278
829.30 18.05557
829.40 18.17682
829.50 18.26278
829.60 18.27509
829.70 18.35242
829.80 18.54512
829.90 18.69918
830.00 18.22226
830.10 18.05914
830.20 17.89602
830.30 17.64239
830.40 17.38877
830.50 17.26469
830.60 17.14062
830.70 17.31168
830.80 17.48274
830.90 17.79878
831.00 18.11482
831.10 18.24535
831.20 18.37589
831.30 18.26761
831.40 18.15933
831.50 18.2002
831.60 18.24108
831.70 18.42806
831.80 18.61505
831.90 18.73551
832.00 18.85598
832.10 18.87349
832.20 18.891
832.30 18.97039
832.40 19.04978
832.50 19.04631
832.60 19.04284
832.70 18.60231
832.80 18.16179
832.90 17.98785
833.00 17.81392
833.10 18.30356
833.20 18.7932
833.30 18.91761
833.40 19.04202
833.50 18.64574
833.60 18.24945
833.70 18.09536
833.80 17.94127
833.90 18.18355
834.00 18.42582
834.10 18.66512
834.20 18.90442
834.30 18.98532
834.40 19.06622
834.50 18.92415
834.60 18.78209
834.70 18.45776
834.80 18.13343
834.90 18.02595
835.00 17.91847
835.10 18.15837
835.20 18.39827
835.30 18.42522
835.40 18.45217
835.50 18.42794
835.60 18.40371
835.70 18.54402
835.80 18.68434
835.90 18.75544
836.00 18.82654
836.10 18.88935
836.20 18.95216
836.30 18.77044
836.40 18.58873
836.50 18.43525
836.60 18.28178
836.70 18.49554
836.80 18.70929
836.90 19.06609
837.00 19.42289
837.10 19.49108
837.20 19.55927
837.30 19.21298
837.40 18.8667
837.50 18.39265
837.60 17.91859
837.70 17.73452
837.80 17.55045
837.90 17.65257
838.00 17.75469
838.10 17.90771
838.20 18.06073
838.30 17.89498
838.40 17.72923
838.50 17.56384
838.60 17.39845
838.70 17.08198
838.80 16.76551
838.90 16.51347
839.00 16.26143
839.10 16.65482
839.20 17.04821
839.30 17.44054
839.40 17.83287
839.50 17.8576
839.60 17.88233
839.70 17.88963
839.80 17.89693
839.90 18.13983
840.00 18.38274
840.10 18.48271
840.20 18.63417
840.30 18.7506
840.40 18.852
840.50 18.9402
840.60 19.03036
840.70 19.12187
840.80 19.21913
840.90 19.30272
841.00 19.27
841.10 19.2368
841.20 19.09689
841.30 18.86692
841.40 18.74276
841.50 18.9413
841.60 19.15432
841.70 19.38665
841.80 19.63916
841.90 19.46554
842.00 18.98724
842.10 18.49165
842.20 18.17358
842.30 17.90962
842.40 18.00875
842.50 18.13323
842.60 18.05146
842.70 17.86191
842.80 17.68655
842.90 17.67248
843.00 17.7083
843.10 17.79229
843.20 17.86987
843.30 17.25446
843.40 16.26125
843.50 15.17348
843.60 14.12076
843.70 13.1296
843.80 13.56615
843.90 14.0525
844.00 14.66974
844.10 15.27741
844.20 15.43381
844.30 14.81625
844.40 14.13711
844.50 13.41481
844.60 12.71743
844.70 12.62023
844.80 12.76652
844.90 12.99151
845.00 13.20501
845.10 13.35607
845.20 12.81702
845.30 12.25258
845.40 11.65367
845.50 11.08626
845.60 10.81496
845.70 10.87438
845.80 10.95768
845.90 11.19178
846.00 11.42117
846.10 11.59004
846.20 11.74169
846.30 11.84681
846.40 11.84006
846.50 11.7557
846.60 11.46674
846.70 11.18306
846.80 11.11112
846.90 11.12197
847.00 11.16931
847.10 11.17133
847.20 11.15181
847.30 11.22217
847.40 11.32362
847.50 11.44551
847.60 11.55545
847.70 11.72649
847.80 11.95097
847.90 12.10658
848.00 12.13133
848.10 12.16796
848.20 12.14393
848.30 12.1012
848.40 12.15201
848.50 12.28655
848.60 12.44029
848.70 12.62014
848.80 12.78476
848.90 12.851
849.00 12.90381
849.10 13.07304
849.20 13.3081
849.30 13.46699
849.40 13.39045
849.50 13.2894
849.60 13.00493
849.70 12.70427
849.80 12.49845
849.90 12.36113
850.00 12.36187
850.10 12.60884
850.20 12.86415
850.30 12.97176
850.40 13.04564
850.50 12.83811
850.60 12.49431
850.70 12.14781
850.80 11.84562
850.90 11.56765
851.00 11.83594
851.10 12.13747
851.20 12.35273
851.30 12.5072
851.40 12.51341
851.50 12.31704
851.60 12.11605
851.70 11.87957
851.80 11.63251
851.90 11.4682
852.00 11.35848
852.10 11.3411
852.20 11.41547
852.30 11.49494
852.40 11.7742
852.50 12.07415
852.60 12.33372
852.70 12.55277
852.80 12.71501
852.90 12.78952
853.00 12.84918
853.10 12.93621
853.20 13.02448
853.30 13.12959
853.40 13.24256
853.50 13.3475
853.60 13.43655
853.70 13.4962
853.80 13.4838
853.90 13.4971
854.00 13.53414
854.10 13.55208
854.20 13.49822
854.30 13.4376
854.40 13.41661
854.50 13.50337
854.60 13.62448
854.70 13.88987
854.80 14.15958
854.90 14.35045
855.00 14.50528
855.10 14.66119
855.20 14.78021
855.30 14.89029
855.40 14.94633
855.50 15.00028
855.60 15.05013
855.70 15.09718
855.80 15.06945
855.90 14.82791
856.00 14.56594
856.10 14.26743
856.20 13.96959
856.30 13.97395
856.40 14.14913
856.50 14.38675
856.60 14.72908
856.70 15.06857
856.80 15.13665
856.90 15.18581
857.00 15.08492
857.10 14.90208
857.20 14.70547
857.30 14.57501
857.40 14.47427
857.50 14.55658
857.60 14.65033
857.70 14.81364
857.80 14.99707
857.90 15.17162
858.00 15.25868
858.10 15.28476
858.20 15.16906
858.30 15.07111
858.40 15.07164
858.50 15.08504
858.60 15.10803
858.70 15.18655
858.80 15.29193
858.90 15.42988
859.00 15.55547
859.10 15.53351
859.20 15.46252
859.30 15.38597
859.40 15.30815
859.50 15.26801
859.60 15.42559
859.70 15.58474
859.80 15.68016
859.90 15.755
860.00 15.81169
860.10 15.85811
860.20 15.92634
860.30 16.04442
860.40 16.14984
860.50 16.15713
860.60 16.12203
860.70 16.17141
860.80 16.30659
860.90 16.41465
861.00 16.39599
861.10 16.34403
861.20 16.10038
861.30 15.83752
861.40 15.6883
861.50 15.61783
861.60 15.57337
861.70 15.50641
861.80 15.42253
861.90 15.44297
862.00 15.4761
862.10 15.58165
862.20 15.70959
862.30 15.80618
862.40 15.77846
862.50 15.69635
862.60 15.54069
862.70 15.39704
862.80 15.38975
862.90 15.42569
863.00 15.4046
863.10 15.35754
863.20 15.31065
863.30 15.42041
863.40 15.54864
863.50 15.68657
863.60 15.79733
863.70 15.82038
863.80 15.8016
863.90 15.80822
864.00 15.76872
864.10 15.72951
864.20 15.87532
864.30 16.07851
864.40 16.19996
864.50 16.21628
864.60 16.17011
864.70 15.9503
864.80 15.73121
864.90 15.69416
865.00 15.72078
865.10 15.81773
865.20 15.95026
865.30 16.0749
865.40 16.27358
865.50 16.48974
865.60 16.64433
865.70 16.78059
865.80 16.81112
865.90 16.7589
866.00 16.65351
866.10 16.36925
866.20 16.06339
866.30 15.90982
866.40 15.79219
866.50 15.94139
866.60 16.24101
866.70 16.55764
866.80 16.79715
866.90 16.99729
867.00 16.96966
867.10 16.92287
867.20 16.88957
867.30 16.86256
867.40 16.88658
867.50 16.8708
867.60 16.84495
867.70 16.96896
867.80 17.10672
867.90 17.28785
868.00 17.45734
868.10 17.49998
868.20 17.33297
868.30 17.14613
868.40 17.13047
868.50 17.15597
868.60 17.19917
868.70 17.19412
868.80 16.98813
868.90 16.5801
869.00 16.17734
869.10 15.92752
869.20 15.66064
869.30 15.36943
869.40 15.06938
869.50 14.83071
869.60 14.71117
869.70 14.67421
869.80 14.85153
869.90 15.01799
870.00 15.21832
870.10 15.4421
870.20 15.65115
870.30 15.83009
870.40 16.01089
870.50 16.13916
870.60 16.27192
870.70 16.32117
870.80 16.35336
870.90 16.2074
871.00 15.94475
871.10 15.66326
871.20 15.44221
871.30 15.26449
871.40 15.3088
871.50 15.3642
871.60 15.37602
871.70 15.35797
871.80 15.32166
871.90 15.34758
872.00 15.38885
872.10 15.5467
872.20 15.71269
872.30 15.87612
872.40 16.04305
872.50 16.19061
872.60 16.3088
872.70 16.4667
872.80 16.92055
872.90 17.38598
873.00 17.57732
873.10 17.61668
873.20 17.47217
873.30 17.14417
873.40 16.81651
873.50 16.72308
873.60 16.63593
873.70 16.62206
873.80 16.62076
873.90 16.65238
874.00 16.74763
874.10 16.89891
874.20 17.26336
874.30 17.61214
874.40 17.93532
874.50 18.26965
874.60 18.46976
874.70 18.43739
874.80 18.28056
874.90 17.86878
875.00 17.45399
875.10 17.44781
875.20 17.56401
875.30 17.87203
875.40 18.23407
875.50 18.51903
875.60 18.46896
875.70 18.37884
875.80 18.47193
875.90 18.63821
876.00 18.90044
876.10 19.17519
876.20 19.36924
876.30 19.25289
876.40 19.07247
876.50 18.66566
876.60 18.25811
876.70 18.04337
876.80 17.94147
876.90 17.99925
877.00 18.48605
877.10 19.04088
877.20 19.63425
877.30 20.21196
877.40 20.5926
877.50 20.90099
877.60 21.12876
877.70 21.11747
877.80 21.00713
877.90 20.33752
878.00 19.66958
878.10 19.29655
878.20 19.06857
878.30 19.12559
878.40 19.42678
878.50 19.70984
878.60 19.79008
878.70 19.87003
878.80 19.96142
878.90 20.05342
879.00 20.183
879.10 20.32978
879.20 20.49343
879.30 20.62207
879.40 20.71074
879.50 20.67793
879.60 20.64517
879.70 20.78168
879.80 20.99411
879.90 21.10135
880.00 20.6837
880.10 20.20196
880.20 19.38416
880.30 18.52022
880.40 18.11857
880.50 18.09281
880.60 18.18227
880.70 18.34817
880.80 18.49602
880.90 18.76975
881.00 19.05011
881.10 19.49441
881.20 20.09489
881.30 20.75492
881.40 21.29567
881.50 21.80246
881.60 22.06746
881.70 22.29643
881.80 22.42133
881.90 22.5308
882.00 22.52337
882.10 22.14742
882.20 21.682
882.30 20.84951
882.40 20.02582
882.50 19.5351
882.60 19.18949
882.70 19.15765
882.80 19.49676
882.90 19.88565
883.00 20.40331
883.10 20.92458
883.20 21.39476
883.30 21.83543
883.40 22.10219
883.50 22.1802
883.60 22.22193
883.70 22.26707
883.80 22.32601
883.90 22.42077
884.00 22.53869
884.10 22.6951
884.20 22.85856
884.30 22.93373
884.40 22.59558
884.50 22.23508
884.60 21.72841
884.70 21.19289
884.80 20.80072
884.90 20.53239
885.00 20.43198
885.10 20.83739
885.20 21.34846
885.30 22.22175
885.40 23.12331
885.50 23.52006
885.60 23.54462
885.70 23.22434
885.80 22.388
885.90 21.47399
886.00 20.16018
886.10 18.85101
886.20 17.9092
886.30 17.15878
886.40 16.91619
886.50 17.39528
886.60 17.95977
886.70 18.41264
886.80 18.82177
886.90 18.47689
887.00 17.84103
887.10 17.04298
887.20 16.17272
887.30 15.35336
887.40 15.16551
887.50 15.0396
887.60 15.46416
887.70 16.03757
887.80 16.67404
887.90 17.32473
888.00 17.90863
888.10 18.12807
888.20 18.31353
888.30 18.08985
888.40 17.75874
888.50 17.37052
888.60 17.04574
888.70 16.90466
888.80 17.22676
888.90 17.58268
889.00 17.99547
889.10 18.42318
889.20 18.62726
889.30 18.67319
889.40 18.6436
889.50 18.42639
889.60 18.16022
889.70 17.80351
889.80 17.47614
889.90 17.49077
890.00 17.68906
890.10 18.10863
890.20 18.74229
890.30 19.32365
890.40 19.63036
890.50 19.95855
890.60 20.13439
890.70 20.20444
890.80 20.15575
890.90 20.00846
891.00 19.81973
891.10 19.57045
891.20 19.34259
891.30 19.33541
891.40 19.40126
891.50 19.60354
891.60 19.83209
891.70 20.03035
891.80 20.14307
891.90 20.25636
892.00 20.25415
892.10 20.21188
892.20 20.14986
892.30 20.07937
892.40 19.95834
892.50 19.81557
892.60 19.69285
892.70 19.65672
892.80 19.64614
892.90 19.78092
893.00 19.9995
893.10 20.28401
893.20 20.72155
893.30 21.17758
893.40 21.54368
893.50 21.88548
893.60 21.76959
893.70 21.35185
893.80 20.72719
893.90 19.88747
894.00 19.03867
894.10 18.73321
894.20 18.49214
894.30 18.52488
894.40 18.64951
894.50 18.70107
894.60 18.7379
894.70 18.83545
894.80 19.062
894.90 19.30762
895.00 19.44752
895.10 19.52194
895.20 19.47626
895.30 19.37718
895.40 19.25535
895.50 19.31861
895.60 19.44122
895.70 19.73813
895.80 20.05979
895.90 20.21426
896.00 20.23505
896.10 20.22925
896.20 20.22615
896.30 20.22834
896.40 20.18392
896.50 20.1191
896.60 19.98784
896.70 19.7818
896.80 19.61642
896.90 19.7853
897.00 19.98371
897.10 20.21481
897.20 20.44024
897.30 20.57114
897.40 20.64356
897.50 20.75083
897.60 20.93313
897.70 21.13489
897.80 21.36303
897.90 21.55847
898.00 21.4508
898.10 21.23337
898.20 21.07826
898.30 21.07156
898.40 21.14292
898.50 21.71737
898.60 22.29899
898.70 22.56465
898.80 22.68496
898.90 22.65822
899.00 22.45351
899.10 22.20564
899.20 22.06312
899.30 21.93441
899.40 21.92888
899.50 21.96124
899.60 21.91991
899.70 21.76658
899.80 21.5971
899.90 21.36368
900.00 21.12664
900.10 21.09945
900.20 21.14933
900.30 21.66926
900.40 22.45636
900.50 23.1247
900.60 23.55715
900.70 23.97278
900.80 23.81939
900.90 23.55657
901.00 23.17428
901.10 22.79005
901.20 22.57172
901.30 22.70104
901.40 22.85075
901.50 22.9878
901.60 23.1236
901.70 22.90795
901.80 22.50448
901.90 22.13324
902.00 21.95317
902.10 21.75563
902.20 21.42757
902.30 21.11623
902.40 20.94144
902.50 20.82311
902.60 20.74514
902.70 20.71255
902.80 20.70434
902.90 20.75792
903.00 20.84774
903.10 21.20261
903.20 21.60697
903.30 21.91819
903.40 22.19315
903.50 22.51916
903.60 22.85519
903.70 23.16707
903.80 23.34944
903.90 23.50726
904.00 23.62159
904.10 23.66227
904.20 23.56437
904.30 23.26849
904.40 22.99379
904.50 23.02998
904.60 23.12049
904.70 23.39379
904.80 23.73928
904.90 23.99776
905.00 24.08585
905.10 24.14463
905.20 23.81355
905.30 23.44803
905.40 23.14216
905.50 22.88483
905.60 22.68534
905.70 22.56032
905.80 22.43354
905.90 22.34728
906.00 22.26303
906.10 22.24406
906.20 22.25454
906.30 22.34578
906.40 22.42809
906.50 22.47228
906.60 22.47074
906.70 22.46011
906.80 22.34887
906.90 22.20061
907.00 22.06379
907.10 21.99449
907.20 22.03754
907.30 22.30238
907.40 22.55217
907.50 22.67774
907.60 22.78174
907.70 22.94753
907.80 23.19442
907.90 23.48636
908.00 23.78439
908.10 24.07071
908.20 24.0873
908.30 24.05448
908.40 23.91382
908.50 23.77022
908.60 23.67596
908.70 23.49742
908.80 23.3171
908.90 23.0723
909.00 22.83909
909.10 22.92672
909.20 23.15471
909.30 23.42051
909.40 23.70112
909.50 23.96649
909.60 24.1038
909.70 24.25286
909.80 24.45455
909.90 24.68335
910.00 24.88952
910.10 25.02623
910.20 25.09324
910.30 24.98923
910.40 24.90075
910.50 24.68918
910.60 24.44781
910.70 24.24209
910.80 24.08268
910.90 24.00696
911.00 24.19695
911.10 24.40383
911.20 24.61633
911.30 24.82962
911.40 25.01627
911.50 25.15018
911.60 25.1844
911.70 25.07046
911.80 24.95702
911.90 24.97082
912.00 24.98694
912.10 25.06646
912.20 25.17248
912.30 25.24314
912.40 25.24562
912.50 25.24649
912.60 25.16927
912.70 25.11054
912.80 25.14925
912.90 25.20916
913.00 25.28531
913.10 25.42791
913.20 25.56021
913.30 25.71707
913.40 25.87699
913.50 26.01308
913.60 26.14469
913.70 26.02725
913.80 25.65775
913.90 25.24291
914.00 24.65797
914.10 24.05129
914.20 24.02065
914.30 24.14598
914.40 24.51695
914.50 25.02479
914.60 25.46777
914.70 25.57591
914.80 25.63203
914.90 25.36982
915.00 25.05457
915.10 24.8608
915.20 24.79003
915.30 24.89455
915.40 25.25631
915.50 25.67818
915.60 26.19357
915.70 26.70893
915.80 26.95529
915.90 27.04031
916.00 26.89831
916.10 26.59617
916.20 26.30128
916.30 26.03194
916.40 25.77681
916.50 25.76835
916.60 25.85405
916.70 26.07638
916.80 26.37017
916.90 26.58429
917.00 26.46453
917.10 26.34168
917.20 26.31823
917.30 26.32305
917.40 26.2701
917.50 26.19832
917.60 26.12497
917.70 26.01983
917.80 25.94411
917.90 26.00129
918.00 26.0722
918.10 26.14611
918.20 26.23058
918.30 26.28348
918.40 26.22957
918.50 26.15372
918.60 26.02537
918.70 25.90516
918.80 26.10038
918.90 26.50115
919.00 27.00857
919.10 27.4529
919.20 27.78848
919.30 27.49616
919.40 27.16817
919.50 26.84975
919.60 26.58622
919.70 26.63721
919.80 26.9944
919.90 27.36074
920.00 27.48357
920.10 27.55758
920.20 27.49385
920.30 27.4205
920.40 27.42546
920.50 27.43631
920.60 27.34516
920.70 26.98844
920.80 26.59911
920.90 25.96385
921.00 25.29452
921.10 24.94594
921.20 24.86207
921.30 24.93903
921.40 25.28497
921.50 25.6645
921.60 25.93202
921.70 26.18329
921.80 26.36511
921.90 26.48827
922.00 26.40088
922.10 26.09816
922.20 25.83114
922.30 25.67357
922.40 25.5109
922.50 25.39339
922.60 25.31019
922.70 25.31396
922.80 25.33734
922.90 25.37567
923.00 25.26758
923.10 25.11205
923.20 24.76333
923.30 24.37033
923.40 24.15103
923.50 24.12758
923.60 24.17044
923.70 24.22627
923.80 24.28491
923.90 24.35605
924.00 24.42779
924.10 24.62515
924.20 24.97447
924.30 25.46159
924.40 25.88274
924.50 26.20406
924.60 25.80915
924.70 25.29716
924.80 24.81911
924.90 24.43913
925.00 24.16252
925.10 24.00765
925.20 23.87784
925.30 23.95144
925.40 24.03658
925.50 24.31443
925.60 24.68827
925.70 25.16379
925.80 25.6283
925.90 26.04062
926.00 26.04514
926.10 26.00704
926.20 25.85862
926.30 25.68212
926.40 25.58746
926.50 25.65038
926.60 25.79753
926.70 26.01922
926.80 26.24564
926.90 26.33945
927.00 26.39078
927.10 26.27474
927.20 26.03657
927.30 25.76955
927.40 25.50668
927.50 25.22616
927.60 24.92271
927.70 24.62004
927.80 24.37671
927.90 24.16469
928.00 23.98335
928.10 23.92854
928.20 23.92623
928.30 24.30091
928.40 24.69628
928.50 24.89065
928.60 24.96379
928.70 24.89154
928.80 24.65235
928.90 24.40166
929.00 24.23408
929.10 24.07164
929.20 23.97534
929.30 23.90176
929.40 23.92356
929.50 24.05133
929.60 24.17945
929.70 24.19108
929.80 24.16822
929.90 23.88811
930.00 23.52873
930.10 23.19032
930.20 23.09479
930.30 23.16782
930.40 23.19771
930.50 23.2946
930.60 23.43346
930.70 23.54472
930.80 23.58373
930.90 23.63815
931.00 23.78931
931.10 24.00692
931.20 24.28618
931.30 24.53478
931.40 24.74001
931.50 24.93953
931.60 24.88999
931.70 24.68803
931.80 24.46081
931.90 24.19331
932.00 24.00005
932.10 23.98003
932.20 24.09636
932.30 24.21301
932.40 24.32305
932.50 24.4278
932.60 24.48523
932.70 24.40633
932.80 24.32761
932.90 24.2897
933.00 24.31075
933.10 24.36507
933.20 24.37383
933.30 24.35271
933.40 24.27814
933.50 24.24093
933.60 24.2257
933.70 24.25462
933.80 24.37378
933.90 24.46817
934.00 24.53639
934.10 24.59633
934.20 24.64887
934.30 24.57594
934.40 24.46143
934.50 24.37678
934.60 24.51797
934.70 24.65281
934.80 24.66936
934.90 24.54332
935.00 24.39452
935.10 24.26435
935.20 24.13674
935.30 24.04453
935.40 24.03859
935.50 24.04792
935.60 24.07886
935.70 24.12187
935.80 24.15439
935.90 24.20069
936.00 24.29962
936.10 24.44834
936.20 24.65711
936.30 24.86888
936.40 25.02164
936.50 24.8902
936.60 24.75926
936.70 24.56094
936.80 24.27795
936.90 24.00981
937.00 23.78485
937.10 23.57007
937.20 23.29953
937.30 23.36706
937.40 23.4732
937.50 23.65973
937.60 23.93307
937.70 24.19569
937.80 24.37346
937.90 24.47268
938.00 24.59796
938.10 24.55267
938.20 24.44676
938.30 24.29619
938.40 24.3221
938.50 24.3699
938.60 24.44307
938.70 24.47782
938.80 24.50997
938.90 24.53716
939.00 24.56887
939.10 24.614
939.20 24.71247
939.30 24.80878
939.40 24.86627
939.50 24.80967
939.60 24.72743
939.70 24.56456
939.80 24.31147
939.90 24.06889
940.00 24.02053
940.10 24.0544
940.20 24.15429
940.30 24.31047
940.40 24.44623
940.50 24.53931
940.60 24.6305
940.70 24.76302
940.80 24.96005
940.90 25.18958
941.00 25.41894
941.10 25.49756
941.20 25.53555
941.30 25.47561
941.40 25.20444
941.50 24.91978
941.60 24.69444
941.70 24.54634
941.80 24.46762
941.90 24.61635
942.00 24.84231
942.10 25.03473
942.20 25.06662
942.30 25.09775
942.40 25.13943
942.50 25.16666
942.60 25.1994
942.70 25.23182
942.80 25.25443
942.90 25.25582
943.00 25.30488
943.10 25.38119
943.20 25.53801
943.30 25.7413
943.40 25.90168
943.50 25.97621
943.60 25.96063
943.70 25.92977
943.80 25.72032
943.90 25.44415
944.00 25.16651
944.10 25.01836
944.20 24.88006
944.30 24.76484
944.40 24.71528
944.50 24.63543
944.60 24.56569
944.70 24.52209
944.80 24.54178
944.90 24.63255
945.00 24.73288
945.10 24.83209
945.20 24.97691
945.30 25.11898
945.40 25.26284
945.50 25.37569
945.60 25.49162
945.70 25.4851
945.80 25.43418
945.90 25.34277
946.00 25.33843
946.10 25.35594
946.20 25.42765
946.30 25.59635
946.40 25.80627
946.50 25.91688
946.60 25.91832
946.70 25.81692
946.80 25.85182
946.90 25.91842
947.00 26.00064
947.10 26.09098
947.20 26.17506
947.30 26.23445
947.40 26.24623
947.50 26.26532
947.60 26.30577
947.70 26.35755
947.80 26.42134
947.90 26.6039
948.00 26.79287
948.10 26.91958
948.20 26.93037
948.30 26.92821
948.40 26.92851
948.50 26.94059
948.60 26.99146
948.70 26.99142
948.80 26.97401
948.90 26.94555
949.00 27.07742
949.10 27.22834
949.20 27.31497
949.30 27.28963
949.40 27.20924
949.50 27.02437
949.60 26.79801
949.70 26.56641
949.80 26.65645
949.90 26.77493
950.00 26.91604
950.10 27.01404
950.20 27.1212
950.30 27.13272
950.40 27.07948
950.50 26.9452
950.60 26.84156
950.70 26.75059
950.80 26.70837
950.90 26.78475
951.00 26.88031
951.10 26.96319
951.20 27.00286
951.30 27.01404
951.40 26.90705
951.50 26.75843
951.60 26.60912
951.70 26.61851
951.80 26.6255
951.90 26.65401
952.00 26.73441
952.10 26.82615
952.20 26.93868
952.30 27.0773
952.40 27.25711
952.50 27.51588
952.60 27.78122
952.70 28.00272
952.80 28.00426
952.90 27.98298
953.00 27.99306
953.10 28.04141
953.20 28.07865
953.30 27.96192
953.40 27.79328
953.50 27.62548
953.60 27.49152
953.70 27.35874
953.80 27.21108
953.90 27.0928
954.00 27.01445
954.10 27.08613
954.20 27.2255
954.30 27.33832
954.40 27.37953
954.50 27.40368
954.60 27.34544
954.70 27.11733
954.80 26.91001
954.90 26.89489
955.00 27.06959
955.10 27.27268
955.20 27.46245
955.30 27.64303
955.40 27.79404
955.50 27.90076
955.60 28.01832
955.70 28.13274
955.80 28.24685
955.90 28.35498
956.00 28.43673
956.10 28.49349
956.20 28.53519
956.30 28.36281
956.40 28.15717
956.50 27.94406
956.60 27.91306
956.70 27.94503
956.80 28.06241
956.90 28.23999
957.00 28.35473
957.10 28.33435
957.20 28.28228
957.30 28.24988
957.40 27.99242
957.50 27.71163
957.60 27.45846
957.70 27.31368
957.80 27.17505
957.90 27.19985
958.00 27.3165
958.10 27.49868
958.20 27.69143
958.30 27.87224
958.40 27.97629
958.50 27.90226
958.60 27.81708
958.70 27.66428
958.80 27.42922
958.90 27.16343
959.00 26.94535
959.10 26.74425
959.20 26.57562
959.30 26.67002
959.40 26.7858
959.50 26.80669
959.60 26.62257
959.70 26.34068
959.80 25.91855
959.90 25.42093
960.00 24.93259
960.10 24.92767
960.20 24.98093
960.30 25.22477
960.40 25.85537
960.50 26.5265
960.60 27.00452
960.70 27.28958
960.80 27.51156
960.90 27.57135
961.00 27.58229
961.10 27.53243
961.20 27.37182
961.30 27.20694
961.40 27.083
961.50 27.0278
961.60 26.97429
961.70 27.11508
961.80 27.34935
961.90 27.65438
962.00 27.8124
962.10 27.95922
962.20 28.04614
962.30 27.98392
962.40 27.88295
962.50 27.93002
962.60 28.09754
962.70 28.3143
962.80 28.32053
962.90 28.28247
963.00 28.20242
963.10 28.0753
963.20 27.93092
963.30 27.79652
963.40 27.64999
963.50 27.48203
963.60 26.88468
963.70 26.11021
963.80 25.22226
963.90 24.4357
964.00 23.70693
964.10 23.42205
964.20 24.06715
964.30 24.8696
964.40 25.56952
964.50 26.17168
964.60 26.61762
964.70 26.43407
964.80 26.15391
964.90 25.89861
965.00 25.92938
965.10 25.98015
965.20 26.12578
965.30 26.35336
965.40 26.60267
965.50 26.86085
965.60 27.11709
965.70 27.337
965.80 27.45708
965.90 27.58242
966.00 27.72575
966.10 27.88787
966.20 28.05759
966.30 28.19873
966.40 28.31514
966.50 28.40587
966.60 28.39483
966.70 28.35618
966.80 28.27213
966.90 28.18614
967.00 28.14185
967.10 28.0998
967.20 28.03466
967.30 27.90927
967.40 27.38151
967.50 26.72934
967.60 26.04093
967.70 25.67819
967.80 25.38676
967.90 25.52314
968.00 26.28919
968.10 27.14426
968.20 27.62193
968.30 27.91048
968.40 28.09038
968.50 27.90458
968.60 27.69275
968.70 27.43037
968.80 27.05277
968.90 26.65018
969.00 26.45548
969.10 26.47362
969.20 26.59237
969.30 27.1049
969.40 27.71301
969.50 28.32254
969.60 28.64953
969.70 28.93583
969.80 29.09217
969.90 29.09372
970.00 29.09091
970.10 28.96099
970.20 28.78358
970.30 28.58807
970.40 28.02053
970.50 27.40233
970.60 26.78947
970.70 26.35656
970.80 26.00833
970.90 26.24765
971.00 26.91883
971.10 27.75444
971.20 28.35912
971.30 28.92016
971.40 29.37141
971.50 29.5216
971.60 29.64282
971.70 29.62964
971.80 29.4566
971.90 29.23363
972.00 28.9929
972.10 28.73948
972.20 28.48944
972.30 28.53468
972.40 28.60859
972.50 28.62944
972.60 28.49353
972.70 28.30878
972.80 27.80399
972.90 27.10491
973.00 26.33293
973.10 26.20302
973.20 26.19284
973.30 26.37609
973.40 26.82096
973.50 27.26353
973.60 27.54517
973.70 27.66885
973.80 27.7175
973.90 27.75054
974.00 27.77728
974.10 27.78254
974.20 27.52556
974.30 27.23376
974.40 26.91954
974.50 26.6105
974.60 26.34282
974.70 26.37854
974.80 26.58201
974.90 26.91566
975.00 27.22966
975.10 27.5134
975.20 27.7219
975.30 27.85327
975.40 27.99178
975.50 28.08383
975.60 28.15558
975.70 28.1943
975.80 28.2441
975.90 28.30599
976.00 28.40118
976.10 28.42608
976.20 28.41365
976.30 28.42595
976.40 28.50169
976.50 28.61587
976.60 28.70545
976.70 28.79303
976.80 28.84985
976.90 28.45512
977.00 28.02242
977.10 27.62316
977.20 27.35112
977.30 27.13361
977.40 27.25587
977.50 27.62259
977.60 28.10016
977.70 28.35748
977.80 28.57352
977.90 28.69086
978.00 28.54046
978.10 28.33963
978.20 27.84123
978.30 27.0606
978.40 26.18665
978.50 25.70851
978.60 25.36631
978.70 25.19361
978.80 25.43519
978.90 25.68414
979.00 26.07285
979.10 26.67661
979.20 27.35254
979.30 27.98802
979.40 28.61001
979.50 29.20355
979.60 29.34384
979.70 29.4206
979.80 29.3916
979.90 29.29457
980.00 29.23483
980.10 29.23566
980.20 29.26704
980.30 29.28422
980.40 29.22167
980.50 29.14138
980.60 29.05977
980.70 28.98562
980.80 28.91251
980.90 28.89394
981.00 28.95944
981.10 29.04618
981.20 29.01488
981.30 28.94037
981.40 28.85037
981.50 28.6298
981.60 28.39155
981.70 28.22148
981.80 28.27356
981.90 28.39253
982.00 28.46276
982.10 28.51172
982.20 28.52098
982.30 28.54379
982.40 28.56958
982.50 28.61823
982.60 28.72445
982.70 28.84554
982.80 28.88567
982.90 28.84033
983.00 28.75108
983.10 28.62781
983.20 28.49578
983.30 28.37415
983.40 28.30282
983.50 28.2266
983.60 28.16091
983.70 28.10403
983.80 28.04121
983.90 28.10163
984.00 28.2387
984.10 28.43321
984.20 28.57828
984.30 28.71258
984.40 28.80148
984.50 28.7746
984.60 28.75091
984.70 28.77827
984.80 28.87163
984.90 28.96571
985.00 28.90266
985.10 28.79611
985.20 28.65515
985.30 28.53157
985.40 28.43689
985.50 28.49904
985.60 28.75156
985.70 29.03643
985.80 29.13897
985.90 29.16496
986.00 29.14461
986.10 29.09174
986.20 29.04214
986.30 29.03133
986.40 29.09041
986.50 29.17531
986.60 29.16574
986.70 29.10039
986.80 28.96904
986.90 28.75816
987.00 28.54154
987.10 28.40669
987.20 28.55406
987.30 28.77353
987.40 28.99354
987.50 29.2161
987.60 29.39742
987.70 29.34094
987.80 29.20917
987.90 29.03738
988.00 28.85671
988.10 28.68347
988.20 28.64041
988.30 28.81741
988.40 29.05298
988.50 29.26995
988.60 29.48585
988.70 29.69423
988.80 29.68695
988.90 29.66577
989.00 29.60653
989.10 29.48592
989.20 29.35792
989.30 29.08989
989.40 28.7288
989.50 28.3187
989.60 27.39045
989.70 26.35386
989.80 25.30127
989.90 24.56355
990.00 23.91519
990.10 23.47199
990.20 23.21856
990.30 22.96299
990.40 22.33672
990.50 21.58486
990.60 20.8084
990.70 20.32136
990.80 19.86265
990.90 19.59727
991.00 19.66885
991.10 19.81344
991.20 19.90564
991.30 19.96678
991.40 19.97585
991.50 19.6676
991.60 19.34259
991.70 19.14679
991.80 19.36596
991.90 19.66923
992.00 20.05803
992.10 20.52126
992.20 20.93451
992.30 20.78882
992.40 20.51024
992.50 20.19582
992.60 20.12176
992.70 20.13063
992.80 20.42792
992.90 21.05799
993.00 21.72583
993.10 22.17507
993.20 22.54047
993.30 22.81819
993.40 22.48996
993.50 22.14863
993.60 22.05619
993.70 22.49508
993.80 23.03473
993.90 23.63198
994.00 24.28802
994.10 24.93118
994.20 25.07537
994.30 25.14296
994.40 25.09882
994.50 24.89176
994.60 24.69304
994.70 24.67571
994.80 24.82447
994.90 25.04052
995.00 25.38267
995.10 25.74959
995.20 26.08362
995.30 26.28301
995.40 26.48258
995.50 26.47702
995.60 26.1748
995.70 25.76765
995.80 25.43649
995.90 25.13296
996.00 24.87716
996.10 24.88139
996.20 24.9137
996.30 25.12434
996.40 25.69669
996.50 26.32154
996.60 26.74101
996.70 27.03492
996.80 27.21476
996.90 26.40592
997.00 25.43853
997.10 24.43509
997.20 23.7171
997.30 23.07321
997.40 22.86516
997.50 23.09566
997.60 23.45402
997.70 23.8855
997.80 24.34808
997.90 24.81237
998.00 25.15392
998.10 25.48682
998.20 25.61592
998.30 25.42789
998.40 25.11508
998.50 24.76318
998.60 24.39193
998.70 24.04254
998.80 24.01366
998.90 24.01701
999.00 24.04446
999.10 24.00565
999.20 23.94208
999.30 24.06404
999.40 24.32711
999.50 24.64627
999.60 24.65813
999.70 24.61003
999.80 24.57909
999.90 24.77912
1000.00 25.0486
1000.10 25.44362
1000.20 25.97897
1000.30 26.52981
1000.40 26.80962
1000.50 27.00286
1000.60 27.09308
1000.70 26.74472
1000.80 26.35252
1000.90 25.89673
1001.00 25.36113
1001.10 24.80677
1001.20 24.70346
1001.30 24.80943
1001.40 25.03535
1001.50 25.58094
1001.60 26.13713
1001.70 26.63248
1001.80 26.94457
1001.90 27.18987
1002.00 27.14717
1002.10 26.89484
1002.20 26.59063
1002.30 26.69665
1002.40 26.88263
1002.50 27.09829
1002.60 27.19405
1002.70 27.26239
1002.80 27.18511
1002.90 26.93169
1003.00 26.60532
1003.10 26.45099
1003.20 26.35144
1003.30 26.26279
1003.40 25.97728
1003.50 25.6804
1003.60 25.42429
1003.70 25.24375
1003.80 25.06977
1003.90 25.25207
1004.00 25.6088
1004.10 26.07755
1004.20 26.62967
1004.30 27.18394
1004.40 27.63481
1004.50 27.82394
1004.60 27.92539
1004.70 27.75344
1004.80 27.39675
1004.90 26.98105
1005.00 26.22625
1005.10 25.41091
1005.20 24.59387
1005.30 23.93166
1005.40 23.30486
1005.50 22.96905
1005.60 22.93517
1005.70 22.99001
1005.80 23.31144
1005.90 23.72184
1006.00 24.16982
1006.10 24.50344
1006.20 24.80006
1006.30 24.97435
1006.40 24.96878
1006.50 24.95861
1006.60 25.28053
1006.70 25.7584
1006.80 26.31214
1006.90 26.69011
1007.00 27.03755
1007.10 27.19727
1007.20 26.91708
1007.30 26.57745
1007.40 26.51614
1007.50 26.66479
1007.60 26.90753
1007.70 27.26235
1007.80 27.63494
1007.90 27.95299
1008.00 27.97698
1008.10 27.96795
1008.20 27.9839
1008.30 28.04532
1008.40 28.09566
1008.50 28.24468
1008.60 28.42599
1008.70 28.58809
1008.80 28.25292
1008.90 27.85752
1009.00 27.44531
1009.10 27.05422
1009.20 26.68151
1009.30 26.64162
1009.40 26.76587
1009.50 26.98431
1009.60 27.40334
1009.70 27.82751
1009.80 28.27082
1009.90 28.76528
1010.00 29.26354
1010.10 29.69163
1010.20 30.07485
1010.30 30.45548
1010.40 30.37962
1010.50 30.21465
1010.60 29.95721
1010.70 29.60322
1010.80 29.24341
1010.90 28.82268
1011.00 28.35313
1011.10 27.85717
1011.20 27.445
1011.30 27.05757
1011.40 26.71818
1011.50 26.59614
1011.60 26.48198
1011.70 26.38312
1011.80 26.28458
1011.90 26.19072
1012.00 26.52223
1012.10 27.05829
1012.20 27.72726
1012.30 28.25416
1012.40 28.7513
1012.50 29.09212
1012.60 29.12477
1012.70 29.0715
1012.80 29.07233
1012.90 29.08536
1013.00 29.1533
1013.10 29.15739
1013.20 29.14136
1013.30 28.96889
1013.40 28.27402
1013.50 27.50658
1013.60 26.77641
1013.70 26.07086
1013.80 25.39788
1013.90 25.32607
1014.00 25.44848
1014.10 25.70784
1014.20 26.25627
1014.30 26.82724
1014.40 27.20459
1014.50 27.24795
1014.60 27.18479
1014.70 26.96481
1014.80 26.66168
1014.90 26.32602
1015.00 26.73451
1015.10 27.22742
1015.20 27.75585
1015.30 28.14434
1015.40 28.42795
1015.50 28.25961
1015.60 27.76282
1015.70 27.12118
1015.80 26.74259
1015.90 26.41852
1016.00 26.23291
1016.10 26.4104
1016.20 26.6445
1016.30 26.84978
1016.40 27.00172
1016.50 27.10092
1016.60 27.37381
1016.70 27.7004
1016.80 28.01078
1016.90 27.7974
1017.00 27.5295
1017.10 27.27589
1017.20 27.06118
1017.30 26.87665
1017.40 27.27139
1017.50 27.94767
1017.60 28.74606
1017.70 28.82768
1017.80 28.83131
1017.90 28.64766
1018.00 28.1454
1018.10 27.6183
1018.20 27.21202
1018.30 26.92316
1018.40 26.70276
1018.50 26.45059
1018.60 26.19381
1018.70 26.02896
1018.80 26.27415
1018.90 26.59841
1019.00 27.01665
1019.10 27.53682
1019.20 28.03341
1019.30 28.15487
1019.40 28.15658
1019.50 28.12291
1019.60 28.13777
1019.70 28.17169
1019.80 28.15159
1019.90 28.04839
1020.00 27.92156
1020.10 27.81383
1020.20 27.71524
1020.30 27.63646
1020.40 27.77943
1020.50 27.92877
1020.60 28.1054
1020.70 28.32925
1020.80 28.54152
1020.90 28.58057
1021.00 28.49625
1021.10 28.39054
1021.20 28.09226
1021.30 27.74006
1021.40 27.34983
1021.50 26.97269
1021.60 26.619
1021.70 26.28281
1021.80 25.97084
1021.90 25.67259
1022.00 25.51633
1022.10 25.40701
1022.20 25.36713
1022.30 25.86121
1022.40 26.43721
1022.50 26.96601
1022.60 27.3943
1022.70 27.73808
1022.80 27.84483
1022.90 27.83435
1023.00 27.78186
1023.10 27.55942
1023.20 27.3171
1023.30 27.16892
1023.40 27.19247
1023.50 27.31056
1023.60 27.591
1023.70 27.95396
1023.80 28.32912
1023.90 28.57352
1024.00 28.79703
1024.10 28.97629
1024.20 29.15495
1024.30 29.35582
1024.40 29.30315
1024.50 29.05307
1024.60 28.6681
1024.70 28.37969
1024.80 28.12336
1024.90 27.90502
1025.00 27.66725
1025.10 27.40329
1025.20 27.10161
1025.30 26.755
1025.40 26.41905
1025.50 26.49548
1025.60 26.702
1025.70 26.95121
1025.80 26.76332
1025.90 26.48284
1026.00 26.05016
1026.10 25.4435
1026.20 24.84528
1026.30 24.63112
1026.40 24.60661
1026.50 24.6828
1026.60 25.38207
1026.70 26.13236
1026.80 26.87945
1026.90 27.51444
1027.00 28.07063
1027.10 28.26279
1027.20 28.16932
1027.30 27.98595
1027.40 27.59607
1027.50 27.17339
1027.60 26.80965
1027.70 26.69802
1027.80 26.6297
1027.90 26.52645
1028.00 26.40798
1028.10 26.24429
1028.20 25.87849
1028.30 25.45126
1028.40 25.07381
1028.50 25.24976
1028.60 25.52333
1028.70 25.98141
1028.80 26.72231
1028.90 27.51164
1029.00 27.80818
1029.10 27.83978
1029.20 27.73467
1029.30 27.50186
1029.40 27.28254
1029.50 27.12623
1029.60 27.16236
1029.70 27.24829
1029.80 27.25537
1029.90 27.18448
1030.00 27.06245
1030.10 26.9479
1030.20 26.83581
1030.30 26.78352
1030.40 26.98909
1030.50 27.27847
1030.60 27.6072
1030.70 27.97342
1030.80 28.27951
1030.90 28.14474
1031.00 27.93566
1031.10 27.74986
1031.20 27.87025
1031.30 28.05838
1031.40 28.19594
1031.50 28.27474
1031.60 28.31009
1031.70 28.01356
1031.80 27.61522
1031.90 27.19953
1032.00 27.12024
1032.10 27.09295
1032.20 27.02575
1032.30 26.85407
1032.40 26.62491
1032.50 26.58822
1032.60 26.63155
1032.70 26.72894
1032.80 27.35193
1032.90 28.00418
1033.00 28.66226
1033.10 29.23028
1033.20 29.74863
1033.30 29.85596
1033.40 29.65364
1033.50 29.34228
1033.60 28.65556
1033.70 27.89507
1033.80 27.16722
1033.90 26.7629
1034.00 26.4445
1034.10 26.18308
1034.20 26.00036
1034.30 25.83949
1034.40 25.51757
1034.50 25.1433
1034.60 24.82702
1034.70 25.23099
1034.80 25.71203
1034.90 26.1448
1035.00 26.47108
1035.10 26.69692
1035.20 26.79241
1035.30 26.81764
1035.40 26.85312
1035.50 27.07433
1035.60 27.29759
1035.70 27.56618
1035.80 27.92451
1035.90 28.29737
1036.00 28.64287
1036.10 28.98541
1036.20 29.36203
1036.30 29.47324
1036.40 29.52201
1036.50 29.51953
1036.60 29.48212
1036.70 29.44928
1036.80 29.50771
1036.90 29.63038
1037.00 29.78954
1037.10 30.12058
1037.20 30.4728
1037.30 30.7636
1037.40 30.76816
1037.50 30.7254
1037.60 30.43854
1037.70 29.89105
1037.80 29.24588
1037.90 28.50973
1038.00 27.74922
1038.10 27.05902
1038.20 26.93382
1038.30 26.90284
1038.40 27.10794
1038.50 27.66677
1038.60 28.28471
1038.70 28.57784
1038.80 28.71719
1038.90 28.79542
1039.00 28.63538
1039.10 28.46192
1039.20 28.27099
1039.30 28.07489
1039.40 27.88224
1039.50 27.61623
1039.60 27.29786
1039.70 26.96111
1039.80 26.99559
1039.90 27.1019
1040.00 27.32819
1040.10 27.87528
1040.20 28.45687
1040.30 28.92133
1040.40 29.28127
1040.50 29.60653
1040.60 29.81059
1040.70 29.97002
1040.80 30.08179
1040.90 29.94796
1041.00 29.78795
1041.10 29.48477
1041.20 28.92119
1041.30 28.28289
1041.40 28.00757
1041.50 27.84322
1041.60 27.81376
1041.70 28.52192
1041.80 29.29845
1041.90 29.92428
1042.00 30.26005
1042.10 30.4889
1042.20 30.29063
1042.30 29.86798
1042.40 29.35675
1042.50 28.70402
1042.60 28.03667
1042.70 27.42902
1042.80 26.96665
1042.90 26.56889
1043.00 26.64574
1043.10 27.09442
1043.20 27.70865
1043.30 28.57427
1043.40 29.45413
1043.50 30.18298
1043.60 30.32606
1043.70 30.3754
1043.80 30.36586
1043.90 30.27858
1044.00 30.20858
1044.10 30.20042
1044.20 30.21103
1044.30 30.2286
1044.40 30.27179
1044.50 30.30144
1044.60 30.26256
1044.70 30.13029
1044.80 30.03384
1044.90 30.26948
1045.00 30.66207
1045.10 31.0761
1045.20 31.53965
1045.30 31.98332
1045.40 32.31998
1045.50 32.40742
1045.60 32.4727
1045.70 32.25548
1045.80 31.88932
1045.90 31.44694
1046.00 30.87362
1046.10 30.30295
1046.20 29.83595
1046.30 29.60215
1046.40 29.41357
1046.50 29.1782
1046.60 28.93442
1046.70 28.66297
1046.80 28.28828
1046.90 27.90473
1047.00 27.60155
1047.10 27.58412
1047.20 27.61666
1047.30 27.74412
1047.40 27.98804
1047.50 28.24686
1047.60 28.37435
1047.70 28.46602
1047.80 28.54409
1047.90 28.45949
1048.00 28.36211
1048.10 28.39907
1048.20 28.65548
1048.30 28.97442
1048.40 29.26044
1048.50 29.54497
1048.60 29.82759
1048.70 29.81416
1048.80 29.77926
1048.90 29.77544
1049.00 29.86856
1049.10 29.96196
1049.20 30.03206
1049.30 30.09917
1049.40 30.16371
1049.50 29.73285
1049.60 29.19379
1049.70 28.6673
1049.80 28.27552
1049.90 27.98015
1050.00 28.09828
1050.10 28.52388
1050.20 29.04061
1050.30 29.31123
1050.40 29.5196
1050.50 29.63358
1050.60 29.53488
1050.70 29.42768
1050.80 29.34599
1050.90 29.29128
1051.00 29.26075
1051.10 28.96484
1051.20 28.56915
1051.30 28.1254
1051.40 27.81389
1051.50 27.5424
1051.60 27.40963
1051.70 27.50573
1051.80 27.6663
1051.90 27.74778
1052.00 27.78278
1052.10 27.78704
1052.20 27.91329
1052.30 28.0513
1052.40 28.25921
1052.50 28.6575
1052.60 29.11914
1052.70 29.50149
1052.80 29.82865
1052.90 30.13316
1053.00 30.05703
1053.10 29.89556
1053.20 29.71429
1053.30 29.65857
1053.40 29.65875
1053.50 29.69283
1053.60 29.77471
1053.70 29.85369
1053.80 29.70735
1053.90 29.50882
1054.00 29.34089
1054.10 29.39267
1054.20 29.50666
1054.30 29.56506
1054.40 29.59221
1054.50 29.58289
1054.60 29.32239
1054.70 28.96555
1054.80 28.59408
1054.90 28.55558
1055.00 28.58653
1055.10 28.75149
1055.20 29.14053
1055.30 29.55957
1055.40 29.60527
1055.50 29.45676
1055.60 29.24623
1055.70 28.82246
1055.80 28.38809
1055.90 27.96562
1056.00 27.61885
1056.10 27.29164
1056.20 27.16378
1056.30 27.18399
1056.40 27.2585
1056.50 27.44722
1056.60 27.66116
1056.70 27.86023
1056.80 27.95582
1056.90 28.01439
1057.00 28.07364
1057.10 28.12785
1057.20 28.18829
1057.30 28.37358
1057.40 28.58597
1057.50 28.81196
1057.60 28.99922
1057.70 29.15948
1057.80 29.25145
1057.90 29.26773
1058.00 29.26807
1058.10 29.32877
1058.20 29.4095
1058.30 29.4575
1058.40 29.1015
1058.50 28.68644
1058.60 28.2798
1058.70 27.90719
1058.80 27.58624
1058.90 27.55779
1059.00 27.67032
1059.10 27.81809
1059.20 27.93602
1059.30 28.05433
1059.40 28.20054
1059.50 28.4541
1059.60 28.7418
1059.70 28.91067
1059.80 28.98328
1059.90 28.98849
1060.00 28.79284
1060.10 28.5712
1060.20 28.36867
1060.30 28.24157
1060.40 28.1149
1060.50 27.95215
1060.60 27.75454
1060.70 27.55236
1060.80 27.42551
1060.90 27.31516
1061.00 27.27241
1061.10 27.50592
1061.20 27.79334
1061.30 28.13337
1061.40 28.52381
1061.50 28.89123
1061.60 28.97436
1061.70 28.97038
1061.80 28.91737
1061.90 28.65973
1062.00 28.40507
1062.10 28.26444
1062.20 28.26935
1062.30 28.27878
1062.40 28.38542
1062.50 28.5626
1062.60 28.78838
1062.70 29.24769
1062.80 29.7126
1062.90 30.07422
1063.00 30.17112
1063.10 30.19883
1063.20 30.10389
1063.30 29.89536
1063.40 29.65075
1063.50 29.58391
1063.60 29.55039
1063.70 29.59187
1063.80 29.76226
1063.90 29.96459
1064.00 30.16874
1064.10 30.37202
1064.20 30.55068
1064.30 30.52397
1064.40 30.45979
1064.50 30.38886
1064.60 30.36961
1064.70 30.35568
1064.80 30.32793
1064.90 30.29229
1065.00 30.27591
1065.10 30.16277
1065.20 30.0112
1065.30 29.82702
1065.40 29.4564
1065.50 29.06463
1065.60 28.77601
1065.70 28.68645
1065.80 28.65436
1065.90 28.60253
1066.00 28.54902
1066.10 28.50963
1066.20 28.06474
1066.30 27.57215
1066.40 27.24361
1066.50 27.19043
1066.60 27.22765
1066.70 27.35511
1066.80 27.53662
1066.90 27.71742
1067.00 27.69877
1067.10 27.67623
1067.20 27.76462
1067.30 28.15725
1067.40 28.61882
1067.50 28.99742
1067.60 29.33379
1067.70 29.65672
1067.80 29.80178
1067.90 29.91195
1068.00 30.02953
1068.10 30.2284
1068.20 30.41795
1068.30 30.56229
1068.40 30.71878
1068.50 30.89447
1068.60 30.97149
1068.70 31.01127
1068.80 31.04237
1068.90 30.92766
1069.00 30.80208
1069.10 30.72143
1069.20 30.72464
1069.30 30.74192
1069.40 30.50662
1069.50 30.19242
1069.60 29.88043
1069.70 29.75466
1069.80 29.65648
1069.90 29.59938
1070.00 29.6558
1070.10 29.73014
1070.20 29.63825
1070.30 29.46386
1070.40 29.25195
1070.50 29.37915
1070.60 29.54359
1070.70 29.6939
1070.80 29.79262
1070.90 29.86753
1071.00 29.85929
1071.10 29.75069
1071.20 29.61139
1071.30 29.83325
1071.40 30.1355
1071.50 30.42851
1071.60 30.54918
1071.70 30.59505
1071.80 30.61637
1071.90 30.58131
1072.00 30.54531
1072.10 30.52224
1072.20 30.49988
1072.30 30.423
1072.40 30.06893
1072.50 29.66929
1072.60 29.38066
1072.70 29.23365
1072.80 29.17989
1072.90 29.33855
1073.00 29.56397
1073.10 29.77971
1073.20 29.69417
1073.30 29.56414
1073.40 29.45538
1073.50 29.33768
1073.60 29.2471
1073.70 29.40265
1073.80 29.6897
1073.90 30.00275
1074.00 30.33947
1074.10 30.68102
1074.20 30.93742
1074.30 30.99693
1074.40 30.99592
1074.50 30.89538
1074.60 30.71321
1074.70 30.539
1074.80 30.3712
1074.90 30.20254
1075.00 30.08199
1075.10 30.01829
1075.20 29.90032
1075.30 29.81658
1075.40 29.75654
1075.50 29.68863
1075.60 29.85368
1075.70 30.08648
1075.80 30.3589
1075.90 30.66053
1076.00 30.93022
1076.10 31.04717
1076.20 30.96814
1076.30 30.86173
1076.40 30.83124
1076.50 30.8235
1076.60 30.83659
1076.70 30.92176
1076.80 31.00616
1076.90 31.04407
1077.00 31.04654
1077.10 31.04729
1077.20 30.9584
1077.30 30.81839
1077.40 30.6584
1077.50 30.38284
1077.60 30.07487
1077.70 29.86539
1077.80 29.84247
1077.90 29.91447
1078.00 30.08098
1078.10 30.297
1078.20 30.51601
1078.30 30.53555
1078.40 30.53796
1078.50 30.5067
1078.60 30.46408
1078.70 30.40691
1078.80 30.28419
1078.90 30.08579
1079.00 29.85117
1079.10 29.63575
1079.20 29.43502
1079.30 29.25262
1079.40 29.0986
1079.50 28.9837
1079.60 29.05094
1079.70 29.32953
1079.80 29.62725
1079.90 29.82361
1080.00 29.99584
1080.10 30.16389
1080.20 30.29814
1080.30 30.4135
1080.40 30.48705
1080.50 30.52335
1080.60 30.59269
1080.70 30.74615
1080.80 30.9144
1080.90 31.05663
1081.00 31.08089
1081.10 31.0974
1081.20 31.10211
1081.30 31.09276
1081.40 31.08022
1081.50 31.1674
1081.60 31.30446
1081.70 31.45751
1081.80 31.47115
1081.90 31.46224
1082.00 31.3983
1082.10 31.16394
1082.20 30.88986
1082.30 30.6398
1082.40 30.4016
1082.50 30.17731
1082.60 30.18304
1082.70 30.19709
1082.80 30.24393
1082.90 30.3783
1083.00 30.52729
1083.10 30.68533
1083.20 30.85989
1083.30 31.05301
1083.40 30.9024
1083.50 30.70557
1083.60 30.52591
1083.70 30.39303
1083.80 30.24251
1083.90 30.27312
1084.00 30.49367
1084.10 30.7198
1084.20 30.79164
1084.30 30.82614
1084.40 30.83344
1084.50 30.61773
1084.60 30.36317
1084.70 30.17967
1084.80 30.07888
1084.90 30.04431
1085.00 30.25069
1085.10 30.53932
1085.20 30.81713
1085.30 30.7003
1085.40 30.52363
1085.50 30.46574
1085.60 30.60649
1085.70 30.81994
1085.80 31.06092
1085.90 31.32868
1086.00 31.59021
1086.10 31.74118
1086.20 31.88704
1086.30 31.99237
1086.40 31.96717
1086.50 31.88814
1086.60 31.74489
1086.70 31.53697
1086.80 31.31298
1086.90 31.33616
1087.00 31.43146
1087.10 31.55088
1087.20 31.65477
1087.30 31.7109
1087.40 31.56999
1087.50 31.26185
1087.60 30.88716
1087.70 30.86253
1087.80 30.92643
1087.90 31.02582
1088.00 31.07735
1088.10 31.0818
1088.20 31.06054
1088.30 30.97964
1088.40 30.88377
1088.50 30.94371
1088.60 31.06527
1088.70 31.2146
1088.80 31.16954
1088.90 31.06403
1089.00 31.01627
1089.10 31.07293
1089.20 31.15524
1089.30 31.07461
1089.40 30.93197
1089.50 30.79647
1089.60 30.88759
1089.70 31.00713
1089.80 31.19382
1089.90 31.50471
1090.00 31.83825
1090.10 31.96973
1090.20 31.99465
1090.30 31.98491
1090.40 32.00299
1090.50 32.00835
1090.60 31.93116
1090.70 31.67011
1090.80 31.39504
1090.90 31.16394
1091.00 30.94069
1091.10 30.68455
1091.20 30.68874
1091.30 30.77026
1091.40 30.93229
1091.50 31.32843
1091.60 31.76086
1091.70 32.04145
1091.80 32.17699
1091.90 32.27487
1092.00 32.23361
1092.10 32.13202
1092.20 32.02276
1092.30 31.98301
1092.40 31.9851
1092.50 31.97784
1092.60 31.95362
1092.70 31.89499
1092.80 31.86158
1092.90 31.83729
1093.00 31.82051
1093.10 31.7485
1093.20 31.67361
1093.30 31.60444
1093.40 31.54987
1093.50 31.48755
1093.60 31.36753
1093.70 31.22585
1093.80 31.08744
1093.90 31.31278
1094.00 31.59347
1094.10 31.85528
1094.20 32.05297
1094.30 32.19239
1094.40 31.92875
1094.50 31.45763
1094.60 30.92903
1094.70 30.92028
1094.80 30.95295
1094.90 31.05976
1095.00 31.38135
1095.10 31.74539
1095.20 32.13673
1095.30 32.53765
1095.40 32.94344
1095.50 32.89315
1095.60 32.75432
1095.70 32.61049
1095.80 32.49302
1095.90 32.37809
1096.00 32.33441
1096.10 32.40121
1096.20 32.48852
1096.30 32.51612
1096.40 32.52792
1096.50 32.52879
1096.60 32.36549
1096.70 32.17313
1096.80 31.83826
1096.90 31.3487
1097.00 30.81682
1097.10 30.55877
1097.20 30.3869
1097.30 30.26087
1097.40 30.50456
1097.50 30.79439
1097.60 31.07525
1097.70 31.29957
1097.80 31.50744
1097.90 31.64486
1098.00 31.75657
1098.10 31.88821
1098.20 31.83758
1098.30 31.72998
1098.40 31.56138
1098.50 31.3306
1098.60 31.12782
1098.70 31.01447
1098.80 30.96023
1098.90 30.91792
1099.00 31.0305
1099.10 31.14854
1099.20 31.31803
1099.30 31.61224
1099.40 31.94368
1099.50 32.06542
1099.60 32.03791
1099.70 31.94841
1099.80 31.84526
1099.90 31.74599
1100.00 31.6593
1100.10 31.56728
1100.20 31.46189
1100.30 31.30965
1100.40 31.10337
1100.50 30.87812
1100.60 30.87472
1100.70 30.95682
1100.80 31.07645
1100.90 31.29294
1101.00 31.49313
1101.10 31.58973
1101.20 31.57179
1101.30 31.55102
1101.40 31.73684
1101.50 31.97963
1101.60 32.20252
1101.70 32.0077
1101.80 31.76038
1101.90 31.38121
1102.00 30.82097
1102.10 30.28486
1102.20 29.85731
1102.30 29.47682
1102.40 29.07766
1102.50 29.47052
1102.60 29.94981
1102.70 30.44533
1102.80 30.97203
1102.90 31.46069
1103.00 31.58164
1103.10 31.43011
1103.20 31.25866
1103.30 30.64214
1103.40 29.98333
1103.50 29.42414
1103.60 29.17026
1103.70 28.99919
1103.80 29.14746
1103.90 29.5508
1104.00 29.97322
1104.10 30.06346
1104.20 30.12253
1104.30 30.20626
1104.40 30.24698
1104.50 30.25571
1104.60 30.3199
1104.70 30.47064
1104.80 30.5962
1104.90 30.52423
1105.00 30.42138
1105.10 30.33678
1105.20 29.91783
1105.30 29.42102
1105.40 29.05316
1105.50 28.84342
1105.60 28.69299
1105.70 28.79197
1105.80 28.98298
1105.90 29.21063
1106.00 29.37428
1106.10 29.50068
1106.20 29.57746
1106.30 29.56518
1106.40 29.55373
1106.50 29.61009
1106.60 29.69144
1106.70 29.76814
1106.80 29.4627
1106.90 29.13118
1107.00 28.88793
1107.10 28.84762
1107.20 28.85145
1107.30 28.99424
1107.40 29.27353
1107.50 29.61252
1107.60 29.58405
1107.70 29.50673
1107.80 29.46486
1107.90 29.5902
1108.00 29.75296
1108.10 29.96646
1108.20 30.21757
1108.30 30.48516
1108.40 30.61878
1108.50 30.73337
1108.60 30.83586
1108.70 30.86435
1108.80 30.83955
1108.90 30.81184
1109.00 30.76323
1109.10 30.69414
1109.20 30.69886
1109.30 30.75773
1109.40 30.86484
1109.50 31.03468
1109.60 31.19318
1109.70 31.29268
1109.80 31.33869
1109.90 31.35072
1110.00 31.18351
1110.10 30.94244
1110.20 30.64745
1110.30 30.22168
1110.40 29.80186
1110.50 29.50658
1110.60 29.40011
1110.70 29.40029
1110.80 29.50106
1110.90 29.65533
1111.00 29.80298
1111.10 29.65415
1111.20 29.48999
1111.30 29.33353
1111.40 29.22785
1111.50 29.17012
1111.60 29.18095
1111.70 29.23973
1111.80 29.29448
1111.90 29.28116
1112.00 29.2435
1112.10 29.21458
1112.20 29.21979
1112.30 29.23465
1112.40 29.37196
1112.50 29.60578
1112.60 29.86659
1112.70 30.12394
1112.80 30.39715
1112.90 30.6647
1113.00 30.83544
1113.10 30.96383
1113.20 31.05236
1113.30 31.07505
1113.40 31.08249
1113.50 30.94651
1113.60 30.73435
1113.70 30.4739
1113.80 30.19417
1113.90 29.99726
1114.00 29.93434
1114.10 30.03414
1114.20 30.17669
1114.30 30.50832
1114.40 30.90207
1114.50 31.29299
1114.60 31.43115
1114.70 31.47396
1114.80 31.46139
1114.90 31.35081
1115.00 31.20464
1115.10 31.14989
1115.20 31.18391
1115.30 31.29519
1115.40 31.26085
1115.50 31.18327
1115.60 31.04833
1115.70 30.78447
1115.80 30.52989
1115.90 30.4932
1116.00 30.53869
1116.10 30.56731
1116.20 30.66205
1116.30 30.76883
1116.40 30.8114
1116.50 30.70146
1116.60 30.60174
1116.70 30.51366
1116.80 30.42563
1116.90 30.28953
1117.00 30.03685
1117.10 29.77942
1117.20 29.5705
1117.30 29.36456
1117.40 29.18869
1117.50 29.14584
1117.60 29.12663
1117.70 29.16016
1117.80 29.296
1117.90 29.4851
1118.00 29.69415
1118.10 29.94278
1118.20 30.25334
1118.30 30.53819
1118.40 30.79501
1118.50 30.9589
1118.60 31.1523
1118.70 31.30181
1118.80 31.14276
1118.90 30.95597
1119.00 30.75596
1119.10 30.57036
1119.20 30.39374
1119.30 30.20917
1119.40 30.1005
1119.50 30.09211
1119.60 30.1102
1119.70 30.15182
1119.80 30.2598
1119.90 30.36883
1120.00 30.4703
1120.10 30.52132
1120.20 30.55155
1120.30 30.55488
1120.40 30.59699
1120.50 30.71537
1120.60 30.89204
1120.70 30.98642
1120.80 30.9568
1120.90 30.859
1121.00 30.77383
1121.10 30.69794
1121.20 30.62806
1121.30 30.52824
1121.40 30.48731
1121.50 30.45835
1121.60 30.46836
1121.70 30.41735
1121.80 30.31316
1121.90 30.19073
1122.00 30.13848
1122.10 30.21758
1122.20 30.2975
1122.30 30.3542
1122.40 30.4134
1122.50 30.52936
1122.60 30.6004
1122.70 30.79499
1122.80 30.99108
1122.90 31.21578
1123.00 31.2555
1123.10 31.13728
1123.20 30.99368
1123.30 30.82074
1123.40 30.48031
1123.50 30.10882
1123.60 29.71476
1123.70 29.89251
1123.80 30.14228
1123.90 30.43448
1124.00 30.62735
1124.10 30.78992
1124.20 30.95631
1124.30 31.08618
1124.40 31.18603
1124.50 31.26726
1124.60 31.2984
1124.70 31.21768
1124.80 31.084
1124.90 30.99216
1125.00 30.72564
1125.10 30.42699
1125.20 30.00367
1125.30 29.79615
1125.40 29.73369
1125.50 29.84072
1125.60 30.06667
1125.70 30.36642
1125.80 30.55876
1125.90 30.73236
1126.00 30.77219
1126.10 30.78474
1126.20 30.77701
1126.30 30.80581
1126.40 30.84736
1126.50 30.88943
1126.60 30.97921
1126.70 31.08549
1126.80 31.21254
1126.90 31.31452
1127.00 31.3828
1127.10 31.43128
1127.20 31.42604
1127.30 31.31295
1127.40 31.21204
1127.50 31.12407
1127.60 31.05038
1127.70 30.95063
1127.80 30.81295
1127.90 30.81727
1128.00 30.86412
1128.10 30.93545
1128.20 30.98757
1128.30 31.02163
1128.40 31.08549
1128.50 31.15355
1128.60 31.24353
1128.70 31.29734
1128.80 31.36219
1128.90 31.32314
1129.00 31.28332
1129.10 31.24754
1129.20 31.16854
1129.30 31.09359
1129.40 31.03295
1129.50 31.07673
1129.60 31.23614
1129.70 31.38918
1129.80 31.52327
1129.90 31.64238
1130.00 31.72076
1130.10 31.84308
1130.20 31.52066
1130.30 31.17447
1130.40 30.8174
1130.50 30.53435
1130.60 30.28954
1130.70 30.05667
1130.80 29.98044
1130.90 30.07455
1131.00 30.20264
1131.10 30.31701
1131.20 30.46753
1131.30 30.63843
1131.40 30.81786
1131.50 30.92282
1131.60 31.02271
1131.70 31.12132
1131.80 31.15843
1131.90 31.16421
1132.00 31.15519
1132.10 31.12179
1132.20 31.05571
1132.30 30.991
1132.40 30.93125
1132.50 30.91273
1132.60 30.88185
1132.70 30.85644
1132.80 30.84153
1132.90 30.83041
1133.00 30.82576
1133.10 30.74189
1133.20 30.62216
1133.30 30.5031
1133.40 30.41049
1133.50 30.34169
1133.60 30.24055
1133.70 30.14869
1133.80 30.05262
1133.90 29.93893
1134.00 29.81756
1134.10 29.68035
1134.20 29.56326
1134.30 29.4176
1134.40 29.29496
1134.50 29.20953
1134.60 29.16763
1134.70 29.308
1134.80 29.63442
1134.90 30.09748
1135.00 30.49764
1135.10 30.57985
1135.20 30.47442
1135.30 30.35478
1135.40 30.11461
1135.50 29.87132
1135.60 29.66536
1135.70 29.53351
1135.80 29.44615
1135.90 29.33043
1136.00 29.29389
1136.10 29.39406
1136.20 29.572
1136.30 29.7213
1136.40 29.61203
1136.50 29.43253
1136.60 29.26592
1136.70 29.05494
1136.80 28.83266
1136.90 28.5958
1137.00 28.40039
1137.10 28.23175
1137.20 28.09181
1137.30 27.86478
1137.40 27.54697
1137.50 27.20169
1137.60 26.75937
1137.70 25.96544
1137.80 25.12065
1137.90 24.34598
1138.00 23.03553
1138.10 21.63831
1138.20 20.20763
1138.30 19.63834
1138.40 19.49928
1138.50 19.43353
1138.60 19.90018
1138.70 21.31719
1138.80 22.8521
1138.90 24.21768
1139.00 24.92784
1139.10 25.59108
1139.20 26.29924
1139.30 26.40863
1139.40 26.39683
1139.50 26.37365
1139.60 26.15775
1139.70 25.84219
1139.80 25.48101
1139.90 24.90239
1140.00 23.99231
1140.10 23.02242
1140.20 21.99537
1140.30 20.47579
1140.40 18.92991
1140.50 17.36403
1140.60 17.07262
1140.70 17.05216
1140.80 17.03252
1140.90 18.15473
1141.00 19.8242
1141.10 21.59423
1141.20 23.09255
1141.30 24.1889
1141.40 25.24261
1141.50 26.20653
1141.60 26.7959
1141.70 27.32802
1141.80 27.9121
1141.90 28.19912
1142.00 28.44426
1142.10 28.68583
1142.20 28.82341
1142.30 28.90135
1142.40 28.92924
1142.50 29.01143
1142.60 29.16341
1142.70 29.33787
1142.80 29.49211
1142.90 29.61148
1143.00 29.71936
1143.10 29.85094
1143.20 29.89727
1143.30 29.93122
1143.40 29.95153
1143.50 29.96355
1143.60 29.97526
1143.70 30.00943
1143.80 29.94346
1143.90 29.71618
1144.00 29.48819
1144.10 29.29133
1144.20 29.32963
1144.30 29.36454
1144.40 29.41104
1144.50 29.46586
1144.60 29.50512
1144.70 29.54111
1144.80 29.61322
1144.90 29.70866
1145.00 29.82654
1145.10 29.91646
1145.20 29.97541
1145.30 30.01423
1145.40 30.06405
1145.50 30.09147
1145.60 30.11139
1145.70 30.12576
1145.80 30.1577
1145.90 30.21138
1146.00 30.2777
1146.10 30.40081
1146.20 30.54838
1146.30 30.67632
1146.40 30.81191
1146.50 30.95319
1146.60 31.11594
1146.70 31.2228
1146.80 31.15117
1146.90 31.05781
1147.00 31.00344
1147.10 30.85306
1147.20 30.68664
1147.30 30.48491
1147.40 30.46519
1147.50 30.52833
1147.60 30.5756
1147.70 30.6265
1147.80 30.68816
1147.90 30.78463
1148.00 30.88559
1148.10 30.92725
1148.20 30.96901
1148.30 31.02638
1148.40 30.86667
1148.50 30.68513
1148.60 30.4845
1148.70 30.54402
1148.80 30.72675
1148.90 30.92918
1149.00 31.07774
1149.10 31.17938
1149.20 31.21896
1149.30 31.27334
1149.40 31.18514
1149.50 31.11883
1149.60 31.01358
1149.70 31.07331
1149.80 31.14113
1149.90 31.21192
1150.00 31.18419
1150.10 31.10078
1150.20 31.00631
1150.30 30.9508
1150.40 30.91637
1150.50 30.91835
1150.60 30.91891
1150.70 31.00692
1150.80 31.11305
1150.90 31.21831
1151.00 31.24535
1151.10 31.25329
1151.20 31.2514
1151.30 31.21809
1151.40 31.16289
1151.50 31.10264
1151.60 31.07195
1151.70 31.05937
1151.80 31.05382
1151.90 31.02915
1152.00 31.02317
1152.10 31.03526
1152.20 31.08651
1152.30 30.92007
1152.40 30.7231
1152.50 30.48024
1152.60 30.3716
1152.70 30.3382
1152.80 30.34932
1152.90 30.3487
1153.00 30.35019
1153.10 30.34939
1153.20 30.36853
1153.30 30.37633
1153.40 30.38054
1153.50 30.37395
1153.60 30.48951
1153.70 30.62221
1153.80 30.75656
1153.90 30.90169
1154.00 31.05464
1154.10 31.20845
1154.20 31.27263
1154.30 31.24404
1154.40 31.16054
1154.50 31.06873
1154.60 30.83597
1154.70 30.59365
1154.80 30.35903
1154.90 30.35272
1155.00 30.3745
1155.10 30.40385
1155.20 30.51526
1155.30 30.65949
1155.40 30.78691
1155.50 30.89776
1155.60 30.99417
1155.70 31.11322
1155.80 31.18482
1155.90 31.17302
1156.00 31.13878
1156.10 31.13523
1156.20 31.14478
1156.30 31.15417
1156.40 31.14535
1156.50 31.15038
1156.60 31.163
1156.70 31.18579
1156.80 31.12721
1156.90 30.97014
1157.00 30.77685
1157.10 30.64076
1157.20 30.62056
1157.30 30.64187
1157.40 30.65276
1157.50 30.67241
1157.60 30.68474
1157.70 30.68868
1157.80 30.71466
1157.90 30.74837
1158.00 30.78398
1158.10 30.81291
1158.20 30.83819
1158.30 30.87058
1158.40 30.90013
1158.50 30.89167
1158.60 30.85709
1158.70 30.82089
1158.80 30.71145
1158.90 30.59771
1159.00 30.48076
1159.10 30.19892
1159.20 29.86896
1159.30 29.53783
1159.40 29.25127
1159.50 28.99768
1159.60 28.75966
1159.70 28.63163
1159.80 28.82521
1159.90 29.07941
1160.00 29.31149
1160.10 29.57756
1160.20 29.84118
1160.30 30.1026
1160.40 30.17669
1160.50 30.1902
1160.60 30.1918
1160.70 29.89359
1160.80 29.3719
1160.90 28.80733
1161.00 28.45043
1161.10 28.54447
1161.20 28.7204
1161.30 28.87533
1161.40 29.4258
1161.50 30.00794
1161.60 30.61665
1161.70 30.83744
1161.80 30.90894
1161.90 30.9265
1162.00 30.84505
1162.10 30.68257
1162.20 30.5503
1162.30 30.45581
1162.40 30.47581
1162.50 30.5248
1162.60 30.56198
1162.70 30.66489
1162.80 30.76372
1162.90 30.85571
1163.00 30.92511
1163.10 30.9894
1163.20 31.06163
1163.30 31.04685
1163.40 30.95577
1163.50 30.82843
1163.60 30.62476
1163.70 30.17862
1163.80 29.69488
1163.90 29.23848
1164.00 29.0391
1164.10 28.90283
1164.20 28.74862
1164.30 29.13019
1164.40 29.60089
1164.50 30.10386
1164.60 30.39736
1164.70 30.54299
1164.80 30.64338
1164.90 30.68643
1165.00 30.61535
1165.10 30.5131
1165.20 30.42507
1165.30 30.28267
1165.40 30.13116
1165.50 29.97616
1165.60 29.9372
1165.70 29.93125
1165.80 29.93643
1165.90 30.00363
1166.00 30.13322
1166.10 30.28913
1166.20 30.42988
1166.30 30.54641
1166.40 30.63421
1166.50 30.74229
1166.60 30.78737
1166.70 30.81291
1166.80 30.83578
1166.90 30.70647
1167.00 30.54791
1167.10 30.37479
1167.20 30.23851
1167.30 30.12438
1167.40 30.03143
1167.50 29.95104
1167.60 29.88716
1167.70 29.82573
1167.80 29.7793
1167.90 29.78949
1168.00 29.79284
1168.10 29.79675
1168.20 29.65145
1168.30 29.46627
1168.40 29.26766
1168.50 28.86095
1168.60 28.34574
1168.70 27.78817
1168.80 26.87136
1168.90 25.35862
1169.00 23.71472
1169.10 22.29679
1169.20 21.6301
1169.30 21.15953
1169.40 20.56864
1169.50 21.65197
1169.60 23.07592
1169.70 24.59537
1169.80 25.79823
1169.90 26.85225
1170.00 27.86477
1170.10 28.61862
1170.20 29.07502
1170.30 29.46439
1170.40 29.84392
1170.50 30.03624
1170.60 30.16668
1170.70 30.29948
1170.80 30.30223
1170.90 30.28948
1171.00 30.27637
1171.10 30.28596
1171.20 30.3047
1171.30 30.31594
1171.40 30.30702
1171.50 30.28788
1171.60 30.27886
1171.70 30.2672
1171.80 30.16912
1171.90 30.04253
1172.00 29.89984
1172.10 29.8361
1172.20 29.79298
1172.30 29.76001
1172.40 29.77809
1172.50 29.81374
1172.60 29.85969
1172.70 29.9553
1172.80 30.10108
1172.90 30.24008
1173.00 30.3512
1173.10 30.40942
1173.20 30.44843
1173.30 30.5092
1173.40 30.40495
1173.50 30.28847
1173.60 30.16529
1173.70 30.08887
1173.80 30.04198
1173.90 30.00789
1174.00 30.01376
1174.10 30.076
1174.20 30.15434
1174.30 30.24348
1174.40 30.36122
1174.50 30.44958
1174.60 30.52376
1174.70 30.45464
1174.80 30.37568
1174.90 30.30296
1175.00 30.16143
1175.10 29.99035
1175.20 29.79993
1175.30 29.65569
1175.40 29.54546
1175.50 29.46622
1175.60 29.42016
1175.70 29.47373
1175.80 29.54127
1175.90 29.61784
1176.00 29.53846
1176.10 29.42779
1176.20 29.3122
1176.30 29.14875
1176.40 28.9665
1176.50 28.77052
1176.60 28.25291
1176.70 27.49946
1176.80 26.68637
1176.90 25.53461
1177.00 23.77899
1177.10 21.89846
1177.20 20.10692
1177.30 18.93325
1177.40 17.87477
1177.50 16.75159
1177.60 17.55584
1177.70 18.7208
1177.80 20.03205
1177.90 21.44891
1178.00 22.98266
1178.10 24.54488
1178.20 25.75458
1178.30 26.39219
1178.40 26.92486
1178.50 27.46097
1178.60 27.84031
1178.70 28.17957
1178.80 28.52176
1178.90 28.81621
1179.00 29.08494
1179.10 29.33509
1179.20 29.42815
1179.30 29.44439
1179.40 29.44838
1179.50 29.43897
1179.60 29.39551
1179.70 29.36375
1179.80 29.34711
1179.90 29.39701
1180.00 29.43065
1180.10 29.44373
1180.20 29.53706
1180.30 29.65956
1180.40 29.80623
1180.50 29.86074
1180.60 29.8625
1180.70 29.84488
1180.80 29.82182
1180.90 29.77639
1181.00 29.72506
1181.10 29.67189
1181.20 29.62612
1181.30 29.57748
1181.40 29.52473
1181.50 29.46404
1181.60 29.41434
1181.70 29.3629
1181.80 29.38242
1181.90 29.44022
1182.00 29.51562
1182.10 29.60211
1182.20 29.69909
1182.30 29.76984
1182.40 29.76989
1182.50 29.5687
1182.60 29.33305
1182.70 29.11007
1182.80 28.7791
1182.90 28.45627
1183.00 28.12563
1183.10 28.15303
1183.20 28.28999
1183.30 28.45315
1183.40 28.59299
1183.50 28.715
1183.60 28.82229
1183.70 28.91395
1183.80 28.91318
1183.90 28.90965
1184.00 28.87489
1184.10 29.12637
1184.20 29.42493
1184.30 29.74038
1184.40 29.86373
1184.50 29.90834
1184.60 29.91263
1184.70 29.7829
1184.80 29.54057
1184.90 29.26929
1185.00 29.06069
1185.10 28.98759
1185.20 28.9507
1185.30 28.92142
1185.40 29.07781
1185.50 29.26518
1185.60 29.45371
1185.70 29.52015
1185.80 29.5519
1185.90 29.57873
1186.00 29.62942
1186.10 29.68912
1186.20 29.72955
1186.30 29.73502
1186.40 29.70104
1186.50 29.67439
1186.60 29.65919
1186.70 29.54785
1186.80 29.40615
1186.90 29.25878
1187.00 29.21508
1187.10 29.19834
1187.20 29.19102
1187.30 29.24385
1187.40 29.35375
1187.50 29.49619
1187.60 29.57185
1187.70 29.55713
1187.80 29.47605
1187.90 29.3443
1188.00 28.9082
1188.10 28.43293
1188.20 27.98143
1188.30 27.17801
1188.40 26.30562
1188.50 25.4091
1188.60 25.29048
1188.70 25.57536
1188.80 25.96208
1188.90 26.46549
1189.00 27.25032
1189.10 28.07153
1189.20 28.77267
1189.30 28.91586
1189.40 28.97178
1189.50 29.02846
1189.60 29.10296
1189.70 29.18785
1189.80 29.29388
1189.90 29.39723
1190.00 29.49358
1190.10 29.58708
1190.20 29.61214
1190.30 29.55235
1190.40 29.45467
1190.50 29.3497
1190.60 29.21414
1190.70 29.09367
1190.80 28.96666
1190.90 29.08768
1191.00 29.23243
1191.10 29.37363
1191.20 29.44417
1191.30 29.49634
1191.40 29.55308
1191.50 29.59186
1191.60 29.60189
1191.70 29.60351
1191.80 29.61811
1191.90 29.65329
1192.00 29.68305
1192.10 29.68971
1192.20 29.61865
1192.30 29.53621
1192.40 29.45993
1192.50 29.38519
1192.60 29.31645
1192.70 29.25508
1192.80 29.26948
1192.90 29.34077
1193.00 29.41939
1193.10 29.47837
1193.20 29.50155
1193.30 29.51888
1193.40 29.5269
1193.50 29.37107
1193.60 29.17792
1193.70 28.98947
1193.80 28.76515
1193.90 28.53825
1194.00 28.30935
1194.10 28.20262
1194.20 28.19415
1194.30 28.22291
1194.40 28.20713
1194.50 28.14864
1194.60 28.07334
1194.70 28.00574
1194.80 27.73935
1194.90 27.43436
1195.00 27.11635
1195.10 27.10469
1195.20 27.17472
1195.30 27.26492
1195.40 27.51465
1195.50 27.85552
1195.60 28.21477
1195.70 28.41745
1195.80 28.37576
1195.90 28.23715
1196.00 28.12985
1196.10 27.97398
1196.20 27.81938
1196.30 27.65961
1196.40 27.61682
1196.50 27.59138
1196.60 27.57761
1196.70 27.59444
1196.80 27.6245
1196.90 27.65416
1197.00 27.40507
1197.10 26.85906
1197.20 26.24444
1197.30 25.65416
1197.40 24.99558
1197.50 24.33245
1197.60 23.62677
1197.70 23.9133
1197.80 24.29351
1197.90 24.7002
1198.00 25.11078
1198.10 25.52625
1198.20 25.94855
1198.30 26.3281
1198.40 26.65386
1198.50 26.98898
1198.60 27.247
1198.70 27.36573
1198.80 27.41735
1198.90 27.51688
1199.00 27.23226
1199.10 26.90777
1199.20 26.57351
1199.30 26.4188
1199.40 26.3334
1199.50 26.27221
1199.60 26.29448
1199.70 26.39265
1199.80 26.51556
1199.90 26.60071
1200.00 26.61599
