# Version 2.1 - nm, norm@500 to 1, cut digits
# Wavelength(nm)  Flambda(ergs/cm^s/s/nm)
300.00 0.007631777
300.10 0.01011635
300.20 0.01164262
300.30 0.0122907
300.40 0.01247719
300.50 0.01254202
300.60 0.01260024
300.70 0.01265429
300.80 0.01270796
300.90 0.01276645
301.00 0.01283492
301.10 0.01291564
301.20 0.01300679
301.30 0.01310425
301.40 0.01320426
301.50 0.01330487
301.60 0.01340555
301.70 0.01350627
301.80 0.01360701
301.90 0.01370776
302.00 0.01380851
302.10 0.01390926
302.20 0.01401001
302.30 0.01411076
302.40 0.01421154
302.50 0.01431234
302.60 0.0144132
302.70 0.0145145
302.80 0.01461775
302.90 0.01472579
303.00 0.01484175
303.10 0.01496701
303.20 0.01510018
303.30 0.01523814
303.40 0.01537805
303.50 0.01551841
303.60 0.01565882
303.70 0.01579926
303.80 0.01593971
303.90 0.01608017
304.00 0.01622064
304.10 0.0163611
304.20 0.01650156
304.30 0.016642
304.40 0.01678239
304.50 0.01692269
304.60 0.01706282
304.70 0.01720159
304.80 0.01733441
304.90 0.01745257
305.00 0.01754652
305.10 0.01761203
305.20 0.01765333
305.30 0.01767997
305.40 0.01770066
305.50 0.01771999
305.60 0.01773916
305.70 0.01775822
305.80 0.01777725
305.90 0.01779625
306.00 0.01781524
306.10 0.01783424
306.20 0.01785324
306.30 0.01787224
306.40 0.01789123
306.50 0.01791023
306.60 0.01792923
306.70 0.01794823
306.80 0.01796725
306.90 0.01798629
307.00 0.01800539
307.10 0.01802455
307.20 0.01804376
307.30 0.01806301
307.40 0.01808226
307.50 0.01810153
307.60 0.01812079
307.70 0.01814005
307.80 0.01815931
307.90 0.01817857
308.00 0.01819783
308.10 0.01821709
308.20 0.01823636
308.30 0.01825568
308.40 0.01827513
308.50 0.01829481
308.60 0.01831489
308.70 0.0183384
308.80 0.01837679
308.90 0.01845187
309.00 0.01858754
309.10 0.01879439
309.20 0.01906183
309.30 0.01936597
309.40 0.01968498
309.50 0.02000741
309.60 0.02033025
309.70 0.02065333
309.80 0.02097653
309.90 0.02129978
310.00 0.02162304
310.10 0.0219463
310.20 0.02226955
310.30 0.02259275
310.40 0.02291583
310.50 0.02323867
310.60 0.0235611
310.70 0.02388009
310.80 0.02418412
310.90 0.02445127
311.00 0.02465751
311.10 0.02479219
311.20 0.02486596
311.30 0.02490285
311.40 0.02492478
311.50 0.02494327
311.60 0.02496135
311.70 0.02497919
311.80 0.02499691
311.90 0.02501458
312.00 0.02503224
312.10 0.0250499
312.20 0.02506757
312.30 0.0250853
312.40 0.02510319
312.50 0.02512137
312.60 0.02514005
312.70 0.02516299
312.80 0.02520439
312.90 0.02529135
313.00 0.02545354
313.10 0.02570411
313.20 0.0260299
313.30 0.02640125
313.40 0.02679106
313.50 0.02718513
313.60 0.0275797
313.70 0.02797457
313.80 0.02836959
313.90 0.02876467
314.00 0.02915976
314.10 0.02955486
314.20 0.02994996
314.30 0.0303451
314.40 0.03074035
314.50 0.03113581
314.60 0.03153161
314.70 0.03193038
314.80 0.032342
314.90 0.03278533
315.00 0.03328103
315.10 0.03383825
315.20 0.03444783
315.30 0.03508912
315.40 0.03574327
315.50 0.03640038
315.60 0.03705784
315.70 0.03771551
315.80 0.03837328
315.90 0.03903109
316.00 0.03968892
316.10 0.04034674
316.20 0.04100453
316.30 0.04166216
316.40 0.04231941
316.50 0.0429759
316.60 0.0436311
316.70 0.04427543
316.80 0.0448725
316.90 0.04535299
317.00 0.04564101
317.10 0.04570289
317.20 0.04557229
317.30 0.04532512
317.40 0.04503069
317.50 0.04472538
317.60 0.04441879
317.70 0.04411144
317.80 0.0438037
317.90 0.04349581
318.00 0.04318788
318.10 0.04287996
318.20 0.04257206
318.30 0.04226427
318.40 0.04195679
318.50 0.04164988
318.60 0.04134396
318.70 0.04104637
318.80 0.04078495
318.90 0.04061277
319.00 0.04058792
319.10 0.04073618
319.20 0.04103179
319.30 0.04141662
319.40 0.04183764
319.50 0.04226697
319.60 0.0426973
319.70 0.0431282
319.80 0.0435594
319.90 0.04399072
320.00 0.04442207
320.10 0.04485341
320.20 0.04528474
320.30 0.04571604
320.40 0.04614722
320.50 0.04657818
320.60 0.04700879
320.70 0.04743631
320.80 0.04785045
320.90 0.04823159
321.00 0.04855824
321.10 0.04882086
321.20 0.04902899
321.30 0.04920412
321.40 0.04936586
321.50 0.04952453
321.60 0.04968283
321.70 0.04984092
321.80 0.0499989
321.90 0.05015683
322.00 0.05031476
322.10 0.05047268
322.20 0.05063064
322.30 0.05078876
322.40 0.05094728
322.50 0.05110658
322.60 0.05126722
322.70 0.0514391
322.80 0.05165985
322.90 0.05200115
323.00 0.0525415
323.10 0.05331571
323.20 0.05428896
323.30 0.05538277
323.40 0.05652544
323.50 0.05767936
323.60 0.05883461
323.70 0.05999065
323.80 0.06114709
323.90 0.06230369
324.00 0.06346032
324.10 0.06461695
324.20 0.06577358
324.30 0.06693018
324.40 0.06808671
324.50 0.06924312
324.60 0.07039931
324.70 0.07155367
324.80 0.0727001
324.90 0.07382694
325.00 0.07492145
325.10 0.07597798
325.20 0.07700216
325.30 0.07800677
325.40 0.07900344
325.50 0.07999828
325.60 0.08099291
325.70 0.0819874
325.80 0.08298184
325.90 0.08397624
326.00 0.08497064
326.10 0.08596504
326.20 0.08695946
326.30 0.08795393
326.40 0.08894853
326.50 0.08994342
326.60 0.09093877
326.70 0.09193806
326.80 0.09295445
326.90 0.09401306
327.00 0.09514135
327.10 0.09635152
327.20 0.09763137
327.30 0.09895344
327.40 0.1002926
327.50 0.1016357
327.60 0.1029793
327.70 0.1043232
327.80 0.1056671
327.90 0.1070112
328.00 0.1083552
328.10 0.1096993
328.20 0.1110433
328.30 0.112387
328.40 0.1137298
328.50 0.115071
328.60 0.1164095
328.70 0.1177249
328.80 0.1189399
328.90 0.1199073
329.00 0.1204657
329.10 0.1205438
329.20 0.120213
329.30 0.1196345
329.40 0.1189557
329.50 0.1182537
329.60 0.1175491
329.70 0.1168428
329.80 0.1161356
329.90 0.1154282
330.00 0.1147207
330.10 0.1140132
330.20 0.1133057
330.30 0.1125985
330.40 0.1118919
330.50 0.1111864
330.60 0.1104831
330.70 0.1097968
330.80 0.109185
330.90 0.1087569
331.00 0.1086322
331.10 0.1088638
331.20 0.1093987
331.30 0.1101173
331.40 0.1109104
331.50 0.1117206
331.60 0.1125329
331.70 0.1133464
331.80 0.1141604
331.90 0.1149747
332.00 0.1157891
332.10 0.1166034
332.20 0.1174178
332.30 0.1182319
332.40 0.1190457
332.50 0.1198587
332.60 0.1206705
332.70 0.1214714
332.80 0.1222251
332.90 0.1228626
333.00 0.1233079
333.10 0.1235277
333.20 0.1235554
333.30 0.1234668
333.40 0.1233311
333.50 0.1231845
333.60 0.1230366
333.70 0.122888
333.80 0.122739
333.90 0.1225898
334.00 0.1224406
334.10 0.1222918
334.20 0.1221443
334.30 0.1219985
334.40 0.1218544
334.50 0.1217116
334.60 0.1216901
334.70 0.1220628
334.80 0.1229376
334.90 0.1238371
335.00 0.1238485
335.10 0.1227264
335.20 0.1219198
335.30 0.1241289
335.40 0.1312214
335.50 0.1421115
335.60 0.1526507
335.70 0.1580336
335.80 0.1558924
335.90 0.1474673
336.00 0.1362859
336.10 0.1259857
336.20 0.1191109
336.30 0.1167372
336.40 0.1180201
336.50 0.1203
336.60 0.1207009
336.70 0.1185182
336.80 0.1161135
336.90 0.1170584
337.00 0.1230691
337.10 0.1323243
337.20 0.1405029
337.30 0.1437496
337.40 0.1413788
337.50 0.1363004
337.60 0.1327947
337.70 0.1333373
337.80 0.1371452
337.90 0.1416121
338.00 0.1447422
338.10 0.1459826
338.20 0.1450434
338.30 0.1409829
338.40 0.1334893
338.50 0.1247707
338.60 0.1192116
338.70 0.1202289
338.80 0.1270889
338.90 0.1351438
339.00 0.1395664
339.10 0.1393011
339.20 0.1377109
339.30 0.1392639
339.40 0.1454115
339.50 0.1536433
339.60 0.1601934
339.70 0.1631974
339.80 0.1631687
339.90 0.1611387
340.00 0.1575193
340.10 0.1527401
340.20 0.1477924
340.30 0.1434332
340.40 0.1391694
340.50 0.1337849
340.60 0.1269954
340.70 0.1201308
340.80 0.11509
340.90 0.1129543
341.00 0.1136537
341.10 0.1165287
341.20 0.1208155
341.30 0.1256159
341.40 0.1298727
341.50 0.1327759
341.60 0.1342386
341.70 0.1349322
341.80 0.1357718
341.90 0.137237
342.00 0.1389442
342.10 0.1397228
342.20 0.1383286
342.30 0.1344929
342.40 0.1294867
342.50 0.1254802
342.60 0.1240874
342.70 0.1253628
342.80 0.1280101
342.90 0.1304064
343.00 0.1315996
343.10 0.1317359
343.20 0.1317071
343.30 0.1322802
343.40 0.1334259
343.50 0.1344771
343.60 0.1348343
343.70 0.1343335
343.80 0.1331039
343.90 0.1314482
344.00 0.129918
344.10 0.1291511
344.20 0.1293154
344.30 0.1298288
344.40 0.1298726
344.50 0.1291771
344.60 0.1282427
344.70 0.1279041
344.80 0.1287986
344.90 0.1311504
345.00 0.1348371
345.10 0.1394802
345.20 0.1444652
345.30 0.1489442
345.40 0.151972
345.50 0.1529591
345.60 0.1521607
345.70 0.1506335
345.80 0.1495129
345.90 0.1492199
346.00 0.1492733
346.10 0.1487136
346.20 0.1467745
346.30 0.1434888
346.40 0.139882
346.50 0.1373768
346.60 0.1366636
346.70 0.137101
346.80 0.1373131
346.90 0.1363101
347.00 0.1339998
347.10 0.1309977
347.20 0.1283241
347.30 0.1271159
347.40 0.1280964
347.50 0.131006
347.60 0.1347239
347.70 0.1381277
347.80 0.1408417
347.90 0.1432275
348.00 0.1458034
348.10 0.1486579
348.20 0.1512616
348.30 0.1528143
348.40 0.1528918
348.50 0.1518172
348.60 0.1503281
348.70 0.1489058
348.80 0.1475506
348.90 0.1461129
349.00 0.1446048
349.10 0.1431601
349.20 0.1418983
349.30 0.140989
349.40 0.1407347
349.50 0.1413288
349.60 0.142479
349.70 0.1434521
349.80 0.1437238
349.90 0.1437177
350.00 0.144753
350.10 0.1480047
350.20 0.1533731
350.30 0.1593667
350.40 0.1641148
350.50 0.1665459
350.60 0.1667388
350.70 0.1654259
350.80 0.1633674
350.90 0.160991
351.00 0.1582265
351.10 0.15454
351.20 0.1493565
351.30 0.1428104
351.40 0.1361545
351.50 0.1311612
351.60 0.128871
351.70 0.1288617
351.80 0.129741
351.90 0.130307
352.00 0.13022
352.10 0.1297223
352.20 0.1290982
352.30 0.1285957
352.40 0.1287446
352.50 0.1305113
352.60 0.134768
352.70 0.1413887
352.80 0.1489056
352.90 0.1553259
353.00 0.1595948
353.10 0.1622666
353.20 0.1646478
353.30 0.1674644
353.40 0.1705421
353.50 0.173528
353.60 0.1764951
353.70 0.1797162
353.80 0.1831836
353.90 0.1865924
354.00 0.1895448
354.10 0.1915269
354.20 0.1919219
354.30 0.1904856
354.40 0.1878788
354.50 0.1854428
354.60 0.1841998
354.70 0.1841022
354.80 0.1843134
354.90 0.1840886
355.00 0.1832878
355.10 0.1822099
355.20 0.1811729
355.30 0.180323
355.40 0.1797298
355.50 0.1794224
355.60 0.1792241
355.70 0.1786439
355.80 0.1771042
355.90 0.17442
356.00 0.1710178
356.10 0.1675891
356.20 0.1644985
356.30 0.1614946
356.40 0.1579897
356.50 0.1537033
356.60 0.1491302
356.70 0.1453647
356.80 0.1433394
356.90 0.1431367
357.00 0.1439965
357.10 0.1449016
357.20 0.1451079
357.30 0.1442957
357.40 0.1424786
357.50 0.1399046
357.60 0.1369844
357.70 0.1341472
357.80 0.131668
357.90 0.1296057
358.00 0.1279504
358.10 0.1268834
358.20 0.1268448
358.30 0.1282454
358.40 0.1310525
358.50 0.1346419
358.60 0.1380385
358.70 0.1403325
358.80 0.1410576
358.90 0.1404151
359.00 0.1392878
359.10 0.1389081
359.20 0.1401798
359.30 0.1430482
359.40 0.1464278
359.50 0.1488807
359.60 0.1495908
359.70 0.1488682
359.80 0.147795
359.90 0.1473084
360.00 0.1474561
360.10 0.1473978
360.20 0.1461249
360.30 0.143274
360.40 0.1394368
360.50 0.1358677
360.60 0.1339045
360.70 0.1344369
360.80 0.1375063
360.90 0.1422121
361.00 0.1471535
361.10 0.1512241
361.20 0.1541336
361.30 0.1561944
361.40 0.1576789
361.50 0.1585275
361.60 0.1587271
361.70 0.1587236
361.80 0.1591795
361.90 0.1603037
362.00 0.1616039
362.10 0.1624035
362.20 0.1624642
362.30 0.162054
362.40 0.1616225
362.50 0.1615453
362.60 0.161947
362.70 0.1624862
362.80 0.1624163
362.90 0.1611805
363.00 0.1590623
363.10 0.1571018
363.20 0.156259
363.30 0.1566996
363.40 0.1578639
363.50 0.1590521
363.60 0.1598737
363.70 0.1602861
363.80 0.1603634
363.90 0.1600706
364.00 0.1592074
364.10 0.1575475
364.20 0.1550688
364.30 0.1520818
364.40 0.1491637
364.50 0.1469721
364.60 0.1459921
364.70 0.1462674
364.80 0.1473422
364.90 0.1486064
365.00 0.149852
365.10 0.1514802
365.20 0.154002
365.30 0.1572694
365.40 0.1602895
365.50 0.1619093
365.60 0.161764
365.70 0.1605531
365.80 0.1593663
365.90 0.1588016
366.00 0.1587406
366.10 0.1588439
366.20 0.1590886
366.30 0.1597215
366.40 0.160804
366.50 0.1619628
366.60 0.1625856
366.70 0.1622152
366.80 0.1607885
366.90 0.1586009
367.00 0.1561537
367.10 0.154016
367.20 0.152705
367.30 0.152553
367.40 0.1535649
367.50 0.1553888
367.60 0.1574879
367.70 0.1594188
367.80 0.1610146
367.90 0.1623567
368.00 0.1635934
368.10 0.1647587
368.20 0.1657066
368.30 0.166183
368.40 0.1659902
368.50 0.165174
368.60 0.1641015
368.70 0.1633095
368.80 0.1631784
368.90 0.1637007
369.00 0.164586
369.10 0.1656028
369.20 0.1667365
369.30 0.1679731
369.40 0.169025
369.50 0.1694025
369.60 0.1688378
369.70 0.1676153
369.80 0.1664727
369.90 0.1661839
370.00 0.1671578
370.10 0.1692782
370.20 0.1720346
370.30 0.1747965
370.40 0.17703
370.50 0.1783881
370.60 0.1787495
370.70 0.1783134
370.80 0.1776105
370.90 0.1772653
371.00 0.1775907
371.10 0.1783276
371.20 0.178743
371.30 0.17801
371.40 0.1756697
371.50 0.171938
371.60 0.1676736
371.70 0.1639773
371.80 0.1616899
371.90 0.1611199
372.00 0.1620682
372.10 0.1638859
372.20 0.165433
372.30 0.1652775
372.40 0.1623592
372.50 0.1568215
372.60 0.1502613
372.70 0.145016
372.80 0.1429753
372.90 0.1447548
373.00 0.1496479
373.10 0.1561371
373.20 0.1625215
373.30 0.1673758
373.40 0.1698365
373.50 0.1696657
373.60 0.1670975
373.70 0.1626133
373.80 0.1568391
373.90 0.1506003
374.00 0.1449286
374.10 0.1408837
374.20 0.139285
374.30 0.140567
374.40 0.1448114
374.50 0.1517768
374.60 0.1608136
374.70 0.170746
374.80 0.1799486
374.90 0.186756
375.00 0.1900318
375.10 0.189531
375.20 0.1858619
375.30 0.1801691
375.40 0.1737829
375.50 0.1679395
375.60 0.1634881
375.70 0.1606656
375.80 0.1591103
375.90 0.1581697
376.00 0.1573594
376.10 0.1567237
376.20 0.1569128
376.30 0.1589147
376.40 0.1635737
376.50 0.1712253
376.60 0.1816851
376.70 0.19436
376.80 0.2081711
376.90 0.2213355
377.00 0.2315155
377.10 0.2366149
377.20 0.2357326
377.30 0.2295094
377.40 0.2196579
377.50 0.2081558
377.60 0.1966821
377.70 0.1864516
377.80 0.1781692
377.90 0.1719914
378.00 0.1676118
378.10 0.1645332
378.20 0.1623618
378.30 0.1608828
378.40 0.1599467
378.50 0.1594321
378.60 0.1593607
378.70 0.1599606
378.80 0.1615699
378.90 0.1645669
379.00 0.1694792
379.10 0.1770454
379.20 0.1879058
379.30 0.2020345
379.40 0.2183889
379.50 0.2350592
379.60 0.249706
379.70 0.2600254
379.80 0.2642692
379.90 0.2617866
380.00 0.253355
380.10 0.2409535
380.20 0.2270116
380.30 0.2135808
380.40 0.2019041
380.50 0.1924424
380.60 0.1851126
380.70 0.1794924
380.80 0.1749748
380.90 0.1710335
381.00 0.1674832
381.10 0.1644738
381.20 0.16218
381.30 0.1605096
381.40 0.1591889
381.50 0.1581466
381.60 0.1577631
381.70 0.1584313
381.80 0.159974
381.90 0.1616616
382.00 0.1628562
382.10 0.1665457
382.20 0.1792693
382.30 0.1920438
382.40 0.2050726
382.50 0.2314321
382.60 0.2861244
382.70 0.3680468
382.80 0.4472663
382.90 0.4891674
383.00 0.4668177
383.10 0.4117019
383.20 0.4008662
383.30 0.447661
383.40 0.5299447
383.50 0.6022359
383.60 0.6178094
383.70 0.5595572
383.80 0.4553381
383.90 0.354903
384.00 0.2886128
384.10 0.2543041
384.20 0.2384999
384.30 0.2392196
384.40 0.2574056
384.50 0.2675594
384.60 0.2530485
384.70 0.1766298
384.80 0.0766564
384.90 0.006858006
385.00 0
385.10 0.04131821
385.20 0.09613818
385.30 0.1306149
385.40 0.1320858
385.50 0.1148134
385.60 0.1060736
385.70 0.1202925
385.80 0.1497598
385.90 0.1812989
386.00 0.2116999
386.10 0.2409757
386.20 0.2602385
386.30 0.2614632
386.40 0.2523939
386.50 0.2502832
386.60 0.2654987
386.70 0.2955044
386.80 0.3298437
386.90 0.349582
387.00 0.3335181
387.10 0.2791381
387.20 0.2143095
387.30 0.1772174
387.40 0.1798566
387.50 0.1986343
387.60 0.2034667
387.70 0.1892738
387.80 0.1692976
387.90 0.1496488
388.00 0.1276614
388.10 0.1169944
388.20 0.1495005
388.30 0.2320657
388.40 0.3220708
388.50 0.3697522
388.60 0.3820125
388.70 0.4115341
388.80 0.4804657
388.90 0.5434123
389.00 0.5408503
389.10 0.472184
389.20 0.392511
389.30 0.3481298
389.40 0.3376498
389.50 0.3250112
389.60 0.2760715
389.70 0.2315027
389.80 0.1901886
389.90 0.1965622
390.00 0.2531808
390.10 0.2965907
390.20 0.3314845
390.30 0.3531731
390.40 0.3628582
390.50 0.399801
390.60 0.4354947
390.70 0.426965
390.80 0.3659209
390.90 0.2854106
391.00 0.2294139
391.10 0.2271138
391.20 0.2801017
391.30 0.3123253
391.40 0.3350845
391.50 0.3385568
391.60 0.3216934
391.70 0.2972546
391.80 0.2776237
391.90 0.2691033
392.00 0.2770286
392.10 0.2935672
392.20 0.3047869
392.30 0.2847242
392.40 0.2595956
392.50 0.240641
392.60 0.218643
392.70 0.215078
392.80 0.2346971
392.90 0.2879527
393.00 0.3721438
393.10 0.518872
393.20 0.7610659
393.30 1.02672
393.40 1.195008
393.50 1.17781
393.60 0.9868127
393.70 0.7234166
393.80 0.496941
393.90 0.3527067
394.00 0.2706907
394.10 0.2196929
394.20 0.1889514
394.30 0.160648
394.40 0.1671502
394.50 0.203901
394.60 0.256367
394.70 0.3028058
394.80 0.351199
394.90 0.3737392
395.00 0.3819742
395.10 0.3800879
395.20 0.3698305
395.30 0.3588781
395.40 0.3628926
395.50 0.3602391
395.60 0.3400726
395.70 0.3313767
395.80 0.3338085
395.90 0.3394224
396.00 0.3255846
396.10 0.2918302
396.20 0.264754
396.30 0.2552024
396.40 0.2817941
396.50 0.354863
396.60 0.5016654
396.70 0.7485671
396.80 1.055744
396.90 1.309688
397.00 1.384391
397.10 1.239998
397.20 0.955741
397.30 0.6679882
397.40 0.4647665
397.50 0.3586328
397.60 0.3201338
397.70 0.3151159
397.80 0.3200811
397.90 0.3210518
398.00 0.308171
398.10 0.2765883
398.20 0.2346949
398.30 0.208608
398.40 0.224446
398.50 0.2820704
398.60 0.352492
398.70 0.4057395
398.80 0.4115014
398.90 0.4001033
399.00 0.378954
399.10 0.3611786
399.20 0.3613641
399.30 0.3764645
399.40 0.3843139
399.50 0.370955
399.60 0.345932
399.70 0.3370209
399.80 0.356981
399.90 0.3784211
400.00 0.3740917
400.10 0.3462376
400.20 0.3235838
400.30 0.3291409
400.40 0.3560538
400.50 0.3762483
400.60 0.3720787
400.70 0.3680862
400.80 0.3776836
400.90 0.3877336
401.00 0.3954525
401.10 0.394775
401.20 0.3939077
401.30 0.3828577
401.40 0.3645197
401.50 0.3430892
401.60 0.3161272
401.70 0.2731881
401.80 0.2488523
401.90 0.2521213
402.00 0.2713515
402.10 0.2874292
402.20 0.2874354
402.30 0.2731772
402.40 0.2602359
402.50 0.2658696
402.60 0.2929031
402.70 0.3273857
402.80 0.3501568
402.90 0.3501121
403.00 0.3283344
403.10 0.291383
403.20 0.2490145
403.30 0.2155748
403.40 0.2057489
403.50 0.2250159
403.60 0.2629075
403.70 0.2969555
403.80 0.3250752
403.90 0.359303
404.00 0.4000771
404.10 0.4362134
404.20 0.44896
404.30 0.434552
404.40 0.4069122
404.50 0.3803555
404.60 0.3583523
404.70 0.340931
404.80 0.3301514
404.90 0.3255916
405.00 0.3231443
405.10 0.3224783
405.20 0.3306539
405.30 0.3503487
405.40 0.3687656
405.50 0.3677583
405.60 0.3472615
405.70 0.3266498
405.80 0.3188705
405.90 0.3199734
406.00 0.3147013
406.10 0.2960456
406.20 0.2717823
406.30 0.2556921
406.40 0.2555366
406.50 0.2701531
406.60 0.2856818
406.70 0.2869536
406.80 0.2735265
406.90 0.2604596
407.00 0.2651042
407.10 0.2881419
407.20 0.3000439
407.30 0.2914652
407.40 0.2726647
407.50 0.2402916
407.60 0.2177875
407.70 0.2122299
407.80 0.2210478
407.90 0.2439896
408.00 0.278052
408.10 0.3114214
408.20 0.3301113
408.30 0.3276453
408.40 0.3102852
408.50 0.2890005
408.60 0.2708223
408.70 0.2574193
408.80 0.2498321
408.90 0.2508934
409.00 0.2580784
409.10 0.2602913
409.20 0.2492479
409.30 0.2274334
409.40 0.2082719
409.50 0.2020423
409.60 0.2106855
409.70 0.2331197
409.80 0.2731796
409.90 0.340372
410.00 0.4429323
410.10 0.5693525
410.20 0.6739846
410.30 0.6985118
410.40 0.6237563
410.50 0.4954915
410.60 0.3862608
410.70 0.3107084
410.80 0.2891754
410.90 0.2865601
411.00 0.2834179
411.10 0.2778653
411.20 0.2696332
411.30 0.2577664
411.40 0.2474953
411.50 0.2459568
411.60 0.2215724
411.70 0.1714543
411.80 0.1262908
411.90 0.09668471
412.00 0.0892797
412.10 0.1035368
412.20 0.1335515
412.30 0.1669605
412.40 0.1944533
412.50 0.2130141
412.60 0.2242399
412.70 0.230548
412.80 0.2326507
412.90 0.2307833
413.00 0.2283475
413.10 0.231383
413.20 0.2433951
413.30 0.2595462
413.40 0.2690879
413.50 0.2649741
413.60 0.2509254
413.70 0.2379723
413.80 0.2350957
413.90 0.2447171
414.00 0.2641037
414.10 0.2875953
414.20 0.2801313
414.30 0.259022
414.40 0.2316218
414.50 0.2108369
414.60 0.2092797
414.70 0.2279619
414.80 0.2335949
414.90 0.2305394
415.00 0.2361118
415.10 0.2397319
415.20 0.2371525
415.30 0.2436913
415.40 0.2545761
415.50 0.2682787
415.60 0.2848919
415.70 0.3015069
415.80 0.314248
415.90 0.3209567
416.00 0.315259
416.10 0.2996909
416.20 0.2763228
416.30 0.2507365
416.40 0.2345917
416.50 0.2375558
416.60 0.2387718
416.70 0.2562085
416.80 0.2788187
416.90 0.2893762
417.00 0.2730365
417.10 0.2300139
417.20 0.2040047
417.30 0.1940716
417.40 0.1901958
417.50 0.1967835
417.60 0.2269719
417.70 0.2773802
417.80 0.3234305
417.90 0.3313628
418.00 0.3303148
418.10 0.3318898
418.20 0.3319255
418.30 0.3169206
418.40 0.2822913
418.50 0.2406179
418.60 0.1911955
418.70 0.1681776
418.80 0.1648117
418.90 0.1676536
419.00 0.16646
419.10 0.1570044
419.20 0.1410007
419.30 0.1265117
419.40 0.1249641
419.50 0.1438394
419.60 0.177318
419.70 0.2081492
419.80 0.2245454
419.90 0.228596
420.00 0.23351
420.10 0.247761
420.20 0.266025
420.30 0.2666421
420.40 0.249945
420.50 0.2373786
420.60 0.2379309
420.70 0.2484907
420.80 0.249068
420.90 0.2501078
421.00 0.2530449
421.10 0.2496347
421.20 0.2278267
421.30 0.1884249
421.40 0.1525331
421.50 0.137612
421.60 0.1452494
421.70 0.1566969
421.80 0.1534867
421.90 0.1370686
422.00 0.124331
422.10 0.127883
422.20 0.1430445
422.30 0.1542036
422.40 0.1522185
422.50 0.141071
422.60 0.1280766
422.70 0.1007564
422.80 0.09397781
422.90 0.1031722
423.00 0.1159605
423.10 0.1215277
423.20 0.1161367
423.30 0.10437
423.40 0.09636658
423.50 0.08661302
423.60 0.07290036
423.70 0.07613179
423.80 0.09322087
423.90 0.1198391
424.00 0.1507049
424.10 0.1777271
424.20 0.1944504
424.30 0.2017966
424.40 0.1962386
424.50 0.1844804
424.60 0.1735534
424.70 0.1650127
424.80 0.1495543
424.90 0.1405999
425.00 0.142523
425.10 0.1478596
425.20 0.1487996
425.30 0.1439587
425.40 0.1395705
425.50 0.1408124
425.60 0.144877
425.70 0.1445601
425.80 0.1381614
425.90 0.1348444
426.00 0.1463503
426.10 0.1723318
426.20 0.198939
426.30 0.2116629
426.40 0.2062826
426.50 0.1905859
426.60 0.1789064
426.70 0.1860413
426.80 0.21866
426.90 0.2550302
427.00 0.2652563
427.10 0.2680416
427.20 0.2615031
427.30 0.2465896
427.40 0.2248613
427.50 0.1997728
427.60 0.1771933
427.70 0.1629977
427.80 0.1541215
427.90 0.1588144
428.00 0.1767762
428.10 0.2017399
428.20 0.2328635
428.30 0.2671912
428.40 0.2957548
428.50 0.3033598
428.60 0.2842735
428.70 0.2483712
428.80 0.216809
428.90 0.207697
429.00 0.2238417
429.10 0.2409876
429.20 0.2548254
429.30 0.2648904
429.40 0.2693474
429.50 0.2691277
429.60 0.2647921
429.70 0.2586874
429.80 0.254585
429.90 0.2501957
430.00 0.2363254
430.10 0.2113495
430.20 0.1909594
430.30 0.1936596
430.40 0.2177031
430.50 0.2415155
430.60 0.2480586
430.70 0.2416946
430.80 0.2380647
430.90 0.2440225
431.00 0.2544182
431.10 0.2633651
431.20 0.2707752
431.30 0.2782826
431.40 0.2834094
431.50 0.2816898
431.60 0.2686344
431.70 0.2512597
431.80 0.2422707
431.90 0.2439136
432.00 0.2523647
432.10 0.2569155
432.20 0.2607925
432.30 0.2569959
432.40 0.2453524
432.50 0.2366155
432.60 0.2428488
432.70 0.2639038
432.80 0.2866755
432.90 0.301536
433.00 0.3155033
433.10 0.3427342
433.20 0.3742287
433.30 0.3941262
433.40 0.4040388
433.50 0.4072554
433.60 0.4202628
433.70 0.471903
433.80 0.5696279
433.90 0.7373847
434.00 0.9229575
434.10 1.035906
434.20 1.010746
434.30 0.8581405
434.40 0.6543605
434.50 0.482388
434.60 0.3815482
434.70 0.343035
434.80 0.3376526
434.90 0.3418026
435.00 0.3438729
435.10 0.338656
435.20 0.3246293
435.30 0.3055126
435.40 0.2887426
435.50 0.2788279
435.60 0.269682
435.70 0.2566022
435.80 0.2462852
435.90 0.2547514
436.00 0.2872054
436.10 0.3237934
436.20 0.320608
436.30 0.2940755
436.40 0.2613372
436.50 0.2465411
436.60 0.2671482
436.70 0.2982203
436.80 0.309001
436.90 0.290814
437.00 0.259373
437.10 0.2371959
437.20 0.2375669
437.30 0.2580605
437.40 0.2851978
437.50 0.3079166
437.60 0.3262271
437.70 0.3439903
437.80 0.3543086
437.90 0.3454265
438.00 0.3182584
438.10 0.2959021
438.20 0.3005166
438.30 0.3311282
438.40 0.3628825
438.50 0.3808654
438.60 0.3908281
438.70 0.392487
438.80 0.3758465
438.90 0.3417344
439.00 0.3054486
439.10 0.2922716
439.20 0.3118931
439.30 0.3491839
439.40 0.3816595
439.50 0.3977245
439.60 0.401391
439.70 0.4017592
439.80 0.3995491
439.90 0.3803294
440.00 0.355276
440.10 0.3423323
440.20 0.3452659
440.30 0.3518391
440.40 0.3337022
440.50 0.3122376
440.60 0.299762
440.70 0.3012687
440.80 0.3173665
440.90 0.3221038
441.00 0.3229907
441.10 0.3192581
441.20 0.3131977
441.30 0.3138243
441.40 0.3296133
441.50 0.3615106
441.60 0.4024639
441.70 0.4420847
441.80 0.4714215
441.90 0.4841838
442.00 0.4773961
442.10 0.4538394
442.20 0.4227697
442.30 0.394921
442.40 0.3774567
442.50 0.3713593
442.60 0.372124
442.70 0.3750807
442.80 0.3795276
442.90 0.3889011
443.00 0.4071886
443.10 0.4329603
443.20 0.4581251
443.30 0.4734999
443.40 0.4764788
443.50 0.4710373
443.60 0.4706619
443.70 0.4896804
443.80 0.5023785
443.90 0.5119639
444.00 0.5162102
444.10 0.5122223
444.20 0.4959673
444.30 0.4717969
444.40 0.45647
444.50 0.4672146
444.60 0.5016933
444.70 0.539236
444.80 0.5627186
444.90 0.5688014
445.00 0.5620358
445.10 0.5435397
445.20 0.5111995
445.30 0.4699947
445.40 0.4362732
445.50 0.4279153
445.60 0.4510815
445.70 0.4867084
445.80 0.514452
445.90 0.5259694
446.00 0.5267748
446.10 0.5243667
446.20 0.5181046
446.30 0.5016332
446.40 0.4738037
446.50 0.4455474
446.60 0.4362564
446.70 0.458401
446.80 0.5036
446.90 0.5481248
447.00 0.5752159
447.10 0.5890847
447.20 0.6033698
447.30 0.621065
447.40 0.6328198
447.50 0.6319679
447.60 0.6239321
447.70 0.6219759
447.80 0.6359317
447.90 0.6634546
448.00 0.6774037
448.10 0.6894408
448.20 0.6931749
448.30 0.6789515
448.40 0.6707515
448.50 0.6696943
448.60 0.669131
448.70 0.6656684
448.80 0.66259
448.90 0.6637885
449.00 0.6690032
449.10 0.6748965
449.20 0.6776303
449.30 0.6746967
449.40 0.6663061
449.50 0.655744
449.60 0.6483161
449.70 0.6489589
449.80 0.6588955
449.90 0.6756201
450.00 0.695328
450.10 0.713506
450.20 0.7233425
450.30 0.7155166
450.40 0.6861259
450.50 0.6466841
450.60 0.6196494
450.70 0.619015
450.80 0.6388544
450.90 0.6617791
451.00 0.6754766
451.10 0.6790725
451.20 0.6763161
451.30 0.6708758
451.40 0.6677177
451.50 0.6732939
451.60 0.6913184
451.70 0.7189656
451.80 0.7494404
451.90 0.7775188
452.00 0.8005519
452.10 0.8148457
452.20 0.815753
452.30 0.8023517
452.40 0.780133
452.50 0.7569445
452.60 0.7376114
452.70 0.7251206
452.80 0.7247816
452.90 0.7407618
453.00 0.7668922
453.10 0.7847464
453.20 0.7747209
453.30 0.7326413
453.40 0.6770262
453.50 0.6405306
453.60 0.6513439
453.70 0.7162344
453.80 0.8154679
453.90 0.9149215
454.00 0.984937
454.10 1.01302
454.20 1.00514
454.30 0.9755825
454.40 0.9356906
454.50 0.8924905
454.60 0.8536546
454.70 0.8276047
454.80 0.8170329
454.90 0.8150531
455.00 0.8120646
455.10 0.8024878
455.20 0.7831442
455.30 0.7548304
455.40 0.7289262
455.50 0.7246951
455.60 0.7538714
455.70 0.8084376
455.80 0.8670545
455.90 0.912696
456.00 0.9418313
456.10 0.9618311
456.20 0.9830716
456.30 1.011267
456.40 1.045
456.50 1.078349
456.60 1.105739
456.70 1.124468
456.80 1.134844
456.90 1.139691
457.00 1.143125
457.10 1.148655
457.20 1.157052
457.30 1.163577
457.40 1.159091
457.50 1.139273
457.60 1.112793
457.70 1.096082
457.80 1.096545
457.90 1.105628
458.00 1.110986
458.10 1.107378
458.20 1.092076
458.30 1.057286
458.40 0.9950773
458.50 0.9114456
458.60 0.8289732
458.70 0.7706283
458.80 0.7422163
458.90 0.7317251
459.00 0.7264129
459.10 0.7274316
459.20 0.7424666
459.30 0.768325
459.40 0.790483
459.50 0.8005682
459.60 0.807807
459.70 0.8279027
459.80 0.8632585
459.90 0.8993442
460.00 0.919074
460.10 0.9185771
460.20 0.9094908
460.30 0.9059643
460.40 0.9090987
460.50 0.9051752
460.60 0.8834262
460.70 0.856232
460.80 0.8545192
460.90 0.8973201
461.00 0.9696504
461.10 1.036119
461.20 1.076134
461.30 1.100157
461.40 1.131747
461.50 1.180737
461.60 1.235191
461.70 1.275312
461.80 1.290839
461.90 1.286775
462.00 1.2757
462.10 1.265518
462.20 1.252295
462.30 1.223042
462.40 1.166741
462.50 1.084363
462.60 0.99022
462.70 0.9033506
462.80 0.8390296
462.90 0.8054345
463.00 0.8013999
463.10 0.8166193
463.20 0.8371072
463.30 0.8524113
463.40 0.8581267
463.50 0.8536774
463.60 0.841284
463.70 0.8278685
463.80 0.8222105
463.90 0.8289617
464.00 0.8485466
464.10 0.8797463
464.20 0.9187809
464.30 0.9572572
464.40 0.9836142
464.50 0.9895382
464.60 0.9759337
464.70 0.9519063
464.80 0.9288171
464.90 0.9143788
465.00 0.9110878
465.10 0.9193727
465.20 0.9396208
465.30 0.9692957
465.40 0.9996612
465.50 1.020261
465.60 1.028554
465.70 1.033897
465.80 1.050153
465.90 1.082186
466.00 1.121736
466.10 1.157125
466.20 1.183723
466.30 1.203361
466.40 1.215955
466.50 1.213112
466.60 1.181335
466.70 1.112432
466.80 1.013022
466.90 0.9056996
467.00 0.8159925
467.10 0.7550763
467.20 0.7175254
467.30 0.6954539
467.40 0.6883611
467.50 0.6984282
467.60 0.7226106
467.70 0.754235
467.80 0.7873121
467.90 0.8149528
468.00 0.828935
468.10 0.8279121
468.20 0.8227483
468.30 0.826679
468.40 0.8421889
468.50 0.8606487
468.60 0.874187
468.70 0.8837657
468.80 0.8947982
468.90 0.9094467
469.00 0.9262464
469.10 0.9443298
469.20 0.9635281
469.30 0.9798645
469.40 0.9877507
469.50 0.9897942
469.60 0.9991895
469.70 1.027397
469.80 1.070934
469.90 1.115702
470.00 1.152881
470.10 1.183991
470.20 1.21029
470.30 1.225374
470.40 1.221299
470.50 1.200194
470.60 1.174998
470.70 1.157295
470.80 1.149541
470.90 1.147604
471.00 1.145731
471.10 1.137465
471.20 1.116131
471.30 1.07886
471.40 1.029707
471.50 0.9772758
471.60 0.9306311
471.70 0.8999924
471.80 0.8954857
471.90 0.9197058
472.00 0.9616192
472.10 1.002019
472.20 1.027206
472.30 1.037132
472.40 1.04162
472.50 1.048431
472.60 1.055684
472.70 1.055339
472.80 1.044056
472.90 1.031028
473.00 1.032584
473.10 1.05704
473.20 1.097164
473.30 1.138435
473.40 1.17098
473.50 1.191143
473.60 1.195061
473.70 1.178501
473.80 1.145877
473.90 1.112938
474.00 1.096558
474.10 1.103689
474.20 1.13072
474.30 1.169213
474.40 1.208817
474.50 1.238735
474.60 1.252584
474.70 1.253111
474.80 1.250595
474.90 1.255004
475.00 1.268834
475.10 1.285991
475.20 1.296606
475.30 1.295714
475.40 1.287301
475.50 1.278646
475.60 1.271234
475.70 1.257242
475.80 1.222703
475.90 1.154884
476.00 1.052034
476.10 0.930563
476.20 0.8201082
476.30 0.7443571
476.40 0.696856
476.50 0.6717171
476.60 0.6553855
476.70 0.6282454
476.80 0.5997976
476.90 0.5850134
477.00 0.5860024
477.10 0.5941818
477.20 0.601515
477.30 0.6110715
477.40 0.6335446
477.50 0.6736359
477.60 0.7227209
477.70 0.7660068
477.80 0.7947136
477.90 0.8078913
478.00 0.8060355
478.10 0.7897587
478.20 0.7659102
478.30 0.7500598
478.40 0.756136
478.50 0.7826043
478.60 0.8139412
478.70 0.8374689
478.80 0.8549343
478.90 0.8776946
479.00 0.9123444
479.10 0.9527981
479.20 0.9861698
479.30 1.003315
479.40 1.004105
479.50 0.9964753
479.60 0.9910017
479.70 0.9939897
479.80 1.004577
479.90 1.018341
480.00 1.033077
480.10 1.048632
480.20 1.058853
480.30 1.048258
480.40 1.002493
480.50 0.921546
480.60 0.8218988
480.70 0.7255094
480.80 0.6481115
480.90 0.5969729
481.00 0.5740952
481.10 0.5772356
481.20 0.5990074
481.30 0.629735
481.40 0.6641238
481.50 0.7033146
481.60 0.7470209
481.70 0.7873161
481.80 0.8145789
481.90 0.8286431
482.00 0.8405158
482.10 0.8612219
482.20 0.8914636
482.30 0.9228581
482.40 0.9452233
482.50 0.9521047
482.60 0.9435214
482.70 0.9273796
482.80 0.916428
482.90 0.9180306
483.00 0.9262724
483.10 0.9304039
483.20 0.9327654
483.30 0.9495996
483.40 0.9894816
483.50 1.036904
483.60 1.066742
483.70 1.072279
483.80 1.068005
483.90 1.06484
484.00 1.053165
484.10 1.014797
484.20 0.9465906
484.30 0.8697098
484.40 0.8165868
484.50 0.8075487
484.60 0.8344871
484.70 0.8645125
484.80 0.8649096
484.90 0.8287796
485.00 0.7776793
485.10 0.7414293
485.20 0.7374888
485.30 0.765523
485.40 0.8135901
485.50 0.8666252
485.60 0.914064
485.70 0.9620714
485.80 1.047224
485.90 1.226448
486.00 1.522905
486.10 1.865419
486.20 2.100778
486.30 2.101227
486.40 1.871254
486.50 1.538263
486.60 1.241773
486.70 1.044182
486.80 0.936306
486.90 0.8921418
487.00 0.8978953
487.10 0.9425228
487.20 1.00545
487.30 1.060761
487.40 1.088851
487.50 1.083796
487.60 1.053008
487.70 1.012913
487.80 0.9820795
487.90 0.972901
488.00 0.9847487
488.10 1.004792
488.20 1.019259
488.30 1.025589
488.40 1.032869
488.50 1.050199
488.60 1.077071
488.70 1.1053
488.80 1.128862
488.90 1.149803
489.00 1.172764
489.10 1.194618
489.20 1.204055
489.30 1.194572
489.40 1.175552
489.50 1.165642
489.60 1.173932
489.70 1.191914
489.80 1.205017
489.90 1.206361
490.00 1.198572
490.10 1.189335
490.20 1.188704
490.30 1.205421
490.40 1.239337
490.50 1.27854
490.60 1.309746
490.70 1.331456
490.80 1.352702
490.90 1.380501
491.00 1.412802
491.10 1.443781
491.20 1.47065
491.30 1.491715
491.40 1.502465
491.50 1.499119
491.60 1.484974
491.70 1.470566
491.80 1.467486
491.90 1.482909
492.00 1.517881
492.10 1.566607
492.20 1.616545
492.30 1.654147
492.40 1.67587
492.50 1.693686
492.60 1.724943
492.70 1.771998
492.80 1.815239
492.90 1.8312
493.00 1.815344
493.10 1.783481
493.20 1.753794
493.30 1.734753
493.40 1.728332
493.50 1.734338
493.60 1.747633
493.70 1.75794
493.80 1.758918
493.90 1.755626
494.00 1.759884
494.10 1.779741
494.20 1.815345
494.30 1.862073
494.40 1.913514
494.50 1.963255
494.60 2.008022
494.70 2.049886
494.80 2.0933
494.90 2.138353
495.00 2.176369
495.10 2.187108
495.20 2.137397
495.30 1.991709
495.40 1.738296
495.50 1.411226
495.60 1.0817
495.70 0.8196819
495.80 0.6591998
495.90 0.5936538
496.00 0.5929426
496.10 0.6218426
496.20 0.6524537
496.30 0.6716304
496.40 0.6823774
496.50 0.6977505
496.60 0.7309085
496.70 0.787309
496.80 0.8596492
496.90 0.9288176
497.00 0.9762173
497.10 1.000047
497.20 1.017035
497.30 1.045114
497.40 1.086363
497.50 1.127251
497.60 1.151208
497.70 1.149152
497.80 1.122303
497.90 1.081067
498.00 1.040769
498.10 1.013807
498.20 1.005263
498.30 1.015908
498.40 1.044642
498.50 1.085191
498.60 1.125218
498.70 1.154654
498.80 1.175607
498.90 1.199282
499.00 1.232689
499.10 1.271844
499.20 1.307856
499.30 1.336228
499.40 1.358122
499.50 1.374322
499.60 1.368501
499.70 1.298367
499.80 1.119452
499.90 0.8323861
500.00 1
500.10 0.8147485
500.20 0.868733
500.30 0.9580515
500.40 0.8840125
500.50 0.8215903
500.60 0.8399548
500.70 0.7948588
500.80 0.8415465
500.90 0.9276344
501.00 1.044162
501.10 0.9760435
501.20 0.9559617
501.30 0.9684032
501.40 0.9648472
501.50 0.9087032
501.60 0.9330583
501.70 0.9842519
501.80 0.9908561
501.90 1.024155
502.00 1.040609
502.10 1.151075
502.20 1.150479
502.30 1.095285
502.40 1.124511
502.50 1.127333
502.60 1.085834
502.70 1.096758
502.80 1.122403
502.90 1.090644
503.00 1.069153
503.10 1.043633
503.20 1.181485
503.30 1.170277
503.40 1.130377
503.50 1.273706
503.60 1.346155
503.70 1.218939
503.80 1.211925
503.90 1.292323
504.00 1.275279
504.10 1.340272
504.20 1.433785
504.30 1.390691
504.40 1.43817
504.50 1.500298
504.60 1.533774
504.70 1.625431
504.80 1.669626
504.90 1.440147
505.00 1.274795
505.10 1.258734
505.20 1.314755
505.30 1.323964
505.40 1.386173
505.50 1.42787
505.60 1.307368
505.70 1.266353
505.80 1.342583
505.90 1.363988
506.00 1.354927
506.10 1.383321
506.20 1.513614
506.30 1.470165
506.40 1.415179
506.50 1.425224
506.60 1.439067
506.70 1.444998
506.80 1.426385
506.90 1.495315
507.00 1.435244
507.10 1.339377
507.20 1.45534
507.30 1.423414
507.40 1.382954
507.50 1.542772
507.60 1.58448
507.70 1.447123
507.80 1.465862
507.90 1.55771
508.00 1.578956
508.10 1.453
508.20 1.372408
508.30 1.396063
508.40 1.453435
508.50 1.553047
508.60 1.582261
508.70 1.525002
508.80 1.493318
508.90 1.497604
509.00 1.425966
509.10 1.43581
509.20 1.56938
509.30 1.611043
509.40 1.590969
509.50 1.52193
509.60 1.38465
509.70 1.307293
509.80 1.496304
509.90 1.595772
510.00 1.609194
510.10 1.544542
510.20 1.469432
510.30 1.488076
510.40 1.51354
510.50 1.447802
510.60 1.397272
510.70 1.458257
510.80 1.423655
510.90 1.434281
511.00 1.478246
511.10 1.461072
511.20 1.436779
511.30 1.457841
511.40 1.536089
511.50 1.584968
511.60 1.655891
511.70 1.715564
511.80 1.75667
511.90 1.66301
512.00 1.596642
512.10 1.553161
512.20 1.569536
512.30 1.608718
512.40 1.585639
512.50 1.472652
512.60 1.479075
512.70 1.467809
512.80 1.414159
512.90 1.457977
513.00 1.43998
513.10 1.365768
513.20 1.542347
513.30 1.772437
513.40 1.735426
513.50 1.639461
513.60 1.644027
513.70 1.762066
513.80 1.917919
513.90 1.865447
514.00 1.717093
514.10 1.736515
514.20 1.715619
514.30 1.661686
514.40 1.656303
514.50 1.582261
514.60 1.535357
514.70 1.50883
514.80 1.620727
514.90 1.708788
515.00 1.694551
515.10 1.628581
515.20 1.624803
515.30 1.524839
515.40 1.37347
515.50 1.40081
515.60 1.491028
515.70 1.538229
515.80 1.76046
515.90 1.932866
516.00 1.964859
516.10 2.042745
516.20 2.172148
516.30 2.135365
516.40 2.08734
516.50 2.165256
516.60 2.049914
516.70 1.574431
516.80 1.089858
516.90 0.7681155
517.00 0.6752546
517.10 0.6727231
517.20 0.6326775
517.30 0.6002241
517.40 0.5515058
517.50 0.5802758
517.60 0.5892707
517.70 0.5968481
517.80 0.5960066
517.90 0.6195667
518.00 0.6167887
518.10 0.6722737
518.20 0.7108467
518.30 0.7778495
518.40 0.7739772
518.50 0.8449036
518.60 0.9472897
518.70 1.028884
518.80 1.008523
518.90 1.099232
519.00 1.163235
519.10 1.195714
519.20 1.210446
519.30 1.174813
519.40 1.09511
519.50 1.160686
519.60 1.196037
519.70 1.334364
519.80 1.498745
519.90 1.516101
520.00 1.384974
520.10 1.331858
520.20 1.328356
520.30 1.195332
520.40 1.084518
520.50 1.082689
520.60 1.03323
520.70 0.8424031
520.80 0.7927155
520.90 0.8136094
521.00 0.8708991
521.10 0.9157387
521.20 1.126515
521.30 1.415858
521.40 1.634772
521.50 1.761201
521.60 1.781582
521.70 1.737346
521.80 1.746313
521.90 1.803241
522.00 1.810026
522.10 1.863247
522.20 1.993181
522.30 2.042963
522.40 2.020457
522.50 1.848788
522.60 1.752089
522.70 1.693253
522.80 1.784503
522.90 1.914221
523.00 2.031943
523.10 2.200686
523.20 2.142706
523.30 1.970499
523.40 1.925029
523.50 1.974538
523.60 2.032566
523.70 2.079087
523.80 2.026076
523.90 2.019452
524.00 2.044056
524.10 1.930525
524.20 1.598632
524.30 1.465624
524.40 1.542429
524.50 1.714966
524.60 1.771624
524.70 1.669747
524.80 1.608969
524.90 1.610413
525.00 1.675224
525.10 1.715839
525.20 1.751489
525.30 1.778461
525.40 1.7844
525.50 1.933554
525.60 2.089039
525.70 2.134332
525.80 2.00849
525.90 1.975128
526.00 1.950733
526.10 1.866707
526.20 1.712515
526.30 1.691758
526.40 1.744394
526.50 1.617927
526.60 1.507459
526.70 1.54213
526.80 1.635792
526.90 1.673062
527.00 1.434959
527.10 1.326019
527.20 1.519904
527.30 1.822354
527.40 2.009231
527.50 2.083054
527.60 2.000216
527.70 1.985196
527.80 1.931414
527.90 1.955183
528.00 1.978936
528.10 1.966322
528.20 1.963778
528.30 1.884604
528.40 1.898866
528.50 2.020755
528.60 2.191571
528.70 2.229717
528.80 2.237883
528.90 2.233302
529.00 2.221952
529.10 2.228099
529.20 2.255865
529.30 2.246896
529.40 2.198759
529.50 2.251488
529.60 2.296847
529.70 2.206194
529.80 1.964608
529.90 1.930631
530.00 2.048896
530.10 2.078531
530.20 2.044042
530.30 2.196079
530.40 2.388463
530.50 2.398778
530.60 2.341361
530.70 2.268029
530.80 2.19309
530.90 2.116232
531.00 2.082946
531.10 2.091687
531.20 2.09536
531.30 2.040343
531.40 2.144906
531.50 2.159561
531.60 2.141505
531.70 2.183905
531.80 2.173524
531.90 2.188768
532.00 2.18365
532.10 2.108335
532.20 2.113494
532.30 2.138847
532.40 2.191347
532.50 2.188232
532.60 2.1669
532.70 2.123841
532.80 2.028528
532.90 1.855145
533.00 1.863425
533.10 2.106164
533.20 2.219329
533.30 2.089194
533.40 2.071449
533.50 2.114081
533.60 2.162767
533.70 2.20752
533.80 2.18658
533.90 2.188003
534.00 2.148705
534.10 2.151029
534.20 2.1667
534.30 2.235125
534.40 2.329119
534.50 2.366065
534.60 2.274488
534.70 2.188515
534.80 2.155631
534.90 2.251695
535.00 2.431526
535.10 2.421892
535.20 2.511619
535.30 2.627433
535.40 2.708014
535.50 2.749014
535.60 2.707431
535.70 2.624194
535.80 2.575634
535.90 2.446438
536.00 2.28599
536.10 2.156248
536.20 2.171126
536.30 2.329005
536.40 2.356831
536.50 2.25893
536.60 2.286718
536.70 2.389
536.80 2.421235
536.90 2.375305
537.00 2.34697
537.10 2.341452
537.20 2.143155
537.30 2.055841
537.40 2.248571
537.50 2.557056
537.60 2.694836
537.70 2.564836
537.80 2.480872
537.90 2.519179
538.00 2.651822
538.10 2.829577
538.20 2.856235
538.30 2.75944
538.40 2.694925
538.50 2.693703
538.60 2.692665
538.70 2.780558
538.80 2.738074
538.90 2.767862
539.00 2.806399
539.10 2.739696
539.20 2.726417
539.30 2.733404
539.40 2.639437
539.50 2.653352
539.60 2.604461
539.70 2.439633
539.80 2.298827
539.90 2.494291
540.00 2.788264
540.10 2.947237
540.20 2.960767
540.30 2.977565
540.40 2.97522
540.50 2.918368
540.60 2.764908
540.70 2.518425
540.80 2.550816
540.90 2.783381
541.00 2.708362
541.10 2.537309
541.20 2.498997
541.30 2.538282
541.40 2.61405
541.50 2.709527
541.60 2.877801
541.70 2.997745
541.80 2.915935
541.90 2.838492
542.00 2.921043
542.10 3.029441
542.20 3.029351
542.30 2.973107
542.40 2.901077
542.50 2.886106
542.60 2.839056
542.70 2.898531
542.80 3.083722
542.90 3.093429
543.00 2.843088
543.10 2.648797
543.20 2.596717
543.30 2.718634
543.40 2.809325
543.50 2.762898
543.60 2.793433
543.70 3.034348
543.80 3.1664
543.90 3.038522
544.00 3.063667
544.10 3.25685
544.20 3.342759
544.30 3.470853
544.40 3.510922
544.50 3.441875
544.60 3.253562
544.70 2.874908
544.80 2.363089
544.90 1.884075
545.00 1.56137
545.10 1.436276
545.20 1.324211
545.30 1.261098
545.40 1.290614
545.50 1.334085
545.60 1.379723
545.70 1.440572
545.80 1.446111
545.90 1.414406
546.00 1.402844
546.10 1.410654
546.20 1.451214
546.30 1.468929
546.40 1.557358
546.50 1.731452
546.60 1.803088
546.70 1.872894
546.80 1.973089
546.90 1.960902
547.00 1.837318
547.10 1.763705
547.20 1.699174
547.30 1.798877
547.40 1.916886
547.50 1.877148
547.60 1.742245
547.70 1.739577
547.80 1.751021
547.90 1.740538
548.00 1.700116
548.10 1.777364
548.20 1.923799
548.30 2.035397
548.40 1.973357
548.50 2.003132
548.60 2.097268
548.70 2.088344
548.80 1.961134
548.90 1.888464
549.00 1.904062
549.10 2.006916
549.20 2.071973
549.30 2.072327
549.40 2.01941
549.50 1.968481
549.60 1.846521
549.70 1.757622
549.80 1.660938
549.90 1.512781
550.00 1.403171
550.10 1.296779
550.20 1.209933
550.30 1.148296
550.40 1.186345
550.50 1.307992
550.60 1.291685
550.70 1.245511
550.80 1.238483
550.90 1.229732
551.00 1.218398
551.10 1.209986
551.20 1.211622
551.30 1.150088
551.40 1.104605
551.50 1.049006
551.60 1.005264
551.70 0.980185
551.80 1.026422
551.90 1.103245
552.00 1.060181
552.10 1.028787
552.20 1.037621
552.30 1.015833
552.40 1.027176
552.50 0.9893562
552.60 0.9251327
552.70 0.9636859
552.80 1.073558
552.90 1.041215
553.00 1.018073
553.10 1.013392
553.20 1.059817
553.30 1.052445
553.40 0.9172952
553.50 0.8290805
553.60 0.8660554
553.70 0.8670717
553.80 0.8842097
553.90 0.9177785
554.00 0.8283615
554.10 0.7872934
554.20 0.8470249
554.30 0.8211121
554.40 0.7980971
554.50 0.8206437
554.60 0.9315473
554.70 0.905812
554.80 0.929287
554.90 0.9289695
555.00 0.8847166
555.10 0.9076053
555.20 1.043977
555.30 1.016954
555.40 0.93029
555.50 0.9488958
555.60 1.024588
555.70 1.134961
555.80 1.142743
555.90 1.229568
556.00 1.265254
556.10 1.283776
556.20 1.354698
556.30 1.408813
556.40 1.389774
556.50 1.414174
556.60 1.474456
556.70 1.580707
556.80 1.611237
556.90 1.595192
557.00 1.648473
557.10 1.750924
557.20 1.773049
557.30 1.768864
557.40 1.768493
557.50 1.768492
557.60 1.768492
557.70 1.768492
557.80 1.768492
557.90 1.768492
558.00 1.768492
558.10 1.768489
558.20 1.768281
558.30 1.767282
558.40 1.761727
558.50 1.855112
558.60 2.005175
558.70 2.077815
558.80 2.146114
558.90 2.107851
559.00 2.08511
559.10 2.125534
559.20 2.093729
559.30 2.067003
559.40 2.119738
559.50 2.097896
559.60 1.973801
559.70 1.980536
559.80 1.903633
559.90 1.609402
560.00 1.422378
560.10 1.519872
560.20 1.606719
560.30 1.629998
560.40 1.667555
560.50 1.690612
560.60 1.628911
560.70 1.740905
560.80 1.814989
560.90 1.81859
561.00 1.712756
561.10 1.709447
561.20 1.78338
561.30 1.839431
561.40 1.880825
561.50 1.85612
561.60 1.831047
561.70 1.658453
561.80 1.550549
561.90 1.617216
562.00 1.673314
562.10 1.58766
562.20 1.563996
562.30 1.637731
562.40 1.643309
562.50 1.641762
562.60 1.718771
562.70 1.834699
562.80 1.889584
562.90 1.750211
563.00 1.511566
563.10 1.463669
563.20 1.469383
563.30 1.550316
563.40 1.672085
563.50 1.773379
563.60 1.738558
563.70 1.688717
563.80 1.664371
563.90 1.604633
564.00 1.594585
564.10 1.676385
564.20 1.702623
564.30 1.658336
564.40 1.606728
564.50 1.719613
564.60 1.826135
564.70 1.843799
564.80 1.78581
564.90 1.829485
565.00 1.909171
565.10 1.94189
565.20 1.91329
565.30 1.902537
565.40 1.979763
565.50 2.022448
565.60 2.086022
565.70 2.088642
565.80 2.054663
565.90 2.093234
566.00 2.1653
566.10 2.191966
566.20 2.127234
566.30 2.033886
566.40 1.840642
566.50 1.757883
566.60 1.778146
566.70 1.842057
566.80 1.803554
566.90 1.676568
567.00 1.655143
567.10 1.676679
567.20 1.655881
567.30 1.65272
567.40 1.779149
567.50 1.834047
567.60 1.836938
567.70 1.80022
567.80 1.905642
567.90 1.981678
568.00 1.929551
568.10 1.900607
568.20 1.91978
568.30 1.951894
568.40 1.945773
568.50 2.055974
568.60 2.246285
568.70 2.220462
568.80 2.084508
568.90 1.894107
569.00 1.842295
569.10 1.937113
569.20 1.971802
569.30 1.988935
569.40 2.027438
569.50 2.091638
569.60 2.152301
569.70 2.196248
569.80 2.269462
569.90 2.275991
570.00 2.20027
570.10 2.252062
570.20 2.379021
570.30 2.446322
570.40 2.362564
570.50 2.348596
570.60 2.365914
570.70 2.442144
570.80 2.443501
570.90 2.501479
571.00 2.562828
571.10 2.572923
571.20 2.569295
571.30 2.486561
571.40 2.452441
571.50 2.39522
571.60 2.387169
571.70 2.353625
571.80 2.183791
571.90 2.083682
572.00 2.106857
572.10 2.155447
572.20 2.230157
572.30 2.325068
572.40 2.267742
572.50 2.175893
572.60 2.203044
572.70 2.238597
572.80 2.253205
572.90 2.298621
573.00 2.344562
573.10 2.387139
573.20 2.452106
573.30 2.530194
573.40 2.494655
573.50 2.475069
573.60 2.462702
573.70 2.375659
573.80 2.307941
573.90 2.241249
574.00 2.369412
574.10 2.430533
574.20 2.351898
574.30 2.272876
574.40 2.282389
574.50 2.302461
574.60 2.45835
574.70 2.636193
574.80 2.596672
574.90 2.657356
575.00 2.800672
575.10 2.806705
575.20 2.665794
575.30 2.674789
575.40 2.822372
575.50 2.884209
575.60 2.858728
575.70 2.870681
575.80 2.848136
575.90 2.738847
576.00 2.522192
576.10 2.397138
576.20 2.298538
576.30 2.181508
576.40 1.959322
576.50 1.841495
576.60 1.872692
576.70 1.815631
576.80 1.835413
576.90 2.039757
577.00 2.230015
577.10 2.165156
577.20 2.132941
577.30 2.253209
577.40 2.334695
577.50 2.267485
577.60 2.16791
577.70 2.169142
577.80 2.219444
577.90 2.279423
578.00 2.206099
578.10 2.216651
578.20 2.338133
578.30 2.469141
578.40 2.586883
578.50 2.662354
578.60 2.606427
578.70 2.457501
578.80 2.436743
578.90 2.488914
579.00 2.466951
579.10 2.457393
579.20 2.483487
579.30 2.552348
579.40 2.650652
579.50 2.739407
579.60 2.737845
579.70 2.7079
579.80 2.734902
579.90 2.8796
580.00 2.893297
580.10 2.842858
580.20 2.890331
580.30 2.937165
580.40 2.952572
580.50 2.9236
580.60 2.982591
580.70 3.054267
580.80 3.019791
580.90 2.932907
581.00 2.886771
581.10 2.612727
581.20 2.312941
581.30 2.240664
581.40 2.205574
581.50 2.12131
581.60 2.022089
581.70 1.973777
581.80 1.934916
581.90 1.924109
582.00 2.040142
582.10 2.0205
582.20 1.933643
582.30 1.922579
582.40 1.921641
582.50 2.047368
582.60 2.141757
582.70 2.148377
582.80 2.094486
582.90 2.187002
583.00 2.198586
583.10 2.179876
583.20 2.207349
583.30 2.244834
583.40 2.181205
583.50 2.244331
583.60 2.473217
583.70 2.487242
583.80 2.398287
583.90 2.341198
584.00 2.177956
584.10 2.052494
584.20 2.013666
584.30 2.099881
584.40 2.141362
584.50 2.145069
584.60 2.238077
584.70 2.28439
584.80 2.084528
584.90 1.718047
585.00 1.523111
585.10 1.402474
585.20 1.402379
585.30 1.442703
585.40 1.471178
585.50 1.479547
585.60 1.490742
585.70 1.488033
585.80 1.50959
585.90 1.552656
586.00 1.544439
586.10 1.614978
586.20 1.65252
586.30 1.553695
586.40 1.376509
586.50 1.316144
586.60 1.393389
586.70 1.516995
586.80 1.454905
586.90 1.372068
587.00 1.445264
587.10 1.515861
587.20 1.423508
587.30 1.357226
587.40 1.286657
587.50 1.204874
587.60 1.260081
587.70 1.358238
587.80 1.31815
587.90 1.203126
588.00 1.112917
588.10 1.108448
588.20 1.085802
588.30 1.033942
588.40 1.035201
588.50 0.9995534
588.60 0.9623962
588.70 0.9304341
588.80 0.8128378
588.90 0.5997177
589.00 0.4612716
589.10 0.6614925
589.20 0.8109655
589.30 0.6367059
589.40 0.5358237
589.50 0.5246957
589.60 0.6139394
589.70 0.6944171
589.80 0.7101729
589.90 0.6242376
590.00 0.6923411
590.10 0.8356857
590.20 0.8411203
590.30 0.8985558
590.40 0.9880312
590.50 0.9985173
590.60 0.9400992
590.70 0.8414932
590.80 0.8703073
590.90 0.9102019
591.00 0.9678837
591.10 0.986761
591.20 1.030648
591.30 1.089116
591.40 1.041332
591.50 1.053969
591.60 1.065048
591.70 1.1659
591.80 1.235635
591.90 1.161557
592.00 1.117032
592.10 1.210209
592.20 1.274841
592.30 1.134864
592.40 1.068709
592.50 1.169622
592.60 1.173547
592.70 1.127063
592.80 1.150533
592.90 1.214975
593.00 1.212309
593.10 1.151912
593.20 1.160579
593.30 1.221867
593.40 1.321168
593.50 1.414731
593.60 1.409886
593.70 1.285602
593.80 1.243719
593.90 1.385543
594.00 1.479859
594.10 1.480967
594.20 1.50661
594.30 1.457416
594.40 1.489512
594.50 1.595974
594.60 1.618612
594.70 1.530167
594.80 1.46091
594.90 1.481738
595.00 1.379684
595.10 1.324317
595.20 1.344065
595.30 1.436212
595.40 1.466183
595.50 1.422723
595.60 1.35927
595.70 1.198847
595.80 1.138064
595.90 1.168466
596.00 1.238996
596.10 1.279187
596.20 1.346283
596.30 1.390965
596.40 1.371006
596.50 1.300982
596.60 1.334694
596.70 1.393977
596.80 1.431306
596.90 1.455423
597.00 1.434275
597.10 1.473703
597.20 1.525889
597.30 1.518078
597.40 1.440724
597.50 1.377517
597.60 1.412109
597.70 1.445852
597.80 1.491071
597.90 1.436056
598.00 1.406324
598.10 1.383268
598.20 1.488079
598.30 1.556979
598.40 1.548422
598.50 1.536008
598.60 1.577044
598.70 1.625686
598.80 1.570605
598.90 1.543892
599.00 1.567905
599.10 1.57988
599.20 1.572264
599.30 1.640035
599.40 1.744025
599.50 1.840746
599.60 1.915324
599.70 1.918768
599.80 1.87925
599.90 1.748158
600.00 1.66384
600.10 1.633018
600.20 1.613203
600.30 1.633215
600.40 1.654542
600.50 1.687649
600.60 1.658368
600.70 1.633878
600.80 1.557719
600.90 1.511982
601.00 1.590139
601.10 1.712383
601.20 1.752371
601.30 1.746128
601.40 1.713498
601.50 1.695258
601.60 1.71721
601.70 1.775589
601.80 1.774581
601.90 1.789682
602.00 1.85706
602.10 1.941439
602.20 1.930772
602.30 1.921441
602.40 1.85911
602.50 1.83061
602.60 1.85372
602.70 1.922309
602.80 1.989906
602.90 1.974416
603.00 1.913301
603.10 1.945674
603.20 1.990387
603.30 2.006179
603.40 1.987522
603.50 1.970097
603.60 1.969466
603.70 1.854538
603.80 1.793246
603.90 1.858498
604.00 1.921733
604.10 1.986287
604.20 2.03468
604.30 2.102706
604.40 2.043915
604.50 2.015789
604.60 2.101431
604.70 2.120053
604.80 2.107283
604.90 2.164849
605.00 2.274342
605.10 2.313119
605.20 2.258128
605.30 2.260305
605.40 2.234231
605.50 2.203435
605.60 2.246395
605.70 2.252694
605.80 2.244746
605.90 2.301281
606.00 2.414096
606.10 2.395327
606.20 2.334637
606.30 2.310212
606.40 2.260355
606.50 2.176123
606.60 2.114747
606.70 2.07528
606.80 2.095408
606.90 2.237172
607.00 2.373104
607.10 2.411287
607.20 2.388325
607.30 2.3987
607.40 2.346827
607.50 2.311116
607.60 2.33507
607.70 2.420719
607.80 2.472754
607.90 2.431317
608.00 2.330306
608.10 2.158718
608.20 2.072396
608.30 2.052763
608.40 2.054333
608.50 2.139886
608.60 2.246226
608.70 2.280733
608.80 2.255654
608.90 2.299872
609.00 2.383832
609.10 2.336669
609.20 2.289535
609.30 2.330225
609.40 2.446783
609.50 2.443682
609.60 2.437912
609.70 2.463829
609.80 2.447714
609.90 2.44931
610.00 2.514889
610.10 2.490814
610.20 2.35808
610.30 2.229765
610.40 2.246485
610.50 2.249553
610.60 2.262803
610.70 2.339586
610.80 2.460407
610.90 2.466255
611.00 2.374169
611.10 2.302642
611.20 2.264252
611.30 2.280904
611.40 2.3553
611.50 2.357428
611.60 2.337813
611.70 2.235348
611.80 2.121391
611.90 2.075925
612.00 2.102736
612.10 2.157905
612.20 2.144759
612.30 2.098227
612.40 2.095387
612.50 2.114462
612.60 2.198862
612.70 2.284994
612.80 2.308888
612.90 2.300465
613.00 2.290778
613.10 2.293922
613.20 2.328173
613.30 2.249697
613.40 2.114302
613.50 2.090361
613.60 2.168674
613.70 2.247262
613.80 2.27355
613.90 2.273657
614.00 2.28297
614.10 2.25431
614.20 2.186535
614.30 2.142745
614.40 2.164706
614.50 2.228126
614.60 2.27575
614.70 2.221172
614.80 2.017889
614.90 1.897263
615.00 1.80633
615.10 1.746349
615.20 1.726793
615.30 1.758288
615.40 1.799489
615.50 1.793112
615.60 1.815236
615.70 1.690328
615.80 1.557985
615.90 1.532213
616.00 1.431288
616.10 1.235367
616.20 1.106095
616.30 1.073471
616.40 1.080779
616.50 1.112717
616.60 1.164059
616.70 1.187238
616.80 1.157267
616.90 1.189623
617.00 1.201473
617.10 1.225033
617.20 1.168599
617.30 1.125283
617.40 1.152275
617.50 1.081838
617.60 1.036765
617.70 1.100118
617.80 1.153021
617.90 1.134576
618.00 1.200661
618.10 1.248821
618.20 1.295168
618.30 1.27718
618.40 1.154505
618.50 1.08494
618.60 1.072043
618.70 1.048831
618.80 0.9847864
618.90 0.9625628
619.00 0.9721575
619.10 0.9564258
619.20 0.9849885
619.30 0.9766471
619.40 0.9802036
619.50 0.984595
619.60 1.005887
619.70 1.007035
619.80 0.9902949
619.90 1.014359
620.00 1.033656
620.10 1.038782
620.20 1.044409
620.30 1.096648
620.40 1.075528
620.50 1.090954
620.60 1.150708
620.70 1.173634
620.80 1.129861
620.90 1.096605
621.00 1.109638
621.10 1.075481
621.20 1.054158
621.30 1.06258
621.40 1.016977
621.50 0.9834165
621.60 0.9746787
621.70 0.9774446
621.80 1.004624
621.90 1.013807
622.00 0.9938622
622.10 1.033383
622.20 1.038782
622.30 1.000521
622.40 0.9270167
622.50 0.922059
622.60 0.9387521
622.70 0.9433809
622.80 0.8969967
622.90 0.86316
623.00 0.9154519
623.10 0.9430821
623.20 0.9640169
623.30 0.9951213
623.40 0.954435
623.50 0.8969864
623.60 0.9736618
623.70 1.039438
623.80 1.063637
623.90 1.088284
624.00 1.026955
624.10 0.9430597
624.20 0.9691429
624.30 1.073967
624.40 1.057295
624.50 0.9683319
624.60 0.9572689
624.70 1.018626
624.80 1.067715
624.90 1.111445
625.00 1.116874
625.10 1.132234
625.20 1.108045
625.30 1.113453
625.40 1.135787
625.50 1.082357
625.60 1.094301
625.70 1.13047
625.80 1.164855
625.90 1.144841
626.00 1.151537
626.10 1.145498
626.20 1.143579
626.30 1.238436
626.40 1.340873
626.50 1.346256
626.60 1.332388
626.70 1.356138
626.80 1.40308
626.90 1.378626
627.00 1.343439
627.10 1.338213
627.20 1.321935
627.30 1.308239
627.40 1.353962
627.50 1.450755
627.60 1.430871
627.70 1.355371
627.80 1.276737
627.90 1.261358
628.00 1.285784
628.10 1.389878
628.20 1.48255
628.30 1.467461
628.40 1.467668
628.50 1.56783
628.60 1.62618
628.70 1.624961
628.80 1.606561
628.90 1.716069
629.00 1.779733
629.10 1.699706
629.20 1.596773
629.30 1.607826
629.40 1.698898
629.50 1.75279
629.60 1.751191
629.70 1.715974
629.80 1.771731
629.90 1.749219
630.00 1.678474
630.10 1.799648
630.20 2.082004
630.30 2.285776
630.40 2.077154
630.50 1.968573
630.60 2.025131
630.70 2.109261
630.80 2.242362
630.90 2.283197
631.00 2.296171
631.10 2.265068
631.20 2.289247
631.30 2.376957
631.40 2.469776
631.50 2.547287
631.60 2.562174
631.70 2.582524
631.80 2.665896
631.90 2.705028
632.00 2.668851
632.10 2.62626
632.20 2.584365
632.30 2.531693
632.40 2.485838
632.50 2.489026
632.60 2.555437
632.70 2.628911
632.80 2.678086
632.90 2.705662
633.00 2.71256
633.10 2.77124
633.20 2.835462
633.30 2.878433
633.40 2.881978
633.50 2.911237
633.60 2.948124
633.70 2.975771
633.80 3.027856
633.90 3.073117
634.00 3.089435
634.10 3.13347
634.20 3.206772
634.30 3.285532
634.40 3.350538
634.50 3.367194
634.60 3.380107
634.70 3.382787
634.80 3.383666
634.90 3.481801
635.00 3.526193
635.10 3.467894
635.20 3.378873
635.30 3.287236
635.40 3.156162
635.50 3.025421
635.60 2.97915
635.70 2.934106
635.80 2.89907
635.90 2.899345
636.00 2.905211
636.10 2.828154
636.20 2.717058
636.30 2.697972
636.40 2.848758
636.50 3.054826
636.60 3.141622
636.70 3.016456
636.80 2.826394
636.90 2.827748
637.00 2.964841
637.10 3.041
637.20 3.019951
637.30 3.038436
637.40 3.113278
637.50 3.11542
637.60 3.054473
637.70 3.032654
637.80 3.028174
637.90 3.028711
638.00 2.948445
638.10 2.788063
638.20 2.692712
638.30 2.646199
638.40 2.617433
638.50 2.646921
638.60 2.691665
638.70 2.696707
638.80 2.65597
638.90 2.621452
639.00 2.638272
639.10 2.703973
639.20 2.798129
639.30 2.89257
639.40 2.940268
639.50 3.049742
639.60 3.217834
639.70 3.369209
639.80 3.442691
639.90 3.414184
640.00 3.387866
640.10 3.374142
640.20 3.411728
640.30 3.516295
640.40 3.57125
640.50 3.611326
640.60 3.668175
640.70 3.725435
640.80 3.768929
640.90 3.776034
641.00 3.769135
641.10 3.764851
641.20 3.781697
641.30 3.760685
641.40 3.743148
641.50 3.714114
641.60 3.661505
641.70 3.596311
641.80 3.549123
641.90 3.483806
642.00 3.409117
642.10 3.375809
642.20 3.348224
642.30 3.278019
642.40 3.215103
642.50 3.277556
642.60 3.383089
642.70 3.424659
642.80 3.417603
642.90 3.412968
643.00 3.480561
643.10 3.578849
643.20 3.630381
643.30 3.632569
643.40 3.622223
643.50 3.648964
643.60 3.714834
643.70 3.725198
643.80 3.687272
643.90 3.628613
644.00 3.615611
644.10 3.688747
644.20 3.815107
644.30 3.932101
644.40 4.054589
644.50 4.147332
644.60 4.151992
644.70 4.075521
644.80 3.934041
644.90 3.818359
645.00 3.748121
645.10 3.728643
645.20 3.776409
645.30 3.853768
645.40 3.95916
645.50 4.00444
645.60 4.062967
645.70 4.086154
645.80 4.079333
645.90 4.097549
646.00 4.099446
646.10 4.076197
646.20 4.053445
646.30 4.040853
646.40 4.032611
646.50 4.082596
646.60 4.224984
646.70 4.408088
646.80 4.495975
646.90 4.503992
647.00 4.536015
647.10 4.618856
647.20 4.653063
647.30 4.627921
647.40 4.615975
647.50 4.665283
647.60 4.781577
647.70 4.833431
647.80 4.805956
647.90 4.684404
648.00 4.501224
648.10 4.286091
648.20 4.181298
648.30 4.164574
648.40 4.154991
648.50 4.113507
648.60 4.011334
648.70 3.945608
648.80 3.997649
648.90 4.140114
649.00 4.293956
649.10 4.419809
649.20 4.430218
649.30 4.34263
649.40 4.2799
649.50 4.287947
649.60 4.320235
649.70 4.392321
649.80 4.516643
649.90 4.641092
650.00 4.656219
650.10 4.774119
650.20 4.880608
650.30 4.936763
650.40 4.997329
650.50 5.063822
650.60 5.168338
650.70 5.25242
650.80 5.297977
650.90 5.318875
651.00 5.374999
651.10 5.486965
651.20 5.529709
651.30 5.413857
651.40 5.272471
651.50 5.174043
651.60 5.160937
651.70 5.213846
651.80 5.377365
651.90 5.52237
652.00 5.618465
652.10 5.726734
652.20 5.824042
652.30 5.902951
652.40 5.973206
652.50 6.018325
652.60 6.005398
652.70 6.014046
652.80 6.136252
652.90 6.280495
653.00 6.332664
653.10 6.296594
653.20 6.314159
653.30 6.4093
653.40 6.503985
653.50 6.642727
653.60 6.709766
653.70 6.74144
653.80 6.861821
653.90 6.99032
654.00 7.097394
654.10 7.197519
654.20 7.210491
654.30 7.064082
654.40 6.834111
654.50 6.578065
654.60 6.350826
654.70 6.205283
654.80 6.107801
654.90 6.011422
655.00 5.903421
655.10 5.711915
655.20 5.48711
655.30 5.375513
655.40 5.390106
655.50 5.465898
655.60 5.477038
655.70 5.548931
655.80 5.668641
655.90 5.749597
656.00 5.89523
656.10 6.37973
656.20 7.501552
656.30 9.042167
656.40 10.21116
656.50 10.02364
656.60 8.493641
656.70 6.522744
656.80 5.249306
656.90 4.842837
657.00 4.805157
657.10 4.797466
657.20 4.658949
657.30 4.492642
657.40 4.407417
657.50 4.462314
657.60 4.620205
657.70 4.765102
657.80 4.794967
657.90 4.660249
658.00 4.462598
658.10 4.323672
658.20 4.284346
658.30 4.327313
658.40 4.491988
658.50 4.674369
658.60 4.832471
658.70 4.970021
658.80 5.093146
658.90 5.223245
659.00 5.25063
659.10 5.196042
659.20 5.149787
659.30 5.01605
659.40 4.805986
659.50 4.589369
659.60 4.452296
659.70 4.421894
659.80 4.437567
659.90 4.499738
660.00 4.540135
660.10 4.519343
660.20 4.47429
660.30 4.499778
660.40 4.57073
660.50 4.609217
660.60 4.596093
660.70 4.549593
660.80 4.504808
660.90 4.52789
661.00 4.540196
661.10 4.568198
661.20 4.636143
661.30 4.737369
661.40 4.817841
661.50 4.796826
661.60 4.79339
661.70 4.718773
661.80 4.58298
661.90 4.43372
662.00 4.289272
662.10 4.221874
662.20 4.190991
662.30 4.149129
662.40 4.081562
662.50 4.010423
662.60 3.901315
662.70 3.729877
662.80 3.549432
662.90 3.545457
663.00 3.72165
663.10 3.930742
663.20 4.106571
663.30 4.208558
663.40 4.194428
663.50 4.053029
663.60 3.83403
663.70 3.610486
663.80 3.409534
663.90 3.332746
664.00 3.404635
664.10 3.50453
664.20 3.626207
664.30 3.73276
664.40 3.840366
664.50 3.89805
664.60 3.921801
664.70 3.936817
664.80 3.90091
664.90 3.778614
665.00 3.563303
665.10 3.294753
665.20 3.028447
665.30 2.829285
665.40 2.744794
665.50 2.746301
665.60 2.816867
665.70 2.888177
665.80 2.928938
665.90 2.948849
666.00 2.929647
666.10 2.976989
666.20 3.035906
666.30 3.092501
666.40 3.170261
666.50 3.225744
666.60 3.303474
666.70 3.409213
666.80 3.521703
666.90 3.545577
667.00 3.525627
667.10 3.540081
667.20 3.567803
667.30 3.611642
667.40 3.587251
667.50 3.543785
667.60 3.516011
667.70 3.527898
667.80 3.557104
667.90 3.516223
668.00 3.396206
668.10 3.172632
668.20 2.860569
668.30 2.593661
668.40 2.497164
668.50 2.540604
668.60 2.609285
668.70 2.675324
668.80 2.746074
668.90 2.810413
669.00 2.832945
669.10 2.850577
669.20 2.835535
669.30 2.78531
669.40 2.794005
669.50 2.823283
669.60 2.828859
669.70 2.882833
669.80 2.973288
669.90 3.024878
670.00 3.014898
670.10 3.006242
670.20 3.016012
670.30 3.058487
670.40 3.149301
670.50 3.217711
670.60 3.247028
670.70 3.270646
670.80 3.323816
670.90 3.407965
671.00 3.414007
671.10 3.357292
671.20 3.290599
671.30 3.237903
671.40 3.175609
671.50 3.042622
671.60 2.834116
671.70 2.629652
671.80 2.465988
671.90 2.326383
672.00 2.246577
672.10 2.234793
672.20 2.29082
672.30 2.368896
672.40 2.430591
672.50 2.454111
672.60 2.511741
672.70 2.589042
672.80 2.59349
672.90 2.602532
673.00 2.662782
673.10 2.71969
673.20 2.711089
673.30 2.659421
673.40 2.635904
673.50 2.674209
673.60 2.709345
673.70 2.778806
673.80 2.855455
673.90 2.90064
674.00 2.942321
674.10 2.967659
674.20 2.99923
674.30 3.056403
674.40 3.12998
674.50 3.14651
674.60 3.117129
674.70 3.039655
674.80 2.875614
674.90 2.689472
675.00 2.554122
675.10 2.491586
675.20 2.528707
675.30 2.604902
675.40 2.661018
675.50 2.687372
675.60 2.739196
675.70 2.78677
675.80 2.828327
675.90 2.863261
676.00 2.855671
676.10 2.835565
676.20 2.837843
676.30 2.910914
676.40 3.032852
676.50 3.089478
676.60 3.151788
676.70 3.246129
676.80 3.279231
676.90 3.291245
677.00 3.308648
677.10 3.314838
677.20 3.313245
677.30 3.327199
677.40 3.344962
677.50 3.379066
677.60 3.479372
677.70 3.546976
677.80 3.568083
677.90 3.545993
678.00 3.501706
678.10 3.405385
678.20 3.216851
678.30 3.034063
678.40 2.832073
678.50 2.656333
678.60 2.572146
678.70 2.56387
678.80 2.595664
678.90 2.618175
679.00 2.675181
679.10 2.738231
679.20 2.768239
679.30 2.801458
679.40 2.818536
679.50 2.849011
679.60 2.913817
679.70 2.974414
679.80 2.999105
679.90 2.989177
680.00 3.01317
680.10 3.062212
680.20 3.13896
680.30 3.218516
680.40 3.253484
680.50 3.220327
680.60 3.138393
680.70 3.057554
680.80 3.063958
680.90 3.188546
681.00 3.256401
681.10 3.271886
681.20 3.321164
681.30 3.371622
681.40 3.406307
681.50 3.37662
681.60 3.282349
681.70 3.155748
681.80 3.09618
681.90 3.096835
682.00 3.116424
682.10 3.178107
682.20 3.215799
682.30 3.192195
682.40 3.155169
682.50 3.161764
682.60 3.221315
682.70 3.264801
682.80 3.264569
682.90 3.32673
683.00 3.516209
683.10 3.616859
683.20 3.541566
683.30 3.414101
683.40 3.363147
683.50 3.447711
683.60 3.491356
683.70 3.456937
683.80 3.376314
683.90 3.300911
684.00 3.346036
684.10 3.455821
684.20 3.497064
684.30 3.498749
684.40 3.550065
684.50 3.622609
684.60 3.632801
684.70 3.563364
684.80 3.493555
684.90 3.490808
685.00 3.486426
685.10 3.407169
685.20 3.252059
685.30 3.13001
685.40 3.102543
685.50 3.120813
685.60 3.166661
685.70 3.192223
685.80 3.209558
685.90 3.254646
686.00 3.2521
686.10 3.20676
686.20 3.163907
686.30 3.146501
686.40 3.194902
686.50 3.283168
686.60 3.38184
686.70 3.469232
686.80 3.465174
686.90 3.304972
687.00 3.20676
687.10 3.278259
687.20 3.386984
687.30 3.452386
687.40 3.507164
687.50 3.614109
687.60 3.711209
687.70 3.766555
687.80 3.812153
687.90 3.843199
688.00 3.879745
688.10 3.844691
688.20 3.779169
688.30 3.756007
688.40 3.72574
688.50 3.663245
688.60 3.534604
688.70 3.423888
688.80 3.484214
688.90 3.676618
689.00 3.834175
689.10 3.877017
689.20 3.765713
689.30 3.654632
689.40 3.704673
689.50 3.846759
689.60 3.976408
689.70 4.010473
689.80 3.961937
689.90 3.926497
690.00 3.894334
690.10 3.782891
690.20 3.6211
690.30 3.517645
690.40 3.578074
690.50 3.759967
690.60 3.956603
690.70 4.133301
690.80 4.257996
690.90 4.387083
691.00 4.476872
691.10 4.464781
691.20 4.426424
691.30 4.410379
691.40 4.499586
691.50 4.581636
691.60 4.57938
691.70 4.484543
691.80 4.272953
691.90 3.999147
692.00 3.747995
692.10 3.687453
692.20 3.843729
692.30 4.104248
692.40 4.368681
692.50 4.632011
692.60 4.826978
692.70 4.840571
692.80 4.763576
692.90 4.695239
693.00 4.72986
693.10 4.852948
693.20 5.008498
693.30 5.152358
693.40 5.229062
693.50 5.232617
693.60 5.191937
693.70 5.181844
693.80 5.226846
693.90 5.272703
694.00 5.31216
694.10 5.350089
694.20 5.451579
694.30 5.660671
694.40 5.877587
694.50 6.040156
694.60 6.171177
694.70 6.279658
694.80 6.391505
694.90 6.52956
695.00 6.60294
695.10 6.583143
695.20 6.412896
695.30 6.191075
695.40 5.991379
695.50 5.850188
695.60 5.835407
695.70 5.8525
695.80 5.90855
695.90 5.939192
696.00 5.94975
696.10 5.943365
696.20 5.944679
696.30 6.016348
696.40 6.117351
696.50 6.238286
696.60 6.358744
696.70 6.446438
696.80 6.490939
696.90 6.50166
697.00 6.477334
697.10 6.397666
697.20 6.314476
697.30 6.24192
697.40 6.242815
697.50 6.35747
697.60 6.550806
697.70 6.739649
697.80 6.858149
697.90 6.940284
698.00 6.991765
698.10 6.988194
698.20 6.949263
698.30 6.962115
698.40 7.06896
698.50 7.198632
698.60 7.239943
698.70 7.188566
698.80 7.151798
698.90 7.111381
699.00 7.074708
699.10 6.971281
699.20 6.828473
699.30 6.789929
699.40 6.802227
699.50 6.82321
699.60 6.906869
699.70 7.010454
699.80 7.081526
699.90 7.106689
700.00 7.074836
700.10 7.076971
700.20 7.155405
700.30 7.265327
700.40 7.334663
700.50 7.281804
700.60 7.148408
700.70 7.130111
700.80 7.28187
700.90 7.506672
701.00 7.635735
701.10 7.624303
701.20 7.617346
701.30 7.755383
701.40 8.025141
701.50 8.203423
701.60 8.189082
701.70 8.076516
701.80 8.009452
701.90 8.046378
702.00 8.166634
702.10 8.354842
702.20 8.539476
702.30 8.529808
702.40 8.24546
702.50 7.880478
702.60 7.691299
702.70 7.819665
702.80 8.17762
702.90 8.688001
703.00 9.221278
703.10 9.48545
703.20 9.439986
703.30 9.310131
703.40 9.280105
703.50 9.483241
703.60 9.88045
703.70 10.25214
703.80 10.40761
703.90 10.35704
704.00 10.27356
704.10 10.36211
704.20 10.62828
704.30 10.89402
704.40 11.04375
704.50 11.09538
704.60 11.11989
704.70 11.17214
704.80 11.23429
704.90 11.26474
705.00 11.23869
705.10 11.17047
705.20 11.10442
705.30 10.87526
705.40 10.04949
705.50 8.496693
705.60 6.626797
705.70 5.171455
705.80 4.55112
705.90 4.535668
706.00 4.593287
706.10 4.458686
706.20 4.22838
706.30 4.108473
706.40 4.214896
706.50 4.429563
706.60 4.618206
706.70 4.751848
706.80 4.827091
706.90 4.939323
707.00 5.094262
707.10 5.22593
707.20 5.352914
707.30 5.471573
707.40 5.593464
707.50 5.660252
707.60 5.625781
707.70 5.596113
707.80 5.642387
707.90 5.732331
708.00 5.827547
708.10 5.932138
708.20 6.005335
708.30 6.043396
708.40 6.104767
708.50 6.188032
708.60 6.194211
708.70 5.947188
708.80 5.31383
708.90 4.414261
709.00 3.592748
709.10 3.151267
709.20 3.129135
709.30 3.278972
709.40 3.38882
709.50 3.359978
709.60 3.279072
709.70 3.273548
709.80 3.356275
709.90 3.483305
710.00 3.578468
710.10 3.646031
710.20 3.683965
710.30 3.684523
710.40 3.66678
710.50 3.673331
710.60 3.759294
710.70 3.928671
710.80 4.169715
710.90 4.430709
711.00 4.631998
711.10 4.783375
711.20 4.909964
711.30 4.993318
711.40 4.9994
711.50 4.912481
711.60 4.827923
711.70 4.798819
711.80 4.842509
711.90 4.985997
712.00 5.189306
712.10 5.396556
712.20 5.559635
712.30 5.609942
712.40 5.506191
712.50 5.158941
712.60 4.439463
712.70 3.531025
712.80 2.801791
712.90 2.464985
713.00 2.512084
713.10 2.677707
713.20 2.720979
713.30 2.636716
713.40 2.562127
713.50 2.566711
713.60 2.643749
713.70 2.759118
713.80 2.86299
713.90 2.871429
714.00 2.841917
714.10 2.870525
714.20 2.969701
714.30 3.128535
714.40 3.266923
714.50 3.313778
714.60 3.29171
714.70 3.281908
714.80 3.308567
714.90 3.386885
715.00 3.467875
715.10 3.495004
715.20 3.516258
715.30 3.571809
715.40 3.663175
715.50 3.814283
715.60 3.98274
715.70 4.07375
715.80 4.035701
715.90 3.881842
716.00 3.670927
716.10 3.48712
716.20 3.437702
716.30 3.506465
716.40 3.592993
716.50 3.611934
716.60 3.582391
716.70 3.603234
716.80 3.656553
716.90 3.700586
717.00 3.764801
717.10 3.846086
717.20 3.993588
717.30 4.143364
717.40 4.208916
717.50 4.212925
717.60 4.170735
717.70 4.1454
717.80 4.153448
717.90 4.201966
718.00 4.284863
718.10 4.383756
718.20 4.487761
718.30 4.562024
718.40 4.660243
718.50 4.789197
718.60 4.925194
718.70 5.041658
718.80 5.103072
718.90 5.146374
719.00 5.191197
719.10 5.201007
719.20 5.181622
719.30 5.179511
719.40 5.218025
719.50 5.262103
719.60 5.20515
719.70 5.004014
719.80 4.676823
719.90 4.349202
720.00 4.219397
720.10 4.244282
720.20 4.281901
720.30 4.291662
720.40 4.253962
720.50 4.240328
720.60 4.286488
720.70 4.286726
720.80 4.329524
720.90 4.460918
721.00 4.576496
721.10 4.632869
721.20 4.659867
721.30 4.739019
721.40 4.853548
721.50 4.921415
721.60 4.946132
721.70 5.01807
721.80 5.147177
721.90 5.245111
722.00 5.290178
722.10 5.306896
722.20 5.346753
722.30 5.428018
722.40 5.541306
722.50 5.711006
722.60 5.849853
722.70 5.951195
722.80 6.064645
722.90 6.11434
723.00 6.065622
723.10 5.918529
723.20 5.707481
723.30 5.589766
723.40 5.668939
723.50 5.902003
723.60 6.154825
723.70 6.315349
723.80 6.391894
723.90 6.450853
724.00 6.463016
724.10 6.444932
724.20 6.466454
724.30 6.476863
724.40 6.579875
724.50 6.766842
724.60 6.942505
724.70 7.0195
724.80 7.027389
724.90 7.211091
725.00 7.450279
725.10 7.577329
725.20 7.554873
725.30 7.461502
725.40 7.446083
725.50 7.555733
725.60 7.734155
725.70 7.879512
725.80 7.918144
725.90 7.88233
726.00 7.856922
726.10 7.907978
726.20 8.044829
726.30 8.247403
726.40 8.477858
726.50 8.599353
726.60 8.609883
726.70 8.616328
726.80 8.666443
726.90 8.747603
727.00 8.707445
727.10 8.419876
727.20 8.005257
727.30 7.773336
727.40 7.914097
727.50 8.282946
727.60 8.583649
727.70 8.71739
727.80 8.66882
727.90 8.515078
728.00 8.327271
728.10 8.248638
728.20 8.406277
728.30 8.629146
728.40 8.803914
728.50 8.93325
728.60 9.047103
728.70 9.228632
728.80 9.359816
728.90 9.388722
729.00 9.492859
729.10 9.613356
729.20 9.671655
729.30 9.683945
729.40 9.687386
729.50 9.756035
729.60 9.898591
729.70 10.07741
729.80 10.21484
729.90 10.28353
730.00 10.25589
730.10 10.19667
730.20 10.33785
730.30 10.61723
730.40 10.77964
730.50 10.80174
730.60 10.82391
730.70 10.89799
730.80 10.99291
730.90 11.11226
731.00 11.22245
731.10 11.26338
731.20 11.24548
731.30 11.29829
731.40 11.4938
731.50 11.71601
731.60 11.85294
731.70 11.90629
731.80 11.97541
731.90 12.05132
732.00 11.99965
732.10 11.95345
732.20 12.06185
732.30 12.23915
732.40 12.33491
732.50 12.25429
732.60 12.05322
732.70 11.83221
732.80 11.68322
732.90 11.83487
733.00 12.27502
733.10 12.67579
733.20 12.80551
733.30 12.70709
733.40 12.68295
733.50 12.84436
733.60 13.06263
733.70 13.26863
733.80 13.44458
733.90 13.61892
734.00 13.8178
734.10 13.88138
734.20 13.83976
734.30 13.79723
734.40 13.46528
734.50 12.90562
734.60 12.60566
734.70 12.69762
734.80 12.97598
734.90 13.23887
735.00 13.44706
735.10 13.61629
735.20 13.71522
735.30 13.74554
735.40 13.75147
735.50 13.69093
735.60 13.51186
735.70 13.30536
735.80 13.20144
735.90 13.35589
736.00 13.68512
736.10 13.9428
736.20 14.04278
736.30 14.00125
736.40 14.01273
736.50 14.16595
736.60 14.3488
736.70 14.51812
736.80 14.62179
736.90 14.67629
737.00 14.82519
737.10 15.00051
737.20 15.03238
737.30 14.91308
737.40 14.73709
737.50 14.62962
737.60 14.6157
737.70 14.61596
737.80 14.68822
737.90 14.8574
738.00 15.04635
738.10 15.18344
738.20 15.19579
738.30 15.10072
738.40 15.02791
738.50 15.08365
738.60 15.2403
738.70 15.38025
738.80 15.46422
738.90 15.55561
739.00 15.68203
739.10 15.77225
739.20 15.7214
739.30 15.49399
739.40 15.19849
739.50 14.98718
739.60 14.94541
739.70 15.05797
739.80 15.2292
739.90 15.3827
740.00 15.45367
740.10 15.47421
740.20 15.56065
740.30 15.69188
740.40 15.77105
740.50 15.66996
740.60 15.35436
740.70 15.00657
740.80 14.87341
740.90 15.04007
741.00 15.34737
741.10 15.64972
741.20 15.83529
741.30 15.88489
741.40 15.90844
741.50 15.95741
741.60 15.97938
741.70 15.86437
741.80 15.59647
741.90 15.28072
742.00 15.13195
742.10 15.19755
742.20 15.35567
742.30 15.54806
742.40 15.69439
742.50 15.78155
742.60 15.87545
742.70 15.95774
742.80 16.03551
742.90 16.1387
743.00 16.20012
743.10 16.234
743.20 16.27685
743.30 16.24604
743.40 16.10412
743.50 15.89804
743.60 15.63129
743.70 15.48166
743.80 15.62923
743.90 15.97235
744.00 16.32983
744.10 16.47917
744.20 16.34583
744.30 16.03073
744.40 15.78156
744.50 15.72156
744.60 15.74772
744.70 15.75583
744.80 15.70737
744.90 15.63266
745.00 15.58943
745.10 15.67911
745.20 15.86757
745.30 16.0291
745.40 16.1124
745.50 16.04806
745.60 15.89957
745.70 15.8335
745.80 15.88431
745.90 15.98042
746.00 16.04616
746.10 16.06302
746.20 16.07469
746.30 16.09809
746.40 16.1414
746.50 16.21205
746.60 16.28713
746.70 16.32624
746.80 16.30193
746.90 16.31104
747.00 16.49189
747.10 16.80631
747.20 17.02347
747.30 16.87314
747.40 16.44898
747.50 16.12484
747.60 16.04068
747.70 16.25513
747.80 16.59175
747.90 16.72261
748.00 16.66497
748.10 16.54872
748.20 16.42687
748.30 16.49707
748.40 16.76548
748.50 16.93741
748.60 16.95458
748.70 16.8161
748.80 16.58556
748.90 16.47316
749.00 16.54393
749.10 16.70522
749.20 16.82485
749.30 16.81361
749.40 16.64539
749.50 16.39839
749.60 16.24821
749.70 16.30721
749.80 16.58164
749.90 17.00544
750.00 17.41963
750.10 17.66131
750.20 17.71295
750.30 17.65979
750.40 17.61639
750.50 17.61701
750.60 17.54182
750.70 17.28741
750.80 17.03292
750.90 17.09445
751.00 17.51126
751.10 17.97701
751.20 18.13871
751.30 17.94034
751.40 17.63711
751.50 17.5512
751.60 17.73347
751.70 17.98594
751.80 18.089
751.90 17.96865
752.00 17.72273
752.10 17.48636
752.20 17.49173
752.30 17.73298
752.40 17.97322
752.50 18.07285
752.60 17.8277
752.70 17.29001
752.80 16.85047
752.90 16.71525
753.00 16.94166
753.10 17.41508
753.20 17.89043
753.30 18.24692
753.40 18.32359
753.50 18.08294
753.60 17.82817
753.70 17.83698
753.80 18.14113
753.90 18.57907
754.00 18.95304
754.10 19.18485
754.20 19.24661
754.30 19.15646
754.40 19.09361
754.50 19.12942
754.60 19.19239
754.70 19.2006
754.80 19.05292
754.90 18.88411
755.00 18.89467
755.10 19.05752
755.20 19.19859
755.30 19.19891
755.40 19.09251
755.50 18.97674
755.60 18.92637
755.70 18.96804
755.80 19.08039
755.90 19.21913
756.00 19.35073
756.10 19.44573
756.20 19.43377
756.30 19.28462
756.40 19.09225
756.50 18.92352
756.60 18.6968
756.70 18.39773
756.80 18.1102
756.90 17.92315
757.00 17.99473
757.10 18.37449
757.20 18.91026
757.30 19.44019
757.40 19.81526
757.50 19.92472
757.60 19.75917
757.70 19.47248
757.80 19.22198
757.90 19.07311
758.00 19.10114
758.10 19.38199
758.20 19.83278
758.30 20.2659
758.40 20.51927
758.50 20.53173
758.60 20.39421
758.70 20.05235
758.80 19.23902
758.90 17.81265
759.00 15.82586
759.10 13.80345
759.20 12.45235
759.30 12.05157
759.40 12.44879
759.50 13.08607
759.60 13.50206
759.70 13.59973
759.80 13.60172
759.90 13.77361
760.00 14.09335
760.10 14.31496
760.20 14.15705
760.30 13.75635
760.40 13.61426
760.50 13.77099
760.60 13.9862
760.70 14.14897
760.80 14.16009
760.90 14.0548
761.00 13.94722
761.10 14.00688
761.20 14.39364
761.30 15.11612
761.40 15.7892
761.50 16.02228
761.60 15.91948
761.70 15.79145
761.80 15.97958
761.90 16.46987
762.00 16.87133
762.10 16.91875
762.20 16.70274
762.30 16.41939
762.40 16.21714
762.50 16.2017
762.60 16.03972
762.70 15.38217
762.80 14.23166
762.90 12.7974
763.00 11.5955
763.10 10.87511
763.20 10.5929
763.30 10.74851
763.40 11.1888
763.50 11.55451
763.60 11.60154
763.70 11.47896
763.80 11.42529
763.90 11.57069
764.00 11.65084
764.10 11.45061
764.20 11.35718
764.30 11.58485
764.40 11.79242
764.50 11.75644
764.60 11.5557
764.70 11.4532
764.80 11.66906
764.90 11.8392
765.00 11.64884
765.10 11.33653
765.20 11.11586
765.30 11.09284
765.40 11.10791
765.50 10.8443
765.60 10.48213
765.70 10.28275
765.80 10.24276
765.90 10.17782
766.00 9.702905
766.10 8.788329
766.20 7.700248
766.30 6.621629
766.40 5.590174
766.50 4.546835
766.60 3.678522
766.70 3.327889
766.80 3.610232
766.90 4.400924
767.00 5.297122
767.10 5.910928
767.20 6.220044
767.30 6.337829
767.40 6.438218
767.50 6.659377
767.60 6.980753
767.70 7.329094
767.80 7.623846
767.90 7.821683
768.00 7.978789
768.10 8.181644
768.20 8.41563
768.30 8.585725
768.40 8.674564
768.50 8.696498
768.60 8.689637
768.70 8.736329
768.80 8.840882
768.90 8.945257
769.00 8.974926
769.10 8.926744
769.20 8.878454
769.30 8.792125
769.40 8.601395
769.50 8.27871
769.60 7.785768
769.70 7.061987
769.80 6.078589
769.90 4.995933
770.00 4.16001
770.10 3.904635
770.20 4.338483
770.30 5.245096
770.40 6.209476
770.50 6.958813
770.60 7.400597
770.70 7.595369
770.80 7.73419
770.90 7.932576
771.00 8.239991
771.10 8.625263
771.20 9.002238
771.30 9.306313
771.40 9.469713
771.50 9.503974
771.60 9.477015
771.70 9.404653
771.80 9.41328
771.90 9.590183
772.00 9.724007
772.10 9.816332
772.20 9.996455
772.30 10.19854
772.40 10.34767
772.50 10.45125
772.60 10.60253
772.70 10.82863
772.80 11.09709
772.90 11.33245
773.00 11.49683
773.10 11.58054
773.20 11.59174
773.30 11.6076
773.40 11.68143
773.50 11.81907
773.60 11.9551
773.70 12.03571
773.80 12.09099
773.90 12.20941
774.00 12.42207
774.10 12.56809
774.20 12.4819
774.30 12.14909
774.40 11.66393
774.50 11.17251
774.60 10.76094
774.70 10.49527
774.80 10.35016
774.90 10.16194
775.00 9.879483
775.10 9.534715
775.20 9.182572
775.30 9.039939
775.40 9.169411
775.50 9.360743
775.60 9.540463
775.70 9.705441
775.80 9.72411
775.90 9.647775
776.00 9.67931
776.10 9.822855
776.20 9.957318
776.30 9.966515
776.40 9.86407
776.50 9.767917
776.60 9.783694
776.70 9.989917
776.80 10.32506
776.90 10.62512
777.00 10.79682
777.10 10.8593
777.20 10.89513
777.30 10.97508
777.40 11.08757
777.50 11.18743
777.60 11.26517
777.70 11.30439
777.80 11.33859
777.90 11.38239
778.00 11.37656
778.10 11.29272
778.20 11.10379
778.30 10.78967
778.40 10.43077
778.50 10.08456
778.60 9.848562
778.70 9.837439
778.80 9.985471
778.90 10.17824
779.00 10.35264
779.10 10.51263
779.20 10.72145
779.30 10.97037
779.40 11.12496
779.50 11.19014
779.60 11.27001
779.70 11.31213
779.80 11.23645
779.90 11.02477
780.00 10.7654
780.10 10.51367
780.20 10.40287
780.30 10.64622
780.40 11.21971
780.50 11.90396
780.60 12.47966
780.70 12.8092
780.80 12.95107
780.90 13.04801
781.00 13.02156
781.10 12.87125
781.20 12.77807
781.30 12.82357
781.40 12.98007
781.50 13.18756
781.60 13.39418
781.70 13.54913
781.80 13.6447
781.90 13.64526
782.00 13.50286
782.10 13.19537
782.20 12.77422
782.30 12.41146
782.40 12.21017
782.50 12.13208
782.60 12.14437
782.70 12.12258
782.80 11.94055
782.90 11.59876
783.00 11.10434
783.10 10.66883
783.20 10.56354
783.30 10.74506
783.40 11.05366
783.50 11.37004
783.60 11.60441
783.70 11.73659
783.80 11.78075
783.90 11.77374
784.00 11.80715
784.10 11.87309
784.20 11.88512
784.30 11.90179
784.40 12.00922
784.50 12.21485
784.60 12.49595
784.70 12.73227
784.80 12.84742
784.90 12.82868
785.00 12.75863
785.10 12.76201
785.20 12.75386
785.30 12.76876
785.40 12.87756
785.50 12.92136
785.60 12.88604
785.70 12.8809
785.80 12.94079
785.90 13.09846
786.00 13.23125
786.10 13.16261
786.20 12.87838
786.30 12.55282
786.40 12.40974
786.50 12.41254
786.60 12.49771
786.70 12.66341
786.80 12.78901
786.90 12.87742
787.00 12.9182
787.10 12.88005
787.20 12.82368
787.30 12.71785
787.40 12.63987
787.50 12.68947
787.60 12.88522
787.70 13.24098
787.80 13.57664
787.90 13.72745
788.00 13.78081
788.10 13.83619
788.20 13.98912
788.30 14.2237
788.40 14.3697
788.50 14.43632
788.60 14.43482
788.70 14.36763
788.80 14.39101
788.90 14.53883
789.00 14.75595
789.10 14.92092
789.20 14.92815
789.30 14.86493
789.40 14.83649
789.50 14.87649
789.60 14.90761
789.70 14.85212
789.80 14.69183
789.90 14.43397
790.00 14.15631
790.10 13.92611
790.20 13.82085
790.30 13.90975
790.40 14.15313
790.50 14.43272
790.60 14.61469
790.70 14.52877
790.80 14.14328
790.90 13.61947
791.00 13.12389
791.10 12.85196
791.20 12.83593
791.30 12.91416
791.40 13.0851
791.50 13.33647
791.60 13.53933
791.70 13.6482
791.80 13.62862
791.90 13.50445
792.00 13.38443
792.10 13.38025
792.20 13.46596
792.30 13.59225
792.40 13.79387
792.50 13.94565
792.60 13.95171
792.70 13.91893
792.80 13.92917
792.90 14.03991
793.00 14.25688
793.10 14.50934
793.20 14.78552
793.30 15.07849
793.40 15.30803
793.50 15.4676
793.60 15.54094
793.70 15.48752
793.80 15.37012
793.90 15.2102
794.00 14.96831
794.10 14.6486
794.20 14.33832
794.30 14.20263
794.40 14.32981
794.50 14.60694
794.60 14.77212
794.70 14.56159
794.80 14.00934
794.90 13.52066
795.00 13.42792
795.10 13.8035
795.20 14.45702
795.30 15.09727
795.40 15.56781
795.50 15.82715
795.60 15.93985
795.70 15.99693
795.80 16.03766
795.90 16.07845
796.00 16.00233
796.10 15.72269
796.20 15.41471
796.30 15.28628
796.40 15.42804
796.50 15.79496
796.60 16.11554
796.70 16.2085
796.80 16.21521
796.90 16.28883
797.00 16.48209
797.10 16.71032
797.20 16.83548
797.30 16.87176
797.40 16.87215
797.50 16.80117
797.60 16.64785
797.70 16.49434
797.80 16.43119
797.90 16.46145
798.00 16.5024
798.10 16.47731
798.20 16.33875
798.30 16.13717
798.40 16.00782
798.50 15.98571
798.60 15.98616
798.70 15.9326
798.80 15.80015
798.90 15.63761
799.00 15.57842
799.10 15.74071
799.20 16.0636
799.30 16.3948
799.40 16.66219
799.50 16.73149
799.60 16.54124
799.70 16.27459
799.80 16.09445
799.90 16.10632
800.00 16.30521
800.10 16.53048
800.20 16.70361
800.30 16.85712
800.40 16.97493
800.50 17.02241
800.60 17.04935
800.70 17.1211
800.80 17.22552
800.90 17.31085
801.00 17.39029
801.10 17.49179
801.20 17.61032
801.30 17.75226
801.40 17.90842
801.50 18.05525
801.60 18.15236
801.70 18.19381
801.80 18.20703
801.90 18.23747
802.00 18.32494
802.10 18.35597
802.20 18.24114
802.30 18.07693
802.40 18.01568
802.50 18.12429
802.60 18.30184
802.70 18.45847
802.80 18.64175
802.90 18.8255
803.00 18.93189
803.10 19.01124
803.20 19.11636
803.30 19.23506
803.40 19.31592
803.50 19.34075
803.60 19.33804
803.70 19.28663
803.80 19.20215
803.90 19.15598
804.00 19.1885
804.10 19.27159
804.20 19.36091
804.30 19.48869
804.40 19.64497
804.50 19.78666
804.60 19.88659
804.70 19.81904
804.80 19.63204
804.90 19.57031
805.00 19.71191
805.10 20.02365
805.20 20.47357
805.30 20.91
805.40 21.16839
805.50 21.28564
805.60 21.32347
805.70 21.28522
805.80 21.24279
805.90 21.24267
806.00 21.29558
806.10 21.41133
806.20 21.57751
806.30 21.71702
806.40 21.67463
806.50 21.44694
806.60 21.26854
806.70 21.22324
806.80 21.22031
806.90 21.21497
807.00 21.1536
807.10 21.05636
807.20 21.0553
807.30 21.20522
807.40 21.45475
807.50 21.7288
807.60 21.91389
807.70 21.94818
807.80 21.95598
807.90 22.04228
808.00 22.1482
808.10 22.19753
808.20 22.21813
808.30 22.30548
808.40 22.46142
808.50 22.61655
808.60 22.74946
808.70 22.82803
808.80 22.81243
808.90 22.75566
809.00 22.7215
809.10 22.76251
809.20 22.92815
809.30 23.10304
809.40 23.14161
809.50 23.05098
809.60 22.91412
809.70 22.81217
809.80 22.80278
809.90 22.85225
810.00 22.87554
810.10 22.88661
810.20 22.90716
810.30 22.88993
810.40 22.83316
810.50 22.7636
810.60 22.71644
810.70 22.75582
810.80 22.93762
810.90 23.24472
811.00 23.51745
811.10 23.6157
811.20 23.60397
811.30 23.60708
811.40 23.67616
811.50 23.74126
811.60 23.59786
811.70 23.21186
811.80 22.82853
811.90 22.72494
812.00 22.99914
812.10 23.48451
812.20 23.93673
812.30 24.17596
812.40 24.20221
812.50 24.19488
812.60 24.26355
812.70 24.40435
812.80 24.54804
812.90 24.61901
813.00 24.60545
813.10 24.54647
813.20 24.50665
813.30 24.49252
813.40 24.4959
813.50 24.54861
813.60 24.62553
813.70 24.72292
813.80 24.88981
813.90 25.06474
814.00 25.14853
814.10 25.14068
814.20 25.00275
814.30 24.74019
814.40 24.4914
814.50 24.35459
814.60 24.32747
814.70 24.36118
814.80 24.42693
814.90 24.44666
815.00 24.37927
815.10 24.39658
815.20 24.55388
815.30 24.65646
815.40 24.62758
815.50 24.54612
815.60 24.45791
815.70 24.40698
815.80 24.39605
815.90 24.34786
816.00 24.24615
816.10 24.08973
816.20 23.89603
816.30 23.78889
816.40 23.85959
816.50 24.08644
816.60 24.42974
816.70 24.80508
816.80 25.05533
816.90 25.09059
817.00 24.93258
817.10 24.71904
817.20 24.59991
817.30 24.55842
817.40 24.58975
817.50 24.64485
817.60 24.50195
817.70 24.11201
817.80 23.64789
817.90 23.19854
818.00 22.74474
818.10 21.94502
818.20 20.35536
818.30 18.03755
818.40 15.6495
818.50 14.22439
818.60 14.40608
818.70 16.0326
818.80 18.23664
818.90 19.96471
819.00 20.86819
819.10 21.10222
819.20 20.69798
819.30 19.54536
819.40 17.62552
819.50 15.24697
819.60 13.2881
819.70 12.5846
819.80 13.27848
819.90 14.98678
820.00 16.9609
820.10 18.57837
820.20 19.81147
820.30 20.79806
820.40 21.49628
820.50 21.88372
820.60 21.91851
820.70 21.67822
820.80 21.46171
820.90 21.45239
821.00 21.72442
821.10 22.1699
821.20 22.55322
821.30 22.75431
821.40 22.76208
821.50 22.69274
821.60 22.68138
821.70 22.72143
821.80 22.74835
821.90 22.75307
822.00 22.77513
822.10 22.87045
822.20 23.03909
822.30 23.17667
822.40 23.29282
822.50 23.50757
822.60 23.73913
822.70 23.87416
822.80 23.94109
822.90 23.95837
823.00 24.06584
823.10 24.34678
823.20 24.55201
823.30 24.50809
823.40 24.21914
823.50 23.83797
823.60 23.69926
823.70 23.87324
823.80 24.22532
823.90 24.65451
824.00 25.02698
824.10 25.259
824.20 25.29867
824.30 25.1659
824.40 24.93839
824.50 24.76373
824.60 24.83028
824.70 25.14189
824.80 25.56798
824.90 25.93876
825.00 26.09709
825.10 25.90205
825.20 25.39841
825.30 24.86522
825.40 24.45558
825.50 24.14605
825.60 23.84549
825.70 23.4815
825.80 23.17167
825.90 23.16952
826.00 23.60671
826.10 24.28534
826.20 24.83541
826.30 25.10157
826.40 25.19154
826.50 25.25343
826.60 25.40376
826.70 25.56038
826.80 25.54508
826.90 25.40507
827.00 25.1951
827.10 24.86149
827.20 24.35481
827.30 23.73385
827.40 23.22398
827.50 23.02624
827.60 23.13549
827.70 23.34958
827.80 23.54838
827.90 23.75254
828.00 23.8825
828.10 23.86464
828.20 23.73445
828.30 23.54575
828.40 23.35069
828.50 23.3098
828.60 23.48667
828.70 23.57905
828.80 23.37108
828.90 22.92812
829.00 22.30546
829.10 21.78261
829.20 21.68472
829.30 21.9003
829.40 22.19126
829.50 22.38733
829.60 22.42325
829.70 22.47244
829.80 22.61927
829.90 22.76788
830.00 22.28255
830.10 22.08934
830.20 21.89612
830.30 21.60967
830.40 21.32323
830.50 21.05924
830.60 20.79526
830.70 21.03188
830.80 21.26851
830.90 21.70624
831.00 22.14397
831.10 22.33926
831.20 22.53455
831.30 22.39856
831.40 22.26256
831.50 22.32881
831.60 22.39505
831.70 22.51451
831.80 22.63396
831.90 22.8873
832.00 23.14064
832.10 23.07261
832.20 23.00458
832.30 23.11046
832.40 23.21633
832.50 23.20236
832.60 23.1884
832.70 22.68635
832.80 22.1843
832.90 22.03061
833.00 21.87691
833.10 22.38341
833.20 22.88991
833.30 23.20224
833.40 23.51457
833.50 22.97757
833.60 22.44058
833.70 22.16933
833.80 21.89808
833.90 22.23802
834.00 22.57795
834.10 22.90315
834.20 23.22835
834.30 23.31557
834.40 23.40279
834.50 23.1203
834.60 22.83781
834.70 22.49913
834.80 22.16045
834.90 22.089
835.00 22.01755
835.10 22.2305
835.20 22.44345
835.30 22.48591
835.40 22.52837
835.50 22.5081
835.60 22.48782
835.70 22.70908
835.80 22.93033
835.90 22.99514
836.00 23.05994
836.10 23.12963
836.20 23.19933
836.30 22.98403
836.40 22.76873
836.50 22.57965
836.60 22.39058
836.70 22.64507
836.80 22.89957
836.90 23.32808
837.00 23.75659
837.10 23.80206
837.20 23.84753
837.30 23.51339
837.40 23.17925
837.50 22.492
837.60 21.80475
837.70 21.54363
837.80 21.28251
837.90 21.39513
838.00 21.50776
838.10 21.75751
838.20 22.00726
838.30 21.77689
838.40 21.54652
838.50 21.34411
838.60 21.1417
838.70 20.81894
838.80 20.49618
838.90 20.04616
839.00 19.59614
839.10 20.08778
839.20 20.57941
839.30 21.0832
839.40 21.58698
839.50 21.56132
839.60 21.53566
839.70 21.48883
839.80 21.44201
839.90 21.84298
840.00 22.24396
840.10 22.01454
840.20 22.11663
840.30 22.44454
840.40 22.77157
840.50 22.99445
840.60 23.21912
840.70 23.44332
840.80 23.64303
840.90 23.75041
841.00 23.68176
841.10 23.6718
841.20 23.402
841.30 23.01306
841.40 22.86048
841.50 22.77464
841.60 22.8588
841.70 23.42841
841.80 24.11817
841.90 24.05109
842.00 23.69765
842.10 22.88956
842.20 22.12703
842.30 21.74677
842.40 21.92742
842.50 22.05885
842.60 21.8352
842.70 21.63419
842.80 21.23182
842.90 20.88318
843.00 20.89942
843.10 21.32148
843.20 21.65455
843.30 21.04701
843.40 20.35014
843.50 18.82754
843.60 17.18564
843.70 16.05858
843.80 16.0293
843.90 16.11764
844.00 17.29934
844.10 18.48259
844.20 18.6734
844.30 18.34026
844.40 17.52061
844.50 16.24265
844.60 15.13624
844.70 15.00455
844.80 15.01837
844.90 15.60718
845.00 16.19476
845.10 16.36385
845.20 15.8612
845.30 15.18923
845.40 14.10437
845.50 13.13887
845.60 12.92684
845.70 12.83945
845.80 12.89278
845.90 13.15842
846.00 13.41466
846.10 13.58594
846.20 13.74162
846.30 14.05987
846.40 14.35125
846.50 14.20677
846.60 13.63977
846.70 13.09344
846.80 12.91625
846.90 12.9428
847.00 13.18498
847.10 13.14061
847.20 12.93819
847.30 12.8917
847.40 13.00945
847.50 13.35062
847.60 13.65519
847.70 14.01594
847.80 14.33613
847.90 14.35534
848.00 14.27906
848.10 14.26414
848.20 14.31812
848.30 14.35899
848.40 14.4843
848.50 14.62254
848.60 14.85288
848.70 15.13411
848.80 15.30515
848.90 15.21018
849.00 15.10144
849.10 15.34622
849.20 15.6596
849.30 15.86135
849.40 15.91835
849.50 15.79782
849.60 15.49349
849.70 15.22541
849.80 14.94487
849.90 14.6259
850.00 14.75608
850.10 15.16398
850.20 15.56806
850.30 15.66464
850.40 15.60663
850.50 15.30893
850.60 15.12803
850.70 14.76663
850.80 14.27738
850.90 13.98975
851.00 14.18854
851.10 14.48064
851.20 14.89557
851.30 15.2758
851.40 15.18671
851.50 14.92004
851.60 14.60607
851.70 14.25898
851.80 13.87466
851.90 13.56182
852.00 13.3633
852.10 13.43026
852.20 13.48959
852.30 13.53943
852.40 13.68211
852.50 13.95392
852.60 14.41732
852.70 14.81073
852.80 15.14667
852.90 15.41631
853.00 15.53582
853.10 15.63494
853.20 15.76372
853.30 15.94078
853.40 16.13599
853.50 16.26256
853.60 16.29736
853.70 16.21918
853.80 16.16277
853.90 16.23128
854.00 16.42062
854.10 16.53142
854.20 16.27005
854.30 16.00972
854.40 15.87562
854.50 15.88846
854.60 16.08599
854.70 16.53311
854.80 16.9
854.90 17.07094
855.00 17.30038
855.10 17.59266
855.20 17.85379
855.30 18.06401
855.40 18.23218
855.50 18.4148
855.60 18.4355
855.70 18.35737
855.80 18.20638
855.90 18.10679
856.00 17.83993
856.10 17.28503
856.20 16.75257
856.30 16.75636
856.40 16.83844
856.50 17.16454
856.60 17.58234
856.70 17.99404
856.80 18.26092
856.90 18.45659
857.00 18.36507
857.10 18.20872
857.20 17.8402
857.30 17.5321
857.40 17.40484
857.50 17.47621
857.60 17.61159
857.70 17.84458
857.80 18.02878
857.90 18.41414
858.00 18.75996
858.10 18.70672
858.20 18.42836
858.30 18.25214
858.40 18.29381
858.50 18.26943
858.60 18.21304
858.70 18.2779
858.80 18.48669
858.90 18.78149
859.00 18.98795
859.10 18.97193
859.20 18.9043
859.30 18.81162
859.40 18.73126
859.50 18.79662
859.60 18.9862
859.70 19.18231
859.80 19.28264
859.90 19.33492
860.00 19.362
860.10 19.44559
860.20 19.65137
860.30 19.96649
860.40 20.19671
860.50 20.07439
860.60 19.77995
860.70 19.75332
860.80 19.95295
860.90 20.11524
861.00 20.22596
861.10 20.11227
861.20 19.60588
861.30 19.11155
861.40 18.7981
861.50 18.53095
861.60 18.51231
861.70 18.55195
861.80 18.47624
861.90 18.23908
862.00 18.02408
862.10 18.18653
862.20 18.40578
862.30 18.68072
862.40 18.90924
862.50 18.78841
862.60 18.42707
862.70 18.17108
862.80 18.45593
862.90 18.79335
863.00 18.76256
863.10 18.61514
863.20 18.47097
863.30 18.38416
863.40 18.42766
863.50 18.76008
863.60 19.02796
863.70 18.88722
863.80 18.77822
863.90 18.82714
864.00 18.93002
864.10 19.04588
864.20 19.31826
864.30 19.55203
864.40 19.73547
864.50 19.92971
864.60 19.78686
864.70 19.43793
864.80 19.11253
864.90 19.1259
865.00 19.27103
865.10 19.55561
865.20 19.68199
865.30 19.71739
865.40 19.83228
865.50 20.02878
865.60 20.24109
865.70 20.44057
865.80 20.44254
865.90 20.41929
866.00 20.25232
866.10 19.99344
866.20 19.61281
866.30 19.14776
866.40 18.74176
866.50 18.99646
866.60 19.25261
866.70 19.76637
866.80 20.37482
866.90 20.71247
867.00 20.70661
867.10 20.70856
867.20 20.50485
867.30 20.16665
867.40 20.28018
867.50 20.48678
867.60 20.59375
867.70 20.67477
867.80 20.8229
867.90 21.21657
868.00 21.51014
868.10 21.44978
868.20 21.20036
868.30 20.79351
868.40 20.53985
868.50 20.53203
868.60 20.81106
868.70 20.88318
868.80 20.37443
868.90 19.90866
869.00 19.41838
869.10 18.96397
869.20 18.44871
869.30 17.96581
869.40 17.49381
869.50 17.02695
869.60 16.71251
869.70 16.82092
869.80 17.01744
869.90 17.16596
870.00 17.38413
870.10 17.69482
870.20 18.01115
870.30 18.25776
870.40 18.54829
870.50 18.80876
870.60 19.09372
870.70 19.37026
870.80 19.62885
870.90 19.33913
871.00 18.98143
871.10 18.43934
871.20 17.91243
871.30 17.6596
871.40 17.69853
871.50 17.65136
871.60 17.72456
871.70 17.91089
871.80 17.85119
871.90 17.75833
872.00 17.82002
872.10 18.05903
872.20 18.27179
872.30 18.37986
872.40 18.46428
872.50 18.51172
872.60 18.6027
872.70 18.9756
872.80 19.55173
872.90 20.10525
873.00 20.57644
873.10 21.04225
873.20 20.79412
873.30 20.4499
873.40 20.10133
873.50 19.86419
873.60 19.6857
873.70 19.60646
873.80 19.44752
873.90 19.37882
874.00 19.46307
874.10 19.86156
874.20 20.41923
874.30 20.88656
874.40 21.15347
874.50 21.44768
874.60 21.84572
874.70 22.1377
874.80 21.75679
874.90 21.13658
875.00 20.52885
875.10 20.13957
875.20 19.86862
875.30 20.52414
875.40 21.14092
875.50 21.56294
875.60 21.7469
875.70 21.67313
875.80 21.54613
875.90 21.63345
876.00 22.11508
876.10 22.46275
876.20 22.74606
876.30 22.95521
876.40 22.7493
876.50 22.11329
876.60 21.56613
876.70 21.33318
876.80 21.16357
876.90 21.22851
877.00 21.43104
877.10 22.09455
877.20 23.0617
877.30 23.91955
877.40 24.3588
877.50 24.84095
877.60 25.3646
877.70 25.69008
877.80 25.34195
877.90 24.62096
878.00 23.90851
878.10 23.1592
878.20 22.42614
878.30 22.73436
878.40 23.10603
878.50 23.40847
878.60 23.56498
878.70 23.70017
878.80 23.85207
878.90 24.0025
879.00 24.24751
879.10 24.39859
879.20 24.67839
879.30 24.97431
879.40 25.01052
879.50 24.63076
879.60 24.34958
879.70 24.69187
879.80 24.97235
879.90 25.08285
880.00 24.98099
880.10 24.36477
880.20 23.1932
880.30 22.08745
880.40 21.59512
880.50 21.23334
880.60 21.52925
880.70 21.79518
880.80 21.97282
880.90 22.20864
881.00 22.41735
881.10 22.67074
881.20 23.1025
881.30 24.18
881.40 25.2781
881.50 26.13241
881.60 26.75955
881.70 27.23275
881.80 27.14083
881.90 27.02739
882.00 27.09665
882.10 27.00894
882.20 26.27437
882.30 25.13697
882.40 24.05209
882.50 23.17113
882.60 22.31465
882.70 22.31259
882.80 22.47201
882.90 23.00957
883.00 23.71267
883.10 24.44054
883.20 25.20665
883.30 25.90943
883.40 26.28021
883.50 26.62351
883.60 26.698
883.70 26.65338
883.80 26.66804
883.90 26.74552
884.00 26.91281
884.10 27.11447
884.20 27.16237
884.30 27.12199
884.40 26.94557
884.50 26.55223
884.60 25.89074
884.70 25.18982
884.80 24.54252
884.90 23.90918
885.00 23.61588
885.10 23.63564
885.20 24.38144
885.30 25.55415
885.40 26.66561
885.50 27.53622
885.60 28.20752
885.70 27.70797
885.80 27.075
885.90 25.87702
886.00 24.14092
886.10 22.50591
886.20 21.19721
886.30 19.96874
886.40 19.99254
886.50 20.20399
886.60 21.05683
886.70 21.9813
886.80 22.56771
886.90 22.23074
887.00 21.79599
887.10 20.63265
887.20 19.59539
887.30 18.64261
887.40 17.73026
887.50 17.28842
887.60 17.81548
887.70 18.43633
887.80 19.3705
887.90 20.2443
888.00 20.97685
888.10 21.52858
888.20 21.81609
888.30 21.74755
888.40 21.55987
888.50 20.71852
888.60 19.9841
888.70 19.88934
888.80 20.06
888.90 20.48993
889.00 21.13617
889.10 21.82118
889.20 22.08304
889.30 22.18777
889.40 22.10158
889.50 21.93886
889.60 21.45462
889.70 20.81207
889.80 20.37768
889.90 20.35596
890.00 20.33975
890.10 21.21155
890.20 22.06002
890.30 22.6074
890.40 22.97747
890.50 23.46505
890.60 24.01383
890.70 24.44807
890.80 24.41018
890.90 24.32561
891.00 23.9617
891.10 23.49695
891.20 23.14928
891.30 22.892
891.40 22.61931
891.50 23.05406
891.60 23.36333
891.70 23.52928
891.80 23.81902
891.90 24.0874
892.00 24.1242
892.10 24.06712
892.20 23.99875
892.30 24.00038
892.40 23.68099
892.50 23.35774
892.60 23.18057
892.70 23.13217
892.80 23.15762
892.90 23.43602
893.00 23.64805
893.10 24.03437
893.20 24.40853
893.30 24.90918
893.40 25.47819
893.50 25.95052
893.60 26.03998
893.70 26.03812
893.80 25.15583
893.90 24.2928
894.00 23.39204
894.10 22.54561
894.20 21.99998
894.30 22.14596
894.40 22.27057
894.50 22.02718
894.60 21.871
894.70 22.08406
894.80 22.29606
894.90 22.62258
895.00 23.14189
895.10 23.62369
895.20 23.57042
895.30 23.5528
895.40 23.26147
895.50 22.89752
895.60 22.94082
895.70 23.50957
895.80 24.03992
895.90 24.17383
896.00 24.28407
896.10 24.21155
896.20 24.2078
896.30 24.22184
896.40 24.1242
896.50 23.9537
896.60 23.94232
896.70 23.99765
896.80 23.83835
896.90 23.83435
897.00 24.03086
897.10 24.19304
897.20 24.28534
897.30 24.38832
897.40 24.57694
897.50 24.79992
897.60 24.955
897.70 25.26176
897.80 25.69632
897.90 25.90125
898.00 25.61863
898.10 25.47369
898.20 25.26423
898.30 25.03703
898.40 25.33028
898.50 25.88214
898.60 26.475
898.70 26.88875
898.80 27.15418
898.90 27.16752
899.00 27.25624
899.10 27.01171
899.20 26.68717
899.30 26.47936
899.40 26.38653
899.50 26.30591
899.60 26.17493
899.70 25.88917
899.80 25.5543
899.90 25.25821
900.00 24.89831
900.10 24.50818
900.20 24.35695
900.30 25.51137
900.40 26.68717
900.50 27.4749
900.60 28.08202
900.70 28.50987
900.80 28.65916
900.90 28.54303
901.00 27.9027
901.10 27.44148
901.20 27.29208
901.30 27.11647
901.40 27.1183
901.50 27.37511
901.60 27.6126
901.70 27.54127
901.80 27.36289
901.90 26.81918
902.00 26.35921
902.10 25.8341
902.20 25.2405
902.30 24.75784
902.40 24.50988
902.50 24.32632
902.60 24.15741
902.70 23.93571
902.80 23.84432
902.90 23.80334
903.00 24.04731
903.10 24.71846
903.20 25.31538
903.30 25.53947
903.40 25.78401
903.50 26.34406
903.60 27.01057
903.70 27.49159
903.80 27.6889
903.90 27.86636
904.00 28.18391
904.10 28.41802
904.20 28.0532
904.30 27.65999
904.40 27.36494
904.50 27.2564
904.60 27.2912
904.70 27.78248
904.80 28.22231
904.90 28.50036
905.00 28.67659
905.10 28.59665
905.20 28.44302
905.30 28.1766
905.40 27.70207
905.50 27.22154
905.60 26.94014
905.70 26.75114
905.80 26.58042
905.90 26.37472
906.00 26.17004
906.10 25.98426
906.20 25.82505
906.30 26.15708
906.40 26.39841
906.50 26.44391
906.60 26.69778
906.70 26.87821
906.80 26.81351
906.90 26.64035
907.00 26.26614
907.10 25.97982
907.20 26.17146
907.30 26.40147
907.40 26.55
907.50 26.68726
907.60 26.84552
907.70 27.01674
907.80 27.32949
907.90 27.8705
908.00 28.20833
908.10 28.4589
908.20 28.74944
908.30 28.85521
908.40 28.37284
908.50 27.96558
908.60 28.02858
908.70 27.89569
908.80 27.7104
908.90 27.58069
909.00 27.53969
909.10 27.67005
909.20 27.77572
909.30 28.07926
909.40 28.30439
909.50 28.47964
909.60 28.59491
909.70 28.74062
909.80 29.00396
909.90 29.34722
910.00 29.72136
910.10 29.93678
910.20 29.86084
910.30 29.73466
910.40 29.67169
910.50 29.63502
910.60 29.59475
910.70 29.36134
910.80 29.03386
910.90 28.92616
911.00 28.85129
911.10 28.92913
911.20 29.12639
911.30 29.34616
911.40 29.73657
911.50 30.06964
911.60 30.04078
911.70 30.09471
911.80 30.13304
911.90 30.0769
912.00 29.99486
912.10 29.95676
912.20 29.87755
912.30 29.83866
912.40 29.87958
912.50 29.86695
912.60 29.78791
912.70 29.8187
912.80 30.06355
912.90 30.2797
913.00 30.43172
913.10 30.67871
913.20 30.82726
913.30 30.83511
913.40 30.86957
913.50 31.05013
913.60 31.27468
913.70 31.09421
913.80 30.7823
913.90 30.27567
914.00 29.64317
914.10 28.94122
914.20 28.4837
914.30 28.31284
914.40 28.81412
914.50 29.32506
914.60 29.95635
914.70 30.39662
914.80 30.45014
914.90 30.28269
915.00 30.0154
915.10 29.63214
915.20 29.37816
915.30 29.62876
915.40 29.80378
915.50 30.36116
915.60 31.12647
915.70 31.88737
915.80 32.50031
915.90 32.93951
916.00 32.42605
916.10 31.96503
916.20 31.54762
916.30 31.25354
916.40 31.05577
916.50 30.88222
916.60 30.72201
916.70 31.17628
916.80 31.65838
916.90 31.80965
917.00 31.71802
917.10 31.6079
917.20 31.68387
917.30 31.80576
917.40 31.65252
917.50 31.49618
917.60 31.34878
917.70 31.10001
917.80 31.07075
917.90 31.2775
918.00 31.46678
918.10 31.50581
918.20 31.48851
918.30 31.48612
918.40 31.47152
918.50 31.24493
918.60 30.9667
918.70 30.80026
918.80 30.94453
918.90 31.30824
919.00 32.39284
919.10 33.12387
919.20 33.13512
919.30 32.98799
919.40 32.57653
919.50 31.9361
919.60 31.51306
919.70 31.89001
919.80 32.19905
919.90 32.71582
920.00 33.08987
920.10 33.12812
920.20 32.94039
920.30 32.89635
920.40 33.21066
920.50 33.39353
920.60 33.14814
920.70 32.7157
920.80 32.04275
920.90 31.30671
921.00 30.65225
921.10 30.04026
921.20 29.37529
921.30 29.4333
921.40 29.76335
921.50 30.28813
921.60 30.88274
921.70 31.42689
921.80 31.94709
921.90 32.39512
922.00 31.99166
922.10 31.46236
922.20 31.1841
922.30 31.11419
922.40 30.97608
922.50 30.66017
922.60 30.35195
922.70 30.50506
922.80 30.58119
922.90 30.80596
923.00 31.10845
923.10 31.05145
923.20 30.52421
923.30 30.00664
923.40 29.54287
923.50 28.95459
923.60 28.86452
923.70 28.91574
923.80 28.97315
923.90 29.07268
924.00 29.15809
924.10 29.15186
924.20 29.22845
924.30 30.31033
924.40 31.36062
924.50 31.72763
924.60 31.4297
924.70 30.91918
924.80 30.0628
924.90 29.40295
925.00 29.07568
925.10 28.65671
925.20 28.41198
925.30 28.43724
925.40 28.52188
925.50 28.73337
925.60 28.95974
925.70 29.85509
925.80 30.67008
925.90 31.22165
926.00 31.73171
926.10 31.94032
926.20 31.71788
926.30 31.44148
926.40 31.05446
926.50 30.74711
926.60 30.95607
926.70 31.10056
926.80 31.26793
926.90 31.59485
927.00 31.88951
927.10 31.80754
927.20 31.70224
927.30 31.42596
927.40 31.17708
927.50 30.79038
927.60 30.26209
927.70 29.74983
927.80 29.47836
927.90 29.28408
928.00 28.99668
928.10 28.61188
928.20 28.61838
928.30 29.05263
928.40 29.49195
928.50 29.82316
928.60 30.0682
928.70 29.95013
928.80 29.94251
928.90 29.80511
929.00 29.50374
929.10 29.232
929.20 29.10732
929.30 29.04054
929.40 29.18776
929.50 29.35227
929.60 29.5651
929.70 29.63289
929.80 29.48614
929.90 29.16827
930.00 28.77211
930.10 28.12668
930.20 27.8018
930.30 28.00835
930.40 28.01339
930.50 28.15174
930.60 28.48843
930.70 28.66349
930.80 28.36353
930.90 28.12232
931.00 28.17419
931.10 28.23613
931.20 28.73091
931.30 29.47908
931.40 30.12812
931.50 30.69431
931.60 31.11226
931.70 30.52221
931.80 29.86241
931.90 29.24725
932.00 29.13688
932.10 29.26424
932.20 29.51439
932.30 29.78192
932.40 30.03636
932.50 30.23267
932.60 30.1645
932.70 29.96016
932.80 29.78816
932.90 29.68185
933.00 29.62332
933.10 29.81918
933.20 30.09129
933.30 30.33421
933.40 30.20347
933.50 30.07826
933.60 30.06608
933.70 30.14855
933.80 30.24376
933.90 30.24586
934.00 30.26699
934.10 30.37103
934.20 30.42234
934.30 30.40783
934.40 30.28878
934.50 30.18775
934.60 30.34196
934.70 30.49095
934.80 30.41582
934.90 30.23316
935.00 29.93114
935.10 29.71492
935.20 29.50614
935.30 29.48573
935.40 29.47357
935.50 29.5152
935.60 29.66461
935.70 29.8104
935.80 29.89596
935.90 29.80385
936.00 29.74021
936.10 30.02659
936.20 30.3923
936.30 30.6992
936.40 30.73864
936.50 30.71732
936.60 30.67522
936.70 30.4714
936.80 30.21084
936.90 30.00283
937.00 29.93683
937.10 29.87702
937.20 29.47188
937.30 29.18606
937.40 29.02107
937.50 29.27598
937.60 29.55798
937.70 29.77114
937.80 29.8703
937.90 29.92415
938.00 30.07282
938.10 30.14566
938.20 30.14215
938.30 29.82214
938.40 29.58832
938.50 29.50745
938.60 29.68979
938.70 29.8452
938.80 29.9425
938.90 29.96516
939.00 29.98981
939.10 30.13286
939.20 30.32558
939.30 30.47604
939.40 30.52175
939.50 30.51117
939.60 30.30589
939.70 30.01717
939.80 29.68468
939.90 29.43697
940.00 29.16984
940.10 28.99571
940.20 29.22995
940.30 29.52674
940.40 29.71753
940.50 29.66724
940.60 29.59574
940.70 29.78634
940.80 30.11815
940.90 30.47125
941.00 30.78408
941.10 31.08256
941.20 31.23134
941.30 30.98987
941.40 30.65036
941.50 30.23663
941.60 29.83618
941.70 29.48748
941.80 29.57236
941.90 29.80509
942.00 30.07341
942.10 30.1849
942.20 30.14153
942.30 30.10047
942.40 30.15646
942.50 30.22199
942.60 30.31778
942.70 30.48934
942.80 30.6569
942.90 30.66462
943.00 30.52824
943.10 30.51877
943.20 30.98481
943.30 31.50092
943.40 31.77313
943.50 31.91796
943.60 32.0225
943.70 31.96751
943.80 31.80371
943.90 31.5888
944.00 31.30919
944.10 31.13249
944.20 31.02035
944.30 30.91052
944.40 30.81581
944.50 30.55768
944.60 30.16159
944.70 29.77985
944.80 29.81002
944.90 29.93127
945.00 30.06919
945.10 30.17873
945.20 30.3042
945.30 30.41156
945.40 30.64399
945.50 30.86952
945.60 31.08062
945.70 31.13964
945.80 31.13943
945.90 30.86151
946.00 30.6788
946.10 30.63515
946.20 30.70641
946.30 30.78775
946.40 31.16055
946.50 31.73133
946.60 32.2333
946.70 32.08829
946.80 31.98496
946.90 31.94289
947.00 31.98225
947.10 32.01317
947.20 32.01597
947.30 32.06127
947.40 32.07963
947.50 32.1393
947.60 32.16108
947.70 32.18836
947.80 32.27951
947.90 32.48899
948.00 32.74301
948.10 32.91437
948.20 33.00707
948.30 32.95929
948.40 32.81178
948.50 32.66911
948.60 32.81399
948.70 33.05754
948.80 33.24706
948.90 33.18894
949.00 33.18895
949.10 33.32178
949.20 33.54947
949.30 33.70954
949.40 33.49039
949.50 33.23356
949.60 32.94664
949.70 32.57318
949.80 32.30987
949.90 32.27049
950.00 32.53111
950.10 32.77454
950.20 33.01191
950.30 33.15812
950.40 33.26245
950.50 32.87597
950.60 32.5831
950.70 32.36336
950.80 32.3301
950.90 32.33071
951.00 32.44778
951.10 32.67873
951.20 32.88534
951.30 32.91502
951.40 32.87787
951.50 32.80979
951.60 32.69184
951.70 32.66067
951.80 32.6188
951.90 32.5805
952.00 32.57011
952.10 32.65637
952.20 32.68444
952.30 32.72869
952.40 33.04561
952.50 33.35702
952.60 33.65558
952.70 33.94088
952.80 34.13229
952.90 34.14669
953.00 34.14893
953.10 34.18831
953.20 34.16451
953.30 34.02891
953.40 33.85259
953.50 33.66349
953.60 33.55077
953.70 33.43636
953.80 33.15464
953.90 32.84314
954.00 32.80316
954.10 33.08088
954.20 33.40035
954.30 33.54994
954.40 33.6135
954.50 33.59255
954.60 33.26162
954.70 32.79714
954.80 32.49683
954.90 32.46353
955.00 32.55316
955.10 32.87135
955.20 33.23996
955.30 33.58141
955.40 33.72675
955.50 33.82094
955.60 33.96342
955.70 34.08136
955.80 34.17841
955.90 34.26874
956.00 34.41924
956.10 34.5546
956.20 34.57019
956.30 34.593
956.40 34.52163
956.50 34.14996
956.60 33.84603
956.70 33.9092
956.80 34.17298
956.90 34.45571
957.00 34.38816
957.10 34.22654
957.20 34.06954
957.30 34.10282
957.40 34.07765
957.50 33.89928
957.60 33.55248
957.70 33.27922
957.80 33.09108
957.90 33.01196
958.00 33.00095
958.10 33.39692
958.20 33.69936
958.30 33.91782
958.40 33.94033
958.50 33.86747
958.60 33.75103
958.70 33.6883
958.80 33.58576
958.90 33.23422
959.00 32.9798
959.10 32.78258
959.20 32.65701
959.30 32.53672
959.40 32.56698
959.50 32.7191
959.60 32.74974
959.70 32.14107
959.80 31.48672
959.90 30.79022
960.00 30.11795
960.10 29.6786
960.20 29.56241
960.30 29.98994
960.40 30.56418
960.50 31.39576
960.60 32.30065
960.70 33.09382
960.80 33.42413
960.90 33.69022
961.00 33.85255
961.10 33.71666
961.20 33.52993
961.30 33.29778
961.40 33.0528
961.50 32.86244
961.60 32.69969
961.70 32.61734
961.80 32.63715
961.90 33.15557
962.00 33.46996
962.10 33.6994
962.20 33.86434
962.30 33.99781
962.40 33.87923
962.50 33.80535
962.60 33.80708
962.70 34.12215
962.80 34.29083
962.90 34.38767
963.00 34.27237
963.10 34.12483
963.20 33.87915
963.30 33.72043
963.40 33.56408
963.50 33.25402
963.60 32.66873
963.70 31.87618
963.80 30.23136
963.90 28.75712
964.00 27.71783
964.10 27.27141
964.20 27.25355
964.30 28.40231
964.40 29.84246
964.50 31.22843
964.60 31.46975
964.70 31.46635
964.80 31.3113
964.90 30.93641
965.00 30.74234
965.10 30.76772
965.20 31.01663
965.30 31.31988
965.40 31.74453
965.50 32.19783
965.60 32.62763
965.70 32.85271
965.80 32.9582
965.90 33.08445
966.00 33.26075
966.10 33.45536
966.20 33.69446
966.30 33.99141
966.40 34.27316
966.50 34.35307
966.60 34.43859
966.70 34.42116
966.80 34.13379
966.90 33.82249
967.00 33.76184
967.10 33.84642
967.20 33.9164
967.30 33.58017
967.40 33.01388
967.50 32.26157
967.60 31.06217
967.70 30.15471
967.80 29.78608
967.90 29.98329
968.00 30.48479
968.10 31.64151
968.20 32.61203
968.30 33.42557
968.40 33.42695
968.50 33.43608
968.60 33.35766
968.70 33.15272
968.80 32.89892
968.90 32.46358
969.00 31.916
969.10 31.48543
969.20 31.82
969.30 32.31961
969.40 32.93844
969.50 33.78999
969.60 34.49315
969.70 34.9163
969.80 35.1326
969.90 35.27491
970.00 35.34641
970.10 35.26214
970.20 35.1262
970.30 34.82834
970.40 34.38996
970.50 33.60354
970.60 32.41157
970.70 31.38332
970.80 30.9881
970.90 30.95913
971.00 31.18467
971.10 32.57626
971.20 33.68665
971.30 34.64424
971.40 35.21693
971.50 35.65992
971.60 35.86751
971.70 35.96402
971.80 35.97957
971.90 35.64739
972.00 35.33111
972.10 35.00338
972.20 34.66319
972.30 34.49187
972.40 34.50594
972.50 34.6469
972.60 34.66492
972.70 34.27916
972.80 33.67736
972.90 32.94409
973.00 31.76008
973.10 31.01667
973.20 30.76306
973.30 31.39556
973.40 32.0576
973.50 32.69781
973.60 33.26151
973.70 33.74041
973.80 33.69659
973.90 33.63487
974.00 33.56938
974.10 33.53098
974.20 33.36944
974.30 32.93518
974.40 32.31473
974.50 31.72854
974.60 31.45156
974.70 31.22989
974.80 31.17091
974.90 31.98205
975.00 32.75607
975.10 33.34627
975.20 33.61323
975.30 33.84121
975.40 34.07111
975.50 34.16989
975.60 34.25608
975.70 34.12561
975.80 34.09448
975.90 34.15255
976.00 34.49507
976.10 34.80266
976.20 34.85409
976.30 34.76397
976.40 34.72063
976.50 34.96664
976.60 35.09004
976.70 35.18491
976.80 35.09786
976.90 34.80919
977.00 34.24077
977.10 33.51322
977.20 32.93671
977.30 32.7965
977.40 32.71651
977.50 32.78721
977.60 33.60061
977.70 34.22709
977.80 34.69715
977.90 34.90125
978.00 35.01434
978.10 34.73963
978.20 34.10561
978.30 33.3125
978.40 31.86644
978.50 30.65192
978.60 29.72564
978.70 29.74369
978.80 29.89104
978.90 30.16904
979.00 30.6512
979.10 31.25233
979.20 32.32479
979.30 33.32433
979.40 34.2976
979.50 35.0375
979.60 35.65469
979.70 35.96721
979.80 35.72867
979.90 35.44877
980.00 35.38345
980.10 35.47885
980.20 35.59203
980.30 35.61334
980.40 35.59022
980.50 35.5427
980.60 35.47723
980.70 35.43939
980.80 35.40421
980.90 35.35231
981.00 35.34027
981.10 35.49292
981.20 35.53327
981.30 35.5162
981.40 35.36457
981.50 35.29838
981.60 35.12278
981.70 34.784
981.80 34.55306
981.90 34.76776
982.00 34.91326
982.10 35.04219
982.20 34.8995
982.30 34.86326
982.40 34.85486
982.50 34.9133
982.60 34.99759
982.70 35.17068
982.80 35.32367
982.90 35.42311
983.00 35.22609
983.10 35.06012
983.20 34.91224
983.30 34.81591
983.40 34.6918
983.50 34.52932
983.60 34.39917
983.70 34.29409
983.80 34.17124
983.90 34.01073
984.00 33.9255
984.10 34.22419
984.20 34.5029
984.30 34.7153
984.40 34.87651
984.50 35.00716
984.60 35.14663
984.70 35.1578
984.80 35.2022
984.90 35.23945
985.00 35.2839
985.10 35.21417
985.20 34.89801
985.30 34.61444
985.40 34.53752
985.50 34.58138
985.60 34.71651
985.70 35.05292
985.80 35.35317
985.90 35.56213
986.00 35.4721
986.10 35.36935
986.20 35.28666
986.30 35.25188
986.40 35.25939
986.50 35.43888
986.60 35.55784
986.70 35.62844
986.80 35.25318
986.90 34.96381
987.00 34.69281
987.10 34.48603
987.20 34.43184
987.30 34.86041
987.40 35.31441
987.50 35.74547
987.60 35.89594
987.70 35.9797
987.80 35.9125
987.90 35.55774
988.00 35.31633
988.10 35.14439
988.20 34.97497
988.30 34.90529
988.40 35.24294
988.50 35.48865
988.60 35.71788
988.70 35.87434
988.80 36.01542
988.90 36.04445
989.00 35.9581
989.10 35.86606
989.20 35.72308
989.30 35.47577
989.40 35.17415
989.50 34.50723
989.60 33.61058
989.70 32.41433
989.80 30.68113
989.90 29.18377
990.00 28.32532
990.10 27.80694
990.20 27.37697
990.30 26.92564
990.40 26.30324
990.50 25.52637
990.60 24.4321
990.70 23.5873
990.80 22.967
990.90 22.4714
991.00 22.11374
991.10 22.29312
991.20 22.49155
991.30 22.63981
991.40 22.37954
991.50 22.09458
991.60 21.79762
991.70 21.49552
991.80 21.40553
991.90 21.92677
992.00 22.53664
992.10 23.18216
992.20 23.46019
992.30 23.56472
992.40 23.40181
992.50 22.72691
992.60 22.24267
992.70 22.33353
992.80 22.79466
992.90 23.42289
993.00 24.35792
993.10 25.10379
993.20 25.69831
993.30 25.79391
993.40 25.71437
993.50 25.53511
993.60 25.36366
993.70 25.51335
993.80 26.399
993.90 27.17878
994.00 27.98797
994.10 28.67736
994.20 29.22363
994.30 29.46815
994.40 29.23728
994.50 28.96785
994.60 28.77953
994.70 28.68545
994.80 28.69012
994.90 29.15186
995.00 29.64364
995.10 30.13037
995.20 30.52623
995.30 30.82596
995.40 31.09593
995.50 31.28019
995.60 31.29701
995.70 30.57421
995.80 29.97603
995.90 29.44715
996.00 29.24569
996.10 29.11821
996.20 29.20876
996.30 29.52988
996.40 30.01177
996.50 30.87233
996.60 31.60627
996.70 32.24884
996.80 32.03932
996.90 31.56229
997.00 30.63616
997.10 29.02097
997.20 27.64711
997.30 26.8026
997.40 26.26054
997.50 25.96677
997.60 26.58929
997.70 27.13382
997.80 27.72012
997.90 28.38828
998.00 28.9817
998.10 29.51137
998.20 29.9469
998.30 30.2066
998.40 29.58357
998.50 28.95024
998.60 28.33328
998.70 27.89145
998.80 27.53762
998.90 27.3951
999.00 27.57954
999.10 27.73824
999.20 27.74512
999.30 27.78177
999.40 27.90887
999.50 28.39995
999.60 28.60342
999.70 28.61579
999.80 28.40849
999.90 28.43868
1000.00 28.9508
1000.10 29.50675
1000.20 30.11551
1000.30 30.82976
1000.40 31.42584
1000.50 31.86024
1000.60 31.87679
1000.70 31.69445
1000.80 31.19013
1000.90 30.55227
1001.00 29.91361
1001.10 29.17983
1001.20 28.70022
1001.30 28.45167
1001.40 29.07759
1001.50 29.66842
1001.60 30.33758
1001.70 31.08134
1001.80 31.7189
1001.90 31.86008
1002.00 31.87253
1002.10 31.7416
1002.20 31.26525
1002.30 31.06905
1002.40 31.14073
1002.50 31.60409
1002.60 31.89638
1002.70 32.00636
1002.80 32.16949
1002.90 32.25246
1003.00 31.84134
1003.10 31.39971
1003.20 31.02728
1003.30 30.85634
1003.40 30.60868
1003.50 30.2745
1003.60 29.90023
1003.70 29.57229
1003.80 29.33995
1003.90 29.2517
1004.00 29.35687
1004.10 30.22972
1004.20 31.04408
1004.30 31.86346
1004.40 32.65093
1004.50 33.26974
1004.60 33.3
1004.70 33.12279
1004.80 32.82775
1004.90 32.09538
1005.00 31.32627
1005.10 30.39296
1005.20 29.20126
1005.30 28.13373
1005.40 27.30523
1005.50 26.63189
1005.60 26.13824
1005.70 26.29856
1005.80 26.45802
1005.90 26.75164
1006.00 27.37735
1006.10 27.91892
1006.20 28.21325
1006.30 28.38685
1006.40 28.47714
1006.50 28.54868
1006.60 28.78115
1006.70 29.17244
1006.80 30.10005
1006.90 30.78766
1007.00 31.26612
1007.10 31.59909
1007.20 31.74999
1007.30 31.4743
1007.40 31.16089
1007.50 30.97911
1007.60 31.46382
1007.70 31.85977
1007.80 32.26602
1007.90 32.72901
1008.00 33.06446
1008.10 33.17547
1008.20 33.17332
1008.30 33.19727
1008.40 33.17041
1008.50 33.20953
1008.60 33.30246
1008.70 33.56402
1008.80 33.54621
1008.90 33.12388
1009.00 32.49473
1009.10 31.92427
1009.20 31.51332
1009.30 31.21674
1009.40 31.10016
1009.50 31.6502
1009.60 32.1686
1009.70 32.72833
1009.80 33.29306
1009.90 33.86226
1010.00 34.46307
1010.10 35.01497
1010.20 35.53716
1010.30 35.98704
1010.40 36.33516
1010.50 36.41121
1010.60 36.00606
1010.70 35.60643
1010.80 35.15067
1010.90 34.57755
1011.00 33.96188
1011.10 33.17628
1011.20 32.54652
1011.30 31.99896
1011.40 31.65119
1011.50 31.33527
1011.60 31.07062
1011.70 30.90178
1011.80 30.74353
1011.90 30.63828
1012.00 30.71747
1012.10 31.02933
1012.20 32.29469
1012.30 33.28392
1012.40 34.04701
1012.50 34.52877
1012.60 34.85504
1012.70 34.60089
1012.80 34.49502
1012.90 34.3985
1013.00 34.66391
1013.10 34.7854
1013.20 34.79958
1013.30 34.55087
1013.40 33.99667
1013.50 32.93272
1013.60 31.90731
1013.70 30.93384
1013.80 30.21726
1013.90 29.63311
1014.00 29.37248
1014.10 29.87812
1014.20 30.43046
1014.30 31.13938
1014.40 31.89734
1014.50 32.45152
1014.60 32.24304
1014.70 32.02841
1014.80 31.75201
1014.90 31.3032
1015.00 31.23812
1015.10 31.75234
1015.20 32.86781
1015.30 33.79581
1015.40 33.99284
1015.50 34.04062
1015.60 33.87831
1015.70 32.7159
1015.80 31.83705
1015.90 31.19584
1016.00 30.96297
1016.10 30.85798
1016.20 31.15654
1016.30 31.60583
1016.40 32.01565
1016.50 32.05962
1016.60 32.21119
1016.70 32.46447
1016.80 32.96076
1016.90 33.0969
1017.00 32.82988
1017.10 32.46305
1017.20 32.18098
1017.30 32.16691
1017.40 32.29527
1017.50 32.68639
1017.60 33.92826
1017.70 34.58219
1017.80 34.64823
1017.90 34.23168
1018.00 33.80005
1018.10 33.20213
1018.20 32.40936
1018.30 31.68967
1018.40 31.42047
1018.50 31.17118
1018.60 30.93546
1018.70 30.71429
1018.80 30.70611
1018.90 31.25469
1019.00 31.86715
1019.10 32.52764
1019.20 33.00716
1019.30 33.31476
1019.40 33.40181
1019.50 33.20224
1019.60 33.11983
1019.70 33.16975
1019.80 33.20359
1019.90 33.17192
1020.00 32.96318
1020.10 32.82335
1020.20 32.73654
1020.30 32.80541
1020.40 32.93429
1020.50 33.1245
1020.60 33.38609
1020.70 33.68217
1020.80 33.88677
1020.90 34.00013
1021.00 34.00493
1021.10 33.83396
1021.20 33.68755
1021.30 33.3146
1021.40 32.6567
1021.50 32.02235
1021.60 31.5748
1021.70 31.122
1021.80 30.67469
1021.90 30.30077
1022.00 29.96409
1022.10 29.73521
1022.20 29.65921
1022.30 29.9014
1022.40 30.70808
1022.50 31.64325
1022.60 32.49163
1022.70 32.73313
1022.80 32.90106
1022.90 32.94299
1023.00 32.79556
1023.10 32.57701
1023.20 32.22301
1023.30 31.83515
1023.40 31.59711
1023.50 32.01867
1023.60 32.43149
1023.70 32.89398
1023.80 33.41974
1023.90 33.96924
1024.00 34.37553
1024.10 34.49428
1024.20 34.5839
1024.30 34.82826
1024.40 35.09679
1024.50 35.22015
1024.60 34.41702
1024.70 33.80173
1024.80 33.34918
1024.90 33.18083
1025.00 32.96701
1025.10 32.57498
1025.20 32.16297
1025.30 31.72173
1025.40 31.38457
1025.50 31.20337
1025.60 31.24076
1025.70 31.84867
1025.80 32.11517
1025.90 31.73644
1026.00 31.00352
1026.10 30.23245
1026.20 29.52287
1026.30 28.89456
1026.40 28.4726
1026.50 28.78761
1026.60 29.39983
1026.70 30.35193
1026.80 31.57271
1026.90 32.63109
1027.00 33.14539
1027.10 33.58515
1027.20 33.74747
1027.30 33.26901
1027.40 32.8533
1027.50 32.38124
1027.60 31.91813
1027.70 31.63643
1027.80 31.66006
1027.90 31.58382
1028.00 31.47621
1028.10 31.04696
1028.20 30.59382
1028.30 30.07321
1028.40 29.51842
1028.50 29.32904
1028.60 29.82688
1028.70 30.47091
1028.80 31.20664
1028.90 32.2555
1029.00 33.16315
1029.10 33.65701
1029.20 33.19046
1029.30 32.83656
1029.40 32.56931
1029.50 32.26437
1029.60 32.06465
1029.70 32.18962
1029.80 32.42317
1029.90 32.57729
1030.00 32.39092
1030.10 32.13846
1030.20 31.90979
1030.30 31.72359
1030.40 31.71941
1030.50 32.27257
1030.60 32.86694
1030.70 33.50851
1030.80 33.70149
1030.90 33.71819
1031.00 33.55511
1031.10 33.10698
1031.20 32.89727
1031.30 33.1375
1031.40 33.42081
1031.50 33.64362
1031.60 33.54034
1031.70 33.35653
1031.80 33.03339
1031.90 32.37698
1032.00 31.95857
1032.10 31.89844
1032.20 32.00888
1032.30 32.02743
1032.40 31.65506
1032.50 31.48414
1032.60 31.42057
1032.70 31.78067
1032.80 32.28302
1032.90 33.00739
1033.00 34.00648
1033.10 34.92171
1033.20 35.47519
1033.30 35.85788
1033.40 35.91624
1033.50 35.1627
1033.60 34.48898
1033.70 33.62044
1033.80 32.49557
1033.90 31.55921
1034.00 31.21356
1034.10 30.8667
1034.20 30.57397
1034.30 30.36659
1034.40 30.1174
1034.50 29.81696
1034.60 29.47246
1034.70 29.56002
1034.80 30.21967
1034.90 30.99366
1035.00 31.61822
1035.10 31.54651
1035.20 31.64417
1035.30 31.75499
1035.40 31.95186
1035.50 32.14216
1035.60 32.35338
1035.70 32.63708
1035.80 32.99108
1035.90 33.44795
1036.00 33.81576
1036.10 34.19914
1036.20 34.78086
1036.30 35.25681
1036.40 35.48907
1036.50 35.44754
1036.60 35.39354
1036.70 35.37902
1036.80 35.42558
1036.90 35.52842
1037.00 35.88708
1037.10 36.26041
1037.20 36.65629
1037.30 37.06997
1037.40 37.29867
1037.50 37.17624
1037.60 36.91522
1037.70 36.48087
1037.80 35.37382
1037.90 34.32365
1038.00 33.29113
1038.10 32.36578
1038.20 31.7857
1038.30 31.87212
1038.40 32.17732
1038.50 32.65614
1038.60 33.54647
1038.70 34.16741
1038.80 34.54365
1038.90 34.44824
1039.00 34.35982
1039.10 34.18095
1039.20 33.90538
1039.30 33.63512
1039.40 33.36572
1039.50 33.05962
1039.60 32.71286
1039.70 32.25569
1039.80 31.98505
1039.90 31.9684
1040.00 32.30385
1040.10 32.84987
1040.20 33.65339
1040.30 34.32843
1040.40 34.91159
1040.50 35.23159
1040.60 35.60819
1040.70 35.90422
1040.80 36.03769
1040.90 36.00792
1041.00 35.78006
1041.10 35.56603
1041.20 35.18866
1041.30 34.31221
1041.40 33.68802
1041.50 33.28101
1041.60 33.34202
1041.70 33.72475
1041.80 34.58295
1041.90 35.59931
1042.00 36.35845
1042.10 36.36465
1042.20 36.40407
1042.30 36.23177
1042.40 35.4486
1042.50 34.58184
1042.60 33.61782
1042.70 32.67333
1042.80 31.85239
1042.90 31.48407
1043.00 31.24975
1043.10 31.42493
1043.20 32.78342
1043.30 33.98349
1043.40 35.05337
1043.50 35.9589
1043.60 36.51823
1043.70 36.43071
1043.80 36.37056
1043.90 36.29987
1044.00 36.33478
1044.10 36.32855
1044.20 36.33427
1044.30 36.36761
1044.40 36.40147
1044.50 36.32884
1044.60 36.17715
1044.70 35.98548
1044.80 36.06024
1044.90 36.35183
1045.00 36.82979
1045.10 37.49914
1045.20 38.09862
1045.30 38.58222
1045.40 38.96753
1045.50 39.17068
1045.60 39.18963
1045.70 39.15229
1045.80 38.92957
1045.90 38.15548
1046.00 37.43089
1046.10 36.70969
1046.20 36.09076
1046.30 35.67705
1046.40 35.56236
1046.50 35.28247
1046.60 34.98754
1046.70 34.50805
1046.80 33.93163
1046.90 33.36085
1047.00 32.89773
1047.10 32.66419
1047.20 32.78727
1047.30 32.87863
1047.40 33.02038
1047.50 33.29214
1047.60 33.50625
1047.70 33.6719
1047.80 33.82513
1047.90 33.91331
1048.00 33.91247
1048.10 33.94404
1048.20 34.13866
1048.30 34.7772
1048.40 35.20742
1048.50 35.59414
1048.60 35.9258
1048.70 36.15575
1048.80 36.2449
1048.90 36.28704
1049.00 36.41215
1049.10 36.5424
1049.20 36.57054
1049.30 36.59011
1049.40 36.56647
1049.50 36.27734
1049.60 35.5838
1049.70 34.58749
1049.80 33.73263
1049.90 33.57478
1050.00 33.55005
1050.10 33.73979
1050.20 34.56218
1050.30 35.21701
1050.40 35.59192
1050.50 35.62572
1050.60 35.5552
1050.70 35.4181
1050.80 35.29002
1050.90 35.18586
1051.00 35.22929
1051.10 35.13035
1051.20 34.77055
1051.30 33.99054
1051.40 33.35978
1051.50 33.00695
1051.60 32.70292
1051.70 32.51718
1051.80 32.77061
1051.90 33.03595
1052.00 33.22053
1052.10 33.19259
1052.20 33.26468
1052.30 33.43097
1052.40 33.60252
1052.50 33.86513
1052.60 34.57364
1052.70 35.24219
1052.80 35.84349
1052.90 36.24262
1053.00 36.51532
1053.10 36.46486
1053.20 36.07278
1053.30 35.81093
1053.40 35.94297
1053.50 35.98654
1053.60 36.07326
1053.70 36.12019
1053.80 36.10236
1053.90 35.90434
1054.00 35.57747
1054.10 35.43411
1054.20 35.70897
1054.30 35.85416
1054.40 35.95453
1054.50 35.77575
1054.60 35.68694
1054.70 35.41675
1054.80 34.83844
1054.90 34.4967
1055.00 34.64242
1055.10 34.83429
1055.20 35.09963
1055.30 35.52765
1055.40 35.82633
1055.50 35.85318
1055.60 35.42087
1055.70 34.96239
1055.80 34.42489
1055.90 33.79436
1056.00 33.24106
1056.10 32.85429
1056.20 32.5425
1056.30 32.36019
1056.40 32.54302
1056.50 32.75621
1056.60 33.06837
1056.70 33.45544
1056.80 33.76859
1056.90 33.82015
1057.00 33.86657
1057.10 33.9037
1057.20 34.00753
1057.30 34.14216
1057.40 34.36641
1057.50 34.73266
1057.60 35.08536
1057.70 35.25332
1057.80 35.38794
1057.90 35.469
1058.00 35.45549
1058.10 35.4787
1058.20 35.52982
1058.30 35.6108
1058.40 35.43477
1058.50 34.84774
1058.60 34.15106
1058.70 33.49176
1058.80 33.22179
1058.90 33.07327
1059.00 33.07565
1059.10 33.33427
1059.20 33.56932
1059.30 33.80012
1059.40 33.95767
1059.50 34.17142
1059.60 34.60231
1059.70 35.03512
1059.80 35.35511
1059.90 35.19212
1060.00 34.98784
1060.10 34.7605
1060.20 34.46933
1060.30 34.19038
1060.40 33.92035
1060.50 33.6882
1060.60 33.41847
1060.70 33.09853
1060.80 32.91117
1060.90 32.80943
1061.00 32.76309
1061.10 32.82942
1061.20 33.27094
1061.30 33.78505
1061.40 34.32722
1061.50 34.72238
1061.60 34.90906
1061.70 34.90923
1061.80 34.67221
1061.90 34.37035
1062.00 34.09631
1062.10 33.99018
1062.20 33.99534
1062.30 34.05347
1062.40 34.01894
1062.50 34.12498
1062.60 34.58378
1062.70 35.15834
1062.80 35.76713
1062.90 36.35341
1063.00 36.75233
1063.10 36.65073
1063.20 36.5977
1063.30 36.42192
1063.40 36.02312
1063.50 35.68687
1063.60 35.57243
1063.70 35.64948
1063.80 35.82523
1063.90 36.21728
1064.00 36.59317
1064.10 36.93418
1064.20 37.10169
1064.30 37.22583
1064.40 37.2503
1064.50 37.1471
1064.60 37.04892
1064.70 36.9752
1064.80 36.88714
1064.90 36.81622
1065.00 36.87156
1065.10 36.8126
1065.20 36.61898
1065.30 36.29556
1065.40 35.95234
1065.50 35.47379
1065.60 34.89676
1065.70 34.42848
1065.80 34.3673
1065.90 34.28098
1066.00 34.20729
1066.10 34.19359
1066.20 33.93073
1066.30 33.34714
1066.40 32.74581
1066.50 32.33777
1066.60 32.58335
1066.70 32.73254
1066.80 32.90448
1066.90 33.04922
1067.00 33.15551
1067.10 33.22809
1067.20 33.26116
1067.30 33.46024
1067.40 34.147
1067.50 34.70289
1067.60 35.21301
1067.70 35.59546
1067.80 35.97729
1067.90 36.26845
1068.00 36.48047
1068.10 36.72394
1068.20 36.927
1068.30 36.858
1068.40 36.8141
1068.50 36.88106
1068.60 36.99301
1068.70 37.02225
1068.80 37.0362
1068.90 37.01844
1069.00 36.91885
1069.10 36.80258
1069.20 36.76114
1069.30 36.81632
1069.40 36.69976
1069.50 36.42408
1069.60 36.00943
1069.70 35.80712
1069.80 35.80892
1069.90 35.70261
1070.00 35.65237
1070.10 35.71511
1070.20 35.72127
1070.30 35.63061
1070.40 35.30415
1070.50 35.15734
1070.60 35.27423
1070.70 35.45889
1070.80 35.5612
1070.90 35.48611
1071.00 35.63372
1071.10 35.7018
1071.20 35.5831
1071.30 35.67071
1071.40 36.04591
1071.50 36.63646
1071.60 37.06215
1071.70 36.98999
1071.80 37.00532
1071.90 36.97157
1072.00 36.94117
1072.10 36.86334
1072.20 36.76341
1072.30 36.68872
1072.40 36.46474
1072.50 35.92288
1072.60 35.31677
1072.70 34.83887
1072.80 35.02159
1072.90 35.1222
1073.00 35.29318
1073.10 35.5986
1073.20 35.70675
1073.30 35.48174
1073.40 35.364
1073.50 35.28119
1073.60 35.40491
1073.70 35.48904
1073.80 35.71339
1073.90 36.14775
1074.00 36.62239
1074.10 37.09848
1074.20 37.4853
1074.30 37.70118
1074.40 37.52135
1074.50 37.42521
1074.60 37.30847
1074.70 37.2381
1074.80 37.06151
1074.90 36.89317
1075.00 36.8839
1075.10 36.94292
1075.20 36.66438
1075.30 36.39369
1075.40 36.14154
1075.50 35.8541
1075.60 35.74535
1075.70 35.95269
1075.80 36.41213
1075.90 36.79206
1076.00 36.9473
1076.10 37.16447
1076.20 37.24095
1076.30 37.12716
1076.40 37.10466
1076.50 37.13627
1076.60 37.26303
1076.70 37.43416
1076.80 37.59433
1076.90 37.61022
1077.00 37.58996
1077.10 37.54539
1077.20 37.52367
1077.30 37.42909
1077.40 37.263
1077.50 37.05165
1077.60 36.64069
1077.70 36.15975
1077.80 35.81019
1077.90 36.11465
1078.00 36.38575
1078.10 36.67509
1078.20 36.95789
1078.30 37.15863
1078.40 37.2475
1078.50 37.14476
1078.60 36.99557
1078.70 36.73637
1078.80 36.62977
1078.90 36.45645
1079.00 36.04729
1079.10 35.61933
1079.20 35.27518
1079.30 35.00952
1079.40 34.74768
1079.50 34.75586
1079.60 34.79936
1079.70 35.01877
1079.80 35.37416
1079.90 35.64126
1080.00 35.87978
1080.10 36.12742
1080.20 36.37143
1080.30 36.51125
1080.40 36.58949
1080.50 36.63529
1080.60 36.89265
1080.70 37.15422
1080.80 37.36618
1080.90 37.47328
1081.00 37.55981
1081.10 37.5954
1081.20 37.58915
1081.30 37.551
1081.40 37.50317
1081.50 37.54064
1081.60 37.65957
1081.70 37.90017
1081.80 38.00919
1081.90 37.97207
1082.00 37.95877
1082.10 37.83076
1082.20 37.40961
1082.30 37.05201
1082.40 36.73269
1082.50 36.52005
1082.60 36.44003
1082.70 36.44831
1082.80 36.47594
1082.90 36.53176
1083.00 36.70439
1083.10 36.91277
1083.20 37.18021
1083.30 37.51797
1083.40 37.53735
1083.50 37.43396
1083.60 37.32246
1083.70 37.2651
1083.80 37.15295
1083.90 37.11573
1084.00 37.20069
1084.10 37.35291
1084.20 37.39086
1084.30 37.38368
1084.40 37.31914
1084.50 37.09013
1084.60 36.61396
1084.70 36.25875
1084.80 35.99286
1084.90 36.18546
1085.00 36.36016
1085.10 36.66853
1085.20 37.15227
1085.30 37.26001
1085.40 36.9522
1085.50 36.67638
1085.60 36.64904
1085.70 37.13086
1085.80 37.4796
1085.90 37.84413
1086.00 38.17704
1086.10 38.39888
1086.20 38.5787
1086.30 38.79131
1086.40 38.92443
1086.50 38.69067
1086.60 38.55096
1086.70 38.36545
1086.80 38.09202
1086.90 37.89154
1087.00 37.9992
1087.10 38.3091
1087.20 38.58356
1087.30 38.51698
1087.40 38.45899
1087.50 38.22426
1087.60 37.55954
1087.70 37.16153
1087.80 37.13291
1087.90 37.43771
1088.00 37.6342
1088.10 37.52019
1088.20 37.50428
1088.30 37.43813
1088.40 37.28536
1088.50 37.20316
1088.60 37.28901
1088.70 37.68565
1088.80 37.93568
1088.90 37.7926
1089.00 37.59948
1089.10 37.47371
1089.20 37.5082
1089.30 37.35383
1089.40 37.15227
1089.50 36.97855
1089.60 37.0451
1089.70 37.32604
1089.80 37.5903
1089.90 37.89539
1090.00 38.33802
1090.10 38.72481
1090.20 38.96296
1090.30 38.94933
1090.40 39.01152
1090.50 38.98359
1090.60 38.85155
1090.70 38.57245
1090.80 38.19298
1090.90 37.94855
1091.00 37.68192
1091.10 37.2251
1091.20 36.90708
1091.30 36.93436
1091.40 37.18296
1091.50 37.55812
1091.60 38.18584
1091.70 38.68655
1091.80 39.06131
1091.90 39.13897
1092.00 39.14675
1092.10 38.98821
1092.20 38.68435
1092.30 38.45534
1092.40 38.47818
1092.50 38.55555
1092.60 38.62927
1092.70 38.49145
1092.80 38.34703
1092.90 38.21798
1093.00 38.16585
1093.10 38.12886
1093.20 38.07214
1093.30 37.98273
1093.40 37.88075
1093.50 37.74593
1093.60 37.51169
1093.70 37.24988
1093.80 37.00228
1093.90 37.14622
1094.00 37.66245
1094.10 38.23133
1094.20 38.69268
1094.30 38.70521
1094.40 38.6102
1094.50 38.27172
1094.60 37.55423
1094.70 37.18013
1094.80 37.10208
1094.90 37.0685
1095.00 37.18874
1095.10 37.6184
1095.20 38.14687
1095.30 38.67867
1095.40 39.20995
1095.50 39.43936
1095.60 39.3824
1095.70 39.22564
1095.80 39.13319
1095.90 39.0512
1096.00 38.85959
1096.10 38.76769
1096.20 38.82657
1096.30 38.85983
1096.40 38.87588
1096.50 38.91378
1096.60 38.86373
1096.70 38.5831
1096.80 38.22079
1096.90 37.74324
1097.00 37.00966
1097.10 36.51484
1097.20 36.20481
1097.30 36.01211
1097.40 35.99498
1097.50 36.29116
1097.60 36.76621
1097.70 37.21765
1097.80 37.55139
1097.90 37.76944
1098.00 37.96412
1098.10 38.26601
1098.20 38.55227
1098.30 38.4493
1098.40 38.07085
1098.50 37.60468
1098.60 37.33039
1098.70 37.19014
1098.80 37.14134
1098.90 37.1814
1099.00 37.2636
1099.10 37.39251
1099.20 37.56075
1099.30 37.8117
1099.40 38.28947
1099.50 38.62682
1099.60 38.805
1099.70 38.56946
1099.80 38.38648
1099.90 38.23757
1100.00 38.17098
1100.10 38.13618
1100.20 38.01585
1100.30 37.87373
1100.40 37.6737
1100.50 37.35264
1100.60 37.16178
1100.70 37.20976
1100.80 37.4646
1100.90 37.7145
1101.00 37.87036
1101.10 38.03619
1101.20 38.15966
1101.30 38.26853
1101.40 38.3906
1101.50 38.53613
1101.60 38.78242
1101.70 38.80977
1101.80 38.47899
1101.90 37.96425
1102.00 37.3389
1102.10 36.87821
1102.20 36.43346
1102.30 36.00285
1102.40 35.48082
1102.50 35.50469
1102.60 36.11718
1102.70 36.80912
1102.80 37.43947
1102.90 37.79293
1103.00 37.97762
1103.10 37.88196
1103.20 37.58412
1103.30 37.20966
1103.40 36.5551
1103.50 35.78703
1103.60 35.26542
1103.70 35.33658
1103.80 35.42391
1103.90 35.72443
1104.00 36.17098
1104.10 36.28628
1104.20 36.38038
1104.30 36.66374
1104.40 37.01424
1104.50 37.17116
1104.60 37.19103
1104.70 37.24428
1104.80 37.16165
1104.90 36.89753
1105.00 36.67083
1105.10 36.71703
1105.20 36.65009
1105.30 36.07024
1105.40 35.39255
1105.50 34.81117
1105.60 34.66072
1105.70 34.64045
1105.80 34.84925
1105.90 35.35187
1106.00 35.67155
1106.10 35.74035
1106.20 35.80877
1106.30 35.83683
1106.40 35.8618
1106.50 35.90438
1106.60 35.9285
1106.70 35.91559
1106.80 35.65451
1106.90 35.21092
1107.00 34.81599
1107.10 34.59176
1107.20 34.6954
1107.30 34.72863
1107.40 34.94987
1107.50 35.55133
1107.60 35.84206
1107.70 35.82046
1107.80 35.61596
1107.90 35.56467
1108.00 35.73526
1108.10 35.9864
1108.20 36.31924
1108.30 36.79435
1108.40 37.09644
1108.50 37.33684
1108.60 37.57542
1108.70 37.74864
1108.80 37.57493
1108.90 37.45996
1109.00 37.32596
1109.10 37.05933
1109.20 36.85305
1109.30 36.90014
1109.40 37.23938
1109.50 37.59372
1109.60 37.87586
1109.70 38.07008
1109.80 38.21185
1109.90 38.11053
1110.00 37.98363
1110.10 37.66596
1110.20 37.05937
1110.30 36.36862
1110.40 35.70189
1110.50 35.13084
1110.60 34.71612
1110.70 35.03513
1110.80 35.20669
1110.90 35.35201
1111.00 35.42817
1111.10 35.36908
1111.20 35.20622
1111.30 34.97369
1111.40 34.77924
1111.50 34.88578
1111.60 35.03594
1111.70 35.23884
1111.80 35.45262
1111.90 35.55278
1112.00 35.47353
1112.10 35.33642
1112.20 35.2398
1112.30 35.21941
1112.40 35.26171
1112.50 35.44266
1112.60 35.84471
1112.70 36.15095
1112.80 36.53282
1112.90 37.00029
1113.00 37.40532
1113.10 37.50379
1113.20 37.65988
1113.30 37.76419
1113.40 37.79204
1113.50 37.73317
1113.60 37.37934
1113.70 36.69759
1113.80 36.02067
1113.90 35.87299
1114.00 35.75784
1114.10 35.78356
1114.20 36.12774
1114.30 36.59957
1114.40 37.19606
1114.50 37.93092
1114.60 38.50382
1114.70 38.46396
1114.80 38.37822
1114.90 38.21993
1115.00 37.76078
1115.10 37.26573
1115.20 37.07772
1115.30 37.44039
1115.40 37.60948
1115.50 37.52639
1115.60 37.40154
1115.70 37.26781
1115.80 37.17925
1115.90 37.30871
1116.00 37.47236
1116.10 37.54026
1116.20 37.56322
1116.30 37.65783
1116.40 37.73037
1116.50 37.71775
1116.60 37.68826
1116.70 37.56869
1116.80 37.36134
1116.90 36.90742
1117.00 36.52736
1117.10 36.11331
1117.20 35.69228
1117.30 35.28555
1117.40 35.04064
1117.50 34.7232
1117.60 34.46384
1117.70 34.59005
1117.80 34.8671
1117.90 35.29676
1118.00 35.85292
1118.10 36.35514
1118.20 36.75822
1118.30 37.01328
1118.40 37.26334
1118.50 37.6131
1118.60 38.12296
1118.70 38.35675
1118.80 38.143
1118.90 37.90562
1119.00 37.56123
1119.10 37.22508
1119.20 36.90519
1119.30 36.55249
1119.40 36.29133
1119.50 36.09661
1119.60 36.1311
1119.70 36.22255
1119.80 36.35425
1119.90 36.4779
1120.00 36.55261
1120.10 36.59679
1120.20 36.54813
1120.30 36.33798
1120.40 36.15644
1120.50 36.27974
1120.60 36.82681
1120.70 37.30102
1120.80 37.6673
1120.90 37.56167
1121.00 37.49959
1121.10 37.41843
1121.20 37.34793
1121.30 37.10937
1121.40 36.90721
1121.50 36.75519
1121.60 36.84175
1121.70 36.92938
1121.80 36.94971
1121.90 36.84168
1122.00 36.74005
1122.10 36.7818
1122.20 36.82843
1122.30 36.75692
1122.40 36.72833
1122.50 37.06229
1122.60 37.19266
1122.70 37.35635
1122.80 37.47795
1122.90 37.79998
1123.00 38.10405
1123.10 38.1948
1123.20 37.99082
1123.30 37.96059
1123.40 37.82676
1123.50 37.45003
1123.60 36.65042
1123.70 36.20438
1123.80 36.2644
1123.90 36.65195
1124.00 36.97714
1124.10 37.25291
1124.20 37.53343
1124.30 37.8216
1124.40 38.08332
1124.50 38.19997
1124.60 38.27612
1124.70 38.28369
1124.80 37.96193
1124.90 37.94045
1125.00 37.81027
1125.10 37.46887
1125.20 36.4497
1125.30 35.51113
1125.40 35.13794
1125.50 35.69525
1125.60 36.32732
1125.70 36.96595
1125.80 37.18506
1125.90 37.5695
1126.00 37.87075
1126.10 37.89153
1126.20 37.76259
1126.30 37.65651
1126.40 37.64402
1126.50 37.65722
1126.60 37.69375
1126.70 37.77175
1126.80 37.98397
1126.90 38.21394
1127.00 38.41639
1127.10 38.48397
1127.20 38.48411
1127.30 38.41797
1127.40 38.39801
1127.50 38.43652
1127.60 38.48376
1127.70 38.37477
1127.80 38.05868
1127.90 37.819
1128.00 37.65027
1128.10 37.65821
1128.20 37.66481
1128.30 37.68004
1128.40 37.87023
1128.50 38.03947
1128.60 38.22278
1128.70 38.18427
1128.80 38.19486
1128.90 38.14143
1129.00 38.06778
1129.10 38.00149
1129.20 37.90641
1129.30 37.90467
1129.40 38.02649
1129.50 38.16069
1129.60 38.362
1129.70 38.50854
1129.80 38.58558
1129.90 38.65418
1130.00 38.4729
1130.10 38.51141
1130.20 38.27625
1130.30 37.89193
1130.40 37.43173
1130.50 37.02219
1130.60 36.6773
1130.70 36.416
1130.80 36.20902
1130.90 36.13149
1131.00 36.28683
1131.10 36.33103
1131.20 36.39727
1131.30 36.58895
1131.40 36.82856
1131.50 37.02289
1131.60 37.18773
1131.70 37.34561
1131.80 37.46854
1131.90 37.5448
1132.00 37.52927
1132.10 37.53614
1132.20 37.52285
1132.30 37.49035
1132.40 37.43371
1132.50 37.40245
1132.60 37.29905
1132.70 37.22392
1132.80 37.15502
1132.90 37.12522
1133.00 37.15237
1133.10 37.13749
1133.20 37.07932
1133.30 36.97095
1133.40 36.89251
1133.50 36.82915
1133.60 36.58782
1133.70 36.40205
1133.80 36.21363
1133.90 35.91601
1134.00 35.57535
1134.10 35.22449
1134.20 35.00726
1134.30 34.67164
1134.40 34.29424
1134.50 34.06712
1134.60 34.1243
1134.70 34.29121
1134.80 34.57655
1134.90 35.60689
1135.00 36.66545
1135.10 37.52681
1135.20 37.36332
1135.30 37.13203
1135.40 36.82633
1135.50 36.44564
1135.60 36.17765
1135.70 35.99083
1135.80 35.91876
1135.90 35.72137
1136.00 35.31971
1136.10 35.00469
1136.20 35.19461
1136.30 35.53418
1136.40 35.71313
1136.50 35.47304
1136.60 35.28903
1136.70 35.078
1136.80 34.777
1136.90 34.36289
1137.00 33.96958
1137.10 33.64505
1137.20 33.51167
1137.30 33.34017
1137.40 33.11256
1137.50 32.64412
1137.60 32.06626
1137.70 31.27157
1137.80 30.15588
1137.90 29.38612
1138.00 28.28527
1138.10 26.96226
1138.20 25.41044
1138.30 24.37398
1138.40 23.95271
1138.50 24.2144
1138.60 24.36121
1138.70 25.09762
1138.80 26.70684
1138.90 28.19282
1139.00 29.27287
1139.10 29.9902
1139.20 30.87001
1139.30 31.38184
1139.40 31.49206
1139.50 31.45751
1139.60 31.35902
1139.70 31.12224
1139.80 30.51894
1139.90 29.78968
1140.00 28.85401
1140.10 27.46865
1140.20 26.34042
1140.30 24.90706
1140.40 23.29559
1140.50 21.56127
1140.60 20.61372
1140.70 20.65094
1140.80 20.96788
1140.90 21.7016
1141.00 22.95047
1141.10 24.98794
1141.20 26.82714
1141.30 28.41375
1141.40 29.60696
1141.50 30.74887
1141.60 31.66007
1141.70 32.19049
1141.80 32.94946
1141.90 33.52536
1142.00 33.99488
1142.10 34.39148
1142.20 34.73852
1142.30 34.97211
1142.40 34.89935
1142.50 34.89777
1142.60 34.93963
1142.70 35.16219
1142.80 35.32219
1142.90 35.46083
1143.00 35.51922
1143.10 35.6899
1143.20 35.80803
1143.30 35.9025
1143.40 35.92297
1143.50 35.91911
1143.60 35.9185
1143.70 36.00364
1143.80 36.05785
1143.90 36.01207
1144.00 35.95624
1144.10 35.7935
1144.20 35.77645
1144.30 35.76819
1144.40 35.83764
1144.50 35.91203
1144.60 35.89107
1144.70 35.84685
1144.80 35.83593
1144.90 35.89048
1145.00 36.09236
1145.10 36.24457
1145.20 36.37843
1145.30 36.36985
1145.40 36.443
1145.50 36.50205
1145.60 36.50341
1145.70 36.46581
1145.80 36.43902
1145.90 36.55005
1146.00 36.76617
1146.10 36.98041
1146.20 37.18966
1146.30 37.26786
1146.40 37.37004
1146.50 37.4764
1146.60 37.69748
1146.70 37.83065
1146.80 37.85449
1146.90 37.75944
1147.00 37.86704
1147.10 37.915
1147.20 37.89916
1147.30 37.66046
1147.40 37.48019
1147.50 37.35917
1147.60 37.24482
1147.70 37.11522
1147.80 36.99152
1147.90 37.00999
1148.00 37.11349
1148.10 37.18064
1148.20 37.26909
1148.30 37.44434
1148.40 37.48627
1148.50 37.50705
1148.60 37.40323
1148.70 37.40515
1148.80 37.52723
1148.90 37.80116
1149.00 38.00864
1149.10 38.1866
1149.20 38.00188
1149.30 38.05867
1149.40 38.02736
1149.50 38.07784
1149.60 37.91027
1149.70 37.84497
1149.80 37.82594
1149.90 37.82796
1150.00 37.75798
1150.10 37.59228
1150.20 37.40294
1150.30 37.31782
1150.40 37.24531
1150.50 37.37579
1150.60 37.3958
1150.70 37.46958
1150.80 37.65114
1150.90 37.83085
1151.00 37.96266
1151.10 37.96559
1151.20 37.88543
1151.30 37.80971
1151.40 37.69286
1151.50 37.56227
1151.60 37.50119
1151.70 37.45089
1151.80 37.42985
1151.90 37.28632
1152.00 37.15465
1152.10 37.14962
1152.20 37.35645
1152.30 37.4289
1152.40 37.29294
1152.50 36.86189
1152.60 36.48453
1152.70 36.24434
1152.80 36.3022
1152.90 36.2867
1153.00 36.27146
1153.10 36.27477
1153.20 36.39624
1153.30 36.51066
1153.40 36.57313
1153.50 36.56708
1153.60 36.63619
1153.70 36.81682
1153.80 37.03097
1153.90 37.2101
1154.00 37.38713
1154.10 37.55754
1154.20 37.68681
1154.30 37.7591
1154.40 37.51047
1154.50 37.38122
1154.60 37.16547
1154.70 36.87559
1154.80 36.6182
1154.90 36.50101
1155.00 36.56104
1155.10 36.69301
1155.20 36.84148
1155.30 36.9807
1155.40 37.02399
1155.50 37.05896
1155.60 37.09951
1155.70 37.26265
1155.80 37.34378
1155.90 37.37416
1156.00 37.29292
1156.10 37.37536
1156.20 37.46551
1156.30 37.53193
1156.40 37.48335
1156.50 37.41545
1156.60 37.37321
1156.70 37.41104
1156.80 37.45417
1156.90 37.40881
1157.00 37.10983
1157.10 36.88111
1157.20 36.724
1157.30 36.83981
1157.40 36.9175
1157.50 37.00038
1157.60 37.02272
1157.70 36.98297
1157.80 36.95127
1157.90 36.94289
1158.00 36.97952
1158.10 36.99922
1158.20 37.01841
1158.30 37.07075
1158.40 37.18198
1158.50 37.26964
1158.60 37.17296
1158.70 37.0533
1158.80 36.88867
1158.90 36.69428
1159.00 36.47723
1159.10 36.16348
1159.20 35.78428
1159.30 35.38544
1159.40 35.07721
1159.50 34.80227
1159.60 34.63342
1159.70 34.40773
1159.80 34.38056
1159.90 34.77057
1160.00 35.06152
1160.10 35.37294
1160.20 35.66216
1160.30 35.9314
1160.40 36.08226
1160.50 36.09771
1160.60 35.98588
1160.70 35.80252
1160.80 35.44495
1160.90 34.7917
1161.00 34.33468
1161.10 34.15615
1161.20 34.58737
1161.30 34.74031
1161.40 35.13642
1161.50 35.74837
1161.60 36.53522
1161.70 37.10233
1161.80 37.26768
1161.90 37.02725
1162.00 36.8402
1162.10 36.61491
1162.20 36.53638
1162.30 36.43021
1162.40 36.39474
1162.50 36.56826
1162.60 36.65685
1162.70 36.78573
1162.80 36.89712
1162.90 36.97782
1163.00 37.03884
1163.10 37.09121
1163.20 37.1697
1163.30 37.2483
1163.40 37.21764
1163.50 36.9202
1163.60 36.7001
1163.70 36.33056
1163.80 35.68044
1163.90 35.02944
1164.00 34.53712
1164.10 34.50466
1164.20 34.4484
1164.30 34.65931
1164.40 35.09732
1164.50 35.77786
1164.60 36.29753
1164.70 36.64878
1164.80 36.66138
1164.90 36.72285
1165.00 36.7139
1165.10 36.4858
1165.20 36.35048
1165.30 36.18136
1165.40 35.95619
1165.50 35.70913
1165.60 35.53358
1165.70 35.49774
1165.80 35.56594
1165.90 35.5779
1166.00 35.66931
1166.10 35.94233
1166.20 36.20891
1166.30 36.45986
1166.40 36.51595
1166.50 36.70762
1166.60 36.86073
1166.70 36.87224
1166.80 36.84952
1166.90 36.73732
1167.00 36.54584
1167.10 36.27629
1167.20 36.02536
1167.30 35.82119
1167.40 35.74847
1167.50 35.68998
1167.60 35.64133
1167.70 35.60364
1167.80 35.57954
1167.90 35.59039
1168.00 35.56119
1168.10 35.53313
1168.20 35.41804
1168.30 35.14197
1168.40 34.76369
1168.50 34.30383
1168.60 33.68764
1168.70 32.74186
1168.80 31.74039
1168.90 30.37011
1169.00 28.05051
1169.10 26.03855
1169.20 24.49035
1169.30 24.30138
1169.40 23.59576
1169.50 23.81527
1169.60 25.16941
1169.70 27.27328
1169.80 29.04739
1169.90 30.57098
1170.00 31.75371
1170.10 32.95036
1170.20 33.96366
1170.30 34.49512
1170.40 35.18491
1170.50 35.75966
1170.60 35.92856
1170.70 36.08635
1170.80 36.17756
1170.90 36.16757
1171.00 36.1332
1171.10 36.1417
1171.20 36.17136
1171.30 36.17947
1171.40 36.13223
1171.50 36.08189
1171.60 36.08414
1171.70 36.17112
1171.80 36.20535
1171.90 36.04809
1172.00 35.79558
1172.10 35.5916
1172.20 35.52638
1172.30 35.53709
1172.40 35.5612
1172.50 35.61937
1172.60 35.74561
1172.70 35.89554
1172.80 36.07219
1172.90 36.20443
1173.00 36.29608
1173.10 36.35539
1173.20 36.30018
1173.30 36.35411
1173.40 36.30654
1173.50 36.17005
1173.60 35.97871
1173.70 35.81675
1173.80 35.77493
1173.90 35.83163
1174.00 35.84874
1174.10 35.9121
1174.20 36.09962
1174.30 36.28672
1174.40 36.49114
1174.50 36.51278
1174.60 36.53035
1174.70 36.45948
1174.80 36.32121
1174.90 36.20169
1175.00 36.0599
1175.10 35.82957
1175.20 35.46792
1175.30 35.13789
1175.40 34.84841
1175.50 34.77313
1175.60 34.67533
1175.70 34.63873
1175.80 34.68511
1175.90 34.85715
1176.00 34.93301
1176.10 34.80488
1176.20 34.63208
1176.30 34.44348
1176.40 34.20619
1176.50 33.88525
1176.60 33.37136
1176.70 32.58853
1176.80 31.32657
1176.90 30.13982
1177.00 28.57968
1177.10 26.13512
1177.20 23.80449
1177.30 21.85428
1177.40 20.72236
1177.50 19.36966
1177.60 19.03508
1177.70 19.82206
1177.80 21.75861
1177.90 23.44983
1178.00 25.21469
1178.10 27.0756
1178.20 28.84402
1178.30 30.25887
1178.40 30.92256
1178.50 31.77672
1178.60 32.53515
1178.70 33.05621
1178.80 33.58323
1178.90 34.09472
1179.00 34.4704
1179.10 34.71982
1179.20 34.9091
1179.30 35.01294
1179.40 34.98522
1179.50 34.99126
1179.60 34.97644
1179.70 35.03879
1179.80 35.10412
1179.90 35.21024
1180.00 35.24153
1180.10 35.17282
1180.20 35.14619
1180.30 35.24887
1180.40 35.49563
1180.50 35.69645
1180.60 35.79021
1180.70 35.73398
1180.80 35.75082
1180.90 35.7538
1181.00 35.72023
1181.10 35.66853
1181.20 35.62131
1181.30 35.56591
1181.40 35.49212
1181.50 35.41237
1181.60 35.39391
1181.70 35.36732
1181.80 35.35897
1181.90 35.40603
1182.00 35.56254
1182.10 35.71577
1182.20 35.86053
1182.30 35.84785
1182.40 35.86038
1182.50 35.74822
1182.60 35.3811
1182.70 35.0546
1182.80 34.66196
1182.90 34.32904
1183.00 33.96958
1183.10 33.79227
1183.20 33.80123
1183.30 34.04707
1183.40 34.24452
1183.50 34.41676
1183.60 34.46714
1183.70 34.61459
1183.80 34.70439
1183.90 34.76724
1184.00 34.6671
1184.10 34.74288
1184.20 35.12337
1184.30 35.63339
1184.40 36.00218
1184.50 36.12584
1184.60 35.95586
1184.70 35.83151
1184.80 35.61463
1184.90 35.19479
1185.00 34.83519
1185.10 34.55933
1185.20 34.53795
1185.30 34.47312
1185.40 34.52244
1185.50 34.76913
1185.60 35.03767
1185.70 35.2178
1185.80 35.34539
1185.90 35.43069
1186.00 35.55627
1186.10 35.66967
1186.20 35.67366
1186.30 35.61652
1186.40 35.53502
1186.50 35.48354
1186.60 35.5373
1186.70 35.53204
1186.80 35.33316
1186.90 35.08932
1187.00 34.92153
1187.10 34.86749
1187.20 34.89038
1187.30 34.90119
1187.40 35.00312
1187.50 35.31593
1187.60 35.55663
1187.70 35.74137
1187.80 35.49202
1187.90 35.32561
1188.00 34.97146
1188.10 34.30417
1188.20 33.71099
1188.30 32.92797
1188.40 31.94372
1188.50 30.81135
1188.60 30.11261
1188.70 30.06923
1188.80 30.86911
1188.90 31.41879
1189.00 32.14085
1189.10 33.08047
1189.20 34.03093
1189.30 34.63802
1189.40 34.64158
1189.50 34.60481
1189.60 34.59235
1189.70 34.65629
1189.80 34.84734
1189.90 35.05603
1190.00 35.23071
1190.10 35.35357
1190.20 35.48908
1190.30 35.54796
1190.40 35.35866
1190.50 35.16632
1190.60 34.95522
1190.70 34.84095
1190.80 34.69833
1190.90 34.70796
1191.00 34.87587
1191.10 35.05091
1191.20 35.15072
1191.30 35.22424
1191.40 35.31519
1191.50 35.44021
1191.60 35.54205
1191.70 35.58789
1191.80 35.66046
1191.90 35.74563
1192.00 35.79785
1192.10 35.76978
1192.20 35.69387
1192.30 35.53976
1192.40 35.40265
1192.50 35.28584
1192.60 35.21335
1192.70 35.19601
1192.80 35.19419
1192.90 35.23819
1193.00 35.33348
1193.10 35.39669
1193.20 35.43759
1193.30 35.43198
1193.40 35.45778
1193.50 35.3831
1193.60 35.0632
1193.70 34.74401
1193.80 34.43416
1193.90 34.14063
1194.00 33.85259
1194.10 33.59912
1194.20 33.46812
1194.30 33.58346
1194.40 33.59711
1194.50 33.58405
1194.60 33.46159
1194.70 33.47892
1194.80 33.3738
1194.90 33.00392
1195.00 32.53591
1195.10 32.25417
1195.20 32.31555
1195.30 32.56607
1195.40 32.79188
1195.50 33.13627
1195.60 33.60624
1195.70 34.00638
1195.80 34.25564
1195.90 33.86666
1196.00 33.69356
1196.10 33.4907
1196.20 33.29093
1196.30 33.06323
1196.40 32.90109
1196.50 32.85185
1196.60 32.8867
1196.70 32.91993
1196.80 32.94918
1196.90 32.963
1197.00 32.83499
1197.10 32.46483
1197.20 31.56757
1197.30 30.87335
1197.40 30.13772
1197.50 29.40135
1197.60 28.45657
1197.70 28.12221
1197.80 28.44633
1197.90 29.04254
1198.00 29.53578
1198.10 30.01412
1198.20 30.50667
1198.30 31.02155
1198.40 31.50697
1198.50 32.0283
1198.60 32.42232
1198.70 32.73035
1198.80 32.59347
1198.90 32.69063
1199.00 32.55207
1199.10 32.15624
1199.20 31.67563
1199.30 31.31836
1199.40 31.15213
1199.50 31.16577
1199.60 31.13752
1199.70 31.19517
1199.80 31.41696
1199.90 31.57941
1200.00 31.69856
