# Version 2.1 - nm, norm@500 to 1, cut digits
# Wavelength(nm)  Flambda(ergs/cm^s/s/nm)
300.00 0.007239867
300.10 0.009599304
300.20 0.01104753
300.30 0.01166098
300.40 0.01183605
300.50 0.01189611
300.60 0.01195049
300.70 0.0120013
300.80 0.01205201
300.90 0.01210742
301.00 0.01217235
301.10 0.01224891
301.20 0.01233537
301.30 0.01242783
301.40 0.0125227
301.50 0.01261813
301.60 0.01271362
301.70 0.01280914
301.80 0.01290468
301.90 0.01300023
302.00 0.01309578
302.10 0.01319133
302.20 0.01328688
302.30 0.01338243
302.40 0.013478
302.50 0.0135736
302.60 0.01366924
302.70 0.0137653
302.80 0.0138632
302.90 0.01396565
303.00 0.01407562
303.10 0.01419442
303.20 0.01432073
303.30 0.01445159
303.40 0.0145843
303.50 0.01471742
303.60 0.01485058
303.70 0.01498377
303.80 0.01511698
303.90 0.01525019
304.00 0.01538341
304.10 0.01551662
304.20 0.01564983
304.30 0.01578302
304.40 0.01591617
304.50 0.01604924
304.60 0.01618217
304.70 0.01631382
304.80 0.01643985
304.90 0.01655196
305.00 0.01664108
305.10 0.01670319
305.20 0.01674231
305.30 0.01676751
305.40 0.01678709
305.50 0.01680539
305.60 0.01682356
305.70 0.01684163
305.80 0.01685967
305.90 0.01687769
306.00 0.01689571
306.10 0.01691373
306.20 0.01693174
306.30 0.01694976
306.40 0.01696778
306.50 0.01698579
306.60 0.01700381
306.70 0.01702183
306.80 0.01703986
306.90 0.01705793
307.00 0.01707604
307.10 0.01709421
307.20 0.01711243
307.30 0.01713068
307.40 0.01714895
307.50 0.01716721
307.60 0.01718548
307.70 0.01720375
307.80 0.01722201
307.90 0.01724028
308.00 0.01725855
308.10 0.01727682
308.20 0.01729509
308.30 0.01731341
308.40 0.01733183
308.50 0.01735046
308.60 0.01736944
308.70 0.01739162
308.80 0.01742788
308.90 0.01749895
309.00 0.01762757
309.10 0.0178238
309.20 0.01807756
309.30 0.01836615
309.40 0.01866881
309.50 0.01897467
309.60 0.01928088
309.70 0.0195873
309.80 0.01989383
309.90 0.02020039
310.00 0.02050697
310.10 0.02081354
310.20 0.02112011
310.30 0.02142663
310.40 0.02173305
310.50 0.02203926
310.60 0.02234512
310.70 0.02264776
310.80 0.02293625
310.90 0.02318974
311.00 0.02338539
311.10 0.02351306
311.20 0.0235829
311.30 0.02361773
311.40 0.02363841
311.50 0.02365588
311.60 0.02367299
311.70 0.02368989
311.80 0.02370669
311.90 0.02372345
312.00 0.0237402
312.10 0.02375695
312.20 0.02377371
312.30 0.02379052
312.40 0.02380746
312.50 0.02382466
312.60 0.02384229
312.70 0.02386389
312.80 0.02390298
312.90 0.02398529
313.00 0.02413904
313.10 0.02437674
313.20 0.02468588
313.30 0.02503824
313.40 0.02540808
313.50 0.0257819
313.60 0.02615615
313.70 0.02653065
313.80 0.02690529
313.90 0.02727998
314.00 0.02765468
314.10 0.02802938
314.20 0.02840409
314.30 0.02877883
314.40 0.02915367
314.50 0.02952868
314.60 0.02990399
314.70 0.03028208
314.80 0.03067232
314.90 0.03109267
315.00 0.03156273
315.10 0.03209123
315.20 0.03266946
315.30 0.03327778
315.40 0.03389827
315.50 0.03452152
315.60 0.03514508
315.70 0.03576881
315.80 0.03639264
315.90 0.0370165
316.00 0.03764037
316.10 0.03826424
316.20 0.03888808
316.30 0.03951178
316.40 0.04013516
316.50 0.04075788
316.60 0.04137949
316.70 0.04199093
316.80 0.04255764
316.90 0.04301374
317.00 0.04328706
317.10 0.04334558
317.20 0.04322132
317.30 0.04298644
317.40 0.04270684
317.50 0.04241706
317.60 0.04212618
317.70 0.04183464
317.80 0.04154277
317.90 0.04125077
318.00 0.04095874
318.10 0.0406667
318.20 0.0403747
318.30 0.04008279
318.40 0.03979113
318.50 0.03949998
318.60 0.03920968
318.70 0.03892716
318.80 0.03867888
318.90 0.03851527
319.00 0.03849158
319.10 0.03863232
319.20 0.03891298
319.30 0.03927831
319.40 0.03967787
319.50 0.04008522
319.60 0.04049342
319.70 0.04090212
319.80 0.04131108
319.90 0.04172014
320.00 0.04212922
320.10 0.0425383
320.20 0.04294737
320.30 0.0433564
320.40 0.04376535
320.50 0.0441741
320.60 0.04458254
320.70 0.0449881
320.80 0.045381
320.90 0.04574258
321.00 0.04605242
321.10 0.04630144
321.20 0.04649871
321.30 0.04666466
321.40 0.04681796
321.50 0.04696837
321.60 0.04711847
321.70 0.04726838
321.80 0.0474182
321.90 0.04756798
322.00 0.04771776
322.10 0.04786753
322.20 0.04801733
322.30 0.04816728
322.40 0.04831756
322.50 0.04846852
322.60 0.04862063
322.70 0.04878326
322.80 0.04899214
322.90 0.0493154
323.00 0.04982769
323.10 0.05056211
323.20 0.05148555
323.30 0.05252338
323.40 0.05360745
323.50 0.05470205
323.60 0.05579779
323.70 0.05689421
323.80 0.05799098
323.90 0.05908788
324.00 0.06018481
324.10 0.06128174
324.20 0.06237867
324.30 0.06347557
324.40 0.06457242
324.50 0.06566916
324.60 0.06676571
324.70 0.06786056
324.80 0.06894789
324.90 0.07001664
325.00 0.07105468
325.10 0.07205664
325.20 0.0730279
325.30 0.07398058
325.40 0.07492574
325.50 0.0758692
325.60 0.07681246
325.70 0.07775562
325.80 0.07869872
325.90 0.0796418
326.00 0.08058488
326.10 0.08152795
326.20 0.08247104
326.30 0.08341417
326.40 0.08435742
326.50 0.08530092
326.60 0.08624481
326.70 0.08719238
326.80 0.08815615
326.90 0.08915997
327.00 0.09022996
327.10 0.09137773
327.20 0.09259167
327.30 0.09384567
327.40 0.09511585
327.50 0.09638972
327.60 0.09766399
327.70 0.0989385
327.80 0.1002131
327.90 0.1014878
328.00 0.1027625
328.10 0.1040372
328.20 0.1053118
328.30 0.1065861
328.40 0.1078598
328.50 0.109132
328.60 0.1104019
328.70 0.1116502
328.80 0.1128035
328.90 0.1137217
329.00 0.1142517
329.10 0.1143254
329.20 0.1140108
329.30 0.1134612
329.40 0.1128167
329.50 0.1121505
329.60 0.1114819
329.70 0.1108119
329.80 0.1101413
329.90 0.1094704
330.00 0.1087994
330.10 0.1081284
330.20 0.1074574
330.30 0.1067867
330.40 0.1061164
330.50 0.1054473
330.60 0.1047798
330.70 0.1041284
330.80 0.1035475
330.90 0.1031409
331.00 0.1030223
331.10 0.1032422
331.20 0.1037501
331.30 0.1044324
331.40 0.1051851
331.50 0.1059539
331.60 0.1067244
331.70 0.1074959
331.80 0.108268
331.90 0.1090403
332.00 0.1098126
332.10 0.1105849
332.20 0.1113572
332.30 0.1121294
332.40 0.1129012
332.50 0.1136724
332.60 0.1144425
332.70 0.1152024
332.80 0.1159177
332.90 0.1165226
333.00 0.1169452
333.10 0.1171535
333.20 0.1171793
333.30 0.1170949
333.40 0.1169658
333.50 0.1168265
333.60 0.1166861
333.70 0.1165451
333.80 0.1164038
333.90 0.1162623
334.00 0.1161208
334.10 0.1159797
334.20 0.1158397
334.30 0.1157011
334.40 0.1155639
334.50 0.1154279
334.60 0.1154073
334.70 0.1157614
334.80 0.1165927
334.90 0.1174464
335.00 0.1174538
335.10 0.1163808
335.20 0.1156057
335.30 0.1176977
335.40 0.1244347
335.50 0.1347855
335.60 0.1448049
335.70 0.1499231
335.80 0.1478881
335.90 0.1398795
336.00 0.1292522
336.10 0.1194651
336.20 0.1129367
336.30 0.1106888
336.40 0.1119168
336.50 0.1140901
336.60 0.1144724
336.70 0.1123938
336.80 0.1101015
336.90 0.1109938
337.00 0.1167043
337.10 0.1255012
337.20 0.1332746
337.30 0.1363573
337.40 0.1340973
337.50 0.1292627
337.60 0.125925
337.70 0.126439
337.80 0.1300599
337.90 0.1343085
338.00 0.1372866
338.10 0.1384687
338.20 0.137579
338.30 0.1337215
338.40 0.1265985
338.50 0.1183095
338.60 0.1130245
338.70 0.1139932
338.80 0.1205174
338.90 0.1281755
339.00 0.1323758
339.10 0.1321147
339.20 0.1305922
339.30 0.1320594
339.40 0.1378978
339.50 0.1457199
339.60 0.1519439
339.70 0.1547969
339.80 0.1547678
339.90 0.1528384
340.00 0.1494005
340.10 0.1448625
340.20 0.1401668
340.30 0.1360329
340.40 0.1319906
340.50 0.1268821
340.60 0.1204358
340.70 0.1139161
340.80 0.1091286
340.90 0.1071015
341.00 0.1077679
341.10 0.1105007
341.20 0.1145741
341.30 0.1191343
341.40 0.1231765
341.50 0.1259311
341.60 0.127316
341.70 0.1279706
341.80 0.1287658
341.90 0.1301578
342.00 0.1317819
342.10 0.1325244
342.20 0.1312011
342.30 0.127556
342.40 0.1227976
342.50 0.1189896
342.60 0.1176672
342.70 0.1188817
342.80 0.1214
342.90 0.1236782
343.00 0.1248113
343.10 0.1249384
343.20 0.1249087
343.30 0.1254521
343.40 0.1265407
343.50 0.1275404
343.60 0.1278803
343.70 0.1274047
343.80 0.1262363
343.90 0.1246627
344.00 0.1232088
344.10 0.1224809
344.20 0.1226387
344.30 0.1231282
344.40 0.1231704
344.50 0.1225084
344.60 0.121618
344.70 0.1212929
344.80 0.1221394
344.90 0.1243705
345.00 0.1278704
345.10 0.1322794
345.20 0.1370137
345.30 0.1412673
345.40 0.1441416
345.50 0.1450763
345.60 0.1443142
345.70 0.1428606
345.80 0.1417955
345.90 0.141519
346.00 0.1415731
346.10 0.1410446
346.20 0.1392044
346.30 0.1360834
346.40 0.1326569
346.50 0.1302783
346.60 0.1296043
346.70 0.1300247
346.80 0.1302305
346.90 0.1292801
347.00 0.1270855
347.10 0.1242322
347.20 0.1216901
347.30 0.1205407
347.40 0.1214715
347.50 0.1242359
347.60 0.1277676
347.70 0.1309991
347.80 0.1335738
347.90 0.1358362
348.00 0.1382799
348.10 0.1409897
348.20 0.1434623
348.30 0.1449365
348.40 0.1450089
348.50 0.1439869
348.60 0.1425717
348.70 0.1412212
348.80 0.1399352
348.90 0.138571
349.00 0.1371396
349.10 0.1357682
349.20 0.1345702
349.30 0.1337068
349.40 0.1334657
349.50 0.1340306
349.60 0.1351237
349.70 0.136047
349.80 0.1363018
349.90 0.1362908
350.00 0.1372692
350.10 0.1403551
350.20 0.1454541
350.30 0.1511481
350.40 0.1556583
350.50 0.1579662
350.60 0.1581472
350.70 0.1568987
350.80 0.1549439
350.90 0.1526897
351.00 0.1500686
351.10 0.1465722
351.20 0.1416526
351.30 0.1354368
351.40 0.1291159
351.50 0.1243751
351.60 0.122204
351.70 0.1222009
351.80 0.1230412
351.90 0.1235819
352.00 0.1235
352.10 0.1230262
352.20 0.1224306
352.30 0.121949
352.40 0.1220852
352.50 0.1237582
352.60 0.127798
352.70 0.134085
352.80 0.1412235
352.90 0.1473184
353.00 0.151367
353.10 0.1538969
353.20 0.1561512
353.30 0.1588207
353.40 0.1617391
353.50 0.1645705
353.60 0.1673844
353.70 0.1704403
353.80 0.1737313
353.90 0.1769675
354.00 0.1797711
354.10 0.1816533
354.20 0.1820275
354.30 0.1806612
354.40 0.1781826
354.50 0.1758672
354.60 0.1746872
354.70 0.1745969
354.80 0.1748004
354.90 0.1745887
355.00 0.1738289
355.10 0.1728055
355.20 0.1718209
355.30 0.1710144
355.40 0.1704524
355.50 0.1701628
355.60 0.1699775
355.70 0.1694298
355.80 0.1679702
355.90 0.1654229
356.00 0.1621938
356.10 0.1589404
356.20 0.1560094
356.30 0.1531614
356.40 0.1498367
356.50 0.1457681
356.60 0.1414258
356.70 0.1378506
356.80 0.1359294
356.90 0.1357408
357.00 0.136562
357.10 0.1374258
357.20 0.1376248
357.30 0.1368554
357.40 0.1351308
357.50 0.132687
357.60 0.1299144
357.70 0.127221
357.80 0.1248678
357.90 0.1229102
358.00 0.1213383
358.10 0.1203243
358.20 0.1202867
358.30 0.1216166
358.40 0.1242834
358.50 0.1276937
358.60 0.1309204
358.70 0.1330985
358.80 0.1337845
358.90 0.13317
359.00 0.1320944
359.10 0.1317302
359.20 0.1329369
359.30 0.1356624
359.40 0.1388742
359.50 0.1412048
359.60 0.1418779
359.70 0.1411892
359.80 0.140168
359.90 0.1397062
360.00 0.139849
360.10 0.139797
360.20 0.1385903
360.30 0.1358824
360.40 0.1322356
360.50 0.1288426
360.60 0.1269755
360.70 0.1274802
360.80 0.1303961
360.90 0.1348669
361.00 0.1395606
361.10 0.1434253
361.20 0.1461857
361.30 0.1481396
361.40 0.1495464
361.50 0.1503494
361.60 0.150536
361.70 0.15053
361.80 0.1509617
361.90 0.1520295
362.00 0.1532649
362.10 0.1540245
362.20 0.1540813
362.30 0.1536905
362.40 0.1532798
362.50 0.1532065
362.60 0.1535894
362.70 0.1541034
362.80 0.1540384
362.90 0.1528645
363.00 0.1508511
363.10 0.1489874
363.20 0.1481866
363.30 0.1486062
363.40 0.1497136
363.50 0.1508435
363.60 0.1516247
363.70 0.152017
363.80 0.1520913
363.90 0.1518146
364.00 0.1509963
364.10 0.1494211
364.20 0.1470676
364.30 0.1442307
364.40 0.1414591
364.50 0.1393777
364.60 0.1384476
364.70 0.1387102
364.80 0.1397318
364.90 0.1409319
365.00 0.1421131
365.10 0.1436575
365.20 0.1460516
365.30 0.1491553
365.40 0.1520244
365.50 0.1535622
365.60 0.153422
365.70 0.1522689
365.80 0.1511396
365.90 0.1506023
366.00 0.1505443
366.10 0.1506423
366.20 0.1508746
366.30 0.1514761
366.40 0.1525053
366.50 0.1536076
366.60 0.1542006
366.70 0.1538498
366.80 0.1524948
366.90 0.1504164
367.00 0.1480912
367.10 0.14606
367.20 0.1448143
367.30 0.1446701
367.40 0.1456318
367.50 0.1473647
367.60 0.1493584
367.70 0.1511915
367.80 0.1527057
367.90 0.1539787
368.00 0.1551519
368.10 0.1562579
368.20 0.1571579
368.30 0.1576101
368.40 0.1574263
368.50 0.1566499
368.60 0.1556298
368.70 0.1548765
368.80 0.1547515
368.90 0.1552475
369.00 0.1560885
369.10 0.1570543
369.20 0.158131
369.30 0.159306
369.40 0.1603055
369.50 0.1606638
369.60 0.160126
369.70 0.1589625
369.80 0.1578745
369.90 0.1575981
370.00 0.158522
370.10 0.1605359
370.20 0.1631544
370.30 0.1657778
370.40 0.1678988
370.50 0.1691875
370.60 0.1695289
370.70 0.1691123
370.80 0.1684427
370.90 0.1681143
371.00 0.1684246
371.10 0.1691274
371.20 0.1695256
371.30 0.1688323
371.40 0.1666109
371.50 0.1630664
371.60 0.1590153
371.70 0.155504
371.80 0.1533324
371.90 0.1527938
372.00 0.1536989
372.10 0.1554312
372.20 0.1569067
372.30 0.1567635
372.40 0.153993
372.50 0.1487309
372.60 0.1424954
372.70 0.1375092
372.80 0.1355689
372.90 0.1372598
373.00 0.1419099
373.10 0.1480767
373.20 0.1541432
373.30 0.1587552
373.40 0.1610927
373.50 0.1609302
373.60 0.1584907
373.70 0.1542315
373.80 0.1487471
373.90 0.142821
374.00 0.1374331
374.10 0.1335898
374.20 0.1320694
374.30 0.1332846
374.40 0.1373132
374.50 0.1439264
374.60 0.1525077
374.70 0.1619405
374.80 0.1706804
374.90 0.177145
375.00 0.1802542
375.10 0.1797757
375.20 0.1762877
375.30 0.1708785
375.40 0.1648121
375.50 0.1592632
375.60 0.1550384
375.70 0.1523622
375.80 0.1508894
375.90 0.1499988
376.00 0.1492291
376.10 0.1486219
376.20 0.1487952
376.30 0.1506885
376.40 0.1551049
376.50 0.1623637
376.60 0.1722906
376.70 0.1843233
376.80 0.1974374
376.90 0.2099395
377.00 0.219608
377.10 0.2244505
377.20 0.2236106
377.30 0.2176977
377.40 0.2083401
377.50 0.197417
377.60 0.1865237
377.70 0.1768137
377.80 0.1689556
377.90 0.1630971
378.00 0.1589461
378.10 0.1560294
378.20 0.1539726
378.30 0.1525717
378.40 0.1516846
378.50 0.151196
378.60 0.1511262
378.70 0.1516918
378.80 0.1532137
378.90 0.1560511
379.00 0.1607055
379.10 0.1678794
379.20 0.1781828
379.30 0.1915925
379.40 0.2071189
379.50 0.2229478
379.60 0.2368567
379.70 0.2466565
379.80 0.2506856
379.90 0.2483256
380.00 0.2403154
380.10 0.2285364
380.20 0.2152973
380.30 0.2025473
380.40 0.1914664
380.50 0.1824912
380.60 0.1755415
380.70 0.170215
380.80 0.165934
380.90 0.1621983
381.00 0.1588321
381.10 0.1559781
381.20 0.1538032
381.30 0.1522196
381.40 0.1509673
381.50 0.1499786
381.60 0.1496069
381.70 0.1502154
381.80 0.1516298
381.90 0.1531491
382.00 0.1541528
382.10 0.1562437
382.20 0.1617761
382.30 0.1587102
382.40 0.1476374
382.50 0.151101
382.60 0.200322
382.70 0.3032624
382.80 0.4210457
382.90 0.4981451
383.00 0.4960244
383.10 0.4490889
383.20 0.4428545
383.30 0.4986677
383.40 0.5905603
383.50 0.6635666
383.60 0.6665661
383.70 0.5889135
383.80 0.4701711
383.90 0.3640396
384.00 0.2919461
384.10 0.2415817
384.20 0.2040193
384.30 0.1945388
384.40 0.224074
384.50 0.2584377
384.60 0.2607952
384.70 0.1893749
384.80 0.08557876
384.90 0.006833584
385.00 0
385.10 0
385.20 0.02216992
385.30 0.04693827
385.40 0.06555461
385.50 0.08008188
385.60 0.09573896
385.70 0.1140755
385.80 0.1321629
385.90 0.1509884
386.00 0.1786391
386.10 0.2157579
386.20 0.244994
386.30 0.2501305
386.40 0.2391987
386.50 0.2366321
386.60 0.2575279
386.70 0.2974586
386.80 0.3415591
386.90 0.3684331
387.00 0.3566245
387.10 0.303547
387.20 0.2365465
387.30 0.1926792
387.40 0.1834561
387.50 0.1874489
387.60 0.1806686
387.70 0.1651021
387.80 0.1567663
387.90 0.158141
388.00 0.158452
388.10 0.1639602
388.20 0.2032564
388.30 0.2831958
388.40 0.3603706
388.50 0.3842275
388.60 0.3674903
388.70 0.3763823
388.80 0.442834
388.90 0.5168747
389.00 0.5259015
389.10 0.4634621
389.20 0.3896742
389.30 0.3534523
389.40 0.3464512
389.50 0.3252957
389.60 0.25995
389.70 0.1964363
389.80 0.1418781
389.90 0.1338703
390.00 0.1724627
390.10 0.2068091
390.20 0.2477053
390.30 0.2916977
390.40 0.3313783
390.50 0.3898463
390.60 0.4361847
390.70 0.4320505
390.80 0.3714451
390.90 0.284767
391.00 0.2144693
391.10 0.1928217
391.20 0.2271517
391.30 0.2531456
391.40 0.2765049
391.50 0.2841923
391.60 0.274916
391.70 0.2635091
391.80 0.2646792
391.90 0.2833331
392.00 0.3171316
392.10 0.3489525
392.20 0.3583427
392.30 0.3218989
392.40 0.2713974
392.50 0.2303245
392.60 0.1978702
392.70 0.1877581
392.80 0.1977148
392.90 0.2451633
393.00 0.3524405
393.10 0.5658955
393.20 0.9021799
393.30 1.254653
393.40 1.46644
393.50 1.43474
393.60 1.18565
393.70 0.8513945
393.80 0.5667276
393.90 0.382573
394.00 0.268752
394.10 0.1851447
394.20 0.1248589
394.30 0.08373101
394.40 0.09501239
394.50 0.1495358
394.60 0.2244868
394.70 0.2916862
394.80 0.3520437
394.90 0.3809774
395.00 0.391722
395.10 0.3890206
395.20 0.3724677
395.30 0.3507404
395.40 0.3472767
395.50 0.3533115
395.60 0.3585849
395.70 0.376098
395.80 0.3915955
395.90 0.3898482
396.00 0.3525798
396.10 0.2916468
396.20 0.2464837
396.30 0.2350794
396.40 0.2706037
396.50 0.3604213
396.60 0.538403
396.70 0.8377332
396.80 1.21004
396.90 1.515288
397.00 1.602993
397.10 1.428089
397.20 1.083227
397.30 0.72435
397.40 0.4593606
397.50 0.3166327
397.60 0.271588
397.70 0.279724
397.80 0.2997316
397.90 0.3077223
398.00 0.2963521
398.10 0.2660695
398.20 0.2249432
398.30 0.1977598
398.40 0.2146809
398.50 0.2798059
398.60 0.3605495
398.70 0.4174998
398.80 0.4193293
398.90 0.3982096
399.00 0.3688164
399.10 0.3450423
399.20 0.3359612
399.30 0.3351932
399.40 0.3255486
399.50 0.3035545
399.60 0.2862551
399.70 0.2978536
399.80 0.3384208
399.90 0.3702837
400.00 0.3632418
400.10 0.3243238
400.20 0.2912438
400.30 0.2942832
400.40 0.3276512
400.50 0.3581335
400.60 0.3608866
400.70 0.3546998
400.80 0.355036
400.90 0.3549133
401.00 0.3542066
401.10 0.3502131
401.20 0.3530751
401.30 0.3526681
401.40 0.3440409
401.50 0.3242994
401.60 0.2934051
401.70 0.2509689
401.80 0.2328414
401.90 0.2442533
402.00 0.2675146
402.10 0.2814214
402.20 0.2767953
402.30 0.2618006
402.40 0.254167
402.50 0.2661615
402.60 0.2931547
402.70 0.3186103
402.80 0.3290805
402.90 0.3233517
403.00 0.307187
403.10 0.2814945
403.20 0.2460094
403.30 0.2101134
403.40 0.19129
403.50 0.200037
403.60 0.2283082
403.70 0.254816
403.80 0.2779033
403.90 0.3103227
404.00 0.3533646
404.10 0.3941651
404.20 0.4113016
404.30 0.4018122
404.40 0.3858113
404.50 0.3817118
404.60 0.3853614
404.70 0.3813724
404.80 0.3653538
404.90 0.3472936
405.00 0.3375963
405.10 0.3388204
405.20 0.3490934
405.30 0.3623698
405.40 0.3660418
405.50 0.3483693
405.60 0.315271
405.70 0.2886727
405.80 0.2812219
405.90 0.2868087
406.00 0.2874255
406.10 0.2733003
406.20 0.2513527
406.30 0.2366473
406.40 0.2385779
406.50 0.2558536
406.60 0.2742159
406.70 0.2794464
406.80 0.2728068
406.90 0.2694928
407.00 0.2832581
407.10 0.3092231
407.20 0.3163512
407.30 0.2974091
407.40 0.2686525
407.50 0.2336899
407.60 0.2118153
407.70 0.2041
407.80 0.2077237
407.90 0.2270646
408.00 0.2627252
408.10 0.3011511
408.20 0.3232684
408.30 0.3189987
408.40 0.2947113
408.50 0.2643476
408.60 0.2384779
408.70 0.2211943
408.80 0.2134496
408.90 0.2157866
409.00 0.2236728
409.10 0.2267436
409.20 0.2187738
409.30 0.2016477
409.40 0.1839616
409.50 0.1736022
409.60 0.1781934
409.70 0.2064821
409.80 0.2670536
409.90 0.3657686
410.00 0.5023695
410.10 0.6559662
410.20 0.7730291
410.30 0.7925272
410.40 0.7006722
410.50 0.5529773
410.60 0.4276123
410.70 0.3407566
410.80 0.3049698
410.90 0.2875536
411.00 0.2752743
411.10 0.2687707
411.20 0.2630393
411.30 0.2501958
411.40 0.2337744
411.50 0.2265522
411.60 0.2091828
411.70 0.1802845
411.80 0.1586867
411.90 0.1423951
412.00 0.1300611
412.10 0.1235885
412.20 0.1277889
412.30 0.1416671
412.40 0.1606024
412.50 0.1793654
412.60 0.1946114
412.70 0.2044538
412.80 0.207293
412.90 0.2039621
413.00 0.2007039
413.10 0.2058055
413.20 0.2220752
413.30 0.2423971
413.40 0.2549314
413.50 0.2525638
413.60 0.2385253
413.70 0.2233517
413.80 0.2161014
413.90 0.2189218
414.00 0.2289727
414.10 0.2425049
414.20 0.2323879
414.30 0.215584
414.40 0.1976393
414.50 0.1893676
414.60 0.2030888
414.70 0.2382721
414.80 0.2588776
414.90 0.2605255
415.00 0.2564651
415.10 0.2421218
415.20 0.2190159
415.30 0.2042277
415.40 0.1999338
415.50 0.2129573
415.60 0.2454267
415.70 0.2859301
415.80 0.3166755
415.90 0.3273142
416.00 0.3147543
416.10 0.2887077
416.20 0.255515
416.30 0.2194492
416.40 0.1899736
416.50 0.1799374
416.60 0.178993
416.70 0.2053721
416.80 0.2428926
416.90 0.2656173
417.00 0.2560493
417.10 0.2188937
417.20 0.1967172
417.30 0.1879066
417.40 0.1816785
417.50 0.1853466
417.60 0.2170257
417.70 0.2741485
417.80 0.327576
417.90 0.3406266
418.00 0.337009
418.10 0.3288337
418.20 0.3137216
418.30 0.2809141
418.40 0.230091
418.50 0.1780024
418.60 0.1285205
418.70 0.1126952
418.80 0.1241787
418.90 0.1481484
419.00 0.1688852
419.10 0.1739764
419.20 0.1604164
419.30 0.1394349
419.40 0.1299794
419.50 0.143789
419.60 0.1733119
419.70 0.1983001
419.80 0.2080707
419.90 0.2090517
420.00 0.216055
420.10 0.2344296
420.20 0.2546932
420.30 0.2565887
420.40 0.2443951
420.50 0.2411755
420.60 0.2544607
420.70 0.2768004
420.80 0.2860585
420.90 0.2886183
421.00 0.284125
421.10 0.2645044
421.20 0.2221417
421.30 0.1656454
421.40 0.1216448
421.50 0.1077618
421.60 0.120776
421.70 0.1374286
421.80 0.1372123
421.90 0.1216661
422.00 0.1094379
422.10 0.1164403
422.20 0.1399172
422.30 0.1606633
422.40 0.1618807
422.50 0.1440352
422.60 0.1203407
422.70 0.08907034
422.80 0.08179845
422.90 0.08883729
423.00 0.0951142
423.10 0.09307658
423.20 0.0838675
423.30 0.07260037
423.40 0.06593147
423.50 0.05766867
423.60 0.0472087
423.70 0.05535882
423.80 0.0791836
423.90 0.1096576
424.00 0.1360139
424.10 0.1497484
424.20 0.1501808
424.30 0.1457177
424.40 0.1372537
424.50 0.1284081
424.60 0.1203711
424.70 0.1117715
424.80 0.09668242
424.90 0.09096762
425.00 0.09941086
425.10 0.1118632
425.20 0.1162622
425.30 0.1093962
425.40 0.09998188
425.50 0.09801705
425.60 0.1044038
425.70 0.1127216
425.80 0.1193436
425.90 0.1294172
426.00 0.1498677
426.10 0.1777073
426.20 0.2007505
426.30 0.2081874
426.40 0.197928
426.50 0.1769734
426.60 0.1585229
426.70 0.1582649
426.80 0.1846854
426.90 0.2188974
427.00 0.2321631
427.10 0.2374809
427.20 0.2324309
427.30 0.2192967
427.40 0.2007732
427.50 0.1789264
427.60 0.155522
427.70 0.1330384
427.80 0.1109487
427.90 0.102598
428.00 0.1145115
428.10 0.145042
428.20 0.1919019
428.30 0.2448105
428.40 0.2838994
428.50 0.2870046
428.60 0.2517891
428.70 0.2007782
428.80 0.1669065
428.90 0.1710023
429.00 0.2090508
429.10 0.2474563
429.20 0.2723999
429.30 0.281809
429.40 0.279806
429.50 0.2727298
429.60 0.2608219
429.70 0.2436736
429.80 0.2268839
429.90 0.214887
430.00 0.2030463
430.10 0.18662
430.20 0.1732208
430.30 0.1765186
430.40 0.1977096
430.50 0.2218996
430.60 0.2344371
430.70 0.2353842
430.80 0.2349349
430.90 0.2392058
431.00 0.2465044
431.10 0.2538398
431.20 0.2609083
431.30 0.267416
431.40 0.2695588
431.50 0.2632771
431.60 0.2459794
431.70 0.2245044
431.80 0.2092087
431.90 0.2026715
432.00 0.2057426
432.10 0.213921
432.20 0.2294504
432.30 0.2391932
432.40 0.2356138
432.50 0.226866
432.60 0.2281286
432.70 0.2443043
432.80 0.265705
432.90 0.2834518
433.00 0.3024241
433.10 0.3326846
433.20 0.363874
433.30 0.381894
433.40 0.390363
433.50 0.3940187
433.60 0.408639
433.70 0.4654803
433.80 0.5826591
433.90 0.7854799
434.00 1.012561
434.10 1.152817
434.20 1.124288
434.30 0.939668
434.40 0.6930915
434.50 0.4853066
434.60 0.3623917
434.70 0.3136678
434.80 0.3070355
434.90 0.3170203
435.00 0.3283363
435.10 0.3307196
435.20 0.3198861
435.30 0.3000526
435.40 0.2807848
435.50 0.2695042
435.60 0.263633
435.70 0.2597528
435.80 0.2608344
435.90 0.274924
436.00 0.3015924
436.10 0.3233415
436.20 0.3065785
436.30 0.2710953
436.40 0.2352084
436.50 0.2204203
436.60 0.2412817
436.70 0.2752581
436.80 0.2927285
436.90 0.2814383
437.00 0.2522477
437.10 0.2270502
437.20 0.2234271
437.30 0.2434027
437.40 0.2736574
437.50 0.3001333
437.60 0.3209702
437.70 0.3407288
437.80 0.3541371
437.90 0.3488826
438.00 0.3236231
438.10 0.3000492
438.20 0.3004943
438.30 0.3235386
438.40 0.3440753
438.50 0.3489759
438.60 0.3493247
438.70 0.3515164
438.80 0.3461515
438.90 0.3263672
439.00 0.2995383
439.10 0.2886105
439.20 0.3066715
439.30 0.3425546
439.40 0.3733046
439.50 0.3834982
439.60 0.3757467
439.70 0.3635262
439.80 0.354691
439.90 0.339339
440.00 0.323372
440.10 0.3166256
440.20 0.3191069
440.30 0.3195489
440.40 0.2946132
440.50 0.2655447
440.60 0.2464924
440.70 0.2455377
440.80 0.2662848
440.90 0.2860287
441.00 0.3051577
441.10 0.3134041
441.20 0.3076796
441.30 0.3012534
441.40 0.3129353
441.50 0.3506894
441.60 0.4056742
441.70 0.4591619
441.80 0.4940187
441.90 0.5008726
442.00 0.4795191
442.10 0.4390454
442.20 0.394836
442.30 0.3602385
442.40 0.340694
442.50 0.3334832
442.60 0.3319652
442.70 0.3329727
442.80 0.3392997
442.90 0.3557456
443.00 0.3832261
443.10 0.4149872
443.20 0.4404918
443.30 0.4530673
443.40 0.4539761
443.50 0.4488072
443.60 0.4494366
443.70 0.46761
443.80 0.4798091
443.90 0.4871605
444.00 0.4876341
444.10 0.4804129
444.20 0.4628876
444.30 0.4384559
444.40 0.4229817
444.50 0.4345439
444.60 0.4717684
444.70 0.5123559
444.80 0.5364654
444.90 0.5407832
445.00 0.5317599
445.10 0.512035
445.20 0.4802946
445.30 0.4419728
445.40 0.4128767
445.50 0.4089205
445.60 0.4343375
445.70 0.4709211
445.80 0.4991888
445.90 0.5105894
446.00 0.5103375
446.10 0.5065159
446.20 0.4991326
446.30 0.481749
446.40 0.4530312
446.50 0.4243612
446.60 0.4155978
446.70 0.4386978
446.80 0.4841319
446.90 0.5273249
447.00 0.551362
447.10 0.5610868
447.20 0.5714775
447.30 0.587344
447.40 0.6010639
447.50 0.6069595
447.60 0.6090966
447.70 0.6161173
447.80 0.632255
447.90 0.6529966
448.00 0.6566998
448.10 0.6580439
448.20 0.6558246
448.30 0.6431734
448.40 0.6390123
448.50 0.64153
448.60 0.6434779
448.70 0.6416196
448.80 0.6381883
448.90 0.6365978
449.00 0.6397296
449.10 0.649242
449.20 0.6625202
449.30 0.6717069
449.40 0.6689621
449.50 0.6535652
449.60 0.6337091
449.70 0.6211727
449.80 0.6224512
449.90 0.6356036
450.00 0.6548453
450.10 0.6750194
450.20 0.6893098
450.30 0.6857392
450.40 0.6560482
450.50 0.6110384
450.60 0.5779704
450.70 0.5754677
450.80 0.5968597
450.90 0.6214751
451.00 0.6369923
451.10 0.6451295
451.20 0.6486627
451.30 0.6456728
451.40 0.637898
451.50 0.6354582
451.60 0.6480392
451.70 0.6742511
451.80 0.7049011
451.90 0.7340184
452.00 0.7603363
452.10 0.7796245
452.20 0.784339
452.30 0.7722885
452.40 0.7510543
452.50 0.7309232
452.60 0.7163848
452.70 0.7082539
452.80 0.7104975
452.90 0.7280672
453.00 0.7570353
453.10 0.7798012
453.20 0.7736718
453.30 0.7292174
453.40 0.663164
453.50 0.6135078
453.60 0.6175907
453.70 0.6875583
453.80 0.8010781
453.90 0.9160519
454.00 0.9952285
454.10 1.023011
454.20 1.006889
454.30 0.9650541
454.40 0.9132066
454.50 0.8616765
454.60 0.8191811
454.70 0.7927854
454.80 0.7829698
454.90 0.7818503
455.00 0.7808521
455.10 0.7760035
455.20 0.7638136
455.30 0.7418596
455.40 0.7177054
455.50 0.7103224
455.60 0.7352833
455.70 0.7877532
455.80 0.8447139
455.90 0.8853673
456.00 0.9064036
456.10 0.9204299
456.20 0.942888
456.30 0.9796467
456.40 1.025417
456.50 1.069937
456.60 1.1048
456.70 1.126908
456.80 1.138636
456.90 1.14487
457.00 1.148897
457.10 1.151254
457.20 1.152258
457.30 1.151688
457.40 1.14566
457.50 1.129727
457.60 1.107029
457.70 1.089004
457.80 1.083297
457.90 1.086052
458.00 1.08946
458.10 1.089481
458.20 1.08109
458.30 1.051883
458.40 0.9889402
458.50 0.8965834
458.60 0.8019241
458.70 0.7355855
458.80 0.7067057
458.90 0.698741
459.00 0.6922482
459.10 0.6876109
459.20 0.6978941
459.30 0.7243151
459.40 0.7506899
459.50 0.7636679
459.60 0.7705354
459.70 0.7905107
459.80 0.8307868
459.90 0.8766216
460.00 0.9046682
460.10 0.9045414
460.20 0.8873296
460.30 0.8724178
460.40 0.8661198
460.50 0.8558151
460.60 0.8296783
460.70 0.8004221
460.80 0.8005885
460.90 0.8491744
461.00 0.9283559
461.10 0.9995544
461.20 1.041487
461.30 1.066628
461.40 1.101362
461.50 1.15672
461.60 1.218953
461.70 1.264374
461.80 1.279906
461.90 1.271944
462.00 1.257881
462.10 1.248937
462.20 1.239179
462.30 1.210473
462.40 1.14996
462.50 1.062833
462.60 0.9683664
462.70 0.8847692
462.80 0.8215588
462.90 0.7832806
463.00 0.7710537
463.10 0.7793287
463.20 0.796601
463.30 0.8119563
463.40 0.8197203
463.50 0.8181907
463.60 0.808593
463.70 0.7970718
463.80 0.7921003
463.90 0.7988908
464.00 0.8193726
464.10 0.8538156
464.20 0.8983846
464.30 0.943044
464.40 0.9747424
464.50 0.9852491
464.60 0.9761603
464.70 0.9562067
464.80 0.9354876
464.90 0.9208494
465.00 0.9149153
465.10 0.9188303
465.20 0.9336228
465.30 0.9570309
465.40 0.9806827
465.50 0.9955178
465.60 1.00147
465.70 1.010006
465.80 1.034691
465.90 1.077042
466.00 1.124371
466.10 1.162017
466.20 1.185168
466.30 1.197789
466.40 1.20214
466.50 1.191052
466.60 1.151782
466.70 1.077187
466.80 0.9744341
466.90 0.8651604
467.00 0.7734299
467.10 0.7107944
467.20 0.6743559
467.30 0.6583904
467.40 0.6619182
467.50 0.6838936
467.60 0.7172235
467.70 0.7527955
467.80 0.7856062
467.90 0.8121547
468.00 0.8263639
468.10 0.8259218
468.20 0.8196179
468.30 0.8206675
468.40 0.833061
468.50 0.8476191
468.60 0.8534578
468.70 0.8506632
468.80 0.8490861
468.90 0.8573584
469.00 0.8763877
469.10 0.9016837
469.20 0.927612
469.30 0.9474139
469.40 0.9554617
469.50 0.9552149
469.60 0.9616073
469.70 0.9897875
469.80 1.039844
469.90 1.096315
470.00 1.143123
470.10 1.174974
470.20 1.194215
470.30 1.202654
470.40 1.199402
470.50 1.186206
470.60 1.170214
470.70 1.158487
470.80 1.153069
470.90 1.151018
471.00 1.146769
471.10 1.133975
471.20 1.107869
471.30 1.067601
471.40 1.016106
471.50 0.9591379
471.60 0.905965
471.70 0.8707308
471.80 0.8661982
471.90 0.8922074
472.00 0.9324632
472.10 0.9661248
472.20 0.9832292
472.30 0.9890327
472.40 0.9954293
472.50 1.007548
472.60 1.019376
472.70 1.021388
472.80 1.011471
472.90 0.9997029
473.00 1.001403
473.10 1.024606
473.20 1.065069
473.30 1.111785
473.40 1.153958
473.50 1.181679
473.60 1.184225
473.70 1.155867
473.80 1.106796
473.90 1.061928
474.00 1.043957
474.10 1.058407
474.20 1.094932
474.30 1.139111
474.40 1.179639
474.50 1.208758
474.60 1.223078
474.70 1.22543
474.80 1.223998
474.90 1.227231
475.00 1.23848
475.10 1.254123
475.20 1.266529
475.30 1.27127
475.40 1.270384
475.50 1.267359
475.60 1.260525
475.70 1.242296
475.80 1.202461
475.90 1.132621
476.00 1.032388
476.10 0.9156221
476.20 0.8079528
476.30 0.730865
476.40 0.6799273
476.50 0.6502741
476.60 0.6295364
476.70 0.600031
476.80 0.5694063
476.90 0.5501775
477.00 0.545008
477.10 0.5497075
477.20 0.561284
477.30 0.5832138
477.40 0.6204448
477.50 0.6703101
477.60 0.7208207
477.70 0.7590831
477.80 0.7803608
477.90 0.7858773
478.00 0.7751631
478.10 0.7471186
478.20 0.7097248
478.30 0.683351
478.40 0.6870875
478.50 0.7204258
478.60 0.7635054
478.70 0.7974257
478.80 0.8205153
478.90 0.8451993
479.00 0.8813005
479.10 0.9246915
479.20 0.9623232
479.30 0.9841738
479.40 0.9890729
479.50 0.9833179
479.60 0.9757309
479.70 0.9722704
479.80 0.9744763
479.90 0.982231
480.00 0.9971017
480.10 1.020469
480.20 1.043986
480.30 1.045364
480.40 1.002176
480.50 0.9119529
480.60 0.7977033
480.70 0.6914472
480.80 0.6125177
480.90 0.5628621
481.00 0.538206
481.10 0.5365063
481.20 0.5555867
481.30 0.5893769
481.40 0.631247
481.50 0.67828
481.60 0.7266697
481.70 0.766733
481.80 0.7896198
481.90 0.7986355
482.00 0.8083028
482.10 0.8295276
482.20 0.8595811
482.30 0.887979
482.40 0.9066568
482.50 0.9127277
482.60 0.9071324
482.70 0.8959223
482.80 0.8899775
482.90 0.8957622
483.00 0.9063576
483.10 0.910102
483.20 0.9102122
483.30 0.925847
483.40 0.9680423
483.50 1.020428
483.60 1.053974
483.70 1.058725
483.80 1.049587
483.90 1.040794
484.00 1.025323
484.10 0.9845265
484.20 0.9133446
484.30 0.8327205
484.40 0.7769998
484.50 0.7681024
484.60 0.7973779
484.70 0.8304664
484.80 0.8347175
484.90 0.8047267
485.00 0.7623608
485.10 0.7352221
485.20 0.7378135
485.30 0.7688196
485.40 0.8175987
485.50 0.8706471
485.60 0.9178627
485.70 0.9668554
485.80 1.061097
485.90 1.269277
486.00 1.62023
486.10 2.029014
486.20 2.310924
486.30 2.311251
486.40 2.034626
486.50 1.634397
486.60 1.279028
486.70 1.043677
486.80 0.9161288
486.90 0.8633389
487.00 0.8676851
487.10 0.9159981
487.20 0.9845187
487.30 1.043917
487.40 1.073566
487.50 1.069347
487.60 1.040745
487.70 1.004168
487.80 0.9761947
487.90 0.9674332
488.00 0.976976
488.10 0.9924444
488.20 1.00108
488.30 1.003149
488.40 1.011898
488.50 1.037765
488.60 1.075555
488.70 1.109799
488.80 1.131962
488.90 1.148513
489.00 1.16984
489.10 1.194019
489.20 1.206282
489.30 1.196177
489.40 1.172184
489.50 1.15544
489.60 1.159021
489.70 1.177226
489.80 1.195425
489.90 1.204275
490.00 1.203444
490.10 1.198232
490.20 1.197217
490.30 1.209525
490.40 1.237584
490.50 1.272631
490.60 1.301845
490.70 1.320961
490.80 1.337203
490.90 1.360158
491.00 1.392423
491.10 1.42991
491.20 1.467174
491.30 1.498615
491.40 1.517462
491.50 1.518418
491.60 1.50325
491.70 1.482874
491.80 1.472659
491.90 1.484916
492.00 1.522744
492.10 1.578205
492.20 1.635569
492.30 1.679545
492.40 1.706021
492.50 1.726851
492.60 1.759936
492.70 1.808393
492.80 1.851741
492.90 1.864145
493.00 1.840198
493.10 1.797663
493.20 1.757863
493.30 1.73216
493.40 1.724919
493.50 1.736863
493.60 1.760553
493.70 1.781
493.80 1.788698
493.90 1.789139
494.00 1.796277
494.10 1.819098
494.20 1.856893
494.30 1.904557
494.40 1.957605
494.50 2.012952
494.60 2.068576
494.70 2.123111
494.80 2.174721
494.90 2.21982
495.00 2.251577
495.10 2.254328
495.20 2.197009
495.30 2.041829
495.40 1.774061
495.50 1.428555
495.60 1.080843
495.70 0.8047037
495.80 0.6342325
495.90 0.5600949
496.00 0.5509183
496.10 0.5736518
496.20 0.6033334
496.30 0.62667
496.40 0.6428991
496.50 0.6613565
496.60 0.6947193
496.70 0.7505068
496.80 0.8234983
496.90 0.8949933
497.00 0.9448053
497.10 0.969107
497.20 0.9840791
497.30 1.008877
497.40 1.047304
497.50 1.086764
497.60 1.111367
497.70 1.113107
497.80 1.093199
497.90 1.059496
498.00 1.023247
498.10 0.9944929
498.20 0.9806211
498.30 0.9883015
498.40 1.02101
498.50 1.071567
498.60 1.121655
498.70 1.154746
498.80 1.1706
498.90 1.183341
499.00 1.206105
499.10 1.240702
499.20 1.279866
499.30 1.315684
499.40 1.343975
499.50 1.362759
499.60 1.357328
499.70 1.288689
499.80 1.113544
499.90 0.830684
500.00 1
500.10 0.7897531
500.20 0.8485529
500.30 0.9440549
500.40 0.8399114
500.50 0.7712508
500.60 0.7992896
500.70 0.7309387
500.80 0.8017975
500.90 0.9593536
501.00 1.089455
501.10 0.9951138
501.20 0.9386697
501.30 0.9360006
501.40 0.95509
501.50 0.8985428
501.60 0.8947907
501.70 0.9446369
501.80 0.963342
501.90 0.9891412
502.00 1.042445
502.10 1.146387
502.20 1.133946
502.30 1.06061
502.40 1.118988
502.50 1.147118
502.60 1.072042
502.70 1.065454
502.80 1.077403
502.90 1.063677
503.00 1.066923
503.10 1.044776
503.20 1.163324
503.30 1.122424
503.40 1.065155
503.50 1.209101
503.60 1.322689
503.70 1.249176
503.80 1.218885
503.90 1.297554
504.00 1.301404
504.10 1.344634
504.20 1.446073
504.30 1.405015
504.40 1.457453
504.50 1.492035
504.60 1.508675
504.70 1.632142
504.80 1.695332
504.90 1.435401
505.00 1.264524
505.10 1.262921
505.20 1.332469
505.30 1.335567
505.40 1.370978
505.50 1.392034
505.60 1.297001
505.70 1.28411
505.80 1.367896
505.90 1.343975
506.00 1.315572
506.10 1.372736
506.20 1.550956
506.30 1.517627
506.40 1.387824
506.50 1.398421
506.60 1.459548
506.70 1.472413
506.80 1.414437
506.90 1.510875
507.00 1.457735
507.10 1.327074
507.20 1.474829
507.30 1.443243
507.40 1.392834
507.50 1.592824
507.60 1.616509
507.70 1.461806
507.80 1.481448
507.90 1.569617
508.00 1.62099
508.10 1.495489
508.20 1.385311
508.30 1.401508
508.40 1.511894
508.50 1.624776
508.60 1.575072
508.70 1.52195
508.80 1.48606
508.90 1.49067
509.00 1.455176
509.10 1.42382
509.20 1.528507
509.30 1.618274
509.40 1.63696
509.50 1.561344
509.60 1.424048
509.70 1.328493
509.80 1.551926
509.90 1.655095
510.00 1.657022
510.10 1.537274
510.20 1.465351
510.30 1.512949
510.40 1.534379
510.50 1.459706
510.60 1.415791
510.70 1.453049
510.80 1.401562
510.90 1.465801
511.00 1.544575
511.10 1.484948
511.20 1.474058
511.30 1.530914
511.40 1.566617
511.50 1.590777
511.60 1.702396
511.70 1.770737
511.80 1.770076
511.90 1.696008
512.00 1.638088
512.10 1.587015
512.20 1.626971
512.30 1.694671
512.40 1.655326
512.50 1.518482
512.60 1.508305
512.70 1.495453
512.80 1.436719
512.90 1.465099
513.00 1.442644
513.10 1.381334
513.20 1.573619
513.30 1.824352
513.40 1.775539
513.50 1.670546
513.60 1.674016
513.70 1.803394
513.80 1.981551
513.90 1.913654
514.00 1.735758
514.10 1.759251
514.20 1.722698
514.30 1.690584
514.40 1.698867
514.50 1.620764
514.60 1.567041
514.70 1.539903
514.80 1.665198
514.90 1.746033
515.00 1.709816
515.10 1.64366
515.20 1.663162
515.30 1.569223
515.40 1.408585
515.50 1.440033
515.60 1.542953
515.70 1.557851
515.80 1.792272
515.90 2.012253
516.00 2.00528
516.10 2.084163
516.20 2.249476
516.30 2.197659
516.40 2.16248
516.50 2.240334
516.60 2.104062
516.70 1.587843
516.80 1.107962
516.90 0.7593921
517.00 0.6758639
517.10 0.6524484
517.20 0.6299971
517.30 0.6194801
517.40 0.5482828
517.50 0.5632629
517.60 0.5626661
517.70 0.548349
517.80 0.5594754
517.90 0.5796086
518.00 0.5894495
518.10 0.6600405
518.20 0.6909135
518.30 0.7532614
518.40 0.7489752
518.50 0.8254611
518.60 0.9389295
518.70 0.9782065
518.80 0.9548489
518.90 1.077737
519.00 1.143102
519.10 1.188797
519.20 1.2201
519.30 1.149555
519.40 1.044275
519.50 1.135462
519.60 1.186511
519.70 1.342983
519.80 1.485018
519.90 1.464588
520.00 1.318072
520.10 1.286375
520.20 1.317872
520.30 1.175574
520.40 1.071171
520.50 1.108409
520.60 1.063958
520.70 0.8282015
520.80 0.7885881
520.90 0.8109873
521.00 0.8474327
521.10 0.881647
521.20 1.116132
521.30 1.392219
521.40 1.5868
521.50 1.729421
521.60 1.783779
521.70 1.757313
521.80 1.767459
521.90 1.846093
522.00 1.855637
522.10 1.901289
522.20 2.009765
522.30 2.043539
522.40 2.046728
522.50 1.855212
522.60 1.769879
522.70 1.731476
522.80 1.813927
522.90 1.911161
523.00 2.03802
523.10 2.238881
523.20 2.169063
523.30 1.962821
523.40 1.948765
523.50 2.056416
523.60 2.068042
523.70 2.077059
523.80 2.037906
523.90 2.038605
524.00 2.038924
524.10 1.930449
524.20 1.611231
524.30 1.454837
524.40 1.527934
524.50 1.682369
524.60 1.761962
524.70 1.65756
524.80 1.598532
524.90 1.566527
525.00 1.634951
525.10 1.692213
525.20 1.758996
525.30 1.809058
525.40 1.811582
525.50 1.9304
525.60 2.14158
525.70 2.215927
525.80 2.025673
525.90 1.956638
526.00 1.950286
526.10 1.870714
526.20 1.709412
526.30 1.719233
526.40 1.774573
526.50 1.609777
526.60 1.486821
526.70 1.543833
526.80 1.622052
526.90 1.666094
527.00 1.462326
527.10 1.370885
527.20 1.518575
527.30 1.82572
527.40 2.015611
527.50 2.121716
527.60 2.049261
527.70 2.01676
527.80 1.939068
527.90 1.972988
528.00 1.971017
528.10 1.958792
528.20 1.965143
528.30 1.908484
528.40 1.92622
528.50 2.052396
528.60 2.226275
528.70 2.273364
528.80 2.271038
528.90 2.290689
529.00 2.271874
529.10 2.273074
529.20 2.337988
529.30 2.312954
529.40 2.227136
529.50 2.27853
529.60 2.342075
529.70 2.264821
529.80 1.965894
529.90 1.925579
530.00 2.120705
530.10 2.149306
530.20 2.073637
530.30 2.20729
530.40 2.441148
530.50 2.464648
530.60 2.380069
530.70 2.268785
530.80 2.204192
530.90 2.145831
531.00 2.104776
531.10 2.107775
531.20 2.107692
531.30 2.063313
531.40 2.166699
531.50 2.155386
531.60 2.122411
531.70 2.195178
531.80 2.212481
531.90 2.201177
532.00 2.197459
532.10 2.146157
532.20 2.131524
532.30 2.129671
532.40 2.225528
532.50 2.254082
532.60 2.200933
532.70 2.112239
532.80 2.045233
532.90 1.914897
533.00 1.92639
533.10 2.170127
533.20 2.266117
533.30 2.121526
533.40 2.089012
533.50 2.104386
533.60 2.17871
533.70 2.233115
533.80 2.198703
533.90 2.199794
534.00 2.189053
534.10 2.189339
534.20 2.179739
534.30 2.296002
534.40 2.419722
534.50 2.446008
534.60 2.329995
534.70 2.259834
534.80 2.17516
534.90 2.277846
535.00 2.497914
535.10 2.511777
535.20 2.572098
535.30 2.659344
535.40 2.771406
535.50 2.836564
535.60 2.776787
535.70 2.670759
535.80 2.611149
535.90 2.484442
536.00 2.328169
536.10 2.174026
536.20 2.173598
536.30 2.342678
536.40 2.352257
536.50 2.25529
536.60 2.292948
536.70 2.399222
536.80 2.400676
536.90 2.345245
537.00 2.323316
537.10 2.366708
537.20 2.169477
537.30 2.046553
537.40 2.246628
537.50 2.617464
537.60 2.751453
537.70 2.555961
537.80 2.457053
537.90 2.561835
538.00 2.722548
538.10 2.895257
538.20 2.917008
538.30 2.812846
538.40 2.744512
538.50 2.741498
538.60 2.732299
538.70 2.787075
538.80 2.737383
538.90 2.784691
539.00 2.844958
539.10 2.787128
539.20 2.752685
539.30 2.757549
539.40 2.694159
539.50 2.749768
539.60 2.686285
539.70 2.472934
539.80 2.331782
539.90 2.574118
540.00 2.857782
540.10 3.018514
540.20 3.053879
540.30 3.050611
540.40 3.045048
540.50 3.023235
540.60 2.873115
540.70 2.608236
540.80 2.651883
540.90 2.858004
541.00 2.746399
541.10 2.562467
541.20 2.544457
541.30 2.598383
541.40 2.654905
541.50 2.749519
541.60 2.910895
541.70 3.079505
541.80 3.028127
541.90 2.905079
542.00 2.946404
542.10 3.103375
542.20 3.134521
542.30 3.087882
542.40 2.994586
542.50 2.974579
542.60 2.932898
542.70 2.979526
542.80 3.137845
542.90 3.164359
543.00 2.907194
543.10 2.688773
543.20 2.634102
543.30 2.787555
543.40 2.896561
543.50 2.839372
543.60 2.870219
543.70 3.117053
543.80 3.25709
543.90 3.142287
544.00 3.169942
544.10 3.364511
544.20 3.443356
544.30 3.595926
544.40 3.611128
544.50 3.528836
544.60 3.366973
544.70 3.011989
544.80 2.456331
544.90 1.943498
545.00 1.585382
545.10 1.380519
545.20 1.262183
545.30 1.225566
545.40 1.230996
545.50 1.286336
545.60 1.349484
545.70 1.423066
545.80 1.425208
545.90 1.399892
546.00 1.407077
546.10 1.443873
546.20 1.5022
546.30 1.453681
546.40 1.543817
546.50 1.724027
546.60 1.80919
546.70 1.839969
546.80 1.946061
546.90 1.959175
547.00 1.843801
547.10 1.732917
547.20 1.63372
547.30 1.73961
547.40 1.900858
547.50 1.879265
547.60 1.715253
547.70 1.695167
547.80 1.716371
547.90 1.725073
548.00 1.674783
548.10 1.753688
548.20 1.908573
548.30 2.024549
548.40 1.922867
548.50 1.961005
548.60 2.076074
548.70 2.062162
548.80 1.907544
548.90 1.836628
549.00 1.858207
549.10 1.958309
549.20 2.040512
549.30 2.017111
549.40 1.963482
549.50 1.93637
549.60 1.784662
549.70 1.669746
549.80 1.624099
549.90 1.515153
550.00 1.374045
550.10 1.223796
550.20 1.116133
550.30 1.069189
550.40 1.085164
550.50 1.218611
550.60 1.235745
550.70 1.181723
550.80 1.155595
550.90 1.149454
551.00 1.113614
551.10 1.097557
551.20 1.101249
551.30 1.016589
551.40 0.9903548
551.50 0.9557248
551.60 0.9105146
551.70 0.8867086
551.80 0.9499273
551.90 1.012255
552.00 0.9690737
552.10 0.9302142
552.20 0.92214
552.30 0.9000868
552.40 0.9083237
552.50 0.8776126
552.60 0.8404956
552.70 0.8926387
552.80 0.9996099
552.90 0.9503777
553.00 0.8960415
553.10 0.9050052
553.20 0.9961167
553.30 1.007403
553.40 0.8246286
553.50 0.7027207
553.60 0.757275
553.70 0.8113415
553.80 0.8319694
553.90 0.8356645
554.00 0.7412911
554.10 0.7145712
554.20 0.7729059
554.30 0.740882
554.40 0.7161886
554.50 0.7261829
554.60 0.8456263
554.70 0.8297902
554.80 0.8518341
554.90 0.8597486
555.00 0.8010672
555.10 0.8143428
555.20 0.9719666
555.30 0.9357508
555.40 0.8308306
555.50 0.8444619
555.60 0.9310016
555.70 1.049862
555.80 1.028718
555.90 1.105779
556.00 1.167268
556.10 1.22543
556.20 1.289569
556.30 1.33219
556.40 1.305505
556.50 1.350908
556.60 1.404919
556.70 1.537097
556.80 1.570744
556.90 1.551575
557.00 1.596276
557.10 1.707136
557.20 1.734966
557.30 1.730161
557.40 1.729691
557.50 1.729691
557.60 1.729691
557.70 1.729691
557.80 1.729691
557.90 1.729691
558.00 1.729691
558.10 1.729689
558.20 1.729385
558.30 1.728384
558.40 1.724
558.50 1.823388
558.60 1.971731
558.70 2.056815
558.80 2.129577
558.90 2.082121
559.00 2.084172
559.10 2.11002
559.20 2.065672
559.30 2.06331
559.40 2.132659
559.50 2.084001
559.60 1.961396
559.70 1.958455
559.80 1.862602
559.90 1.552213
560.00 1.361726
560.10 1.449882
560.20 1.575495
560.30 1.598843
560.40 1.641101
560.50 1.687848
560.60 1.624208
560.70 1.734667
560.80 1.816303
560.90 1.819293
561.00 1.716349
561.10 1.752261
561.20 1.796427
561.30 1.806911
561.40 1.847755
561.50 1.848321
561.60 1.84551
561.70 1.669281
561.80 1.508799
561.90 1.562222
562.00 1.648944
562.10 1.562124
562.20 1.541462
562.30 1.635688
562.40 1.626399
562.50 1.597799
562.60 1.680622
562.70 1.79571
562.80 1.827118
562.90 1.671652
563.00 1.476444
563.10 1.482897
563.20 1.454297
563.30 1.509174
563.40 1.647977
563.50 1.779514
563.60 1.733886
563.70 1.634412
563.80 1.573858
563.90 1.543269
564.00 1.544888
564.10 1.615523
564.20 1.644286
564.30 1.625539
564.40 1.592682
564.50 1.715413
564.60 1.837199
564.70 1.834405
564.80 1.76824
564.90 1.807422
565.00 1.867295
565.10 1.904106
565.20 1.90479
565.30 1.895758
565.40 1.955844
565.50 2.008399
565.60 2.080287
565.70 2.116048
565.80 2.059947
565.90 2.092591
566.00 2.145081
566.10 2.157615
566.20 2.114843
566.30 2.045736
566.40 1.846577
566.50 1.726363
566.60 1.750105
566.70 1.825807
566.80 1.796834
566.90 1.659025
567.00 1.639498
567.10 1.644604
567.20 1.615058
567.30 1.63261
567.40 1.793314
567.50 1.845498
567.60 1.82704
567.70 1.782151
567.80 1.909651
567.90 2.00432
568.00 1.913432
568.10 1.839394
568.20 1.862912
568.30 1.945739
568.40 1.960435
568.50 2.036827
568.60 2.23275
568.70 2.236938
568.80 2.107323
568.90 1.892565
569.00 1.842997
569.10 1.916599
569.20 1.936565
569.30 1.95997
569.40 2.024833
569.50 2.117245
569.60 2.158535
569.70 2.198072
569.80 2.265612
569.90 2.294602
570.00 2.234397
570.10 2.296886
570.20 2.422034
570.30 2.479038
570.40 2.396497
570.50 2.357009
570.60 2.385722
570.70 2.485908
570.80 2.489409
570.90 2.543601
571.00 2.630777
571.10 2.633264
571.20 2.595837
571.30 2.485275
571.40 2.445794
571.50 2.373324
571.60 2.354549
571.70 2.352993
571.80 2.206906
571.90 2.075273
572.00 2.073481
572.10 2.139724
572.20 2.243981
572.30 2.330154
572.40 2.256977
572.50 2.162567
572.60 2.18596
572.70 2.2331
572.80 2.254622
572.90 2.297402
573.00 2.343746
573.10 2.398435
573.20 2.42821
573.30 2.523982
573.40 2.534489
573.50 2.52018
573.60 2.478078
573.70 2.373499
573.80 2.298601
573.90 2.200966
574.00 2.348744
574.10 2.41907
574.20 2.283135
574.30 2.194665
574.40 2.236935
574.50 2.246806
574.60 2.422448
574.70 2.633219
574.80 2.608007
574.90 2.642715
575.00 2.808741
575.10 2.815879
575.20 2.665167
575.30 2.667328
575.40 2.817008
575.50 2.91522
575.60 2.891879
575.70 2.884115
575.80 2.839232
575.90 2.733963
576.00 2.525644
576.10 2.386556
576.20 2.294506
576.30 2.189097
576.40 1.963127
576.50 1.843667
576.60 1.87297
576.70 1.782413
576.80 1.79272
576.90 1.986615
577.00 2.178105
577.10 2.122417
577.20 2.085069
577.30 2.234827
577.40 2.320197
577.50 2.266785
577.60 2.146697
577.70 2.148723
577.80 2.183112
577.90 2.235789
578.00 2.181261
578.10 2.205878
578.20 2.358249
578.30 2.516326
578.40 2.615115
578.50 2.676183
578.60 2.636245
578.70 2.495504
578.80 2.440949
578.90 2.50318
579.00 2.489047
579.10 2.504687
579.20 2.51693
579.30 2.530985
579.40 2.612612
579.50 2.754563
579.60 2.734952
579.70 2.696801
579.80 2.7312
579.90 2.884871
580.00 2.906788
580.10 2.864587
580.20 2.904968
580.30 2.948559
580.40 2.946599
580.50 2.939541
580.60 3.04185
580.70 3.132853
580.80 3.078101
580.90 2.975812
581.00 2.928043
581.10 2.631891
581.20 2.300352
581.30 2.215145
581.40 2.188499
581.50 2.127157
581.60 2.020012
581.70 1.962415
581.80 1.938809
581.90 1.958327
582.00 2.060676
582.10 1.995432
582.20 1.890215
582.30 1.923786
582.40 1.910801
582.50 2.026879
582.60 2.146483
582.70 2.152178
582.80 2.105246
582.90 2.215222
583.00 2.211167
583.10 2.184931
583.20 2.218533
583.30 2.264954
583.40 2.182262
583.50 2.217111
583.60 2.434851
583.70 2.476458
583.80 2.421143
583.90 2.34722
584.00 2.141247
584.10 2.000075
584.20 2.008983
584.30 2.13345
584.40 2.154223
584.50 2.122821
584.60 2.211788
584.70 2.286379
584.80 2.05068
584.90 1.658768
585.00 1.487168
585.10 1.366768
585.20 1.347192
585.30 1.40745
585.40 1.46208
585.50 1.474802
585.60 1.497187
585.70 1.467681
585.80 1.479314
585.90 1.565725
586.00 1.575415
586.10 1.627359
586.20 1.595878
586.30 1.492334
586.40 1.347381
586.50 1.288747
586.60 1.361529
586.70 1.48575
586.80 1.414481
586.90 1.32939
587.00 1.429747
587.10 1.520358
587.20 1.422931
587.30 1.351109
587.40 1.307437
587.50 1.205514
587.60 1.270092
587.70 1.39662
587.80 1.362524
587.90 1.229693
588.00 1.111351
588.10 1.077474
588.20 1.026317
588.30 0.9822568
588.40 1.020641
588.50 1.004976
588.60 0.9532625
588.70 0.913227
588.80 0.8031087
588.90 0.6155083
589.00 0.447464
589.10 0.6576568
589.20 0.876587
589.30 0.7205213
589.40 0.5940079
589.50 0.5358733
589.60 0.6503836
589.70 0.7399977
589.80 0.7695475
589.90 0.7048269
590.00 0.7298735
590.10 0.8059257
590.20 0.77818
590.30 0.8749461
590.40 0.9947708
590.50 1.012425
590.60 0.9358324
590.70 0.8087252
590.80 0.8686494
590.90 0.9165233
591.00 0.9272533
591.10 0.9382449
591.20 1.031878
591.30 1.106048
591.40 1.036785
591.50 1.033324
591.60 1.054718
591.70 1.163203
591.80 1.225041
591.90 1.121181
592.00 1.068652
592.10 1.187694
592.20 1.252148
592.30 1.114165
592.40 1.061968
592.50 1.152707
592.60 1.157156
592.70 1.150406
592.80 1.168392
592.90 1.216557
593.00 1.207813
593.10 1.150226
593.20 1.16647
593.30 1.219833
593.40 1.300855
593.50 1.39941
593.60 1.387612
593.70 1.214922
593.80 1.127895
593.90 1.310998
594.00 1.458663
594.10 1.445042
594.20 1.456167
594.30 1.429022
594.40 1.466145
594.50 1.581423
594.60 1.60185
594.70 1.501642
594.80 1.416154
594.90 1.475961
595.00 1.377826
595.10 1.280231
595.20 1.304177
595.30 1.433879
595.40 1.441896
595.50 1.355072
595.60 1.310652
595.70 1.181653
595.80 1.146543
595.90 1.174504
596.00 1.222176
596.10 1.255019
596.20 1.322547
596.30 1.333758
596.40 1.335656
596.50 1.309076
596.60 1.33506
596.70 1.368538
596.80 1.386078
596.90 1.393928
597.00 1.371501
597.10 1.411429
597.20 1.484284
597.30 1.473893
597.40 1.392747
597.50 1.361783
597.60 1.422899
597.70 1.447527
597.80 1.460819
597.90 1.389334
598.00 1.348753
598.10 1.305966
598.20 1.448004
598.30 1.523199
598.40 1.495503
598.50 1.479514
598.60 1.545928
598.70 1.624152
598.80 1.549755
598.90 1.504073
599.00 1.503902
599.10 1.52282
599.20 1.518798
599.30 1.586075
599.40 1.670984
599.50 1.788012
599.60 1.875479
599.70 1.882245
599.80 1.825291
599.90 1.700179
600.00 1.630477
600.10 1.598859
600.20 1.575079
600.30 1.620542
600.40 1.653634
600.50 1.667937
600.60 1.629172
600.70 1.585527
600.80 1.49651
600.90 1.442863
601.00 1.51765
601.10 1.63454
601.20 1.694162
601.30 1.720464
601.40 1.677799
601.50 1.626475
601.60 1.656983
601.70 1.740575
601.80 1.74619
601.90 1.747997
602.00 1.813729
602.10 1.906564
602.20 1.892644
602.30 1.875566
602.40 1.798669
602.50 1.789304
602.60 1.830527
602.70 1.886909
602.80 1.936959
602.90 1.918988
603.00 1.828902
603.10 1.843145
603.20 1.904386
603.30 1.950866
603.40 1.937265
603.50 1.92364
603.60 1.929319
603.70 1.814207
603.80 1.75031
603.90 1.828507
604.00 1.88363
604.10 1.934961
604.20 1.989217
604.30 2.062207
604.40 2.011648
604.50 1.989374
604.60 2.084539
604.70 2.067797
604.80 2.030832
604.90 2.1151
605.00 2.273603
605.10 2.288798
605.20 2.204176
605.30 2.219827
605.40 2.221821
605.50 2.184935
605.60 2.218462
605.70 2.218152
605.80 2.209079
605.90 2.244114
606.00 2.37066
606.10 2.363033
606.20 2.317894
606.30 2.294789
606.40 2.243391
606.50 2.174047
606.60 2.114056
606.70 2.063469
606.80 2.077406
606.90 2.225813
607.00 2.365215
607.10 2.388636
607.20 2.345017
607.30 2.364763
607.40 2.315301
607.50 2.280165
607.60 2.305634
607.70 2.406618
607.80 2.457164
607.90 2.421705
608.00 2.310956
608.10 2.128124
608.20 2.031354
608.30 1.999151
608.40 2.017489
608.50 2.129287
608.60 2.248948
608.70 2.261398
608.80 2.222554
608.90 2.261452
609.00 2.33982
609.10 2.307865
609.20 2.261212
609.30 2.27323
609.40 2.409514
609.50 2.416822
609.60 2.39255
609.70 2.415954
609.80 2.405201
609.90 2.405893
610.00 2.477086
610.10 2.468891
610.20 2.330899
610.30 2.173977
610.40 2.201589
610.50 2.216294
610.60 2.256662
610.70 2.334689
610.80 2.433938
610.90 2.415982
611.00 2.303623
611.10 2.248685
611.20 2.234328
611.30 2.23652
611.40 2.298073
611.50 2.296874
611.60 2.274728
611.70 2.174317
611.80 2.068378
611.90 2.020227
612.00 2.056812
612.10 2.118299
612.20 2.106035
612.30 2.062529
612.40 2.064766
612.50 2.062853
612.60 2.110654
612.70 2.196381
612.80 2.249032
612.90 2.256579
613.00 2.217989
613.10 2.203294
613.20 2.250852
613.30 2.18211
613.40 2.051208
613.50 2.031011
613.60 2.113388
613.70 2.199662
613.80 2.243296
613.90 2.235036
614.00 2.21324
614.10 2.165818
614.20 2.07333
614.30 2.02334
614.40 2.070895
614.50 2.145575
614.60 2.196014
614.70 2.120458
614.80 1.88803
614.90 1.766466
615.00 1.703341
615.10 1.680256
615.20 1.654417
615.30 1.673617
615.40 1.713431
615.50 1.725893
615.60 1.777532
615.70 1.649105
615.80 1.508973
615.90 1.47704
616.00 1.393128
616.10 1.210217
616.20 1.091571
616.30 1.073916
616.40 1.094171
616.50 1.123692
616.60 1.150634
616.70 1.167
616.80 1.147951
616.90 1.180127
617.00 1.167016
617.10 1.206656
617.20 1.148916
617.30 1.077093
617.40 1.087013
617.50 1.0273
617.60 0.9990026
617.70 1.078683
617.80 1.121165
617.90 1.101881
618.00 1.170408
618.10 1.208933
618.20 1.252982
618.30 1.237045
618.40 1.148216
618.50 1.100584
618.60 1.069561
618.70 1.026331
618.80 0.9266289
618.90 0.8885517
619.00 0.9182867
619.10 0.9190902
619.20 0.9497378
619.30 0.9327791
619.40 0.9261836
619.50 0.9525516
619.60 0.9936121
619.70 1.012434
619.80 1.002114
619.90 0.9999211
620.00 0.9829812
620.10 0.9886773
620.20 1.037797
620.30 1.09363
620.40 1.039227
620.50 1.047508
620.60 1.126103
620.70 1.14849
620.80 1.104046
620.90 1.069958
621.00 1.087078
621.10 1.057106
621.20 1.033522
621.30 1.066859
621.40 1.014168
621.50 0.9533045
621.60 0.9524877
621.70 0.9589919
621.80 0.9883856
621.90 0.9952089
622.00 0.9676082
622.10 1.034588
622.20 1.046804
622.30 1.000419
622.40 0.9286571
622.50 0.9291561
622.60 0.9304066
622.70 0.9034686
622.80 0.8556841
622.90 0.8479945
623.00 0.9219293
623.10 0.9527182
623.20 0.9633906
623.30 1.004862
623.40 0.9525377
623.50 0.8821305
623.60 0.9562733
623.70 1.03333
623.80 1.058315
623.90 1.086639
624.00 1.048047
624.10 0.9630879
624.20 0.978044
624.30 1.054884
624.40 1.028076
624.50 0.9564016
624.60 0.9383308
624.70 0.9895787
624.80 1.042328
624.90 1.095827
625.00 1.093871
625.10 1.095018
625.20 1.085245
625.30 1.102525
625.40 1.127153
625.50 1.088854
625.60 1.098986
625.70 1.128946
625.80 1.15632
625.90 1.118453
626.00 1.101525
626.10 1.078412
626.20 1.07851
626.30 1.189088
626.40 1.285229
626.50 1.300812
626.60 1.293714
626.70 1.323015
626.80 1.379798
626.90 1.356361
627.00 1.328894
627.10 1.316252
627.20 1.263366
627.30 1.239636
627.40 1.294688
627.50 1.418988
627.60 1.408685
627.70 1.337559
627.80 1.278251
627.90 1.263561
628.00 1.273162
628.10 1.362715
628.20 1.45562
628.30 1.426949
628.40 1.424004
628.50 1.539944
628.60 1.605318
628.70 1.569887
628.80 1.563757
628.90 1.718773
629.00 1.785933
629.10 1.673661
629.20 1.554907
629.30 1.586172
629.40 1.684559
629.50 1.72887
629.60 1.726093
629.70 1.737147
629.80 1.812581
629.90 1.72025
630.00 1.57936
630.10 1.648795
630.20 2.043438
630.30 2.373588
630.40 2.141651
630.50 1.98855
630.60 1.977812
630.70 2.071093
630.80 2.230835
630.90 2.28109
631.00 2.283322
631.10 2.245693
631.20 2.279377
631.30 2.357941
631.40 2.452749
631.50 2.531949
631.60 2.534728
631.70 2.569515
631.80 2.674217
631.90 2.700442
632.00 2.643464
632.10 2.628513
632.20 2.593534
632.30 2.521753
632.40 2.477269
632.50 2.493756
632.60 2.560948
632.70 2.623528
632.80 2.666262
632.90 2.702177
633.00 2.72536
633.10 2.781571
633.20 2.852417
633.30 2.883994
633.40 2.895113
633.50 2.930449
633.60 2.963572
633.70 2.992688
633.80 3.055681
633.90 3.120045
634.00 3.136011
634.10 3.174258
634.20 3.219722
634.30 3.282038
634.40 3.368864
634.50 3.402965
634.60 3.423072
634.70 3.428283
634.80 3.41687
634.90 3.515407
635.00 3.570117
635.10 3.513467
635.20 3.417677
635.30 3.320331
635.40 3.187661
635.50 3.054641
635.60 3.001878
635.70 2.938489
635.80 2.898749
635.90 2.909534
636.00 2.935111
636.10 2.876293
636.20 2.770322
636.30 2.706914
636.40 2.823508
636.50 3.061321
636.60 3.178923
636.70 3.062262
636.80 2.836499
636.90 2.814412
637.00 2.970594
637.10 3.064103
637.20 3.039586
637.30 3.062519
637.40 3.159322
637.50 3.15787
637.60 3.084483
637.70 3.058084
637.80 3.056718
637.90 3.061593
638.00 2.980669
638.10 2.832863
638.20 2.740479
638.30 2.688516
638.40 2.654317
638.50 2.676727
638.60 2.710468
638.70 2.712345
638.80 2.691925
638.90 2.652727
639.00 2.659995
639.10 2.711228
639.20 2.818019
639.30 2.938576
639.40 2.981867
639.50 3.083097
639.60 3.258045
639.70 3.425344
639.80 3.509414
639.90 3.45617
640.00 3.419539
640.10 3.413631
640.20 3.443318
640.30 3.549505
640.40 3.599016
640.50 3.653509
640.60 3.723875
640.70 3.76892
640.80 3.791226
640.90 3.775326
641.00 3.768806
641.10 3.756748
641.20 3.768648
641.30 3.771236
641.40 3.779065
641.50 3.753308
641.60 3.685418
641.70 3.592293
641.80 3.545046
641.90 3.48739
642.00 3.406775
642.10 3.367525
642.20 3.343378
642.30 3.270598
642.40 3.202237
642.50 3.251605
642.60 3.353001
642.70 3.399572
642.80 3.403333
642.90 3.40711
643.00 3.477852
643.10 3.589521
643.20 3.628137
643.30 3.620713
643.40 3.606605
643.50 3.629862
643.60 3.704256
643.70 3.719484
643.80 3.694548
643.90 3.646549
644.00 3.631178
644.10 3.692307
644.20 3.789117
644.30 3.903991
644.40 4.053254
644.50 4.164783
644.60 4.161583
644.70 4.07225
644.80 3.937865
644.90 3.811845
645.00 3.731171
645.10 3.743509
645.20 3.812081
645.30 3.862611
645.40 3.941037
645.50 3.989891
645.60 4.054596
645.70 4.067341
645.80 4.059533
645.90 4.093536
646.00 4.099355
646.10 4.064702
646.20 4.043744
646.30 4.044971
646.40 4.071242
646.50 4.125226
646.60 4.245233
646.70 4.407333
646.80 4.486831
646.90 4.50037
647.00 4.554604
647.10 4.628767
647.20 4.657219
647.30 4.644697
647.40 4.656624
647.50 4.719157
647.60 4.826087
647.70 4.868717
647.80 4.844365
647.90 4.714953
648.00 4.505818
648.10 4.277095
648.20 4.188425
648.30 4.188263
648.40 4.18283
648.50 4.150577
648.60 4.037408
648.70 3.958814
648.80 4.017326
648.90 4.181396
649.00 4.346966
649.10 4.452024
649.20 4.447383
649.30 4.382076
649.40 4.340577
649.50 4.368658
649.60 4.414854
649.70 4.489532
649.80 4.611567
649.90 4.725828
650.00 4.735174
650.10 4.868618
650.20 4.993579
650.30 5.063314
650.40 5.132147
650.50 5.189591
650.60 5.289732
650.70 5.372579
650.80 5.419744
650.90 5.46979
651.00 5.544779
651.10 5.667166
651.20 5.72136
651.30 5.586533
651.40 5.425944
651.50 5.316477
651.60 5.309948
651.70 5.388001
651.80 5.575082
651.90 5.746579
652.00 5.850289
652.10 5.958694
652.20 6.051039
652.30 6.121995
652.40 6.195642
652.50 6.243084
652.60 6.243469
652.70 6.289218
652.80 6.458344
652.90 6.615204
653.00 6.651152
653.10 6.610767
653.20 6.621596
653.30 6.708158
653.40 6.802085
653.50 6.953985
653.60 7.037923
653.70 7.083086
653.80 7.245111
653.90 7.395473
654.00 7.485962
654.10 7.584663
654.20 7.622782
654.30 7.486516
654.40 7.218451
654.50 6.921987
654.60 6.679414
654.70 6.518814
654.80 6.393197
654.90 6.289919
655.00 6.209247
655.10 6.017921
655.20 5.767154
655.30 5.641019
655.40 5.651772
655.50 5.714874
655.60 5.707864
655.70 5.80061
655.80 5.954056
655.90 6.034031
656.00 6.182061
656.10 6.776495
656.20 8.194897
656.30 10.1393
656.40 11.58757
656.50 11.34451
656.60 9.475682
656.70 7.083779
656.80 5.539083
656.90 5.023456
657.00 4.966584
657.10 4.959469
657.20 4.825096
657.30 4.665595
657.40 4.557143
657.50 4.597058
657.60 4.764047
657.70 4.924671
657.80 4.958217
657.90 4.787515
658.00 4.554527
658.10 4.407432
658.20 4.362445
658.30 4.399469
658.40 4.57259
658.50 4.782359
658.60 4.973822
658.70 5.124494
658.80 5.249091
658.90 5.368011
659.00 5.390067
659.10 5.353338
659.20 5.317485
659.30 5.180364
659.40 4.950741
659.50 4.709785
659.60 4.56601
659.70 4.552038
659.80 4.580052
659.90 4.632476
660.00 4.64799
660.10 4.634378
660.20 4.613494
660.30 4.646506
660.40 4.717922
660.50 4.744205
660.60 4.733889
660.70 4.687651
660.80 4.616562
660.90 4.628097
661.00 4.653584
661.10 4.702568
661.20 4.777884
661.30 4.882586
661.40 4.960124
661.50 4.94615
661.60 4.952662
661.70 4.866116
661.80 4.72717
661.90 4.590237
662.00 4.428323
662.10 4.325165
662.20 4.294914
662.30 4.261855
662.40 4.197292
662.50 4.121554
662.60 4.00339
662.70 3.820787
662.80 3.620824
662.90 3.616459
663.00 3.817396
663.10 4.04581
663.20 4.241796
663.30 4.344341
663.40 4.311221
663.50 4.157379
663.60 3.927481
663.70 3.699446
663.80 3.475633
663.90 3.383975
664.00 3.471563
664.10 3.58606
664.20 3.722836
664.30 3.825665
664.40 3.921523
664.50 3.980639
664.60 4.005452
664.70 4.022446
664.80 3.982323
664.90 3.860657
665.00 3.654768
665.10 3.383991
665.20 3.093129
665.30 2.868401
665.40 2.774336
665.50 2.776256
665.60 2.852052
665.70 2.932086
665.80 2.988865
665.90 3.007867
666.00 2.975675
666.10 3.022537
666.20 3.09366
666.30 3.161452
666.40 3.227721
666.50 3.286559
666.60 3.377682
666.70 3.495767
666.80 3.616005
666.90 3.635905
667.00 3.621832
667.10 3.639066
667.20 3.66573
667.30 3.700846
667.40 3.661924
667.50 3.623527
667.60 3.60696
667.70 3.635309
667.80 3.68504
667.90 3.650059
668.00 3.514646
668.10 3.267289
668.20 2.925574
668.30 2.634119
668.40 2.532088
668.50 2.580939
668.60 2.659783
668.70 2.718833
668.80 2.787157
668.90 2.873415
669.00 2.92126
669.10 2.932684
669.20 2.898548
669.30 2.839695
669.40 2.847999
669.50 2.88471
669.60 2.900895
669.70 2.970454
669.80 3.072339
669.90 3.109129
670.00 3.086162
670.10 3.076289
670.20 3.092652
670.30 3.128762
670.40 3.21563
670.50 3.293733
670.60 3.324282
670.70 3.350326
670.80 3.40945
670.90 3.511144
671.00 3.513801
671.10 3.445033
671.20 3.381809
671.30 3.31952
671.40 3.250802
671.50 3.125046
671.60 2.920842
671.70 2.717439
671.80 2.538237
671.90 2.388838
672.00 2.308523
672.10 2.300991
672.20 2.359002
672.30 2.443402
672.40 2.50972
672.50 2.522957
672.60 2.573557
672.70 2.644783
672.80 2.647317
672.90 2.665731
673.00 2.738813
673.10 2.797331
673.20 2.779351
673.30 2.730761
673.40 2.718548
673.50 2.757686
673.60 2.78046
673.70 2.84375
673.80 2.93322
673.90 2.991177
674.00 3.029027
674.10 3.050509
674.20 3.081782
674.30 3.157091
674.40 3.253174
674.50 3.263929
674.60 3.207971
674.70 3.116299
674.80 2.947897
674.90 2.763862
675.00 2.624899
675.10 2.549851
675.20 2.599146
675.30 2.690937
675.40 2.763422
675.50 2.79073
675.60 2.839496
675.70 2.896382
675.80 2.932367
675.90 2.949921
676.00 2.939336
676.10 2.918594
676.20 2.91677
676.30 3.000424
676.40 3.137876
676.50 3.204234
676.60 3.273634
676.70 3.366581
676.80 3.39492
676.90 3.409605
677.00 3.436875
677.10 3.455548
677.20 3.458228
677.30 3.471865
677.40 3.473835
677.50 3.507092
677.60 3.64033
677.70 3.722467
677.80 3.729079
677.90 3.706443
678.00 3.670833
678.10 3.579062
678.20 3.37059
678.30 3.154014
678.40 2.932316
678.50 2.755659
678.60 2.682032
678.70 2.667614
678.80 2.681083
678.90 2.687034
679.00 2.756366
679.10 2.84258
679.20 2.869363
679.30 2.895598
679.40 2.913741
679.50 2.95328
679.60 3.019132
679.70 3.075951
679.80 3.099872
679.90 3.097186
680.00 3.142635
680.10 3.194577
680.20 3.252344
680.30 3.333133
680.40 3.373456
680.50 3.339213
680.60 3.259358
680.70 3.181939
680.80 3.187372
680.90 3.317472
681.00 3.408498
681.10 3.440788
681.20 3.488702
681.30 3.528031
681.40 3.55183
681.50 3.510933
681.60 3.406284
681.70 3.276752
681.80 3.231798
681.90 3.235586
682.00 3.262748
682.10 3.32961
682.20 3.352496
682.30 3.324307
682.40 3.291037
682.50 3.298718
682.60 3.359465
682.70 3.404121
682.80 3.405197
682.90 3.465745
683.00 3.657425
683.10 3.752298
683.20 3.655101
683.30 3.535836
683.40 3.507433
683.50 3.614357
683.60 3.669156
683.70 3.621872
683.80 3.534441
683.90 3.465859
684.00 3.520624
684.10 3.619074
684.20 3.659412
684.30 3.660279
684.40 3.713591
684.50 3.801647
684.60 3.815593
684.70 3.749096
684.80 3.668611
684.90 3.667538
685.00 3.664624
685.10 3.580518
685.20 3.40826
685.30 3.2601
685.40 3.228885
685.50 3.249215
685.60 3.306088
685.70 3.332482
685.80 3.349167
685.90 3.409301
686.00 3.407492
686.10 3.359216
686.20 3.324835
686.30 3.31408
686.40 3.365245
686.50 3.431936
686.60 3.526557
686.70 3.653055
686.80 3.666912
686.90 3.475642
687.00 3.332394
687.10 3.413271
687.20 3.554103
687.30 3.631582
687.40 3.690843
687.50 3.811139
687.60 3.906822
687.70 3.945353
687.80 3.997493
687.90 4.026008
688.00 4.050125
688.10 4.013153
688.20 3.965417
688.30 3.958805
688.40 3.926805
688.50 3.860913
688.60 3.715997
688.70 3.60127
688.80 3.673437
688.90 3.875265
689.00 4.030067
689.10 4.062565
689.20 3.930703
689.30 3.816
689.40 3.887455
689.50 4.038928
689.60 4.176609
689.70 4.220626
689.80 4.165936
689.90 4.124172
690.00 4.086544
690.10 3.979544
690.20 3.815003
690.30 3.677268
690.40 3.726318
690.50 3.926363
690.60 4.136372
690.70 4.334579
690.80 4.483824
690.90 4.623521
691.00 4.710337
691.10 4.70327
691.20 4.668032
691.30 4.650512
691.40 4.714473
691.50 4.794288
691.60 4.817174
691.70 4.715692
691.80 4.492603
691.90 4.192725
692.00 3.91072
692.10 3.852263
692.20 4.038962
692.30 4.324037
692.40 4.594213
692.50 4.856653
692.60 5.068553
692.70 5.110039
692.80 5.04127
692.90 4.957519
693.00 4.975018
693.10 5.089786
693.20 5.261075
693.30 5.447896
693.40 5.551741
693.50 5.556001
693.60 5.505428
693.70 5.485076
693.80 5.51462
693.90 5.552675
694.00 5.600191
694.10 5.657656
694.20 5.797847
694.30 6.041633
694.40 6.268614
694.50 6.45243
694.60 6.611402
694.70 6.735255
694.80 6.857277
694.90 7.000606
695.00 7.08792
695.10 7.058533
695.20 6.849372
695.30 6.602988
695.40 6.375719
695.50 6.213807
695.60 6.198412
695.70 6.223724
695.80 6.273948
695.90 6.295507
696.00 6.324867
696.10 6.340674
696.20 6.36139
696.30 6.435989
696.40 6.535865
696.50 6.671812
696.60 6.804679
696.70 6.905688
696.80 6.967977
696.90 6.978558
697.00 6.930558
697.10 6.821426
697.20 6.715102
697.30 6.623724
697.40 6.624212
697.50 6.766777
697.60 7.003705
697.70 7.233046
697.80 7.370264
697.90 7.465632
698.00 7.506143
698.10 7.484689
698.20 7.440975
698.30 7.461709
698.40 7.579914
698.50 7.714175
698.60 7.757664
698.70 7.703516
698.80 7.660986
698.90 7.615854
699.00 7.574479
699.10 7.474808
699.20 7.333236
699.30 7.285565
699.40 7.290698
699.50 7.30265
699.60 7.400992
699.70 7.524876
699.80 7.589061
699.90 7.601258
700.00 7.561801
700.10 7.578489
700.20 7.685198
700.30 7.799213
700.40 7.866849
700.50 7.811069
700.60 7.666422
700.70 7.662895
700.80 7.844044
700.90 8.088831
701.00 8.231234
701.10 8.216158
701.20 8.206534
701.30 8.337386
701.40 8.607596
701.50 8.817372
701.60 8.826098
701.70 8.714334
701.80 8.647804
701.90 8.687125
702.00 8.823246
702.10 9.031704
702.20 9.222747
702.30 9.206846
702.40 8.902686
702.50 8.508262
702.60 8.307713
702.70 8.443809
702.80 8.844463
702.90 9.426804
703.00 10.02429
703.10 10.30616
703.20 10.23096
703.30 10.07631
703.40 10.05656
703.50 10.29803
703.60 10.75856
703.70 11.17336
703.80 11.34394
703.90 11.28803
704.00 11.17209
704.10 11.26011
704.20 11.54342
704.30 11.82773
704.40 12.01204
704.50 12.08608
704.60 12.11422
704.70 12.16752
704.80 12.23437
704.90 12.26789
705.00 12.24026
705.10 12.18364
705.20 12.124
705.30 11.86646
705.40 10.9379
705.50 9.177368
705.60 7.062659
705.70 5.418467
705.80 4.68529
705.90 4.649607
706.00 4.710158
706.10 4.552725
706.20 4.310965
706.30 4.201988
706.40 4.324137
706.50 4.536243
706.60 4.719785
706.70 4.873031
706.80 4.969069
706.90 5.087
707.00 5.258989
707.10 5.410347
707.20 5.541475
707.30 5.655684
707.40 5.779079
707.50 5.852703
707.60 5.817475
707.70 5.781872
707.80 5.839535
707.90 5.957488
708.00 6.065653
708.10 6.15815
708.20 6.224471
708.30 6.280347
708.40 6.364894
708.50 6.468045
708.60 6.481595
708.70 6.204702
708.80 5.523207
708.90 4.58257
709.00 3.709877
709.10 3.224624
709.20 3.185122
709.30 3.3338
709.40 3.453225
709.50 3.431442
709.60 3.355232
709.70 3.352837
709.80 3.431245
709.90 3.556238
710.00 3.646163
710.10 3.713283
710.20 3.763904
710.30 3.779396
710.40 3.773673
710.50 3.779883
710.60 3.864718
710.70 4.043468
710.80 4.303446
710.90 4.588178
711.00 4.803434
711.10 4.962705
711.20 5.095233
711.30 5.177734
711.40 5.179913
711.50 5.088715
711.60 5.003607
711.70 4.973289
711.80 5.024685
711.90 5.176121
712.00 5.389029
712.10 5.617799
712.20 5.788308
712.30 5.838975
712.40 5.740764
712.50 5.388982
712.60 4.630491
712.70 3.661619
712.80 2.888022
712.90 2.52653
713.00 2.56284
713.10 2.734676
713.20 2.790797
713.30 2.70939
713.40 2.629311
713.50 2.623122
713.60 2.702305
713.70 2.841033
713.80 2.963052
713.90 2.970503
714.00 2.937743
714.10 2.97195
714.20 3.07204
714.30 3.231179
714.40 3.369954
714.50 3.413055
714.60 3.385581
714.70 3.378005
714.80 3.419123
714.90 3.506968
715.00 3.584528
715.10 3.607676
715.20 3.636731
715.30 3.700109
715.40 3.795352
715.50 3.953556
715.60 4.139007
715.70 4.228208
715.80 4.175169
715.90 4.01577
716.00 3.802202
716.10 3.609037
716.20 3.543608
716.30 3.613804
716.40 3.715539
716.50 3.739106
716.60 3.702317
716.70 3.721516
716.80 3.779792
716.90 3.822386
717.00 3.88761
717.10 3.974336
717.20 4.134667
717.30 4.295913
717.40 4.363074
717.50 4.364518
717.60 4.319776
717.70 4.305682
717.80 4.327252
717.90 4.375425
718.00 4.454604
718.10 4.565174
718.20 4.685969
718.30 4.763986
718.40 4.865142
718.50 4.999433
718.60 5.148248
718.70 5.279264
718.80 5.359083
718.90 5.418882
719.00 5.46072
719.10 5.463719
719.20 5.432989
719.30 5.427127
719.40 5.482792
719.50 5.538123
719.60 5.466157
719.70 5.230071
719.80 4.868636
719.90 4.515193
720.00 4.38104
720.10 4.409416
720.20 4.450648
720.30 4.475616
720.40 4.437523
720.50 4.416406
720.60 4.46606
720.70 4.468521
720.80 4.516559
720.90 4.650717
721.00 4.770294
721.10 4.848298
721.20 4.890356
721.30 4.963898
721.40 5.073942
721.50 5.144441
721.60 5.182812
721.70 5.268658
721.80 5.393697
721.90 5.490608
722.00 5.537667
722.10 5.558836
722.20 5.617969
722.30 5.713356
722.40 5.838509
722.50 6.02328
722.60 6.163156
722.70 6.272918
722.80 6.410119
722.90 6.470559
723.00 6.41248
723.10 6.246358
723.20 6.014914
723.30 5.883959
723.40 5.961561
723.50 6.222615
723.60 6.515592
723.70 6.698683
723.80 6.796744
723.90 6.872427
724.00 6.890508
724.10 6.871947
724.20 6.871375
724.30 6.898468
724.40 7.011275
724.50 7.210272
724.60 7.427993
724.70 7.496883
724.80 7.513835
724.90 7.736253
725.00 7.992466
725.10 8.161434
725.20 8.156712
725.30 8.035445
725.40 8.003045
725.50 8.113502
725.60 8.313619
725.70 8.493989
725.80 8.550459
725.90 8.513721
726.00 8.46921
726.10 8.509405
726.20 8.675891
726.30 8.934413
726.40 9.206055
726.50 9.32139
726.60 9.319488
726.70 9.347537
726.80 9.4197
726.90 9.492077
727.00 9.425084
727.10 9.101772
727.20 8.632572
727.30 8.34718
727.40 8.487642
727.50 8.933386
727.60 9.309579
727.70 9.47647
727.80 9.441963
727.90 9.24857
728.00 9.041537
728.10 8.972267
728.20 9.111702
728.30 9.354802
728.40 9.563807
728.50 9.693261
728.60 9.808418
728.70 9.994648
728.80 10.15206
728.90 10.23183
729.00 10.3547
729.10 10.47174
729.20 10.52996
729.30 10.55071
729.40 10.5791
729.50 10.6755
729.60 10.8507
729.70 11.06607
729.80 11.22712
729.90 11.29957
730.00 11.24762
730.10 11.17744
730.20 11.3618
730.30 11.69981
730.40 11.89751
730.50 11.92878
730.60 11.95731
730.70 12.05385
730.80 12.17167
730.90 12.30546
731.00 12.43654
731.10 12.50123
731.20 12.47168
731.30 12.50281
731.40 12.71321
731.50 12.98463
731.60 13.13556
731.70 13.17179
731.80 13.25806
731.90 13.38687
732.00 13.40923
732.10 13.38315
732.20 13.466
732.30 13.64545
732.40 13.76331
732.50 13.68711
732.60 13.48017
732.70 13.25865
732.80 13.10663
732.90 13.2647
733.00 13.72102
733.10 14.1351
733.20 14.27799
733.30 14.18757
733.40 14.17329
733.50 14.3662
733.60 14.63229
733.70 14.88081
733.80 15.09533
733.90 15.32477
734.00 15.55085
734.10 15.60449
734.20 15.53546
734.30 15.45603
734.40 15.11227
734.50 14.47965
734.60 14.08475
734.70 14.17367
734.80 14.47135
734.90 14.77275
735.00 15.03279
735.10 15.24139
735.20 15.37085
735.30 15.39984
735.40 15.39237
735.50 15.30877
735.60 15.08479
735.70 14.84606
735.80 14.74696
735.90 14.95566
736.00 15.35615
736.10 15.65618
736.20 15.7778
736.30 15.75282
736.40 15.78798
736.50 15.98218
736.60 16.2017
736.70 16.40099
736.80 16.5343
736.90 16.5933
737.00 16.73479
737.10 16.91927
737.20 16.96418
737.30 16.83825
737.40 16.60518
737.50 16.40797
737.60 16.3552
737.70 16.35995
737.80 16.45825
737.90 16.66759
738.00 16.88791
738.10 17.0541
738.20 17.07275
738.30 16.96928
738.40 16.89439
738.50 16.95309
738.60 17.133
738.70 17.29266
738.80 17.3883
738.90 17.52218
739.00 17.70783
739.10 17.83739
739.20 17.76215
739.30 17.44975
739.40 17.05846
739.50 16.78133
739.60 16.72427
739.70 16.84481
739.80 17.03692
739.90 17.24519
740.00 17.3776
740.10 17.44928
740.20 17.57446
740.30 17.69975
740.40 17.74534
740.50 17.58802
740.60 17.17112
740.70 16.74614
740.80 16.58349
740.90 16.76126
741.00 17.14651
741.10 17.54599
741.20 17.78953
741.30 17.84493
741.40 17.85627
741.50 17.92449
741.60 17.97255
741.70 17.83371
741.80 17.47369
741.90 17.0431
742.00 16.81978
742.10 16.87737
742.20 17.08369
742.30 17.34595
742.40 17.54961
742.50 17.67534
742.60 17.80254
742.70 17.90875
742.80 17.99089
742.90 18.09015
743.00 18.12944
743.10 18.14832
743.20 18.2147
743.30 18.21244
743.40 18.07459
743.50 17.80045
743.60 17.4174
743.70 17.20506
743.80 17.36378
743.90 17.79548
744.00 18.26112
744.10 18.42704
744.20 18.26522
744.30 17.92929
744.40 17.62516
744.50 17.49738
744.60 17.4835
744.70 17.47777
744.80 17.44742
744.90 17.39871
745.00 17.36246
745.10 17.46636
745.20 17.68669
745.30 17.8847
745.40 17.98051
745.50 17.8857
745.60 17.70418
745.70 17.61995
745.80 17.66764
745.90 17.76759
746.00 17.83194
746.10 17.87339
746.20 17.92868
746.30 17.98454
746.40 18.06473
746.50 18.15267
746.60 18.21485
746.70 18.23305
746.80 18.17716
746.90 18.18246
747.00 18.42505
747.10 18.81218
747.20 19.06797
747.30 18.89237
747.40 18.36269
747.50 17.93889
747.60 17.83076
747.70 18.09887
747.80 18.51675
747.90 18.6857
748.00 18.61986
748.10 18.48717
748.20 18.36923
748.30 18.48025
748.40 18.80907
748.50 19.00646
748.60 19.01145
748.70 18.84812
748.80 18.5896
748.90 18.47536
749.00 18.57744
749.10 18.78022
749.20 18.9164
749.30 18.86951
749.40 18.62564
749.50 18.31291
749.60 18.15739
749.70 18.26289
749.80 18.59655
749.90 19.07757
750.00 19.54743
750.10 19.83867
750.20 19.91991
750.30 19.86421
750.40 19.80388
750.50 19.77857
750.60 19.65629
750.70 19.35169
750.80 19.07834
750.90 19.1864
751.00 19.70136
751.10 20.24412
751.20 20.43568
751.30 20.21537
751.40 19.84747
751.50 19.7133
751.60 19.89145
751.70 20.1967
751.80 20.33987
751.90 20.18069
752.00 19.87848
752.10 19.62849
752.20 19.66883
752.30 19.95502
752.40 20.20689
752.50 20.28795
752.60 20.0297
752.70 19.46482
752.80 18.95929
752.90 18.77738
753.00 19.02944
753.10 19.61193
753.20 20.20112
753.30 20.59406
753.40 20.63834
753.50 20.34971
753.60 20.07443
753.70 20.10837
753.80 20.47978
753.90 20.9945
754.00 21.44273
754.10 21.72744
754.20 21.79368
754.30 21.69877
754.40 21.64297
754.50 21.69108
754.60 21.76491
754.70 21.75083
754.80 21.54307
754.90 21.32185
755.00 21.31486
755.10 21.49906
755.20 21.69708
755.30 21.73208
755.40 21.6166
755.50 21.47807
755.60 21.41196
755.70 21.47469
755.80 21.62166
755.90 21.78222
756.00 21.94045
756.10 22.05965
756.20 22.06041
756.30 21.89694
756.40 21.65754
756.50 21.43513
756.60 21.16424
756.70 20.82192
756.80 20.4748
756.90 20.23059
757.00 20.30948
757.10 20.76669
757.20 21.40801
757.30 22.0379
757.40 22.4499
757.50 22.57664
757.60 22.4278
757.70 22.08614
757.80 21.74665
757.90 21.56114
758.00 21.60779
758.10 21.96823
758.20 22.53782
758.30 23.0857
758.40 23.41938
758.50 23.42584
758.60 23.20859
758.70 22.74534
758.80 21.73551
758.90 19.99961
759.00 17.60447
759.10 15.18932
759.20 13.57249
759.30 13.07014
759.40 13.4874
759.50 14.21024
759.60 14.72466
759.70 14.85362
759.80 14.85353
759.90 15.03431
760.00 15.3469
760.10 15.57867
760.20 15.44965
760.30 15.04255
760.40 14.88993
760.50 15.06022
760.60 15.31869
760.70 15.53329
760.80 15.5633
760.90 15.44451
761.00 15.32784
761.10 15.42232
761.20 15.85999
761.30 16.65023
761.40 17.41719
761.50 17.71593
761.60 17.64252
761.70 17.52654
761.80 17.72027
761.90 18.22625
762.00 18.65681
762.10 18.71162
762.20 18.45538
762.30 18.12366
762.40 17.88067
762.50 17.83071
762.60 17.6189
762.70 16.83401
762.80 15.47583
762.90 13.82073
763.00 12.43833
763.10 11.60612
763.20 11.30257
763.30 11.49425
763.40 12.01193
763.50 12.46142
763.60 12.52246
763.70 12.36767
763.80 12.29153
763.90 12.43791
764.00 12.52738
764.10 12.2989
764.20 12.16263
764.30 12.3928
764.40 12.61364
764.50 12.56423
764.60 12.33029
764.70 12.19586
764.80 12.41119
764.90 12.56835
765.00 12.34438
765.10 12.01456
765.20 11.76842
765.30 11.72535
765.40 11.71966
765.50 11.3863
765.60 10.93126
765.70 10.65545
765.80 10.55073
765.90 10.40462
766.00 9.829114
766.10 8.83647
766.20 7.692474
766.30 6.573901
766.40 5.54635
766.50 4.54391
766.60 3.738687
766.70 3.442802
766.80 3.712409
766.90 4.45589
767.00 5.328667
767.10 5.948301
767.20 6.285382
767.30 6.426272
767.40 6.548641
767.50 6.805037
767.60 7.17826
767.70 7.585312
767.80 7.910658
767.90 8.118597
768.00 8.297273
768.10 8.536397
768.20 8.797709
768.30 8.972837
768.40 9.073132
768.50 9.115434
768.60 9.124434
768.70 9.183721
768.80 9.301396
768.90 9.409935
769.00 9.408925
769.10 9.32448
769.20 9.263816
769.30 9.147171
769.40 8.891746
769.50 8.50144
769.60 7.953337
769.70 7.176382
769.80 6.143291
769.90 5.041154
770.00 4.219906
770.10 3.986366
770.20 4.418372
770.30 5.304297
770.40 6.2766
770.50 7.076659
770.60 7.595658
770.70 7.867517
770.80 8.047588
770.90 8.27229
771.00 8.633216
771.10 9.062416
771.20 9.457607
771.30 9.794747
771.40 10.01166
771.50 10.10998
771.60 10.12648
771.70 10.05889
771.80 10.05922
771.90 10.23815
772.00 10.40482
772.10 10.55422
772.20 10.79728
772.30 11.03549
772.40 11.16912
772.50 11.26499
772.60 11.44364
772.70 11.71008
772.80 12.02533
772.90 12.30437
773.00 12.49915
773.10 12.59215
773.20 12.60168
773.30 12.61427
773.40 12.7008
773.50 12.87875
773.60 13.05054
773.70 13.14893
773.80 13.22042
773.90 13.36378
774.00 13.60551
774.10 13.76656
774.20 13.66506
774.30 13.27674
774.40 12.71759
774.50 12.16578
774.60 11.69988
774.70 11.38353
774.80 11.20874
774.90 11.01292
775.00 10.74419
775.10 10.38895
775.20 9.952427
775.30 9.699863
775.40 9.806439
775.50 10.06721
775.60 10.30696
775.70 10.50223
775.80 10.51614
775.90 10.42096
776.00 10.45901
776.10 10.61669
776.20 10.76798
776.30 10.77948
776.40 10.66336
776.50 10.57432
776.60 10.61634
776.70 10.85531
776.80 11.24558
776.90 11.59682
777.00 11.77874
777.10 11.84247
777.20 11.89246
777.30 11.99291
777.40 12.13716
777.50 12.24947
777.60 12.31391
777.70 12.35266
777.80 12.39283
777.90 12.43519
778.00 12.42686
778.10 12.33523
778.20 12.1305
778.30 11.78582
778.40 11.3848
778.50 11.00282
778.60 10.73741
778.70 10.72168
778.80 10.89313
778.90 11.10263
779.00 11.29932
779.10 11.4765
779.20 11.66467
779.30 11.89799
779.40 12.07589
779.50 12.18906
779.60 12.32467
779.70 12.39335
779.80 12.28665
779.90 12.00567
780.00 11.6567
780.10 11.3211
780.20 11.19494
780.30 11.49577
780.40 12.19042
780.50 13.04907
780.60 13.78988
780.70 14.21294
780.80 14.37316
780.90 14.46114
781.00 14.41722
781.10 14.23745
781.20 14.10983
781.30 14.17
781.40 14.40044
781.50 14.6654
781.60 14.89397
781.70 15.06215
781.80 15.17668
781.90 15.18196
782.00 15.01479
782.10 14.66906
782.20 14.15829
782.30 13.67099
782.40 13.41749
782.50 13.37218
782.60 13.46415
782.70 13.47856
782.80 13.21755
782.90 12.77687
783.00 12.20236
783.10 11.69086
783.20 11.55656
783.30 11.76161
783.40 12.13079
783.50 12.52025
783.60 12.79265
783.70 12.93052
783.80 12.97514
783.90 12.97203
784.00 13.01779
784.10 13.0868
784.20 13.09
784.30 13.11309
784.40 13.24762
784.50 13.49662
784.60 13.85142
784.70 14.16635
784.80 14.31176
784.90 14.25922
785.00 14.14932
785.10 14.13839
785.20 14.12314
785.30 14.17686
785.40 14.30311
785.50 14.29384
785.60 14.24845
785.70 14.25991
785.80 14.34485
785.90 14.56965
786.00 14.72294
786.10 14.60116
786.20 14.25352
786.30 13.89173
786.40 13.73083
786.50 13.74157
786.60 13.84015
786.70 13.97908
786.80 14.09491
786.90 14.19917
787.00 14.22844
787.10 14.17334
787.20 14.10711
787.30 13.97414
787.40 13.87355
787.50 13.93547
787.60 14.17474
787.70 14.60582
787.80 15.03071
787.90 15.24305
788.00 15.30879
788.10 15.35142
788.20 15.50332
788.30 15.751
788.40 15.93203
788.50 16.05101
788.60 16.08699
788.70 16.02817
788.80 16.03739
788.90 16.18243
789.00 16.42088
789.10 16.6129
789.20 16.64819
789.30 16.5964
789.40 16.57158
789.50 16.63722
789.60 16.6577
789.70 16.53629
789.80 16.30812
789.90 15.97586
790.00 15.61914
790.10 15.3289
790.20 15.20474
790.30 15.33011
790.40 15.64852
790.50 16.00157
790.60 16.23406
790.70 16.16445
790.80 15.73318
790.90 15.08587
791.00 14.43446
791.10 14.04769
791.20 13.99512
791.30 14.12615
791.40 14.40295
791.50 14.7549
791.60 15.00182
791.70 15.08372
791.80 15.02551
791.90 14.86924
792.00 14.69649
792.10 14.65728
792.20 14.77247
792.30 14.95852
792.40 15.20253
792.50 15.3768
792.60 15.40447
792.70 15.382
792.80 15.38668
792.90 15.49895
793.00 15.73432
793.10 16.02215
793.20 16.33861
793.30 16.67288
793.40 16.96871
793.50 17.20359
793.60 17.31148
793.70 17.25461
793.80 17.1236
793.90 16.94168
794.00 16.62891
794.10 16.17585
794.20 15.73739
794.30 15.54508
794.40 15.7102
794.50 16.07505
794.60 16.29204
794.70 16.04274
794.80 15.36891
794.90 14.75804
795.00 14.6316
795.10 15.07665
795.20 15.87554
795.30 16.69822
795.40 17.30463
795.50 17.62036
795.60 17.75016
795.70 17.80443
795.80 17.86349
795.90 17.93429
796.00 17.81754
796.10 17.44595
796.20 17.04528
796.30 16.84836
796.40 17.0093
796.50 17.45577
796.60 17.85111
796.70 18.04022
796.80 18.12521
796.90 18.21078
797.00 18.41389
797.10 18.67612
797.20 18.85733
797.30 18.94365
797.40 18.91844
797.50 18.74497
797.60 18.47669
797.70 18.25779
797.80 18.18515
797.90 18.22995
798.00 18.27616
798.10 18.24664
798.20 18.10444
798.30 17.8911
798.40 17.73568
798.50 17.67278
798.60 17.62841
798.70 17.5483
798.80 17.4065
798.90 17.23591
799.00 17.19667
799.10 17.42123
799.20 17.78938
799.30 18.15302
799.40 18.48745
799.50 18.58699
799.60 18.37585
799.70 18.09888
799.80 17.88896
799.90 17.8894
800.00 18.14386
800.10 18.41319
800.20 18.60365
800.30 18.78829
800.40 18.93595
800.50 19.00573
800.60 19.0535
800.70 19.14717
800.80 19.28097
800.90 19.39563
801.00 19.49474
801.10 19.60328
801.20 19.7239
801.30 19.88454
801.40 20.07576
801.50 20.25406
801.60 20.3757
801.70 20.44604
801.80 20.4897
801.90 20.54984
802.00 20.66479
802.10 20.6943
802.20 20.55636
802.30 20.37509
802.40 20.32422
802.50 20.47945
802.60 20.69956
802.70 20.89975
802.80 21.15672
802.90 21.39251
803.00 21.50692
803.10 21.5845
803.20 21.69328
803.30 21.82419
803.40 21.91649
803.50 21.95049
803.60 21.95388
803.70 21.89965
803.80 21.81546
803.90 21.76121
804.00 21.77424
804.10 21.84988
804.20 21.95512
804.30 22.1283
804.40 22.34176
804.50 22.53236
804.60 22.66079
804.70 22.58259
804.80 22.36906
804.90 22.2958
805.00 22.46491
805.10 22.84967
805.20 23.39471
805.30 23.94182
805.40 24.30069
805.50 24.47014
805.60 24.51901
805.70 24.47535
805.80 24.42385
805.90 24.41804
806.00 24.47994
806.10 24.62167
806.20 24.81634
806.30 24.96875
806.40 24.90961
806.50 24.64756
806.60 24.44074
806.70 24.39927
806.80 24.44125
806.90 24.4661
807.00 24.3933
807.10 24.2675
807.20 24.24373
807.30 24.42495
807.40 24.77871
807.50 25.16636
807.60 25.40101
807.70 25.44128
807.80 25.45807
807.90 25.56647
808.00 25.70122
808.10 25.7627
808.20 25.79967
808.30 25.93086
808.40 26.12954
808.50 26.31898
808.60 26.48951
808.70 26.58434
808.80 26.54366
808.90 26.45221
809.00 26.39671
809.10 26.4425
809.20 26.65136
809.30 26.88357
809.40 26.95986
809.50 26.86972
809.60 26.70357
809.70 26.55866
809.80 26.52011
809.90 26.57308
810.00 26.6083
810.10 26.62212
810.20 26.64409
810.30 26.62274
810.40 26.55472
810.50 26.47743
810.60 26.44049
810.70 26.52005
810.80 26.77536
810.90 27.17
811.00 27.50573
811.10 27.63042
811.20 27.6258
811.30 27.64735
811.40 27.76709
811.50 27.86967
811.60 27.69915
811.70 27.23365
811.80 26.77067
811.90 26.65768
812.00 27.01492
812.10 27.63174
812.20 28.20058
812.30 28.48165
812.40 28.4831
812.50 28.44461
812.60 28.5204
812.70 28.72217
812.80 28.93696
812.90 29.03846
813.00 29.01842
813.10 28.93644
813.20 28.87365
813.30 28.85497
813.40 28.87502
813.50 28.94798
813.60 29.04978
813.70 29.18335
813.80 29.38841
813.90 29.62045
814.00 29.77292
814.10 29.77544
814.20 29.56506
814.30 29.19451
814.40 28.84758
814.50 28.65912
814.60 28.62623
814.70 28.66952
814.80 28.76242
814.90 28.79949
815.00 28.69789
815.10 28.68652
815.20 28.88563
815.30 29.06908
815.40 29.09897
815.50 29.02637
815.60 28.9061
815.70 28.81684
815.80 28.78979
815.90 28.74955
816.00 28.65257
816.10 28.47324
816.20 28.24178
816.30 28.11947
816.40 28.2362
816.50 28.55341
816.60 28.9756
816.70 29.40637
816.80 29.69791
816.90 29.76406
817.00 29.62002
817.10 29.39523
817.20 29.25446
817.30 29.18939
817.40 29.19862
817.50 29.24184
817.60 29.08554
817.70 28.64479
817.80 28.08759
817.90 27.5241
818.00 26.91741
818.10 25.88536
818.20 23.96113
818.30 21.1742
818.40 18.28673
818.50 16.58836
818.60 16.83502
818.70 18.80534
818.80 21.46689
818.90 23.55536
819.00 24.64239
819.10 24.9087
819.20 24.39993
819.30 23.01189
819.40 20.71878
819.50 17.84941
819.60 15.47051
819.70 14.61293
819.80 15.45246
819.90 17.49628
820.00 19.81631
820.10 21.71582
820.20 23.17739
820.30 24.36048
820.40 25.23432
820.50 25.7268
820.60 25.73884
820.70 25.3809
820.80 25.04054
820.90 24.96728
821.00 25.27507
821.10 25.84201
821.20 26.36574
821.30 26.65869
821.40 26.68506
821.50 26.58214
821.60 26.53644
821.70 26.57629
821.80 26.62349
821.90 26.65526
822.00 26.71967
822.10 26.89053
822.20 27.14704
822.30 27.33098
822.40 27.46718
822.50 27.71969
822.60 27.99699
822.70 28.16879
822.80 28.26112
822.90 28.30012
823.00 28.46895
823.10 28.85137
823.20 29.11947
823.30 29.05145
823.40 28.65764
823.50 28.15869
823.60 27.98165
823.70 28.20184
823.80 28.64785
823.90 29.18651
824.00 29.65667
824.10 29.96131
824.20 30.03209
824.30 29.88565
824.40 29.603
824.50 29.3543
824.60 29.38302
824.70 29.73932
824.80 30.28431
824.90 30.77526
825.00 30.98344
825.10 30.72163
825.20 30.04964
825.30 29.34108
825.40 28.80633
825.50 28.40885
825.60 28.04448
825.70 27.63245
825.80 27.28977
825.90 27.30641
826.00 27.84799
826.10 28.68152
826.20 29.35403
826.30 29.68073
826.40 29.80607
826.50 29.88782
826.60 30.05863
826.70 30.25515
826.80 30.2485
826.90 30.06305
827.00 29.7745
827.10 29.32079
827.20 28.65903
827.30 27.89857
827.40 27.31212
827.50 27.10322
827.60 27.23889
827.70 27.50242
827.80 27.76582
827.90 28.00458
828.00 28.11365
828.10 28.06767
828.20 27.91682
828.30 27.67939
828.40 27.39852
828.50 27.27236
828.60 27.42206
828.70 27.56703
828.80 27.43313
828.90 26.95784
829.00 26.17208
829.10 25.45094
829.20 25.19488
829.30 25.39323
829.40 25.81705
829.50 26.1591
829.60 26.27172
829.70 26.32338
829.80 26.45707
829.90 26.61116
830.00 26.22845
830.10 25.94035
830.20 25.65224
830.30 25.27992
830.40 24.9076
830.50 24.54096
830.60 24.17432
830.70 24.45029
830.80 24.72627
830.90 25.28576
831.00 25.84524
831.10 26.09265
831.20 26.34005
831.30 26.19945
831.40 26.05885
831.50 26.1048
831.60 26.15075
831.70 26.27063
831.80 26.3905
831.90 26.76217
832.00 27.13383
832.10 27.03878
832.20 26.94373
832.30 27.10448
832.40 27.26523
832.50 27.2685
832.60 27.27177
832.70 26.66566
832.80 26.05955
832.90 25.82812
833.00 25.59668
833.10 26.22195
833.20 26.84722
833.30 27.32247
833.40 27.79772
833.50 27.09503
833.60 26.39233
833.70 26.00999
833.80 25.62765
833.90 26.03188
834.00 26.43612
834.10 26.83981
834.20 27.2435
834.30 27.40167
834.40 27.55983
834.50 27.19887
834.60 26.8379
834.70 26.39052
834.80 25.94314
834.90 25.90942
835.00 25.8757
835.10 26.10288
835.20 26.33006
835.30 26.37971
835.40 26.42935
835.50 26.40398
835.60 26.3786
835.70 26.60596
835.80 26.83331
835.90 26.97636
836.00 27.11941
836.10 27.21223
836.20 27.30504
836.30 27.01739
836.40 26.72974
836.50 26.47888
836.60 26.22801
836.70 26.53404
836.80 26.84007
836.90 27.39197
837.00 27.94388
837.10 28.09083
837.20 28.23778
837.30 27.77525
837.40 27.31273
837.50 26.40369
837.60 25.49465
837.70 25.17387
837.80 24.8531
837.90 25.01575
838.00 25.17841
838.10 25.5085
838.20 25.8386
838.30 25.60312
838.40 25.36763
838.50 25.09278
838.60 24.81793
838.70 24.42673
838.80 24.03552
838.90 23.41131
839.00 22.78709
839.10 23.37334
839.20 23.95959
839.30 24.56544
839.40 25.17129
839.50 25.10571
839.60 25.04013
839.70 24.96502
839.80 24.8899
839.90 25.38351
840.00 25.87713
840.10 25.6016
840.20 25.69004
840.30 26.155
840.40 26.6235
840.50 26.92987
840.60 27.23596
840.70 27.54157
840.80 27.82235
840.90 27.96154
841.00 27.85742
841.10 27.80159
841.20 27.37226
841.30 26.86623
841.40 26.69356
841.50 26.53084
841.60 26.66408
841.70 27.46941
841.80 28.35869
841.90 28.31279
842.00 28.10914
842.10 27.14763
842.20 26.03393
842.30 25.5192
842.40 25.78344
842.50 25.97122
842.60 25.68613
842.70 25.46295
842.80 24.89969
842.90 24.27571
843.00 24.2327
843.10 24.88696
843.20 25.39066
843.30 24.75974
843.40 24.17927
843.50 22.26024
843.60 20.05938
843.70 18.70432
843.80 18.29201
843.90 18.11993
844.00 19.74128
844.10 21.36367
844.20 21.59789
844.30 21.48988
844.40 20.59309
844.50 18.93882
844.60 17.5419
844.70 17.34623
844.80 17.20084
844.90 17.97761
845.00 18.83065
845.10 19.00713
845.20 18.54403
845.30 17.83875
845.40 16.41527
845.50 15.09344
845.60 14.83924
845.70 14.64528
845.80 14.67475
845.90 14.92413
846.00 15.16869
846.10 15.35478
846.20 15.53078
846.30 15.9941
846.40 16.484
846.50 16.30852
846.60 15.623
846.70 14.99386
846.80 14.74105
846.90 14.65079
847.00 14.92964
847.10 14.96721
847.20 14.76999
847.30 14.62682
847.40 14.69657
847.50 15.13266
847.60 15.54014
847.70 16.03278
847.80 16.46903
847.90 16.45895
848.00 16.31281
848.10 16.25481
848.20 16.3518
848.30 16.44607
848.40 16.62341
848.50 16.78232
848.60 17.07689
848.70 17.43424
848.80 17.616
848.90 17.45982
849.00 17.30998
849.10 17.65577
849.20 18.04108
849.30 18.29574
849.40 18.48285
849.50 18.39079
849.60 18.02849
849.70 17.70733
849.80 17.32243
849.90 16.87541
850.00 17.07191
850.10 17.51453
850.20 17.91218
850.30 18.03938
850.40 18.00973
850.50 17.7011
850.60 17.55275
850.70 17.11255
850.80 16.50672
850.90 16.23983
851.00 16.3898
851.10 16.64764
851.20 17.20245
851.30 17.74486
851.40 17.59196
851.50 17.29313
851.60 16.91812
851.70 16.49702
851.80 16.05065
851.90 15.65152
852.00 15.34002
852.10 15.41132
852.20 15.46293
852.30 15.49897
852.40 15.54538
852.50 15.7681
852.60 16.37268
852.70 16.9266
852.80 17.40762
852.90 17.85526
853.00 18.05271
853.10 18.15095
853.20 18.2974
853.30 18.52692
853.40 18.76984
853.50 18.90346
853.60 18.95648
853.70 18.84952
853.80 18.75327
853.90 18.80803
854.00 19.06422
854.10 19.25727
854.20 18.91077
854.30 18.56603
854.40 18.38567
854.50 18.32968
854.60 18.53201
854.70 19.08954
854.80 19.56641
854.90 19.77008
855.00 20.04278
855.10 20.42491
855.20 20.80997
855.30 21.12199
855.40 21.37201
855.50 21.62392
855.60 21.62292
855.70 21.53088
855.80 21.36239
855.90 21.30905
856.00 20.97134
856.10 20.21658
856.20 19.52878
856.30 19.52968
856.40 19.5437
856.50 19.93944
856.60 20.42275
856.70 20.89525
856.80 21.32257
856.90 21.64459
857.00 21.5634
857.10 21.45297
857.20 21.00842
857.30 20.57075
857.40 20.40093
857.50 20.44867
857.60 20.57199
857.70 20.82727
857.80 21.02916
857.90 21.56684
858.00 22.1176
858.10 22.04961
858.20 21.62233
858.30 21.3388
858.40 21.39077
858.50 21.3789
858.60 21.32552
858.70 21.36399
858.80 21.60615
858.90 21.96926
859.00 22.21125
859.10 22.19813
859.20 22.15461
859.30 22.06375
859.40 21.98414
859.50 22.12921
859.60 22.36915
859.70 22.59454
859.80 22.71334
859.90 22.79215
860.00 22.81626
860.10 22.89694
860.20 23.16869
860.30 23.56005
860.40 23.80394
860.50 23.635
860.60 23.33037
860.70 23.38586
860.80 23.62068
860.90 23.79948
861.00 23.96649
861.10 23.7918
861.20 23.12271
861.30 22.47905
861.40 22.02547
861.50 21.58712
861.60 21.55182
861.70 21.62633
861.80 21.51182
861.90 21.11063
862.00 20.77107
862.10 21.00646
862.20 21.28603
862.30 21.67114
862.40 22.06705
862.50 21.92921
862.60 21.37461
862.70 21.00542
862.80 21.47785
862.90 21.98288
863.00 21.90811
863.10 21.69604
863.20 21.503
863.30 21.31994
863.40 21.31942
863.50 21.78747
863.60 22.20401
863.70 22.00269
863.80 21.82295
863.90 21.87158
864.00 22.04823
864.10 22.25498
864.20 22.58504
864.30 22.85812
864.40 23.13804
864.50 23.46717
864.60 23.26992
864.70 22.81763
864.80 22.45964
864.90 22.49972
865.00 22.64198
865.10 23.00671
865.20 23.21099
865.30 23.27687
865.40 23.36437
865.50 23.54564
865.60 23.80947
865.70 24.0604
865.80 24.03749
865.90 24.02143
866.00 23.79915
866.10 23.526
866.20 23.07571
866.30 22.38907
866.40 21.79325
866.50 22.1464
866.60 22.44357
866.70 23.14145
866.80 24.0007
866.90 24.43628
867.00 24.428
867.10 24.40706
867.20 24.0325
867.30 23.53017
867.40 23.74874
867.50 24.13468
867.60 24.3253
867.70 24.33797
867.80 24.45602
867.90 24.95779
868.00 25.3686
868.10 25.27905
868.20 25.06082
868.30 24.59523
868.40 24.12932
868.50 23.97011
868.60 24.35828
868.70 24.56959
868.80 23.93694
868.90 23.39021
869.00 22.77683
869.10 22.11579
869.20 21.42915
869.30 20.83438
869.40 20.25322
869.50 19.63032
869.60 19.1061
869.70 19.21478
869.80 19.46598
869.90 19.67005
870.00 19.91149
870.10 20.23206
870.20 20.59388
870.30 20.90128
870.40 21.2774
870.50 21.65685
870.60 22.08051
870.70 22.56391
870.80 23.0036
870.90 22.59703
871.00 22.16992
871.10 21.46566
871.20 20.71787
871.30 20.3501
871.40 20.35062
871.50 20.28079
871.60 20.44025
871.70 20.71604
871.80 20.59346
871.90 20.37631
872.00 20.43389
872.10 20.75
872.20 21.01978
872.30 21.10921
872.40 21.1752
872.50 21.19186
872.60 21.2561
872.70 21.75242
872.80 22.48455
872.90 23.18454
873.00 23.88704
873.10 24.63756
873.20 24.3068
873.30 23.90587
873.40 23.50363
873.50 23.12331
873.60 22.83693
873.70 22.723
873.80 22.5313
873.90 22.45806
874.00 22.50612
874.10 23.02598
874.20 23.72764
874.30 24.30482
874.40 24.60531
874.50 24.92511
874.60 25.47576
874.70 26.01159
874.80 25.51975
874.90 24.69859
875.00 23.92526
875.10 23.26291
875.20 22.71038
875.30 23.60032
875.40 24.4337
875.50 24.98592
875.60 25.39453
875.70 25.43476
875.80 25.17175
875.90 25.12201
876.00 25.70469
876.10 26.15683
876.20 26.54056
876.30 26.95865
876.40 26.74874
876.50 25.93436
876.60 25.23083
876.70 24.92133
876.80 24.63327
876.90 24.66173
877.00 24.68848
877.10 25.43416
877.20 26.72524
877.30 27.85377
877.40 28.4196
877.50 29.0513
877.60 29.80219
877.70 30.46045
877.80 30.09317
877.90 29.27071
878.00 28.41553
878.10 27.31751
878.20 26.18544
878.30 26.63106
878.40 27.08448
878.50 27.42798
878.60 27.6794
878.70 27.87637
878.80 28.01428
878.90 28.15099
879.00 28.44246
879.10 28.64
879.20 29.041
879.30 29.51047
879.40 29.57962
879.50 29.01098
879.60 28.56232
879.70 29.06107
879.80 29.47497
879.90 29.67793
880.00 29.84139
880.10 29.16874
880.20 27.61131
880.30 26.17696
880.40 25.49055
880.50 24.7919
880.60 25.13939
880.70 25.54809
880.80 25.82471
880.90 26.04405
881.00 26.25124
881.10 26.50737
881.20 26.87349
881.30 28.25289
881.40 29.77144
881.50 30.92729
881.60 31.83685
881.70 32.50527
881.80 32.30015
881.90 32.08015
882.00 32.22786
882.10 32.37829
882.20 31.51704
882.30 30.11357
882.40 28.76131
882.50 27.49711
882.60 26.20736
882.70 26.19246
882.80 26.21768
882.90 26.83183
883.00 27.68389
883.10 28.58809
883.20 29.60935
883.30 30.57498
883.40 31.06415
883.50 31.59591
883.60 31.70986
883.70 31.63562
883.80 31.63213
883.90 31.71097
884.00 31.8659
884.10 32.03456
884.20 32.05785
884.30 32.02244
884.40 32.00571
884.50 31.59929
884.60 30.75586
884.70 29.88534
884.80 29.00609
884.90 28.09668
885.00 27.65865
885.10 27.37848
885.20 28.1827
885.30 29.69215
885.40 31.11117
885.50 32.39217
885.60 33.61902
885.70 33.06984
885.80 32.46345
885.90 30.98606
886.00 28.86668
886.10 26.8581
886.20 25.08543
886.30 23.32231
886.40 23.36999
886.50 23.39265
886.60 24.42535
886.70 25.84051
886.80 26.69384
886.90 26.35843
887.00 26.03356
887.10 24.55103
887.20 23.20665
887.30 21.96948
887.40 20.56335
887.50 19.90416
887.60 20.52312
887.70 21.18779
887.80 22.3645
887.90 23.47945
888.00 24.4048
888.10 25.26368
888.20 25.70532
888.30 25.71702
888.40 25.60572
888.50 24.464
888.60 23.39989
888.70 23.26254
888.80 23.30966
888.90 23.79724
889.00 24.69995
889.10 25.58012
889.20 25.86465
889.30 26.05835
889.40 25.96329
889.50 25.84169
889.60 25.23822
889.70 24.34347
889.80 23.70231
889.90 23.56941
890.00 23.37764
890.10 24.54917
890.20 25.682
890.30 26.37373
890.40 26.87145
890.50 27.48735
890.60 28.26766
890.70 28.9788
890.80 28.9512
890.90 28.9017
891.00 28.43412
891.10 27.80349
891.20 27.28827
891.30 26.80428
891.40 26.29335
891.50 26.92677
891.60 27.43356
891.70 27.7094
891.80 28.08803
891.90 28.41405
892.00 28.52086
892.10 28.55153
892.20 28.53016
892.30 28.57644
892.40 28.11693
892.50 27.59515
892.60 27.29936
892.70 27.20384
892.80 27.19129
892.90 27.50283
893.00 27.72253
893.10 28.21457
893.20 28.66723
893.30 29.29876
893.40 30.08712
893.50 30.73997
893.60 31.00443
893.70 31.2897
893.80 30.18824
893.90 29.10392
894.00 27.9863
894.10 26.72097
894.20 25.9034
894.30 26.13607
894.40 26.31642
894.50 25.91054
894.60 25.57767
894.70 25.8102
894.80 26.13217
894.90 26.60474
895.00 27.398
895.10 28.17598
895.20 28.12844
895.30 28.13289
895.40 27.70048
895.50 27.0534
895.60 27.02622
895.70 27.82971
895.80 28.56855
895.90 28.73774
896.00 28.93289
896.10 28.83064
896.20 28.74926
896.30 28.68842
896.40 28.54986
896.50 28.36951
896.60 28.47561
896.70 28.67158
896.80 28.48801
896.90 28.29153
897.00 28.39701
897.10 28.57804
897.20 28.69008
897.30 28.82842
897.40 29.06804
897.50 29.36077
897.60 29.56694
897.70 30.02137
897.80 30.6691
897.90 30.98344
898.00 30.58802
898.10 30.36051
898.20 29.98998
898.30 29.54599
898.40 29.93043
898.50 30.58042
898.60 31.25605
898.70 31.85518
898.80 32.36226
898.90 32.45505
899.00 32.68213
899.10 32.40161
899.20 31.91726
899.30 31.58785
899.40 31.39342
899.50 31.19348
899.60 30.95324
899.70 30.60957
899.80 30.19675
899.90 29.8347
900.00 29.33323
900.10 28.6326
900.20 28.27635
900.30 29.85173
900.40 31.35167
900.50 32.31318
900.60 33.14602
900.70 33.66986
900.80 34.00542
900.90 34.03224
901.00 33.2355
901.10 32.60866
901.20 32.43296
901.30 32.13357
901.40 32.13753
901.50 32.48491
901.60 32.7676
901.70 32.76795
901.80 32.73459
901.90 32.05634
902.00 31.37542
902.10 30.61841
902.20 29.82949
902.30 29.19277
902.40 28.83416
902.50 28.51337
902.60 28.19543
902.70 27.81183
902.80 27.6328
902.90 27.5159
903.00 27.84181
903.10 28.7455
903.20 29.54356
903.30 29.8095
903.40 30.10765
903.50 30.87648
903.60 31.79987
903.70 32.42396
903.80 32.67593
903.90 32.93704
904.00 33.43858
904.10 33.88788
904.20 33.42763
904.30 32.9364
904.40 32.55816
904.50 32.27052
904.60 32.19273
904.70 32.82904
904.80 33.39363
904.90 33.76392
905.00 34.09196
905.10 33.9985
905.20 33.84898
905.30 33.56464
905.40 32.95836
905.50 32.32946
905.60 31.99767
905.70 31.72963
905.80 31.49421
905.90 31.21626
906.00 30.94242
906.10 30.67317
906.20 30.43244
906.30 30.96533
906.40 31.41732
906.50 31.56383
906.60 31.86783
906.70 32.03594
906.80 31.91136
906.90 31.68603
907.00 31.15131
907.10 30.67486
907.20 30.91402
907.30 31.19072
907.40 31.37391
907.50 31.56606
907.60 31.78837
907.70 32.00561
907.80 32.32568
907.90 33.02016
908.00 33.55232
908.10 33.97034
908.20 34.49486
908.30 34.71098
908.40 33.94341
908.50 33.24794
908.60 33.34221
908.70 33.31195
908.80 33.18423
908.90 33.10361
909.00 33.10628
909.10 33.15831
909.20 33.14039
909.30 33.47392
909.40 33.73081
909.50 33.92051
909.60 34.08715
909.70 34.27754
909.80 34.56659
909.90 34.92205
910.00 35.35701
910.10 35.66968
910.20 35.56138
910.30 35.40879
910.40 35.32943
910.50 35.34922
910.60 35.35119
910.70 34.99901
910.80 34.54307
910.90 34.43054
911.00 34.28915
911.10 34.3688
911.20 34.63232
911.30 34.93933
911.40 35.50533
911.50 36.03429
911.60 35.99233
911.70 36.04868
911.80 36.0576
911.90 35.91001
912.00 35.76343
912.10 35.70072
912.20 35.59226
912.30 35.56036
912.40 35.62877
912.50 35.59165
912.60 35.49218
912.70 35.55656
912.80 35.92588
912.90 36.26217
913.00 36.50569
913.10 36.81362
913.20 36.95731
913.30 36.93003
913.40 36.96684
913.50 37.20942
913.60 37.46771
913.70 37.17354
913.80 36.8457
913.90 36.20539
914.00 35.46998
914.10 34.68518
914.20 33.9209
914.30 33.46535
914.40 34.05085
914.50 34.5965
914.60 35.39434
914.70 36.15555
914.80 36.31252
914.90 36.16063
915.00 35.89708
915.10 35.35466
915.20 34.88927
915.30 35.19588
915.40 35.37071
915.50 36.13109
915.60 37.21263
915.70 38.23824
915.80 39.09225
915.90 39.83783
916.00 39.12089
916.10 38.50421
916.20 37.94917
916.30 37.51105
916.40 37.20692
916.50 36.91822
916.60 36.63739
916.70 37.29831
916.80 37.95897
916.90 38.11451
917.00 38.08994
917.10 38.06761
917.20 38.20801
917.30 38.3498
917.40 38.04945
917.50 37.75283
917.60 37.48764
917.70 37.14446
917.80 37.14387
917.90 37.45401
918.00 37.72129
918.10 37.76228
918.20 37.74776
918.30 37.76961
918.40 37.81967
918.50 37.51561
918.60 37.07017
918.70 36.81741
918.80 36.96612
918.90 37.24792
919.00 38.699
919.10 39.85946
919.20 39.93032
919.30 39.84604
919.40 39.37059
919.50 38.3952
919.60 37.62855
919.70 38.08296
919.80 38.36454
919.90 38.99376
920.00 39.6339
920.10 39.77695
920.20 39.48552
920.30 39.36552
920.40 39.82459
920.50 40.15881
920.60 39.84576
920.70 39.38366
920.80 38.55351
920.90 37.59573
921.00 36.73539
921.10 35.84321
921.20 34.81039
921.30 34.9082
921.40 35.23765
921.50 35.81995
921.60 36.57413
921.70 37.28496
921.80 38.00601
921.90 38.6809
922.00 38.08107
922.10 37.40633
922.20 37.13419
922.30 37.12188
922.40 36.97086
922.50 36.4853
922.60 36.00277
922.70 36.26379
922.80 36.44582
922.90 36.85795
923.00 37.43496
923.10 37.41844
923.20 36.62786
923.30 35.86842
923.40 35.14766
923.50 34.2419
923.60 34.14143
923.70 34.26842
923.80 34.36539
923.90 34.45757
924.00 34.51877
924.10 34.36529
924.20 34.23541
924.30 35.68787
924.40 37.25659
924.50 37.77334
924.60 37.56457
924.70 37.10188
924.80 35.99749
924.90 35.04012
925.00 34.59035
925.10 34.02916
925.20 33.74627
925.30 33.71728
925.40 33.775
925.50 33.95222
925.60 34.10925
925.70 35.34667
925.80 36.51276
925.90 37.27097
926.00 38.05649
926.10 38.38045
926.20 38.02853
926.30 37.63099
926.40 37.03973
926.50 36.46752
926.60 36.71164
926.70 36.97699
926.80 37.27895
926.90 37.79863
927.00 38.25568
927.10 38.17178
927.20 38.11086
927.30 37.78417
927.40 37.459
927.50 36.91434
927.60 36.16248
927.70 35.46468
927.80 35.10964
927.90 34.81525
928.00 34.40654
928.10 33.86015
928.20 33.92414
928.30 34.41465
928.40 34.91861
928.50 35.43484
928.60 35.91452
928.70 35.8153
928.80 35.87553
928.90 35.72046
929.00 35.33908
929.10 35.0024
929.20 34.81185
929.30 34.68137
929.40 34.8842
929.50 35.06411
929.60 35.32058
929.70 35.49462
929.80 35.36157
929.90 35.01574
930.00 34.59487
930.10 33.7436
930.20 33.10173
930.30 33.23043
930.40 33.25653
930.50 33.47533
930.60 33.94411
930.70 34.18929
930.80 33.71875
930.90 33.29346
931.00 33.29262
931.10 33.29526
931.20 33.97346
931.30 35.09203
931.40 36.0726
931.50 36.82673
931.60 37.53291
931.70 36.65604
931.80 35.70488
931.90 34.87699
932.00 34.83753
932.10 35.13146
932.20 35.49138
932.30 35.81623
932.40 36.12642
932.50 36.3274
932.60 36.07942
932.70 35.75328
932.80 35.51863
932.90 35.39574
933.00 35.29643
933.10 35.60439
933.20 36.05614
933.30 36.47925
933.40 36.36678
933.50 36.24574
933.60 36.22651
933.70 36.28755
933.80 36.32752
933.90 36.335
934.00 36.39723
934.10 36.54007
934.20 36.55461
934.30 36.54282
934.40 36.44971
934.50 36.38416
934.60 36.47431
934.70 36.57314
934.80 36.5165
934.90 36.41163
935.00 36.07958
935.10 35.77525
935.20 35.47805
935.30 35.4544
935.40 35.40717
935.50 35.43388
935.60 35.6233
935.70 35.80527
935.80 35.90366
935.90 35.80956
936.00 35.72299
936.10 36.17469
936.20 36.71235
936.30 37.15125
936.40 37.11725
936.50 37.12926
936.60 37.10173
936.70 36.92355
936.80 36.72298
936.90 36.5646
937.00 36.52387
937.10 36.48526
937.20 35.97463
937.30 35.45276
937.40 35.11846
937.50 35.36552
937.60 35.60717
937.70 35.75448
937.80 35.80073
937.90 35.83298
938.00 35.97916
938.10 36.12385
938.20 36.19296
938.30 35.80374
938.40 35.43129
938.50 35.29749
938.60 35.5422
938.70 35.77604
938.80 35.90962
938.90 35.95683
939.00 36.00464
939.10 36.24859
939.20 36.52163
939.30 36.72762
939.40 36.77204
939.50 36.80519
939.60 36.52875
939.70 36.0931
939.80 35.64928
939.90 35.37018
940.00 35.02121
940.10 34.76096
940.20 35.0888
940.30 35.45446
940.40 35.66944
940.50 35.58356
940.60 35.47862
940.70 35.76811
940.80 36.24026
940.90 36.7199
941.00 37.10308
941.10 37.5254
941.20 37.72882
941.30 37.33821
941.40 36.93238
941.50 36.4207
941.60 35.86391
941.70 35.32779
941.80 35.44968
941.90 35.68874
942.00 35.92721
942.10 35.97883
942.20 35.94434
942.30 35.91674
942.40 35.98182
942.50 36.06096
942.60 36.18895
942.70 36.39866
942.80 36.60723
942.90 36.61938
943.00 36.47762
943.10 36.53107
943.20 37.25502
943.30 38.00942
943.40 38.40536
943.50 38.58123
943.60 38.75202
943.70 38.66206
943.80 38.5113
943.90 38.32624
944.00 37.99298
944.10 37.70878
944.20 37.52421
944.30 37.40074
944.40 37.26744
944.50 36.89674
944.60 36.34529
944.70 35.7986
944.80 35.86363
944.90 35.99786
945.00 36.15478
945.10 36.31779
945.20 36.47933
945.30 36.60927
945.40 36.84101
945.50 37.07764
945.60 37.28982
945.70 37.40332
945.80 37.45396
945.90 37.04849
946.00 36.70059
946.10 36.5654
946.20 36.66638
946.30 36.74113
946.40 37.27733
946.50 38.13359
946.60 38.96593
946.70 38.81432
946.80 38.63491
946.90 38.52574
947.00 38.5691
947.10 38.60146
947.20 38.59301
947.30 38.61719
947.40 38.63367
947.50 38.72182
947.60 38.7757
947.70 38.83088
947.80 38.94034
947.90 39.1173
948.00 39.36418
948.10 39.60419
948.20 39.81266
948.30 39.77706
948.40 39.5921
948.50 39.40854
948.60 39.63352
948.70 39.97527
948.80 40.23773
948.90 40.16421
949.00 40.08682
949.10 40.21738
949.20 40.53957
949.30 40.83942
949.40 40.54533
949.50 40.19714
949.60 39.82942
949.70 39.33329
949.80 38.82382
949.90 38.67714
950.00 39.05429
950.10 39.43122
950.20 39.76425
950.30 40.03306
950.40 40.28721
950.50 39.77945
950.60 39.33391
950.70 39.00036
950.80 38.96751
950.90 38.92324
951.00 39.05368
951.10 39.35757
951.20 39.65452
951.30 39.69139
951.40 39.68529
951.50 39.65782
951.60 39.53156
951.70 39.42904
951.80 39.31233
951.90 39.183
952.00 39.06077
952.10 39.09802
952.20 39.10561
952.30 39.1188
952.40 39.57295
952.50 39.99968
952.60 40.40334
952.70 40.78323
952.80 41.15539
952.90 41.24138
953.00 41.20064
953.10 41.18044
953.20 41.07366
953.30 40.91204
953.40 40.72521
953.50 40.48099
953.60 40.29578
953.70 40.10363
953.80 39.75491
953.90 39.36765
954.00 39.39365
954.10 39.73566
954.20 40.09207
954.30 40.20256
954.40 40.25801
954.50 40.18186
954.60 39.68996
954.70 39.13426
954.80 38.84582
954.90 38.83073
955.00 38.8618
955.10 39.25686
955.20 39.73111
955.30 40.16335
955.40 40.30755
955.50 40.42004
955.60 40.59657
955.70 40.78402
955.80 40.95209
955.90 41.11855
956.00 41.34998
956.10 41.57622
956.20 41.5619
956.30 41.63162
956.40 41.57057
956.50 41.09825
956.60 40.62315
956.70 40.68924
956.80 41.07444
956.90 41.45613
957.00 41.32015
957.10 41.11221
957.20 40.9332
957.30 40.99932
957.40 41.09207
957.50 40.94831
957.60 40.51304
957.70 40.10692
957.80 39.84372
957.90 39.64435
958.00 39.4801
958.10 39.97324
958.20 40.37538
958.30 40.65014
958.40 40.64976
958.50 40.62467
958.60 40.54683
958.70 40.53095
958.80 40.50728
958.90 40.05532
959.00 39.65165
959.10 39.32695
959.20 39.20493
959.30 38.99294
959.40 39.01803
959.50 39.30758
959.60 39.55842
959.70 38.81599
959.80 37.94516
959.90 37.06207
960.00 36.2134
960.10 35.40673
960.20 35.1132
960.30 35.70024
960.40 36.28392
960.50 37.26493
960.60 38.48531
960.70 39.67085
960.80 40.10428
960.90 40.50706
961.00 40.779
961.10 40.5981
961.20 40.41002
961.30 40.14384
961.40 39.81501
961.50 39.51213
961.60 39.24984
961.70 38.99576
961.80 38.83826
961.90 39.51488
962.00 40.05419
962.10 40.45459
962.20 40.71062
962.30 40.99151
962.40 40.88136
962.50 40.67191
962.60 40.48917
962.70 40.79379
962.80 41.04912
962.90 41.22148
963.00 41.10955
963.10 40.98466
963.20 40.71519
963.30 40.46947
963.40 40.23036
963.50 39.75275
963.60 39.15198
963.70 38.33803
963.80 36.1177
963.90 34.01894
964.00 32.61715
964.10 32.06964
964.20 31.58311
964.30 32.95679
964.40 35.00493
964.50 37.03502
964.60 37.21508
964.70 37.37766
964.80 37.36462
964.90 36.95109
965.00 36.60178
965.10 36.63168
965.20 36.97263
965.30 37.33438
965.40 37.86792
965.50 38.43729
965.60 38.96846
965.70 39.21803
965.80 39.392
965.90 39.59167
966.00 39.84389
966.10 40.10696
966.20 40.43648
966.30 40.84117
966.40 41.23785
966.50 41.28596
966.60 41.3759
966.70 41.32256
966.80 40.89731
966.90 40.45051
967.00 40.38008
967.10 40.55052
967.20 40.71577
967.30 40.23841
967.40 39.65696
967.50 38.8614
967.60 37.27789
967.70 35.84791
967.80 35.28218
967.90 35.52024
968.00 35.81291
968.10 37.16089
968.20 38.61908
968.30 39.96201
968.40 39.92658
968.50 40.03049
968.60 40.00291
968.70 39.76352
968.80 39.52076
968.90 38.98906
969.00 38.20644
969.10 37.45753
969.20 37.96046
969.30 38.51734
969.40 39.19387
969.50 40.24086
969.60 41.25169
969.70 41.82436
969.80 42.06801
969.90 42.29872
970.00 42.4124
970.10 42.41537
970.20 42.3678
970.30 42.00782
970.40 41.65153
970.50 40.75085
970.60 39.09982
970.70 37.53528
970.80 36.97626
970.90 36.75218
971.00 36.61057
971.10 38.35215
971.20 39.94145
971.30 41.30232
971.40 42.06087
971.50 42.80771
971.60 43.1704
971.70 43.34345
971.80 43.49886
971.90 43.10218
972.00 42.68375
972.10 42.26298
972.20 41.84137
972.30 41.47041
972.40 41.38435
972.50 41.5981
972.60 41.75472
972.70 41.25054
972.80 40.55246
972.90 39.79731
973.00 38.34394
973.10 37.06871
973.20 36.5231
973.30 37.43191
973.40 38.27413
973.50 39.07955
973.60 39.8606
973.70 40.61988
973.80 40.54906
973.90 40.42651
974.00 40.30711
974.10 40.23466
974.20 40.14289
974.30 39.60984
974.40 38.69917
974.50 37.81754
974.60 37.44041
974.70 37.06914
974.80 36.83395
974.90 37.95588
975.00 39.05054
975.10 39.86734
975.20 40.19975
975.30 40.52399
975.40 40.83204
975.50 41.02906
975.60 41.2221
975.70 41.05253
975.80 40.96218
975.90 41.01051
976.00 41.50166
976.10 41.98576
976.20 42.06933
976.30 41.86387
976.40 41.67926
976.50 41.97568
976.60 42.2121
976.70 42.39898
976.80 42.26155
976.90 42.09941
977.00 41.49142
977.10 40.45213
977.20 39.50688
977.30 39.27208
977.40 39.09923
977.50 38.97839
977.60 40.02579
977.70 40.9788
977.80 41.70173
977.90 41.98248
978.00 42.27539
978.10 41.94355
978.20 41.1924
978.30 40.39513
978.40 38.55883
978.50 36.73861
978.60 35.2951
978.70 35.37808
978.80 35.43158
978.90 35.72449
979.00 36.28514
979.10 36.87861
979.20 38.20525
979.30 39.57422
979.40 40.90827
979.50 41.80555
979.60 42.752
979.70 43.23919
979.80 42.90023
979.90 42.54728
980.00 42.51179
980.10 42.67616
980.20 42.84616
980.30 42.87389
980.40 42.88568
980.50 42.87131
980.60 42.80956
980.70 42.77092
980.80 42.73444
980.90 42.66314
981.00 42.59875
981.10 42.80639
981.20 42.97713
981.30 43.0837
981.40 42.88597
981.50 42.81495
981.60 42.57808
981.70 42.06701
981.80 41.57569
981.90 41.77624
982.00 42.0522
982.10 42.31851
982.20 42.13351
982.30 42.04273
982.40 41.99712
982.50 42.05221
982.60 42.11067
982.70 42.3022
982.80 42.54174
982.90 42.7622
983.00 42.50819
983.10 42.26908
983.20 42.06765
983.30 41.98496
983.40 41.85812
983.50 41.66916
983.60 41.47673
983.70 41.30412
983.80 41.11889
983.90 40.85403
984.00 40.65457
984.10 41.04691
984.20 41.43852
984.30 41.7266
984.40 41.90642
984.50 42.09957
984.60 42.30072
984.70 42.36509
984.80 42.43664
984.90 42.46977
985.00 42.56473
985.10 42.50359
985.20 42.04036
985.30 41.60133
985.40 41.48913
985.50 41.5499
985.60 41.62683
985.70 42.00476
985.80 42.43697
985.90 42.7786
986.00 42.65591
986.10 42.53299
986.20 42.44039
986.30 42.39489
986.40 42.3637
986.50 42.60011
986.60 42.8549
986.70 43.07394
986.80 42.55877
986.90 42.15227
987.00 41.78089
987.10 41.47224
987.20 41.20378
987.30 41.68494
987.40 42.38831
987.50 43.06948
987.60 43.29757
987.70 43.53128
987.80 43.5695
987.90 43.06857
988.00 42.67647
988.10 42.40111
988.20 42.13198
988.30 41.87625
988.40 42.27064
988.50 42.65382
988.60 43.01032
988.70 43.19655
988.80 43.44601
988.90 43.51295
989.00 43.36425
989.10 43.23261
989.20 43.02122
989.30 42.74824
989.40 42.45687
989.50 41.55777
989.60 40.62852
989.70 39.27944
989.80 37.00158
989.90 34.82974
990.00 33.66826
990.10 33.05662
990.20 32.45873
990.30 31.81595
990.40 31.14395
990.50 30.31251
990.60 28.92237
990.70 27.66034
990.80 26.76258
990.90 26.08674
991.00 25.41732
991.10 25.60781
991.20 25.94767
991.30 26.22302
991.40 25.77846
991.50 25.42535
991.60 25.06923
991.70 24.66389
991.80 24.3058
991.90 24.91845
992.00 25.79205
992.10 26.67142
992.20 26.92634
992.30 27.2087
992.40 27.14567
992.50 26.21413
992.60 25.37324
992.70 25.43432
992.80 26.04497
992.90 26.69177
993.00 27.84892
993.10 28.94931
993.20 29.85636
993.30 29.87776
993.40 29.95442
993.50 29.87078
993.60 29.61814
993.70 29.47254
993.80 30.50508
993.90 31.59113
994.00 32.67668
994.10 33.50964
994.20 34.38923
994.30 34.81502
994.40 34.45599
994.50 34.11982
994.60 33.92095
994.70 33.77946
994.80 33.67014
994.90 34.28706
995.00 34.90711
995.10 35.50274
995.20 35.98608
995.30 36.42851
995.40 36.81077
995.50 37.16072
995.60 37.46149
995.70 36.57928
995.80 35.6783
995.90 34.87292
996.00 34.62468
996.10 34.35154
996.20 34.43047
996.30 34.86692
996.40 35.32263
996.50 36.37855
996.60 37.49228
996.70 38.54893
996.80 38.14105
996.90 37.84029
997.00 36.90801
997.10 34.77926
997.20 32.77206
997.30 31.6017
997.40 30.78028
997.50 30.03342
997.60 30.76845
997.70 31.46218
997.80 32.19773
997.90 33.06138
998.00 33.89971
998.10 34.63646
998.20 35.31596
998.30 35.94619
998.40 35.16936
998.50 34.25147
998.60 33.37818
998.70 32.83721
998.80 32.26264
998.90 32.02111
999.00 32.28548
999.10 32.54965
999.20 32.58437
999.30 32.54009
999.40 32.53156
999.50 33.10537
999.60 33.52207
999.70 33.66631
999.80 33.34312
999.90 33.15761
1000.00 33.72802
1000.10 34.50434
1000.20 35.27952
1000.30 36.20677
1000.40 37.12798
1000.50 37.84592
1000.60 37.88073
1000.70 37.88854
1000.80 37.38361
1000.90 36.55147
1001.00 35.74703
1001.10 34.81763
1001.20 33.95101
1001.30 33.30596
1001.40 34.15072
1001.50 34.84764
1001.60 35.66948
1001.70 36.66532
1001.80 37.6287
1001.90 37.7992
1002.00 37.8043
1002.10 37.75129
1002.20 37.1623
1002.30 36.68638
1002.40 36.59556
1002.50 37.24025
1002.60 37.76895
1002.70 38.01514
1002.80 38.2818
1002.90 38.53692
1003.00 38.03428
1003.10 37.40577
1003.20 36.85038
1003.30 36.5899
1003.40 36.329
1003.50 35.9291
1003.60 35.4156
1003.70 34.91766
1003.80 34.60984
1003.90 34.33222
1004.00 34.23641
1004.10 35.39317
1004.20 36.4657
1004.30 37.54177
1004.40 38.62565
1004.50 39.64672
1004.60 39.7532
1004.70 39.59534
1004.80 39.39388
1004.90 38.44093
1005.00 37.57577
1005.10 36.48066
1005.20 34.91815
1005.30 33.41545
1005.40 32.28478
1005.50 31.30142
1005.60 30.37727
1005.70 30.5411
1005.80 30.66393
1005.90 30.94027
1006.00 31.75253
1006.10 32.52755
1006.20 32.91891
1006.30 33.07582
1006.40 33.21983
1006.50 33.3547
1006.60 33.52141
1006.70 33.82842
1006.80 35.03845
1006.90 36.08834
1007.00 36.81134
1007.10 37.25309
1007.20 37.68405
1007.30 37.43979
1007.40 36.93373
1007.50 36.4752
1007.60 37.11657
1007.70 37.63506
1007.80 38.15323
1007.90 38.73713
1008.00 39.30824
1008.10 39.52938
1008.20 39.53486
1008.30 39.54847
1008.40 39.49837
1008.50 39.47166
1008.60 39.50399
1008.70 39.78677
1008.80 39.98856
1008.90 39.56167
1009.00 38.67574
1009.10 37.83661
1009.20 37.27502
1009.30 36.73281
1009.40 36.35992
1009.50 37.11382
1009.60 37.76608
1009.70 38.48562
1009.80 39.24797
1009.90 39.99602
1010.00 40.7959
1010.10 41.58536
1010.20 42.36239
1010.30 42.94168
1010.40 43.59069
1010.50 43.85344
1010.60 43.31942
1010.70 42.82533
1010.80 42.2364
1010.90 41.53135
1011.00 40.80434
1011.10 39.80086
1011.20 38.89801
1011.30 38.11506
1011.40 37.70671
1011.50 37.24987
1011.60 36.872
1011.70 36.61187
1011.80 36.36138
1011.90 36.22141
1012.00 36.11526
1012.10 36.23777
1012.20 37.95236
1012.30 39.46096
1012.40 40.60631
1012.50 41.30473
1012.60 41.9696
1012.70 41.7309
1012.80 41.44314
1012.90 41.15942
1013.00 41.46217
1013.10 41.65383
1013.20 41.68213
1013.30 41.35778
1013.40 40.93747
1013.50 39.71493
1013.60 38.28143
1013.70 36.88755
1013.80 35.96329
1013.90 34.97235
1014.00 34.37079
1014.10 35.05759
1014.20 35.68373
1014.30 36.55556
1014.40 37.64958
1014.50 38.6738
1014.60 38.46301
1014.70 38.16424
1014.80 37.8333
1014.90 37.30283
1015.00 36.86168
1015.10 37.32639
1015.20 38.92845
1015.30 40.40661
1015.40 40.7368
1015.50 40.87746
1015.60 40.93809
1015.70 39.40057
1015.80 38.03241
1015.90 37.02826
1016.00 36.72459
1016.10 36.40923
1016.20 36.73149
1016.30 37.38972
1016.40 38.02945
1016.50 38.08944
1016.60 38.15884
1016.70 38.35581
1016.80 38.99124
1016.90 39.48005
1017.00 39.32571
1017.10 38.79117
1017.20 38.3221
1017.30 38.3326
1017.40 38.32538
1017.50 38.53482
1017.60 40.1305
1017.70 41.43708
1017.80 41.80125
1017.90 41.16099
1018.00 40.62133
1018.10 39.82351
1018.20 38.75298
1018.30 37.70884
1018.40 37.35661
1018.50 37.0343
1018.60 36.74407
1018.70 36.4591
1018.80 36.22461
1018.90 36.86696
1019.00 37.69874
1019.10 38.53789
1019.20 39.06788
1019.30 39.57282
1019.40 39.80333
1019.50 39.52035
1019.60 39.32899
1019.70 39.34525
1019.80 39.42627
1019.90 39.47604
1020.00 39.23491
1020.10 39.03642
1020.20 38.9213
1020.30 39.09071
1020.40 39.23615
1020.50 39.48517
1020.60 39.83812
1020.70 40.20623
1020.80 40.42606
1020.90 40.6071
1021.00 40.71221
1021.10 40.49309
1021.20 40.36604
1021.30 39.89802
1021.40 38.95699
1021.50 38.03321
1021.60 37.41292
1021.70 36.83901
1021.80 36.26081
1021.90 35.79877
1022.00 35.32036
1022.10 34.9927
1022.20 34.93425
1022.30 34.97944
1022.40 35.90834
1022.50 37.23019
1022.60 38.50731
1022.70 38.7854
1022.80 39.02932
1022.90 39.15496
1023.00 38.95045
1023.10 38.74097
1023.20 38.32008
1023.30 37.74191
1023.40 37.24108
1023.50 37.79625
1023.60 38.40243
1023.70 39.02459
1023.80 39.69246
1023.90 40.42935
1024.00 40.94236
1024.10 41.05752
1024.20 41.14598
1024.30 41.47747
1024.40 41.96803
1024.50 42.3935
1024.60 41.33366
1024.70 40.41391
1024.80 39.73848
1024.90 39.55774
1025.00 39.34186
1025.10 38.84802
1025.20 38.26867
1025.30 37.67866
1025.40 37.30895
1025.50 36.94984
1025.60 36.8533
1025.70 37.69099
1025.80 38.3686
1025.90 38.03295
1026.00 36.98133
1026.10 35.9567
1026.20 35.04886
1026.30 34.09408
1026.40 33.33276
1026.50 33.81372
1026.60 34.34691
1026.70 35.40708
1026.80 37.06038
1026.90 38.60304
1027.00 39.29347
1027.10 39.95327
1027.20 40.40071
1027.30 39.78107
1027.40 39.29419
1027.50 38.73818
1027.60 38.12731
1027.70 37.59464
1027.80 37.54299
1027.90 37.50072
1028.00 37.43396
1028.10 36.84143
1028.20 36.29942
1028.30 35.69559
1028.40 34.99231
1028.50 34.42991
1028.60 34.94974
1028.70 35.85432
1028.80 36.74241
1028.90 38.09121
1029.00 39.50649
1029.10 40.44075
1029.20 39.77282
1029.30 39.25596
1029.40 38.872
1029.50 38.48723
1029.60 38.13074
1029.70 38.26932
1029.80 38.58992
1029.90 38.83955
1030.00 38.56699
1030.10 38.23007
1030.20 37.93846
1030.30 37.69847
1030.40 37.53501
1030.50 38.23532
1030.60 39.11975
1030.70 40.03367
1030.80 40.16093
1030.90 40.28279
1031.00 40.16612
1031.10 39.54712
1031.20 39.03967
1031.30 39.22924
1031.40 39.67798
1031.50 40.09184
1031.60 39.93358
1031.70 39.78856
1031.80 39.49112
1031.90 38.65611
1032.00 37.92148
1032.10 37.74773
1032.20 37.99082
1032.30 38.18578
1032.40 37.75691
1032.50 37.37674
1032.60 37.11693
1032.70 37.66029
1032.80 38.14675
1032.90 38.98973
1033.00 40.32213
1033.10 41.60892
1033.20 42.3209
1033.30 42.95925
1033.40 43.32901
1033.50 42.29939
1033.60 41.47942
1033.70 40.39328
1033.80 38.89018
1033.90 37.4462
1034.00 36.92636
1034.10 36.55681
1034.20 36.20899
1034.30 35.94365
1034.40 35.69712
1034.50 35.41893
1034.60 35.06691
1034.70 34.85637
1034.80 35.55938
1034.90 36.65468
1035.00 37.64889
1035.10 37.50394
1035.20 37.50564
1035.30 37.5817
1035.40 37.88198
1035.50 38.10946
1035.60 38.37267
1035.70 38.7034
1035.80 39.06734
1035.90 39.60168
1036.00 40.0827
1036.10 40.58907
1036.20 41.36015
1036.30 42.12851
1036.40 42.53535
1036.50 42.47229
1036.60 42.41014
1036.70 42.41332
1036.80 42.45304
1036.90 42.52225
1037.00 43.02627
1037.10 43.48197
1037.20 43.96154
1037.30 44.50206
1037.40 44.97361
1037.50 44.88451
1037.60 44.59051
1037.70 44.22838
1037.80 42.78332
1037.90 41.36977
1038.00 40.00538
1038.10 38.81118
1038.20 37.73485
1038.30 37.70951
1038.40 38.10915
1038.50 38.54357
1038.60 39.62508
1038.70 40.60379
1038.80 41.29992
1038.90 41.14681
1039.00 41.08605
1039.10 40.88461
1039.20 40.53833
1039.30 40.19907
1039.40 39.8511
1039.50 39.49407
1039.60 39.11343
1039.70 38.58985
1039.80 38.10596
1039.90 37.99857
1040.00 38.42094
1040.10 38.9234
1040.20 39.83763
1040.30 40.75185
1040.40 41.61766
1040.50 42.02804
1040.60 42.5349
1040.70 42.94014
1040.80 43.11323
1040.90 43.22281
1041.00 43.01454
1041.10 42.77709
1041.20 42.48148
1041.30 41.41124
1041.40 40.40801
1041.50 39.68192
1041.60 39.79714
1041.70 39.94632
1041.80 40.84171
1041.90 42.26403
1042.00 43.55101
1042.10 43.60712
1042.20 43.70739
1042.30 43.64164
1042.40 42.61583
1042.50 41.56321
1042.60 40.35981
1042.70 39.08788
1042.80 37.87839
1042.90 37.38075
1043.00 36.91423
1043.10 36.80127
1043.20 38.66225
1043.30 40.28511
1043.40 41.67529
1043.50 42.80904
1043.60 43.83144
1043.70 43.84079
1043.80 43.70817
1043.90 43.59351
1044.00 43.65513
1044.10 43.65615
1044.20 43.66406
1044.30 43.70003
1044.40 43.72746
1044.50 43.58243
1044.60 43.33738
1044.70 43.089
1044.80 43.27707
1044.90 43.56939
1045.00 44.04123
1045.10 44.93308
1045.20 45.74208
1045.30 46.37891
1045.40 46.89033
1045.50 47.32206
1045.60 47.43267
1045.70 47.55426
1045.80 47.50349
1045.90 46.49509
1046.00 45.58002
1046.10 44.66376
1046.20 43.80228
1046.30 43.0479
1046.40 42.75618
1046.50 42.41287
1046.60 42.04437
1046.70 41.38716
1046.80 40.67685
1046.90 39.98328
1047.00 39.37339
1047.10 38.87417
1047.20 38.93863
1047.30 39.04487
1047.40 39.15721
1047.50 39.48188
1047.60 39.80014
1047.70 40.06123
1047.80 40.26038
1047.90 40.45751
1048.00 40.51487
1048.10 40.51345
1048.20 40.58526
1048.30 41.39311
1048.40 42.05675
1048.50 42.64828
1048.60 43.0631
1048.70 43.48986
1048.80 43.69931
1048.90 43.76001
1049.00 43.86278
1049.10 43.98203
1049.20 44.0176
1049.30 44.03883
1049.40 43.95569
1049.50 43.80391
1049.60 43.0566
1049.70 41.63948
1049.80 40.30478
1049.90 40.07553
1050.00 40.02861
1050.10 40.07217
1050.20 41.11714
1050.30 42.09494
1050.40 42.64604
1050.50 42.63441
1050.60 42.60222
1050.70 42.4623
1050.80 42.3012
1050.90 42.15271
1051.00 42.22026
1051.10 42.25076
1051.20 41.9248
1051.30 40.87804
1051.40 39.92268
1051.50 39.4034
1051.60 39.00626
1051.70 38.63705
1051.80 38.94609
1051.90 39.3268
1052.00 39.61058
1052.10 39.55624
1052.20 39.55107
1052.30 39.69915
1052.40 39.89533
1052.50 40.10768
1052.60 41.02934
1052.70 42.0204
1052.80 42.94147
1052.90 43.44309
1053.00 43.96401
1053.10 44.00521
1053.20 43.42504
1053.30 42.92096
1053.40 43.03736
1053.50 43.17502
1053.60 43.33512
1053.70 43.39639
1053.80 43.4785
1053.90 43.30344
1054.00 42.83514
1054.10 42.45854
1054.20 42.73209
1054.30 43.02545
1054.40 43.28775
1054.50 43.04877
1054.60 42.98405
1054.70 42.69423
1054.80 41.91145
1054.90 41.22906
1055.00 41.31367
1055.10 41.61615
1055.20 41.90583
1055.30 42.39409
1055.40 42.90302
1055.50 43.12503
1055.60 42.53024
1055.70 41.98787
1055.80 41.31914
1055.90 40.50372
1056.00 39.73299
1056.10 39.24193
1056.20 38.78055
1056.30 38.41702
1056.40 38.65257
1056.50 38.87534
1056.60 39.24761
1056.70 39.79274
1056.80 40.30636
1056.90 40.40757
1057.00 40.4267
1057.10 40.449
1057.20 40.61851
1057.30 40.77179
1057.40 41.05283
1057.50 41.542
1057.60 42.03256
1057.70 42.23449
1057.80 42.37625
1057.90 42.49556
1058.00 42.48219
1058.10 42.48137
1058.20 42.5063
1058.30 42.58922
1058.40 42.57873
1058.50 41.92302
1058.60 40.97466
1058.70 40.04842
1058.80 39.76259
1058.90 39.51676
1059.00 39.41122
1059.10 39.73071
1059.20 40.03907
1059.30 40.33779
1059.40 40.55315
1059.50 40.7823
1059.60 41.34271
1059.70 41.98316
1059.80 42.50856
1059.90 42.21279
1060.00 41.95095
1060.10 41.6727
1060.20 41.32136
1060.30 40.95413
1060.40 40.60348
1060.50 40.30299
1060.60 39.97469
1060.70 39.55931
1060.80 39.24019
1060.90 39.05526
1061.00 38.98657
1061.10 38.92317
1061.20 39.44873
1061.30 40.13278
1061.40 40.82526
1061.50 41.27283
1061.60 41.62861
1061.70 41.73533
1061.80 41.3946
1061.90 41.06715
1062.00 40.78638
1062.10 40.63505
1062.20 40.53493
1062.30 40.55987
1062.40 40.47198
1062.50 40.56238
1062.60 41.2497
1062.70 41.9606
1062.80 42.72325
1062.90 43.52418
1063.00 44.24645
1063.10 44.15404
1063.20 44.05916
1063.30 43.86019
1063.40 43.34414
1063.50 42.82229
1063.60 42.6443
1063.70 42.76643
1063.80 42.93412
1063.90 43.43878
1064.00 43.96411
1064.10 44.4408
1064.20 44.61791
1064.30 44.82863
1064.40 44.90304
1064.50 44.77578
1064.60 44.63444
1064.70 44.52604
1064.80 44.41485
1064.90 44.32283
1065.00 44.42219
1065.10 44.44994
1065.20 44.28163
1065.30 43.80879
1065.40 43.38454
1065.50 42.75292
1065.60 41.93316
1065.70 41.14323
1065.80 41.01677
1065.90 40.90767
1066.00 40.81132
1066.10 40.76985
1066.20 40.64224
1066.30 40.016
1066.40 39.17026
1066.50 38.40549
1066.60 38.6957
1066.70 38.9159
1066.80 39.12151
1066.90 39.23885
1067.00 39.39233
1067.10 39.49001
1067.20 39.48573
1067.30 39.52636
1067.40 40.35048
1067.50 41.16986
1067.60 41.9447
1067.70 42.45432
1067.80 43.02733
1067.90 43.47907
1068.00 43.78005
1068.10 44.08084
1068.20 44.32873
1068.30 44.33067
1068.40 44.3516
1068.50 44.50019
1068.60 44.72639
1068.70 44.8384
1068.80 44.82456
1068.90 44.83371
1069.00 44.71175
1069.10 44.53315
1069.20 44.39417
1069.30 44.39622
1069.40 44.3293
1069.50 44.06289
1069.60 43.48304
1069.70 43.03398
1069.80 42.91055
1069.90 42.76716
1070.00 42.63519
1070.10 42.65799
1070.20 42.69401
1070.30 42.63946
1070.40 42.26096
1070.50 41.92755
1070.60 42.01009
1070.70 42.34282
1070.80 42.61766
1070.90 42.58489
1071.00 42.75217
1071.10 42.87131
1071.20 42.73657
1071.30 42.66399
1071.40 43.006
1071.50 43.81482
1071.60 44.53235
1071.70 44.47815
1071.80 44.43081
1071.90 44.36032
1072.00 44.31362
1072.10 44.21805
1072.20 44.0816
1072.30 43.95952
1072.40 43.79864
1072.50 43.13842
1072.60 42.28527
1072.70 41.50137
1072.80 41.82311
1072.90 41.99162
1073.00 42.22755
1073.10 42.65018
1073.20 42.99797
1073.30 42.8126
1073.40 42.56275
1073.50 42.34895
1073.60 42.50686
1073.70 42.56003
1073.80 42.743
1073.90 43.29341
1074.00 43.87292
1074.10 44.44086
1074.20 44.9473
1074.30 45.3656
1074.40 45.1622
1074.50 45.04205
1074.60 44.94545
1074.70 44.94645
1074.80 44.84621
1074.90 44.76508
1075.00 44.82486
1075.10 44.92776
1075.20 44.51807
1075.30 44.04852
1075.40 43.59174
1075.50 43.14645
1075.60 42.78378
1075.70 42.89992
1075.80 43.54698
1075.90 44.10944
1076.00 44.31814
1076.10 44.57343
1076.20 44.76803
1076.30 44.65651
1076.40 44.60271
1076.50 44.62168
1076.60 44.79244
1076.70 44.97852
1076.80 45.14497
1076.90 45.18975
1077.00 45.21359
1077.10 45.17507
1077.20 45.19014
1077.30 45.12488
1077.40 44.93019
1077.50 44.73514
1077.60 44.23798
1077.70 43.5544
1077.80 42.92587
1077.90 43.33428
1078.00 43.72841
1078.10 44.10699
1078.20 44.42085
1078.30 44.73019
1078.40 44.86711
1078.50 44.7633
1078.60 44.62026
1078.70 44.28445
1078.80 44.09077
1078.90 43.8469
1079.00 43.26324
1079.10 42.65518
1079.20 42.17648
1079.30 41.82058
1079.40 41.45798
1079.50 41.51833
1079.60 41.59206
1079.70 41.76521
1079.80 42.16144
1079.90 42.51189
1080.00 42.83004
1080.10 43.13809
1080.20 43.45509
1080.30 43.62039
1080.40 43.71624
1080.50 43.79505
1080.60 44.20593
1080.70 44.59047
1080.80 44.87953
1080.90 44.97908
1081.00 45.10186
1081.10 45.14601
1081.20 45.13283
1081.30 45.09533
1081.40 45.05125
1081.50 45.0507
1081.60 45.14064
1081.70 45.46979
1081.80 45.72668
1081.90 45.75885
1082.00 45.76848
1082.10 45.7326
1082.20 45.22485
1082.30 44.74452
1082.40 44.31795
1082.50 44.07232
1082.60 43.86738
1082.70 43.81419
1082.80 43.83708
1082.90 43.85455
1083.00 44.0679
1083.10 44.33373
1083.20 44.6504
1083.30 45.06119
1083.40 45.2993
1083.50 45.35989
1083.60 45.29052
1083.70 45.25456
1083.80 45.16199
1083.90 45.06642
1084.00 45.01702
1084.10 45.08539
1084.20 45.10285
1084.30 45.0676
1084.40 44.95408
1084.50 44.76794
1084.60 44.2039
1084.70 43.65754
1084.80 43.16465
1084.90 43.43334
1085.00 43.59864
1085.10 43.91487
1085.20 44.52702
1085.30 44.93102
1085.40 44.68304
1085.50 44.2328
1085.60 43.94275
1085.70 44.48742
1085.80 44.9408
1085.90 45.39827
1086.00 45.8239
1086.10 46.18592
1086.20 46.47913
1086.30 46.78667
1086.40 47.06738
1086.50 46.76273
1086.60 46.53978
1086.70 46.29432
1086.80 45.96058
1086.90 45.60563
1087.00 45.70911
1087.10 46.18914
1087.20 46.64184
1087.30 46.5554
1087.40 46.48937
1087.50 46.2888
1087.60 45.43975
1087.70 44.71294
1087.80 44.53426
1087.90 45.00544
1088.00 45.39305
1088.10 45.30063
1088.20 45.22009
1088.30 45.11411
1088.40 44.90869
1088.50 44.71293
1088.60 44.74855
1088.70 45.28903
1088.80 45.763
1088.90 45.6318
1089.00 45.32151
1089.10 45.0362
1089.20 45.00214
1089.30 44.85084
1089.40 44.67212
1089.50 44.50446
1089.60 44.47893
1089.70 44.79717
1089.80 45.17684
1089.90 45.54959
1090.00 46.11271
1090.10 46.70442
1090.20 47.14208
1090.30 47.14363
1090.40 47.20583
1090.50 47.12583
1090.60 46.91636
1090.70 46.63627
1090.80 46.18812
1090.90 45.8302
1091.00 45.42883
1091.10 44.78258
1091.20 44.17182
1091.30 44.07828
1091.40 44.3847
1091.50 44.72471
1091.60 45.4612
1091.70 46.17727
1091.80 46.79836
1091.90 46.90114
1092.00 46.98902
1092.10 46.85453
1092.20 46.45186
1092.30 46.09382
1092.40 46.1141
1092.50 46.25738
1092.60 46.40348
1092.70 46.23767
1092.80 46.05664
1092.90 45.8934
1093.00 45.81467
1093.10 45.7699
1093.20 45.69435
1093.30 45.57736
1093.40 45.44364
1093.50 45.26945
1093.60 45.02343
1093.70 44.75375
1093.80 44.48252
1093.90 44.44484
1094.00 44.98597
1094.10 45.75011
1094.20 46.43672
1094.30 46.37731
1094.40 46.32497
1094.50 46.05786
1094.60 45.20963
1094.70 44.49396
1094.80 44.2464
1094.90 44.21871
1095.00 44.25698
1095.10 44.78704
1095.20 45.45279
1095.30 46.11217
1095.40 46.72237
1095.50 47.21568
1095.60 47.30221
1095.70 47.12587
1095.80 46.99986
1095.90 46.88714
1096.00 46.6479
1096.10 46.47306
1096.20 46.53016
1096.30 46.58491
1096.40 46.62176
1096.50 46.67227
1096.60 46.70009
1096.70 46.35371
1096.80 45.91157
1096.90 45.41864
1097.00 44.5258
1097.10 43.75673
1097.20 43.2257
1097.30 43.01276
1097.40 42.83018
1097.50 43.13609
1097.60 43.75315
1097.70 44.36832
1097.80 44.80144
1097.90 45.15219
1098.00 45.49025
1098.10 45.92006
1098.20 46.40101
1098.30 46.2741
1098.40 45.73598
1098.50 45.13882
1098.60 44.84479
1098.70 44.65823
1098.80 44.55752
1098.90 44.62225
1099.00 44.67016
1099.10 44.7952
1099.20 44.97319
1099.30 45.18349
1099.40 45.73701
1099.50 46.27203
1099.60 46.67821
1099.70 46.41052
1099.80 46.19667
1099.90 46.03338
1100.00 45.96286
1100.10 45.92389
1100.20 45.7539
1100.30 45.5664
1100.40 45.33698
1100.50 44.93603
1100.60 44.57649
1100.70 44.54902
1100.80 44.90986
1100.90 45.23129
1101.00 45.41348
1101.10 45.6171
1101.20 45.822
1101.30 46.03287
1101.40 46.1818
1101.50 46.32269
1101.60 46.54366
1101.70 46.71113
1101.80 46.31951
1101.90 45.64215
1102.00 44.92701
1102.10 44.47793
1102.20 44.00461
1102.30 43.5197
1102.40 42.93714
1102.50 42.57781
1102.60 43.1369
1102.70 44.03076
1102.80 44.85559
1102.90 45.2262
1103.00 45.54911
1103.10 45.64198
1103.20 45.29042
1103.30 45.02779
1103.40 44.3316
1103.50 43.30645
1103.60 42.40046
1103.70 42.46145
1103.80 42.53221
1103.90 42.72511
1104.00 43.18255
1104.10 43.45112
1104.20 43.70371
1104.30 44.11691
1104.40 44.60791
1104.50 44.80759
1104.60 44.8288
1104.70 44.84158
1104.80 44.65773
1104.90 44.37602
1105.00 44.17042
1105.10 44.26115
1105.20 44.3673
1105.30 43.68081
1105.40 42.71025
1105.50 41.77214
1105.60 41.58061
1105.70 41.42056
1105.80 41.55441
1105.90 42.2116
1106.00 42.72151
1106.10 42.84123
1106.20 42.90585
1106.30 42.96491
1106.40 43.02869
1106.50 43.08443
1106.60 43.08602
1106.70 42.98945
1106.80 42.79948
1106.90 42.32258
1107.00 41.77539
1107.10 41.31467
1107.20 41.39612
1107.30 41.38936
1107.40 41.56945
1107.50 42.329
1107.60 42.9318
1107.70 43.05628
1107.80 42.79221
1107.90 42.61041
1108.00 42.76446
1108.10 43.01164
1108.20 43.35603
1108.30 43.96439
1108.40 44.45982
1108.50 44.86372
1108.60 45.22996
1108.70 45.56224
1108.80 45.36021
1108.90 45.15641
1109.00 44.9336
1109.10 44.51488
1109.20 44.12572
1109.30 44.11598
1109.40 44.6047
1109.50 45.08475
1109.60 45.45435
1109.70 45.74299
1109.80 46.00221
1109.90 45.83907
1110.00 45.71666
1110.10 45.33991
1110.20 44.47333
1110.30 43.57541
1110.40 42.70767
1110.50 41.88882
1110.60 41.14777
1110.70 41.59492
1110.80 41.8685
1110.90 42.05056
1111.00 42.05978
1111.10 42.05015
1111.20 41.87887
1111.30 41.59312
1111.40 41.32372
1111.50 41.51875
1111.60 41.75231
1111.70 42.03081
1111.80 42.3664
1111.90 42.62084
1112.00 42.58936
1112.10 42.37487
1112.20 42.18574
1112.30 42.12573
1112.40 42.08667
1112.50 42.19275
1112.60 42.69714
1112.70 43.11365
1112.80 43.63766
1112.90 44.2868
1113.00 44.91271
1113.10 45.05226
1113.20 45.20642
1113.30 45.3316
1113.40 45.34138
1113.50 45.32217
1113.60 44.8701
1113.70 43.85302
1113.80 42.84713
1113.90 42.65171
1114.00 42.58745
1114.10 42.5968
1114.20 43.1287
1114.30 43.71138
1114.40 44.44962
1114.50 45.41085
1114.60 46.31258
1114.70 46.27441
1114.80 46.04038
1114.90 45.77311
1115.00 45.03035
1115.10 44.22101
1115.20 43.85211
1115.30 44.40289
1115.40 44.82622
1115.50 44.87478
1115.60 44.79985
1115.70 44.7628
1115.80 44.78089
1115.90 44.92571
1116.00 45.06561
1116.10 45.09278
1116.20 45.05436
1116.30 45.12315
1116.40 45.22455
1116.50 45.30102
1116.60 45.31931
1116.70 45.24647
1116.80 45.04184
1116.90 44.41639
1117.00 43.90218
1117.10 43.32692
1117.20 42.69692
1117.30 42.07898
1117.40 41.69456
1117.50 41.21883
1117.60 40.82085
1117.70 41.03805
1117.80 41.35913
1117.90 41.89657
1118.00 42.67786
1118.10 43.39454
1118.20 43.89569
1118.30 44.24162
1118.40 44.60163
1118.50 45.16826
1118.60 45.87487
1118.70 46.1608
1118.80 45.87071
1118.90 45.56139
1119.00 45.14581
1119.10 44.73254
1119.20 44.3261
1119.30 43.87479
1119.40 43.48143
1119.50 43.11372
1119.60 43.11684
1119.70 43.16669
1119.80 43.23036
1119.90 43.28853
1120.00 43.30409
1120.10 43.30917
1120.20 43.23108
1120.30 43.00592
1120.40 42.79345
1120.50 42.91008
1120.60 43.69491
1120.70 44.44148
1120.80 45.13299
1120.90 45.0323
1121.00 44.92554
1121.10 44.7974
1121.20 44.67107
1121.30 44.39551
1121.40 44.13253
1121.50 43.94101
1121.60 44.00323
1121.70 44.08848
1121.80 44.11689
1121.90 43.97503
1122.00 43.81388
1122.10 43.73883
1122.20 43.7089
1122.30 43.5815
1122.40 43.49321
1122.50 43.96005
1122.60 44.35506
1122.70 44.73628
1122.80 45.04952
1122.90 45.50189
1123.00 46.00441
1123.10 46.28191
1123.20 45.94686
1123.30 45.78418
1123.40 45.5857
1123.50 45.08653
1123.60 44.19034
1123.70 43.41633
1123.80 43.38776
1123.90 43.85256
1124.00 44.2957
1124.10 44.68423
1124.20 45.04503
1124.30 45.42593
1124.40 45.78668
1124.50 45.9577
1124.60 46.10899
1124.70 46.23665
1124.80 45.83288
1124.90 45.66718
1125.00 45.46385
1125.10 44.93483
1125.20 43.725
1125.30 42.51212
1125.40 42.1004
1125.50 42.97395
1125.60 43.87424
1125.70 44.72286
1125.80 44.98995
1125.90 45.41835
1126.00 45.81795
1126.10 45.77534
1126.20 45.57379
1126.30 45.38018
1126.40 45.32057
1126.50 45.31984
1126.60 45.32386
1126.70 45.38572
1126.80 45.60448
1126.90 45.84877
1127.00 46.07488
1127.10 46.13554
1127.20 46.15266
1127.30 46.14693
1127.40 46.19934
1127.50 46.30565
1127.60 46.41496
1127.70 46.28601
1127.80 45.91033
1127.90 45.55456
1128.00 45.28026
1128.10 45.23605
1128.20 45.19763
1128.30 45.18825
1128.40 45.45779
1128.50 45.70618
1128.60 45.95948
1128.70 45.89469
1128.80 45.84071
1128.90 45.76464
1129.00 45.63817
1129.10 45.49538
1129.20 45.34161
1129.30 45.34355
1129.40 45.61802
1129.50 45.8664
1129.60 46.1318
1129.70 46.31517
1129.80 46.44022
1129.90 46.56245
1130.00 46.29565
1130.10 46.17555
1130.20 45.96102
1130.30 45.52979
1130.40 44.97383
1130.50 44.43841
1130.60 43.97959
1130.70 43.66472
1130.80 43.34405
1130.90 43.10036
1131.00 43.22417
1131.10 43.24957
1131.20 43.28256
1131.30 43.50958
1131.40 43.79911
1131.50 44.07307
1131.60 44.29872
1131.70 44.49624
1131.80 44.68342
1131.90 44.81848
1132.00 44.82654
1132.10 44.86423
1132.20 44.89496
1132.30 44.8908
1132.40 44.86184
1132.50 44.84163
1132.60 44.69861
1132.70 44.56535
1132.80 44.4342
1132.90 44.37389
1133.00 44.40081
1133.10 44.41708
1133.20 44.3857
1133.30 44.25679
1133.40 44.14623
1133.50 44.04092
1133.60 43.6764
1133.70 43.36082
1133.80 43.04431
1133.90 42.55203
1134.00 42.00253
1134.10 41.44946
1134.20 41.10309
1134.30 40.74609
1134.40 40.34187
1134.50 40.15667
1134.60 40.43573
1134.70 40.75141
1134.80 41.10837
1134.90 42.44459
1135.00 43.82845
1135.10 45.1441
1135.20 45.03302
1135.30 44.7327
1135.40 44.40668
1135.50 43.93747
1135.60 43.48134
1135.70 43.07418
1135.80 42.81948
1135.90 42.59969
1136.00 42.16093
1136.10 41.75234
1136.20 42.01787
1136.30 42.43408
1136.40 42.7947
1136.50 42.567
1136.60 42.33179
1136.70 42.08728
1136.80 41.69765
1136.90 41.14134
1137.00 40.58948
1137.10 40.131
1137.20 39.93338
1137.30 39.73163
1137.40 39.51048
1137.50 38.93957
1137.60 38.30028
1137.70 37.58614
1137.80 36.40298
1137.90 35.46947
1138.00 34.42156
1138.10 33.06796
1138.20 31.38101
1138.30 29.86285
1138.40 29.01857
1138.50 29.40453
1138.60 29.49247
1138.70 29.78437
1138.80 31.46225
1138.90 33.08798
1139.00 34.57336
1139.10 35.52281
1139.20 36.51196
1139.30 37.3742
1139.40 37.67136
1139.50 37.60166
1139.60 37.54193
1139.70 37.33057
1139.80 36.55176
1139.90 35.73367
1140.00 34.84408
1140.10 33.21596
1140.20 31.84692
1140.30 30.37236
1140.40 28.59806
1140.50 26.65485
1140.60 24.98339
1140.70 24.71963
1140.80 25.31301
1140.90 25.88342
1141.00 26.86655
1141.10 29.09013
1141.20 31.22674
1141.30 33.27564
1141.40 34.7299
1141.50 36.16624
1141.60 37.52296
1141.70 38.29403
1141.80 39.15088
1141.90 39.94452
1142.00 40.59158
1142.10 41.10666
1142.20 41.61289
1142.30 41.97983
1142.40 41.86119
1142.50 41.78949
1142.60 41.73284
1142.70 41.98827
1142.80 42.19312
1142.90 42.39062
1143.00 42.46106
1143.10 42.60316
1143.20 42.72712
1143.30 42.8232
1143.40 42.8448
1143.50 42.84675
1143.60 42.85271
1143.70 42.93048
1143.80 43.01537
1143.90 43.06567
1144.00 43.1385
1144.10 43.10026
1144.20 43.11239
1144.30 43.14924
1144.40 43.26207
1144.50 43.37658
1144.60 43.34051
1144.70 43.2174
1144.80 43.11246
1144.90 43.09733
1145.00 43.35783
1145.10 43.582
1145.20 43.7999
1145.30 43.77631
1145.40 43.82485
1145.50 43.86848
1145.60 43.82324
1145.70 43.72708
1145.80 43.63465
1145.90 43.74389
1146.00 44.0286
1146.10 44.29116
1146.20 44.52551
1146.30 44.58388
1146.40 44.66183
1146.50 44.74131
1146.60 44.99625
1146.70 45.18896
1146.80 45.344
1146.90 45.3224
1147.00 45.44473
1147.10 45.54641
1147.20 45.55313
1147.30 45.32148
1147.40 45.07852
1147.50 44.86999
1147.60 44.70751
1147.70 44.52959
1147.80 44.35362
1147.90 44.33609
1148.00 44.39507
1148.10 44.44153
1148.20 44.55484
1148.30 44.75531
1148.40 44.90981
1148.50 45.03588
1148.60 45.03466
1148.70 45.03815
1148.80 45.14358
1148.90 45.46681
1149.00 45.74767
1149.10 46.01827
1149.20 45.73906
1149.30 45.68015
1149.40 45.59081
1149.50 45.61207
1149.60 45.45308
1149.70 45.32946
1149.80 45.27317
1149.90 45.26279
1150.00 45.22097
1150.10 45.07326
1150.20 44.82583
1150.30 44.66149
1150.40 44.50145
1150.50 44.66794
1150.60 44.73131
1150.70 44.81323
1150.80 45.05351
1150.90 45.30833
1151.00 45.54665
1151.10 45.58784
1151.20 45.47078
1151.30 45.36913
1151.40 45.21971
1151.50 45.02096
1151.60 44.8764
1151.70 44.73552
1151.80 44.66136
1151.90 44.47944
1152.00 44.30164
1152.10 44.32961
1152.20 44.56465
1152.30 44.75328
1152.40 44.61889
1152.50 44.0849
1152.60 43.55223
1152.70 43.18741
1152.80 43.24415
1152.90 43.23687
1153.00 43.22956
1153.10 43.27512
1153.20 43.42403
1153.30 43.5705
1153.40 43.63206
1153.50 43.6234
1153.60 43.64068
1153.70 43.82349
1153.80 44.10513
1153.90 44.3503
1154.00 44.58476
1154.10 44.7984
1154.20 45.00597
1154.30 45.1939
1154.40 44.92498
1154.50 44.77063
1154.60 44.58646
1154.70 44.27106
1154.80 43.96656
1154.90 43.71041
1155.00 43.7157
1155.10 43.89187
1155.20 44.05397
1155.30 44.1753
1155.40 44.1659
1155.50 44.15472
1155.60 44.16434
1155.70 44.36984
1155.80 44.51599
1155.90 44.64469
1156.00 44.62347
1156.10 44.73095
1156.20 44.84105
1156.30 44.90001
1156.40 44.83792
1156.50 44.75276
1156.60 44.706
1156.70 44.77161
1156.80 44.8715
1156.90 44.90443
1157.00 44.53038
1157.10 44.2012
1157.20 43.89676
1157.30 44.01036
1157.40 44.1371
1157.50 44.2656
1157.60 44.29455
1157.70 44.23746
1157.80 44.17981
1157.90 44.15709
1158.00 44.2153
1158.10 44.26022
1158.20 44.30754
1158.30 44.3948
1158.40 44.53789
1158.50 44.67284
1158.60 44.51956
1158.70 44.31357
1158.80 44.09207
1158.90 43.82796
1159.00 43.53272
1159.10 43.20678
1159.20 42.81197
1159.30 42.3404
1159.40 41.93717
1159.50 41.5625
1159.60 41.36628
1159.70 41.0776
1159.80 40.85749
1159.90 41.27942
1160.00 41.64828
1160.10 42.02416
1160.20 42.36138
1160.30 42.66781
1160.40 42.93143
1160.50 43.01333
1160.60 42.86228
1160.70 42.75246
1160.80 42.53519
1160.90 41.82155
1161.00 41.21604
1161.10 40.70673
1161.20 41.17082
1161.30 41.4333
1161.40 41.77965
1161.50 42.47151
1161.60 43.42116
1161.70 44.30595
1161.80 44.6405
1161.90 44.26946
1162.00 43.98372
1162.10 43.70034
1162.20 43.61427
1162.30 43.48882
1162.40 43.38779
1162.50 43.61112
1162.60 43.77566
1162.70 43.95409
1162.80 44.10842
1162.90 44.23087
1163.00 44.34318
1163.10 44.44293
1163.20 44.55368
1163.30 44.69585
1163.40 44.71764
1163.50 44.31602
1163.60 44.01386
1163.70 43.66011
1163.80 42.83888
1163.90 41.98201
1164.00 41.17995
1164.10 41.09846
1164.20 41.13836
1164.30 41.23418
1164.40 41.63805
1164.50 42.45083
1164.60 43.18917
1164.70 43.76647
1164.80 43.80935
1164.90 43.91835
1165.00 44.00303
1165.10 43.7319
1165.20 43.52369
1165.30 43.30377
1165.40 42.99832
1165.50 42.65804
1165.60 42.34244
1165.70 42.23291
1165.80 42.34887
1165.90 42.39009
1166.00 42.51249
1166.10 42.91557
1166.20 43.31817
1166.30 43.7153
1166.40 43.812
1166.50 44.02748
1166.60 44.22968
1166.70 44.21185
1166.80 44.12177
1166.90 44.00317
1167.00 43.77998
1167.10 43.44856
1167.20 43.12119
1167.30 42.85288
1167.40 42.79323
1167.50 42.74233
1167.60 42.69479
1167.70 42.64365
1167.80 42.59982
1167.90 42.56807
1168.00 42.48509
1168.10 42.39598
1168.20 42.27956
1168.30 41.93281
1168.40 41.40057
1168.50 40.8673
1168.60 40.16112
1168.70 38.89337
1168.80 37.70291
1168.90 36.38497
1169.00 33.524
1169.10 30.86689
1169.20 28.36996
1169.30 27.94712
1169.40 27.30939
1169.50 26.92989
1169.60 28.16539
1169.70 30.75006
1169.80 33.14171
1169.90 35.23492
1170.00 36.74282
1170.10 38.35668
1170.20 39.90724
1170.30 40.68263
1170.40 41.60837
1170.50 42.49442
1170.60 42.7669
1170.70 42.9634
1170.80 43.1448
1170.90 43.17027
1171.00 43.10565
1171.10 43.07277
1171.20 43.06868
1171.30 43.07678
1171.40 43.0406
1171.50 43.00769
1171.60 43.04072
1171.70 43.15359
1171.80 43.2483
1171.90 43.04861
1172.00 42.73421
1172.10 42.43654
1172.20 42.35255
1172.30 42.3972
1172.40 42.43597
1172.50 42.51748
1172.60 42.69931
1172.70 42.88534
1172.80 43.07578
1172.90 43.20323
1173.00 43.30289
1173.10 43.39142
1173.20 43.3185
1173.30 43.32409
1173.40 43.29466
1173.50 43.12398
1173.60 42.86214
1173.70 42.61071
1173.80 42.53407
1173.90 42.65522
1174.00 42.72514
1174.10 42.82585
1174.20 43.11372
1174.30 43.39732
1174.40 43.68687
1174.50 43.70572
1174.60 43.71361
1174.70 43.69097
1174.80 43.56761
1174.90 43.43136
1175.00 43.29907
1175.10 43.04191
1175.20 42.58938
1175.30 42.14966
1175.40 41.74911
1175.50 41.66538
1175.60 41.54878
1175.70 41.45329
1175.80 41.48806
1175.90 41.64291
1176.00 41.76455
1176.10 41.5748
1176.20 41.28813
1176.30 41.00387
1176.40 40.6532
1176.50 40.18824
1176.60 39.65937
1176.70 38.87334
1176.80 37.28622
1176.90 35.89096
1177.00 34.36665
1177.10 31.42054
1177.20 28.47574
1177.30 25.66222
1177.40 24.1099
1177.50 22.61012
1177.60 21.36368
1177.70 21.71177
1177.80 24.10081
1177.90 26.22352
1178.00 28.37306
1178.10 30.59502
1178.20 32.85748
1178.30 34.99777
1178.40 35.95612
1178.50 37.08951
1178.60 38.18994
1178.70 38.9409
1178.80 39.6359
1178.90 40.33375
1179.00 40.8259
1179.10 41.11835
1179.20 41.41131
1179.30 41.62344
1179.40 41.59697
1179.50 41.6067
1179.60 41.60924
1179.70 41.72418
1179.80 41.83658
1179.90 41.96304
1180.00 41.98963
1180.10 41.92218
1180.20 41.86493
1180.30 41.99692
1180.40 42.33354
1180.50 42.6606
1180.60 42.85144
1180.70 42.77891
1180.80 42.77637
1180.90 42.76903
1181.00 42.71098
1181.10 42.63667
1181.20 42.56391
1181.30 42.48464
1181.40 42.38998
1181.50 42.29264
1181.60 42.28382
1181.70 42.29122
1181.80 42.29005
1181.90 42.3499
1182.00 42.56002
1182.10 42.76307
1182.20 42.94413
1182.30 42.89436
1182.40 42.89346
1182.50 42.84944
1182.60 42.40221
1182.70 41.94271
1182.80 41.46043
1182.90 41.07081
1183.00 40.68633
1183.10 40.34237
1183.20 40.22396
1183.30 40.53317
1183.40 40.806
1183.50 41.05118
1183.60 41.09026
1183.70 41.2252
1183.80 41.34016
1183.90 41.39034
1184.00 41.29536
1184.10 41.26105
1184.20 41.69299
1184.30 42.37266
1184.40 42.99003
1184.50 43.26048
1184.60 43.0499
1184.70 42.93006
1184.80 42.74854
1184.90 42.23862
1185.00 41.76224
1185.10 41.3148
1185.20 41.24109
1185.30 41.14147
1185.40 41.08122
1185.50 41.32322
1185.60 41.64066
1185.70 41.91974
1185.80 42.1387
1185.90 42.28389
1186.00 42.45799
1186.10 42.60483
1186.20 42.60663
1186.30 42.5641
1186.40 42.51315
1186.50 42.49416
1186.60 42.56953
1186.70 42.62454
1186.80 42.38607
1186.90 42.05463
1187.00 41.75668
1187.10 41.62764
1187.20 41.64009
1187.30 41.61962
1187.40 41.70402
1187.50 42.13466
1187.60 42.52214
1187.70 42.89028
1187.80 42.59123
1187.90 42.38753
1188.00 42.119
1188.10 41.35052
1188.20 40.54703
1188.30 39.69341
1188.40 38.5653
1188.50 37.19644
1188.60 35.95127
1188.70 35.47625
1188.80 36.47435
1188.90 37.19766
1189.00 37.98037
1189.10 39.09768
1189.20 40.26776
1189.30 41.31937
1189.40 41.43268
1189.50 41.40509
1189.60 41.39365
1189.70 41.50387
1189.80 41.76159
1189.90 42.03677
1190.00 42.25902
1190.10 42.37656
1190.20 42.53049
1190.30 42.626
1190.40 42.34368
1190.50 42.06112
1190.60 41.77209
1190.70 41.61814
1190.80 41.45285
1190.90 41.34005
1191.00 41.47367
1191.10 41.68716
1191.20 41.85601
1191.30 41.99578
1191.40 42.13327
1191.50 42.30898
1191.60 42.46932
1191.70 42.54335
1191.80 42.6376
1191.90 42.73618
1192.00 42.7853
1192.10 42.76567
1192.20 42.72953
1192.30 42.57233
1192.40 42.39355
1192.50 42.23306
1192.60 42.14189
1192.70 42.14507
1192.80 42.13546
1192.90 42.15606
1193.00 42.2545
1193.10 42.33012
1193.20 42.39801
1193.30 42.40169
1193.40 42.43513
1193.50 42.43394
1193.60 42.05647
1193.70 41.60865
1193.80 41.18241
1193.90 40.78714
1194.00 40.42068
1194.10 40.04244
1194.20 39.78777
1194.30 39.92931
1194.40 39.99214
1194.50 40.0457
1194.60 39.93096
1194.70 39.94361
1194.80 39.91399
1194.90 39.46479
1195.00 38.84825
1195.10 38.29468
1195.20 38.25013
1195.30 38.59496
1195.40 38.8594
1195.50 39.24627
1195.60 39.84864
1195.70 40.44226
1195.80 40.98376
1195.90 40.54116
1196.00 40.28817
1196.10 40.02493
1196.20 39.75881
1196.30 39.46712
1196.40 39.19435
1196.50 39.09544
1196.60 39.14569
1196.70 39.18344
1196.80 39.20345
1196.90 39.18671
1197.00 39.13808
1197.10 38.92965
1197.20 37.86449
1197.30 36.97957
1197.40 36.08042
1197.50 35.1796
1197.60 34.10038
1197.70 33.23177
1197.80 33.39968
1197.90 34.11965
1198.00 34.74254
1198.10 35.33451
1198.20 35.9129
1198.30 36.52724
1198.40 37.13733
1198.50 37.80352
1198.60 38.37888
1198.70 38.92454
1198.80 38.80538
1198.90 38.85601
1199.00 38.82537
1199.10 38.39774
1199.20 37.78018
1199.30 37.21277
1199.40 36.90719
1199.50 36.92446
1199.60 36.87268
1199.70 36.90262
1199.80 37.19237
1199.90 37.44044
1200.00 37.67353
