# Version 2.1 - nm, norm@500 to 1, cut digits
# Wavelength(nm)  Flambda(ergs/cm^s/s/nm)
300.00 0.005962652
300.10 0.007993791
300.20 0.009198496
300.30 0.009655133
300.40 0.009733529
300.50 0.009731409
300.60 0.009745199
300.70 0.009770659
300.80 0.009804992
300.90 0.009847907
301.00 0.009900416
301.10 0.009963031
301.20 0.01003417
301.30 0.0101103
301.40 0.01018821
301.50 0.01026629
301.60 0.01034421
301.70 0.01042203
301.80 0.0104998
301.90 0.01057754
302.00 0.01065529
302.10 0.01073303
302.20 0.01081077
302.30 0.0108885
302.40 0.01096618
302.50 0.01104379
302.60 0.01112128
302.70 0.01119889
302.80 0.01127786
302.90 0.01136062
303.00 0.01144985
303.10 0.01154675
303.20 0.01165013
303.30 0.01175728
303.40 0.0118658
303.50 0.01197445
303.60 0.01208297
303.70 0.01219141
303.80 0.01229982
303.90 0.01240821
304.00 0.0125166
304.10 0.01262499
304.20 0.01273339
304.30 0.01284183
304.40 0.01295039
304.50 0.01305919
304.60 0.01316837
304.70 0.01327715
304.80 0.01338178
304.90 0.01347484
305.00 0.01354809
305.10 0.01359788
305.20 0.01362787
305.30 0.01364629
305.40 0.01366056
305.50 0.01367442
305.60 0.01368868
305.70 0.01370316
305.80 0.01371777
305.90 0.01373242
306.00 0.01374707
306.10 0.01376173
306.20 0.01377639
306.30 0.01379105
306.40 0.01380571
306.50 0.01382037
306.60 0.01383503
306.70 0.01384969
306.80 0.01386435
306.90 0.01387905
307.00 0.01389378
307.10 0.01390857
307.20 0.0139234
307.30 0.01393825
307.40 0.01395312
307.50 0.01396798
307.60 0.01398284
307.70 0.01399771
307.80 0.01401257
307.90 0.01402743
308.00 0.0140423
308.10 0.01405716
308.20 0.014072
308.30 0.01408672
308.40 0.01410114
308.50 0.014115
308.60 0.01412787
308.70 0.01414175
308.80 0.01416602
308.90 0.01421925
309.00 0.01432204
309.10 0.01448356
309.20 0.01469463
309.30 0.01493467
309.40 0.01518509
309.50 0.01543652
309.60 0.01568698
309.70 0.01593685
309.80 0.01618644
309.90 0.01643591
310.00 0.01668535
310.10 0.01693479
310.20 0.01718426
310.30 0.01743385
310.40 0.01768373
310.50 0.01793418
310.60 0.01818563
310.70 0.01843606
310.80 0.01867604
310.90 0.01888691
311.00 0.01904797
311.10 0.01914998
311.20 0.01920218
311.30 0.01922526
311.40 0.01923791
311.50 0.01924953
311.60 0.01926214
311.70 0.01927533
311.80 0.01928882
311.90 0.01930242
312.00 0.01931604
312.10 0.01932967
312.20 0.01934327
312.30 0.01935672
312.40 0.0193698
312.50 0.01938218
312.60 0.01939333
312.70 0.01940574
312.80 0.01943105
312.90 0.01949231
313.00 0.0196151
313.10 0.01981081
313.20 0.02006805
313.30 0.02036124
313.40 0.02066733
313.50 0.02097467
313.60 0.0212808
313.70 0.02158621
313.80 0.02189126
313.90 0.02219616
314.00 0.02250104
314.10 0.02280591
314.20 0.02311076
314.30 0.02341551
314.40 0.02372
314.50 0.024024
314.60 0.02432715
314.70 0.02463118
314.80 0.02494418
314.90 0.02528221
315.00 0.02566307
315.10 0.02609469
315.20 0.02656914
315.30 0.02706861
315.40 0.02757707
315.50 0.02808639
315.60 0.02859487
315.70 0.02910286
315.80 0.02961059
315.90 0.03011821
316.00 0.03062582
316.10 0.03113343
316.20 0.03164112
316.30 0.03214918
316.40 0.03265816
316.50 0.03316898
316.60 0.03368291
316.70 0.03419363
316.80 0.03467136
316.90 0.03505707
317.00 0.03528536
317.10 0.03532707
317.20 0.03521135
317.30 0.03500362
317.40 0.0347629
317.50 0.03451897
317.60 0.03427814
317.70 0.03403915
317.80 0.03380109
317.90 0.0335634
318.00 0.03332579
318.10 0.03308818
318.20 0.0328505
318.30 0.03261255
318.40 0.03237388
318.50 0.03213381
318.60 0.03189136
318.70 0.03165137
318.80 0.03143663
318.90 0.03129233
319.00 0.03126854
319.10 0.03138756
319.20 0.0316271
319.30 0.03193708
319.40 0.0322723
319.50 0.03260999
319.60 0.03294529
319.70 0.0332792
319.80 0.03361239
319.90 0.0339453
320.00 0.03427814
320.10 0.03461099
320.20 0.03494386
320.30 0.03527683
320.40 0.03561006
320.50 0.03594382
320.60 0.03627846
320.70 0.03661218
320.80 0.03693657
320.90 0.0372349
321.00 0.03748867
321.10 0.03768961
321.20 0.03784598
321.30 0.0379763
321.40 0.03809728
321.50 0.03821736
321.60 0.03833831
321.70 0.03845978
321.80 0.03858152
321.90 0.03870335
322.00 0.03882522
322.10 0.03894708
322.20 0.03906885
322.30 0.03919025
322.40 0.03931068
322.50 0.03942922
322.60 0.03954455
322.70 0.03966319
322.80 0.03981595
322.90 0.04006387
323.00 0.04047458
323.10 0.04107824
323.20 0.0418447
323.30 0.04270631
323.40 0.04360204
323.50 0.04450109
323.60 0.04539692
323.70 0.04629086
323.80 0.04718384
323.90 0.04807644
324.00 0.04896895
324.10 0.04986146
324.20 0.05075398
324.30 0.05164657
324.40 0.05253931
324.50 0.05343236
324.60 0.05432594
324.70 0.05521897
324.80 0.05610646
324.90 0.0569785
325.00 0.05782408
325.10 0.05863833
325.20 0.05942613
325.30 0.06019848
325.40 0.06096528
325.50 0.06173155
325.60 0.06249833
325.70 0.06326543
325.80 0.06403268
325.90 0.06479999
326.00 0.06556732
326.10 0.06633464
326.20 0.06710194
326.30 0.0678691
326.40 0.06863593
326.50 0.06940209
326.60 0.07016713
326.70 0.07093333
326.80 0.07171147
326.90 0.07252293
327.00 0.07339139
327.10 0.0743274
327.20 0.0753204
327.30 0.07634672
327.40 0.07738499
327.50 0.07842442
327.60 0.07946272
327.70 0.08050036
327.80 0.08153766
327.90 0.08257483
328.00 0.08361197
328.10 0.08464911
328.20 0.08568643
328.30 0.08672453
328.40 0.0877646
328.50 0.08880856
328.60 0.08985913
328.70 0.09090289
328.80 0.09187655
328.90 0.09265475
329.00 0.09309852
329.10 0.09314594
329.20 0.09285892
329.30 0.09237644
329.40 0.09182388
329.50 0.09126449
329.60 0.09071171
329.70 0.09016283
329.80 0.08961591
329.90 0.08906978
330.00 0.08852383
330.10 0.08797788
330.20 0.08743179
330.30 0.08688513
330.40 0.086337
330.50 0.08578598
330.60 0.08523006
330.70 0.0846792
330.80 0.08418034
330.90 0.08382647
331.00 0.08372068
331.10 0.08390891
331.20 0.08434523
331.30 0.08492653
331.40 0.08555984
331.50 0.0861982
331.60 0.08683166
331.70 0.08746223
331.80 0.08809134
331.90 0.08871986
332.00 0.08934826
332.10 0.08997666
332.20 0.09060514
332.30 0.09123399
332.40 0.09186376
332.50 0.09249536
332.60 0.09313007
332.70 0.09376157
332.80 0.09436015
332.90 0.09486693
333.00 0.09521664
333.10 0.09538019
333.20 0.09538667
333.30 0.09530135
333.40 0.09518311
333.50 0.09506166
333.60 0.09494332
333.70 0.09482681
333.80 0.09471122
333.90 0.094596
334.00 0.09448087
334.10 0.0943646
334.20 0.09424535
334.30 0.09412209
334.40 0.09399473
334.50 0.09386411
334.60 0.0938362
334.70 0.0941476
334.80 0.09488263
334.90 0.09560309
335.00 0.09548468
335.10 0.09429365
335.20 0.09329866
335.30 0.09489081
335.40 0.1007538
335.50 0.109991
335.60 0.1190156
335.70 0.1236511
335.80 0.1218396
335.90 0.1146649
336.00 0.1051916
336.10 0.09656043
336.20 0.0909449
336.30 0.08923341
336.40 0.09064185
336.50 0.09280797
336.60 0.09319635
336.70 0.09119667
336.80 0.08890671
336.90 0.08949582
337.00 0.09450373
337.10 0.1023593
337.20 0.1092912
337.30 0.1119288
337.40 0.1096745
337.50 0.1050811
337.60 0.1019006
337.70 0.1022994
337.80 0.1055881
337.90 0.109484
338.00 0.1122494
338.10 0.1134154
338.20 0.1127312
338.30 0.1093546
338.40 0.1029782
338.50 0.09550189
338.60 0.0907413
338.70 0.09167103
338.80 0.09763359
338.90 0.104546
339.00 0.1081788
339.10 0.1076255
339.20 0.1058679
339.30 0.1068596
339.40 0.1119023
339.50 0.1188134
339.60 0.1243073
339.70 0.126772
339.80 0.1266829
339.90 0.1249619
340.00 0.1219732
340.10 0.1180835
340.20 0.1141435
340.30 0.1107894
340.40 0.1075526
340.50 0.1033263
340.60 0.09782323
340.70 0.09218034
340.80 0.08803874
340.90 0.08632847
341.00 0.08698177
341.10 0.08942913
341.20 0.09302292
341.30 0.09700516
341.40 0.1004797
341.50 0.102765
341.60 0.1038115
341.70 0.104229
341.80 0.1048343
341.90 0.1060559
342.00 0.1075582
342.10 0.1083064
342.20 0.1071932
342.30 0.1039625
342.40 0.09970856
342.50 0.09631588
342.60 0.09518433
342.70 0.09635026
342.80 0.09867207
342.90 0.1007302
343.00 0.1017016
343.10 0.1017316
343.20 0.1016208
343.30 0.1020562
343.40 0.1030191
343.50 0.1039254
343.60 0.1042467
343.70 0.1038358
343.80 0.1028015
343.90 0.1014041
344.00 0.1001221
344.10 0.09951006
344.20 0.09970966
344.30 0.1002021
344.40 0.100259
344.50 0.09963378
344.60 0.09875639
344.70 0.09835074
344.80 0.0989711
344.90 0.1008158
345.00 0.1037883
345.10 0.1075755
345.20 0.1116627
345.30 0.1153307
345.40 0.1177704
345.50 0.1184775
345.60 0.1176823
345.70 0.1163126
345.80 0.1153596
345.90 0.1151835
346.00 0.1153506
346.10 0.1150065
346.20 0.1134669
346.30 0.110751
346.40 0.1077532
346.50 0.1057201
346.60 0.105257
346.70 0.1057989
346.80 0.1061347
346.90 0.1053912
347.00 0.1034809
347.10 0.1009342
347.20 0.09863475
347.30 0.09756889
347.40 0.0983635
347.50 0.1007884
347.60 0.103864
347.70 0.1066175
347.80 0.1087394
347.90 0.1105706
348.00 0.1125881
348.10 0.1148874
348.20 0.1170154
348.30 0.1182753
348.40 0.1182959
348.50 0.1173584
348.60 0.1161044
348.70 0.1149471
348.80 0.1138736
348.90 0.1127373
349.00 0.1115347
349.10 0.1103729
349.20 0.1093491
349.30 0.1086077
349.40 0.1084119
349.50 0.1089288
349.60 0.1098973
349.70 0.1106662
349.80 0.1107685
349.90 0.1105733
350.00 0.1112446
350.10 0.1138271
350.20 0.1182532
350.30 0.1232374
350.40 0.1271644
350.50 0.1291211
350.60 0.129201
350.70 0.1280642
350.80 0.1263839
350.90 0.1245302
351.00 0.1224249
351.10 0.119574
351.20 0.1154413
351.30 0.1101123
351.40 0.1046585
351.50 0.1006151
351.60 0.09888199
351.70 0.09908287
351.80 0.0999974
351.90 0.1005779
352.00 0.1005338
352.10 0.1000809
352.20 0.09946478
352.30 0.09889352
352.40 0.09882216
352.50 0.1000944
352.60 0.1034804
352.70 0.108884
352.80 0.1150371
352.90 0.1202127
353.00 0.1235063
353.10 0.1254218
353.20 0.127115
353.30 0.1292216
353.40 0.13158
353.50 0.1338717
353.60 0.136158
353.70 0.1386833
353.80 0.1414512
353.90 0.1442073
354.00 0.1466166
354.10 0.1482366
354.20 0.1485264
354.30 0.147264
354.40 0.1450177
354.50 0.1429519
354.60 0.1419509
354.70 0.1419602
354.80 0.1422362
354.90 0.1421204
355.00 0.1414912
355.10 0.1406143
355.20 0.1397732
355.30 0.139101
355.40 0.1386646
355.50 0.1384961
355.60 0.1384466
355.70 0.1380909
355.80 0.1369272
355.90 0.1347972
356.00 0.1320768
356.10 0.1293702
356.20 0.12699
356.30 0.1247022
356.40 0.1219735
356.50 0.1185392
356.60 0.1148184
356.70 0.1117613
356.80 0.1101833
356.90 0.1101607
357.00 0.1110365
357.10 0.1119336
357.20 0.1122171
357.30 0.1116228
357.40 0.1101735
357.50 0.1080889
357.60 0.1057221
357.70 0.1034352
357.80 0.1014491
357.90 0.09979358
358.00 0.09844145
358.10 0.09754046
358.20 0.0974754
358.30 0.09861534
358.40 0.1009476
358.50 0.1039436
358.60 0.1067653
358.70 0.1086275
358.80 0.1091269
358.90 0.1084395
359.00 0.107335
359.10 0.1068894
359.20 0.1078924
359.30 0.1102953
359.40 0.1131485
359.50 0.1151975
359.60 0.1157364
359.70 0.1150495
359.80 0.1140976
359.90 0.1137099
360.00 0.1139273
360.10 0.1140031
360.20 0.1130355
360.30 0.1106839
360.40 0.1074438
360.50 0.1043922
360.60 0.1026835
360.70 0.1030869
360.80 0.1056381
360.90 0.1095581
361.00 0.1136387
361.10 0.1169354
361.20 0.1192208
361.30 0.1207908
361.40 0.1218961
361.50 0.1224846
361.60 0.1225383
361.70 0.1224407
361.80 0.1227666
361.90 0.1236934
362.00 0.1247847
362.10 0.1254441
362.20 0.1254634
362.30 0.1250806
362.40 0.124693
362.50 0.1246328
362.60 0.125011
362.70 0.1255271
362.80 0.1255211
362.90 0.1244968
363.00 0.1226954
363.10 0.121023
363.20 0.1203172
363.30 0.1207195
363.40 0.1217386
363.50 0.1227667
363.60 0.1234728
363.70 0.1238341
363.80 0.1239298
363.90 0.1237386
364.00 0.123087
364.10 0.1217705
364.20 0.1197573
364.30 0.1173032
364.40 0.1148969
364.50 0.1130986
364.60 0.1123192
364.70 0.1125871
364.80 0.113498
364.90 0.1145188
365.00 0.1154768
365.10 0.116741
365.20 0.1187796
365.30 0.1214817
365.40 0.1239902
365.50 0.1253014
365.60 0.1250985
365.70 0.1239935
365.80 0.1229357
365.90 0.1224383
366.00 0.1223846
366.10 0.1224673
366.20 0.1226638
366.30 0.1231959
366.40 0.1241275
366.50 0.1251426
366.60 0.125713
366.70 0.1254417
366.80 0.1242704
366.90 0.1224485
367.00 0.1204006
367.10 0.1186092
367.20 0.1175124
367.30 0.1173912
367.40 0.1182452
367.50 0.1197682
367.60 0.1214977
367.70 0.1230571
367.80 0.1243148
367.90 0.1253564
368.00 0.1263239
368.10 0.1272543
368.20 0.1280229
368.30 0.1284053
368.40 0.1282228
368.50 0.1275075
368.60 0.1265723
368.70 0.1258787
368.80 0.1257529
368.90 0.1261837
369.00 0.126916
369.10 0.1277517
369.20 0.1286868
369.30 0.1297188
369.40 0.1306011
369.50 0.1309041
369.60 0.1303872
369.70 0.12929
369.80 0.1282489
369.90 0.1279334
370.00 0.1286978
370.10 0.1304417
370.20 0.1327251
370.30 0.135007
370.40 0.1368324
370.50 0.1379078
370.60 0.138134
370.70 0.1376886
370.80 0.1370382
370.90 0.1367324
371.00 0.1370484
371.10 0.1377624
371.20 0.1382342
371.30 0.1377373
371.40 0.1358624
371.50 0.1327855
371.60 0.1292425
371.70 0.1261824
371.80 0.1243322
371.90 0.1239616
372.00 0.1249071
372.10 0.126619
372.20 0.1281164
372.30 0.1281537
372.40 0.1257956
372.50 0.121147
372.60 0.1155769
372.70 0.1111004
372.80 0.1093458
372.90 0.1108388
373.00 0.1149675
373.10 0.1204315
373.20 0.1257867
373.30 0.1298376
373.40 0.1318758
373.50 0.1317251
373.60 0.1295993
373.70 0.1259022
373.80 0.1211425
373.90 0.1159877
374.00 0.1112816
374.10 0.1078968
374.20 0.1065082
374.30 0.1074745
374.40 0.1108708
374.50 0.1165151
374.60 0.1238907
374.70 0.1320335
374.80 0.139587
374.90 0.1451517
375.00 0.147773
375.10 0.1472544
375.20 0.1441219
375.30 0.1393502
375.40 0.1340624
375.50 0.1292943
375.60 0.1257452
375.70 0.1235849
375.80 0.1224663
375.90 0.1217942
376.00 0.1211241
376.10 0.1204757
376.20 0.1204011
376.30 0.1217527
376.40 0.125267
376.50 0.131252
376.60 0.1395827
376.70 0.1498009
376.80 0.1610417
376.90 0.1718302
377.00 0.1801969
377.10 0.184363
377.20 0.1835673
377.30 0.1783669
377.40 0.1702256
377.50 0.1608139
377.60 0.1515265
377.70 0.1433521
377.80 0.1368442
377.90 0.1320945
378.00 0.128809
378.10 0.1265447
378.20 0.124962
378.30 0.1238837
378.40 0.1231875
378.50 0.1227683
378.60 0.1226367
378.70 0.1229759
378.80 0.1240584
378.90 0.1261915
379.00 0.1298213
379.10 0.1355971
379.20 0.144108
379.30 0.1553859
379.40 0.1685966
379.50 0.1821618
379.60 0.19413
379.70 0.2025682
379.80 0.2060026
379.90 0.2038837
380.00 0.1968741
380.10 0.1866558
380.20 0.1752808
380.30 0.1644592
380.40 0.1551962
380.50 0.147828
380.60 0.1422364
380.70 0.1380294
380.80 0.1346717
380.90 0.1317111
381.00 0.1289999
381.10 0.1266844
381.20 0.1249301
381.30 0.1236641
381.40 0.1226534
381.50 0.1218433
381.60 0.121252
381.70 0.1208414
381.80 0.1202456
381.90 0.1185634
382.00 0.1147425
382.10 0.1042204
382.20 0.07208926
382.30 0.03669785
382.40 0.001720151
382.50 0
382.60 0
382.70 0.06472633
382.80 0.1595515
382.90 0.2266169
383.00 0.3031725
383.10 0.4109455
383.20 0.4841247
383.30 0.5340009
383.40 0.5504284
383.50 0.524729
383.60 0.4706512
383.70 0.4195438
383.80 0.3894534
383.90 0.3678422
384.00 0.3332056
384.10 0.2779334
384.20 0.2102813
384.30 0.1439919
384.40 0.1033755
384.50 0.1353016
384.60 0.2015248
384.70 0.3348736
384.80 0.4605141
384.90 0.516006
385.00 0.4571264
385.10 0.2971435
385.20 0.1255065
385.30 0.05956172
385.40 0.1418035
385.50 0.3004079
385.60 0.4222696
385.70 0.4446492
385.80 0.3753309
385.90 0.2605
386.00 0.1565937
386.10 0.1050803
386.20 0.1104676
386.30 0.1417255
386.40 0.1706232
386.50 0.199834
386.60 0.2444235
386.70 0.3053327
386.80 0.3653532
386.90 0.4097084
387.00 0.4351887
387.10 0.4422176
387.20 0.4355441
387.30 0.4278876
387.40 0.4336588
387.50 0.446221
387.60 0.4366345
387.70 0.3916079
387.80 0.3475457
387.90 0.3540375
388.00 0.4070573
388.10 0.4492869
388.20 0.4370097
388.30 0.3844126
388.40 0.322022
388.50 0.2638274
388.60 0.2321615
388.70 0.2703968
388.80 0.391959
388.90 0.5364024
389.00 0.6165442
389.10 0.6019914
389.20 0.5294326
389.30 0.437682
389.40 0.3311563
389.50 0.2210082
389.60 0.1652468
389.70 0.1089852
389.80 0.1212151
389.90 0.1129905
390.00 0.05768595
390.10 0.0699095
390.20 0.09716311
390.30 0.1524306
390.40 0.2534783
390.50 0.2871306
390.60 0.271753
390.70 0.2677822
390.80 0.3005974
390.90 0.3319348
391.00 0.3077686
391.10 0.2092366
391.20 0.06548949
391.30 0.05674152
391.40 0.0819675
391.50 0.1012511
391.60 0.1126807
391.70 0.1270977
391.80 0.1555935
391.90 0.2006432
392.00 0.243984
392.10 0.2755166
392.20 0.2803661
392.30 0.2854978
392.40 0.2322122
392.50 0.1504342
392.60 0.1216228
392.70 0.1106643
392.80 0.1110421
392.90 0.1390212
393.00 0.3244783
393.10 0.7255394
393.20 1.236313
393.30 1.716651
393.40 1.943773
393.50 1.774622
393.60 1.299662
393.70 0.7827241
393.80 0.443045
393.90 0.3052985
394.00 0.2495812
394.10 0.1640267
394.20 0.04317588
394.30 0.006180555
394.40 0.01633729
394.50 0.06471189
394.60 0.1304734
394.70 0.2069179
394.80 0.2248398
394.90 0.2434214
395.00 0.2503782
395.10 0.2495623
395.20 0.2386656
395.30 0.2228766
395.40 0.2213179
395.50 0.323923
395.60 0.5028748
395.70 0.5813549
395.80 0.5148437
395.90 0.359227
396.00 0.2289707
396.10 0.1569576
396.20 0.1025607
396.30 0.0832195
396.40 0.1043104
396.50 0.2223486
396.60 0.4922511
396.70 0.9096669
396.80 1.392499
396.90 1.767547
397.00 1.882865
397.10 1.708645
397.20 1.337345
397.30 0.894664
397.40 0.5071442
397.50 0.2609838
397.60 0.1823375
397.70 0.2305535
397.80 0.3198649
397.90 0.3813537
398.00 0.40437
398.10 0.4170469
398.20 0.436572
398.30 0.4528681
398.40 0.4488348
398.50 0.4173735
398.60 0.3651758
398.70 0.3022827
398.80 0.2921201
398.90 0.2705593
399.00 0.2447687
399.10 0.2249901
399.20 0.2134518
399.30 0.2031001
399.40 0.1853347
399.50 0.1635067
399.60 0.1665702
399.70 0.1982669
399.80 0.2247511
399.90 0.235635
400.00 0.2298569
400.10 0.217565
400.20 0.2087105
400.30 0.2013431
400.40 0.1874616
400.50 0.173582
400.60 0.1773871
400.70 0.1728886
400.80 0.1764219
400.90 0.2207485
401.00 0.2608485
401.10 0.2705181
401.20 0.2373679
401.30 0.220253
401.40 0.2211633
401.50 0.2095381
401.60 0.1866986
401.70 0.214815
401.80 0.2482015
401.90 0.2713437
402.00 0.282905
402.10 0.2938609
402.20 0.3183985
402.30 0.3541765
402.40 0.3774548
402.50 0.3690486
402.60 0.3349053
402.70 0.2898674
402.80 0.2380841
402.90 0.1832988
403.00 0.1419411
403.10 0.131392
403.20 0.1459203
403.30 0.1594435
403.40 0.1523134
403.50 0.1254706
403.60 0.09412538
403.70 0.08632224
403.80 0.09864898
403.90 0.1169937
404.00 0.1440074
404.10 0.1737627
404.20 0.2100797
404.30 0.2593976
404.40 0.3261171
404.50 0.4010806
404.60 0.4524265
404.70 0.4406333
404.80 0.3602374
404.90 0.2606688
405.00 0.203895
405.10 0.2073767
405.20 0.239776
405.30 0.2661983
405.40 0.2819086
405.50 0.2962422
405.60 0.3011194
405.70 0.2796498
405.80 0.2434511
405.90 0.2217273
406.00 0.2347731
406.10 0.2696417
406.20 0.2977708
406.30 0.3101144
406.40 0.3218857
406.50 0.3383561
406.60 0.3544261
406.70 0.3606092
406.80 0.3507419
406.90 0.3251646
407.00 0.2822081
407.10 0.2243987
407.20 0.1921472
407.30 0.1750841
407.40 0.1523817
407.50 0.1693491
407.60 0.1909723
407.70 0.2032578
407.80 0.2153951
407.90 0.2327822
408.00 0.2504806
408.10 0.2600479
408.20 0.2559374
408.30 0.2408787
408.40 0.220805
408.50 0.2058336
408.60 0.203646
408.70 0.2084461
408.80 0.2012456
408.90 0.1690964
409.00 0.1289447
409.10 0.1177096
409.20 0.1486507
409.30 0.1938026
409.40 0.2008802
409.50 0.1613239
409.60 0.1295717
409.70 0.1733193
409.80 0.3129104
409.90 0.5181544
410.00 0.7406644
410.10 0.9266864
410.20 1.013679
410.30 0.9541867
410.40 0.7613166
410.50 0.5149934
410.60 0.3083492
410.70 0.2441325
410.80 0.213893
410.90 0.1931792
411.00 0.1779258
411.10 0.1712373
411.20 0.1675901
411.30 0.1577145
411.40 0.1433123
411.50 0.1370557
411.60 0.2274866
411.70 0.389143
411.80 0.5025004
411.90 0.5337208
412.00 0.4934854
412.10 0.4201453
412.20 0.3484634
412.30 0.3000058
412.40 0.2711563
412.50 0.2489477
412.60 0.2253669
412.70 0.1990633
412.80 0.1708329
412.90 0.1427087
413.00 0.1212351
413.10 0.1148934
413.20 0.1234714
413.30 0.1386049
413.40 0.1524962
413.50 0.1613939
413.60 0.1658962
413.70 0.1704982
413.80 0.1778159
413.90 0.179099
414.00 0.1576737
414.10 0.1039767
414.20 0.09808095
414.30 0.09690245
414.40 0.09868741
414.50 0.1088246
414.60 0.1350283
414.70 0.171316
414.80 0.2465276
414.90 0.2864949
415.00 0.2368414
415.10 0.1696659
415.20 0.1400639
415.30 0.115329
415.40 0.1017617
415.50 0.1093921
415.60 0.1413625
415.70 0.1856388
415.80 0.218124
415.90 0.2273738
416.00 0.238743
416.10 0.2543186
416.20 0.2623318
416.30 0.2419319
416.40 0.1799425
416.50 0.09472353
416.60 0.08542626
416.70 0.1090971
416.80 0.1438675
416.90 0.1637659
417.00 0.17913
417.10 0.2226638
417.20 0.2273733
417.30 0.2133732
417.40 0.2077635
417.50 0.217821
417.60 0.2292465
417.70 0.2252868
417.80 0.2054521
417.90 0.2217053
418.00 0.2226796
418.10 0.2163703
418.20 0.2019271
418.30 0.1689549
418.40 0.123728
418.50 0.09778488
418.60 0.1723192
418.70 0.2792902
418.80 0.3944929
418.90 0.495716
419.00 0.5710276
419.10 0.6081861
419.20 0.5933974
419.30 0.5283725
419.40 0.438677
419.50 0.3532657
419.60 0.2847004
419.70 0.2345833
419.80 0.2044108
419.90 0.2002884
420.00 0.2113574
420.10 0.2112225
420.20 0.1817974
420.30 0.1587815
420.40 0.1595783
420.50 0.1685591
420.60 0.1862161
420.70 0.2089217
420.80 0.2584125
420.90 0.2831836
421.00 0.2705298
421.10 0.2363619
421.20 0.2116085
421.30 0.218793
421.40 0.2515436
421.50 0.2977679
421.60 0.3342371
421.70 0.3462896
421.80 0.331186
421.90 0.2970149
422.00 0.2597574
422.10 0.2392551
422.20 0.2453504
422.30 0.2598673
422.40 0.2421861
422.50 0.1682476
422.60 0.06904053
422.70 0.04733013
422.80 0.04397398
422.90 0.04865921
423.00 0.04890337
423.10 0.04107658
423.20 0.0285493
423.30 0.01497294
423.40 0.003239992
423.50 0.03511672
423.60 0.1219163
423.70 0.1934022
423.80 0.2371106
423.90 0.2489449
424.00 0.2287489
424.10 0.1824177
424.20 0.1231974
424.30 0.0662522
424.40 0.04367225
424.50 0.04454062
424.60 0.04378017
424.70 0.03816813
424.80 0.07208313
424.90 0.1306322
425.00 0.1916645
425.10 0.2326001
425.20 0.2335577
425.30 0.1967678
425.40 0.1467626
425.50 0.1147141
425.60 0.1185036
425.70 0.1531005
425.80 0.1969912
425.90 0.2262125
426.00 0.2294375
426.10 0.2142348
426.20 0.1956612
426.30 0.1822767
426.40 0.1799521
426.50 0.1923517
426.60 0.2095791
426.70 0.2039157
426.80 0.1540598
426.90 0.105377
427.00 0.118548
427.10 0.1269589
427.20 0.1283117
427.30 0.1248792
427.40 0.1191869
427.50 0.1090111
427.60 0.09276457
427.70 0.07220787
427.80 0.06606412
427.90 0.05554506
428.00 0.04653689
428.10 0.06312877
428.20 0.105265
428.30 0.1532398
428.40 0.1789654
428.50 0.1696656
428.60 0.1270867
428.70 0.07542439
428.80 0.04506202
428.90 0.05167062
429.00 0.08748765
429.10 0.1624174
429.20 0.2281375
429.30 0.26018
429.40 0.2743281
429.50 0.2856763
429.60 0.2945998
429.70 0.2882912
429.80 0.2593711
429.90 0.223546
430.00 0.2111996
430.10 0.2346837
430.20 0.2725295
430.30 0.2942165
430.40 0.2946127
430.50 0.2954701
430.60 0.3095474
430.70 0.3206317
430.80 0.3073526
430.90 0.2697468
431.00 0.2244532
431.10 0.1856432
431.20 0.1570993
431.30 0.1360502
431.40 0.1144922
431.50 0.08296829
431.60 0.05644721
431.70 0.04479767
431.80 0.03827264
431.90 0.03756633
432.00 0.05319334
432.10 0.111465
432.20 0.1859313
432.30 0.2581633
432.40 0.3044763
432.50 0.3104333
432.60 0.2783936
432.70 0.2302411
432.80 0.1984564
432.90 0.2006867
433.00 0.2210826
433.10 0.2253274
433.20 0.2233234
433.30 0.2320091
433.40 0.2336437
433.50 0.2327443
433.60 0.239806
433.70 0.2877023
433.80 0.4848197
433.90 0.7897085
434.00 1.130779
434.10 1.3641
434.20 1.369364
434.30 1.149971
434.40 0.8321318
434.50 0.5630789
434.60 0.4128129
434.70 0.3612192
434.80 0.3513458
434.90 0.3403528
435.00 0.313489
435.10 0.2758483
435.20 0.2413214
435.30 0.2214443
435.40 0.2193622
435.50 0.2355285
435.60 0.2812204
435.70 0.3547313
435.80 0.4261607
435.90 0.4432915
436.00 0.3775189
436.10 0.2598304
436.20 0.1929583
436.30 0.1573952
436.40 0.1688153
436.50 0.2135385
436.60 0.2398402
436.70 0.2584645
436.80 0.2921307
436.90 0.3403584
437.00 0.3763995
437.10 0.3767972
437.20 0.3437349
437.30 0.2980745
437.40 0.2588103
437.50 0.2341595
437.60 0.2262141
437.70 0.2346137
437.80 0.258515
437.90 0.2850918
438.00 0.2987249
438.10 0.2883155
438.20 0.2591742
438.30 0.2231712
438.40 0.2005119
438.50 0.1922965
438.60 0.1857521
438.70 0.1941128
438.80 0.2329461
438.90 0.2830753
439.00 0.3201939
439.10 0.3245099
439.20 0.3014031
439.30 0.2743046
439.40 0.25665
439.50 0.2456046
439.60 0.2330884
439.70 0.2168922
439.80 0.2069519
439.90 0.2397751
440.00 0.2840723
440.10 0.2953895
440.20 0.2605499
440.30 0.1971071
440.40 0.1733135
440.50 0.1523267
440.60 0.1348312
440.70 0.1319863
440.80 0.1488523
440.90 0.2386144
441.00 0.344104
441.10 0.4209476
441.20 0.4444934
441.30 0.4269133
441.40 0.4088098
441.50 0.4238168
441.60 0.4731893
441.70 0.5287771
441.80 0.5548536
441.90 0.531456
442.00 0.4670968
442.10 0.393839
442.20 0.3460695
442.30 0.3366358
442.40 0.3487061
442.50 0.3522611
442.60 0.3313599
442.70 0.2988627
442.80 0.2855985
442.90 0.3117985
443.00 0.366134
443.10 0.4126026
443.20 0.419738
443.30 0.3839389
443.40 0.3273266
443.50 0.288421
443.60 0.2828461
443.70 0.2909181
443.80 0.3543461
443.90 0.418349
444.00 0.454034
444.10 0.4581606
444.20 0.448693
444.30 0.4431149
444.40 0.445565
444.50 0.4455008
444.60 0.4355662
444.70 0.4209892
444.80 0.4128925
444.90 0.4235838
445.00 0.4548417
445.10 0.4993256
445.20 0.5484893
445.30 0.5889537
445.40 0.5993281
445.50 0.5658623
445.60 0.4979188
445.70 0.4422515
445.80 0.420492
445.90 0.4195778
446.00 0.4177112
446.10 0.4158972
446.20 0.4324934
446.30 0.4744041
446.40 0.5252667
446.50 0.5596032
446.60 0.5616276
446.70 0.535153
446.80 0.5027526
446.90 0.4909985
447.00 0.5085203
447.10 0.5383986
447.20 0.5562312
447.30 0.5543018
447.40 0.5423139
447.50 0.5305446
447.60 0.5182107
447.70 0.4947803
447.80 0.4528703
447.90 0.4003605
448.00 0.3946997
448.10 0.3896472
448.20 0.4011531
448.30 0.4652944
448.40 0.5211053
448.50 0.5538614
448.60 0.5723456
448.70 0.5917682
448.80 0.6130425
448.90 0.6269399
449.00 0.6350687
449.10 0.652829
449.20 0.6884737
449.30 0.7255897
449.40 0.7337573
449.50 0.6987201
449.60 0.6379187
449.70 0.5845046
449.80 0.5602681
449.90 0.5631872
450.00 0.5779533
450.10 0.5928232
450.20 0.6005886
450.30 0.5944271
450.40 0.5729186
450.50 0.5453297
450.60 0.5249772
450.70 0.5171123
450.80 0.5165967
450.90 0.5192015
451.00 0.5292233
451.10 0.5508956
451.20 0.5782103
451.30 0.5971081
451.40 0.5990093
451.50 0.5869001
451.60 0.5672845
451.70 0.5441298
451.80 0.5253972
451.90 0.52674
452.00 0.5565825
452.10 0.6022612
452.20 0.6406066
452.30 0.6628241
452.40 0.6813752
452.50 0.7110809
452.60 0.7493282
452.70 0.7779223
452.80 0.7797755
452.90 0.7559004
453.00 0.7281424
453.10 0.7185626
453.20 0.7266525
453.30 0.7299167
453.40 0.7082584
453.50 0.6662258
453.60 0.6303199
453.70 0.6270497
453.80 0.6658153
453.90 0.7327518
454.00 0.7967104
454.10 0.8287778
454.20 0.8190373
454.30 0.7800764
454.40 0.7358561
454.50 0.7020055
454.60 0.6743466
454.70 0.6377923
454.80 0.5849329
454.90 0.5267875
455.00 0.4875357
455.10 0.4906681
455.20 0.5478869
455.30 0.645654
455.40 0.7421226
455.50 0.7946675
455.60 0.795751
455.70 0.772978
455.80 0.7527394
455.90 0.7371155
456.00 0.7205
456.10 0.7123343
456.20 0.7301269
456.30 0.7778339
456.40 0.8416955
456.50 0.9045156
456.60 0.9557303
456.70 0.9922564
456.80 1.015703
456.90 1.028556
457.00 1.033471
457.10 1.033351
457.20 1.03306
457.30 1.039983
457.40 1.056656
457.50 1.069819
457.60 1.054325
457.70 0.9950601
457.80 0.9075543
457.90 0.832245
458.00 0.801274
458.10 0.8175008
458.20 0.858692
458.30 0.8895832
458.40 0.8759237
458.50 0.8036228
458.60 0.6946382
458.70 0.5954636
458.80 0.540996
458.90 0.5313363
459.00 0.5424607
459.10 0.550078
459.20 0.5459327
459.30 0.5405643
459.40 0.5510753
459.50 0.5840427
459.60 0.6287929
459.70 0.6714107
459.80 0.7099706
459.90 0.7471764
460.00 0.7746833
460.10 0.7772777
460.20 0.7524385
460.30 0.7137869
460.40 0.6723656
460.50 0.6258642
460.60 0.5737592
460.70 0.5326284
460.80 0.5294045
460.90 0.5818211
461.00 0.6847121
461.10 0.8089414
461.20 0.9118344
461.30 0.9634501
461.40 0.9724177
461.50 0.9760039
461.60 0.9977778
461.70 1.023111
461.80 1.024835
461.90 1.002878
462.00 0.9851642
462.10 0.9927881
462.20 1.017876
462.30 1.037531
462.40 1.035912
462.50 1.007314
462.60 0.947589
462.70 0.8556449
462.80 0.7414362
462.90 0.6297309
463.00 0.5533248
463.10 0.5359761
463.20 0.5756299
463.30 0.6412448
463.40 0.6939295
463.50 0.7163742
463.60 0.7200144
463.70 0.7216502
463.80 0.7217015
463.90 0.71116
464.00 0.6918742
464.10 0.6812738
464.20 0.6951635
464.30 0.730742
464.40 0.769628
464.50 0.7957081
464.60 0.8086372
464.70 0.8215477
464.80 0.845351
464.90 0.8735681
465.00 0.8868592
465.10 0.8745911
465.20 0.846756
465.30 0.8219901
465.40 0.8100081
465.50 0.8109784
465.60 0.82796
465.70 0.8705298
465.80 0.9410787
465.90 1.023846
466.00 1.090115
466.10 1.115642
466.20 1.099719
466.30 1.067494
466.40 1.048426
466.50 1.050588
466.60 1.055343
466.70 1.035388
466.80 0.9740566
466.90 0.870634
467.00 0.7422494
467.10 0.6250018
467.20 0.5605258
467.30 0.5674615
467.40 0.6257843
467.50 0.6934708
467.60 0.7377678
467.70 0.7497986
467.80 0.7392033
467.90 0.721917
468.00 0.710369
468.10 0.7096641
468.20 0.7184609
468.30 0.7351666
468.40 0.759105
468.50 0.7853153
468.60 0.8038121
468.70 0.8069737
468.80 0.7979982
468.90 0.7874519
469.00 0.7805879
469.10 0.771807
469.20 0.7564508
469.30 0.7450033
469.40 0.7517803
469.50 0.772256
469.60 0.7866371
469.70 0.7906311
469.80 0.8052509
469.90 0.843773
470.00 0.88476
470.10 0.8961553
470.20 0.8793759
470.30 0.8670496
470.40 0.8815346
470.50 0.9092229
470.60 0.9196467
470.70 0.9019575
470.80 0.8737007
470.90 0.8617126
471.00 0.8789011
471.10 0.9162162
471.20 0.9505207
471.30 0.9585774
471.40 0.9313822
471.50 0.8838086
471.60 0.8477096
471.70 0.845304
471.80 0.8681966
471.90 0.8851092
472.00 0.8728008
472.10 0.8384791
472.20 0.8137695
472.30 0.8287975
472.40 0.8856949
472.50 0.9546184
472.60 0.9992322
472.70 1.009374
472.80 1.005195
472.90 1.008508
473.00 1.017494
473.10 1.016133
473.20 0.9996729
473.30 0.9790459
473.40 0.9634168
473.50 0.9471666
473.60 0.9191344
473.70 0.8820442
473.80 0.8574597
473.90 0.86753
474.00 0.9106774
474.10 0.9592712
474.20 0.9840795
474.30 0.9808037
474.40 0.9698807
474.50 0.9720377
474.60 0.9889845
474.70 1.006799
474.80 1.012908
474.90 1.007712
475.00 1.002922
475.10 1.010822
475.20 1.037978
475.30 1.083239
475.40 1.134037
475.50 1.165777
475.60 1.152394
475.70 1.08552
475.80 0.9833859
475.90 0.8764409
476.00 0.7812781
476.10 0.6918276
476.20 0.5972207
476.30 0.5035014
476.40 0.4532941
476.50 0.4298493
476.60 0.4129029
476.70 0.4221692
476.80 0.4387427
476.90 0.4430976
477.00 0.4363772
477.10 0.4351681
477.20 0.4609293
477.30 0.5197472
477.40 0.5947169
477.50 0.6605827
477.60 0.7004899
477.70 0.7085502
477.80 0.6846319
477.90 0.6350803
478.00 0.5765562
478.10 0.5300715
478.20 0.5078918
478.30 0.5067746
478.40 0.5163751
478.50 0.534513
478.60 0.5684076
478.70 0.617723
478.80 0.6643382
478.90 0.6853163
479.00 0.6777073
479.10 0.6658037
479.20 0.6788943
479.30 0.7243411
479.40 0.7831799
479.50 0.8283107
479.60 0.8455366
479.70 0.8406015
479.80 0.8316548
479.90 0.8349181
480.00 0.8528581
480.10 0.8747043
480.20 0.8845105
480.30 0.8658183
480.40 0.8062334
480.50 0.7088607
480.60 0.6005645
480.70 0.5213991
480.80 0.4965566
480.90 0.5197705
481.00 0.5651023
481.10 0.608641
481.20 0.6414712
481.30 0.6684108
481.40 0.6959653
481.50 0.7189896
481.60 0.7209363
481.70 0.6908771
481.80 0.6414478
481.90 0.6050683
482.00 0.6057395
482.10 0.6388248
482.20 0.6804529
482.30 0.7114877
482.40 0.7287386
482.50 0.738822
482.60 0.7513626
482.70 0.7739561
482.80 0.8039234
482.90 0.8236419
483.00 0.8155668
483.10 0.7830868
483.20 0.7485307
483.30 0.732198
483.40 0.739891
483.50 0.7689127
483.60 0.8137229
483.70 0.8649735
483.80 0.9111294
483.90 0.9441297
484.00 0.9591268
484.10 0.9515361
484.20 0.9217528
484.30 0.88095
484.40 0.8447052
484.50 0.8191957
484.60 0.7986241
484.70 0.7784631
484.80 0.7663562
484.90 0.7736077
485.00 0.7964788
485.10 0.8136032
485.20 0.8083648
485.30 0.7896244
485.40 0.7802266
485.50 0.7846604
485.60 0.7847301
485.70 0.7860899
485.80 0.8669026
485.90 1.146281
486.00 1.661117
486.10 2.260986
486.20 2.660273
486.30 2.642051
486.40 2.229808
486.50 1.65842
486.60 1.181204
486.70 0.9079713
486.80 0.7998235
486.90 0.7676857
487.00 0.7525575
487.10 0.7394049
487.20 0.7366012
487.30 0.7560968
487.40 0.8013131
487.50 0.8613083
487.60 0.9161889
487.70 0.9501734
487.80 0.9595305
487.90 0.9491013
488.00 0.924788
488.10 0.8925307
488.20 0.863073
488.30 0.8534539
488.40 0.8779642
488.50 0.9335243
488.60 0.9950308
488.70 1.031777
488.80 1.031645
488.90 1.008601
489.00 0.9881538
489.10 0.9879753
489.20 1.008167
489.30 1.032073
489.40 1.037528
489.50 1.015534
489.60 0.9814426
489.70 0.9615664
489.80 0.968277
489.90 0.9947098
490.00 1.031435
490.10 1.075195
490.20 1.119173
490.30 1.148978
490.40 1.157608
490.50 1.158512
490.60 1.170733
490.70 1.194632
490.80 1.21405
490.90 1.220351
491.00 1.225373
491.10 1.246331
491.20 1.283855
491.30 1.322454
491.40 1.347481
491.50 1.353505
491.60 1.343498
491.70 1.327759
491.80 1.321905
491.90 1.338769
492.00 1.375779
492.10 1.41651
492.20 1.448165
492.30 1.471528
492.40 1.493788
492.50 1.516426
492.60 1.532968
492.70 1.538947
492.80 1.538242
492.90 1.537889
493.00 1.539224
493.10 1.536321
493.20 1.526246
493.30 1.518568
493.40 1.529078
493.50 1.563595
493.60 1.611947
493.70 1.658072
493.80 1.693507
493.90 1.719391
494.00 1.741822
494.10 1.767799
494.20 1.801103
494.30 1.841069
494.40 1.886525
494.50 1.93818
494.60 1.994605
494.70 2.04756
494.80 2.084711
494.90 2.099003
495.00 2.090268
495.10 2.057204
495.20 1.989153
495.30 1.863551
495.40 1.658095
495.50 1.376315
495.60 1.062965
495.70 0.7856518
495.80 0.5910728
495.90 0.4774831
496.00 0.4135198
496.10 0.3764117
496.20 0.3647107
496.30 0.3834459
496.40 0.4292383
496.50 0.4913921
496.60 0.5586167
496.70 0.6227349
496.80 0.6828933
496.90 0.7439895
497.00 0.8011583
497.10 0.8317861
497.20 0.8155278
497.30 0.76273
497.40 0.7131517
497.50 0.7026472
497.60 0.739875
497.70 0.8130061
497.80 0.9018614
497.90 0.9763142
498.00 0.999418
498.10 0.9544206
498.20 0.8739177
498.30 0.8265619
498.40 0.8625195
498.50 0.9707607
498.60 1.089127
498.70 1.155789
498.80 1.152817
498.90 1.108241
499.00 1.064562
499.10 1.045731
499.20 1.047539
499.30 1.054152
499.40 1.05852
499.50 1.06633
499.60 1.074769
499.70 1.04953
499.80 0.9376451
499.90 0.7181817
500.00 1
500.10 0.9179348
500.20 0.7632202
500.30 0.5844842
500.40 0.5721134
500.50 0.7145684
500.60 0.7818173
500.70 0.7503633
500.80 0.7914
500.90 0.9251785
501.00 1.036336
501.10 1.032216
501.20 0.8845472
501.30 0.7944696
501.40 0.9398122
501.50 0.8165116
501.60 0.591005
501.70 0.7036236
501.80 0.806232
501.90 0.8702653
502.00 1.121094
502.10 0.8856153
502.20 0.9287161
502.30 0.8567929
502.40 0.8264794
502.50 0.9107319
502.60 1.003377
502.70 0.9850983
502.80 0.950109
502.90 1.028416
503.00 1.186919
503.10 1.213233
503.20 1.066334
503.30 0.9530694
503.40 0.9423204
503.50 0.7668641
503.60 0.9476599
503.70 1.331294
503.80 1.286469
503.90 1.152668
504.00 1.245533
504.10 1.045912
504.20 1.065669
504.30 1.223374
504.40 1.255154
504.50 1.090274
504.60 1.144945
504.70 1.334854
504.80 1.260692
504.90 1.271188
505.00 1.281272
505.10 1.175514
505.20 1.16923
505.30 1.212611
505.40 1.080446
505.50 0.9223431
505.60 1.115061
505.70 1.270728
505.80 1.217287
505.90 1.105791
506.00 1.183795
506.10 1.216967
506.20 1.222657
506.30 1.419838
506.40 1.281782
506.50 1.149904
506.60 1.182807
506.70 1.184045
506.80 1.220294
506.90 1.375013
507.00 1.496212
507.10 1.405446
507.20 1.343594
507.30 1.276652
507.40 1.382821
507.50 1.633406
507.60 1.638053
507.70 1.538657
507.80 1.515926
507.90 1.654141
508.00 1.635217
508.10 1.438535
508.20 1.329273
508.30 1.351081
508.40 1.312957
508.50 1.229974
508.60 1.243938
508.70 1.483186
508.80 1.516419
508.90 1.371019
509.00 1.3736
509.10 1.280737
509.20 1.300369
509.30 1.494669
509.40 1.547853
509.50 1.427185
509.60 1.487723
509.70 1.627418
509.80 1.627747
509.90 1.627984
510.00 1.380852
510.10 1.078656
510.20 1.134443
510.30 1.235836
510.40 1.212247
510.50 1.31205
510.60 1.265226
510.70 1.064371
510.80 1.173216
510.90 1.507211
511.00 1.641837
511.10 1.46699
511.20 1.505249
511.30 1.689098
511.40 1.492552
511.50 1.418459
511.60 1.737282
511.70 1.916004
511.80 1.581749
511.90 1.519353
512.00 1.5757
512.10 1.568054
512.20 1.593754
512.30 1.74738
512.40 1.696434
512.50 1.552803
512.60 1.361114
512.70 1.394155
512.80 1.399708
512.90 1.178215
513.00 1.240787
513.10 1.454563
513.20 1.489507
513.30 1.704492
513.40 1.799374
513.50 1.596781
513.60 1.614737
513.70 1.608803
513.80 1.701776
513.90 1.733902
514.00 1.646184
514.10 1.372026
514.20 1.349564
514.30 1.544487
514.40 1.596954
514.50 1.660767
514.60 1.539973
514.70 1.401565
514.80 1.405068
514.90 1.463323
515.00 1.301035
515.10 1.297245
515.20 1.49083
515.30 1.555653
515.40 1.434372
515.50 1.347642
515.60 1.296152
515.70 1.530128
515.80 1.83775
515.90 2.037617
516.00 1.861255
516.10 1.839245
516.20 2.109375
516.30 2.111598
516.40 2.156313
516.50 2.135407
516.60 1.888713
516.70 1.423816
516.80 1.052084
516.90 0.5608503
517.00 0.4831896
517.10 0.4316284
517.20 0.4642115
517.30 0.5879234
517.40 0.5629681
517.50 0.5149817
517.60 0.6833604
517.70 0.6231469
517.80 0.5727869
517.90 0.6142038
518.00 0.6230489
518.10 0.542644
518.20 0.5443514
518.30 0.4807632
518.40 0.4732647
518.50 0.6394773
518.60 0.9648991
518.70 0.9398938
518.80 0.9733607
518.90 1.037907
519.00 1.024009
519.10 1.087792
519.20 1.141956
519.30 0.9398801
519.40 0.90431
519.50 1.043029
519.60 1.150527
519.70 1.224658
519.80 1.133698
519.90 0.993065
520.00 0.7802313
520.10 0.7626061
520.20 0.9180291
520.30 1.103382
520.40 1.209477
520.50 1.176957
520.60 0.9488194
520.70 0.8117696
520.80 0.9431827
520.90 0.9284419
521.00 0.7441147
521.10 0.7421121
521.20 1.092512
521.30 1.358752
521.40 1.493011
521.50 1.444562
521.60 1.47086
521.70 1.575647
521.80 1.612848
521.90 1.684671
522.00 1.820426
522.10 1.712583
522.20 1.604486
522.30 1.522214
522.40 1.572029
522.50 1.775633
522.60 1.890688
522.70 1.895852
522.80 1.738108
522.90 1.501971
523.00 1.67728
523.10 1.973239
523.20 2.013037
523.30 1.781202
523.40 1.760628
523.50 1.814094
523.60 1.889443
523.70 1.795547
523.80 1.836157
523.90 1.940614
524.00 1.882048
524.10 1.638076
524.20 1.592277
524.30 1.441096
524.40 1.35313
524.50 1.320367
524.60 1.464761
524.70 1.437755
524.80 1.394736
524.90 1.435226
525.00 1.534553
525.10 1.361526
525.20 1.391354
525.30 1.686508
525.40 2.023358
525.50 1.76725
525.60 1.709194
525.70 1.904555
525.80 1.981572
525.90 1.861185
526.00 1.766053
526.10 1.580709
526.20 1.582424
526.30 1.696213
526.40 1.623484
526.50 1.469939
526.60 1.442406
526.70 1.462601
526.80 1.484717
526.90 1.412369
527.00 1.499489
527.10 1.526087
527.20 1.421903
527.30 1.535817
527.40 1.648779
527.50 1.863382
527.60 2.023405
527.70 1.937664
527.80 1.846096
527.90 1.803102
528.00 1.745632
528.10 1.657218
528.20 1.563323
528.30 1.858943
528.40 2.000861
528.50 1.843796
528.60 1.800574
528.70 1.986987
528.80 2.189211
528.90 2.199446
529.00 2.036861
529.10 1.963103
529.20 2.039451
529.30 2.057212
529.40 2.012877
529.50 2.067178
529.60 2.149942
529.70 2.247449
529.80 1.991484
529.90 1.803112
530.00 1.944962
530.10 2.111361
530.20 2.119589
530.30 2.072967
530.40 2.286072
530.50 2.404565
530.60 2.259136
530.70 2.186166
530.80 2.014205
530.90 1.910882
531.00 1.909625
531.10 1.789735
531.20 1.735897
531.30 1.886898
531.40 1.824575
531.50 1.681494
531.60 1.798649
531.70 1.999139
531.80 2.032405
531.90 1.819987
532.00 1.808704
532.10 2.094587
532.20 1.998333
532.30 1.88344
532.40 2.002287
532.50 2.144867
532.60 2.074048
532.70 1.798331
532.80 1.746753
532.90 1.879666
533.00 1.798302
533.10 1.848297
533.20 1.943979
533.30 2.149778
533.40 2.052805
533.50 1.807129
533.60 1.831522
533.70 1.734618
533.80 1.811787
533.90 1.966767
534.00 2.175003
534.10 2.098681
534.20 1.920856
534.30 2.019851
534.40 2.180626
534.50 2.239428
534.60 2.28036
534.70 2.228454
534.80 1.912791
534.90 1.939724
535.00 2.153072
535.10 2.470273
535.20 2.557989
535.30 2.538147
535.40 2.616955
535.50 2.685183
535.60 2.542286
535.70 2.469293
535.80 2.341874
535.90 2.214645
536.00 2.085003
536.10 2.123137
536.20 2.092034
536.30 2.067035
536.40 1.953197
536.50 2.092578
536.60 1.949422
536.70 1.861834
536.80 1.805796
536.90 1.877099
537.00 1.85179
537.10 1.930117
537.20 2.000421
537.30 2.007616
537.40 1.986681
537.50 2.180334
537.60 2.248972
537.70 2.160003
537.80 2.230707
537.90 2.582258
538.00 2.707697
538.10 2.573086
538.20 2.484761
538.30 2.482183
538.40 2.572248
538.50 2.489897
538.60 2.41116
538.70 2.206894
538.80 2.316184
538.90 2.370092
539.00 2.519732
539.10 2.591815
539.20 2.415543
539.30 2.205733
539.40 2.436135
539.50 2.585878
539.60 2.519431
539.70 2.32426
539.80 2.410745
539.90 2.635581
540.00 2.630593
540.10 2.824001
540.20 3.060062
540.30 2.975203
540.40 2.860166
540.50 2.749737
540.60 2.553267
540.70 2.557085
540.80 2.688372
540.90 2.433535
541.00 2.230515
541.10 2.094779
541.20 2.301381
541.30 2.499969
541.40 2.41235
541.50 2.418776
541.60 2.512446
541.70 2.749816
541.80 2.858227
541.90 2.764863
542.00 2.567453
542.10 2.756236
542.20 2.86108
542.30 2.923179
542.40 2.896662
542.50 2.948913
542.60 2.963534
542.70 2.783201
542.80 2.658574
542.90 2.723739
543.00 2.556849
543.10 2.352521
543.20 2.356374
543.30 2.339473
543.40 2.432758
543.50 2.533639
543.60 2.618241
543.70 2.693554
543.80 2.787397
543.90 3.000765
544.00 3.056293
544.10 3.098319
544.20 3.283376
544.30 3.37419
544.40 3.188519
544.50 3.136888
544.60 3.211474
544.70 3.066853
544.80 2.532121
544.90 2.070265
545.00 1.619375
545.10 0.9932196
545.20 0.8175312
545.30 0.9379056
545.40 0.945304
545.50 1.080531
545.60 1.043589
545.70 0.9741849
545.80 1.116097
545.90 1.254137
546.00 1.322079
546.10 1.561927
546.20 1.683663
546.30 1.595794
546.40 1.5963
546.50 1.469434
546.60 1.460625
546.70 1.481782
546.80 1.710265
546.90 1.796061
547.00 1.681626
547.10 1.414749
547.20 1.321217
547.30 1.264946
547.40 1.317241
547.50 1.471174
547.60 1.619538
547.70 1.473594
547.80 1.52085
547.90 1.603784
548.00 1.610963
548.10 1.529576
548.20 1.538635
548.30 1.553256
548.40 1.548218
548.50 1.65656
548.60 1.702412
548.70 1.646016
548.80 1.564587
548.90 1.508931
549.00 1.51697
549.10 1.439951
549.20 1.639012
549.30 1.655173
549.40 1.694174
549.50 1.771587
549.60 1.664603
549.70 1.351762
549.80 1.374865
549.90 1.467033
550.00 1.204793
550.10 0.9507353
550.20 0.8419001
550.30 0.9754258
550.40 0.8851767
550.50 0.8742438
550.60 0.9743509
550.70 0.9427001
550.80 0.8486947
550.90 0.8552608
551.00 0.8024507
551.10 0.7696234
551.20 0.6640697
551.30 0.5775981
551.40 0.6162728
551.50 0.7726166
551.60 0.8644607
551.70 0.9054748
551.80 0.7508039
551.90 0.6342951
552.00 0.7359357
552.10 0.6501071
552.20 0.5165132
552.30 0.5965092
552.40 0.6720712
552.50 0.6820953
552.60 0.8478144
552.70 0.795709
552.80 0.7852855
552.90 0.7288313
553.00 0.5226274
553.10 0.6162265
553.20 0.7728848
553.30 0.8092306
553.40 0.6536971
553.50 0.6257866
553.60 0.51094
553.70 0.6324779
553.80 0.6385176
553.90 0.5661578
554.00 0.6177814
554.10 0.610641
554.20 0.6108558
554.30 0.5668055
554.40 0.6367436
554.50 0.6357452
554.60 0.5140829
554.70 0.4849088
554.80 0.4820896
554.90 0.5904247
555.00 0.6493765
555.10 0.6586175
555.20 0.5973934
555.30 0.7052363
555.40 0.7772304
555.50 0.6906512
555.60 0.6912017
555.70 0.7914433
555.80 0.8617327
555.90 0.7679798
556.00 0.9118797
556.10 1.146833
556.20 1.069085
556.30 0.9997138
556.40 1.045711
556.50 1.25701
556.60 1.293642
556.70 1.231433
556.80 1.157651
556.90 1.165177
557.00 1.288445
557.10 1.426413
557.20 1.451998
557.30 1.446004
557.40 1.445622
557.50 1.445622
557.60 1.445622
557.70 1.445622
557.80 1.445622
557.90 1.445622
558.00 1.445622
558.10 1.445623
558.20 1.44535
558.30 1.443771
558.40 1.434424
558.50 1.556713
558.60 1.773677
558.70 1.83122
558.80 1.802465
558.90 1.719557
559.00 1.699031
559.10 1.664933
559.20 1.677782
559.30 1.828075
559.40 1.836966
559.50 1.767329
559.60 1.835785
559.70 1.665195
559.80 1.398545
559.90 1.205304
560.00 1.193039
560.10 1.179727
560.20 1.407714
560.30 1.506539
560.40 1.585708
560.50 1.590179
560.60 1.493929
560.70 1.390585
560.80 1.448236
560.90 1.51661
561.00 1.626645
561.10 1.80531
561.20 1.628461
561.30 1.441512
561.40 1.545885
561.50 1.673692
561.60 1.615479
561.70 1.601985
561.80 1.42469
561.90 1.283345
562.00 1.286245
562.10 1.320008
562.20 1.420379
562.30 1.48585
562.40 1.425739
562.50 1.326041
562.60 1.349546
562.70 1.390215
562.80 1.350802
562.90 1.334117
563.00 1.529674
563.10 1.436828
563.20 1.146511
563.30 1.092038
563.40 1.418028
563.50 1.670112
563.60 1.583926
563.70 1.313618
563.80 1.112807
563.90 1.317744
564.00 1.442109
564.10 1.286428
564.20 1.159479
564.30 1.27127
564.40 1.445784
564.50 1.43299
564.60 1.485385
564.70 1.432837
564.80 1.543016
564.90 1.647782
565.00 1.638699
565.10 1.565454
565.20 1.715665
565.30 1.897017
565.40 1.851717
565.50 1.795416
565.60 1.736358
565.70 1.868179
565.80 1.815191
565.90 1.905269
566.00 1.969319
566.10 1.821176
566.20 1.740258
566.30 1.781587
566.40 1.808763
566.50 1.582685
566.60 1.560505
566.70 1.679695
566.80 1.740791
566.90 1.538196
567.00 1.49767
567.10 1.490408
567.20 1.511764
567.30 1.617115
567.40 1.619962
567.50 1.611147
567.60 1.567924
567.70 1.682866
567.80 1.747023
567.90 1.788664
568.00 1.740684
568.10 1.599262
568.20 1.58215
568.30 1.81626
568.40 2.010894
568.50 1.924702
568.60 1.780687
568.70 1.883627
568.80 1.974391
568.90 2.016224
569.00 2.065507
569.10 1.794227
569.20 1.807545
569.30 1.873693
569.40 1.983954
569.50 1.934344
569.60 1.776898
569.70 1.726172
569.80 1.805115
569.90 2.015882
570.00 2.134016
570.10 2.193781
570.20 2.199828
570.30 1.970942
570.40 1.937148
570.50 2.138637
570.60 2.393035
570.70 2.345491
570.80 2.304887
570.90 2.375532
571.00 2.410717
571.10 2.40599
571.20 2.362806
571.30 2.289616
571.40 2.100127
571.50 1.92372
571.60 1.905598
571.70 2.057471
571.80 2.269497
571.90 2.090552
572.00 1.843966
572.10 1.786816
572.20 2.002343
572.30 2.070329
572.40 2.090506
572.50 2.106594
572.60 2.150453
572.70 2.203112
572.80 2.127545
572.90 2.045266
573.00 2.086311
573.10 2.188438
573.20 2.116655
573.30 2.253469
573.40 2.489496
573.50 2.443459
573.60 2.306928
573.70 2.177174
573.80 2.167366
573.90 2.017954
574.00 1.941117
574.10 2.008525
574.20 1.989993
574.30 1.98675
574.40 2.093041
574.50 2.173723
574.60 2.274403
574.70 2.282686
574.80 2.459353
574.90 2.229743
575.00 2.147787
575.10 2.348871
575.20 2.551486
575.30 2.445034
575.40 2.300664
575.50 2.531712
575.60 2.606584
575.70 2.51695
575.80 2.558238
575.90 2.5244
576.00 2.26789
576.10 1.867089
576.20 1.819332
576.30 1.84163
576.40 1.820882
576.50 1.843798
576.60 1.883995
576.70 1.814485
576.80 1.793313
576.90 1.693053
577.00 1.695027
577.10 1.812812
577.20 1.712041
577.30 1.668774
577.40 1.792493
577.50 2.001075
577.60 2.081079
577.70 2.010584
577.80 1.878813
577.90 1.823284
578.00 2.03465
578.10 2.251308
578.20 2.365125
578.30 2.266991
578.40 2.028905
578.50 2.152964
578.60 2.469723
578.70 2.564182
578.80 2.291765
578.90 2.30677
579.00 2.446844
579.10 2.571694
579.20 2.580226
579.30 2.379546
579.40 2.397484
579.50 2.619811
579.60 2.63518
579.70 2.666996
579.80 2.626451
579.90 2.530812
580.00 2.69926
580.10 2.874438
580.20 2.803571
580.30 2.679228
580.40 2.632912
580.50 2.839411
580.60 2.98563
580.70 2.985835
580.80 2.976555
580.90 2.954868
581.00 2.739189
581.10 2.552195
581.20 2.269642
581.30 1.995665
581.40 1.963273
581.50 1.956505
581.60 1.964622
581.70 1.980531
581.80 2.128244
581.90 2.118776
582.00 1.821627
582.10 1.779177
582.20 1.830531
582.30 1.915044
582.40 1.829342
582.50 1.682013
582.60 1.837921
582.70 2.044911
582.80 2.151881
582.90 1.991675
583.00 2.008947
583.10 2.23293
583.20 2.31566
583.30 2.225719
583.40 2.331777
583.50 2.271926
583.60 1.936491
583.70 1.892132
583.80 2.000559
583.90 1.907702
584.00 1.729833
584.10 1.772363
584.20 2.02482
584.30 2.211516
584.40 2.246447
584.50 2.141579
584.60 1.964946
584.70 1.930572
584.80 1.755853
584.90 1.691822
585.00 1.66413
585.10 1.487246
585.20 1.243012
585.30 1.303186
585.40 1.514484
585.50 1.594303
585.60 1.670075
585.70 1.489085
585.80 1.381004
585.90 1.544256
586.00 1.633747
586.10 1.372093
586.20 1.101432
586.30 1.0778
586.40 1.176509
586.50 1.181944
586.60 1.256379
586.70 1.250441
586.80 1.193427
586.90 1.351572
587.00 1.443237
587.10 1.330493
587.20 1.147372
587.30 1.106498
587.40 1.239318
587.50 1.160084
587.60 1.197086
587.70 1.278459
587.80 1.331187
587.90 1.182082
588.00 1.043796
588.10 0.8649029
588.20 0.8323019
588.30 0.9451051
588.40 1.019997
588.50 0.9629379
588.60 0.7265976
588.70 0.6966314
588.80 0.8902049
588.90 1.197324
589.00 1.129984
589.10 0.6905707
589.20 0.8790646
589.30 1.377842
589.40 1.38252
589.50 0.9177387
589.60 0.695889
589.70 0.5330967
589.80 0.6949996
589.90 0.8976705
590.00 0.9188203
590.10 0.7140885
590.20 0.8012397
590.30 0.8426082
590.40 0.7765785
590.50 0.7986218
590.60 0.8623778
590.70 0.9903974
590.80 1.051258
590.90 0.9871001
591.00 0.7964057
591.10 0.9074992
591.20 1.088078
591.30 1.0178
591.40 0.9482856
591.50 0.9517688
591.60 1.061008
591.70 1.050978
591.80 1.02991
591.90 1.092732
592.00 1.078015
592.10 1.101202
592.20 1.036267
592.30 1.177268
592.40 1.209628
592.50 0.9209209
592.60 1.040626
592.70 1.275786
592.80 1.132437
592.90 0.9825934
593.00 1.044508
593.10 1.193052
593.20 1.202355
593.30 1.18124
593.40 1.14635
593.50 1.100797
593.60 1.107919
593.70 1.112317
593.80 1.016998
593.90 1.110448
594.00 1.262624
594.10 1.242724
594.20 1.121194
594.30 1.24289
594.40 1.348986
594.50 1.423053
594.60 1.395484
594.70 1.422807
594.80 1.433077
594.90 1.502892
595.00 1.515582
595.10 1.271161
595.20 1.07523
595.30 1.036203
595.40 1.078618
595.50 1.004478
595.60 1.13418
595.70 1.423071
595.80 1.498804
595.90 1.298281
596.00 1.113379
596.10 1.126032
596.20 1.077339
596.30 0.9275705
596.40 1.016654
596.50 1.327981
596.60 1.375504
596.70 1.31065
596.80 1.298054
596.90 1.164369
597.00 1.090255
597.10 1.054182
597.20 1.077196
597.30 1.016591
597.40 0.9830186
597.50 1.174048
597.60 1.353579
597.70 1.391206
597.80 1.193072
597.90 1.119999
598.00 1.173281
598.10 1.279205
598.20 1.374401
598.30 1.374748
598.40 1.283835
598.50 1.202428
598.60 1.306198
598.70 1.370564
598.80 1.376013
598.90 1.362002
599.00 1.288529
599.10 1.345044
599.20 1.413675
599.30 1.413684
599.40 1.285613
599.50 1.284814
599.60 1.453811
599.70 1.51861
599.80 1.384526
599.90 1.461734
600.00 1.575388
600.10 1.581001
600.20 1.47385
600.30 1.522211
600.40 1.627607
600.50 1.543987
600.60 1.428702
600.70 1.362542
600.80 1.461119
600.90 1.423618
601.00 1.282648
601.10 1.239737
601.20 1.382036
601.30 1.575746
601.40 1.514552
601.50 1.330441
601.60 1.420809
601.70 1.571651
601.80 1.685304
601.90 1.659522
602.00 1.570762
602.10 1.431953
602.20 1.417102
602.30 1.462713
602.40 1.526741
602.50 1.643924
602.60 1.673468
602.70 1.594416
602.80 1.524231
602.90 1.573844
603.00 1.521432
603.10 1.391881
603.20 1.458041
603.30 1.560022
603.40 1.738671
603.50 1.86179
603.60 1.772951
603.70 1.653868
603.80 1.517413
603.90 1.52234
604.00 1.575681
604.10 1.589625
604.20 1.677016
604.30 1.814682
604.40 1.861204
604.50 1.840945
604.60 1.817819
604.70 1.820883
604.80 1.98167
604.90 2.089713
605.00 2.04705
605.10 1.937162
605.20 1.927773
605.30 1.894076
605.40 1.820236
605.50 1.816543
605.60 1.893408
605.70 1.996903
605.80 2.010296
605.90 1.848258
606.00 1.863781
606.10 1.901917
606.20 1.94527
606.30 1.951046
606.40 1.937219
606.50 1.926544
606.60 1.819509
606.70 1.853651
606.80 2.024927
606.90 2.213287
607.00 2.243392
607.10 2.147331
607.20 2.065845
607.30 1.966622
607.40 1.968521
607.50 1.993522
607.60 2.013551
607.70 2.070905
607.80 2.063901
607.90 2.086247
608.00 1.928597
608.10 1.820794
608.20 1.754923
608.30 1.750206
608.40 1.92813
608.50 1.991034
608.60 1.99769
608.70 1.976672
608.80 2.025616
608.90 1.988558
609.00 1.810636
609.10 1.899392
609.20 2.011525
609.30 2.027776
609.40 2.052396
609.50 2.063846
609.60 2.012229
609.70 1.993818
609.80 2.106597
609.90 2.080849
610.00 1.986101
610.10 2.088761
610.20 2.111269
610.30 1.926447
610.40 1.745819
610.50 1.841437
610.60 2.035832
610.70 2.085108
610.80 1.996424
610.90 1.996114
611.00 1.916964
611.10 1.940846
611.20 2.015699
611.30 1.982444
611.40 1.922169
611.50 1.905103
611.60 1.851603
611.70 1.781465
611.80 1.733854
611.90 1.796644
612.00 1.94486
612.10 1.957914
612.20 1.852092
612.30 1.75448
612.40 1.77519
612.50 1.811197
612.60 1.685134
612.70 1.693906
612.80 1.74557
612.90 1.778178
613.00 1.916795
613.10 1.955097
613.20 1.771936
613.30 1.781723
613.40 1.883625
613.50 1.854419
613.60 1.756666
613.70 1.804769
613.80 1.898811
613.90 1.775746
614.00 1.703664
614.10 1.743806
614.20 1.658296
614.30 1.540363
614.40 1.668282
614.50 1.808877
614.60 1.868872
614.70 1.786047
614.80 1.725539
614.90 1.569572
615.00 1.497769
615.10 1.38743
615.20 1.235827
615.30 1.287299
615.40 1.407638
615.50 1.429138
615.60 1.389595
615.70 1.415706
615.80 1.472567
615.90 1.326841
616.00 1.22649
616.10 1.16406
616.20 1.07627
616.30 1.036816
616.40 1.073679
616.50 1.135151
616.60 1.049585
616.70 0.9923067
616.80 1.029586
616.90 1.015606
617.00 1.006633
617.10 1.062934
617.20 1.10463
617.30 1.062824
617.40 0.9470386
617.50 0.9800226
617.60 1.069906
617.70 1.023922
617.80 0.8888823
617.90 0.9849198
618.00 1.025784
618.10 0.8954492
618.20 0.7673085
618.30 0.8710167
618.40 1.207838
618.50 1.248985
618.60 1.098888
618.70 1.007158
618.80 0.8463333
618.90 0.7227117
619.00 0.7627194
619.10 0.8272644
619.20 0.7977149
619.30 0.8717918
619.40 0.8720495
619.50 0.8907149
619.60 0.9237404
619.70 1.065997
619.80 1.020182
619.90 0.8776921
620.00 0.7962775
620.10 0.8737363
620.20 1.05655
620.30 1.042653
620.40 0.9617129
620.50 0.9194661
620.60 0.9046136
620.70 0.9150603
620.80 1.000969
620.90 1.094758
621.00 1.06629
621.10 1.099739
621.20 1.105108
621.30 1.048431
621.40 1.01043
621.50 0.9955744
621.60 1.035412
621.70 0.9261261
621.80 0.7869102
621.90 0.8218111
622.00 0.9029231
622.10 1.009338
622.20 1.058286
622.30 0.9666462
622.40 0.9414487
622.50 0.8802024
622.60 0.8182063
622.70 0.7026668
622.80 0.7230809
622.90 0.898395
623.00 0.9610511
623.10 0.9662189
623.20 0.8893922
623.30 0.8547044
623.40 0.9093062
623.50 0.9934791
623.60 0.9275952
623.70 0.9774238
623.80 0.9359959
623.90 0.7197762
624.00 0.8713477
624.10 1.106751
624.20 1.07389
624.30 0.7579699
624.40 0.6989805
624.50 0.9248218
624.60 0.9662774
624.70 0.941916
624.80 0.9026037
624.90 0.9289741
625.00 0.9445251
625.10 0.9052763
625.20 1.012722
625.30 1.085997
625.40 1.133028
625.50 1.186178
625.60 1.133756
625.70 1.133734
625.80 1.101482
625.90 1.18458
626.00 1.149372
626.10 1.079052
626.20 1.077957
626.30 1.034459
626.40 1.012231
626.50 1.138671
626.60 1.188361
626.70 1.122419
626.80 1.025197
626.90 1.040363
627.00 1.144619
627.10 1.194208
627.20 1.074332
627.30 1.121496
627.40 1.265363
627.50 1.345659
627.60 1.325468
627.70 1.34815
627.80 1.432426
627.90 1.333082
628.00 1.243757
628.10 1.217617
628.20 1.246403
628.30 1.248773
628.40 1.298232
628.50 1.369639
628.60 1.412082
628.70 1.304864
628.80 1.473779
628.90 1.582562
629.00 1.535208
629.10 1.489821
629.20 1.505666
629.30 1.661765
629.40 1.611389
629.50 1.515993
629.60 1.585796
629.70 1.955805
629.80 2.039668
629.90 1.878673
630.00 1.719014
630.10 1.449745
630.20 1.430815
630.30 1.462496
630.40 1.93455
630.50 2.223772
630.60 2.050692
630.70 2.020217
630.80 2.006232
630.90 2.047262
631.00 2.024292
631.10 2.091275
631.20 2.206573
631.30 2.196072
631.40 2.221712
631.50 2.183656
631.60 2.144592
631.70 2.277539
631.80 2.368355
631.90 2.339819
632.00 2.313908
632.10 2.490593
632.20 2.406698
632.30 2.175225
632.40 2.195118
632.50 2.317436
632.60 2.375309
632.70 2.295495
632.80 2.291834
632.90 2.390312
633.00 2.52898
633.10 2.458697
633.20 2.359572
633.30 2.352144
633.40 2.489571
633.50 2.629006
633.60 2.655694
633.70 2.677606
633.80 2.711665
633.90 2.792584
634.00 2.802126
634.10 2.91606
634.20 2.972851
634.30 2.91305
634.40 2.864262
634.50 2.899333
634.60 3.017257
634.70 3.113333
634.80 3.136926
634.90 3.12829
635.00 3.190056
635.10 3.212055
635.20 3.065086
635.30 2.884421
635.40 2.867634
635.50 2.911066
635.60 2.816902
635.70 2.703157
635.80 2.631449
635.90 2.490761
636.00 2.484988
636.10 2.754416
636.20 3.03425
636.30 2.898794
636.40 2.53285
636.50 2.470237
636.60 2.580827
636.70 2.570279
636.80 2.585962
636.90 2.583748
637.00 2.638116
637.10 2.774949
637.20 2.877113
637.30 2.889229
637.40 2.812955
637.50 2.707503
637.60 2.741744
637.70 2.810953
637.80 2.815342
637.90 2.778409
638.00 2.720622
638.10 2.665595
638.20 2.442122
638.30 2.347555
638.40 2.442344
638.50 2.54419
638.60 2.550575
638.70 2.50399
638.80 2.500187
638.90 2.448884
639.00 2.461674
639.10 2.489935
639.20 2.615482
639.30 2.755357
639.40 2.852778
639.50 2.887263
639.60 2.922826
639.70 3.054766
639.80 3.197482
639.90 3.174391
640.00 3.13963
640.10 3.166131
640.20 3.128747
640.30 3.142665
640.40 3.236485
640.50 3.43647
640.60 3.575488
640.70 3.509921
640.80 3.410376
640.90 3.308855
641.00 3.292533
641.10 3.299279
641.20 3.279993
641.30 3.354846
641.40 3.429716
641.50 3.393232
641.60 3.266523
641.70 3.151326
641.80 3.168599
641.90 3.18045
642.00 3.111613
642.10 3.058385
642.20 3.026499
642.30 2.958529
642.40 2.925235
642.50 2.855226
642.60 2.858247
642.70 2.928896
642.80 3.053522
642.90 3.170928
643.00 3.146315
643.10 3.18804
643.20 3.205365
643.30 3.184194
643.40 3.134074
643.50 3.082608
643.60 3.154009
643.70 3.223861
643.80 3.281581
643.90 3.319694
644.00 3.245325
644.10 3.183059
644.20 3.199519
644.30 3.386367
644.40 3.554034
644.50 3.606089
644.60 3.60426
644.70 3.542792
644.80 3.525455
644.90 3.402992
645.00 3.272777
645.10 3.312695
645.20 3.42936
645.30 3.526765
645.40 3.546714
645.50 3.60499
645.60 3.549371
645.70 3.486863
645.80 3.494919
645.90 3.576716
646.00 3.651352
646.10 3.65915
646.20 3.60985
646.30 3.574523
646.40 3.677593
646.50 3.724183
646.60 3.716752
646.70 3.686766
646.80 3.798027
646.90 3.987997
647.00 4.121995
647.10 3.996856
647.20 3.93926
647.30 4.182656
647.40 4.415323
647.50 4.396268
647.60 4.199088
647.70 4.144266
647.80 4.166445
647.90 4.099962
648.00 3.862212
648.10 3.668158
648.20 3.622264
648.30 3.645401
648.40 3.657466
648.50 3.607186
648.60 3.462763
648.70 3.490217
648.80 3.628762
648.90 3.766847
649.00 3.851828
649.10 3.845837
649.20 3.851842
649.30 3.88758
649.40 3.89863
649.50 3.96798
649.60 4.111596
649.70 4.200996
649.80 4.176507
649.90 4.149736
650.00 4.260654
650.10 4.258268
650.20 4.323365
650.30 4.555956
650.40 4.7948
650.50 4.848761
650.60 4.789273
650.70 4.848981
650.80 4.958237
650.90 5.040768
651.00 5.097343
651.10 5.206619
651.20 5.254953
651.30 5.172116
651.40 5.014822
651.50 4.923389
651.60 4.947827
651.70 5.088725
651.80 5.2146
651.90 5.369608
652.00 5.479999
652.10 5.51617
652.20 5.648314
652.30 5.773877
652.40 5.777253
652.50 5.644344
652.60 5.666042
652.70 5.984011
652.80 6.290575
652.90 6.393899
653.00 6.403168
653.10 6.509761
653.20 6.553854
653.30 6.464295
653.40 6.338048
653.50 6.347591
653.60 6.599294
653.70 6.836814
653.80 7.056099
653.90 7.219402
654.00 7.249828
654.10 7.234323
654.20 7.305153
654.30 7.349211
654.40 7.117502
654.50 6.761234
654.60 6.469182
654.70 6.296042
654.80 6.194989
654.90 6.09022
655.00 5.970267
655.10 5.804527
655.20 5.673011
655.30 5.555916
655.40 5.481864
655.50 5.422061
655.60 5.455928
655.70 5.609583
655.80 5.785571
655.90 5.953866
656.00 6.143941
656.10 6.784354
656.20 8.799244
656.30 11.60802
656.40 13.4121
656.50 12.9354
656.60 10.53192
656.70 7.703335
656.80 5.779575
656.90 4.950491
657.00 4.759932
657.10 4.703507
657.20 4.703205
657.30 4.662452
657.40 4.585338
657.50 4.5108
657.60 4.557048
657.70 4.698801
657.80 4.79098
657.90 4.640101
658.00 4.268104
658.10 4.042576
658.20 4.038682
658.30 4.21535
658.40 4.390336
658.50 4.523445
658.60 4.662198
658.70 4.796296
658.80 4.924983
658.90 4.911038
659.00 4.916448
659.10 4.979373
659.20 4.980348
659.30 4.936999
659.40 4.759872
659.50 4.517023
659.60 4.35362
659.70 4.370731
659.80 4.524846
659.90 4.513997
660.00 4.415151
660.10 4.421604
660.20 4.496238
660.30 4.55505
660.40 4.572156
660.50 4.543667
660.60 4.518817
660.70 4.470541
660.80 4.37254
660.90 4.341786
661.00 4.403833
661.10 4.453408
661.20 4.491829
661.30 4.59489
661.40 4.696415
661.50 4.756948
661.60 4.643284
661.70 4.519256
661.80 4.499312
661.90 4.452246
662.00 4.304633
662.10 4.11721
662.20 4.062563
662.30 4.057443
662.40 4.062064
662.50 3.976227
662.60 3.737184
662.70 3.529112
662.80 3.451069
662.90 3.509278
663.00 3.653367
663.10 3.844776
663.20 4.015952
663.30 4.091733
663.40 4.141816
663.50 4.111739
663.60 3.891372
663.70 3.5657
663.80 3.304409
663.90 3.293793
664.00 3.443296
664.10 3.591311
664.20 3.704696
664.30 3.753264
664.40 3.742318
664.50 3.791826
664.60 3.782949
664.70 3.77564
664.80 3.789946
664.90 3.779735
665.00 3.708708
665.10 3.455509
665.20 3.083703
665.30 2.763086
665.40 2.610471
665.50 2.721895
665.60 2.884861
665.70 2.912514
665.80 2.931078
665.90 2.929687
666.00 2.942344
666.10 2.904556
666.20 2.947878
666.30 3.101528
666.40 3.154429
666.50 3.215057
666.60 3.300941
666.70 3.377185
666.80 3.406054
666.90 3.458384
667.00 3.592766
667.10 3.630318
667.20 3.643516
667.30 3.553593
667.40 3.442526
667.50 3.43837
667.60 3.477905
667.70 3.549761
667.80 3.676002
667.90 3.738444
668.00 3.62715
668.10 3.362488
668.20 2.969389
668.30 2.616252
668.40 2.434603
668.50 2.431851
668.60 2.569339
668.70 2.628216
668.80 2.629602
668.90 2.754857
669.00 2.922599
669.10 2.891886
669.20 2.756775
669.30 2.677718
669.40 2.627169
669.50 2.665434
669.60 2.810635
669.70 2.960003
669.80 3.034496
669.90 2.997049
670.00 3.02512
670.10 3.067524
670.20 3.144809
670.30 3.190397
670.40 3.177458
670.50 3.188737
670.60 3.190224
670.70 3.228579
670.80 3.27123
670.90 3.27637
671.00 3.257667
671.10 3.288105
671.20 3.328816
671.30 3.26666
671.40 3.15428
671.50 3.014854
671.60 2.857375
671.70 2.662184
671.80 2.483685
671.90 2.414879
672.00 2.376713
672.10 2.408833
672.20 2.472845
672.30 2.511239
672.40 2.521501
672.50 2.52324
672.60 2.562714
672.70 2.620824
672.80 2.746586
672.90 2.86474
673.00 2.831186
673.10 2.753202
673.20 2.761759
673.30 2.876712
673.40 2.999208
673.50 2.973405
673.60 2.827989
673.70 2.706711
673.80 2.781548
673.90 2.98941
674.00 3.053406
674.10 3.019379
674.20 3.011065
674.30 3.096833
674.40 3.228375
674.50 3.304361
674.60 3.266543
674.70 3.129245
674.80 2.931574
674.90 2.764485
675.00 2.681729
675.10 2.671762
675.20 2.726632
675.30 2.785587
675.40 2.887291
675.50 3.000988
675.60 3.001971
675.70 3.002378
675.80 3.026489
675.90 2.953069
676.00 2.896882
676.10 2.924382
676.20 3.017329
676.30 3.14361
676.40 3.196073
676.50 3.288992
676.60 3.399266
676.70 3.416575
676.80 3.425993
676.90 3.45638
677.00 3.481448
677.10 3.514745
677.20 3.564064
677.30 3.598073
677.40 3.589781
677.50 3.607386
677.60 3.708077
677.70 3.813154
677.80 3.766433
677.90 3.762527
678.00 3.801315
678.10 3.760611
678.20 3.507641
678.30 3.07842
678.40 2.818548
678.50 2.771269
678.60 2.79958
678.70 2.803288
678.80 2.806939
678.90 2.852069
679.00 2.933249
679.10 3.022302
679.20 3.0249
679.30 2.973031
679.40 2.941032
679.50 2.985584
679.60 3.060207
679.70 3.100507
679.80 3.140691
679.90 3.18595
680.00 3.226804
680.10 3.202812
680.20 3.157257
680.30 3.217141
680.40 3.289849
680.50 3.328003
680.60 3.325527
680.70 3.320296
680.80 3.278872
680.90 3.249399
681.00 3.422121
681.10 3.54653
681.20 3.54811
681.30 3.552289
681.40 3.525101
681.50 3.462467
681.60 3.334294
681.70 3.235289
681.80 3.251391
681.90 3.296357
682.00 3.368556
682.10 3.362638
682.20 3.287616
682.30 3.332297
682.40 3.353359
682.50 3.326581
682.60 3.357919
682.70 3.475607
682.80 3.610579
682.90 3.629448
683.00 3.542125
683.10 3.455925
683.20 3.439219
683.30 3.49236
683.40 3.552611
683.50 3.626175
683.60 3.722779
683.70 3.690452
683.80 3.607872
683.90 3.624373
684.00 3.670866
684.10 3.695573
684.20 3.801924
684.30 3.874418
684.40 3.87192
684.50 3.890657
684.60 3.829339
684.70 3.78731
684.80 3.784022
684.90 3.746158
685.00 3.645407
685.10 3.534855
685.20 3.394232
685.30 3.232633
685.40 3.166523
685.50 3.190588
685.60 3.332617
685.70 3.414064
685.80 3.424998
685.90 3.430473
686.00 3.371426
686.10 3.41653
686.20 3.552059
686.30 3.629128
686.40 3.731076
686.50 3.75762
686.60 3.737369
686.70 3.750767
686.80 3.589215
686.90 3.529668
687.00 3.458905
687.10 3.395437
687.20 3.500818
687.30 3.680743
687.40 3.88477
687.50 4.063183
687.60 4.144836
687.70 4.113255
687.80 4.097883
687.90 4.054246
688.00 3.921668
688.10 3.901803
688.20 4.013288
688.30 4.028581
688.40 3.967578
688.50 3.87212
688.60 3.792365
688.70 3.81368
688.80 3.888385
688.90 3.968818
689.00 3.967859
689.10 3.887679
689.20 3.868576
689.30 4.004303
689.40 4.133396
689.50 4.131513
689.60 4.141742
689.70 4.217493
689.80 4.201443
689.90 4.176644
690.00 4.141351
690.10 4.023712
690.20 3.794842
690.30 3.646447
690.40 3.783097
690.50 3.99709
690.60 4.142009
690.70 4.353556
690.80 4.643162
690.90 4.808572
691.00 4.767522
691.10 4.675839
691.20 4.611209
691.30 4.720527
691.40 4.759954
691.50 4.765957
691.60 4.833189
691.70 4.748472
691.80 4.522708
691.90 4.108632
692.00 3.742038
692.10 3.695025
692.20 3.956515
692.30 4.398288
692.40 4.742202
692.50 4.819002
692.60 4.792288
692.70 4.910047
692.80 5.030021
692.90 5.046451
693.00 5.018846
693.10 5.061583
693.20 5.273856
693.30 5.507294
693.40 5.660529
693.50 5.710916
693.60 5.678008
693.70 5.654943
693.80 5.621677
693.90 5.570683
694.00 5.576112
694.10 5.677312
694.20 5.897399
694.30 6.176254
694.40 6.440855
694.50 6.723121
694.60 6.949435
694.70 7.13934
694.80 7.247092
694.90 7.229122
695.00 7.260788
695.10 7.234633
695.20 7.132828
695.30 6.94837
695.40 6.643301
695.50 6.419423
695.60 6.390951
695.70 6.519305
695.80 6.505361
695.90 6.391937
696.00 6.37443
696.10 6.439168
696.20 6.586446
696.30 6.684583
696.40 6.766177
696.50 6.912657
696.60 7.009084
696.70 7.060308
696.80 7.129998
696.90 7.167485
697.00 7.111311
697.10 6.993741
697.20 6.819869
697.30 6.677456
697.40 6.71036
697.50 6.857079
697.60 7.08973
697.70 7.415675
697.80 7.694561
697.90 7.845609
698.00 7.767215
698.10 7.60939
698.20 7.58153
698.30 7.698394
698.40 7.798066
698.50 7.819972
698.60 7.841874
698.70 7.908731
698.80 7.916985
698.90 7.826331
699.00 7.642904
699.10 7.552495
699.20 7.523525
699.30 7.459783
699.40 7.531379
699.50 7.629661
699.60 7.766118
699.70 7.886985
699.80 7.861131
699.90 7.74206
700.00 7.619067
700.10 7.70188
700.20 7.941083
700.30 8.10207
700.40 8.055941
700.50 7.858707
700.60 7.73687
700.70 7.881341
700.80 8.168674
700.90 8.405966
701.00 8.547252
701.10 8.553813
701.20 8.572141
701.30 8.639193
701.40 8.705232
701.50 8.889625
701.60 9.094098
701.70 9.13792
701.80 9.092621
701.90 9.097895
702.00 9.282075
702.10 9.545785
702.20 9.60967
702.30 9.468933
702.40 9.220581
702.50 8.895183
702.60 8.781851
702.70 8.891613
702.80 9.361202
702.90 10.08135
703.00 10.6045
703.10 10.8314
703.20 10.77831
703.30 10.61715
703.40 10.60796
703.50 10.85792
703.60 11.34021
703.70 11.79585
703.80 12.00834
703.90 12.01984
704.00 11.9332
704.10 12.01912
704.20 12.19801
704.30 12.3991
704.40 12.60579
704.50 12.74433
704.60 12.8549
704.70 12.91925
704.80 12.94855
704.90 12.93022
705.00 12.9339
705.10 13.05411
705.20 13.08078
705.30 12.71296
705.40 11.60106
705.50 9.634084
705.60 7.321193
705.70 5.484865
705.80 4.555425
705.90 4.47709
706.00 4.625109
706.10 4.456831
706.20 4.206066
706.30 4.089969
706.40 4.146021
706.50 4.300183
706.60 4.504585
706.70 4.760498
706.80 4.957322
706.90 5.009035
707.00 5.103765
707.10 5.263703
707.20 5.411518
707.30 5.548138
707.40 5.621852
707.50 5.625669
707.60 5.569319
707.70 5.520953
707.80 5.610952
707.90 5.799568
708.00 5.849049
708.10 5.750805
708.20 5.848474
708.30 6.094029
708.40 6.279273
708.50 6.366387
708.60 6.307717
708.70 5.991696
708.80 5.378595
708.90 4.62132
709.00 3.846549
709.10 3.328109
709.20 3.222959
709.30 3.311048
709.40 3.380928
709.50 3.366637
709.60 3.330784
709.70 3.335071
709.80 3.406552
709.90 3.54497
710.00 3.626265
710.10 3.646905
710.20 3.697763
710.30 3.73199
710.40 3.780288
710.50 3.846312
710.60 3.934617
710.70 4.061285
710.80 4.23047
710.90 4.449363
711.00 4.673404
711.10 4.881637
711.20 4.991653
711.30 4.971146
711.40 4.918587
711.50 4.916418
711.60 4.902232
711.70 4.839966
711.80 4.900982
711.90 5.079678
712.00 5.318852
712.10 5.540525
712.20 5.627795
712.30 5.672547
712.40 5.61368
712.50 5.240683
712.60 4.51859
712.70 3.658226
712.80 2.987251
712.90 2.709684
713.00 2.703121
713.10 2.812227
713.20 2.88976
713.30 2.842007
713.40 2.778707
713.50 2.790147
713.60 2.908631
713.70 3.03321
713.80 3.003049
713.90 2.946628
714.00 2.97131
714.10 3.060161
714.20 3.196389
714.30 3.341314
714.40 3.424594
714.50 3.447233
714.60 3.445247
714.70 3.481319
714.80 3.612142
714.90 3.657905
715.00 3.594048
715.10 3.598637
715.20 3.697718
715.30 3.774618
715.40 3.858377
715.50 4.006537
715.60 4.212755
715.70 4.336555
715.80 4.251808
715.90 4.042192
716.00 3.874385
716.10 3.772805
716.20 3.680839
716.30 3.627868
716.40 3.641097
716.50 3.71829
716.60 3.806094
716.70 3.860298
716.80 3.894803
716.90 3.888613
717.00 3.923274
717.10 4.064055
717.20 4.183447
717.30 4.255992
717.40 4.265238
717.50 4.214457
717.60 4.212319
717.70 4.273927
717.80 4.394251
717.90 4.473514
718.00 4.569304
718.10 4.757271
718.20 4.856131
718.30 4.889701
718.40 4.954306
718.50 5.083024
718.60 5.241944
718.70 5.314063
718.80 5.368312
718.90 5.467931
719.00 5.546398
719.10 5.624079
719.20 5.62979
719.30 5.585934
719.40 5.618174
719.50 5.66074
719.60 5.612457
719.70 5.366258
719.80 5.032534
719.90 4.746796
720.00 4.540638
720.10 4.43364
720.20 4.494701
720.30 4.635067
720.40 4.654125
720.50 4.608425
720.60 4.592993
720.70 4.655986
720.80 4.730253
720.90 4.753853
721.00 4.773127
721.10 4.906393
721.20 5.059829
721.30 5.143794
721.40 5.213462
721.50 5.25276
721.60 5.320754
721.70 5.396374
721.80 5.440643
721.90 5.486157
722.00 5.495244
722.10 5.53417
722.20 5.665427
722.30 5.804802
722.40 5.936696
722.50 6.081529
722.60 6.210845
722.70 6.35175
722.80 6.515449
722.90 6.617065
723.00 6.567983
723.10 6.366595
723.20 6.191885
723.30 6.143251
723.40 6.18109
723.50 6.378464
723.60 6.638097
723.70 6.826655
723.80 6.984477
723.90 7.033819
724.00 7.04789
724.10 7.169585
724.20 7.114827
724.30 7.094827
724.40 7.160121
724.50 7.300254
724.60 7.624181
724.70 7.864885
724.80 8.027313
724.90 8.086526
725.00 8.191161
725.10 8.514946
725.20 8.705792
725.30 8.599597
725.40 8.435405
725.50 8.466773
725.60 8.694076
725.70 8.923661
725.80 9.055336
725.90 9.057655
726.00 8.956089
726.10 8.962974
726.20 9.209074
726.30 9.574149
726.40 9.87558
726.50 10.03568
726.60 10.10082
726.70 10.13621
726.80 10.18071
726.90 10.17059
727.00 10.00107
727.10 9.622587
727.20 9.081839
727.30 8.687409
727.40 8.72056
727.50 9.282948
727.60 9.991351
727.70 10.40565
727.80 10.47237
727.90 10.09567
728.00 9.870644
728.10 10.00822
728.20 10.06452
728.30 10.09044
728.40 10.16808
728.50 10.34152
728.60 10.6822
728.70 10.84552
728.80 10.86492
728.90 11.06983
729.00 11.22811
729.10 11.26851
729.20 11.28904
729.30 11.36294
729.40 11.53569
729.50 11.74136
729.60 12.0171
729.70 12.3789
729.80 12.611
729.90 12.54037
730.00 12.33517
730.10 12.39231
730.20 12.73993
730.30 13.06865
730.40 13.32695
730.50 13.46245
730.60 13.40088
730.70 13.4785
730.80 13.80214
730.90 14.10164
731.00 14.2478
731.10 14.22098
731.20 14.1053
731.30 14.09679
731.40 14.23564
731.50 14.48343
731.60 14.79125
731.70 14.97712
731.80 14.96703
731.90 14.98875
732.00 15.34695
732.10 15.66525
732.20 15.68055
732.30 15.69019
732.40 15.7608
732.50 15.77093
732.60 15.63744
732.70 15.41347
732.80 15.40858
732.90 15.72459
733.00 16.02768
733.10 16.19355
733.20 16.27166
733.30 16.24403
733.40 16.24646
733.50 16.40735
733.60 16.74879
733.70 17.17419
733.80 17.53719
733.90 17.84363
734.00 17.89967
734.10 18.01877
734.20 18.25161
734.30 17.92618
734.40 17.44025
734.50 16.93897
734.60 16.386
734.70 16.23599
734.80 16.37595
734.90 16.72567
735.00 17.14138
735.10 17.42296
735.20 17.62498
735.30 17.76579
735.40 17.79896
735.50 17.59315
735.60 17.17386
735.70 16.81421
735.80 16.85868
735.90 17.28899
736.00 17.71589
736.10 17.94525
736.20 18.03679
736.30 18.19106
736.40 18.50676
736.50 18.85541
736.60 19.08698
736.70 19.19279
736.80 19.41572
736.90 19.669
737.00 19.86721
737.10 20.07566
737.20 20.06651
737.30 19.82489
737.40 19.40842
737.50 18.89127
737.60 18.61281
737.70 18.67008
737.80 18.92838
737.90 19.26813
738.00 19.47166
738.10 19.50394
738.20 19.45691
738.30 19.49926
738.40 19.6215
738.50 19.6937
738.60 19.77734
738.70 19.873
738.80 20.03735
738.90 20.40358
739.00 20.79418
739.10 21.03117
739.20 20.92892
739.30 20.43167
739.40 19.76339
739.50 19.21893
739.60 18.96826
739.70 19.01849
739.80 19.32751
739.90 19.71387
740.00 19.97956
740.10 20.21766
740.20 20.48454
740.30 20.66772
740.40 20.57498
740.50 20.02112
740.60 19.23872
740.70 18.79876
740.80 18.7302
740.90 18.84846
741.00 19.2744
741.10 19.84872
741.20 20.20114
741.30 20.23422
741.40 20.22444
741.50 20.42846
741.60 20.65933
741.70 20.48714
741.80 19.78097
741.90 19.02611
742.00 18.60682
742.10 18.63018
742.20 18.99891
742.30 19.37087
742.40 19.63071
742.50 19.92979
742.60 20.20019
742.70 20.36933
742.80 20.40957
742.90 20.39141
743.00 20.47712
743.10 20.61101
743.20 20.70083
743.30 20.78049
743.40 20.73543
743.50 20.19167
743.60 19.3406
743.70 18.8136
743.80 18.94985
743.90 19.73265
744.00 20.57357
744.10 20.73143
744.20 20.33864
744.30 19.95191
744.40 19.65312
744.50 19.41888
744.60 19.26144
744.70 19.17351
744.80 19.12591
744.90 19.11394
745.00 19.20409
745.10 19.41798
745.20 19.79414
745.30 20.14988
745.40 20.21707
745.50 20.01629
745.60 19.77741
745.70 19.633
745.80 19.59055
745.90 19.59136
746.00 19.59943
746.10 19.70185
746.20 19.8989
746.30 20.15807
746.40 20.41526
746.50 20.49039
746.60 20.46933
746.70 20.44006
746.80 20.35489
746.90 20.34879
747.00 20.59539
747.10 21.04191
747.20 21.36598
747.30 21.26849
747.40 20.61258
747.50 19.91861
747.60 19.80322
747.70 20.16934
747.80 20.6469
747.90 20.95098
748.00 20.95823
748.10 20.75319
748.20 20.66241
748.30 20.82148
748.40 21.20311
748.50 21.58414
748.60 21.58841
748.70 21.2843
748.80 20.96891
748.90 20.89662
749.00 21.04818
749.10 21.27511
749.20 21.42963
749.30 21.30721
749.40 20.91878
749.50 20.49652
749.60 20.33163
749.70 20.53625
749.80 21.03279
749.90 21.65527
750.00 22.21966
750.10 22.55024
750.20 22.5987
750.30 22.5161
750.40 22.45951
750.50 22.33083
750.60 21.99154
750.70 21.6231
750.80 21.49334
750.90 21.79509
751.00 22.48527
751.10 23.10358
751.20 23.35006
751.30 23.1915
751.40 22.76996
751.50 22.48622
751.60 22.50196
751.70 22.81487
751.80 23.07822
751.90 22.8885
752.00 22.5054
752.10 22.31733
752.20 22.32592
752.30 22.53666
752.40 22.86299
752.50 22.99058
752.60 22.9839
752.70 22.67753
752.80 21.92288
752.90 21.45243
753.00 21.60493
753.10 22.33035
753.20 23.21182
753.30 23.57165
753.40 23.41558
753.50 23.12283
753.60 22.89376
753.70 22.97721
753.80 23.49561
753.90 24.20288
754.00 24.88097
754.10 25.25661
754.20 25.237
754.30 25.1208
754.40 25.1034
754.50 25.21328
754.60 25.3071
754.70 25.18132
754.80 24.8512
754.90 24.52161
755.00 24.36446
755.10 24.46473
755.20 24.84988
755.30 25.16415
755.40 25.17053
755.50 24.98575
755.60 24.84116
755.70 24.91714
755.80 25.05241
755.90 25.2206
756.00 25.45778
756.10 25.59193
756.20 25.58843
756.30 25.45415
756.40 25.20007
756.50 24.89242
756.60 24.58426
756.70 24.22227
756.80 23.76833
756.90 23.3551
757.00 23.29361
757.10 23.8413
757.20 24.88851
757.30 25.90292
757.40 26.29164
757.50 26.2109
757.60 26.06796
757.70 25.74271
757.80 25.15256
757.90 24.70417
758.00 24.76841
758.10 25.45305
758.20 26.46816
758.30 27.29328
758.40 27.67413
758.50 27.56387
758.60 27.08736
758.70 26.38125
758.80 25.031
758.90 22.57459
759.00 19.36423
759.10 16.36325
759.20 14.37268
759.30 13.70567
759.40 14.06349
759.50 14.83106
759.60 15.43343
759.70 15.52972
759.80 15.51653
759.90 15.87162
760.00 16.38269
760.10 16.44958
760.20 15.95344
760.30 15.46741
760.40 15.57566
760.50 16.06754
760.60 16.40719
760.70 16.5018
760.80 16.51493
760.90 16.49318
761.00 16.50654
761.10 16.59604
761.20 16.85606
761.30 17.44358
761.40 18.27719
761.50 18.97895
761.60 19.1675
761.70 19.11424
761.80 19.24436
761.90 19.52343
762.00 19.90667
762.10 19.99976
762.20 19.55869
762.30 19.18988
762.40 19.11434
762.50 19.07614
762.60 18.74959
762.70 17.67351
762.80 16.02403
762.90 14.33203
763.00 12.83175
763.10 11.78683
763.20 11.4703
763.30 11.69431
763.40 12.23495
763.50 12.69141
763.60 12.70903
763.70 12.58848
763.80 12.57288
763.90 12.66108
764.00 12.74598
764.10 12.483
764.20 12.17027
764.30 12.30977
764.40 12.56241
764.50 12.60678
764.60 12.29946
764.70 11.89324
764.80 12.01687
764.90 12.27804
765.00 12.13183
765.10 11.8031
765.20 11.47437
765.30 11.39658
765.40 11.42466
765.50 10.96991
765.60 10.26859
765.70 9.879327
765.80 9.780554
765.90 9.61846
766.00 8.995396
766.10 8.040563
766.20 7.070172
766.30 6.134281
766.40 5.333924
766.50 4.630756
766.60 4.027972
766.70 3.807518
766.80 3.953482
766.90 4.374297
767.00 5.051136
767.10 5.711059
767.20 6.135357
767.30 6.272751
767.40 6.366915
767.50 6.600519
767.60 6.988475
767.70 7.454303
767.80 7.762793
767.90 7.944711
768.00 8.138984
768.10 8.31998
768.20 8.45869
768.30 8.58573
768.40 8.765322
768.50 8.944304
768.60 9.045805
768.70 9.097235
768.80 9.176044
768.90 9.240825
769.00 9.202027
769.10 9.129323
769.20 9.040449
769.30 8.872498
769.40 8.555866
769.50 8.074968
769.60 7.540223
769.70 6.848731
769.80 5.927441
769.90 4.981702
770.00 4.276757
770.10 4.069691
770.20 4.386889
770.30 5.066556
770.40 5.948825
770.50 6.770882
770.60 7.339226
770.70 7.695211
770.80 7.875029
770.90 8.120618
771.00 8.621387
771.10 9.044738
771.20 9.325148
771.30 9.640879
771.40 9.929096
771.50 10.15472
771.60 10.24102
771.70 10.32139
771.80 10.52606
771.90 10.50127
772.00 10.5183
772.10 10.90665
772.20 11.35433
772.30 11.61571
772.40 11.59774
772.50 11.68181
772.60 12.00668
772.70 12.37981
772.80 12.74145
772.90 13.02867
773.00 13.16705
773.10 13.17824
773.20 13.20253
773.30 13.29205
773.40 13.49898
773.50 13.7781
773.60 13.92674
773.70 14.00108
773.80 14.17901
773.90 14.40311
774.00 14.5844
774.10 14.66673
774.20 14.59871
774.30 14.27481
774.40 13.63167
774.50 12.91993
774.60 12.39585
774.70 12.06223
774.80 11.81808
774.90 11.61827
775.00 11.33563
775.10 10.93226
775.20 10.54854
775.30 10.12826
775.40 10.04034
775.50 10.48839
775.60 10.95822
775.70 11.20538
775.80 11.22402
775.90 11.20912
776.00 11.2916
776.10 11.47007
776.20 11.70916
776.30 11.73266
776.40 11.51408
776.50 11.36204
776.60 11.43218
776.70 11.7093
776.80 12.17282
776.90 12.62277
777.00 12.79321
777.10 12.7757
777.20 12.79852
777.30 12.94862
777.40 13.20184
777.50 13.36363
777.60 13.36736
777.70 13.37858
777.80 13.36282
777.90 13.31985
778.00 13.36031
778.10 13.37235
778.20 13.2471
778.30 12.9469
778.40 12.46773
778.50 12.02153
778.60 11.77197
778.70 11.73647
778.80 11.84096
778.90 11.97686
779.00 12.20363
779.10 12.45481
779.20 12.55611
779.30 12.57423
779.40 12.82909
779.50 13.32137
779.60 13.65286
779.70 13.71349
779.80 13.45856
779.90 12.86131
780.00 12.12434
780.10 11.51071
780.20 11.40542
780.30 11.95716
780.40 13.00707
780.50 14.28188
780.60 15.38647
780.70 16.05949
780.80 16.31582
780.90 16.26225
781.00 16.04142
781.10 15.80473
781.20 15.56186
781.30 15.61727
781.40 16.14759
781.50 16.70363
781.60 17.03439
781.70 17.17476
781.80 17.20491
781.90 17.16024
782.00 16.95497
782.10 16.64851
782.20 15.96063
782.30 14.95699
782.40 14.53363
782.50 14.75954
782.60 15.26104
782.70 15.55987
782.80 15.11562
782.90 14.32267
783.00 13.54056
783.10 12.92732
783.20 12.74699
783.30 13.00599
783.40 13.50465
783.50 13.98603
783.60 14.30035
783.70 14.4557
783.80 14.53952
783.90 14.63446
784.00 14.72733
784.10 14.78838
784.20 14.81915
784.30 14.81078
784.40 14.89691
784.50 15.18032
784.60 15.63393
784.70 16.08643
784.80 16.24628
784.90 16.08533
785.00 15.83619
785.10 15.64952
785.20 15.61424
785.30 15.86829
785.40 16.15871
785.50 16.17119
785.60 16.1986
785.70 16.25569
785.80 16.32279
785.90 16.60875
786.00 16.69593
786.10 16.44456
786.20 16.20648
786.30 15.93401
786.40 15.54829
786.50 15.37444
786.60 15.43993
786.70 15.46034
786.80 15.53339
786.90 15.63998
787.00 15.73422
787.10 15.82662
787.20 15.71549
787.30 15.38203
787.40 15.10791
787.50 15.18062
787.60 15.60061
787.70 16.17693
787.80 16.75902
787.90 17.33119
788.00 17.64835
788.10 17.62951
788.20 17.54136
788.30 17.52279
788.40 17.80921
788.50 18.17928
788.60 18.28948
788.70 18.2615
788.80 18.18356
788.90 18.28181
789.00 18.59707
789.10 18.81785
789.20 18.87477
789.30 18.86503
789.40 18.93093
789.50 19.11512
789.60 19.10187
789.70 18.7259
789.80 18.23151
789.90 17.74769
790.00 17.22772
790.10 16.788
790.20 16.63314
790.30 16.83265
790.40 17.38292
790.50 17.99102
790.60 18.36276
790.70 18.41843
790.80 18.00535
790.90 17.06768
791.00 15.99761
791.10 15.22887
791.20 14.79048
791.30 14.94505
791.40 15.70825
791.50 16.49584
791.60 16.95423
791.70 16.90068
791.80 16.50909
791.90 16.15464
792.00 15.86901
792.10 15.81766
792.20 16.17669
792.30 16.60089
792.40 16.72714
792.50 16.69388
792.60 16.80594
792.70 16.98066
792.80 17.05964
792.90 17.10234
793.00 17.20737
793.10 17.55077
793.20 18.12821
793.30 18.708
793.40 19.1455
793.50 19.34215
793.60 19.35898
793.70 19.36577
793.80 19.37461
793.90 19.27492
794.00 18.82377
794.10 17.99108
794.20 17.18299
794.30 16.80543
794.40 17.05409
794.50 17.62138
794.60 17.85708
794.70 17.44035
794.80 16.57081
794.90 15.73017
795.00 15.51406
795.10 16.18334
795.20 17.31005
795.30 18.49642
795.40 19.43437
795.50 19.84133
795.60 19.94471
795.70 20.00145
795.80 20.11134
795.90 20.14716
796.00 19.83387
796.10 19.28861
796.20 18.72573
796.30 18.31678
796.40 18.39911
796.50 18.9906
796.60 19.70651
796.70 20.28084
796.80 20.54402
796.90 20.5795
797.00 20.74999
797.10 21.12456
797.20 21.54847
797.30 21.79122
797.40 21.62353
797.50 21.11068
797.60 20.49249
797.70 20.04688
797.80 19.84867
797.90 19.82032
798.00 19.89579
798.10 19.97865
798.20 19.97026
798.30 19.82486
798.40 19.58093
798.50 19.34618
798.60 19.16277
798.70 18.96165
798.80 18.70079
798.90 18.54513
799.00 18.75812
799.10 19.319
799.20 19.9428
799.30 20.4542
799.40 20.74718
799.50 20.61354
799.60 20.21575
799.70 20.06369
799.80 20.09713
799.90 20.12355
800.00 20.28516
800.10 20.53373
800.20 20.79152
800.30 21.03776
800.40 21.2369
800.50 21.41877
800.60 21.56461
800.70 21.68805
800.80 21.87803
800.90 22.14692
801.00 22.36579
801.10 22.43342
801.20 22.47165
801.30 22.60766
801.40 22.83423
801.50 23.08727
801.60 23.27678
801.70 23.47218
801.80 23.70075
801.90 23.8672
802.00 24.0275
802.10 24.10184
802.20 23.98739
802.30 23.82527
802.40 23.81094
802.50 24.11265
802.60 24.63209
802.70 25.10114
802.80 25.32987
802.90 25.29267
803.00 25.32197
803.10 25.56435
803.20 25.80417
803.30 25.94837
803.40 25.96458
803.50 25.93928
803.60 25.94177
803.70 25.9309
803.80 25.9694
803.90 25.99587
804.00 25.896
804.10 25.81078
804.20 25.91062
804.30 26.14757
804.40 26.49231
804.50 26.91043
804.60 27.14051
804.70 27.07604
804.80 26.84283
804.90 26.53386
805.00 26.60877
805.10 27.35386
805.20 28.3129
805.30 29.1899
805.40 29.85876
805.50 30.08745
805.60 30.03525
805.70 29.94186
805.80 29.81631
805.90 29.78499
806.00 29.98349
806.10 30.29817
806.20 30.57372
806.30 30.64623
806.40 30.42564
806.50 30.11915
806.60 29.87503
806.70 29.90029
806.80 30.28654
806.90 30.50721
807.00 30.38534
807.10 30.19106
807.20 30.07308
807.30 30.32496
807.40 31.0171
807.50 31.72545
807.60 32.07136
807.70 32.16742
807.80 32.25626
807.90 32.42789
808.00 32.64976
808.10 32.83674
808.20 33.04475
808.30 33.28814
808.40 33.51559
808.50 33.77391
808.60 34.04966
808.70 34.14713
808.80 33.96527
808.90 33.68795
809.00 33.51031
809.10 33.57635
809.20 33.87911
809.30 34.24416
809.40 34.53763
809.50 34.60737
809.60 34.40004
809.70 34.06147
809.80 33.77126
809.90 33.66885
810.00 33.74799
810.10 33.86287
810.20 33.9918
810.30 34.12644
810.40 34.12874
810.50 33.99231
810.60 33.954
810.70 34.19725
810.80 34.72139
810.90 35.36678
811.00 35.82248
811.10 35.93175
811.20 35.8558
811.30 35.90537
811.40 36.2487
811.50 36.51838
811.60 36.29099
811.70 35.68878
811.80 35.11206
811.90 35.09334
812.00 35.83514
812.10 36.87498
812.20 37.64737
812.30 37.89309
812.40 37.7494
812.50 37.56991
812.60 37.61889
812.70 37.96116
812.80 38.41098
812.90 38.7087
813.00 38.7749
813.10 38.66069
813.20 38.45578
813.30 38.38539
813.40 38.53162
813.50 38.71244
813.60 38.87725
813.70 39.03012
813.80 39.24945
813.90 39.78074
814.00 40.41825
814.10 40.49244
814.20 39.8267
814.30 38.88251
814.40 38.07509
814.50 37.65694
814.60 37.74119
814.70 38.06608
814.80 38.27557
814.90 38.2456
815.00 37.9383
815.10 37.65992
815.20 37.92017
815.30 38.5555
815.40 39.03115
815.50 39.06317
815.60 38.75452
815.70 38.51325
815.80 38.52405
815.90 38.63776
816.00 38.57519
816.10 38.27191
816.20 37.98309
816.30 37.94405
816.40 38.29495
816.50 38.91369
816.60 39.49087
816.70 39.85147
816.80 40.04348
816.90 40.30704
817.00 40.55272
817.10 40.53391
817.20 40.39397
817.30 40.25363
817.40 40.07661
817.50 39.87047
817.60 39.67493
817.70 39.36888
817.80 38.7442
817.90 37.88025
818.00 36.76717
818.10 34.9969
818.20 32.30849
818.30 28.52984
818.40 24.40091
818.50 21.9876
818.60 22.44801
818.70 25.29047
818.80 29.05958
818.90 32.03967
819.00 33.52798
819.10 33.81085
819.20 33.08396
819.30 31.19443
819.40 27.98972
819.50 23.85071
819.60 20.35325
819.70 19.08345
819.80 20.38252
819.90 23.27919
820.00 26.2739
820.10 28.76914
820.20 30.76557
820.30 32.40845
820.40 33.82171
820.50 34.56646
820.60 34.29491
820.70 33.36483
820.80 32.41131
820.90 32.01116
821.00 32.42799
821.10 33.35226
821.20 34.29226
821.30 34.89576
821.40 35.01313
821.50 34.74316
821.60 34.44011
821.70 34.40237
821.80 34.59847
821.90 34.92563
822.00 35.30063
822.10 35.6987
822.20 36.14322
822.30 36.50494
822.40 36.77256
822.50 37.11725
822.60 37.52217
822.70 37.83412
822.80 37.97506
822.90 38.0268
823.00 38.31609
823.10 39.00946
823.20 39.66725
823.30 39.69459
823.40 38.99487
823.50 38.07185
823.60 37.59731
823.70 37.79562
823.80 38.48221
823.90 39.36961
824.00 40.19557
824.10 40.80294
824.20 41.07191
824.30 40.92044
824.40 40.359
824.50 39.72034
824.60 39.5144
824.70 39.99146
824.80 41.07383
824.90 42.11959
825.00 42.38224
825.10 41.77008
825.20 40.6034
825.30 39.32969
825.40 38.35626
825.50 37.71999
825.60 37.2421
825.70 36.81406
825.80 36.53737
825.90 36.67454
826.00 37.32476
826.10 38.34705
826.20 39.3528
826.30 39.99557
826.40 40.3468
826.50 40.4992
826.60 40.55941
826.70 40.79735
826.80 41.06241
826.90 41.01302
827.00 40.56545
827.10 39.64555
827.20 38.385
827.30 37.23068
827.40 36.4637
827.50 36.11989
827.60 36.17321
827.70 36.52887
827.80 37.12285
827.90 37.70954
828.00 37.92531
828.10 37.81286
828.20 37.35309
828.30 36.58968
828.40 35.94243
828.50 35.51
828.60 35.38637
828.70 35.66202
828.80 35.96301
828.90 35.79448
829.00 34.95125
829.10 33.74685
829.20 32.77503
829.30 32.57373
829.40 33.14473
829.50 33.85518
829.60 34.21867
829.70 34.3535
829.80 34.62575
829.90 34.84483
830.00 34.79108
830.10 34.13211
830.20 33.47315
830.30 32.74604
830.40 32.01893
830.50 31.58094
830.60 31.14295
830.70 31.45709
830.80 31.77123
830.90 32.57375
831.00 33.37626
831.10 33.69169
831.20 34.00712
831.30 33.91849
831.40 33.82985
831.50 33.69104
831.60 33.55222
831.70 33.96337
831.80 34.37452
831.90 34.93387
832.00 35.49322
832.10 35.54931
832.20 35.6054
832.30 35.9781
832.40 36.3508
832.50 36.48387
832.60 36.61693
832.70 35.62642
832.80 34.6359
832.90 33.92548
833.00 33.21505
833.10 34.47378
833.20 35.73251
833.30 36.37699
833.40 37.02146
833.50 35.88563
833.60 34.74979
833.70 34.15328
833.80 33.55677
833.90 34.00181
834.00 34.44684
834.10 35.00194
834.20 35.55704
834.30 36.03187
834.40 36.50671
834.50 36.13707
834.60 35.76744
834.70 34.80842
834.80 33.8494
834.90 33.94495
835.00 34.04049
835.10 34.45802
835.20 34.87554
835.30 34.88977
835.40 34.904
835.50 34.84361
835.60 34.78322
835.70 34.82313
835.80 34.86304
835.90 35.42193
836.00 35.98083
836.10 36.19248
836.20 36.40412
836.30 35.84764
836.40 35.29115
836.50 34.83295
836.60 34.37475
836.70 34.85238
836.80 35.33002
836.90 36.33601
837.00 37.34199
837.10 38.06305
837.20 38.7841
837.30 37.53486
837.40 36.28561
837.50 34.88274
837.60 33.47987
837.70 33.11972
837.80 32.75956
837.90 33.17618
838.00 33.59281
838.10 34.04361
838.20 34.49441
838.30 34.40802
838.40 34.32164
838.50 33.80433
838.60 33.28703
838.70 32.48892
838.80 31.6908
838.90 30.7858
839.00 29.8808
839.10 30.67452
839.20 31.46824
839.30 32.2644
839.40 33.06056
839.50 32.98756
839.60 32.91456
839.70 32.86977
839.80 32.82498
839.90 33.27755
840.00 33.73013
840.10 34.45577
840.20 34.69987
840.30 35.13965
840.40 35.55606
840.50 35.84175
840.60 36.12127
840.70 36.40035
840.80 36.75292
840.90 36.98763
841.00 36.81285
841.10 36.49467
841.20 35.7479
841.30 35.14479
841.40 34.90735
841.50 35.43794
841.60 36.25335
841.70 37.09914
841.80 37.58278
841.90 37.23054
842.00 37.15654
842.10 36.35409
842.20 34.93303
842.30 34.04474
842.40 34.50184
842.50 35.04922
842.60 34.98572
842.70 34.67328
842.80 34.01774
842.90 33.16841
843.00 32.86123
843.10 33.51176
843.20 34.0721
843.30 33.14292
843.40 31.84393
843.50 29.22487
843.60 26.0421
843.70 23.66093
843.80 23.16218
843.90 23.13108
844.00 25.08539
844.10 27.07146
844.20 27.46003
844.30 27.16992
844.40 26.13922
844.50 24.25969
844.60 22.5513
844.70 22.12995
844.80 21.70392
844.90 22.2171
845.00 23.15176
845.10 23.45094
845.20 22.91176
845.30 22.25976
845.40 20.65483
845.50 18.76091
845.60 18.0156
845.70 17.85554
845.80 17.90332
845.90 18.05102
846.00 18.19873
846.10 18.48336
846.20 18.80216
846.30 19.3257
846.40 19.79662
846.50 19.6645
846.60 19.22017
846.70 18.99583
846.80 18.75452
846.90 18.08085
847.00 17.91222
847.10 18.51626
847.20 18.91057
847.30 18.66406
847.40 18.47563
847.50 18.68929
847.60 18.97744
847.70 19.52973
847.80 20.29928
847.90 20.64886
848.00 20.47339
848.10 20.3794
848.20 20.41117
848.30 20.44699
848.40 20.60828
848.50 20.87068
848.60 21.25458
848.70 21.68577
848.80 21.95005
848.90 22.05609
849.00 22.25252
849.10 22.88267
849.20 23.43362
849.30 23.86016
849.40 24.19111
849.50 24.27762
849.60 23.57918
849.70 22.71768
849.80 21.91046
849.90 21.32704
850.00 21.37721
850.10 21.54738
850.20 21.59222
850.30 22.04415
850.40 22.73706
850.50 22.70564
850.60 22.10942
850.70 21.24283
850.80 20.61952
850.90 20.36201
851.00 20.59698
851.10 20.80419
851.20 21.42714
851.30 22.06843
851.40 21.97509
851.50 21.70701
851.60 21.39099
851.70 20.93125
851.80 20.55265
851.90 20.16258
852.00 19.54777
852.10 19.32222
852.20 19.38869
852.30 19.44978
852.40 19.55868
852.50 19.71589
852.60 20.40272
852.70 21.22187
852.80 21.87054
852.90 22.53042
853.00 22.95719
853.10 23.05916
853.20 23.16892
853.30 23.43038
853.40 23.66245
853.50 23.79192
853.60 24.13315
853.70 24.33316
853.80 24.13963
853.90 23.9502
854.00 24.04292
854.10 24.27837
854.20 24.07942
854.30 23.88036
854.40 23.81484
854.50 23.70814
854.60 23.78037
854.70 24.44128
854.80 25.28243
854.90 25.80796
855.00 26.10584
855.10 26.51787
855.20 27.06952
855.30 27.56786
855.40 27.83605
855.50 28.01166
855.60 28.03895
855.70 28.33382
855.80 28.50256
855.90 28.10669
856.00 27.38163
856.10 26.44691
856.20 25.70289
856.30 25.71
856.40 25.77224
856.50 26.2444
856.60 26.88364
856.70 27.4764
856.80 27.97689
856.90 28.45684
857.00 28.41472
857.10 28.40154
857.20 28.07139
857.30 27.52525
857.40 27.19267
857.50 27.20786
857.60 27.15628
857.70 27.32084
857.80 27.65478
857.90 28.292
858.00 29.00422
858.10 29.16011
858.20 28.49995
858.30 27.92335
858.40 27.91491
858.50 28.10379
858.60 28.30136
858.70 28.25759
858.80 28.35649
858.90 28.56722
859.00 28.76946
859.10 28.76073
859.20 28.81482
859.30 28.77684
859.40 28.69234
859.50 28.82534
859.60 29.25299
859.70 29.53814
859.80 29.73993
859.90 30.0436
860.00 30.18612
860.10 30.14708
860.20 30.28794
860.30 30.42211
860.40 30.33436
860.50 30.36258
860.60 30.84702
860.70 31.55015
860.80 31.76762
860.90 31.90671
861.00 31.92021
861.10 31.66236
861.20 31.02506
861.30 30.36567
861.40 29.74649
861.50 29.11174
861.60 28.87288
861.70 28.72662
861.80 28.35665
861.90 28.02437
862.00 27.9021
862.10 28.31467
862.20 28.61313
862.30 28.99113
862.40 29.35223
862.50 29.24078
862.60 28.35124
862.70 27.71529
862.80 28.10386
862.90 28.43756
863.00 28.18935
863.10 27.98138
863.20 27.86431
863.30 27.93414
863.40 28.03105
863.50 28.51806
863.60 29.1395
863.70 29.18244
863.80 28.93554
863.90 28.84906
864.00 28.90614
864.10 29.02142
864.20 29.24555
864.30 29.66279
864.40 30.25024
864.50 30.67154
864.60 30.5493
864.70 29.93849
864.80 29.69502
864.90 29.68442
865.00 29.41639
865.10 29.56529
865.20 30.22302
865.30 30.76805
865.40 31.0507
865.50 31.31472
865.60 31.72199
865.70 32.08631
865.80 32.05593
865.90 31.94876
866.00 31.63817
866.10 31.09489
866.20 30.40456
866.30 29.59084
866.40 28.94662
866.50 29.43954
866.60 30.1989
866.70 31.27634
866.80 32.2183
866.90 32.77146
867.00 32.67994
867.10 32.36793
867.20 31.70807
867.30 31.42019
867.40 31.86654
867.50 32.40017
867.60 32.60043
867.70 32.52259
867.80 32.49746
867.90 32.82965
868.00 33.42274
868.10 33.55058
868.20 33.68893
868.30 33.64042
868.40 32.94473
868.50 32.15941
868.60 32.30983
868.70 32.96931
868.80 32.72148
868.90 31.8506
869.00 30.84399
869.10 29.82329
869.20 29.04401
869.30 28.44041
869.40 27.79624
869.50 27.07837
869.60 26.12415
869.70 25.70956
869.80 26.23945
869.90 26.82414
870.00 27.15982
870.10 27.27425
870.20 27.5283
870.30 27.93656
870.40 28.40958
870.50 28.95238
870.60 29.58284
870.70 30.33681
870.80 30.95742
870.90 30.46434
871.00 29.94055
871.10 29.22133
871.20 28.36458
871.30 27.63608
871.40 27.50008
871.50 27.69713
871.60 28.08996
871.70 28.12758
871.80 27.77861
871.90 27.36883
872.00 27.2879
872.10 27.71038
872.20 28.13185
872.30 28.35597
872.40 28.64823
872.50 28.88902
872.60 28.94461
872.70 29.32726
872.80 30.55147
872.90 31.83726
873.00 32.79421
873.10 33.52189
873.20 33.12009
873.30 32.38758
873.40 31.69924
873.50 31.09783
873.60 30.56166
873.70 30.49657
873.80 30.67364
873.90 30.90433
874.00 30.82211
874.10 31.10669
874.20 31.95815
874.30 32.75156
874.40 33.47749
874.50 34.17379
874.60 34.91757
874.70 35.56758
874.80 35.28478
874.90 34.04651
875.00 32.93761
875.10 32.20119
875.20 31.571
875.30 32.50345
875.40 33.65269
875.50 34.51309
875.60 35.2278
875.70 35.76034
875.80 35.61318
875.90 35.19201
876.00 35.58451
876.10 36.38342
876.20 37.04716
876.30 37.34262
876.40 37.12483
876.50 36.02958
876.60 34.91166
876.70 34.30105
876.80 33.68875
876.90 33.48203
877.00 33.75
877.10 34.68037
877.20 36.48308
877.30 38.19327
877.40 39.31627
877.50 40.20816
877.60 41.16262
877.70 42.30677
877.80 42.65094
877.90 41.24381
878.00 39.60552
878.10 37.956
878.20 36.48132
878.30 36.73008
878.40 37.44695
878.50 38.01444
878.60 38.4931
878.70 38.84614
878.80 38.73831
878.90 38.61942
879.00 38.77493
879.10 39.22887
879.20 39.8931
879.30 40.70123
879.40 41.14224
879.50 40.79285
879.60 40.32653
879.70 40.93446
879.80 41.84798
879.90 42.54299
880.00 42.78724
880.10 42.24963
880.20 39.79164
880.30 37.29104
880.40 35.84279
880.50 34.64473
880.60 34.56052
880.70 35.42658
880.80 36.12638
880.90 36.45253
881.00 36.92219
881.10 37.9201
881.20 38.70648
881.30 40.35908
881.40 42.19935
881.50 43.83355
881.60 44.97696
881.70 45.86118
881.80 45.88023
881.90 45.93202
882.00 46.22276
882.10 46.43495
882.20 45.78922
882.30 43.86333
882.40 41.85953
882.50 39.93932
882.60 38.15848
882.70 37.94588
882.80 38.07851
882.90 38.60951
883.00 39.66683
883.10 40.84735
883.20 42.21625
883.30 43.69891
883.40 44.49812
883.50 45.04989
883.60 45.24848
883.70 45.33539
883.80 45.44252
883.90 45.67031
884.00 45.68519
884.10 45.6181
884.20 45.96848
884.30 46.33439
884.40 46.39676
884.50 45.95857
884.60 44.59424
884.70 43.27329
884.80 41.987
884.90 40.85121
885.00 40.27365
885.10 39.96884
885.20 40.37272
885.30 42.82679
885.40 45.38316
885.50 47.21867
885.60 48.9946
885.70 48.74469
885.80 47.25441
885.90 45.10463
886.00 42.11886
886.10 39.00079
886.20 35.95672
886.30 32.9674
886.40 32.13582
886.50 32.37019
886.60 33.44994
886.70 35.83725
886.80 37.60891
886.90 37.15138
887.00 36.47874
887.10 34.44061
887.20 31.87787
887.30 29.41091
887.40 28.02726
887.50 27.29222
887.60 28.13528
887.70 29.01703
887.80 30.55137
887.90 32.29244
888.00 33.84051
888.10 35.11624
888.20 36.05437
888.30 35.85072
888.40 35.50885
888.50 34.28439
888.60 32.86882
888.70 32.30437
888.80 32.37331
888.90 32.98293
889.00 34.50616
889.10 35.64151
889.20 35.90138
889.30 36.32736
889.40 36.39787
889.50 36.21982
889.60 35.68422
889.70 34.38933
889.80 32.97556
889.90 32.43898
890.00 32.18288
890.10 33.42494
890.20 35.46537
890.30 37.13956
890.40 38.09324
890.50 38.90915
890.60 39.64009
890.70 40.50967
890.80 40.47335
890.90 40.29151
891.00 39.83543
891.10 39.03234
891.20 38.02243
891.30 37.27721
891.40 36.74254
891.50 37.60619
891.60 38.89198
891.70 39.90667
891.80 40.14754
891.90 40.28828
892.00 40.64581
892.10 41.17278
892.20 41.3846
892.30 41.37271
892.40 40.86517
892.50 39.92656
892.60 39.16306
892.70 38.85306
892.80 38.51939
892.90 38.55098
893.00 38.89683
893.10 39.64478
893.20 40.86578
893.30 42.14609
893.40 43.44439
893.50 44.67329
893.60 45.06468
893.70 45.22243
893.80 43.76871
893.90 41.40037
894.00 39.0911
894.10 37.52585
894.20 36.31295
894.30 36.61202
894.40 37.13236
894.50 36.92249
894.60 36.33414
894.70 36.27106
894.80 37.28759
894.90 38.32057
895.00 39.24028
895.10 40.12534
895.20 40.10414
895.30 39.8872
895.40 39.2893
895.50 38.72427
895.60 38.63417
895.70 39.77568
895.80 40.95844
895.90 41.41883
896.00 41.71767
896.10 41.69982
896.20 41.22167
896.30 40.76225
896.40 40.61197
896.50 40.74067
896.60 40.99471
896.70 40.93802
896.80 40.52797
896.90 40.00139
897.00 39.6921
897.10 40.27003
897.20 41.02238
897.30 41.49044
897.40 41.61688
897.50 41.89963
897.60 42.53278
897.70 43.41606
897.80 44.47397
897.90 45.37608
898.00 44.97755
898.10 44.00824
898.20 42.96007
898.30 42.18136
898.40 42.22555
898.50 43.63778
898.60 44.8793
898.70 45.96193
898.80 47.22228
898.90 47.61674
899.00 47.47439
899.10 46.92653
899.20 46.24575
899.30 45.50451
899.40 45.05968
899.50 44.64394
899.60 44.15071
899.70 43.89785
899.80 43.60829
899.90 43.05714
900.00 42.24191
900.10 41.29182
900.20 40.62005
900.30 42.29052
900.40 44.35316
900.50 45.93227
900.60 47.35857
900.70 48.48123
900.80 48.63309
900.90 48.8152
901.00 48.06718
901.10 46.81032
901.20 46.20509
901.30 46.41804
901.40 46.97195
901.50 47.38257
901.60 47.59539
901.70 47.39333
901.80 47.19045
901.90 46.351
902.00 45.503
902.10 44.62205
902.20 43.63803
902.30 42.68306
902.40 41.93238
902.50 41.10429
902.60 40.35117
902.70 39.8211
902.80 39.51248
902.90 39.39946
903.00 39.59789
903.10 40.66072
903.20 41.89483
903.30 42.71034
903.40 43.41899
903.50 44.52231
903.60 45.69477
903.70 46.5842
903.80 47.14017
903.90 47.79459
904.00 48.52541
904.10 49.36371
904.20 49.28853
904.30 48.51069
904.40 47.71374
904.50 47.07183
904.60 46.66635
904.70 47.39895
904.80 48.39762
904.90 49.21353
905.00 49.98599
905.10 50.37538
905.20 49.52306
905.30 48.67947
905.40 47.8981
905.50 47.22053
905.60 46.85778
905.70 46.38759
905.80 45.89216
905.90 45.59593
906.00 45.34602
906.10 45.223
906.20 45.16168
906.30 45.91994
906.40 46.92108
906.50 47.59598
906.60 47.26003
906.70 46.70615
906.80 46.08286
906.90 45.62164
907.00 45.0406
907.10 44.33534
907.20 44.32695
907.30 45.07619
907.40 45.88136
907.50 46.3529
907.60 46.72396
907.70 47.17742
907.80 47.37761
907.90 48.05502
908.00 49.49376
908.10 50.96752
908.20 51.70026
908.30 52.00327
908.40 50.95729
908.50 49.676
908.60 49.35497
908.70 49.63996
908.80 49.83693
908.90 49.60605
909.00 49.14728
909.10 48.73678
909.20 48.59088
909.30 48.9692
909.40 49.61832
909.50 50.20049
909.60 50.66206
909.70 51.12227
909.80 51.39338
909.90 51.50548
910.00 51.77035
910.10 52.36332
910.20 52.57795
910.30 52.28937
910.40 52.02016
910.50 51.66836
910.60 51.14371
910.70 50.2629
910.80 49.70395
910.90 49.65056
911.00 50.19864
911.10 50.76926
911.20 51.44811
911.30 52.1971
911.40 52.95446
911.50 53.7851
911.60 53.93192
911.70 53.39894
911.80 52.73547
911.90 52.41817
912.00 52.30719
912.10 52.56797
912.20 52.98338
912.30 53.33234
912.40 53.34204
912.50 53.22614
912.60 52.99986
912.70 52.91699
912.80 53.23873
912.90 53.66144
913.00 54.10443
913.10 54.40485
913.20 54.5165
913.30 54.88369
913.40 55.42311
913.50 55.87394
913.60 56.04518
913.70 55.36613
913.80 54.63322
913.90 53.57947
914.00 52.35092
914.10 51.23298
914.20 50.36206
914.30 49.50974
914.40 50.18002
914.50 51.0711
914.60 52.18882
914.70 53.41729
914.80 54.15947
914.90 53.6689
915.00 53.1337
915.10 52.35865
915.20 51.42118
915.30 51.52191
915.40 52.4728
915.50 53.9587
915.60 56.00334
915.70 57.70409
915.80 58.54819
915.90 59.6044
916.00 59.10782
916.10 58.15365
916.20 57.23191
916.30 56.06513
916.40 54.93104
916.50 54.64285
916.60 54.6276
916.70 55.57684
916.80 56.57339
916.90 57.05947
917.00 57.22609
917.10 57.56298
917.20 57.68132
917.30 57.53535
917.40 56.82998
917.50 56.0934
917.60 55.47262
917.70 55.13656
917.80 55.07257
917.90 55.39248
918.00 55.65909
918.10 55.8448
918.20 56.20208
918.30 56.52189
918.40 56.70211
918.50 56.56582
918.60 55.79766
918.70 55.22195
918.80 55.63908
918.90 55.79751
919.00 57.27516
919.10 59.74902
919.20 61.36502
919.30 60.92983
919.40 60.30095
919.50 58.64363
919.60 56.60342
919.70 56.35143
919.80 56.82792
919.90 57.61205
920.00 58.73836
920.10 59.56659
920.20 59.15307
920.30 58.51382
920.40 58.63521
920.50 59.14243
920.60 59.00456
920.70 58.52232
920.80 57.78406
920.90 55.85484
921.00 53.69735
921.10 52.22943
921.20 51.33953
921.30 51.63779
921.40 52.09227
921.50 52.56896
921.60 53.04768
921.70 53.68336
921.80 54.35112
921.90 55.12411
922.00 54.61238
922.10 53.87623
922.20 53.55266
922.30 53.45874
922.40 53.11432
922.50 52.43147
922.60 51.81415
922.70 52.10008
922.80 52.6528
922.90 53.39599
923.00 53.91943
923.10 53.79664
923.20 52.23747
923.30 50.5878
923.40 49.37705
923.50 48.83535
923.60 49.1019
923.70 49.62387
923.80 49.92519
923.90 49.87362
924.00 49.77205
924.10 49.64791
924.20 49.54125
924.30 50.95848
924.40 53.0974
924.50 54.35832
924.60 54.11412
924.70 53.69581
924.80 52.46975
924.90 50.85838
925.00 49.90189
925.10 49.52152
925.20 49.42426
925.30 49.34494
925.40 49.28116
925.50 49.58451
925.60 50.00298
925.70 51.66119
925.80 53.5554
925.90 55.02767
926.00 55.42768
926.10 55.47856
926.20 54.68207
926.30 53.9495
926.40 53.29909
926.50 52.69361
926.60 52.91263
926.70 54.10834
926.80 55.36356
926.90 56.05807
927.00 56.52706
927.10 56.31554
927.20 55.96159
927.30 55.31506
927.40 54.44979
927.50 53.39738
927.60 52.20206
927.70 51.19522
927.80 50.44566
927.90 49.53377
928.00 48.83711
928.10 48.65507
928.20 48.95685
928.30 49.63746
928.40 50.44491
928.50 51.48951
928.60 52.58844
928.70 52.71298
928.80 52.20471
928.90 51.51625
929.00 51.18027
929.10 50.88869
929.20 50.48164
929.30 49.98878
929.40 50.01725
929.50 50.18833
929.60 50.43221
929.70 50.9586
929.80 51.3131
929.90 50.82943
930.00 50.23848
930.10 49.24029
930.20 47.75615
930.30 47.10528
930.40 47.39774
930.50 47.9094
930.60 48.39253
930.70 48.76151
930.80 48.54529
930.90 48.21834
931.00 48.36445
931.10 48.71997
931.20 49.66714
931.30 51.01068
931.40 52.19859
931.50 52.69726
931.60 53.19322
931.70 52.13162
931.80 51.15726
931.90 50.4087
932.00 50.39011
932.10 51.02691
932.20 51.53586
932.30 51.63109
932.40 51.72218
932.50 51.66839
932.60 51.02991
932.70 50.54651
932.80 50.30754
932.90 50.33217
933.00 50.31795
933.10 50.67259
933.20 51.07192
933.30 51.45166
933.40 51.62411
933.50 51.83635
933.60 51.78934
933.70 51.60212
933.80 51.52678
933.90 51.88516
934.00 52.29891
934.10 52.47358
934.20 52.26592
934.30 51.95176
934.40 51.92308
934.50 52.16137
934.60 52.07998
934.70 52.01629
934.80 52.40543
934.90 52.86481
935.00 52.80064
935.10 52.20617
935.20 51.61565
935.30 51.28981
935.40 51.09024
935.50 50.95332
935.60 50.98712
935.70 51.05061
935.80 51.07068
935.90 51.49303
936.00 51.91981
936.10 52.77458
936.20 53.71188
936.30 54.556
936.40 54.5539
936.50 54.25133
936.60 53.92614
936.70 53.82399
936.80 53.74759
936.90 53.59281
937.00 53.11076
937.10 52.62736
937.20 52.01822
937.30 51.62131
937.40 51.39906
937.50 51.36838
937.60 51.4037
937.70 51.41648
937.80 51.45112
937.90 51.48818
938.00 51.62046
938.10 51.73758
938.20 51.80516
938.30 51.58819
938.40 51.41107
938.50 51.44407
938.60 51.6276
938.70 51.82417
938.80 51.96529
938.90 52.20982
939.00 52.45397
939.10 52.87867
939.20 53.25359
939.30 53.56695
939.40 53.63697
939.50 53.68152
939.60 53.45436
939.70 52.66531
939.80 51.85349
939.90 51.35567
940.00 51.35433
940.10 51.40947
940.20 51.80236
940.30 52.10971
940.40 52.28784
940.50 52.50616
940.60 52.78378
940.70 53.3851
940.80 54.14413
940.90 54.89835
941.00 55.45034
941.10 55.7775
941.20 55.9103
941.30 55.39542
941.40 54.81431
941.50 54.15287
941.60 53.31536
941.70 52.45306
941.80 52.18366
941.90 52.25275
942.00 52.2971
942.10 52.37682
942.20 52.64242
942.30 52.91625
942.40 52.95858
942.50 52.94871
942.60 53.00782
942.70 52.90448
942.80 52.80185
942.90 52.86727
943.00 53.42382
943.10 54.15896
943.20 55.18821
943.30 56.14841
943.40 56.79663
943.50 56.83599
943.60 56.84318
943.70 56.66281
943.80 56.34099
943.90 56.00717
944.00 55.36871
944.10 54.64932
944.20 54.02065
944.30 53.83011
944.40 53.70631
944.50 53.36905
944.60 53.1483
944.70 52.92453
944.80 53.1305
944.90 53.26098
945.00 53.41131
945.10 53.80244
945.20 54.21855
945.30 54.58533
945.40 54.51095
945.50 54.40409
945.60 54.34539
945.70 54.52053
945.80 54.65112
945.90 54.22431
946.00 53.66163
946.10 53.29153
946.20 53.60279
946.30 54.05119
946.40 54.9357
946.50 55.67506
946.60 56.42971
946.70 56.30956
946.80 56.18848
946.90 56.11936
947.00 56.36829
947.10 56.65395
947.20 56.88701
947.30 56.86109
947.40 56.83344
947.50 56.9332
947.60 57.23175
947.70 57.52854
947.80 57.64566
947.90 57.61836
948.00 57.65545
948.10 58.09768
948.20 58.57617
948.30 58.80787
948.40 59.01202
948.50 59.2153
948.60 59.50887
948.70 59.47299
948.80 59.36608
948.90 59.3056
949.00 59.33973
949.10 59.5618
949.20 59.88877
949.30 60.22583
949.40 60.00789
949.50 59.36443
949.60 58.71457
949.70 58.05541
949.80 57.62319
949.90 57.53142
950.00 58.08712
950.10 58.61805
950.20 59.06762
950.30 59.56311
950.40 60.068
950.50 59.74891
950.60 59.11341
950.70 58.57955
950.80 58.47622
950.90 58.47508
951.00 58.6263
951.10 58.8162
951.20 59.00454
951.30 59.00085
951.40 58.83694
951.50 58.66462
951.60 58.35831
951.70 58.06685
951.80 57.76381
951.90 57.4357
952.00 57.11388
952.10 56.94459
952.20 57.17755
952.30 57.40694
952.40 58.15141
952.50 59.08288
952.60 59.9926
952.70 60.67695
952.80 61.26596
952.90 61.58461
953.00 61.36645
953.10 61.10437
953.20 60.80153
953.30 60.52576
953.40 60.24387
953.50 59.72086
953.60 59.02934
953.70 58.32896
953.80 58.06647
953.90 57.94218
954.00 58.13923
954.10 58.11817
954.20 58.0879
954.30 57.9186
954.40 57.87376
954.50 57.70768
954.60 57.37516
954.70 57.15459
954.80 57.19103
954.90 57.3209
955.00 57.40618
955.10 57.78864
955.20 58.17458
955.30 58.52142
955.40 58.716
955.50 58.98471
955.60 59.30559
955.70 59.91284
955.80 60.58126
955.90 61.22165
956.00 61.6394
956.10 62.06047
956.20 61.98301
956.30 61.52615
956.40 60.95655
956.50 60.41931
956.60 59.98382
956.70 60.00453
956.80 60.6233
956.90 61.28422
957.00 61.45771
957.10 61.47627
957.20 61.53001
957.30 61.55213
957.40 61.36543
957.50 60.96329
957.60 60.32311
957.70 59.64848
957.80 59.06696
957.90 58.58172
958.00 58.09652
958.10 58.43717
958.20 59.06728
958.30 59.58294
958.40 59.79079
958.50 59.98082
958.60 60.13615
958.70 59.92812
958.80 59.70149
958.90 58.94186
959.00 57.8268
959.10 56.779
959.20 56.50517
959.30 56.658
959.40 57.02951
959.50 57.59607
959.60 58.17413
959.70 57.80079
959.80 56.47187
959.90 55.15468
960.00 53.9513
960.10 52.88481
960.20 52.2962
960.30 53.07904
960.40 54.0846
960.50 55.47244
960.60 56.93361
960.70 58.40246
960.80 59.08207
960.90 59.49753
961.00 59.80736
961.10 59.66139
961.20 59.47575
961.30 59.21428
961.40 58.83369
961.50 58.40727
961.60 57.97202
961.70 57.67032
961.80 57.42975
961.90 58.24777
962.00 59.42069
962.10 60.46244
962.20 60.95188
962.30 61.27967
962.40 61.23523
962.50 60.77502
962.60 60.29543
962.70 60.30517
962.80 60.46279
962.90 60.55745
963.00 60.55042
963.10 60.54751
963.20 60.41697
963.30 59.73822
963.40 59.0329
963.50 58.13085
963.60 57.16796
963.70 56.05629
963.80 53.37222
963.90 50.35395
964.00 47.98544
964.10 47.44061
964.20 47.21571
964.30 48.70937
964.40 51.41546
964.50 54.13296
964.60 54.95009
964.70 55.30713
964.80 55.53003
964.90 55.31422
965.00 55.05382
965.10 55.16252
965.20 55.56775
965.30 55.95163
965.40 56.45483
965.50 56.97218
965.60 57.45377
965.70 57.85283
965.80 58.44019
965.90 59.04725
966.00 59.62257
966.10 60.172
966.20 60.78139
966.30 61.23677
966.40 61.69119
966.50 61.68989
966.60 61.50243
966.70 61.1926
966.80 60.72663
966.90 60.32492
967.00 60.25988
967.10 60.4344
967.20 60.6128
967.30 60.13973
967.40 59.45172
967.50 58.60033
967.60 56.68203
967.70 54.45432
967.80 53.03283
967.90 53.28173
968.00 53.70214
968.10 55.16813
968.20 57.45007
968.30 59.68228
968.40 60.15377
968.50 59.98182
968.60 59.69047
968.70 59.02693
968.80 58.31222
968.90 57.32597
969.00 56.58962
969.10 55.85716
969.20 56.43134
969.30 57.44702
969.40 58.5427
969.50 59.90111
969.60 61.21797
969.70 62.13228
969.80 62.32668
969.90 62.4796
970.00 62.57893
970.10 62.83172
970.20 63.05094
970.30 62.72469
970.40 62.19273
970.50 61.16073
970.60 59.05196
970.70 56.76443
970.80 55.37362
970.90 55.1827
971.00 54.95946
971.10 56.73358
971.20 59.10944
971.30 61.27882
971.40 62.68396
971.50 63.954
971.60 64.86197
971.70 65.07912
971.80 65.2672
971.90 64.90744
972.00 64.19471
972.10 63.48792
972.20 62.83988
972.30 62.18609
972.40 61.79104
972.50 61.94181
972.60 62.18861
972.70 61.8139
972.80 60.86569
972.90 59.93134
973.00 58.28048
973.10 56.41529
973.20 55.20483
973.30 55.99125
973.40 57.14085
973.50 58.25512
973.60 59.23009
973.70 60.18799
973.80 60.32816
973.90 60.24981
974.00 60.17918
974.10 60.04124
974.20 59.81527
974.30 59.17548
974.40 57.77129
974.50 56.2809
974.60 55.321
974.70 55.11392
974.80 54.9797
974.90 56.12974
975.00 57.35987
975.10 58.34031
975.20 58.83495
975.30 59.31207
975.40 59.77051
975.50 60.48522
975.60 61.20068
975.70 61.42616
975.80 61.34168
975.90 61.38392
976.00 61.80748
976.10 62.21142
976.20 62.24754
976.30 61.83552
976.40 61.39144
976.50 61.49788
976.60 62.19819
976.70 62.85026
976.80 62.99606
976.90 62.97433
977.00 62.53828
977.10 60.9901
977.20 59.21623
977.30 58.11709
977.40 58.20374
977.50 58.25717
977.60 59.46548
977.70 60.85055
977.80 62.0306
977.90 62.42365
978.00 62.63166
978.10 62.25533
978.20 61.2545
978.30 60.24626
978.40 58.21075
978.50 55.82407
978.60 53.75137
978.70 53.4918
978.80 53.5524
978.90 53.85317
979.00 54.52755
979.10 55.21595
979.20 56.6121
979.30 58.74941
979.40 60.85702
979.50 62.22314
979.60 63.18866
979.70 63.74025
979.80 63.56996
979.90 63.39993
980.00 63.51098
980.10 63.71056
980.20 63.90854
980.30 63.96948
980.40 64.00385
980.50 64.01955
980.60 63.89226
980.70 63.69491
980.80 63.4984
980.90 63.45322
981.00 63.43199
981.10 63.7026
981.20 64.26419
981.30 64.77757
981.40 64.54896
981.50 63.84345
981.60 62.98866
981.70 62.12757
981.80 61.32658
981.90 61.16245
982.00 61.8677
982.10 62.57141
982.20 62.70068
982.30 62.54131
982.40 62.42429
982.50 62.44001
982.60 62.48124
982.70 62.64133
982.80 62.94806
982.90 63.26834
983.00 63.07787
983.10 62.58176
983.20 62.1244
983.30 61.98532
983.40 62.00605
983.50 61.9685
983.60 61.67582
983.70 61.32671
983.80 61.00273
983.90 61.00014
984.00 61.0349
984.10 61.58771
984.20 62.11876
984.30 62.55467
984.40 62.59942
984.50 62.54098
984.60 62.48656
984.70 62.89133
984.80 63.30827
984.90 63.5547
985.00 63.50678
985.10 63.32543
985.20 62.67647
985.30 61.9608
985.40 61.5474
985.50 61.76991
985.60 62.0464
985.70 62.56719
985.80 63.03061
985.90 63.43384
986.00 63.38947
986.10 63.31515
986.20 63.26806
986.30 63.25321
986.40 63.23243
986.50 63.46147
986.60 63.95657
986.70 64.43638
986.80 64.00191
986.90 63.17661
987.00 62.38627
987.10 61.76112
987.20 61.17089
987.30 61.26602
987.40 62.51442
987.50 63.83453
987.60 64.64048
987.70 65.10967
987.80 65.41658
987.90 64.76997
988.00 63.77387
988.10 62.88968
988.20 62.53681
988.30 62.26442
988.40 62.65551
988.50 63.70799
988.60 64.73561
988.70 65.31083
988.80 65.55773
988.90 65.63281
989.00 65.2513
989.10 64.78273
989.20 64.24084
989.30 63.67332
989.40 63.11725
989.50 61.84574
989.60 60.34441
989.70 58.47809
989.80 55.52936
989.90 52.41812
990.00 50.24124
990.10 49.30556
990.20 48.43234
990.30 47.46145
990.40 46.33469
990.50 45.09719
990.60 43.10954
990.70 40.87551
990.80 38.98362
990.90 38.11975
991.00 37.42242
991.10 37.54984
991.20 38.23308
991.30 38.86215
991.40 38.46223
991.50 37.59355
991.60 36.7297
991.70 36.10776
991.80 35.56388
991.90 35.92013
992.00 37.45717
992.10 39.01863
992.20 39.76127
992.30 39.98189
992.40 39.91657
992.50 38.84057
992.60 37.60344
992.70 37.19616
992.80 38.106
992.90 39.08689
993.00 40.6054
993.10 42.55604
993.20 44.34681
993.30 44.72607
993.40 44.58831
993.50 44.30082
993.60 43.90197
993.70 43.4582
993.80 44.15445
993.90 46.3323
994.00 48.4889
994.10 50.09092
994.20 51.26045
994.30 52.0195
994.40 51.67923
994.50 51.17778
994.60 50.8085
994.70 50.69028
994.80 50.56089
994.90 51.18007
995.00 52.05676
995.10 52.90463
995.20 53.692
995.30 54.52888
995.40 55.3026
995.50 55.82618
995.60 56.34357
995.70 55.66278
995.80 54.07516
995.90 52.57001
996.00 51.82095
996.10 51.29705
996.20 51.1029
996.30 51.79182
996.40 52.62142
996.50 54.00689
996.60 56.04485
996.70 58.06887
996.80 58.10516
996.90 57.22402
997.00 55.79299
997.10 52.88154
997.20 49.74211
997.30 47.37645
997.40 46.26338
997.50 45.15358
997.60 45.60877
997.70 46.78833
997.80 47.99538
997.90 49.29307
998.00 50.59684
998.10 51.80625
998.20 52.67963
998.30 53.53454
998.40 52.99949
998.50 51.51686
998.60 50.08375
998.70 49.25165
998.80 48.70857
998.90 48.47321
999.00 48.59216
999.10 48.67736
999.20 48.55646
999.30 48.41033
999.40 48.25236
999.50 48.75497
999.60 49.58217
999.70 50.17075
999.80 49.88017
999.90 49.2918
1000.00 49.39897
1000.10 50.88227
1000.20 52.445
1000.30 54.07036
1000.40 55.61236
1000.50 56.98909
1000.60 57.40412
1000.70 57.65606
1000.80 57.43179
1000.90 56.12041
1001.00 54.67678
1001.10 53.18064
1001.20 51.64894
1001.30 50.26004
1001.40 50.85176
1001.50 52.08707
1001.60 53.43849
1001.70 54.97435
1001.80 56.51825
1001.90 57.32439
1002.00 57.08359
1002.10 56.91112
1002.20 56.2499
1002.30 55.46575
1002.40 55.02033
1002.50 55.80091
1002.60 56.88244
1002.70 57.70603
1002.80 57.62578
1002.90 57.48813
1003.00 56.7274
1003.10 56.11981
1003.20 55.56422
1003.30 55.10159
1003.40 54.5322
1003.50 53.833
1003.60 52.94222
1003.70 52.04062
1003.80 51.43685
1003.90 51.19404
1004.00 51.06499
1004.10 52.40533
1004.20 54.06733
1004.30 55.73009
1004.40 57.30655
1004.50 58.92822
1004.60 59.71332
1004.70 59.59526
1004.80 59.51605
1004.90 58.41517
1005.00 56.83952
1005.10 55.06388
1005.20 52.66839
1005.30 50.16534
1005.40 48.00293
1005.50 46.55655
1005.60 45.08925
1005.70 44.9073
1005.80 45.54138
1005.90 46.29179
1006.00 47.58975
1006.10 48.94442
1006.20 49.94845
1006.30 50.05692
1006.40 50.09938
1006.50 50.22351
1006.60 50.47834
1006.70 50.81467
1006.80 52.32933
1006.90 54.26007
1007.00 55.89072
1007.10 56.30722
1007.20 56.50642
1007.30 56.08083
1007.40 55.46706
1007.50 54.81477
1007.60 55.4714
1007.70 56.5899
1007.80 57.70031
1007.90 58.51926
1008.00 59.21367
1008.10 59.58726
1008.20 59.7105
1008.30 59.83082
1008.40 59.92901
1008.50 59.99918
1008.60 60.11157
1008.70 60.24483
1008.80 60.34804
1008.90 59.87612
1009.00 58.31443
1009.10 56.61747
1009.20 55.2646
1009.30 54.34882
1009.40 53.53937
1009.50 54.22857
1009.60 55.36384
1009.70 56.56243
1009.80 58.04972
1009.90 59.61062
1010.00 61.22051
1010.10 62.90817
1010.20 64.61232
1010.30 65.7509
1010.40 66.39709
1010.50 66.70552
1010.60 65.95331
1010.70 65.02684
1010.80 64.00917
1010.90 63.05193
1011.00 62.13449
1011.10 60.8733
1011.20 59.21521
1011.30 57.66379
1011.40 56.85349
1011.50 56.31524
1011.60 55.84882
1011.70 55.33576
1011.80 54.79269
1011.90 54.46702
1012.00 54.44506
1012.10 54.57452
1012.20 56.67478
1012.30 59.35696
1012.40 61.70001
1012.50 63.1314
1012.60 64.4873
1012.70 65.01573
1012.80 64.16668
1012.90 63.31236
1013.00 63.154
1013.10 63.31064
1013.20 63.31936
1013.30 62.8166
1013.40 62.32135
1013.50 61.08642
1013.60 58.3731
1013.70 55.54728
1013.80 53.48291
1013.90 52.22856
1014.00 51.28129
1014.10 52.10136
1014.20 53.28387
1014.30 54.69248
1014.40 56.28183
1014.50 57.91114
1014.60 58.2275
1014.70 57.41049
1014.80 56.59296
1014.90 55.90256
1015.00 55.35536
1015.10 55.64004
1015.20 57.8312
1015.30 60.33539
1015.40 61.78252
1015.50 61.56215
1015.60 61.42221
1015.70 59.6244
1015.80 57.43396
1015.90 55.57612
1016.00 55.00685
1016.10 54.68326
1016.20 54.94905
1016.30 55.86244
1016.40 56.80836
1016.50 57.18524
1016.60 57.36108
1016.70 57.64031
1016.80 58.43731
1016.90 59.40974
1017.00 59.78419
1017.10 58.7438
1017.20 57.51196
1017.30 56.93804
1017.40 57.32158
1017.50 57.81964
1017.60 59.88658
1017.70 62.46569
1017.80 64.16598
1017.90 63.16457
1018.00 61.66014
1018.10 59.91971
1018.20 58.66626
1018.30 57.39115
1018.40 56.72585
1018.50 55.96321
1018.60 55.23584
1018.70 54.76015
1018.80 54.35038
1018.90 54.74945
1019.00 56.13672
1019.10 57.56039
1019.20 58.58625
1019.30 59.46669
1019.40 60.12585
1019.50 59.99386
1019.60 59.60069
1019.70 59.39859
1019.80 59.52468
1019.90 59.7064
1020.00 59.57245
1020.10 59.16968
1020.20 58.84399
1020.30 58.97877
1020.40 59.30887
1020.50 59.73855
1020.60 60.28991
1020.70 60.824
1020.80 61.21891
1020.90 61.47094
1021.00 61.72523
1021.10 61.45595
1021.20 60.79629
1021.30 59.82862
1021.40 58.28801
1021.50 56.69431
1021.60 55.38589
1021.70 54.47169
1021.80 53.58549
1021.90 52.86461
1022.00 52.27894
1022.10 51.82534
1022.20 51.94551
1022.30 52.04454
1022.40 52.95568
1022.50 54.97681
1022.60 57.08463
1022.70 58.03907
1022.80 58.47384
1022.90 58.83416
1023.00 58.65825
1023.10 58.3953
1023.20 57.93844
1023.30 57.19672
1023.40 56.31661
1023.50 56.52765
1023.60 57.7669
1023.70 58.98917
1023.80 59.9835
1023.90 60.68902
1024.00 61.18897
1024.10 61.56715
1024.20 62.02848
1024.30 62.71359
1024.40 63.15542
1024.50 63.6937
1024.60 62.65122
1024.70 61.21516
1024.80 59.9984
1024.90 59.51648
1025.00 59.14167
1025.10 58.512
1025.20 57.37383
1025.30 56.24009
1025.40 55.57978
1025.50 55.27672
1025.60 55.18018
1025.70 56.02435
1025.80 57.11873
1025.90 57.28012
1026.00 55.51391
1026.10 53.56297
1026.20 51.83417
1026.30 50.62993
1026.40 49.51366
1026.50 49.97476
1026.60 50.63577
1026.70 51.77811
1026.80 54.22428
1026.90 56.95644
1027.00 58.90513
1027.10 59.86369
1027.20 60.82115
1027.30 60.46553
1027.40 59.57478
1027.50 58.62869
1027.60 57.50334
1027.70 56.26856
1027.80 55.47758
1027.90 55.47202
1028.00 55.53708
1028.10 55.00887
1028.20 54.20663
1028.30 53.36708
1028.40 52.4135
1028.50 51.32615
1028.60 51.23704
1028.70 52.97379
1028.80 54.92383
1028.90 57.16953
1029.00 59.09436
1029.10 60.65014
1029.20 60.17987
1029.30 59.14598
1029.40 58.23262
1029.50 57.90479
1029.60 57.60117
1029.70 57.71684
1029.80 57.70695
1029.90 57.65108
1030.00 57.14667
1030.10 56.82793
1030.20 56.55575
1030.30 56.45721
1030.40 56.27062
1030.50 56.87275
1030.60 58.42771
1030.70 59.91706
1030.80 60.25356
1030.90 60.3175
1031.00 60.18175
1031.10 59.52628
1031.20 58.70006
1031.30 58.51015
1031.40 59.34486
1031.50 60.25732
1031.60 60.33839
1031.70 59.87097
1031.80 59.2921
1031.90 58.24575
1032.00 57.07831
1032.10 56.4263
1032.20 56.70586
1032.30 57.0847
1032.40 56.80725
1032.50 55.8215
1032.60 54.93393
1032.70 55.51017
1032.80 56.58696
1032.90 57.99654
1033.00 60.03584
1033.10 62.16731
1033.20 63.76563
1033.30 64.75444
1033.40 65.72587
1033.50 64.7842
1033.60 62.95523
1033.70 60.89897
1033.80 58.64048
1033.90 56.3785
1034.00 54.96547
1034.10 54.73675
1034.20 54.49383
1034.30 54.17507
1034.40 53.6899
1034.50 53.19922
1034.60 52.81112
1034.70 52.37837
1034.80 52.79552
1034.90 54.40361
1035.00 56.26341
1035.10 56.79231
1035.20 56.24989
1035.30 55.78785
1035.40 56.03293
1035.50 56.61226
1035.60 57.22615
1035.70 57.80412
1035.80 58.32853
1035.90 59.05933
1036.00 60.13387
1036.10 61.22543
1036.20 62.37115
1036.30 63.37769
1036.40 64.06036
1036.50 64.03634
1036.60 63.98169
1036.70 63.9891
1036.80 64.0618
1036.90 64.07921
1037.00 64.69226
1037.10 65.56017
1037.20 66.4456
1037.30 67.2928
1037.40 68.19241
1037.50 68.57046
1037.60 67.91261
1037.70 67.31901
1037.80 65.55106
1037.90 63.12701
1038.00 60.7575
1038.10 58.79204
1038.20 56.78396
1038.30 55.74611
1038.40 56.35382
1038.50 57.05616
1038.60 58.3601
1038.70 60.08393
1038.80 61.62744
1038.90 61.84116
1039.00 61.61207
1039.10 61.25421
1039.20 60.78239
1039.30 60.28955
1039.40 59.78291
1039.50 59.25287
1039.60 58.71992
1039.70 58.19788
1039.80 57.76374
1039.90 57.66776
1040.00 58.21226
1040.10 58.6868
1040.20 59.54475
1040.30 61.0428
1040.40 62.63233
1040.50 63.60048
1040.60 64.20015
1040.70 64.7167
1040.80 65.04865
1040.90 65.44722
1041.00 65.5492
1041.10 64.78159
1041.20 64.04898
1041.30 62.60732
1041.40 60.81961
1041.50 59.25942
1041.60 59.32015
1041.70 59.70751
1041.80 60.78171
1041.90 63.10732
1042.00 65.69426
1042.10 66.87642
1042.20 66.33705
1042.30 65.77247
1042.40 64.30397
1042.50 62.84256
1042.60 61.24346
1042.70 59.28675
1042.80 57.212
1042.90 55.79334
1043.00 55.29967
1043.10 54.8469
1043.20 56.83677
1043.30 59.738
1043.40 62.41241
1043.50 64.33344
1043.60 66.25795
1043.70 67.2512
1043.80 66.90603
1043.90 66.46325
1044.00 66.27976
1044.10 66.32819
1044.20 66.3782
1044.30 66.3726
1044.40 66.39764
1044.50 66.26087
1044.60 65.94099
1044.70 65.58519
1044.80 65.69974
1044.90 65.87921
1045.00 66.15554
1045.10 67.43952
1045.20 69.03193
1045.30 70.47144
1045.40 71.55051
1045.50 72.73305
1045.60 73.49879
1045.70 73.6955
1045.80 73.86831
1045.90 72.65113
1046.00 71.04162
1046.10 69.42726
1046.20 67.69431
1046.30 65.76619
1046.40 64.26008
1046.50 63.70097
1046.60 63.08876
1046.70 62.19652
1046.80 61.40318
1046.90 60.62869
1047.00 59.75492
1047.10 58.69555
1047.20 58.15732
1047.30 58.52374
1047.40 58.93296
1047.50 59.52553
1047.60 60.06891
1047.70 60.56702
1047.80 60.75839
1047.90 60.85656
1048.00 60.82604
1048.10 60.6927
1048.20 60.45491
1048.30 61.10861
1048.40 62.55309
1048.50 63.93524
1048.60 64.70973
1048.70 65.27654
1048.80 65.64545
1048.90 65.62941
1049.00 65.5351
1049.10 65.49863
1049.20 65.74409
1049.30 65.96929
1049.40 65.93805
1049.50 65.85199
1049.60 65.23457
1049.70 63.19038
1049.80 60.9487
1049.90 59.73119
1050.00 60.0994
1050.10 60.34926
1050.20 61.57486
1050.30 62.88656
1050.40 63.80998
1050.50 63.88756
1050.60 63.90234
1050.70 63.81609
1050.80 63.62578
1050.90 63.41151
1051.00 63.35088
1051.10 63.26024
1051.20 62.86505
1051.30 61.50015
1051.40 59.91175
1051.50 58.72466
1051.60 58.41952
1051.70 58.15989
1051.80 58.48019
1051.90 58.82451
1052.00 59.1027
1052.10 59.0408
1052.20 58.89408
1052.30 58.89152
1052.40 59.40257
1052.50 59.96652
1052.60 61.22736
1052.70 62.95705
1052.80 64.63508
1052.90 65.41762
1053.00 65.90892
1053.10 65.96983
1053.20 65.12653
1053.30 64.11513
1053.40 63.67618
1053.50 64.27382
1053.60 64.83036
1053.70 65.12405
1053.80 65.22381
1053.90 65.09886
1054.00 64.40171
1054.10 63.53131
1054.20 63.25574
1054.30 64.01457
1054.40 64.85707
1054.50 64.92012
1054.60 64.27546
1054.70 63.45008
1054.80 62.2198
1054.90 60.86894
1055.00 60.22521
1055.10 61.04624
1055.20 62.03667
1055.30 62.97834
1055.40 63.68194
1055.50 64.23452
1055.60 63.52314
1055.70 62.52223
1055.80 61.40367
1055.90 60.25425
1056.00 59.01593
1056.10 58.07314
1056.20 57.43451
1056.30 56.85427
1056.40 57.01105
1056.50 57.27951
1056.60 57.68363
1056.70 58.43226
1056.80 59.22831
1056.90 59.64371
1057.00 59.59215
1057.10 59.61127
1057.20 59.96527
1057.30 60.45554
1057.40 61.05752
1057.50 61.76021
1057.60 62.43573
1057.70 62.84632
1057.80 62.89849
1057.90 62.97565
1058.00 62.98705
1058.10 63.00432
1058.20 63.03643
1058.30 63.05717
1058.40 63.14519
1058.50 62.63924
1058.60 61.32348
1058.70 59.95693
1058.80 59.28494
1058.90 58.94437
1059.00 58.69057
1059.10 58.94071
1059.20 59.21763
1059.30 59.48396
1059.40 59.99077
1059.50 60.51497
1059.60 61.33447
1059.70 62.17185
1059.80 62.91759
1059.90 62.56185
1060.00 61.97544
1060.10 61.38283
1060.20 60.96518
1060.30 60.63638
1060.40 60.32431
1060.50 59.84461
1060.60 59.39302
1060.70 58.8548
1060.80 58.07297
1060.90 57.41521
1061.00 57.24319
1061.10 57.20769
1061.20 57.71438
1061.30 58.77738
1061.40 59.843
1061.50 60.56791
1061.60 61.40513
1061.70 62.03109
1061.80 61.80944
1061.90 61.43103
1062.00 61.09733
1062.10 60.54868
1062.20 59.91962
1062.30 59.60604
1062.40 59.79152
1062.50 60.1076
1062.60 61.19948
1062.70 62.35198
1062.80 63.55097
1062.90 64.77178
1063.00 66.09018
1063.10 66.53007
1063.20 66.04181
1063.30 65.53359
1063.40 64.86525
1063.50 64.3114
1063.60 64.0716
1063.70 64.31799
1063.80 64.50406
1063.90 64.99883
1064.00 65.76264
1064.10 66.52524
1064.20 66.85392
1064.30 66.96133
1064.40 66.9523
1064.50 66.78024
1064.60 66.67272
1064.70 66.59238
1064.80 66.58064
1064.90 66.50867
1065.00 66.59019
1065.10 66.83014
1065.20 66.89625
1065.30 66.09737
1065.40 65.04238
1065.50 63.79945
1065.60 62.65047
1065.70 61.51179
1065.80 61.11296
1065.90 60.98006
1066.00 60.82736
1066.10 60.57694
1066.20 60.37063
1066.30 59.7081
1066.40 58.48829
1066.50 57.1608
1066.60 56.92036
1066.70 57.44844
1066.80 57.90988
1066.90 58.06941
1067.00 58.00693
1067.10 57.89143
1067.20 57.93406
1067.30 58.00245
1067.40 58.88054
1067.50 60.54749
1067.60 62.18024
1067.70 63.26079
1067.80 64.04239
1067.90 64.72217
1068.00 65.17706
1068.10 65.66724
1068.20 66.11478
1068.30 67.24153
1068.40 68.31903
1068.50 69.29015
1068.60 69.9551
1068.70 70.52082
1068.80 70.43896
1068.90 70.19469
1069.00 69.82819
1069.10 69.44759
1069.20 68.99338
1069.30 68.60842
1069.40 68.28697
1069.50 67.83277
1069.60 66.68519
1069.70 65.22123
1069.80 64.06008
1069.90 63.88461
1070.00 63.75051
1070.10 63.6511
1070.20 63.4603
1070.30 63.23984
1070.40 62.94051
1070.50 62.689
1070.60 62.82155
1070.70 63.83744
1070.80 65.00597
1070.90 65.74451
1071.00 65.45125
1071.10 65.16167
1071.20 64.81244
1071.30 64.47439
1071.40 64.50095
1071.50 65.49781
1071.60 66.6913
1071.70 67.17999
1071.80 66.84563
1071.90 66.57072
1072.00 66.40525
1072.10 66.40096
1072.20 66.35578
1072.30 65.97068
1072.40 65.54472
1072.50 64.65889
1072.60 63.59599
1072.70 62.40029
1072.80 62.6052
1072.90 63.41532
1073.00 64.26191
1073.10 65.00773
1073.20 65.80793
1073.30 66.11145
1073.40 65.18633
1073.50 64.14366
1073.60 63.6859
1073.70 63.89473
1073.80 64.17229
1073.90 64.95137
1074.00 65.67217
1074.10 66.37435
1074.20 67.14898
1074.30 68.0834
1074.40 68.38304
1074.50 68.08541
1074.60 67.81427
1074.70 67.80131
1074.80 68.10024
1074.90 68.42031
1075.00 68.40025
1075.10 68.26803
1075.20 67.67389
1075.30 66.77212
1075.40 65.88797
1075.50 65.36868
1075.60 64.75493
1075.70 64.57455
1075.80 65.6076
1075.90 66.9189
1076.00 67.90393
1076.10 68.03281
1076.20 68.24447
1076.30 68.12935
1076.40 67.87606
1076.50 67.68445
1076.60 67.67929
1076.70 67.66716
1076.80 67.63555
1076.90 67.92849
1077.00 68.26829
1077.10 68.435
1077.20 68.37377
1077.30 68.268
1077.40 67.92526
1077.50 67.5197
1077.60 66.84249
1077.70 66.0087
1077.80 65.10708
1077.90 65.23643
1078.00 65.94288
1078.10 66.59532
1078.20 66.92562
1078.30 67.15582
1078.40 67.22912
1078.50 67.34576
1078.60 67.57355
1078.70 67.52422
1078.80 66.76698
1078.90 65.99281
1079.00 65.05071
1079.10 64.20348
1079.20 63.47437
1079.30 62.88451
1079.40 62.32768
1079.50 62.15968
1079.60 62.49248
1079.70 62.73651
1079.80 63.23673
1079.90 63.82905
1080.00 64.39641
1080.10 64.81763
1080.20 65.18986
1080.30 65.42924
1080.40 65.60494
1080.50 65.81223
1080.60 66.36787
1080.70 67.0475
1080.80 67.63796
1080.90 67.88342
1081.00 67.9995
1081.10 68.04395
1081.20 68.04277
1081.30 68.10386
1081.40 68.18102
1081.50 68.18449
1081.60 68.23832
1081.70 68.77826
1081.80 69.47996
1081.90 69.9775
1082.00 69.89917
1082.10 69.85863
1082.20 69.353
1082.30 68.56092
1082.40 67.8016
1082.50 67.26673
1082.60 66.73003
1082.70 66.3406
1082.80 66.36051
1082.90 66.44914
1083.00 66.75764
1083.10 67.13517
1083.20 67.42051
1083.30 67.83271
1083.40 68.58686
1083.50 69.18268
1083.60 69.13997
1083.70 69.00632
1083.80 68.8375
1083.90 68.69733
1084.00 68.51248
1084.10 68.44232
1084.20 68.446
1084.30 68.40774
1084.40 68.31228
1084.50 68.31857
1084.60 67.98277
1084.70 66.98694
1084.80 65.87153
1084.90 65.71292
1085.00 66.03667
1085.10 66.43546
1085.20 67.06526
1085.30 68.09613
1085.40 68.52701
1085.50 67.93087
1085.60 66.96135
1085.70 66.96441
1085.80 67.67167
1085.90 68.36832
1086.00 69.11286
1086.10 69.99219
1086.20 70.80654
1086.30 71.26416
1086.40 71.72873
1086.50 71.5797
1086.60 70.86358
1086.70 70.15593
1086.80 69.60871
1086.90 69.2656
1087.00 69.33299
1087.10 70.04757
1087.20 70.84281
1087.30 71.13954
1087.40 70.69925
1087.50 70.30585
1087.60 69.39661
1087.70 68.3114
1087.80 67.71637
1087.90 68.35384
1088.00 69.22783
1088.10 69.66418
1088.20 69.21462
1088.30 68.81065
1088.40 68.49266
1088.50 68.24753
1088.60 68.2009
1088.70 68.66611
1088.80 69.23141
1088.90 69.24649
1089.00 68.81402
1089.10 68.35736
1089.20 68.17272
1089.30 68.26227
1089.40 68.36155
1089.50 68.33204
1089.60 67.99463
1089.70 67.97784
1089.80 68.74027
1089.90 69.59571
1090.00 70.5208
1090.10 71.30847
1090.20 72.02921
1090.30 72.12893
1090.40 72.05162
1090.50 71.84299
1090.60 71.41037
1090.70 71.08918
1090.80 70.55705
1090.90 69.5788
1091.00 68.55449
1091.10 67.53755
1091.20 66.56734
1091.30 66.06202
1091.40 66.40516
1091.50 66.78
1091.60 67.51983
1091.70 68.64257
1091.80 69.73274
1091.90 70.1169
1092.00 70.44406
1092.10 70.58513
1092.20 70.28833
1092.30 69.88715
1092.40 69.82444
1092.50 70.01697
1092.60 70.19296
1092.70 70.13698
1092.80 70.14458
1092.90 70.16297
1093.00 70.06514
1093.10 69.83527
1093.20 69.57715
1093.30 69.36229
1093.40 69.20231
1093.50 69.02199
1093.60 69.02572
1093.70 69.03527
1093.80 68.93188
1093.90 68.3281
1094.00 68.25394
1094.10 69.01176
1094.20 69.9727
1094.30 70.09992
1094.40 69.60251
1094.50 69.08956
1094.60 68.07624
1094.70 66.93016
1094.80 66.21694
1094.90 66.7636
1095.00 67.24299
1095.10 68.17839
1095.20 69.20126
1095.30 70.206
1095.40 70.95348
1095.50 71.79721
1095.60 72.28591
1095.70 72.00539
1095.80 71.57616
1095.90 71.15736
1096.00 71.20084
1096.10 71.2021
1096.20 71.36936
1096.30 71.50733
1096.40 71.63249
1096.50 71.6133
1096.60 71.57285
1096.70 71.18086
1096.80 70.34638
1096.90 69.57928
1097.00 68.36615
1097.10 66.9116
1097.20 65.64697
1097.30 65.50243
1097.40 65.48703
1097.50 65.91942
1097.60 66.68218
1097.70 67.42461
1097.80 68.0231
1097.90 68.83348
1098.00 69.66005
1098.10 70.18665
1098.20 70.45245
1098.30 70.16048
1098.40 69.48576
1098.50 68.94817
1098.60 68.70783
1098.70 68.33865
1098.80 67.93782
1098.90 67.83075
1099.00 67.86119
1099.10 67.96483
1099.20 68.2478
1099.30 68.49937
1099.40 69.06561
1099.50 69.9114
1099.60 70.7569
1099.70 70.79448
1099.80 70.64979
1099.90 70.54966
1100.00 70.36776
1100.10 70.08858
1100.20 69.69063
1100.30 69.18268
1100.40 68.70787
1100.50 68.16005
1100.60 67.61071
1100.70 67.34814
1100.80 67.81876
1100.90 68.46653
1101.00 68.99096
1101.10 69.16148
1101.20 69.27222
1101.30 69.54934
1101.40 70.12945
1101.50 70.68756
1101.60 70.79409
1101.70 70.83043
1101.80 70.35387
1101.90 69.19986
1102.00 68.06486
1102.10 67.22776
1102.20 66.52711
1102.30 65.79947
1102.40 65.17461
1102.50 64.30114
1102.60 64.26993
1102.70 65.65658
1102.80 67.27664
1102.90 68.38991
1103.00 69.21423
1103.10 70.01288
1103.20 69.7901
1103.30 69.03547
1103.40 67.88525
1103.50 66.09018
1103.60 64.09329
1103.70 63.16597
1103.80 63.42592
1103.90 63.5828
1104.00 64.16161
1104.10 65.14407
1104.20 66.11829
1104.30 66.55693
1104.40 66.73233
1104.50 66.64677
1104.60 66.86215
1104.70 67.06118
1104.80 67.08683
1104.90 67.30155
1105.00 67.59158
1105.10 67.43911
1105.20 67.04739
1105.30 65.93318
1105.40 64.41705
1105.50 62.88229
1105.60 62.4114
1105.70 62.02489
1105.80 61.8048
1105.90 62.37854
1106.00 63.3585
1106.10 63.98133
1106.20 64.07719
1106.30 64.14305
1106.40 64.29121
1106.50 64.51613
1106.60 64.65856
1106.70 64.47599
1106.80 64.36044
1106.90 63.98051
1107.00 63.10344
1107.10 62.06647
1107.20 61.64452
1107.30 61.85179
1107.40 62.12536
1107.50 62.90782
1107.60 63.96301
1107.70 64.58473
1107.80 64.54051
1107.90 64.33477
1108.00 64.45376
1108.10 64.65989
1108.20 64.89345
1108.30 65.54809
1108.40 66.48228
1108.50 67.33398
1108.60 67.92484
1108.70 68.56804
1108.80 68.72531
1108.90 68.35221
1109.00 67.94729
1109.10 67.41247
1109.20 66.83461
1109.30 66.59731
1109.40 67.08209
1109.50 67.63596
1109.60 68.0898
1109.70 68.57104
1109.80 69.1116
1109.90 69.03536
1110.00 68.72053
1110.10 68.2119
1110.20 66.98014
1110.30 65.76019
1110.40 64.56367
1110.50 63.34508
1110.60 61.99231
1110.70 61.97078
1110.80 62.56401
1110.90 63.03497
1111.00 63.01359
1111.10 62.87977
1111.20 62.59785
1111.30 62.2501
1111.40 61.88232
1111.50 61.97038
1111.60 62.19792
1111.70 62.40423
1111.80 62.81049
1111.90 63.42743
1112.00 63.77866
1112.10 63.54956
1112.20 63.25635
1112.30 63.11717
1112.40 63.05349
1112.50 63.04535
1112.60 63.63237
1112.70 64.49398
1112.80 65.4483
1112.90 66.42351
1113.00 67.41577
1113.10 67.95736
1113.20 67.93739
1113.30 67.91528
1113.40 67.74539
1113.50 67.58325
1113.60 67.03633
1113.70 65.67219
1113.80 64.25077
1113.90 63.56373
1114.00 63.9444
1114.10 64.18718
1114.20 64.9975
1114.30 65.76336
1114.40 66.65412
1114.50 67.7107
1114.60 68.81505
1114.70 69.06681
1114.80 68.27247
1114.90 67.52164
1115.00 66.43816
1115.10 65.62311
1115.20 65.18299
1115.30 65.88713
1115.40 66.908
1115.50 67.59601
1115.60 67.66144
1115.70 67.54978
1115.80 67.44029
1115.90 67.0589
1116.00 66.66572
1116.10 66.33967
1116.20 66.24335
1116.30 66.24269
1116.40 66.39424
1116.50 66.54887
1116.60 66.66588
1116.70 67.04889
1116.80 67.31876
1116.90 66.79331
1117.00 65.84486
1117.10 64.83543
1117.20 63.77606
1117.30 62.68543
1117.40 61.79795
1117.50 61.50522
1117.60 61.25495
1117.70 61.58692
1117.80 61.66732
1117.90 61.93719
1118.00 62.72734
1118.10 63.73506
1118.20 64.51864
1118.30 65.54825
1118.40 66.60186
1118.50 67.69848
1118.60 68.37206
1118.70 68.66568
1118.80 68.07595
1118.90 67.47088
1119.00 67.17204
1119.10 66.88037
1119.20 66.52989
1119.30 66.1251
1119.40 65.58748
1119.50 65.02369
1119.60 64.7644
1119.70 64.37388
1119.80 63.97455
1119.90 63.64437
1120.00 63.46643
1120.10 63.29517
1120.20 63.34062
1120.30 63.82491
1120.40 64.29964
1120.50 64.4833
1120.60 65.25742
1120.70 66.10138
1120.80 67.04413
1120.90 66.94423
1121.00 66.45524
1121.10 66.03336
1121.20 65.59721
1121.30 65.61989
1121.40 65.63454
1121.50 65.68186
1121.60 65.3203
1121.70 64.85294
1121.80 64.40691
1121.90 63.9927
1122.00 63.67888
1122.10 63.17819
1122.20 62.94473
1122.30 63.06077
1122.40 63.06433
1122.50 63.57088
1122.60 65.21349
1122.70 66.95619
1122.80 68.59392
1122.90 69.32051
1123.00 69.78848
1123.10 70.09844
1123.20 69.21431
1123.30 67.76717
1123.40 66.34291
1123.50 65.17424
1123.60 65.17626
1123.70 65.10023
1123.80 65.42597
1123.90 66.03594
1124.00 66.65976
1124.10 67.25408
1124.20 67.65655
1124.30 67.9762
1124.40 68.28663
1124.50 68.66894
1124.60 69.0852
1124.70 69.51654
1124.80 69.27207
1124.90 68.03049
1125.00 66.81295
1125.10 65.30172
1125.20 65.01047
1125.30 64.8454
1125.40 65.33756
1125.50 66.5713
1125.60 67.78416
1125.70 68.92193
1125.80 69.21405
1125.90 68.98314
1126.00 68.77064
1126.10 68.34331
1126.20 68.2396
1126.30 68.13081
1126.40 68.06274
1126.50 68.11688
1126.60 68.18103
1126.70 68.29524
1126.80 68.25637
1126.90 68.12315
1127.00 67.98426
1127.10 67.94856
1127.20 68.0186
1127.30 68.10323
1127.40 68.24362
1127.50 68.27947
1127.60 68.31341
1127.70 68.11258
1127.80 68.02377
1127.90 67.94826
1128.00 67.91204
1128.10 67.80579
1128.20 67.6707
1128.30 67.56907
1128.40 67.82185
1128.50 68.1433
1128.60 68.46161
1128.70 68.58764
1128.80 68.38561
1128.90 68.19769
1129.00 67.89133
1129.10 67.46278
1129.20 67.04523
1129.30 66.78586
1129.40 67.1836
1129.50 67.71993
1129.60 68.233
1129.70 68.72595
1129.80 69.39638
1129.90 70.06859
1130.00 70.32074
1130.10 69.72031
1130.20 69.18016
1130.30 68.50272
1130.40 67.66808
1130.50 66.80801
1130.60 66.00735
1130.70 65.42463
1130.80 64.94413
1130.90 64.47891
1131.00 64.38261
1131.10 64.59308
1131.20 64.7987
1131.30 65.20192
1131.40 65.61086
1131.50 66.02972
1131.60 66.3803
1131.70 66.60175
1131.80 66.82282
1131.90 67.00534
1132.00 67.12856
1132.10 67.14482
1132.20 67.16552
1132.30 67.19308
1132.40 67.30316
1132.50 67.40765
1132.60 67.31477
1132.70 67.05198
1132.80 66.78785
1132.90 66.61404
1133.00 66.4762
1133.10 66.3298
1133.20 66.14769
1133.30 65.8851
1133.40 65.57849
1133.50 65.26853
1133.60 64.72372
1133.70 64.02471
1133.80 63.32629
1133.90 62.41317
1134.00 61.48978
1134.10 60.56867
1134.20 59.8346
1134.30 59.95088
1134.40 60.22921
1134.50 60.70102
1134.60 61.74144
1134.70 62.76336
1134.80 63.75885
1134.90 65.03917
1135.00 66.15495
1135.10 67.3143
1135.20 67.5689
1135.30 67.05775
1135.40 66.56302
1135.50 65.90965
1135.60 64.63639
1135.70 63.2476
1135.80 61.98618
1135.90 61.95796
1136.00 62.66648
1136.10 63.3557
1136.20 64.06861
1136.30 64.29797
1136.40 64.56284
1136.50 64.5236
1136.60 63.96926
1136.70 63.42085
1136.80 62.74178
1136.90 62.00017
1137.00 61.26675
1137.10 60.61278
1137.20 59.99461
1137.30 59.3429
1137.40 58.70357
1137.50 58.01059
1137.60 57.47839
1137.70 56.994
1137.80 56.20167
1137.90 54.20861
1138.00 52.28861
1138.10 50.08671
1138.20 47.72893
1138.30 45.30004
1138.40 43.36159
1138.50 43.17305
1138.60 44.21241
1138.70 45.12147
1138.80 47.28436
1138.90 49.52014
1139.00 51.84557
1139.10 53.94349
1139.20 55.11244
1139.30 56.36242
1139.40 57.15686
1139.50 56.922
1139.60 56.55207
1139.70 56.0712
1139.80 55.21546
1139.90 54.36681
1140.00 53.56383
1140.10 51.95213
1140.20 49.48608
1140.30 47.08743
1140.40 44.28962
1140.50 41.45411
1140.60 38.44507
1140.70 36.51659
1140.80 37.28265
1140.90 38.73295
1141.00 40.38836
1141.10 43.0176
1141.20 45.77997
1141.30 48.59843
1141.40 51.20439
1141.50 53.81286
1141.60 56.47217
1141.70 58.62184
1141.80 59.5264
1141.90 60.47131
1142.00 61.31964
1142.10 62.0451
1142.20 62.7433
1142.30 63.3309
1142.40 63.34488
1142.50 63.23867
1142.60 63.12285
1142.70 63.40341
1142.80 63.83054
1142.90 64.26238
1143.00 64.57185
1143.10 64.44541
1143.20 64.33054
1143.30 64.19972
1143.40 64.199
1143.50 64.25608
1143.60 64.31605
1143.70 64.23736
1143.80 64.08348
1143.90 63.95169
1144.00 64.07265
1144.10 64.55911
1144.20 65.0134
1144.30 65.48102
1144.40 65.75257
1144.50 66.02304
1144.60 66.11257
1144.70 65.83398
1144.80 65.5168
1144.90 65.27632
1145.00 65.56358
1145.10 65.95003
1145.20 66.34046
1145.30 66.40924
1145.40 66.25635
1145.50 66.10658
1145.60 65.8964
1145.70 65.69898
1145.80 65.49917
1145.90 65.41289
1146.00 65.53072
1146.10 65.74899
1146.20 65.93243
1146.30 66.10132
1146.40 66.21028
1146.50 66.31825
1146.60 66.64055
1146.70 67.13096
1146.80 67.64541
1146.90 67.98288
1147.00 67.57412
1147.10 67.17854
1147.20 66.72541
1147.30 66.65749
1147.40 66.72338
1147.50 66.79579
1147.60 66.86092
1147.70 66.97798
1147.80 67.0938
1147.90 67.20585
1148.00 67.08193
1148.10 66.96601
1148.20 67.05351
1148.30 66.96462
1148.40 66.90508
1148.50 66.80062
1148.60 66.97408
1148.70 67.27212
1148.80 67.62609
1148.90 68.04394
1149.00 68.56924
1149.10 69.1011
1149.20 69.07033
1149.30 68.34279
1149.40 67.63469
1149.50 67.082
1149.60 67.20117
1149.70 67.29774
1149.80 67.44836
1149.90 67.71869
1150.00 68.03554
1150.10 68.27624
1150.20 67.9413
1150.30 67.36553
1150.40 66.78701
1150.50 66.66854
1150.60 66.87557
1150.70 67.07076
1150.80 67.39095
1150.90 67.82064
1151.00 68.26086
1151.10 68.53951
1151.20 68.53542
1151.30 68.46572
1151.40 68.36008
1151.50 67.99511
1151.60 67.47424
1151.70 66.95104
1151.80 66.6546
1151.90 66.68862
1152.00 66.72
1152.10 66.97779
1152.20 66.81374
1152.30 66.67933
1152.40 66.26204
1152.50 65.79686
1152.60 65.40025
1152.70 65.13701
1152.80 65.04854
1152.90 65.16051
1153.00 65.2725
1153.10 65.48346
1153.20 65.37163
1153.30 65.26136
1153.40 65.11254
1153.50 65.10196
1153.60 65.07483
1153.70 65.1636
1153.80 65.57772
1153.90 66.11318
1154.00 66.6354
1154.10 67.10382
1154.20 67.54336
1154.30 67.99545
1154.40 68.14714
1154.50 67.92297
1154.60 67.71784
1154.70 67.32561
1154.80 66.75954
1154.90 66.1626
1155.00 65.7522
1155.10 65.8144
1155.20 65.96485
1155.30 66.06661
1155.40 66.11236
1155.50 66.15428
1155.60 66.22054
1155.70 66.56735
1155.80 67.07612
1155.90 67.59602
1156.00 68.02279
1156.10 67.91426
1156.20 67.80405
1156.30 67.61814
1156.40 67.65545
1156.50 67.77347
1156.60 67.92627
1156.70 68.07331
1156.80 68.0672
1156.90 68.03126
1157.00 67.57072
1157.10 66.99825
1157.20 66.40999
1157.30 66.18319
1157.40 66.32642
1157.50 66.46852
1157.60 66.51451
1157.70 66.55896
1157.80 66.61729
1157.90 66.70741
1158.00 66.8642
1158.10 67.05993
1158.20 67.25934
1158.30 67.45578
1158.40 67.47151
1158.50 67.49244
1158.60 67.26002
1158.70 66.90552
1158.80 66.56092
1158.90 66.1995
1159.00 65.83061
1159.10 65.47071
1159.20 65.06265
1159.30 64.33624
1159.40 63.41714
1159.50 62.51386
1159.60 61.86109
1159.70 61.56418
1159.80 61.22347
1159.90 61.41205
1160.00 62.04043
1160.10 62.66434
1160.20 63.24281
1160.30 63.80945
1160.40 64.41147
1160.50 64.85915
1160.60 64.97591
1160.70 64.80167
1160.80 64.60179
1160.90 63.75294
1161.00 62.67533
1161.10 61.53627
1161.20 61.30725
1161.30 62.1501
1161.40 62.9394
1161.50 64.09409
1161.60 65.39572
1161.70 66.69488
1161.80 67.52371
1161.90 67.34359
1162.00 66.84029
1162.10 66.36653
1162.20 66.03436
1162.30 65.85119
1162.40 65.65242
1162.50 65.71898
1162.60 66.1116
1162.70 66.49535
1162.80 66.85207
1162.90 67.23947
1163.00 67.64674
1163.10 68.04249
1163.20 68.32408
1163.30 68.45952
1163.40 68.50681
1163.50 68.15346
1163.60 67.43703
1163.70 66.75356
1163.80 65.52987
1163.90 64.21965
1164.00 62.87444
1164.10 62.14027
1164.20 62.24696
1164.30 62.46338
1164.40 62.94178
1164.50 63.92716
1164.60 65.03633
1164.70 66.04282
1164.80 66.57645
1164.90 66.86499
1165.00 67.16907
1165.10 67.0816
1165.20 66.63737
1165.30 66.20062
1165.40 65.6829
1165.50 65.12545
1165.60 64.55234
1165.70 64.16264
1165.80 64.30552
1165.90 64.7186
1166.00 65.18703
1166.10 65.89239
1166.20 66.59128
1166.30 67.29369
1166.40 67.73483
1166.50 67.8057
1166.60 67.88503
1166.70 67.78672
1166.80 67.5433
1166.90 67.30867
1167.00 66.98744
1167.10 66.59767
1167.20 66.21489
1167.30 65.8799
1167.40 65.78223
1167.50 65.66209
1167.60 65.53981
1167.70 65.31171
1167.80 65.07611
1167.90 64.83281
1168.00 64.59105
1168.10 64.29538
1168.20 64.00629
1168.30 63.54249
1168.40 62.76068
1168.50 61.87067
1168.60 60.8536
1168.70 59.11769
1168.80 56.94023
1168.90 54.84421
1169.00 51.10222
1169.10 46.84164
1169.20 42.47877
1169.30 39.70417
1169.40 39.59842
1169.50 39.57238
1169.60 40.92112
1169.70 44.36757
1169.80 48.25583
1169.90 51.91129
1170.00 54.82829
1170.10 57.26615
1170.20 59.74444
1170.30 61.4264
1170.40 62.62403
1170.50 63.847
1170.60 64.58286
1170.70 64.95158
1170.80 65.29827
1170.90 65.50328
1171.00 65.36652
1171.10 65.14133
1171.20 64.9408
1171.30 64.95204
1171.40 65.09202
1171.50 65.23862
1171.60 65.38592
1171.70 65.27743
1171.80 65.18051
1171.90 64.8323
1172.00 64.54566
1172.10 64.24834
1172.20 64.13461
1172.30 64.1911
1172.40 64.2935
1172.50 64.43048
1172.60 64.63335
1172.70 64.8499
1172.80 65.05419
1172.90 65.23307
1173.00 65.48455
1173.10 65.74314
1173.20 65.91392
1173.30 65.69508
1173.40 65.49858
1173.50 65.17087
1173.60 64.74847
1173.70 64.31843
1173.80 64.04257
1173.90 64.18517
1174.00 64.51152
1174.10 64.84771
1174.20 65.28885
1174.30 65.75233
1174.40 66.21202
1174.50 66.4662
1174.60 66.62726
1174.70 66.80783
1174.80 66.92182
1174.90 66.8215
1175.00 66.67198
1175.10 66.41375
1175.20 66.02752
1175.30 65.62498
1175.40 65.24754
1175.50 65.06337
1175.60 65.00715
1175.70 64.93746
1175.80 65.01441
1175.90 64.76839
1176.00 64.54357
1176.10 64.05156
1176.20 63.33031
1176.30 62.57614
1176.40 61.76532
1176.50 60.9155
1176.60 60.09512
1176.70 59.11086
1176.80 57.22027
1176.90 54.52946
1177.00 51.92107
1177.10 47.84624
1177.20 43.16822
1177.30 38.40638
1177.40 34.63866
1177.50 32.81694
1177.60 31.22674
1177.70 31.03127
1177.80 33.86492
1177.90 37.59864
1178.00 41.3179
1178.10 44.86429
1178.20 48.09011
1178.30 51.39396
1178.40 53.63324
1178.50 55.31397
1178.60 57.01573
1178.70 58.43509
1178.80 59.43795
1178.90 60.40594
1179.00 61.18832
1179.10 61.75855
1179.20 62.24314
1179.30 62.6767
1179.40 62.80447
1179.50 62.80991
1179.60 62.81993
1179.70 62.8944
1179.80 62.98785
1179.90 63.07233
1180.00 63.07993
1180.10 63.27584
1180.20 63.48265
1180.30 63.85667
1180.40 64.34498
1180.50 64.81414
1180.60 65.17207
1180.70 65.151
1180.80 64.90402
1180.90 64.6601
1181.00 64.39783
1181.10 64.18511
1181.20 63.97141
1181.30 63.76174
1181.40 63.5933
1181.50 63.42908
1181.60 63.33626
1181.70 63.42643
1181.80 63.58184
1181.90 63.78189
1182.00 64.03323
1182.10 64.31581
1182.20 64.57451
1182.30 64.65202
1182.40 64.5319
1182.50 64.43932
1182.60 63.99205
1182.70 63.18641
1182.80 62.39532
1182.90 61.67696
1183.00 61.18632
1183.10 60.75956
1183.20 60.51139
1183.30 60.85726
1183.40 61.30382
1183.50 61.7302
1183.60 61.91897
1183.70 61.79282
1183.80 61.67943
1183.90 61.39749
1184.00 61.52796
1184.10 61.61969
1184.20 62.12284
1184.30 63.09893
1184.40 64.16943
1184.50 64.93757
1184.60 65.14416
1184.70 64.98818
1184.80 64.81238
1184.90 64.281
1185.00 63.678
1185.10 63.05652
1185.20 62.62964
1185.30 62.45292
1185.40 62.25107
1185.50 62.32463
1185.60 62.68086
1185.70 63.09319
1185.80 63.45998
1185.90 63.72377
1186.00 63.9077
1186.10 64.06309
1186.20 64.18458
1186.30 64.42676
1186.40 64.6743
1186.50 64.90938
1186.60 64.86131
1186.70 64.82623
1186.80 64.54116
1186.90 64.04496
1187.00 63.49821
1187.10 63.10258
1187.20 62.94863
1187.30 62.93279
1187.40 62.99636
1187.50 63.50137
1187.60 64.10542
1187.70 64.72183
1187.80 64.73989
1187.90 64.42454
1188.00 64.1506
1188.10 63.45773
1188.20 62.02668
1188.30 60.56608
1188.40 58.87252
1188.50 56.88474
1188.60 54.92181
1188.70 53.55371
1188.80 54.14444
1188.90 55.67804
1189.00 57.17374
1189.10 59.00814
1189.20 60.60106
1189.30 62.26963
1189.40 63.11697
1189.50 63.47097
1189.60 63.78355
1189.70 64.20913
1189.80 64.51169
1189.90 64.75731
1190.00 64.95416
1190.10 64.98324
1190.20 64.85887
1190.30 64.70806
1190.40 64.24072
1190.50 63.76762
1190.60 63.29865
1190.70 62.87719
1190.80 62.61553
1190.90 62.32037
1191.00 62.25526
1191.10 62.59717
1191.20 63.04272
1191.30 63.46689
1191.40 63.74269
1191.50 63.88703
1191.60 64.02644
1191.70 64.08849
1191.80 64.09241
1191.90 64.09355
1192.00 64.05117
1192.10 64.19211
1192.20 64.3436
1192.30 64.39107
1192.40 64.18581
1192.50 63.9235
1192.60 63.72478
1192.70 63.65625
1192.80 63.66936
1192.90 63.69196
1193.00 63.774
1193.10 63.92079
1193.20 64.07252
1193.30 64.22484
1193.40 64.24719
1193.50 64.29165
1193.60 64.00671
1193.70 63.29607
1193.80 62.49789
1193.90 61.73081
1194.00 61.07805
1194.10 60.52932
1194.20 60.06379
1194.30 60.05202
1194.40 60.26694
1194.50 60.48779
1194.60 60.552
1194.70 60.21003
1194.80 59.89505
1194.90 59.16322
1195.00 58.22424
1195.10 57.25024
1195.20 56.7313
1195.30 57.03064
1195.40 57.67232
1195.50 58.39826
1195.60 59.42135
1195.70 60.38142
1195.80 61.37478
1195.90 61.47688
1196.00 60.98842
1196.10 60.5065
1196.20 59.99124
1196.30 59.55122
1196.40 59.11393
1196.50 58.83472
1196.60 58.79409
1196.70 58.80935
1196.80 58.80321
1196.90 58.71508
1197.00 58.57789
1197.10 58.39105
1197.20 57.345
1197.30 55.72985
1197.40 54.12377
1197.50 52.4462
1197.60 51.30135
1197.70 50.02203
1197.80 49.69856
1197.90 50.45135
1198.00 51.51331
1198.10 52.54318
1198.20 53.41946
1198.30 54.1584
1198.40 54.91208
1198.50 55.7842
1198.60 56.90303
1198.70 58.04083
1198.80 58.70639
1198.90 58.55734
1199.00 58.46015
1199.10 57.99214
1199.20 57.05512
1199.30 56.05548
1199.40 55.27951
1199.50 55.02809
1199.60 55.0431
1199.70 55.10989
1199.80 55.44977
1199.90 55.9031
1200.00 56.36598
