# Version 2.1 - nm, norm@500 to 1, cut digits
# Wavelength(nm)  Flambda(ergs/cm^s/s/nm)
300.00 0.005388851
300.10 0.007268296
300.20 0.008363025
300.30 0.008751537
300.40 0.008789643
300.50 0.008762054
300.60 0.008759093
300.70 0.008773944
300.80 0.008801277
300.90 0.008838708
301.00 0.008885684
301.10 0.008942053
301.20 0.009006314
301.30 0.009075104
301.40 0.009145405
301.50 0.009215724
301.60 0.009285782
301.70 0.009355687
301.80 0.009425514
301.90 0.009495309
302.00 0.009565098
302.10 0.009634887
302.20 0.009704671
302.30 0.009774431
302.40 0.009844132
302.50 0.009913717
302.60 0.009983103
302.70 0.0100525
302.80 0.01012305
302.90 0.01019704
303.00 0.01027701
303.10 0.01036412
303.20 0.01045723
303.30 0.01055377
303.40 0.01065145
303.50 0.01074915
303.60 0.01084666
303.70 0.01094404
303.80 0.01104137
303.90 0.01113867
304.00 0.01123597
304.10 0.01133327
304.20 0.01143059
304.30 0.01152797
304.40 0.01162554
304.50 0.01172346
304.60 0.01182199
304.70 0.01192048
304.80 0.01201546
304.90 0.01209992
305.00 0.01216606
305.10 0.01221038
305.20 0.01223637
305.30 0.01225185
305.40 0.01226382
305.50 0.01227575
305.60 0.01228829
305.70 0.01230118
305.80 0.01231425
305.90 0.01232739
306.00 0.01234055
306.10 0.01235371
306.20 0.01236687
306.30 0.01238003
306.40 0.01239319
306.50 0.01240635
306.60 0.0124195
306.70 0.01243266
306.80 0.01244582
306.90 0.01245901
307.00 0.01247224
307.10 0.01248551
307.20 0.01249883
307.30 0.01251216
307.40 0.01252551
307.50 0.01253885
307.60 0.0125522
307.70 0.01256554
307.80 0.01257888
307.90 0.01259222
308.00 0.01260557
308.10 0.01261891
308.20 0.01263221
308.30 0.01264533
308.40 0.012658
308.50 0.01266978
308.60 0.01268004
308.70 0.01269041
308.80 0.01270955
308.90 0.01275502
309.00 0.01284636
309.10 0.01299229
309.20 0.01318408
309.30 0.01340219
309.40 0.01362909
309.50 0.01385609
309.60 0.01408158
309.70 0.01430617
309.80 0.01453032
309.90 0.01475428
310.00 0.0149782
310.10 0.01520212
310.20 0.01542608
310.30 0.01565022
310.40 0.01587482
310.50 0.01610031
310.60 0.01632733
310.70 0.01655425
310.80 0.01677233
310.90 0.01696396
311.00 0.01710947
311.10 0.01720011
311.20 0.01724464
311.30 0.01726271
311.40 0.01727195
311.50 0.01728108
311.60 0.01729174
311.70 0.0173033
311.80 0.01731531
311.90 0.0173275
312.00 0.01733974
312.10 0.01735197
312.20 0.01736415
312.30 0.01737611
312.40 0.01738751
312.50 0.0173978
312.60 0.0174062
312.70 0.01741474
312.80 0.01743418
312.90 0.0174863
313.00 0.01759537
313.10 0.01777221
313.20 0.01800601
313.30 0.01827248
313.40 0.01854985
313.50 0.01882736
313.60 0.01910298
313.70 0.01937749
313.80 0.01965145
313.90 0.01992518
314.00 0.02019886
314.10 0.02047253
314.20 0.02074618
314.30 0.02101967
314.40 0.02129277
314.50 0.02156509
314.60 0.02183611
314.70 0.02210721
314.80 0.02238591
314.90 0.02268736
315.00 0.02302844
315.10 0.02341671
315.20 0.02384461
315.30 0.02429527
315.40 0.02475351
315.50 0.02521184
315.60 0.02566887
315.70 0.02612512
315.80 0.02658098
315.90 0.02703669
316.00 0.02749236
316.10 0.02794803
316.20 0.02840383
316.30 0.0288602
316.40 0.02931801
316.50 0.02977865
316.60 0.03024411
316.70 0.03070924
316.80 0.03114646
316.90 0.03150008
317.00 0.03170798
317.10 0.03174245
317.20 0.03163121
317.30 0.03143636
317.40 0.0312136
317.50 0.03099051
317.60 0.03077224
317.70 0.03055681
317.80 0.03034281
317.90 0.03012938
318.00 0.02991608
318.10 0.02970278
318.20 0.02948938
318.30 0.02927555
318.40 0.02906061
318.50 0.02884351
318.60 0.02862272
318.70 0.02840218
318.80 0.028203
318.90 0.02806783
319.00 0.02804419
319.10 0.02815332
319.20 0.02837398
319.30 0.02865865
319.40 0.02896468
319.50 0.02927096
319.60 0.02957356
319.70 0.02987399
319.80 0.03017331
319.90 0.0304722
320.00 0.03077099
320.10 0.03106978
320.20 0.03136861
320.30 0.0316676
320.40 0.03196699
320.50 0.03226719
320.60 0.03256875
320.70 0.03287022
320.80 0.03316379
320.90 0.03343369
321.00 0.03366233
321.10 0.03384187
321.20 0.03398016
321.30 0.03409478
321.40 0.03420149
321.50 0.03430812
321.60 0.0344161
321.70 0.03452489
321.80 0.03463409
321.90 0.03474344
322.00 0.03485284
322.10 0.03496223
322.20 0.03507149
322.30 0.03518016
322.40 0.03528735
322.50 0.0353916
322.60 0.03549087
322.70 0.03559048
322.80 0.03571896
322.90 0.03593389
323.00 0.03629951
323.10 0.03684448
323.20 0.03754013
323.30 0.03832225
323.40 0.03913322
323.50 0.03994454
323.60 0.04075088
323.70 0.04155428
323.80 0.0423562
323.90 0.04315752
324.00 0.04395872
324.10 0.04475991
324.20 0.04556113
324.30 0.04636244
324.40 0.04716399
324.50 0.04796602
324.60 0.04876886
324.70 0.04957164
324.80 0.05036974
324.90 0.05115379
325.00 0.05191336
325.10 0.0526438
325.20 0.05334976
325.30 0.05404168
325.40 0.05472891
325.50 0.05541608
325.60 0.05610406
325.70 0.05679252
325.80 0.05748122
325.90 0.05817002
326.00 0.05885884
326.10 0.05954765
326.20 0.06023642
326.30 0.06092499
326.40 0.06161303
326.50 0.06230005
326.60 0.06298532
326.70 0.06367072
326.80 0.06436622
326.90 0.06509198
327.00 0.06587051
327.10 0.06671183
327.20 0.0676059
327.30 0.06853025
327.40 0.0694647
327.50 0.07039926
327.60 0.07133209
327.70 0.07226389
327.80 0.07319517
327.90 0.07412624
328.00 0.07505726
328.10 0.07598829
328.20 0.07691959
328.30 0.0778521
328.40 0.07878766
328.50 0.07972925
328.60 0.08068107
328.70 0.08163219
328.80 0.08252402
328.90 0.08323824
329.00 0.08364292
329.10 0.08367917
329.20 0.08340588
329.30 0.08295498
329.40 0.08244479
329.50 0.0819339
329.60 0.08143324
329.70 0.08093861
329.80 0.08044703
329.90 0.07995666
330.00 0.07946657
330.10 0.07897647
330.20 0.07848617
330.30 0.07799498
330.40 0.07750152
330.50 0.07700358
330.60 0.07649807
330.70 0.07599307
330.80 0.07553205
330.90 0.07520278
331.00 0.07510313
331.10 0.07527679
331.20 0.07568006
331.30 0.07621509
331.40 0.0767941
331.50 0.07737362
331.60 0.07794557
331.70 0.07851303
331.80 0.07907824
331.90 0.07964254
332.00 0.08020665
332.10 0.08077075
332.20 0.08133498
332.30 0.08189978
332.40 0.08246601
332.50 0.08303508
332.60 0.08360895
332.70 0.08418249
332.80 0.08472818
332.90 0.08519046
333.00 0.08550735
333.10 0.08565121
333.20 0.08564968
333.30 0.08556473
333.40 0.08545194
333.50 0.08533881
333.60 0.08523049
333.70 0.08512501
333.80 0.08502096
333.90 0.08491747
334.00 0.08481411
334.10 0.08470901
334.20 0.08459929
334.30 0.08448335
334.40 0.08436107
334.50 0.08423374
334.60 0.08420309
334.70 0.08449435
334.80 0.08518375
334.90 0.08584349
335.00 0.08567455
335.10 0.08444517
335.20 0.08336844
335.30 0.08474227
335.40 0.09019752
335.50 0.09890046
335.60 0.1074411
335.70 0.1118397
335.80 0.1101351
335.90 0.1033627
336.00 0.09444232
336.10 0.08635775
336.20 0.08116373
336.30 0.07968656
336.40 0.08115707
336.50 0.08330197
336.60 0.08368955
336.70 0.0817391
336.80 0.07946944
336.90 0.07992929
337.00 0.08460699
337.10 0.0920105
337.20 0.09853901
337.30 0.1009718
337.40 0.09873891
337.50 0.09428322
337.60 0.09119387
337.70 0.09154219
337.80 0.09466696
337.90 0.09838535
338.00 0.1010404
338.10 0.1021899
338.20 0.1015957
338.30 0.09844465
338.40 0.09242811
338.50 0.08534791
338.60 0.08084239
338.70 0.08174832
338.80 0.08743039
338.90 0.09397885
339.00 0.0973484
339.10 0.09668001
339.20 0.09484086
339.30 0.09562937
339.40 0.1003033
339.50 0.1067827
339.60 0.1119311
339.70 0.1142158
339.80 0.1141028
339.90 0.1124818
340.00 0.1097025
340.10 0.1061113
340.20 0.1025142
340.30 0.09950802
340.40 0.09662877
340.50 0.0927996
340.60 0.0877296
340.70 0.0824937
340.80 0.07865177
340.90 0.07708581
341.00 0.07772822
341.10 0.08003794
341.20 0.08340485
341.30 0.08711661
341.40 0.09032912
341.50 0.09240289
341.60 0.09330173
341.70 0.09361857
341.80 0.09414098
341.90 0.09528239
342.00 0.09672209
342.10 0.0974664
342.20 0.09644863
342.30 0.09341502
342.40 0.08940375
342.50 0.0862099
342.60 0.08516615
342.70 0.08630232
342.80 0.08852402
342.90 0.09047453
343.00 0.09137157
343.10 0.09136149
343.20 0.09121834
343.30 0.09160578
343.40 0.09250899
343.50 0.09336953
343.60 0.09368047
343.70 0.09329943
343.80 0.09232891
343.90 0.09101545
344.00 0.08981472
344.10 0.08925536
344.20 0.08947043
344.30 0.08995988
344.40 0.09002233
344.50 0.0894175
344.60 0.08855283
344.70 0.08811757
344.80 0.08864003
344.90 0.0903108
345.00 0.09304197
345.10 0.09654234
345.20 0.1003299
345.30 0.103727
345.40 0.105968
345.50 0.1065758
345.60 0.1057738
345.70 0.10445
345.80 0.103551
345.90 0.1034175
346.00 0.1036296
346.10 0.1033638
346.20 0.1019605
346.30 0.09943362
346.40 0.09663673
346.50 0.09476241
346.60 0.09438966
346.70 0.09497681
346.80 0.09536304
346.90 0.09471064
347.00 0.09293288
347.10 0.09053348
347.20 0.08835279
347.30 0.08733018
347.40 0.08806223
347.50 0.09032757
347.60 0.09319029
347.70 0.0957246
347.80 0.09764304
347.90 0.09928201
348.00 0.1011078
348.10 0.1032195
348.20 0.1051884
348.30 0.1063498
348.40 0.106349
348.50 0.1054539
348.60 0.1042766
348.70 0.1032083
348.80 0.102231
348.90 0.1011975
349.00 0.1000989
349.10 0.0990328
349.20 0.09808914
349.30 0.09740401
349.40 0.09722835
349.50 0.09772126
349.60 0.09863048
349.70 0.09932963
349.80 0.09936847
349.90 0.09909952
350.00 0.09963922
350.10 0.1019936
350.20 0.1061065
350.30 0.1107578
350.40 0.1144127
350.50 0.1162089
350.60 0.1162467
350.70 0.1151652
350.80 0.1136116
350.90 0.1119377
351.00 0.1100616
351.10 0.1074993
351.20 0.103724
351.30 0.09880337
351.40 0.09375113
351.50 0.0900276
351.60 0.08848862
351.70 0.08877145
351.80 0.08970868
351.90 0.09030061
352.00 0.09027237
352.10 0.08983189
352.20 0.08921253
352.30 0.08860932
352.40 0.08845351
352.50 0.08955067
352.60 0.09264019
352.70 0.0976362
352.80 0.1033335
352.90 0.1080886
353.00 0.111045
353.10 0.1126925
353.20 0.1141413
353.30 0.1159995
353.40 0.1181085
353.50 0.1201596
353.60 0.1222104
353.70 0.1244969
353.80 0.1270271
353.90 0.1295631
354.00 0.1317904
354.10 0.1332893
354.20 0.133542
354.30 0.1323329
354.40 0.1302009
354.50 0.1282548
354.60 0.1273355
354.70 0.1273856
354.80 0.1276889
354.90 0.1276135
355.00 0.1270431
355.10 0.1262336
355.20 0.1254584
355.30 0.124847
355.40 0.1244658
355.50 0.1243483
355.60 0.1243549
355.70 0.1240808
355.80 0.1230482
355.90 0.1211072
356.00 0.1186183
356.10 0.1161588
356.20 0.1140243
356.30 0.1119855
356.40 0.109524
356.50 0.1063788
356.60 0.102944
356.70 0.1001251
356.80 0.09870111
356.90 0.09874662
357.00 0.09963753
357.10 0.1005407
357.20 0.1008563
357.30 0.1003389
357.40 0.0990147
357.50 0.09709484
357.60 0.09491438
357.70 0.0928134
357.80 0.09099453
357.90 0.08947675
358.00 0.0882261
358.10 0.08737903
358.20 0.08730325
358.30 0.08835573
358.40 0.09053123
358.50 0.09333206
358.60 0.09596399
358.70 0.097681
358.80 0.09809974
358.90 0.09738826
359.00 0.09628119
359.10 0.09580602
359.20 0.09671706
359.30 0.09896746
359.40 0.1016496
359.50 0.1035659
359.60 0.1040452
359.70 0.1033649
359.80 0.1024494
359.90 0.1020954
360.00 0.1023415
360.10 0.102469
360.20 0.1016076
360.30 0.09942196
360.40 0.09637577
360.50 0.09348992
360.60 0.09186059
360.70 0.09221904
360.80 0.09459921
360.90 0.09826041
361.00 0.1020553
361.10 0.1050914
361.20 0.1071627
361.30 0.1085621
361.40 0.1095346
361.50 0.1100302
361.60 0.1100289
361.70 0.1098947
361.80 0.1101744
361.90 0.1110357
362.00 0.1120585
362.10 0.1126714
362.20 0.1126752
362.30 0.1122989
362.40 0.1119241
362.50 0.1118697
362.60 0.1122429
362.70 0.1127553
362.80 0.1127735
362.90 0.1118193
363.00 0.1101199
363.10 0.1085401
363.20 0.1078792
363.30 0.108271
363.40 0.1092454
363.50 0.110223
363.60 0.1108923
363.70 0.1112379
363.80 0.1113415
363.90 0.1111871
364.00 0.1106093
364.10 0.1094099
364.20 0.1075532
364.30 0.1052767
364.40 0.1030404
364.50 0.1013732
364.60 0.1006622
364.70 0.1009301
364.80 0.1017879
364.90 0.1027265
365.00 0.103585
365.10 0.1047237
365.20 0.1065994
365.30 0.1091141
365.40 0.1114536
365.50 0.1126609
365.60 0.112434
365.70 0.111358
365.80 0.1103386
365.90 0.1098617
366.00 0.1098101
366.10 0.1098858
366.20 0.1100661
366.30 0.1105653
366.40 0.111449
366.50 0.1124197
366.60 0.112976
366.70 0.1127397
366.80 0.1116535
366.90 0.1099521
367.00 0.1080352
367.10 0.1063571
367.20 0.1053306
367.30 0.1052198
367.40 0.1060226
367.50 0.1074467
367.60 0.1090532
367.70 0.1104873
367.80 0.1116293
367.90 0.1125673
368.00 0.1134422
368.10 0.1142929
368.20 0.1150011
368.30 0.1153517
368.40 0.1151712
368.50 0.1144871
368.60 0.1135945
368.70 0.1129313
368.80 0.1128062
368.90 0.1132066
369.00 0.1138882
369.10 0.1146635
369.20 0.1155327
369.30 0.1164974
369.40 0.1173242
369.50 0.117602
369.60 0.1170979
369.70 0.1160373
369.80 0.1150241
369.90 0.1146953
370.00 0.1153878
370.10 0.1170063
370.20 0.1191332
370.30 0.1212558
370.40 0.1229446
370.50 0.1239236
370.60 0.1241007
370.70 0.1236472
370.80 0.1230102
370.90 0.1227163
371.00 0.1230318
371.10 0.1237444
371.20 0.1242424
371.30 0.1238302
371.40 0.1221132
371.50 0.1192539
371.60 0.115949
371.70 0.1130996
371.80 0.1113968
371.90 0.1110982
372.00 0.1120523
372.10 0.1137413
372.20 0.1152351
372.30 0.1153461
372.40 0.1131769
372.50 0.1088191
372.60 0.1035686
372.70 0.09933877
372.80 0.09767505
372.90 0.09907439
373.00 0.1029545
373.10 0.1080844
373.20 0.1131028
373.30 0.1168896
373.40 0.118788
373.50 0.1186434
373.60 0.116664
373.70 0.1132286
373.80 0.108806
373.90 0.1040109
374.00 0.09962399
374.10 0.09645555
374.20 0.09513272
374.30 0.09598892
374.40 0.09909728
374.50 0.1042969
374.60 0.1111162
374.70 0.1186614
374.80 0.125665
374.90 0.1308139
375.00 0.1332131
375.10 0.1326825
375.20 0.1297221
375.30 0.1252519
375.40 0.1203278
375.50 0.11592
375.60 0.1126778
375.70 0.1107472
375.80 0.1097832
375.90 0.1092063
376.00 0.1085827
376.10 0.1079229
376.20 0.1077474
376.30 0.1088654
376.40 0.1119804
376.50 0.1173927
376.60 0.1249989
376.70 0.1343872
376.80 0.1447654
376.90 0.1547605
377.00 0.1625231
377.10 0.1663768
377.20 0.165606
377.30 0.1607414
377.40 0.1531674
377.50 0.1444544
377.60 0.1359036
377.70 0.1284276
377.80 0.1225281
377.90 0.1182729
378.00 0.1153698
378.10 0.113392
378.20 0.1120171
378.30 0.1110801
378.40 0.110468
378.50 0.1100807
378.60 0.109925
378.70 0.1101685
378.80 0.1110618
378.90 0.1128881
379.00 0.1160673
379.10 0.1212214
379.20 0.1289257
379.30 0.1392348
379.40 0.151385
379.50 0.1639078
379.60 0.1749796
379.70 0.1827886
379.80 0.1859503
379.90 0.183948
380.00 0.1774077
380.10 0.1679153
380.20 0.1574003
380.30 0.1474604
380.40 0.1390207
380.50 0.1323732
380.60 0.1273855
380.70 0.1236728
380.80 0.1207219
380.90 0.118104
381.00 0.1156842
381.10 0.1136089
381.20 0.1120417
381.30 0.1109167
381.40 0.1100135
381.50 0.1092834
381.60 0.108607
381.70 0.1077822
381.80 0.1063674
381.90 0.1033872
382.00 0.09762088
382.10 0.08152938
382.20 0.03168613
382.30 0
382.40 0
382.50 0
382.60 0
382.70 0
382.80 0.03021027
382.90 0.07255409
383.00 0.1878521
383.10 0.3884488
383.20 0.5090771
383.30 0.5499891
383.40 0.5127882
383.50 0.4229649
383.60 0.3374374
383.70 0.3104818
383.80 0.34043
383.90 0.3713529
384.00 0.3601525
384.10 0.3082171
384.20 0.2325932
384.30 0.1367784
384.40 0.04760526
384.50 0.06673003
384.60 0.1653619
384.70 0.4247504
384.80 0.6951636
384.90 0.8372011
385.00 0.7639699
385.10 0.5082226
385.20 0.2273899
385.30 0.1106715
385.40 0.2247065
385.50 0.4576369
385.60 0.6342107
385.70 0.6583786
385.80 0.5418488
385.90 0.3512509
386.00 0.1672006
386.10 0.05656187
386.20 0.04241713
386.30 0.08922728
386.40 0.1459484
386.50 0.1973167
386.60 0.2551711
386.70 0.3244264
386.80 0.3888258
386.90 0.4393834
387.00 0.4847815
387.10 0.5275749
387.20 0.5586145
387.30 0.5758566
387.40 0.5957798
387.50 0.6200467
387.60 0.6135602
387.70 0.5496703
387.80 0.4760524
387.90 0.4739132
388.00 0.5480864
388.10 0.6057196
388.20 0.5595827
388.30 0.4281511
388.40 0.2882893
388.50 0.1943223
388.60 0.170631
388.70 0.2380566
388.80 0.3928857
388.90 0.5714026
389.00 0.6856721
389.10 0.6942125
389.20 0.6163338
389.30 0.4830998
389.40 0.3122035
389.50 0.1517788
389.60 0.1119302
389.70 0.07149954
389.80 0.1333503
389.90 0.1330003
390.00 0.02951062
390.10 0.03336466
390.20 0.04930711
390.30 0.1001188
390.40 0.2242249
390.50 0.2321948
390.60 0.174465
390.70 0.1704861
390.80 0.2637737
390.90 0.3744041
391.00 0.3886284
391.10 0.2536161
391.20 0.008719729
391.30 0
391.40 0.004095242
391.50 0.0252883
391.60 0.04225517
391.70 0.06246437
391.80 0.09353408
391.90 0.1370418
392.00 0.1714662
392.10 0.1944703
392.20 0.197589
392.30 0.2379666
392.40 0.1972522
392.50 0.1024967
392.60 0.08179038
392.70 0.07370993
392.80 0.07309928
392.90 0.09173002
393.00 0.3126236
393.10 0.7925848
393.20 1.358873
393.30 1.869846
393.40 2.081713
393.50 1.835485
393.60 1.253822
393.70 0.6645323
393.80 0.3242019
393.90 0.2375305
394.00 0.2346625
394.10 0.1658371
394.20 0.02398424
394.30 0
394.40 0.004645836
394.50 0.03940723
394.60 0.08659134
394.70 0.1582446
394.80 0.1442249
394.90 0.153792
395.00 0.1574092
395.10 0.1578971
395.20 0.1530922
395.30 0.1457586
395.40 0.1483143
395.50 0.3057168
395.60 0.5787507
395.70 0.6805671
395.80 0.5568844
395.90 0.3115946
396.00 0.1393593
396.10 0.07876665
396.20 0.03148551
396.30 0.01043254
396.40 0.01901081
396.50 0.1459079
396.60 0.4552128
396.70 0.9151131
396.80 1.427434
396.90 1.813727
397.00 1.935517
397.10 1.775696
397.20 1.418857
397.30 0.9636644
397.40 0.5348611
397.50 0.2442835
397.60 0.1477728
397.70 0.2134537
397.80 0.3378284
397.90 0.4291602
398.00 0.4731208
398.10 0.5121162
398.20 0.5691645
398.30 0.6130462
398.40 0.5948252
398.50 0.4981801
398.60 0.356651
398.70 0.2166973
398.80 0.2016233
398.90 0.1858255
399.00 0.1673166
399.10 0.1532428
399.20 0.1445951
399.30 0.1361535
399.40 0.1224289
399.50 0.1057513
399.60 0.1200939
399.70 0.1556482
399.80 0.1640472
399.90 0.1574748
400.00 0.1548644
400.10 0.1660887
400.20 0.1791091
400.30 0.1678055
400.40 0.1219512
400.50 0.07553357
400.60 0.07663029
400.70 0.07413968
400.80 0.08344898
400.90 0.1585533
401.00 0.2251827
401.10 0.2413241
401.20 0.1817812
401.30 0.1486318
401.40 0.1501832
401.50 0.1424498
401.60 0.1265202
401.70 0.1984988
401.80 0.2639561
401.90 0.2927337
402.00 0.2964634
402.10 0.307266
402.20 0.352109
402.30 0.4189654
402.40 0.4575557
402.50 0.4325214
402.60 0.3611656
402.70 0.2795155
402.80 0.1990436
402.90 0.1202302
403.00 0.06271843
403.10 0.056859
403.20 0.09912926
403.30 0.1443697
403.40 0.1484561
403.50 0.1037818
403.60 0.03902373
403.70 0.01278076
403.80 0.02062293
403.90 0.03124668
404.00 0.04733774
404.10 0.06786367
404.20 0.113842
404.30 0.1973276
404.40 0.3096239
404.50 0.421991
404.60 0.4891526
404.70 0.4646945
404.80 0.3459446
404.90 0.2013867
405.00 0.117497
405.10 0.1197214
405.20 0.1632523
405.30 0.1998081
405.40 0.229358
405.50 0.2708581
405.60 0.3050341
405.70 0.2900472
405.80 0.2354696
405.90 0.1939126
406.00 0.2113401
406.10 0.2744356
406.20 0.3328211
406.30 0.3614558
406.40 0.3781128
406.50 0.3938199
406.60 0.4088936
406.70 0.4152436
406.80 0.4011952
406.90 0.3575857
407.00 0.2748783
407.10 0.1631817
407.20 0.108539
407.30 0.0976755
407.40 0.08345282
407.50 0.1335512
407.60 0.181318
407.70 0.2065819
407.80 0.2260558
407.90 0.2431754
408.00 0.2475916
408.10 0.2351339
408.20 0.211951
408.30 0.1905702
408.40 0.1767004
408.50 0.1765651
408.60 0.1938833
408.70 0.2149351
408.80 0.2083635
408.90 0.154676
409.00 0.08542629
409.10 0.06654668
409.20 0.1218158
409.30 0.2045827
409.40 0.2272791
409.50 0.1727096
409.60 0.1215848
409.70 0.1728468
409.80 0.3511893
409.90 0.605481
410.00 0.8617337
410.10 1.051093
410.20 1.110386
410.30 1.002688
410.40 0.7550249
410.50 0.4569704
410.60 0.2077167
410.70 0.1632991
410.80 0.1440219
410.90 0.1293457
411.00 0.1174317
411.10 0.1114069
411.20 0.1079295
411.30 0.1006156
411.40 0.09082946
411.50 0.08789461
411.60 0.2410584
411.70 0.5093213
411.80 0.6937389
411.90 0.7469579
412.00 0.6918025
412.10 0.5884806
412.20 0.4854429
412.30 0.4108685
412.40 0.3585437
412.50 0.3114784
412.60 0.2614506
412.70 0.2101061
412.80 0.1613733
412.90 0.1179851
413.00 0.08536066
413.10 0.07106719
413.20 0.07339803
413.30 0.08423624
413.40 0.09864944
413.50 0.1149099
413.60 0.1321745
413.70 0.1512636
413.80 0.1704868
413.90 0.1743227
414.00 0.1375522
414.10 0.04600921
414.20 0.04259471
414.30 0.04712583
414.40 0.05445409
414.50 0.06769682
414.60 0.09172907
414.70 0.1189659
414.80 0.2195481
414.90 0.2805141
415.00 0.2075357
415.10 0.1172614
415.20 0.09503416
415.30 0.07604007
415.40 0.06526526
415.50 0.07009116
415.60 0.09308357
415.70 0.1263326
415.80 0.150219
415.90 0.1568409
416.00 0.1872519
416.10 0.2346126
416.20 0.2735102
416.30 0.2682658
416.40 0.1928614
416.50 0.06738871
416.60 0.0537727
416.70 0.07081055
416.80 0.09594775
416.90 0.1084756
417.00 0.1369634
417.10 0.2288168
417.20 0.2492926
417.30 0.2325477
417.40 0.2296651
417.50 0.24603
417.60 0.2441415
417.70 0.1979293
417.80 0.1273685
417.90 0.1414914
418.00 0.1451144
418.10 0.143642
418.20 0.1364676
418.30 0.1130684
418.40 0.08055077
418.50 0.07697587
418.60 0.2293884
418.70 0.4095226
418.80 0.5816645
418.90 0.7196049
419.00 0.8168463
419.10 0.8659477
419.20 0.8490294
419.30 0.7599668
419.40 0.6241982
419.50 0.4791896
419.60 0.3512713
419.70 0.2574959
419.80 0.2068901
419.90 0.2022641
420.00 0.2155763
420.10 0.2022067
420.20 0.140816
420.30 0.1010274
420.40 0.1061402
420.50 0.1164238
420.60 0.1297281
420.70 0.1463443
420.80 0.2165488
420.90 0.2546987
421.00 0.2412527
421.10 0.2070263
421.20 0.2046281
421.30 0.2610803
421.40 0.3480314
421.50 0.4327438
421.60 0.4820658
421.70 0.4891496
421.80 0.4634664
421.90 0.4171836
422.00 0.3637755
422.10 0.32386
422.20 0.3141619
422.30 0.3191674
422.40 0.287593
422.50 0.1819931
422.60 0.04121262
422.70 0.0273979
422.80 0.0264811
422.90 0.03059838
423.00 0.03047011
423.10 0.02332769
423.20 0.01146086
423.30 0
423.40 0
423.50 0.04111513
423.60 0.1883187
423.70 0.2975672
423.80 0.3502126
423.90 0.3478843
424.00 0.3001798
424.10 0.2223268
424.20 0.1332681
424.30 0.04843681
424.40 0.01715382
424.50 0.021273
424.60 0.02271377
424.70 0.01890321
424.80 0.08380083
424.90 0.1816614
425.00 0.2728946
425.10 0.3284244
425.20 0.3259113
425.30 0.2721439
425.40 0.2001485
425.50 0.1514979
425.60 0.1524879
425.70 0.1986034
425.80 0.2584318
425.90 0.2921581
426.00 0.2797371
426.10 0.2367287
426.20 0.1941509
426.30 0.1705241
426.40 0.1755233
426.50 0.211264
426.60 0.2541992
426.70 0.2490968
426.80 0.1549235
426.90 0.05533399
427.00 0.06605976
427.10 0.07398658
427.20 0.07751509
427.30 0.07832302
427.40 0.07811225
427.50 0.07316756
427.60 0.06196498
427.70 0.04712989
427.80 0.05804579
427.90 0.05306698
428.00 0.03399863
428.10 0.03855128
428.20 0.06889105
428.30 0.1034745
428.40 0.1167873
428.50 0.104293
428.60 0.06816311
428.70 0.02639508
428.80 0.001018329
428.90 0.002915359
429.00 0.02592658
429.10 0.1125606
429.20 0.1982558
429.30 0.2453099
429.40 0.2732463
429.50 0.2994267
429.60 0.3244843
429.70 0.3295676
429.80 0.2984554
429.90 0.2504636
430.00 0.2354971
430.10 0.2783154
430.20 0.3436045
430.30 0.3757231
430.40 0.363968
430.50 0.349632
430.60 0.361732
430.70 0.3765192
430.80 0.3558592
430.90 0.2960326
431.00 0.222725
431.10 0.1588654
431.20 0.110758
431.30 0.07508586
431.40 0.04185412
431.50 0
431.60 0
431.70 0
431.80 0
431.90 0
432.00 0
432.10 0.07859855
432.20 0.1815091
432.30 0.2836601
432.40 0.3553193
432.50 0.3693739
432.60 0.3185146
432.70 0.2324452
432.80 0.1678976
432.90 0.1584436
433.00 0.1764502
433.10 0.1623334
433.20 0.139635
433.30 0.1437636
433.40 0.142422
433.50 0.1390878
433.60 0.1411852
433.70 0.1809013
433.80 0.4166944
433.90 0.7644415
434.00 1.151733
434.10 1.426509
434.20 1.454348
434.30 1.231645
434.40 0.8940953
434.50 0.6075195
434.60 0.4529104
434.70 0.4053721
434.80 0.3941458
434.90 0.3666871
435.00 0.3107249
435.10 0.2437373
435.20 0.1922755
435.30 0.1719227
435.40 0.1808938
435.50 0.214628
435.60 0.2901852
435.70 0.4065171
435.80 0.5153845
435.90 0.5312691
436.00 0.410981
436.10 0.2149121
436.20 0.1258253
436.30 0.09657214
436.40 0.1403457
436.50 0.2230156
436.60 0.2532085
436.70 0.261178
436.80 0.301594
436.90 0.3831624
437.00 0.4583113
437.10 0.4757059
437.20 0.4255859
437.30 0.3380732
437.40 0.2523056
437.50 0.1922706
437.60 0.1639675
437.70 0.1641652
437.80 0.1929934
437.90 0.2375922
438.00 0.2748167
438.10 0.2744836
438.20 0.2303907
438.30 0.1628986
438.40 0.1205153
438.50 0.1119216
438.60 0.1062503
438.70 0.1174737
438.80 0.1768462
438.90 0.2620533
439.00 0.3334009
439.10 0.345545
439.20 0.2971175
439.30 0.2310812
439.40 0.1839896
439.50 0.1629485
439.60 0.1537831
439.70 0.1419379
439.80 0.1347486
439.90 0.1953627
440.00 0.2721829
440.10 0.2912036
440.20 0.2330097
440.30 0.1326471
440.40 0.1128989
440.50 0.1006313
440.60 0.08817749
440.70 0.08591864
440.80 0.09787588
440.90 0.2228189
441.00 0.3716673
441.10 0.4842945
441.20 0.5257848
441.30 0.5052139
441.40 0.4708045
441.50 0.4681377
441.60 0.5058092
441.70 0.5545926
441.80 0.5718616
441.90 0.5328656
442.00 0.45007
442.10 0.3662943
442.20 0.3241705
442.30 0.3345952
442.40 0.3677522
442.50 0.3786857
442.60 0.3468579
442.70 0.2943117
442.80 0.2675129
442.90 0.2956564
443.00 0.3614574
443.10 0.4135262
443.20 0.4086986
443.30 0.3440429
443.40 0.2526573
443.50 0.1935425
443.60 0.1850505
443.70 0.1884022
443.80 0.2848236
443.90 0.385731
444.00 0.445296
444.10 0.4575891
444.20 0.4527228
444.30 0.4576219
444.40 0.4696566
444.50 0.4610098
444.60 0.4200939
444.70 0.3692801
444.80 0.3405916
444.90 0.3561229
445.00 0.413727
445.10 0.4990476
445.20 0.5986361
445.30 0.6871352
445.40 0.7201695
445.50 0.6665379
445.60 0.5415718
445.70 0.4294312
445.80 0.3768837
445.90 0.3684095
446.00 0.3658508
446.10 0.3657592
446.20 0.3977711
446.30 0.4771961
446.40 0.5782618
446.50 0.6520002
446.60 0.659942
446.70 0.6011046
446.80 0.5188954
446.90 0.472476
447.00 0.4866521
447.10 0.5306581
447.20 0.5548531
447.30 0.5428322
447.40 0.5142905
447.50 0.4889453
447.60 0.463542
447.70 0.4177195
447.80 0.3395437
447.90 0.2456723
448.00 0.240028
448.10 0.2367386
448.20 0.2596589
448.30 0.3701289
448.40 0.4600279
448.50 0.5083669
448.60 0.5346238
448.70 0.5657773
448.80 0.6026019
448.90 0.6280437
449.00 0.6408392
449.10 0.6619851
449.20 0.7059298
449.30 0.7542265
449.40 0.7671356
449.50 0.7241767
449.60 0.6465896
449.70 0.5765342
449.80 0.5420753
449.90 0.5408257
450.00 0.5528223
450.10 0.5627309
450.20 0.5632477
450.30 0.5524817
450.40 0.5359429
450.50 0.5224871
450.60 0.5140751
450.70 0.5048486
450.80 0.490694
450.90 0.4791474
451.00 0.4846978
451.10 0.5116828
451.20 0.5492789
451.30 0.5791942
451.40 0.5885065
451.50 0.5740058
451.60 0.5371042
451.70 0.4843551
451.80 0.4355625
451.90 0.4199762
452.00 0.4511007
452.10 0.5112681
452.20 0.569094
452.30 0.6121597
452.40 0.6546446
452.50 0.712929
452.60 0.7804153
452.70 0.8284273
452.80 0.8274656
452.90 0.775547
453.00 0.7093505
453.10 0.6754195
453.20 0.6890762
453.30 0.7227274
453.40 0.7342126
453.50 0.7039999
453.60 0.6464896
453.70 0.5941098
453.80 0.5777052
453.90 0.6057625
454.00 0.6553331
454.10 0.6908651
454.20 0.6905753
454.30 0.6612975
454.40 0.6297757
454.50 0.6130925
454.60 0.5981641
454.70 0.5564298
454.80 0.476538
454.90 0.3819128
455.00 0.3169022
455.10 0.3216119
455.20 0.4177349
455.30 0.5868057
455.40 0.7582551
455.50 0.8509585
455.60 0.8405976
455.70 0.7731517
455.80 0.7067065
455.90 0.659604
456.00 0.6245397
456.10 0.6059376
456.20 0.6197431
456.30 0.6687487
456.40 0.7362568
456.50 0.8033157
456.60 0.8596821
456.70 0.902558
456.80 0.9319849
456.90 0.9478438
457.00 0.9528153
457.10 0.9528332
457.20 0.9557924
457.30 0.971411
457.40 1.003608
457.50 1.034043
457.60 1.023108
457.70 0.9416359
457.80 0.8094327
457.90 0.691391
458.00 0.6416173
458.10 0.6664623
458.20 0.7343855
458.30 0.7987499
458.40 0.815079
458.50 0.7588618
458.60 0.6463106
458.70 0.5295298
458.80 0.4576729
458.90 0.4438368
459.00 0.4649191
459.10 0.4816589
459.20 0.4695745
459.30 0.4427778
459.40 0.44026
459.50 0.4837543
459.60 0.5522149
459.70 0.6089318
459.80 0.6436135
459.90 0.6699814
460.00 0.6924859
460.10 0.6964568
460.20 0.671237
460.30 0.6241521
460.40 0.5665861
460.50 0.5022059
460.60 0.4379282
460.70 0.3920543
460.80 0.3865991
460.90 0.4383251
461.00 0.5518228
461.10 0.7061384
461.20 0.8459925
461.30 0.9138648
461.40 0.9054943
461.50 0.8736887
461.60 0.8663072
461.70 0.8765161
461.80 0.8698186
461.90 0.8412363
462.00 0.8225171
462.10 0.8390961
462.20 0.883228
462.30 0.9323353
462.40 0.9700972
462.50 0.98163
462.60 0.9449867
462.70 0.8469164
462.80 0.7004697
462.90 0.5450348
463.00 0.4321041
463.10 0.4013982
463.20 0.4557246
463.30 0.5519508
463.40 0.6312288
463.50 0.6671224
463.60 0.6779661
463.70 0.687608
463.80 0.6915066
463.90 0.6712872
464.00 0.627733
464.10 0.5880658
464.20 0.580365
464.30 0.607253
464.40 0.6478106
464.50 0.6809073
464.60 0.7045675
464.70 0.7349084
464.80 0.7841533
464.90 0.8381605
465.00 0.8640371
465.10 0.843516
465.20 0.7917477
465.30 0.7401442
465.40 0.7095041
465.50 0.7050696
465.60 0.73052
465.70 0.7929698
465.80 0.8878081
465.90 0.9902476
466.00 1.06414
466.10 1.081155
466.20 1.043331
466.30 0.9876191
466.40 0.9587576
466.50 0.9734096
466.60 1.008944
466.70 1.025225
466.80 0.9907031
466.90 0.8913359
467.00 0.7407077
467.10 0.590009
467.20 0.5071931
467.30 0.5246933
467.40 0.6106395
467.50 0.6992341
467.60 0.7442912
467.70 0.7388695
467.80 0.7014249
467.90 0.6580822
468.00 0.6314094
468.10 0.6314644
468.20 0.6516172
468.30 0.6809578
468.40 0.7149864
468.50 0.7516717
468.60 0.7833219
468.70 0.7980616
468.80 0.792456
468.90 0.7745746
469.00 0.7509471
469.10 0.7172914
469.20 0.6727288
469.30 0.6401728
469.40 0.6463644
469.50 0.6811122
469.60 0.7017585
469.70 0.6897848
469.80 0.6774768
469.90 0.6970913
470.00 0.7280908
470.10 0.7255392
470.20 0.689563
470.30 0.6672965
470.40 0.6915591
470.50 0.7394228
470.60 0.7603391
470.70 0.7349265
470.80 0.6906777
470.90 0.6724071
471.00 0.7045139
471.10 0.7761644
471.20 0.851492
471.30 0.891922
471.40 0.8815065
471.50 0.8423615
471.60 0.8202506
471.70 0.8401544
471.80 0.8789983
471.90 0.8878178
472.00 0.8423464
472.10 0.768568
472.20 0.7221076
472.30 0.7455178
472.40 0.8334309
472.50 0.9354504
472.60 0.9986
472.70 1.013258
472.80 1.012847
472.90 1.025926
473.00 1.040353
473.10 1.025095
473.20 0.9733329
473.30 0.907711
473.40 0.8503863
473.50 0.8020446
473.60 0.755365
473.70 0.7194675
473.80 0.7198686
473.90 0.7717271
474.00 0.8548272
474.10 0.9214573
474.20 0.9342747
474.30 0.8985664
474.40 0.8549778
474.50 0.8401533
474.60 0.8572238
474.70 0.8818607
474.80 0.889992
474.90 0.8782197
475.00 0.8633549
475.10 0.8664723
475.20 0.9018246
475.30 0.9698708
475.40 1.049701
475.50 1.100959
475.60 1.08388
475.70 0.9893855
475.80 0.8513067
475.90 0.7218497
476.00 0.6274245
476.10 0.5511093
476.20 0.4618138
476.30 0.357475
476.40 0.3101539
476.50 0.2936002
476.60 0.2815733
476.70 0.3177161
476.80 0.3672635
476.90 0.3911764
477.00 0.3888266
477.10 0.3870084
477.20 0.41955
477.30 0.4940148
477.40 0.5832576
477.50 0.6523306
477.60 0.6835891
477.70 0.6748428
477.80 0.6268058
477.90 0.5477205
478.00 0.4651597
478.10 0.4145581
478.20 0.4100028
478.30 0.430692
478.40 0.4449277
478.50 0.4489588
478.60 0.4695949
478.70 0.5219143
478.80 0.5796949
478.90 0.5974367
479.00 0.5623707
479.10 0.5152851
479.20 0.5118433
479.30 0.5706705
479.40 0.662185
479.50 0.739187
479.60 0.7739318
479.70 0.7721379
479.80 0.760942
479.90 0.7643181
480.00 0.7831591
480.10 0.7982825
480.20 0.7903405
480.30 0.7505347
480.40 0.6775367
480.50 0.5795862
480.60 0.482499
480.70 0.4258001
480.80 0.4362747
480.90 0.5053666
481.00 0.5969483
481.10 0.6731416
481.20 0.7177091
481.30 0.7400979
481.40 0.7556978
481.50 0.7602707
481.60 0.7313517
481.70 0.6582751
481.80 0.5666422
481.90 0.5049681
482.00 0.5010136
482.10 0.5404157
482.20 0.5881127
482.30 0.6209341
482.40 0.6377511
482.50 0.6493073
482.60 0.670293
482.70 0.710423
482.80 0.7596314
482.90 0.7857124
483.00 0.7650214
483.10 0.7108523
483.20 0.6568701
483.30 0.6221693
483.40 0.6075901
483.50 0.6193277
483.60 0.6687602
483.70 0.7488312
483.80 0.8313529
483.90 0.8926858
484.00 0.928253
484.10 0.9428807
484.20 0.9415003
484.30 0.9289041
484.40 0.907229
484.50 0.8714968
484.60 0.8181067
484.70 0.7624774
484.80 0.7377528
484.90 0.7647833
485.00 0.8233441
485.10 0.86249
485.20 0.8478318
485.30 0.7953462
485.40 0.7484107
485.50 0.7222634
485.60 0.693628
485.70 0.6659936
485.80 0.7347232
485.90 1.042989
486.00 1.629062
486.10 2.309743
486.20 2.755133
486.30 2.725402
486.40 2.255606
486.50 1.616093
486.60 1.096173
486.70 0.820078
486.80 0.734378
486.90 0.7193623
487.00 0.6925321
487.10 0.6389802
487.20 0.5889641
487.30 0.5820165
487.40 0.6369073
487.50 0.737182
487.60 0.8433086
487.70 0.9193525
487.80 0.9499989
487.90 0.9375769
488.00 0.8926027
488.10 0.8324483
488.20 0.7821425
488.30 0.7676291
488.40 0.8013344
488.50 0.8707265
488.60 0.9407376
488.70 0.9751947
488.80 0.9612017
488.90 0.9150766
489.00 0.8688084
489.10 0.8518814
489.20 0.8756914
489.30 0.9217738
489.40 0.9490847
489.50 0.9282186
489.60 0.8736591
489.70 0.8301419
489.80 0.8268825
489.90 0.8598578
490.00 0.915586
490.10 0.986893
490.20 1.058309
490.30 1.100571
490.40 1.099307
490.50 1.080164
490.60 1.082076
490.70 1.110123
490.80 1.13461
490.90 1.133881
491.00 1.122612
491.10 1.130075
491.20 1.162049
491.30 1.199089
491.40 1.223077
491.50 1.229568
491.60 1.223332
491.70 1.214221
491.80 1.216043
491.90 1.239154
492.00 1.276137
492.10 1.306102
492.20 1.319511
492.30 1.327998
492.40 1.346128
492.50 1.36895
492.60 1.374381
492.70 1.352812
492.80 1.324097
492.90 1.317517
493.00 1.339358
493.10 1.367771
493.20 1.382662
493.30 1.39059
493.40 1.412906
493.50 1.457925
493.60 1.514972
493.70 1.569933
493.80 1.616876
493.90 1.654219
494.00 1.682262
494.10 1.706551
494.20 1.734402
494.30 1.768356
494.40 1.808301
494.50 1.855388
494.60 1.907636
494.70 1.954129
494.80 1.979211
494.90 1.975569
495.00 1.946123
495.10 1.896023
495.20 1.826306
495.30 1.725383
495.40 1.568012
495.50 1.33749
495.60 1.056371
495.70 0.7857815
495.80 0.5801748
495.90 0.444442
496.00 0.3485432
496.10 0.2755055
496.20 0.2372932
496.30 0.2504797
496.40 0.3118489
496.50 0.3998302
496.60 0.4880825
496.70 0.5573313
496.80 0.6083501
496.90 0.6607236
497.00 0.7202298
497.10 0.753766
497.20 0.718513
497.30 0.6186304
497.40 0.5153807
497.50 0.4744095
497.60 0.5194113
497.70 0.6356416
497.80 0.7895606
497.90 0.9286726
498.00 0.9880797
498.10 0.9354593
498.20 0.8176947
498.30 0.7386442
498.40 0.7748787
498.50 0.9134759
498.60 1.068517
498.70 1.153864
498.80 1.142041
498.90 1.068081
499.00 0.9892136
499.10 0.9397936
499.20 0.9165274
499.30 0.900552
499.40 0.8859686
499.50 0.8846404
499.60 0.9003515
499.70 0.9005646
499.80 0.8266071
499.90 0.6465813
500.00 1
500.10 1.011098
500.20 0.7187221
500.30 0.3641241
500.40 0.4377513
500.50 0.7136911
500.60 0.7882776
500.70 0.7942644
500.80 0.8047884
500.90 0.8721958
501.00 0.9631326
501.10 1.031446
501.20 0.8614424
501.30 0.7161151
501.40 0.9314016
501.50 0.7921886
501.60 0.4284146
501.70 0.5647913
501.80 0.7205171
501.90 0.8180976
502.00 1.172754
502.10 0.7232339
502.20 0.7941959
502.30 0.7415848
502.40 0.6425393
502.50 0.74337
502.60 0.9680218
502.70 0.9549527
502.80 0.8976532
502.90 1.015559
503.00 1.251699
503.10 1.301514
503.20 1.01019
503.30 0.8798869
503.40 0.9087416
503.50 0.5409947
503.60 0.7366097
503.70 1.359304
503.80 1.315118
503.90 1.058176
504.00 1.195599
504.10 0.8626114
504.20 0.8187126
504.30 1.092485
504.40 1.113234
504.50 0.8473742
504.60 0.9322448
504.70 1.145618
504.80 0.9889469
504.90 1.161202
505.00 1.278493
505.10 1.10003
505.20 1.048466
505.30 1.137029
505.40 0.906669
505.50 0.6302461
505.60 0.9963099
505.70 1.254727
505.80 1.115686
505.90 0.9633078
506.00 1.112226
506.10 1.115096
506.20 0.9784802
506.30 1.320352
506.40 1.228807
506.50 1.005369
506.60 0.9974079
506.70 0.9883402
506.80 1.093336
506.90 1.264938
507.00 1.504721
507.10 1.467141
507.20 1.254069
507.30 1.146171
507.40 1.36164
507.50 1.642555
507.60 1.647725
507.70 1.580518
507.80 1.530043
507.90 1.694555
508.00 1.615672
508.10 1.387634
508.20 1.305162
508.30 1.319062
508.40 1.145516
508.50 0.9406799
508.60 1.045537
508.70 1.459206
508.80 1.537677
508.90 1.308013
509.00 1.315412
509.10 1.188741
509.20 1.172532
509.30 1.412109
509.40 1.464099
509.50 1.321411
509.60 1.520849
509.70 1.800214
509.80 1.641338
509.90 1.58874
510.00 1.20478
510.10 0.8046411
510.20 0.914026
510.30 1.037805
510.40 0.9941559
510.50 1.215921
510.60 1.161402
510.70 0.8306523
510.80 1.041622
510.90 1.502965
511.00 1.645754
511.10 1.4305
511.20 1.50484
511.30 1.74407
511.40 1.434584
511.50 1.316281
511.60 1.736167
511.70 1.973729
511.80 1.444216
511.90 1.378209
512.00 1.512536
512.10 1.544212
512.20 1.551515
512.30 1.741714
512.40 1.687919
512.50 1.531997
512.60 1.250181
512.70 1.31946
512.80 1.361849
512.90 0.985002
513.00 1.102917
513.10 1.492503
513.20 1.424228
513.30 1.601131
513.40 1.786687
513.50 1.529862
513.60 1.570215
513.70 1.47527
513.80 1.496979
513.90 1.58687
514.00 1.584989
514.10 1.133483
514.20 1.114412
514.30 1.424497
514.40 1.515875
514.50 1.672012
514.60 1.507314
514.70 1.294616
514.80 1.220282
514.90 1.262245
515.00 1.03662
515.10 1.073713
515.20 1.36953
515.30 1.523004
515.40 1.416677
515.50 1.270631
515.60 1.128437
515.70 1.508725
515.80 1.848231
515.90 2.011067
516.00 1.765893
516.10 1.681051
516.20 1.987937
516.30 2.032454
516.40 2.128437
516.50 2.042133
516.60 1.729199
516.70 1.312939
516.80 1.0107
516.90 0.4433561
517.00 0.3531804
517.10 0.2948583
517.20 0.3598227
517.30 0.5582656
517.40 0.5691534
517.50 0.4992715
517.60 0.76767
517.70 0.6875544
517.80 0.5927327
517.90 0.6455608
518.00 0.6475728
518.10 0.4738721
518.20 0.4602723
518.30 0.315758
518.40 0.317893
518.50 0.5411803
518.60 0.9903096
518.70 0.9519435
518.80 1.012171
518.90 1.015951
519.00 0.9548962
519.10 1.021009
519.20 1.082024
519.30 0.8189667
519.40 0.8379931
519.50 0.9889221
519.60 1.12275
519.70 1.139938
519.80 0.9132573
519.90 0.7220788
520.00 0.489571
520.10 0.4612681
520.20 0.6683983
520.30 1.071112
520.40 1.296592
520.50 1.193343
520.60 0.8668453
520.70 0.8098458
520.80 1.040038
520.90 1.00196
521.00 0.694248
521.10 0.6697607
521.20 1.072978
521.30 1.336777
521.40 1.462789
521.50 1.287622
521.60 1.264102
521.70 1.446361
521.80 1.497688
521.90 1.540196
522.00 1.750146
522.10 1.571675
522.20 1.350536
522.30 1.199974
522.40 1.270674
522.50 1.734037
522.60 1.950048
522.70 1.967303
522.80 1.680103
522.90 1.262756
523.00 1.449233
523.10 1.774851
523.20 1.893269
523.30 1.671683
523.40 1.616498
523.50 1.598516
523.60 1.748824
523.70 1.618745
523.80 1.697162
523.90 1.861214
524.00 1.787121
524.10 1.463629
524.20 1.568023
524.30 1.420148
524.40 1.234248
524.50 1.103164
524.60 1.272453
524.70 1.302392
524.80 1.26647
524.90 1.353473
525.00 1.48206
525.10 1.173878
525.20 1.161631
525.30 1.587408
525.40 2.118652
525.50 1.672263
525.60 1.418751
525.70 1.665972
525.80 1.936264
525.90 1.808962
526.00 1.643359
526.10 1.396829
526.20 1.495623
526.30 1.659922
526.40 1.511552
526.50 1.381996
526.60 1.409574
526.70 1.403699
526.80 1.417085
526.90 1.261259
527.00 1.498537
527.10 1.5978
527.20 1.362238
527.30 1.358675
527.40 1.430114
527.50 1.687197
527.60 1.975277
527.70 1.855683
527.80 1.762861
527.90 1.683603
528.00 1.624037
528.10 1.471339
528.20 1.305719
528.30 1.810208
528.40 2.028285
528.50 1.689835
528.60 1.51707
528.70 1.787044
528.80 2.10626
528.90 2.097175
529.00 1.867616
529.10 1.754205
529.20 1.821301
529.30 1.868785
529.40 1.866657
529.50 1.920315
529.60 2.001455
529.70 2.192946
529.80 2.004402
529.90 1.720492
530.00 1.781882
530.10 2.035962
530.20 2.133967
530.30 1.988025
530.40 2.156362
530.50 2.327069
530.60 2.159084
530.70 2.116552
530.80 1.881216
530.90 1.752224
531.00 1.77512
531.10 1.582871
531.20 1.505796
531.30 1.757573
531.40 1.595516
531.50 1.394683
531.60 1.607525
531.70 1.856787
531.80 1.884213
531.90 1.578008
532.00 1.564118
532.10 2.045644
532.20 1.914477
532.30 1.730057
532.40 1.825732
532.50 2.023659
532.60 1.971069
532.70 1.610513
532.80 1.544468
532.90 1.830512
533.00 1.683821
533.10 1.609354
533.20 1.718976
533.30 2.155365
533.40 2.017797
533.50 1.612723
533.60 1.603028
533.70 1.415809
533.80 1.568491
533.90 1.813103
534.00 2.13461
534.10 2.011842
534.20 1.738159
534.30 1.809808
534.40 1.991968
534.50 2.084712
534.60 2.227099
534.70 2.158942
534.80 1.72079
534.90 1.70198
535.00 1.903666
535.10 2.389009
535.20 2.507023
535.30 2.451461
535.40 2.503194
535.50 2.548402
535.60 2.352582
535.70 2.30921
535.80 2.132803
535.90 2.010176
536.00 1.908872
536.10 2.078037
536.20 2.032023
536.30 1.891011
536.40 1.704777
536.50 1.974917
536.60 1.725285
536.70 1.52644
536.80 1.456802
536.90 1.607261
537.00 1.576607
537.10 1.65221
537.20 1.869851
537.30 1.97625
537.40 1.816559
537.50 1.867755
537.60 1.90728
537.70 1.924809
537.80 2.097023
537.90 2.561733
538.00 2.661787
538.10 2.343185
538.20 2.175822
538.30 2.242654
538.40 2.449608
538.50 2.323314
538.60 2.194442
538.70 1.856528
538.80 2.069878
538.90 2.107208
539.00 2.288916
539.10 2.438403
539.20 2.194001
539.30 1.852206
539.40 2.234245
539.50 2.425742
539.60 2.368299
539.70 2.207994
539.80 2.435899
539.90 2.629901
540.00 2.451722
540.10 2.667442
540.20 3.012167
540.30 2.893313
540.40 2.70703
540.50 2.521963
540.60 2.299767
540.70 2.483931
540.80 2.653225
540.90 2.128566
541.00 1.892814
541.10 1.788085
541.20 2.122547
541.30 2.401467
541.40 2.236655
541.50 2.183388
541.60 2.241245
541.70 2.493384
541.80 2.690927
541.90 2.63913
542.00 2.308473
542.10 2.493412
542.20 2.637496
542.30 2.76755
542.40 2.794184
542.50 2.880935
542.60 2.91825
542.70 2.609387
542.80 2.338327
542.90 2.426134
543.00 2.305535
543.10 2.122136
543.20 2.159974
543.30 2.038737
543.40 2.110133
543.50 2.308766
543.60 2.423486
543.70 2.394355
543.80 2.449046
543.90 2.852999
544.00 2.924048
544.10 2.875806
544.20 3.139377
544.30 3.181997
544.40 2.877098
544.50 2.852314
544.60 3.06432
544.70 3.028567
544.80 2.526859
544.90 2.107067
545.00 1.609219
545.10 0.7689223
545.20 0.5648689
545.30 0.7584319
545.40 0.7821771
545.50 0.9577812
545.60 0.8629998
545.70 0.7238957
545.80 0.9453372
545.90 1.159935
546.00 1.25783
546.10 1.621539
546.20 1.766468
546.30 1.692402
546.40 1.630599
546.50 1.304983
546.60 1.231007
546.70 1.270826
546.80 1.584317
546.90 1.699566
547.00 1.568349
547.10 1.221969
547.20 1.144033
547.30 0.9909857
547.40 0.9565523
547.50 1.211492
547.60 1.567321
547.70 1.36699
547.80 1.410636
547.90 1.522968
548.00 1.570854
548.10 1.399655
548.20 1.317167
548.30 1.263583
548.40 1.335705
548.50 1.487573
548.60 1.482119
548.70 1.405829
548.80 1.379838
548.90 1.321759
549.00 1.318714
549.10 1.142982
549.20 1.406106
549.30 1.454596
549.40 1.533285
549.50 1.667802
549.60 1.611832
549.70 1.193518
549.80 1.226768
549.90 1.432691
550.00 1.111343
550.10 0.8107818
550.20 0.7196594
550.30 0.9500179
550.40 0.8066576
550.50 0.7081434
550.60 0.8479571
550.70 0.8196889
550.80 0.6920606
550.90 0.7089442
551.00 0.6540683
551.10 0.6096946
551.20 0.4349022
551.30 0.3631302
551.40 0.4389355
551.50 0.7078672
551.60 0.8925313
551.70 0.9603974
551.80 0.6519895
551.90 0.4279523
552.00 0.626529
552.10 0.5292163
552.20 0.3158767
552.30 0.4512964
552.40 0.5737537
552.50 0.6072595
552.60 0.8849396
552.70 0.7560857
552.80 0.6755088
552.90 0.6295975
553.00 0.3535515
553.10 0.4886594
553.20 0.6630155
553.30 0.7082508
553.40 0.5950597
553.50 0.6381717
553.60 0.4095071
553.70 0.5387576
553.80 0.5347186
553.90 0.4390923
554.00 0.5922057
554.10 0.5852613
554.20 0.5362215
554.30 0.4861538
554.40 0.6301125
554.50 0.6343621
554.60 0.3546776
554.70 0.3026558
554.80 0.2880818
554.90 0.4563411
555.00 0.589626
555.10 0.6004339
555.20 0.3899452
555.30 0.5944735
555.40 0.7844192
555.50 0.6399948
555.60 0.589975
555.70 0.6792131
555.80 0.8160915
555.90 0.6172617
556.00 0.7875577
556.10 1.113118
556.20 0.9605406
556.30 0.8272864
556.40 0.9273634
556.50 1.224059
556.60 1.248954
556.70 1.052372
556.80 0.9205081
556.90 0.9472342
557.00 1.119973
557.10 1.271083
557.20 1.292198
557.30 1.285819
557.40 1.285549
557.50 1.285549
557.60 1.285549
557.70 1.285549
557.80 1.285549
557.90 1.285549
558.00 1.285549
558.10 1.28555
558.20 1.285353
558.30 1.283776
558.40 1.269635
558.50 1.396421
558.60 1.660631
558.70 1.702597
558.80 1.609613
558.90 1.504275
559.00 1.465332
559.10 1.40928
559.20 1.457703
559.30 1.673699
559.40 1.642986
559.50 1.58602
559.60 1.757395
559.70 1.477237
559.80 1.127706
559.90 1.020646
560.00 1.116957
560.10 1.057638
560.20 1.330471
560.30 1.472548
560.40 1.557119
560.50 1.519255
560.60 1.412347
560.70 1.173923
560.80 1.203837
560.90 1.321181
561.00 1.568765
561.10 1.812954
561.20 1.511184
561.30 1.230521
561.40 1.385885
561.50 1.571234
561.60 1.46302
561.70 1.550098
561.80 1.391148
561.90 1.133465
562.00 1.064722
562.10 1.172304
562.20 1.352173
562.30 1.379151
562.40 1.309816
562.50 1.182202
562.60 1.163655
562.70 1.160614
562.80 1.09863
562.90 1.169763
563.00 1.572921
563.10 1.385423
563.20 0.9481462
563.30 0.8491436
563.40 1.285369
563.50 1.597141
563.60 1.48718
563.70 1.130581
563.80 0.8686122
563.90 1.206458
564.00 1.389348
564.10 1.105294
564.20 0.8879344
564.30 1.066473
564.40 1.351808
564.50 1.255497
564.60 1.269886
564.70 1.192038
564.80 1.410888
564.90 1.563098
565.00 1.524188
565.10 1.377341
565.20 1.587385
565.30 1.888898
565.40 1.802781
565.50 1.66982
565.60 1.508047
565.70 1.677448
565.80 1.653466
565.90 1.790481
566.00 1.859943
566.10 1.621674
566.20 1.512994
566.30 1.616095
566.40 1.778652
566.50 1.495565
566.60 1.448259
566.70 1.596591
566.80 1.702748
566.90 1.47066
567.00 1.422038
567.10 1.422998
567.20 1.476643
567.30 1.619643
567.40 1.497433
567.50 1.455228
567.60 1.400521
567.70 1.614191
567.80 1.633352
567.90 1.640213
568.00 1.638663
568.10 1.466184
568.20 1.418846
568.30 1.735909
568.40 2.050366
568.50 1.883042
568.60 1.513205
568.70 1.641051
568.80 1.863931
568.90 2.087699
569.00 2.200176
569.10 1.71817
569.20 1.742597
569.30 1.840896
569.40 1.958658
569.50 1.802603
569.60 1.535476
569.70 1.443106
569.80 1.540014
569.90 1.846947
570.00 2.05154
570.10 2.092481
570.20 2.024277
570.30 1.644167
570.40 1.650201
570.50 2.006548
570.60 2.383024
570.70 2.238844
570.80 2.174705
570.90 2.240205
571.00 2.225462
571.10 2.225337
571.20 2.197767
571.30 2.168241
571.40 1.894058
571.50 1.652167
571.60 1.640325
571.70 1.869934
571.80 2.282721
571.90 2.094908
572.00 1.715566
572.10 1.559136
572.20 1.821392
572.30 1.897168
572.40 1.989916
572.50 2.072746
572.60 2.127495
572.70 2.176798
572.80 2.039969
572.90 1.88758
573.00 1.934535
573.10 2.051547
573.20 1.935197
573.30 2.085054
573.40 2.42641
573.50 2.365955
573.60 2.196141
573.70 2.056848
573.80 2.078644
573.90 1.911804
574.00 1.694546
574.10 1.758354
574.20 1.842468
574.30 1.90376
574.40 2.043039
574.50 2.161091
574.60 2.188782
574.70 2.057052
574.80 2.365039
574.90 1.985798
575.00 1.731032
575.10 2.046871
575.20 2.468005
575.30 2.294345
575.40 1.975651
575.50 2.279923
575.60 2.407912
575.70 2.280639
575.80 2.385101
575.90 2.395963
576.00 2.107586
576.10 1.559723
576.20 1.536394
576.30 1.6359
576.40 1.748619
576.50 1.844659
576.60 1.877797
576.70 1.837748
576.80 1.810708
576.90 1.534584
577.00 1.422554
577.10 1.642383
577.20 1.510582
577.30 1.326405
577.40 1.469022
577.50 1.836268
577.60 2.053166
577.70 1.940544
577.80 1.708307
577.90 1.593045
578.00 1.952574
578.10 2.282711
578.20 2.351012
578.30 2.070905
578.40 1.640921
578.50 1.825532
578.60 2.348105
578.70 2.57863
578.80 2.200378
578.90 2.181923
579.00 2.406057
579.10 2.583144
579.20 2.600261
579.30 2.296445
579.40 2.270845
579.50 2.508573
579.60 2.563744
579.70 2.653589
579.80 2.563951
579.90 2.312243
580.00 2.561472
580.10 2.853652
580.20 2.721374
580.30 2.508873
580.40 2.435443
580.50 2.749778
580.60 2.910809
580.70 2.854206
580.80 2.893556
580.90 2.929138
581.00 2.607
581.10 2.478696
581.20 2.250225
581.30 1.876976
581.40 1.833956
581.50 1.840632
581.60 1.92171
581.70 1.983982
581.80 2.238248
581.90 2.198006
582.00 1.665117
582.10 1.661693
582.20 1.816766
582.30 1.907788
582.40 1.781663
582.50 1.484965
582.60 1.650854
582.70 1.97333
582.80 2.167189
582.90 1.841145
583.00 1.87946
583.10 2.253069
583.20 2.353221
583.30 2.163918
583.40 2.406189
583.50 2.316159
583.60 1.649319
583.70 1.548722
583.80 1.728968
583.90 1.632207
584.00 1.49597
584.10 1.67318
584.20 2.043385
584.30 2.231274
584.40 2.291669
584.50 2.168247
584.60 1.82322
584.70 1.699802
584.80 1.580558
584.90 1.738238
585.00 1.791366
585.10 1.580149
585.20 1.19697
585.30 1.246658
585.40 1.54103
585.50 1.659251
585.60 1.770421
585.70 1.514363
585.80 1.340552
585.90 1.520581
586.00 1.639098
586.10 1.189154
586.20 0.8172474
586.30 0.8583513
586.40 1.097469
586.50 1.138861
586.60 1.21262
586.70 1.131698
586.80 1.081145
586.90 1.380906
587.00 1.455345
587.10 1.217608
587.20 0.9860727
587.30 0.9651438
587.40 1.188959
587.50 1.132945
587.60 1.140041
587.70 1.17767
587.80 1.27317
587.90 1.123602
588.00 0.9992611
588.10 0.7484722
588.20 0.7410325
588.30 0.9401379
588.40 1.025953
588.50 0.9286195
588.60 0.5879828
588.70 0.5789528
588.80 0.9588313
588.90 1.555238
589.00 1.567011
589.10 0.7178855
589.20 0.869604
589.30 1.768543
589.40 1.833297
589.50 1.137217
589.60 0.6917532
589.70 0.4155736
589.80 0.6414441
589.90 0.9653826
590.00 1.011805
590.10 0.6732274
590.20 0.8399288
590.30 0.8305207
590.40 0.6364982
590.50 0.6579261
590.60 0.8172134
590.70 1.111642
590.80 1.149603
590.90 1.011985
591.00 0.7369091
591.10 0.9105445
591.20 1.120681
591.30 0.9563456
591.40 0.8916651
591.50 0.9087518
591.60 1.075241
591.70 0.9895351
591.80 0.9030799
591.90 1.078086
592.00 1.093569
592.10 1.050762
592.20 0.9100219
592.30 1.219663
592.40 1.294873
592.50 0.7674205
592.60 0.9575938
592.70 1.330237
592.80 1.109014
592.90 0.8446414
593.00 0.9398632
593.10 1.205384
593.20 1.213508
593.30 1.149372
593.40 1.050729
593.50 0.9113273
593.60 0.9303899
593.70 1.077868
593.80 1.002486
593.90 1.013857
594.00 1.138006
594.10 1.130011
594.20 0.9391565
594.30 1.139909
594.40 1.283885
594.50 1.32402
594.60 1.267189
594.70 1.387947
594.80 1.470398
594.90 1.526575
595.00 1.605673
595.10 1.287997
595.20 0.9578552
595.30 0.7947146
595.40 0.8633991
595.50 0.8136687
595.60 1.043739
595.70 1.586355
595.80 1.709485
595.90 1.365701
596.00 1.055513
596.10 1.064572
596.20 0.9405099
596.30 0.7065125
596.40 0.8339681
596.50 1.333584
596.60 1.399509
596.70 1.290196
596.80 1.276946
596.90 1.060437
597.00 0.9494223
597.10 0.8646297
597.20 0.8474262
597.30 0.7556168
597.40 0.7527346
597.50 1.064115
597.60 1.288402
597.70 1.332401
597.80 1.026047
597.90 0.9682067
598.00 1.084142
598.10 1.298049
598.20 1.346007
598.30 1.291544
598.40 1.178014
598.50 1.072152
598.60 1.182173
598.70 1.21078
598.80 1.277135
598.90 1.299404
599.00 1.185019
599.10 1.260383
599.20 1.371466
599.30 1.330052
599.40 1.085907
599.50 1.006489
599.60 1.216837
599.70 1.313204
599.80 1.14974
599.90 1.348512
600.00 1.557348
600.10 1.577664
600.20 1.421861
600.30 1.459596
600.40 1.604688
600.50 1.470322
600.60 1.317471
600.70 1.241823
600.80 1.456212
600.90 1.445519
601.00 1.177619
601.10 1.036279
601.20 1.214759
601.30 1.499967
601.40 1.425759
601.50 1.169381
601.60 1.304866
601.70 1.484984
601.80 1.660079
601.90 1.629971
602.00 1.453143
602.10 1.164388
602.20 1.148316
602.30 1.239785
602.40 1.388237
602.50 1.563708
602.60 1.572576
602.70 1.426517
602.80 1.288814
602.90 1.374811
603.00 1.355001
603.10 1.151304
603.20 1.221106
603.30 1.346187
603.40 1.643061
603.50 1.838379
603.60 1.691368
603.70 1.577531
603.80 1.400565
603.90 1.342562
604.00 1.393326
604.10 1.39781
604.20 1.502918
604.30 1.679559
604.40 1.782169
604.50 1.755625
604.60 1.652224
604.70 1.688603
604.80 1.990539
604.90 2.091354
605.00 1.88786
605.10 1.711795
605.20 1.774909
605.30 1.714876
605.40 1.580878
605.50 1.590489
605.60 1.696185
605.70 1.876316
605.80 1.908396
605.90 1.629921
606.00 1.568241
606.10 1.627381
606.20 1.717484
606.30 1.744351
606.40 1.756874
606.50 1.769555
606.60 1.632168
606.70 1.733852
606.80 2.000222
606.90 2.202005
607.00 2.15852
607.10 1.999839
607.20 1.910038
607.30 1.732171
607.40 1.758931
607.50 1.824354
607.60 1.843748
607.70 1.867414
607.80 1.823993
607.90 1.878019
608.00 1.699893
608.10 1.644974
608.20 1.6012
608.30 1.620602
608.40 1.89376
608.50 1.911872
608.60 1.830608
608.70 1.79317
608.80 1.906518
608.90 1.836345
609.00 1.50726
609.10 1.660982
609.20 1.870572
609.30 1.905324
609.40 1.84601
609.50 1.850475
609.60 1.793552
609.70 1.757427
609.80 1.950186
609.90 1.909184
610.00 1.711719
610.10 1.873121
610.20 1.98544
610.30 1.79422
610.40 1.479024
610.50 1.620386
610.60 1.888232
610.70 1.916933
610.80 1.729932
610.90 1.76393
611.00 1.724955
611.10 1.788493
611.20 1.903498
611.30 1.851647
611.40 1.717575
611.50 1.686761
611.60 1.61208
611.70 1.563971
611.80 1.547345
611.90 1.681958
612.00 1.894975
612.10 1.874741
612.20 1.714153
612.30 1.589623
612.40 1.618941
612.50 1.678029
612.60 1.461445
612.70 1.423477
612.80 1.45717
612.90 1.495245
613.00 1.757047
613.10 1.836901
613.20 1.507623
613.30 1.564666
613.40 1.804902
613.50 1.771833
613.60 1.56555
613.70 1.586499
613.80 1.700205
613.90 1.507212
614.00 1.423433
614.10 1.523364
614.20 1.451297
614.30 1.288006
614.40 1.449739
614.50 1.636499
614.60 1.707481
614.70 1.622912
614.80 1.669294
614.90 1.493199
615.00 1.409042
615.10 1.22816
615.20 1.005887
615.30 1.091675
615.40 1.263598
615.50 1.277211
615.60 1.161423
615.70 1.28128
615.80 1.47222
615.90 1.264216
616.00 1.141037
616.10 1.135292
616.20 1.063812
616.30 1.015469
616.40 1.060136
616.50 1.134675
616.60 0.9789433
616.70 0.8822836
616.80 0.9499268
616.90 0.9102768
617.00 0.92158
617.10 0.9763138
617.20 1.075963
617.30 1.068922
617.40 0.8917703
617.50 0.9757273
617.60 1.120779
617.70 0.9907854
617.80 0.7589867
617.90 0.9256788
618.00 0.9414787
618.10 0.7139403
618.20 0.4869087
618.30 0.6534861
618.40 1.228457
618.50 1.317855
618.60 1.112559
618.70 1.003629
618.80 0.8245765
618.90 0.6574899
619.00 0.6964138
619.10 0.7937784
619.20 0.7285029
619.30 0.8773895
619.40 0.8925578
619.50 0.8834661
619.60 0.8899036
619.70 1.092136
619.80 1.01737
619.90 0.7993312
620.00 0.7040457
620.10 0.821519
620.20 1.056282
620.30 1.001549
620.40 0.9309212
620.50 0.8695529
620.60 0.7869073
620.70 0.7842758
620.80 0.9476988
620.90 1.123983
621.00 1.066482
621.10 1.129142
621.20 1.151172
621.30 1.02149
621.40 0.9985235
621.50 1.030778
621.60 1.094082
621.70 0.9108182
621.80 0.6741821
621.90 0.7358867
622.00 0.8873844
622.10 0.9953233
622.20 1.057038
622.30 0.9377447
622.40 0.9431353
622.50 0.8478486
622.60 0.7608846
622.70 0.6089039
622.80 0.6622821
622.90 0.9337847
623.00 0.9779241
623.10 0.9706577
623.20 0.8529427
623.30 0.7716148
623.40 0.8855431
623.50 1.055545
623.60 0.9058946
623.70 0.9352701
623.80 0.8463642
623.90 0.4793985
624.00 0.7477385
624.10 1.190838
624.20 1.135826
624.30 0.5859369
624.40 0.5103855
624.50 0.9152738
624.60 1.000841
624.70 0.9297548
624.80 0.8238908
624.90 0.8270363
625.00 0.8584144
625.10 0.8057551
625.20 0.9704054
625.30 1.07763
625.40 1.14979
625.50 1.231112
625.60 1.13315
625.70 1.117859
625.80 1.066857
625.90 1.233364
626.00 1.196699
626.10 1.111447
626.20 1.116147
626.30 0.9716748
626.40 0.8667885
626.50 1.047297
626.60 1.132984
626.70 1.009502
626.80 0.8177097
626.90 0.8649467
627.00 1.046066
627.10 1.132717
627.20 0.9842307
627.30 1.07688
627.40 1.274882
627.50 1.316753
627.60 1.28402
627.70 1.356688
627.80 1.520216
627.90 1.373369
628.00 1.231689
628.10 1.140996
628.20 1.131583
628.30 1.16627
628.40 1.244768
628.50 1.266823
628.60 1.284534
628.70 1.169061
628.80 1.438566
628.90 1.487294
629.00 1.371722
629.10 1.387659
629.20 1.491156
629.30 1.711505
629.40 1.570413
629.50 1.401116
629.60 1.509587
629.70 2.052243
629.80 2.147189
629.90 1.994897
630.00 1.857057
630.10 1.375294
630.20 1.052574
630.30 0.8601385
630.40 1.786041
630.50 2.391241
630.60 2.119193
630.70 1.992362
630.80 1.864899
630.90 1.897579
631.00 1.866867
631.10 2.001551
631.20 2.172796
631.30 2.112261
631.40 2.085475
631.50 1.969017
631.60 1.906657
631.70 2.09559
631.80 2.171792
631.90 2.113831
632.00 2.110283
632.10 2.393738
632.20 2.285092
632.30 1.967685
632.40 2.022909
632.50 2.200127
632.60 2.247631
632.70 2.087271
632.80 2.059315
632.90 2.198419
633.00 2.40095
633.10 2.243636
633.20 2.033312
633.30 2.014714
633.40 2.235534
633.50 2.436333
633.60 2.454773
633.70 2.47398
633.80 2.486669
633.90 2.567809
634.00 2.567085
634.10 2.720494
634.20 2.809771
634.30 2.695295
634.40 2.547468
634.50 2.566581
634.60 2.743809
634.70 2.897539
634.80 2.947455
634.90 2.868198
635.00 2.930539
635.10 2.995381
635.20 2.816178
635.30 2.592979
635.40 2.649683
635.50 2.796035
635.60 2.679947
635.70 2.56217
635.80 2.479677
635.90 2.230967
636.00 2.191166
636.10 2.651728
636.20 3.168877
636.30 3.015678
636.40 2.372237
636.50 2.099926
636.60 2.186324
636.70 2.232453
636.80 2.415329
636.90 2.444511
637.00 2.433324
637.10 2.592454
637.20 2.769194
637.30 2.763638
637.40 2.570492
637.50 2.407012
637.60 2.515212
637.70 2.645353
637.80 2.648134
637.90 2.58096
638.00 2.536215
638.10 2.533196
638.20 2.228277
638.30 2.112185
638.40 2.293312
638.50 2.444168
638.60 2.444174
638.70 2.37584
638.80 2.370874
638.90 2.312367
639.00 2.330613
639.10 2.354265
639.20 2.479302
639.30 2.613513
639.40 2.750311
639.50 2.750211
639.60 2.693895
639.70 2.788587
639.80 2.959362
639.90 2.973073
640.00 2.953437
640.10 2.999815
640.20 2.919214
640.30 2.870358
640.40 2.994545
640.50 3.276734
640.60 3.449893
640.70 3.322121
640.80 3.157327
640.90 3.01528
641.00 2.988407
641.10 3.011798
641.20 2.980614
641.30 3.086319
641.40 3.189269
641.50 3.143457
641.60 2.987088
641.70 2.874728
641.80 2.93808
641.90 2.988627
642.00 2.93062
642.10 2.871908
642.20 2.827447
642.30 2.758201
642.40 2.746579
642.50 2.618444
642.60 2.563814
642.70 2.643072
642.80 2.836368
642.90 3.024516
643.00 2.946135
643.10 2.933051
643.20 2.944106
643.30 2.920458
643.40 2.855335
643.50 2.755376
643.60 2.810185
643.70 2.912413
643.80 3.020527
643.90 3.110706
644.00 3.001709
644.10 2.867121
644.20 2.848732
644.30 3.078951
644.40 3.240627
644.50 3.238719
644.60 3.238197
644.70 3.2104
644.80 3.259985
644.90 3.138377
645.00 2.985271
645.10 3.030657
645.20 3.166302
645.30 3.305401
645.40 3.299908
645.50 3.357991
645.60 3.236302
645.70 3.137306
645.80 3.149333
645.90 3.240975
646.00 3.355476
646.10 3.406722
646.20 3.341744
646.30 3.266624
646.40 3.397009
646.50 3.444296
646.60 3.3685
646.70 3.225385
646.80 3.360227
646.90 3.658099
647.00 3.831264
647.10 3.590997
647.20 3.483923
647.30 3.878502
647.40 4.23686
647.50 4.157171
647.60 3.771948
647.70 3.660128
647.80 3.710305
647.90 3.689496
648.00 3.449981
648.10 3.285029
648.20 3.263213
648.30 3.292451
648.40 3.310428
648.50 3.24502
648.60 3.088233
648.70 3.188665
648.80 3.370955
648.90 3.475871
649.00 3.509179
649.10 3.449357
649.20 3.468698
649.30 3.555604
649.40 3.585466
649.50 3.669555
649.60 3.866863
649.70 3.966929
649.80 3.848238
649.90 3.740045
650.00 3.92863
650.10 3.839774
650.20 3.857511
650.30 4.174947
650.40 4.506579
650.50 4.557086
650.60 4.400677
650.70 4.457965
650.80 4.606528
650.90 4.690202
651.00 4.726892
651.10 4.827607
651.20 4.872013
651.30 4.831262
651.40 4.681683
651.50 4.604534
651.60 4.647629
651.70 4.810135
651.80 4.884486
651.90 5.020028
652.00 5.139098
652.10 5.13097
652.20 5.287602
652.30 5.44904
652.40 5.412404
652.50 5.178066
652.60 5.20579
652.70 5.670363
652.80 6.03768
652.90 6.102482
653.00 6.106318
653.10 6.300482
653.20 6.365557
653.30 6.168755
653.40 5.913932
653.50 5.844867
653.60 6.185575
653.70 6.52304
653.80 6.753476
653.90 6.918899
654.00 6.928065
654.10 6.847416
654.20 6.922621
654.30 7.060932
654.40 6.87003
654.50 6.501821
654.60 6.18572
654.70 6.012135
654.80 5.94507
654.90 5.848968
655.00 5.688523
655.10 5.529052
655.20 5.484258
655.30 5.388243
655.40 5.261305
655.50 5.13062
655.60 5.201858
655.70 5.380556
655.80 5.549731
655.90 5.774424
656.00 5.998002
656.10 6.607889
656.20 8.844752
656.30 12.00146
656.40 13.8952
656.50 13.29197
656.60 10.70695
656.70 7.808385
656.80 5.781795
656.90 4.820776
657.00 4.562188
657.10 4.470593
657.20 4.54737
657.30 4.578118
657.40 4.529489
657.50 4.393459
657.60 4.369672
657.70 4.495857
657.80 4.607342
657.90 4.478021
658.00 4.050041
658.10 3.78475
658.20 3.804603
658.30 4.063453
658.40 4.232709
658.50 4.306207
658.60 4.402
658.70 4.535084
658.80 4.667889
658.90 4.570574
659.00 4.557647
659.10 4.665643
659.20 4.687125
659.30 4.706588
659.40 4.573407
659.50 4.340916
659.60 4.172365
659.70 4.202177
659.80 4.418815
659.90 4.370446
660.00 4.218883
660.10 4.234169
660.20 4.353874
660.30 4.425716
660.40 4.410212
660.50 4.357135
660.60 4.325314
660.70 4.276413
660.80 4.172237
660.90 4.123097
661.00 4.201284
661.10 4.240883
661.20 4.252852
661.30 4.354239
661.40 4.473646
661.50 4.57289
661.60 4.376291
661.70 4.234182
661.80 4.296297
661.90 4.299504
662.00 4.165391
662.10 3.943681
662.20 3.875133
662.30 3.8833
662.40 3.923868
662.50 3.836235
662.60 3.528017
662.70 3.305052
662.80 3.315116
662.90 3.410901
663.00 3.506441
663.10 3.666868
663.20 3.816739
663.30 3.879336
663.40 3.984256
663.50 4.028062
663.60 3.823405
663.70 3.449546
663.80 3.177394
663.90 3.220249
664.00 3.394685
664.10 3.55578
664.20 3.647737
664.30 3.669802
664.40 3.602838
664.50 3.643986
664.60 3.612919
664.70 3.587558
664.80 3.638686
664.90 3.697213
665.00 3.702404
665.10 3.460814
665.20 3.045366
665.30 2.68007
665.40 2.506046
665.50 2.681747
665.60 2.894686
665.70 2.88568
665.80 2.866262
665.90 2.848799
666.00 2.900963
666.10 2.819339
666.20 2.840969
666.30 3.039312
666.40 3.092788
666.50 3.152835
666.60 3.225793
666.70 3.268872
666.80 3.239344
666.90 3.316202
667.00 3.537065
667.10 3.581869
667.20 3.584779
667.30 3.421621
667.40 3.272499
667.50 3.291927
667.60 3.363603
667.70 3.459132
667.80 3.620228
667.90 3.736505
668.00 3.644005
668.10 3.382391
668.20 2.977361
668.30 2.59492
668.40 2.37337
668.50 2.340889
668.60 2.508989
668.70 2.566683
668.80 2.522094
668.90 2.655589
669.00 2.878612
669.10 2.832422
669.20 2.657636
669.30 2.57108
669.40 2.474598
669.50 2.505733
669.60 2.728183
669.70 2.924635
669.80 2.977963
669.90 2.895394
670.00 2.955266
670.10 3.03523
670.20 3.15242
670.30 3.20926
670.40 3.137801
670.50 3.104235
670.60 3.09405
670.70 3.14072
670.80 3.169842
670.90 3.100095
671.00 3.065313
671.10 3.166426
671.20 3.273116
671.30 3.217927
671.40 3.075129
671.50 2.916966
671.60 2.78255
671.70 2.59295
671.80 2.42337
671.90 2.405624
672.00 2.396582
672.10 2.454076
672.20 2.521894
672.30 2.529043
672.40 2.50259
672.50 2.504631
672.60 2.539724
672.70 2.593615
672.80 2.79779
672.90 2.971197
673.00 2.863046
673.10 2.699614
673.20 2.730658
673.30 2.945271
673.40 3.140905
673.50 3.072076
673.60 2.832619
673.70 2.605987
673.80 2.664128
673.90 2.955905
674.00 3.038452
674.10 2.972921
674.20 2.941389
674.30 3.026052
674.40 3.167627
674.50 3.280514
674.60 3.266907
674.70 3.112438
674.80 2.89777
674.90 2.735982
675.00 2.689616
675.10 2.731119
675.20 2.78555
675.30 2.813315
675.40 2.917832
675.50 3.086645
675.60 3.065306
675.70 3.028758
675.80 3.048373
675.90 2.926011
676.00 2.846105
676.10 2.909577
676.20 3.059899
676.30 3.204407
676.40 3.194586
676.50 3.293328
676.60 3.435869
676.70 3.414059
676.80 3.410229
676.90 3.449658
677.00 3.47269
677.10 3.517705
677.20 3.59257
677.30 3.629299
677.40 3.618044
677.50 3.62821
677.60 3.690373
677.70 3.799076
677.80 3.72789
677.90 3.738341
678.00 3.819243
678.10 3.798776
678.20 3.523171
678.30 2.985423
678.40 2.714748
678.50 2.744089
678.60 2.821522
678.70 2.836456
678.80 2.846722
678.90 2.932249
679.00 3.020979
679.10 3.102081
679.20 3.089913
679.30 2.984564
679.40 2.918514
679.50 2.967409
679.60 3.052006
679.70 3.085589
679.80 3.133558
679.90 3.202141
680.00 3.230468
680.10 3.165437
680.20 3.069881
680.30 3.112933
680.40 3.200636
680.50 3.280968
680.60 3.325731
680.70 3.366591
680.80 3.299124
680.90 3.16975
681.00 3.37158
681.10 3.542775
681.20 3.526031
681.30 3.518056
681.40 3.461733
681.50 3.383457
681.60 3.244718
681.70 3.172061
681.80 3.219598
681.90 3.284527
682.00 3.376962
682.10 3.323557
682.20 3.200341
682.30 3.29151
682.40 3.340612
682.50 3.292784
682.60 3.310653
682.70 3.476583
682.80 3.689049
682.90 3.679642
683.00 3.421979
683.10 3.227913
683.20 3.277324
683.30 3.432571
683.40 3.528725
683.50 3.573482
683.60 3.698589
683.70 3.688896
683.80 3.609873
683.90 3.669649
684.00 3.701072
684.10 3.687109
684.20 3.838357
684.30 3.953952
684.40 3.914709
684.50 3.88018
684.60 3.770263
684.70 3.741285
684.80 3.790607
684.90 3.730288
685.00 3.568447
685.10 3.440778
685.20 3.329735
685.30 3.175215
685.40 3.089367
685.50 3.114875
685.60 3.303443
685.70 3.420613
685.80 3.425813
685.90 3.388114
686.00 3.296781
686.10 3.400187
686.20 3.628863
686.30 3.754226
686.40 3.889149
686.50 3.904782
686.60 3.809661
686.70 3.724534
686.80 3.462141
686.90 3.508483
687.00 3.486898
687.10 3.327096
687.20 3.407053
687.30 3.653152
687.40 3.944415
687.50 4.145977
687.60 4.223038
687.70 4.15953
687.80 4.095628
687.90 4.012193
688.00 3.793714
688.10 3.783451
688.20 3.982297
688.30 4.003574
688.40 3.925758
688.50 3.812052
688.60 3.784803
688.70 3.898354
688.80 3.964674
688.90 3.965704
689.00 3.869827
689.10 3.716407
689.20 3.767129
689.30 4.049346
689.40 4.211227
689.50 4.121893
689.60 4.047855
689.70 4.136382
689.80 4.146866
689.90 4.136051
690.00 4.104766
690.10 3.975687
690.20 3.70814
690.30 3.571893
690.40 3.772275
690.50 3.990658
690.60 4.084901
690.70 4.290294
690.80 4.658854
690.90 4.834799
691.00 4.711639
691.10 4.566675
691.20 4.487857
691.30 4.676764
691.40 4.708889
691.50 4.671633
691.60 4.758255
691.70 4.68626
691.80 4.459407
691.90 3.990305
692.00 3.592674
692.10 3.554908
692.20 3.841597
692.30 4.356687
692.40 4.748029
692.50 4.71996
692.60 4.541066
692.70 4.696444
692.80 4.925971
692.90 5.00501
693.00 4.951348
693.10 4.952002
693.20 5.186335
693.30 5.429415
693.40 5.602185
693.50 5.676215
693.60 5.656163
693.70 5.643799
693.80 5.582196
693.90 5.479617
694.00 5.450031
694.10 5.56253
694.20 5.811524
694.30 6.096594
694.40 6.392481
694.50 6.72908
694.60 6.979183
694.70 7.208916
694.80 7.310156
694.90 7.194928
695.00 7.182764
695.10 7.156169
695.20 7.133947
695.30 6.994906
695.40 6.656448
695.50 6.405312
695.60 6.372019
695.70 6.559495
695.80 6.507232
695.90 6.316409
696.00 6.260688
696.10 6.346085
696.20 6.557508
696.30 6.665901
696.40 6.743587
696.50 6.896541
696.60 6.967756
696.70 6.981445
696.80 7.047838
696.90 7.102626
697.00 7.050572
697.10 6.93579
697.20 6.730127
697.30 6.579462
697.40 6.631275
697.50 6.753147
697.60 6.963219
697.70 7.335872
697.80 7.701918
697.90 7.883509
698.00 7.733496
698.10 7.496981
698.20 7.481059
698.30 7.658279
698.40 7.742978
698.50 7.687971
698.60 7.695381
698.70 7.838747
698.80 7.881572
698.90 7.763155
699.00 7.500461
699.10 7.415865
699.20 7.446912
699.30 7.371557
699.40 7.490533
699.50 7.655309
699.60 7.805697
699.70 7.906107
699.80 7.820849
699.90 7.627407
700.00 7.465051
700.10 7.58348
700.20 7.883852
700.30 8.069611
700.40 7.957975
700.50 7.678026
700.60 7.576046
700.70 7.804145
700.80 8.143488
700.90 8.366239
701.00 8.505689
701.10 8.535216
701.20 8.574857
701.30 8.60304
701.40 8.53255
701.50 8.679188
701.60 8.996787
701.70 9.140194
701.80 9.108806
701.90 9.08886
702.00 9.296324
702.10 9.594914
702.20 9.581378
702.30 9.360572
702.40 9.148463
702.50 8.874464
702.60 8.823399
702.70 8.922679
702.80 9.424869
702.90 10.19926
703.00 10.64065
703.10 10.82196
703.20 10.79372
703.30 10.64162
703.40 10.63823
703.50 10.87697
703.60 11.34452
703.70 11.80689
703.80 12.03886
703.90 12.09071
704.00 12.02789
704.10 12.10758
704.20 12.21899
704.30 12.36377
704.40 12.56941
704.50 12.73776
704.60 12.89723
704.70 12.96684
704.80 12.96532
704.90 12.91345
705.00 12.93961
705.10 13.17196
705.20 13.25608
705.30 12.82521
705.40 11.63395
705.50 9.62341
705.60 7.292807
705.70 5.422574
705.80 4.431929
705.90 4.33717
706.00 4.529036
706.10 4.364599
706.20 4.117405
706.30 3.994329
706.40 4.004896
706.50 4.124413
706.60 4.343571
706.70 4.648934
706.80 4.893541
706.90 4.906698
707.00 4.948662
707.10 5.102421
707.20 5.258394
707.30 5.41173
707.40 5.451761
707.50 5.409875
707.60 5.341883
707.70 5.286078
707.80 5.386585
707.90 5.603412
708.00 5.619097
708.10 5.422825
708.20 5.542708
708.30 5.889724
708.40 6.120904
708.50 6.185081
708.60 6.081035
708.70 5.76336
708.80 5.221735
708.90 4.590714
709.00 3.889554
709.10 3.370377
709.20 3.241359
709.30 3.296503
709.40 3.328325
709.50 3.311617
709.60 3.295682
709.70 3.307098
709.80 3.382434
709.90 3.527366
710.00 3.598766
710.10 3.590182
710.20 3.636271
710.30 3.674701
710.40 3.751516
710.50 3.855754
710.60 3.947024
710.70 4.032309
710.80 4.134854
710.90 4.309533
711.00 4.536847
711.10 4.76709
711.20 4.85435
711.30 4.76818
711.40 4.687075
711.50 4.746551
711.60 4.779656
711.70 4.698095
711.80 4.757001
711.90 4.950787
712.00 5.208973
712.10 5.418679
712.20 5.449034
712.30 5.48327
712.40 5.439415
712.50 5.054772
712.60 4.379519
712.70 3.62346
712.80 3.041153
712.90 2.818874
713.00 2.785341
713.10 2.855835
713.20 2.941697
713.30 2.914557
713.40 2.864509
713.50 2.892243
713.60 3.031958
713.70 3.130933
713.80 2.996223
713.90 2.906208
714.00 2.973902
714.10 3.091536
714.20 3.247458
714.30 3.38176
714.40 3.427995
714.50 3.438724
714.60 3.456034
714.70 3.523009
714.80 3.702882
714.90 3.716446
715.00 3.567095
715.10 3.556936
715.20 3.689703
715.30 3.76969
715.40 3.847533
715.50 3.992712
715.60 4.208859
715.70 4.356693
715.80 4.25693
715.90 4.012663
716.00 3.876877
716.10 3.845237
716.20 3.741384
716.30 3.602245
716.40 3.548218
716.50 3.661299
716.60 3.843786
716.70 3.924318
716.80 3.931761
716.90 3.88952
717.00 3.905642
717.10 4.079954
717.20 4.170652
717.30 4.18502
717.40 4.156979
717.50 4.076741
717.60 4.104657
717.70 4.202976
717.80 4.373053
717.90 4.468006
718.00 4.575413
718.10 4.810875
718.20 4.89255
718.30 4.898611
718.40 4.937146
718.50 5.057031
718.60 5.217311
718.70 5.249229
718.80 5.279643
718.90 5.396892
719.00 5.504285
719.10 5.632437
719.20 5.664809
719.30 5.598598
719.40 5.604724
719.50 5.635614
719.60 5.608443
719.70 5.371473
719.80 5.072027
719.90 4.832408
720.00 4.580463
720.10 4.396474
720.20 4.474297
720.30 4.681239
720.40 4.731521
720.50 4.670193
720.60 4.616826
720.70 4.716644
720.80 4.802605
720.90 4.756432
721.00 4.712378
721.10 4.865845
721.20 5.078168
721.30 5.175
721.40 5.231555
721.50 5.256007
721.60 5.326203
721.70 5.379632
721.80 5.380997
721.90 5.403633
722.00 5.389596
722.10 5.432874
722.20 5.593307
722.30 5.752557
722.40 5.889847
722.50 6.007215
722.60 6.1282
722.70 6.285638
722.80 6.458634
722.90 6.579905
723.00 6.534958
723.10 6.316006
723.20 6.186401
723.30 6.200443
723.40 6.220031
723.50 6.367464
723.60 6.585082
723.70 6.760222
723.80 6.942986
723.90 6.976981
724.00 6.987083
724.10 7.180989
724.20 7.094503
724.30 7.038096
724.40 7.091529
724.50 7.202042
724.60 7.553693
724.70 7.898627
724.80 8.154906
724.90 8.099926
725.00 8.103688
725.10 8.49965
725.20 8.80454
725.30 8.725983
725.40 8.491694
725.50 8.477148
725.60 8.713961
725.70 8.960636
725.80 9.123559
725.90 9.139056
726.00 9.013038
726.10 9.008441
726.20 9.289259
726.30 9.695598
726.40 9.99987
726.50 10.19957
726.60 10.31662
726.70 10.33581
726.80 10.34867
726.90 10.29666
727.00 10.07599
727.10 9.681231
727.20 9.127609
727.30 8.693648
727.40 8.660123
727.50 9.257906
727.60 10.14061
727.70 10.69442
727.80 10.78099
727.90 10.283
728.00 10.08337
728.10 10.37204
728.20 10.38667
728.30 10.25867
728.40 10.23651
728.50 10.44831
728.60 10.93108
728.70 11.07272
728.80 10.99455
728.90 11.25933
729.00 11.43975
729.10 11.4373
729.20 11.43257
729.30 11.5327
729.40 11.77959
729.50 12.0427
729.60 12.36747
729.70 12.80839
729.80 13.07862
729.90 12.91124
730.00 12.62247
730.10 12.7709
730.20 13.20199
730.30 13.49822
730.40 13.78197
730.50 13.98296
730.60 13.86459
730.70 13.91177
730.80 14.34223
730.90 14.74585
731.00 14.90209
731.10 14.80605
731.20 14.63717
731.30 14.61567
731.40 14.72017
731.50 14.94669
731.60 15.33993
731.70 15.60842
731.80 15.52996
731.90 15.47126
732.00 16.00228
732.10 16.524
732.20 16.51336
732.30 16.41772
732.40 16.44694
732.50 16.50393
732.60 16.41517
732.70 16.18872
732.80 16.27766
732.90 16.69499
733.00 16.89618
733.10 16.9045
733.20 16.93581
733.30 16.93571
733.40 16.93565
733.50 17.05296
733.60 17.42626
733.70 17.96121
733.80 18.40741
733.90 18.73927
734.00 18.6925
734.10 18.87166
734.20 19.30609
734.30 18.83344
734.40 18.24335
734.50 17.84402
734.60 17.23356
734.70 16.92867
734.80 16.955
734.90 17.32088
735.00 17.82006
735.10 18.13909
735.20 18.37574
735.30 18.58441
735.40 18.64509
735.50 18.371
735.60 17.85055
735.70 17.42488
735.80 17.54839
735.90 18.0971
736.00 18.51689
736.10 18.67886
736.20 18.73597
736.30 18.99401
736.40 19.47898
736.50 19.91803
736.60 20.14893
736.70 20.17968
736.80 20.44082
736.90 20.82261
737.00 21.06993
737.10 21.27663
737.20 21.2163
737.30 20.90976
737.40 20.41165
737.50 19.73886
737.60 19.3239
737.70 19.39809
737.80 19.7434
737.90 20.15339
738.00 20.34171
738.10 20.2819
738.20 20.19386
738.30 20.32754
738.40 20.56662
738.50 20.64196
738.60 20.65366
738.70 20.70726
738.80 20.91962
738.90 21.42209
739.00 21.92228
739.10 22.20758
739.20 22.09703
739.30 21.51325
739.40 20.69896
739.50 20.0021
739.60 19.62418
739.70 19.6266
739.80 20.00728
739.90 20.4929
740.00 20.82393
740.10 21.13564
740.20 21.46968
740.30 21.70768
740.40 21.55648
740.50 20.77526
740.60 19.78499
740.70 19.35513
740.80 19.37119
740.90 19.4589
741.00 19.8776
741.10 20.51589
741.20 20.90853
741.30 20.93164
741.40 20.92378
741.50 21.20017
741.60 21.51577
741.70 21.31934
741.80 20.44071
741.90 19.5437
742.00 19.03499
742.10 19.03253
742.20 19.47369
742.30 19.88511
742.40 20.16392
742.50 20.56324
742.60 20.91166
742.70 21.10791
742.80 21.12554
742.90 21.04156
743.00 21.16986
743.10 21.38369
743.20 21.46696
743.30 21.57269
743.40 21.57422
743.50 20.89029
743.60 19.8033
743.70 19.10637
743.80 19.22135
743.90 20.18005
744.00 21.20004
744.10 21.35203
744.20 20.84305
744.30 20.42737
744.40 20.1439
744.50 19.87517
744.60 19.64894
744.70 19.52153
744.80 19.4542
744.90 19.44055
745.00 19.60399
745.10 19.8961
745.20 20.36718
745.30 20.80096
745.40 20.83851
745.50 20.58218
745.60 20.32126
745.70 20.14618
745.80 20.04555
745.90 19.98425
746.00 19.96074
746.10 20.09108
746.20 20.3547
746.30 20.7261
746.40 21.08041
746.50 21.14511
746.60 21.08488
746.70 21.03933
746.80 20.94958
746.90 20.92734
747.00 21.1362
747.10 21.59087
747.20 21.95712
747.30 21.92083
747.40 21.22073
747.50 20.39276
747.60 20.27472
747.70 20.67958
747.80 21.16786
747.90 21.54371
748.00 21.60052
748.10 21.36724
748.20 21.30211
748.30 21.47478
748.40 21.86706
748.50 22.35865
748.60 22.37027
748.70 21.98729
748.80 21.64476
748.90 21.59625
749.00 21.76737
749.10 21.98548
749.20 22.13096
749.30 21.9744
749.40 21.53131
749.50 21.07044
749.60 20.90057
749.70 21.1428
749.80 21.71254
749.90 22.39882
750.00 23.00587
750.10 23.34587
750.20 23.35948
750.30 23.26525
750.40 23.22609
750.50 23.04533
750.60 22.58848
750.70 22.19757
750.80 22.16282
750.90 22.56762
751.00 23.3282
751.10 23.96458
751.20 24.23051
751.30 24.10635
751.40 23.67024
751.50 23.3209
751.60 23.24275
751.70 23.5316
751.80 23.84634
751.90 23.65876
752.00 23.25826
752.10 23.11587
752.20 23.08292
752.30 23.22579
752.40 23.60974
752.50 23.78322
752.60 23.92628
752.70 23.78413
752.80 22.90593
752.90 22.285
753.00 22.3744
753.10 23.14251
753.20 24.15609
753.30 24.4829
753.40 24.21191
753.50 23.92729
753.60 23.72915
753.70 23.83091
753.80 24.41964
753.90 25.22615
754.00 26.02188
754.10 26.43238
754.20 26.35254
754.30 26.21624
754.40 26.22025
754.50 26.36786
754.60 26.47301
754.70 26.28975
754.80 25.90642
754.90 25.52846
755.00 25.28351
755.10 25.32676
755.20 25.80948
755.30 26.28004
755.40 26.35887
755.50 26.15132
755.60 25.96791
755.70 26.04329
755.80 26.15793
755.90 26.3331
756.00 26.61913
756.10 26.75993
756.20 26.74518
756.30 26.62543
756.40 26.38534
756.50 26.04793
756.60 25.72679
756.70 25.36908
756.80 24.87584
756.90 24.38233
757.00 24.22247
757.10 24.77928
757.20 26.03156
757.30 27.26309
757.40 27.64759
757.50 27.42297
757.60 27.25127
757.70 26.9556
757.80 26.25477
757.90 25.66257
758.00 25.73307
758.10 26.586
758.20 27.82778
758.30 28.77308
758.40 29.14045
758.50 28.9608
758.60 28.36222
758.70 27.54408
758.80 26.04105
758.90 23.25198
759.00 19.70919
759.10 16.51881
759.20 14.40662
759.30 13.67378
759.40 13.99135
759.50 14.7562
759.60 15.3734
759.70 15.43731
759.80 15.40006
759.90 15.85251
760.00 16.51413
760.10 16.4989
760.20 15.76589
760.30 15.21454
760.40 15.46727
760.50 16.15404
760.60 16.52655
760.70 16.51254
760.80 16.50153
760.90 16.55104
761.00 16.65589
761.10 16.7358
761.20 16.87325
761.30 17.31315
761.40 18.14893
761.50 19.05966
761.60 19.3822
761.70 19.35881
761.80 19.45579
761.90 19.60364
762.00 19.95817
762.10 20.07279
762.20 19.52613
762.30 19.14009
762.40 19.17257
762.50 19.15251
762.60 18.77478
762.70 17.57706
762.80 15.84591
762.90 14.22234
763.00 12.71748
763.10 11.59004
763.20 11.28571
763.30 11.52726
763.40 12.04546
763.50 12.4541
763.60 12.4253
763.70 12.33703
763.80 12.37921
763.90 12.43525
764.00 12.50385
764.10 12.23184
764.20 11.83622
764.30 11.92089
764.40 12.18898
764.50 12.29913
764.60 11.96001
764.70 11.39724
764.80 11.45824
764.90 11.78569
765.00 11.70385
765.10 11.38249
765.20 11.015
765.30 10.92941
765.40 10.98933
765.50 10.48834
765.60 9.666701
765.70 9.23229
765.80 9.166217
765.90 9.037413
766.00 8.440797
766.10 7.549288
766.20 6.709917
766.30 5.900472
766.40 5.234975
766.50 4.697524
766.60 4.19051
766.70 3.992619
766.80 4.073815
766.90 4.324887
767.00 4.893386
767.10 5.570119
767.20 6.030424
767.30 6.155933
767.40 6.225953
767.50 6.431975
767.60 6.804885
767.70 7.277747
767.80 7.559235
767.90 7.716875
768.00 7.911461
768.10 8.046895
768.20 8.10253
768.30 8.196808
768.40 8.4189
768.50 8.672378
768.60 8.821565
768.70 8.857586
768.80 8.897388
768.90 8.927064
769.00 8.883796
769.10 8.844898
769.20 8.747415
769.30 8.560142
769.40 8.235755
769.50 7.72895
769.60 7.225669
769.70 6.611111
769.80 5.783918
769.90 4.943509
770.00 4.296249
770.10 4.095214
770.20 4.352283
770.30 4.92028
770.40 5.741613
770.50 6.547865
770.60 7.106488
770.70 7.477352
770.80 7.642409
770.90 7.89566
771.00 8.458653
771.10 8.861767
771.20 9.063122
771.30 9.342558
771.40 9.657137
771.50 9.937409
771.60 10.03605
771.70 10.19923
771.80 10.53096
771.90 10.38706
772.00 10.31278
772.10 10.81862
772.20 11.3508
772.30 11.61778
772.40 11.53044
772.50 11.61419
772.60 12.01135
772.70 12.42105
772.80 12.77865
772.90 13.05361
773.00 13.15964
773.10 13.13812
773.20 13.18688
773.30 13.32524
773.40 13.59382
773.50 13.9085
773.60 14.02049
773.70 14.07484
773.80 14.32076
773.90 14.59244
774.00 14.72989
774.10 14.75811
774.20 14.71273
774.30 14.45455
774.40 13.79723
774.50 13.00241
774.60 12.4479
774.70 12.12476
774.80 11.85818
774.90 11.65973
775.00 11.35405
775.10 10.90849
775.20 10.59276
775.30 10.14422
775.40 9.966531
775.50 10.49326
775.60 11.06434
775.70 11.32
775.80 11.34355
775.90 11.39582
776.00 11.5091
776.10 11.69227
776.20 11.97009
776.30 11.99121
776.40 11.71896
776.50 11.53752
776.60 11.61628
776.70 11.89613
776.80 12.38047
776.90 12.87434
777.00 13.03919
777.10 12.9747
777.20 12.97268
777.30 13.14264
777.40 13.45231
777.50 13.64572
777.60 13.62258
777.70 13.61472
777.80 13.55467
777.90 13.46309
778.00 13.54772
778.10 13.63429
778.20 13.564
778.30 13.29
778.40 12.75957
778.50 12.27844
778.60 12.05245
778.70 12.00974
778.80 12.06534
778.90 12.15194
779.00 12.38888
779.10 12.69192
779.20 12.77142
779.30 12.67839
779.40 12.9715
779.50 13.66047
779.60 14.07516
779.70 14.1161
779.80 13.77371
779.90 13.00626
780.00 12.06699
780.10 11.30623
780.20 11.21409
780.30 11.90321
780.40 13.13132
780.50 14.59872
780.60 15.85779
780.70 16.63725
780.80 16.94517
780.90 16.81761
781.00 16.49981
781.10 16.23993
781.20 15.94669
781.30 15.99619
781.40 16.67807
781.50 17.39011
781.60 17.77144
781.70 17.88699
781.80 17.86068
781.90 17.79518
782.00 17.58469
782.10 17.29386
782.20 16.51602
782.30 15.25866
782.40 14.75533
782.50 15.13274
782.60 15.84545
782.70 16.29385
782.80 15.77946
782.90 14.8186
783.00 13.93704
783.10 13.29251
783.20 13.10317
783.30 13.39471
783.40 13.95216
783.50 14.45653
783.60 14.77829
783.70 14.94129
783.80 15.05019
783.90 15.20705
784.00 15.32047
784.10 15.37371
784.20 15.43108
784.30 15.39957
784.40 15.43868
784.50 15.72391
784.60 16.20646
784.70 16.71024
784.80 16.86829
784.90 16.65645
785.00 16.33091
785.10 16.03268
785.20 15.99156
785.30 16.35462
785.40 16.74097
785.50 16.79663
785.60 16.87018
785.70 16.9495
785.80 16.99641
785.90 17.28599
786.00 17.32706
786.10 17.01956
786.20 16.87311
786.30 16.67406
786.40 16.1629
786.50 15.86868
786.60 15.89886
786.70 15.85311
786.80 15.89509
786.90 15.99353
787.00 16.1427
787.10 16.34178
787.20 16.21004
787.30 15.75636
787.40 15.37834
787.50 15.45849
787.60 15.97574
787.70 16.60404
787.80 17.23629
787.90 18.00325
788.00 18.47539
788.10 18.43097
788.20 18.20574
788.30 18.02243
788.40 18.35363
788.50 18.85037
788.60 18.98924
788.70 18.98429
788.80 18.8712
788.90 18.94357
789.00 19.28677
789.10 19.50039
789.20 19.54845
789.30 19.56469
789.40 19.70031
789.50 19.95076
789.60 19.91423
789.70 19.40024
789.80 18.76053
789.90 18.20588
790.00 17.61549
790.10 17.11152
790.20 16.94848
790.30 17.18279
790.40 17.8498
790.50 18.58689
790.60 19.02407
790.70 19.14674
790.80 18.75927
790.90 17.7009
791.00 16.45764
791.10 15.51487
791.20 14.85421
791.30 14.98769
791.40 15.98151
791.50 16.98362
791.60 17.55298
791.70 17.43182
791.80 16.86466
791.90 16.40476
792.00 16.06102
792.10 16.00397
792.20 16.49195
792.30 17.04021
792.40 17.08671
792.50 16.92778
792.60 17.08696
792.70 17.37752
792.80 17.50879
792.90 17.51216
793.00 17.5269
793.10 17.88449
793.20 18.60367
793.30 19.32871
793.40 19.83819
793.50 19.98145
793.60 19.92739
793.70 19.96995
793.80 20.06803
793.90 20.03102
794.00 19.5165
794.10 18.49361
794.20 17.50603
794.30 17.03568
794.40 17.31919
794.50 17.97367
794.60 18.19972
794.70 17.69468
794.80 16.73914
794.90 15.793
795.00 15.54708
795.10 16.3523
795.20 17.63371
795.30 18.96148
795.40 20.04324
795.50 20.49163
795.60 20.58145
795.70 20.64658
795.80 20.77166
795.90 20.7564
796.00 20.33769
796.10 19.72581
796.20 19.09049
796.30 18.57688
796.40 18.61296
796.50 19.26025
796.60 20.12592
796.70 20.87729
796.80 21.21254
796.90 21.23463
797.00 21.41334
797.10 21.85544
797.20 22.39544
797.30 22.70589
797.40 22.46003
797.50 21.77392
797.60 20.983
797.70 20.42383
797.80 20.14866
797.90 20.0642
798.00 20.15139
798.10 20.30645
798.20 20.38853
798.30 20.29405
798.40 20.00484
798.50 19.67731
798.60 19.42319
798.70 19.1559
798.80 18.82751
798.90 18.69018
799.00 19.05182
799.10 19.79038
799.20 20.55653
799.30 21.15758
799.40 21.39606
799.50 21.08714
799.60 20.56934
799.70 20.50087
799.80 20.70912
799.90 20.76464
800.00 20.84188
800.10 21.05995
800.20 21.3597
800.30 21.63631
800.40 21.86174
800.50 22.10317
800.60 22.29352
800.70 22.42744
800.80 22.6501
800.90 23.01295
801.00 23.29933
801.10 23.33458
801.20 23.31904
801.30 23.4306
801.40 23.66296
801.50 23.94032
801.60 24.14974
801.70 24.41332
801.80 24.75882
801.90 24.99033
802.00 25.16803
802.10 25.26544
802.20 25.16941
802.30 25.02147
802.40 25.02394
802.50 25.3947
802.60 26.08018
802.70 26.70754
802.80 26.90119
802.90 26.68318
803.00 26.66798
803.10 27.01877
803.20 27.33371
803.30 27.47237
803.40 27.43209
803.50 27.36796
803.60 27.37685
803.70 27.40186
803.80 27.50723
803.90 27.57883
804.00 27.4214
804.10 27.24068
804.20 27.32981
804.30 27.5924
804.40 27.99933
804.50 28.53793
804.60 28.81156
804.70 28.74757
804.80 28.51469
804.90 28.08646
805.00 28.11271
805.10 29.05667
805.20 30.2294
805.30 31.26021
805.40 32.07173
805.50 32.31013
805.60 32.19459
805.70 32.07895
805.80 31.91973
805.90 31.87943
806.00 32.15143
806.10 32.56127
806.20 32.88491
806.30 32.90794
806.40 32.59217
806.50 32.2719
806.60 32.02229
806.70 32.09165
806.80 32.67151
806.90 33.00181
807.00 32.85121
807.10 32.62197
807.20 32.46529
807.30 32.76166
807.40 33.62117
807.50 34.47567
807.60 34.86845
807.70 34.99759
807.80 35.13286
807.90 35.34932
808.00 35.62278
808.10 35.87159
808.20 36.16515
808.30 36.46622
808.40 36.7044
808.50 36.99696
808.60 37.33242
808.70 37.42927
808.80 37.16719
808.90 36.7831
809.00 36.52832
809.10 36.60205
809.20 36.95835
809.30 37.40007
809.40 37.8185
809.50 37.97966
809.60 37.75645
809.70 37.3178
809.80 36.87913
809.90 36.67491
810.00 36.77482
810.10 36.95149
810.20 37.15008
810.30 37.38162
810.40 37.42152
810.50 37.24556
810.60 37.21255
810.70 37.56468
810.80 38.24281
810.90 39.00883
811.00 39.51398
811.10 39.6058
811.20 39.47955
811.30 39.53373
811.40 39.98869
811.50 40.34849
811.60 40.10873
811.70 39.4597
811.80 38.84425
811.90 38.8917
812.00 39.84479
812.10 41.091
812.20 41.93273
812.30 42.13603
812.40 41.91552
812.50 41.67178
812.60 41.70981
812.70 42.10713
812.80 42.66722
812.90 43.08421
813.00 43.21693
813.10 43.09206
813.20 42.80842
813.30 42.71022
813.40 42.93436
813.50 43.19095
813.60 43.39412
813.70 43.53731
813.80 43.74574
813.90 44.43454
814.00 45.33293
814.10 45.44368
814.20 44.52864
814.30 43.27499
814.40 42.2209
814.50 41.67601
814.60 41.83525
814.70 42.33593
814.80 42.60423
814.90 42.5171
815.00 42.10183
815.10 41.69388
815.20 41.99019
815.30 42.86883
815.40 43.59024
815.50 43.6771
815.60 43.25879
815.70 42.94173
815.80 42.98652
815.90 43.18565
816.00 43.13523
816.10 42.76181
816.20 42.44819
816.30 42.46687
816.40 42.95264
816.50 43.73352
816.60 44.38474
816.70 44.6806
816.80 44.79169
816.90 45.16843
817.00 45.65918
817.10 45.79005
817.20 45.6707
817.30 45.48628
817.40 45.19992
817.50 44.84262
817.60 44.61585
817.70 44.40203
817.80 43.75945
817.90 42.74645
818.00 41.39202
818.10 39.26809
818.20 36.2205
818.30 31.97484
818.40 27.24199
818.50 24.48565
818.60 25.07126
818.70 28.34463
818.80 32.64182
818.90 36.04432
819.00 37.71093
819.10 37.99186
819.20 37.16903
819.30 35.04476
819.40 31.39584
819.50 26.64976
819.60 22.61959
819.70 21.15239
819.80 22.6784
819.90 25.97103
820.00 29.25254
820.10 32.01354
820.20 34.26017
820.30 36.12072
820.40 37.80605
820.50 38.67281
820.60 38.24362
820.70 36.99531
820.80 35.67704
820.90 35.08261
821.00 35.56902
821.10 36.6886
821.20 37.84973
821.30 38.61991
821.40 38.7753
821.50 38.39959
821.60 37.94236
821.70 37.84583
821.80 38.1162
821.90 38.61628
822.00 39.17648
822.10 39.6973
822.20 40.23835
822.30 40.7087
822.40 41.06265
822.50 41.45091
822.60 41.90566
822.70 42.28001
822.80 42.43912
822.90 42.49525
823.00 42.84316
823.10 43.69154
823.20 44.5687
823.30 44.67511
823.40 43.83455
823.50 42.69144
823.60 42.03921
823.70 42.20268
823.80 43.00722
823.90 44.07669
824.00 45.08724
824.10 45.85136
824.20 46.23262
824.30 46.08602
824.40 45.37388
824.50 44.52683
824.60 44.19938
824.70 44.74313
824.80 46.12095
824.90 47.46861
825.00 47.73731
825.10 46.9145
825.20 45.48519
825.30 43.90996
825.40 42.70358
825.50 41.95765
825.60 41.43937
825.70 41.01899
825.80 40.79226
825.90 40.99718
826.00 41.68467
826.10 42.77287
826.20 43.94319
826.30 44.76668
826.40 45.24801
826.50 45.44403
826.60 45.43429
826.70 45.67193
826.80 46.08872
826.90 46.13442
827.00 45.61706
827.10 44.46247
827.20 42.89887
827.30 41.54558
827.40 40.67003
827.50 40.23137
827.60 40.23989
827.70 40.65625
827.80 41.42955
827.90 42.2068
828.00 42.48593
828.10 42.32701
828.20 41.66711
828.30 40.58489
828.40 39.7439
828.50 39.18034
828.60 38.92925
828.70 39.267
828.80 39.77947
828.90 39.76974
829.00 38.91761
829.10 37.49276
829.20 36.17783
829.30 35.77047
829.40 36.3841
829.50 37.24459
829.60 37.71844
829.70 37.91528
829.80 38.29456
829.90 38.55432
830.00 38.52475
830.10 37.68891
830.20 36.85307
830.30 35.96036
830.40 35.06765
830.50 34.65173
830.60 34.2358
830.70 34.56187
830.80 34.88794
830.90 35.79274
831.00 36.69754
831.10 37.04661
831.20 37.39569
831.30 37.32743
831.40 37.25917
831.50 37.02542
831.60 36.79167
831.70 37.39058
831.80 37.9895
831.90 38.59659
832.00 39.20368
832.10 39.37027
832.20 39.53686
832.30 40.00657
832.40 40.47627
832.50 40.66736
832.60 40.85844
832.70 39.70253
832.80 38.54663
832.90 37.62158
833.00 36.69654
833.10 38.23063
833.20 39.76473
833.30 40.4325
833.40 41.10028
833.50 39.77926
833.60 38.45823
833.70 37.78446
833.80 37.1107
833.90 37.56881
834.00 38.02692
834.10 38.63166
834.20 39.2364
834.30 39.87837
834.40 40.52034
834.50 40.11931
834.60 39.71828
834.70 38.49279
834.80 37.26729
834.90 37.4519
835.00 37.63651
835.10 38.18928
835.20 38.74206
835.30 38.73548
835.40 38.7289
835.50 38.64649
835.60 38.56408
835.70 38.50872
835.80 38.45336
835.90 39.21508
836.00 39.9768
836.10 40.25195
836.20 40.5271
836.30 39.85846
836.40 39.18982
836.50 38.64211
836.60 38.09441
836.70 38.65698
836.80 39.21955
836.90 40.46398
837.00 41.7084
837.10 42.66702
837.20 43.62564
837.30 41.98345
837.40 40.34127
837.50 38.73094
837.60 37.12061
837.70 36.75735
837.80 36.39408
837.90 36.96008
838.00 37.52608
838.10 38.03973
838.20 38.55339
838.30 38.52763
838.40 38.50187
838.50 37.88019
838.60 37.25851
838.70 36.22628
838.80 35.19405
838.90 34.17444
839.00 33.15484
839.10 34.02839
839.20 34.90194
839.30 35.77715
839.40 36.65236
839.50 36.62136
839.60 36.59037
839.70 36.59912
839.80 36.60787
839.90 37.00925
840.00 37.41064
840.10 38.66954
840.20 39.06512
840.30 39.43298
840.40 39.73866
840.50 39.97103
840.60 40.21082
840.70 40.44995
840.80 40.80212
840.90 41.0767
841.00 40.93407
841.10 40.57794
841.20 39.77751
841.30 39.0939
841.40 38.73987
841.50 39.67092
841.60 40.80642
841.70 41.5951
841.80 41.85432
841.90 41.37572
842.00 41.19671
842.10 40.47949
842.20 39.02759
842.30 37.94797
842.40 38.45505
842.50 39.17978
842.60 39.28674
842.70 38.95743
842.80 38.35916
842.90 37.53342
843.00 37.10169
843.10 37.63145
843.20 38.14882
843.30 37.04958
843.40 35.20197
843.50 32.33754
843.60 28.80912
843.70 25.86299
843.80 25.48478
843.90 25.64994
844.00 27.57078
844.10 29.63768
844.20 30.20277
844.30 29.55497
844.40 28.37062
844.50 26.4746
844.60 24.65993
844.70 24.10502
844.80 23.65273
844.90 23.95344
845.00 24.83408
845.10 25.25428
845.20 24.59906
845.30 23.91182
845.40 22.33267
845.50 20.29119
845.60 19.27041
845.70 19.19778
845.80 19.27554
845.90 19.37237
846.00 19.46825
846.10 19.82212
846.20 20.25709
846.30 20.77509
846.40 21.14477
846.50 21.07974
846.60 20.76887
846.70 20.7241
846.80 20.50869
846.90 19.64427
847.00 19.26616
847.10 20.10254
847.20 20.7863
847.30 20.5385
847.40 20.25193
847.50 20.2934
847.60 20.44788
847.70 20.96366
847.80 21.89177
847.90 22.49759
848.00 22.35382
848.10 22.27195
848.20 22.24636
848.30 22.21886
848.40 22.34172
848.50 22.64895
848.60 23.04465
848.70 23.47518
848.80 23.78233
848.90 24.07359
849.00 24.48496
849.10 25.21676
849.20 25.83902
849.30 26.352
849.40 26.69353
849.50 26.86736
849.60 26.00314
849.70 24.86233
849.80 23.86745
849.90 23.24768
850.00 23.14685
850.10 23.20006
850.20 23.11758
850.30 23.76514
850.40 24.83567
850.50 24.94506
850.60 24.07684
850.70 23.01312
850.80 22.38434
850.90 22.04963
851.00 22.34713
851.10 22.56494
851.20 23.18205
851.30 23.84593
851.40 23.87945
851.50 23.64085
851.60 23.38373
851.70 22.88908
851.80 22.5074
851.90 22.1202
852.00 21.40411
852.10 21.01446
852.20 21.08091
852.30 21.14942
852.40 21.38091
852.50 21.58125
852.60 22.28818
852.70 23.21115
852.80 23.91151
852.90 24.57229
853.00 25.06755
853.10 25.15659
853.20 25.22462
853.30 25.47865
853.40 25.70134
853.50 25.84803
853.60 26.32332
853.70 26.69487
853.80 26.48261
853.90 26.19473
854.00 26.1711
854.10 26.36879
854.20 26.29055
854.30 26.2267
854.40 26.25754
854.50 26.18144
854.60 26.20439
854.70 26.87628
854.80 27.85139
854.90 28.5303
855.00 28.83219
855.10 29.2245
855.20 29.81592
855.30 30.37618
855.40 30.61932
855.50 30.72788
855.60 30.79805
855.70 31.29753
855.80 31.64224
855.90 31.00722
856.00 30.09485
856.10 29.15673
856.20 28.43933
856.30 28.42952
856.40 28.56401
856.50 29.04656
856.60 29.78578
856.70 30.46639
856.80 30.94438
856.90 31.44988
857.00 31.4166
857.10 31.38058
857.20 31.10522
857.30 30.53547
857.40 30.10248
857.50 30.13161
857.60 30.03648
857.70 30.18033
857.80 30.59904
857.90 31.22582
858.00 31.92161
858.10 32.22223
858.20 31.49804
858.30 30.79787
858.40 30.73929
858.50 31.01988
858.60 31.34421
858.70 31.32093
858.80 31.37701
858.90 31.48611
859.00 31.6542
859.10 31.65005
859.20 31.73378
859.30 31.71011
859.40 31.59676
859.50 31.65007
859.60 32.1841
859.70 32.53372
859.80 32.8049
859.90 33.22793
860.00 33.44073
860.10 33.33445
860.20 33.36183
860.30 33.33433
860.40 33.09131
860.50 33.27406
860.60 34.16059
860.70 35.12842
860.80 35.32742
860.90 35.44619
861.00 35.32633
861.10 35.0369
861.20 34.50674
861.30 33.93196
861.40 33.29635
861.50 32.61738
861.60 32.24213
861.70 31.94978
861.80 31.46389
861.90 31.27371
862.00 31.34345
862.10 31.81571
862.20 32.11936
862.30 32.4596
862.40 32.72555
862.50 32.65819
862.60 31.65707
862.70 30.87332
862.80 31.07089
862.90 31.24045
863.00 30.94604
863.10 30.7454
863.20 30.6568
863.30 30.92998
863.40 31.14044
863.50 31.57927
863.60 32.21083
863.70 32.40678
863.80 32.17866
863.90 32.03852
864.00 32.00345
864.10 32.02815
864.20 32.15504
864.30 32.58453
864.40 33.25501
864.50 33.71455
864.60 33.74021
864.70 33.07991
864.80 32.86085
864.90 32.76156
865.00 32.26803
865.10 32.26567
865.20 33.13372
865.30 33.92746
865.40 34.34544
865.50 34.68858
865.60 35.18154
865.70 35.62594
865.80 35.64292
865.90 35.48467
866.00 35.16025
866.10 34.46297
866.20 33.66584
866.30 32.89434
866.40 32.31082
866.50 32.81918
866.60 33.83119
866.70 35.03
866.80 35.8702
866.90 36.42987
867.00 36.29782
867.10 35.86202
867.20 35.15755
867.30 35.02296
867.40 35.48043
867.50 36.01999
867.60 36.22501
867.70 36.18113
867.80 36.14307
867.90 36.35832
868.00 36.97291
868.10 37.22801
868.20 37.51364
868.30 37.69281
868.40 36.96548
868.50 35.93591
868.60 35.92442
868.70 36.74753
868.80 36.77292
868.90 35.7747
869.00 34.63593
869.10 33.49468
869.20 32.68693
869.30 32.07916
869.40 31.41927
869.50 30.69135
869.60 29.60028
869.70 28.88004
869.80 29.55136
869.90 30.32103
870.00 30.69199
870.10 30.70033
870.20 30.88968
870.30 31.34688
870.40 31.85213
870.50 32.43562
870.60 33.11315
870.70 33.92629
870.80 34.59115
870.90 34.14377
871.00 33.53819
871.10 32.83592
871.20 32.04949
871.30 31.21852
871.40 31.04143
871.50 31.36614
871.60 31.80473
871.70 31.68097
871.80 31.26346
871.90 30.8121
872.00 30.64026
872.10 31.07995
872.20 31.56089
872.30 31.87539
872.40 32.29023
872.50 32.65946
872.60 32.73638
872.70 33.00392
872.80 34.47092
872.90 36.0619
873.00 37.07077
873.10 37.64932
873.20 37.27639
873.30 36.36107
873.40 35.5074
873.50 34.83706
873.60 34.20074
873.70 34.17621
873.80 34.56616
873.90 34.95254
874.00 34.83147
874.10 34.93504
874.20 35.82245
874.30 36.70227
874.40 37.6952
874.50 38.66367
874.60 39.49591
874.70 40.08767
874.80 39.99953
874.90 38.59608
875.00 37.33589
875.10 36.67861
875.20 36.15607
875.30 36.98058
875.40 38.22138
875.50 39.22052
875.60 39.97356
875.70 40.69193
875.80 40.66859
875.90 40.14893
876.00 40.42149
876.10 41.38391
876.20 42.17179
876.30 42.25772
876.40 42.00999
876.50 40.81695
876.60 39.51666
876.70 38.75164
876.80 38.03184
876.90 37.7226
877.00 38.26072
877.10 39.27944
877.20 41.23828
877.30 43.17721
877.40 44.59925
877.50 45.64036
877.60 46.66555
877.70 47.91127
877.80 48.66852
877.90 46.92545
878.00 44.86906
878.10 43.05954
878.20 41.57132
878.30 41.59393
878.40 42.44618
878.50 43.15784
878.60 43.76688
878.70 44.23971
878.80 44.03425
878.90 43.76852
879.00 43.81804
879.10 44.38424
879.20 45.11861
879.30 46.01557
879.40 46.64577
879.50 46.52405
879.60 46.15764
879.70 46.76236
879.80 47.91798
879.90 48.87296
880.00 49.02363
880.10 48.61078
880.20 45.8013
880.30 42.77135
880.40 40.90586
880.50 39.57356
880.60 39.17885
880.70 40.25927
880.80 41.18622
880.90 41.58334
881.00 42.16421
881.10 43.57088
881.20 44.76355
881.30 46.52426
881.40 48.37677
881.50 50.16262
881.60 51.31546
881.70 52.24637
881.80 52.48967
881.90 52.77075
882.00 53.10756
882.10 53.17978
882.20 52.68201
882.30 50.53058
882.40 48.23344
882.50 46.07738
882.60 44.15957
882.70 43.75378
882.80 44.08235
882.90 44.59986
883.00 45.76908
883.10 47.07574
883.20 48.56531
883.30 50.24143
883.40 51.1878
883.50 51.6343
883.60 51.84688
883.70 52.04299
883.80 52.23004
883.90 52.57045
884.00 52.59312
884.10 52.48477
884.20 53.00278
884.30 53.55158
884.40 53.54815
884.50 53.1011
884.60 51.49912
884.70 49.93001
884.80 48.4569
884.90 47.24702
885.00 46.57294
885.10 46.43975
885.20 46.63576
885.30 49.57547
885.40 52.77466
885.50 54.83081
885.60 56.63134
885.70 56.59322
885.80 54.46175
885.90 51.94749
886.00 48.56257
886.10 44.93099
886.20 41.32005
886.30 37.80341
886.40 36.34317
886.50 36.8113
886.60 37.83028
886.70 40.58328
886.80 42.84226
886.90 42.35875
887.00 41.36054
887.10 39.11022
887.20 35.92072
887.30 32.80747
887.40 31.68591
887.50 31.00296
887.60 31.91884
887.70 32.93879
887.80 34.58678
887.90 36.6176
888.00 38.48201
888.10 39.86836
888.20 41.04403
888.30 40.66048
888.40 40.0823
888.50 38.92569
888.60 37.49458
888.70 36.71018
888.80 36.84162
888.90 37.44643
889.00 39.21282
889.10 40.5087
889.20 40.85137
889.30 41.36346
889.40 41.53417
889.50 41.25565
889.60 40.77095
889.70 39.34355
889.80 37.59956
889.90 36.9085
890.00 36.74641
890.10 37.89797
890.20 40.36563
890.30 42.58569
890.40 43.79576
890.50 44.74996
890.60 45.39855
890.70 46.21488
890.80 46.17086
890.90 45.80396
891.00 45.30912
891.10 44.44375
891.20 43.23435
891.30 42.46309
891.40 42.03104
891.50 42.90952
891.60 44.57232
891.70 45.99213
891.80 46.1126
891.90 46.13121
892.00 46.62732
892.10 47.41561
892.20 47.74663
892.30 47.65479
892.40 47.17651
892.50 46.07972
892.60 45.08762
892.70 44.68165
892.80 44.21801
892.90 44.10487
893.00 44.50986
893.10 45.34032
893.20 47.01948
893.30 48.67483
893.40 50.20285
893.50 51.70765
893.60 52.09832
893.70 51.9976
893.80 50.43233
893.90 47.32929
894.00 44.32255
894.10 42.75006
894.20 41.41818
894.30 41.68665
894.40 42.38773
894.50 42.39021
894.60 41.72915
894.70 41.45556
894.80 42.8549
894.90 44.19584
895.00 45.0737
895.10 45.85214
895.20 45.83706
895.30 45.4522
895.40 44.81161
895.50 44.45871
895.60 44.38884
895.70 45.63412
895.80 47.019
895.90 47.6836
896.00 48.01806
896.10 48.08645
896.20 47.41902
896.30 46.76752
896.40 46.63047
896.50 46.90692
896.60 47.13696
896.70 46.84076
896.80 46.3006
896.90 45.69498
897.00 45.20845
897.10 46.04407
897.20 47.18519
897.30 47.84061
897.40 47.90402
897.50 48.17736
897.60 49.07572
897.70 50.16637
897.80 51.36064
897.90 52.53617
898.00 52.17387
898.10 50.82363
898.20 49.47834
898.30 48.60637
898.40 48.36668
898.50 50.22082
898.60 51.83897
898.70 53.17746
898.80 54.76026
898.90 55.28845
899.00 54.77973
899.10 54.01805
899.20 53.28564
899.30 52.37775
899.40 51.85661
899.50 51.40285
899.60 50.84366
899.70 50.63164
899.80 50.40654
899.90 49.75582
900.00 48.83316
900.10 47.91561
900.20 47.18778
900.30 48.70468
900.40 50.9953
900.50 52.9202
900.60 54.65019
900.70 56.15687
900.80 56.1006
900.90 56.20795
901.00 55.49187
901.10 53.95535
901.20 53.11495
901.30 53.70692
901.40 54.5797
901.50 54.96933
901.60 55.12449
901.70 54.7653
901.80 54.35352
901.90 53.46812
902.00 52.59973
902.10 51.72452
902.20 50.70203
902.30 49.63055
902.40 48.69587
902.50 47.64633
902.60 46.72421
902.70 46.1837
902.80 45.82836
902.90 45.7708
903.00 45.87279
903.10 46.92304
903.20 48.30347
903.30 49.42547
903.40 50.39203
903.50 51.62356
903.60 52.84487
903.70 53.85926
903.80 54.60663
903.90 55.47197
904.00 56.25448
904.10 57.16433
904.20 57.33251
904.30 56.42704
904.40 55.43601
904.50 54.68971
904.60 54.15252
904.70 54.874
904.80 56.09913
904.90 57.16564
905.00 58.14467
905.10 58.857
905.20 57.54072
905.30 56.28674
905.40 55.40188
905.50 54.73038
905.60 54.32926
905.70 53.78266
905.80 53.17795
905.90 52.919
906.00 52.72272
906.10 52.73903
906.20 52.84203
906.30 53.63494
906.40 54.84405
906.50 55.77217
906.60 55.01133
906.70 54.0354
906.80 53.14245
906.90 52.52854
907.00 51.97389
907.10 51.27511
907.20 51.13285
907.30 52.15016
907.40 53.29506
907.50 53.88705
907.60 54.30362
907.70 54.86757
907.80 55.06592
907.90 55.72299
908.00 57.62726
908.10 59.64661
908.20 60.36175
908.30 60.64731
908.40 59.57756
908.50 58.07341
908.60 57.45651
908.70 57.85483
908.80 58.19596
908.90 57.86873
909.00 57.18133
909.10 56.59557
909.20 56.43598
909.30 56.82023
909.40 57.70193
909.50 58.52773
909.60 59.15415
909.70 59.77165
909.80 60.03737
909.90 60.0349
910.00 60.2045
910.10 60.90079
910.20 61.31078
910.30 60.93883
910.40 60.55632
910.50 59.94711
910.60 59.09997
910.70 57.98579
910.80 57.37324
910.90 57.29437
911.00 58.32145
911.10 59.24515
911.20 60.18826
911.30 61.1969
911.40 62.00497
911.50 62.87864
911.60 63.11793
911.70 62.22875
911.80 61.19264
911.90 60.82736
912.00 60.74777
912.10 61.19713
912.20 61.92927
912.30 62.48376
912.40 62.42766
912.50 62.26836
912.60 61.96696
912.70 61.76661
912.80 61.97866
912.90 62.36271
913.00 62.8528
913.10 63.1649
913.20 63.32048
913.30 63.98436
913.40 64.84394
913.50 65.41335
913.60 65.5798
913.70 64.79355
913.80 63.79686
913.90 62.53838
914.00 60.98843
914.10 59.60673
914.20 58.77316
914.30 57.83769
914.40 58.51927
914.50 59.67845
914.60 60.97375
914.70 62.34791
914.80 63.41849
914.90 62.70117
915.00 61.94599
915.10 61.07134
915.20 59.96688
915.30 59.91592
915.40 61.35617
915.50 63.18516
915.60 65.71772
915.70 67.82096
915.80 68.62049
915.90 69.62941
916.00 69.3179
916.10 68.1977
916.20 67.0858
916.30 65.52796
916.40 63.93645
916.50 63.71967
916.60 63.96208
916.70 64.9982
916.80 66.14852
916.90 66.88611
917.00 67.12644
917.10 67.59627
917.20 67.6388
917.30 67.31349
917.40 66.44926
917.50 65.49916
917.60 64.70522
917.70 64.43168
917.80 64.32522
917.90 64.61048
918.00 64.85749
918.10 65.15519
918.20 65.74089
918.30 66.23075
918.40 66.43794
918.50 66.43037
918.60 65.52527
918.70 64.75402
918.80 65.32171
918.90 65.61064
919.00 67.05961
919.10 70.1366
919.20 72.68118
919.30 71.94378
919.40 71.1694
919.50 69.20878
919.60 66.57138
919.70 65.83923
919.80 66.51168
919.90 67.39159
920.00 68.68629
920.10 69.86651
920.20 69.42728
920.30 68.52175
920.40 68.36642
920.50 68.87176
920.60 68.85634
920.70 68.31766
920.80 67.64844
920.90 65.17076
921.00 62.27076
921.10 60.55199
921.20 59.90768
921.30 60.25444
921.40 60.85726
921.50 61.34751
921.60 61.63653
921.70 62.15465
921.80 62.69637
921.90 63.39453
922.00 63.03956
922.10 62.29972
922.20 61.88427
922.30 61.6767
922.40 61.21428
922.50 60.49427
922.60 59.86293
922.70 60.07593
922.80 60.78936
922.90 61.62472
923.00 61.97933
923.10 61.80749
923.20 59.94238
923.30 57.86278
923.40 56.47987
923.50 56.27671
923.60 56.70691
923.70 57.43852
923.80 57.88983
923.90 57.7879
924.00 57.61798
924.10 57.61664
924.20 57.70206
924.30 58.94994
924.40 61.16383
924.50 62.79934
924.60 62.44618
924.70 61.94972
924.80 60.71829
924.90 58.87549
925.00 57.68165
925.10 57.4805
925.20 57.50102
925.30 57.41336
925.40 57.29299
925.50 57.69807
925.60 58.32497
925.70 60.06023
925.80 62.2635
925.90 64.12287
926.00 64.16316
926.10 64.00001
926.20 63.00241
926.30 62.08476
926.40 61.46791
926.50 61.0189
926.60 61.23254
926.70 62.96062
926.80 64.74944
926.90 65.45342
927.00 65.83892
927.10 65.55016
927.20 64.98238
927.30 64.15758
927.40 62.98024
927.50 61.67912
927.60 60.29015
927.70 59.12204
927.80 58.10589
927.90 56.83683
928.00 56.00058
928.10 56.18394
928.20 56.66378
928.30 57.46629
928.40 58.43662
928.50 59.72084
928.60 61.09968
928.70 61.37845
928.80 60.46649
928.90 59.44192
929.00 59.16499
929.10 58.92302
929.20 58.40607
929.30 57.71955
929.40 57.60325
929.50 57.78911
929.60 58.03159
929.70 58.70796
929.80 59.32719
929.90 58.72303
930.00 57.95573
930.10 56.90237
930.20 55.12053
930.30 54.07789
930.40 54.54917
930.50 55.21002
930.60 55.61704
930.70 55.98217
930.80 55.98442
930.90 55.83277
931.00 56.11143
931.10 56.75964
931.20 57.81556
931.30 59.14416
931.40 60.33651
931.50 60.61592
931.60 60.80492
931.70 59.77627
931.80 58.90402
931.90 58.27373
932.00 58.17764
932.10 58.88447
932.20 59.40308
932.30 59.37906
932.40 59.35834
932.50 59.20823
932.60 58.49456
932.70 57.98846
932.80 57.75663
932.90 57.86496
933.00 57.92361
933.10 58.23981
933.20 58.51144
933.30 58.76959
933.40 59.05047
933.50 59.38505
933.60 59.31217
933.70 59.06382
933.80 59.01661
933.90 59.56688
934.00 60.15254
934.10 60.3658
934.20 60.09474
934.30 59.56913
934.40 59.4743
934.50 59.83303
934.60 59.78325
934.70 59.74726
934.80 60.38685
934.90 61.1233
935.00 61.25284
935.10 60.47812
935.20 59.70598
935.30 59.17724
935.40 58.9008
935.50 58.66906
935.60 58.5974
935.70 58.58138
935.80 58.55362
935.90 59.28716
936.00 60.03471
936.10 61.05716
936.20 62.17829
936.30 63.23188
936.40 63.29913
936.50 62.78483
936.60 62.26615
936.70 62.14435
936.80 62.05955
936.90 61.84371
937.00 61.06428
937.10 60.28353
937.20 59.63454
937.30 59.3915
937.40 59.27488
937.50 59.14439
937.60 59.15369
937.70 59.18679
937.80 59.25949
937.90 59.32767
938.00 59.46287
938.10 59.52327
938.20 59.54991
938.30 59.46647
938.40 59.47134
938.50 59.62186
938.60 59.76384
938.70 59.9249
938.80 60.07617
938.90 60.43911
939.00 60.80169
939.10 61.2809
939.20 61.66621
939.30 62.00707
939.40 62.08806
939.50 62.1103
939.60 61.94686
939.70 60.9953
939.80 59.99222
939.90 59.35312
940.00 59.59421
940.10 59.87355
940.20 60.26391
940.30 60.51668
940.40 60.67734
940.50 61.11413
940.60 61.65802
940.70 62.41525
940.80 63.31066
940.90 64.20142
941.00 64.83852
941.10 65.04317
941.20 65.10812
941.30 64.58409
941.40 63.91272
941.50 63.19157
941.60 62.22905
941.70 61.23025
941.80 60.6804
941.90 60.65413
942.00 60.60756
942.10 60.74899
942.20 61.20767
942.30 61.6725
942.40 61.72515
942.50 61.68189
942.60 61.70174
942.70 61.38035
942.80 61.05964
942.90 61.14161
943.00 62.11023
943.10 63.20777
943.20 64.3095
943.30 65.30208
943.40 66.07345
943.50 66.03771
943.60 65.9335
943.70 65.71745
943.80 65.23815
943.90 64.75215
944.00 63.94221
944.10 63.01404
944.20 62.15131
944.30 61.90509
944.40 61.78658
944.50 61.51301
944.60 61.57614
944.70 61.63636
944.80 61.92561
944.90 62.08394
945.00 62.2565
945.10 62.74469
945.20 63.27249
945.30 63.75164
945.40 63.50144
945.50 63.18889
945.60 62.97073
945.70 63.15392
945.80 63.30628
945.90 62.94111
946.00 62.34127
946.10 61.88022
946.20 62.32998
946.30 63.04026
946.40 64.06983
946.50 64.58026
946.60 65.1055
946.70 65.01863
946.80 64.99176
946.90 65.00112
947.00 65.35734
947.10 65.77262
947.20 66.13829
947.30 66.11317
947.40 66.07938
947.50 66.18554
947.60 66.62421
947.70 67.06133
947.80 67.21075
947.90 67.12921
948.00 67.09419
948.10 67.60106
948.20 68.15566
948.30 68.52528
948.40 68.98125
948.50 69.43638
948.60 69.7471
948.70 69.47445
948.80 69.15068
948.90 69.11509
949.00 69.25719
949.10 69.53281
949.20 69.81485
949.30 70.10225
949.40 69.95923
949.50 69.13003
949.60 68.29736
949.70 67.61915
949.80 67.42251
949.90 67.47251
950.00 68.05278
950.10 68.57838
950.20 69.02919
950.30 69.6019
950.40 70.18371
950.50 70.04455
950.60 69.36148
950.70 68.75169
950.80 68.60908
950.90 68.67024
951.00 68.83836
951.10 68.9394
951.20 69.0326
951.30 68.99784
951.40 68.67026
951.50 68.33773
951.60 67.90579
951.70 67.53351
951.80 67.15302
951.90 66.76376
952.00 66.39316
952.10 66.13603
952.20 66.54146
952.30 66.94343
952.40 67.8101
952.50 69.00723
952.60 70.1886
952.70 71.01562
952.80 71.64263
952.90 72.07231
953.00 71.78101
953.10 71.4147
953.20 71.03908
953.30 70.69179
953.40 70.34181
953.50 69.66303
953.60 68.68442
953.70 67.69916
953.80 67.51026
953.90 67.57433
954.00 67.83204
954.10 67.57617
954.20 67.31138
954.30 67.01202
954.40 66.92671
954.50 66.75379
954.60 66.62357
954.70 66.67505
954.80 66.91661
954.90 67.11428
955.00 67.25282
955.10 67.57865
955.20 67.86358
955.30 68.12021
955.40 68.34789
955.50 68.69703
955.60 69.08316
955.70 69.90129
955.80 70.82948
955.90 71.71375
956.00 72.21232
956.10 72.7141
956.20 72.63
956.30 71.84066
956.40 70.97064
956.50 70.41654
956.60 70.05254
956.70 70.00086
956.80 70.72277
956.90 71.52753
957.00 71.95471
957.10 72.16304
957.20 72.39764
957.30 72.37725
957.40 71.94242
957.50 71.35217
957.60 70.59036
957.70 69.77616
957.80 69.00378
957.90 68.42469
958.00 67.84235
958.10 68.03838
958.20 68.74623
958.30 69.37168
958.40 69.70523
958.50 69.9843
958.60 70.2426
958.70 69.85394
958.80 69.42244
958.90 68.50447
959.00 67.02253
959.10 65.58863
959.20 65.21461
959.30 65.64352
959.40 66.23045
959.50 66.89092
959.60 67.54869
959.70 67.47158
959.80 65.94021
959.90 64.41964
960.00 63.08708
960.10 62.08303
960.20 61.42483
960.30 62.29199
960.40 63.61575
960.50 65.22947
960.60 66.67278
960.70 68.10823
960.80 68.89604
960.90 69.25585
961.00 69.54086
961.10 69.44077
961.20 69.24943
961.30 69.00291
961.40 68.58423
961.50 68.08822
961.60 67.56703
961.70 67.36972
961.80 67.21378
961.90 68.06096
962.00 69.52823
962.10 70.90038
962.20 71.48483
962.30 71.75416
962.40 71.74446
962.50 71.23221
962.60 70.69876
962.70 70.55641
962.80 70.6282
962.90 70.65585
963.00 70.66336
963.10 70.64064
963.20 70.52627
963.30 69.63297
963.40 68.69285
963.50 67.61707
963.60 66.39745
963.70 65.07511
963.80 62.37406
963.90 59.06581
964.00 56.22784
964.10 55.77579
964.20 56.03058
964.30 57.52135
964.40 60.36414
964.50 63.21801
964.60 64.50043
964.70 64.86182
964.80 65.12907
964.90 65.05561
965.00 64.94272
965.10 65.09857
965.20 65.46533
965.30 65.8027
965.40 66.21061
965.50 66.64466
965.60 67.05282
965.70 67.55344
965.80 68.38846
965.90 69.23731
966.00 69.99541
966.10 70.7077
966.20 71.4618
966.30 71.89741
966.40 72.33298
966.50 72.33102
966.60 71.98268
966.70 71.54689
966.80 71.12443
966.90 70.80998
967.00 70.73779
967.10 70.84994
967.20 70.96643
967.30 70.55952
967.40 69.80038
967.50 68.92659
967.60 67.00411
967.70 64.55927
967.80 62.698
967.90 62.96599
968.00 63.62389
968.10 65.08609
968.20 67.60642
968.30 70.0965
968.40 70.89489
968.50 70.47277
968.60 69.96454
968.70 69.04526
968.80 68.02386
968.90 66.80375
969.00 66.24203
969.10 65.71078
969.20 66.25096
969.30 67.55318
969.40 68.91014
969.50 70.36549
969.60 71.70199
969.70 72.74772
969.80 72.92866
969.90 73.01962
970.00 73.10932
970.10 73.43032
970.20 73.72836
970.30 73.44022
970.40 72.75617
970.50 71.71098
970.60 69.53665
970.70 67.04878
970.80 65.18457
970.90 65.18624
971.00 65.17796
971.10 66.83094
971.20 69.48366
971.30 71.98758
971.40 73.69766
971.50 75.10228
971.60 76.24445
971.70 76.47747
971.80 76.64259
971.90 76.36832
972.00 75.52182
972.10 74.68042
972.20 73.91356
972.30 73.1585
972.40 72.59001
972.50 72.63974
972.60 72.84808
972.70 72.60299
972.80 71.49588
972.90 70.4055
973.00 68.73223
973.10 66.75529
973.20 65.24968
973.30 65.84164
973.40 67.15522
973.50 68.44314
973.60 69.40465
973.70 70.31549
973.80 70.59694
973.90 70.5923
974.00 70.59372
974.10 70.41911
974.20 70.03623
974.30 69.3536
974.40 67.78448
974.50 66.06241
974.60 64.78119
974.70 64.78014
974.80 64.82643
974.90 65.84818
975.00 67.02585
975.10 68.02377
975.20 68.61482
975.30 69.1616
975.40 69.69882
975.50 70.6285
975.60 71.55698
975.70 72.02475
975.80 72.0118
975.90 72.09029
976.00 72.40561
976.10 72.66662
976.20 72.66198
976.30 72.20113
976.40 71.69041
976.50 71.66028
976.60 72.57973
976.70 73.46405
976.80 73.80155
976.90 73.77637
977.00 73.45145
977.10 71.76366
977.20 69.68845
977.30 68.10918
977.40 68.43868
977.50 68.73598
977.60 69.93454
977.70 71.41791
977.80 72.75386
977.90 73.17607
978.00 73.22729
978.10 72.85539
978.20 71.7018
978.30 70.49866
978.40 68.50948
978.50 66.1095
978.60 63.93304
978.70 63.43044
978.80 63.56346
978.90 63.87203
979.00 64.6029
979.10 65.38808
979.20 66.71939
979.30 69.17445
979.40 71.6083
979.50 73.22228
979.60 74.05545
979.70 74.59047
979.80 74.57362
979.90 74.52836
980.00 74.68502
980.10 74.87007
980.20 75.05598
980.30 75.13178
980.40 75.14693
980.50 75.14913
980.60 74.96228
980.70 74.64751
980.80 74.33323
980.90 74.31586
981.00 74.35425
981.10 74.63647
981.20 75.37826
981.30 76.0863
981.40 75.8619
981.50 74.74485
981.60 73.5203
981.70 72.53621
981.80 71.69228
981.90 71.31103
982.00 72.19065
982.10 73.06989
982.20 73.40229
982.30 73.22097
982.40 73.07034
982.50 73.07949
982.60 73.15643
982.70 73.31888
982.80 73.61624
982.90 73.92547
983.00 73.80669
983.10 73.21077
983.20 72.64324
983.30 72.45906
983.40 72.5492
983.50 72.59713
983.60 72.26284
983.70 71.83
983.80 71.44357
983.90 71.667
984.00 71.91512
984.10 72.52258
984.20 73.09228
984.30 73.59325
984.40 73.56648
984.50 73.34328
984.60 73.12265
984.70 73.69721
984.80 74.30012
984.90 74.66483
985.00 74.47533
985.10 74.19048
985.20 73.48789
985.30 72.66903
985.40 72.06868
985.50 72.40726
985.60 72.8725
985.70 73.49338
985.80 73.95093
985.90 74.36733
986.00 74.40793
986.10 74.35279
986.20 74.31725
986.30 74.324
986.40 74.3342
986.50 74.52863
986.60 75.08025
986.70 75.6226
986.80 75.29446
986.90 74.23931
987.00 73.2097
987.10 72.46083
987.20 71.83671
987.30 71.70725
987.40 73.21009
987.50 74.84359
987.60 76.00241
987.70 76.49778
987.80 76.87769
987.90 76.18747
988.00 74.86427
988.10 73.62237
988.20 73.29103
988.30 73.14313
988.40 73.53049
988.50 74.96265
988.60 76.37681
988.70 77.19248
988.80 77.35371
988.90 77.3904
989.00 76.8804
989.10 76.20735
989.20 75.48135
989.30 74.70677
989.40 73.94267
989.50 72.50997
989.60 70.54926
989.70 68.32701
989.80 65.16378
989.90 61.75425
990.00 59.02022
990.10 57.91113
990.20 56.94751
990.30 55.85655
990.40 54.39994
990.50 52.86696
990.60 50.61168
990.70 47.95645
990.80 45.5491
990.90 44.66048
991.00 44.12528
991.10 44.20899
991.20 45.03787
991.30 45.82812
991.40 45.55958
991.50 44.3824
991.60 43.20948
991.70 42.50199
991.80 41.99307
991.90 42.13514
992.00 43.98846
992.10 45.89848
992.20 46.99659
992.30 47.05898
992.40 46.918
992.50 45.86717
992.60 44.54242
992.70 43.81716
992.80 44.89178
992.90 46.15567
993.00 47.85322
993.10 50.18304
993.20 52.39917
993.30 53.05876
993.40 52.66602
993.50 52.16489
993.60 51.74271
993.70 51.32246
993.80 51.7664
993.90 54.51229
994.00 57.24072
994.10 59.28003
994.20 60.43218
994.30 61.28849
994.40 61.01832
994.50 60.43418
994.60 59.94612
994.70 59.89649
994.80 59.85092
994.90 60.42092
995.00 61.44387
995.10 62.44535
995.20 63.40903
995.30 64.42543
995.40 65.3954
995.50 65.91505
995.60 66.38047
995.70 65.88904
995.80 64.00961
995.90 62.18921
996.00 61.13126
996.10 60.52898
996.20 60.16552
996.30 60.98652
996.40 62.12433
996.50 63.66409
996.60 66.11506
996.70 68.561
996.80 68.98816
996.90 67.50748
997.00 65.63269
997.10 62.39814
997.20 58.79279
997.30 55.74682
997.40 54.61861
997.50 53.56674
997.60 53.81827
997.70 55.29369
997.80 56.78786
997.90 58.30354
998.00 59.79309
998.10 61.21437
998.20 62.07121
998.30 62.84706
998.40 62.53959
998.50 60.81654
998.60 59.13013
998.70 58.14032
998.80 57.73971
998.90 57.56153
999.00 57.54645
999.10 57.46532
999.20 57.23581
999.30 57.07488
999.40 56.90254
999.50 57.31015
999.60 58.24648
999.70 59.01166
999.80 58.82658
999.90 58.16837
1000.00 58.01263
1000.10 59.88625
1000.20 61.9225
1000.30 63.93289
1000.40 65.69719
1000.50 67.34429
1000.60 67.97931
1000.70 68.23241
1000.80 68.14103
1000.90 66.58
1001.00 64.76396
1001.10 62.9564
1001.20 61.24604
1001.30 59.63268
1001.40 59.9642
1001.50 61.50759
1001.60 63.13499
1001.70 64.91732
1001.80 66.70549
1001.90 67.95983
1002.00 67.53991
1002.10 67.20961
1002.20 66.53905
1002.30 65.73611
1002.40 65.17629
1002.50 65.9498
1002.60 67.24857
1002.70 68.3612
1002.80 68.00644
1002.90 67.52692
1003.00 66.65614
1003.10 66.1504
1003.20 65.68068
1003.30 65.12029
1003.40 64.33794
1003.50 63.46161
1003.60 62.36568
1003.70 61.25069
1003.80 60.4457
1003.90 60.38466
1004.00 60.40039
1004.10 61.76214
1004.20 63.7457
1004.30 65.72956
1004.40 67.48545
1004.50 69.25499
1004.60 70.42069
1004.70 70.28207
1004.80 70.18938
1004.90 69.07232
1005.00 67.01472
1005.10 64.81381
1005.20 62.01198
1005.30 59.02979
1005.40 56.29351
1005.50 54.70816
1005.60 53.13683
1005.70 52.73491
1005.80 53.76856
1005.90 54.88375
1006.00 56.4385
1006.10 58.08239
1006.20 59.47322
1006.30 59.5447
1006.40 59.44631
1006.50 59.4808
1006.60 59.89769
1006.70 60.36864
1006.80 61.98742
1006.90 64.34768
1007.00 66.49122
1007.10 66.84686
1007.20 66.71683
1007.30 66.13508
1007.40 65.56147
1007.50 64.94438
1007.60 65.53175
1007.70 67.0038
1007.80 68.4692
1007.90 69.39376
1008.00 70.03906
1008.10 70.45272
1008.20 70.63902
1008.30 70.82212
1008.40 71.02108
1008.50 71.23448
1008.60 71.47715
1008.70 71.51237
1008.80 71.38033
1008.90 70.83317
1009.00 68.9507
1009.10 66.82895
1009.20 65.02506
1009.30 64.01352
1009.40 63.07381
1009.50 63.62771
1009.60 65.05883
1009.70 66.53583
1009.80 68.43771
1009.90 70.48107
1010.00 72.55996
1010.10 74.72357
1010.20 76.90958
1010.30 78.35155
1010.40 78.7751
1010.50 78.95643
1010.60 78.10214
1010.70 76.93278
1010.80 75.69714
1010.90 74.59173
1011.00 73.54328
1011.10 72.17199
1011.20 70.15591
1011.30 68.21651
1011.40 67.15322
1011.50 66.61329
1011.60 66.12517
1011.70 65.47605
1011.80 64.77305
1011.90 64.32136
1012.00 64.54667
1012.10 64.87543
1012.20 67.05781
1012.30 70.29215
1012.40 73.28099
1012.50 75.0901
1012.60 76.68243
1012.70 77.6774
1012.80 76.58286
1012.90 75.48119
1013.00 75.01611
1013.10 75.10562
1013.20 75.08852
1013.30 74.46453
1013.40 73.75032
1013.50 72.50159
1013.60 69.12354
1013.70 65.54503
1013.80 62.79953
1013.90 61.60568
1014.00 60.62851
1014.10 61.45374
1014.20 63.01075
1014.30 64.73111
1014.40 66.4895
1014.50 68.27416
1014.60 68.96501
1014.70 67.8222
1014.80 66.68195
1014.90 65.92297
1015.00 65.58507
1015.10 65.84797
1015.20 68.17961
1015.30 71.05058
1015.40 73.15782
1015.50 72.60518
1015.60 72.15254
1015.70 70.34483
1015.80 67.86505
1015.90 65.62534
1016.00 64.91877
1016.10 64.73766
1016.20 64.98261
1016.30 65.96944
1016.40 67.01031
1016.50 67.61019
1016.60 67.93443
1016.70 68.33196
1016.80 69.17095
1016.90 70.24485
1017.00 70.88612
1017.10 69.59829
1017.20 67.95818
1017.30 66.96611
1017.40 67.76686
1017.50 68.64179
1017.60 70.87297
1017.70 73.89542
1017.80 76.28179
1017.90 75.13752
1018.00 73.00792
1018.10 70.70799
1018.20 69.42841
1018.30 68.12421
1018.40 67.25334
1018.50 66.24305
1018.60 65.25884
1018.70 64.70158
1018.80 64.32622
1018.90 64.53538
1019.00 66.20404
1019.10 67.9605
1019.20 69.32858
1019.30 70.32352
1019.40 71.16174
1019.50 71.1692
1019.60 70.71813
1019.70 70.40512
1019.80 70.54525
1019.90 70.7789
1020.00 70.74621
1020.10 70.24298
1020.20 69.79546
1020.30 69.84623
1020.40 70.27706
1020.50 70.78027
1020.60 71.42264
1020.70 72.05486
1020.80 72.58623
1020.90 72.81841
1021.00 73.07735
1021.10 72.77545
1021.20 71.75707
1021.30 70.51674
1021.40 68.73088
1021.50 66.83514
1021.60 65.14613
1021.70 64.03716
1021.80 62.98142
1021.90 62.10125
1022.00 61.50295
1022.10 60.99942
1022.20 61.23394
1022.30 61.54827
1022.40 62.44918
1022.50 64.75055
1022.60 67.1935
1022.70 68.60857
1022.80 69.10511
1022.90 69.55133
1023.00 69.39728
1023.10 69.03367
1023.20 68.53004
1023.30 67.79332
1023.40 66.86509
1023.50 66.82577
1023.60 68.40119
1023.70 69.95845
1023.80 71.12578
1023.90 71.75429
1024.00 72.23434
1024.10 72.82551
1024.20 73.56519
1024.30 74.46655
1024.40 74.7218
1024.50 75.11172
1024.60 74.17587
1024.70 72.53402
1024.80 71.05004
1024.90 70.34646
1025.00 69.85326
1025.10 69.17604
1025.20 67.73176
1025.30 66.27775
1025.40 65.3896
1025.50 65.2745
1025.60 65.30505
1025.70 66.04776
1025.80 67.1319
1025.90 67.54195
1026.00 65.44202
1026.10 62.97039
1026.20 60.75591
1026.30 59.56368
1026.40 58.40593
1026.50 58.77262
1026.60 59.66008
1026.70 60.89489
1026.80 63.684
1026.90 66.96642
1027.00 69.68291
1027.10 70.69912
1027.20 71.78995
1027.30 71.65324
1027.40 70.51341
1027.50 69.33443
1027.60 67.94082
1027.70 66.38729
1027.80 65.15449
1027.90 65.12423
1028.00 65.21877
1028.10 64.79146
1028.20 63.82924
1028.30 62.84206
1028.40 61.79971
1028.50 60.62289
1028.60 60.16746
1028.70 62.36991
1028.80 65.01696
1028.90 67.77314
1029.00 69.73522
1029.10 71.43813
1029.20 71.19065
1029.30 69.863
1029.40 68.62225
1029.50 68.35693
1029.60 68.1851
1029.70 68.28934
1029.80 68.04325
1029.90 67.76348
1030.00 67.16688
1030.10 66.84368
1030.20 66.55462
1030.30 66.55773
1030.40 66.47625
1030.50 66.96394
1030.60 68.87027
1030.70 70.67793
1030.80 71.27676
1030.90 71.18127
1031.00 70.94352
1031.10 70.33304
1031.20 69.49959
1031.30 69.12529
1031.40 70.12978
1031.50 71.26667
1031.60 71.54905
1031.70 70.76995
1031.80 69.91324
1031.90 68.76901
1032.00 67.49046
1032.10 66.5842
1032.20 66.80398
1032.30 67.1982
1032.40 67.04709
1032.50 65.78297
1032.60 64.59306
1032.70 65.09538
1032.80 66.6719
1032.90 68.48932
1033.00 70.89141
1033.10 73.43891
1033.20 75.60081
1033.30 76.65283
1033.40 77.7877
1033.50 77.01326
1033.60 74.52934
1033.70 71.88301
1033.80 69.28
1033.90 66.73728
1034.00 64.80772
1034.10 64.70539
1034.20 64.61923
1034.30 64.362
1034.40 63.72574
1034.50 63.0879
1034.60 62.69587
1034.70 62.34576
1034.80 62.6106
1034.90 64.35452
1035.00 66.50761
1035.10 67.4595
1035.20 66.61371
1035.30 65.82086
1035.40 65.96658
1035.50 66.75121
1035.60 67.56098
1035.70 68.28919
1035.80 68.94102
1035.90 69.78362
1036.00 71.21126
1036.10 72.6469
1036.20 73.96423
1036.30 74.98479
1036.40 75.77225
1036.50 75.78829
1036.60 75.71925
1036.70 75.69524
1036.80 75.81872
1036.90 75.86125
1037.00 76.50256
1037.10 77.65132
1037.20 78.8123
1037.30 79.82408
1037.40 80.86341
1037.50 81.52536
1037.60 80.57635
1037.70 79.6766
1037.80 77.77674
1037.90 74.80341
1038.00 71.87042
1038.10 69.48784
1038.20 67.17058
1038.30 65.55456
1038.40 66.30485
1038.50 67.31289
1038.60 68.76053
1038.70 70.79011
1038.80 72.71828
1038.90 73.21269
1039.00 72.81541
1039.10 72.32517
1039.20 71.78067
1039.30 71.20991
1039.40 70.62858
1039.50 69.99893
1039.60 69.36959
1039.70 68.87041
1039.80 68.61201
1039.90 68.59707
1040.00 69.21216
1040.10 69.76781
1040.20 70.60089
1040.30 72.35351
1040.40 74.24022
1040.50 75.51074
1040.60 76.1074
1040.70 76.64507
1040.80 77.06397
1040.90 77.56735
1041.00 77.85605
1041.10 76.70907
1041.20 75.56943
1041.30 73.91708
1041.40 71.82077
1041.50 69.88605
1041.60 69.89907
1041.70 70.69711
1041.80 71.99136
1041.90 74.72604
1042.00 77.86483
1042.10 79.76008
1042.20 78.71231
1042.30 77.69136
1042.40 75.99781
1042.50 74.29558
1042.60 72.49398
1042.70 70.207
1042.80 67.72674
1042.90 65.72055
1043.00 65.39644
1043.10 64.98178
1043.20 66.86371
1043.30 70.48584
1043.40 73.94282
1043.50 76.31771
1043.60 78.53296
1043.70 80.07554
1043.80 79.62939
1043.90 78.99895
1044.00 78.64079
1044.10 78.72827
1044.20 78.8164
1044.30 78.7835
1044.40 78.78154
1044.50 78.66236
1044.60 78.33968
1044.70 77.9533
1044.80 77.96167
1044.90 78.10953
1045.00 78.30975
1045.10 79.77152
1045.20 81.85238
1045.30 83.82334
1045.40 85.25708
1045.50 86.80731
1045.60 87.95924
1045.70 88.06844
1045.80 88.22175
1045.90 86.9237
1046.00 84.8267
1046.10 82.7258
1046.20 80.48208
1046.30 77.96582
1046.40 75.75406
1046.50 75.07665
1046.60 74.34105
1046.70 73.38477
1046.80 72.55596
1046.90 71.74111
1047.00 70.74856
1047.10 69.48504
1047.20 68.59825
1047.30 69.1304
1047.40 69.75924
1047.50 70.5054
1047.60 71.14982
1047.70 71.76227
1047.80 71.9275
1047.90 71.87054
1048.00 71.72061
1048.10 71.54024
1048.20 71.22645
1048.30 71.73641
1048.40 73.57417
1048.50 75.37073
1048.60 76.35038
1048.70 76.88919
1048.80 77.28524
1048.90 77.21273
1049.00 77.01656
1049.10 76.89774
1049.20 77.28513
1049.30 77.6534
1049.40 77.70299
1049.50 77.57899
1049.60 77.07279
1049.70 74.85211
1049.80 72.26045
1049.90 70.4094
1050.00 71.04154
1050.10 71.51349
1050.20 72.73827
1050.30 74.10676
1050.40 75.19519
1050.50 75.35842
1050.60 75.34441
1050.70 75.25721
1050.80 75.04299
1050.90 74.79329
1051.00 74.62006
1051.10 74.34723
1051.20 73.85676
1051.30 72.4038
1051.40 70.5481
1051.50 68.98231
1051.60 68.78487
1051.70 68.72891
1051.80 69.056
1051.90 69.32354
1052.00 69.55152
1052.10 69.51334
1052.20 69.35116
1052.30 69.29345
1052.40 70.02161
1052.50 70.87257
1052.60 72.26328
1052.70 74.31412
1052.80 76.32744
1052.90 77.26142
1053.00 77.55104
1053.10 77.53085
1053.20 76.59889
1053.30 75.39325
1053.40 74.60131
1053.50 75.44105
1053.60 76.22089
1053.70 76.66878
1053.80 76.71973
1053.90 76.60955
1054.00 75.84347
1054.10 74.78726
1054.20 74.16042
1054.30 75.12383
1054.40 76.23737
1054.50 76.52294
1054.60 75.44014
1054.70 74.22944
1054.80 72.79728
1054.90 71.23855
1055.00 70.19081
1055.10 71.32426
1055.20 72.81114
1055.30 74.07507
1055.40 74.75213
1055.50 75.36132
1055.60 74.6214
1055.70 73.30727
1055.80 71.90801
1055.90 70.61721
1056.00 69.20851
1056.10 68.03996
1056.20 67.3584
1056.30 66.72442
1056.40 66.786
1056.50 67.0915
1056.60 67.49482
1056.70 68.30093
1056.80 69.18986
1056.90 69.80367
1057.00 69.7217
1057.10 69.73206
1057.20 70.149
1057.30 70.87762
1057.40 71.68635
1057.50 72.48912
1057.60 73.23311
1057.70 73.78578
1057.80 73.77218
1057.90 73.78038
1058.00 73.78582
1058.10 73.84684
1058.20 73.91768
1058.30 73.90444
1058.40 73.9353
1058.50 73.53702
1058.60 72.10857
1058.70 70.59244
1058.80 69.66159
1058.90 69.28953
1059.00 68.97568
1059.10 69.12524
1059.20 69.34146
1059.30 69.54985
1059.40 70.21851
1059.50 70.94163
1059.60 71.87368
1059.70 72.75291
1059.80 73.56003
1059.90 73.27581
1060.00 72.50741
1060.10 71.73544
1060.20 71.29436
1060.30 71.01675
1060.40 70.75138
1060.50 70.15422
1060.60 69.60611
1060.70 68.99336
1060.80 68.00708
1060.90 67.11049
1061.00 66.9058
1061.10 66.99362
1061.20 67.47315
1061.30 68.73281
1061.40 70.01216
1061.50 70.94522
1061.60 71.9752
1061.70 72.85437
1061.80 72.74844
1061.90 72.32117
1062.00 71.92639
1062.10 71.1395
1062.20 70.23443
1062.30 69.72314
1062.40 70.13567
1062.50 70.63028
1062.60 71.88205
1062.70 73.29805
1062.80 74.74752
1062.90 76.14903
1063.00 77.6725
1063.10 78.45586
1063.20 77.72817
1063.30 77.01491
1063.40 76.29275
1063.50 75.8003
1063.60 75.53448
1063.70 75.84028
1063.80 76.09418
1063.90 76.57095
1064.00 77.43007
1064.10 78.31627
1064.20 78.75375
1064.30 78.75428
1064.40 78.6716
1064.50 78.47541
1064.60 78.37913
1064.70 78.30216
1064.80 78.37117
1064.90 78.34581
1065.00 78.41355
1065.10 78.71024
1065.20 78.882
1065.30 77.93331
1065.40 76.49263
1065.50 74.91648
1065.60 73.6551
1065.70 72.4315
1065.80 71.85049
1065.90 71.72315
1066.00 71.56232
1066.10 71.20326
1066.20 70.84457
1066.30 70.15656
1066.40 68.81737
1066.50 67.31924
1066.60 66.7001
1066.70 67.38656
1066.80 68.0017
1066.90 68.21572
1067.00 68.00439
1067.10 67.75459
1067.20 67.8746
1067.30 68.0893
1067.40 68.96247
1067.50 71.05504
1067.60 73.12072
1067.70 74.53167
1067.80 75.3729
1067.90 76.14158
1068.00 76.66015
1068.10 77.22555
1068.20 77.76076
1068.30 79.56951
1068.40 81.30267
1068.50 82.77341
1068.60 83.65889
1068.70 84.47327
1068.80 84.36222
1068.90 83.90864
1069.00 83.36659
1069.10 82.89235
1069.20 82.31501
1069.30 81.73659
1069.40 81.18886
1069.50 80.56723
1069.60 79.11195
1069.70 77.10093
1069.80 75.309
1069.90 75.13282
1070.00 75.09216
1070.10 74.98737
1070.20 74.63288
1070.30 74.27794
1070.40 74.054
1070.50 73.98007
1070.60 74.18373
1070.70 75.55611
1070.80 77.19122
1070.90 78.3934
1071.00 77.79343
1071.10 77.20924
1071.20 76.72955
1071.30 76.35293
1071.40 76.238
1071.50 77.26764
1071.60 78.63377
1071.70 79.49128
1071.80 79.02213
1071.90 78.63697
1072.00 78.40322
1072.10 78.4606
1072.20 78.4881
1072.30 77.94233
1072.40 77.2506
1072.50 76.2266
1072.60 75.16511
1072.70 73.9152
1072.80 73.99945
1072.90 75.21796
1073.00 76.45579
1073.10 77.35632
1073.20 78.26319
1073.30 78.81062
1073.40 77.50764
1073.50 75.99681
1073.60 75.11099
1073.70 75.43375
1073.80 75.79419
1073.90 76.66637
1074.00 77.49638
1074.10 78.31211
1074.20 79.22827
1074.30 80.37242
1074.40 81.0003
1074.50 80.62288
1074.60 80.25421
1074.70 80.21223
1074.80 80.70062
1074.90 81.20466
1075.00 81.06538
1075.10 80.71267
1075.20 80.02727
1075.30 78.91
1075.40 77.81379
1075.50 77.27783
1075.60 76.71794
1075.70 76.47039
1075.80 77.6951
1075.90 79.41113
1076.00 80.89137
1076.10 80.9243
1076.20 81.07049
1076.30 80.94242
1076.40 80.58466
1076.50 80.27093
1076.60 80.13708
1076.70 80.00704
1076.80 79.86278
1076.90 80.3069
1077.00 80.83005
1077.10 81.13237
1077.20 80.98353
1077.30 80.81413
1077.40 80.3724
1077.50 79.79914
1077.60 79.0303
1077.70 78.20734
1077.80 77.3009
1077.90 77.2052
1078.00 78.06353
1078.10 78.8672
1078.20 79.21817
1078.30 79.3444
1078.40 79.35745
1078.50 79.59735
1078.60 80.01666
1078.70 80.1529
1078.80 79.05067
1078.90 77.94238
1079.00 76.83507
1079.10 75.92236
1079.20 75.09489
1079.30 74.38492
1079.40 73.72812
1079.50 73.35218
1079.60 73.84717
1079.70 74.20058
1079.80 74.78165
1079.90 75.52117
1080.00 76.24314
1080.10 76.74235
1080.20 77.14307
1080.30 77.44851
1080.40 77.68466
1080.50 77.96532
1080.60 78.53722
1080.70 79.33043
1080.80 80.06292
1080.90 80.41025
1081.00 80.53027
1081.10 80.59863
1081.20 80.60798
1081.30 80.70984
1081.40 80.83974
1081.50 80.87814
1081.60 80.94031
1081.70 81.58293
1081.80 82.52388
1081.90 83.31761
1082.00 83.16986
1082.10 83.02821
1082.20 82.52765
1082.30 81.57738
1082.40 80.64078
1082.50 79.91492
1082.60 79.22284
1082.70 78.63795
1082.80 78.64679
1082.90 78.80212
1083.00 79.14702
1083.10 79.62425
1083.20 79.95221
1083.30 80.4168
1083.40 81.4021
1083.50 82.2735
1083.60 82.23635
1083.70 82.01023
1083.80 81.76044
1083.90 81.61403
1084.00 81.41291
1084.10 81.29468
1084.20 81.27866
1084.30 81.23298
1084.40 81.14555
1084.50 81.19327
1084.60 80.99446
1084.70 79.79504
1084.80 78.40473
1084.90 77.92285
1085.00 78.41409
1085.10 78.93097
1085.20 79.53471
1085.30 80.68604
1085.40 81.40392
1085.50 80.79543
1085.60 79.61389
1085.70 79.30744
1085.80 80.1841
1085.90 81.04851
1086.00 82.00503
1086.10 83.17172
1086.20 84.29129
1086.30 84.80971
1086.40 85.30418
1086.50 85.29054
1086.60 84.30444
1086.70 83.33175
1086.80 82.6768
1086.90 82.43121
1087.00 82.48102
1087.10 83.25431
1087.20 84.17901
1087.30 84.74333
1087.40 84.03462
1087.50 83.43914
1087.60 82.53362
1087.70 81.4162
1087.80 80.65147
1087.90 81.30261
1088.00 82.36945
1088.10 83.12054
1088.20 82.45724
1088.30 81.86013
1088.40 81.47235
1088.50 81.29066
1088.60 81.25092
1088.70 81.61
1088.80 82.10974
1088.90 82.21268
1089.00 81.76617
1089.10 81.28404
1089.20 81.03635
1089.30 81.23807
1089.40 81.45895
1089.50 81.48912
1089.60 81.04718
1089.70 80.8373
1089.80 81.8233
1089.90 83.00321
1090.00 84.14767
1090.10 84.96841
1090.20 85.77149
1090.30 85.94192
1090.40 85.79627
1090.50 85.55569
1090.60 85.00604
1090.70 84.59889
1090.80 83.99222
1090.90 82.63107
1091.00 81.23461
1091.10 80.04029
1091.20 79.01529
1091.30 78.32503
1091.40 78.6886
1091.50 79.17239
1091.60 79.91987
1091.70 81.23784
1091.80 82.54393
1091.90 83.15244
1092.00 83.55893
1092.10 83.83286
1092.20 83.63069
1092.30 83.24658
1092.40 83.106
1092.50 83.27292
1092.60 83.41274
1092.70 83.42654
1092.80 83.56356
1092.90 83.70621
1093.00 83.6094
1093.10 83.28184
1093.20 82.93389
1093.30 82.66266
1093.40 82.47706
1093.50 82.28719
1093.60 82.38813
1093.70 82.50693
1093.80 82.48521
1093.90 81.72474
1094.00 81.34657
1094.10 82.05793
1094.20 83.10372
1094.30 83.43063
1094.40 82.57782
1094.50 81.79476
1094.60 80.6786
1094.70 79.40588
1094.80 78.44608
1094.90 79.35119
1095.00 80.23449
1095.10 81.44744
1095.20 82.70294
1095.30 83.94025
1095.40 84.80831
1095.50 85.71479
1095.60 86.36675
1095.70 86.01736
1095.80 85.39198
1095.90 84.77395
1096.00 85.02779
1096.10 85.20554
1096.20 85.46143
1096.30 85.64402
1096.40 85.81773
1096.50 85.74674
1096.60 85.60458
1096.70 85.20771
1096.80 84.1208
1096.90 83.11312
1097.00 81.71007
1097.10 79.91274
1097.20 78.24618
1097.30 78.10887
1097.40 78.32419
1097.50 78.86281
1097.60 79.68477
1097.70 80.4731
1097.80 81.17805
1097.90 82.22626
1098.00 83.29877
1098.10 83.83379
1098.20 83.87322
1098.30 83.50986
1098.40 82.81024
1098.50 82.30657
1098.60 82.03361
1098.70 81.57509
1098.80 81.03337
1098.90 80.82288
1099.00 80.88062
1099.10 80.99147
1099.20 81.36191
1099.30 81.70272
1099.40 82.27578
1099.50 83.21347
1099.60 84.20026
1099.70 84.43961
1099.80 84.33509
1099.90 84.26254
1100.00 84.00469
1100.10 83.58599
1100.20 83.08168
1100.30 82.38096
1100.40 81.7404
1100.50 81.11703
1100.60 80.54705
1100.70 80.18234
1100.80 80.66511
1100.90 81.48098
1101.00 82.20823
1101.10 82.36038
1101.20 82.40392
1101.30 82.70304
1101.40 83.56363
1101.50 84.40997
1101.60 84.47222
1101.70 84.3148
1101.80 83.78701
1101.90 82.37819
1102.00 80.97296
1102.10 79.82845
1102.20 78.94751
1102.30 78.04413
1102.40 77.39765
1102.50 76.48875
1102.60 76.18803
1102.70 77.82987
1102.80 79.88936
1102.90 81.50986
1103.00 82.53939
1103.10 83.6236
1103.20 83.45877
1103.30 82.24819
1103.40 80.75216
1103.50 78.55643
1103.60 76.06183
1103.70 74.48895
1103.80 74.90615
1103.90 75.15662
1104.00 75.85498
1104.10 77.19876
1104.20 78.53724
1104.30 78.93297
1104.40 78.86395
1104.50 78.60715
1104.60 78.96478
1104.70 79.31987
1104.80 79.54889
1104.90 80.05514
1105.00 80.61631
1105.10 80.24755
1105.20 79.37851
1105.30 77.98822
1105.40 76.22077
1105.50 74.43442
1105.60 73.73253
1105.70 73.35454
1105.80 73.04284
1105.90 73.54541
1106.00 74.70261
1106.10 75.60202
1106.20 75.71024
1106.30 75.75406
1106.40 75.92503
1106.50 76.28461
1106.60 76.56856
1106.70 76.4013
1106.80 76.24412
1106.90 75.89591
1107.00 74.87051
1107.10 73.5976
1107.20 72.86344
1107.30 73.26802
1107.40 73.67684
1107.50 74.43008
1107.60 75.56069
1107.70 76.37884
1107.80 76.49068
1107.90 76.35493
1108.00 76.47411
1108.10 76.71318
1108.20 76.93774
1108.30 77.61007
1108.40 78.75433
1108.50 79.83917
1108.60 80.51406
1108.70 81.23279
1108.80 81.60107
1108.90 81.15226
1109.00 80.668
1109.10 80.13083
1109.20 79.55494
1109.30 79.2242
1109.40 79.6494
1109.50 80.22847
1109.60 80.73544
1109.70 81.31186
1109.80 81.97569
1109.90 82.00189
1110.00 81.53781
1110.10 80.94937
1110.20 79.58216
1110.30 78.17188
1110.40 76.77808
1110.50 75.39613
1110.60 73.82548
1110.70 73.41941
1110.80 74.16783
1110.90 74.81481
1111.00 74.8184
1111.10 74.54937
1111.20 74.17343
1111.30 73.79498
1111.40 73.3938
1111.50 73.352
1111.60 73.55769
1111.70 73.71456
1111.80 74.13035
1111.90 74.89253
1112.00 75.4625
1112.10 75.26745
1112.20 74.95404
1112.30 74.78004
1112.40 74.78021
1112.50 74.78586
1112.60 75.40836
1112.70 76.52234
1112.80 77.70265
1112.90 78.80795
1113.00 79.92016
1113.10 80.70648
1113.20 80.59484
1113.30 80.48463
1113.40 80.22695
1113.50 79.94719
1113.60 79.39081
1113.70 77.97734
1113.80 76.42419
1113.90 75.40039
1114.00 76.02192
1114.10 76.44163
1114.20 77.34079
1114.30 78.22361
1114.40 79.1948
1114.50 80.24291
1114.60 81.33549
1114.70 81.81342
1114.80 80.74533
1114.90 79.71263
1115.00 78.53854
1115.10 77.88333
1115.20 77.48905
1115.30 78.16504
1115.40 79.37447
1115.50 80.34468
1115.60 80.4597
1115.70 80.27156
1115.80 80.04744
1115.90 79.33589
1116.00 78.6256
1116.10 78.09449
1116.20 77.94909
1116.30 77.87249
1116.40 78.00605
1116.50 78.14069
1116.60 78.27797
1116.70 78.90286
1116.80 79.44834
1116.90 79.05479
1117.00 77.86254
1117.10 76.62572
1117.20 75.3794
1117.30 74.0907
1117.40 72.94756
1117.50 72.85096
1117.60 72.76822
1117.70 73.11617
1117.80 73.08638
1117.90 73.19249
1118.00 73.91617
1118.10 75.01381
1118.20 75.94692
1118.30 77.38087
1118.40 78.83418
1118.50 80.1686
1118.60 80.76309
1118.70 81.08383
1118.80 80.36578
1118.90 79.54885
1119.00 79.29843
1119.10 79.08068
1119.20 78.78111
1119.30 78.4271
1119.40 77.87017
1119.50 77.28053
1119.60 76.87845
1119.70 76.26684
1119.80 75.64668
1119.90 75.12866
1120.00 74.86867
1120.10 74.61516
1120.20 74.70147
1120.30 75.58002
1120.40 76.47349
1120.50 76.79237
1120.60 77.51357
1120.70 78.331
1120.80 79.29188
1120.90 79.23339
1121.00 78.4995
1121.10 77.87073
1121.20 77.22566
1121.30 77.42555
1121.40 77.61766
1121.50 77.81239
1121.60 77.1837
1121.70 76.35657
1121.80 75.58229
1121.90 74.98599
1122.00 74.58415
1122.10 73.90229
1122.20 73.60493
1122.30 73.94572
1122.40 74.11188
1122.50 74.64059
1122.60 76.91317
1122.70 79.35121
1122.80 81.68366
1122.90 82.51722
1123.00 82.8616
1123.10 83.09678
1123.20 81.92705
1123.30 79.732
1123.40 77.55911
1123.50 75.98954
1123.60 76.54207
1123.70 77.01898
1123.80 77.60471
1123.90 78.33664
1124.00 79.082
1124.10 79.81415
1124.20 80.24931
1124.30 80.53051
1124.40 80.80599
1124.50 81.29395
1124.60 81.83242
1124.70 82.38551
1124.80 82.2589
1124.90 80.37989
1125.00 78.52418
1125.10 76.45854
1125.20 76.80339
1125.30 77.40134
1125.40 78.44427
1125.50 79.7723
1125.60 81.07609
1125.70 82.32285
1125.80 82.62172
1125.90 81.97023
1126.00 81.33657
1126.10 80.70284
1126.20 80.6864
1126.30 80.66504
1126.40 80.61993
1126.50 80.74334
1126.60 80.89018
1126.70 81.0727
1126.80 80.89493
1126.90 80.54358
1127.00 80.18923
1127.10 80.08222
1127.20 80.15054
1127.30 80.233
1127.40 80.35835
1127.50 80.27908
1127.60 80.19795
1127.70 79.93408
1127.80 80.03879
1127.90 80.18375
1128.00 80.34026
1128.10 80.25336
1128.20 80.11202
1128.30 79.99553
1128.40 80.21209
1128.50 80.55078
1128.60 80.88643
1128.70 81.13309
1128.80 80.84153
1128.90 80.56364
1129.00 80.15637
1129.10 79.60766
1129.20 79.07378
1129.30 78.66202
1129.40 79.04226
1129.50 79.68518
1129.60 80.30737
1129.70 80.98714
1129.80 81.99152
1129.90 82.99763
1130.00 83.63271
1130.10 82.82181
1130.20 82.06934
1130.30 81.25504
1130.40 80.26251
1130.50 79.23237
1130.60 78.24402
1130.70 77.51766
1130.80 76.99409
1130.90 76.47594
1131.00 76.28313
1131.10 76.6513
1131.20 77.01477
1131.30 77.53331
1131.40 78.00738
1131.50 78.49107
1131.60 78.90953
1131.70 79.15934
1131.80 79.40145
1131.90 79.61666
1132.00 79.77921
1132.10 79.74542
1132.20 79.71593
1132.30 79.72971
1132.40 79.89368
1132.50 80.05224
1132.60 80.01043
1132.70 79.71232
1132.80 79.4129
1132.90 79.19303
1133.00 78.94847
1133.10 78.67946
1133.20 78.38546
1133.30 78.03003
1133.40 77.59794
1133.50 77.1626
1133.60 76.53234
1133.70 75.61596
1133.80 74.70016
1133.90 73.5964
1134.00 72.53372
1134.10 71.47324
1134.20 70.54667
1134.30 70.95001
1134.40 71.64924
1134.50 72.48743
1134.60 73.8303
1134.70 75.16038
1134.80 76.46484
1134.90 77.61232
1135.00 78.50368
1135.10 79.43725
1135.20 79.93965
1135.30 79.30983
1135.40 78.69592
1135.50 77.95741
1135.60 76.27419
1135.70 74.3903
1135.80 72.59711
1135.90 72.65183
1136.00 74.049
1136.10 75.42747
1136.20 76.40656
1136.30 76.53942
1136.40 76.70669
1136.50 76.79592
1136.60 76.04185
1136.70 75.29352
1136.80 74.45417
1136.90 73.64395
1137.00 72.85327
1137.10 72.11932
1137.20 71.2702
1137.30 70.35049
1137.40 69.44278
1137.50 68.68146
1137.60 68.18051
1137.70 67.72588
1137.80 67.12312
1137.90 64.44213
1138.00 61.83194
1138.10 59.00662
1138.20 56.21405
1138.30 53.39118
1138.40 50.90951
1138.50 50.41472
1138.60 52.20231
1138.70 53.86364
1138.80 56.41845
1138.90 59.09139
1139.00 61.8512
1139.10 64.62042
1139.20 65.84048
1139.30 67.13905
1139.40 68.13526
1139.50 67.78176
1139.60 67.16185
1139.70 66.46469
1139.80 65.58606
1139.90 64.69111
1140.00 63.84044
1140.10 62.26561
1140.20 59.12409
1140.30 56.04788
1140.40 52.60434
1140.50 49.26994
1140.60 45.76738
1140.70 42.93417
1140.80 43.75412
1140.90 45.94209
1141.00 48.26059
1141.10 51.1984
1141.20 54.35401
1141.30 57.56397
1141.40 60.8365
1141.50 64.07087
1141.60 67.35451
1141.70 70.28635
1141.80 71.21304
1141.90 72.17883
1142.00 73.0966
1142.10 73.90496
1142.20 74.65225
1142.30 75.32142
1142.40 75.45924
1142.50 75.38542
1142.60 75.30228
1142.70 75.57997
1142.80 76.11507
1142.90 76.65473
1143.00 77.1026
1143.10 76.82157
1143.20 76.55176
1143.30 76.27461
1143.40 76.25086
1143.50 76.33078
1143.60 76.41271
1143.70 76.25148
1143.80 75.94469
1143.90 75.6593
1144.00 75.72692
1144.10 76.44898
1144.20 77.13985
1144.30 77.83009
1144.40 78.15931
1144.50 78.48749
1144.60 78.65573
1144.70 78.3536
1144.80 77.98562
1144.90 77.67246
1145.00 77.93786
1145.10 78.37592
1145.20 78.81785
1145.30 78.95032
1145.40 78.68551
1145.50 78.42373
1145.60 78.13263
1145.70 77.89411
1145.80 77.65328
1145.90 77.44911
1146.00 77.48576
1146.10 77.7106
1146.20 77.90939
1146.30 78.16888
1146.40 78.31536
1146.50 78.4609
1146.60 78.81012
1146.70 79.45656
1146.80 80.12629
1146.90 80.65476
1147.00 79.91912
1147.10 79.19627
1147.20 78.45153
1147.30 78.46687
1147.40 78.74517
1147.50 79.02564
1147.60 79.27178
1147.70 79.61584
1147.80 79.9587
1147.90 80.20229
1148.00 80.02453
1148.10 79.85452
1148.20 79.91891
1148.30 79.5989
1148.40 79.30732
1148.50 78.97005
1148.60 79.18492
1148.70 79.65486
1148.80 80.16139
1148.90 80.65945
1149.00 81.35234
1149.10 82.05159
1149.20 82.24833
1149.30 81.17142
1149.40 80.11334
1149.50 79.21097
1149.60 79.47163
1149.70 79.7104
1149.80 79.98451
1149.90 80.41527
1150.00 80.91897
1150.10 81.36982
1150.20 81.03124
1150.30 80.26597
1150.40 79.49804
1150.50 79.19095
1150.60 79.46686
1150.70 79.73128
1150.80 80.07526
1150.90 80.58416
1151.00 81.10326
1151.10 81.51774
1151.20 81.5985
1151.30 81.55697
1151.40 81.4903
1151.50 81.05682
1151.60 80.34511
1151.70 79.63113
1151.80 79.20937
1151.90 79.37771
1152.00 79.54349
1152.10 79.89623
1152.20 79.42462
1152.30 78.98174
1152.40 78.34316
1152.50 77.92525
1152.60 77.64688
1152.70 77.46272
1152.80 77.33692
1152.90 77.58383
1153.00 77.83076
1153.10 78.15123
1153.20 77.876
1153.30 77.60229
1153.40 77.32947
1153.50 77.31252
1153.60 77.27953
1153.70 77.3081
1153.80 77.79564
1153.90 78.50397
1154.00 79.2024
1154.10 79.82993
1154.20 80.39452
1154.30 80.97126
1154.40 81.36798
1154.50 81.06218
1154.60 80.77482
1154.70 80.3112
1154.80 79.59049
1154.90 78.83987
1155.00 78.19203
1155.10 78.19138
1155.20 78.35969
1155.30 78.49171
1155.40 78.61798
1155.50 78.73381
1155.60 78.86774
1155.70 79.28974
1155.80 79.99707
1155.90 80.71519
1156.00 81.38866
1156.10 81.11972
1156.20 80.84917
1156.30 80.50873
1156.40 80.63054
1156.50 80.90005
1156.60 81.19462
1156.70 81.3672
1156.80 81.25095
1156.90 81.11635
1157.00 80.63097
1157.10 79.94872
1157.20 79.25117
1157.30 78.80203
1157.40 78.9234
1157.50 79.04368
1157.60 79.09295
1157.70 79.20937
1157.80 79.35351
1157.90 79.52057
1158.00 79.73862
1158.10 80.02792
1158.20 80.32002
1158.30 80.56282
1158.40 80.47174
1158.50 80.38571
1158.60 80.12458
1158.70 79.71107
1158.80 79.30716
1158.90 78.9053
1159.00 78.49711
1159.10 78.08648
1159.20 77.64258
1159.30 76.76207
1159.40 75.53787
1159.50 74.32405
1159.60 73.39494
1159.70 73.13422
1159.80 72.83106
1159.90 72.87167
1160.00 73.64689
1160.10 74.41777
1160.20 75.15028
1160.30 75.89629
1160.40 76.68507
1160.50 77.36365
1160.60 77.64491
1160.70 77.36555
1160.80 77.07506
1160.90 76.17375
1161.00 74.89035
1161.10 73.54741
1161.20 72.89816
1161.30 74.10457
1161.40 75.2591
1161.50 76.7083
1161.60 78.1478
1161.70 79.53867
1161.80 80.59341
1161.90 80.55764
1162.00 79.92577
1162.10 79.31801
1162.20 78.81853
1162.30 78.60414
1162.40 78.37463
1162.50 78.3255
1162.60 78.8461
1162.70 79.35811
1162.80 79.84606
1162.90 80.41034
1163.00 81.008
1163.10 81.59733
1163.20 81.96469
1163.30 82.05766
1163.40 82.08924
1163.50 81.77367
1163.60 80.77217
1163.70 79.80259
1163.80 78.37709
1163.90 76.87648
1164.00 75.34196
1164.10 74.21293
1164.20 74.33937
1164.30 74.72527
1164.40 75.29824
1164.50 76.35702
1164.60 77.61605
1164.70 78.8055
1164.80 79.61282
1164.90 79.95604
1165.00 80.31431
1165.10 80.34024
1165.20 79.76807
1165.30 79.20314
1165.40 78.57733
1165.50 77.91789
1165.60 77.24335
1165.70 76.70069
1165.80 76.85942
1165.90 77.51422
1166.00 78.20705
1166.10 79.05665
1166.20 79.89361
1166.30 80.73396
1166.40 81.38179
1166.50 81.34733
1166.60 81.32109
1166.70 81.18306
1166.80 80.86348
1166.90 80.5425
1167.00 80.15994
1167.10 79.74942
1167.20 79.35577
1167.30 78.99598
1167.40 78.83195
1167.50 78.62476
1167.60 78.41548
1167.70 78.06786
1167.80 77.73032
1167.90 77.3853
1168.00 77.07136
1168.10 76.6549
1168.20 76.23339
1168.30 75.70503
1168.40 74.76804
1168.50 73.61159
1168.60 72.36658
1168.70 70.38042
1168.80 67.54128
1168.90 64.78104
1169.00 60.66256
1169.10 55.64131
1169.20 50.52094
1169.30 46.34472
1169.40 46.62519
1169.50 47.2404
1169.60 48.81622
1169.70 52.69313
1169.80 57.3336
1169.90 61.81012
1170.00 65.52954
1170.10 68.33779
1170.20 71.1852
1170.30 73.3706
1170.40 74.6668
1170.50 75.98754
1170.60 77.00249
1170.70 77.46996
1170.80 77.88276
1170.90 78.19351
1171.00 78.04159
1171.10 77.73223
1171.20 77.4405
1171.30 77.45724
1171.40 77.70265
1171.50 77.9532
1171.60 78.15
1171.70 77.87943
1171.80 77.62009
1171.90 77.19082
1172.00 76.93889
1172.10 76.67661
1172.20 76.53927
1172.30 76.59061
1172.40 76.73082
1172.50 76.89552
1172.60 77.09839
1172.70 77.33292
1172.80 77.55693
1172.90 77.7872
1173.00 78.14416
1173.10 78.50801
1173.20 78.84453
1173.30 78.49806
1173.40 78.17324
1173.50 77.75336
1173.60 77.25798
1173.70 76.75413
1173.80 76.36098
1173.90 76.47076
1174.00 76.91783
1174.10 77.37014
1174.20 77.86052
1174.30 78.40108
1174.40 78.93798
1174.50 79.35128
1174.60 79.61199
1174.70 79.8916
1174.80 80.13957
1174.90 80.04379
1175.00 79.85117
1175.10 79.58065
1175.20 79.24578
1175.30 78.88509
1175.40 78.54142
1175.50 78.29844
1175.60 78.30819
1175.70 78.30489
1175.80 78.41303
1175.90 77.89514
1176.00 77.39779
1176.10 76.71796
1176.20 75.74218
1176.30 74.70144
1176.40 73.62022
1176.50 72.54188
1176.60 71.47797
1176.70 70.30301
1176.80 68.26139
1176.90 64.70132
1177.00 61.2211
1177.10 56.57242
1177.20 51.02735
1177.30 45.40105
1177.40 40.38467
1177.50 38.48523
1177.60 37.2242
1177.70 36.96344
1177.80 39.97745
1177.90 44.6323
1178.00 49.27275
1178.10 53.57465
1178.20 57.24481
1178.30 60.99058
1178.40 63.96529
1178.50 65.90643
1178.60 67.86795
1178.70 69.64494
1178.80 70.78971
1178.90 71.86591
1179.00 72.80839
1179.10 73.53564
1179.20 74.09007
1179.30 74.60999
1179.40 74.83659
1179.50 74.83847
1179.60 74.84479
1179.70 74.87514
1179.80 74.95047
1179.90 75.01711
1180.00 75.03268
1180.10 75.40659
1180.20 75.80938
1180.30 76.33226
1180.40 76.87377
1180.50 77.37014
1180.60 77.78757
1180.70 77.80285
1180.80 77.40509
1180.90 77.0103
1181.00 76.62225
1181.10 76.32071
1181.20 76.01822
1181.30 75.72345
1181.40 75.50001
1181.50 75.2833
1181.60 75.11378
1181.70 75.2302
1181.80 75.47278
1181.90 75.74644
1182.00 76.02113
1182.10 76.36176
1182.20 76.68477
1182.30 76.87558
1182.40 76.68649
1182.50 76.52409
1182.60 76.11793
1182.70 75.15745
1182.80 74.21107
1182.90 73.30883
1183.00 72.78042
1183.10 72.4084
1183.20 72.16247
1183.30 72.48804
1183.40 72.98902
1183.50 73.47595
1183.60 73.73942
1183.70 73.42213
1183.80 73.11721
1183.90 72.62232
1184.00 72.91216
1184.10 73.16447
1184.20 73.70575
1184.30 74.81714
1184.40 76.07751
1184.50 77.12116
1184.60 77.57226
1184.70 77.34286
1184.80 77.10288
1184.90 76.5665
1185.00 75.91092
1185.10 75.23742
1185.20 74.60921
1185.30 74.44043
1185.40 74.24729
1185.50 74.25376
1185.60 74.64116
1185.70 75.1162
1185.80 75.55933
1185.90 75.87083
1186.00 76.03754
1186.10 76.18329
1186.20 76.37671
1186.30 76.78152
1186.40 77.19153
1186.50 77.55998
1186.60 77.41405
1186.70 77.28072
1186.80 76.97725
1186.90 76.40248
1187.00 75.74801
1187.10 75.20228
1187.20 74.96723
1187.30 74.99344
1187.40 75.0753
1187.50 75.56833
1187.60 76.22727
1187.70 76.89819
1187.80 77.13145
1187.90 76.74305
1188.00 76.39477
1188.10 75.77548
1188.20 73.99779
1188.30 72.12666
1188.40 70.08923
1188.50 67.84349
1188.60 65.73111
1188.70 64.03695
1188.80 64.31748
1188.90 66.34658
1189.00 68.33895
1189.10 70.57437
1189.20 72.32782
1189.30 74.15458
1189.40 75.41454
1189.50 75.99777
1189.60 76.50813
1189.70 77.10022
1189.80 77.40524
1189.90 77.60687
1190.00 77.77327
1190.10 77.74471
1190.20 77.42629
1190.30 77.09152
1190.40 76.5434
1190.50 75.97639
1190.60 75.41339
1190.70 74.83697
1190.80 74.55412
1190.90 74.23879
1191.00 74.09262
1191.10 74.50793
1191.20 75.1028
1191.30 75.68277
1191.40 76.02611
1191.50 76.1276
1191.60 76.22647
1191.70 76.2658
1191.80 76.19835
1191.90 76.12822
1192.00 76.02727
1192.10 76.26052
1192.20 76.50398
1192.30 76.6769
1192.40 76.46089
1192.50 76.14183
1192.60 75.86869
1192.70 75.74356
1192.80 75.77662
1192.90 75.81467
1193.00 75.89895
1193.10 76.10658
1193.20 76.319
1193.30 76.56348
1193.40 76.5497
1193.50 76.55735
1193.60 76.3359
1193.70 75.48132
1193.80 74.46426
1193.90 73.46994
1194.00 72.66674
1194.10 72.06954
1194.20 71.52936
1194.30 71.40232
1194.40 71.68349
1194.50 71.9704
1194.60 72.12759
1194.70 71.5316
1194.80 70.96177
1194.90 70.07082
1195.00 69.01338
1195.10 67.92748
1195.20 67.16897
1195.30 67.44619
1195.40 68.36758
1195.50 69.34697
1195.60 70.57477
1195.70 71.65084
1195.80 72.75915
1195.90 73.20808
1196.00 72.57231
1196.10 71.94287
1196.20 71.27061
1196.30 70.75976
1196.40 70.26714
1196.50 69.88853
1196.60 69.7843
1196.70 69.78468
1196.80 69.76909
1196.90 69.64725
1197.00 69.40167
1197.10 69.13006
1197.20 68.15254
1197.30 66.11601
1197.40 64.08827
1197.50 61.96033
1197.60 60.83014
1197.70 59.56965
1197.80 58.9999
1197.90 59.75341
1198.00 61.06677
1198.10 62.35658
1198.20 63.40786
1198.30 64.20259
1198.40 65.00987
1198.50 65.9652
1198.60 67.35871
1198.70 68.7706
1198.80 69.92723
1198.90 69.62434
1199.00 69.37172
1199.10 68.84511
1199.20 67.75327
1199.30 66.56853
1199.40 65.54363
1199.50 65.12519
1199.60 65.20692
1199.70 65.32368
1199.80 65.67494
1199.90 66.23148
1200.00 66.7973
