# Version 2.1 - nm, norm@500 to 1, cut digits
# Wavelength(nm)  Flambda(ergs/cm^s/s/nm)
300.00 0.004862683
300.10 0.006554344
300.20 0.007541601
300.30 0.007894541
300.40 0.007932126
300.50 0.007909739
300.60 0.007908574
300.70 0.007922772
300.80 0.007947797
300.90 0.007981706
301.00 0.008024142
301.10 0.008075028
301.20 0.008133019
301.30 0.008195092
301.40 0.008258541
301.50 0.008322018
301.60 0.008385271
301.70 0.008448392
301.80 0.008511445
301.90 0.008574472
302.00 0.008637493
302.10 0.008700514
302.20 0.008763531
302.30 0.008826527
302.40 0.008889472
302.50 0.008952317
302.60 0.009014991
302.70 0.009077687
302.80 0.009141427
302.90 0.009208268
303.00 0.009280502
303.10 0.009359152
303.20 0.009443195
303.30 0.009530338
303.40 0.009618525
303.50 0.009706735
303.60 0.009794773
303.70 0.009882712
303.80 0.009970599
303.90 0.01005847
304.00 0.01014633
304.10 0.01023419
304.20 0.01032207
304.30 0.01041001
304.40 0.0104981
304.50 0.0105865
304.60 0.01067543
304.70 0.01076428
304.80 0.01084994
304.90 0.01092612
305.00 0.01098581
305.10 0.01102587
305.20 0.01104944
305.30 0.01106352
305.40 0.01107441
305.50 0.01108523
305.60 0.01109658
305.70 0.01110823
305.80 0.01112004
305.90 0.0111319
306.00 0.01114379
306.10 0.01115567
306.20 0.01116755
306.30 0.01117944
306.40 0.01119132
306.50 0.0112032
306.60 0.01121508
306.70 0.01122696
306.80 0.01123885
306.90 0.01125076
307.00 0.01126271
307.10 0.01127469
307.20 0.01128672
307.30 0.01129876
307.40 0.01131081
307.50 0.01132286
307.60 0.01133491
307.70 0.01134696
307.80 0.01135901
307.90 0.01137105
308.00 0.0113831
308.10 0.01139515
308.20 0.01140716
308.30 0.01141902
308.40 0.01143049
308.50 0.01144119
308.60 0.01145058
308.70 0.01146015
308.80 0.0114777
308.90 0.01151899
309.00 0.01160156
309.10 0.01173324
309.20 0.01190621
309.30 0.01210291
309.40 0.0123076
309.50 0.01251246
309.60 0.01271601
309.70 0.0129188
309.80 0.01312119
309.90 0.01332344
310.00 0.01352564
310.10 0.01372785
310.20 0.01393009
310.30 0.01413248
310.40 0.01433527
310.50 0.01453883
310.60 0.01474371
310.70 0.01494841
310.80 0.01514508
310.90 0.01531789
311.00 0.01544921
311.10 0.01553115
311.20 0.01557158
311.30 0.01558816
311.40 0.01559672
311.50 0.01560509
311.60 0.01561478
311.70 0.01562525
311.80 0.0156361
311.90 0.01564711
312.00 0.01565816
312.10 0.01566921
312.20 0.01568021
312.30 0.01569102
312.40 0.01570135
312.50 0.01571072
312.60 0.01571847
312.70 0.01572643
312.80 0.01574431
312.90 0.01579166
313.00 0.01589027
313.10 0.01604985
313.20 0.01626068
313.30 0.01650099
313.40 0.01675121
313.50 0.01700164
313.60 0.01725046
313.70 0.01749831
313.80 0.01774569
313.90 0.01799287
314.00 0.01824001
314.10 0.01848715
314.20 0.01873426
314.30 0.01898123
314.40 0.01922787
314.50 0.01947384
314.60 0.01971868
314.70 0.01996368
314.80 0.02021557
314.90 0.02048798
315.00 0.02079607
315.10 0.0211466
315.20 0.02153281
315.30 0.02193953
315.40 0.02235316
315.50 0.02276694
315.60 0.02317958
315.70 0.02359156
315.80 0.02400321
315.90 0.02441472
316.00 0.0248262
316.10 0.02523768
316.20 0.02564928
316.30 0.02606136
316.40 0.02647468
316.50 0.02689045
316.60 0.02731036
316.70 0.02772973
316.80 0.02812373
316.90 0.02844232
317.00 0.02862977
317.10 0.02866119
317.20 0.02856146
317.30 0.02838633
317.40 0.02818583
317.50 0.02798478
317.60 0.02778788
317.70 0.02759343
317.80 0.02740021
317.90 0.02720749
318.00 0.02701487
318.10 0.02682226
318.20 0.02662956
318.30 0.02643649
318.40 0.02624247
318.50 0.02604657
318.60 0.0258475
318.70 0.02564885
318.80 0.02546962
318.90 0.02534811
319.00 0.02532699
319.10 0.02542531
319.20 0.02562402
319.30 0.02588045
319.40 0.0261563
319.50 0.02643257
319.60 0.02670567
319.70 0.02697689
319.80 0.02724717
319.90 0.02751707
320.00 0.02778688
320.10 0.0280567
320.20 0.02832654
320.30 0.02859653
320.40 0.02886686
320.50 0.02913789
320.60 0.02941009
320.70 0.02968214
320.80 0.029947
320.90 0.03019052
321.00 0.03039691
321.10 0.03055912
321.20 0.0306842
321.30 0.03078794
321.40 0.03088449
321.50 0.03098089
321.60 0.03107846
321.70 0.03117672
321.80 0.03127534
321.90 0.03137409
322.00 0.03147288
322.10 0.03157166
322.20 0.03167033
322.30 0.03176849
322.40 0.03186538
322.50 0.03195973
322.60 0.03204979
322.70 0.03214042
322.80 0.03225729
322.90 0.03245213
323.00 0.03278259
323.10 0.03327441
323.20 0.03390185
323.30 0.03460726
323.40 0.03533891
323.50 0.03607113
323.60 0.03679906
323.70 0.03752446
323.80 0.03824858
323.90 0.03897219
324.00 0.03969569
324.10 0.04041918
324.20 0.0411427
324.30 0.04186629
324.40 0.0425901
324.50 0.04331431
324.60 0.04403923
324.70 0.04476405
324.80 0.04548461
324.90 0.0461925
325.00 0.04687836
325.10 0.04753801
325.20 0.04817563
325.30 0.04880059
325.40 0.04942128
325.50 0.05004188
325.60 0.05066318
325.70 0.05128489
325.80 0.0519068
325.90 0.0525288
326.00 0.05315082
326.10 0.05377284
326.20 0.05439481
326.30 0.05501661
326.40 0.05563796
326.50 0.05625843
326.60 0.05687739
326.70 0.05749656
326.80 0.0581249
326.90 0.05878055
327.00 0.05948368
327.10 0.0602433
327.20 0.06105041
327.30 0.06188482
327.40 0.06272841
327.50 0.0635722
327.60 0.06441448
327.70 0.06525589
327.80 0.06609684
327.90 0.06693762
328.00 0.06777835
328.10 0.06861909
328.20 0.06946006
328.30 0.07030208
328.40 0.07114672
328.50 0.07199656
328.60 0.07285522
328.70 0.0737127
328.80 0.0745163
328.90 0.07515972
329.00 0.07552453
329.10 0.07555789
329.20 0.07531264
329.30 0.07490721
329.40 0.0744479
329.50 0.07398741
329.60 0.07353574
329.70 0.07308927
329.80 0.07264542
329.90 0.07220262
330.00 0.07176005
330.10 0.07131748
330.20 0.07087474
330.30 0.07043123
330.40 0.06998576
330.50 0.06953644
330.60 0.06908058
330.70 0.06862559
330.80 0.06821058
330.90 0.06791438
331.00 0.06782486
331.10 0.06798121
331.20 0.06834424
331.30 0.06882608
331.40 0.06934791
331.50 0.06987059
331.60 0.07038675
331.70 0.07089904
331.80 0.07140939
331.90 0.07191896
332.00 0.07242836
332.10 0.07293776
332.20 0.07344727
332.30 0.07395726
332.40 0.0744685
332.50 0.07498217
332.60 0.07549998
332.70 0.07601725
332.80 0.0765092
332.90 0.07692592
333.00 0.07721179
333.10 0.07734199
333.20 0.07734133
333.30 0.07726544
333.40 0.07716424
333.50 0.07706249
333.60 0.07696488
333.70 0.07686971
333.80 0.07677578
333.90 0.07668234
334.00 0.076589
334.10 0.07649417
334.20 0.07639535
334.30 0.07629117
334.40 0.07618153
334.50 0.07606754
334.60 0.07604041
334.70 0.07630228
334.80 0.07692191
334.90 0.07751639
335.00 0.07737
335.10 0.0762756
335.20 0.07532134
335.30 0.07656739
335.40 0.0814747
335.50 0.08929324
335.60 0.09696242
335.70 0.1009111
335.80 0.09937949
335.90 0.09329654
336.00 0.08528217
336.10 0.07801473
336.20 0.07333947
336.30 0.07199972
336.40 0.07330735
336.50 0.07522453
336.60 0.07557069
336.70 0.07382467
336.80 0.07179617
336.90 0.07221821
337.00 0.07642436
337.10 0.0830753
337.20 0.0889406
337.30 0.09113109
337.40 0.0891353
337.50 0.08514439
337.60 0.08237768
337.70 0.08269318
337.80 0.08549794
337.90 0.08883398
338.00 0.09121455
338.10 0.09224252
338.20 0.09170397
338.30 0.08887027
338.40 0.08346598
338.50 0.07710868
338.60 0.07306292
338.70 0.07387398
338.80 0.0789726
338.90 0.08485223
339.00 0.08788434
339.10 0.08729766
339.20 0.08566258
339.30 0.08638463
339.40 0.09059078
339.50 0.09641476
339.60 0.1010426
339.70 0.1030986
339.80 0.1029998
339.90 0.1015435
340.00 0.09904319
340.10 0.09581005
340.20 0.09256777
340.30 0.08985261
340.40 0.08724999
340.50 0.08379563
340.60 0.0792301
340.70 0.07451872
340.80 0.07106158
340.90 0.06965051
341.00 0.07022511
341.10 0.07229975
341.20 0.07532629
341.30 0.07866462
341.40 0.08155639
341.50 0.08342686
341.60 0.08424252
341.70 0.08453433
341.80 0.08500815
341.90 0.08603446
342.00 0.08732557
342.10 0.08799056
342.20 0.08707331
342.30 0.08434701
342.40 0.0807437
342.50 0.07787416
342.60 0.07693438
342.70 0.07795157
342.80 0.07994429
342.90 0.08169551
343.00 0.0825031
343.10 0.08249764
343.20 0.08237267
343.30 0.08272287
343.40 0.08353467
343.50 0.08430714
343.60 0.08458571
343.70 0.08424282
343.80 0.08337056
343.90 0.08219028
344.00 0.08111089
344.10 0.08060677
344.20 0.08079745
344.30 0.08123477
344.40 0.08129004
344.50 0.08074815
344.60 0.07997492
344.70 0.07958886
344.80 0.08006405
344.90 0.08157133
345.00 0.08403145
345.10 0.08718247
345.20 0.09059107
345.30 0.09364847
345.40 0.09566708
345.50 0.09621864
345.60 0.09550305
345.70 0.09431693
345.80 0.09350937
345.90 0.09338645
346.00 0.09357182
346.10 0.0933276
346.20 0.09206241
346.30 0.08978936
346.40 0.08727411
346.50 0.0855864
346.60 0.08524557
346.70 0.08576588
346.80 0.08610632
346.90 0.0855157
347.00 0.08391653
347.10 0.08176097
347.20 0.07980321
347.30 0.07888624
347.40 0.07954546
347.50 0.0815824
347.60 0.08415749
347.70 0.08643987
347.80 0.08817093
347.90 0.08965143
348.00 0.09129875
348.10 0.09320096
348.20 0.0949731
348.30 0.0960189
348.40 0.09602005
348.50 0.09521708
348.60 0.094159
348.70 0.09319721
348.80 0.09231598
348.90 0.0913841
349.00 0.09039387
349.10 0.08943345
349.20 0.08858373
349.30 0.08796696
349.40 0.08780832
349.50 0.08825059
349.60 0.08906772
349.70 0.08969819
349.80 0.08973847
349.90 0.08950483
350.00 0.08999838
350.10 0.09212087
350.20 0.0958212
350.30 0.100004
350.40 0.1032917
350.50 0.1049098
350.60 0.1049473
350.70 0.1039767
350.80 0.1025782
350.90 0.1010676
351.00 0.09937205
351.10 0.09705852
351.20 0.09365578
351.30 0.08922582
351.40 0.08467893
351.50 0.08132572
351.60 0.07993434
351.70 0.08017966
351.80 0.08101456
351.90 0.08154212
352.00 0.08151551
352.10 0.08112108
352.20 0.0805683
352.30 0.08003248
352.40 0.0799008
352.50 0.08089598
352.60 0.08368098
352.70 0.08817819
352.80 0.09330589
352.90 0.09758909
353.00 0.1002588
353.10 0.1017536
353.20 0.103069
353.30 0.1047502
353.40 0.1066555
353.50 0.1085082
353.60 0.1103603
353.70 0.1124232
353.80 0.1147035
353.90 0.1169875
354.00 0.1189924
354.10 0.1203416
354.20 0.1205705
354.30 0.1194861
354.40 0.1175722
354.50 0.1158239
354.60 0.1149958
354.70 0.1150369
354.80 0.1153053
354.90 0.1152345
355.00 0.1147199
355.10 0.1139911
355.20 0.113293
355.30 0.1127417
355.40 0.1123965
355.50 0.112287
355.60 0.112288
355.70 0.112036
355.80 0.1111024
355.90 0.1093525
356.00 0.1071095
356.10 0.1048914
356.20 0.1029638
356.30 0.1011212
356.40 0.09889958
356.50 0.09606552
356.60 0.09297315
356.70 0.090435
356.80 0.08914981
356.90 0.08918443
357.00 0.08997865
357.10 0.09078463
357.20 0.09106362
357.30 0.09059479
357.40 0.08940128
357.50 0.08767237
357.60 0.08570886
357.70 0.08381636
357.80 0.08217742
357.90 0.08080994
358.00 0.07968421
358.10 0.07892305
358.20 0.07885632
358.30 0.07980386
358.40 0.08176033
358.50 0.08427859
358.60 0.08664555
358.70 0.08819159
358.80 0.08857263
358.90 0.08793943
359.00 0.0869511
359.10 0.0865294
359.20 0.08735104
359.30 0.08937402
359.40 0.0917842
359.50 0.09350709
359.60 0.0939403
359.70 0.09333224
359.80 0.09251156
359.90 0.09219246
360.00 0.09240964
360.10 0.09251895
360.20 0.09174043
360.30 0.08977405
360.40 0.0870368
360.50 0.08444523
360.60 0.0829833
360.70 0.08330735
360.80 0.08544784
360.90 0.08873999
361.00 0.09215387
361.10 0.09488803
361.20 0.09675654
361.30 0.0980212
361.40 0.09890132
361.50 0.09935202
361.60 0.09935576
361.70 0.09923911
361.80 0.09949302
361.90 0.1002679
362.00 0.1011873
362.10 0.1017387
362.20 0.1017434
362.30 0.1014068
362.40 0.101071
362.50 0.1010219
362.60 0.1013556
362.70 0.1018135
362.80 0.1018276
362.90 0.1009694
363.00 0.09944286
363.10 0.09802398
363.20 0.09742983
363.30 0.09778063
363.40 0.09865465
363.50 0.09953211
363.60 0.100133
363.70 0.100443
363.80 0.1005348
363.90 0.1003937
364.00 0.09987124
364.10 0.09878991
364.20 0.09711808
364.30 0.09506956
364.40 0.0930577
364.50 0.09155737
364.60 0.09091644
364.70 0.09115564
364.80 0.09192632
364.90 0.09277172
365.00 0.0935471
365.10 0.09457498
365.20 0.09626428
365.30 0.09852636
365.40 0.1006304
365.50 0.1017176
365.60 0.1015171
365.70 0.1005537
365.80 0.09964001
365.90 0.09921234
366.00 0.09916615
366.10 0.09923437
366.20 0.09939677
366.30 0.0998454
366.40 0.1006387
366.50 0.1015095
366.60 0.1020075
366.70 0.1017934
366.80 0.100816
366.90 0.09928603
367.00 0.09756274
367.10 0.09605426
367.20 0.09513145
367.30 0.09503161
367.40 0.09575298
367.50 0.09703339
367.60 0.09847879
367.70 0.09977042
367.80 0.1008004
367.90 0.1016471
368.00 0.1024366
368.10 0.1032032
368.20 0.103841
368.30 0.1041568
368.40 0.1039955
368.50 0.1033818
368.60 0.102581
368.70 0.1019861
368.80 0.1018744
368.90 0.1022346
369.00 0.1028477
369.10 0.1035453
369.20 0.1043273
369.30 0.1051947
369.40 0.1059379
369.50 0.1061882
369.60 0.105737
369.70 0.1047866
369.80 0.1038794
369.90 0.103587
370.00 0.1042117
370.10 0.105668
370.20 0.1075811
370.30 0.1094906
370.40 0.1110107
370.50 0.1118933
370.60 0.1120558
370.70 0.1116516
370.80 0.1110816
370.90 0.1108181
371.00 0.1110999
371.10 0.1117363
371.20 0.1121787
371.30 0.1118032
371.40 0.110256
371.50 0.1076835
371.60 0.1047114
371.70 0.1021484
371.80 0.1006148
371.90 0.1003419
372.00 0.1011931
372.10 0.1027033
372.20 0.1040375
372.30 0.1041301
372.40 0.1021765
372.50 0.0982594
372.60 0.09354272
372.70 0.08974388
372.80 0.08825022
372.90 0.08950805
373.00 0.09299481
373.10 0.09760507
373.20 0.102116
373.30 0.1055208
373.40 0.1072283
373.50 0.1070987
373.60 0.1053182
373.70 0.1022275
373.80 0.09824849
373.90 0.09393493
374.00 0.08998939
374.10 0.087141
374.20 0.08595396
374.30 0.08672824
374.40 0.08952929
374.50 0.0942116
374.60 0.10035
374.70 0.1071404
374.80 0.1134429
374.90 0.1180773
375.00 0.1202393
375.10 0.1197666
375.20 0.1171079
375.30 0.1130896
375.40 0.1086604
375.50 0.1046926
375.60 0.1017704
375.70 0.1000262
375.80 0.09915172
375.90 0.09862816
376.00 0.09806718
376.10 0.09747905
376.20 0.09733117
376.30 0.0983502
376.40 0.101167
376.50 0.1060505
376.60 0.1129065
376.70 0.1213632
376.80 0.1307066
376.90 0.1397018
377.00 0.1466869
377.10 0.1501557
377.20 0.1494651
377.30 0.1450916
377.40 0.1382783
377.50 0.1304363
377.60 0.1227357
377.70 0.1159983
377.80 0.1106765
377.90 0.1068332
378.00 0.1042071
378.10 0.1024157
378.20 0.1011696
378.30 0.1003204
378.40 0.09976639
378.50 0.09941773
378.60 0.09928083
378.70 0.09950674
378.80 0.1003211
378.90 0.101979
379.00 0.1048577
379.10 0.109515
379.20 0.1164658
379.30 0.125757
379.40 0.1367002
379.50 0.1479746
379.60 0.1579404
379.70 0.1649691
379.80 0.1678164
379.90 0.1660181
380.00 0.1601365
380.10 0.151596
380.20 0.1421307
380.30 0.1331769
380.40 0.1255679
380.50 0.1195684
380.60 0.1150612
380.70 0.1117023
380.80 0.1090313
380.90 0.1066634
381.00 0.1044769
381.10 0.1026025
381.20 0.1011866
381.30 0.1001695
381.40 0.09935349
381.50 0.0986945
381.60 0.09809804
381.70 0.09739806
381.80 0.09620706
381.90 0.09366045
382.00 0.08868314
382.10 0.07068651
382.20 0.00650429
382.30 0
382.40 0
382.50 0
382.60 0
382.70 0
382.80 0
382.90 0
383.00 0.1084716
383.10 0.4272021
383.20 0.6074691
383.30 0.6327877
383.40 0.5205507
383.50 0.3421038
383.60 0.2102995
383.70 0.2072944
383.80 0.3046071
383.90 0.3918985
384.00 0.4023244
384.10 0.3523137
384.20 0.2701855
384.30 0.1425788
384.40 0
384.50 0
384.60 0.1357558
384.70 0.5516551
384.80 1.001072
384.90 1.248051
385.00 1.154822
385.10 0.7810819
385.20 0.3681976
385.30 0.1906113
385.40 0.3423816
385.50 0.6640758
385.60 0.9075858
385.70 0.9376386
385.80 0.7691939
385.90 0.4907345
386.00 0.2102203
386.10 0.02602833
386.20 0
386.30 0.05491925
386.40 0.1506649
386.50 0.2342086
386.60 0.3110112
386.70 0.3905522
386.80 0.4587589
386.90 0.5148897
387.00 0.5830718
387.10 0.6687684
387.20 0.7448952
387.30 0.7901131
387.40 0.8233853
387.50 0.8577301
387.60 0.851176
387.70 0.759822
387.80 0.6446137
387.90 0.6268835
388.00 0.7247693
388.10 0.8032212
388.20 0.72063
388.30 0.4991042
388.40 0.2725831
388.50 0.1453556
388.60 0.1410437
388.70 0.2463384
388.80 0.4331343
388.90 0.6379544
389.00 0.7796789
389.10 0.8064205
389.20 0.7136438
389.30 0.5210959
389.40 0.2692022
389.50 0.05042648
389.60 0.03671596
389.70 0.02273977
389.80 0.1505762
389.90 0.1631379
390.00 0.005643541
390.10 0.002605564
390.20 0.004878414
390.30 0.04761722
390.40 0.1972034
390.50 0.1735602
390.60 0.06783936
390.70 0.07158764
390.80 0.2493126
390.90 0.4683607
391.00 0.5395055
391.10 0.3658765
391.20 0
391.30 0
391.40 0
391.50 0
391.60 0
391.70 0
391.80 0.01893275
391.90 0.04378239
392.00 0.05815277
392.10 0.06620467
392.20 0.06717658
392.30 0.1556505
392.40 0.1378893
392.50 0.03380598
392.60 0.02664761
392.70 0.02379479
392.80 0.02332803
392.90 0.02934069
393.00 0.2834682
393.10 0.8355308
393.20 1.436989
393.30 1.955396
393.40 2.132744
393.50 1.798883
393.60 1.111781
393.70 0.4643653
393.80 0.1465985
393.90 0.1352874
394.00 0.2038057
394.10 0.1647
394.20 0.006249748
394.30 0
394.40 0
394.50 0.0115658
394.60 0.02785531
394.70 0.09105245
394.80 0.03818737
394.90 0.03793773
395.00 0.03788915
395.10 0.0391032
395.20 0.0404432
395.30 0.04201898
395.40 0.04681045
395.50 0.2668167
395.60 0.649047
395.70 0.7736281
395.80 0.5816677
395.90 0.2357948
396.00 0.02759737
396.10 0
396.20 0
396.30 0
396.40 0
396.50 0.0919242
396.60 0.4375681
396.70 0.9243666
396.80 1.437651
396.90 1.804255
397.00 1.914635
397.10 1.771373
397.20 1.4441
397.30 0.999808
397.40 0.5460872
397.50 0.2154656
397.60 0.1004269
397.70 0.1842438
397.80 0.3474231
397.90 0.4734684
398.00 0.5433162
398.10 0.6156488
398.20 0.7202613
398.30 0.7992145
398.40 0.7624808
398.50 0.5814873
398.60 0.3249042
398.70 0.08748804
398.80 0.06729234
398.90 0.06174323
399.00 0.05535217
399.10 0.05052754
399.20 0.04743498
399.30 0.04422623
399.40 0.0392042
399.50 0.03254622
399.60 0.06791198
399.70 0.1101626
399.80 0.0954875
399.90 0.06757282
400.00 0.07232723
400.10 0.1188225
400.20 0.1652766
400.30 0.153431
400.40 0.07000355
400.50 0
400.60 0
400.70 0
400.80 0
400.90 0.1020204
401.00 0.1908731
401.10 0.202693
401.20 0.1033071
401.30 0.04858383
401.40 0.04938014
401.50 0.04688674
401.60 0.04152018
401.70 0.1692983
401.80 0.2841404
401.90 0.3266537
402.00 0.3245995
402.10 0.3366765
402.20 0.4057996
402.30 0.5081046
402.40 0.5617956
402.50 0.5141738
402.60 0.3993276
402.70 0.2804551
402.80 0.1761696
402.90 0.07902715
403.00 0.009262923
403.10 0.01265675
403.20 0.09000974
403.30 0.1739979
403.40 0.1904
403.50 0.1211621
403.60 0.01260409
403.70 0
403.80 0
403.90 0
404.00 0
404.10 0
404.20 0.03600131
404.30 0.1617165
404.40 0.3280728
404.50 0.4807218
404.60 0.5597869
404.70 0.5142794
404.80 0.346578
404.90 0.1461091
405.00 0.02610558
405.10 0.02127814
405.20 0.07219945
405.30 0.1160067
405.40 0.1587893
405.50 0.2304385
405.60 0.2994827
405.70 0.2948541
405.80 0.2180569
405.90 0.1510297
406.00 0.1725308
406.10 0.269846
406.20 0.3657931
406.30 0.4147692
406.40 0.4368288
406.50 0.4553724
406.60 0.4757465
406.70 0.4877152
406.80 0.4722002
406.90 0.4075356
407.00 0.2748418
407.10 0.09518708
407.20 0.01254503
407.30 0.01034456
407.40 0.007484431
407.50 0.09743421
407.60 0.1749216
407.70 0.2134746
407.80 0.239297
407.90 0.2525655
408.00 0.2357745
408.10 0.1911594
408.20 0.1422216
408.30 0.1134715
408.40 0.1096128
408.50 0.1309159
408.60 0.1749747
408.70 0.2175657
408.80 0.2128382
408.90 0.1350916
409.00 0.0337238
409.10 0.01021809
409.20 0.1004842
409.30 0.2344609
409.40 0.2816923
409.50 0.2143508
409.60 0.1436054
409.70 0.2040625
409.80 0.4243598
409.90 0.7281537
410.00 1.01166
410.10 1.190276
410.20 1.204199
410.30 1.032944
410.40 0.7203987
410.50 0.363982
410.60 0.0663063
410.70 0.04799444
410.80 0.04390032
410.90 0.03950406
411.00 0.03470831
411.10 0.03136423
411.20 0.02909892
411.30 0.02620373
411.40 0.02342667
411.50 0.02411474
411.60 0.250408
411.70 0.6434685
411.80 0.910707
411.90 0.9887022
412.00 0.9168476
412.10 0.7822707
412.20 0.650616
412.30 0.5526197
412.40 0.4771237
412.50 0.4020422
412.60 0.3195467
412.70 0.2360243
412.80 0.1604872
412.90 0.09724112
413.00 0.05027392
413.10 0.02580326
413.20 0.02050998
413.30 0.02707516
413.40 0.04427839
413.50 0.07268407
413.60 0.1091352
413.70 0.1490756
413.80 0.1847627
413.90 0.192345
414.00 0.1364379
414.10 0
414.20 0
414.30 0
414.40 0.007200242
414.50 0.01683902
414.60 0.02966772
414.70 0.03992317
414.80 0.1672623
414.90 0.2526733
415.00 0.1533257
415.10 0.03918366
415.20 0.03122336
415.30 0.02430407
415.40 0.02028229
415.50 0.02156231
415.60 0.0292624
415.70 0.0416217
415.80 0.05003593
415.90 0.05231772
416.00 0.1080457
416.10 0.1975101
416.20 0.2775089
416.30 0.2944001
416.40 0.2065389
416.50 0.03489701
416.60 0.01638092
416.70 0.02227859
416.80 0.03101175
416.90 0.03342516
417.00 0.08037867
417.10 0.2351539
417.20 0.2784065
417.30 0.2612978
417.40 0.264525
417.50 0.290014
417.60 0.2700388
417.70 0.1672546
417.80 0.02895383
417.90 0.03611613
418.00 0.04021569
418.10 0.04298131
418.20 0.04410391
418.30 0.03666698
418.40 0.02542136
418.50 0.05379416
418.60 0.3036648
418.70 0.5724754
418.80 0.8106445
418.90 0.9880095
419.00 1.106564
419.10 1.167029
419.20 1.147655
419.30 1.031538
419.40 0.8415078
419.50 0.6240358
419.60 0.4230454
419.70 0.2760823
419.80 0.2037416
419.90 0.2019488
420.00 0.2199767
420.10 0.1906078
420.20 0.08903591
420.30 0.02636003
420.40 0.03212703
420.50 0.03888186
420.60 0.04365935
420.70 0.04949015
420.80 0.1429093
420.90 0.1970795
421.00 0.1844591
421.10 0.1543916
421.20 0.1854051
421.30 0.3083393
421.40 0.4711968
421.50 0.6084712
421.60 0.6756219
421.70 0.6771416
421.80 0.6387877
421.90 0.5777784
422.00 0.5036882
422.10 0.4371095
422.20 0.4032663
422.30 0.3918659
422.40 0.3410697
422.50 0.1977085
422.60 0.008203124
422.70 0.004879458
422.80 0.005943044
422.90 0.008322767
423.00 0.008394901
423.10 0.00476686
423.20 0
423.30 0
423.40 0
423.50 0.07408198
423.60 0.3005426
423.70 0.4582989
423.80 0.5205345
423.90 0.4972409
424.00 0.4119209
424.10 0.292365
424.20 0.1643281
424.30 0.04250258
424.40 0
424.50 0.001414935
424.60 0.003552386
424.70 0.002307326
424.80 0.1071017
424.90 0.2551408
425.00 0.3847553
425.10 0.4593266
425.20 0.4544376
425.30 0.382637
425.40 0.2863179
425.50 0.2184313
425.60 0.2149957
425.70 0.2727636
425.80 0.3492596
425.90 0.3859043
426.00 0.3524783
426.10 0.2746767
426.20 0.2027914
426.30 0.1670214
426.40 0.1814561
426.50 0.2464171
426.60 0.3215786
426.70 0.3174507
426.80 0.1682018
426.90 0.004235282
427.00 0.009205678
427.10 0.01369518
427.20 0.01722445
427.30 0.02040281
427.40 0.02368185
427.50 0.02379442
427.60 0.02005882
427.70 0.01491242
427.80 0.05026471
427.90 0.05495012
428.00 0.02414491
428.10 0.01135156
428.20 0.02185687
428.30 0.03384308
428.40 0.03352567
428.50 0.02385176
428.60 0.006254162
428.70 0
428.80 0
428.90 0
429.00 0
429.10 0.07474996
429.20 0.1840225
429.30 0.2506268
429.40 0.2967732
429.50 0.3408819
429.60 0.3841093
429.70 0.4013274
429.80 0.3656312
429.90 0.2998982
430.00 0.2775792
430.10 0.3396489
430.20 0.4351842
430.30 0.4780103
430.40 0.4498785
430.50 0.4156466
430.60 0.4249682
430.70 0.4462737
430.80 0.4219903
430.90 0.343598
431.00 0.2464623
431.10 0.1626342
431.20 0.100338
431.30 0.05476922
431.40 0.01299301
431.50 0
431.60 0
431.70 0
431.80 0
431.90 0
432.00 0
432.10 0.07725273
432.20 0.2060372
432.30 0.336397
432.40 0.4330589
432.50 0.453518
432.60 0.3773357
432.70 0.2426129
432.80 0.1353705
432.90 0.108774
433.00 0.1210661
433.10 0.0823648
433.20 0.03375793
433.30 0.03348132
433.40 0.03075122
433.50 0.02699683
433.60 0.02495193
433.70 0.05354399
433.80 0.3287809
433.90 0.7126785
434.00 1.136575
434.10 1.448289
434.20 1.503864
434.30 1.290403
434.40 0.9472494
434.50 0.6546782
434.60 0.5037373
434.70 0.4646862
434.80 0.4518518
434.90 0.4020466
435.00 0.30704
435.10 0.2004924
435.20 0.1248769
435.30 0.1005914
435.40 0.1205951
435.50 0.1764302
435.60 0.2878117
435.70 0.454512
435.80 0.6065955
435.90 0.619144
436.00 0.4323036
436.10 0.1440608
436.20 0.0360434
436.30 0.02221991
436.40 0.111361
436.50 0.243903
436.60 0.2800581
436.70 0.2744363
436.80 0.3218076
436.90 0.4432461
437.00 0.5660827
437.10 0.6040589
437.20 0.5312137
437.30 0.3879981
437.40 0.2390091
437.50 0.1294012
437.60 0.07166103
437.70 0.06052036
437.80 0.09413048
437.90 0.1602757
438.00 0.2279532
438.10 0.2452784
438.20 0.1881064
438.30 0.08663507
438.40 0.02459991
438.50 0.01974095
438.60 0.01729554
438.70 0.03069904
438.80 0.111148
438.90 0.2348796
439.00 0.3450763
439.10 0.3648416
439.20 0.2833974
439.30 0.167304
439.40 0.08245284
439.50 0.04941811
439.60 0.0465413
439.70 0.04267343
439.80 0.04031396
439.90 0.1348327
440.00 0.2506585
440.10 0.2786597
440.20 0.1921743
440.30 0.04748874
440.40 0.03363088
440.50 0.03207532
440.60 0.0279557
440.70 0.0271127
440.80 0.03119889
440.90 0.1949738
441.00 0.3919064
441.10 0.5451836
441.20 0.6086975
441.30 0.5862392
441.40 0.5322374
441.50 0.5049654
441.60 0.5227666
441.70 0.5577495
441.80 0.5614125
441.90 0.5042799
442.00 0.4031021
442.10 0.3120687
442.20 0.2818081
442.30 0.3196044
442.40 0.3798907
442.50 0.4004016
442.60 0.3557516
442.70 0.2790272
442.80 0.2349453
442.90 0.2631593
443.00 0.3396969
443.10 0.3957777
443.20 0.3749734
443.30 0.2750301
443.40 0.1416227
443.50 0.06106314
443.60 0.05372348
443.70 0.05489369
443.80 0.1942375
443.90 0.3420221
444.00 0.431648
444.10 0.45346
444.20 0.4522567
444.30 0.4666074
444.40 0.4853061
444.50 0.4623657
444.60 0.3813581
444.70 0.2837899
444.80 0.2286782
444.90 0.2502189
445.00 0.3408067
445.10 0.4771215
445.20 0.6396596
445.30 0.7881184
445.40 0.8494402
445.50 0.7712215
445.60 0.5825639
445.70 0.4054925
445.80 0.3178245
445.90 0.3016512
446.00 0.2991448
446.10 0.3014966
446.20 0.3524305
446.30 0.4780327
446.40 0.6411368
446.50 0.7632931
446.60 0.7771017
446.70 0.6751954
446.80 0.5272107
446.90 0.4337066
447.00 0.4405134
447.10 0.5001863
447.20 0.5318882
447.30 0.5084154
447.40 0.4616813
447.50 0.4226771
447.60 0.3845802
447.70 0.3146125
447.80 0.1952927
447.90 0.05398062
448.00 0.05090822
448.10 0.05067698
448.20 0.08621532
448.30 0.2500166
448.40 0.3772131
448.50 0.4404177
448.60 0.4729972
448.70 0.5166108
448.80 0.5719681
448.90 0.6121923
449.00 0.6315352
449.10 0.656711
449.20 0.7097964
449.30 0.7715706
449.40 0.7929867
449.50 0.7466286
449.60 0.6569456
449.70 0.5743878
449.80 0.5325432
449.90 0.5281658
450.00 0.5363015
450.10 0.5378534
450.20 0.5262609
450.30 0.5076145
450.40 0.4978506
450.50 0.5052579
450.60 0.5156812
450.70 0.5074773
450.80 0.4774333
450.90 0.4482293
451.00 0.4467502
451.10 0.4766359
451.20 0.5215645
451.30 0.560073
451.40 0.575523
451.50 0.5568619
451.60 0.4982935
451.70 0.4096091
451.80 0.3257785
451.90 0.2923553
452.00 0.3278588
452.10 0.4078992
452.20 0.4912393
452.30 0.5608862
452.40 0.6322414
452.50 0.7229681
452.60 0.8220649
452.70 0.8890243
452.80 0.8796824
452.90 0.7881759
453.00 0.6690019
453.10 0.5992706
453.20 0.6154381
453.30 0.6853323
453.40 0.73966
453.50 0.726908
453.60 0.6432323
453.70 0.5266415
453.80 0.4356842
453.90 0.4095794
454.00 0.4384404
454.10 0.4797138
454.20 0.4962523
454.30 0.4860256
454.40 0.4774703
454.50 0.4882491
454.60 0.4935996
454.70 0.4481864
454.80 0.3360498
454.90 0.1962982
455.00 0.09836213
455.10 0.1029317
455.20 0.2446691
455.30 0.5005114
455.40 0.7657613
455.50 0.9115694
455.60 0.8913674
455.70 0.7725975
455.80 0.6525891
455.90 0.5704079
456.00 0.5162086
456.10 0.4863375
456.20 0.4931168
456.30 0.5381004
456.40 0.6027999
456.50 0.6681817
456.60 0.7257894
456.70 0.7734958
456.80 0.808755
456.90 0.8273697
457.00 0.8318298
457.10 0.8322968
457.20 0.8406769
457.30 0.8691109
457.40 0.9229536
457.50 0.978476
457.60 0.9794918
457.70 0.879613
457.80 0.7024554
457.90 0.5406426
458.00 0.4732031
458.10 0.5098946
458.20 0.6083701
458.30 0.7100167
458.40 0.7602047
458.50 0.722685
458.60 0.6052942
458.70 0.4645969
458.80 0.3663442
458.90 0.3413149
459.00 0.3698629
459.10 0.3946436
459.20 0.3697439
459.30 0.3128373
459.40 0.2908973
459.50 0.3456786
459.60 0.4431103
459.70 0.5166449
459.80 0.5441061
459.90 0.5531176
460.00 0.5660891
460.10 0.5710574
460.20 0.5474569
460.30 0.4934122
460.40 0.4197411
460.50 0.337909
460.60 0.2643494
460.70 0.2182098
460.80 0.2131122
460.90 0.2634261
461.00 0.387122
461.10 0.5760026
461.20 0.7608982
461.30 0.8498158
461.40 0.8207363
461.50 0.7443403
461.60 0.6989019
461.70 0.6887249
461.80 0.671357
461.90 0.6352899
462.00 0.6153512
462.10 0.6413657
462.20 0.7068499
462.30 0.7919376
462.40 0.880826
462.50 0.9460948
462.60 0.9417933
462.70 0.8386741
462.80 0.6539671
462.90 0.4454815
463.00 0.2872174
463.10 0.238046
463.20 0.3072698
463.30 0.4380013
463.40 0.5478094
463.50 0.5995332
463.60 0.6200587
463.70 0.6416417
463.80 0.6532422
463.90 0.6245182
464.00 0.5542615
464.10 0.4809124
464.20 0.4472152
464.30 0.4627372
464.40 0.5040265
464.50 0.5440279
464.60 0.5786137
464.70 0.6275728
464.80 0.7050521
464.90 0.7879468
465.00 0.8272096
465.10 0.7953348
465.20 0.7135029
465.30 0.6286101
465.40 0.5752233
465.50 0.5649163
465.60 0.6016797
465.70 0.6887372
465.80 0.8124273
465.90 0.9374839
466.00 1.019971
466.10 1.027579
466.20 0.965486
466.30 0.8837681
466.40 0.8446603
466.50 0.8751109
466.60 0.9481615
466.70 1.008622
466.80 1.007026
466.90 0.912857
467.00 0.7349413
467.10 0.5425182
467.20 0.4353474
467.30 0.4623858
467.40 0.57726
467.50 0.6858253
467.60 0.726846
467.70 0.6969511
467.80 0.625615
467.90 0.5510112
468.00 0.5079124
468.10 0.5125489
468.20 0.5516241
468.30 0.6019013
468.40 0.6533191
468.50 0.7076598
468.60 0.7609826
468.70 0.7963649
468.80 0.8009524
468.90 0.7781291
469.00 0.7355091
469.10 0.6713611
469.20 0.5907377
469.30 0.5323848
469.40 0.5381608
469.50 0.5904341
469.60 0.6175994
469.70 0.5825275
469.80 0.5309224
469.90 0.5196526
470.00 0.5318707
470.10 0.5086129
470.20 0.4478533
470.30 0.412319
470.40 0.4458954
470.50 0.5143127
470.60 0.5437766
470.70 0.5055779
470.80 0.439768
470.90 0.4132747
471.00 0.4647456
471.10 0.5811155
471.20 0.7101403
471.30 0.7933948
471.40 0.8060516
471.50 0.7791744
471.60 0.7751542
471.70 0.8213514
471.80 0.8762842
471.90 0.8706259
472.00 0.78118
472.10 0.6583597
472.20 0.5866273
472.30 0.6220124
472.40 0.7487123
472.50 0.8913592
472.60 0.9777664
472.70 0.9998218
472.80 1.007075
472.90 1.035592
473.00 1.059861
473.10 1.029817
473.20 0.9353379
473.30 0.812928
473.40 0.7012137
473.50 0.6104837
473.60 0.5404989
473.70 0.5093923
473.80 0.5463554
473.90 0.6552135
474.00 0.790687
474.10 0.8802014
474.20 0.8777381
474.30 0.8014142
474.40 0.7165366
474.50 0.6784295
474.60 0.6914111
474.70 0.7187389
474.80 0.7232352
474.90 0.6978638
475.00 0.6663561
475.10 0.6609162
475.20 0.7053742
475.30 0.8020427
475.40 0.9194085
475.50 0.9974042
475.60 0.979067
475.70 0.853613
475.80 0.6728144
475.90 0.514673
476.00 0.4177298
476.10 0.3528348
476.20 0.265453
476.30 0.1446831
476.40 0.1026961
476.50 0.09705901
476.60 0.09294534
476.70 0.168149
476.80 0.2670854
476.90 0.3240109
477.00 0.3344863
477.10 0.3362223
477.20 0.3770118
477.30 0.4662229
477.40 0.5658634
477.50 0.6317375
477.60 0.647353
477.70 0.6159109
477.80 0.538918
477.90 0.4263445
478.00 0.3187986
478.10 0.2690181
478.20 0.2920943
478.30 0.3434817
478.40 0.3633146
478.50 0.3458756
478.60 0.3442296
478.70 0.3951508
478.80 0.4639426
478.90 0.4772057
479.00 0.4091934
479.10 0.3203262
479.20 0.2985668
479.30 0.3764252
479.40 0.5111664
479.50 0.6307255
479.60 0.6906014
479.70 0.6962025
479.80 0.6849098
479.90 0.6890052
480.00 0.7063483
480.10 0.7069741
480.20 0.6682594
480.30 0.593539
480.40 0.498462
480.50 0.3991692
480.60 0.3188044
480.70 0.2934796
480.80 0.3505787
480.90 0.4795951
481.00 0.6330162
481.10 0.7553326
481.20 0.8197177
481.30 0.8402071
481.40 0.8431998
481.50 0.8263216
481.60 0.760612
481.70 0.6363512
481.80 0.4950507
481.90 0.4038317
482.00 0.3935222
482.10 0.4374401
482.20 0.4879287
482.30 0.518168
482.40 0.5299143
482.50 0.5387985
482.60 0.565838
482.70 0.6238102
482.80 0.6938858
482.90 0.7261782
483.00 0.6901678
483.10 0.6117838
483.20 0.5377512
483.30 0.4835089
483.40 0.4420762
483.50 0.4309026
483.60 0.4839244
483.70 0.5980878
483.80 0.7245127
483.90 0.8198664
484.00 0.8804384
484.10 0.9240824
484.20 0.962061
484.30 0.9901147
484.40 0.9912689
484.50 0.9447916
484.60 0.8497529
484.70 0.7476763
484.80 0.7044582
484.90 0.7527857
485.00 0.8515396
485.10 0.9132615
485.20 0.8823048
485.30 0.7841084
485.40 0.6878498
485.50 0.6226265
485.60 0.5595908
485.70 0.4988894
485.80 0.5528877
485.90 0.8874436
486.00 1.538816
486.10 2.289749
486.20 2.770993
486.30 2.727376
486.40 2.207782
486.50 1.513596
486.60 0.964954
486.70 0.6987072
486.80 0.6461197
486.90 0.6538896
487.00 0.6126273
487.10 0.5083343
487.20 0.399107
487.30 0.3593922
487.40 0.4270555
487.50 0.5781734
487.60 0.7481814
487.70 0.8758296
487.80 0.9315206
487.90 0.9148489
488.00 0.8426362
488.10 0.7471253
488.20 0.6713834
488.30 0.6516613
488.40 0.6963579
488.50 0.780128
488.60 0.8564929
488.70 0.884586
488.80 0.8514944
488.90 0.7755255
489.00 0.6954558
489.10 0.6555472
489.20 0.6827027
489.30 0.7575859
489.40 0.8156318
489.50 0.8005316
489.60 0.7237535
489.70 0.6517747
489.80 0.6347457
489.90 0.6729312
490.00 0.748632
490.10 0.8504727
490.20 0.9527726
490.30 1.007958
490.40 0.9923346
490.50 0.9465798
490.60 0.9347766
490.70 0.9687072
490.80 1.002052
490.90 0.9958048
491.00 0.9663343
491.10 0.9567105
491.20 0.979251
491.30 1.0106
491.40 1.029521
491.50 1.034103
491.60 1.032476
491.70 1.034249
491.80 1.050132
491.90 1.085905
492.00 1.127232
492.10 1.147743
492.20 1.142292
492.30 1.136024
492.40 1.15232
492.50 1.177642
492.60 1.169921
492.70 1.113235
492.80 1.048535
492.90 1.034478
493.00 1.084276
493.10 1.155654
493.20 1.205896
493.30 1.236475
493.40 1.274307
493.50 1.329888
493.60 1.392191
493.70 1.450786
493.80 1.504039
493.90 1.547396
494.00 1.574043
494.10 1.588353
494.20 1.603213
494.30 1.626078
494.40 1.658103
494.50 1.700081
494.60 1.748479
494.70 1.788999
494.80 1.802447
494.90 1.781316
495.00 1.731553
495.10 1.665389
495.20 1.59866
495.30 1.535095
495.40 1.447142
495.50 1.291848
495.60 1.06069
495.70 0.8034708
495.80 0.583644
495.90 0.4163376
496.00 0.2757446
496.10 0.1535383
496.20 0.0786107
496.30 0.08187722
496.40 0.1604755
496.50 0.2792029
496.60 0.3923416
496.70 0.4660283
496.80 0.5027663
496.90 0.540845
497.00 0.6002572
497.10 0.6356682
497.20 0.5762743
497.30 0.4177169
497.40 0.2471943
497.50 0.1673915
497.60 0.2213018
497.70 0.3910225
497.80 0.6266584
497.90 0.8483817
498.00 0.9571542
498.10 0.9011815
498.20 0.7434971
498.30 0.6290888
498.40 0.6655383
498.50 0.8382967
498.60 1.034895
498.70 1.141957
498.80 1.120942
498.90 1.014059
499.00 0.8944651
499.10 0.8076938
499.20 0.751327
499.30 0.7037756
499.40 0.6618076
499.50 0.64543
499.60 0.6668614
499.70 0.6971449
499.80 0.6728413
499.90 0.5493204
500.00 1
500.10 1.130205
500.20 0.6609376
500.30 0.08580921
500.40 0.3122911
500.50 0.7468937
500.60 0.7893149
500.70 0.8534286
500.80 0.8229053
500.90 0.7504214
501.00 0.8074749
501.10 0.9827662
501.20 0.8412154
501.30 0.6003262
501.40 0.9061921
501.50 0.8320205
501.60 0.2557644
501.70 0.3646939
501.80 0.6095749
501.90 0.7712704
502.00 1.248696
502.10 0.517867
502.20 0.5784519
502.30 0.5820982
502.40 0.4031455
502.50 0.5035696
502.60 0.9257698
502.70 0.9315657
502.80 0.8507113
502.90 0.9885629
503.00 1.295638
503.10 1.360425
503.20 0.9279201
503.30 0.823836
503.40 0.908328
503.50 0.3245636
503.60 0.5114847
503.70 1.360939
503.80 1.314906
503.90 0.9338137
504.00 1.121313
504.10 0.6480823
504.20 0.4959578
504.30 0.8889456
504.40 0.9092656
504.50 0.553237
504.60 0.6738882
504.70 0.9040357
504.80 0.6845902
504.90 0.9874131
505.00 1.210155
505.10 0.9403216
505.20 0.8618662
505.30 1.062627
505.40 0.6895179
505.50 0.2084267
505.60 0.8118273
505.70 1.235328
505.80 1.003408
505.90 0.7728982
506.00 0.99115
506.10 0.9521822
506.20 0.59926
506.30 1.1388
506.40 1.1564
506.50 0.8115299
506.60 0.7513222
506.70 0.732144
506.80 0.893149
506.90 1.059719
507.00 1.490885
507.10 1.561974
507.20 1.142192
507.30 0.9240466
507.40 1.298017
507.50 1.672389
507.60 1.688981
507.70 1.628042
507.80 1.535594
507.90 1.708773
508.00 1.55368
508.10 1.337395
508.20 1.325759
508.30 1.277666
508.40 0.8816936
508.50 0.5480165
508.60 0.808642
508.70 1.421004
508.80 1.556445
508.90 1.252096
509.00 1.260606
509.10 1.04052
509.20 0.9903687
509.30 1.296274
509.40 1.336246
509.50 1.175574
509.60 1.591963
509.70 1.991851
509.80 1.627643
509.90 1.555785
510.00 1.044162
510.10 0.487239
510.20 0.5841254
510.30 0.7407908
510.40 0.6904956
510.50 1.094368
510.60 1.025827
510.70 0.5581724
510.80 0.872105
510.90 1.437362
511.00 1.558176
511.10 1.330782
511.20 1.489197
511.30 1.774751
511.40 1.364961
511.50 1.210243
511.60 1.725797
511.70 2.011556
511.80 1.218824
511.90 1.151078
512.00 1.414752
512.10 1.520668
512.20 1.512828
512.30 1.737049
512.40 1.666885
512.50 1.434695
512.60 1.091204
512.70 1.226601
512.80 1.296844
512.90 0.7056415
513.00 0.8913877
513.10 1.53465
513.20 1.344364
513.30 1.448504
513.40 1.73209
513.50 1.419187
513.60 1.527042
513.70 1.326642
513.80 1.23571
513.90 1.358997
514.00 1.513955
514.10 0.8747947
514.20 0.8179519
514.30 1.219237
514.40 1.414893
514.50 1.690028
514.60 1.454319
514.70 1.134492
514.80 0.9786678
514.90 0.980811
515.00 0.6965375
515.10 0.7902454
515.20 1.22573
515.30 1.463457
515.40 1.330432
515.50 1.165861
515.60 0.9520095
515.70 1.492227
515.80 1.840947
515.90 1.951119
516.00 1.679655
516.10 1.519287
516.20 1.833041
516.30 1.939474
516.40 2.119101
516.50 1.937387
516.60 1.524931
516.70 1.164382
516.80 0.959988
516.90 0.3038893
517.00 0.1610382
517.10 0.09748801
517.20 0.2244626
517.30 0.5214074
517.40 0.565707
517.50 0.5048439
517.60 0.8611664
517.70 0.749907
517.80 0.6031917
517.90 0.6597235
518.00 0.6506855
518.10 0.3877469
518.20 0.3507353
518.30 0.09228757
518.40 0.1461865
518.50 0.4482931
518.60 1.038559
518.70 1.00742
518.80 1.067944
518.90 0.9660613
519.00 0.8549066
519.10 0.9132112
519.20 0.9852834
519.30 0.6627444
519.40 0.7449617
519.50 0.893943
519.60 1.055473
519.70 1.009295
519.80 0.6108278
519.90 0.3788504
520.00 0.1742386
520.10 0.0990654
520.20 0.3381399
520.30 1.040732
520.40 1.385715
520.50 1.162604
520.60 0.77464
520.70 0.8098734
520.80 1.154359
520.90 1.090609
521.00 0.6412095
521.10 0.5711156
521.20 1.014094
521.30 1.266078
521.40 1.437114
521.50 1.104717
521.60 0.9669405
521.70 1.261135
521.80 1.323401
521.90 1.281266
522.00 1.571619
522.10 1.375619
522.20 1.051957
522.30 0.8053701
522.40 0.9153045
522.50 1.708062
522.60 1.986667
522.70 2.003638
522.80 1.612009
522.90 1.007628
523.00 1.159442
523.10 1.469465
523.20 1.699161
523.30 1.52784
523.40 1.383711
523.50 1.24321
523.60 1.519925
523.70 1.378883
523.80 1.491553
523.90 1.722372
524.00 1.660173
524.10 1.265835
524.20 1.513358
524.30 1.335392
524.40 1.031769
524.50 0.809376
524.60 0.9924078
524.70 1.117771
524.80 1.084383
524.90 1.179405
525.00 1.37971
525.10 0.9608724
525.20 0.884781
525.30 1.435165
525.40 2.151224
525.50 1.564577
525.60 1.067415
525.70 1.344204
525.80 1.840478
525.90 1.733478
526.00 1.462973
526.10 1.162953
526.20 1.354351
526.30 1.579813
526.40 1.354033
526.50 1.251497
526.60 1.314797
526.70 1.301104
526.80 1.364952
526.90 1.079269
527.00 1.452675
527.10 1.667597
527.20 1.281605
527.30 1.149307
527.40 1.193716
527.50 1.469205
527.60 1.877714
527.70 1.685612
527.80 1.581706
527.90 1.516573
528.00 1.517419
528.10 1.228788
528.20 0.9574611
528.30 1.7191
528.40 2.033512
528.50 1.463517
528.60 1.152499
528.70 1.528829
528.80 1.937475
528.90 1.897679
529.00 1.652296
529.10 1.508274
529.20 1.568206
529.30 1.633809
529.40 1.676938
529.50 1.718713
529.60 1.781305
529.70 2.060975
529.80 2.003452
529.90 1.581744
530.00 1.506965
530.10 1.871449
530.20 2.140554
530.30 1.886474
530.40 1.955065
530.50 2.188533
530.60 2.004565
530.70 1.963381
530.80 1.676713
530.90 1.553076
531.00 1.592251
531.10 1.317763
531.20 1.239207
531.30 1.561981
531.40 1.284892
531.50 1.053659
531.60 1.366929
531.70 1.620877
531.80 1.636955
531.90 1.278164
532.00 1.268622
532.10 1.979314
532.20 1.8271
532.30 1.520036
532.40 1.530952
532.50 1.791353
532.60 1.807951
532.70 1.379404
532.80 1.261003
532.90 1.762035
533.00 1.514834
533.10 1.276557
533.20 1.424771
533.30 2.165269
533.40 1.952284
533.50 1.317095
533.60 1.296369
533.70 1.027846
533.80 1.271002
533.90 1.601011
534.00 2.032128
534.10 1.854962
534.20 1.454475
534.30 1.513666
534.40 1.760118
534.50 1.920151
534.60 2.162699
534.70 2.009409
534.80 1.410788
534.90 1.349999
535.00 1.570093
535.10 2.232506
535.20 2.388272
535.30 2.344901
535.40 2.387181
535.50 2.359467
535.60 2.069315
535.70 2.058214
535.80 1.781919
535.90 1.686397
536.00 1.669254
536.10 1.999577
536.20 1.923776
536.30 1.670342
536.40 1.382298
536.50 1.760344
536.60 1.416098
536.70 1.11813
536.80 1.054837
536.90 1.291293
537.00 1.25512
537.10 1.318509
537.20 1.654401
537.30 1.888184
537.40 1.566465
537.50 1.432135
537.60 1.463949
537.70 1.642931
537.80 1.904593
537.90 2.477934
538.00 2.579361
538.10 2.050679
538.20 1.744298
538.30 1.905274
538.40 2.308996
538.50 2.145034
538.60 1.91811
538.70 1.456315
538.80 1.805937
538.90 1.785294
539.00 1.95997
539.10 2.206589
539.20 1.910204
539.30 1.407536
539.40 1.921472
539.50 2.173261
539.60 2.140743
539.70 2.027291
539.80 2.427815
539.90 2.586552
540.00 2.199414
540.10 2.450672
540.20 2.909557
540.30 2.773882
540.40 2.485382
540.50 2.202086
540.60 1.962239
540.70 2.383018
540.80 2.560519
540.90 1.720466
541.00 1.469562
541.10 1.386218
541.20 1.867962
541.30 2.23533
541.40 1.988746
541.50 1.84825
541.60 1.867966
541.70 2.11683
541.80 2.44101
541.90 2.451673
542.00 1.943957
542.10 2.113034
542.20 2.330788
542.30 2.563453
542.40 2.656505
542.50 2.741207
542.60 2.778223
542.70 2.336303
542.80 1.935242
542.90 2.070474
543.00 1.969519
543.10 1.818132
543.20 1.887181
543.30 1.693185
543.40 1.724953
543.50 2.022873
543.60 2.157794
543.70 2.013441
543.80 2.001822
543.90 2.618309
544.00 2.704036
544.10 2.558426
544.20 2.948174
544.30 2.93747
544.40 2.469436
544.50 2.482793
544.60 2.87462
544.70 2.939224
544.80 2.481953
544.90 2.099003
545.00 1.524963
545.10 0.4562224
545.20 0.2385161
545.30 0.4848597
545.40 0.5354328
545.50 0.7490488
545.60 0.6285256
545.70 0.4865551
545.80 0.7704921
545.90 1.007758
546.00 1.150902
546.10 1.703249
546.20 1.84899
546.30 1.814065
546.40 1.65594
546.50 1.068488
546.60 0.9177488
546.70 0.9986652
546.80 1.449471
546.90 1.588082
547.00 1.393756
547.10 0.9518512
547.20 0.8824559
547.30 0.6327745
547.40 0.497628
547.50 0.8776412
547.60 1.482668
547.70 1.266274
547.80 1.256381
547.90 1.379735
548.00 1.477918
548.10 1.232724
548.20 1.045579
548.30 0.8952059
548.40 1.058567
548.50 1.277161
548.60 1.212987
548.70 1.127682
548.80 1.162685
548.90 1.067657
549.00 1.049012
549.10 0.7847419
549.20 1.121779
549.30 1.198452
549.40 1.267538
549.50 1.486321
549.60 1.522504
549.70 0.9899232
549.80 1.008117
549.90 1.38036
550.00 0.9915834
550.10 0.6285226
550.20 0.5886763
550.30 0.9093201
550.40 0.7093105
550.50 0.5248484
550.60 0.7245541
550.70 0.6545556
550.80 0.4879923
550.90 0.530836
551.00 0.4629978
551.10 0.3883556
551.20 0.130201
551.30 0.09577684
551.40 0.2353763
551.50 0.6538464
551.60 0.9750578
551.70 1.035314
551.80 0.5069432
551.90 0.1394916
552.00 0.4785457
552.10 0.415889
552.20 0.07399938
552.30 0.2509692
552.40 0.4382029
552.50 0.5031495
552.60 0.9120752
552.70 0.6728724
552.80 0.5113039
552.90 0.5020016
553.00 0.1756118
553.10 0.3470502
553.20 0.5345567
553.30 0.5966139
553.40 0.5489661
553.50 0.6669895
553.60 0.2966069
553.70 0.4058671
553.80 0.3928342
553.90 0.2982096
554.00 0.6036375
554.10 0.5846722
554.20 0.4276796
554.30 0.3627394
554.40 0.6431003
554.50 0.676071
554.60 0.1872861
554.70 0.07546451
554.80 0.05853849
554.90 0.3074228
555.00 0.5120197
555.10 0.5202851
555.20 0.1160732
555.30 0.4485381
555.40 0.7788361
555.50 0.5705264
555.60 0.4871363
555.70 0.5797871
555.80 0.7842414
555.90 0.4431563
556.00 0.6012578
556.10 1.034422
556.20 0.824264
556.30 0.6142625
556.40 0.7984754
556.50 1.173379
556.60 1.171403
556.70 0.8076852
556.80 0.6385912
556.90 0.6896036
557.00 0.9092969
557.10 1.076541
557.20 1.08949
557.30 1.083001
557.40 1.082908
557.50 1.082908
557.60 1.082908
557.70 1.082908
557.80 1.082908
557.90 1.082908
558.00 1.082908
558.10 1.082909
558.20 1.082841
558.30 1.082489
558.40 1.058824
558.50 1.165912
558.60 1.500069
558.70 1.549886
558.80 1.376394
558.90 1.222944
559.00 1.185642
559.10 1.132223
559.20 1.211278
559.30 1.450047
559.40 1.386407
559.50 1.384075
559.60 1.631974
559.70 1.188763
559.80 0.7896222
559.90 0.8103179
560.00 1.023268
560.10 0.9449648
560.20 1.273828
560.30 1.460572
560.40 1.498057
560.50 1.388109
560.60 1.298714
560.70 0.8837101
560.80 0.8475804
560.90 1.051473
561.00 1.490923
561.10 1.800527
561.20 1.342747
561.30 0.9716145
561.40 1.224609
561.50 1.446484
561.60 1.260791
561.70 1.466802
561.80 1.346073
561.90 0.9405057
562.00 0.765302
562.10 0.9605048
562.20 1.255844
562.30 1.198336
562.40 1.1711
562.50 1.0245
562.60 0.9421318
562.70 0.8866251
562.80 0.8313298
562.90 0.9917337
563.00 1.599161
563.10 1.274797
563.20 0.6588434
563.30 0.5405751
563.40 1.114302
563.50 1.496834
563.60 1.347393
563.70 0.8741349
563.80 0.5689804
563.90 1.070588
564.00 1.281892
564.10 0.8623839
564.20 0.5617281
564.30 0.8170435
564.40 1.209048
564.50 1.025081
564.60 1.030059
564.70 0.907685
564.80 1.245233
564.90 1.467639
565.00 1.400828
565.10 1.157948
565.20 1.382147
565.30 1.836556
565.40 1.750939
565.50 1.510055
565.60 1.166728
565.70 1.366028
565.80 1.433987
565.90 1.650032
566.00 1.681855
566.10 1.343894
566.20 1.223962
566.30 1.420758
566.40 1.724581
566.50 1.344219
566.60 1.282798
566.70 1.490027
566.80 1.632004
566.90 1.387828
567.00 1.346709
567.10 1.379097
567.20 1.461309
567.30 1.628147
567.40 1.317529
567.50 1.245112
567.60 1.157563
567.70 1.475169
567.80 1.454329
567.90 1.442586
568.00 1.504508
568.10 1.259549
568.20 1.164916
568.30 1.623693
568.40 2.142091
568.50 1.888146
568.60 1.204206
568.70 1.292987
568.80 1.670011
568.90 2.149903
569.00 2.347661
569.10 1.589483
569.20 1.655482
569.30 1.821678
569.40 1.921302
569.50 1.620431
569.60 1.23139
569.70 1.128437
569.80 1.271063
569.90 1.674823
570.00 1.932313
570.10 1.909395
570.20 1.745214
570.30 1.252543
570.40 1.339237
570.50 1.858198
570.60 2.342689
570.70 2.105725
570.80 2.029647
570.90 2.029591
571.00 1.937913
571.10 1.961943
571.20 1.959801
571.30 2.007629
571.40 1.651614
571.50 1.303464
571.60 1.300936
571.70 1.616886
571.80 2.240592
571.90 2.063533
572.00 1.549804
572.10 1.227902
572.20 1.515906
572.30 1.644871
572.40 1.853605
572.50 2.009059
572.60 2.063217
572.70 2.101479
572.80 1.899716
572.90 1.677449
573.00 1.761287
573.10 1.86934
573.20 1.706284
573.30 1.855842
573.40 2.286385
573.50 2.235666
573.60 2.060846
573.70 1.903964
573.80 1.924398
573.90 1.738037
574.00 1.372875
574.10 1.441995
574.20 1.663851
574.30 1.829191
574.40 2.033784
574.50 2.159466
574.60 2.040475
574.70 1.738797
574.80 2.248854
574.90 1.697577
575.00 1.207406
575.10 1.644917
575.20 2.315058
575.30 2.049735
575.40 1.547619
575.50 1.964217
575.60 2.134511
575.70 1.974683
575.80 2.15021
575.90 2.224779
576.00 1.909043
576.10 1.212792
576.20 1.216659
576.30 1.4199
576.40 1.716541
576.50 1.851022
576.60 1.82248
576.70 1.822792
576.80 1.823113
576.90 1.336732
577.00 1.094555
577.10 1.436392
577.20 1.288379
577.30 0.9072078
577.40 1.059888
577.50 1.62808
577.60 2.019168
577.70 1.864867
577.80 1.498606
577.90 1.32565
578.00 1.841073
578.10 2.308956
578.20 2.296276
578.30 1.761206
578.40 1.125257
578.50 1.430203
578.60 2.17559
578.70 2.551161
578.80 2.08739
578.90 2.032695
579.00 2.332588
579.10 2.558945
579.20 2.597115
579.30 2.185177
579.40 2.067134
579.50 2.294553
579.60 2.431962
579.70 2.625875
579.80 2.478546
579.90 2.04601
580.00 2.373254
580.10 2.759764
580.20 2.563729
580.30 2.292182
580.40 2.161802
580.50 2.561146
580.60 2.763212
580.70 2.664897
580.80 2.802229
580.90 2.910042
581.00 2.452545
581.10 2.337625
581.20 2.205062
581.30 1.748422
581.40 1.682046
581.50 1.674834
581.60 1.836037
581.70 1.941973
581.80 2.34754
581.90 2.275427
582.00 1.476675
582.10 1.529427
582.20 1.803576
582.30 1.891213
582.40 1.718123
582.50 1.268414
582.60 1.43939
582.70 1.866979
582.80 2.151925
582.90 1.657644
583.00 1.721094
583.10 2.243715
583.20 2.330829
583.30 1.993503
583.40 2.437342
583.50 2.354592
583.60 1.300693
583.70 1.169253
583.80 1.390044
583.90 1.287348
584.00 1.221937
584.10 1.607453
584.20 2.085272
584.30 2.209195
584.40 2.321626
584.50 2.212146
584.60 1.643749
584.70 1.385106
584.80 1.33808
584.90 1.789075
585.00 1.948294
585.10 1.70097
585.20 1.122209
585.30 1.154222
585.40 1.541622
585.50 1.7014
585.60 1.878599
585.70 1.551396
585.80 1.308664
585.90 1.476102
586.00 1.5928
586.10 0.905445
586.20 0.4591158
586.30 0.6235067
586.40 1.04915
586.50 1.122408
586.60 1.177748
586.70 1.020833
586.80 0.9634941
586.90 1.407104
587.00 1.461855
587.10 1.103012
587.20 0.8228026
587.30 0.8181157
587.40 1.13245
587.50 1.108579
587.60 1.050979
587.70 1.025869
587.80 1.145531
587.90 1.001984
588.00 0.9391165
588.10 0.6144263
588.20 0.6354968
588.30 0.9109432
588.40 1.028688
588.50 0.8712818
588.60 0.4163099
588.70 0.4609046
588.80 1.066951
588.90 2.000562
589.00 2.124445
589.10 0.7743844
589.20 0.9154469
589.30 2.301669
589.40 2.339441
589.50 1.372287
589.60 0.6438187
589.70 0.3808592
589.80 0.6426348
589.90 1.000486
590.00 1.102566
590.10 0.631387
590.20 0.869215
590.30 0.805747
590.40 0.4653905
590.50 0.4884472
590.60 0.7631245
590.70 1.24212
590.80 1.222394
590.90 0.9916926
591.00 0.6745541
591.10 0.9152257
591.20 1.159975
591.30 0.8902364
591.40 0.8146884
591.50 0.851347
591.60 1.111419
591.70 0.9389958
591.80 0.7151104
591.90 1.008019
592.00 1.070747
592.10 0.9641311
592.20 0.7455207
592.30 1.250955
592.40 1.371187
592.50 0.5264221
592.60 0.797546
592.70 1.356642
592.80 1.107184
592.90 0.7082927
593.00 0.7982807
593.10 1.173978
593.20 1.203465
593.30 1.085221
593.40 0.9052616
593.50 0.6421114
593.60 0.6677271
593.70 1.027061
593.80 0.9914136
593.90 0.8768476
594.00 0.9428747
594.10 0.9772648
594.20 0.7239529
594.30 1.015871
594.40 1.195758
594.50 1.178135
594.60 1.083537
594.70 1.347597
594.80 1.534149
594.90 1.567753
595.00 1.72729
595.10 1.315226
595.20 0.8396759
595.30 0.5194334
595.40 0.5966734
595.50 0.564541
595.60 0.9229986
595.70 1.806546
595.80 1.956274
595.90 1.431774
596.00 0.9924789
596.10 1.013475
596.20 0.790379
596.30 0.451955
596.40 0.6097611
596.50 1.335783
596.60 1.428497
596.70 1.276184
596.80 1.289378
596.90 0.964417
597.00 0.7934108
597.10 0.645212
597.20 0.5798265
597.30 0.4440192
597.40 0.4773258
597.50 0.9298012
597.60 1.15383
597.70 1.183221
597.80 0.7744734
597.90 0.7680327
598.00 0.9574408
598.10 1.3173
598.20 1.303986
598.30 1.167739
598.40 1.053463
598.50 0.9668562
598.60 1.068501
598.70 1.010117
598.80 1.158737
598.90 1.248199
599.00 1.060371
599.10 1.155105
599.20 1.316629
599.30 1.226933
599.40 0.8637021
599.50 0.6996197
599.60 0.944249
599.70 1.069577
599.80 0.9083815
599.90 1.254485
600.00 1.539911
600.10 1.546861
600.20 1.336213
600.30 1.358014
600.40 1.552449
600.50 1.360232
600.60 1.182495
600.70 1.079516
600.80 1.412308
600.90 1.478553
601.00 1.073089
601.10 0.8039783
601.20 1.006524
601.30 1.413683
601.40 1.305307
601.50 0.9449211
601.60 1.172932
601.70 1.385155
601.80 1.625522
601.90 1.610093
602.00 1.350268
602.10 0.8735036
602.20 0.8484347
602.30 1.004015
602.40 1.224181
602.50 1.437864
602.60 1.406388
602.70 1.212444
602.80 0.9871199
602.90 1.094821
603.00 1.100411
603.10 0.8273962
603.20 0.9303432
603.30 1.096734
603.40 1.540738
603.50 1.783921
603.60 1.576147
603.70 1.496166
603.80 1.280983
603.90 1.103546
604.00 1.134049
604.10 1.155024
604.20 1.281864
604.30 1.508648
604.40 1.682772
604.50 1.63596
604.60 1.426099
604.70 1.517255
604.80 2.011632
604.90 2.067914
605.00 1.626983
605.10 1.37412
605.20 1.563497
605.30 1.503376
605.40 1.299021
605.50 1.293391
605.60 1.422841
605.70 1.725266
605.80 1.795813
605.90 1.361018
606.00 1.196496
606.10 1.276803
606.20 1.426356
606.30 1.490287
606.40 1.541214
606.50 1.563849
606.60 1.386944
606.70 1.600286
606.80 1.963409
606.90 2.153044
607.00 2.006259
607.10 1.787966
607.20 1.70854
607.30 1.434454
607.40 1.468998
607.50 1.592555
607.60 1.623752
607.70 1.609564
607.80 1.518113
607.90 1.605996
608.00 1.415561
608.10 1.430804
608.20 1.409198
608.30 1.462629
608.40 1.865392
608.50 1.820626
608.60 1.592577
608.70 1.514924
608.80 1.717307
608.90 1.642307
609.00 1.146379
609.10 1.372478
609.20 1.69792
609.30 1.760714
609.40 1.581092
609.50 1.564251
609.60 1.510349
609.70 1.47584
609.80 1.785748
609.90 1.730075
610.00 1.416158
610.10 1.637989
610.20 1.820007
610.30 1.615116
610.40 1.135395
610.50 1.33339
610.60 1.660791
610.70 1.657746
610.80 1.376556
610.90 1.491533
611.00 1.53833
611.10 1.64738
611.20 1.798568
611.30 1.711407
611.40 1.472436
611.50 1.408492
611.60 1.299508
611.70 1.294311
611.80 1.312124
611.90 1.539438
612.00 1.829133
612.10 1.764491
612.20 1.548421
612.30 1.418607
612.40 1.458358
612.50 1.512055
612.60 1.187167
612.70 1.095173
612.80 1.091224
612.90 1.127024
613.00 1.536889
613.10 1.669011
613.20 1.174059
613.30 1.297893
613.40 1.695177
613.50 1.670043
613.60 1.350001
613.70 1.335451
613.80 1.460258
613.90 1.174829
614.00 1.094661
614.10 1.257876
614.20 1.195013
614.30 0.9575485
614.40 1.147398
614.50 1.423954
614.60 1.527274
614.70 1.419242
614.80 1.552609
614.90 1.353351
615.00 1.274167
615.10 1.011693
615.20 0.7173573
615.30 0.8711389
615.40 1.109092
615.50 1.100363
615.60 0.8713953
615.70 1.094492
615.80 1.477187
615.90 1.20778
616.00 1.039862
616.10 1.065184
616.20 1.022077
616.30 1.000973
616.40 1.066454
616.50 1.130035
616.60 0.847796
616.70 0.7118294
616.80 0.8212222
616.90 0.7617237
617.00 0.8151404
617.10 0.8519412
617.20 1.010365
617.30 1.05698
617.40 0.832311
617.50 0.9734772
617.60 1.152979
617.70 0.9256618
617.80 0.6052975
617.90 0.8541179
618.00 0.8142024
618.10 0.4770712
618.20 0.1522171
618.30 0.3608883
618.40 1.19287
618.50 1.354172
618.60 1.116032
618.70 0.9957407
618.80 0.8051869
618.90 0.5937523
619.00 0.6370971
619.10 0.7771215
619.20 0.6754812
619.30 0.9598415
619.40 1.012339
619.50 0.930438
619.60 0.8642022
619.70 1.109661
619.80 0.9891617
619.90 0.6784014
620.00 0.5972867
620.10 0.7488168
620.20 1.009644
620.30 0.9169125
620.40 0.8965509
620.50 0.8425106
620.60 0.6769877
620.70 0.6375037
620.80 0.8825036
620.90 1.167897
621.00 1.079268
621.10 1.151428
621.20 1.186102
621.30 0.950989
621.40 0.9540055
621.50 1.059126
621.60 1.155186
621.70 0.8812288
621.80 0.5561297
621.90 0.677044
622.00 0.9115949
622.10 0.9892959
622.20 1.043252
622.30 0.8786377
622.40 0.930228
622.50 0.8153115
622.60 0.7199493
622.70 0.5372726
622.80 0.5978336
622.90 0.9704685
623.00 0.9891248
623.10 0.9812103
623.20 0.840557
623.30 0.7220818
623.40 0.8675477
623.50 1.088174
623.60 0.8418603
623.70 0.853728
623.80 0.68694
623.90 0.1447084
624.00 0.5860932
624.10 1.31092
624.20 1.237926
624.30 0.391303
624.40 0.2935306
624.50 0.9256176
624.60 1.076375
624.70 0.9306057
624.80 0.716816
624.90 0.6868431
625.00 0.7420318
625.10 0.6873623
625.20 0.893484
625.30 1.05993
625.40 1.203789
625.50 1.250471
625.60 1.071925
625.70 1.037868
625.80 1.013534
625.90 1.280875
626.00 1.238549
626.10 1.155461
626.20 1.19141
626.30 0.9313886
626.40 0.6857176
626.50 0.9001227
626.60 1.044228
626.70 0.8665812
626.80 0.5756333
626.90 0.6866521
627.00 0.9570757
627.10 1.073188
627.20 0.8784727
627.30 1.017052
627.40 1.290852
627.50 1.287987
627.60 1.230671
627.70 1.345099
627.80 1.606553
627.90 1.421415
628.00 1.22232
628.10 1.051805
628.20 1.000038
628.30 1.095485
628.40 1.193579
628.50 1.106812
628.60 1.070162
628.70 1.013107
628.80 1.397765
628.90 1.339843
629.00 1.156312
629.10 1.264263
629.20 1.464852
629.30 1.749551
629.40 1.513961
629.50 1.282513
629.60 1.413203
629.70 2.07252
629.80 2.232249
629.90 2.150154
630.00 2.042665
630.10 1.22417
630.20 0.5556325
630.30 0.1420448
630.40 1.629908
630.50 2.690395
630.60 2.203297
630.70 1.909397
630.80 1.665061
630.90 1.693373
631.00 1.660987
631.10 1.875491
631.20 2.148283
631.30 2.030449
631.40 1.911595
631.50 1.683775
631.60 1.583281
631.70 1.845664
631.80 1.915644
631.90 1.816927
632.00 1.818823
632.10 2.234415
632.20 2.126787
632.30 1.720417
632.40 1.803767
632.50 2.03186
632.60 2.053063
632.70 1.803023
632.80 1.750375
632.90 1.957402
633.00 2.235839
633.10 1.940306
633.20 1.586592
633.30 1.578826
633.40 1.928884
633.50 2.203285
633.60 2.192778
633.70 2.214476
633.80 2.204068
633.90 2.281511
634.00 2.249666
634.10 2.416517
634.20 2.584061
634.30 2.447082
634.40 2.16404
634.50 2.13657
634.60 2.390113
634.70 2.622356
634.80 2.702332
634.90 2.522549
635.00 2.586996
635.10 2.688157
635.20 2.460205
635.30 2.207278
635.40 2.356581
635.50 2.60428
635.60 2.465804
635.70 2.405066
635.80 2.33008
635.90 1.919589
636.00 1.821252
636.10 2.500052
636.20 3.306785
636.30 3.156207
636.40 2.200002
636.50 1.640388
636.60 1.668039
636.70 1.76781
636.80 2.163685
636.90 2.258726
637.00 2.185569
637.10 2.380061
637.20 2.629129
637.30 2.575877
637.40 2.245748
637.50 2.026601
637.60 2.228341
637.70 2.430043
637.80 2.418418
637.90 2.306604
638.00 2.271512
638.10 2.335703
638.20 1.939468
638.30 1.804917
638.40 2.102347
638.50 2.300824
638.60 2.309232
638.70 2.234856
638.80 2.223393
638.90 2.151589
639.00 2.167998
639.10 2.193979
639.20 2.297232
639.30 2.40657
639.40 2.602143
639.50 2.56931
639.60 2.392986
639.70 2.414616
639.80 2.606713
639.90 2.687928
640.00 2.719652
640.10 2.801945
640.20 2.651322
640.30 2.508788
640.40 2.669462
640.50 3.04688
640.60 3.25444
640.70 3.053255
640.80 2.809705
640.90 2.625169
641.00 2.572225
641.10 2.618826
641.20 2.588871
641.30 2.724866
641.40 2.857939
641.50 2.798106
641.60 2.605107
641.70 2.505296
641.80 2.64399
641.90 2.740879
642.00 2.700588
642.10 2.637009
642.20 2.555401
642.30 2.467654
642.40 2.476652
642.50 2.310803
642.60 2.189624
642.70 2.265285
642.80 2.53728
642.90 2.823712
643.00 2.701304
643.10 2.604464
643.20 2.609715
643.30 2.587843
643.40 2.524443
643.50 2.353713
643.60 2.351982
643.70 2.496506
643.80 2.682084
643.90 2.847843
644.00 2.699788
644.10 2.470741
644.20 2.410532
644.30 2.685653
644.40 2.827043
644.50 2.733948
644.60 2.724777
644.70 2.772431
644.80 2.896318
644.90 2.754705
645.00 2.58228
645.10 2.643573
645.20 2.79812
645.30 2.987521
645.40 2.945775
645.50 2.991643
645.60 2.826287
645.70 2.699512
645.80 2.696493
645.90 2.761055
646.00 2.921004
646.10 3.062581
646.20 2.986386
646.30 2.82531
646.40 2.97429
646.50 3.046532
646.60 2.887562
646.70 2.592793
646.80 2.755435
646.90 3.187758
647.00 3.408289
647.10 3.041701
647.20 2.877752
647.30 3.449139
647.40 3.96203
647.50 3.796929
647.60 3.170157
647.70 2.986221
647.80 3.073354
647.90 3.12039
648.00 2.892497
648.10 2.768662
648.20 2.793839
648.30 2.829194
648.40 2.8426
648.50 2.758758
648.60 2.595399
648.70 2.789267
648.80 3.014063
648.90 3.053724
649.00 3.034693
649.10 2.924522
649.20 2.959092
649.30 3.107675
649.40 3.149899
649.50 3.24369
649.60 3.500308
649.70 3.619564
649.80 3.373928
649.90 3.171361
650.00 3.493438
650.10 3.315409
650.20 3.268727
650.30 3.65677
650.40 4.073005
650.50 4.101688
650.60 3.824556
650.70 3.91267
650.80 4.114214
650.90 4.183878
651.00 4.197426
651.10 4.299633
651.20 4.355376
651.30 4.370821
651.40 4.220147
651.50 4.152824
651.60 4.226208
651.70 4.397978
651.80 4.400307
651.90 4.520209
652.00 4.674693
652.10 4.613207
652.20 4.788528
652.30 4.985674
652.40 4.918368
652.50 4.600999
652.60 4.634446
652.70 5.2595
652.80 5.689005
652.90 5.706322
653.00 5.71354
653.10 5.995962
653.20 6.077162
653.30 5.741597
653.40 5.356013
653.50 5.240582
653.60 5.662414
653.70 6.078396
653.80 6.306453
653.90 6.488468
654.00 6.498622
654.10 6.354131
654.20 6.420282
654.30 6.630693
654.40 6.491272
654.50 6.132389
654.60 5.791241
654.70 5.619964
654.80 5.610968
654.90 5.54718
655.00 5.329673
655.10 5.150795
655.20 5.216602
655.30 5.177984
655.40 4.981514
655.50 4.759444
655.60 4.883915
655.70 5.081209
655.80 5.227425
655.90 5.524871
656.00 5.813892
656.10 6.354818
656.20 8.810474
656.30 12.36509
656.40 14.35081
656.50 13.57669
656.60 10.76855
656.70 7.82579
656.80 5.709536
656.90 4.632923
657.00 4.313003
657.10 4.165103
657.20 4.321125
657.30 4.440928
657.40 4.420049
657.50 4.21603
657.60 4.136207
657.70 4.256302
657.80 4.340407
657.90 4.214093
658.00 3.76706
658.10 3.47152
658.20 3.505984
658.30 3.840973
658.40 3.991224
658.50 3.992614
658.60 4.053278
658.70 4.234493
658.80 4.376224
658.90 4.155083
659.00 4.086372
659.10 4.223431
659.20 4.278107
659.30 4.384003
659.40 4.312518
659.50 4.094104
659.60 3.93466
659.70 3.987434
659.80 4.249087
659.90 4.144819
660.00 3.949054
660.10 3.973967
660.20 4.13965
660.30 4.229897
660.40 4.181046
660.50 4.110122
660.60 4.078112
660.70 4.029161
660.80 3.911178
660.90 3.847018
661.00 3.943542
661.10 3.970835
661.20 3.951636
661.30 4.051034
661.40 4.193045
661.50 4.326845
661.60 4.019992
661.70 3.855586
661.80 4.039484
661.90 4.106222
662.00 3.978606
662.10 3.719991
662.20 3.641073
662.30 3.667624
662.40 3.735905
662.50 3.653496
662.60 3.266176
662.70 3.013424
662.80 3.144469
662.90 3.279909
663.00 3.306358
663.10 3.428726
663.20 3.563218
663.30 3.622076
663.40 3.774666
663.50 3.880933
663.60 3.714787
663.70 3.320117
663.80 3.041824
663.90 3.137
664.00 3.320567
664.10 3.49387
664.20 3.55942
664.30 3.56659
664.40 3.446225
664.50 3.469785
664.60 3.407947
664.70 3.354272
664.80 3.45431
664.90 3.597085
665.00 3.687093
665.10 3.461275
665.20 2.979735
665.30 2.57083
665.40 2.405373
665.50 2.646665
665.60 2.91371
665.70 2.860962
665.80 2.771468
665.90 2.719819
666.00 2.83912
666.10 2.735573
666.20 2.737379
666.30 2.97529
666.40 3.037235
666.50 3.096454
666.60 3.142073
666.70 3.139676
666.80 3.044245
666.90 3.159924
667.00 3.478171
667.10 3.518212
667.20 3.49906
667.30 3.246115
667.40 3.05048
667.50 3.113968
667.60 3.233171
667.70 3.372875
667.80 3.566805
667.90 3.737627
668.00 3.65766
668.10 3.409388
668.20 3.012543
668.30 2.588415
668.40 2.343009
668.50 2.289717
668.60 2.490539
668.70 2.531247
668.80 2.410601
668.90 2.535485
669.00 2.801558
669.10 2.761841
669.20 2.586186
669.30 2.494774
669.40 2.310229
669.50 2.31645
669.60 2.640789
669.70 2.910845
669.80 2.940961
669.90 2.782722
670.00 2.86167
670.10 3.003261
670.20 3.185395
670.30 3.261542
670.40 3.122238
670.50 3.037312
670.60 3.036415
670.70 3.100068
670.80 3.108359
670.90 2.924104
671.00 2.85676
671.10 3.055562
671.20 3.254841
671.30 3.217446
671.40 3.016717
671.50 2.812427
671.60 2.693471
671.70 2.517175
671.80 2.364309
671.90 2.397306
672.00 2.433972
672.10 2.531721
672.20 2.60572
672.30 2.574808
672.40 2.505242
672.50 2.518255
672.60 2.544092
672.70 2.593926
672.80 2.897092
672.90 3.130018
673.00 2.92206
673.10 2.653012
673.20 2.716899
673.30 3.054007
673.40 3.323315
673.50 3.193473
673.60 2.854541
673.70 2.520356
673.80 2.550883
673.90 2.932488
674.00 3.039295
674.10 2.940183
674.20 2.883421
674.30 2.967848
674.40 3.115547
674.50 3.252435
674.60 3.270821
674.70 3.110673
674.80 2.874225
674.90 2.707259
675.00 2.704893
675.10 2.826949
675.20 2.8865
675.30 2.864614
675.40 2.947517
675.50 3.189144
675.60 3.159654
675.70 3.086001
675.80 3.099851
675.90 2.91589
676.00 2.818257
676.10 2.943415
676.20 3.151413
676.30 3.306395
676.40 3.212292
676.50 3.297407
676.60 3.511963
676.70 3.465238
676.80 3.433554
676.90 3.486007
677.00 3.518568
677.10 3.60627
677.20 3.707361
677.30 3.713185
677.40 3.685098
677.50 3.693348
677.60 3.699258
677.70 3.798285
677.80 3.70213
677.90 3.73771
678.00 3.870107
678.10 3.845588
678.20 3.531434
678.30 2.889064
678.40 2.618628
678.50 2.728947
678.60 2.837186
678.70 2.855992
678.80 2.886689
678.90 3.048852
679.00 3.166575
679.10 3.241044
679.20 3.206383
679.30 3.008358
679.40 2.893648
679.50 2.9659
679.60 3.077063
679.70 3.106485
679.80 3.153341
679.90 3.240462
680.00 3.25521
680.10 3.165611
680.20 3.02575
680.30 3.034735
680.40 3.130497
680.50 3.25189
680.60 3.357519
680.70 3.46681
680.80 3.375668
680.90 3.127593
681.00 3.327572
681.10 3.547236
681.20 3.540802
681.30 3.532256
681.40 3.431834
681.50 3.311047
681.60 3.15795
681.70 3.137243
681.80 3.222737
681.90 3.298629
682.00 3.403872
682.10 3.293183
682.20 3.129226
682.30 3.272871
682.40 3.34334
682.50 3.273051
682.60 3.291155
682.70 3.526666
682.80 3.818291
682.90 3.76418
683.00 3.30693
683.10 2.983115
683.20 3.132452
683.30 3.414061
683.40 3.530767
683.50 3.546485
683.60 3.728874
683.70 3.768905
683.80 3.687608
683.90 3.783256
684.00 3.777602
684.10 3.720207
684.20 3.93742
684.30 4.098882
684.40 4.00977
684.50 3.898509
684.60 3.730106
684.70 3.717712
684.80 3.829976
684.90 3.745792
685.00 3.512049
685.10 3.355611
685.20 3.287618
685.30 3.151279
685.40 3.042374
685.50 3.071205
685.60 3.311125
685.70 3.476509
685.80 3.466079
685.90 3.367981
686.00 3.249545
686.10 3.419645
686.20 3.734224
686.30 3.910898
686.40 4.096492
686.50 4.112761
686.60 3.908641
686.70 3.668758
686.80 3.337853
686.90 3.544824
687.00 3.527645
687.10 3.241279
687.20 3.326319
687.30 3.678658
687.40 4.07345
687.50 4.281278
687.60 4.361666
687.70 4.269433
687.80 4.136658
687.90 4.018421
688.00 3.713815
688.10 3.710753
688.20 4.005927
688.30 4.034148
688.40 3.936086
688.50 3.795103
688.60 3.847926
688.70 4.094402
688.80 4.134735
688.90 4.038012
689.00 3.826999
689.10 3.558668
689.20 3.663871
689.30 4.089904
689.40 4.313778
689.50 4.156533
689.60 3.973518
689.70 4.069294
689.80 4.113539
689.90 4.121866
690.00 4.093276
690.10 3.942355
690.20 3.630863
690.30 3.518986
690.40 3.807224
690.50 4.043283
690.60 4.06336
690.70 4.246697
690.80 4.720348
690.90 4.903537
691.00 4.664496
691.10 4.461139
691.20 4.384405
691.30 4.670191
691.40 4.677721
691.50 4.591791
691.60 4.715813
691.70 4.658831
691.80 4.41767
691.90 3.897256
692.00 3.487633
692.10 3.472393
692.20 3.767508
692.30 4.329008
692.40 4.790299
692.50 4.663199
692.60 4.307487
692.70 4.520392
692.80 4.871539
692.90 5.003946
693.00 4.898561
693.10 4.84227
693.20 5.113883
693.30 5.371507
693.40 5.574422
693.50 5.661342
693.60 5.646509
693.70 5.670633
693.80 5.584327
693.90 5.418757
694.00 5.330073
694.10 5.435207
694.20 5.711713
694.30 6.003303
694.40 6.373995
694.50 6.784325
694.60 7.043539
694.70 7.33828
694.80 7.456101
694.90 7.241403
695.00 7.166192
695.10 7.114043
695.20 7.171166
695.30 7.074477
695.40 6.705013
695.50 6.42949
695.60 6.401034
695.70 6.656066
695.80 6.551059
695.90 6.27284
696.00 6.171002
696.10 6.286209
696.20 6.558083
696.30 6.666243
696.40 6.759808
696.50 6.941908
696.60 6.992379
696.70 6.95837
696.80 7.022027
696.90 7.09984
697.00 7.045784
697.10 6.91502
697.20 6.669448
697.30 6.559062
697.40 6.629779
697.50 6.673067
697.60 6.855116
697.70 7.301284
697.80 7.797813
697.90 8.021119
698.00 7.773
698.10 7.431891
698.20 7.430228
698.30 7.696475
698.40 7.767481
698.50 7.600413
698.60 7.589467
698.70 7.82641
698.80 7.913049
698.90 7.757078
699.00 7.421779
699.10 7.350824
699.20 7.425266
699.30 7.316293
699.40 7.500925
699.50 7.775092
699.60 7.931785
699.70 7.97636
699.80 7.796976
699.90 7.516843
700.00 7.336274
700.10 7.501763
700.20 7.849353
700.30 8.055887
700.40 7.879451
700.50 7.512656
700.60 7.436295
700.70 7.760513
700.80 8.161108
700.90 8.361698
701.00 8.512584
701.10 8.595537
701.20 8.670559
701.30 8.640361
701.40 8.369898
701.50 8.447043
701.60 8.910845
701.70 9.187332
701.80 9.176342
701.90 9.115188
702.00 9.352179
702.10 9.723173
702.20 9.62724
702.30 9.291525
702.40 9.103448
702.50 8.880948
702.60 8.916343
702.70 9.030215
702.80 9.598431
702.90 10.43971
703.00 10.7567
703.10 10.86795
703.20 10.86093
703.30 10.7271
703.40 10.74418
703.50 10.97004
703.60 11.41851
703.70 11.88979
703.80 12.14723
703.90 12.2372
704.00 12.17236
704.10 12.22468
704.20 12.26621
704.30 12.35224
704.40 12.56116
704.50 12.76669
704.60 12.98118
704.70 13.05111
704.80 12.99522
704.90 12.90543
705.00 12.96663
705.10 13.36169
705.20 13.54006
705.30 13.00951
705.40 11.68826
705.50 9.604302
705.60 7.248397
705.70 5.348438
705.80 4.318002
705.90 4.2076
706.00 4.424196
706.10 4.264651
706.20 4.035256
706.30 3.913105
706.40 3.876747
706.50 3.951538
706.60 4.183803
706.70 4.531779
706.80 4.81983
706.90 4.803243
707.00 4.787607
707.10 4.923179
707.20 5.086572
707.30 5.261557
707.40 5.251871
707.50 5.155886
707.60 5.078796
707.70 5.008032
707.80 5.105894
707.90 5.345374
708.00 5.348288
708.10 5.082436
708.20 5.226114
708.30 5.668641
708.40 5.935142
708.50 5.958958
708.60 5.811195
708.70 5.521862
708.80 5.094185
708.90 4.60355
709.00 3.963256
709.10 3.444241
709.20 3.313557
709.30 3.34215
709.40 3.321009
709.50 3.293035
709.60 3.293403
709.70 3.325679
709.80 3.422758
709.90 3.564888
710.00 3.602057
710.10 3.5564
710.20 3.597847
710.30 3.638111
710.40 3.752299
710.50 3.907025
710.60 4.003348
710.70 4.021126
710.80 4.033156
710.90 4.175862
711.00 4.420193
711.10 4.660937
711.20 4.699817
711.30 4.525728
711.40 4.421592
711.50 4.572584
711.60 4.67558
711.70 4.571348
711.80 4.61068
711.90 4.825126
712.00 5.126355
712.10 5.327088
712.20 5.28095
712.30 5.280596
712.40 5.234302
712.50 4.837276
712.60 4.246095
712.70 3.654094
712.80 3.200823
712.90 3.022459
713.00 2.938247
713.10 2.971011
713.20 3.070696
713.30 3.072715
713.40 3.039327
713.50 3.087052
713.60 3.244749
713.70 3.292097
713.80 3.024477
713.90 2.91148
714.00 3.049866
714.10 3.194731
714.20 3.366727
714.30 3.481501
714.40 3.473762
714.50 3.465772
714.60 3.508794
714.70 3.627425
714.80 3.865271
714.90 3.833963
715.00 3.583286
715.10 3.53823
715.20 3.692476
715.30 3.772162
715.40 3.85342
715.50 4.015587
715.60 4.257773
715.70 4.438741
715.80 4.313788
715.90 4.009861
716.00 3.922368
716.10 4.004983
716.20 3.877036
716.30 3.604441
716.40 3.452929
716.50 3.625786
716.60 3.968651
716.70 4.091723
716.80 4.031035
716.90 3.922652
717.00 3.919341
717.10 4.142492
717.20 4.206126
717.30 4.156105
717.40 4.080612
717.50 3.970063
717.60 4.042287
717.70 4.168935
717.80 4.381814
717.90 4.482471
718.00 4.601264
718.10 4.908981
718.20 4.983154
718.30 4.962415
718.40 4.960548
718.50 5.056686
718.60 5.22139
718.70 5.214187
718.80 5.217078
718.90 5.357387
719.00 5.514514
719.10 5.70675
719.20 5.767654
719.30 5.673612
719.40 5.636421
719.50 5.657366
719.60 5.654929
719.70 5.428407
719.80 5.177342
719.90 4.970764
720.00 4.654119
720.10 4.404856
720.20 4.522052
720.30 4.817028
720.40 4.893017
720.50 4.800638
720.60 4.713613
720.70 4.85821
720.80 4.950091
720.90 4.817575
721.00 4.69728
721.10 4.86139
721.20 5.134463
721.30 5.258271
721.40 5.329528
721.50 5.354225
721.60 5.395919
721.70 5.389699
721.80 5.352898
721.90 5.376513
722.00 5.34046
722.10 5.375281
722.20 5.551005
722.30 5.730921
722.40 5.89462
722.50 5.987918
722.60 6.090974
722.70 6.27356
722.80 6.471338
722.90 6.612028
723.00 6.552073
723.10 6.29916
723.20 6.229676
723.30 6.339241
723.40 6.352671
723.50 6.442042
723.60 6.595233
723.70 6.733919
723.80 6.942562
723.90 6.988166
724.00 6.998538
724.10 7.22771
724.20 7.070959
724.30 6.972929
724.40 7.084179
724.50 7.198154
724.60 7.520945
724.70 7.969552
724.80 8.363835
724.90 8.184245
725.00 8.066899
725.10 8.536816
725.20 8.984321
725.30 8.955914
725.40 8.647324
725.50 8.58742
725.60 8.843793
725.70 9.120585
725.80 9.297022
725.90 9.288697
726.00 9.139318
726.10 9.133383
726.20 9.451871
726.30 9.911017
726.40 10.22786
726.50 10.50268
726.60 10.69691
726.70 10.66216
726.80 10.6234
726.90 10.53696
727.00 10.25493
727.10 9.849719
727.20 9.306004
727.30 8.834596
727.40 8.715512
727.50 9.349936
727.60 10.45648
727.70 11.18786
727.80 11.17742
727.90 10.44148
728.00 10.36438
728.10 10.92664
728.20 10.89086
728.30 10.54272
728.40 10.3929
728.50 10.68739
728.60 11.34801
728.70 11.44015
728.80 11.2445
728.90 11.60307
729.00 11.83775
729.10 11.79215
729.20 11.75026
729.30 11.87245
729.40 12.19526
729.50 12.53422
729.60 12.92261
729.70 13.4739
729.80 13.80606
729.90 13.50188
730.00 13.11147
730.10 13.39255
730.20 13.92853
730.30 14.18324
730.40 14.51115
730.50 14.8072
730.60 14.62695
730.70 14.6106
730.80 15.13553
730.90 15.68868
731.00 15.88833
731.10 15.70275
731.20 15.45206
731.30 15.41895
731.40 15.53717
731.50 15.79137
731.60 16.26642
731.70 16.57266
731.80 16.41012
731.90 16.28913
732.00 17.02625
732.10 17.78911
732.20 17.7577
732.30 17.53676
732.40 17.51009
732.50 17.60976
732.60 17.56368
732.70 17.33103
732.80 17.54022
732.90 18.10141
733.00 18.17536
733.10 17.99383
733.20 17.96489
733.30 17.97717
733.40 17.94954
733.50 17.98179
733.60 18.41436
733.70 19.14215
733.80 19.71413
733.90 20.08452
734.00 19.96406
734.10 20.26864
734.20 20.95256
734.30 20.25928
734.40 19.47518
734.50 19.16315
734.60 18.47729
734.70 17.95839
734.80 17.8203
734.90 18.2136
735.00 18.84511
735.10 19.24127
735.20 19.53192
735.30 19.8155
735.40 19.89624
735.50 19.5301
735.60 18.88785
735.70 18.36674
735.80 18.56017
735.90 19.26734
736.00 19.70549
736.10 19.77156
736.20 19.76903
736.30 20.15447
736.40 20.86406
736.50 21.45533
736.60 21.7106
736.70 21.63629
736.80 21.92994
736.90 22.50281
737.00 22.84585
737.10 23.00531
737.20 22.84131
737.30 22.46932
737.40 21.89545
737.50 21.04134
737.60 20.41326
737.70 20.46421
737.80 20.914
737.90 21.43163
738.00 21.62929
738.10 21.47045
738.20 21.34127
738.30 21.57648
738.40 21.93629
738.50 22.00076
738.60 21.91866
738.70 21.94366
738.80 22.24966
738.90 22.95482
739.00 23.6181
739.10 23.96025
739.20 23.83041
739.30 23.10815
739.40 22.06161
739.50 21.12722
739.60 20.54901
739.70 20.4893
739.80 20.98121
739.90 21.63225
740.00 22.07956
740.10 22.46157
740.20 22.86781
740.30 23.22099
740.40 23.0352
740.50 21.95963
740.60 20.63252
740.70 20.16463
740.80 20.32337
740.90 20.40846
741.00 20.82644
741.10 21.53782
741.20 21.97373
741.30 22.00733
741.40 22.03387
741.50 22.38727
741.60 22.74868
741.70 22.47557
741.80 21.39164
741.90 20.34716
742.00 19.72591
742.10 19.66627
742.20 20.17299
742.30 20.6399
742.40 20.97306
742.50 21.52589
742.60 21.98325
742.70 22.21041
742.80 22.21929
742.90 22.07157
743.00 22.26008
743.10 22.5748
743.20 22.61708
743.30 22.71695
743.40 22.74644
743.50 21.88115
743.60 20.51534
743.70 19.60406
743.80 19.68381
743.90 20.84833
744.00 22.07114
744.10 22.2359
744.20 21.63044
744.30 21.16027
744.40 20.85509
744.50 20.54517
744.60 20.2401
744.70 20.08004
744.80 19.98665
744.90 19.93159
745.00 20.17725
745.10 20.61632
745.20 21.24296
745.30 21.76139
745.40 21.74313
745.50 21.40761
745.60 21.1162
745.70 20.89895
745.80 20.71676
745.90 20.58477
746.00 20.53037
746.10 20.69819
746.20 21.03775
746.30 21.54653
746.40 22.03092
746.50 22.10027
746.60 22.01365
746.70 21.96008
746.80 21.8616
746.90 21.78449
747.00 21.9084
747.10 22.38445
747.20 22.85491
747.30 22.89813
747.40 22.10423
747.50 21.07845
747.60 20.92789
747.70 21.38397
747.80 21.91669
747.90 22.39782
748.00 22.51714
748.10 22.28076
748.20 22.28383
748.30 22.48119
748.40 22.90331
748.50 23.55497
748.60 23.58046
748.70 23.09182
748.80 22.70175
748.90 22.67257
749.00 22.87906
749.10 23.07007
749.20 23.16061
749.30 22.94935
749.40 22.4415
749.50 21.93395
749.60 21.75617
749.70 22.03634
749.80 22.68911
749.90 23.45443
750.00 24.13903
750.10 24.51399
750.20 24.48412
750.30 24.38976
750.40 24.39574
750.50 24.15164
750.60 23.537
750.70 23.10168
750.80 23.17642
750.90 23.71911
751.00 24.58147
751.10 25.25486
751.20 25.5389
751.30 25.41352
751.40 24.92802
751.50 24.51747
751.60 24.34084
751.70 24.58443
751.80 24.94547
751.90 24.77013
752.00 24.37158
752.10 24.29153
752.20 24.19088
752.30 24.24763
752.40 24.75546
752.50 25.01233
752.60 25.2991
752.70 25.33375
752.80 24.3105
752.90 23.52917
753.00 23.57456
753.10 24.40572
753.20 25.5855
753.30 25.87931
753.40 25.44559
753.50 25.13531
753.60 24.95812
753.70 25.08333
753.80 25.78638
753.90 26.7551
754.00 27.71867
754.10 28.17813
754.20 28.00705
754.30 27.81764
754.40 27.85197
754.50 28.06125
754.60 28.19264
754.70 27.9447
754.80 27.48281
754.90 27.03216
755.00 26.67113
755.10 26.65699
755.20 27.28018
755.30 27.93766
755.40 28.08226
755.50 27.83372
755.60 27.61179
755.70 27.68915
755.80 27.78758
755.90 28.0087
756.00 28.38946
756.10 28.56543
756.20 28.53018
756.30 28.39749
756.40 28.18094
756.50 27.80216
756.60 27.43419
756.70 27.07695
756.80 26.53897
756.90 25.94318
757.00 25.63707
757.10 26.16216
757.20 27.66215
757.30 29.23343
757.40 29.69746
757.50 29.27364
757.60 28.98863
757.70 28.70959
757.80 27.88936
757.90 27.13519
758.00 27.22624
758.10 28.29125
758.20 29.81864
758.30 30.90712
758.40 31.23502
758.50 30.97164
758.60 30.23463
758.70 29.22892
758.80 27.4467
758.90 24.18249
759.00 20.21434
759.10 16.79665
759.20 14.51343
759.30 13.67034
759.40 13.95221
759.50 14.73348
759.60 15.38179
759.70 15.41489
759.80 15.29642
759.90 15.84372
760.00 16.75783
760.10 16.72014
760.20 15.71847
760.30 15.02967
760.40 15.38736
760.50 16.31551
760.60 16.7358
760.70 16.55619
760.80 16.49315
760.90 16.63958
761.00 16.87934
761.10 16.98257
761.20 17.00615
761.30 17.28872
761.40 18.12998
761.50 19.25391
761.60 19.68977
761.70 19.69233
761.80 19.7779
761.90 19.81735
762.00 20.17822
762.10 20.322
762.20 19.6175
762.30 19.15754
762.40 19.27416
762.50 19.26016
762.60 18.81518
762.70 17.4817
762.80 15.67426
762.90 14.11289
763.00 12.56863
763.10 11.34479
763.20 11.09642
763.30 11.40736
763.40 11.89146
763.50 12.19308
763.60 12.06337
763.70 12.00182
763.80 12.14767
763.90 12.17853
764.00 12.19587
764.10 11.91159
764.20 11.43701
764.30 11.46039
764.40 11.75175
764.50 11.9459
764.60 11.56373
764.70 10.80435
764.80 10.76746
764.90 11.15766
765.00 11.15853
765.10 10.84718
765.20 10.43951
765.30 10.36205
765.40 10.46533
765.50 9.899699
765.60 8.902719
765.70 8.386095
765.80 8.361223
765.90 8.294714
766.00 7.767177
766.10 6.977359
766.20 6.305543
766.30 5.646551
766.40 5.140716
766.50 4.807784
766.60 4.418929
766.70 4.253194
766.80 4.271902
766.90 4.338163
767.00 4.776479
767.10 5.451511
767.20 5.934861
767.30 6.044064
767.40 6.091854
767.50 6.270128
767.60 6.620325
767.70 7.089152
767.80 7.32522
767.90 7.440695
768.00 7.637304
768.10 7.739142
768.20 7.709287
768.30 7.758046
768.40 8.02405
768.50 8.364763
768.60 8.56587
768.70 8.568822
768.80 8.531809
768.90 8.497586
769.00 8.462452
769.10 8.495973
769.20 8.399841
769.30 8.186174
769.40 7.857316
769.50 7.322693
769.60 6.857191
769.70 6.342191
769.80 5.646181
769.90 4.943897
770.00 4.350786
770.10 4.156725
770.20 4.367412
770.30 4.812203
770.40 5.545418
770.50 6.304899
770.60 6.831564
770.70 7.211728
770.80 7.369918
770.90 7.650599
771.00 8.2848
771.10 8.671061
771.20 8.773433
771.30 8.979616
771.40 9.349203
771.50 9.712643
771.60 9.787947
771.70 10.03085
771.80 10.50813
771.90 10.24883
772.00 10.11727
772.10 10.74309
772.20 11.3273
772.30 11.62464
772.40 11.5089
772.50 11.60325
772.60 12.06905
772.70 12.48462
772.80 12.79525
772.90 13.05937
773.00 13.17788
773.10 13.19034
773.20 13.31823
773.30 13.51409
773.40 13.83244
773.50 14.16081
773.60 14.20825
773.70 14.24811
773.80 14.60647
773.90 14.96314
774.00 15.06685
774.10 15.03293
774.20 14.99989
774.30 14.82632
774.40 14.17153
774.50 13.24515
774.60 12.59418
774.70 12.27705
774.80 12.00591
774.90 11.81389
775.00 11.46275
775.10 10.91724
775.20 10.67305
775.30 10.27022
775.40 10.04571
775.50 10.64637
775.60 11.29336
775.70 11.52602
775.80 11.55573
775.90 11.71958
776.00 11.89055
776.10 12.0733
776.20 12.37091
776.30 12.35907
776.40 12.03392
776.50 11.86106
776.60 11.96071
776.70 12.22088
776.80 12.7279
776.90 13.29195
777.00 13.46987
777.10 13.36325
777.20 13.32684
777.30 13.51412
777.40 13.90312
777.50 14.15604
777.60 14.11282
777.70 14.07249
777.80 13.93527
777.90 13.79631
778.00 13.97757
778.10 14.17784
778.20 14.16995
778.30 13.87947
778.40 13.21877
778.50 12.66375
778.60 12.47191
778.70 12.43026
778.80 12.43525
778.90 12.47168
779.00 12.72346
779.10 13.13225
779.20 13.25498
779.30 13.0747
779.40 13.4204
779.50 14.2964
779.60 14.77117
779.70 14.77444
779.80 14.2863
779.90 13.2957
780.00 12.10873
780.10 11.13135
780.20 11.03499
780.30 11.91273
780.40 13.39339
780.50 15.13477
780.60 16.59048
780.70 17.47865
780.80 17.85217
780.90 17.66831
781.00 17.24896
781.10 16.95467
781.20 16.61357
781.30 16.66576
781.40 17.52929
781.50 18.43624
781.60 18.86902
781.70 18.9477
781.80 18.86557
781.90 18.81425
782.00 18.62546
782.10 18.27664
782.20 17.32632
782.30 15.79144
782.40 15.19364
782.50 15.75107
782.60 16.70078
782.70 17.29793
782.80 16.72422
782.90 15.57906
783.00 14.55858
783.10 13.87147
783.20 13.69046
783.30 14.04961
783.40 14.69559
783.50 15.22376
783.60 15.54775
783.70 15.71442
783.80 15.85572
783.90 16.09926
784.00 16.23084
784.10 16.27059
784.20 16.3779
784.30 16.3166
784.40 16.28139
784.50 16.56354
784.60 17.08036
784.70 17.65277
784.80 17.82229
784.90 17.55296
785.00 17.10667
785.10 16.64182
785.20 16.60892
785.30 17.12289
785.40 17.63423
785.50 17.74998
785.60 17.85726
785.70 17.96267
785.80 17.99374
785.90 18.28108
786.00 18.28327
786.10 17.90825
786.20 17.85604
786.30 17.75357
786.40 17.11
786.50 16.66103
786.60 16.61836
786.70 16.4729
786.80 16.45002
786.90 16.53577
787.00 16.78241
787.10 17.13084
787.20 16.97775
787.30 16.35243
787.40 15.83147
787.50 15.94194
787.60 16.5903
787.70 17.26597
787.80 17.93722
787.90 18.93928
788.00 19.61133
788.10 19.5545
788.20 19.19886
788.30 18.83471
788.40 19.20131
788.50 19.83211
788.60 20.00589
788.70 20.05699
788.80 19.94353
788.90 19.98983
789.00 20.33088
789.10 20.49224
789.20 20.50092
789.30 20.56616
789.40 20.83438
789.50 21.18011
789.60 21.0907
789.70 20.37519
789.80 19.5251
789.90 18.85184
790.00 18.16102
790.10 17.58463
790.20 17.41956
790.30 17.71328
790.40 18.54238
790.50 19.44612
790.60 19.97002
790.70 20.16747
790.80 19.79326
790.90 18.60088
791.00 17.19895
791.10 16.07903
791.20 15.15368
791.30 15.23221
791.40 16.43522
791.50 17.66148
791.60 18.35568
791.70 18.15538
791.80 17.41994
791.90 16.84871
792.00 16.39963
792.10 16.29051
792.20 16.90367
792.30 17.61252
792.40 17.60024
792.50 17.32849
792.60 17.56083
792.70 17.98732
792.80 18.19403
792.90 18.1637
793.00 18.06365
793.10 18.42243
793.20 19.30229
793.30 20.23646
793.40 20.87941
793.50 20.97395
793.60 20.83715
793.70 20.90536
793.80 21.10115
793.90 21.1492
794.00 20.52964
794.10 19.2275
794.20 17.99522
794.30 17.39997
794.40 17.72564
794.50 18.48966
794.60 18.71108
794.70 18.09389
794.80 16.97124
794.90 15.84042
795.00 15.59572
795.10 16.65341
795.20 18.17236
795.30 19.66336
795.40 20.9149
795.50 21.44652
795.60 21.55512
795.70 21.64711
795.80 21.76376
795.90 21.63521
796.00 21.08227
796.10 20.38955
796.20 19.62173
796.30 18.96675
796.40 18.98863
796.50 19.71536
796.60 20.71198
796.70 21.61688
796.80 22.02455
796.90 22.09727
797.00 22.39075
797.10 22.95686
797.20 23.6089
797.30 23.98256
797.40 23.63553
797.50 22.70595
797.60 21.68015
797.70 20.97854
797.80 20.60338
797.90 20.43785
798.00 20.52265
798.10 20.76419
798.20 20.97557
798.30 20.95676
798.40 20.608
798.50 20.1528
798.60 19.79606
798.70 19.43869
798.80 19.03871
798.90 18.94401
799.00 19.48879
799.10 20.43094
799.20 21.38111
799.30 22.13499
799.40 22.32106
799.50 21.745
799.60 21.03061
799.70 21.06536
799.80 21.51673
799.90 21.63082
800.00 21.60195
800.10 21.79009
800.20 22.16435
800.30 22.49821
800.40 22.7823
800.50 23.09653
800.60 23.31739
800.70 23.46868
800.80 23.76718
800.90 24.28306
801.00 24.65878
801.10 24.64053
801.20 24.55111
801.30 24.63049
801.40 24.87141
801.50 25.15262
801.60 25.34626
801.70 25.70086
801.80 26.23896
801.90 26.59216
802.00 26.79815
802.10 26.90513
802.20 26.80983
802.30 26.66242
802.40 26.68262
802.50 27.13497
802.60 28.0203
802.70 28.87624
802.80 29.07857
802.90 28.67975
803.00 28.6476
803.10 29.14604
803.20 29.53746
803.30 29.64264
803.40 29.52014
803.50 29.41624
803.60 29.4652
803.70 29.55918
803.80 29.71664
803.90 29.81452
804.00 29.59681
804.10 29.30044
804.20 29.37396
804.30 29.68976
804.40 30.19671
804.50 30.88768
804.60 31.19106
804.70 31.08451
804.80 30.8544
804.90 30.35396
805.00 30.39423
805.10 31.60394
805.20 33.0318
805.30 34.24541
805.40 35.21712
805.50 35.45616
805.60 35.27666
805.70 35.15403
805.80 34.98162
805.90 34.9427
806.00 35.27762
806.10 35.80314
806.20 36.22264
806.30 36.20422
806.40 35.76492
806.50 35.42448
806.60 35.18355
806.70 35.31908
806.80 36.13537
806.90 36.60486
807.00 36.40704
807.10 36.11723
807.20 35.94427
807.30 36.34431
807.40 37.42481
807.50 38.45257
807.60 38.90103
807.70 39.07348
807.80 39.28513
807.90 39.608
808.00 39.97838
808.10 40.26541
808.20 40.61808
808.30 41.01507
808.40 41.30658
808.50 41.66395
808.60 42.10842
808.70 42.21861
808.80 41.84379
808.90 41.30723
809.00 40.92521
809.10 41.00009
809.20 41.4682
809.30 42.06763
809.40 42.66177
809.50 42.91032
809.60 42.65909
809.70 42.1026
809.80 41.46454
809.90 41.12447
810.00 41.24687
810.10 41.49794
810.20 41.79127
810.30 42.13194
810.40 42.1802
810.50 41.93841
810.60 41.94997
810.70 42.51856
810.80 43.44963
810.90 44.37545
811.00 44.951
811.10 45.03565
811.20 44.83985
811.30 44.88559
811.40 45.46286
811.50 45.94309
811.60 45.72458
811.70 45.02754
811.80 44.3524
811.90 44.49088
812.00 45.73118
812.10 47.23622
812.20 48.14854
812.30 48.29531
812.40 47.9861
812.50 47.69192
812.60 47.74475
812.70 48.19475
812.80 48.8788
812.90 49.4775
813.00 49.72409
813.10 49.58357
813.20 49.20148
813.30 49.07659
813.40 49.41745
813.50 49.82193
813.60 50.10464
813.70 50.22096
813.80 50.40948
813.90 51.28154
814.00 52.46757
814.10 52.6122
814.20 51.39612
814.30 49.75983
814.40 48.38861
814.50 47.66405
814.60 47.91265
814.70 48.6444
814.80 48.98087
814.90 48.79902
815.00 48.2643
815.10 47.77226
815.20 48.16737
815.30 49.34327
815.40 50.35453
815.50 50.49094
815.60 49.91562
815.70 49.50815
815.80 49.6025
815.90 49.8846
816.00 49.82802
816.10 49.36127
816.20 49.00026
816.30 49.08529
816.40 49.76648
816.50 50.79577
816.60 51.57846
816.70 51.80648
816.80 51.81901
816.90 52.34902
817.00 53.17
817.10 53.53954
817.20 53.47896
817.30 53.21446
817.40 52.78227
817.50 52.23485
817.60 51.93138
817.70 51.78719
817.80 51.06533
817.90 49.82715
818.00 48.19517
818.10 45.6453
818.20 42.05494
818.30 37.04789
818.40 31.39847
818.50 28.15663
818.60 28.96464
818.70 32.90057
818.80 37.98474
818.90 41.99787
819.00 43.91681
819.10 44.20046
819.20 43.23693
819.30 40.73757
819.40 36.40602
819.50 30.79959
819.60 26.03776
819.70 24.29688
819.80 26.12101
819.90 29.94679
820.00 33.64372
820.10 36.79193
820.20 39.40364
820.30 41.59191
820.40 43.66052
820.50 44.71694
820.60 44.12045
820.70 42.43012
820.80 40.53603
820.90 39.63748
821.00 40.26461
821.10 41.71209
821.20 43.22792
821.30 44.25225
821.40 44.42099
821.50 43.85995
821.60 43.18283
821.70 42.97958
821.80 43.30974
821.90 44.02539
822.00 44.84897
822.10 45.57248
822.20 46.2962
822.30 46.96073
822.40 47.46263
822.50 47.91278
822.60 48.39783
822.70 48.82124
822.80 49.00056
822.90 49.08345
823.00 49.54162
823.10 50.60341
823.20 51.76415
823.30 51.99411
823.40 50.98781
823.50 49.5466
823.60 48.64784
823.70 48.77077
823.80 49.7544
823.90 51.08798
824.00 52.34333
824.10 53.30372
824.20 53.83498
824.30 53.70246
824.40 52.79947
824.50 51.69879
824.60 51.24391
824.70 51.90491
824.80 53.69184
824.90 55.4456
825.00 55.70622
825.10 54.55305
825.20 52.702
825.30 50.6625
825.40 49.11742
825.50 48.23483
825.60 47.67182
825.70 47.24933
825.80 47.06637
825.90 47.35848
826.00 48.14464
826.10 49.37156
826.20 50.78381
826.30 51.86461
826.40 52.52208
826.50 52.79952
826.60 52.72967
826.70 52.94139
826.80 53.50232
826.90 53.62999
827.00 53.00307
827.10 51.56429
827.20 49.6304
827.30 47.98196
827.40 46.87629
827.50 46.27085
827.60 46.28353
827.70 46.85734
827.80 47.86012
827.90 48.83522
828.00 49.14605
828.10 48.8704
828.20 47.91364
828.30 46.39993
828.40 45.30615
828.50 44.64849
828.60 44.33584
828.70 44.76532
828.80 45.46634
828.90 45.50815
829.00 44.49052
829.10 42.76014
829.20 41.11612
829.30 40.56229
829.40 41.2641
829.50 42.27011
829.60 42.85209
829.70 43.16585
829.80 43.72027
829.90 44.03723
830.00 43.62036
830.10 42.5992
830.20 41.57804
830.30 40.53629
830.40 39.49454
830.50 39.17177
830.60 38.849
830.70 39.20404
830.80 39.55907
830.90 40.60977
831.00 41.66046
831.10 42.09943
831.20 42.5384
831.30 42.45054
831.40 42.36269
831.50 42.04695
831.60 41.7312
831.70 42.57686
831.80 43.42252
831.90 44.03643
832.00 44.65034
832.10 44.96636
832.20 45.28237
832.30 45.83727
832.40 46.39218
832.50 46.6049
832.60 46.81761
832.70 45.55072
832.80 44.28382
832.90 43.25397
833.00 42.22411
833.10 43.8753
833.20 45.52649
833.30 46.20278
833.40 46.87906
833.50 45.36367
833.60 43.84828
833.70 43.10032
833.80 42.35236
833.90 42.87915
834.00 43.40594
834.10 44.03925
834.20 44.67255
834.30 45.5322
834.40 46.39185
834.50 45.75535
834.60 45.11886
834.70 43.57185
834.80 42.02484
834.90 42.39884
835.00 42.77284
835.10 43.56673
835.20 44.36062
835.30 44.34566
835.40 44.33069
835.50 44.2121
835.60 44.09351
835.70 43.99484
835.80 43.89618
835.90 44.84221
836.00 45.78823
836.10 46.13962
836.20 46.49101
836.30 45.75801
836.40 45.02501
836.50 44.40515
836.60 43.78529
836.70 44.45357
836.80 45.12185
836.90 46.69457
837.00 48.26729
837.10 49.27889
837.20 50.29049
837.30 48.29875
837.40 46.30702
837.50 44.44282
837.60 42.57862
837.70 42.19088
837.80 41.80315
837.90 42.59699
838.00 43.39084
838.10 44.05976
838.20 44.72867
838.30 44.66799
838.40 44.60731
838.50 43.90038
838.60 43.19344
838.70 41.84046
838.80 40.48747
838.90 39.26691
839.00 38.04636
839.10 38.99299
839.20 39.93962
839.30 40.93226
839.40 41.9249
839.50 42.03648
839.60 42.14806
839.70 42.29547
839.80 42.44288
839.90 42.83523
840.00 43.22758
840.10 44.76169
840.20 45.49768
840.30 45.80074
840.40 45.92747
840.50 46.08659
840.60 46.32336
840.70 46.55913
840.80 46.88464
840.90 47.19047
841.00 47.28695
841.10 47.22394
841.20 46.58462
841.30 45.56057
841.40 44.78571
841.50 45.97617
841.60 47.23513
841.70 48.04287
841.80 48.41711
841.90 48.03437
842.00 47.3626
842.10 46.48333
842.20 44.99118
842.30 43.616
842.40 44.07534
842.50 44.93995
842.60 45.26498
842.70 45.01097
842.80 44.62223
842.90 43.94304
843.00 43.4026
843.10 43.75046
843.20 44.21043
843.30 42.93452
843.40 40.28688
843.50 37.16226
843.60 33.24817
843.70 29.53782
843.80 29.26862
843.90 29.62407
844.00 31.37708
844.10 33.72392
844.20 34.83412
844.30 33.32021
844.40 31.61956
844.50 29.55938
844.60 27.48412
844.70 26.69156
844.80 26.44658
844.90 26.61107
845.00 27.48379
845.10 28.19625
845.20 27.24786
845.30 26.2552
845.40 24.66149
845.50 22.59649
845.60 21.28042
845.70 21.36368
845.80 21.49924
845.90 21.53989
846.00 21.57608
846.10 22.06073
846.20 22.75445
846.30 23.33996
846.40 23.59414
846.50 23.69766
846.60 23.32561
846.70 23.14247
846.80 22.90101
846.90 22.18733
847.00 21.83324
847.10 22.68341
847.20 23.47682
847.30 23.28936
847.40 23.01122
847.50 22.86966
847.60 22.81805
847.70 23.24294
847.80 24.37433
847.90 25.35335
848.00 25.30919
848.10 25.28984
848.20 25.20599
848.30 25.09805
848.40 25.16207
848.50 25.48994
848.60 25.85076
848.70 26.23895
848.80 26.58168
848.90 27.07744
849.00 27.68804
849.10 28.44678
849.20 29.15431
849.30 29.78131
849.40 30.08041
849.50 30.33001
849.60 29.32887
849.70 27.96959
849.80 26.84925
849.90 26.16101
850.00 25.78183
850.10 25.90785
850.20 25.94415
850.30 26.84345
850.40 28.16891
850.50 28.32683
850.60 27.20246
850.70 26.01017
850.80 25.2207
850.90 24.5616
851.00 24.88248
851.10 25.19037
851.20 25.85056
851.30 26.6569
851.40 27.04004
851.50 26.82776
851.60 26.62493
851.70 25.94206
851.80 25.32068
851.90 24.80192
852.00 24.08166
852.10 23.56863
852.20 23.59216
852.30 23.62219
852.40 24.12504
852.50 24.57175
852.60 25.41026
852.70 26.49914
852.80 27.30851
852.90 27.81131
853.00 28.26003
853.10 28.27578
853.20 28.25548
853.30 28.48911
853.40 28.76172
853.50 29.00237
853.60 29.51914
853.70 29.99485
853.80 29.84205
853.90 29.58788
854.00 29.47342
854.10 29.54448
854.20 29.59413
854.30 29.72669
854.40 29.89172
854.50 29.9487
854.60 30.01179
854.70 30.67166
854.80 31.65755
854.90 32.40998
855.00 32.7379
855.10 33.11235
855.20 33.72848
855.30 34.34071
855.40 34.55966
855.50 34.62597
855.60 34.79513
855.70 35.40163
855.80 35.82295
855.90 34.88872
856.00 33.8204
856.10 32.93598
856.20 32.22485
856.30 32.11869
856.40 32.3694
856.50 32.84557
856.60 33.80917
856.70 34.72796
856.80 35.20578
856.90 35.69354
857.00 35.63355
857.10 35.36845
857.20 34.99888
857.30 34.35307
857.40 33.73823
857.50 33.8562
857.60 33.90245
857.70 34.16991
857.80 34.72371
857.90 35.32622
858.00 35.92804
858.10 36.39898
858.20 35.63929
858.30 34.81916
858.40 34.6701
858.50 34.97156
858.60 35.36279
858.70 35.56144
858.80 35.76534
858.90 35.8277
859.00 35.97087
859.10 35.98184
859.20 36.03737
859.30 35.97366
859.40 35.7422
859.50 35.58665
859.60 36.28969
859.70 36.84993
859.80 37.29309
859.90 37.834
860.00 38.1138
860.10 37.942
860.20 37.82441
860.30 37.70652
860.40 37.46034
860.50 37.86819
860.60 38.94349
860.70 39.90731
860.80 40.10955
860.90 40.23641
861.00 39.91305
861.10 39.55632
861.20 39.20233
861.30 38.82093
861.40 38.23902
861.50 37.50143
861.60 36.90405
861.70 36.46029
861.80 35.91841
861.90 35.97802
862.00 36.28089
862.10 36.77066
862.20 37.14881
862.30 37.49646
862.40 37.65959
862.50 37.71433
862.60 36.60674
862.70 35.53615
862.80 35.33034
862.90 35.36369
863.00 35.14791
863.10 34.87404
863.20 34.6839
863.30 35.2043
863.40 35.65892
863.50 36.04833
863.60 36.53259
863.70 36.82796
863.80 36.71703
863.90 36.61013
864.00 36.51705
864.10 36.46071
864.20 36.449
864.30 36.69145
864.40 37.24946
864.50 37.89807
864.60 38.35567
864.70 37.6472
864.80 37.26181
864.90 36.90639
865.00 36.22889
865.10 36.10533
865.20 37.10926
865.30 38.08946
865.40 38.67265
865.50 39.17114
865.60 39.82805
865.70 40.47401
865.80 40.68123
865.90 40.49299
866.00 40.20507
866.10 39.35549
866.20 38.47692
866.30 37.82689
866.40 37.33555
866.50 37.77672
866.60 39.03484
866.70 40.2716
866.80 40.85563
866.90 41.34256
867.00 41.19394
867.10 40.76191
867.20 40.18134
867.30 40.05073
867.40 40.24971
867.50 40.78702
867.60 41.11801
867.70 41.29846
867.80 41.44601
867.90 41.64472
868.00 42.15959
868.10 42.49823
868.20 42.77453
868.30 43.04182
868.40 42.3153
868.50 41.23207
868.60 41.1411
868.70 41.99618
868.80 42.28165
868.90 41.26144
869.00 40.15193
869.10 38.88879
869.20 37.88757
869.30 37.11778
869.40 36.3595
869.50 35.55145
869.60 34.40706
869.70 33.38064
869.80 34.19637
869.90 35.10262
870.00 35.47105
870.10 35.43325
870.20 35.61761
870.30 36.17996
870.40 36.75906
870.50 37.37176
870.60 38.04695
870.70 38.88852
870.80 39.6553
870.90 39.41326
871.00 38.5363
871.10 37.70202
871.20 37.12482
871.30 36.39986
871.40 36.25436
871.50 36.57031
871.60 36.86716
871.70 36.63785
871.80 36.27813
871.90 35.84093
872.00 35.54054
872.10 35.95819
872.20 36.48148
872.30 36.89591
872.40 37.3685
872.50 37.80764
872.60 37.95461
872.70 38.12346
872.80 39.90524
872.90 41.88381
873.00 42.9547
873.10 43.34059
873.20 43.11933
873.30 41.98113
873.40 40.89322
873.50 40.14435
873.60 39.40412
873.70 39.40979
873.80 39.95655
873.90 40.4183
874.00 40.33223
874.10 40.28542
874.20 41.2395
874.30 42.22751
874.40 43.60098
874.50 45.05711
874.60 46.11687
874.70 46.58411
874.80 46.77864
874.90 45.18859
875.00 43.6959
875.10 43.13178
875.20 42.82357
875.30 43.425
875.40 44.75313
875.50 45.93417
875.60 46.57823
875.70 47.30372
875.80 47.38946
875.90 46.97235
876.00 47.24211
876.10 48.38541
876.20 49.30564
876.30 49.02054
876.40 48.65499
876.50 47.34072
876.60 45.83727
876.70 44.87131
876.80 44.14511
876.90 43.80195
877.00 44.7829
877.10 45.93291
877.20 48.0269
877.30 50.20282
877.40 52.01611
877.50 53.41794
877.60 54.68671
877.70 55.90802
877.80 57.04606
877.90 54.85347
878.00 52.31652
878.10 50.38988
878.20 48.93951
878.30 48.555
878.40 49.59466
878.50 50.55364
878.60 51.43152
878.70 52.21838
878.80 52.05123
878.90 51.62291
879.00 51.53988
879.10 52.15473
879.20 52.84575
879.30 53.71079
879.40 54.48139
879.50 54.65317
879.60 54.52225
879.70 55.12524
879.80 56.54917
879.90 57.80879
880.00 57.7952
880.10 57.58843
880.20 54.46386
880.30 50.74803
880.40 48.26946
880.50 46.83354
880.60 45.99588
880.70 47.31791
880.80 48.55371
880.90 49.0211
881.00 49.56068
881.10 51.29063
881.20 53.34309
881.30 55.47663
881.40 57.35612
881.50 59.29216
881.60 60.43464
881.70 61.42553
881.80 62.0457
881.90 62.63909
882.00 63.00983
882.10 62.70154
882.20 62.24399
882.30 59.76032
882.40 57.08431
882.50 54.62644
882.60 52.43833
882.70 51.5458
882.80 52.31837
882.90 53.05987
883.00 54.53384
883.10 56.10484
883.20 57.81029
883.30 59.69377
883.40 60.84394
883.50 61.06311
883.60 61.22559
883.70 61.53957
883.80 61.82813
883.90 62.36614
884.00 62.68431
884.10 62.81493
884.20 63.37584
884.30 63.93743
884.40 63.73648
884.50 63.30322
884.60 61.43044
884.70 59.41931
884.80 57.59191
884.90 56.09654
885.00 55.05631
885.10 55.27406
885.20 55.42934
885.30 59.116
885.40 63.3304
885.50 65.8654
885.60 67.504
885.70 67.74176
885.80 64.59568
885.90 61.40778
886.00 57.44789
886.10 53.23397
886.20 48.97619
886.30 44.78806
886.40 42.33075
886.50 43.10675
886.60 44.01522
886.70 47.16753
886.80 50.13796
886.90 49.80231
887.00 48.23428
887.10 45.69609
887.20 41.7254
887.30 37.80193
887.40 37.06179
887.50 36.44421
887.60 37.35782
887.70 38.60812
887.80 40.39121
887.90 42.79924
888.00 45.09595
888.10 46.59716
888.20 48.05787
888.30 47.43418
888.40 46.38878
888.50 45.26202
888.60 43.98819
888.70 43.0257
888.80 43.19209
888.90 43.60251
889.00 45.57456
889.10 47.35756
889.20 48.15621
889.30 48.71894
889.40 48.988
889.50 48.44097
889.60 47.87247
889.70 46.29194
889.80 44.33364
889.90 43.59871
890.00 43.71702
890.10 44.7612
890.20 47.71291
890.30 50.59397
890.40 52.22196
890.50 53.57901
890.60 54.30512
890.70 54.97761
890.80 54.93508
890.90 54.06419
891.00 53.2168
891.10 52.17683
891.20 50.83015
891.30 50.12783
891.40 49.84246
891.50 50.61633
891.60 52.68293
891.70 54.58071
891.80 54.57276
891.90 54.50134
892.00 55.21434
892.10 56.30112
892.20 56.76792
892.30 56.5054
892.40 56.04582
892.50 54.78816
892.60 53.54563
892.70 53.07556
892.80 52.62606
892.90 52.47895
893.00 52.89705
893.10 53.72936
893.20 56.00941
893.30 58.21672
893.40 60.06366
893.50 61.89942
893.60 62.30009
893.70 61.7462
893.80 60.07761
893.90 55.97089
894.00 51.94909
894.10 50.32201
894.20 48.8538
894.30 48.97768
894.40 49.87813
894.50 50.19063
894.60 49.45698
894.70 48.86625
894.80 50.73186
894.90 52.53008
895.00 53.37373
895.10 53.90142
895.20 53.87179
895.30 53.22033
895.40 52.51377
895.50 52.51478
895.60 52.55601
895.70 53.9275
895.80 55.62435
895.90 56.66606
896.00 57.08117
896.10 57.32107
896.20 56.49337
896.30 55.67386
896.40 55.55668
896.50 55.85217
896.60 55.85223
896.70 55.21253
896.80 54.52003
896.90 53.93474
897.00 53.35422
897.10 54.56399
897.20 56.1721
897.30 57.04711
897.40 57.13309
897.50 57.48791
897.60 58.7811
897.70 60.15197
897.80 61.44326
897.90 62.80951
898.00 62.44834
898.10 60.77867
898.20 59.23891
898.30 58.29962
898.40 57.61637
898.50 60.03659
898.60 62.3061
898.70 64.08931
898.80 65.95188
898.90 66.58351
899.00 65.39147
899.10 64.16206
899.20 63.35581
899.30 62.36071
899.40 61.85715
899.50 61.49239
899.60 60.98831
899.70 60.69304
899.80 60.39199
899.90 59.5851
900.00 58.60593
900.10 57.86499
900.20 57.21468
900.30 58.46937
900.40 61.10567
900.50 63.57918
900.60 65.80674
900.70 67.95405
900.80 67.62703
900.90 67.30089
901.00 66.39362
901.10 64.63736
901.20 63.5806
901.30 64.63747
901.40 65.82461
901.50 66.12587
901.60 66.22711
901.70 65.68935
901.80 64.91533
901.90 63.95456
902.00 62.99935
902.10 62.05734
902.20 60.9749
902.30 59.80752
902.40 58.68441
902.50 57.46817
902.60 56.44586
902.70 55.90846
902.80 55.47015
902.90 55.53295
903.00 55.58723
903.10 56.6023
903.20 58.04874
903.30 59.48981
903.40 60.86028
903.50 62.29674
903.60 63.61228
903.70 64.85391
903.80 65.91949
903.90 67.05653
904.00 67.88444
904.10 68.65168
904.20 68.98973
904.30 67.95838
904.40 66.82877
904.50 66.0575
904.60 65.41906
904.70 66.10228
904.80 67.63908
904.90 69.06207
905.00 70.29884
905.10 71.45365
905.20 69.49764
905.30 67.51871
905.40 66.33143
905.50 65.56655
905.60 64.98349
905.70 64.38763
905.80 63.73236
905.90 63.57634
906.00 63.47242
906.10 63.69228
906.20 64.04548
906.30 64.83598
906.40 66.17808
906.50 67.31973
906.60 66.02719
906.70 64.60435
906.80 63.4266
906.90 62.53139
907.00 61.95059
907.10 61.46235
907.20 61.29324
907.30 62.61293
907.40 64.06089
907.50 64.70356
907.60 65.11736
907.70 65.76444
907.80 66.20571
907.90 67.03515
908.00 69.47703
908.10 72.04586
908.20 72.61523
908.30 72.81146
908.40 71.77025
908.50 70.02205
908.60 68.96908
908.70 69.3951
908.80 69.80814
908.90 69.42898
909.00 68.72451
909.10 68.16741
909.20 68.01104
909.30 68.37346
909.40 69.54735
909.50 70.69172
909.60 71.54244
909.70 72.38325
909.80 72.6942
909.90 72.68238
910.00 72.85275
910.10 73.58341
910.20 74.16558
910.30 73.66331
910.40 73.13438
910.50 72.21513
910.60 71.05949
910.70 69.79527
910.80 68.95713
910.90 68.63566
911.00 70.30202
911.10 71.81605
911.20 73.20233
911.30 74.6109
911.40 75.5246
911.50 76.27329
911.60 76.51879
911.70 75.23323
911.80 73.84604
911.90 73.46632
912.00 73.35375
912.10 73.94998
912.20 74.99168
912.30 75.70845
912.40 75.52397
912.50 75.29233
912.60 74.88298
912.70 74.5052
912.80 74.50512
912.90 74.71821
913.00 75.15183
913.10 75.62178
913.20 76.03055
913.30 77.16833
913.40 78.44294
913.50 79.21196
913.60 79.58165
913.70 78.93047
913.80 77.56007
913.90 76.02418
914.00 73.88728
914.10 71.89288
914.20 70.97922
914.30 70.04359
914.40 70.71951
914.50 72.41827
914.60 74.10355
914.70 75.67139
914.80 77.18046
914.90 76.16543
915.00 74.99035
915.10 73.90656
915.20 72.69543
915.30 72.46474
915.40 74.51259
915.50 76.6982
915.60 79.92358
915.70 82.85118
915.80 83.83657
915.90 84.46338
916.00 84.22786
916.10 82.82023
916.20 81.39885
916.30 79.35476
916.40 77.24357
916.50 77.17143
916.60 77.84794
916.70 78.99769
916.80 80.42005
916.90 81.61523
917.00 81.90486
917.10 82.37718
917.20 82.22041
917.30 81.70292
917.40 80.72667
917.50 79.50028
917.60 78.47327
917.70 78.32489
917.80 78.20575
917.90 78.47246
918.00 78.7507
918.10 79.26017
918.20 80.12025
918.30 80.80712
918.40 80.97454
918.50 81.08189
918.60 79.96195
918.70 78.84042
918.80 79.53753
918.90 80.53061
919.00 82.34188
919.10 86.09704
919.20 89.75125
919.30 88.47965
919.40 87.2746
919.50 84.83719
919.60 81.59377
919.70 80.25386
919.80 81.35413
919.90 82.51172
920.00 83.97778
920.10 85.50164
920.20 85.04043
920.30 83.88302
920.40 83.39042
920.50 83.76323
920.60 83.84006
920.70 83.05485
920.80 82.27723
920.90 78.99131
921.00 75.09869
921.10 73.00343
921.20 72.61332
921.30 72.83518
921.40 73.8455
921.50 74.69293
921.60 74.92944
921.70 75.31527
921.80 75.69307
921.90 76.19048
922.00 76.06438
922.10 75.22195
922.20 74.51758
922.30 74.05834
922.40 73.44356
922.50 72.70288
922.60 72.02051
922.70 72.01745
922.80 72.85759
922.90 73.71447
923.00 73.83827
923.10 73.72214
923.20 71.65281
923.30 69.09426
923.40 67.54769
923.50 67.63993
923.60 68.0444
923.70 69.03084
923.80 69.8032
923.90 69.75886
924.00 69.57623
924.10 69.83778
924.20 70.41636
924.30 71.52302
924.40 73.68701
924.50 75.70412
924.60 75.08282
924.70 74.23404
924.80 72.86566
924.90 70.87486
925.00 69.46597
925.10 69.48818
925.20 69.60394
925.30 69.49239
925.40 69.32263
925.50 69.86926
925.60 70.78567
925.70 72.51476
925.80 75.14366
925.90 77.59104
926.00 77.22051
926.10 76.82666
926.20 75.63794
926.30 74.39105
926.40 73.73763
926.50 73.65713
926.60 73.95128
926.70 76.3594
926.80 78.80596
926.90 79.48889
927.00 79.7173
927.10 79.33794
927.20 78.47789
927.30 77.4359
927.40 75.84875
927.50 74.22996
927.60 72.54104
927.70 71.00175
927.80 69.46671
927.90 67.69982
928.00 66.64075
928.10 67.47923
928.20 68.36886
928.30 69.40768
928.40 70.57765
928.50 72.13856
928.60 73.8705
928.70 74.42089
928.80 72.96437
928.90 71.49152
929.00 71.26715
929.10 71.05781
929.20 70.38457
929.30 69.46939
929.40 69.14321
929.50 69.4339
929.60 69.75695
929.70 70.55055
929.80 71.38876
929.90 70.49206
930.00 69.2547
930.10 67.95435
930.20 66.07264
930.30 64.73032
930.40 65.4891
930.50 66.34447
930.60 66.57636
930.70 66.77761
930.80 66.99054
930.90 67.14799
931.00 67.63679
931.10 68.78303
931.20 70.05168
931.30 71.41095
931.40 72.70004
931.50 72.79355
931.60 72.4716
931.70 71.53981
931.80 70.73484
931.90 70.15511
932.00 69.77848
932.10 70.35157
932.20 70.76963
932.30 70.76594
932.40 70.77562
932.50 70.71693
932.60 70.18115
932.70 69.70586
932.80 69.41982
932.90 69.579
933.00 69.72849
933.10 69.94986
933.20 70.03196
933.30 70.10959
933.40 70.32327
933.50 70.53125
933.60 70.38522
933.70 70.33374
933.80 70.55853
933.90 71.26439
934.00 71.97122
934.10 72.35543
934.20 72.20276
934.30 71.35676
934.40 70.87707
934.50 71.20327
934.60 71.53117
934.70 71.86416
934.80 72.74652
934.90 73.7002
935.00 74.12287
935.10 73.00723
935.20 71.8924
935.30 71.0643
935.40 70.69844
935.50 70.34793
935.60 70.1742
935.70 70.09144
935.80 70.02336
935.90 71.09689
936.00 72.19998
936.10 73.4029
936.20 74.79205
936.30 76.15769
936.40 76.3598
936.50 75.59511
936.60 74.84091
936.70 74.52019
936.80 74.24437
936.90 73.82437
937.00 72.64534
937.10 71.46574
937.20 70.67943
937.30 70.50288
937.40 70.37028
937.50 70.34774
937.60 70.59962
937.70 70.89847
937.80 71.08819
937.90 71.25932
938.00 71.42402
938.10 71.39252
938.20 71.34989
938.30 71.41787
938.40 71.63297
938.50 71.89268
938.60 72.06843
938.70 72.26783
938.80 72.5004
938.90 73.02587
939.00 73.55119
939.10 74.05974
939.20 74.40352
939.30 74.73186
939.40 74.80877
939.50 74.77911
939.60 74.69552
939.70 73.51301
939.80 72.23713
939.90 71.36736
940.00 71.86578
940.10 72.37675
940.20 72.75959
940.30 72.98234
940.40 73.17368
940.50 73.92185
940.60 74.83591
940.70 75.8093
940.80 76.94436
940.90 78.07747
941.00 78.85051
941.10 78.88155
941.20 78.86429
941.30 78.3248
941.40 77.51092
941.50 76.68741
941.60 75.50517
941.70 74.27792
941.80 73.31952
941.90 73.21086
942.00 73.09445
942.10 73.3605
942.20 74.09157
942.30 74.82483
942.40 74.98757
942.50 75.00018
942.60 75.035
942.70 74.43034
942.80 73.82596
942.90 73.87422
943.00 75.25669
943.10 76.6839
943.20 77.87517
943.30 78.94884
943.40 79.94881
943.50 79.90695
943.60 79.74553
943.70 79.49968
943.80 78.68634
943.90 77.87123
944.00 76.83355
944.10 75.68784
944.20 74.56483
944.30 74.18071
944.40 74.00169
944.50 73.77636
944.60 74.20874
944.70 74.6399
944.80 75.07046
944.90 75.37929
945.00 75.69303
945.10 76.23462
945.20 76.79957
945.30 77.33503
945.40 76.91625
945.50 76.39602
945.60 76.00821
945.70 76.18345
945.80 76.34838
945.90 76.11297
946.00 75.53233
946.10 74.99978
946.20 75.68453
946.30 76.79222
946.40 78.00498
946.50 78.15331
946.60 78.30787
946.70 78.3066
946.80 78.47395
946.90 78.6535
947.00 79.07507
947.10 79.55434
947.20 80.00488
947.30 80.05341
947.40 80.08128
947.50 80.23569
947.60 80.85379
947.70 81.47126
947.80 81.779
947.90 81.81676
948.00 81.87067
948.10 82.35864
948.20 82.88383
948.30 83.34207
948.40 84.0742
948.50 84.80598
948.60 85.17798
948.70 84.76385
948.80 84.33203
948.90 84.36022
949.00 84.63828
949.10 84.9605
949.20 85.17269
949.30 85.37637
949.40 85.30364
949.50 84.10757
949.60 82.91063
949.70 82.29683
949.80 82.62092
949.90 83.03085
950.00 83.53363
950.10 83.92503
950.20 84.27939
950.30 84.91641
950.40 85.55726
950.50 85.66697
950.60 84.93213
950.70 84.22268
950.80 84.05228
950.90 84.23749
951.00 84.4571
951.10 84.49895
951.20 84.52214
951.30 84.44239
951.40 83.75243
951.50 83.06107
951.60 82.42009
951.70 81.957
951.80 81.49111
951.90 81.09054
952.00 80.73197
952.10 80.42396
952.20 81.11252
952.30 81.79962
952.40 82.82647
952.50 84.35586
952.60 85.87977
952.70 86.86759
952.80 87.50295
952.90 88.06819
953.00 87.74298
953.10 87.30726
953.20 86.8762
953.30 86.40454
953.40 85.93244
953.50 85.0442
953.60 83.7012
953.70 82.35582
953.80 82.22424
953.90 82.48703
954.00 82.77237
954.10 82.29536
954.20 81.81459
954.30 81.43647
954.40 81.35979
954.50 81.25268
954.60 81.46132
954.70 81.91912
954.80 82.44683
954.90 82.68261
955.00 82.85476
955.10 83.06811
955.20 83.23974
955.30 83.40153
955.40 83.66988
955.50 84.08812
955.60 84.519
955.70 85.52745
955.80 86.7041
955.90 87.8329
956.00 88.4375
956.10 89.04345
956.20 89.01361
956.30 87.88223
956.40 86.72307
956.50 86.08235
956.60 85.70147
956.70 85.41356
956.80 86.29584
956.90 87.3152
957.00 88.14837
957.10 88.68331
957.20 89.22762
957.30 89.15373
957.40 88.35773
957.50 87.50784
957.60 86.48846
957.70 85.39351
957.80 84.30682
957.90 83.70982
958.00 83.11075
958.10 83.10376
958.20 83.83692
958.30 84.54155
958.40 84.97654
958.50 85.29235
958.60 85.60451
958.70 84.87651
958.80 84.0701
958.90 82.92296
959.00 81.02072
959.10 79.135
959.20 78.62675
959.30 79.40648
959.40 80.24109
959.50 80.96471
959.60 81.65377
959.70 81.96396
959.80 80.1421
959.90 78.32467
960.00 76.87573
960.10 76.11477
960.20 75.47407
960.30 76.56387
960.40 78.45827
960.50 80.46712
960.60 81.8058
960.70 83.1039
960.80 84.02357
960.90 84.31144
961.00 84.57376
961.10 84.54446
961.20 84.32896
961.30 84.09417
961.40 83.48472
961.50 82.75613
961.60 82.05275
961.70 82.15805
961.80 82.2769
961.90 83.20033
962.00 85.04053
962.10 86.8476
962.20 87.51788
962.30 87.65457
962.40 87.68428
962.50 87.24224
962.60 86.78537
962.70 86.53372
962.80 86.548
962.90 86.54734
963.00 86.41318
963.10 86.09015
963.20 85.73546
963.30 84.63509
963.40 83.47141
963.50 82.2311
963.60 80.59452
963.70 78.92364
963.80 76.23316
963.90 72.55649
964.00 69.04335
964.10 68.85654
964.20 69.99157
964.30 71.54907
964.40 74.57772
964.50 77.61103
964.60 79.57266
964.70 79.81083
964.80 80.01712
964.90 80.12506
965.00 80.24907
965.10 80.46699
965.20 80.67298
965.30 80.84469
965.40 81.04735
965.50 81.38538
965.60 81.7144
965.70 82.40122
965.80 83.61247
965.90 84.82841
966.00 85.86174
966.10 86.82314
966.20 87.7899
966.30 88.1925
966.40 88.59527
966.50 88.63519
966.60 88.13131
966.70 87.59736
966.80 87.24902
966.90 87.03437
967.00 86.90356
967.10 86.85538
967.20 86.81045
967.30 86.47882
967.40 85.61062
967.50 84.70359
967.60 82.87789
967.70 80.29091
967.80 77.90687
967.90 78.30081
968.00 79.42302
968.10 80.89846
968.20 83.54752
968.30 86.18771
968.40 87.36038
968.50 86.52566
968.60 85.66108
968.70 84.40734
968.80 82.99407
968.90 81.50951
969.00 81.28177
969.10 81.13184
969.20 81.63394
969.30 83.36629
969.40 85.11676
969.50 86.65403
969.60 87.91714
969.70 89.07931
969.80 89.34085
969.90 89.45146
970.00 89.58897
970.10 89.84238
970.20 90.0882
970.30 89.80835
970.40 88.93811
970.50 87.94251
970.60 85.72185
970.70 82.99588
970.80 80.46228
970.90 80.95994
971.00 81.50543
971.10 83.06053
971.20 86.07466
971.30 89.03723
971.40 91.07152
971.50 92.47669
971.60 93.79047
971.70 94.11881
971.80 94.3305
971.90 94.2707
972.00 93.27027
972.10 92.27186
972.20 91.32044
972.30 90.38321
972.40 89.51066
972.50 89.34512
972.60 89.41484
972.70 89.30533
972.80 87.85434
972.90 86.41108
973.00 84.65627
973.10 82.57101
973.20 80.64891
973.30 81.0324
973.40 82.71896
973.50 84.39657
973.60 85.22426
973.70 85.94278
973.80 86.38612
973.90 86.52877
974.00 86.67366
974.10 86.41983
974.20 85.72545
974.30 84.92675
974.40 83.18818
974.50 81.22179
974.60 79.5404
974.70 79.90277
974.80 80.28005
974.90 81.12852
975.00 82.27158
975.10 83.3524
975.20 84.14422
975.30 84.84062
975.40 85.53834
975.50 86.52303
975.60 87.50256
975.70 88.19481
975.80 88.40079
975.90 88.63849
976.00 88.82681
976.10 88.87547
976.20 88.83192
976.30 88.39514
976.40 87.89455
976.50 87.71249
976.60 88.84369
976.70 89.96262
976.80 90.50452
976.90 90.38344
977.00 90.15818
977.10 88.41272
977.20 86.11127
977.30 84.00109
977.40 84.75221
977.50 85.48979
977.60 86.65783
977.70 88.1937
977.80 89.67858
977.90 90.11711
978.00 89.91743
978.10 89.57056
978.20 88.07094
978.30 86.43624
978.40 84.48894
978.50 82.26867
978.60 80.12506
978.70 79.32637
978.80 79.61211
978.90 79.9594
979.00 80.82909
979.10 81.83285
979.20 83.10129
979.30 85.96733
979.40 88.82607
979.50 90.82226
979.60 91.5223
979.70 92.11907
979.80 92.30172
979.90 92.34191
980.00 92.45186
980.10 92.60319
980.20 92.76157
980.30 92.84458
980.40 92.78151
980.50 92.71409
980.60 92.40062
980.70 91.88163
980.80 91.36277
980.90 91.38689
981.00 91.52216
981.10 91.81066
981.20 92.76807
981.30 93.71406
981.40 93.50264
981.50 91.82559
981.60 90.11132
981.70 89.03172
981.80 88.22702
981.90 87.58582
982.00 88.5697
982.10 89.55367
982.20 90.09494
982.30 89.87098
982.40 89.65771
982.50 89.71192
982.60 89.9429
982.70 90.20346
982.80 90.45087
982.90 90.69183
983.00 90.68211
983.10 90.05399
983.20 89.43585
983.30 89.1883
983.40 89.28732
983.50 89.37166
983.60 88.95992
983.70 88.40684
983.80 87.93012
983.90 88.47563
984.00 89.02904
984.10 89.69304
984.20 90.32142
984.30 90.92595
984.40 90.87941
984.50 90.52569
984.60 90.17276
984.70 90.8968
984.80 91.66956
984.90 92.12107
985.00 91.66383
985.10 91.17379
985.20 90.38912
985.30 89.43712
985.40 88.56104
985.50 89.11798
985.60 89.92997
985.70 90.7629
985.80 91.32789
985.90 91.87926
986.00 92.09378
986.10 91.99669
986.20 91.90639
986.30 91.9313
986.40 91.99809
986.50 92.13473
986.60 92.65694
986.70 93.17645
986.80 92.95508
986.90 91.54965
987.00 90.15316
987.10 89.34366
987.20 88.89217
987.30 88.6123
987.40 90.52129
987.50 92.63602
987.60 94.31708
987.70 94.68072
987.80 95.00479
987.90 94.19576
988.00 92.40565
988.10 90.64391
988.20 90.43133
988.30 90.58885
988.40 91.04688
988.50 93.02735
988.60 95.00155
988.70 96.14666
988.80 96.09498
988.90 95.99995
989.00 95.29147
989.10 94.32756
989.20 93.34526
989.30 92.2081
989.40 91.07255
989.50 89.32702
989.60 86.44112
989.70 83.46504
989.80 79.9005
989.90 76.05044
990.00 72.43505
990.10 71.075
990.20 70.01377
990.30 68.76292
990.40 66.68986
990.50 64.59133
990.60 61.91818
990.70 58.72192
990.80 55.61194
990.90 54.72885
991.00 54.50017
991.10 54.53237
991.20 55.53308
991.30 56.52053
991.40 56.46777
991.50 54.85729
991.60 53.24851
991.70 52.44677
991.80 52.05561
991.90 51.89068
992.00 54.20882
992.10 56.64184
992.20 58.29839
992.30 58.05375
992.40 57.73943
992.50 56.71537
992.60 55.26111
992.70 54.01499
992.80 55.43989
992.90 57.30384
993.00 59.39447
993.10 62.23062
993.20 65.02781
993.30 66.09712
993.40 65.24477
993.50 64.35471
993.60 64.00401
993.70 63.82943
993.80 64.03473
993.90 67.5624
994.00 71.0834
994.10 73.7222
994.20 74.71167
994.30 75.59862
994.40 75.4083
994.50 74.69116
994.60 74.00755
994.70 74.14885
994.80 74.34356
994.90 74.91761
995.00 76.25987
995.10 77.5945
995.20 78.85875
995.30 80.09493
995.40 81.31476
995.50 81.7146
995.60 81.9473
995.70 81.66388
995.80 79.41686
995.90 77.19018
996.00 75.69823
996.10 75.02928
996.20 74.44341
996.30 75.516
996.40 77.22158
996.50 79.06683
996.60 82.06336
996.70 85.06051
996.80 86.03032
996.90 83.32959
997.00 80.49293
997.10 76.64561
997.20 72.30382
997.30 68.15637
997.40 67.13415
997.50 66.38319
997.60 66.45331
997.70 68.48771
997.80 70.52831
997.90 72.4242
998.00 74.16461
998.10 75.8813
998.20 76.63694
998.30 77.17234
998.40 77.16865
998.50 75.09026
998.60 73.02483
998.70 71.77809
998.80 71.61678
998.90 71.53274
999.00 71.33273
999.10 71.03096
999.20 70.67782
999.30 70.53367
999.40 70.38798
999.50 70.6269
999.60 71.54142
999.70 72.39687
999.80 72.44426
999.90 71.9566
1000.00 71.6434
1000.10 74.15577
1000.20 76.95373
1000.30 79.58161
1000.40 81.56884
1000.50 83.516
1000.60 84.3906
1000.70 84.45386
1000.80 84.39739
1000.90 82.40479
1001.00 79.97676
1001.10 77.6432
1001.20 75.89762
1001.30 74.18395
1001.40 74.19033
1001.50 76.16918
1001.60 78.17723
1001.70 80.34063
1001.80 82.53718
1001.90 84.54813
1002.00 83.81214
1002.10 83.14147
1002.20 82.41435
1002.30 81.72405
1002.40 81.11772
1002.50 81.8502
1002.60 83.35588
1002.70 84.797
1002.80 84.07465
1002.90 83.12856
1003.00 82.15878
1003.10 81.78742
1003.20 81.42813
1003.30 80.70613
1003.40 79.58424
1003.50 78.42966
1003.60 76.97401
1003.70 75.46576
1003.80 74.25316
1003.90 74.6482
1004.00 75.06834
1004.10 76.57082
1004.20 79.17697
1004.30 81.78315
1004.40 83.77798
1004.50 85.59475
1004.60 87.20201
1004.70 86.92588
1004.80 86.67883
1004.90 85.46695
1005.00 82.5669
1005.10 79.61743
1005.20 76.14351
1005.30 72.39874
1005.40 68.7393
1005.50 67.00658
1005.60 65.41457
1005.70 64.73183
1005.80 66.45511
1005.90 68.20597
1006.00 70.19614
1006.10 72.30552
1006.20 74.32711
1006.30 74.301
1006.40 73.85936
1006.50 73.61149
1006.60 74.46959
1006.70 75.34508
1006.80 77.22579
1006.90 80.26615
1007.00 83.23129
1007.10 83.5277
1007.20 82.82887
1007.30 81.97309
1007.40 81.50762
1007.50 81.01662
1007.60 81.49294
1007.70 83.50915
1007.80 85.52283
1007.90 86.61516
1008.00 87.14542
1008.10 87.59528
1008.20 87.83507
1008.30 88.06401
1008.40 88.37921
1008.50 88.93676
1008.60 89.50412
1008.70 89.42558
1008.80 88.77872
1008.90 87.98782
1009.00 85.65996
1009.10 82.97662
1009.20 80.54117
1009.30 79.4887
1009.40 78.45972
1009.50 78.84129
1009.60 80.81042
1009.70 82.79552
1009.80 85.37454
1009.90 88.19081
1010.00 91.01945
1010.10 93.8452
1010.20 96.68796
1010.30 98.53831
1010.40 98.42622
1010.50 98.23055
1010.60 97.17216
1010.70 95.65786
1010.80 94.12044
1010.90 92.67062
1011.00 91.26229
1011.10 89.60334
1011.20 87.11146
1011.30 84.6461
1011.40 83.18264
1011.50 82.58991
1011.60 82.01514
1011.70 81.13244
1011.80 80.16761
1011.90 79.4782
1012.00 80.35169
1012.10 81.25939
1012.20 83.69316
1012.30 87.80026
1012.40 91.82199
1012.50 94.15568
1012.60 95.9193
1012.70 97.47564
1012.80 96.14442
1012.90 94.80782
1013.00 93.95456
1013.10 93.91776
1013.20 93.84401
1013.30 92.92694
1013.40 91.60742
1013.50 90.10226
1013.60 85.74071
1013.70 81.07344
1013.80 77.29117
1013.90 76.28602
1014.00 75.35461
1014.10 76.20029
1014.20 78.40364
1014.30 80.66371
1014.40 82.67432
1014.50 84.64192
1014.60 85.93934
1014.70 84.26364
1014.80 82.58967
1014.90 81.7381
1015.00 81.97315
1015.10 82.41676
1015.20 84.90456
1015.30 88.16152
1015.40 91.15328
1015.50 89.98786
1015.60 88.89053
1015.70 87.01406
1015.80 84.17001
1015.90 81.40924
1016.00 80.52536
1016.10 80.67573
1016.20 80.9741
1016.30 82.08583
1016.40 83.27721
1016.50 84.25646
1016.60 84.89767
1016.70 85.56391
1016.80 86.46399
1016.90 87.55485
1017.00 88.49531
1017.10 86.87355
1017.20 84.66919
1017.30 83.03371
1017.40 84.6983
1017.50 86.38619
1017.60 88.91368
1017.70 92.33668
1017.80 95.53848
1017.90 94.14899
1018.00 91.02148
1018.10 87.83487
1018.20 86.39786
1018.30 84.94623
1018.40 83.6657
1018.50 82.33276
1018.60 81.00905
1018.70 80.38317
1018.80 80.16674
1018.90 80.15332
1019.00 82.27993
1019.10 84.60007
1019.20 86.5583
1019.30 87.6006
1019.40 88.5894
1019.50 88.79036
1019.60 88.32329
1019.70 87.90417
1019.80 88.08875
1019.90 88.41521
1020.00 88.57303
1020.10 87.94631
1020.20 87.33895
1020.30 87.23802
1020.40 87.76533
1020.50 88.3179
1020.60 89.10209
1020.70 89.94323
1020.80 90.74928
1020.90 90.85061
1021.00 90.98288
1021.10 90.56535
1021.20 89.05725
1021.30 87.47226
1021.40 85.38268
1021.50 83.06075
1021.60 80.81078
1021.70 79.34638
1021.80 77.96616
1021.90 76.76839
1022.00 76.11695
1022.10 75.49823
1022.20 75.91472
1022.30 76.77327
1022.40 77.83546
1022.50 80.54756
1022.60 83.44811
1022.70 85.60223
1022.80 86.10083
1022.90 86.58297
1023.00 86.38224
1023.10 85.69466
1023.20 84.95849
1023.30 84.29175
1023.40 83.51749
1023.50 83.25359
1023.60 85.33636
1023.70 87.40893
1023.80 88.89411
1023.90 89.51832
1024.00 90.09099
1024.10 91.0941
1024.20 92.31988
1024.30 93.60179
1024.40 93.45871
1024.50 93.42087
1024.60 92.55185
1024.70 90.58218
1024.80 88.66715
1024.90 87.56578
1025.00 86.86649
1025.10 86.10333
1025.20 84.17321
1025.30 82.16909
1025.40 80.8091
1025.50 81.15118
1025.60 81.5428
1025.70 82.15633
1025.80 82.97763
1025.90 83.56486
1026.00 80.94673
1026.10 77.65235
1026.20 74.64102
1026.30 73.51788
1026.40 72.38218
1026.50 72.62046
1026.60 74.127
1026.70 75.75404
1026.80 79.10629
1026.90 83.15933
1027.00 87.0159
1027.10 88.01236
1027.20 89.10152
1027.30 89.20151
1027.40 87.66787
1027.50 86.12087
1027.60 84.35398
1027.70 82.41602
1027.80 80.58946
1027.90 80.42801
1028.00 80.4515
1028.10 80.10105
1028.20 78.82399
1028.30 77.53883
1028.40 76.39286
1028.50 75.30688
1028.60 74.47145
1028.70 77.45786
1028.80 81.28632
1028.90 84.94418
1029.00 86.80093
1029.10 88.56983
1029.20 88.61992
1029.30 86.78493
1029.40 84.98006
1029.50 84.76396
1029.60 84.83686
1029.70 84.95273
1029.80 84.4483
1029.90 83.93012
1030.00 83.2621
1030.10 82.75405
1030.20 82.25798
1030.30 82.35349
1030.40 82.54569
1030.50 82.93533
1030.60 85.48901
1030.70 87.95982
1030.80 89.20152
1030.90 88.67016
1031.00 88.08999
1031.10 87.50424
1031.20 86.83163
1031.30 86.3183
1031.40 87.54726
1031.50 88.96652
1031.60 89.58093
1031.70 88.12432
1031.80 86.6416
1031.90 85.22833
1032.00 83.85095
1032.10 82.60283
1032.20 82.68242
1032.30 83.04466
1032.40 83.07438
1032.50 81.47348
1032.60 79.90297
1032.70 80.28258
1032.80 82.86009
1032.90 85.52139
1033.00 88.60592
1033.10 91.8561
1033.20 94.97226
1033.30 95.98151
1033.40 97.10536
1033.50 96.48833
1033.60 92.90892
1033.70 89.27363
1033.80 86.10377
1033.90 83.20013
1034.00 80.50935
1034.10 80.66019
1034.20 80.9848
1034.30 81.01975
1034.40 80.19345
1034.50 79.3673
1034.60 79.03078
1034.70 79.03441
1034.80 79.25182
1034.90 81.04286
1035.00 83.30943
1035.10 84.67805
1035.20 83.43415
1035.30 82.20203
1035.40 82.17184
1035.50 83.21444
1035.60 84.26582
1035.70 85.23241
1035.80 86.13716
1035.90 87.19165
1036.00 89.16309
1036.10 91.13311
1036.20 92.73564
1036.30 93.77722
1036.40 94.73811
1036.50 94.82099
1036.60 94.65937
1036.70 94.51344
1036.80 94.78622
1036.90 94.99268
1037.00 95.75484
1037.10 97.44103
1037.20 99.13133
1037.30 100.4441
1037.40 101.6123
1037.50 102.6493
1037.60 101.0886
1037.70 99.40863
1037.80 97.07684
1037.90 93.16007
1038.00 89.25756
1038.10 86.18061
1038.20 83.6153
1038.30 81.29356
1038.40 82.39985
1038.50 84.15266
1038.60 86.06805
1038.70 88.49374
1038.80 90.90935
1038.90 91.82702
1039.00 91.06191
1039.10 90.26454
1039.20 89.5463
1039.30 88.83851
1039.40 88.12689
1039.50 87.32891
1039.60 86.53212
1039.70 86.03981
1039.80 86.14055
1039.90 86.32559
1040.00 87.13711
1040.10 88.03143
1040.20 89.02221
1040.30 91.08462
1040.40 93.25702
1040.50 94.88092
1040.60 95.47002
1040.70 96.03895
1040.80 96.58269
1040.90 97.18701
1041.00 97.71667
1041.10 95.91479
1041.20 93.97557
1041.30 91.85653
1041.40 89.40011
1041.50 86.99899
1041.60 86.99306
1041.70 88.77403
1041.80 90.7273
1041.90 94.06139
1042.00 97.82914
1042.10 100.7069
1042.20 98.77597
1042.30 96.89335
1042.40 94.73318
1042.50 92.51592
1042.60 90.26419
1042.70 87.40529
1042.80 84.28358
1042.90 81.32649
1043.00 81.46334
1043.10 81.46029
1043.20 83.34351
1043.30 88.22377
1043.40 93.04632
1043.50 96.18463
1043.60 98.57364
1043.70 100.7291
1043.80 100.1532
1043.90 99.28461
1044.00 98.68159
1044.10 98.85796
1044.20 99.03441
1044.30 98.96731
1044.40 98.8378
1044.50 98.66749
1044.60 98.34165
1044.70 97.95343
1044.80 97.81169
1044.90 98.04163
1045.00 98.27604
1045.10 100.0635
1045.20 103.0497
1045.30 105.998
1045.40 108.0561
1045.50 110.081
1045.60 111.7739
1045.70 111.587
1045.80 111.4716
1045.90 109.8939
1046.00 106.748
1046.10 103.6007
1046.20 100.4783
1046.30 97.19404
1046.40 94.01538
1046.50 93.15326
1046.60 92.25163
1046.70 91.22125
1046.80 90.20713
1046.90 89.19797
1047.00 87.99191
1047.10 86.54289
1047.20 85.22475
1047.30 85.98959
1047.40 86.94837
1047.50 87.91635
1047.60 88.7163
1047.70 89.50536
1047.80 89.63649
1047.90 89.25248
1048.00 88.83619
1048.10 88.66175
1048.20 88.44156
1048.30 88.86744
1048.40 91.23032
1048.50 93.58278
1048.60 94.86897
1048.70 95.29649
1048.80 95.6745
1048.90 95.5337
1049.00 95.24402
1049.10 95.0524
1049.20 95.66013
1049.30 96.25689
1049.40 96.46976
1049.50 96.26468
1049.60 95.92739
1049.70 93.56312
1049.80 90.5214
1049.90 87.73702
1050.00 88.67393
1050.10 89.48982
1050.20 90.6692
1050.30 92.10181
1050.40 93.43729
1050.50 93.73104
1050.60 93.55366
1050.70 93.3508
1050.80 93.03965
1050.90 92.69756
1051.00 92.31369
1051.10 91.67276
1051.20 90.95694
1051.30 89.36325
1051.40 87.10875
1051.50 84.95492
1051.60 84.91665
1051.70 85.27037
1051.80 85.68544
1051.90 85.85536
1052.00 86.01867
1052.10 86.06165
1052.20 85.99559
1052.30 85.96589
1052.40 87.06188
1052.50 88.39923
1052.60 89.99652
1052.70 92.46944
1052.80 94.92806
1052.90 96.11883
1053.00 95.94439
1053.10 95.66269
1053.20 94.58516
1053.30 93.16956
1053.40 91.89765
1053.50 93.03163
1053.60 94.11672
1053.70 94.80248
1053.80 94.75403
1053.90 94.64999
1054.00 93.83166
1054.10 92.58921
1054.20 91.49575
1054.30 92.655
1054.40 94.05101
1054.50 94.62943
1054.60 92.80106
1054.70 90.92905
1054.80 89.20155
1054.90 87.55172
1055.00 86.07935
1055.10 87.72753
1055.20 90.04576
1055.30 91.91205
1055.40 92.39019
1055.50 92.88075
1055.60 92.00771
1055.70 90.10365
1055.80 88.16998
1055.90 86.6536
1056.00 85.10927
1056.10 83.70038
1056.20 82.96491
1056.30 82.25446
1056.40 82.12403
1056.50 82.50945
1056.60 82.92878
1056.70 83.81416
1056.80 84.84924
1056.90 85.78877
1057.00 85.66985
1057.10 85.62271
1057.20 86.04594
1057.30 87.18379
1057.40 88.34928
1057.50 89.34752
1057.60 90.22721
1057.70 91.0405
1057.80 90.92153
1057.90 90.76346
1058.00 90.69347
1058.10 90.87789
1058.20 91.06547
1058.30 91.02465
1058.40 90.86031
1058.50 90.54697
1058.60 88.9869
1058.70 87.29686
1058.80 85.97614
1058.90 85.50822
1059.00 85.05906
1059.10 84.98781
1059.20 85.10587
1059.30 85.22117
1059.40 86.1089
1059.50 87.14217
1059.60 88.24006
1059.70 89.21698
1059.80 90.16124
1059.90 90.11786
1060.00 89.11033
1060.10 88.10183
1060.20 87.60577
1060.30 87.34961
1060.40 87.09775
1060.50 86.23915
1060.60 85.42471
1060.70 84.58449
1060.80 83.42146
1060.90 82.28958
1061.00 82.11551
1061.10 82.49461
1061.20 83.00973
1061.30 84.63015
1061.40 86.3277
1061.50 87.70356
1061.60 88.87848
1061.70 90.00155
1061.80 90.01494
1061.90 89.43935
1062.00 88.8751
1062.10 87.76113
1062.20 86.53054
1062.30 85.7684
1062.40 86.56039
1062.50 87.37014
1062.60 88.8602
1062.70 90.75641
1062.80 92.66422
1062.90 94.33946
1063.00 96.06278
1063.10 97.31853
1063.20 96.254
1063.30 95.21992
1063.40 94.39654
1063.50 93.96555
1063.60 93.61318
1063.70 93.99996
1063.80 94.50349
1063.90 95.08436
1064.00 96.10674
1064.10 97.1656
1064.20 97.79259
1064.30 97.6563
1064.40 97.49138
1064.50 97.2446
1064.60 97.06519
1064.70 96.89239
1064.80 97.08663
1064.90 97.1987
1065.00 97.30779
1065.10 97.56228
1065.20 97.77359
1065.30 96.59209
1065.40 94.58897
1065.50 92.53889
1065.60 91.08238
1065.70 89.6998
1065.80 88.75681
1065.90 88.67174
1066.00 88.55661
1066.10 88.0901
1066.20 87.42436
1066.30 86.64435
1066.40 85.16649
1066.50 83.50228
1066.60 82.33003
1066.70 83.20776
1066.80 84.03966
1066.90 84.3659
1067.00 83.99913
1067.10 83.61896
1067.20 83.93148
1067.30 84.49214
1067.40 85.42845
1067.50 88.09869
1067.60 90.75663
1067.70 92.67247
1067.80 93.64265
1067.90 94.58792
1068.00 95.21222
1068.10 95.81108
1068.20 96.39964
1068.30 99.09269
1068.40 101.7211
1068.50 103.8872
1068.60 105.0476
1068.70 106.1835
1068.80 106.0359
1068.90 105.2014
1069.00 104.3361
1069.10 103.7582
1069.20 103.1189
1069.30 102.3767
1069.40 101.4127
1069.50 100.4431
1069.60 98.51566
1069.70 95.73572
1069.80 93.03194
1069.90 92.86316
1070.00 93.12104
1070.10 93.17827
1070.20 92.59827
1070.30 92.03671
1070.40 91.91758
1070.50 92.18537
1070.60 92.54958
1070.70 94.3548
1070.80 96.52827
1070.90 98.30668
1071.00 97.29602
1071.10 96.30131
1071.20 95.65342
1071.30 95.39368
1071.40 95.22431
1071.50 96.33932
1071.60 97.95204
1071.70 99.38832
1071.80 98.8013
1071.90 98.28183
1072.00 97.95963
1072.10 98.08239
1072.20 98.19468
1072.30 97.39012
1072.40 96.14937
1072.50 94.79325
1072.60 93.79633
1072.70 92.679
1072.80 92.67082
1072.90 94.51534
1073.00 96.36093
1073.10 97.47398
1073.20 98.31123
1073.30 99.02351
1073.40 97.19722
1073.50 95.07231
1073.60 93.56971
1073.70 94.03411
1073.80 94.50259
1073.90 95.49837
1074.00 96.68551
1074.10 97.86745
1074.20 99.04551
1074.30 100.3862
1074.40 101.4309
1074.50 101.0245
1074.60 100.6095
1074.70 100.5764
1074.80 101.2216
1074.90 101.8723
1075.00 101.4672
1075.10 100.6688
1075.20 99.75519
1075.30 98.25165
1075.40 96.76405
1075.50 96.0652
1075.60 95.86741
1075.70 95.77787
1075.80 97.35735
1075.90 99.63833
1076.00 101.8374
1076.10 101.7511
1076.20 101.7513
1076.30 101.5798
1076.40 101.1121
1076.50 100.6596
1076.60 100.3725
1076.70 100.1363
1076.80 99.89504
1076.90 100.5559
1077.00 101.3266
1077.10 101.8292
1077.20 101.4996
1077.30 101.1732
1077.40 100.5456
1077.50 99.67753
1077.60 98.74173
1077.70 97.97242
1077.80 97.17643
1077.90 96.79447
1078.00 97.8826
1078.10 98.93787
1078.20 99.3881
1078.30 99.37289
1078.40 99.31844
1078.50 99.66414
1078.60 100.2009
1078.70 100.4736
1078.80 98.83958
1078.90 97.20783
1079.00 95.82881
1079.10 94.8412
1079.20 93.88315
1079.30 92.97804
1079.40 92.11851
1079.50 91.35648
1079.60 92.09791
1079.70 92.72002
1079.80 93.5064
1079.90 94.53732
1080.00 95.56229
1080.10 96.26672
1080.20 96.78848
1080.30 97.27737
1080.40 97.64994
1080.50 98.05047
1080.60 98.63228
1080.70 99.51719
1080.80 100.3852
1080.90 100.8759
1081.00 101.0809
1081.10 101.2681
1081.20 101.2888
1081.30 101.3739
1081.40 101.5011
1081.50 101.6287
1081.60 101.7534
1081.70 102.5572
1081.80 103.8927
1081.90 105.1772
1082.00 104.9339
1082.10 104.4956
1082.20 103.8874
1082.30 102.679
1082.40 101.4658
1082.50 100.4269
1082.60 99.52023
1082.70 98.65103
1082.80 98.61331
1082.90 98.86645
1083.00 99.24637
1083.10 100.0356
1083.20 100.6937
1083.30 101.4921
1083.40 102.8005
1083.50 104.0695
1083.60 104.0623
1083.70 103.6444
1083.80 103.2188
1083.90 103.0443
1084.00 102.8333
1084.10 102.6499
1084.20 102.5441
1084.30 102.4281
1084.40 102.2623
1084.50 102.1748
1084.60 102.002
1084.70 100.5183
1084.80 98.81831
1084.90 97.8694
1085.00 98.77002
1085.10 99.65344
1085.20 100.2918
1085.30 101.1637
1085.40 101.8851
1085.50 101.2544
1085.60 100.0993
1085.70 99.59372
1085.80 100.8673
1085.90 102.1328
1086.00 103.5272
1086.10 105.1427
1086.20 106.7417
1086.30 107.3688
1086.40 107.8489
1086.50 108.0223
1086.60 106.7052
1086.70 105.3984
1086.80 104.6101
1086.90 104.5428
1087.00 104.5777
1087.10 105.3926
1087.20 106.4703
1087.30 107.4228
1087.40 106.2593
1087.50 105.2081
1087.60 104.1734
1087.70 103.1407
1087.80 102.2301
1087.90 102.853
1088.00 104.0849
1088.10 105.2072
1088.20 104.237
1088.30 103.3206
1088.40 102.7714
1088.50 102.8012
1088.60 102.8799
1088.70 103.1282
1088.80 103.4892
1088.90 103.7127
1089.00 103.2773
1089.10 102.7864
1089.20 102.4539
1089.30 102.6761
1089.40 102.9154
1089.50 102.9436
1089.60 102.5209
1089.70 102.1789
1089.80 103.5618
1089.90 105.3116
1090.00 106.8778
1090.10 107.756
1090.20 108.6556
1090.30 108.9673
1090.40 108.7977
1090.50 108.595
1090.60 107.8569
1090.70 107.1529
1090.80 106.2853
1090.90 104.2992
1091.00 102.299
1091.10 100.7829
1091.20 99.79849
1091.30 98.93001
1091.40 99.39508
1091.50 100.2329
1091.60 101.1623
1091.70 102.852
1091.80 104.5459
1091.90 105.623
1092.00 106.0192
1092.10 106.3699
1092.20 106.2341
1092.30 105.8224
1092.40 105.495
1092.50 105.5445
1092.60 105.5696
1092.70 105.6331
1092.80 105.9136
1092.90 106.1941
1093.00 106.1011
1093.10 105.7024
1093.20 105.2966
1093.30 104.9317
1093.40 104.6381
1093.50 104.3629
1093.60 104.3811
1093.70 104.4182
1093.80 104.3945
1093.90 103.8028
1094.00 103.3437
1094.10 104.1509
1094.20 105.3586
1094.30 106.0849
1094.40 104.6096
1094.50 103.2324
1094.60 101.8048
1094.70 100.3141
1094.80 98.9322
1094.90 100.2836
1095.00 101.9486
1095.10 103.7278
1095.20 105.5006
1095.30 107.2625
1095.40 108.4984
1095.50 109.3758
1095.60 110.1654
1095.70 109.6932
1095.80 108.7555
1095.90 107.8203
1096.00 108.3718
1096.10 108.8552
1096.20 109.2816
1096.30 109.529
1096.40 109.7735
1096.50 109.6309
1096.60 109.2952
1096.70 108.8709
1096.80 107.3322
1096.90 105.79
1097.00 103.9621
1097.10 101.6113
1097.20 99.30117
1097.30 99.03071
1097.40 99.68326
1097.50 100.448
1097.60 101.4467
1097.70 102.4245
1097.80 103.4148
1097.90 104.7926
1098.00 106.1904
1098.10 106.7571
1098.20 106.5159
1098.30 106.1349
1098.40 105.3637
1098.50 104.699
1098.60 104.1465
1098.70 103.5919
1098.80 102.9513
1098.90 102.6648
1099.00 102.8243
1099.10 103.0023
1099.20 103.5631
1099.30 104.1512
1099.40 104.8312
1099.50 105.8439
1099.60 106.918
1099.70 107.3987
1099.80 107.2918
1099.90 107.1959
1100.00 106.8191
1100.10 106.258
1100.20 105.6673
1100.30 104.688
1100.40 103.7634
1100.50 102.9845
1100.60 102.4507
1100.70 101.9875
1100.80 102.4579
1100.90 103.4658
1101.00 104.443
1101.10 104.6368
1101.20 104.6967
1101.30 105.1168
1101.40 106.3954
1101.50 107.6721
1101.60 107.72
1101.70 107.1765
1101.80 106.5044
1101.90 104.6837
1102.00 102.7991
1102.10 101.0964
1102.20 99.83651
1102.30 98.56693
1102.40 97.83354
1102.50 97.21782
1102.60 96.81319
1102.70 98.89289
1102.80 101.5898
1102.90 103.9887
1103.00 105.1266
1103.10 106.3485
1103.20 106.1022
1103.30 104.0312
1103.40 101.8611
1103.50 99.05771
1103.60 95.96765
1103.70 93.49576
1103.80 94.20487
1103.90 94.77255
1104.00 95.76435
1104.10 97.5105
1104.20 99.255
1104.30 99.59705
1104.40 99.28055
1104.50 98.89906
1104.60 99.50082
1104.70 100.1126
1104.80 100.6772
1104.90 101.4652
1105.00 102.2724
1105.10 101.4929
1105.20 99.76589
1105.30 97.85815
1105.40 95.63732
1105.50 93.397
1105.60 92.16595
1105.70 92.0713
1105.80 91.94905
1105.90 92.52973
1106.00 93.81055
1106.10 95.00191
1106.20 95.09359
1106.30 95.07211
1106.40 95.23098
1106.50 95.86775
1106.60 96.46335
1106.70 96.41124
1106.80 96.03518
1106.90 95.59278
1107.00 94.34838
1107.10 92.82949
1107.20 91.68614
1107.30 92.48011
1107.40 93.23634
1107.50 94.03924
1107.60 95.06262
1107.70 95.97771
1107.80 96.25757
1107.90 96.28528
1108.00 96.44399
1108.10 96.89965
1108.20 97.31771
1108.30 98.17093
1108.40 99.65794
1108.50 101.1244
1108.60 101.9091
1108.70 102.5738
1108.80 103.1171
1108.90 102.5389
1109.00 101.936
1109.10 101.3963
1109.20 100.9361
1109.30 100.5607
1109.40 100.9493
1109.50 101.6763
1109.60 102.3784
1109.70 103.131
1109.80 103.9535
1109.90 104.1698
1110.00 103.4397
1110.10 102.6802
1110.20 101.0638
1110.30 99.15404
1110.40 97.2499
1110.50 95.57902
1110.60 93.78031
1110.70 92.79314
1110.80 93.73915
1110.90 94.6387
1111.00 94.70903
1111.10 94.16507
1111.20 93.58401
1111.30 93.11793
1111.40 92.65519
1111.50 92.37895
1111.60 92.62065
1111.70 92.8138
1111.80 93.31457
1111.90 94.22948
1112.00 95.07758
1112.10 94.94783
1112.20 94.61344
1112.30 94.38345
1112.40 94.59295
1112.50 94.77272
1112.60 95.53816
1112.70 97.04445
1112.80 98.57357
1112.90 99.86667
1113.00 101.1021
1113.10 102.2244
1113.20 102.0451
1113.30 101.8675
1113.40 101.5558
1113.50 101.106
1113.60 100.5605
1113.70 99.13358
1113.80 97.34542
1113.90 95.74072
1114.00 96.61629
1114.10 97.32653
1114.20 98.34158
1114.30 99.53738
1114.40 100.7633
1114.50 101.9103
1114.60 103.0339
1114.70 103.9445
1114.80 102.5669
1114.90 101.0936
1115.00 99.77209
1115.10 99.36358
1115.20 99.03726
1115.30 99.55114
1115.40 100.7746
1115.50 101.9153
1115.60 102.0515
1115.70 101.8314
1115.80 101.5243
1115.90 100.4253
1116.00 99.33794
1116.10 98.54235
1116.20 98.19807
1116.30 97.87758
1116.40 97.86946
1116.50 97.89322
1116.60 97.98156
1116.70 98.82482
1116.80 99.64236
1116.90 99.39159
1117.00 97.8018
1117.10 96.1964
1117.20 94.67575
1117.30 93.14743
1117.40 91.66929
1117.50 91.83846
1117.60 91.99637
1117.70 92.32319
1117.80 92.3548
1117.90 92.43332
1118.00 93.17635
1118.10 94.40377
1118.20 95.57332
1118.30 97.56082
1118.40 99.55638
1118.50 101.204
1118.60 101.8037
1118.70 102.3085
1118.80 101.5192
1118.90 100.2504
1119.00 99.87145
1119.10 99.62053
1119.20 99.30338
1119.30 98.93588
1119.40 98.38528
1119.50 97.81226
1119.60 97.25963
1119.70 96.49429
1119.80 95.72535
1119.90 95.05502
1120.00 94.72886
1120.10 94.40543
1120.20 94.37693
1120.30 95.55451
1120.40 96.87715
1120.50 97.64945
1120.60 98.51194
1120.70 99.42456
1120.80 100.4538
1120.90 100.5952
1121.00 99.47646
1121.10 98.44922
1121.20 97.41107
1121.30 97.74298
1121.40 98.07161
1121.50 98.38086
1121.60 97.37915
1121.70 96.0605
1121.80 94.79523
1121.90 93.88686
1122.00 93.3106
1122.10 92.49988
1122.20 92.20671
1122.30 92.9714
1122.40 93.58521
1122.50 94.32468
1122.60 97.28104
1122.70 100.3878
1122.80 103.4286
1122.90 104.3888
1123.00 104.5624
1123.10 104.6995
1123.20 103.1732
1123.30 100.0391
1123.40 96.91422
1123.50 94.72283
1123.60 95.77593
1123.70 96.79722
1123.80 97.68061
1123.90 98.77743
1124.00 99.87988
1124.10 100.985
1124.20 101.6034
1124.30 101.9776
1124.40 102.3502
1124.50 102.9596
1124.60 103.6181
1124.70 104.2828
1124.80 104.2447
1124.90 101.478
1125.00 98.72112
1125.10 95.89329
1125.20 96.95823
1125.30 98.44807
1125.40 100.0663
1125.50 101.5327
1125.60 102.9792
1125.70 104.4051
1125.80 104.7707
1125.90 103.6531
1126.00 102.5429
1126.10 101.6713
1126.20 101.7325
1126.30 101.7917
1126.40 101.791
1126.50 102.0918
1126.60 102.4359
1126.70 102.7921
1126.80 102.5245
1126.90 101.984
1127.00 101.4427
1127.10 101.1992
1127.20 101.1782
1127.30 101.1631
1127.40 101.1498
1127.50 100.7946
1127.60 100.4386
1127.70 100.006
1127.80 100.3092
1127.90 100.696
1128.00 101.0712
1128.10 101.1219
1128.20 101.0852
1128.30 101.0573
1128.40 101.2643
1128.50 101.6502
1128.60 102.0348
1128.70 102.3947
1128.80 101.9032
1128.90 101.4174
1129.00 100.8445
1129.10 100.222
1129.20 99.61585
1129.30 99.05953
1129.40 99.34313
1129.50 100.0497
1129.60 100.748
1129.70 101.6837
1129.80 103.1429
1129.90 104.6027
1130.00 105.7693
1130.10 104.7451
1130.20 103.7455
1130.30 102.7603
1130.40 101.4941
1130.50 100.1805
1130.60 98.88106
1130.70 97.98244
1130.80 97.4216
1130.90 96.86103
1131.00 96.63177
1131.10 97.30168
1131.20 97.96962
1131.30 98.69568
1131.40 99.28817
1131.50 99.88471
1131.60 100.4431
1131.70 100.8306
1131.80 101.197
1131.90 101.5543
1132.00 101.6971
1132.10 101.5318
1132.20 101.3682
1132.30 101.2976
1132.40 101.461
1132.50 101.6222
1132.60 101.6479
1132.70 101.3678
1132.80 101.0871
1132.90 100.8477
1133.00 100.4637
1133.10 100.0301
1133.20 99.58802
1133.30 99.05401
1133.40 98.40498
1133.50 97.75459
1133.60 96.92242
1133.70 95.6148
1133.80 94.30743
1133.90 92.91334
1134.00 91.67533
1134.10 90.43826
1134.20 89.24662
1134.30 89.9529
1134.40 91.12165
1134.50 92.33842
1134.60 93.82848
1134.70 95.32564
1134.80 96.81203
1134.90 97.9042
1135.00 98.79152
1135.10 99.69661
1135.20 100.6624
1135.30 99.84881
1135.40 99.04192
1135.50 98.18304
1135.60 96.0418
1135.70 93.60016
1135.80 91.18964
1135.90 91.1887
1136.00 93.28234
1136.10 95.36811
1136.20 96.73869
1136.30 96.92794
1136.40 97.13167
1136.50 97.44421
1136.60 96.37508
1136.70 95.30836
1136.80 94.21351
1136.90 93.26313
1137.00 92.34921
1137.10 91.4548
1137.20 90.33295
1137.30 89.0887
1137.40 87.84949
1137.50 86.8745
1137.60 86.20512
1137.70 85.55522
1137.80 84.92525
1137.90 81.07507
1138.00 77.25468
1138.10 73.34705
1138.20 69.79857
1138.30 66.33134
1138.40 62.9788
1138.50 62.47785
1138.60 65.59622
1138.70 68.66148
1138.80 72.05975
1138.90 75.64151
1139.00 79.2598
1139.10 83.05018
1139.20 84.27606
1139.30 85.53496
1139.40 86.7129
1139.50 86.10969
1139.60 85.06456
1139.70 83.99344
1139.80 82.90149
1139.90 81.73308
1140.00 80.5833
1140.10 78.78837
1140.20 74.49426
1140.30 70.22761
1140.40 65.75693
1140.50 61.72008
1140.60 57.61252
1140.70 53.6329
1140.80 54.7748
1140.90 58.20811
1141.00 61.68166
1141.10 65.42977
1141.20 69.50762
1141.30 73.60832
1141.40 77.90198
1141.50 81.9835
1141.60 86.08573
1141.70 90.08138
1141.80 91.14413
1141.90 92.22334
1142.00 93.30659
1142.10 94.22427
1142.20 95.03192
1142.30 95.81296
1142.40 96.16735
1142.50 96.2005
1142.60 96.22973
1142.70 96.49048
1142.80 97.12499
1142.90 97.76141
1143.00 98.36269
1143.10 97.8881
1143.20 97.41822
1143.30 96.94959
1143.40 96.872
1143.50 96.95403
1143.60 97.03672
1143.70 96.80584
1143.80 96.3419
1143.90 95.88696
1144.00 95.81202
1144.10 96.71235
1144.20 97.59957
1144.30 98.47605
1144.40 98.80463
1144.50 99.13278
1144.60 99.3768
1144.70 99.17067
1144.80 98.86763
1144.90 98.58344
1145.00 98.78239
1145.10 99.22955
1145.20 99.67833
1145.30 99.88595
1145.40 99.48986
1145.50 99.09506
1145.60 98.70405
1145.70 98.39573
1145.80 98.08643
1145.90 97.74604
1146.00 97.86369
1146.10 98.28169
1146.20 98.69038
1146.30 99.09872
1146.40 99.31029
1146.50 99.52147
1146.60 99.89557
1146.70 100.719
1146.80 101.5522
1146.90 102.3229
1147.00 101.2256
1147.10 100.1337
1147.20 99.05342
1147.30 99.12005
1147.40 99.62173
1147.50 100.1234
1147.60 100.6578
1147.70 101.3594
1147.80 102.0606
1147.90 102.5745
1148.00 102.4555
1148.10 102.3397
1148.20 102.3896
1148.30 101.6562
1148.40 100.9348
1148.50 100.1845
1148.60 100.3863
1148.70 101.0224
1148.80 101.6701
1148.90 102.4035
1149.00 103.4585
1149.10 104.5162
1149.20 105.0938
1149.30 103.6389
1149.40 102.1919
1149.50 100.8422
1149.60 101.1829
1149.70 101.5144
1149.80 101.8547
1149.90 102.4045
1150.00 103.0527
1150.10 103.6832
1150.20 103.4325
1150.30 102.5454
1150.40 101.6572
1150.50 101.1391
1150.60 101.4994
1150.70 101.8548
1150.80 102.2277
1150.90 102.8459
1151.00 103.4683
1151.10 104.0661
1151.20 104.2392
1151.30 104.218
1151.40 104.1883
1151.50 103.6884
1151.60 102.7637
1151.70 101.8381
1151.80 101.2243
1151.90 101.4982
1152.00 101.7709
1152.10 102.1312
1152.20 101.1294
1152.30 100.1396
1152.40 99.09025
1152.50 98.59286
1152.60 98.33208
1152.70 98.1034
1152.80 98.10368
1152.90 98.72777
1153.00 99.35187
1153.10 99.89763
1153.20 99.46535
1153.30 99.0337
1153.40 98.63066
1153.50 98.58323
1153.60 98.52905
1153.70 98.47492
1153.80 99.11953
1153.90 100.1083
1154.00 101.0935
1154.10 101.9748
1154.20 102.7432
1154.30 103.5166
1154.40 104.1326
1154.50 103.5689
1154.60 103.0129
1154.70 102.3561
1154.80 101.411
1154.90 100.4532
1155.00 99.50047
1155.10 99.51579
1155.20 99.80533
1155.30 100.0819
1155.40 100.3757
1155.50 100.6441
1155.60 100.9189
1155.70 101.4476
1155.80 102.402
1155.90 103.3609
1156.00 104.3254
1156.10 103.8169
1156.20 103.3077
1156.30 102.7599
1156.40 103.0365
1156.50 103.5443
1156.60 104.0609
1156.70 104.2251
1156.80 103.919
1156.90 103.6075
1157.00 103.0798
1157.10 102.2518
1157.20 101.4173
1157.30 100.6571
1157.40 100.7208
1157.50 100.784
1157.60 100.8212
1157.70 101.0243
1157.80 101.2738
1157.90 101.5312
1158.00 101.8582
1158.10 102.3013
1158.20 102.7455
1158.30 103.0273
1158.40 102.7635
1158.50 102.5018
1158.60 102.1871
1158.70 101.6788
1158.80 101.1745
1158.90 100.6846
1159.00 100.1318
1159.10 99.55071
1159.20 98.95855
1159.30 97.8045
1159.40 96.12383
1159.50 94.44647
1159.60 93.1701
1159.70 92.99674
1159.80 92.80553
1159.90 92.69638
1160.00 93.71606
1160.10 94.73391
1160.20 95.73315
1160.30 96.80402
1160.40 97.91353
1160.50 98.98515
1160.60 99.3927
1160.70 98.88615
1160.80 98.37787
1160.90 97.43894
1161.00 95.97303
1161.10 94.48209
1161.20 93.40178
1161.30 95.2297
1161.40 97.0358
1161.50 98.974
1161.60 100.5489
1161.70 101.9909
1161.80 103.3172
1161.90 103.3462
1162.00 102.4358
1162.10 101.5346
1162.20 100.7734
1162.30 100.5065
1162.40 100.2334
1162.50 100.0565
1162.60 100.8029
1162.70 101.5457
1162.80 102.2755
1162.90 103.1597
1163.00 104.0924
1163.10 105.0221
1163.20 105.4732
1163.30 105.4857
1163.40 105.4775
1163.50 105.0746
1163.60 103.5118
1163.70 101.9624
1163.80 100.1985
1163.90 98.45996
1164.00 96.70717
1164.10 95.06001
1164.20 95.29562
1164.30 96.01308
1164.40 96.79487
1164.50 98.02225
1164.60 99.52931
1164.70 101.0135
1164.80 102.0948
1164.90 102.3888
1165.00 102.6891
1165.10 102.7886
1165.20 102.013
1165.30 101.2404
1165.40 100.4442
1165.50 99.63255
1165.60 98.8148
1165.70 98.04266
1165.80 98.29131
1165.90 99.31878
1166.00 100.3589
1166.10 101.4355
1166.20 102.4935
1166.30 103.5529
1166.40 104.4886
1166.50 104.3081
1166.60 104.1311
1166.70 103.9313
1166.80 103.4749
1166.90 102.9936
1167.00 102.4913
1167.10 102.0201
1167.20 101.5805
1167.30 101.1525
1167.40 100.7891
1167.50 100.3443
1167.60 99.89853
1167.70 99.35504
1167.80 98.92118
1167.90 98.48417
1168.00 98.08682
1168.10 97.4544
1168.20 96.79203
1168.30 96.11075
1168.40 94.75591
1168.50 93.02975
1168.60 91.27378
1168.70 88.6393
1168.80 84.57339
1168.90 80.54067
1169.00 75.74634
1169.10 69.62499
1169.20 63.46196
1169.30 57.43007
1169.40 58.49555
1169.50 60.32861
1169.60 62.46862
1169.70 67.21619
1169.80 73.10141
1169.90 78.93092
1170.00 83.85227
1170.10 87.26018
1170.20 90.68456
1170.30 93.64549
1170.40 95.17606
1170.50 96.71696
1170.60 98.19588
1170.70 98.80965
1170.80 99.31928
1170.90 99.79365
1171.00 99.67437
1171.10 99.31418
1171.20 98.96006
1171.30 98.99612
1171.40 99.37547
1171.50 99.75672
1171.60 99.99032
1171.70 99.4812
1171.80 98.9768
1171.90 98.42452
1172.00 98.18177
1172.10 97.93466
1172.20 97.72356
1172.30 97.78038
1172.40 97.98262
1172.50 98.19323
1172.60 98.43655
1172.70 98.74159
1172.80 99.0425
1172.90 99.38706
1173.00 99.91768
1173.10 100.4512
1173.20 101.0098
1173.30 100.4723
1173.40 99.94395
1173.50 99.38237
1173.60 98.78218
1173.70 98.17586
1173.80 97.60778
1173.90 97.6225
1174.00 98.16725
1174.10 98.71328
1174.20 99.26341
1174.30 99.92863
1174.40 100.5923
1174.50 101.2368
1174.60 101.6186
1174.70 102.0084
1174.80 102.4031
1174.90 102.2323
1175.00 101.9012
1175.10 101.5432
1175.20 101.1718
1175.30 100.7607
1175.40 100.3552
1175.50 100.0439
1175.60 100.2025
1175.70 100.3556
1175.80 100.4975
1175.90 99.54306
1176.00 98.59726
1176.10 97.59806
1176.20 96.19281
1176.30 94.67977
1176.40 93.15281
1176.50 91.61753
1176.60 90.04723
1176.70 88.4405
1176.80 85.85986
1176.90 80.74035
1177.00 75.65442
1177.10 70.0124
1177.20 63.20982
1177.30 56.37308
1177.40 49.64302
1177.50 47.86865
1177.60 47.3707
1177.70 47.21795
1177.80 50.7978
1177.90 56.93881
1178.00 63.07367
1178.10 68.57496
1178.20 72.9954
1178.30 77.44764
1178.40 81.54917
1178.50 83.94946
1178.60 86.35833
1178.70 88.72125
1178.80 90.12425
1178.90 91.41372
1179.00 92.65686
1179.10 93.58452
1179.20 94.22081
1179.30 94.8458
1179.40 95.20099
1179.50 95.19793
1179.60 95.19675
1179.70 95.1892
1179.80 95.29108
1179.90 95.38932
1180.00 95.47348
1180.10 96.11759
1180.20 96.81843
1180.30 97.56077
1180.40 98.16491
1180.50 98.68535
1180.60 99.17879
1180.70 99.22778
1180.80 98.62032
1180.90 98.0141
1181.00 97.44013
1181.10 96.98777
1181.20 96.53501
1181.30 96.08938
1181.40 95.74046
1181.50 95.40081
1181.60 95.07355
1181.70 95.19126
1181.80 95.5152
1181.90 95.8496
1182.00 96.22257
1182.10 96.73349
1182.20 97.23819
1182.30 97.62118
1182.40 97.34486
1182.50 97.07977
1182.60 96.7424
1182.70 95.59084
1182.80 94.44521
1182.90 93.30673
1183.00 92.79585
1183.10 92.58078
1183.20 92.40864
1183.30 92.66378
1183.40 93.17063
1183.50 93.67276
1183.60 93.94809
1183.70 93.28214
1183.80 92.62139
1183.90 91.82881
1184.00 92.38862
1184.10 92.93264
1184.20 93.56939
1184.30 94.93352
1184.40 96.50031
1184.50 97.99234
1184.60 98.62864
1184.70 98.15143
1184.80 97.67162
1184.90 97.02639
1185.00 96.21923
1185.10 95.40454
1185.20 94.51328
1185.30 94.48878
1185.40 94.45404
1185.50 94.48953
1185.60 95.00663
1185.70 95.6416
1185.80 96.26578
1185.90 96.63976
1186.00 96.78026
1186.10 96.91339
1186.20 97.18276
1186.30 97.76218
1186.40 98.34379
1186.50 98.84369
1186.60 98.54047
1186.70 98.24255
1186.80 97.89538
1186.90 97.17439
1187.00 96.34512
1187.10 95.55349
1187.20 95.27825
1187.30 95.43593
1187.40 95.61245
1187.50 96.072
1187.60 96.75495
1187.70 97.44293
1187.80 97.92448
1187.90 97.38158
1188.00 96.85555
1188.10 96.26677
1188.20 93.89015
1188.30 91.31651
1188.40 88.68569
1188.50 86.2062
1188.60 84.04882
1188.70 82.03334
1188.80 82.04875
1188.90 84.91548
1189.00 87.76676
1189.10 90.59403
1189.20 92.52417
1189.30 94.48515
1189.40 96.27492
1189.50 97.12523
1189.60 97.86519
1189.70 98.63356
1189.80 98.9599
1189.90 99.12543
1190.00 99.27871
1190.10 99.15822
1190.20 98.55948
1190.30 97.95587
1190.40 97.28239
1190.50 96.54659
1190.60 95.81246
1190.70 95.02762
1190.80 94.81635
1190.90 94.59142
1191.00 94.4282
1191.10 94.96584
1191.20 95.77163
1191.30 96.57239
1191.40 97.00671
1191.50 97.05533
1191.60 97.1033
1191.70 97.10777
1191.80 96.9358
1191.90 96.76271
1192.00 96.57945
1192.10 96.91403
1192.20 97.25291
1192.30 97.57174
1192.40 97.29999
1192.50 96.86863
1192.60 96.45321
1192.70 96.25303
1192.80 96.31713
1192.90 96.38244
1193.00 96.51286
1193.10 96.86681
1193.20 97.22278
1193.30 97.59125
1193.40 97.44659
1193.50 97.31094
1193.60 97.10409
1193.70 95.94624
1193.80 94.53101
1193.90 93.12375
1194.00 92.11698
1194.10 91.46401
1194.20 90.82995
1194.30 90.53442
1194.40 90.87804
1194.50 91.22407
1194.60 91.44884
1194.70 90.42706
1194.80 89.41628
1194.90 88.27462
1195.00 87.12501
1195.10 85.97674
1195.20 84.94176
1195.30 85.35452
1195.40 86.81755
1195.50 88.29989
1195.60 89.77927
1195.70 90.91688
1195.80 92.06805
1195.90 92.8916
1196.00 91.95537
1196.10 91.02182
1196.20 90.05535
1196.30 89.43652
1196.40 88.86327
1196.50 88.32956
1196.60 88.14769
1196.70 88.13263
1196.80 88.11187
1196.90 87.9339
1197.00 87.5087
1197.10 87.0773
1197.20 86.12457
1197.30 83.39937
1197.40 80.67787
1197.50 77.87405
1197.60 76.76168
1197.70 75.5945
1197.80 74.66722
1197.90 75.54053
1198.00 77.28284
1198.10 79.01686
1198.20 80.36956
1198.30 81.30446
1198.40 82.24425
1198.50 83.36354
1198.60 85.15301
1198.70 86.95022
1198.80 88.74154
1198.90 88.07672
1199.00 87.43304
1199.10 86.68798
1199.20 85.35501
1199.30 83.90453
1199.40 82.50905
1199.50 81.89482
1199.60 82.10444
1199.70 82.32553
1199.80 82.72463
1199.90 83.45447
1200.00 84.18821
