# Version 2.1 - nm, norm@500 to 1, cut digits
# Wavelength(nm)  Flambda(ergs/cm^s/s/nm)
300.00 0.00513001
300.10 0.006741896
300.20 0.007759921
300.30 0.00822772
300.40 0.008396635
300.50 0.008474362
300.60 0.00853402
300.70 0.008581203
300.80 0.008622196
300.90 0.008663314
301.00 0.008709979
301.10 0.008764531
301.20 0.008825843
301.30 0.008891367
301.40 0.008958749
301.50 0.009026712
301.60 0.009094866
301.70 0.009163133
301.80 0.009231457
301.90 0.009299804
302.00 0.009368156
302.10 0.009436508
302.20 0.009504864
302.30 0.009573237
302.40 0.009641653
302.50 0.009710156
302.60 0.009778803
302.70 0.009847891
302.80 0.009918391
302.90 0.009992088
303.00 0.01007092
303.10 0.01015573
303.20 0.01024569
303.30 0.01033883
303.40 0.01043339
303.50 0.01052839
303.60 0.01062354
303.70 0.01071877
303.80 0.01081404
303.90 0.01090933
304.00 0.01100463
304.10 0.01109992
304.20 0.01119521
304.30 0.01129044
304.40 0.01138553
304.50 0.01148037
304.60 0.01157476
304.70 0.0116678
304.80 0.01175653
304.90 0.01183548
305.00 0.01189873
305.10 0.01194366
305.20 0.0119729
305.30 0.01199236
305.40 0.0120075
305.50 0.01202129
305.60 0.01203464
305.70 0.01204772
305.80 0.01206067
305.90 0.01207357
306.00 0.01208646
306.10 0.01209935
306.20 0.01211224
306.30 0.01212513
306.40 0.01213802
306.50 0.01215091
306.60 0.0121638
306.70 0.01217669
306.80 0.01218959
306.90 0.01220252
307.00 0.01221548
307.10 0.01222847
307.20 0.01224151
307.30 0.01225456
307.40 0.01226762
307.50 0.01228069
307.60 0.01229375
307.70 0.01230682
307.80 0.01231989
307.90 0.01233296
308.00 0.01234602
308.10 0.01235909
308.20 0.01237219
308.30 0.01238542
308.40 0.01239898
308.50 0.01241319
308.60 0.01242852
308.70 0.01244723
308.80 0.01247673
308.90 0.01253071
309.00 0.01262398
309.10 0.01276309
309.20 0.01294149
309.30 0.01314436
309.40 0.01335803
309.50 0.01357508
309.60 0.01379324
309.70 0.01401206
309.80 0.01423121
309.90 0.01445049
310.00 0.0146698
310.10 0.01488911
310.20 0.01510839
310.30 0.01532754
310.40 0.01554636
310.50 0.01576451
310.60 0.01598155
310.70 0.01619519
310.80 0.01639798
310.90 0.01657616
311.00 0.01671484
311.10 0.01680745
311.20 0.01686056
311.30 0.01688907
311.40 0.01690671
311.50 0.01692097
311.60 0.0169341
311.70 0.01694658
311.80 0.01695872
311.90 0.01697073
312.00 0.01698272
312.10 0.0169947
312.20 0.01700671
312.30 0.0170189
312.40 0.01703149
312.50 0.0170449
312.60 0.01705968
312.70 0.01707867
312.80 0.01711105
312.90 0.01717383
313.00 0.01728539
313.10 0.01745386
313.20 0.0176711
313.30 0.01791874
313.40 0.01817978
313.50 0.01844502
313.60 0.01871164
313.70 0.01897907
313.80 0.01924692
313.90 0.01951492
314.00 0.01978297
314.10 0.02005101
314.20 0.02031908
314.30 0.02058727
314.40 0.02085574
314.50 0.02112477
314.60 0.02139477
314.70 0.02166769
314.80 0.02194994
314.90 0.02225334
315.00 0.0225907
315.10 0.02296768
315.20 0.02337861
315.30 0.02381069
315.40 0.0242521
315.50 0.02469644
315.60 0.02514174
315.70 0.0255876
315.80 0.02603375
315.90 0.02648001
316.00 0.0269263
316.10 0.02737259
316.20 0.02781878
316.30 0.02826456
316.40 0.02870928
316.50 0.02915192
316.60 0.02959103
316.70 0.0300194
316.80 0.03041347
316.90 0.03072979
317.00 0.03092129
317.10 0.03096717
317.20 0.03088824
317.30 0.03073155
317.40 0.03054055
317.50 0.03033883
317.60 0.03013357
317.70 0.02992623
317.80 0.02971784
317.90 0.02950902
318.00 0.02930012
318.10 0.02909121
318.20 0.02888238
318.30 0.02867386
318.40 0.02846615
318.50 0.02826004
318.60 0.02805663
318.70 0.02786143
318.80 0.0276925
318.90 0.02758309
319.00 0.02756922
319.10 0.02766682
319.20 0.02785996
319.30 0.02811263
319.40 0.02839155
319.50 0.0286787
319.60 0.02896854
319.70 0.02925998
319.80 0.02955223
319.90 0.02984479
320.00 0.03013743
320.10 0.03043007
320.20 0.03072268
320.30 0.03101517
320.40 0.03130737
320.50 0.03159897
320.60 0.03188958
320.70 0.03217714
320.80 0.032455
320.90 0.03271084
321.00 0.03293134
321.10 0.03311062
321.20 0.03325456
321.30 0.03337648
321.40 0.0334887
321.50 0.03359787
321.60 0.03370605
321.70 0.03381363
321.80 0.03392092
321.90 0.03402809
322.00 0.03413523
322.10 0.03424237
322.20 0.03434961
322.30 0.03445728
322.40 0.03456604
322.50 0.03467696
322.60 0.03479153
322.70 0.03491719
322.80 0.03507833
322.90 0.03531989
323.00 0.03569052
323.10 0.03621173
323.20 0.03686201
323.30 0.03759271
323.40 0.03835888
323.50 0.03913616
323.60 0.03991708
323.70 0.04070016
323.80 0.04148433
323.90 0.04226892
324.00 0.04305362
324.10 0.04383832
324.20 0.044623
324.30 0.04540761
324.40 0.04619205
324.50 0.04697613
324.60 0.04775962
324.70 0.04854131
324.80 0.04931724
324.90 0.0500801
325.00 0.050822
325.10 0.05153944
325.20 0.05223591
325.30 0.05291931
325.40 0.05359696
325.50 0.0542728
325.60 0.05494805
325.70 0.05562294
325.80 0.05629767
325.90 0.05697232
326.00 0.05764695
326.10 0.05832159
326.20 0.05899626
326.30 0.05967108
326.40 0.06034628
326.50 0.06102224
326.60 0.06169947
326.70 0.06238059
326.80 0.06307413
326.90 0.06379583
327.00 0.06456271
327.10 0.06538232
327.20 0.06624711
327.30 0.06714006
327.40 0.06804543
327.50 0.06895469
327.60 0.06986522
327.70 0.07077651
327.80 0.07168818
327.90 0.0726
328.00 0.07351186
328.10 0.07442371
328.20 0.07533537
328.30 0.07624613
328.40 0.07715466
328.50 0.07805876
328.60 0.07895536
328.70 0.07982917
328.80 0.08063009
328.90 0.08126583
329.00 0.08163643
329.10 0.08169768
329.20 0.08149379
329.30 0.08112472
329.40 0.08068277
329.50 0.08021802
329.60 0.07974577
329.70 0.07926909
329.80 0.07879018
329.90 0.07831038
330.00 0.07783038
330.10 0.07735037
330.20 0.07687052
330.30 0.07639132
330.40 0.07591379
330.50 0.07543954
330.60 0.07497085
330.70 0.07451907
330.80 0.07412136
330.90 0.07384618
331.00 0.07376769
331.10 0.07391866
331.20 0.07426633
331.30 0.07473653
331.40 0.07526079
331.50 0.07580196
331.60 0.07634869
331.70 0.07689871
331.80 0.07745039
331.90 0.07800273
332.00 0.07855522
332.10 0.07910771
332.20 0.0796601
332.30 0.08021207
332.40 0.080763
332.50 0.08131185
332.60 0.08185717
332.70 0.08239179
332.80 0.08289217
332.90 0.08331498
333.00 0.08361325
333.10 0.08376624
333.20 0.08379469
333.30 0.08374557
333.40 0.08366221
333.50 0.08356815
333.60 0.08347056
333.70 0.0833709
333.80 0.08327018
333.90 0.08316905
334.00 0.08306782
334.10 0.08296787
334.20 0.08287132
334.30 0.08277932
334.40 0.08269198
334.50 0.08260834
334.60 0.08260116
334.70 0.0828386
334.80 0.08339323
334.90 0.08398639
335.00 0.08407641
335.10 0.08352568
335.20 0.08321961
335.30 0.08479113
335.40 0.08935043
335.50 0.09619896
335.60 0.1027717
335.70 0.1061119
335.80 0.1047623
335.90 0.09948227
336.00 0.09244344
336.10 0.08589753
336.20 0.08143452
336.30 0.07974632
336.40 0.08034576
336.50 0.08162923
336.60 0.08185004
336.70 0.08057336
336.80 0.07922312
336.90 0.07995482
337.00 0.08379331
337.10 0.08961031
337.20 0.09475715
337.30 0.09687425
337.40 0.09554074
337.50 0.09253204
337.60 0.09046131
337.70 0.09084222
337.80 0.09319892
337.90 0.09593891
338.00 0.09783586
338.10 0.09854224
338.20 0.09787877
338.30 0.09528154
338.40 0.09058199
338.50 0.08515151
338.60 0.0816849
338.70 0.08228131
338.80 0.08650241
338.90 0.09151609
339.00 0.09437407
339.10 0.09441964
339.20 0.09368421
339.30 0.09487151
339.40 0.09884882
339.50 0.1040717
339.60 0.108231
339.70 0.1101741
339.80 0.1101981
339.90 0.1089208
340.00 0.106592
340.10 0.1034803
340.20 0.1002027
340.30 0.09723901
340.40 0.09431171
340.50 0.09070494
340.60 0.08626949
340.70 0.08183615
340.80 0.0785793
340.90 0.07717068
341.00 0.07757169
341.10 0.07937401
341.20 0.08209736
341.30 0.08517417
341.40 0.08793925
341.50 0.0898797
341.60 0.09092524
341.70 0.09147199
341.80 0.09206921
341.90 0.09300433
342.00 0.09404286
342.10 0.0944757
342.20 0.09355404
342.30 0.09112705
342.40 0.08798375
342.50 0.0854604
342.60 0.08455223
342.70 0.08529987
342.80 0.08691534
342.90 0.08840574
343.00 0.08918248
343.10 0.08932353
343.20 0.08936135
343.30 0.08975464
343.40 0.09048084
343.50 0.09113247
343.60 0.09134518
343.70 0.09102133
343.80 0.09024246
343.90 0.08919665
344.00 0.08822407
344.10 0.0877169
344.20 0.08778116
344.30 0.08806723
344.40 0.08808203
344.50 0.0876674
344.60 0.08713474
344.70 0.08699845
344.80 0.08765054
344.90 0.08922661
345.00 0.0916452
345.10 0.094663
345.20 0.09788931
345.30 0.1007909
345.40 0.1027782
345.50 0.1034832
345.60 0.1030575
345.70 0.1021451
345.80 0.101442
345.90 0.1012109
346.00 0.1011657
346.10 0.1007291
346.20 0.09944163
346.30 0.09732923
346.40 0.09502119
346.50 0.09338636
346.60 0.092846
346.70 0.09301046
346.80 0.09304291
346.90 0.09234276
347.00 0.09085793
347.10 0.08897014
347.20 0.0873093
347.30 0.0865761
347.40 0.08721662
347.50 0.0890743
347.60 0.09146293
347.70 0.09368994
347.80 0.09551336
347.90 0.09713834
348.00 0.09886657
348.10 0.1007406
348.20 0.1024301
348.30 0.1034435
348.40 0.1035215
348.50 0.1028626
348.60 0.1019202
348.70 0.1009939
348.80 0.1000925
348.90 0.09913461
349.00 0.09813654
349.10 0.09718683
349.20 0.09636318
349.30 0.09577202
349.40 0.09559934
349.50 0.09596446
349.60 0.09669241
349.70 0.09734091
349.80 0.09759485
349.90 0.09771387
350.00 0.09849893
350.10 0.1006575
350.20 0.1041161
350.30 0.1079498
350.40 0.1110007
350.50 0.1125979
350.60 0.1127733
350.70 0.1119627
350.80 0.1106255
350.90 0.1090263
351.00 0.1071327
351.10 0.1046356
351.20 0.101205
351.30 0.09694363
351.40 0.09263371
351.50 0.08936931
351.60 0.08779347
351.70 0.08765249
351.80 0.08809627
351.90 0.08838718
352.00 0.08831327
352.10 0.08802024
352.20 0.08768385
352.30 0.0874617
352.40 0.0876833
352.50 0.08894084
352.60 0.0917631
352.70 0.09606403
352.80 0.1009355
352.90 0.1051479
353.00 0.1080444
353.10 0.1099517
353.20 0.1116605
353.30 0.1136146
353.40 0.1157133
353.50 0.117747
353.60 0.1197621
353.70 0.1219217
353.80 0.1242144
353.90 0.1264457
354.00 0.1283639
354.10 0.12965
354.20 0.1299277
354.30 0.129053
354.40 0.1274364
354.50 0.1259041
354.60 0.1250879
354.70 0.1249669
354.80 0.1250371
354.90 0.1248472
355.00 0.1243112
355.10 0.1236092
355.20 0.1229322
355.30 0.1223661
355.40 0.1219498
355.50 0.1216969
355.60 0.1214953
355.70 0.1210422
355.80 0.1199818
355.90 0.1181987
356.00 0.1159522
356.10 0.1136653
356.20 0.1115655
356.30 0.1095081
356.40 0.1071459
356.50 0.1043198
356.60 0.1013416
356.70 0.09888493
356.80 0.09752072
356.90 0.09729671
357.00 0.09774253
357.10 0.09822792
357.20 0.09828752
357.30 0.09771547
357.40 0.09651315
357.50 0.09483061
357.60 0.0929228
357.70 0.09106114
357.80 0.08942645
357.90 0.08806878
358.00 0.08699424
358.10 0.08632064
358.20 0.08631726
358.30 0.08722913
358.40 0.08902605
358.50 0.09131484
358.60 0.09348925
358.70 0.09498602
358.80 0.09551683
358.90 0.09520495
359.00 0.09459198
359.10 0.09443313
359.20 0.0952819
359.30 0.09710531
359.40 0.09923927
359.50 0.1008023
359.60 0.1012899
359.70 0.1008834
359.80 0.1002354
359.90 0.0999132
360.00 0.09994644
360.10 0.09982872
360.20 0.09895572
360.30 0.09711972
360.40 0.09469709
360.50 0.09246825
360.60 0.09126174
360.70 0.09162777
360.80 0.09359186
360.90 0.09659756
361.00 0.09977684
361.10 0.1024376
361.20 0.1043856
361.30 0.1057967
361.40 0.1068299
361.50 0.1074485
361.60 0.107649
361.70 0.1077079
361.80 0.1080339
361.90 0.1087582
362.00 0.1095834
362.10 0.1100985
362.20 0.1101575
362.30 0.1099221
362.40 0.1096647
362.50 0.1096128
362.60 0.1098411
362.70 0.1101422
362.80 0.1100637
362.90 0.109271
363.00 0.1079421
363.10 0.1067152
363.20 0.1061793
363.30 0.1064379
363.40 0.1071497
363.50 0.1078838
363.60 0.1083946
363.70 0.1086465
363.80 0.1086756
363.90 0.1084545
364.00 0.1078595
364.10 0.1067564
364.20 0.1051399
364.30 0.10321
364.40 0.1013303
364.50 0.0999128
364.60 0.09926285
364.70 0.09941373
364.80 0.1000902
364.90 0.1009186
365.00 0.1017656
365.10 0.1028652
365.20 0.104516
365.30 0.1066157
365.40 0.1085495
365.50 0.1096087
365.60 0.1095689
365.70 0.1088578
365.80 0.1081446
365.90 0.1078013
366.00 0.1077643
366.10 0.1078324
366.20 0.1079934
366.30 0.1083946
366.40 0.1090666
366.50 0.1097746
366.60 0.1101389
366.70 0.1098783
366.80 0.1089558
366.90 0.1075583
367.00 0.1060013
367.10 0.1046429
367.20 0.1038085
367.30 0.103708
367.40 0.1043471
367.50 0.1055097
367.60 0.1068628
367.70 0.1081278
367.80 0.1091935
367.90 0.1101001
368.00 0.1109307
368.10 0.1117009
368.20 0.11232
368.30 0.1126337
368.40 0.1125247
368.50 0.1120262
368.60 0.1113683
368.70 0.1108844
368.80 0.1108113
368.90 0.1111477
369.00 0.1117165
369.10 0.1123734
369.20 0.1131034
369.30 0.113892
369.40 0.1145599
369.50 0.1148085
369.60 0.1144779
369.70 0.1137481
369.80 0.1130762
369.90 0.1129401
370.00 0.1135925
370.10 0.1149613
370.20 0.1167302
370.30 0.1185064
370.40 0.1199557
370.50 0.1208593
370.60 0.1211386
370.70 0.1209133
370.80 0.1205062
370.90 0.1202975
371.00 0.1204763
371.10 0.1208822
371.20 0.1210662
371.30 0.1205244
371.40 0.1189813
371.50 0.1165773
371.60 0.1138476
371.70 0.1114743
371.80 0.1099777
371.90 0.1095461
372.00 0.1100511
372.10 0.1110842
372.20 0.1119372
372.30 0.11173
372.40 0.1098188
372.50 0.1063048
372.60 0.1021829
372.70 0.09890196
372.80 0.09763395
372.90 0.09876362
373.00 0.1018548
373.10 0.1059618
373.20 0.1100158
373.30 0.1131116
373.40 0.1146907
373.50 0.1145871
373.60 0.1129381
373.70 0.1100491
373.80 0.1063285
373.90 0.1023163
374.00 0.09868173
374.10 0.09610821
374.20 0.09512385
374.30 0.09600842
374.40 0.09880966
374.50 0.1033608
374.60 0.1092311
374.70 0.1156601
374.80 0.1216105
374.90 0.1260272
375.00 0.128189
375.10 0.1279348
375.20 0.1256405
375.30 0.1220236
375.40 0.1179239
375.50 0.1141272
375.60 0.111181
375.70 0.1092548
375.80 0.1081468
375.90 0.107474
376.00 0.1069533
376.10 0.1066241
376.20 0.1068951
376.30 0.1083783
376.40 0.1115914
376.50 0.1167303
376.60 0.1236587
376.70 0.1319746
376.80 0.1409668
376.90 0.14949
377.00 0.1560656
377.10 0.1593756
377.20 0.1588513
377.30 0.154887
377.40 0.1485526
377.50 0.1410962
377.60 0.1335928
377.70 0.1268334
377.80 0.1212899
377.90 0.1170874
378.00 0.1140553
378.10 0.1118946
378.20 0.1103613
378.30 0.1093172
378.40 0.1086652
378.50 0.1083305
378.60 0.1083315
378.70 0.1088185
378.80 0.1100134
378.90 0.112163
379.00 0.1155997
379.10 0.1207733
379.20 0.128057
379.30 0.1373992
379.40 0.1481122
379.50 0.1589678
379.60 0.1684736
379.70 0.175167
379.80 0.1779428
379.90 0.1763901
380.00 0.1709956
380.10 0.1630018
380.20 0.1539424
380.30 0.1451268
380.40 0.1373684
380.50 0.1309928
380.60 0.1259783
380.70 0.1220814
380.80 0.1189334
380.90 0.1162072
381.00 0.1137803
381.10 0.1117342
381.20 0.110168
381.30 0.1090198
381.40 0.1081183
381.50 0.1074149
381.60 0.107346
381.70 0.1083987
381.80 0.1106014
381.90 0.1136779
382.00 0.1175579
382.10 0.1122131
382.20 0.0630313
382.30 0.04157425
382.40 0.05441687
382.50 0.06730303
382.60 0.07703491
382.70 0.08190114
382.80 0.08389279
382.90 0.0869034
383.00 0.2729428
383.10 0.6313019
383.20 0.829578
383.30 0.8416126
383.40 0.6908792
383.50 0.4662768
383.60 0.2991995
383.70 0.2790779
383.80 0.3684033
383.90 0.4435152
384.00 0.4372491
384.10 0.3768536
384.20 0.2957403
384.30 0.1706828
384.40 0.01859904
384.50 0.02181279
384.60 0.1728854
384.70 0.6278549
384.80 1.117291
384.90 1.380433
385.00 1.271505
385.10 0.8631308
385.20 0.4187446
385.30 0.2287713
385.40 0.3899368
385.50 0.7334167
385.60 0.9981
385.70 1.040818
385.80 0.8744555
385.90 0.5877412
386.00 0.2914967
386.10 0.09170837
386.20 0.04795068
386.30 0.126748
386.40 0.2429849
386.50 0.3463495
386.60 0.4360163
386.70 0.5210705
386.80 0.5892537
386.90 0.6437624
387.00 0.7140959
387.10 0.8070059
387.20 0.888929
387.30 0.9307232
387.40 0.9515303
387.50 0.97085
387.60 0.9494364
387.70 0.8399042
387.80 0.7052745
387.90 0.6776015
388.00 0.7818065
388.10 0.8754289
388.20 0.8015566
388.30 0.5783997
388.40 0.3522237
388.50 0.2390413
388.60 0.2553245
388.70 0.3670574
388.80 0.5349408
388.90 0.7059348
389.00 0.8175916
389.10 0.8227257
389.20 0.7062492
389.30 0.4811764
389.40 0.2081074
389.50 0
389.60 0
389.70 0
389.80 0.143834
389.90 0.1632092
390.00 0.002587668
390.10 0.004416454
390.20 0.006400562
390.30 0.04761627
390.40 0.2045702
390.50 0.1810708
390.60 0.07985178
390.70 0.1082573
390.80 0.3323803
390.90 0.6030361
391.00 0.7085102
391.10 0.5372256
391.20 0.1396868
391.30 0.06271269
391.40 0.05302119
391.50 0.04223875
391.60 0.03094254
391.70 0.01841573
391.80 0.004015888
391.90 0
392.00 0
392.10 0
392.20 0
392.30 0.08441367
392.40 0.08394036
392.50 0
392.60 0
392.70 0
392.80 0
392.90 0
393.00 0.2302097
393.10 0.7499334
393.20 1.297366
393.30 1.761411
393.40 1.901689
393.50 1.564371
393.60 0.9077078
393.70 0.3107889
393.80 0.04401974
393.90 0.07085173
394.00 0.1622081
394.10 0.14426
394.20 0
394.30 0.001134283
394.40 0.0003018885
394.50 0
394.60 0
394.70 0.05201695
394.80 0
394.90 0
395.00 0.000173966
395.10 0
395.20 0
395.30 0
395.40 0
395.50 0.2094119
395.60 0.6055115
395.70 0.7274913
395.80 0.5310981
395.90 0.1881119
396.00 0.007605268
396.10 0.02421062
396.20 0.03889053
396.30 0.04984639
396.40 0.05649482
396.50 0.192216
396.60 0.5220078
396.70 0.9607802
396.80 1.39665
396.90 1.681795
397.00 1.739668
397.10 1.586987
397.20 1.279809
397.30 0.8885512
397.40 0.4820904
397.50 0.1724108
397.60 0.06154963
397.70 0.144532
397.80 0.3088077
397.90 0.4387812
398.00 0.5148833
398.10 0.5975562
398.20 0.7167754
398.30 0.8063318
398.40 0.7632724
398.50 0.5552413
398.60 0.2630644
398.70 0
398.80 0
398.90 0
399.00 0
399.10 0
399.20 0
399.30 0
399.40 0
399.50 0
399.60 0.05228466
399.70 0.1076618
399.80 0.09191016
399.90 0.06276096
400.00 0.07772748
400.10 0.1458509
400.20 0.214168
400.30 0.2131776
400.40 0.1285979
400.50 0.03979802
400.60 0.04209022
400.70 0.04149053
400.80 0.0446306
400.90 0.1342881
401.00 0.1963454
401.10 0.1722844
401.20 0.0452031
401.30 0
401.40 0
401.50 0
401.60 0
401.70 0.1318437
401.80 0.2867359
401.90 0.3534756
402.00 0.3619262
402.10 0.3774353
402.20 0.4482463
402.30 0.5503388
402.40 0.5989585
402.50 0.542867
402.60 0.4248055
402.70 0.3159829
402.80 0.2335489
402.90 0.1611696
403.00 0.1116319
403.10 0.1306144
403.20 0.2207278
403.30 0.3116399
403.40 0.3236042
403.50 0.2383101
403.60 0.1097797
403.70 0.04756244
403.80 0.04699933
403.90 0.04792814
404.00 0.04917642
404.10 0.05656416
404.20 0.1192876
404.30 0.2563934
404.40 0.4325367
404.50 0.5850049
404.60 0.6537868
404.70 0.5928992
404.80 0.4082239
404.90 0.1900894
405.00 0.05265527
405.10 0.03185462
405.20 0.06752153
405.30 0.0960982
405.40 0.1261284
405.50 0.1896186
405.60 0.258831
405.70 0.2612499
405.80 0.1811679
405.90 0.1074402
406.00 0.1282414
406.10 0.2330131
406.20 0.3387049
406.30 0.3933379
406.40 0.4156226
406.50 0.4461376
406.60 0.4866807
406.70 0.5161818
406.80 0.5127226
406.90 0.4497043
407.00 0.3060376
407.10 0.1079548
407.20 0.01646431
407.30 0.01576066
407.40 0.01489364
407.50 0.1102298
407.60 0.1875508
407.70 0.2206719
407.80 0.2385223
407.90 0.2398673
408.00 0.2055302
408.10 0.1417895
408.20 0.08242146
408.30 0.05305593
408.40 0.05596742
408.50 0.08772289
408.60 0.142388
408.70 0.1924731
408.80 0.1911194
408.90 0.1154468
409.00 0.01746608
409.10 0.006214999
409.20 0.1189607
409.30 0.2794233
409.40 0.3476031
409.50 0.2922202
409.60 0.2274576
409.70 0.2911584
409.80 0.5107056
409.90 0.8049301
410.00 1.065654
410.10 1.209557
410.20 1.186415
410.30 0.9881853
410.40 0.6635873
410.50 0.303615
410.60 0.001874613
410.70 0
410.80 0
410.90 0
411.00 0
411.10 0
411.20 0
411.30 0
411.40 0
411.50 0
411.60 0.2293002
411.70 0.6387906
411.80 0.9192399
411.90 1.001066
412.00 0.9288459
412.10 0.7961651
412.20 0.6768344
412.30 0.59077
412.40 0.5228148
412.50 0.448818
412.60 0.3610974
412.70 0.2683369
412.80 0.1831484
412.90 0.1123137
413.00 0.06027095
413.10 0.03298352
413.20 0.02718906
413.30 0.03651259
413.40 0.06086425
413.50 0.1007705
413.60 0.1508299
413.70 0.2027278
413.80 0.2453863
413.90 0.2531543
414.00 0.189436
414.10 0.03281684
414.20 0.01914382
414.30 0.01308654
414.40 0.006316591
414.50 0
414.60 0
414.70 0
414.80 0.1128273
414.90 0.2013897
415.00 0.09976555
415.10 0
415.20 0
415.30 0
415.40 0
415.50 0
415.60 0
415.70 0
415.80 0
415.90 0
416.00 0.04685112
416.10 0.150257
416.20 0.2447584
416.30 0.2730924
416.40 0.1898713
416.50 0.01371459
416.60 0
416.70 0
416.80 0
416.90 0
417.00 0.05035383
417.10 0.2303381
417.20 0.2891911
417.30 0.2805758
417.40 0.2916379
417.50 0.3214999
417.60 0.2930144
417.70 0.1673016
417.80 0.002094674
417.90 0
418.00 0
418.10 0
418.20 0
418.30 0
418.40 0
418.50 0.03602551
418.60 0.3113638
418.70 0.5976156
418.80 0.8433531
418.90 1.020024
419.00 1.134691
419.10 1.193277
419.20 1.174812
419.30 1.058009
419.40 0.8607843
419.50 0.628726
419.60 0.4106202
419.70 0.2515702
419.80 0.1815381
419.90 0.1887243
420.00 0.2137473
420.10 0.1829211
420.20 0.07083165
420.30 0
420.40 0
420.50 0
420.60 0
420.70 0
420.80 0.07846562
420.90 0.1350807
421.00 0.1250052
421.10 0.102171
421.20 0.1500741
421.30 0.2981518
421.40 0.5003131
421.50 0.663633
421.60 0.7417907
421.70 0.7451618
421.80 0.7059896
421.90 0.6426783
422.00 0.562109
422.10 0.4831045
422.20 0.4334821
422.30 0.4084644
422.40 0.3486726
422.50 0.1984521
422.60 0.001869209
422.70 0.00178883
422.80 0.00025496
422.90 0
423.00 0
423.10 0.0003924546
423.20 0.005087243
423.30 0.0121356
423.40 0.02064211
423.50 0.1432357
423.60 0.4015596
423.70 0.5770061
423.80 0.6395104
423.90 0.6029423
424.00 0.4972883
424.10 0.3560102
424.20 0.2078069
424.30 0.0667501
424.40 0.007299823
424.50 0.003204275
424.60 0.001165063
424.70 0.001560561
424.80 0.1199103
424.90 0.2846223
425.00 0.4278911
425.10 0.5119538
425.20 0.513083
425.30 0.4447032
425.40 0.3489456
425.50 0.2789421
425.60 0.2724439
425.70 0.3286036
425.80 0.4050061
425.90 0.4396298
426.00 0.3998583
426.10 0.3134952
426.20 0.2346212
426.30 0.1957075
426.40 0.2118058
426.50 0.2828112
426.60 0.3643029
426.70 0.3585086
426.80 0.1935151
426.90 0.009967756
427.00 0.007214056
427.10 0.00423259
427.20 0.001108933
427.30 0
427.40 0
427.50 0
427.60 0
427.70 0
427.80 0.04114596
427.90 0.05162555
428.00 0.01814715
428.10 0
428.20 0
428.30 0
428.40 0
428.50 0.001152302
428.60 0.01132375
428.70 0.02156848
428.80 0.02926881
428.90 0.03333781
429.00 0.03471839
429.10 0.1341181
429.20 0.2492406
429.30 0.3226194
429.40 0.3738068
429.50 0.4185246
429.60 0.4585323
429.70 0.4696245
429.80 0.4236813
429.90 0.3440868
430.00 0.3095526
430.10 0.36616
430.20 0.4608989
430.30 0.5004545
430.40 0.4640228
430.50 0.4223961
430.60 0.4321098
430.70 0.4624021
430.80 0.4530301
430.90 0.3939031
431.00 0.3198318
431.10 0.2612794
431.20 0.2233868
431.30 0.1979088
431.40 0.1693846
431.50 0.1178222
431.60 0.08199532
431.70 0.07793905
431.80 0.07154944
431.90 0.06384726
432.00 0.07523723
432.10 0.1714491
432.20 0.2845082
432.30 0.4016925
432.40 0.4894041
432.50 0.5014482
432.60 0.4120457
432.70 0.259382
432.80 0.1355804
432.90 0.09846889
433.00 0.1035706
433.10 0.05514976
433.20 0
433.30 0.001101353
433.40 0.00392284
433.50 0.007432373
433.60 0.01048815
433.70 0.03532057
433.80 0.302586
433.90 0.6594
434.00 1.048196
434.10 1.337562
434.20 1.397971
434.30 1.213368
434.40 0.9073105
434.50 0.6453936
434.60 0.5132281
434.70 0.4823512
434.80 0.4688752
434.90 0.4103987
435.00 0.3010085
435.10 0.1787144
435.20 0.08953722
435.30 0.05479194
435.40 0.06935049
435.50 0.1310973
435.60 0.2490691
435.70 0.4235146
435.80 0.5809022
435.90 0.5895474
436.00 0.3877562
436.10 0.08638285
436.20 0
436.30 0.0007912631
436.40 0.1142237
436.50 0.2663622
436.60 0.306918
436.70 0.2976541
436.80 0.3448107
436.90 0.474027
437.00 0.6069655
437.10 0.647706
437.20 0.5639374
437.30 0.3968947
437.40 0.2186714
437.50 0.08291581
437.60 0.007490484
437.70 0
437.80 0.02291576
437.90 0.09309251
438.00 0.1720171
438.10 0.2074521
438.20 0.1608036
438.30 0.06243479
438.40 0.004848117
438.50 0.007853076
438.60 0.008927131
438.70 0.01952606
438.80 0.09694455
438.90 0.2211217
439.00 0.3339072
439.10 0.3505158
439.20 0.2561961
439.30 0.1227092
439.40 0.02462636
439.50 0
439.60 0
439.70 0
439.80 0
439.90 0.09226471
440.00 0.2169997
440.10 0.2479348
440.20 0.1567513
440.30 0.003801661
440.40 0
440.50 0
440.60 0
440.70 0
440.80 0
440.90 0.1547053
441.00 0.3536316
441.10 0.5104838
441.20 0.5787995
441.30 0.558516
441.40 0.5001181
441.50 0.4614652
441.60 0.4644035
441.70 0.4859061
441.80 0.4807186
441.90 0.4205538
442.00 0.3223882
442.10 0.2397922
442.20 0.2212346
442.30 0.2707599
442.40 0.3394528
442.50 0.3630488
442.60 0.3166885
442.70 0.2356416
442.80 0.1868903
442.90 0.2110947
443.00 0.2835864
443.10 0.3344525
443.20 0.3068312
443.30 0.1990369
443.40 0.05809092
443.50 0
443.60 0
443.70 0
443.80 0.1538494
443.90 0.3149977
444.00 0.4117968
444.10 0.4333652
444.20 0.4273574
444.30 0.4344695
444.40 0.4405277
444.50 0.4043616
444.60 0.3099363
444.70 0.1971192
444.80 0.1334379
444.90 0.1558403
445.00 0.2543738
445.10 0.4033461
445.20 0.5821491
445.30 0.7468147
445.40 0.8167659
445.50 0.7351063
445.60 0.5510259
445.70 0.3727081
445.80 0.2853745
445.90 0.2722313
446.00 0.2722259
446.10 0.2757613
446.20 0.3303249
446.30 0.4655576
446.40 0.6424225
446.50 0.7747543
446.60 0.7862072
446.70 0.6663996
446.80 0.4918147
446.90 0.3753051
447.00 0.3703901
447.10 0.4272855
447.20 0.4584758
447.30 0.4347102
447.40 0.3908688
447.50 0.3597045
447.60 0.3316827
447.70 0.2689348
447.80 0.1510911
447.90 0.0068049
448.00 0.007807148
448.10 0.006894923
448.20 0.03894354
448.30 0.2044202
448.40 0.3281783
448.50 0.3841033
448.60 0.4102202
448.70 0.4517473
448.80 0.5092116
448.90 0.5530117
449.00 0.575064
449.10 0.6019119
449.20 0.6576882
449.30 0.725841
449.40 0.7584262
449.50 0.7271452
449.60 0.654162
449.70 0.5864228
449.80 0.5544494
449.90 0.5538094
450.00 0.5597613
450.10 0.5539836
450.20 0.5325275
450.30 0.5076985
450.40 0.5014706
450.50 0.5214389
450.60 0.5454393
450.70 0.5440601
450.80 0.5131841
450.90 0.4797104
451.00 0.4728929
451.10 0.4947804
451.20 0.5286689
451.30 0.5561466
451.40 0.5631493
451.50 0.5374806
451.60 0.4711305
451.70 0.3752763
451.80 0.2891412
451.90 0.2604624
452.00 0.3058407
452.10 0.3975807
452.20 0.492023
452.30 0.5705157
452.40 0.646998
452.50 0.738392
452.60 0.8339098
452.70 0.8927039
452.80 0.8687619
452.90 0.7551867
453.00 0.609884
453.10 0.518035
453.20 0.5241782
453.30 0.5980712
453.40 0.6639997
453.50 0.6588033
453.60 0.5684382
453.70 0.429158
453.80 0.3082454
453.90 0.2578483
454.00 0.2766841
454.10 0.3230117
454.20 0.354814
454.30 0.3644072
454.40 0.3770774
454.50 0.4083013
454.60 0.4292688
454.70 0.3902321
454.80 0.2742944
454.90 0.1247645
455.00 0.0174345
455.10 0.01818227
455.20 0.166102
455.30 0.440099
455.40 0.7302831
455.50 0.8965389
455.60 0.8843899
455.70 0.7637853
455.80 0.6406324
455.90 0.5592136
456.00 0.5079822
456.10 0.477996
456.20 0.4777163
456.30 0.5089791
456.40 0.5567028
456.50 0.6062308
456.60 0.6524792
456.70 0.6942219
456.80 0.7271477
456.90 0.7443487
457.00 0.7473205
457.10 0.7475513
457.20 0.7585208
457.30 0.7932173
457.40 0.8583296
457.50 0.9312114
457.60 0.9535227
457.70 0.8736458
457.80 0.7121643
457.90 0.5628821
458.00 0.5060076
458.10 0.5499579
458.20 0.6509798
458.30 0.7518656
458.40 0.8008784
458.50 0.7617209
458.60 0.6382928
458.70 0.4838228
458.80 0.3660809
458.90 0.3228699
459.00 0.3395785
459.10 0.355674
459.20 0.3182907
459.30 0.2449311
459.40 0.2109285
459.50 0.264547
459.60 0.3675648
459.70 0.4431634
459.80 0.4637302
459.90 0.460817
460.00 0.4649175
460.10 0.4682555
460.20 0.4481889
460.30 0.3983918
460.40 0.3284182
460.50 0.2530406
460.60 0.1915626
460.70 0.1600224
460.80 0.1642736
460.90 0.2147415
461.00 0.3350636
461.10 0.5261773
461.20 0.7202119
461.30 0.8169264
461.40 0.7860991
461.50 0.6991195
461.60 0.6416809
461.70 0.6236065
461.80 0.6028734
461.90 0.5657246
462.00 0.5447142
462.10 0.5690424
462.20 0.6348439
462.30 0.7274293
462.40 0.8334302
462.50 0.9206829
462.60 0.934035
462.70 0.8378315
462.80 0.6493601
462.90 0.4302913
463.00 0.2587166
463.10 0.197766
463.20 0.2603616
463.30 0.3896651
463.40 0.5005276
463.50 0.5545625
463.60 0.5803148
463.70 0.610787
463.80 0.6323288
463.90 0.6110592
464.00 0.5440279
464.10 0.4702569
464.20 0.4343254
464.30 0.447475
464.40 0.486919
464.50 0.5251409
464.60 0.5574074
464.70 0.6041286
464.80 0.68022
464.90 0.7615743
465.00 0.7971029
465.10 0.7579647
465.20 0.6659996
465.30 0.570925
465.40 0.5107956
465.50 0.4992845
465.60 0.540023
465.70 0.63373
465.80 0.7635322
465.90 0.8925659
466.00 0.9774689
466.10 0.9868745
466.20 0.9257811
466.30 0.8439309
466.40 0.8046335
466.50 0.8368508
466.60 0.9146614
466.70 0.9819906
466.80 0.98668
466.90 0.8940069
467.00 0.7100566
467.10 0.5065566
467.20 0.3894162
467.30 0.4108029
467.40 0.521424
467.50 0.6224853
467.60 0.6521087
467.70 0.6099658
467.80 0.5286202
467.90 0.4487329
468.00 0.4078872
468.10 0.4236607
468.20 0.4801362
468.30 0.5489148
468.40 0.6168212
468.50 0.6868771
468.60 0.7575075
468.70 0.8108711
468.80 0.8300627
468.90 0.8152307
469.00 0.7737778
469.10 0.7058962
469.20 0.6195215
469.30 0.5572413
469.40 0.5636746
469.50 0.6186774
469.60 0.642832
469.70 0.5931686
469.80 0.5181568
469.90 0.4829635
470.00 0.4762697
470.10 0.4388587
470.20 0.3670598
470.30 0.3235244
470.40 0.3519536
470.50 0.4158296
470.60 0.4383465
470.70 0.3904357
470.80 0.3156084
470.90 0.2859432
471.00 0.343501
471.10 0.4746937
471.20 0.6225173
471.30 0.7223249
471.40 0.7460326
471.50 0.7256613
471.60 0.7258533
471.70 0.7730347
471.80 0.8217627
471.90 0.8012833
472.00 0.6932592
472.10 0.556404
472.20 0.4806703
472.30 0.5217371
472.40 0.6589536
472.50 0.8116554
472.60 0.9057094
472.70 0.9351868
472.80 0.9529237
472.90 0.9946481
473.00 1.029731
473.10 1.002365
473.20 0.9006651
473.30 0.7638555
473.40 0.6351695
473.50 0.5299338
473.60 0.4535775
473.70 0.4287853
473.80 0.484175
473.90 0.616662
474.00 0.7716657
474.10 0.8703904
474.20 0.8662876
474.30 0.7810516
474.40 0.6844166
474.50 0.6343293
474.60 0.6349202
474.70 0.6478993
474.80 0.635355
474.90 0.5916769
475.00 0.5440693
475.10 0.5288333
475.20 0.5730327
475.30 0.6793077
475.40 0.8123313
475.50 0.905654
475.60 0.8965299
475.70 0.7715111
475.80 0.5839782
475.90 0.4163129
476.00 0.3103631
476.10 0.2365868
476.20 0.1378935
476.30 0.003788558
476.40 0
476.50 0
476.60 0
476.70 0.06925742
476.80 0.202509
476.90 0.2896959
477.00 0.3213016
477.10 0.3344207
477.20 0.3781241
477.30 0.4622314
477.40 0.5492684
477.50 0.5979509
477.60 0.5967828
477.70 0.5530764
477.80 0.4691665
477.90 0.3544949
478.00 0.2511739
478.10 0.2139266
478.20 0.254979
478.30 0.3202803
478.40 0.3403426
478.50 0.309288
478.60 0.2903523
478.70 0.3304284
478.80 0.3959279
478.90 0.407381
479.00 0.3348669
479.10 0.2419185
479.20 0.2230308
479.30 0.3134936
479.40 0.4671453
479.50 0.6056672
479.60 0.6801388
479.70 0.694999
479.80 0.6883677
479.90 0.6923461
480.00 0.7023598
480.10 0.6854112
480.20 0.6199452
480.30 0.5171684
480.40 0.4030411
480.50 0.2989536
480.60 0.2257474
480.70 0.2144189
480.80 0.289862
480.90 0.4417696
481.00 0.6213065
481.10 0.7680809
481.20 0.8504569
481.30 0.8816716
481.40 0.8902491
481.50 0.8748465
481.60 0.8060289
481.70 0.6754094
481.80 0.5281029
481.90 0.4331105
482.00 0.418785
482.10 0.4547706
482.20 0.4928017
482.30 0.5082321
482.40 0.5051446
482.50 0.5008948
482.60 0.5183789
482.70 0.5715776
482.80 0.6400009
482.90 0.6704309
483.00 0.632383
483.10 0.555479
483.20 0.4870228
483.30 0.4365417
483.40 0.3914577
483.50 0.3723321
483.60 0.4215665
483.70 0.5391575
483.80 0.6712715
483.90 0.7699245
484.00 0.8339162
484.10 0.8877524
484.20 0.945504
484.30 0.9976054
484.40 1.016543
484.50 0.9731035
484.60 0.8665423
484.70 0.7477
484.80 0.6933487
484.90 0.7396084
485.00 0.839419
485.10 0.8964513
485.20 0.8511624
485.30 0.7325876
485.40 0.617282
485.50 0.5395225
485.60 0.4712951
485.70 0.4106718
485.80 0.464402
485.90 0.7878106
486.00 1.408224
486.10 2.114102
486.20 2.559803
486.30 2.513968
486.40 2.027411
486.50 1.381371
486.60 0.8743397
486.70 0.6356277
486.80 0.5993771
486.90 0.6142577
487.00 0.5694964
487.10 0.452632
487.20 0.3291872
487.30 0.2827661
487.40 0.3557461
487.50 0.5214361
487.60 0.708218
487.70 0.8479011
487.80 0.9069691
487.90 0.8847297
488.00 0.8009678
488.10 0.693508
488.20 0.6109259
488.30 0.5908379
488.40 0.6373727
488.50 0.7196265
488.60 0.7894974
488.70 0.808357
488.80 0.7650737
488.90 0.6772984
489.00 0.5837731
489.10 0.5329392
489.20 0.5584277
489.30 0.6433192
489.40 0.7169694
489.50 0.7130603
489.60 0.6382021
489.70 0.56187
489.80 0.5393477
489.90 0.5732842
490.00 0.6462377
490.10 0.7467701
490.20 0.8476326
490.30 0.8974195
490.40 0.8707004
490.50 0.8126201
490.60 0.794628
490.70 0.8313616
490.80 0.872253
490.90 0.8717796
491.00 0.8433526
491.10 0.8307995
491.20 0.8475152
491.30 0.8705988
491.40 0.8805741
491.50 0.8792295
491.60 0.878121
491.70 0.8877518
491.80 0.9169047
491.90 0.9677918
492.00 1.022646
492.10 1.053393
492.20 1.056003
492.30 1.058445
492.40 1.085001
492.50 1.118241
492.60 1.109783
492.70 1.042636
492.80 0.9660494
492.90 0.9497448
493.00 1.01038
493.10 1.099598
493.20 1.166737
493.30 1.209404
493.40 1.253
493.50 1.306329
493.60 1.358248
493.70 1.401142
493.80 1.436512
493.90 1.460275
494.00 1.464759
494.10 1.45603
494.20 1.451304
494.30 1.461663
494.40 1.489117
494.50 1.533049
494.60 1.587626
494.70 1.636477
494.80 1.659024
494.90 1.646804
495.00 1.604835
495.10 1.546066
495.20 1.491455
495.30 1.452374
495.40 1.403444
495.50 1.292502
495.60 1.095254
495.70 0.8509445
495.80 0.623417
495.90 0.4348349
496.00 0.267116
496.10 0.1186891
496.20 0.02420968
496.30 0.01800848
496.40 0.09652611
496.50 0.2197742
496.60 0.3353969
496.70 0.4045226
496.80 0.429976
496.90 0.4559716
497.00 0.5081321
497.10 0.5396368
497.20 0.4724515
497.30 0.2981667
497.40 0.1086493
497.50 0.01599722
497.60 0.06992409
497.70 0.2534915
497.80 0.5135421
497.90 0.7640212
498.00 0.8978296
498.10 0.8572606
498.20 0.7055747
498.30 0.5925091
498.40 0.6298198
498.50 0.8043456
498.60 1.003388
498.70 1.112907
498.80 1.092963
498.90 0.984177
499.00 0.8591018
499.10 0.7632232
499.20 0.6942623
499.30 0.6316947
499.40 0.5745423
499.50 0.5452294
499.60 0.5593035
499.70 0.593515
499.80 0.5898385
499.90 0.5022059
500.00 1
500.10 1.160047
500.20 0.6335335
500.30 0.001980748
500.40 0.3808507
500.50 0.8318422
500.60 0.7571831
500.70 0.8596285
500.80 0.8180173
500.90 0.5784353
501.00 0.6072586
501.10 0.8474589
501.20 0.8538291
501.30 0.5112195
501.40 0.8559579
501.50 1.028554
501.60 0.2812115
501.70 0.2269953
501.80 0.5610018
501.90 0.7974868
502.00 1.29991
502.10 0.4569904
502.20 0.3877756
502.30 0.4870587
502.40 0.313948
502.50 0.365361
502.60 0.9152093
502.70 0.9533267
502.80 0.8742015
502.90 0.9434386
503.00 1.206184
503.10 1.237607
503.20 0.86821
503.30 0.8901523
503.40 0.9997944
503.50 0.4255856
503.60 0.5494894
503.70 1.279983
503.80 1.21915
503.90 0.8858419
504.00 1.077554
504.10 0.6322616
504.20 0.377051
504.30 0.7312988
504.40 0.7891379
504.50 0.4984616
504.60 0.6183786
504.70 0.8286057
504.80 0.7080956
504.90 0.8412394
505.00 1.012306
505.10 0.7224635
505.20 0.7221291
505.30 1.100797
505.40 0.6277109
505.50 0
505.60 0.6620817
505.70 1.237206
505.80 1.022123
505.90 0.6829826
506.00 0.8599695
506.10 0.8090479
506.20 0.3113422
506.30 0.9509463
506.40 1.11024
506.50 0.7150865
506.60 0.6537613
506.70 0.6421374
506.80 0.7238103
506.90 0.8261945
507.00 1.426431
507.10 1.629523
507.20 1.118111
507.30 0.712113
507.40 1.183329
507.50 1.744727
507.60 1.787135
507.70 1.630512
507.80 1.506642
507.90 1.614926
508.00 1.447331
508.10 1.373704
508.20 1.471367
508.30 1.263042
508.40 0.6834386
508.50 0.3841828
508.60 0.7732384
508.70 1.386808
508.80 1.536959
508.90 1.295902
509.00 1.303394
509.10 0.9066897
509.20 0.867465
509.30 1.232743
509.40 1.254559
509.50 1.112787
509.60 1.701416
509.70 1.980228
509.80 1.557659
509.90 1.609275
510.00 1.177823
510.10 0.4688962
510.20 0.3488886
510.30 0.5360297
510.40 0.5321335
510.50 1.061091
510.60 0.9801756
510.70 0.5380633
510.80 0.8055024
510.90 1.264974
511.00 1.304627
511.10 1.164252
511.20 1.454478
511.30 1.701795
511.40 1.36292
511.50 1.241871
511.60 1.712488
511.70 1.943772
511.80 1.017615
511.90 0.965118
512.00 1.350836
512.10 1.540815
512.20 1.558436
512.30 1.769171
512.40 1.654377
512.50 1.230421
512.60 1.003447
512.70 1.211543
512.80 1.238357
512.90 0.5319736
513.00 0.7299475
513.10 1.535539
513.20 1.337166
513.30 1.359676
513.40 1.623635
513.50 1.325669
513.60 1.557043
513.70 1.349163
513.80 1.172544
513.90 1.194744
514.00 1.51476
514.10 0.9198465
514.20 0.7344671
514.30 1.024157
514.40 1.401325
514.50 1.715443
514.60 1.4156
514.70 1.029556
514.80 0.8997174
514.90 0.8362588
515.00 0.5859914
515.10 0.7092146
515.20 1.220163
515.30 1.409691
515.40 1.144077
515.50 1.126793
515.60 1.011902
515.70 1.520449
515.80 1.791703
515.90 1.886287
516.00 1.756599
516.10 1.585171
516.20 1.80652
516.30 1.949729
516.40 2.207144
516.50 1.96322
516.60 1.474342
516.70 1.102259
516.80 0.9540231
516.90 0.2845535
517.00 0.03117513
517.10 0
517.20 0.1755249
517.30 0.5192685
517.40 0.5343654
517.50 0.5699397
517.60 0.8448517
517.70 0.7011889
517.80 0.5558948
517.90 0.5839396
518.00 0.5689208
518.10 0.36175
518.20 0.3041342
518.30 0
518.40 0.1555093
518.50 0.4991803
518.60 1.092883
518.70 1.115041
518.80 1.085043
518.90 0.8856827
519.00 0.7855771
519.10 0.8167118
519.20 0.9040392
519.30 0.6002905
519.40 0.6766946
519.50 0.7870006
519.60 0.9466876
519.70 0.9104398
519.80 0.4541833
519.90 0.259977
520.00 0.2007714
520.10 0.0289625
520.20 0.1986811
520.30 1.053006
520.40 1.350878
520.50 1.023361
520.60 0.7872362
520.70 0.8112022
520.80 1.164337
520.90 1.104203
521.00 0.6443506
521.10 0.5112434
521.20 0.9015314
521.30 1.122357
521.40 1.446127
521.50 1.081117
521.60 0.7841811
521.70 1.154718
521.80 1.202181
521.90 1.015269
522.00 1.293827
522.10 1.282075
522.20 1.029372
522.30 0.723781
522.40 0.8878493
522.50 1.771303
522.60 1.89752
522.70 1.879958
522.80 1.614225
522.90 1.057538
523.00 1.071716
523.10 1.244497
523.20 1.53415
523.30 1.467199
523.40 1.187783
523.50 0.9442677
523.60 1.325005
523.70 1.261701
523.80 1.35375
523.90 1.58303
524.00 1.600564
524.10 1.267483
524.20 1.436581
524.30 1.151078
524.40 0.8285912
524.50 0.6616224
524.60 0.8082464
524.70 1.023262
524.80 0.9740728
524.90 0.9243024
525.00 1.238833
525.10 0.9550171
525.20 0.8425204
525.30 1.328157
525.40 1.932783
525.50 1.563756
525.60 1.023655
525.70 1.221639
525.80 1.713405
525.90 1.678852
526.00 1.342345
526.10 1.091989
526.20 1.227049
526.30 1.47255
526.40 1.273478
526.50 1.157776
526.60 1.136891
526.70 1.19541
526.80 1.433195
526.90 1.046657
527.00 1.326937
527.10 1.645134
527.20 1.242295
527.30 1.126934
527.40 1.232248
527.50 1.428744
527.60 1.764976
527.70 1.466379
527.80 1.326857
527.90 1.430644
528.00 1.608516
528.10 1.133878
528.20 0.7944168
528.30 1.619352
528.40 1.963204
528.50 1.321832
528.60 1.039505
528.70 1.451516
528.80 1.725302
528.90 1.667563
529.00 1.60029
529.10 1.498657
529.20 1.580759
529.30 1.593518
529.40 1.61542
529.50 1.623479
529.60 1.642433
529.70 1.870157
529.80 1.95531
529.90 1.446209
530.00 1.264457
530.10 1.658958
530.20 2.118693
530.30 1.873952
530.40 1.810616
530.50 2.058052
530.60 1.894989
530.70 1.74283
530.80 1.521447
530.90 1.506641
531.00 1.510032
531.10 1.235025
531.20 1.229294
531.30 1.424992
531.40 1.143327
531.50 1.009124
531.60 1.291395
531.70 1.403809
531.80 1.41604
531.90 1.210087
532.00 1.222353
532.10 1.95824
532.20 1.855365
532.30 1.411499
532.40 1.263427
532.50 1.531385
532.60 1.681192
532.70 1.323958
532.80 1.108547
532.90 1.742005
533.00 1.418657
533.10 1.116006
533.20 1.326327
533.30 2.184457
533.40 1.880113
533.50 1.092398
533.60 1.162781
533.70 0.9622313
533.80 1.213586
533.90 1.492628
534.00 1.875315
534.10 1.693688
534.20 1.233482
534.30 1.364068
534.40 1.737865
534.50 1.978492
534.60 2.167211
534.70 1.821821
534.80 1.144988
534.90 1.11643
535.00 1.442409
535.10 2.069231
535.20 2.225536
535.30 2.329576
535.40 2.444667
535.50 2.286374
535.60 1.890258
535.70 1.867612
535.80 1.457179
535.90 1.427597
536.00 1.566475
536.10 1.923741
536.20 1.804747
536.30 1.613291
536.40 1.262521
536.50 1.518466
536.60 1.257212
536.70 1.04302
536.80 1.034094
536.90 1.255332
537.00 1.223352
537.10 1.274592
537.20 1.462819
537.30 1.727452
537.40 1.397201
537.50 1.214442
537.60 1.319691
537.70 1.596015
537.80 1.77502
537.90 2.309132
538.00 2.509655
538.10 1.978676
538.20 1.52589
538.30 1.728861
538.40 2.319201
538.50 2.19188
538.60 1.84085
538.70 1.453265
538.80 1.85331
538.90 1.723254
539.00 1.775035
539.10 2.050657
539.20 1.823326
539.30 1.289173
539.40 1.691423
539.50 1.994198
539.60 2.000599
539.70 1.892856
539.80 2.326861
539.90 2.499462
540.00 2.07482
540.10 2.356313
540.20 2.793295
540.30 2.71643
540.40 2.364881
540.50 2.054844
540.60 1.85041
540.70 2.356974
540.80 2.433544
540.90 1.562552
541.00 1.366124
541.10 1.237133
541.20 1.729248
541.30 2.091682
541.40 1.857881
541.50 1.661092
541.60 1.685642
541.70 1.889503
541.80 2.298462
541.90 2.340398
542.00 1.745032
542.10 1.893793
542.20 2.20711
542.30 2.518076
542.40 2.620493
542.50 2.580301
542.60 2.542349
542.70 2.13712
542.80 1.835782
542.90 2.040084
543.00 1.839952
543.10 1.705749
543.20 1.751905
543.30 1.705488
543.40 1.699399
543.50 1.957149
543.60 2.04876
543.70 1.917078
543.80 1.844669
543.90 2.451687
544.00 2.528735
544.10 2.399253
544.20 2.895275
544.30 2.897385
544.40 2.341487
544.50 2.37288
544.60 2.842153
544.70 2.844335
544.80 2.394345
544.90 1.968248
545.00 1.315861
545.10 0.2682596
545.20 0.1055432
545.30 0.269977
545.40 0.3357226
545.50 0.5294938
545.60 0.5347478
545.70 0.6240492
545.80 0.8219684
545.90 0.8698662
546.00 1.053142
546.10 1.755247
546.20 1.83031
546.30 1.843083
546.40 1.610415
546.50 0.9202976
546.60 0.7677185
546.70 0.8942016
546.80 1.465344
546.90 1.581766
547.00 1.260154
547.10 0.7923183
547.20 0.6850736
547.30 0.4779524
547.40 0.35173
547.50 0.766841
547.60 1.398878
547.70 1.312949
547.80 1.159884
547.90 1.22279
548.00 1.329091
548.10 1.169027
548.20 0.983309
548.30 0.7773619
548.40 0.9379169
548.50 1.210049
548.60 1.151816
548.70 1.105821
548.80 1.125971
548.90 0.9307184
549.00 0.9046599
549.10 0.7106325
549.20 1.055054
549.30 1.098255
549.40 1.004806
549.50 1.288789
549.60 1.415913
549.70 0.8922285
549.80 0.8481313
549.90 1.342256
550.00 0.9433721
550.10 0.5387884
550.20 0.5846043
550.30 0.8500818
550.40 0.6546045
550.50 0.5143818
550.60 0.7678642
550.70 0.5603594
550.80 0.3867186
550.90 0.4727901
551.00 0.3654875
551.10 0.2375363
551.20 0
551.30 0
551.40 0.1966699
551.50 0.6843842
551.60 1.096086
551.70 1.043776
551.80 0.3891446
551.90 0
552.00 0.3826646
552.10 0.459653
552.20 0.001056487
552.30 0.1137947
552.40 0.3324685
552.50 0.4130012
552.60 0.8408741
552.70 0.5388778
552.80 0.3735185
552.90 0.4317365
553.00 0.1828106
553.10 0.326205
553.20 0.5068672
553.30 0.5945543
553.40 0.5835201
553.50 0.6722582
553.60 0.2719428
553.70 0.3132401
553.80 0.309047
553.90 0.2856751
554.00 0.6979676
554.10 0.6484665
554.20 0.3369898
554.30 0.245674
554.40 0.6792167
554.50 0.7759951
554.60 0.2039548
554.70 0
554.80 0.01133801
554.90 0.2998994
555.00 0.4595637
555.10 0.4511964
555.20 0
555.30 0.3661056
555.40 0.7072572
555.50 0.5035563
555.60 0.4962857
555.70 0.6394447
555.80 0.8094117
555.90 0.3982678
556.00 0.4386451
556.10 0.89695
556.20 0.7670802
556.30 0.5419525
556.40 0.7903707
556.50 1.115005
556.60 1.071092
556.70 0.6750642
556.80 0.5931302
556.90 0.6495254
557.00 0.8377948
557.10 1.010978
557.20 1.016351
557.30 1.010668
557.40 1.010698
557.50 1.010698
557.60 1.010698
557.70 1.010698
557.80 1.010698
557.90 1.010698
558.00 1.010698
558.10 1.010698
558.20 1.01072
558.30 1.014007
558.40 0.9787266
558.50 1.013579
558.60 1.394703
558.70 1.525107
558.80 1.330409
558.90 1.106014
559.00 1.143935
559.10 1.168252
559.20 1.215235
559.30 1.307339
559.40 1.284586
559.50 1.391815
559.60 1.519084
559.70 0.9607085
559.80 0.6897033
559.90 0.7932577
560.00 0.9828757
560.10 0.9998677
560.20 1.356404
560.30 1.530166
560.40 1.410535
560.50 1.236753
560.60 1.235148
560.70 0.7525552
560.80 0.6164903
560.90 0.9112161
561.00 1.455749
561.10 1.750582
561.20 1.243554
561.30 0.9062513
561.40 1.275679
561.50 1.418921
561.60 1.179916
561.70 1.39802
561.80 1.312124
561.90 0.8571415
562.00 0.6180541
562.10 0.8236539
562.20 1.193348
562.30 1.021857
562.40 1.146486
562.50 1.03007
562.60 0.9015845
562.70 0.8366863
562.80 0.8699893
562.90 0.9932355
563.00 1.518019
563.10 1.126273
563.20 0.4670755
563.30 0.4335057
563.40 1.046767
563.50 1.44725
563.60 1.258034
563.70 0.7147508
563.80 0.4771708
563.90 1.024326
564.00 1.125072
564.10 0.7341496
564.20 0.493682
564.30 0.7598181
564.40 1.099699
564.50 0.94077
564.60 1.050546
564.70 0.8750099
564.80 1.194653
564.90 1.462617
565.00 1.406718
565.10 1.130449
565.20 1.204768
565.30 1.706022
565.40 1.753426
565.50 1.455065
565.60 0.9238284
565.70 1.096635
565.80 1.332327
565.90 1.620606
566.00 1.514324
566.10 1.18112
566.20 1.129303
566.30 1.403552
566.40 1.666942
566.50 1.179212
566.60 1.162044
566.70 1.448703
566.80 1.547999
566.90 1.365449
567.00 1.374149
567.10 1.465339
567.20 1.520313
567.30 1.637513
567.40 1.202351
567.50 1.152397
567.60 0.9997263
567.70 1.288443
567.80 1.308188
567.90 1.365187
568.00 1.44612
568.10 1.076642
568.20 0.9452646
568.30 1.559643
568.40 2.283933
568.50 2.036495
568.60 1.187124
568.70 1.086463
568.80 1.475432
568.90 2.090919
569.00 2.328231
569.10 1.457631
569.20 1.604706
569.30 1.865622
569.40 1.894621
569.50 1.533861
569.60 1.147281
569.70 1.15229
569.80 1.367125
569.90 1.739927
570.00 1.86762
570.10 1.722252
570.20 1.523671
570.30 1.205692
570.40 1.39694
570.50 1.86511
570.60 2.26087
570.70 2.084349
570.80 2.053346
570.90 1.874436
571.00 1.732344
571.10 1.810067
571.20 1.818543
571.30 1.939007
571.40 1.625527
571.50 1.178952
571.60 1.179081
571.70 1.498386
571.80 2.076218
571.90 1.951495
572.00 1.480898
572.10 1.010538
572.20 1.225625
572.30 1.48183
572.40 1.784785
572.50 1.929306
572.60 1.943184
572.70 1.96323
572.80 1.778903
572.90 1.584544
573.00 1.757602
573.10 1.793149
573.20 1.631247
573.30 1.740919
573.40 2.09539
573.50 2.124421
573.60 2.037287
573.70 1.855107
573.80 1.762338
573.90 1.567299
574.00 1.243996
574.10 1.344332
574.20 1.609644
574.30 1.862553
574.40 2.15905
574.50 2.177566
574.60 1.876641
574.70 1.554565
574.80 2.224252
574.90 1.661258
575.00 1.06546
575.10 1.475642
575.20 2.141957
575.30 1.829978
575.40 1.374024
575.50 1.887123
575.60 2.003912
575.70 1.868584
575.80 2.033173
575.90 2.147173
576.00 1.861945
576.10 1.219016
576.20 1.222411
576.30 1.475494
576.40 1.866453
576.50 1.86754
576.60 1.678309
576.70 1.688348
576.80 1.787528
576.90 1.268735
577.00 1.02549
577.10 1.387376
577.20 1.295059
577.30 0.8156039
577.40 0.9348093
577.50 1.566461
577.60 2.00376
577.70 1.868376
577.80 1.440356
577.90 1.296458
578.00 1.779477
578.10 2.27572
578.20 2.186349
578.30 1.519654
578.40 0.9160625
578.50 1.367922
578.60 2.082695
578.70 2.430594
578.80 2.060048
578.90 2.014926
579.00 2.257578
579.10 2.460987
579.20 2.527186
579.30 2.126481
579.40 1.876115
579.50 2.038581
579.60 2.279851
579.70 2.582938
579.80 2.432807
579.90 1.994836
580.00 2.282909
580.10 2.555595
580.20 2.375216
580.30 2.22583
580.40 2.013043
580.50 2.307046
580.60 2.593993
580.70 2.570185
580.80 2.827658
580.90 2.951516
581.00 2.453201
581.10 2.17368
581.20 2.132557
581.30 1.759942
581.40 1.662939
581.50 1.576839
581.60 1.726007
581.70 1.801388
581.80 2.299452
581.90 2.246916
582.00 1.453318
582.10 1.525255
582.20 1.795628
582.30 1.866178
582.40 1.687906
582.50 1.286012
582.60 1.445368
582.70 1.793024
582.80 2.057071
582.90 1.630678
583.00 1.691957
583.10 2.147222
583.20 2.138575
583.30 1.703082
583.40 2.278239
583.50 2.308537
583.60 1.223073
583.70 1.200342
583.80 1.309128
583.90 1.196369
584.00 1.187838
584.10 1.73049
584.20 2.144641
584.30 2.086931
584.40 2.260402
584.50 2.244078
584.60 1.581568
584.70 1.232302
584.80 1.200651
584.90 1.763814
585.00 1.971667
585.10 1.73417
585.20 1.039665
585.30 1.060868
585.40 1.451117
585.50 1.605341
585.60 1.86178
585.70 1.568715
585.80 1.340347
585.90 1.428113
586.00 1.447644
586.10 0.687162
586.20 0.3403514
586.30 0.6502382
586.40 1.164738
586.50 1.210942
586.60 1.211345
586.70 1.081845
586.80 0.9812711
586.90 1.372967
587.00 1.435987
587.10 1.146409
587.20 0.8845557
587.30 0.858339
587.40 1.141788
587.50 1.1293
587.60 0.9839189
587.70 0.9295412
587.80 0.9779731
587.90 0.8486426
588.00 0.9120865
588.10 0.6018354
588.20 0.6124366
588.30 0.8238369
588.40 1.011272
588.50 0.8198327
588.60 0.374217
588.70 0.5026048
588.80 1.150334
588.90 2.114431
589.00 2.295131
589.10 0.8497646
589.20 1.102763
589.30 2.584437
589.40 2.332979
589.50 1.33242
589.60 0.5291552
589.70 0.6906367
589.80 0.846173
589.90 0.9013988
590.00 1.069171
590.10 0.6361023
590.20 0.8046697
590.30 0.765586
590.40 0.4350479
590.50 0.4678592
590.60 0.755538
590.70 1.209579
590.80 1.106189
590.90 0.8498419
591.00 0.6781062
591.10 0.9038442
591.20 1.167793
591.30 0.9086026
591.40 0.7775477
591.50 0.8204006
591.60 1.167391
591.70 0.9964224
591.80 0.5837358
591.90 0.836826
592.00 0.935055
592.10 0.8703574
592.20 0.6771785
592.30 1.193886
592.40 1.307871
592.50 0.3264751
592.60 0.5989413
592.70 1.258523
592.80 1.18738
592.90 0.7723506
593.00 0.7318189
593.10 1.039316
593.20 1.13876
593.30 1.003033
593.40 0.79115
593.50 0.4795215
593.60 0.4824194
593.70 0.971052
593.80 0.9718098
593.90 0.7741682
594.00 0.7787638
594.10 0.8934825
594.20 0.6851329
594.30 0.9881516
594.40 1.147612
594.50 1.075774
594.60 0.9673495
594.70 1.336623
594.80 1.582289
594.90 1.607484
595.00 1.782481
595.10 1.324972
595.20 0.8745412
595.30 0.5203884
595.40 0.5257407
595.50 0.4493209
595.60 0.855595
595.70 1.902408
595.80 1.978902
595.90 1.402883
596.00 0.9962456
596.10 1.062011
596.20 0.800977
596.30 0.4266042
596.40 0.5520574
596.50 1.326666
596.60 1.434016
596.70 1.295437
596.80 1.382486
596.90 1.011085
597.00 0.7872418
597.10 0.6160558
597.20 0.5503795
597.30 0.3883991
597.40 0.4241696
597.50 0.8988151
597.60 0.9790153
597.70 0.9399768
597.80 0.5840411
597.90 0.6742836
598.00 0.865997
598.10 1.285448
598.20 1.261931
598.30 1.071242
598.40 1.025456
598.50 1.077817
598.60 1.141806
598.70 0.9560589
598.80 1.136486
598.90 1.295786
599.00 1.020456
599.10 1.111213
599.20 1.280298
599.30 1.187824
599.40 0.8576422
599.50 0.7144994
599.60 0.9237994
599.70 1.029302
599.80 0.9695131
599.90 1.343958
600.00 1.539119
600.10 1.455912
600.20 1.246009
600.30 1.264402
600.40 1.474641
600.50 1.276461
600.60 1.14958
600.70 0.9912566
600.80 1.279076
600.90 1.480497
601.00 1.095214
601.10 0.7779728
601.20 0.9357227
601.30 1.405738
601.40 1.237335
601.50 0.80271
601.60 1.15479
601.70 1.370985
601.80 1.598905
601.90 1.636956
602.00 1.428637
602.10 0.9047535
602.20 0.8560053
602.30 1.043453
602.40 1.186326
602.50 1.323336
602.60 1.248265
602.70 1.134225
602.80 0.8714223
602.90 0.9195097
603.00 0.8808113
603.10 0.6470273
603.20 0.8415462
603.30 1.062917
603.40 1.544676
603.50 1.685838
603.60 1.496397
603.70 1.499544
603.80 1.307286
603.90 0.99154
604.00 0.9681198
604.10 1.066449
604.20 1.199798
604.30 1.444775
604.40 1.64485
604.50 1.561813
604.60 1.31071
604.70 1.440082
604.80 2.019198
604.90 1.97545
605.00 1.390605
605.10 1.126833
605.20 1.435498
605.30 1.467856
605.40 1.268039
605.50 1.170716
605.60 1.269317
605.70 1.67276
605.80 1.794206
605.90 1.282666
606.00 1.078155
606.10 1.154409
606.20 1.328366
606.30 1.431027
606.40 1.505901
606.50 1.484206
606.60 1.293035
606.70 1.604789
606.80 1.9309
606.90 2.04096
607.00 1.837901
607.10 1.650228
607.20 1.623569
607.30 1.333433
607.40 1.307029
607.50 1.465918
607.60 1.535029
607.70 1.527783
607.80 1.416829
607.90 1.499844
608.00 1.338846
608.10 1.380149
608.20 1.346573
608.30 1.41545
608.40 1.885859
608.50 1.814336
608.60 1.45235
608.70 1.303767
608.80 1.547677
608.90 1.568084
609.00 1.086914
609.10 1.313364
609.20 1.652841
609.30 1.726374
609.40 1.480216
609.50 1.427785
609.60 1.394726
609.70 1.424101
609.80 1.8127
609.90 1.765169
610.00 1.454995
610.10 1.661861
610.20 1.745238
610.30 1.512755
610.40 1.003912
610.50 1.218326
610.60 1.482882
610.70 1.455793
610.80 1.220569
610.90 1.451709
611.00 1.611243
611.10 1.726949
611.20 1.857425
611.30 1.723447
611.40 1.41865
611.50 1.302263
611.60 1.162644
611.70 1.21135
611.80 1.229398
611.90 1.48769
612.00 1.788116
612.10 1.70575
612.20 1.510459
612.30 1.457204
612.40 1.500766
612.50 1.453726
612.60 1.102355
612.70 1.008174
612.80 0.9619878
612.90 0.9776145
613.00 1.40033
613.10 1.541279
613.20 1.053927
613.30 1.218896
613.40 1.615821
613.50 1.628757
613.60 1.340136
613.70 1.313983
613.80 1.410484
613.90 1.085098
614.00 1.045542
614.10 1.188457
614.20 1.09967
614.30 0.7939636
614.40 0.9611311
614.50 1.351162
614.60 1.513642
614.70 1.335621
614.80 1.356233
614.90 1.155791
615.00 1.142109
615.10 0.8885232
615.20 0.617384
615.30 0.8523011
615.40 1.111125
615.50 1.069515
615.60 0.7721022
615.70 0.9834671
615.80 1.479065
615.90 1.235445
616.00 1.017203
616.10 0.9474618
616.20 0.9370782
616.30 1.031549
616.40 1.136426
616.50 1.12234
616.60 0.6939417
616.70 0.5720536
616.80 0.7067548
616.90 0.6756069
617.00 0.7767152
617.10 0.7704537
617.20 0.9073061
617.30 0.9867315
617.40 0.8229357
617.50 0.9648181
617.60 1.065561
617.70 0.8390046
617.80 0.5802213
617.90 0.8333963
618.00 0.7131691
618.10 0.3764508
618.20 0.09526818
618.30 0.216734
618.40 1.016267
618.50 1.235062
618.60 1.080571
618.70 0.9778579
618.80 0.8035417
618.90 0.6028254
619.00 0.66926
619.10 0.8299513
619.20 0.741664
619.30 1.171287
619.40 1.280701
619.50 1.084522
619.60 0.8991921
619.70 1.075126
619.80 0.9195756
619.90 0.5813862
620.00 0.5777216
620.10 0.694921
620.20 0.870851
620.30 0.8043077
620.40 0.887573
620.50 0.9179382
620.60 0.7427175
620.70 0.6376993
620.80 0.8620357
620.90 1.191554
621.00 1.110232
621.10 1.11331
621.20 1.128428
621.30 0.8360101
621.40 0.86273
621.50 1.014952
621.60 1.130804
621.70 0.8394995
621.80 0.5830107
621.90 0.7879051
622.00 1.02807
622.10 1.020071
622.20 1.00986
622.30 0.8016587
622.40 0.8874945
622.50 0.8311109
622.60 0.7900417
622.70 0.6297299
622.80 0.5996488
622.90 0.9554404
623.00 0.9685137
623.10 1.001339
623.20 0.9273193
623.30 0.8601624
623.40 0.8948202
623.50 0.970926
623.60 0.7202694
623.70 0.7534325
623.80 0.5164134
623.90 0
624.00 0.5322235
624.10 1.389813
624.20 1.335153
624.30 0.390853
624.40 0.2804878
624.50 0.9864063
624.60 1.178689
624.70 0.9656115
624.80 0.6577551
624.90 0.6115494
625.00 0.6813295
625.10 0.6609813
625.20 0.8014044
625.30 1.032947
625.40 1.305273
625.50 1.159263
625.60 0.8951861
625.70 0.8547668
625.80 0.9707036
625.90 1.248988
626.00 1.187197
626.10 1.155386
626.20 1.264933
626.30 1.009084
626.40 0.6235047
626.50 0.7590164
626.60 0.9571455
626.70 0.8158046
626.80 0.5533274
626.90 0.7444941
627.00 1.022185
627.10 1.098113
627.20 0.8518498
627.30 0.9697901
627.40 1.287938
627.50 1.290398
627.60 1.205017
627.70 1.275894
627.80 1.566807
627.90 1.429469
628.00 1.23231
628.10 1.038162
628.20 0.9897649
628.30 1.15153
628.40 1.208626
628.50 0.970856
628.60 0.8588298
628.70 0.9922704
628.80 1.382139
628.90 1.225695
629.00 1.072593
629.10 1.235984
629.20 1.423155
629.30 1.687501
629.40 1.480778
629.50 1.31202
629.60 1.376955
629.70 1.81317
629.80 2.13421
629.90 2.20792
630.00 2.094418
630.10 0.981725
630.20 0.3529468
630.30 0.07893169
630.40 1.688001
630.50 3.01592
630.60 2.205043
630.70 1.744765
630.80 1.546051
630.90 1.592663
631.00 1.577649
631.10 1.797338
631.20 2.185353
631.30 2.064022
631.40 1.85015
631.50 1.557873
631.60 1.419235
631.70 1.714516
631.80 1.821984
631.90 1.697782
632.00 1.633513
632.10 2.08856
632.20 2.070358
632.30 1.685121
632.40 1.732387
632.50 1.929702
632.60 1.90829
632.70 1.661144
632.80 1.615395
632.90 1.889007
633.00 2.181456
633.10 1.769597
633.20 1.369119
633.30 1.427364
633.40 1.88088
633.50 2.167959
633.60 2.098517
633.70 2.1367
633.80 2.132993
633.90 2.204807
634.00 2.115897
634.10 2.186995
634.20 2.467244
634.30 2.443146
634.40 2.101373
634.50 1.995498
634.60 2.276496
634.70 2.5474
634.80 2.623923
634.90 2.384708
635.00 2.456323
635.10 2.521085
635.20 2.256006
635.30 2.05711
635.40 2.231977
635.50 2.431603
635.60 2.299253
635.70 2.415491
635.80 2.397285
635.90 1.8758
636.00 1.725468
636.10 2.410462
636.20 3.274712
636.30 3.178494
636.40 2.223789
636.50 1.530822
636.60 1.473401
636.70 1.543666
636.80 1.995759
636.90 2.172553
637.00 2.142668
637.10 2.371397
637.20 2.5816
637.30 2.448842
637.40 2.115531
637.50 1.92623
637.60 2.150941
637.70 2.357065
637.80 2.309119
637.90 2.168553
638.00 2.117551
638.10 2.20982
638.20 1.820088
638.30 1.701846
638.40 2.050072
638.50 2.221653
638.60 2.272595
638.70 2.252364
638.80 2.232434
638.90 2.144456
639.00 2.133783
639.10 2.177249
639.20 2.221563
639.30 2.284702
639.40 2.519608
639.50 2.503946
639.60 2.284545
639.70 2.220232
639.80 2.383661
639.90 2.532867
640.00 2.66305
640.10 2.787219
640.20 2.572613
640.30 2.364809
640.40 2.528847
640.50 2.915116
640.60 3.113526
640.70 2.901121
640.80 2.637739
640.90 2.457073
641.00 2.36285
641.10 2.419127
641.20 2.43119
641.30 2.560799
641.40 2.696696
641.50 2.62815
641.60 2.422058
641.70 2.340336
641.80 2.546409
641.90 2.652754
642.00 2.626928
642.10 2.565661
642.20 2.417199
642.30 2.278328
642.40 2.274079
642.50 2.188948
642.60 2.063842
642.70 2.101125
642.80 2.37751
642.90 2.718432
643.00 2.648084
643.10 2.492576
643.20 2.497407
643.30 2.486009
643.40 2.477614
643.50 2.260093
643.60 2.149368
643.70 2.311451
643.80 2.560219
643.90 2.777468
644.00 2.630014
644.10 2.361214
644.20 2.2846
644.30 2.545389
644.40 2.656237
644.50 2.481734
644.60 2.440057
644.70 2.593474
644.80 2.713755
644.90 2.506458
645.00 2.350536
645.10 2.450415
645.20 2.6034
645.30 2.792139
645.40 2.720399
645.50 2.732405
645.60 2.662793
645.70 2.573494
645.80 2.512348
645.90 2.468825
646.00 2.630007
646.10 2.888483
646.20 2.832359
646.30 2.554907
646.40 2.677551
646.50 2.822837
646.60 2.641112
646.70 2.272208
646.80 2.434657
646.90 2.90239
647.00 3.137914
647.10 2.783171
647.20 2.615939
647.30 3.203911
647.40 3.757988
647.50 3.549205
647.60 2.839159
647.70 2.631224
647.80 2.734452
647.90 2.826218
648.00 2.630652
648.10 2.526296
648.20 2.614777
648.30 2.653124
648.40 2.633882
648.50 2.549238
648.60 2.405194
648.70 2.625303
648.80 2.829979
648.90 2.794832
649.00 2.798705
649.10 2.714063
649.20 2.74384
649.30 2.910102
649.40 2.932691
649.50 3.011079
649.60 3.26523
649.70 3.40549
649.80 3.101824
649.90 2.891638
650.00 3.344875
650.10 3.199773
650.20 3.127852
650.30 3.442597
650.40 3.798679
650.50 3.771564
650.60 3.462205
650.70 3.64867
650.80 3.874886
650.90 3.909058
651.00 3.927287
651.10 4.065601
651.20 4.171801
651.30 4.205833
651.40 4.019733
651.50 3.929507
651.60 4.031544
651.70 4.16614
651.80 4.136543
651.90 4.283902
652.00 4.516074
652.10 4.445935
652.20 4.591611
652.30 4.770208
652.40 4.748619
652.50 4.529404
652.60 4.56409
652.70 5.180677
652.80 5.603432
652.90 5.613722
653.00 5.643743
653.10 5.89033
653.20 5.946171
653.30 5.558744
653.40 5.220197
653.50 5.236711
653.60 5.60266
653.70 5.917748
653.80 6.114485
653.90 6.345511
654.00 6.425093
654.10 6.310916
654.20 6.343358
654.30 6.451985
654.40 6.315012
654.50 6.011902
654.60 5.674254
654.70 5.506912
654.80 5.545689
654.90 5.546357
655.00 5.30615
655.10 5.049587
655.20 5.142363
655.30 5.198678
655.40 4.974065
655.50 4.715939
655.60 4.865118
655.70 5.039099
655.80 5.151577
655.90 5.473747
656.00 5.843473
656.10 6.317026
656.20 8.761414
656.30 12.4428
656.40 14.48427
656.50 13.61538
656.60 10.65636
656.70 7.690127
656.80 5.572506
656.90 4.565896
657.00 4.288478
657.10 4.09293
657.20 4.224357
657.30 4.368263
657.40 4.325634
657.50 4.12286
657.60 4.116488
657.70 4.27656
657.80 4.215295
657.90 4.013791
658.00 3.689122
658.10 3.436082
658.20 3.431763
658.30 3.712629
658.40 3.828088
658.50 3.825644
658.60 3.938078
658.70 4.269329
658.80 4.423265
658.90 4.112886
659.00 3.939336
659.10 4.016313
659.20 4.103384
659.30 4.252
659.40 4.208708
659.50 3.989391
659.60 3.872788
659.70 3.956867
659.80 4.144878
659.90 3.998418
660.00 3.84148
660.10 3.867309
660.20 4.024798
660.30 4.128141
660.40 4.091339
660.50 4.04671
660.60 4.037988
660.70 3.99067
660.80 3.844074
660.90 3.793683
661.00 3.894214
661.10 3.925883
661.20 3.906429
661.30 4.005989
661.40 4.15256
661.50 4.260461
661.60 3.911089
661.70 3.73813
661.80 4.004477
661.90 4.093838
662.00 3.934606
662.10 3.671175
662.20 3.609072
662.30 3.648483
662.40 3.678847
662.50 3.61647
662.60 3.22563
662.70 2.93193
662.80 3.118033
662.90 3.243517
663.00 3.23627
663.10 3.355955
663.20 3.523165
663.30 3.615744
663.40 3.718001
663.50 3.755861
663.60 3.648151
663.70 3.354218
663.80 3.087432
663.90 3.152021
664.00 3.283156
664.10 3.452936
664.20 3.517338
664.30 3.568671
664.40 3.47545
664.50 3.475204
664.60 3.397266
664.70 3.321429
664.80 3.440705
664.90 3.601212
665.00 3.688428
665.10 3.470023
665.20 2.932959
665.30 2.537953
665.40 2.467283
665.50 2.6855
665.60 2.945348
665.70 2.889969
665.80 2.725976
665.90 2.626579
666.00 2.807276
666.10 2.787644
666.20 2.808524
666.30 3.015319
666.40 3.095867
666.50 3.155747
666.60 3.168246
666.70 3.147067
666.80 3.05599
666.90 3.202662
667.00 3.519415
667.10 3.521645
667.20 3.471177
667.30 3.196557
667.40 2.98707
667.50 3.103017
667.60 3.258021
667.70 3.454155
667.80 3.634226
667.90 3.786986
668.00 3.675835
668.10 3.449355
668.20 3.108205
668.30 2.652202
668.40 2.46969
668.50 2.45687
668.60 2.654175
668.70 2.645987
668.80 2.454156
668.90 2.53273
669.00 2.74755
669.10 2.777317
669.20 2.727393
669.30 2.644391
669.40 2.353853
669.50 2.31248
669.60 2.681225
669.70 3.015353
669.80 3.051606
669.90 2.816615
670.00 2.840371
670.10 3.037464
670.20 3.279141
670.30 3.371908
670.40 3.227698
670.50 3.145153
670.60 3.21182
670.70 3.298696
670.80 3.292286
670.90 3.027215
671.00 2.916968
671.10 3.162542
671.20 3.41477
671.30 3.403802
671.40 3.132115
671.50 2.8566
671.60 2.706933
671.70 2.552255
671.80 2.414198
671.90 2.421849
672.00 2.49566
672.10 2.628374
672.20 2.70806
672.30 2.671804
672.40 2.60027
672.50 2.641927
672.60 2.652556
672.70 2.702105
672.80 3.032964
672.90 3.258427
673.00 3.010749
673.10 2.717702
673.20 2.799915
673.30 3.16469
673.40 3.409083
673.50 3.243923
673.60 2.924152
673.70 2.625426
673.80 2.634223
673.90 3.001992
674.00 3.116733
674.10 3.023604
674.20 2.970252
674.30 3.063132
674.40 3.201998
674.50 3.283324
674.60 3.306303
674.70 3.182915
674.80 2.938393
674.90 2.739354
675.00 2.743265
675.10 2.926194
675.20 3.006273
675.30 2.947666
675.40 2.962275
675.50 3.233525
675.60 3.254284
675.70 3.198571
675.80 3.208464
675.90 3.001811
676.00 2.93104
676.10 3.11699
676.20 3.300362
676.30 3.427935
676.40 3.299387
676.50 3.32739
676.60 3.648402
676.70 3.659469
676.80 3.5886
676.90 3.649995
677.00 3.720649
677.10 3.899412
677.20 3.993167
677.30 3.897822
677.40 3.824737
677.50 3.85242
677.60 3.832517
677.70 3.894913
677.80 3.80252
677.90 3.863752
678.00 4.009223
678.10 3.906173
678.20 3.548636
678.30 2.9528
678.40 2.713571
678.50 2.804813
678.60 2.841943
678.70 2.832227
678.80 2.894943
678.90 3.142362
679.00 3.324512
679.10 3.413511
679.20 3.360993
679.30 3.066748
679.40 2.923471
679.50 3.053212
679.60 3.209252
679.70 3.247433
679.80 3.263992
679.90 3.329556
680.00 3.35343
680.10 3.330931
680.20 3.222563
680.30 3.18723
680.40 3.257514
680.50 3.357743
680.60 3.485357
680.70 3.643396
680.80 3.569719
680.90 3.308752
681.00 3.411819
681.10 3.622308
681.20 3.708069
681.30 3.735257
681.40 3.599097
681.50 3.40177
681.60 3.238776
681.70 3.282044
681.80 3.378098
681.90 3.42004
682.00 3.497684
682.10 3.379481
682.20 3.252818
682.30 3.393061
682.40 3.433282
682.50 3.368039
682.60 3.432556
682.70 3.711447
682.80 3.976369
682.90 3.884866
683.00 3.411598
683.10 3.065052
683.20 3.279975
683.30 3.594793
683.40 3.65942
683.50 3.693268
683.60 3.951983
683.70 4.058296
683.80 3.956514
683.90 4.015279
684.00 3.953566
684.10 3.894032
684.20 4.154624
684.30 4.305822
684.40 4.193491
684.50 4.039411
684.60 3.86344
684.70 3.857755
684.80 3.975221
684.90 3.896697
685.00 3.657189
685.10 3.472216
685.20 3.426455
685.30 3.311451
685.40 3.199834
685.50 3.23459
685.60 3.472557
685.70 3.659945
685.80 3.622242
685.90 3.49581
686.00 3.406551
686.10 3.57604
686.20 3.832986
686.30 4.001212
686.40 4.226736
686.50 4.27509
686.60 3.999761
686.70 3.646468
686.80 3.459327
686.90 3.774425
687.00 3.589497
687.10 3.256388
687.20 3.452328
687.30 3.899388
687.40 4.307297
687.50 4.459718
687.60 4.564478
687.70 4.489165
687.80 4.318896
687.90 4.231536
688.00 3.958166
688.10 3.943775
688.20 4.234856
688.30 4.268581
688.40 4.166565
688.50 4.005298
688.60 4.113043
688.70 4.440619
688.80 4.43579
688.90 4.320325
689.00 4.087845
689.10 3.72346
689.20 3.747783
689.30 4.103688
689.40 4.407109
689.50 4.347011
689.60 4.12809
689.70 4.205154
689.80 4.258357
689.90 4.274217
690.00 4.237796
690.10 4.062505
690.20 3.751405
690.30 3.659799
690.40 3.988596
690.50 4.267699
690.60 4.243761
690.70 4.389402
690.80 4.915041
690.90 5.086551
691.00 4.780183
691.10 4.585806
691.20 4.564522
691.30 4.867738
691.40 4.81825
691.50 4.733373
691.60 4.911226
691.70 4.854073
691.80 4.571125
691.90 4.077139
692.00 3.727614
692.10 3.748785
692.20 3.993618
692.30 4.452214
692.40 4.961847
692.50 4.894606
692.60 4.533862
692.70 4.79924
692.80 5.143217
692.90 5.217001
693.00 5.040883
693.10 4.95507
693.20 5.267037
693.30 5.549038
693.40 5.784254
693.50 5.829521
693.60 5.78317
693.70 5.875635
693.80 5.80662
693.90 5.62619
694.00 5.483408
694.10 5.534993
694.20 5.807934
694.30 6.108242
694.40 6.597015
694.50 7.048357
694.60 7.262295
694.70 7.619248
694.80 7.811795
694.90 7.633158
695.00 7.523622
695.10 7.393607
695.20 7.404218
695.30 7.272017
695.40 6.915382
695.50 6.653963
695.60 6.656143
695.70 6.913878
695.80 6.779744
695.90 6.501227
696.00 6.398303
696.10 6.539725
696.20 6.780095
696.30 6.853151
696.40 7.006156
696.50 7.257236
696.60 7.335331
696.70 7.290987
696.80 7.363374
696.90 7.450939
697.00 7.369205
697.10 7.172051
697.20 6.908477
697.30 6.939872
697.40 7.002662
697.50 6.905744
697.60 7.094627
697.70 7.613337
697.80 8.207506
697.90 8.454842
698.00 8.154283
698.10 7.763265
698.20 7.762004
698.30 8.090862
698.40 8.175217
698.50 7.937089
698.60 7.921334
698.70 8.176072
698.80 8.273958
698.90 8.099462
699.00 7.815911
699.10 7.767083
699.20 7.767794
699.30 7.595481
699.40 7.811952
699.50 8.182598
699.60 8.3153
699.70 8.269828
699.80 8.010166
699.90 7.720483
700.00 7.616683
700.10 7.805721
700.20 8.095181
700.30 8.280548
700.40 8.13318
700.50 7.788096
700.60 7.71692
700.70 8.047702
700.80 8.463081
700.90 8.652962
701.00 8.84755
701.10 9.009978
701.20 9.117069
701.30 9.042382
701.40 8.640451
701.50 8.649478
701.60 9.171667
701.70 9.506303
701.80 9.508968
701.90 9.411545
702.00 9.662039
702.10 10.13551
702.20 10.05853
702.30 9.651092
702.40 9.406485
702.50 9.154744
702.60 9.232545
702.70 9.426733
702.80 10.09283
702.90 10.97052
703.00 11.2144
703.10 11.2769
703.20 11.23916
703.30 11.12143
703.40 11.18294
703.50 11.42
703.60 11.88075
703.70 12.36859
703.80 12.64048
703.90 12.70577
704.00 12.5441
704.10 12.53548
704.20 12.60231
704.30 12.70984
704.40 12.9433
704.50 13.16542
704.60 13.37826
704.70 13.43108
704.80 13.3199
704.90 13.23272
705.00 13.32131
705.10 13.82327
705.20 14.08923
705.30 13.46796
705.40 11.99935
705.50 9.783033
705.60 7.339356
705.70 5.410087
705.80 4.434446
705.90 4.327256
706.00 4.470091
706.10 4.304842
706.20 4.112665
706.30 4.020624
706.40 4.003789
706.50 4.061656
706.60 4.280549
706.70 4.593736
706.80 4.8561
706.90 4.883582
707.00 4.880261
707.10 4.988425
707.20 5.147178
707.30 5.328131
707.40 5.285071
707.50 5.185207
707.60 5.120599
707.70 5.029115
707.80 5.086908
707.90 5.306387
708.00 5.38986
708.10 5.245698
708.20 5.382178
708.30 5.770008
708.40 5.992912
708.50 5.980976
708.60 5.859897
708.70 5.651006
708.80 5.305184
708.90 4.792591
709.00 4.069102
709.10 3.539685
709.20 3.478876
709.30 3.539809
709.40 3.494061
709.50 3.444062
709.60 3.427303
709.70 3.497753
709.80 3.644146
709.90 3.754915
710.00 3.722567
710.10 3.66579
710.20 3.713185
710.30 3.749056
710.40 3.881606
710.50 4.056873
710.60 4.157907
710.70 4.118118
710.80 4.092199
710.90 4.29645
711.00 4.584358
711.10 4.784132
711.20 4.758243
711.30 4.545073
711.40 4.467926
711.50 4.680837
711.60 4.831471
711.70 4.725109
711.80 4.715495
711.90 4.941812
712.00 5.30857
712.10 5.529498
712.20 5.451149
712.30 5.383963
712.40 5.281842
712.50 4.886903
712.60 4.375675
712.70 3.899795
712.80 3.51657
712.90 3.274407
713.00 3.127674
713.10 3.180857
713.20 3.297547
713.30 3.317351
713.40 3.286682
713.50 3.334905
713.60 3.474618
713.70 3.46277
713.80 3.160473
713.90 3.092536
714.00 3.293784
714.10 3.42394
714.20 3.577205
714.30 3.669852
714.40 3.6273
714.50 3.602643
714.60 3.654687
714.70 3.822219
714.80 4.070197
714.90 4.017738
715.00 3.754836
715.10 3.654874
715.20 3.761518
715.30 3.832707
715.40 3.9455
715.50 4.170158
715.60 4.460869
715.70 4.657799
715.80 4.504306
715.90 4.139493
716.00 4.086371
716.10 4.268261
716.20 4.103911
716.30 3.727834
716.40 3.520016
716.50 3.750302
716.60 4.245887
716.70 4.405023
716.80 4.234932
716.90 4.051678
717.00 4.053819
717.10 4.310045
717.20 4.394369
717.30 4.353691
717.40 4.264113
717.50 4.162447
717.60 4.263516
717.70 4.35364
717.80 4.529353
717.90 4.593513
718.00 4.705271
718.10 5.069919
718.20 5.185224
718.30 5.179431
718.40 5.146428
718.50 5.202943
718.60 5.380105
718.70 5.397433
718.80 5.405113
718.90 5.559361
719.00 5.76486
719.10 5.97409
719.20 6.02582
719.30 5.923928
719.40 5.852192
719.50 5.886596
719.60 5.881494
719.70 5.643945
719.80 5.410096
719.90 5.137909
720.00 4.783205
720.10 4.601932
720.20 4.780042
720.30 5.115783
720.40 5.162776
720.50 5.028958
720.60 4.971349
720.70 5.124634
720.80 5.195907
720.90 5.043854
721.00 4.912585
721.10 5.046693
721.20 5.305455
721.30 5.463662
721.40 5.621016
721.50 5.69736
721.60 5.65174
721.70 5.547768
721.80 5.540817
721.90 5.644555
722.00 5.622445
722.10 5.619214
722.20 5.74812
722.30 5.926436
722.40 6.153447
722.50 6.271974
722.60 6.349564
722.70 6.553795
722.80 6.801346
722.90 6.936208
723.00 6.814564
723.10 6.514818
723.20 6.465396
723.30 6.642257
723.40 6.698044
723.50 6.791795
723.60 6.907866
723.70 6.991219
723.80 7.199703
723.90 7.337302
724.00 7.364005
724.10 7.452636
724.20 7.186872
724.30 7.09409
724.40 7.419831
724.50 7.647723
724.60 7.804331
724.70 8.204518
724.80 8.69301
724.90 8.542034
725.00 8.411784
725.10 8.870391
725.20 9.360848
725.30 9.378508
725.40 9.080942
725.50 9.041847
725.60 9.330758
725.70 9.650235
725.80 9.766505
725.90 9.642226
726.00 9.500073
726.10 9.525309
726.20 9.847168
726.30 10.34092
726.40 10.69804
726.50 11.05911
726.60 11.30246
726.70 11.16961
726.80 11.09208
726.90 11.04225
727.00 10.74295
727.10 10.35154
727.20 9.864511
727.30 9.398659
727.40 9.250476
727.50 9.897865
727.60 11.1029
727.70 11.90021
727.80 11.53927
727.90 10.49421
728.00 10.68858
728.10 11.55402
728.20 11.50288
728.30 11.029
728.40 10.84949
728.50 11.25931
728.60 11.96614
728.70 11.98503
728.80 11.77952
728.90 12.23032
729.00 12.5565
729.10 12.52659
729.20 12.45984
729.30 12.56136
729.40 12.86606
729.50 13.244
729.60 13.6651
729.70 14.28697
729.80 14.68108
729.90 14.30012
730.00 13.88302
730.10 14.24468
730.20 14.82222
730.30 15.08161
730.40 15.46538
730.50 15.82439
730.60 15.65492
730.70 15.5606
730.80 16.01121
730.90 16.65938
731.00 16.95948
731.10 16.75004
731.20 16.43297
731.30 16.4023
731.40 16.68202
731.50 17.10591
731.60 17.53811
731.70 17.67068
731.80 17.49585
731.90 17.47926
732.00 18.26648
732.10 19.06196
732.20 19.04788
732.30 18.81207
732.40 18.76683
732.50 18.83614
732.60 18.76352
732.70 18.52086
732.80 18.76884
732.90 19.41581
733.00 19.46105
733.10 19.2522
733.20 19.20674
733.30 19.1662
733.40 19.06895
733.50 19.00602
733.60 19.52101
733.70 20.4625
733.80 21.13714
733.90 21.55267
734.00 21.57034
734.10 22.0413
734.20 22.77412
734.30 21.91221
734.40 20.90211
734.50 20.48258
734.60 19.73872
734.70 19.10839
734.80 18.87235
734.90 19.30334
735.00 20.06019
735.10 20.57025
735.20 20.91354
735.30 21.18921
735.40 21.23189
735.50 20.81671
735.60 20.14207
735.70 19.55212
735.80 19.68689
735.90 20.47942
736.00 21.01778
736.10 21.04078
736.20 20.98502
736.30 21.40254
736.40 22.21277
736.50 22.96208
736.60 23.30262
736.70 23.17949
736.80 23.44932
736.90 24.15586
737.00 24.61455
737.10 24.64184
737.20 24.34693
737.30 23.99856
737.40 23.4592
737.50 22.56616
737.60 21.75567
737.70 21.68214
737.80 22.15547
737.90 22.76664
738.00 23.05246
738.10 22.92035
738.20 22.8099
738.30 23.0346
738.40 23.3565
738.50 23.37857
738.60 23.26875
738.70 23.35751
738.80 23.78244
738.90 24.64089
739.00 25.43531
739.10 25.79477
739.20 25.62811
739.30 24.76171
739.40 23.49132
739.50 22.34814
739.60 21.60186
739.70 21.52169
739.80 22.10654
739.90 22.92928
740.00 23.51999
740.10 23.87782
740.20 24.28328
740.30 24.78955
740.40 24.68772
740.50 23.49202
740.60 21.83892
740.70 21.20034
740.80 21.4861
740.90 21.66953
741.00 22.1338
741.10 22.87503
741.20 23.32074
741.30 23.42117
741.40 23.53963
741.50 23.88241
741.60 24.10078
741.70 23.6749
741.80 22.53759
741.90 21.50154
742.00 20.82619
742.10 20.68214
742.20 21.15294
742.30 21.67209
742.40 22.11963
742.50 22.80013
742.60 23.32694
742.70 23.5618
742.80 23.62287
742.90 23.50731
743.00 23.7225
743.10 24.06076
743.20 24.01132
743.30 24.01482
743.40 23.97115
743.50 23.02151
743.60 21.59134
743.70 20.60038
743.80 20.65068
743.90 21.85748
744.00 23.10981
744.10 23.33692
744.20 22.82912
744.30 22.28958
744.40 21.85165
744.50 21.51472
744.60 21.19563
744.70 21.06752
744.80 20.96942
744.90 20.80588
745.00 21.04942
745.10 21.66358
745.20 22.43996
745.30 22.95693
745.40 22.87741
745.50 22.48558
745.60 22.16827
745.70 21.92417
745.80 21.69633
745.90 21.56623
746.00 21.52629
746.10 21.71832
746.20 22.07149
746.30 22.6177
746.40 23.17046
746.50 23.2942
746.60 23.25765
746.70 23.22883
746.80 23.10987
746.90 22.92357
747.00 22.94277
747.10 23.47669
747.20 24.12446
747.30 24.18879
747.40 23.2346
747.50 22.04531
747.60 21.79988
747.70 22.29273
747.80 22.94551
747.90 23.50803
748.00 23.6427
748.10 23.48776
748.20 23.60799
748.30 23.84537
748.40 24.33863
748.50 25.09854
748.60 25.13593
748.70 24.59292
748.80 24.14509
748.90 24.09237
749.00 24.34766
749.10 24.50109
749.20 24.46408
749.30 24.19456
749.40 23.65598
749.50 23.12061
749.60 22.93528
749.70 23.21559
749.80 23.88472
749.90 24.6852
750.00 25.47163
750.10 25.93352
750.20 25.9024
750.30 25.84654
750.40 25.92198
750.50 25.65789
750.60 24.95828
750.70 24.45198
750.80 24.52471
750.90 25.14206
751.00 26.09764
751.10 26.84247
751.20 27.12322
751.30 26.8716
751.40 26.26956
751.50 25.88468
751.60 25.73211
751.70 25.93939
751.80 26.27641
751.90 26.11757
752.00 25.76596
752.10 25.7128
752.20 25.56332
752.30 25.60801
752.40 26.2916
752.50 26.63455
752.60 26.83729
752.70 26.83344
752.80 25.77786
752.90 25.01501
753.00 25.15101
753.10 26.05858
753.20 27.31924
753.30 27.63682
753.40 27.09789
753.50 26.66932
753.60 26.44481
753.70 26.58646
753.80 27.41081
753.90 28.54717
754.00 29.63275
754.10 30.13556
754.20 29.89861
754.30 29.61855
754.40 29.67292
754.50 29.94113
754.60 30.11527
754.70 29.863
754.80 29.32972
754.90 28.81136
755.00 28.39754
755.10 28.41189
755.20 29.13876
755.30 29.83281
755.40 29.92495
755.50 29.62502
755.60 29.41523
755.70 29.50711
755.80 29.63833
755.90 29.97828
756.00 30.482
756.10 30.74721
756.20 30.69374
756.30 30.46973
756.40 30.26119
756.50 29.84338
756.60 29.36709
756.70 28.98462
756.80 28.42907
756.90 27.7838
757.00 27.37893
757.10 27.80242
757.20 29.37485
757.30 31.24943
757.40 31.9741
757.50 31.45166
757.60 30.93398
757.70 30.58679
757.80 29.75936
757.90 29.0009
758.00 29.13762
758.10 30.28626
758.20 31.92987
758.30 33.07126
758.40 33.35217
758.50 33.07336
758.60 32.31426
758.70 31.0942
758.80 28.94157
758.90 25.30098
759.00 21.07306
759.10 17.50369
759.20 15.04445
759.30 14.066
759.40 14.38314
759.50 15.24708
759.60 15.96744
759.70 16.02886
759.80 15.75115
759.90 16.25278
760.00 17.40177
760.10 17.57738
760.20 16.59073
760.30 15.71459
760.40 15.89207
760.50 16.88079
760.60 17.34521
760.70 17.05853
760.80 16.92743
760.90 17.11461
761.00 17.44245
761.10 17.65905
761.20 17.77548
761.30 18.11023
761.40 18.98775
761.50 20.05658
761.60 20.38446
761.70 20.36706
761.80 20.53249
761.90 20.69844
762.00 21.18326
762.10 21.34277
762.20 20.51511
762.30 19.87928
762.40 19.8673
762.50 19.79913
762.60 19.31321
762.70 17.95082
762.80 16.13046
762.90 14.4552
763.00 12.75571
763.10 11.49221
763.20 11.36328
763.30 11.83245
763.40 12.31507
763.50 12.48668
763.60 12.21882
763.70 12.11717
763.80 12.36803
763.90 12.4332
764.00 12.35639
764.10 12.05749
764.20 11.61544
764.30 11.64266
764.40 11.95457
764.50 12.17087
764.60 11.75831
764.70 10.93591
764.80 10.82004
764.90 11.16709
765.00 11.18531
765.10 10.8745
765.20 10.47175
765.30 10.43908
765.40 10.55668
765.50 9.93413
765.60 8.795999
765.70 8.165389
765.80 8.132527
765.90 8.113029
766.00 7.670216
766.10 6.945718
766.20 6.313569
766.30 5.663578
766.40 5.178465
766.50 4.90588
766.60 4.56437
766.70 4.435324
766.80 4.482936
766.90 4.558826
767.00 4.968709
767.10 5.58276
767.20 6.020688
767.30 6.127927
767.40 6.197436
767.50 6.397107
767.60 6.746484
767.70 7.197053
767.80 7.398428
767.90 7.47393
768.00 7.682259
768.10 7.849634
768.20 7.855286
768.30 7.880652
768.40 8.13601
768.50 8.489773
768.60 8.688967
768.70 8.650264
768.80 8.521534
768.90 8.417621
769.00 8.411458
769.10 8.533636
769.20 8.467013
769.30 8.231283
769.40 7.895739
769.50 7.346353
769.60 6.87056
769.70 6.375509
769.80 5.736901
769.90 5.084534
770.00 4.463656
770.10 4.276958
770.20 4.551313
770.30 4.999742
770.40 5.678164
770.50 6.366768
770.60 6.854981
770.70 7.236138
770.80 7.436172
770.90 7.779594
771.00 8.430285
771.10 8.847965
771.20 8.928956
771.30 9.050374
771.40 9.510981
771.50 9.956385
771.60 9.933931
771.70 10.13495
771.80 10.61203
771.90 10.41464
772.00 10.43228
772.10 11.03258
772.20 11.50369
772.30 11.883
772.40 11.91238
772.50 12.03668
772.60 12.47015
772.70 12.79169
772.80 12.9904
772.90 13.27648
773.00 13.55035
773.10 13.77716
773.20 14.05675
773.30 14.25675
773.40 14.51774
773.50 14.77895
773.60 14.77007
773.70 14.84018
773.80 15.30679
773.90 15.76178
774.00 15.92211
774.10 15.89138
774.20 15.81395
774.30 15.65228
774.40 15.03111
774.50 13.97843
774.60 13.12823
774.70 12.77747
774.80 12.55926
774.90 12.38012
775.00 11.97855
775.10 11.27793
775.20 10.9894
775.30 10.78216
775.40 10.7142
775.50 11.28907
775.60 11.83731
775.70 11.98231
775.80 12.01238
775.90 12.27418
776.00 12.51405
776.10 12.68399
776.20 12.91434
776.30 12.81337
776.40 12.50867
776.50 12.46327
776.60 12.60393
776.70 12.80601
776.80 13.32615
776.90 13.96508
777.00 14.2037
777.10 14.13195
777.20 14.08219
777.30 14.25971
777.40 14.70287
777.50 15.029
777.60 15.01227
777.70 14.93962
777.80 14.72509
777.90 14.6096
778.00 14.92729
778.10 15.21043
778.20 15.19684
778.30 14.75984
778.40 13.8741
778.50 13.20836
778.60 13.02992
778.70 13.01432
778.80 13.04148
778.90 13.10032
779.00 13.36804
779.10 13.91971
779.20 14.23673
779.30 14.16833
779.40 14.5484
779.50 15.32927
779.60 15.71858
779.70 15.68386
779.80 15.04792
779.90 13.95024
780.00 12.68647
780.10 11.53931
780.20 11.3817
780.30 12.37097
780.40 14.03395
780.50 15.98947
780.60 17.55622
780.70 18.43576
780.80 18.83542
780.90 18.73251
781.00 18.33474
781.10 18.00714
781.20 17.68273
781.30 17.76693
781.40 18.67951
781.50 19.65462
781.60 20.07558
781.70 20.1327
781.80 20.08152
781.90 20.14395
782.00 20.03037
782.10 19.44696
782.20 18.26281
782.30 16.72402
782.40 16.09964
782.50 16.68903
782.60 17.65241
782.70 18.19627
782.80 17.6594
782.90 16.50524
783.00 15.38547
783.10 14.65525
783.20 14.51989
783.30 14.9759
783.40 15.70375
783.50 16.24721
783.60 16.56387
783.70 16.71653
783.80 16.86892
783.90 17.16169
784.00 17.2822
784.10 17.30949
784.20 17.47205
784.30 17.40287
784.40 17.31441
784.50 17.59349
784.60 18.13593
784.70 18.76307
784.80 18.98295
784.90 18.70504
785.00 18.14645
785.10 17.56018
785.20 17.57011
785.30 18.17735
785.40 18.74067
785.50 18.86952
785.60 18.91524
785.70 19.02661
785.80 19.08711
785.90 19.37786
786.00 19.4279
786.10 19.026
786.20 18.92349
786.30 18.84832
786.40 18.23097
786.50 17.73261
786.60 17.59721
786.70 17.37074
786.80 17.25815
786.90 17.34002
787.00 17.68617
787.10 18.1102
787.20 17.95914
787.30 17.22348
787.40 16.62416
787.50 16.80329
787.60 17.52418
787.70 18.18735
787.80 18.83251
787.90 19.89185
788.00 20.63539
788.10 20.62354
788.20 20.34438
788.30 20.00498
788.40 20.33509
788.50 20.95068
788.60 21.14297
788.70 21.28563
788.80 21.28577
788.90 21.34128
789.00 21.58733
789.10 21.62606
789.20 21.55736
789.30 21.68368
789.40 22.10995
789.50 22.52208
789.60 22.35119
789.70 21.48432
789.80 20.48139
789.90 19.67336
790.00 18.8988
790.10 18.3067
790.20 18.15746
790.30 18.52085
790.40 19.45845
790.50 20.44201
790.60 21.01747
790.70 21.21611
790.80 20.78115
790.90 19.56165
791.00 18.22645
791.10 17.13392
791.20 16.1651
791.30 16.17063
791.40 17.24785
791.50 18.44364
791.60 19.14421
791.70 18.92716
791.80 18.27458
791.90 17.72162
792.00 17.14139
792.10 16.88656
792.20 17.4434
792.30 18.22698
792.40 18.32269
792.50 18.14762
792.60 18.44445
792.70 18.88555
792.80 19.13734
792.90 19.14042
793.00 19.01081
793.10 19.33566
793.20 20.22375
793.30 21.29822
793.40 22.11385
793.50 22.26834
793.60 22.13661
793.70 22.15866
793.80 22.33835
793.90 22.42054
794.00 21.6827
794.10 20.15493
794.20 18.7645
794.30 18.09511
794.40 18.43949
794.50 19.2604
794.60 19.51677
794.70 18.85418
794.80 17.48963
794.90 16.13104
795.00 15.9809
795.10 17.34761
795.20 19.09111
795.30 20.64368
795.40 21.9535
795.50 22.60898
795.60 22.82457
795.70 22.96655
795.80 23.01244
795.90 22.73024
796.00 22.12329
796.10 21.38808
796.20 20.44387
796.30 19.70236
796.40 19.84566
796.50 20.64521
796.60 21.54655
796.70 22.33749
796.80 22.73916
796.90 23.00895
797.00 23.61705
797.10 24.33265
797.20 24.94185
797.30 25.29011
797.40 24.89923
797.50 23.8013
797.60 22.62782
797.70 21.86855
797.80 21.45533
797.90 21.24401
798.00 21.28292
798.10 21.53465
798.20 21.82222
798.30 21.85248
798.40 21.47281
798.50 20.94035
798.60 20.50431
798.70 20.09558
798.80 19.70968
798.90 19.67751
799.00 20.26827
799.10 21.23168
799.20 22.25934
799.30 23.17365
799.40 23.41148
799.50 22.64601
799.60 21.74695
799.70 21.8011
799.80 22.3719
799.90 22.55709
800.00 22.51664
800.10 22.73279
800.20 23.19076
800.30 23.60125
800.40 23.97979
800.50 24.31531
800.60 24.48233
800.70 24.65611
800.80 25.07795
800.90 25.73901
801.00 26.15745
801.10 26.09189
801.20 25.9653
801.30 26.03771
801.40 26.29596
801.50 26.51603
801.60 26.60236
801.70 27.00426
801.80 27.72687
801.90 28.23033
802.00 28.47016
802.10 28.52699
802.20 28.36431
802.30 28.1655
802.40 28.18495
802.50 28.66015
802.60 29.58947
802.70 30.6009
802.80 30.97031
802.90 30.66301
803.00 30.73316
803.10 31.30164
803.20 31.66695
803.30 31.6955
803.40 31.5238
803.50 31.43624
803.60 31.5844
803.70 31.76057
803.80 31.84659
803.90 31.86717
804.00 31.65886
804.10 31.33969
804.20 31.40764
804.30 31.80864
804.40 32.42005
804.50 33.17075
804.60 33.42358
804.70 33.18567
804.80 32.95459
804.90 32.64012
805.00 32.895
805.10 34.24192
805.20 35.73193
805.30 37.00125
805.40 37.99665
805.50 38.22103
805.60 38.06925
805.70 37.99942
805.80 37.89917
805.90 37.89252
806.00 38.16756
806.10 38.72256
806.20 39.27289
806.30 39.30267
806.40 38.81407
806.50 38.45032
806.60 38.24482
806.70 38.42808
806.80 39.30439
806.90 39.82507
807.00 39.58068
807.10 39.2206
807.20 39.12318
807.30 39.68998
807.40 40.89249
807.50 41.97488
807.60 42.44474
807.70 42.63546
807.80 42.91947
807.90 43.41323
808.00 43.90527
808.10 44.09964
808.20 44.34298
808.30 44.84282
808.40 45.26942
808.50 45.71379
808.60 46.29089
808.70 46.4471
808.80 46.00112
808.90 45.36314
809.00 44.8587
809.10 44.91266
809.20 45.54408
809.30 46.36915
809.40 47.07323
809.50 47.2721
809.60 46.9831
809.70 46.40286
809.80 45.66654
809.90 45.26929
810.00 45.39196
810.10 45.65504
810.20 45.99342
810.30 46.32788
810.40 46.27018
810.50 45.96515
810.60 46.09482
810.70 46.94931
810.80 48.13194
810.90 49.15018
811.00 49.78648
811.10 49.91719
811.20 49.68773
811.30 49.69872
811.40 50.27681
811.50 50.82088
811.60 50.69907
811.70 49.99389
811.80 49.24829
811.90 49.42979
812.00 50.83192
812.10 52.44646
812.20 53.36972
812.30 53.50535
812.40 53.18483
812.50 52.94829
812.60 53.08389
812.70 53.52298
812.80 54.22393
812.90 54.96722
813.00 55.3244
813.10 55.16658
813.20 54.75189
813.30 54.64045
813.40 55.06863
813.50 55.66079
813.60 56.05693
813.70 56.13804
813.80 56.3166
813.90 57.21687
814.00 58.39461
814.10 58.51924
814.20 57.23147
814.30 55.47429
814.40 53.96681
814.50 53.12202
814.60 53.37997
814.70 54.20513
814.80 54.55338
814.90 54.28944
815.00 53.75475
815.10 53.44217
815.20 54.02084
815.30 55.28089
815.40 56.33972
815.50 56.44089
815.60 55.76104
815.70 55.32954
815.80 55.45029
815.90 55.69201
816.00 55.57812
816.10 55.0656
816.20 54.63711
816.30 54.71865
816.40 55.53674
816.50 56.7818
816.60 57.72763
816.70 57.99026
816.80 57.9974
816.90 58.60871
817.00 59.58428
817.10 60.15204
817.20 60.18926
817.30 59.82913
817.40 59.32746
817.50 58.72389
817.60 58.2954
817.70 58.03103
817.80 57.1063
817.90 55.66988
818.00 53.98477
818.10 51.29762
818.20 47.2123
818.30 41.38578
818.40 34.90976
818.50 31.30571
818.60 32.36928
818.70 36.91632
818.80 42.68664
818.90 47.19123
819.00 49.31096
819.10 49.6186
819.20 48.53047
819.30 45.64208
819.40 40.67652
819.50 34.4235
819.60 29.16636
819.70 27.23472
819.80 29.21962
819.90 33.3888
820.00 37.45129
820.10 40.93284
820.20 43.84913
820.30 46.3322
820.40 48.67073
820.50 49.90904
820.60 49.34221
820.70 47.38102
820.80 44.97507
820.90 43.812
821.00 44.63125
821.10 46.42718
821.20 48.29001
821.30 49.53266
821.40 49.6182
821.50 48.85496
821.60 48.03687
821.70 47.71602
821.80 47.97831
821.90 48.75641
822.00 49.7475
822.10 50.68044
822.20 51.64671
822.30 52.53352
822.40 53.18775
822.50 53.68516
822.60 54.10527
822.70 54.47433
822.80 54.65998
822.90 54.81417
823.00 55.42018
823.10 56.6216
823.20 57.89989
823.30 58.22075
823.40 57.167
823.50 55.55059
823.60 54.51092
823.70 54.64652
823.80 55.79108
823.90 57.32415
824.00 58.70984
824.10 59.74445
824.20 60.3509
824.30 60.23983
824.40 59.26395
824.50 58.09302
824.60 57.65894
824.70 58.45521
824.80 60.49211
824.90 62.46585
825.00 62.69794
825.10 61.25776
825.20 58.99304
825.30 56.5429
825.40 54.74316
825.50 53.79914
825.60 53.22048
825.70 52.75137
825.80 52.51954
825.90 52.84689
826.00 53.83117
826.10 55.29377
826.20 56.90421
826.30 58.15499
826.40 58.90523
826.50 59.28261
826.60 59.27723
826.70 59.42555
826.80 59.90391
826.90 59.93859
827.00 59.19789
827.10 57.6732
827.20 55.61925
827.30 53.72664
827.40 52.28311
827.50 51.50098
827.60 51.68542
827.70 52.53577
827.80 53.63237
827.90 54.55983
828.00 54.74275
828.10 54.26922
828.20 53.10396
828.30 51.37505
828.40 50.16049
828.50 49.64055
828.60 49.56695
828.70 50.07477
828.80 50.64553
828.90 50.29539
829.00 48.76662
829.10 46.81373
829.20 45.3034
829.30 45.005
829.40 45.86507
829.50 46.84129
829.60 47.39638
829.70 47.84864
829.80 48.55518
829.90 48.90543
830.00 47.29556
830.10 46.29283
830.20 45.2901
830.30 44.34008
830.40 43.39005
830.50 43.23718
830.60 43.0843
830.70 43.49583
830.80 43.90737
830.90 45.08241
831.00 46.25745
831.10 46.86518
831.20 47.47291
831.30 47.25699
831.40 47.04107
831.50 46.79677
831.60 46.55247
831.70 47.49351
831.80 48.43454
831.90 48.9436
832.00 49.45266
832.10 49.82963
832.20 50.2066
832.30 50.70279
832.40 51.19899
832.50 51.28486
832.60 51.37074
832.70 50.30291
832.80 49.23509
832.90 48.59629
833.00 47.95749
833.10 49.05968
833.20 50.16187
833.30 50.8366
833.40 51.51133
833.50 49.99522
833.60 48.47912
833.70 47.7385
833.80 46.99788
833.90 47.7034
834.00 48.40892
834.10 48.98269
834.20 49.55646
834.30 50.51945
834.40 51.48244
834.50 50.23084
834.60 48.97925
834.70 47.34583
834.80 45.7124
834.90 46.35741
835.00 47.00241
835.10 48.05788
835.20 49.11335
835.30 49.14667
835.40 49.17999
835.50 49.02685
835.60 48.87372
835.70 48.96943
835.80 49.06515
835.90 49.89654
836.00 50.72792
836.10 51.09731
836.20 51.4667
836.30 50.89978
836.40 50.33285
836.50 49.7826
836.60 49.23234
836.70 49.94192
836.80 50.65151
836.90 52.42875
837.00 54.206
837.10 54.60345
837.20 55.0009
837.30 53.26341
837.40 51.52591
837.50 49.5426
837.60 47.55928
837.70 47.09055
837.80 46.62181
837.90 47.60117
838.00 48.58053
838.10 49.52183
838.20 50.46312
838.30 50.09315
838.40 49.72319
838.50 49.09361
838.60 48.46402
838.70 46.9319
838.80 45.39978
838.90 43.91739
839.00 42.435
839.10 43.35672
839.20 44.27845
839.30 45.38308
839.40 46.48771
839.50 46.86692
839.60 47.24612
839.70 47.61509
839.80 47.98405
839.90 48.55151
840.00 49.11898
840.10 49.64758
840.20 50.87523
840.30 51.27285
840.40 51.28824
840.50 51.43648
840.60 51.82409
840.70 52.21061
840.80 52.48379
840.90 52.7571
841.00 53.44339
841.10 54.36282
841.20 54.3313
841.30 52.53352
841.40 50.89965
841.50 51.47738
841.60 52.03513
841.70 53.16757
841.80 54.70401
841.90 55.04131
842.00 53.31541
842.10 51.62145
842.20 50.004
842.30 48.35884
842.40 48.53271
842.50 49.22762
842.60 49.60206
842.70 49.62196
842.80 49.61143
842.90 49.19919
843.00 48.73966
843.10 49.03084
843.20 49.51843
843.30 48.29028
843.40 45.16979
843.50 41.98209
843.60 37.92013
843.70 33.7902
843.80 33.30836
843.90 33.479
844.00 34.986
844.10 38.02668
844.20 40.16951
844.30 37.37641
844.40 34.64486
844.50 32.03933
844.60 29.46431
844.70 28.39876
844.80 28.8054
844.90 29.34374
845.00 30.45966
845.10 31.6284
845.20 30.21922
845.30 28.43265
845.40 26.60414
845.50 24.85885
845.60 23.58733
845.70 23.80164
845.80 23.99873
845.90 24.03751
846.00 24.06692
846.10 24.70917
846.20 25.78265
846.30 26.63197
846.40 26.9492
846.50 27.31605
846.60 26.27589
846.70 25.05
846.80 24.61875
846.90 24.95924
847.00 25.3962
847.10 25.52714
847.20 25.66944
847.30 25.63505
847.40 25.69784
847.50 25.62488
847.60 25.44618
847.70 25.76581
847.80 26.99881
847.90 28.20766
848.00 28.33016
848.10 28.44146
848.20 28.39291
848.30 28.27862
848.40 28.31524
848.50 28.55891
848.60 28.79606
848.70 29.08416
848.80 29.38951
848.90 29.84528
849.00 30.30644
849.10 30.83241
849.20 31.57276
849.30 32.26108
849.40 32.44123
849.50 32.62999
849.60 31.76804
849.70 30.69292
849.80 29.80605
849.90 28.99969
850.00 28.32766
850.10 29.07405
850.20 29.88693
850.30 30.87756
850.40 31.68725
850.50 31.50855
850.60 30.55639
850.70 29.62663
850.80 28.34354
850.90 26.99295
851.00 27.15371
851.10 27.6799
851.20 28.53106
851.30 29.7339
851.40 30.70342
851.50 30.46046
851.60 30.2004
851.70 29.05479
851.80 27.715
851.90 26.77037
852.00 26.34545
852.10 26.0239
852.20 25.91761
852.30 25.8041
852.40 26.6646
852.50 27.67864
852.60 28.88277
852.70 30.16234
852.80 31.16567
852.90 31.25366
853.00 31.35628
853.10 31.19677
853.20 31.06097
853.30 31.2755
853.40 31.74242
853.50 32.20499
853.60 32.39666
853.70 32.59219
853.80 32.66773
853.90 32.84211
854.00 32.87259
854.10 32.72326
854.20 32.72011
854.30 32.95388
854.40 33.17718
854.50 33.50253
854.60 33.85032
854.70 34.46826
854.80 35.0642
854.90 35.52388
855.00 35.92767
855.10 36.34338
855.20 36.93696
855.30 37.52583
855.40 37.7841
855.50 37.97365
855.60 38.28353
855.70 38.50999
855.80 38.5574
855.90 37.56171
856.00 36.64314
856.10 35.86724
856.20 35.03707
856.30 34.70094
856.40 35.02848
856.50 35.47199
856.60 36.78178
856.70 38.12783
856.80 38.73376
856.90 39.12205
857.00 38.9557
857.10 38.10382
857.20 37.24733
857.30 36.41608
857.40 35.58893
857.50 35.91455
857.60 36.52321
857.70 37.23369
857.80 37.90595
857.90 38.51894
858.00 38.96242
858.10 39.44355
858.20 38.74878
858.30 37.95729
858.40 37.71198
858.50 37.76877
858.60 37.93132
858.70 38.71072
858.80 39.50771
858.90 39.79606
859.00 39.99077
859.10 40.03171
859.20 39.91125
859.30 39.68114
859.40 39.19756
859.50 38.71862
859.60 39.57808
859.70 40.5535
859.80 41.27784
859.90 41.77263
860.00 42.01164
860.10 41.87149
860.20 41.72861
860.30 41.91312
860.40 42.18671
860.50 42.72496
860.60 42.99754
860.70 43.08034
860.80 43.36523
860.90 43.58855
861.00 43.13052
861.10 42.66121
861.20 42.41682
861.30 42.27672
861.40 41.86571
861.50 41.04952
861.60 40.25003
861.70 39.86339
861.80 39.53616
861.90 39.80347
862.00 40.10871
862.10 40.47152
862.20 41.07168
862.30 41.60296
862.40 41.83639
862.50 42.09927
862.60 40.99355
862.70 39.53798
862.80 38.84215
862.90 39.07977
863.00 39.2393
863.10 38.70304
863.20 38.09996
863.30 38.63347
863.40 39.41354
863.50 39.8625
863.60 39.92288
863.70 39.9764
863.80 40.12767
863.90 40.30066
864.00 40.37085
864.10 40.41006
864.20 40.33354
864.30 39.99078
864.40 39.96388
864.50 41.08652
864.60 42.30757
864.70 41.59274
864.80 40.62288
864.90 39.81646
865.00 39.35514
865.10 39.40876
865.20 40.12783
865.30 40.8288
865.40 41.43429
865.50 42.11884
865.60 42.98659
865.70 43.97424
865.80 44.57725
865.90 44.47592
866.00 44.32602
866.10 43.54395
866.20 42.76663
866.30 42.26552
866.40 41.78391
866.50 42.00459
866.60 43.14829
866.70 44.14236
866.80 44.38844
866.90 44.66627
867.00 44.6048
867.10 44.59585
867.20 44.47971
867.30 43.79045
867.40 43.21813
867.50 43.78565
867.60 44.49988
867.70 45.20655
867.80 45.93802
867.90 46.51749
868.00 46.70056
868.10 46.84684
868.20 46.60898
868.30 46.34949
868.40 45.66425
868.50 45.19969
868.60 45.45512
868.70 45.89532
868.80 45.98908
868.90 45.31166
869.00 44.69889
869.10 43.41674
869.20 41.88521
869.30 40.61573
869.40 39.5865
869.50 38.52724
869.60 37.62207
869.70 36.72234
869.80 37.50356
869.90 38.20578
870.00 38.45377
870.10 38.64018
870.20 39.04245
870.30 39.76985
870.40 40.48525
870.50 41.08435
870.60 41.63669
870.70 42.42803
870.80 43.40404
870.90 43.5792
871.00 42.15354
871.10 40.8208
871.20 40.55723
871.30 40.45799
871.40 40.53213
871.50 40.38206
871.60 40.13064
871.70 40.16256
871.80 40.18597
871.90 39.8913
872.00 39.51705
872.10 39.83569
872.20 40.30093
872.30 40.69907
872.40 40.92143
872.50 41.12255
872.60 41.39584
872.70 41.70073
872.80 43.64137
872.90 45.78
873.00 46.93162
873.10 47.34118
873.20 47.4462
873.30 46.24981
873.40 45.01152
873.50 44.2171
873.60 43.47366
873.70 43.42066
873.80 43.70193
873.90 43.85932
874.00 43.99673
874.10 44.155
874.20 45.22889
874.30 46.27875
874.40 47.88681
874.50 49.8743
874.60 51.3558
874.70 51.7284
874.80 52.06751
874.90 50.42186
875.00 48.70266
875.10 48.06042
875.20 47.9338
875.30 48.31197
875.40 49.65588
875.50 50.94548
875.60 51.20861
875.70 51.36322
875.80 51.30908
875.90 51.48472
876.00 52.183
876.10 53.34108
876.20 54.2639
876.30 53.655
876.40 53.0418
876.50 51.64619
876.60 50.10994
876.70 49.04538
876.80 48.62533
876.90 48.51759
877.00 49.8384
877.10 51.10154
877.20 53.16734
877.30 55.35395
877.40 57.35346
877.50 59.36566
877.60 61.18839
877.70 62.10039
877.80 62.96432
877.90 60.54887
878.00 57.96094
878.10 56.11939
878.20 54.70161
878.30 53.91894
878.40 55.08024
878.50 56.29611
878.60 57.56043
878.70 58.89249
878.80 59.16423
878.90 58.74564
879.00 58.64225
879.10 59.03536
879.20 59.39769
879.30 59.92166
879.40 60.47842
879.50 60.69088
879.60 60.86787
879.70 61.52574
879.80 62.96745
879.90 64.27963
880.00 64.18417
880.10 64.14975
880.20 61.16118
880.30 57.10305
880.40 54.15798
880.50 52.76055
880.60 51.67542
880.70 53.03231
880.80 54.44665
880.90 54.87555
881.00 54.91512
881.10 56.21995
881.20 59.42332
881.30 62.38885
881.40 64.43802
881.50 66.39874
881.60 67.5672
881.70 68.6385
881.80 69.58061
881.90 70.28964
882.00 70.6299
882.10 69.74583
882.20 68.86818
882.30 66.08299
882.40 63.19542
882.50 60.5197
882.60 57.85663
882.70 56.17029
882.80 57.55027
882.90 59.02547
883.00 61.07017
883.10 63.05241
883.20 65.06934
883.30 66.99477
883.40 68.28759
883.50 68.24899
883.60 68.22811
883.70 68.51273
883.80 68.825
883.90 69.56653
884.00 70.72897
884.10 71.69566
884.20 71.80736
884.30 71.78998
884.40 71.28073
884.50 70.91616
884.60 68.98958
884.70 66.45681
884.80 64.13938
884.90 61.96185
885.00 60.11753
885.10 60.69611
885.20 61.44996
885.30 65.8098
885.40 70.95125
885.50 74.28833
885.60 75.54093
885.70 75.86635
885.80 71.89619
885.90 67.85991
886.00 63.43238
886.10 59.11809
886.20 54.71659
886.30 50.15463
886.40 46.87618
886.50 47.70831
886.60 48.54856
886.70 51.80138
886.80 55.31411
886.90 55.50814
887.00 53.39145
887.10 50.62062
887.20 46.36143
887.30 42.137
887.40 41.48362
887.50 40.81613
887.60 41.503
887.70 42.97906
887.80 44.8517
887.90 47.47077
888.00 50.03699
888.10 51.60223
888.20 53.15207
888.30 52.45246
888.40 50.8479
888.50 49.4875
888.60 48.63031
888.70 47.87159
888.80 47.88766
888.90 47.75374
889.00 49.59157
889.10 52.33499
889.20 54.21219
889.30 54.66249
889.40 54.88098
889.50 53.89225
889.60 52.86681
889.70 51.20285
889.80 49.66278
889.90 49.28433
890.00 49.85848
890.10 50.98307
890.20 54.01034
890.30 57.04782
890.40 59.08803
890.50 61.21079
890.60 62.51782
890.70 63.03162
890.80 63.02343
890.90 61.29692
891.00 59.50321
891.10 58.10501
891.20 56.97437
891.30 56.49191
891.40 56.21822
891.50 56.69408
891.60 58.74429
891.70 60.7223
891.80 60.76861
891.90 60.86029
892.00 61.7694
892.10 62.88533
892.20 63.3672
892.30 62.88392
892.40 62.33669
892.50 61.07474
892.60 59.82643
892.70 59.47647
892.80 59.49687
892.90 59.74819
893.00 60.00586
893.10 60.59621
893.20 63.12979
893.30 65.74377
893.40 67.82688
893.50 69.76554
893.60 70.25532
893.70 69.32668
893.80 67.66253
893.90 63
894.00 58.26459
894.10 56.36778
894.20 54.81276
894.30 54.63834
894.40 55.53493
894.50 55.99688
894.60 55.23833
894.70 54.42515
894.80 56.41144
894.90 58.56823
895.00 59.53804
895.10 59.7766
895.20 59.6856
895.30 58.81976
895.40 58.01789
895.50 58.25984
895.60 58.53933
895.70 60.00669
895.80 62.00887
895.90 63.48859
896.00 64.04992
896.10 64.49728
896.20 63.8101
896.30 63.11779
896.40 63.00151
896.50 62.85032
896.60 62.28743
896.70 61.48547
896.80 60.77572
896.90 60.45578
897.00 60.16628
897.10 61.61849
897.20 63.30071
897.30 64.20301
897.40 64.58486
897.50 65.23466
897.60 66.81618
897.70 68.36265
897.80 69.54704
897.90 70.58701
898.00 70.07147
898.10 68.71886
898.20 67.55766
898.30 66.66522
898.40 65.65653
898.50 68.28733
898.60 71.23658
898.70 73.53106
898.80 75.20863
898.90 75.71894
899.00 73.7848
899.10 71.88155
899.20 70.98041
899.30 70.25359
899.40 70.02909
899.50 70.01912
899.60 69.86728
899.70 69.17007
899.80 68.40196
899.90 67.44945
900.00 66.62163
900.10 66.19402
900.20 65.89743
900.30 67.02417
900.40 70.01131
900.50 72.99387
900.60 75.7406
900.70 78.51577
900.80 78.15124
900.90 76.83887
901.00 75.20754
901.10 73.69455
901.20 72.78483
901.30 73.89674
901.40 74.93727
901.50 75.07577
901.60 75.22533
901.70 74.71404
901.80 73.62153
901.90 72.55171
902.00 71.3378
902.10 70.10622
902.20 68.91702
902.30 67.81355
902.40 66.72099
902.50 65.71683
902.60 64.92169
902.70 64.37677
902.80 63.82182
902.90 64.02832
903.00 64.2938
903.10 65.3193
903.20 66.52834
903.30 67.89124
903.40 69.60353
903.50 71.2785
903.60 72.78792
903.70 74.32339
903.80 75.70081
903.90 76.95585
904.00 77.80213
904.10 77.97338
904.20 77.96264
904.30 76.96178
904.40 76.05302
904.50 75.50263
904.60 74.97242
904.70 75.62313
904.80 77.35484
904.90 79.01559
905.00 80.36685
905.10 81.73547
905.20 79.45562
905.30 76.71202
905.40 74.93792
905.50 73.82978
905.60 72.82216
905.70 72.31412
905.80 71.86022
905.90 71.86202
906.00 71.82964
906.10 72.15547
906.20 72.66877
906.30 73.39788
906.40 74.49696
906.50 75.4468
906.60 74.03092
906.70 72.70657
906.80 71.57835
906.90 70.35001
907.00 69.55248
907.10 69.60686
907.20 69.82575
907.30 71.14733
907.40 72.35327
907.50 72.75509
907.60 73.02676
907.70 73.56061
907.80 74.72949
907.90 76.18657
908.00 78.70841
908.10 81.11224
908.20 81.38389
908.30 81.40909
908.40 80.44254
908.50 78.63359
908.60 77.29884
908.70 77.45727
908.80 77.6137
908.90 77.42229
909.00 77.45544
909.10 77.54965
909.20 77.4079
909.30 77.69447
909.40 78.95723
909.50 80.22672
909.60 81.20236
909.70 82.1869
909.80 82.65684
909.90 83.00677
910.00 83.51877
910.10 84.03118
910.20 84.45287
910.30 83.8396
910.40 83.25498
910.50 82.30635
910.60 81.34144
910.70 80.38463
910.80 79.01844
910.90 78.06247
911.00 79.98045
911.10 82.05075
911.20 83.87805
911.30 85.62172
911.40 86.73301
911.50 87.02765
911.60 86.97349
911.70 85.71875
911.80 84.54169
911.90 84.25113
912.00 83.91331
912.10 84.29811
912.20 85.17615
912.30 85.68188
912.40 85.34953
912.50 85.04237
912.60 84.56118
912.70 84.06549
912.80 83.84596
912.90 83.72048
913.00 83.85632
913.10 84.77343
913.20 85.78204
913.30 87.30921
913.40 88.73103
913.50 89.70954
913.60 90.70774
913.70 90.78466
913.80 89.19619
913.90 87.48885
914.00 84.66879
914.10 81.72868
914.20 80.35382
914.30 79.60795
914.40 80.25295
914.50 82.65194
914.60 84.94331
914.70 86.69524
914.80 88.42555
914.90 87.30178
915.00 85.62966
915.10 84.21368
915.20 83.18474
915.30 82.95163
915.40 85.14274
915.50 87.28583
915.60 91.01071
915.70 95.10189
915.80 96.86566
915.90 96.61667
916.00 95.91615
916.10 94.17044
916.20 92.43284
916.30 90.22576
916.40 88.08927
916.50 88.16755
916.60 89.22093
916.70 90.47862
916.80 92.24255
916.90 93.9433
917.00 94.15238
917.10 94.21113
917.20 93.74021
917.30 93.26545
917.40 92.4478
917.50 91.08012
917.60 89.91045
917.70 89.89208
917.80 89.88936
917.90 90.25123
918.00 90.71295
918.10 91.47207
918.20 92.3739
918.30 93.07787
918.40 93.05811
918.50 93.04509
918.60 91.69774
918.70 90.17228
918.80 90.74345
918.90 93.35419
919.00 96.45032
919.10 100.31
919.20 104.1297
919.30 102.32
919.40 100.312
919.50 97.38211
919.60 94.25451
919.70 92.7604
919.80 94.45398
919.90 96.14456
920.00 97.63376
920.10 99.01854
920.20 98.54672
920.30 97.51983
920.40 97.00923
920.50 97.0434
920.60 96.95825
920.70 95.62636
920.80 94.24557
920.90 90.35202
921.00 85.96664
921.10 83.51563
921.20 82.93137
921.30 82.63281
921.40 84.34817
921.50 86.22535
921.60 86.99782
921.70 87.43992
921.80 87.81941
921.90 88.04496
922.00 88.00508
922.10 86.82702
922.20 85.58125
922.30 84.77998
922.40 84.10948
922.50 83.3798
922.60 82.53863
922.70 82.17584
922.80 82.88127
922.90 83.5491
923.00 83.6476
923.10 83.87499
923.20 82.15262
923.30 79.55336
923.40 78.02287
923.50 77.74404
923.60 77.51593
923.70 78.57319
923.80 79.80312
923.90 80.09801
924.00 80.10111
924.10 80.67837
924.20 82.00128
924.30 83.37669
924.40 85.3011
924.50 87.22674
924.60 86.21077
924.70 84.6011
924.80 82.76974
924.90 81.03114
925.00 79.75005
925.10 79.78336
925.20 79.77134
925.30 79.59843
925.40 79.46475
925.50 80.07438
925.60 81.11976
925.70 82.67523
925.80 85.62889
925.90 88.57296
926.00 88.28966
926.10 87.97259
926.20 86.85734
926.30 85.22296
926.40 84.28324
926.50 84.68149
926.60 85.24371
926.70 87.90499
926.80 90.53836
926.90 91.18806
927.00 91.28394
927.10 90.89655
927.20 89.90867
927.30 88.81189
927.40 87.04338
927.50 85.27527
927.60 83.28269
927.70 81.13105
927.80 78.93372
927.90 76.86788
928.00 75.58243
928.10 77.07556
928.20 78.59734
928.30 79.94001
928.40 81.16841
928.50 82.79668
928.60 84.7031
928.70 85.54416
928.80 83.86253
928.90 82.19291
929.00 81.89938
929.10 81.59832
929.20 80.81187
929.30 79.85383
929.40 79.41312
929.50 79.96881
929.60 80.54812
929.70 81.21556
929.80 81.81205
929.90 80.4494
930.00 78.41046
930.10 76.50241
930.20 75.23182
930.30 74.29968
930.40 75.31112
930.50 76.26362
930.60 76.27485
930.70 76.02545
930.80 76.07102
930.90 76.49335
931.00 77.13854
931.10 78.75018
931.20 80.33829
931.30 81.95536
931.40 83.62059
931.50 83.96303
931.60 83.25709
931.70 82.41161
931.80 81.36885
931.90 80.47216
932.00 79.54926
932.10 79.54129
932.20 79.66185
932.30 80.1404
932.40 80.63663
932.50 81.17577
932.60 81.36296
932.70 81.01653
932.80 80.52566
932.90 80.54724
933.00 80.70625
933.10 80.81285
933.20 80.82335
933.30 80.83532
933.40 80.48849
933.50 79.90779
933.60 79.62957
933.70 80.36122
933.80 81.27834
933.90 81.79793
934.00 82.29598
934.10 83.06955
934.20 83.4721
934.30 82.3948
934.40 81.00728
934.50 80.83885
934.60 82.15521
934.70 83.46988
934.80 84.22993
934.90 84.91574
935.00 85.54571
935.10 84.00397
935.20 82.46196
935.30 81.43222
935.40 81.04994
935.50 80.66261
935.60 80.55452
935.70 80.553
935.80 80.5303
935.90 81.55754
936.00 82.62088
936.10 83.84339
936.20 85.45866
936.30 87.08167
936.40 87.4255
936.50 86.6477
936.60 85.85578
936.70 85.02129
936.80 84.2287
936.90 83.42636
937.00 82.07669
937.10 80.72722
937.20 79.63543
937.30 79.05762
937.40 78.46532
937.50 79.09852
937.60 80.1448
937.70 81.14176
937.80 81.53343
937.90 81.89888
938.00 82.13844
938.10 82.04871
938.20 81.96261
938.30 82.00741
938.40 82.18618
938.50 82.3555
938.60 82.79194
938.70 83.2508
938.80 83.70052
938.90 84.31389
939.00 84.92731
939.10 85.37034
939.20 85.58078
939.30 85.7963
939.40 85.82376
939.50 85.73075
939.60 85.64617
939.70 84.28269
939.80 82.81118
939.90 81.72708
940.00 82.14229
940.10 82.55343
940.20 82.95094
940.30 83.28933
940.40 83.63779
940.50 84.55941
940.60 85.66018
940.70 86.77852
940.80 88.20674
940.90 89.63563
941.00 90.54384
941.10 90.51296
941.20 90.49798
941.30 89.89597
941.40 88.94546
941.50 87.99152
941.60 86.53305
941.70 85.03186
941.80 83.82261
941.90 83.79206
942.00 83.76411
942.10 84.17067
942.20 85.05943
942.30 85.94747
942.40 86.40532
942.50 86.7017
942.60 86.92444
942.70 86.23008
942.80 85.53563
942.90 85.42794
943.00 86.63983
943.10 87.837
943.20 89.12915
943.30 90.40781
943.40 91.70836
943.50 91.91375
943.60 91.98284
943.70 91.75808
943.80 90.49266
943.90 89.22778
944.00 88.07864
944.10 86.95963
944.20 85.83315
944.30 85.22343
944.40 84.83345
944.50 84.50008
944.60 85.01799
944.70 85.53631
944.80 86.11539
944.90 86.7798
945.00 87.4426
945.10 87.83133
945.20 88.13984
945.30 88.46912
945.40 88.1449
945.50 87.70854
945.60 87.35605
945.70 87.4975
945.80 87.64231
945.90 87.54318
946.00 87.09251
946.10 86.62602
946.20 87.54731
946.30 88.94316
946.40 90.25847
946.50 90.19754
946.60 90.13448
946.70 90.27452
946.80 90.67595
946.90 91.07338
947.00 91.32605
947.10 91.55591
947.20 91.8054
947.30 92.06284
947.40 92.29412
947.50 92.57899
947.60 93.26498
947.70 93.95118
947.80 94.62497
947.90 95.18863
948.00 95.74698
948.10 95.98177
948.20 96.19974
948.30 96.45678
948.40 97.14236
948.50 97.82806
948.60 98.34968
948.70 98.34932
948.80 98.35479
948.90 98.48335
949.00 98.7735
949.10 99.05103
949.20 99.23777
949.30 99.40644
949.40 99.26541
949.50 97.58234
949.60 95.89953
949.70 95.50297
949.80 96.49388
949.90 97.4565
950.00 97.68331
950.10 97.73756
950.20 97.82991
950.30 98.43372
950.40 99.03621
950.50 99.23843
950.60 98.46408
950.70 97.68137
950.80 97.56258
950.90 97.89048
951.00 98.20933
951.10 98.3989
951.20 98.56485
951.30 98.45941
951.40 97.25983
951.50 96.06069
951.60 95.22277
951.70 94.74026
951.80 94.25866
951.90 94.00172
952.00 93.80702
952.10 93.62916
952.20 94.56664
952.30 95.50463
952.40 96.63514
952.50 98.28545
952.60 99.93756
952.70 100.9486
952.80 101.5388
952.90 102.1535
953.00 101.9612
953.10 101.6526
953.20 101.2766
953.30 100.6708
953.40 100.0652
953.50 99.06691
953.60 97.59296
953.70 96.11981
953.80 95.88876
953.90 96.08002
954.00 96.26384
954.10 95.94531
954.20 95.62806
954.30 95.44289
954.40 95.52577
954.50 95.61868
954.60 96.09597
954.70 96.81002
954.80 97.49773
954.90 97.62316
955.00 97.69468
955.10 97.79061
955.20 98.00171
955.30 98.21606
955.40 98.49179
955.50 98.84814
955.60 99.20033
955.70 100.0799
955.80 101.1351
955.90 102.1877
956.00 102.8588
956.10 103.5294
956.20 103.6736
956.30 102.6699
956.40 101.6753
956.50 100.8051
956.60 100.0785
956.70 99.33438
956.80 100.379
956.90 101.5763
957.00 102.733
957.10 103.5807
957.20 104.4253
957.30 104.3465
957.40 103.3582
957.50 102.3876
957.60 100.9894
957.70 99.49241
957.80 98.09786
957.90 97.72801
958.00 97.35891
958.10 97.26762
958.20 97.84198
958.30 98.42574
958.40 98.72797
958.50 98.86716
958.60 99.00463
958.70 97.89895
958.80 96.70219
958.90 95.3814
959.00 93.42826
959.10 91.46968
959.20 90.90391
959.30 91.75879
959.40 92.59558
959.50 93.23166
959.60 93.81509
959.70 94.23123
959.80 92.16774
959.90 90.10275
960.00 88.69198
960.10 88.32146
960.20 87.91132
960.30 89.42664
960.40 91.93584
960.50 94.39513
960.60 95.58136
960.70 96.7087
960.80 97.68384
960.90 97.98931
961.00 98.30316
961.10 98.3151
961.20 98.04875
961.30 97.78875
961.40 96.71652
961.50 95.49797
961.60 94.51427
961.70 95.1082
961.80 95.69772
961.90 96.79713
962.00 98.81844
962.10 100.8507
962.20 101.4821
962.30 101.4706
962.40 101.5033
962.50 101.4021
962.60 101.2944
962.70 101.2275
962.80 101.3887
962.90 101.5547
963.00 100.9528
963.10 99.81453
963.20 98.68663
963.30 97.67221
963.40 96.61554
963.50 95.42335
963.60 93.41955
963.70 91.42695
963.80 88.64599
963.90 84.6619
964.00 80.62391
964.10 80.87901
964.20 82.84444
964.30 84.677
964.40 87.98478
964.50 91.29096
964.60 93.66761
964.70 93.57889
964.80 93.50062
964.90 93.65323
965.00 93.92897
965.10 94.17373
965.20 94.0633
965.30 93.91985
965.40 93.87011
965.50 94.24129
965.60 94.61544
965.70 95.51774
965.80 97.0285
965.90 98.53772
966.00 99.79201
966.10 100.9618
966.20 102.0971
966.30 102.5019
966.40 102.9066
966.50 103.0611
966.60 102.6408
966.70 102.2305
966.80 101.912
966.90 101.6561
967.00 101.3725
967.10 101.0869
967.20 100.8029
967.30 100.426
967.40 99.47417
967.50 98.53506
967.60 96.89214
967.70 94.45266
967.80 91.94631
967.90 92.662
968.00 94.28485
968.10 95.86858
968.20 98.2467
968.30 100.6276
968.40 101.7908
968.50 100.6107
968.60 99.44051
968.70 98.05026
968.80 96.51832
968.90 95.01184
969.00 95.10873
969.10 95.30589
969.20 95.8646
969.30 97.91858
969.40 99.96666
969.50 101.4772
969.60 102.553
969.70 103.662
969.80 104.2165
969.90 104.6244
970.00 104.949
970.10 104.7997
970.20 104.6528
970.30 104.2489
970.40 103.3707
970.50 102.5338
970.60 100.2547
970.70 97.33096
970.80 94.3653
970.90 95.61835
971.00 96.95659
971.10 98.73838
971.20 102.0377
971.30 105.354
971.40 107.3743
971.50 108.4224
971.60 109.5007
971.70 110.0817
971.80 110.5544
971.90 110.8215
972.00 109.7855
972.10 108.7489
972.20 107.6292
972.30 106.4311
972.40 105.2117
972.50 104.7729
972.60 104.6076
972.70 104.4231
972.80 102.4612
972.90 100.4967
973.00 98.49633
973.10 96.29878
973.20 94.04751
973.30 94.55789
973.40 96.84998
973.50 99.14502
973.60 99.68875
973.70 100.085
973.80 100.5212
973.90 100.8315
974.00 101.1409
974.10 100.7664
974.20 99.70494
974.30 98.67783
974.40 96.90426
974.50 94.90471
974.60 93.09424
974.70 93.78916
974.80 94.47928
974.90 95.34429
975.00 96.66185
975.10 97.99991
975.20 99.0812
975.30 100.0165
975.40 100.947
975.50 101.3975
975.60 101.8406
975.70 102.3662
975.80 102.9602
975.90 103.5438
976.00 103.7681
976.10 103.7267
976.20 103.7156
976.30 103.4782
976.40 103.1871
976.50 103.0323
976.60 104.0859
976.70 105.1435
976.80 105.626
976.90 105.2757
977.00 104.9598
977.10 103.4181
977.20 101.3481
977.30 99.26048
977.40 100.4104
977.50 101.5649
977.60 102.7466
977.70 104.2081
977.80 105.6865
977.90 106.0986
978.00 105.7445
978.10 105.439
978.20 103.3954
978.30 101.1443
978.40 99.04498
978.50 97.2111
978.60 95.35205
978.70 94.51841
978.80 94.97841
978.90 95.41809
979.00 96.53258
979.10 97.85184
979.20 99.23045
979.30 102.3543
979.40 105.4805
979.50 107.8177
979.60 108.6756
979.70 109.5675
979.80 109.7919
979.90 109.642
980.00 109.4691
980.10 109.5912
980.20 109.7262
980.30 109.782
980.40 109.5635
980.50 109.3463
980.60 108.8606
980.70 108.1335
980.80 107.4064
980.90 107.4532
981.00 107.6564
981.10 107.9414
981.20 108.9708
981.30 110.0039
981.40 109.8023
981.50 107.8569
981.60 105.9238
981.70 104.9237
981.80 104.297
981.90 103.6139
982.00 104.3579
982.10 105.1018
982.20 105.5617
982.30 105.268
982.40 104.9708
982.50 105.1796
982.60 105.7376
982.70 106.2859
982.80 106.4439
982.90 106.5586
983.00 106.6121
983.10 106.2039
983.20 105.7924
983.30 105.5147
983.40 105.4048
983.50 105.2997
983.60 104.7794
983.70 104.1314
983.80 103.5789
983.90 104.2812
984.00 104.9809
984.10 105.6563
984.20 106.3633
984.30 107.0781
984.40 107.2205
984.50 107.0576
984.60 106.8945
984.70 107.5039
984.80 108.159
984.90 108.4654
985.00 107.7096
985.10 106.9647
985.20 106.0723
985.30 105.026
985.40 103.9548
985.50 104.7719
985.60 105.9532
985.70 107.087
985.80 108.0316
985.90 108.9807
986.00 109.4132
986.10 109.1208
986.20 108.8262
986.30 108.8284
986.40 108.9453
986.50 109.045
986.60 109.3319
986.70 109.6197
986.80 109.312
986.90 107.6102
987.00 105.9055
987.10 105.3036
987.20 105.4092
987.30 105.4582
987.40 107.7884
987.50 110.3477
987.60 112.4068
987.70 112.3397
987.80 112.2856
987.90 111.226
988.00 109.1109
988.10 106.9864
988.20 107.0219
988.30 107.6033
988.40 108.3002
988.50 110.6645
988.60 113.0309
988.70 114.3477
988.80 113.9898
988.90 113.6461
989.00 112.764
989.10 111.6175
989.20 110.477
989.30 108.9588
989.40 107.4313
989.50 105.2311
989.60 101.1518
989.70 97.10214
989.80 92.90585
989.90 88.54695
990.00 84.11074
990.10 82.566
990.20 81.46846
990.30 80.08948
990.40 77.29257
990.50 74.50396
990.60 71.40734
990.70 67.90082
990.80 64.36588
990.90 63.52724
991.00 63.55828
991.10 63.58916
991.20 64.65203
991.30 65.71926
991.40 65.80217
991.50 63.9307
991.60 62.05866
991.70 61.23544
991.80 60.98734
991.90 60.6647
992.00 63.37333
992.10 66.24983
992.20 68.34948
992.30 67.78847
992.40 67.25035
992.50 66.14095
992.60 64.48552
992.70 62.76153
992.80 64.71305
992.90 67.39977
993.00 70.11766
993.10 73.28378
993.20 76.4627
993.30 77.77266
993.40 76.4729
993.50 75.18556
993.60 75.10026
993.70 75.47605
993.80 75.87125
993.90 79.88935
994.00 83.90969
994.10 86.88799
994.20 87.55998
994.30 88.26573
994.40 88.03367
994.50 87.18157
994.60 86.3184
994.70 86.77899
994.80 87.36524
994.90 88.16557
995.00 89.99812
995.10 91.8332
995.20 93.4186
995.30 94.74433
995.40 96.07545
995.50 96.18607
995.60 95.99758
995.70 95.64169
995.80 93.197
995.90 90.74562
996.00 88.99838
996.10 88.34968
996.20 87.6736
996.30 89.08119
996.40 91.41514
996.50 93.70307
996.60 97.03929
996.70 100.3741
996.80 101.5653
996.90 97.33784
997.00 93.15511
997.10 88.42681
997.20 83.27971
997.30 78.06859
997.40 77.32386
997.50 77.12238
997.60 77.37787
997.70 80.11409
997.80 82.8483
997.90 85.19316
998.00 87.12483
998.10 89.06432
998.20 89.65299
998.30 89.86317
998.40 89.94284
998.50 87.53546
998.60 85.1238
998.70 83.61961
998.80 83.61517
998.90 83.58528
999.00 83.31585
999.10 82.95674
999.20 82.61455
999.30 82.54414
999.40 82.4813
999.50 82.56504
999.60 83.11352
999.70 83.68144
999.80 84.02438
999.90 84.20796
1000.00 84.33407
1000.10 87.4872
1000.20 90.99072
1000.30 94.21098
1000.40 96.20919
1000.50 98.22054
1000.60 99.06638
1000.70 98.6266
1000.80 98.22627
1000.90 95.73927
1001.00 92.7068
1001.10 89.80903
1001.20 88.44055
1001.30 87.06169
1001.40 87.05321
1001.50 89.31129
1001.60 91.55975
1001.70 94.09697
1001.80 96.78099
1001.90 99.52616
1002.00 98.4567
1002.10 97.33739
1002.20 96.44055
1002.30 96.05743
1002.40 95.64668
1002.50 96.33727
1002.60 97.7961
1002.70 99.27619
1002.80 98.42628
1002.90 97.31029
1003.00 96.39226
1003.10 96.016
1003.20 95.63579
1003.30 94.73747
1003.40 93.32739
1003.50 91.92809
1003.60 90.05711
1003.70 88.05132
1003.80 86.28908
1003.90 87.36043
1004.00 88.42362
1004.10 90.35818
1004.20 93.80094
1004.30 97.24369
1004.40 99.4308
1004.50 101.0142
1004.60 102.6665
1004.70 102.06
1004.80 101.4338
1004.90 99.92821
1005.00 96.13578
1005.10 92.35962
1005.20 88.15477
1005.30 83.6352
1005.40 79.08752
1005.50 77.29054
1005.60 75.85091
1005.70 75.0806
1005.80 77.48264
1005.90 79.87566
1006.00 82.34428
1006.10 84.9275
1006.20 87.53965
1006.30 87.34295
1006.40 86.37773
1006.50 85.61674
1006.60 87.21185
1006.70 88.80132
1006.80 91.19272
1006.90 94.9099
1007.00 98.65185
1007.10 99.0126
1007.20 97.83354
1007.30 96.70618
1007.40 96.36441
1007.50 96.03858
1007.60 96.46826
1007.70 98.93857
1007.80 101.4097
1007.90 102.6779
1008.00 103.1079
1008.10 103.5645
1008.20 103.7515
1008.30 103.8999
1008.40 104.2116
1008.50 105.2833
1008.60 106.3519
1008.70 106.2722
1008.80 104.9667
1008.90 103.7087
1009.00 101.0662
1009.10 98.07159
1009.20 95.24476
1009.30 94.31708
1009.40 93.38176
1009.50 93.77363
1009.60 96.37683
1009.70 98.97476
1009.80 102.2192
1009.90 105.7488
1010.00 109.2743
1010.10 112.5265
1010.20 115.7653
1010.30 117.8382
1010.40 116.9877
1010.50 116.1647
1010.60 114.807
1010.70 113.064
1010.80 111.3286
1010.90 109.319
1011.00 107.254
1011.10 105.0485
1011.20 102.2726
1011.30 99.48795
1011.40 97.67715
1011.50 96.88943
1011.60 96.09579
1011.70 94.95222
1011.80 93.72324
1011.90 92.74513
1012.00 94.64226
1012.10 96.52824
1012.20 99.56885
1012.30 104.5588
1012.40 109.5769
1012.50 112.2546
1012.60 113.8344
1012.70 115.4824
1012.80 114.2221
1012.90 112.966
1013.00 112.0102
1013.10 111.8477
1013.20 111.6975
1013.30 110.2984
1013.40 107.9732
1013.50 105.7091
1013.60 100.5549
1013.70 95.0763
1013.80 90.46283
1013.90 89.68254
1014.00 88.87807
1014.10 89.82306
1014.20 92.69533
1014.30 95.54893
1014.40 97.84023
1014.50 99.9749
1014.60 101.803
1014.70 99.62377
1014.80 97.44394
1014.90 96.52717
1015.00 97.6301
1015.10 98.66434
1015.20 101.2912
1015.30 104.6248
1015.40 108.0457
1015.50 106.2184
1015.60 104.3418
1015.70 102.1792
1015.80 99.07947
1015.90 95.95226
1016.00 94.98616
1016.10 95.56881
1016.20 96.10271
1016.30 97.40207
1016.40 98.7911
1016.50 100.1453
1016.60 101.1959
1016.70 102.2384
1016.80 103.2194
1016.90 104.1319
1017.00 105.0939
1017.10 103.2665
1017.20 100.7113
1017.30 98.59282
1017.40 101.3615
1017.50 104.1227
1017.60 107.081
1017.70 110.4012
1017.80 113.7943
1017.90 112.0903
1018.00 108.0876
1018.10 104.1044
1018.20 102.203
1018.30 100.3108
1018.40 98.48555
1018.50 97.01164
1018.60 95.53468
1018.70 94.96252
1018.80 95.02679
1018.90 95.02418
1019.00 97.62423
1019.10 100.5434
1019.20 103.106
1019.30 103.9637
1019.40 104.839
1019.50 105.1156
1019.60 104.7619
1019.70 104.3925
1019.80 104.6766
1019.90 105.1296
1020.00 105.4998
1020.10 104.8285
1020.20 104.1509
1020.30 103.917
1020.40 104.3936
1020.50 104.8619
1020.60 105.7873
1020.70 106.938
1020.80 108.1002
1020.90 107.9023
1021.00 107.6762
1021.10 107.0115
1021.20 105.2733
1021.30 103.5604
1021.40 101.3117
1021.50 98.65752
1021.60 95.97965
1021.70 94.08443
1021.80 92.2763
1021.90 90.649
1022.00 89.83775
1022.10 89.01575
1022.20 89.59164
1022.30 91.26906
1022.40 92.87941
1022.50 95.98135
1022.60 99.23927
1022.70 102.0355
1022.80 102.3549
1022.90 102.6797
1023.00 102.2486
1023.10 100.9454
1023.20 99.65822
1023.30 99.12224
1023.40 98.88287
1023.50 98.84189
1023.60 101.3511
1023.70 103.8665
1023.80 105.7513
1023.90 106.6813
1024.00 107.6283
1024.10 109.1299
1024.20 110.8538
1024.30 112.5592
1024.40 111.938
1024.50 111.2324
1024.60 110.1221
1024.70 107.7818
1024.80 105.4235
1024.90 103.8896
1025.00 102.9805
1025.10 102.0924
1025.20 99.70573
1025.30 97.1088
1025.40 95.11273
1025.50 96.11685
1025.60 97.10473
1025.70 97.74957
1025.80 97.95895
1025.90 98.24543
1026.00 95.12106
1026.10 91.07219
1026.20 87.28214
1026.30 86.22001
1026.40 85.18225
1026.50 85.41281
1026.60 87.95908
1026.70 90.46566
1026.80 94.46002
1026.90 99.08664
1027.00 103.778
1027.10 104.5898
1027.20 105.3146
1027.30 105.332
1027.40 103.4535
1027.50 101.5794
1027.60 99.56852
1027.70 97.48926
1027.80 95.3733
1027.90 94.91806
1028.00 94.6448
1028.10 94.12955
1028.20 92.43416
1028.30 90.74139
1028.40 89.54382
1028.50 88.90891
1028.60 88.19146
1028.70 92.00701
1028.80 97.02368
1028.90 101.718
1029.00 103.2966
1029.10 104.9039
1029.20 105.0195
1029.30 102.6242
1029.40 100.219
1029.50 99.91314
1029.60 100.2154
1029.70 100.4078
1029.80 99.96377
1029.90 99.52667
1030.00 98.93179
1030.10 97.86412
1030.20 96.79249
1030.30 96.80212
1030.40 97.39845
1030.50 97.92976
1030.60 101.3045
1030.70 104.7488
1030.80 106.9855
1030.90 105.7356
1031.00 104.5017
1031.10 103.7845
1031.20 103.5176
1031.30 103.1983
1031.40 104.57
1031.50 106.1277
1031.60 107.0275
1031.70 104.631
1031.80 102.2431
1031.90 100.3093
1032.00 98.9141
1032.10 97.47633
1032.20 97.38507
1032.30 97.6579
1032.40 97.77997
1032.50 96.05551
1032.60 94.31651
1032.70 94.64034
1032.80 98.48532
1032.90 102.3027
1033.00 106.2856
1033.10 110.3271
1033.20 114.4127
1033.30 115.1623
1033.40 115.8013
1033.50 114.9983
1033.60 110.344
1033.70 105.7081
1033.80 101.9071
1033.90 98.72308
1034.00 95.46895
1034.10 95.93702
1034.20 96.9323
1034.30 97.60552
1034.40 96.72765
1034.50 95.84968
1034.60 95.69116
1034.70 96.36489
1034.80 96.96818
1034.90 98.54008
1035.00 100.2678
1035.10 101.4175
1035.20 99.98974
1035.30 98.56448
1035.40 98.3821
1035.50 99.50572
1035.60 100.6264
1035.70 101.8053
1035.80 103.0301
1035.90 104.3573
1036.00 106.7808
1036.10 109.2085
1036.20 111.1337
1036.30 112.283
1036.40 113.4587
1036.50 113.5972
1036.60 113.2072
1036.70 112.812
1036.80 113.3531
1036.90 113.949
1037.00 115.0189
1037.10 117.372
1037.20 119.7236
1037.30 121.4108
1037.40 122.5665
1037.50 123.7654
1037.60 121.3672
1037.70 118.4365
1037.80 115.1669
1037.90 110.2004
1038.00 105.2291
1038.10 101.4234
1038.20 99.01021
1038.30 96.51674
1038.40 98.22508
1038.50 101.1336
1038.60 104.0067
1038.70 106.6852
1038.80 109.346
1038.90 110.5497
1039.00 109.2727
1039.10 108.0064
1039.20 106.9975
1039.30 106.1264
1039.40 105.2566
1039.50 104.2813
1039.60 103.3051
1039.70 102.7366
1039.80 103.2384
1039.90 103.7124
1040.00 104.8941
1040.10 106.5004
1040.20 108.0748
1040.30 110.2685
1040.40 112.3712
1040.50 114.047
1040.60 114.6646
1040.70 115.2889
1040.80 115.9206
1040.90 116.5155
1041.00 117.135
1041.10 114.669
1041.20 111.7661
1041.30 108.9189
1041.40 106.3194
1041.50 103.7017
1041.60 103.8188
1041.70 107.0446
1041.80 110.2137
1041.90 114.0663
1042.00 117.9984
1042.10 121.3911
1042.20 118.583
1042.30 115.7265
1042.40 112.87
1042.50 109.8855
1042.60 106.9124
1042.70 103.3747
1042.80 99.6017
1042.90 95.77451
1043.00 96.62941
1043.10 97.62269
1043.20 100.0313
1043.30 106.3323
1043.40 112.6522
1043.50 116.5863
1043.60 118.6546
1043.70 120.7997
1043.80 120.1579
1043.90 119.205
1044.00 118.4756
1044.10 118.7854
1044.20 119.0952
1044.30 119.02
1044.40 118.6013
1044.50 118.1961
1044.60 117.8405
1044.70 117.5328
1044.80 117.3426
1044.90 117.9214
1045.00 118.5097
1045.10 120.7291
1045.20 124.8106
1045.30 128.9047
1045.40 131.6528
1045.50 133.9145
1045.60 135.9341
1045.70 135.2179
1045.80 134.4298
1045.90 132.2254
1046.00 127.5628
1046.10 122.9006
1046.20 118.8269
1046.30 115.1476
1046.40 111.4335
1046.50 110.4047
1046.60 109.4058
1046.70 108.317
1046.80 106.8329
1046.90 105.3472
1047.00 103.8647
1047.10 102.4707
1047.20 101.0335
1047.30 101.9311
1047.40 103.1139
1047.50 104.236
1047.60 105.1887
1047.70 106.145
1047.80 106.2776
1047.90 105.4842
1048.00 104.7015
1048.10 104.6929
1048.20 104.9662
1048.30 105.6808
1048.40 108.3426
1048.50 111.0045
1048.60 112.5297
1048.70 112.7849
1048.80 113.0564
1048.90 112.9102
1049.00 112.6801
1049.10 112.547
1049.20 113.3299
1049.30 114.1201
1049.40 114.5237
1049.50 114.2537
1049.60 114.0273
1049.70 111.7032
1049.80 108.3596
1049.90 104.9312
1050.00 105.8712
1050.10 106.9061
1050.20 108.0217
1050.30 109.5546
1050.40 111.1195
1050.50 111.4951
1050.60 110.9438
1050.70 110.4009
1050.80 109.8731
1050.90 109.363
1051.00 108.7428
1051.10 107.6698
1051.20 106.6215
1051.30 104.8264
1051.40 102.1923
1051.50 99.52491
1051.60 99.56543
1051.70 100.3853
1051.80 101.055
1051.90 101.2315
1052.00 101.4043
1052.10 101.599
1052.20 101.8443
1052.30 102.0776
1052.40 103.5365
1052.50 105.3262
1052.60 107.162
1052.70 109.9008
1052.80 112.6457
1052.90 114.1163
1053.00 113.3286
1053.10 112.5762
1053.20 111.3077
1053.30 109.8493
1053.40 108.3435
1053.50 109.5606
1053.60 110.818
1053.70 111.6911
1053.80 111.5458
1053.90 111.4189
1054.00 110.6353
1054.10 109.3945
1054.20 108.1047
1054.30 109.1994
1054.40 110.5675
1054.50 111.242
1054.60 108.6946
1054.70 106.1617
1054.80 104.1791
1054.90 102.8538
1055.00 101.47
1055.10 103.6221
1055.20 106.7308
1055.30 109.3085
1055.40 109.3531
1055.50 109.3635
1055.60 108.1417
1055.70 105.5244
1055.80 102.9168
1055.90 101.1536
1056.00 99.71612
1056.10 98.32825
1056.20 97.5318
1056.30 96.71855
1056.40 96.3567
1056.50 96.85492
1056.60 97.34197
1056.70 98.31702
1056.80 99.53487
1056.90 100.7842
1057.00 100.6493
1057.10 100.4561
1057.20 100.7059
1057.30 102.2555
1057.40 103.7961
1057.50 105.0729
1057.60 106.166
1057.70 107.281
1057.80 107.0737
1057.90 106.6681
1058.00 106.3951
1058.10 106.7898
1058.20 107.1834
1058.30 107.1752
1058.40 106.6809
1058.50 106.2356
1058.60 104.5886
1058.70 102.8057
1058.80 101.2025
1058.90 100.5261
1059.00 99.84387
1059.10 99.47712
1059.20 99.53267
1059.30 99.58914
1059.40 100.5966
1059.50 101.8798
1059.60 103.1277
1059.70 104.3176
1059.80 105.5256
1059.90 105.9117
1060.00 104.7939
1060.10 103.6763
1060.20 103.0788
1060.30 102.6859
1060.40 102.2916
1060.50 101.0348
1060.60 99.73996
1060.70 98.44781
1060.80 97.41043
1060.90 96.36278
1061.00 96.38315
1061.10 97.16518
1061.20 97.90241
1061.30 99.97886
1061.40 102.2384
1061.50 104.2377
1061.60 105.2446
1061.70 106.2684
1061.80 106.2109
1061.90 105.3542
1062.00 104.4939
1062.10 103.2026
1062.20 101.9066
1062.30 101.0588
1062.40 102.1898
1062.50 103.324
1062.60 105.0515
1062.70 107.5205
1062.80 109.9857
1062.90 111.9273
1063.00 113.6525
1063.10 115.1493
1063.20 113.8833
1063.30 112.5858
1063.40 111.6092
1063.50 111.0941
1063.60 110.5532
1063.70 110.9931
1063.80 112.0033
1063.90 112.988
1064.00 114.218
1064.10 115.4122
1064.20 116.2347
1064.30 116.0823
1064.40 115.9393
1064.50 115.6173
1064.60 115.1399
1064.70 114.6604
1064.80 114.9453
1064.90 115.3006
1065.00 115.5928
1065.10 115.5587
1065.20 115.5388
1065.30 114.1271
1065.40 111.7378
1065.50 109.364
1065.60 107.6339
1065.70 105.9652
1065.80 104.545
1065.90 104.56
1066.00 104.6011
1066.10 104.1741
1066.20 103.1594
1066.30 102.1824
1066.40 100.6212
1066.50 98.92771
1066.60 97.41117
1066.70 98.34241
1066.80 99.30672
1066.90 99.77134
1067.00 99.46279
1067.10 99.15866
1067.20 99.76749
1067.30 100.805
1067.40 101.9857
1067.50 105.0102
1067.60 108.0417
1067.70 110.3746
1067.80 111.585
1067.90 112.8036
1068.00 113.5537
1068.10 114.0142
1068.20 114.4781
1068.30 117.5086
1068.40 120.594
1068.50 123.1574
1068.60 124.4241
1068.70 125.6988
1068.80 125.5322
1068.90 124.2858
1069.00 123.0496
1069.10 122.4614
1069.20 122.0233
1069.30 121.4329
1069.40 120.0178
1069.50 118.5875
1069.60 116.2502
1069.70 112.9624
1069.80 109.6495
1069.90 109.4936
1070.00 110.294
1070.10 110.8365
1070.20 110.1518
1070.30 109.4454
1070.40 109.3668
1070.50 109.9861
1070.60 110.5736
1070.70 112.5024
1070.80 114.7482
1070.90 116.6797
1071.00 115.4953
1071.10 114.2973
1071.20 113.5884
1071.30 113.753
1071.40 113.8878
1071.50 115.212
1071.60 117.0638
1071.70 118.9737
1071.80 118.4729
1071.90 117.9168
1072.00 117.5585
1072.10 117.661
1072.20 117.767
1072.30 116.7237
1072.40 114.7769
1072.50 112.8681
1072.60 111.9806
1072.70 111.3429
1072.80 111.5133
1072.90 113.8522
1073.00 116.1954
1073.10 117.4517
1073.20 117.7999
1073.30 118.1893
1073.40 116.0481
1073.50 113.6451
1073.60 111.7733
1073.70 112.2608
1073.80 112.754
1073.90 113.8368
1074.00 115.7453
1074.10 117.6556
1074.20 119.1671
1074.30 120.4448
1074.40 121.6075
1074.50 121.3788
1074.60 121.164
1074.70 121.2785
1074.80 121.7725
1074.90 122.2646
1075.00 121.4973
1075.10 120.1376
1075.20 118.8158
1075.30 116.8338
1075.40 114.8388
1075.50 113.6635
1075.60 114.2748
1075.70 114.8505
1075.80 116.8917
1075.90 119.535
1076.00 122.2053
1076.10 122.1012
1076.20 121.9287
1076.30 121.6737
1076.40 121.224
1076.50 120.7694
1076.60 120.4772
1076.70 120.3291
1076.80 120.1827
1076.90 120.9833
1077.00 121.882
1077.10 122.521
1077.20 121.9642
1077.30 121.3976
1077.40 120.545
1077.50 119.3766
1077.60 118.2306
1077.70 117.5207
1077.80 116.9797
1077.90 116.5432
1078.00 117.8371
1078.10 119.1536
1078.20 119.8363
1078.30 119.7881
1078.40 119.7527
1078.50 119.9954
1078.60 120.2351
1078.70 120.2607
1078.80 118.1903
1078.90 116.1159
1079.00 114.4361
1079.10 113.392
1079.20 112.3382
1079.30 111.2334
1079.40 110.08
1079.50 108.8944
1079.60 109.8272
1079.70 110.8591
1079.80 111.9917
1079.90 113.4141
1080.00 114.8383
1080.10 115.9049
1080.20 116.7111
1080.30 117.5281
1080.40 118.1064
1080.50 118.6249
1080.60 119.2296
1080.70 120.0402
1080.80 120.8525
1080.90 121.4199
1081.00 121.8749
1081.10 122.3357
1081.20 122.3522
1081.30 122.2497
1081.40 122.1921
1081.50 122.4534
1081.60 122.725
1081.70 123.686
1081.80 125.429
1081.90 127.1888
1082.00 126.9053
1082.10 125.9606
1082.20 124.9901
1082.30 123.5137
1082.40 122.0472
1082.50 120.7173
1082.60 119.66
1082.70 118.5903
1082.80 118.4515
1082.90 118.757
1083.00 119.1313
1083.10 120.5272
1083.20 122.0354
1083.30 123.667
1083.40 125.2217
1083.50 126.7895
1083.60 126.8644
1083.70 126.196
1083.80 125.5301
1083.90 125.2743
1084.00 125.0444
1084.10 124.8028
1084.20 124.4912
1084.30 124.1829
1084.40 123.7414
1084.50 123.1279
1084.60 122.5426
1084.70 120.8457
1084.80 119.0858
1084.90 117.8703
1085.00 119.4134
1085.10 120.9844
1085.20 121.8527
1085.30 121.5845
1085.40 121.3658
1085.50 120.6558
1085.60 120.2113
1085.70 120.181
1085.80 122.09
1085.90 124.0049
1086.00 126.0083
1086.10 128.0261
1086.20 130.0493
1086.30 130.8222
1086.40 131.2061
1086.50 131.4542
1086.60 130.0437
1086.70 128.6253
1086.80 127.7887
1086.90 127.8706
1087.00 127.919
1087.10 128.7118
1087.20 129.8615
1087.30 131.0525
1087.40 129.4463
1087.50 127.7405
1087.60 126.2544
1087.70 125.4771
1087.80 124.6598
1087.90 125.2047
1088.00 126.3339
1088.10 127.4992
1088.20 126.3217
1088.30 125.0999
1088.40 124.2922
1088.50 124.6979
1088.60 125.0875
1088.70 125.4109
1088.80 125.6541
1088.90 125.9425
1089.00 125.5511
1089.10 125.0696
1089.20 124.676
1089.30 124.5811
1089.40 124.4718
1089.50 124.2948
1089.60 124.252
1089.70 124.1826
1089.80 126.0216
1089.90 128.3825
1090.00 130.4931
1090.10 131.494
1090.20 132.4645
1090.30 132.9609
1090.40 132.9511
1090.50 132.9521
1090.60 132.0265
1090.70 130.7349
1090.80 129.3257
1090.90 126.7472
1091.00 124.1748
1091.10 122.2463
1091.20 121.4743
1091.30 120.6642
1091.40 121.3787
1091.50 122.8836
1091.60 124.3584
1091.70 126.5571
1091.80 128.7483
1091.90 130.4624
1092.00 130.585
1092.10 130.7226
1092.20 130.4334
1092.30 129.8421
1092.40 129.223
1092.50 129.0317
1092.60 128.8617
1092.70 128.828
1092.80 129.0848
1092.90 129.3431
1093.00 129.2496
1093.10 128.9684
1093.20 128.6897
1093.30 128.2298
1093.40 127.6929
1093.50 127.1859
1093.60 126.6277
1093.70 126.0524
1093.80 125.7412
1093.90 126.1208
1094.00 126.4567
1094.10 127.7665
1094.20 129.2381
1094.30 130.4476
1094.40 128.3437
1094.50 126.1442
1094.60 124.1029
1094.70 122.2844
1094.80 120.4301
1094.90 121.8927
1095.00 124.48
1095.10 127.0291
1095.20 129.5899
1095.30 132.1582
1095.40 134.0985
1095.50 134.7617
1095.60 135.4537
1095.70 134.8453
1095.80 133.6352
1095.90 132.4242
1096.00 133.1316
1096.10 133.8971
1096.20 134.5283
1096.30 134.824
1096.40 135.1207
1096.50 134.9453
1096.60 134.4062
1096.70 133.8963
1096.80 131.8483
1096.90 129.5331
1097.00 127.0417
1097.10 124.1242
1097.20 121.1969
1097.30 120.5019
1097.40 121.6156
1097.50 122.6924
1097.60 124.0579
1097.70 125.4926
1097.80 126.9987
1097.90 128.5902
1098.00 130.1652
1098.10 130.8372
1098.20 130.5926
1098.30 130.394
1098.40 129.4449
1098.50 128.1479
1098.60 126.8724
1098.70 126.3215
1098.80 125.8485
1098.90 125.6947
1099.00 126.0514
1099.10 126.402
1099.20 127.2334
1099.30 128.2378
1099.40 129.2329
1099.50 130.2188
1099.60 131.1466
1099.70 131.6512
1099.80 131.3926
1099.90 131.1304
1100.00 130.6568
1100.10 130.1449
1100.20 129.6427
1100.30 128.4761
1100.40 127.2621
1100.50 126.254
1100.60 125.843
1100.70 125.4088
1100.80 125.8341
1100.90 126.8635
1101.00 127.9029
1101.10 128.2941
1101.20 128.6567
1101.30 129.3937
1101.40 130.9702
1101.50 132.5441
1101.60 132.689
1101.70 131.7021
1101.80 130.7575
1101.90 128.5283
1102.00 126.1118
1102.10 123.8016
1102.20 122.0219
1102.30 120.2467
1102.40 119.3133
1102.50 119.5616
1102.60 119.7404
1102.70 122.3163
1102.80 125.4752
1102.90 128.4677
1103.00 129.276
1103.10 130.0015
1103.20 129.3008
1103.30 126.261
1103.40 123.2539
1103.50 119.9262
1103.60 116.6331
1103.70 113.6779
1103.80 114.7141
1103.90 115.8682
1104.00 117.3259
1104.10 119.0912
1104.20 120.857
1104.30 121.225
1104.40 121.0451
1104.50 120.8867
1104.60 121.731
1104.70 122.5618
1104.80 123.4015
1104.90 124.035
1105.00 124.6622
1105.10 123.4106
1105.20 120.8126
1105.30 118.2742
1105.40 115.4687
1105.50 112.621
1105.60 110.5904
1105.70 111.2614
1105.80 111.9854
1105.90 113.0859
1106.00 114.1931
1106.10 115.3297
1106.20 115.3287
1106.30 115.1982
1106.40 115.256
1106.50 116.2623
1106.60 117.2951
1106.70 117.5055
1106.80 116.6468
1106.90 115.8099
1107.00 114.3712
1107.10 112.846
1107.20 111.5393
1107.30 112.8073
1107.40 114.1209
1107.50 115.2173
1107.60 115.7672
1107.70 116.3528
1107.80 116.5851
1107.90 116.8187
1108.00 117.0869
1108.10 118.0698
1108.20 119.0934
1108.30 120.4638
1108.40 122.3174
1108.50 124.1777
1108.60 125.0435
1108.70 125.3428
1108.80 125.6822
1108.90 124.9488
1109.00 124.2346
1109.10 123.6479
1109.20 123.4657
1109.30 123.2555
1109.40 123.7836
1109.50 124.9027
1109.60 126.03
1109.70 127.0122
1109.80 127.9255
1109.90 128.3392
1110.00 127.328
1110.10 126.3147
1110.20 124.3376
1110.30 121.5286
1110.40 118.7179
1110.50 116.6661
1110.60 114.8248
1110.70 113.4561
1110.80 114.4945
1110.90 115.5576
1111.00 115.7186
1111.10 114.8338
1111.20 113.9612
1111.30 113.3234
1111.40 112.7678
1111.50 112.2634
1111.60 112.7112
1111.70 113.2024
1111.80 113.9618
1111.90 114.8881
1112.00 115.8364
1112.10 115.7604
1112.20 115.4023
1112.30 115.1115
1112.40 115.6986
1112.50 116.3225
1112.60 117.4233
1112.70 119.2732
1112.80 121.1156
1112.90 122.5812
1113.00 123.8453
1113.10 125.1468
1113.20 125.0748
1113.30 125.0016
1113.40 124.8214
1113.50 124.2796
1113.60 123.7692
1113.70 122.3651
1113.80 120.2236
1113.90 118.0218
1114.00 118.852
1114.10 119.8188
1114.20 120.9362
1114.30 122.6975
1114.40 124.449
1114.50 125.9866
1114.60 127.3461
1114.70 128.7758
1114.80 127.3605
1114.90 125.5017
1115.00 123.9586
1115.10 123.6393
1115.20 123.2999
1115.30 123.4863
1115.40 124.1937
1115.50 124.9284
1115.60 124.9772
1115.70 124.9548
1115.80 124.826
1115.90 123.7002
1116.00 122.56
1116.10 121.661
1116.20 120.873
1116.30 120.0772
1116.40 119.7185
1116.50 119.5102
1116.60 119.3975
1116.70 120.0821
1116.80 120.7737
1116.90 120.4487
1117.00 118.4666
1117.10 116.4897
1117.20 114.7239
1117.30 113.09
1117.40 111.4396
1117.50 111.6822
1117.60 111.9425
1117.70 112.1821
1117.80 112.7824
1117.90 113.3672
1118.00 114.4628
1118.10 115.8373
1118.20 117.2309
1118.30 119.5183
1118.40 121.8022
1118.50 123.6415
1118.60 124.5854
1118.70 125.5606
1118.80 124.9723
1118.90 123.0593
1119.00 122.113
1119.10 121.4891
1119.20 120.9199
1119.30 120.3099
1119.40 119.8014
1119.50 119.3092
1119.60 118.7843
1119.70 118.2994
1119.80 117.8156
1119.90 117.3085
1120.00 117.0445
1120.10 116.7796
1120.20 116.2627
1120.30 116.9871
1120.40 118.1542
1120.50 119.8092
1120.60 121.3443
1120.70 122.7152
1120.80 123.9902
1120.90 124.5875
1121.00 123.1434
1121.10 121.6209
1121.20 120.1064
1121.30 120.2183
1121.40 120.3313
1121.50 120.4685
1121.60 119.2572
1121.70 117.6986
1121.80 116.0921
1121.90 114.8646
1122.00 114.0503
1122.10 113.4323
1122.20 113.3417
1122.30 114.5836
1122.40 115.9542
1122.50 117.2834
1122.60 120.2179
1122.70 123.0207
1122.80 125.8708
1122.90 126.8872
1123.00 127.0389
1123.10 127.2025
1123.20 125.5454
1123.30 122.1169
1123.40 118.6853
1123.50 115.9684
1123.60 116.613
1123.70 117.2685
1123.80 118.1232
1123.90 119.9125
1124.00 121.6998
1124.10 123.4802
1124.20 124.5566
1124.30 125.3663
1124.40 126.1766
1124.50 126.8048
1124.60 127.4288
1124.70 128.0506
1124.80 127.8521
1124.90 124.5655
1125.00 121.2755
1125.10 118.0073
1125.20 118.9995
1125.30 120.4679
1125.40 121.916
1125.50 123.567
1125.60 125.2057
1125.70 126.8513
1125.80 127.4104
1125.90 126.351
1126.00 125.289
1126.10 124.3908
1126.20 124.3628
1126.30 124.3354
1126.40 124.3729
1126.50 124.9606
1126.60 125.5986
1126.70 126.2328
1126.80 126.1711
1126.90 125.8122
1127.00 125.4536
1127.10 125.0442
1127.20 124.7696
1127.30 124.4931
1127.40 124.1424
1127.50 123.379
1127.60 122.616
1127.70 121.8898
1127.80 122.1086
1127.90 122.429
1128.00 122.7666
1128.10 123.1438
1128.20 123.4251
1128.30 123.7034
1128.40 124.0295
1128.50 124.5217
1128.60 125.0143
1128.70 125.2937
1128.80 124.4914
1128.90 123.687
1129.00 122.9482
1129.10 122.4891
1129.20 122.0442
1129.30 121.5766
1129.40 121.6818
1129.50 122.2524
1129.60 122.8259
1129.70 123.8978
1129.80 125.5887
1129.90 127.2794
1130.00 128.6981
1130.10 127.7022
1130.20 126.6978
1130.30 125.6574
1130.40 124.0867
1130.50 122.4705
1130.60 120.8497
1130.70 119.9114
1130.80 119.3504
1130.90 118.7895
1131.00 118.7678
1131.10 119.7924
1131.20 120.8177
1131.30 121.7788
1131.40 122.5162
1131.50 123.2523
1131.60 124.0146
1131.70 124.7266
1131.80 125.4109
1131.90 126.0982
1132.00 126.0575
1132.10 125.6819
1132.20 125.3055
1132.30 125.0402
1132.40 125.0282
1132.50 125.0171
1132.60 125.0577
1132.70 124.9321
1132.80 124.8068
1132.90 124.656
1133.00 124.2208
1133.10 123.7258
1133.20 123.2335
1133.30 122.4771
1133.40 121.5985
1133.50 120.7203
1133.60 119.54
1133.70 117.767
1133.80 115.994
1133.90 114.3234
1134.00 112.972
1134.10 111.6202
1134.20 110.2544
1134.30 110.883
1134.40 112.0132
1134.50 113.1277
1134.60 114.102
1134.70 115.0982
1134.80 116.0981
1134.90 117.5644
1135.00 119.2942
1135.10 121.0179
1135.20 122.5391
1135.30 121.5661
1135.40 120.5908
1135.50 119.6399
1135.60 117.4692
1135.70 114.9795
1135.80 112.4797
1135.90 112.0251
1136.00 113.8408
1136.10 115.6591
1136.20 117.3118
1136.30 118.0175
1136.40 118.7182
1136.50 119.2645
1136.60 117.9232
1136.70 116.5811
1136.80 115.2451
1136.90 114.0677
1137.00 112.9329
1137.10 111.7917
1137.20 110.6237
1137.30 109.3165
1137.40 108.0076
1137.50 106.598
1137.60 105.3047
1137.70 104.0047
1137.80 102.6358
1137.90 97.59791
1138.00 92.5498
1138.10 87.54187
1138.20 83.18904
1138.30 78.99191
1138.40 74.75728
1138.50 75.3161
1138.60 79.82838
1138.70 84.35884
1138.80 88.94544
1138.90 93.78093
1139.00 98.60391
1139.10 103.2222
1139.20 104.3217
1139.30 105.41
1139.40 106.5045
1139.50 105.5514
1139.60 104.1055
1139.70 102.668
1139.80 100.9652
1139.90 99.11621
1140.00 97.26083
1140.10 94.61528
1140.20 89.11626
1140.30 83.60784
1140.40 78.23362
1140.50 73.74484
1140.60 69.28027
1140.70 64.8639
1140.80 66.86843
1140.90 71.43915
1141.00 75.997
1141.10 81.15481
1141.20 86.72564
1141.30 92.28863
1141.40 97.43151
1141.50 101.9947
1141.60 106.5508
1141.70 111.1284
1141.80 112.5474
1141.90 113.9606
1142.00 115.3546
1142.10 116.3502
1142.20 117.2188
1142.30 118.0961
1142.40 118.6589
1142.50 118.8768
1142.60 119.096
1142.70 119.326
1142.80 119.9039
1142.90 120.4812
1143.00 121.0729
1143.10 120.5378
1143.20 120.0011
1143.30 119.4607
1143.40 119.3024
1143.50 119.3159
1143.60 119.3292
1143.70 119.1672
1143.80 118.7638
1143.90 118.3573
1144.00 118.0811
1144.10 118.7524
1144.20 119.4281
1144.30 120.1168
1144.40 120.2616
1144.50 120.4066
1144.60 120.6044
1144.70 120.7385
1144.80 120.7707
1144.90 120.7966
1145.00 120.8906
1145.10 121.2126
1145.20 121.5341
1145.30 121.7442
1145.40 121.3295
1145.50 120.9144
1145.60 120.4857
1145.70 120.0903
1145.80 119.6953
1145.90 119.3488
1146.00 120.0034
1146.10 120.9871
1146.20 121.9739
1146.30 122.5099
1146.40 122.7789
1146.50 123.0481
1146.60 123.4133
1146.70 124.2506
1146.80 125.0845
1146.90 125.9511
1147.00 124.8931
1147.10 123.8332
1147.20 122.7527
1147.30 122.6919
1147.40 123.1157
1147.50 123.5396
1147.60 124.3034
1147.70 125.2844
1147.80 126.2656
1147.90 127.1239
1148.00 127.346
1148.10 127.5669
1148.20 127.6597
1148.30 126.4902
1148.40 125.3167
1148.50 124.1641
1148.60 124.2199
1148.70 124.7655
1148.80 125.3074
1148.90 126.4812
1149.00 128.0648
1149.10 129.6476
1149.20 130.5565
1149.30 129.1275
1149.40 127.6957
1149.50 126.1936
1149.60 126.295
1149.70 126.3995
1149.80 126.5041
1149.90 126.8574
1150.00 127.3094
1150.10 127.7672
1150.20 127.774
1150.30 127.1444
1150.40 126.5152
1150.50 126.0214
1150.60 126.4128
1150.70 126.8058
1150.80 127.2018
1150.90 127.8987
1151.00 128.5942
1151.10 129.2877
1151.20 129.4352
1151.30 129.3702
1151.40 129.3079
1151.50 128.8229
1151.60 127.8871
1151.70 126.9515
1151.80 126.1754
1151.90 126.2955
1152.00 126.4159
1152.10 126.4877
1152.20 124.9626
1152.30 123.4333
1152.40 121.9164
1152.50 120.9918
1152.60 120.3337
1152.70 119.665
1152.80 120.1649
1152.90 121.4535
1153.00 122.742
1153.10 123.5999
1153.20 123.2646
1153.30 122.929
1153.40 122.5591
1153.50 122.4416
1153.60 122.3265
1153.70 122.2299
1153.80 123.112
1153.90 124.3669
1154.00 125.6229
1154.10 126.7304
1154.20 127.7035
1154.30 128.6748
1154.40 129.1067
1154.50 128.0478
1154.60 126.9862
1154.70 125.9926
1154.80 124.8922
1154.90 123.7962
1155.00 122.7252
1155.10 123.0143
1155.20 123.6062
1155.30 124.2025
1155.40 124.7033
1155.50 125.1588
1155.60 125.6121
1155.70 126.2145
1155.80 127.2489
1155.90 128.2817
1156.00 129.2944
1156.10 128.627
1156.20 127.9598
1156.30 127.3178
1156.40 127.7625
1156.50 128.4584
1156.60 129.1514
1156.70 129.2133
1156.80 128.736
1156.90 128.2605
1157.00 127.669
1157.10 126.7494
1157.20 125.8321
1157.30 124.9007
1157.40 124.8828
1157.50 124.8651
1157.60 124.857
1157.70 125.0672
1157.80 125.3293
1157.90 125.5887
1158.00 126.039
1158.10 126.6301
1158.20 127.2209
1158.30 127.4727
1158.40 127.0682
1158.50 126.663
1158.60 126.2685
1158.70 125.651
1158.80 125.032
1158.90 124.3963
1159.00 123.5229
1159.10 122.6061
1159.20 121.6929
1159.30 120.2285
1159.40 118.1985
1159.50 116.1675
1159.60 114.7893
1159.70 114.7332
1159.80 114.6833
1159.90 114.639
1160.00 115.9101
1160.10 117.1819
1160.20 118.4645
1160.30 119.9016
1160.40 121.3657
1160.50 122.8424
1160.60 123.0534
1160.70 122.253
1160.80 121.4531
1160.90 120.5642
1161.00 119.2076
1161.10 117.8596
1161.20 116.9326
1161.30 119.4085
1161.40 121.892
1161.50 124.3058
1161.60 125.8643
1161.70 127.2486
1161.80 128.671
1161.90 128.363
1162.00 127.0318
1162.10 125.6976
1162.20 124.7242
1162.30 124.4013
1162.40 124.0806
1162.50 123.9316
1162.60 124.9385
1162.70 125.9467
1162.80 126.9631
1162.90 128.211
1163.00 129.5093
1163.10 130.8087
1163.20 131.2273
1163.30 131.1652
1163.40 131.1098
1163.50 130.2868
1163.60 127.9985
1163.70 125.7057
1163.80 123.569
1163.90 121.7054
1164.00 119.8467
1164.10 117.9841
1164.20 118.5095
1164.30 119.5977
1164.40 120.6648
1164.50 122.1832
1164.60 123.9876
1164.70 125.7994
1164.80 126.7761
1164.90 126.754
1165.00 126.7298
1165.10 126.6507
1165.20 125.6819
1165.30 124.7119
1165.40 123.7519
1165.50 122.8059
1165.60 121.8623
1165.70 120.9038
1165.80 121.3808
1165.90 122.7044
1166.00 124.0239
1166.10 125.326
1166.20 126.615
1166.30 127.9036
1166.40 129.006
1166.50 128.7556
1166.60 128.504
1166.70 128.2457
1166.80 127.6186
1166.90 126.9528
1167.00 126.294
1167.10 125.695
1167.20 125.1332
1167.30 124.5675
1167.40 123.8422
1167.50 122.99
1167.60 122.1381
1167.70 121.4143
1167.80 121.0338
1167.90 120.6544
1168.00 120.2367
1168.10 119.353
1168.20 118.4253
1168.30 117.488
1168.40 115.3717
1168.50 112.8377
1168.60 110.3134
1168.70 106.504
1168.80 100.9853
1168.90 95.45531
1169.00 89.76905
1169.10 82.76215
1169.20 75.76953
1169.30 68.90586
1169.40 71.02027
1169.50 74.09573
1169.60 77.09171
1169.70 83.10792
1169.80 90.32891
1169.90 97.56817
1170.00 103.4349
1170.10 107.4955
1170.20 111.5505
1170.30 115.1823
1170.40 117.1462
1170.50 119.1066
1170.60 121.0489
1170.70 121.7733
1170.80 122.3749
1170.90 122.9879
1171.00 123.0069
1171.10 122.7673
1171.20 122.5257
1171.30 122.6007
1171.40 123.0245
1171.50 123.4476
1171.60 123.6328
1171.70 122.9729
1171.80 122.3114
1171.90 121.656
1172.00 121.3042
1172.10 120.9539
1172.20 120.5981
1172.30 120.6997
1172.40 120.9624
1172.50 121.2224
1172.60 121.6031
1172.70 122.0672
1172.80 122.5326
1172.90 123.0396
1173.00 123.7299
1173.10 124.4193
1173.20 125.0702
1173.30 124.3825
1173.40 123.6918
1173.50 123.0121
1173.60 122.3265
1173.70 121.6379
1173.80 120.9368
1173.90 120.8008
1174.00 121.2429
1174.10 121.6847
1174.20 122.2769
1174.30 123.0811
1174.40 123.8859
1174.50 124.6763
1174.60 125.077
1174.70 125.475
1174.80 125.8574
1174.90 125.4445
1175.00 124.8528
1175.10 124.2701
1175.20 123.5891
1175.30 122.853
1175.40 122.1151
1175.50 121.7988
1175.60 122.1703
1175.70 122.5437
1175.80 122.6757
1175.90 121.3402
1176.00 120.0018
1176.10 118.6723
1176.20 116.8193
1176.30 114.8461
1176.40 112.8775
1176.50 110.716
1176.60 108.4677
1176.70 106.2312
1176.80 102.4638
1176.90 95.60173
1177.00 88.72814
1177.10 81.9344
1177.20 74.15156
1177.30 66.38042
1177.40 58.66625
1177.50 57.48843
1177.60 57.84161
1177.70 58.08125
1177.80 62.86608
1177.90 70.42738
1178.00 77.9908
1178.10 84.59581
1178.20 89.88627
1178.30 95.16585
1178.40 100.2096
1178.50 103.1741
1178.60 106.1357
1178.70 109.0968
1178.80 110.8369
1178.90 112.4504
1179.00 114.0792
1179.10 115.0823
1179.20 115.7582
1179.30 116.4378
1179.40 116.8394
1179.50 116.8342
1179.60 116.8283
1179.70 116.8739
1179.80 117.1303
1179.90 117.388
1180.00 117.6473
1180.10 118.4917
1180.20 119.4038
1180.30 120.3022
1180.40 120.9397
1180.50 121.4794
1180.60 122.0281
1180.70 122.0489
1180.80 121.3235
1180.90 120.5977
1181.00 119.8905
1181.10 119.2845
1181.20 118.6787
1181.30 118.0666
1181.40 117.5259
1181.50 116.9946
1181.60 116.4626
1181.70 116.5061
1181.80 116.7782
1181.90 117.0468
1182.00 117.6482
1182.10 118.4824
1182.20 119.3187
1182.30 119.8759
1182.40 119.5701
1182.50 119.2605
1182.60 118.9638
1182.70 117.7277
1182.80 116.4896
1182.90 115.2563
1183.00 114.9194
1183.10 114.9303
1183.20 114.9271
1183.30 115.0621
1183.40 115.4264
1183.50 115.7923
1183.60 115.8462
1183.70 114.7887
1183.80 113.7294
1183.90 112.7712
1184.00 113.595
1184.10 114.4241
1184.20 115.2292
1184.30 116.9367
1184.40 118.8482
1184.50 120.7842
1184.60 121.129
1184.70 120.1674
1184.80 119.2065
1184.90 118.2284
1185.00 117.1137
1185.10 116.0016
1185.20 114.9954
1185.30 115.3617
1185.40 115.7315
1185.50 116.0772
1185.60 116.8876
1185.70 117.8158
1185.80 118.7475
1185.90 119.1641
1186.00 119.3
1186.10 119.4383
1186.20 119.6888
1186.30 120.2406
1186.40 120.7917
1186.50 121.2405
1186.60 120.8085
1186.70 120.3747
1186.80 119.9486
1186.90 119.0331
1187.00 118.0087
1187.10 116.972
1187.20 116.8489
1187.30 117.244
1187.40 117.6329
1187.50 118.0695
1187.60 118.6836
1187.70 119.296
1187.80 119.7703
1187.90 119.0054
1188.00 118.2347
1188.10 117.457
1188.20 114.4108
1188.30 111.124
1188.40 107.8561
1188.50 105.4866
1188.60 103.5263
1188.70 101.5196
1188.80 101.8611
1188.90 105.5892
1189.00 109.3226
1189.10 112.5998
1189.20 114.5766
1189.30 116.5428
1189.40 118.543
1189.50 119.4126
1189.60 120.1643
1189.70 120.9066
1189.80 121.3092
1189.90 121.5377
1190.00 121.7702
1190.10 121.5693
1190.20 120.8013
1190.30 120.0348
1190.40 119.2339
1190.50 118.2872
1190.60 117.3399
1190.70 116.4495
1190.80 116.5161
1190.90 116.5873
1191.00 116.6356
1191.10 117.2988
1191.20 118.2463
1191.30 119.1955
1191.40 119.6855
1191.50 119.7381
1191.60 119.7909
1191.70 119.7779
1191.80 119.5442
1191.90 119.311
1192.00 119.0807
1192.10 119.4062
1192.20 119.7304
1192.30 120.0572
1192.40 119.6438
1192.50 119.058
1192.60 118.467
1192.70 118.2428
1192.80 118.3289
1192.90 118.4147
1193.00 118.6748
1193.10 119.2604
1193.20 119.8453
1193.30 120.2721
1193.40 119.8635
1193.50 119.4519
1193.60 119.0564
1193.70 117.4464
1193.80 115.5554
1193.90 113.6617
1194.00 112.5375
1194.10 111.8444
1194.20 111.1453
1194.30 110.7479
1194.40 111.0682
1194.50 111.3876
1194.60 111.5012
1194.70 110.0752
1194.80 108.6454
1194.90 107.2757
1195.00 106.2084
1195.10 105.1667
1195.20 104.0877
1195.30 105.0068
1195.40 107.1401
1195.50 109.2672
1195.60 110.8391
1195.70 111.8266
1195.80 112.8095
1195.90 113.5549
1196.00 112.2017
1196.10 110.8477
1196.20 109.5202
1196.30 108.8017
1196.40 108.1417
1196.50 107.4686
1196.60 107.2766
1196.70 107.2672
1196.80 107.2597
1196.90 107.0189
1197.00 106.4546
1197.10 105.8923
1197.20 104.7303
1197.30 101.3302
1197.40 97.92877
1197.50 94.59629
1197.60 93.44957
1197.70 92.32161
1197.80 91.11462
1197.90 92.37893
1198.00 94.58272
1198.10 96.78926
1198.20 98.46876
1198.30 99.6602
1198.40 100.85
1198.50 102.2174
1198.60 104.3075
1198.70 106.395
1198.80 108.4121
1198.90 107.1784
1199.00 105.9375
1199.10 104.7356
1199.20 103.1707
1199.30 101.493
1199.40 99.79715
1199.50 99.16913
1199.60 99.52465
1199.70 99.87644
1199.80 100.3995
1199.90 101.3205
1200.00 102.2401
