# Version 2.1 - nm, norm@500 to 1, cut digits
# Wavelength(nm)  Flambda(ergs/cm^s/s/nm)
300.00 0.006761573
300.10 0.008454356
300.20 0.009737411
300.30 0.01059253
300.40 0.01113819
300.50 0.0114939
300.60 0.01172468
300.70 0.01186735
300.80 0.01195785
300.90 0.0120254
301.00 0.01209164
301.10 0.01216571
301.20 0.01224686
301.30 0.01233332
301.40 0.01242324
301.50 0.01251531
301.60 0.0126087
301.70 0.01270286
301.80 0.01279743
301.90 0.01289215
302.00 0.0129869
302.10 0.01308166
302.20 0.01317644
302.30 0.01327134
302.40 0.01336654
302.50 0.01346233
302.60 0.01355913
302.70 0.01365755
302.80 0.01375861
302.90 0.0138637
303.00 0.01397416
303.10 0.01409056
303.20 0.01421233
303.30 0.01433814
303.40 0.01446657
303.50 0.01459664
303.60 0.01472771
303.70 0.01485937
303.80 0.01499133
303.90 0.01512341
304.00 0.01525551
304.10 0.01538762
304.20 0.01551964
304.30 0.0156513
304.40 0.01578205
304.50 0.01591098
304.60 0.01603684
304.70 0.01615773
304.80 0.01627056
304.90 0.01637107
305.00 0.01645514
305.10 0.01652104
305.20 0.01657051
305.30 0.01660765
305.40 0.01663673
305.50 0.01666084
305.60 0.01668188
305.70 0.01670111
305.80 0.01671942
305.90 0.01673737
306.00 0.01675524
306.10 0.01677311
306.20 0.01679098
306.30 0.01680884
306.40 0.01682671
306.50 0.01684459
306.60 0.01686247
306.70 0.01688036
306.80 0.01689827
306.90 0.0169162
307.00 0.01693418
307.10 0.01695219
307.20 0.01697023
307.30 0.01698831
307.40 0.0170064
307.50 0.0170245
307.60 0.01704261
307.70 0.01706072
307.80 0.01707883
307.90 0.01709695
308.00 0.01711506
308.10 0.01713318
308.20 0.0171515
308.30 0.01717073
308.40 0.01719226
308.50 0.01721832
308.60 0.01725206
308.70 0.01729824
308.80 0.01736459
308.90 0.01746179
309.00 0.01760012
309.10 0.01778393
309.20 0.01800887
309.30 0.01826466
309.40 0.01854062
309.50 0.01882902
309.60 0.0191251
309.70 0.01942572
309.80 0.01972863
309.90 0.02003245
310.00 0.02033648
310.10 0.0206405
310.20 0.02094432
310.30 0.02124722
310.40 0.02154782
310.50 0.02184386
310.60 0.02213218
310.70 0.02240799
310.80 0.02266353
310.90 0.02288805
311.00 0.02307123
311.10 0.02320869
311.20 0.0233048
311.30 0.0233699
311.40 0.02341472
311.50 0.02344704
311.60 0.02347163
311.70 0.02349167
311.80 0.0235094
311.90 0.02352622
312.00 0.02354283
312.10 0.02355944
312.20 0.0235763
312.30 0.0235943
312.40 0.02361514
312.50 0.02364161
312.60 0.02367762
312.70 0.02372907
312.80 0.02380557
312.90 0.02392037
313.00 0.02408623
313.10 0.02430856
313.20 0.02458195
313.30 0.02489365
313.40 0.02523039
313.50 0.02558258
313.60 0.0259443
313.70 0.02631165
313.80 0.02668185
313.90 0.02705318
314.00 0.02742476
314.10 0.02779635
314.20 0.02816811
314.30 0.02854066
314.40 0.02891519
314.50 0.02929364
314.60 0.02967873
314.70 0.03007457
314.80 0.03048784
314.90 0.03092778
315.00 0.03140326
315.10 0.03191805
315.20 0.03246838
315.30 0.03304537
315.40 0.0336398
315.50 0.03424498
315.60 0.03485679
315.70 0.03547253
315.80 0.03609025
315.90 0.03670875
316.00 0.03732743
316.10 0.03794612
316.20 0.03856414
316.30 0.03917927
316.40 0.03978713
316.50 0.04038058
316.60 0.04094962
316.70 0.04147914
316.80 0.04194459
316.90 0.04231203
317.00 0.04254881
317.10 0.04264111
317.20 0.04260275
317.30 0.04246637
317.40 0.04226593
317.50 0.04202597
317.60 0.0417616
317.70 0.04148282
317.80 0.04119676
317.90 0.04090782
318.00 0.04061821
318.10 0.04032861
318.20 0.04003951
318.30 0.03975262
318.40 0.0394713
318.50 0.03920102
318.60 0.03894941
318.70 0.03872806
318.80 0.03855575
318.90 0.03845847
319.00 0.03846121
319.10 0.03857455
319.20 0.0387879
319.30 0.03907629
319.40 0.03941371
319.50 0.03978139
319.60 0.04016775
319.70 0.04056515
319.80 0.04096811
319.90 0.04137328
320.00 0.04177896
320.10 0.04218464
320.20 0.04259013
320.30 0.04299481
320.40 0.04339742
320.50 0.04379596
320.60 0.04418758
320.70 0.04456802
320.80 0.04493032
320.90 0.04526487
321.00 0.04556242
321.10 0.04581907
321.20 0.04603873
321.30 0.04623064
321.40 0.04640441
321.50 0.046567
321.60 0.04672267
321.70 0.04687426
321.80 0.0470238
321.90 0.04717251
322.00 0.04732104
322.10 0.04746957
322.20 0.04761878
322.30 0.04777097
322.40 0.0479307
322.50 0.04810532
322.60 0.04830519
322.70 0.04854592
322.80 0.0488529
322.90 0.04926125
323.00 0.04980472
323.10 0.05049759
323.20 0.05132559
323.30 0.05225494
323.40 0.05325055
323.50 0.05428703
323.60 0.05534874
323.70 0.05642536
323.80 0.0575095
323.90 0.05859663
324.00 0.05968444
324.10 0.06077226
324.20 0.06185996
324.30 0.06294717
324.40 0.06403317
324.50 0.06511674
324.60 0.06619621
324.70 0.06726905
324.80 0.06833112
324.90 0.06937673
325.00 0.07040039
325.10 0.07139977
325.20 0.07237721
325.30 0.07333819
325.40 0.0742884
325.50 0.07523197
325.60 0.07617145
325.70 0.0771085
325.80 0.07804433
325.90 0.07897967
326.00 0.07991491
326.10 0.08085014
326.20 0.08178562
326.30 0.08272213
326.40 0.08366129
326.50 0.08460566
326.60 0.08555887
326.70 0.08652638
326.80 0.0875171
326.90 0.0885433
327.00 0.0896168
327.10 0.09074262
327.20 0.09191574
327.30 0.09312435
327.40 0.09435616
327.50 0.09560227
327.60 0.09685722
327.70 0.09811739
327.80 0.0993802
327.90 0.100644
328.00 0.1019081
328.10 0.1031722
328.20 0.1044349
328.30 0.1056915
328.40 0.1069326
328.50 0.108143
328.60 0.1093017
328.70 0.1103763
328.80 0.1113149
328.90 0.1120453
329.00 0.1124981
329.10 0.112644
329.20 0.1125123
329.30 0.1121724
329.40 0.1116963
329.50 0.1111364
329.60 0.1105246
329.70 0.1098821
329.80 0.1092243
329.90 0.1085602
330.00 0.1078948
330.10 0.1072294
330.20 0.106565
330.30 0.1059052
330.40 0.1052568
330.50 0.1046312
330.60 0.104044
330.70 0.1035191
330.80 0.1030951
330.90 0.1028256
331.00 0.102762
331.10 0.1029261
331.20 0.1032961
331.30 0.1038205
331.40 0.1044459
331.50 0.1051336
331.60 0.1058597
331.70 0.1066086
331.80 0.1073689
331.90 0.1081338
332.00 0.1088997
332.10 0.1096656
332.20 0.1104308
332.30 0.1111932
332.40 0.1119483
332.50 0.112689
332.60 0.1134054
332.70 0.1140823
332.80 0.1146953
332.90 0.1152106
333.00 0.1155954
333.10 0.1158361
333.20 0.1159465
333.30 0.115959
333.40 0.1159077
333.50 0.1158169
333.60 0.1157017
333.70 0.1155722
333.80 0.1154354
333.90 0.1152957
334.00 0.1151554
334.10 0.1150239
334.20 0.1149159
334.30 0.1148394
334.40 0.114795
334.50 0.1147763
334.60 0.1148204
334.70 0.1150364
334.80 0.1155198
334.90 0.1162166
335.00 0.1169462
335.10 0.1177293
335.20 0.1190768
335.30 0.1217902
335.40 0.1262558
335.50 0.1317843
335.60 0.136654
335.70 0.1389933
335.80 0.1378797
335.90 0.1337627
336.00 0.128024
336.10 0.1221977
336.20 0.117488
336.30 0.1145761
336.40 0.1134169
336.50 0.1132615
336.60 0.1131917
336.70 0.1129218
336.80 0.1131157
336.90 0.114796
337.00 0.1183587
337.10 0.123028
337.20 0.1272106
337.30 0.1295167
337.40 0.1296883
337.50 0.1287254
337.60 0.1281154
337.70 0.1287376
337.80 0.1303388
337.90 0.1320025
338.00 0.1329671
338.10 0.1329533
338.20 0.1318406
338.30 0.1293976
338.40 0.1257069
338.50 0.1217388
338.60 0.1191727
338.70 0.119311
338.80 0.1219813
338.90 0.1256178
339.00 0.128533
339.10 0.1302536
339.20 0.1317571
339.30 0.1343855
339.40 0.138478
339.50 0.1430599
339.60 0.1467353
339.70 0.148732
339.80 0.1490837
339.90 0.1480476
340.00 0.1457504
340.10 0.1423967
340.20 0.1384337
340.30 0.1342795
340.40 0.1299673
340.50 0.1253072
340.60 0.1204133
340.70 0.1159121
340.80 0.1125948
340.90 0.1109382
341.00 0.1109541
341.10 0.112364
341.20 0.1147801
341.30 0.1177233
341.40 0.1206539
341.50 0.1231294
341.60 0.1249699
341.70 0.1262875
341.80 0.127318
341.90 0.1281817
342.00 0.1287419
342.10 0.1286409
342.20 0.1275411
342.30 0.1254648
342.40 0.1229663
342.50 0.1208997
342.60 0.1199109
342.70 0.120083
342.80 0.1209957
342.90 0.1220678
343.00 0.1229035
343.10 0.1234563
343.20 0.1239301
343.30 0.124508
343.40 0.1251398
343.50 0.1255905
343.60 0.125668
343.70 0.1253359
343.80 0.1246625
343.90 0.1237823
344.00 0.1229156
344.10 0.1223088
344.20 0.1220513
344.30 0.1219903
344.40 0.1219011
344.50 0.1217471
344.60 0.1217524
344.70 0.1222499
344.80 0.1234863
344.90 0.1255284
345.00 0.1282745
345.10 0.1314863
345.20 0.1348148
345.30 0.13783
345.40 0.1400937
345.50 0.1413306
345.60 0.1415921
345.70 0.1412366
345.80 0.140682
345.90 0.1401239
346.00 0.1394626
346.10 0.1384401
346.20 0.1368611
346.30 0.1347906
346.40 0.1326118
346.50 0.1308211
346.60 0.1296571
346.70 0.1289131
346.80 0.1281395
346.90 0.127024
347.00 0.1255724
347.10 0.1240495
347.20 0.1228714
347.30 0.1224902
347.40 0.1231971
347.50 0.1249178
347.60 0.1272464
347.70 0.1297298
347.80 0.1321262
347.90 0.1344256
348.00 0.1366794
348.10 0.1388178
348.20 0.1405946
348.30 0.1417055
348.40 0.1420003
348.50 0.1416021
348.60 0.1407944
348.70 0.1397945
348.80 0.138677
348.90 0.1374775
349.00 0.1362784
349.10 0.1351854
349.20 0.1342816
349.30 0.1336512
349.40 0.1334103
349.50 0.133638
349.60 0.1342623
349.70 0.1350755
349.80 0.1359386
349.90 0.1370089
350.00 0.1387043
350.10 0.1413479
350.20 0.144794
350.30 0.1483999
350.40 0.1513781
350.50 0.1532084
350.60 0.153779
350.70 0.1532439
350.80 0.1518268
350.90 0.149705
351.00 0.1469471
351.10 0.1435152
351.20 0.1393911
351.30 0.1348045
351.40 0.1303406
351.50 0.1267206
351.60 0.1243737
351.70 0.1231889
351.80 0.1226817
351.90 0.1224013
352.00 0.1221894
352.10 0.1221107
352.20 0.122284
352.30 0.1228487
352.40 0.1240416
352.50 0.1262181
352.60 0.1296484
352.70 0.1342089
352.80 0.139285
352.90 0.1440718
353.00 0.1480894
353.10 0.1514285
353.20 0.1544835
353.30 0.1575102
353.40 0.160498
353.50 0.1633762
353.60 0.1661851
353.70 0.1689897
353.80 0.1717295
353.90 0.1742247
354.00 0.1762609
354.10 0.1776128
354.20 0.1780693
354.30 0.1775895
354.40 0.1764646
354.50 0.1752251
354.60 0.1742928
354.70 0.1737223
354.80 0.173283
354.90 0.1727447
355.00 0.1720555
355.10 0.1712973
355.20 0.1705534
355.30 0.1698461
355.40 0.1691675
355.50 0.1684906
355.60 0.1677187
355.70 0.1666531
355.80 0.1650672
355.90 0.1628744
356.00 0.1602125
356.10 0.1573312
356.20 0.1543982
356.30 0.1514028
356.40 0.1482432
356.50 0.1449276
356.60 0.1417121
356.70 0.1390266
356.80 0.1372076
356.90 0.1362613
357.00 0.1358692
357.10 0.1355971
357.20 0.135089
357.30 0.1341415
357.40 0.1326987
357.50 0.1308345
357.60 0.1287288
357.70 0.1266121
357.80 0.1246933
357.90 0.1231162
358.00 0.1219825
358.10 0.1214181
358.20 0.1215811
358.30 0.1225637
358.40 0.1242646
358.50 0.1263619
358.60 0.1284215
358.70 0.1300588
358.80 0.1310804
358.90 0.1315593
359.00 0.1318251
359.10 0.1323305
359.20 0.1334042
359.30 0.1350309
359.40 0.1368222
359.50 0.1382463
359.60 0.1389654
359.70 0.1390167
359.80 0.1387068
359.90 0.1383182
360.00 0.1378725
360.10 0.137135
360.20 0.1358552
360.30 0.1340312
360.40 0.1320004
360.50 0.1303252
360.60 0.129574
360.70 0.1301169
360.80 0.1319708
360.90 0.1347643
361.00 0.1378995
361.10 0.1408476
361.20 0.1433568
361.30 0.1454092
361.40 0.1470325
361.50 0.1482056
361.60 0.1489607
361.70 0.1494933
361.80 0.1500684
361.90 0.1507902
362.00 0.1515162
362.10 0.1520285
362.20 0.1522413
362.30 0.1522301
362.40 0.1521331
362.50 0.1520641
362.60 0.1520561
362.70 0.1519979
362.80 0.1516612
362.90 0.1508982
363.00 0.1498498
363.10 0.1489077
363.20 0.1484286
363.30 0.1484908
363.40 0.1489033
363.50 0.1493923
363.60 0.1497578
363.70 0.1499021
363.80 0.1497712
363.90 0.1492991
364.00 0.1484053
364.10 0.1470455
364.20 0.1452828
364.30 0.143317
364.40 0.141446
364.50 0.139991
364.60 0.1391999
364.70 0.1391451
364.80 0.1396954
364.90 0.1406286
365.00 0.1418174
365.10 0.1433049
365.20 0.1451526
365.30 0.1472035
365.40 0.1490379
365.50 0.1502146
365.60 0.1505912
365.70 0.1504167
365.80 0.1501032
365.90 0.1499204
366.00 0.1499008
366.10 0.1499811
366.20 0.1501675
366.30 0.150516
366.40 0.1509897
366.50 0.1513964
366.60 0.1514742
366.70 0.1510436
366.80 0.1500994
366.90 0.1487987
367.00 0.1473986
367.10 0.1461905
367.20 0.1454385
367.30 0.145318
367.40 0.1458559
367.50 0.1469176
367.60 0.148272
367.70 0.1496954
367.80 0.1510478
367.90 0.152276
368.00 0.153365
368.10 0.1542839
368.20 0.1549656
368.30 0.1553303
368.40 0.1553397
368.50 0.1550547
368.60 0.1546546
368.70 0.1543758
368.80 0.1543916
368.90 0.1547258
369.00 0.1552807
369.10 0.1559486
369.20 0.1566735
369.30 0.157397
369.40 0.1579872
369.50 0.158276
369.60 0.1582038
369.70 0.1579236
369.80 0.1577506
369.90 0.1580022
370.00 0.1588454
370.10 0.1602308
370.20 0.161939
370.30 0.1636848
370.40 0.1652094
370.50 0.1663312
370.60 0.1669692
370.70 0.1671747
370.80 0.1671236
370.90 0.1670217
371.00 0.1669613
371.10 0.1668326
371.20 0.1663686
371.30 0.1652906
371.40 0.1634796
371.50 0.1610854
371.60 0.1585015
371.70 0.1561997
371.80 0.1545301
371.90 0.1536025
372.00 0.1532858
372.10 0.1532479
372.20 0.1529865
372.30 0.1519513
372.40 0.1498067
372.50 0.1467205
372.60 0.143422
372.70 0.1409136
372.80 0.1400114
372.90 0.1410073
373.00 0.143614
373.10 0.1471364
373.20 0.1507178
373.30 0.1535585
373.40 0.1550845
373.50 0.1550308
373.60 0.1534303
373.70 0.1505511
373.80 0.1468397
373.90 0.1428971
374.00 0.1394257
374.10 0.137112
374.20 0.1364841
374.30 0.1378192
374.40 0.141127
374.50 0.1461544
374.60 0.1523786
374.70 0.1590161
374.80 0.1651136
374.90 0.1697541
375.00 0.1723061
375.10 0.172582
375.20 0.1708338
375.30 0.1676218
375.40 0.16365
375.50 0.1596185
375.60 0.156077
375.70 0.1533227
375.80 0.1513991
375.90 0.150211
376.00 0.1497024
376.10 0.1499965
376.20 0.1514206
376.30 0.1543955
376.40 0.1592341
376.50 0.1659748
376.60 0.1743455
376.70 0.1837926
376.80 0.1934836
376.90 0.2023023
377.00 0.2089861
377.10 0.2124756
377.20 0.2122948
377.30 0.2086933
377.40 0.2024771
377.50 0.1946902
377.60 0.1863508
377.70 0.1783124
377.80 0.1711828
377.90 0.1652744
378.00 0.1606241
378.10 0.1570993
378.20 0.1545321
378.30 0.1527853
378.40 0.1517571
378.50 0.1513987
378.60 0.1517634
378.70 0.1530269
378.80 0.1554409
378.90 0.1592749
379.00 0.1648038
379.10 0.1722733
379.20 0.1817503
379.30 0.192915
379.40 0.2049565
379.50 0.2166693
379.60 0.2266795
379.70 0.2336983
379.80 0.236787
379.90 0.2356012
380.00 0.2305162
380.10 0.2225197
380.20 0.2128936
380.30 0.2028497
380.40 0.1932958
380.50 0.1847768
380.60 0.1775189
380.70 0.1714996
380.80 0.1665254
380.90 0.1623622
381.00 0.1588629
381.10 0.1559944
381.20 0.1537491
381.30 0.1520478
381.40 0.1507583
381.50 0.1498107
381.60 0.1511201
381.70 0.1569837
381.80 0.1685311
381.90 0.1869881
382.00 0.2149197
382.10 0.2489991
382.20 0.2667656
382.30 0.3128692
382.40 0.3896962
382.50 0.4707291
382.60 0.5473366
382.70 0.6130316
382.80 0.6690786
382.90 0.7214088
383.00 0.8879838
383.10 1.156347
383.20 1.303448
383.30 1.30561
383.40 1.175882
383.50 0.9725966
383.60 0.782605
383.70 0.668745
383.80 0.6159004
383.90 0.5572838
384.00 0.4647561
384.10 0.3689981
384.20 0.2990916
384.30 0.2352461
384.40 0.1724893
384.50 0.2109427
384.60 0.3322228
384.70 0.6279698
384.80 0.920729
384.90 1.04685
385.00 0.9253387
385.10 0.6186343
385.20 0.3090832
385.30 0.187682
385.40 0.3125272
385.50 0.5688203
385.60 0.7814936
385.70 0.8509473
385.80 0.7791565
385.90 0.6196489
386.00 0.4455466
386.10 0.3299486
386.20 0.3172442
386.30 0.3909747
386.40 0.4977484
386.50 0.6018443
386.60 0.6962374
386.70 0.7807219
386.80 0.8438027
386.90 0.8852438
387.00 0.9230395
387.10 0.9625317
387.20 0.9825783
387.30 0.9649227
387.40 0.9248119
387.50 0.8810294
387.60 0.8151449
387.70 0.7008744
387.80 0.5845191
387.90 0.558591
388.00 0.6431534
388.10 0.7466852
388.20 0.762275
388.30 0.6905389
388.40 0.6138624
388.50 0.5950883
388.60 0.632382
388.70 0.6935607
388.80 0.7509926
388.90 0.7806138
389.00 0.7599342
389.10 0.672484
389.20 0.5149286
389.30 0.3008828
389.40 0.1083488
389.50 0
389.60 0
389.70 0
389.80 0.08691941
389.90 0.1012371
390.00 0.02280709
390.10 0.04924074
390.20 0.07505759
390.30 0.1292557
390.40 0.2675259
390.50 0.3025731
390.60 0.2993273
390.70 0.3859305
390.80 0.5968482
390.90 0.8265674
391.00 0.929654
391.10 0.829276
391.20 0.5581368
391.30 0.4711136
391.40 0.4107007
391.50 0.3405472
391.60 0.2639969
391.70 0.1802441
391.80 0.08920163
391.90 0
392.00 0
392.10 0
392.20 0
392.30 0.02828132
392.40 0.03384651
392.50 0
392.60 0
392.70 0
392.80 0
392.90 0
393.00 0.124728
393.10 0.4355731
393.20 0.7799591
393.30 1.087195
393.40 1.187159
393.50 0.9902934
393.60 0.596325
393.70 0.2356534
393.80 0.06800189
393.90 0.06774437
394.00 0.09606447
394.10 0.08254623
394.20 0
394.30 0.002250561
394.40 0.0005989851
394.50 0
394.60 0
394.70 0.05464968
394.80 0.05840164
394.90 0.08931803
395.00 0.1005826
395.10 0.09061381
395.20 0.06319145
395.30 0.0253263
395.40 0
395.50 0.1104353
395.60 0.3603195
395.70 0.4392476
395.80 0.3509156
395.90 0.1900954
396.00 0.1482056
396.10 0.2374705
396.20 0.3207419
396.30 0.3926062
396.40 0.4502827
396.50 0.5750727
396.60 0.8005199
396.70 1.061733
396.80 1.282293
396.90 1.37436
397.00 1.302654
397.10 1.089671
397.20 0.7803822
397.30 0.5127922
397.40 0.2770784
397.50 0.09240924
397.60 0.02516935
397.70 0.07624608
397.80 0.1783108
397.90 0.2601024
398.00 0.3093257
398.10 0.3639882
398.20 0.4427143
398.30 0.5017317
398.40 0.4729399
398.50 0.3350239
398.60 0.1421231
398.70 0
398.80 0
398.90 0
399.00 0
399.10 0
399.20 0
399.30 0
399.40 0
399.50 0
399.60 0.0898982
399.70 0.1742146
399.80 0.1982762
399.90 0.2040423
400.00 0.2351375
400.10 0.3025474
400.20 0.3740791
400.30 0.4048385
400.40 0.3832229
400.50 0.355643
400.60 0.3746332
400.70 0.3682762
400.80 0.3329268
400.90 0.3205474
401.00 0.2656338
401.10 0.1454486
401.20 0.008580062
401.30 0
401.40 0
401.50 0
401.60 0
401.70 0.07223717
401.80 0.2573089
401.90 0.3709446
402.00 0.420163
402.10 0.4429275
402.20 0.4756436
402.30 0.5154078
402.40 0.5240837
402.50 0.4839459
402.60 0.4321922
402.70 0.4154107
402.80 0.4350942
402.90 0.464758
403.00 0.4955101
403.10 0.5450182
403.20 0.6119729
403.30 0.6551088
403.40 0.631545
403.50 0.541215
403.60 0.4300265
403.70 0.3750753
403.80 0.3753214
403.90 0.3890917
404.00 0.4090266
404.10 0.4327879
404.20 0.4887631
404.30 0.5859764
404.40 0.6979147
404.50 0.7829557
404.60 0.8050799
404.70 0.7384906
404.80 0.5894364
404.90 0.4159018
405.00 0.2902277
405.10 0.2360964
405.20 0.2153007
405.30 0.1863929
405.40 0.1544301
405.50 0.1394968
405.60 0.1467104
405.70 0.1505856
405.80 0.09988924
405.90 0.05197259
406.00 0.064605
406.10 0.1319779
406.20 0.2006937
406.30 0.236421
406.40 0.2502914
406.50 0.3107186
406.60 0.4004927
406.70 0.4712567
406.80 0.5060142
406.90 0.4857267
407.00 0.3986913
407.10 0.2661627
407.20 0.1972139
407.30 0.1842928
407.40 0.1680341
407.50 0.2092443
407.60 0.2344812
407.70 0.2284668
407.80 0.2114763
407.90 0.1846158
408.00 0.1369122
408.10 0.0749003
408.20 0.03098001
408.30 0.01258981
408.40 0.01667817
408.50 0.03987087
408.60 0.07730056
408.70 0.1108406
408.80 0.1159899
408.90 0.08835728
409.00 0.05603553
409.10 0.08809257
409.20 0.2050446
409.30 0.3534365
409.40 0.4396246
409.50 0.4403776
409.60 0.426298
409.70 0.4839664
409.80 0.6311029
409.90 0.8160961
410.00 0.968745
410.10 1.035395
410.20 0.9863243
410.30 0.8203654
410.40 0.5716636
410.50 0.3004527
410.60 0.0691239
410.70 0.03058851
410.80 0.01004029
410.90 0.005235292
411.00 0.0133967
411.10 0.02692935
411.20 0.03858204
411.30 0.04426245
411.40 0.04054762
411.50 0.02448339
411.60 0.1510681
411.70 0.3939743
411.80 0.5720232
411.90 0.623948
412.00 0.5791115
412.10 0.5031172
412.20 0.464928
412.30 0.4507179
412.40 0.4432844
412.50 0.4211457
412.60 0.375575
412.70 0.3128764
412.80 0.2467692
412.90 0.1884982
413.00 0.1466851
413.10 0.1292062
413.20 0.1356672
413.30 0.1607528
413.40 0.2010855
413.50 0.2531026
413.60 0.3088592
413.70 0.358475
413.80 0.3918307
413.90 0.3925828
414.00 0.338341
414.10 0.2144065
414.20 0.1724907
414.30 0.1285908
414.40 0.08122373
414.50 0.03320546
414.60 0
414.70 0
414.80 0.0515344
414.90 0.1074231
415.00 0.04374823
415.10 0
415.20 0
415.30 0
415.40 0
415.50 0
415.60 0
415.70 0
415.80 0
415.90 0
416.00 0.008476078
416.10 0.07721258
416.20 0.14062
416.30 0.1620264
416.40 0.1120747
416.50 0.001499492
416.60 0
416.70 0
416.80 0
416.90 0
417.00 0.06024227
417.10 0.2042177
417.20 0.2689334
417.30 0.285487
417.40 0.3079621
417.50 0.3339182
417.60 0.3124599
417.70 0.2200691
417.80 0.09638514
417.90 0.07204906
418.00 0.04437245
418.10 0.01274364
418.20 0
418.30 0
418.40 0
418.50 0.01647566
418.60 0.195528
418.70 0.3786306
418.80 0.5333145
418.90 0.6424405
419.00 0.712096
419.10 0.7477118
419.20 0.736576
419.30 0.6640268
419.40 0.5394953
419.50 0.3909059
419.60 0.250107
419.70 0.1478615
419.80 0.1211799
419.90 0.1487322
420.00 0.1859298
420.10 0.1792819
420.20 0.1070507
420.30 0.04272222
420.40 0.005383481
420.50 0
420.60 0
420.70 0
420.80 0.02687651
420.90 0.06275478
421.00 0.05738712
421.10 0.04571058
421.20 0.08108779
421.30 0.1834224
421.40 0.36546
421.50 0.5124153
421.60 0.5919382
421.70 0.6110022
421.80 0.5919439
421.90 0.5477986
422.00 0.4846654
422.10 0.4167465
422.20 0.3648416
422.30 0.3305092
422.40 0.2787403
422.50 0.1735574
422.60 0.03988497
422.70 0.03036187
422.80 0.01782236
422.90 0.007045568
423.00 0.004467978
423.10 0.0158456
423.20 0.04469299
423.30 0.09073413
423.40 0.1481841
423.50 0.2808772
423.60 0.4935049
423.70 0.6361743
423.80 0.683712
423.90 0.6458932
424.00 0.5463667
424.10 0.4130453
424.20 0.2721572
424.30 0.1384038
424.40 0.06371497
424.50 0.03470471
424.60 0.01999734
424.70 0.02070449
424.80 0.1086708
424.90 0.2344473
425.00 0.3511331
425.10 0.4304513
425.20 0.4536037
425.30 0.4261623
425.40 0.3735364
425.50 0.3303309
425.60 0.3229936
425.70 0.3555439
425.80 0.4046907
425.90 0.4305001
426.00 0.4103758
426.10 0.3601491
426.20 0.3115619
426.30 0.2839187
426.40 0.2876968
426.50 0.3245266
426.60 0.3671559
426.70 0.3536751
426.80 0.2381268
426.90 0.1098306
427.00 0.09537175
427.10 0.0773886
427.20 0.05546514
427.30 0.02899633
427.40 0
427.50 0
427.60 0
427.70 0
427.80 0.02250772
427.90 0.03096981
428.00 0.009353825
428.10 0
428.20 0
428.30 0
428.40 0.02115128
428.50 0.07336924
428.60 0.1286875
428.70 0.1811399
428.80 0.224956
428.90 0.2586715
429.00 0.2852877
429.10 0.3717341
429.20 0.4642652
429.30 0.5229341
429.40 0.5559007
429.50 0.5701226
429.60 0.5681484
429.70 0.5389237
429.80 0.4696616
429.90 0.3799865
430.00 0.3234622
430.10 0.3321965
430.20 0.3731269
430.30 0.3847894
430.40 0.3525975
430.50 0.3244038
430.60 0.3409534
430.70 0.3867272
430.80 0.4268151
430.90 0.4549401
431.00 0.4880996
431.10 0.5367817
431.20 0.5938178
431.30 0.6432639
431.40 0.6672672
431.50 0.6495105
431.60 0.6156804
431.70 0.5811787
431.80 0.5315182
431.90 0.4744142
432.00 0.4282929
432.10 0.4385864
432.20 0.4631826
432.30 0.495451
432.40 0.5151744
432.50 0.4918965
432.60 0.4077182
432.70 0.28721
432.80 0.1896942
432.90 0.1525287
433.00 0.1476601
433.10 0.1145332
433.20 0.08418389
433.30 0.09802887
433.40 0.1190369
433.50 0.1442738
433.60 0.1694559
433.70 0.2035279
433.80 0.381983
433.90 0.6029654
434.00 0.8330146
434.10 0.9977255
434.20 1.023331
434.30 0.9011726
434.40 0.7055903
434.50 0.5372743
434.60 0.4496078
434.70 0.4259829
434.80 0.4132557
434.90 0.3695683
435.00 0.2880657
435.10 0.1903346
435.20 0.1045285
435.30 0.04637923
435.40 0.02576247
435.50 0.0659848
435.60 0.1412417
435.70 0.2518452
435.80 0.3510623
435.90 0.3550938
436.00 0.2251296
436.10 0.04402951
436.20 0.02342719
436.30 0.06544278
436.40 0.169447
436.50 0.2912285
436.60 0.3340116
436.70 0.3381901
436.80 0.3735405
436.90 0.4568494
437.00 0.5363568
437.10 0.5489107
437.20 0.4727004
437.30 0.3339261
437.40 0.1820266
437.50 0.05783994
437.60 0
437.70 0
437.80 0
437.90 0.03508818
438.00 0.09372821
438.10 0.1504287
438.20 0.1561827
438.30 0.1245987
438.40 0.1121494
438.50 0.129226
438.60 0.1334051
438.70 0.1323423
438.80 0.1661993
438.90 0.2268862
439.00 0.2810098
439.10 0.2756262
439.20 0.2014246
439.30 0.1046753
439.40 0.0338345
439.50 0.005428372
439.60 0.003072449
439.70 0.002041879
439.80 0.001854642
439.90 0.06914659
440.00 0.1531486
440.10 0.1779717
440.20 0.1225604
440.30 0.02213891
440.40 0.003673002
440.50 0
440.60 0
440.70 0
440.80 0
440.90 0.08236031
441.00 0.2061739
441.10 0.3044772
441.20 0.3483923
441.30 0.3365775
441.40 0.2989487
441.50 0.2711808
441.60 0.2679814
441.70 0.2767424
441.80 0.270548
441.90 0.2322866
442.00 0.1725412
442.10 0.1242634
442.20 0.1167292
442.30 0.1513499
442.40 0.1967145
442.50 0.2123643
442.60 0.1830859
442.70 0.1314497
442.80 0.09968773
442.90 0.1133147
443.00 0.1568276
443.10 0.1865638
443.20 0.1671707
443.30 0.0977893
443.40 0.007981758
443.50 0
443.60 0.02749568
443.70 0.06783899
443.80 0.1921298
443.90 0.3098193
444.00 0.3744329
444.10 0.3783709
444.20 0.3521426
444.30 0.3221018
444.40 0.2802612
444.50 0.2309968
444.60 0.1680157
444.70 0.0930298
444.80 0.05071787
444.90 0.06488373
445.00 0.1285727
445.10 0.2250753
445.20 0.3412573
445.30 0.4486605
445.40 0.4948648
445.50 0.4466293
445.60 0.3866786
445.70 0.3177786
445.80 0.2926123
445.90 0.3016907
446.00 0.3087838
446.10 0.3113654
446.20 0.3433123
446.30 0.4257601
446.40 0.5341421
446.50 0.6114888
446.60 0.6060927
446.70 0.5098718
446.80 0.3731796
446.90 0.2721252
447.00 0.2458019
447.10 0.2668248
447.20 0.2829286
447.30 0.2780176
447.40 0.2744965
447.50 0.2907022
447.60 0.3152868
447.70 0.3166523
447.80 0.2749428
447.90 0.2035837
448.00 0.2102409
448.10 0.2003413
448.20 0.1993869
448.30 0.2770745
448.40 0.3266872
448.50 0.3364618
448.60 0.3335064
448.70 0.3476688
448.80 0.3788573
448.90 0.4066879
449.00 0.4247272
449.10 0.4499053
449.20 0.499181
449.30 0.5641502
449.40 0.6149387
449.50 0.6321493
449.60 0.6262752
449.70 0.620861
449.80 0.6288225
449.90 0.6438664
450.00 0.6502083
450.10 0.6381988
450.20 0.6101415
450.30 0.5819749
450.40 0.5742464
450.50 0.5933622
450.60 0.6227784
450.70 0.638865
450.80 0.6332885
450.90 0.6183422
451.00 0.6085774
451.10 0.6030595
451.20 0.5933802
451.30 0.5745633
451.40 0.545908
451.50 0.5060855
451.60 0.4541332
451.70 0.3998235
451.80 0.3679383
451.90 0.3840703
452.00 0.4507665
452.10 0.5423834
452.20 0.6249798
452.30 0.6829279
452.40 0.7241696
452.50 0.761596
452.60 0.7925963
452.70 0.7955921
452.80 0.7445936
452.90 0.636633
453.00 0.5087749
453.10 0.4163632
453.20 0.3899519
453.30 0.4120184
453.40 0.4352955
453.50 0.4195371
453.60 0.3544496
453.70 0.2623216
453.80 0.186973
453.90 0.1631028
454.00 0.1903632
454.10 0.2411195
454.20 0.2863193
454.30 0.3179721
454.40 0.3499327
454.50 0.390844
454.60 0.4207761
454.70 0.4063514
454.80 0.3357162
454.90 0.236827
455.00 0.1602441
455.10 0.1511269
455.20 0.2386542
455.30 0.4148969
455.40 0.6138519
455.50 0.7460095
455.60 0.7734406
455.70 0.7364467
455.80 0.6970982
455.90 0.6780832
456.00 0.667425
456.10 0.6557926
456.20 0.6475745
456.30 0.6475783
456.40 0.6530728
456.50 0.6615253
456.60 0.6740543
456.70 0.6908017
456.80 0.7071555
456.90 0.7157671
457.00 0.7154511
457.10 0.7137239
457.20 0.7215809
457.30 0.7509419
457.40 0.8106227
457.50 0.8904082
457.60 0.9537163
457.70 0.9630715
457.80 0.9237839
457.90 0.8855975
458.00 0.889498
458.10 0.9342926
458.20 0.9905926
458.30 1.025345
458.40 1.012056
458.50 0.9344757
458.60 0.8004145
458.70 0.6468555
458.80 0.518981
458.90 0.4433823
459.00 0.4129574
459.10 0.3893604
459.20 0.3377784
459.30 0.2696426
459.40 0.2354025
459.50 0.2665001
459.60 0.3351509
459.70 0.3873923
459.80 0.4013333
459.90 0.3956324
460.00 0.3919345
460.10 0.3888852
460.20 0.3750017
460.30 0.3478609
460.40 0.3150803
460.50 0.2875606
460.60 0.2762246
460.70 0.2868016
460.80 0.3176309
460.90 0.3719039
461.00 0.465827
461.10 0.6039509
461.20 0.7462169
461.30 0.8289222
461.40 0.8295325
461.50 0.7905303
461.60 0.7657772
461.70 0.7610793
461.80 0.7491316
461.90 0.7212985
462.00 0.698941
462.10 0.702304
462.20 0.7325397
462.30 0.784315
462.40 0.8500276
462.50 0.9063036
462.60 0.914082
462.70 0.8470553
462.80 0.7145706
462.90 0.5567772
463.00 0.4246632
463.10 0.3609665
463.20 0.3780872
463.30 0.4432101
463.40 0.5042445
463.50 0.5377902
463.60 0.562131
463.70 0.5976418
463.80 0.6344145
463.90 0.6493216
464.00 0.6381222
464.10 0.6222062
464.20 0.6258731
464.30 0.6528399
464.40 0.6864518
464.50 0.7082271
464.60 0.7155516
464.70 0.72416
464.80 0.7476088
464.90 0.7743334
465.00 0.7754727
465.10 0.734516
465.20 0.6648175
465.30 0.5973373
465.40 0.5562889
465.50 0.550588
465.60 0.5826633
465.70 0.6531181
465.80 0.7515573
465.90 0.8542645
466.00 0.9323981
466.10 0.963729
466.20 0.9471955
466.30 0.9090587
466.40 0.8857004
466.50 0.8942475
466.60 0.9194434
466.70 0.9289943
466.80 0.8942032
466.90 0.7967039
467.00 0.6426872
467.10 0.4796655
467.20 0.376313
467.30 0.3656931
467.40 0.4153444
467.50 0.4619366
467.60 0.4672492
467.70 0.433039
467.80 0.3816998
467.90 0.3406483
468.00 0.3347425
468.10 0.3746088
468.20 0.4480548
468.30 0.5332186
468.40 0.6178486
468.50 0.7018235
468.60 0.7833955
468.70 0.850702
468.80 0.892227
468.90 0.9079692
469.00 0.9032409
469.10 0.878792
469.20 0.8396607
469.30 0.8114698
469.40 0.8204737
469.50 0.8524165
469.60 0.8560671
469.70 0.8045792
469.80 0.7315445
469.90 0.6829723
470.00 0.6559415
470.10 0.6138898
470.20 0.5523288
470.30 0.5078336
470.40 0.5054205
470.50 0.5217634
470.60 0.5109063
470.70 0.4582556
470.80 0.3953721
470.90 0.3708689
471.00 0.4118595
471.10 0.5071613
471.20 0.6149007
471.30 0.687406
471.40 0.7024841
471.50 0.6788642
471.60 0.6587529
471.70 0.6623646
471.80 0.6653121
471.90 0.6277458
472.00 0.5426214
472.10 0.4497527
472.20 0.4052613
472.30 0.4411694
472.40 0.5413654
472.50 0.6530263
472.60 0.7292456
472.70 0.7675345
472.80 0.8023009
472.90 0.855349
473.00 0.9044138
473.10 0.9102301
473.20 0.8620558
473.30 0.7834032
473.40 0.7019834
473.50 0.6299477
473.60 0.5756433
473.70 0.5589202
473.80 0.6012201
473.90 0.700686
474.00 0.8204774
474.10 0.9069542
474.20 0.9261131
474.30 0.8867
474.40 0.8281413
474.50 0.783931
474.60 0.7560937
474.70 0.7235033
474.80 0.6685726
474.90 0.5958282
475.00 0.5305145
475.10 0.5017352
475.20 0.5295725
475.30 0.6145113
475.40 0.7284337
475.50 0.8202473
475.60 0.839987
475.70 0.7695017
475.80 0.6361394
475.90 0.4906949
476.00 0.3636741
476.10 0.245287
476.20 0.1112067
476.30 0
476.40 0
476.50 0
476.60 0
476.70 0.0411623
476.80 0.1868876
476.90 0.3029744
477.00 0.3720448
477.10 0.411144
477.20 0.4495123
477.30 0.4951722
477.40 0.5301103
477.50 0.5363759
477.60 0.5143311
477.70 0.4740169
477.80 0.4193743
477.90 0.3556709
478.00 0.3065705
478.10 0.3021774
478.20 0.3448831
478.30 0.3952812
478.40 0.4059599
478.50 0.3741611
478.60 0.3460603
478.70 0.3589709
478.80 0.3966933
478.90 0.4109683
479.00 0.3829379
479.10 0.3512624
479.20 0.3730445
479.30 0.4672899
479.40 0.6007041
479.50 0.7199941
479.60 0.792416
479.70 0.8201019
479.80 0.8258292
479.90 0.8273751
480.00 0.8190039
480.10 0.7779686
480.20 0.6911495
480.30 0.5702854
480.40 0.4402747
480.50 0.3234895
480.60 0.2397396
480.70 0.2127101
480.80 0.2596082
480.90 0.3732929
481.00 0.5200032
481.10 0.6560364
481.20 0.7551731
481.30 0.8209464
481.40 0.8686347
481.50 0.8959735
481.60 0.8828992
481.70 0.8229466
481.80 0.7440541
481.90 0.6888003
482.00 0.6736119
482.10 0.6789725
482.20 0.6762601
482.30 0.6531229
482.40 0.6156519
482.50 0.578203
482.60 0.5581842
482.70 0.5673904
482.80 0.5954927
482.90 0.6103353
483.00 0.5933876
483.10 0.5627961
483.20 0.5449135
483.30 0.53902
483.40 0.5304169
483.50 0.5289593
483.60 0.5616169
483.70 0.629708
483.80 0.7011733
483.90 0.7493741
484.00 0.7792029
484.10 0.8115702
484.20 0.8573257
484.30 0.9073724
484.40 0.9374376
484.50 0.921554
484.60 0.8547241
484.70 0.768899
484.80 0.7151708
484.90 0.7192268
485.00 0.7533758
485.10 0.7589776
485.20 0.7018054
485.30 0.6046004
485.40 0.5204148
485.50 0.4745149
485.60 0.4510443
485.70 0.4481557
485.80 0.5278763
485.90 0.7774443
486.00 1.202793
486.10 1.666126
486.20 1.953737
486.30 1.925682
486.40 1.614299
486.50 1.19252
486.60 0.8469931
486.70 0.6651426
486.80 0.6155918
486.90 0.6101446
487.00 0.5802892
487.10 0.5160701
487.20 0.4554587
487.30 0.4471892
487.40 0.5133179
487.50 0.6325194
487.60 0.7567593
487.70 0.8418948
487.80 0.8676373
487.90 0.8369197
488.00 0.7670219
488.10 0.6860252
488.20 0.6271308
488.30 0.6143785
488.40 0.6472456
488.50 0.7013401
488.60 0.7430586
488.70 0.7473067
488.80 0.7077371
488.90 0.6372909
489.00 0.5636065
489.10 0.5215884
489.20 0.5367654
489.30 0.6001757
489.40 0.6645074
489.50 0.6817856
489.60 0.6504232
489.70 0.6110951
489.80 0.5974552
489.90 0.6112255
490.00 0.642607
490.10 0.6869011
490.20 0.72985
490.30 0.7409403
490.40 0.7064054
490.50 0.6586113
490.60 0.6465068
490.70 0.6807856
490.80 0.7272545
490.90 0.7522195
491.00 0.758393
491.10 0.7680743
491.20 0.7859805
491.30 0.7967181
491.40 0.7909522
491.50 0.7764929
491.60 0.768683
491.70 0.7810662
491.80 0.8227982
491.90 0.8945164
492.00 0.9809363
492.10 1.05837
492.20 1.117957
492.30 1.172049
492.40 1.232058
492.50 1.284222
492.60 1.296808
492.70 1.260878
492.80 1.212724
492.90 1.202444
493.00 1.244396
493.10 1.308541
493.20 1.361205
493.30 1.398187
493.40 1.431233
493.50 1.460611
493.60 1.475116
493.70 1.46812
493.80 1.442189
493.90 1.399796
494.00 1.343451
494.10 1.286251
494.20 1.248051
494.30 1.241765
494.40 1.269982
494.50 1.329157
494.60 1.409754
494.70 1.494816
494.80 1.564996
494.90 1.608832
495.00 1.623667
495.10 1.612897
495.20 1.586835
495.30 1.551897
495.40 1.492534
495.50 1.375842
495.60 1.186821
495.70 0.9545544
495.80 0.7283346
495.90 0.5323504
496.00 0.3631961
496.10 0.2240148
496.20 0.1370184
496.30 0.1213904
496.40 0.1704128
496.50 0.2535235
496.60 0.3329374
496.70 0.3810762
496.80 0.3989951
496.90 0.4154826
497.00 0.4473914
497.10 0.4645804
497.20 0.4167663
497.30 0.2988353
497.40 0.1712058
497.50 0.1087942
497.60 0.1472349
497.70 0.2780622
497.80 0.4671982
497.90 0.6578267
498.00 0.7784149
498.10 0.7877375
498.20 0.7219316
498.30 0.6737296
498.40 0.7136667
498.50 0.8353105
498.60 0.9706129
498.70 1.050017
498.80 1.048397
498.90 0.9897165
499.00 0.9179975
499.10 0.8600584
499.20 0.8127879
499.30 0.7629635
499.40 0.7106514
499.50 0.6706841
499.60 0.6537981
499.70 0.6474096
499.80 0.6174454
499.90 0.5354951
500.00 1
500.10 1.035023
500.20 0.6522653
500.30 0.2431522
500.40 0.7896699
500.50 1.010765
500.60 0.6570008
500.70 0.7651998
500.80 0.7664447
500.90 0.3004031
501.00 0.3087506
501.10 0.5461908
501.20 0.9227209
501.30 0.4515702
501.40 0.7536536
501.50 1.522312
501.60 0.6487871
501.70 0.1728484
501.80 0.6099753
501.90 0.9490708
502.00 1.315406
502.10 0.6385476
502.20 0.2122203
502.30 0.4858679
502.40 0.4731216
502.50 0.3881508
502.60 0.9561144
502.70 1.051599
502.80 1.01663
502.90 0.8568253
503.00 0.8724697
503.10 0.782774
503.20 0.8370877
503.30 1.171355
503.40 1.253888
503.50 1.082524
503.60 1.046295
503.70 1.048559
503.80 0.9451653
503.90 0.964719
504.00 1.084403
504.10 0.9598787
504.20 0.5977288
504.30 0.6335688
504.40 0.8006328
504.50 0.8505014
504.60 0.903986
504.70 1.032208
504.80 1.307831
504.90 0.722026
505.00 0.5604948
505.10 0.3742598
505.20 0.6472888
505.30 1.341242
505.40 0.8250285
505.50 0
505.60 0.5505078
505.70 1.278716
505.80 1.274703
505.90 0.7523366
506.00 0.6870536
506.10 0.6788655
506.20 0.1480656
506.30 0.7330923
506.40 1.098655
506.50 0.7701532
506.60 0.8034989
506.70 0.8323709
506.80 0.582884
506.90 0.513122
507.00 1.267698
507.10 1.656519
507.20 1.245597
507.30 0.4916949
507.40 0.9654305
507.50 1.907438
507.60 2.001324
507.70 1.556417
507.80 1.414854
507.90 1.320852
508.00 1.254643
508.10 1.57131
508.20 1.855322
508.30 1.292902
508.40 0.5803851
508.50 0.6059686
508.60 1.081503
508.70 1.354044
508.80 1.446877
508.90 1.517398
509.00 1.525458
509.10 0.7773122
509.20 0.8241157
509.30 1.251869
509.40 1.248492
509.50 1.191272
509.60 1.897118
509.70 1.615769
509.80 1.38788
509.90 1.828633
510.00 1.847632
510.10 0.9661487
510.20 0.2452787
510.30 0.4667533
510.40 0.6069475
510.50 1.177683
510.60 1.087027
510.70 0.9527482
510.80 0.9047112
510.90 0.8871843
511.00 0.7370727
511.10 0.8616674
511.20 1.386563
511.30 1.448783
511.40 1.481861
511.50 1.517293
511.60 1.698457
511.70 1.690166
511.80 0.8321331
511.90 0.8301913
512.00 1.342769
512.10 1.643854
512.20 1.764645
512.30 1.881715
512.40 1.664539
512.50 0.8188694
512.60 1.031453
512.70 1.333157
512.80 1.186111
512.90 0.5191083
513.00 0.6335236
513.10 1.466747
513.20 1.459313
513.30 1.376152
513.40 1.411662
513.50 1.253108
513.60 1.721671
513.70 1.67749
513.80 1.453762
513.90 1.125287
514.00 1.642578
514.10 1.501396
514.20 1.010035
514.30 0.8239066
514.40 1.543148
514.50 1.761696
514.60 1.400071
514.70 1.010062
514.80 1.098519
514.90 0.9145879
515.00 0.8611312
515.10 0.9707098
515.20 1.458924
515.30 1.364313
515.40 0.7628245
515.50 1.201699
515.60 1.49784
515.70 1.632373
515.80 1.666394
515.90 1.814673
516.00 2.132191
516.10 2.060445
516.20 2.009559
516.30 2.149104
516.40 2.486071
516.50 2.229025
516.60 1.691122
516.70 1.183519
516.80 1.027046
516.90 0.4699937
517.00 0
517.10 0
517.20 0.2699182
517.30 0.5802935
517.40 0.4502046
517.50 0.7452387
517.60 0.6316404
517.70 0.445668
517.80 0.3968932
517.90 0.3362474
518.00 0.3249148
518.10 0.4353047
518.20 0.357842
518.30 0.04361382
518.40 0.4775982
518.50 0.8040917
518.60 1.163841
518.70 1.320556
518.80 1.029525
518.90 0.7384038
519.00 0.7571901
519.10 0.7255749
519.20 0.8400705
519.30 0.6886941
519.40 0.634684
519.50 0.6410442
519.60 0.7495769
519.70 0.8543824
519.80 0.5273197
519.90 0.5070441
520.00 0.815425
520.10 0.4502314
520.20 0.3700197
520.30 1.138012
520.40 1.093824
520.50 0.6800006
520.60 0.9876776
520.70 0.8125907
520.80 0.993633
520.90 0.9888863
521.00 0.7418397
521.10 0.5052107
521.20 0.6786217
521.30 0.8284689
521.40 1.508932
521.50 1.325793
521.60 0.7751785
521.70 1.173426
521.80 1.15958
521.90 0.7069903
522.00 0.8122132
522.10 1.359166
522.20 1.485249
522.30 1.174662
522.40 1.429896
522.50 1.997986
522.60 1.579076
522.70 1.466038
522.80 1.742564
522.90 1.643247
523.00 1.323514
523.10 1.133247
523.20 1.399899
523.30 1.540941
523.40 1.03255
523.50 0.7144366
523.60 1.166528
523.70 1.340164
523.80 1.31599
523.90 1.425703
524.00 1.648033
524.10 1.615201
524.20 1.312481
524.30 0.7670443
524.40 0.594532
524.50 0.7426656
524.60 0.7639715
524.70 1.07041
524.80 0.9717184
524.90 0.4868547
525.00 1.005182
525.10 1.30443
525.20 1.203108
525.30 1.289504
525.40 1.251765
525.50 1.747336
525.60 1.515755
525.70 1.439932
525.80 1.516457
525.90 1.649741
526.00 1.308964
526.10 1.294902
526.20 1.105925
526.30 1.307
526.40 1.319425
526.50 1.113421
526.60 0.7868487
526.70 1.069731
526.80 1.717241
526.90 1.267469
527.00 1.04854
527.10 1.465203
527.20 1.268594
527.30 1.426287
527.40 1.753877
527.50 1.695964
527.60 1.61686
527.70 1.135578
527.80 0.9098174
527.90 1.476426
528.00 2.0538
528.10 1.280809
528.20 0.9305509
528.30 1.493628
528.40 1.755234
528.50 1.312046
528.60 1.352714
528.70 1.683704
528.80 1.412538
528.90 1.36015
529.00 1.831507
529.10 1.904455
529.20 2.068201
529.30 1.894887
529.40 1.771385
529.50 1.702921
529.60 1.63138
529.70 1.558572
529.80 1.817885
529.90 1.296331
530.00 1.055066
530.10 1.343535
530.20 2.047703
530.30 2.015088
530.40 1.751682
530.50 1.93218
530.60 1.853355
530.70 1.374515
530.80 1.431394
530.90 1.722777
531.00 1.593975
531.10 1.459804
531.20 1.665283
531.30 1.373884
531.40 1.27867
531.50 1.472432
531.60 1.488719
531.70 1.190602
531.80 1.216061
531.90 1.536871
532.00 1.604296
532.10 2.017549
532.20 2.090169
532.30 1.462645
532.40 1.011386
532.50 1.19676
532.60 1.60441
532.70 1.563932
532.80 1.164999
532.90 1.811077
533.00 1.444069
533.10 1.241375
533.20 1.560724
533.30 2.22632
533.40 1.788282
533.50 0.9580879
533.60 1.313309
533.70 1.451041
533.80 1.566562
533.90 1.550236
534.00 1.607598
534.10 1.507599
534.20 1.092629
534.30 1.457192
534.40 2.089248
534.50 2.442624
534.60 2.299068
534.70 1.552103
534.80 0.9219225
534.90 1.059858
535.00 1.663475
535.10 1.883862
535.20 1.972042
535.30 2.474152
535.40 2.819095
535.50 2.415872
535.60 1.876879
535.70 1.761767
535.80 1.137879
535.90 1.251167
536.00 1.693122
536.10 1.84415
536.20 1.650426
536.30 1.833826
536.40 1.47721
536.50 1.194808
536.60 1.338055
536.70 1.537539
536.80 1.669071
536.90 1.695959
537.00 1.686746
537.10 1.731032
537.20 1.289395
537.30 1.4161
537.40 1.344178
537.50 1.353763
537.60 1.682454
537.70 1.948229
537.80 1.732163
537.90 1.9744
538.00 2.461437
538.10 2.288295
538.20 1.655788
538.30 1.81469
538.40 2.598554
538.50 2.641866
538.60 2.103336
538.70 2.139594
538.80 2.446872
538.90 2.106101
539.00 1.819875
539.10 2.011246
539.20 2.069432
539.30 1.724074
539.40 1.580675
539.50 1.931228
539.60 2.00408
539.70 1.824375
539.80 2.054485
539.90 2.334636
540.00 2.163809
540.10 2.470546
540.20 2.649366
540.30 2.767876
540.40 2.412432
540.50 2.20178
540.60 2.130124
540.70 2.469223
540.80 2.242985
540.90 1.827583
541.00 1.808914
541.10 1.509687
541.20 1.778339
541.30 1.974875
541.40 1.917319
541.50 1.710618
541.60 1.813905
541.70 1.900787
541.80 2.338081
541.90 2.355263
542.00 1.809791
542.10 1.933964
542.20 2.398277
542.30 2.757621
542.40 2.767953
542.50 2.371474
542.60 2.119833
542.70 2.049755
542.80 2.256399
542.90 2.579013
543.00 2.059356
543.10 1.915731
543.20 1.841625
543.30 2.350482
543.40 2.307046
543.50 2.274981
543.60 2.206411
543.70 2.311923
543.80 2.181648
543.90 2.394232
544.00 2.420956
544.10 2.506868
544.20 3.08788
544.30 3.223093
544.40 2.694959
544.50 2.709953
544.60 3.093256
544.70 2.74534
544.80 2.233228
544.90 1.61452
545.00 0.864361
545.10 0.2629598
545.20 0.2817801
545.30 0.1232268
545.40 0.1818193
545.50 0.2543028
545.60 0.6686595
545.70 1.429328
545.80 1.270375
545.90 0.7357859
546.00 0.9590147
546.10 1.767758
546.20 1.640739
546.30 1.712714
546.40 1.433442
546.50 0.9041613
546.60 0.8821641
546.70 1.062175
546.80 1.740719
546.90 1.756459
547.00 1.180196
547.10 0.7986592
547.20 0.5630834
547.30 0.64705
547.40 0.7279869
547.50 1.029182
547.60 1.301016
547.70 1.615246
547.80 1.145371
547.90 1.018276
548.00 1.058954
548.10 1.272498
548.20 1.273769
548.30 1.076719
548.40 1.064998
548.50 1.376292
548.60 1.440161
548.70 1.522234
548.80 1.389956
548.90 0.9714542
549.00 0.9518263
549.10 1.113057
549.20 1.352424
549.30 1.246964
549.40 0.7032504
549.50 1.031934
549.60 1.255761
549.70 0.9521949
549.80 0.7628294
549.90 1.324149
550.00 1.008868
550.10 0.5875095
550.20 0.787409
550.30 0.7395156
550.40 0.6523116
550.50 0.789919
550.60 1.098561
550.70 0.5674204
550.80 0.4387032
550.90 0.6043818
551.00 0.4025818
551.10 0.1728829
551.20 0.01474497
551.30 0.1224851
551.40 0.4234971
551.50 0.8532375
551.60 1.287389
551.70 0.9252204
551.80 0.2928659
551.90 0
552.00 0.352117
552.10 0.769244
552.20 0.1963785
552.30 0.05232792
552.40 0.2478241
552.50 0.3192938
552.60 0.5772897
552.70 0.2888689
552.80 0.2529962
552.90 0.4391609
553.00 0.4960512
553.10 0.497798
553.20 0.6422814
553.30 0.7770073
553.40 0.7506692
553.50 0.6199627
553.60 0.3824048
553.70 0.2710395
553.80 0.3085244
553.90 0.4834425
554.00 0.9373474
554.10 0.8236118
554.20 0.2554446
554.30 0.1130022
554.40 0.7491797
554.50 0.9777492
554.60 0.531006
554.70 0.1502242
554.80 0.2644378
554.90 0.5283451
555.00 0.4326775
555.10 0.3792181
555.20 0.07165296
555.30 0.3719059
555.40 0.4973754
555.50 0.4172458
555.60 0.6885382
555.70 0.9723365
555.80 0.9213668
555.90 0.5545512
556.00 0.2813388
556.10 0.630508
556.20 0.8305038
556.30 0.6936845
556.40 0.9792678
556.50 1.026522
556.60 0.9079216
556.70 0.7135773
556.80 0.9473191
556.90 0.9761979
557.00 0.99104
557.10 1.154392
557.20 1.152878
557.30 1.149631
557.40 1.149691
557.50 1.149691
557.60 1.149691
557.70 1.149691
557.80 1.149691
557.90 1.149691
558.00 1.149691
558.10 1.149691
558.20 1.149735
558.30 1.161349
558.40 1.109434
558.50 0.9715829
558.60 1.365788
558.70 1.716198
558.80 1.600648
558.90 1.254149
559.00 1.509023
559.10 1.750178
559.20 1.650586
559.30 1.2853
559.40 1.439341
559.50 1.76208
559.60 1.409948
559.70 0.8030592
559.80 0.9841932
559.90 1.101733
560.00 1.020659
560.10 1.342661
560.20 1.687296
560.30 1.746497
560.40 1.257597
560.50 1.028739
560.60 1.248872
560.70 0.8786253
560.80 0.5711484
560.90 0.9763573
561.00 1.489942
561.10 1.634448
561.20 1.252957
561.30 1.163393
561.40 1.697409
561.50 1.554679
561.60 1.300482
561.70 1.3464
561.80 1.286707
561.90 0.944815
562.00 0.711516
562.10 0.794793
562.20 1.177803
562.30 0.8285189
562.40 1.314462
562.50 1.314189
562.60 1.164536
562.70 1.163104
562.80 1.435939
562.90 1.295032
563.00 1.233504
563.10 0.8943507
563.20 0.4167461
563.30 0.6560716
563.40 1.146018
563.50 1.47961
563.60 1.243321
563.70 0.6943854
563.80 0.7209702
563.90 1.11863
564.00 0.8537063
564.10 0.7786061
564.20 0.8565161
564.30 1.024319
564.40 1.031887
564.50 1.098413
564.60 1.527566
564.70 1.273635
564.80 1.334438
564.90 1.610323
565.00 1.631009
565.10 1.426838
565.20 1.05063
565.30 1.420662
565.40 1.846477
565.50 1.572037
565.60 0.8178206
565.70 0.8679405
565.80 1.422713
565.90 1.779657
566.00 1.338249
566.10 1.189992
566.20 1.356892
566.30 1.694705
566.40 1.595698
566.50 0.9632238
566.60 1.098262
566.70 1.512302
566.80 1.428268
566.90 1.442786
567.00 1.581685
567.10 1.784224
567.20 1.710036
567.30 1.646339
567.40 1.185866
567.50 1.252578
567.60 0.9668941
567.70 0.9904904
567.80 1.199561
567.90 1.489277
568.00 1.508993
568.10 0.9010763
568.20 0.7468958
568.30 1.569269
568.40 2.533588
568.50 2.450423
568.60 1.672685
568.70 1.100382
568.80 1.256499
568.90 1.812531
569.00 2.015446
569.10 1.299059
569.20 1.604743
569.30 2.020775
569.40 1.882228
569.50 1.605413
569.60 1.434667
569.70 1.767617
569.80 2.109298
569.90 2.228077
570.00 1.893462
570.10 1.508702
570.20 1.377691
570.30 1.755996
570.40 2.107504
570.50 2.142875
570.60 2.09765
570.70 2.260054
570.80 2.379726
570.90 1.799996
571.00 1.650783
571.10 1.839731
571.20 1.829098
571.30 2.019707
571.40 1.970135
571.50 1.423259
571.60 1.413149
571.70 1.596655
571.80 1.679514
571.90 1.682161
572.00 1.565768
572.10 0.9593656
572.20 0.9241402
572.30 1.451639
572.40 1.821786
572.50 1.808405
572.60 1.706798
572.70 1.695128
572.80 1.67504
572.90 1.681438
573.00 2.046676
573.10 1.891447
573.20 1.809034
573.30 1.80693
573.40 1.794891
573.50 2.037111
573.60 2.206097
573.70 1.979352
573.80 1.562631
573.90 1.372179
574.00 1.428758
574.10 1.611047
574.20 1.753721
574.30 2.076174
574.40 2.527661
574.50 2.223427
574.60 1.657491
574.70 1.576744
574.80 2.355947
574.90 2.054865
575.00 1.568339
575.10 1.688496
575.20 1.909546
575.30 1.621865
575.40 1.617606
575.50 2.217766
575.60 2.107586
575.70 2.096411
575.80 2.102419
575.90 2.219748
576.00 2.07149
576.10 1.837885
576.20 1.793334
576.30 2.010841
576.40 2.353269
576.50 1.904197
576.60 1.359692
576.70 1.322852
576.80 1.657584
576.90 1.409447
577.00 1.38904
577.10 1.597978
577.20 1.693359
577.30 1.278114
577.40 1.283912
577.50 1.750527
577.60 2.014509
577.70 2.005944
577.80 1.631563
577.90 1.670589
578.00 1.792432
578.10 2.132396
578.20 1.96773
578.30 1.370058
578.40 1.21479
578.50 1.877315
578.60 2.118961
578.70 2.136308
578.80 2.177259
578.90 2.224392
579.00 2.171961
579.10 2.227242
579.20 2.33496
579.30 2.146789
579.40 1.674416
579.50 1.676179
579.60 2.070504
579.70 2.504971
579.80 2.448075
579.90 2.310142
580.00 2.351273
580.10 2.133903
580.20 2.107984
580.30 2.411848
580.40 2.058895
580.50 1.905738
580.60 2.371281
580.70 2.636815
580.80 3.066511
580.90 3.108899
581.00 2.728814
581.10 1.950426
581.20 2.000798
581.30 2.012562
581.40 1.86937
581.50 1.584246
581.60 1.558254
581.70 1.468477
581.80 1.971236
581.90 2.034886
582.00 1.716522
582.10 1.738964
582.20 1.788748
582.30 1.82286
582.40 1.710144
582.50 1.709961
582.60 1.830284
582.70 1.765067
582.80 1.812033
582.90 1.875815
583.00 1.88466
583.10 1.88592
583.20 1.625593
583.30 1.16746
583.40 1.76699
583.50 2.10467
583.60 1.599201
583.70 1.946971
583.80 1.668263
583.90 1.53434
584.00 1.56055
584.10 2.190353
584.20 2.2415
584.30 1.778533
584.40 2.033711
584.50 2.255879
584.60 1.710636
584.70 1.340191
584.80 1.222134
584.90 1.594243
585.00 1.760776
585.10 1.614632
585.20 0.9249263
585.30 0.9485676
585.40 1.188899
585.50 1.25542
585.60 1.626214
585.70 1.550936
585.80 1.482028
585.90 1.369274
586.00 1.115652
586.10 0.5550274
586.20 0.6134845
586.30 1.126628
586.40 1.577038
586.50 1.490146
586.60 1.363523
586.70 1.444512
586.80 1.230926
586.90 1.223627
587.00 1.348424
587.10 1.470954
587.20 1.345973
587.30 1.228645
587.40 1.269829
587.50 1.231734
587.60 0.9478889
587.70 0.9224708
587.80 0.7250348
587.90 0.623729
588.00 0.9392776
588.10 0.7946381
588.20 0.7211095
588.30 0.6164366
588.40 0.9540365
588.50 0.7727972
588.60 0.5508415
588.70 0.8247955
588.80 1.199673
588.90 1.669291
589.00 1.814734
589.10 0.9682613
589.20 1.570101
589.30 2.4808
589.40 1.442413
589.50 0.811684
589.60 0.2891024
589.70 1.64802
589.80 1.437514
589.90 0.5673535
590.00 0.8208588
590.10 0.7181188
590.20 0.558993
590.30 0.6898144
590.40 0.646772
590.50 0.7060684
590.60 0.8277824
590.70 0.8850157
590.80 0.646001
590.90 0.4786366
591.00 0.7909193
591.10 0.8562269
591.20 1.122668
591.30 1.07926
591.40 0.804458
591.50 0.8284476
591.60 1.263905
591.70 1.249054
591.80 0.5316408
591.90 0.4608318
592.00 0.5778396
592.10 0.7480991
592.20 0.7633387
592.30 0.9725765
592.40 0.9926919
592.50 0.1688233
592.60 0.3042665
592.70 0.9341875
592.80 1.423905
592.90 1.194246
593.00 0.7867004
593.10 0.7070393
593.20 0.9715566
593.30 0.8784993
593.40 0.7133258
593.50 0.4779833
593.60 0.4034114
593.70 0.888529
593.80 0.91849
593.90 0.7068231
594.00 0.6432285
594.10 0.912788
594.20 0.9402599
594.30 1.120398
594.40 1.159285
594.50 1.033092
594.60 0.9502284
594.70 1.371048
594.80 1.603158
594.90 1.649046
595.00 1.729338
595.10 1.299284
595.20 1.174867
595.30 1.001871
595.40 0.7819748
595.50 0.5414039
595.60 0.8648809
595.70 1.792931
595.80 1.616467
595.90 1.206462
596.00 1.114363
596.10 1.286764
596.20 1.089231
596.30 0.7880247
596.40 0.7711183
596.50 1.298148
596.60 1.399825
596.70 1.371322
596.80 1.621558
596.90 1.302982
597.00 1.031711
597.10 0.9048024
597.20 0.9250162
597.30 0.7637443
597.40 0.7432142
597.50 1.041207
597.60 0.7123239
597.70 0.5004356
597.80 0.4699101
597.90 0.7467144
598.00 0.8156771
598.10 1.149049
598.20 1.208025
598.30 1.004285
598.40 1.153974
598.50 1.571805
598.60 1.545923
598.70 1.149785
598.80 1.275825
598.90 1.515963
599.00 1.113204
599.10 1.159919
599.20 1.263762
599.30 1.247363
599.40 1.216253
599.50 1.283206
599.60 1.332699
599.70 1.331374
599.80 1.556912
599.90 1.757873
600.00 1.562581
600.10 1.243181
600.20 1.130224
600.30 1.170099
600.40 1.341674
600.50 1.22418
600.60 1.285609
600.70 1.012865
600.80 0.9636613
600.90 1.418726
601.00 1.330013
601.10 1.095595
601.20 1.085606
601.30 1.5291
601.40 1.24637
601.50 0.7745725
601.60 1.323369
601.70 1.498697
601.80 1.578208
601.90 1.742301
602.00 1.826139
602.10 1.495143
602.20 1.393479
602.30 1.559634
602.40 1.353747
602.50 1.207259
602.60 1.079815
602.70 1.276472
602.80 1.055559
602.90 0.8942021
603.00 0.6798567
603.10 0.6765867
603.20 1.079161
603.30 1.391513
603.40 1.726606
603.50 1.491514
603.60 1.461178
603.70 1.644556
603.80 1.584256
603.90 1.080054
604.00 0.9357489
604.10 1.226086
604.20 1.341263
604.30 1.55195
604.40 1.703911
604.50 1.5532
604.60 1.369972
604.70 1.50872
604.80 1.992959
604.90 1.74262
605.00 1.164305
605.10 0.9995139
605.20 1.426985
605.30 1.726897
605.40 1.666814
605.50 1.331822
605.60 1.298775
605.70 1.778817
605.80 1.979671
605.90 1.516153
606.00 1.377249
606.10 1.406972
606.20 1.550538
606.30 1.700136
606.40 1.776692
606.50 1.612645
606.60 1.449292
606.70 1.847814
606.80 1.89835
606.90 1.801709
607.00 1.617029
607.10 1.61897
607.20 1.723133
607.30 1.555613
607.40 1.340574
607.50 1.499781
607.60 1.657663
607.70 1.738548
607.80 1.654928
607.90 1.665957
608.00 1.60944
608.10 1.602251
608.20 1.494399
608.30 1.54675
608.40 1.9887
608.50 1.953306
608.60 1.463401
608.70 1.177639
608.80 1.383996
608.90 1.685914
609.00 1.536375
609.10 1.640491
609.20 1.818966
609.30 1.870161
609.40 1.644806
609.50 1.528937
609.60 1.547776
609.70 1.757543
609.80 2.169439
609.90 2.170835
610.00 2.074589
610.10 2.13546
610.20 1.813525
610.30 1.521587
610.40 1.216686
610.50 1.381283
610.60 1.365804
610.70 1.325031
610.80 1.382336
610.90 1.802913
611.00 2.134707
611.10 2.193059
611.20 2.204657
611.30 1.995261
611.40 1.68168
611.50 1.471875
611.60 1.303599
611.70 1.433131
611.80 1.393311
611.90 1.579023
612.00 1.778143
612.10 1.722658
612.20 1.68356
612.30 1.860015
612.40 1.897289
612.50 1.56713
612.60 1.322718
612.70 1.316138
612.80 1.217912
612.90 1.181819
613.00 1.379747
613.10 1.452664
613.20 1.277252
613.30 1.445638
613.40 1.569359
613.50 1.678566
613.60 1.678737
613.70 1.681781
613.80 1.680035
613.90 1.399439
614.00 1.465932
614.10 1.437912
614.20 1.255124
614.30 0.8814869
614.40 0.9383681
614.50 1.499893
614.60 1.776347
614.70 1.435138
614.80 0.9763944
614.90 0.812552
615.00 0.982509
615.10 0.9018387
615.20 0.8216541
615.30 1.169519
615.40 1.373327
615.50 1.279097
615.60 0.9859594
615.70 0.9837874
615.80 1.46948
615.90 1.405438
616.00 1.122681
616.10 0.7278244
616.20 0.7638518
616.30 1.145225
616.40 1.328968
616.50 1.110314
616.60 0.4780547
616.70 0.4637876
616.80 0.6005441
616.90 0.6855385
617.00 0.8465841
617.10 0.749937
617.20 0.7227054
617.30 0.7991953
617.40 0.8903016
617.50 0.9363696
617.60 0.7534873
617.70 0.700654
617.80 0.7713941
617.90 0.8942225
618.00 0.6401281
618.10 0.4935725
618.20 0.5075957
618.30 0.3055821
618.40 0.5700571
618.50 0.8324461
618.60 0.9728559
618.70 0.937271
618.80 0.8244881
618.90 0.7294946
619.00 0.8574519
619.10 1.005715
619.20 1.01917
619.30 1.629158
619.40 1.835714
619.50 1.441228
619.60 1.042944
619.70 0.9462908
619.80 0.7707145
619.90 0.5112606
620.00 0.7003149
620.10 0.6596731
620.20 0.5524637
620.30 0.627566
620.40 0.9164477
620.50 1.175709
620.60 1.119752
620.70 0.8902609
620.80 0.9132372
620.90 1.1797
621.00 1.174127
621.10 0.9628844
621.20 0.8995139
621.30 0.6295106
621.40 0.6780452
621.50 0.834589
621.60 0.9512929
621.70 0.7684161
621.80 0.8635031
621.90 1.206365
622.00 1.31711
622.10 1.119545
622.20 0.9393505
622.30 0.6834504
622.40 0.7877
622.50 0.9343621
622.60 1.061524
622.70 1.014371
622.80 0.7111405
622.90 0.8466282
623.00 0.8912864
623.10 1.04258
623.20 1.198256
623.30 1.344821
623.40 1.004588
623.50 0.5754484
623.60 0.4798767
623.70 0.6064933
623.80 0.3031072
623.90 0.03204712
624.00 0.66176
624.10 1.411036
624.20 1.438841
624.30 0.725558
624.40 0.6164035
624.50 1.142116
624.60 1.339228
624.70 1.060805
624.80 0.6706505
624.90 0.6369188
625.00 0.7061127
625.10 0.7855833
625.20 0.6673077
625.30 0.9849089
625.40 1.502136
625.50 0.86505
625.60 0.4950041
625.70 0.4678548
625.80 0.939499
625.90 1.071261
626.00 0.9599275
626.10 1.069141
626.20 1.336094
626.30 1.295491
626.40 0.7517029
626.50 0.603161
626.60 0.8561288
626.70 0.9143149
626.80 0.9072049
626.90 1.217572
627.00 1.362007
627.10 1.270261
627.20 0.9511461
627.30 0.9285816
627.40 1.243623
627.50 1.342777
627.60 1.220577
627.70 1.094478
627.80 1.303044
627.90 1.369928
628.00 1.275926
628.10 1.150238
628.20 1.18504
628.30 1.429694
628.40 1.334513
628.50 0.8541612
628.60 0.6210202
628.70 1.195475
628.80 1.401939
628.90 1.154395
629.00 1.207424
629.10 1.36564
629.20 1.34328
629.30 1.440064
629.40 1.481574
629.50 1.599654
629.60 1.436629
629.70 1.035712
629.80 1.710701
629.90 2.099712
630.00 1.906115
630.10 0.5268688
630.20 0.6305576
630.30 1.158944
630.40 2.134845
630.50 3.433498
630.60 2.056632
630.70 1.410104
630.80 1.549434
630.90 1.657593
631.00 1.693665
631.10 1.788354
631.20 2.332454
631.30 2.299401
631.40 1.97284
631.50 1.6892
631.60 1.505497
631.70 1.769646
631.80 1.998601
631.90 1.870135
632.00 1.603258
632.10 1.945944
632.20 2.184161
632.30 2.011704
632.40 1.906402
632.50 1.928666
632.60 1.830662
632.70 1.74609
632.80 1.762151
632.90 2.110196
633.00 2.313191
633.10 1.806965
633.20 1.52242
633.30 1.74976
633.40 2.276942
633.50 2.473399
633.60 2.284479
633.70 2.365677
633.80 2.422694
633.90 2.487516
634.00 2.288948
634.10 2.060579
634.20 2.524332
634.30 2.861312
634.40 2.589104
634.50 2.341505
634.60 2.569527
634.70 2.815427
634.80 2.828169
634.90 2.592825
635.00 2.682676
635.10 2.580075
635.20 2.292337
635.30 2.299613
635.40 2.386762
635.50 2.27186
635.60 2.195283
635.70 2.718289
635.80 2.849305
635.90 2.291634
636.00 2.096583
636.10 2.42251
636.20 2.949313
636.30 2.998666
636.40 2.587591
636.50 2.015082
636.60 1.81864
636.70 1.712285
636.80 1.951182
636.90 2.245083
637.00 2.449663
637.10 2.717471
637.20 2.689768
637.30 2.412432
637.40 2.311599
637.50 2.304217
637.60 2.430404
637.70 2.524075
637.80 2.397238
637.90 2.252251
638.00 2.138564
638.10 2.196803
638.20 1.985313
638.30 1.945227
638.40 2.236315
638.50 2.246772
638.60 2.403536
638.70 2.548715
638.80 2.518858
638.90 2.407011
639.00 2.32027
639.10 2.407664
639.20 2.322264
639.30 2.299692
639.40 2.544649
639.50 2.633988
639.60 2.50033
639.70 2.318211
639.80 2.363559
639.90 2.587305
640.00 2.909916
640.10 3.093163
640.20 2.815286
640.30 2.582855
640.40 2.692171
640.50 2.940377
640.60 3.054647
640.70 2.935841
640.80 2.749217
640.90 2.650264
641.00 2.482898
641.10 2.525342
641.20 2.65516
641.30 2.717458
641.40 2.81294
641.50 2.744324
641.60 2.562111
641.70 2.506241
641.80 2.774883
641.90 2.829165
642.00 2.813455
642.10 2.76647
642.20 2.490826
642.30 2.236947
642.40 2.158299
642.50 2.368834
642.60 2.347416
642.70 2.281305
642.80 2.434991
642.90 2.762691
643.00 2.918805
643.10 2.742265
643.20 2.753979
643.30 2.768155
643.40 2.914443
643.50 2.685058
643.60 2.360571
643.70 2.50033
643.80 2.797804
643.90 3.033201
644.00 2.955053
644.10 2.734284
644.20 2.678583
644.30 2.81978
644.40 2.882354
644.50 2.635375
644.60 2.514219
644.70 2.838535
644.80 2.820395
644.90 2.45755
645.00 2.380987
645.10 2.568579
645.20 2.687197
645.30 2.78261
645.40 2.683833
645.50 2.620546
645.60 2.902757
645.70 2.967822
645.80 2.765762
645.90 2.461232
646.00 2.547539
646.10 2.983089
646.20 3.00428
646.30 2.543611
646.40 2.563195
646.50 2.875628
646.60 2.769773
646.70 2.448263
646.80 2.560527
646.90 2.897057
647.00 3.096504
647.10 2.994039
647.20 2.915339
647.30 3.245268
647.40 3.652718
647.50 3.468936
647.60 2.938119
647.70 2.785252
647.80 2.871039
647.90 2.972507
648.00 2.845959
648.10 2.724283
648.20 2.915419
648.30 2.954217
648.40 2.849524
648.50 2.795835
648.60 2.717347
648.70 2.848634
648.80 2.922411
648.90 2.78869
649.00 2.950865
649.10 3.023828
649.20 3.011163
649.30 3.124567
649.40 3.072564
649.50 3.092404
649.60 3.237843
649.70 3.40518
649.80 3.155334
649.90 3.085875
650.00 3.68305
650.10 3.789785
650.20 3.759857
650.30 3.743188
650.40 3.780629
650.50 3.629857
650.60 3.436814
650.70 3.851741
650.80 4.056991
650.90 4.018023
651.00 4.092671
651.10 4.333378
651.20 4.566467
651.30 4.55364
651.40 4.264891
651.50 4.090085
651.60 4.222686
651.70 4.238173
651.80 4.245381
651.90 4.502443
652.00 4.897204
652.10 4.894844
652.20 4.921825
652.30 4.983655
652.40 5.147345
652.50 5.355109
652.60 5.385509
652.70 5.704009
652.80 6.005758
652.90 6.07998
653.00 6.167108
653.10 6.156688
653.20 6.110627
653.30 5.813983
653.40 5.837849
653.50 6.31572
653.60 6.382155
653.70 6.272794
653.80 6.389756
653.90 6.735937
654.00 7.01085
654.10 7.094438
654.20 7.049356
654.30 6.74162
654.40 6.516675
654.50 6.352058
654.60 6.066396
654.70 5.90435
654.80 5.975175
654.90 6.103958
655.00 5.902043
655.10 5.456461
655.20 5.431
655.30 5.658531
655.40 5.473536
655.50 5.268486
655.60 5.393077
655.70 5.470569
655.80 5.531124
655.90 5.797755
656.00 6.285604
656.10 6.700782
656.20 8.773533
656.30 12.18344
656.40 14.26433
656.50 13.41295
656.60 10.36146
656.70 7.346131
656.80 5.342732
656.90 4.723061
657.00 4.671797
657.10 4.437372
657.20 4.360877
657.30 4.420084
657.40 4.263237
657.50 4.179901
657.60 4.483241
657.70 4.771206
657.80 4.340323
657.90 3.91247
658.00 3.967778
658.10 3.888405
658.20 3.746441
658.30 3.738551
658.40 3.788056
658.50 3.903729
658.60 4.230815
658.70 4.911286
658.80 5.084617
658.90 4.731236
659.00 4.352753
659.10 4.20936
659.20 4.33332
659.30 4.453929
659.40 4.381635
659.50 4.131809
659.60 4.121765
659.70 4.258675
659.80 4.158792
659.90 3.986756
660.00 4.014417
660.10 4.027164
660.20 4.084762
660.30 4.194917
660.40 4.25099
660.50 4.311163
660.60 4.369804
660.70 4.327117
660.80 4.118428
660.90 4.131955
661.00 4.21404
661.10 4.282898
661.20 4.318116
661.30 4.421776
661.40 4.541255
661.50 4.515828
661.60 4.237706
661.70 4.077302
661.80 4.368359
661.90 4.414228
662.00 4.150486
662.10 3.932227
662.20 3.93672
662.30 3.982614
662.40 3.856524
662.50 3.841934
662.60 3.57716
662.70 3.216217
662.80 3.34765
662.90 3.375389
663.00 3.39458
663.10 3.575152
663.20 3.865943
663.30 4.062019
663.40 3.93396
663.50 3.664988
663.60 3.657062
663.70 3.688532
663.80 3.462307
663.90 3.345844
664.00 3.312628
664.10 3.453103
664.20 3.562231
664.30 3.765768
664.40 3.841579
664.50 3.80353
664.60 3.732857
664.70 3.642891
664.80 3.731863
664.90 3.797054
665.00 3.730388
665.10 3.505827
665.20 2.920862
665.30 2.638025
665.40 2.823459
665.50 2.861281
665.60 3.00702
665.70 3.021515
665.80 2.767449
665.90 2.589943
666.00 2.828515
666.10 3.088428
666.20 3.200609
666.30 3.250436
666.40 3.367652
666.50 3.431393
666.60 3.398163
666.70 3.403829
666.80 3.440839
666.90 3.608565
667.00 3.752749
667.10 3.654991
667.20 3.552573
667.30 3.370333
667.40 3.199797
667.50 3.390609
667.60 3.567487
667.70 3.851474
667.80 3.937672
667.90 3.944744
668.00 3.720033
668.10 3.529602
668.20 3.330219
668.30 2.85175
668.40 2.890833
668.50 3.031226
668.60 3.162897
668.70 3.042588
668.80 2.777899
668.90 2.741576
669.00 2.737942
669.10 2.955186
669.20 3.265396
669.30 3.213848
669.40 2.771722
669.50 2.637874
669.60 2.958713
669.70 3.351296
669.80 3.447065
669.90 3.120814
670.00 2.950912
670.10 3.200274
670.20 3.501032
670.30 3.606824
670.40 3.565705
670.50 3.580645
670.60 3.825553
670.70 3.950087
670.80 3.938239
670.90 3.642459
671.00 3.465204
671.10 3.67361
671.20 3.917742
671.30 3.950524
671.40 3.574714
671.50 3.175706
671.60 2.911568
671.70 2.796374
671.80 2.669743
671.90 2.514941
672.00 2.616083
672.10 2.779937
672.20 2.86532
672.30 2.880709
672.40 2.879226
672.50 2.982825
672.60 2.964672
672.70 3.019312
672.80 3.257384
672.90 3.359262
673.00 3.172726
673.10 2.994397
673.20 3.070812
673.30 3.302837
673.40 3.349375
673.50 3.188825
673.60 3.095252
673.70 3.08449
673.80 3.080519
673.90 3.254014
674.00 3.348811
674.10 3.330804
674.20 3.330972
674.30 3.451003
674.40 3.556983
674.50 3.436059
674.60 3.412825
674.70 3.402914
674.80 3.172603
674.90 2.890951
675.00 2.83591
675.10 3.051966
675.20 3.183873
675.30 3.108333
675.40 2.966681
675.50 3.196532
675.60 3.375362
675.70 3.437041
675.80 3.444654
675.90 3.277356
676.00 3.314224
676.10 3.567422
676.20 3.579047
676.30 3.611098
676.40 3.532261
676.50 3.421201
676.60 3.923854
676.70 4.144
676.80 4.008324
676.90 4.073185
677.00 4.238066
677.10 4.606155
677.20 4.633829
677.30 4.30135
677.40 4.125914
677.50 4.212742
677.60 4.22129
677.70 4.197206
677.80 4.156786
677.90 4.24791
678.00 4.342713
678.10 4.021918
678.20 3.604176
678.30 3.319266
678.40 3.166559
678.50 3.062193
678.60 2.84311
678.70 2.743781
678.80 2.860186
678.90 3.216944
679.00 3.535639
679.10 3.681227
679.20 3.615992
679.30 3.205323
679.40 3.064799
679.50 3.320452
679.60 3.559196
679.70 3.629039
679.80 3.560176
679.90 3.532638
680.00 3.609521
680.10 3.823062
680.20 3.879374
680.30 3.775808
680.40 3.759485
680.50 3.7274
680.60 3.812962
680.70 3.992899
680.80 4.010378
680.90 3.919248
681.00 3.750237
681.10 3.85253
681.20 4.185129
681.30 4.314323
681.40 4.150535
681.50 3.805631
681.60 3.637775
681.70 3.774134
681.80 3.836512
681.90 3.762323
682.00 3.739695
682.10 3.700265
682.20 3.749367
682.30 3.787809
682.40 3.704533
682.50 3.693033
682.60 3.890588
682.70 4.173274
682.80 4.224171
682.90 4.102717
683.00 3.93022
683.10 3.742628
683.20 3.969089
683.30 4.161427
683.40 4.044484
683.50 4.183995
683.60 4.563762
683.70 4.772006
683.80 4.614539
683.90 4.506373
684.00 4.349346
684.10 4.357287
684.20 4.627689
684.30 4.669445
684.40 4.57725
684.50 4.435575
684.60 4.340199
684.70 4.325724
684.80 4.347144
684.90 4.326575
685.00 4.19587
685.10 3.978406
685.20 3.91926
685.30 3.830043
685.40 3.750219
685.50 3.796654
685.60 3.941184
685.70 4.107926
685.80 4.018875
685.90 3.918168
686.00 3.960017
686.10 4.011281
686.20 3.954502
686.30 4.0105
686.40 4.263229
686.50 4.39964
686.60 4.108614
686.70 3.703994
686.80 4.051706
686.90 4.393735
687.00 3.712568
687.10 3.466386
687.20 3.976616
687.30 4.512766
687.40 4.778928
687.50 4.763197
687.60 4.931748
687.70 4.952322
687.80 4.795206
687.90 4.856823
688.00 4.821157
688.10 4.7616
688.20 4.876079
688.30 4.915876
688.40 4.837337
688.50 4.664695
688.60 4.788837
688.70 5.117896
688.80 5.03007
688.90 5.031836
689.00 4.937321
689.10 4.4953
689.20 4.189673
689.30 4.093559
689.40 4.520797
689.50 4.85914
689.60 4.727489
689.70 4.739544
689.80 4.75916
689.90 4.762515
690.00 4.697883
690.10 4.491307
690.20 4.257669
690.30 4.177012
690.40 4.467646
690.50 4.842184
690.60 4.822736
690.70 4.901518
690.80 5.397217
690.90 5.523698
691.00 5.224651
691.10 5.158464
691.20 5.29347
691.30 5.47807
691.40 5.303515
691.50 5.30586
691.60 5.57723
691.70 5.49274
691.80 5.11321
691.90 4.780952
692.00 4.620748
692.10 4.707795
692.20 4.798004
692.30 4.883602
692.40 5.411159
692.50 5.687538
692.60 5.621768
692.70 5.942057
692.80 6.05525
692.90 5.865501
693.00 5.573557
693.10 5.500537
693.20 5.865663
693.30 6.1987
693.40 6.478409
693.50 6.381617
693.60 6.234036
693.70 6.457791
693.80 6.479007
693.90 6.364217
694.00 6.169941
694.10 6.083408
694.20 6.303994
694.30 6.622737
694.40 7.321721
694.50 7.765528
694.60 7.837219
694.70 8.261818
694.80 8.641863
694.90 8.740697
695.00 8.644108
695.10 8.333146
695.20 8.066463
695.30 7.755207
695.40 7.485644
695.50 7.304525
695.60 7.386322
695.70 7.535452
695.80 7.408253
695.90 7.279475
696.00 7.256507
696.10 7.424919
696.20 7.472481
696.30 7.445198
696.40 7.741016
696.50 8.141652
696.60 8.336935
696.70 8.347692
696.80 8.4525
696.90 8.528053
697.00 8.366732
697.10 8.002252
697.20 7.753073
697.30 8.119338
697.40 8.126477
697.50 7.767256
697.60 8.030631
697.70 8.635664
697.80 9.286081
697.90 9.531601
698.00 9.249189
698.10 8.893905
698.20 8.868334
698.30 9.223596
698.40 9.371608
698.50 9.124591
698.60 9.127192
698.70 9.26998
698.80 9.323235
698.90 9.160306
699.00 9.151188
699.10 9.142829
699.20 8.85651
699.30 8.559301
699.40 8.751948
699.50 9.208317
699.60 9.263129
699.70 9.058828
699.80 8.731162
699.90 8.562911
700.00 8.710296
700.10 8.887219
700.20 8.931518
700.30 9.020412
700.40 9.069063
700.50 8.937092
700.60 8.834635
700.70 9.019186
700.80 9.374675
700.90 9.574947
701.00 9.87685
701.10 10.1742
701.20 10.3116
701.30 10.20927
701.40 9.777066
701.50 9.715802
701.60 10.155
701.70 10.42555
701.80 10.4321
701.90 10.30236
702.00 10.54246
702.10 11.18715
702.20 11.30849
702.30 10.8939
702.40 10.44272
702.50 10.01377
702.60 10.0616
702.70 10.46193
702.80 11.30011
702.90 12.17591
703.00 12.43466
703.10 12.48104
703.20 12.3138
703.30 12.20719
703.40 12.36228
703.50 12.65908
703.60 13.19699
703.70 13.72272
703.80 13.99405
703.90 13.92161
704.00 13.48047
704.10 13.344
704.20 13.60697
704.30 13.88075
704.40 14.18411
704.50 14.39251
704.60 14.50521
704.70 14.50821
704.80 14.33345
704.90 14.32041
705.00 14.42654
705.10 14.95455
705.20 15.30948
705.30 14.59704
705.40 12.91714
705.50 10.42007
705.60 7.735269
705.70 5.748164
705.80 4.983649
705.90 4.910189
706.00 4.798632
706.10 4.605219
706.20 4.487472
706.30 4.482041
706.40 4.605068
706.50 4.691379
706.60 4.848012
706.70 4.989922
706.80 5.106168
706.90 5.312832
707.00 5.447126
707.10 5.5107
707.20 5.643651
707.30 5.803352
707.40 5.750876
707.50 5.734792
707.60 5.721902
707.70 5.596194
707.80 5.544954
707.90 5.67131
708.00 6.010338
708.10 6.335202
708.20 6.408446
708.30 6.475452
708.40 6.514867
708.50 6.473229
708.60 6.506113
708.70 6.47494
708.80 6.159786
708.90 5.334977
709.00 4.259968
709.10 3.694318
709.20 3.834514
709.30 4.034366
709.40 4.011661
709.50 3.919413
709.60 3.82596
709.70 3.970037
709.80 4.219377
709.90 4.244436
710.00 4.07116
710.10 4.046865
710.20 4.121045
710.30 4.143087
710.40 4.26525
710.50 4.411808
710.60 4.517481
710.70 4.430818
710.80 4.455492
710.90 4.895253
711.00 5.280697
711.10 5.345547
711.20 5.218426
711.30 5.045583
711.40 5.085443
711.50 5.316765
711.60 5.482947
711.70 5.409798
711.80 5.294456
711.90 5.519714
712.00 6.000939
712.10 6.298359
712.20 6.261381
712.30 6.06236
712.40 5.805045
712.50 5.437362
712.60 5.004793
712.70 4.569445
712.80 4.157448
712.90 3.652442
713.00 3.412579
713.10 3.590799
713.20 3.734217
713.30 3.754907
713.40 3.702251
713.50 3.715487
713.60 3.772496
713.70 3.6836
713.80 3.515328
713.90 3.616636
714.00 3.875053
714.10 3.916462
714.20 3.988064
714.30 4.051003
714.40 4.00221
714.50 3.96155
714.60 3.993938
714.70 4.212306
714.80 4.390486
714.90 4.356617
715.00 4.2343
715.10 4.036633
715.20 3.970357
715.30 4.018934
715.40 4.217037
715.50 4.59266
715.60 4.979759
715.70 5.164499
715.80 4.970697
715.90 4.534103
716.00 4.495552
716.10 4.762751
716.20 4.533348
716.30 4.092272
716.40 3.894517
716.50 4.186617
716.60 4.841076
716.70 5.029423
716.80 4.663894
716.90 4.380165
717.00 4.431926
717.10 4.699047
717.20 4.891631
717.30 4.991315
717.40 4.943985
717.50 4.920141
717.60 5.02667
717.70 4.964242
717.80 4.960655
717.90 4.909868
718.00 4.980938
718.10 5.38508
718.20 5.633997
718.30 5.718359
718.40 5.666342
718.50 5.650696
718.60 5.857747
718.70 6.015635
718.80 6.087546
718.90 6.244111
719.00 6.501576
719.10 6.647188
719.20 6.621326
719.30 6.544829
719.40 6.451652
719.50 6.543589
719.60 6.485748
719.70 6.193464
719.80 5.920312
719.90 5.398721
720.00 5.046642
720.10 5.174723
720.20 5.459817
720.30 5.761879
720.40 5.681041
720.50 5.481114
720.60 5.566956
720.70 5.667578
720.80 5.669968
720.90 5.612092
721.00 5.582239
721.10 5.614695
721.20 5.728869
721.30 5.938091
721.40 6.316448
721.50 6.541095
721.60 6.296226
721.70 6.016895
721.80 6.161122
721.90 6.493313
722.00 6.550002
722.10 6.452921
722.20 6.423665
722.30 6.563425
722.40 6.927928
722.50 7.162471
722.60 7.197841
722.70 7.421904
722.80 7.7729
722.90 7.858651
723.00 7.58438
723.10 7.206585
723.20 7.107741
723.30 7.310136
723.40 7.497835
723.50 7.708557
723.60 7.835313
723.70 7.826377
723.80 7.992796
723.90 8.377127
724.00 8.451238
724.10 8.074326
724.20 7.613846
724.30 7.611003
724.40 8.453911
724.50 9.004695
724.60 8.739903
724.70 8.819245
724.80 9.339646
724.90 9.492884
725.00 9.538361
725.10 9.84203
725.20 10.21062
725.30 10.26932
725.40 10.13
725.50 10.22955
725.60 10.58099
725.70 10.97583
725.80 10.89819
725.90 10.48179
726.00 10.39821
726.10 10.51366
726.20 10.78384
726.30 11.29321
726.40 11.74992
726.50 12.22707
726.60 12.47548
726.70 12.15777
726.80 12.06184
726.90 12.17572
727.00 11.92971
727.10 11.59143
727.20 11.24273
727.30 10.8502
727.40 10.76672
727.50 11.39855
727.60 12.50849
727.70 13.19167
727.80 11.99413
727.90 10.46823
728.00 11.22695
728.10 12.48936
728.20 12.47861
728.30 12.02899
728.40 11.99119
728.50 12.58864
728.60 13.11879
728.70 13.01338
728.80 12.98758
728.90 13.54791
729.00 14.04522
729.10 14.13475
729.20 14.06115
729.30 14.06609
729.40 14.19019
729.50 14.55203
729.60 14.96105
729.70 15.59882
729.80 16.06657
729.90 15.70347
730.00 15.38284
730.10 15.74363
730.20 16.26405
730.30 16.61716
730.40 17.08971
730.50 17.46556
730.60 17.43562
730.70 17.23101
730.80 17.30698
730.90 17.96991
731.00 18.48592
731.10 18.36694
731.20 17.99966
731.30 17.99295
731.40 18.71502
731.50 19.58551
731.60 19.75395
731.70 19.31907
731.80 19.25768
731.90 19.65709
732.00 20.24064
732.10 20.7132
732.20 20.78101
732.30 20.72054
732.40 20.72238
732.50 20.63099
732.60 20.40705
732.70 20.14642
732.80 20.29661
732.90 20.94086
733.00 21.12656
733.10 21.17051
733.20 21.18406
733.30 20.9718
733.40 20.72415
733.50 20.53996
733.60 21.19527
733.70 22.42121
733.80 23.17722
733.90 23.66314
734.00 24.20985
734.10 24.93982
734.20 25.37536
734.30 24.40679
734.40 23.08323
734.50 22.1932
734.60 21.40066
734.70 20.82189
734.80 20.59264
734.90 21.08922
735.00 21.98311
735.10 22.6918
735.20 23.09681
735.30 23.21925
735.40 23.11571
735.50 22.71647
735.60 22.15446
735.70 21.52838
735.80 21.3737
735.90 22.14332
736.00 22.9475
736.10 23.01944
736.20 22.91767
736.30 23.2083
736.40 23.92049
736.50 24.86494
736.60 25.41302
736.70 25.33626
736.80 25.48517
736.90 26.24447
737.00 26.86815
737.10 26.59864
737.20 26.10932
737.30 25.94177
737.40 25.62551
737.50 24.92332
737.60 23.95365
737.70 23.56356
737.80 23.92655
737.90 24.62475
738.00 25.15176
738.10 25.27262
738.20 25.28844
738.30 25.30526
738.40 25.308
738.50 25.22737
738.60 25.20418
738.70 25.52875
738.80 26.13427
738.90 27.08673
739.00 27.98272
739.10 28.29864
739.20 28.05617
739.30 27.00448
739.40 25.4815
739.50 24.14218
739.60 23.25913
739.70 23.22909
739.80 23.89009
739.90 24.92634
740.00 25.73584
740.10 25.90938
740.20 26.19266
740.30 26.93724
740.40 27.13172
740.50 26.09509
740.60 24.07715
740.70 23.00344
740.80 23.40172
740.90 23.87354
741.00 24.48291
741.10 25.19615
741.20 25.60275
741.30 25.87795
741.40 26.1991
741.50 26.38012
741.60 26.11132
741.70 25.37642
741.80 24.42992
741.90 23.65856
742.00 23.01309
742.10 22.7249
742.20 22.98519
742.30 23.56755
742.40 24.25713
742.50 25.04281
742.60 25.5845
742.70 25.79127
742.80 26.01824
742.90 26.10526
743.00 26.2889
743.10 26.51704
743.20 26.27876
743.30 26.01971
743.40 25.71792
743.50 24.83173
743.60 23.68526
743.70 22.82943
743.80 22.85771
743.90 23.84044
744.00 24.84027
744.10 25.22649
744.20 25.16285
744.30 24.51612
744.40 23.72696
744.50 23.37425
744.60 23.14611
744.70 23.1644
744.80 23.10069
744.90 22.70134
745.00 22.79679
745.10 23.66035
745.20 24.60086
745.30 24.97166
745.40 24.81501
745.50 24.39475
745.60 24.05147
745.70 23.80101
745.80 23.58347
745.90 23.58236
746.00 23.63735
746.10 23.83719
746.20 24.10363
746.30 24.52293
746.40 25.05105
746.50 25.3254
746.60 25.47675
746.70 25.52997
746.80 25.36283
746.90 24.95769
747.00 24.83249
747.10 25.50548
747.20 26.48661
747.30 26.46989
747.40 25.20386
747.50 23.87495
747.60 23.41011
747.70 23.92675
747.80 24.85838
747.90 25.47721
748.00 25.54619
748.10 25.62846
748.20 25.96754
748.30 26.28285
748.40 26.93706
748.50 27.7332
748.60 27.77873
748.70 27.25961
748.80 26.72454
748.90 26.57035
749.00 26.90895
749.10 27.00738
749.20 26.70153
749.30 26.35453
749.40 25.82947
749.50 25.28625
749.60 25.09261
749.70 25.314
749.80 25.89387
749.90 26.66551
750.00 27.61707
750.10 28.27483
750.20 28.32014
750.30 28.37488
750.40 28.56902
750.50 28.35388
750.60 27.67768
750.70 27.03774
750.80 26.91196
750.90 27.51063
751.00 28.57049
751.10 29.46653
751.20 29.71039
751.30 29.09533
751.40 28.23547
751.50 28.02411
751.60 28.11122
751.70 28.30029
751.80 28.49346
751.90 28.35512
752.00 28.12695
752.10 28.04111
752.20 27.87422
752.30 28.04014
752.40 29.01494
752.50 29.45756
752.60 29.16738
752.70 28.74219
752.80 27.83679
752.90 27.39915
753.00 27.87552
753.10 28.90839
753.20 30.1283
753.30 30.57603
753.40 30.01258
753.50 29.28202
753.60 28.88293
753.70 29.03507
753.80 30.01838
753.90 31.3646
754.00 32.51899
754.10 33.06858
754.20 32.80145
754.30 32.35263
754.40 32.41308
754.50 32.74505
754.60 32.99796
754.70 32.84249
754.80 32.23229
754.90 31.6386
755.00 31.27234
755.10 31.47096
755.20 32.25935
755.30 32.7385
755.40 32.56445
755.50 32.185
755.60 32.07484
755.70 32.208
755.80 32.46661
755.90 33.07095
756.00 33.76665
756.10 34.23048
756.20 34.16241
756.30 33.69671
756.40 33.46372
756.50 32.99797
756.60 32.2858
756.70 31.8245
756.80 31.28818
756.90 30.67044
757.00 30.23704
757.10 30.43422
757.20 31.79848
757.30 33.96775
757.40 35.30789
757.50 34.85078
757.60 33.8642
757.70 33.28445
757.80 32.63142
757.90 32.13748
758.00 32.37234
758.10 33.40346
758.20 34.90087
758.30 35.96114
758.40 36.18675
758.50 36.00826
758.60 35.41528
758.70 33.88857
758.80 31.13007
758.90 27.19192
759.00 22.9014
759.10 19.23771
759.20 16.53369
759.30 15.34385
759.40 15.82662
759.50 16.91085
759.60 17.7977
759.70 17.99866
759.80 17.40464
759.90 17.61126
760.00 18.99414
760.10 19.82273
760.20 19.35103
760.30 18.1752
760.40 17.65111
760.50 18.39604
760.60 18.91043
760.70 18.61143
760.80 18.37724
760.90 18.51052
761.00 18.85581
761.10 19.36299
761.20 19.95133
761.30 20.71839
761.40 21.70295
761.50 22.25163
761.60 22.07642
761.70 21.95834
761.80 22.37391
761.90 23.09357
762.00 23.92724
762.10 24.0822
762.20 23.16945
762.30 22.14997
762.40 21.61646
762.50 21.37723
762.60 20.88391
762.70 19.65738
762.80 17.90394
762.90 15.76305
763.00 13.6616
763.10 12.43682
763.20 12.55148
763.30 13.36002
763.40 13.90842
763.50 13.90406
763.60 13.4165
763.70 13.14853
763.80 13.51781
763.90 13.7254
764.00 13.46841
764.10 13.14485
764.20 12.92734
764.30 13.07218
764.40 13.40443
764.50 13.53634
764.60 13.10665
764.70 12.44064
764.80 12.26767
764.90 12.37939
765.00 12.29911
765.10 11.97053
765.20 11.64859
765.30 11.7279
765.40 11.80832
765.50 11.12476
765.60 9.873057
765.70 9.047455
765.80 8.911156
765.90 8.907086
766.00 8.573755
766.10 7.850206
766.20 7.03442
766.30 6.144467
766.40 5.442906
766.50 4.994718
766.60 4.593316
766.70 4.521788
766.80 4.758883
766.90 5.17624
767.00 5.726723
767.10 6.168917
767.20 6.439898
767.30 6.572646
767.40 6.745911
767.50 7.060004
767.60 7.453588
767.70 7.866632
767.80 8.051195
767.90 8.086465
768.00 8.328021
768.10 8.74712
768.20 9.007056
768.30 9.044677
768.40 9.194422
768.50 9.436906
768.60 9.542801
768.70 9.44383
768.80 9.186954
768.90 8.994331
769.00 9.052631
769.10 9.298362
769.20 9.312544
769.30 9.055156
769.40 8.699275
769.50 8.14681
769.60 7.568575
769.70 6.950965
769.80 6.243229
769.90 5.492643
770.00 4.700918
770.10 4.526466
770.20 5.063409
770.30 5.732517
770.40 6.406855
770.50 6.979594
770.60 7.423484
770.70 7.802078
770.80 8.139848
770.90 8.619184
771.00 9.200627
771.10 9.743754
771.20 9.937517
771.30 9.947093
771.40 10.58135
771.50 11.12683
771.60 10.87003
771.70 10.81294
771.80 11.03551
771.90 11.21718
772.00 11.76769
772.10 12.09341
772.20 12.15743
772.30 12.72443
772.40 13.21774
772.50 13.40854
772.60 13.63369
772.70 13.68038
772.80 13.64532
772.90 14.0191
773.00 14.72175
773.10 15.50678
773.20 16.08464
773.30 16.196
773.40 16.20736
773.50 16.25741
773.60 16.20395
773.70 16.3887
773.80 16.97307
773.90 17.56614
774.00 17.95161
774.10 18.04004
774.20 17.81159
774.30 17.52954
774.40 16.99071
774.50 15.79598
774.60 14.53365
774.70 14.06857
774.80 14.00615
774.90 13.85211
775.00 13.38758
775.10 12.41433
775.20 11.862
775.30 12.12131
775.40 12.58077
775.50 12.96263
775.60 13.10354
775.70 13.04084
775.80 13.06067
775.90 13.40741
776.00 13.74583
776.10 13.88167
776.20 13.88668
776.30 13.58708
776.40 13.43119
776.50 13.73835
776.60 13.96428
776.70 14.03792
776.80 14.5637
776.90 15.30273
777.00 15.69443
777.10 15.79648
777.20 15.77027
777.30 15.89233
777.40 16.35771
777.50 16.79248
777.60 16.88457
777.70 16.77519
777.80 16.47344
777.90 16.50752
778.00 17.049
778.10 17.37159
778.20 17.23102
778.30 16.39752
778.40 15.08609
778.50 14.22624
778.60 14.02323
778.70 14.07999
778.80 14.26193
778.90 14.4744
779.00 14.76498
779.10 15.5455
779.20 16.34222
779.30 16.74454
779.40 17.13548
779.50 17.32494
779.60 17.37225
779.70 17.29711
779.80 16.48464
779.90 15.45762
780.00 14.39178
780.10 13.12194
780.20 12.79372
780.30 13.78323
780.40 15.54749
780.50 17.66608
780.60 19.233
780.70 19.91188
780.80 20.27542
780.90 20.50186
781.00 20.34022
781.10 19.97237
781.20 19.77377
781.30 19.9471
781.40 20.69528
781.50 21.53557
781.60 21.83616
781.70 21.89709
781.80 22.03437
781.90 22.39954
782.00 22.46136
782.10 21.30016
782.20 19.73192
782.30 18.64652
782.40 18.10238
782.50 18.47549
782.60 19.07755
782.70 19.21491
782.80 18.87598
782.90 18.00251
783.00 16.82819
783.10 16.03781
783.20 16.01494
783.30 16.63456
783.40 17.45206
783.50 18.00826
783.60 18.30509
783.70 18.41153
783.80 18.53937
783.90 18.82366
784.00 18.88285
784.10 18.89833
784.20 19.13154
784.30 19.09251
784.40 18.98387
784.50 19.26499
784.60 19.83137
784.70 20.50766
784.80 20.85699
784.90 20.64972
785.00 19.97261
785.10 19.32498
785.20 19.44315
785.30 20.06262
785.40 20.56063
785.50 20.61404
785.60 20.4217
785.70 20.5066
785.80 20.68287
785.90 20.99741
786.00 21.25577
786.10 20.88657
786.20 20.46668
786.30 20.29716
786.40 19.98291
786.50 19.61267
786.60 19.33926
786.70 19.04915
786.80 18.79042
786.90 18.88599
787.00 19.347
787.10 19.72568
787.20 19.61564
787.30 18.85763
787.40 18.279
787.50 18.60445
787.60 19.3116
787.70 19.8668
787.80 20.38184
787.90 21.20575
788.00 21.80854
788.10 21.9453
788.20 22.11235
788.30 22.16015
788.40 22.32848
788.50 22.67445
788.60 22.86464
788.70 23.17437
788.80 23.49974
788.90 23.62657
789.00 23.60607
789.10 23.38688
789.20 23.16857
789.30 23.38691
789.40 24.03711
789.50 24.47808
789.60 24.16336
789.70 23.20252
789.80 22.11683
789.90 21.11753
790.00 20.26596
790.10 19.74632
790.20 19.64347
790.30 20.10885
790.40 21.08672
790.50 22.0199
790.60 22.59998
790.70 22.67478
790.80 22.03607
790.90 20.95436
791.00 20.06477
791.10 19.34262
791.20 18.70429
791.30 18.60403
791.40 18.97154
791.50 19.70389
791.60 20.21097
791.70 20.07844
791.80 19.9511
791.90 19.6404
792.00 18.85955
792.10 18.27174
792.20 18.45304
792.30 19.18042
792.40 19.69431
792.50 19.99594
792.60 20.354
792.70 20.60237
792.80 20.85169
792.90 21.00948
793.00 20.99694
793.10 21.227
793.20 21.86454
793.30 22.98374
793.40 24.07285
793.50 24.49506
793.60 24.5265
793.70 24.37083
793.80 24.3326
793.90 24.36225
794.00 23.45754
794.10 21.74832
794.20 20.31093
794.30 19.63761
794.40 19.9677
794.50 20.77391
794.60 21.14603
794.70 20.54269
794.80 18.75668
794.90 17.04787
795.00 17.16289
795.10 18.98777
795.20 20.98327
795.30 22.45429
795.40 23.65512
795.50 24.5296
795.60 25.02244
795.70 25.26077
795.80 25.12049
795.90 24.59808
796.00 24.06362
796.10 23.33409
796.20 22.10046
796.30 21.3464
796.40 21.86653
796.50 22.74897
796.60 23.15927
796.70 23.3692
796.80 23.63822
796.90 24.38696
797.00 25.70065
797.10 26.63479
797.20 26.93411
797.30 27.10685
797.40 26.76204
797.50 25.58895
797.60 24.38332
797.70 23.69723
797.80 23.34765
797.90 23.14778
798.00 23.05942
798.10 23.18911
798.20 23.47037
798.30 23.5087
798.40 23.14032
798.50 22.6021
798.60 22.11022
798.70 21.70683
798.80 21.48492
798.90 21.55742
799.00 21.96457
799.10 22.64354
799.20 23.57996
799.30 24.69437
799.40 25.18237
799.50 24.34152
799.60 23.25003
799.70 23.17869
799.80 23.66548
799.90 23.95128
800.00 24.07002
800.10 24.42482
800.20 24.99592
800.30 25.53142
800.40 26.08369
800.50 26.35695
800.60 26.31904
800.70 26.53017
800.80 27.17868
800.90 27.99502
801.00 28.3837
801.10 28.27603
801.20 28.1711
801.30 28.28202
801.40 28.58035
801.50 28.62249
801.60 28.43097
801.70 28.81421
801.80 29.7362
801.90 30.46421
802.00 30.75611
802.10 30.6519
802.20 30.29111
802.30 29.9414
802.40 29.92942
802.50 30.33501
802.60 31.04916
802.70 32.11607
802.80 32.9608
802.90 33.23807
803.00 33.63252
803.10 34.14514
803.20 34.30293
803.30 34.17126
803.40 34.00275
803.50 34.03263
803.60 34.39707
803.70 34.68914
803.80 34.47942
803.90 34.23101
804.00 34.15153
804.10 33.96659
804.20 34.0477
804.30 34.60741
804.40 35.3534
804.50 36.01785
804.60 36.07754
804.70 35.53458
804.80 35.29225
804.90 35.6362
805.00 36.48727
805.10 37.77632
805.20 39.01428
805.30 40.14125
805.40 40.94044
805.50 41.12889
805.60 41.16941
805.70 41.26265
805.80 41.3915
805.90 41.47417
806.00 41.46872
806.10 41.91111
806.20 42.67492
806.30 42.91701
806.40 42.49923
806.50 42.09899
806.60 41.97614
806.70 42.18186
806.80 42.8259
806.90 43.25592
807.00 42.95811
807.10 42.49738
807.20 42.64207
807.30 43.51228
807.40 44.69609
807.50 45.65026
807.60 46.09157
807.70 46.26022
807.80 46.62072
807.90 47.42369
808.00 48.10079
808.10 47.96397
808.20 47.79247
808.30 48.42727
808.40 49.15531
808.50 49.74183
808.60 50.51567
808.70 50.78293
808.80 50.32472
808.90 49.6556
809.00 49.01795
809.10 49.01053
809.20 49.92268
809.30 51.12981
809.40 51.84957
809.50 51.75395
809.60 51.40132
809.70 50.95185
809.80 50.27568
809.90 49.95083
810.00 50.03696
810.10 50.20538
810.20 50.50841
810.30 50.63441
810.40 50.25601
810.50 49.88299
810.60 50.27623
810.70 51.58163
810.80 53.05748
810.90 54.07554
811.00 54.77273
811.10 55.05206
811.20 54.84789
811.30 54.77634
811.40 55.15133
811.50 55.67467
811.60 55.79009
811.70 55.13406
811.80 54.27872
811.90 54.42415
812.00 55.8033
812.10 57.30062
812.20 58.14897
812.30 58.35677
812.40 58.15428
812.50 58.16645
812.60 58.51503
812.70 58.83983
812.80 59.3839
812.90 60.23102
813.00 60.70706
813.10 60.52359
813.20 60.18319
813.30 60.15613
813.40 60.63449
813.50 61.5113
813.60 62.0984
813.70 62.1304
813.80 62.3205
813.90 62.99115
814.00 63.65466
814.10 63.66438
814.20 62.68386
814.30 61.22953
814.40 59.86809
814.50 58.9829
814.60 59.11145
814.70 59.80457
814.80 60.07206
814.90 59.73938
815.00 59.40741
815.10 59.75241
815.20 60.69255
815.30 61.68928
815.40 62.38961
815.50 62.30496
815.60 61.59325
815.70 61.24428
815.80 61.35218
815.90 61.3348
816.00 61.06782
816.10 60.58325
816.20 60.03829
816.30 59.99218
816.40 60.87008
816.50 62.31586
816.60 63.51267
816.70 64.00025
816.80 64.1692
816.90 64.75204
817.00 65.59976
817.10 66.32072
817.20 66.53378
817.30 66.03473
817.40 65.58379
817.50 65.14772
817.60 64.49184
817.70 63.75441
817.80 62.3717
817.90 60.74145
818.00 59.36508
818.10 56.99206
818.20 52.38249
818.30 45.46081
818.40 38.13432
818.50 34.29594
818.60 35.71613
818.70 40.91448
818.80 47.35121
818.90 52.25606
819.00 54.53934
819.10 54.91543
819.20 53.69938
819.30 50.31313
819.40 44.6615
819.50 37.97879
819.60 32.51248
819.70 30.48726
819.80 32.43597
819.90 36.71113
820.00 41.14892
820.10 44.95331
820.20 48.14109
820.30 50.92837
820.40 53.40051
820.50 54.84633
820.60 54.65224
820.70 52.66458
820.80 49.77153
820.90 48.36805
821.00 49.49937
821.10 51.74318
821.20 54.00607
821.30 55.44718
821.40 55.27303
821.50 54.24625
821.60 53.40063
821.70 52.92738
821.80 52.89342
821.90 53.47992
822.00 54.50041
822.10 55.69345
822.20 57.05152
822.30 58.24583
822.40 59.0831
822.50 59.61372
822.60 59.80082
822.70 59.93349
822.80 60.10573
822.90 60.42142
823.00 61.26924
823.10 62.51498
823.20 63.64656
823.30 64.01019
823.40 63.09352
823.50 61.47575
823.60 60.45483
823.70 60.70412
823.80 62.01284
823.90 63.67456
824.00 65.02229
824.10 65.93912
824.20 66.50545
824.30 66.4299
824.40 65.56869
824.50 64.62641
824.60 64.46808
824.70 65.45513
824.80 67.51551
824.90 69.4322
825.00 69.60354
825.10 67.90389
825.20 65.16029
825.30 62.31288
825.40 60.35282
825.50 59.45764
825.60 58.90285
825.70 58.29695
825.80 57.84419
825.90 58.12386
826.00 59.52029
826.10 61.44032
826.20 63.21667
826.30 64.51685
826.40 65.23225
826.50 65.75797
826.60 66.04512
826.70 66.06202
826.80 66.05395
826.90 65.67241
827.00 64.78388
827.10 63.4896
827.20 61.71305
827.30 59.61285
827.40 57.5883
827.50 56.58702
827.60 57.26133
827.70 58.63936
827.80 59.61572
827.90 60.06695
828.00 59.82375
828.10 58.98051
828.20 57.72982
828.30 56.1263
828.40 54.99209
828.50 55.01934
828.60 55.73538
828.70 56.31624
828.80 56.19666
828.90 54.62723
829.00 51.8945
829.10 49.80518
829.20 49.22805
829.30 49.91497
829.40 51.09501
829.50 51.75358
829.60 52.05514
829.70 52.70281
829.80 53.53962
829.90 53.88671
830.00 49.53888
830.10 48.89754
830.20 48.25619
830.30 47.81687
830.40 47.37755
830.50 47.53657
830.60 47.69559
830.70 48.22407
830.80 48.75256
830.90 50.04835
831.00 51.34415
831.10 52.28781
831.20 53.23146
831.30 52.68113
831.40 52.1308
831.50 52.23136
831.60 52.33192
831.70 53.11755
831.80 53.90318
831.90 54.11558
832.00 54.32799
832.10 54.61655
832.20 54.9051
832.30 55.09211
832.40 55.27912
832.50 54.96525
832.60 54.65138
832.70 54.3344
832.80 54.01742
832.90 54.67364
833.00 55.32985
833.10 54.66682
833.20 54.00379
833.30 54.68283
833.40 55.36187
833.50 54.15861
833.60 52.95535
833.70 52.34942
833.80 51.74349
833.90 52.85194
834.00 53.96039
834.10 54.32417
834.20 54.68795
834.30 55.57996
834.40 56.47197
834.50 53.85176
834.60 51.23156
834.70 49.89318
834.80 48.55481
834.90 49.65412
835.00 50.75343
835.10 52.14326
835.20 53.5331
835.30 53.72099
835.40 53.90888
835.50 53.71858
835.60 53.52829
835.70 54.2581
835.80 54.98792
835.90 55.18074
836.00 55.37357
836.10 55.6652
836.20 55.95683
836.30 55.96885
836.40 55.98087
836.50 55.74737
836.60 55.51387
836.70 56.16523
836.80 56.8166
836.90 58.62782
837.00 60.43904
837.10 58.99427
837.20 57.54949
837.30 57.13287
837.40 56.71624
837.50 54.80117
837.60 52.8861
837.70 52.21856
837.80 51.55102
837.90 52.67422
838.00 53.79743
838.10 55.26263
838.20 56.72783
838.30 55.52955
838.40 54.33127
838.50 54.06177
838.60 53.79227
838.70 52.294
838.80 50.79573
838.90 48.88602
839.00 46.97631
839.10 47.7123
839.20 48.44829
839.30 49.68467
839.40 50.92104
839.50 51.81554
839.60 52.71003
839.70 53.47074
839.80 54.23144
839.90 55.33081
840.00 56.43019
840.10 53.58293
840.20 55.6292
840.30 56.43086
840.40 56.45761
840.50 56.71374
840.60 57.55153
840.70 58.38862
840.80 58.56929
840.90 58.69924
841.00 60.65994
841.10 63.88599
841.20 65.29768
841.30 61.85186
841.40 58.47871
841.50 56.83233
841.60 55.16746
841.70 57.23376
841.80 61.93797
841.90 64.18148
842.00 60.3066
842.10 56.53252
842.20 54.57504
842.30 52.6495
842.40 52.09743
842.50 52.0685
842.60 52.1965
842.70 52.86967
842.80 53.5593
842.90 53.61962
843.00 53.57344
843.10 54.05153
843.20 54.74207
843.30 53.95662
843.40 50.88799
843.50 47.9164
843.60 44.0214
843.70 39.98518
843.80 38.64477
843.90 37.91499
844.00 39.06948
844.10 43.67939
844.20 47.84785
844.30 42.92051
844.40 38.11529
844.50 34.17632
844.60 30.579
844.70 29.13306
844.80 31.02827
844.90 32.90446
845.00 34.77102
845.10 36.74239
845.20 34.52601
845.30 30.98567
845.40 28.46049
845.50 27.62513
845.60 26.9897
845.70 27.29351
845.80 27.56314
845.90 27.69081
846.00 27.80222
846.10 28.67184
846.20 30.38918
846.30 31.8995
846.40 32.62731
846.50 33.45354
846.60 30.58391
846.70 26.59082
846.80 25.64816
846.90 28.73865
847.00 31.41203
847.10 29.46399
847.20 27.54599
847.30 27.83281
847.40 28.85335
847.50 29.30881
847.60 29.13761
847.70 29.3312
847.80 30.51874
847.90 31.73465
848.00 32.15312
848.10 32.52499
848.20 32.68553
848.30 32.70097
848.40 32.76887
848.50 32.73755
848.60 32.68885
848.70 32.77343
848.80 32.91049
848.90 32.88685
849.00 32.56631
849.10 32.39069
849.20 33.08667
849.30 33.76004
849.40 33.69147
849.50 33.57814
849.60 33.34711
849.70 33.46255
849.80 33.45139
849.90 32.40747
850.00 31.38769
850.10 33.79414
850.20 36.6292
850.30 37.44762
850.40 36.33456
850.50 35.10229
850.60 35.09563
850.70 35.13338
850.80 32.69506
850.90 29.9256
851.00 29.57744
851.10 30.56844
851.20 31.91313
851.30 34.03053
851.40 36.06768
851.50 35.68666
851.60 35.15924
851.70 33.0008
851.80 30.00524
851.90 28.05371
852.00 28.46894
852.10 28.91308
852.20 28.50718
852.30 28.04615
852.40 29.448
852.50 31.65613
852.60 33.70183
852.70 35.26353
852.80 36.65528
852.90 35.85164
853.00 35.05128
853.10 34.51484
853.20 34.20303
853.30 34.40556
853.40 35.35065
853.50 36.28827
853.60 35.47607
853.70 34.68143
853.80 35.3046
853.90 36.64981
854.00 37.26412
854.10 36.71401
854.20 36.32609
854.30 36.49836
854.40 36.64968
854.50 37.50453
854.60 38.60018
854.70 39.13252
854.80 38.60326
854.90 38.09758
855.00 38.67968
855.10 39.25744
855.20 39.7608
855.30 40.20666
855.40 40.63189
855.50 41.25885
855.60 41.79752
855.70 40.74347
855.80 39.58059
855.90 38.93605
856.00 38.70927
856.10 38.12369
856.20 36.91902
856.30 36.08885
856.40 36.42453
856.50 36.79497
856.60 38.7181
856.70 40.88606
856.80 41.88416
856.90 42.03535
857.00 41.61107
857.10 39.47822
857.20 37.37628
857.30 36.12635
857.40 34.99949
857.50 35.76348
857.60 37.74055
857.70 39.51216
857.80 40.29203
857.90 40.99867
858.00 41.17982
858.10 41.39172
858.20 40.92426
858.30 40.40833
858.40 40.04487
858.50 39.36395
858.60 38.7539
858.70 40.81257
858.80 43.06138
858.90 44.08983
859.00 44.48039
859.10 44.58155
859.20 44.0079
859.30 43.36963
859.40 42.36709
859.50 41.33394
859.60 42.35588
859.70 44.1621
859.80 45.39814
859.90 45.55918
860.00 45.56367
860.10 45.62774
860.20 45.67358
860.30 46.89486
860.40 48.66933
860.50 49.18444
860.60 46.82106
860.70 44.3911
860.80 44.91268
860.90 45.40081
861.00 44.91754
861.10 44.23273
861.20 43.97416
861.30 44.17051
861.40 44.13733
861.50 43.17258
861.60 42.17639
861.70 42.22245
861.80 42.60417
861.90 43.01038
862.00 42.89931
862.10 42.87727
862.20 43.99434
862.30 45.05577
862.40 45.69404
862.50 46.34065
862.60 45.39824
862.70 43.31957
862.80 41.94405
862.90 43.02944
863.00 44.12432
863.10 42.95218
863.20 41.33201
863.30 41.45881
863.40 42.74307
863.50 43.46861
863.60 42.58838
863.70 41.76544
863.80 42.45652
863.90 43.37593
864.00 44.02683
864.10 44.49478
864.20 44.48088
864.30 42.78655
864.40 41.28779
864.50 43.46321
864.60 46.11932
864.70 45.45597
864.80 43.09188
864.90 41.4386
865.00 41.91779
865.10 42.70259
865.20 42.3776
865.30 41.95616
865.40 42.33411
865.50 43.28004
865.60 44.47523
865.70 46.10104
865.80 47.50698
865.90 47.70887
866.00 47.88442
866.10 47.56034
866.20 47.20718
866.30 46.89183
866.40 46.25146
866.50 45.96948
866.60 46.36125
866.70 46.617
866.80 46.37235
866.90 46.18877
867.00 46.40614
867.10 47.60328
867.20 48.58194
867.30 46.25696
867.40 43.93244
867.50 44.61647
867.60 46.22463
867.70 48.04259
867.80 50.1246
867.90 51.84249
868.00 51.26207
868.10 50.70598
868.20 49.0122
868.30 47.0777
868.40 46.47879
868.50 47.86337
868.60 49.26796
868.70 48.48022
868.80 47.55341
868.90 47.88895
869.00 48.63595
869.10 47.48152
869.20 44.7385
869.30 42.29969
869.40 40.64824
869.50 38.98492
869.60 38.83013
869.70 38.82703
869.80 39.26517
869.90 39.15116
870.00 39.06035
870.10 39.97225
870.20 41.01563
870.30 42.04305
870.40 43.03359
870.50 43.55984
870.60 43.78282
870.70 44.41015
870.80 45.83586
870.90 46.83607
871.00 44.29611
871.10 41.73805
871.20 41.98073
871.30 43.47931
871.40 44.12379
871.50 42.64607
871.60 41.07776
871.70 42.05662
871.80 43.07145
871.90 43.14354
872.00 42.78045
872.10 42.86401
872.20 43.09676
872.30 43.27122
872.40 42.67102
872.50 42.06178
872.60 42.57209
872.70 43.45724
872.80 45.32832
872.90 47.2726
873.00 48.58119
873.10 49.43465
873.20 50.20187
873.30 49.2187
873.40 47.94865
873.50 47.13914
873.60 46.55173
873.70 46.27262
873.80 45.51373
873.90 44.66501
874.00 45.3784
874.10 46.40491
874.20 47.72701
874.30 48.78158
874.40 50.40646
874.50 53.07568
874.60 55.39451
874.70 55.74678
874.80 55.99404
874.90 54.48532
875.00 52.49732
875.10 51.42944
875.20 51.41137
875.30 51.5689
875.40 52.83644
875.50 54.13921
875.60 53.52971
875.70 52.04808
875.80 51.38222
875.90 53.06276
876.00 55.01131
876.10 55.91174
876.20 56.62547
876.30 55.7618
876.40 54.64197
876.50 53.1995
876.60 51.90082
876.70 50.89093
876.80 51.34427
876.90 51.96707
877.00 53.46777
877.10 54.83804
877.20 56.63273
877.30 58.47514
877.40 60.34656
877.50 63.5062
877.60 66.52941
877.70 66.64331
877.80 66.0549
877.90 63.76855
878.00 61.8514
878.10 60.40864
878.20 58.96197
878.30 57.76288
878.40 58.95868
878.50 60.48788
878.60 62.40898
878.70 64.77047
878.80 66.2345
878.90 66.12444
879.00 66.19933
879.10 65.87688
879.20 65.38687
879.30 65.01077
879.40 64.71337
879.50 64.5055
879.60 65.13419
879.70 65.97503
879.80 67.01996
879.90 67.96656
880.00 67.96158
880.10 68.05655
880.20 65.95282
880.30 62.05864
880.40 58.81176
880.50 57.65598
880.60 56.63689
880.70 57.69365
880.80 59.09814
880.90 59.29125
881.00 57.96515
881.10 57.48587
881.20 62.4908
881.30 67.24062
881.40 69.78984
881.50 71.60213
881.60 72.90339
881.70 74.12882
881.80 75.32413
881.90 75.80678
882.00 76.01161
882.10 74.17034
882.20 71.998
882.30 68.88808
882.40 66.01481
882.50 63.18315
882.60 59.56324
882.70 56.44026
882.80 58.77277
882.90 61.97768
883.00 65.15326
883.10 67.88215
883.20 70.45484
883.30 72.17723
883.40 73.54197
883.50 73.1852
883.60 72.73013
883.70 72.72122
883.80 72.92195
883.90 73.90414
884.00 76.97634
884.10 79.92463
884.20 78.66664
884.30 76.96412
884.40 75.9372
884.50 75.74505
884.60 74.10991
884.70 70.82382
884.80 67.68183
884.90 64.00136
885.00 60.46268
885.10 61.42312
885.20 63.9751
885.30 69.01654
885.40 75.09824
885.50 79.96585
885.60 80.47107
885.70 80.5624
885.80 75.99516
885.90 70.65421
886.00 65.83135
886.10 62.19099
886.20 58.43616
886.30 53.89203
886.40 49.9914
886.50 50.41966
886.60 51.28045
886.70 54.19737
886.80 58.06827
886.90 59.52888
887.00 56.84422
887.10 53.86147
887.20 50.08962
887.30 46.37058
887.40 45.23208
887.50 44.27691
887.60 44.3281
887.70 46.057
887.80 47.98536
887.90 50.58797
888.00 53.20317
888.10 54.79698
888.20 56.12891
888.30 55.64108
888.40 53.25418
888.50 51.12856
888.60 51.1489
888.70 51.27979
888.80 50.78394
888.90 49.43094
889.00 50.56104
889.10 55.24414
889.20 59.43083
889.30 59.48296
889.40 59.38373
889.50 57.59918
889.60 55.38998
889.70 53.7173
889.80 53.72304
889.90 54.42891
890.00 55.79934
890.10 57.38362
890.20 59.8252
890.30 62.18243
890.40 64.69889
890.50 68.33924
890.60 71.21361
890.70 71.56117
890.80 71.65083
890.90 68.34761
891.00 64.433
891.10 62.28582
891.20 61.99118
891.30 61.98779
891.40 61.45815
891.50 61.28779
891.60 62.61675
891.70 64.00949
891.80 64.44752
891.90 65.17212
892.00 66.27748
892.10 66.97095
892.20 67.26712
892.30 66.45296
892.40 65.6014
892.50 64.57857
892.60 63.73251
892.70 63.83254
892.80 65.17335
892.90 66.63302
893.00 66.40725
893.10 66.31345
893.20 68.54063
893.30 71.38108
893.40 73.619
893.50 75.3028
893.60 76.05706
893.70 74.88228
893.80 73.3804
893.90 68.83616
894.00 63.78637
894.10 61.14941
894.20 59.54354
894.30 58.77547
894.40 59.32177
894.50 59.65082
894.60 58.92175
894.70 58.02334
894.80 59.5608
894.90 61.97301
895.00 63.40383
895.10 63.28992
895.20 63.04898
895.30 62.03425
895.40 61.05326
895.50 61.33113
895.60 62.09178
895.70 63.64812
895.80 66.01427
895.90 68.10177
896.00 68.95559
896.10 69.69663
896.20 69.68079
896.30 69.63509
896.40 69.48082
896.50 68.01149
896.60 66.24791
896.70 65.59774
896.80 65.10065
896.90 65.47964
897.00 66.17634
897.10 67.67688
897.20 68.76219
897.30 69.36569
897.40 70.5656
897.50 71.93109
897.60 73.66138
897.70 75.24615
897.80 75.98494
897.90 75.77066
898.00 74.79371
898.10 74.89651
898.20 75.13865
898.30 74.46656
898.40 73.30728
898.50 75.57122
898.60 79.35147
898.70 82.36824
898.80 83.06223
898.90 83.05513
899.00 80.19677
899.10 77.16577
899.20 76.09744
899.30 76.27647
899.40 76.80915
899.50 77.6469
899.60 78.39592
899.70 76.68078
899.80 74.6918
899.90 73.58354
900.00 73.26879
900.10 73.38907
900.20 73.94441
900.30 75.21815
900.40 78.65643
900.50 82.1716
900.60 85.57728
900.70 89.05527
900.80 89.08137
900.90 85.70962
901.00 82.30782
901.10 81.85269
901.20 81.73855
901.30 82.18164
901.40 82.25434
901.50 82.09157
901.60 82.47963
901.70 82.36592
901.80 81.0102
901.90 79.73943
902.00 77.90133
902.10 75.92119
902.20 74.50257
902.30 73.72874
902.40 73.03653
902.50 72.91232
902.60 72.92264
902.70 72.32714
902.80 71.56828
902.90 71.96688
903.00 72.93421
903.10 74.08352
903.20 74.52363
903.30 75.11279
903.40 77.11262
903.50 79.14593
903.60 81.08473
903.70 83.08885
903.80 84.81628
903.90 85.94976
904.00 86.79645
904.10 85.53423
904.20 84.21264
904.30 83.50546
904.40 83.4611
904.50 83.56248
904.60 83.50254
904.70 84.14597
904.80 85.91255
904.90 87.64963
905.00 88.90398
905.10 90.1151
905.20 88.01852
905.30 84.33646
905.40 81.38367
905.50 79.4308
905.60 77.51267
905.70 77.33152
905.80 77.53585
905.90 77.80262
906.00 77.80573
906.10 78.07031
906.20 78.59696
906.30 79.1823
906.40 79.3818
906.50 79.42353
906.60 78.58489
906.70 78.31874
906.80 77.81968
906.90 76.11613
907.00 74.71866
907.10 75.93923
907.20 77.32644
907.30 78.1332
907.40 78.12068
907.50 77.74965
907.60 77.62674
907.70 77.69707
907.80 80.53501
907.90 83.51754
908.00 85.36193
908.10 86.35953
908.20 86.0631
908.30 85.76792
908.40 84.92532
908.50 83.32493
908.60 81.94331
908.70 81.29989
908.80 80.60196
908.90 81.04746
909.00 83.23666
909.10 85.14059
909.20 85.01662
909.30 85.12716
909.40 86.14154
909.50 87.21876
909.60 88.17137
909.70 89.18683
909.80 90.03806
909.90 91.44461
910.00 92.94466
910.10 92.78348
910.20 92.44004
910.30 91.73141
910.40 91.23915
910.50 90.75381
910.60 90.87991
910.70 91.05055
910.80 88.5408
910.90 86.1827
911.00 87.70167
911.10 90.34423
911.20 92.67775
911.30 94.70153
911.40 96.22232
911.50 95.4576
911.60 94.52916
911.70 94.05263
911.80 94.08557
911.90 94.06255
912.00 93.12518
912.10 92.64302
912.20 92.50803
912.30 92.12648
912.40 91.59703
912.50 91.19507
912.60 90.69251
912.70 90.17133
912.80 89.70747
912.90 88.92332
913.00 88.31473
913.10 90.25083
913.20 92.54191
913.30 94.35853
913.40 95.48164
913.50 96.72358
913.60 99.17886
913.70 101.0974
913.80 99.531
913.90 97.79452
914.00 94.01818
914.10 89.41614
914.20 86.81116
914.30 86.56963
914.40 87.14654
914.50 90.62287
914.60 94.00065
914.70 95.99136
914.80 97.6095
914.90 96.69409
915.00 94.32541
915.10 92.29632
915.20 91.94632
915.30 92.02662
915.40 93.57162
915.50 94.99999
915.60 98.99899
915.70 105.0372
915.80 108.7491
915.90 106.6919
916.00 104.494
916.10 102.255
916.20 100.1278
916.30 98.27782
916.40 96.95771
916.50 97.2001
916.60 98.5642
916.70 99.96386
916.80 102.2614
916.90 104.6191
917.00 104.5213
917.10 103.4002
917.20 102.3823
917.30 102.3671
917.40 102.1789
917.50 100.8655
917.60 99.6742
917.70 99.79835
917.80 100.157
917.90 100.8394
918.00 101.7852
918.10 102.8938
918.20 103.439
918.30 103.8532
918.40 103.3747
918.50 102.8044
918.60 101.1528
918.70 99.06348
918.80 99.04763
918.90 105.0695
919.00 111.2793
919.10 114.3209
919.20 116.6944
919.30 114.2779
919.40 110.7032
919.50 107.1396
919.60 105.3497
919.70 104.4799
919.80 107.129
919.90 109.8836
920.00 111.1797
920.10 111.5821
920.20 111.1034
920.30 110.8789
920.40 110.9238
920.50 110.2369
920.60 109.5163
920.70 107.0391
920.80 104.0917
920.90 99.8272
921.00 95.72392
921.10 92.86536
921.20 91.22825
921.30 89.65764
921.40 92.68989
921.50 96.91265
921.60 99.33918
921.70 100.1959
921.80 100.8931
921.90 100.7182
922.00 100.5001
922.10 98.51603
922.20 96.21887
922.30 94.88126
922.40 94.31412
922.50 93.62776
922.60 92.39417
922.70 91.38877
922.80 91.50189
922.90 91.6157
923.00 92.08259
923.10 93.20589
923.20 92.79826
923.30 90.88086
923.40 89.64439
923.50 87.73963
923.60 85.73719
923.70 86.56599
923.80 88.55853
923.90 89.72721
924.00 90.28263
924.10 91.28814
924.20 93.86161
924.30 96.30673
924.40 97.70279
924.50 98.72213
924.60 97.05261
924.70 93.87777
924.80 90.92018
924.90 90.12204
925.00 89.5651
925.10 89.2216
925.20 88.67153
925.30 88.35531
925.40 88.40716
925.50 88.94604
925.60 89.84762
925.70 90.96263
925.80 94.15849
925.90 97.53593
926.00 98.25758
926.10 98.57889
926.20 97.98884
926.30 95.79652
926.40 94.06852
926.50 95.16353
926.60 96.3611
926.70 98.58457
926.80 100.63
926.90 101.2486
927.00 101.2598
927.10 101.0065
927.20 100.1664
927.30 99.28356
927.40 97.69642
927.50 96.02952
927.60 93.65446
927.70 90.36258
927.80 87.15267
927.90 85.07929
928.00 83.51356
928.10 85.72539
928.20 88.36004
928.30 90.17199
928.40 91.22916
928.50 92.59594
928.60 94.42349
928.70 95.63076
928.80 94.25995
928.90 92.80213
929.00 92.20711
929.10 91.57641
929.20 90.72661
929.30 90.03386
929.40 89.63718
929.50 90.77397
929.60 91.95526
929.70 92.07158
929.80 91.59481
929.90 89.39901
930.00 85.87198
930.10 82.61909
930.20 83.23299
930.30 83.98852
930.40 85.2285
930.50 86.1333
930.60 85.83349
930.70 84.58412
930.80 83.75848
930.90 84.37808
931.00 85.099
931.10 87.17244
931.20 89.33437
931.30 91.6915
931.40 94.31665
931.50 95.72412
931.60 94.84509
931.70 94.03873
931.80 92.15408
931.90 90.22842
932.00 88.23409
932.10 86.81269
932.20 86.26827
932.30 88.1056
932.40 89.95533
932.50 92.0539
932.60 93.98264
932.70 93.9351
932.80 92.94092
932.90 92.47632
933.00 92.49868
933.10 92.45686
933.20 92.61755
933.30 92.78114
933.40 90.94291
933.50 88.31626
933.60 87.78409
933.70 90.42049
933.80 92.84555
933.90 92.56006
934.00 92.25361
934.10 93.8547
934.20 95.6422
934.30 94.45882
934.40 91.13605
934.50 89.60703
934.60 93.09604
934.70 96.5817
934.80 96.57045
934.90 96.1203
935.00 96.83337
935.10 94.64862
935.20 92.46335
935.30 91.3745
935.40 91.09541
935.50 90.8063
935.60 91.06948
935.70 91.42205
935.80 91.60127
935.90 91.90362
936.00 92.23056
936.10 93.21903
936.20 95.04216
936.30 96.88067
936.40 97.38663
936.50 97.01236
936.60 96.52431
936.70 94.56361
936.80 92.6278
936.90 91.08915
937.00 89.94769
937.10 88.8066
937.20 87.06078
937.30 85.17907
937.40 83.26862
937.50 85.59754
937.60 88.49901
937.70 91.03045
937.80 91.7916
937.90 92.53388
938.00 92.93604
938.10 92.8489
938.20 92.76895
938.30 92.47466
938.40 92.16354
938.50 91.87577
938.60 93.01167
938.70 94.16101
938.80 95.09819
938.90 95.6845
939.00 96.27091
939.10 96.4891
939.20 96.3999
939.30 96.32078
939.40 96.21314
939.50 96.03521
939.60 95.79884
939.70 94.29609
939.80 92.72143
939.90 91.41869
940.00 91.13556
940.10 90.84434
940.20 91.30999
940.30 92.04196
940.40 92.79178
940.50 93.66553
940.60 94.65465
940.70 95.82788
940.80 97.70176
940.90 99.57697
941.00 100.6463
941.10 100.7567
941.20 100.8987
941.30 100.1223
941.40 99.01821
941.50 97.8544
941.60 95.9625
941.70 94.045
941.80 92.83052
941.90 93.16761
942.00 93.50986
942.10 94.09438
942.20 94.96412
942.30 95.83241
942.40 96.94853
942.50 97.96555
942.60 98.70713
942.70 98.25324
942.80 97.79916
942.90 97.30195
943.00 97.30246
943.10 97.27373
943.20 98.73657
943.30 100.4968
943.40 102.2815
943.50 103.2131
943.60 104.0546
943.70 103.9372
943.80 101.9561
943.90 99.976
944.00 98.8952
944.10 98.21547
944.20 97.52091
944.30 96.50035
944.40 95.60317
944.50 94.85942
944.60 94.95888
944.70 95.05918
944.80 95.82446
944.90 97.2506
945.00 98.67354
945.10 98.53791
945.20 98.05002
945.30 97.69211
945.40 97.93256
945.50 98.09995
945.60 98.14351
945.70 98.20935
945.80 98.28189
945.90 98.33061
946.00 98.19625
946.10 98.03048
946.20 99.2267
946.30 100.7577
946.40 102.0718
946.50 102.0799
946.60 102.0837
946.70 102.4811
946.80 103.207
946.90 103.9249
947.00 103.5788
947.10 102.9804
947.20 102.5027
947.30 103.2293
947.40 103.9379
947.50 104.5178
947.60 105.0914
947.70 105.6654
947.80 107.1185
947.90 108.9809
948.00 110.8327
948.10 110.3825
948.20 109.7858
948.30 109.3118
948.40 109.3773
948.50 109.4432
948.60 110.2999
948.70 111.7491
948.80 113.2099
948.90 113.5139
949.00 113.5908
949.10 113.6581
949.20 113.9066
949.30 114.1407
949.40 113.6707
949.50 111.2135
949.60 108.7569
949.70 108.8554
949.80 110.8208
949.90 112.73
950.00 112.3151
950.10 111.6532
950.20 111.1732
950.30 111.5866
950.40 111.9974
950.50 112.0161
950.60 111.197
950.70 110.3614
950.80 110.4397
950.90 110.9555
951.00 111.4717
951.10 112.1989
951.20 112.9097
951.30 112.8098
951.40 110.781
951.50 108.753
951.60 107.7116
951.70 107.3205
951.80 106.9311
951.90 107.0932
952.00 107.3318
952.10 107.6091
952.20 108.7664
952.30 109.9246
952.40 111.0937
952.50 112.5293
952.60 113.9685
952.70 114.78
952.80 115.2525
952.90 115.7837
953.00 116.0262
953.10 116.1947
953.20 116.0611
953.30 115.283
953.40 114.5052
953.50 113.5476
953.60 112.3211
953.70 111.0961
953.80 110.4703
953.90 110.0999
954.00 109.9537
954.10 110.4841
954.20 111.017
954.30 111.5171
954.40 112.0422
954.50 112.5872
954.60 113.2239
954.70 113.9551
954.80 114.6075
954.90 114.3523
955.00 114.0671
955.10 114.0322
955.20 114.569
955.30 115.1123
955.40 115.338
955.50 115.3988
955.60 115.4513
955.70 115.6388
955.80 115.9224
955.90 116.3414
956.00 117.0308
956.10 117.7192
956.20 118.265
956.30 118.2304
956.40 118.214
956.50 116.8215
956.60 115.1064
956.70 113.4619
956.80 114.7104
956.90 116.0587
957.00 117.4292
957.10 118.6016
957.20 119.7678
957.30 119.7727
957.40 118.8772
957.50 118.0169
957.60 115.9659
957.70 113.7829
957.80 112.0405
957.90 112.3376
958.00 112.6362
958.10 112.6686
958.20 112.7558
958.30 112.8617
958.40 112.6022
958.50 112.1771
958.60 111.7253
958.70 110.1322
958.80 108.4784
958.90 107.0436
959.00 105.6542
959.10 104.254
959.20 103.757
959.30 104.2038
959.40 104.6146
959.50 104.9088
959.60 105.1666
959.70 105.1955
959.80 102.9132
959.90 100.628
960.00 99.50481
960.10 99.77971
960.20 99.97599
960.30 102.3499
960.40 105.6333
960.50 108.7194
960.60 109.6936
960.70 110.6249
960.80 111.544
960.90 112.0445
961.00 112.5616
961.10 112.5629
961.20 112.1931
961.30 111.836
961.40 109.7539
961.50 107.5156
961.60 106.0292
961.70 107.476
961.80 108.914
961.90 110.4086
962.00 112.3341
962.10 114.2813
962.20 114.6644
962.30 114.4791
962.40 114.4535
962.50 115.19
962.60 115.9255
962.70 116.5768
962.80 117.2724
962.90 117.9777
963.00 116.2787
963.10 113.3235
963.20 110.3889
963.30 109.9697
963.40 109.5982
963.50 108.8069
963.60 106.4731
963.70 104.1616
963.80 101.0211
963.90 96.70545
964.00 92.28288
964.10 93.33273
964.20 96.08297
964.30 98.62047
964.40 102.4934
964.50 106.3632
964.60 108.7403
964.70 107.9506
964.80 107.1815
964.90 107.1418
965.00 107.4183
965.10 107.6333
965.20 106.9068
965.30 106.1542
965.40 105.7513
965.50 106.401
965.60 107.0567
965.70 108.2576
965.80 109.9847
965.90 111.7088
966.00 113.1299
966.10 114.4749
966.20 115.7373
966.30 116.2208
966.40 116.704
966.50 117.1095
966.60 117.2003
966.70 117.3107
966.80 116.9298
966.90 116.3628
967.00 115.7407
967.10 115.0636
967.20 114.387
967.30 113.7289
967.40 112.726
967.50 111.7483
967.60 110.4088
967.70 108.5653
967.80 106.5892
967.90 108.0163
968.00 110.2376
968.10 112.135
968.20 113.5804
968.30 115.0313
968.40 115.5103
968.50 114.0697
968.60 112.6486
968.70 111.4431
968.80 110.254
968.90 109.1313
969.00 109.5465
969.10 110.0315
969.20 110.8437
969.30 113.0812
969.40 115.3069
969.50 116.6247
969.60 117.3335
969.70 118.1083
969.80 119.3684
969.90 120.6094
970.00 121.3945
970.10 120.2182
970.20 119.0468
970.30 118.263
970.40 117.6991
970.50 117.2172
970.60 114.7858
970.70 111.6311
970.80 108.5657
970.90 111.0982
971.00 113.6963
971.10 116.3482
971.20 119.9066
971.30 123.4988
971.40 124.9406
971.50 125.0056
971.60 125.1303
971.70 126.2824
971.80 127.4448
971.90 128.2692
972.00 127.3845
972.10 126.4984
972.20 125.2056
972.30 123.5459
972.40 121.8438
972.50 121.0049
972.60 120.426
972.70 119.7726
972.80 116.9278
972.90 114.0775
973.00 111.4772
973.10 109.0688
973.20 106.5538
973.30 107.8308
973.40 111.239
973.50 114.6531
973.60 114.6439
973.70 114.4889
973.80 114.6189
973.90 115.1457
974.00 115.6709
974.10 115.0828
974.20 113.5197
974.30 112.0248
974.40 110.4043
974.50 108.6923
974.60 107.1934
974.70 108.1903
974.80 109.1777
974.90 110.4351
975.00 112.3595
975.10 114.3245
975.20 115.8977
975.30 117.2732
975.40 118.6042
975.50 117.4375
975.60 116.2655
975.70 115.9161
975.80 117.2359
975.90 118.5349
976.00 119.1045
976.10 119.1987
976.20 119.3532
976.30 119.6301
976.40 119.9027
976.50 120.0974
976.60 120.576
976.70 121.0627
976.80 121.0113
976.90 120.1887
977.00 119.4343
977.10 118.5341
977.20 117.4697
977.30 116.3575
977.40 117.9067
977.50 119.465
977.60 120.7712
977.70 121.9745
977.80 123.2112
977.90 123.5296
978.00 123.195
978.10 122.9566
978.20 119.9357
978.30 116.6653
978.40 114.0024
978.50 112.8797
978.60 111.7071
978.70 111.2972
978.80 111.9772
978.90 112.6169
979.00 114.2045
979.10 116.0479
979.20 117.8874
979.30 121.0892
979.40 124.2957
979.50 126.9689
979.60 128.5595
979.70 130.2175
979.80 130.2013
979.90 129.3468
980.00 128.4468
980.10 128.5531
980.20 128.677
980.30 128.6429
980.40 128.1187
980.50 127.5972
980.60 126.8375
980.70 125.8677
980.80 124.8978
980.90 124.9345
981.00 125.1566
981.10 125.4285
981.20 126.309
981.30 127.1969
981.40 126.9943
981.50 125.2516
981.60 123.5331
981.70 122.9032
981.80 122.6822
981.90 122.328
982.00 122.2196
982.10 122.1111
982.20 121.9681
982.30 121.5401
982.40 121.1052
982.50 121.6795
982.60 122.9054
982.70 124.112
982.80 124.1121
982.90 124.0001
983.00 124.0379
983.10 124.3075
983.20 124.5706
983.30 124.3188
983.40 123.5928
983.50 122.8765
983.60 122.1697
983.70 121.4484
983.80 120.8266
983.90 121.4041
984.00 121.9764
984.10 122.5994
984.20 123.4462
984.30 124.3085
984.40 125.0305
984.50 125.6524
984.60 126.2738
984.70 126.3014
984.80 126.3262
984.90 126.0637
985.00 124.9232
985.10 123.8041
985.20 122.7239
985.30 121.6164
985.40 120.4593
985.50 121.6468
985.60 123.277
985.70 124.9119
985.80 126.7793
985.90 128.6554
986.00 129.4073
986.10 128.6239
986.20 127.8361
986.30 127.74
986.40 127.8964
986.50 127.9982
986.60 127.6798
986.70 127.3632
986.80 126.6022
986.90 124.6418
987.00 122.6756
987.10 122.7616
987.20 124.1364
987.30 125.399
987.40 128.2684
987.50 131.3037
987.60 133.5518
987.70 132.4978
987.80 131.4697
987.90 129.8759
988.00 127.6172
988.10 125.3399
988.20 125.8679
988.30 127.1088
988.40 128.3768
988.50 130.9101
988.60 133.4475
988.70 134.6887
988.80 133.8368
988.90 133.0132
989.00 131.9682
989.10 130.7971
989.20 129.6381
989.30 127.6527
989.40 125.6471
989.50 122.6518
989.60 116.7497
989.70 110.9065
989.80 105.5167
989.90 100.3657
990.00 95.06138
990.10 93.40996
990.20 92.35393
990.30 90.85747
990.40 87.04694
990.50 83.25289
990.60 79.62523
990.70 76.10853
990.80 72.53541
990.90 71.78973
991.00 71.98862
991.10 72.1068
991.20 73.07005
991.30 74.04194
991.40 74.11256
991.50 72.23548
991.60 70.35726
991.70 69.62195
991.80 69.54046
991.90 69.31108
992.00 72.37088
992.10 75.64495
992.20 78.04235
992.30 77.13261
992.40 76.26827
992.50 74.83112
992.60 72.77137
992.70 70.57559
992.80 73.45192
992.90 77.4601
993.00 81.32752
993.10 84.61197
993.20 87.92179
993.30 89.19922
993.40 87.43683
993.50 85.69908
993.60 86.24067
993.70 87.72627
993.80 89.10194
993.90 93.21263
994.00 97.32778
994.10 100.258
994.20 100.3486
994.30 100.5061
994.40 99.99662
994.50 98.97871
994.60 97.93885
994.70 98.97831
994.80 100.255
994.90 101.7202
995.00 104.4238
995.10 107.1324
995.20 109.13
995.30 110.3513
995.40 111.5833
995.50 111.0951
995.60 110.143
995.70 109.1951
995.80 106.7786
995.90 104.3488
996.00 102.6164
996.10 102.1205
996.20 101.5703
996.30 103.5193
996.40 106.6661
996.50 109.7216
996.60 113.1394
996.70 116.5451
996.80 117.3995
996.90 110.9345
997.00 104.5583
997.10 98.2927
997.20 92.02233
997.30 85.62492
997.40 85.45348
997.50 86.24133
997.60 87.36042
997.70 91.16197
997.80 94.95953
997.90 97.96022
998.00 100.0396
998.10 102.1346
998.20 102.4543
998.30 102.2025
998.40 101.972
998.50 99.19697
998.60 96.41345
998.70 94.60293
998.80 94.60119
998.90 94.54895
999.00 94.41312
999.10 94.28836
999.20 94.19715
999.30 94.2977
999.40 94.40628
999.50 94.34808
999.60 93.91337
999.70 93.51722
999.80 94.2886
999.90 96.07247
1000.00 97.74232
1000.10 101.6566
1000.20 105.8854
1000.30 109.7633
1000.40 111.4516
1000.50 113.1661
1000.60 113.515
1000.70 111.9886
1000.80 110.5405
1000.90 107.3563
1001.00 103.6285
1001.10 99.99768
1001.20 99.71839
1001.30 99.4185
1001.40 99.96389
1001.50 102.281
1001.60 104.5789
1001.70 107.563
1001.80 110.9843
1001.90 114.527
1002.00 113.0478
1002.10 111.2432
1002.20 109.9418
1002.30 110.2046
1002.40 110.4125
1002.50 111.0794
1002.60 112.0776
1002.70 113.1179
1002.80 112.5558
1002.90 111.7886
1003.00 111.1792
1003.10 110.5285
1003.20 109.8701
1003.30 108.7334
1003.40 107.0848
1003.50 105.4574
1003.60 102.9991
1003.70 100.2231
1003.80 97.58029
1003.90 99.77442
1004.00 101.9524
1004.10 104.9234
1004.20 109.7232
1004.30 114.523
1004.40 116.8884
1004.50 117.7763
1004.60 118.8012
1004.70 117.4878
1004.80 116.0554
1004.90 113.84
1005.00 108.9369
1005.10 104.0659
1005.20 98.8782
1005.30 93.39711
1005.40 87.86025
1005.50 86.09075
1005.60 85.06238
1005.70 84.52907
1005.80 87.67611
1005.90 90.80522
1006.00 93.91707
1006.10 97.0852
1006.20 100.3107
1006.30 99.79064
1006.40 97.92563
1006.50 96.19059
1006.60 99.12597
1006.70 102.0502
1006.80 105.4927
1006.90 110.0236
1007.00 114.6036
1007.10 115.2677
1007.20 113.7395
1007.30 112.3139
1007.40 112.1119
1007.50 112.0009
1007.60 112.5116
1007.70 115.3572
1007.80 118.2045
1007.90 119.7023
1008.00 120.0783
1008.10 120.5068
1008.20 120.4502
1008.30 120.2858
1008.40 120.3817
1008.50 122.3228
1008.60 124.2577
1008.70 124.3746
1008.80 122.1043
1008.90 119.9281
1009.00 117.1202
1009.10 114.1698
1009.20 111.2962
1009.30 110.7631
1009.40 110.2148
1009.50 110.9647
1009.60 114.4725
1009.70 117.9698
1009.80 121.9762
1009.90 126.2361
1010.00 130.4879
1010.10 133.8474
1010.20 137.1181
1010.30 139.1379
1010.40 137.1405
1010.50 135.1975
1010.60 133.3169
1010.70 131.5037
1010.80 129.7057
1010.90 126.6685
1011.00 123.3273
1011.10 120.0217
1011.20 117.2186
1011.30 114.3982
1011.40 112.2775
1011.50 111.0013
1011.60 109.7134
1011.70 108.2134
1011.80 106.6674
1011.90 105.2685
1012.00 108.9522
1012.10 112.6137
1012.20 117.0241
1012.30 123.1074
1012.40 129.2465
1012.50 132.0308
1012.60 132.8332
1012.70 133.7711
1012.80 133.1
1012.90 132.4567
1013.00 131.8858
1013.10 131.5919
1013.20 131.3222
1013.30 129.0371
1013.40 124.8961
1013.50 120.8765
1013.60 115.0978
1013.70 109.1224
1013.80 103.8953
1013.90 103.3742
1014.00 102.8052
1014.10 104.0254
1014.20 107.7049
1014.30 111.3473
1014.40 114.0541
1014.50 116.4187
1014.60 118.7166
1014.70 116.0055
1014.80 113.2932
1014.90 112.3398
1015.00 114.8848
1015.10 117.2935
1015.20 120.117
1015.30 123.078
1015.40 126.2122
1015.50 123.5621
1015.60 120.6009
1015.70 117.6835
1015.80 114.4123
1015.90 111.0868
1016.00 110.1832
1016.10 111.4007
1016.20 112.5214
1016.30 114.1726
1016.40 115.9008
1016.50 117.6747
1016.60 119.338
1016.70 120.985
1016.80 122.1116
1016.90 122.5338
1017.00 123.0543
1017.10 121.1929
1017.20 118.584
1017.30 116.2007
1017.40 120.6193
1017.50 125.023
1017.60 128.753
1017.70 131.1763
1017.80 133.7442
1017.90 131.5304
1018.00 126.7339
1018.10 121.9759
1018.20 118.9746
1018.30 116.0267
1018.40 113.337
1018.50 112.009
1018.60 110.675
1018.70 110.368
1018.80 110.929
1018.90 111.3572
1019.00 114.5521
1019.10 118.2369
1019.20 121.5157
1019.30 121.7888
1019.40 122.0968
1019.50 122.2422
1019.60 122.2264
1019.70 122.1793
1019.80 122.6792
1019.90 123.3464
1020.00 123.9915
1020.10 123.3985
1020.20 122.7929
1020.30 122.4556
1020.40 122.6206
1020.50 122.7691
1020.60 123.8664
1020.70 125.5533
1020.80 127.2631
1020.90 126.4429
1021.00 125.4221
1021.10 124.2412
1021.20 122.697
1021.30 121.2029
1021.40 118.9852
1021.50 116.0765
1021.60 113.1207
1021.70 110.5893
1021.80 108.0979
1021.90 105.7764
1022.00 104.578
1022.10 103.3582
1022.20 104.0788
1022.30 107.133
1022.40 110.0541
1022.50 113.6166
1022.60 117.1666
1022.70 120.5271
1022.80 120.3387
1022.90 120.161
1023.00 119.1408
1023.10 116.6339
1023.20 114.1588
1023.30 113.8498
1023.40 114.8415
1023.50 115.8506
1023.60 118.73
1023.70 121.6435
1023.80 124.1435
1023.90 125.986
1024.00 127.8623
1024.10 130.079
1024.20 132.3883
1024.30 134.661
1024.40 133.3909
1024.50 131.5549
1024.60 129.5996
1024.70 126.7212
1024.80 123.8071
1024.90 121.7209
1025.00 120.5674
1025.10 119.4556
1025.20 116.5785
1025.30 113.2141
1025.40 110.207
1025.50 112.2926
1025.60 114.346
1025.70 115.3376
1025.80 114.3057
1025.90 113.4267
1026.00 109.7039
1026.10 104.8828
1026.20 100.2138
1026.30 99.16013
1026.40 98.31666
1026.50 98.77257
1026.60 103.2167
1026.70 107.5821
1026.80 112.5025
1026.90 117.5054
1027.00 122.6367
1027.10 122.9834
1027.20 122.7059
1027.30 122.0546
1027.40 119.8608
1027.50 117.6757
1027.60 115.5925
1027.70 113.7395
1027.80 111.8137
1027.90 110.7475
1028.00 109.7513
1028.10 108.6056
1028.20 106.2437
1028.30 103.8871
1028.40 102.7013
1028.50 103.1498
1028.60 103.4346
1028.70 108.3059
1028.80 114.7025
1028.90 120.8481
1029.00 121.883
1029.10 122.975
1029.20 122.7328
1029.30 119.5868
1029.40 116.4212
1029.50 115.7611
1029.60 116.2743
1029.70 116.6676
1029.80 116.8588
1029.90 117.0831
1030.00 116.8103
1030.10 114.4439
1030.20 112.0697
1030.30 111.6647
1030.40 112.923
1030.50 114.0524
1030.60 118.7019
1030.70 123.8286
1030.80 127.7961
1030.90 125.2547
1031.00 122.7452
1031.10 121.5835
1031.20 122.1595
1031.30 122.6315
1031.40 124.0467
1031.50 125.5384
1031.60 126.6726
1031.70 122.7601
1031.80 118.8645
1031.90 115.8782
1032.00 114.558
1032.10 113.1533
1032.20 112.8342
1032.30 112.9316
1032.40 112.9972
1032.50 111.4731
1032.60 109.8833
1032.70 110.2864
1032.80 116.0286
1032.90 121.716
1033.00 127.1402
1033.10 132.2859
1033.20 137.5193
1033.30 137.6339
1033.40 136.9443
1033.50 135.2941
1033.60 129.4366
1033.70 123.6156
1033.80 118.934
1033.90 115.4994
1034.00 111.9257
1034.10 112.8624
1034.20 115.0631
1034.30 117.0534
1034.40 116.3581
1034.50 115.6625
1034.60 115.919
1034.70 117.8585
1034.80 119.6582
1034.90 120.564
1035.00 120.5988
1035.10 120.3841
1035.20 119.1069
1035.30 117.886
1035.40 117.5871
1035.50 118.4999
1035.60 119.4068
1035.70 120.7875
1035.80 122.4927
1035.90 124.2452
1036.00 127.038
1036.10 129.8686
1036.20 132.2512
1036.30 133.7153
1036.40 135.232
1036.50 135.4107
1036.60 134.5242
1036.70 133.6274
1036.80 134.6789
1036.90 136.1037
1037.00 137.8681
1037.10 141.2136
1037.20 144.5564
1037.30 146.8134
1037.40 147.7445
1037.50 148.7613
1037.60 145.0163
1037.70 139.86
1037.80 134.5999
1037.90 128.207
1038.00 121.8047
1038.10 117.0756
1038.20 115.4591
1038.30 113.6833
1038.40 116.5157
1038.50 121.4421
1038.60 126.2796
1038.70 129.047
1038.80 131.6107
1038.90 132.8915
1039.00 130.7876
1039.10 128.7049
1039.20 127.1534
1039.30 126.0419
1039.40 124.9329
1039.50 123.734
1039.60 122.5293
1039.70 121.721
1039.80 122.7194
1039.90 123.6628
1040.00 125.5787
1040.10 128.6338
1040.20 131.6258
1040.30 133.6916
1040.40 135.1374
1040.50 136.3601
1040.60 137.0913
1040.70 137.8357
1040.80 138.5083
1040.90 138.9214
1041.00 139.3833
1041.10 136.1449
1041.20 131.8767
1041.30 127.7226
1041.40 125.2841
1041.50 122.8096
1041.60 123.321
1041.70 128.9535
1041.80 134.4733
1041.90 138.8302
1042.00 142.2163
1042.10 145.3871
1042.20 141.6037
1042.30 137.4637
1042.40 133.3836
1042.50 129.0651
1042.60 124.7692
1042.70 120.2298
1042.80 115.6459
1042.90 110.9544
1043.00 113.0373
1043.10 116.1348
1043.20 120.1219
1043.30 128.3761
1043.40 136.6681
1043.50 141.5924
1043.60 142.5034
1043.70 143.567
1043.80 142.9512
1043.90 142.1643
1044.00 141.5015
1044.10 142.0412
1044.20 142.5808
1044.30 142.5419
1044.40 141.5132
1044.50 140.5111
1044.60 140.0617
1044.70 139.981
1044.80 139.9293
1044.90 141.3674
1045.00 142.9108
1045.10 145.8357
1045.20 151.5191
1045.30 157.2274
1045.40 160.8902
1045.50 163.0404
1045.60 165.0711
1045.70 163.3728
1045.80 161.1451
1045.90 157.5939
1046.00 150.3711
1046.10 143.1492
1046.20 137.8356
1046.30 134.3079
1046.40 130.7111
1046.50 129.5157
1046.60 128.5158
1046.70 127.363
1046.80 124.8324
1046.90 122.2985
1047.00 120.3722
1047.10 119.42
1047.20 118.3822
1047.30 119.2581
1047.40 120.5058
1047.50 121.6923
1047.60 122.8287
1047.70 123.9722
1047.80 124.1747
1047.90 122.7898
1048.00 121.4259
1048.10 121.8788
1048.20 123.3887
1048.30 125.1025
1048.40 127.7433
1048.50 130.3563
1048.60 132.0462
1048.70 132.0282
1048.80 132.0425
1048.90 132.0026
1049.00 132.1027
1049.10 132.2625
1049.20 133.1663
1049.30 134.1152
1049.40 134.7741
1049.50 134.4799
1049.60 134.2721
1049.70 132.2539
1049.80 128.7567
1049.90 125.0914
1050.00 125.507
1050.10 126.5505
1050.20 127.5929
1050.30 129.3488
1050.40 131.1681
1050.50 131.545
1050.60 130.2093
1050.70 128.8903
1050.80 127.9037
1050.90 127.0651
1051.00 126.1353
1051.10 124.4805
1051.20 122.8746
1051.30 120.7084
1051.40 117.6305
1051.50 114.4869
1051.60 114.4641
1051.70 115.8843
1051.80 117.14
1051.90 117.5218
1052.00 117.8483
1052.10 118.3341
1052.20 119.2953
1052.30 120.2328
1052.40 122.0979
1052.50 124.3333
1052.60 126.5249
1052.70 129.3393
1052.80 132.178
1052.90 134.0204
1053.00 132.3135
1053.10 130.6767
1053.20 129.0861
1053.30 127.8344
1053.40 126.4888
1053.50 127.4469
1053.60 128.679
1053.70 129.6782
1053.80 129.4426
1053.90 129.2432
1054.00 128.6307
1054.10 127.6846
1054.20 126.6412
1054.30 127.2313
1054.40 128.0512
1054.50 128.4837
1054.60 125.171
1054.70 121.8868
1054.80 119.6565
1054.90 119.373
1055.00 118.9736
1055.10 121.6942
1055.20 125.6313
1055.30 129.2129
1055.40 128.3877
1055.50 127.2531
1055.60 125.2378
1055.70 121.5858
1055.80 117.9532
1055.90 115.8473
1056.00 114.9225
1056.10 113.9992
1056.20 113.1003
1056.30 112.0984
1056.40 111.4125
1056.50 112.0965
1056.60 112.7583
1056.70 113.8754
1056.80 115.3931
1056.90 116.9732
1057.00 116.8525
1057.10 116.3373
1057.20 116.0869
1057.30 118.1106
1057.40 120.1163
1057.50 121.8707
1057.60 123.3604
1057.70 124.8935
1057.80 124.6164
1057.90 123.7943
1058.00 123.0693
1058.10 123.8499
1058.20 124.6285
1058.30 124.762
1058.40 123.6838
1058.50 122.7029
1058.60 120.9996
1058.70 119.2145
1058.80 117.4765
1058.90 116.3539
1059.00 115.2212
1059.10 114.3978
1059.20 114.4549
1059.30 114.5138
1059.40 115.4923
1059.50 116.9561
1059.60 118.3643
1059.70 120.0257
1059.80 121.7825
1059.90 122.9649
1060.00 121.9379
1060.10 120.9116
1060.20 120.1105
1060.30 119.275
1060.40 118.4367
1060.50 116.481
1060.60 114.2609
1060.70 112.0522
1060.80 111.6642
1060.90 111.2559
1061.00 111.7786
1061.10 113.1924
1061.20 114.5172
1061.30 117.3002
1061.40 120.4681
1061.50 123.4957
1061.60 123.792
1061.70 124.1222
1061.80 123.6384
1061.90 122.2289
1062.00 120.8121
1062.10 119.5738
1062.20 118.6407
1062.30 117.9781
1062.40 119.4155
1062.50 120.9311
1062.60 122.9591
1062.70 126.2574
1062.80 129.5482
1062.90 131.8089
1063.00 133.2388
1063.10 134.6081
1063.20 133.343
1063.30 131.8437
1063.40 130.5868
1063.50 129.6969
1063.60 128.7556
1063.70 129.2137
1063.80 131.244
1063.90 133.2238
1064.00 134.7872
1064.10 136.089
1064.20 137.1446
1064.30 137.1965
1064.40 137.267
1064.50 136.8136
1064.60 135.6184
1064.70 134.4188
1064.80 134.7433
1064.90 135.5556
1065.00 136.3085
1065.10 135.5312
1065.20 134.7821
1065.30 133.0928
1065.40 130.5612
1065.50 128.0603
1065.60 125.8494
1065.70 123.5887
1065.80 121.4172
1065.90 121.6434
1066.00 122.0508
1066.10 121.9199
1066.20 120.4574
1066.30 119.0695
1066.40 117.4755
1066.50 115.9349
1066.60 114.3973
1066.70 115.1598
1066.80 116.132
1066.90 116.7947
1067.00 116.9307
1067.10 117.0755
1067.20 118.1953
1067.30 119.977
1067.40 121.7688
1067.50 124.8439
1067.60 127.9559
1067.70 130.6267
1067.80 132.3302
1067.90 134.05
1068.00 134.9903
1068.10 135.0026
1068.20 135.0217
1068.30 137.4947
1068.40 140.3459
1068.50 142.8538
1068.60 143.9646
1068.70 145.0914
1068.80 144.9297
1068.90 143.1663
1069.00 141.4231
1069.10 140.9765
1069.20 141.2101
1069.30 141.3328
1069.40 139.3531
1069.50 137.2066
1069.60 134.4891
1069.70 131.0433
1069.80 127.5477
1069.90 127.4108
1070.00 129.239
1070.10 130.8882
1070.20 130.2995
1070.30 129.5417
1070.40 129.3906
1070.50 130.3981
1070.60 131.3425
1070.70 132.8948
1070.80 134.4373
1070.90 135.8125
1071.00 134.846
1071.10 133.7854
1071.20 133.1919
1071.30 134.3487
1071.40 135.4465
1071.50 137.2536
1071.60 139.4053
1071.70 141.6723
1071.80 141.6153
1071.90 141.182
1072.00 140.8714
1072.10 140.7998
1072.20 140.7351
1072.30 139.4486
1072.40 136.4377
1072.50 133.5023
1072.60 132.7823
1072.70 133.2481
1072.80 134.1125
1072.90 136.7929
1073.00 139.5176
1073.10 140.8329
1073.20 139.9323
1073.30 139.1134
1073.40 136.9582
1073.50 134.805
1073.60 132.9498
1073.70 133.2524
1073.80 133.6218
1073.90 134.756
1074.00 138.131
1074.10 141.5095
1074.20 143.5398
1074.30 144.3237
1074.40 145.0976
1074.50 145.4269
1074.60 145.8713
1074.70 146.4053
1074.80 146.2032
1074.90 145.9975
1075.00 144.662
1075.10 142.4705
1075.20 140.3542
1075.30 137.6409
1075.40 134.8393
1075.50 132.5555
1075.60 134.8249
1075.70 137.0237
1075.80 139.8014
1075.90 142.529
1076.00 145.3101
1076.10 145.3676
1076.20 144.97
1076.30 144.5515
1076.40 144.3401
1076.50 144.1189
1076.60 144.085
1076.70 144.3768
1076.80 144.6718
1076.90 145.5016
1077.00 146.3434
1077.10 147.0275
1077.20 146.1374
1077.30 145.1579
1077.40 143.9778
1077.50 142.4621
1077.60 140.9908
1077.70 140.33
1077.80 140.2894
1077.90 140.2087
1078.00 141.7118
1078.10 143.3537
1078.20 144.5357
1078.30 144.654
1078.40 144.7979
1078.50 144.5605
1078.60 143.7436
1078.70 142.811
1078.80 140.3993
1078.90 137.9535
1079.00 135.8576
1079.10 134.756
1079.20 133.6351
1079.30 132.2836
1079.40 130.624
1079.50 128.9007
1079.60 129.9591
1079.70 131.6938
1079.80 133.4694
1079.90 135.5213
1080.00 137.577
1080.10 139.3354
1080.20 140.7584
1080.30 142.2029
1080.40 143.1374
1080.50 143.7915
1080.60 144.4667
1080.70 144.9216
1080.80 145.3488
1080.90 145.8855
1081.00 146.9158
1081.10 147.9578
1081.20 147.941
1081.30 147.329
1081.40 146.7455
1081.50 147.2303
1081.60 147.8108
1081.70 148.9554
1081.80 151.2045
1081.90 153.487
1082.00 153.2574
1082.10 151.388
1082.20 149.5512
1082.30 147.7363
1082.40 146.0083
1082.50 144.3825
1082.60 143.2471
1082.70 142.0871
1082.80 141.7385
1082.90 142.0192
1083.00 142.3227
1083.10 144.9282
1083.20 148.3123
1083.30 151.767
1083.40 153.4994
1083.50 155.2576
1083.60 155.5222
1083.70 154.4697
1083.80 153.4222
1083.90 152.973
1084.00 152.6855
1084.10 152.3776
1084.20 151.6282
1084.30 150.8855
1084.40 149.7805
1084.50 147.8973
1084.60 146.07
1084.70 144.2276
1084.80 142.8019
1084.90 141.6433
1085.00 144.3185
1085.10 147.2286
1085.20 148.715
1085.30 145.6998
1085.40 142.7829
1085.50 141.8587
1085.60 143.3717
1085.70 145.0616
1085.80 148.1207
1085.90 151.2168
1086.00 154.2216
1086.10 156.6352
1086.20 159.0595
1086.30 160.0758
1086.40 160.2296
1086.50 160.357
1086.60 159.242
1086.70 158.0763
1086.80 157.3248
1086.90 157.5033
1087.00 157.615
1087.10 158.2966
1087.20 159.4125
1087.30 160.6102
1087.40 158.5223
1087.50 155.7335
1087.60 153.1494
1087.70 152.9113
1087.80 152.5934
1087.90 152.9871
1088.00 153.5617
1088.10 154.2079
1088.20 152.9592
1088.30 151.4099
1088.40 150.1328
1088.50 151.2341
1088.60 152.3035
1088.70 153.0556
1088.80 153.2338
1088.90 153.5019
1089.00 153.2009
1089.10 152.7385
1089.20 152.3066
1089.30 151.2654
1089.40 150.1259
1089.50 149.3637
1089.60 150.3651
1089.70 151.3137
1089.80 153.7896
1089.90 156.9248
1090.00 159.8824
1090.10 161.1652
1090.20 162.2005
1090.30 162.9839
1090.40 163.475
1090.50 163.9876
1090.60 162.8402
1090.70 160.3767
1090.80 157.856
1090.90 154.6463
1091.00 151.4602
1091.10 148.8799
1091.20 148.6055
1091.30 148.2554
1091.40 149.5181
1091.50 152.318
1091.60 155.0582
1091.70 158.1037
1091.80 161.0846
1091.90 163.8176
1092.00 163.1833
1092.10 162.5787
1092.20 161.7202
1092.30 160.6423
1092.40 159.5094
1092.50 158.8395
1092.60 158.3189
1092.70 157.9157
1092.80 157.8496
1092.90 157.7997
1093.00 157.6942
1093.10 157.874
1093.20 158.0584
1093.30 157.4845
1093.40 156.432
1093.50 155.4019
1093.60 153.3306
1093.70 151.1373
1093.80 150.0007
1093.90 152.8516
1094.00 155.6157
1094.10 158.2304
1094.20 160.211
1094.30 162.1036
1094.40 159.2822
1094.50 155.7645
1094.60 152.4834
1094.70 150.052
1094.80 147.5496
1094.90 148.5565
1095.00 152.4218
1095.10 156.2118
1095.20 160.1563
1095.30 164.1469
1095.40 167.4812
1095.50 167.6177
1095.60 167.8115
1095.70 167.0225
1095.80 165.5683
1095.90 164.1124
1096.00 164.7431
1096.10 165.7752
1096.20 166.6981
1096.30 167.0232
1096.40 167.3502
1096.50 167.2067
1096.60 166.4314
1096.70 165.7141
1096.80 162.977
1096.90 159.3691
1097.00 155.6892
1097.10 152.067
1097.20 148.4538
1097.30 146.7678
1097.40 148.4218
1097.50 150.0025
1097.60 152.1345
1097.70 154.5757
1097.80 157.081
1097.90 158.7319
1098.00 160.2709
1098.10 161.2086
1098.20 161.4704
1098.30 161.8236
1098.40 160.4656
1098.50 157.6136
1098.60 154.7442
1098.70 154.3647
1098.80 154.5377
1098.90 154.901
1099.00 155.6423
1099.10 156.3715
1099.20 157.6505
1099.30 159.4145
1099.40 161.1384
1099.50 161.9447
1099.60 162.3333
1099.70 162.4827
1099.80 161.7885
1099.90 161.0871
1100.00 160.5421
1100.10 160.4184
1100.20 160.314
1100.30 159.0874
1100.40 157.5323
1100.50 156.125
1100.60 155.9798
1100.70 155.7885
1100.80 156.1206
1100.90 156.8875
1101.00 157.6744
1101.10 158.5657
1101.20 159.7815
1101.30 161.2339
1101.40 162.9425
1101.50 164.6209
1101.60 165.0645
1101.70 163.4955
1101.80 162.0105
1101.90 159.3013
1102.00 156.1791
1102.10 153.097
1102.20 150.4798
1102.30 147.8821
1102.40 146.518
1102.50 148.6828
1102.60 150.7096
1102.70 153.9777
1102.80 157.382
1102.90 160.7279
1103.00 160.4201
1103.10 159.5073
1103.20 157.6353
1103.30 153.326
1103.40 149.0813
1103.50 145.2685
1103.60 142.3725
1103.70 139.5907
1103.80 141.0566
1103.90 143.3271
1104.00 145.6134
1104.10 146.7561
1104.20 147.8999
1104.30 148.4537
1104.40 149.1166
1104.50 149.8219
1104.60 150.9386
1104.70 151.9465
1104.80 152.9788
1104.90 152.6769
1105.00 152.3624
1105.10 150.4747
1105.20 146.8918
1105.30 143.427
1105.40 139.6887
1105.50 135.8341
1105.60 132.4203
1105.70 134.7783
1105.80 137.5931
1105.90 140.0732
1106.00 140.4933
1106.10 140.9718
1106.20 140.7325
1106.30 140.4069
1106.40 140.2004
1106.50 141.7882
1106.60 143.5317
1106.70 144.2841
1106.80 142.4305
1106.90 140.6203
1107.00 138.9829
1107.10 137.8334
1107.20 136.7659
1107.30 138.7128
1107.40 141.0174
1107.50 142.8921
1107.60 142.3132
1107.70 141.805
1107.80 141.6002
1107.90 142.1223
1108.00 142.6333
1108.10 144.7531
1108.20 147.1809
1108.30 149.7413
1108.40 152.0799
1108.50 154.432
1108.60 155.3574
1108.70 154.7235
1108.80 154.1691
1108.90 153.2016
1109.00 152.3616
1109.10 151.6221
1109.20 152.0114
1109.30 152.3452
1109.40 153.3591
1109.50 155.3649
1109.60 157.3869
1109.70 158.7361
1109.80 159.6509
1109.90 160.2926
1110.00 158.9377
1110.10 157.4848
1110.20 154.8682
1110.30 150.3156
1110.40 145.7594
1110.50 143.0806
1110.60 141.4664
1110.70 140.0301
1110.80 141.0048
1110.90 142.1032
1111.00 142.3986
1111.10 141.0201
1111.20 139.6659
1111.30 138.6799
1111.40 137.9539
1111.50 137.2138
1111.60 138.2027
1111.70 139.4977
1111.80 140.8703
1111.90 141.5863
1112.00 142.346
1112.10 142.2998
1112.20 141.8967
1112.30 141.5226
1112.40 142.8186
1112.50 144.4044
1112.60 146.2346
1112.70 148.4054
1112.80 150.5613
1112.90 152.2211
1113.00 153.3847
1113.10 154.6223
1113.20 154.9748
1113.30 155.3213
1113.40 155.6106
1113.50 155.1067
1113.60 154.6652
1113.70 153.3028
1113.80 150.5086
1113.90 147.5946
1114.00 147.8599
1114.10 149.0558
1114.20 150.2928
1114.30 153.1502
1114.40 155.9879
1114.50 158.5076
1114.60 160.5378
1114.70 162.7072
1114.80 161.7012
1114.90 159.4857
1115.00 157.5211
1115.10 156.9834
1115.20 156.4613
1115.30 156.0146
1115.40 155.2513
1115.50 154.542
1115.60 154.311
1115.70 154.9276
1115.80 155.4717
1115.90 154.9454
1116.00 154.3054
1116.10 153.5631
1116.20 151.8368
1116.30 150.095
1116.40 148.9792
1116.50 148.3099
1116.60 147.7103
1116.70 147.565
1116.80 147.4216
1116.90 146.6116
1117.00 144.1761
1117.10 141.7509
1117.20 139.7282
1117.30 138.1783
1117.40 136.5956
1117.50 136.5639
1117.60 136.6799
1117.70 136.7189
1117.80 138.8527
1117.90 140.956
1118.00 143.0627
1118.10 144.6643
1118.20 146.3038
1118.30 148.5026
1118.40 150.6869
1118.50 152.5632
1118.60 154.515
1118.70 156.5288
1118.80 156.6325
1118.90 153.6446
1119.00 151.2812
1119.10 149.6318
1119.20 148.3565
1119.30 147.0591
1119.40 146.6415
1119.50 146.3273
1119.60 146.1398
1119.70 146.7227
1119.80 147.3079
1119.90 147.525
1120.00 147.5461
1120.10 147.5653
1120.20 145.8403
1120.30 144.7397
1120.40 144.7086
1120.50 148.1098
1120.60 151.3657
1120.70 153.9271
1120.80 155.8369
1120.90 157.3982
1121.00 155.6824
1121.10 153.4234
1121.20 151.2156
1121.30 150.4602
1121.40 149.7071
1121.50 149.1447
1121.60 147.9766
1121.70 146.5832
1121.80 144.8519
1121.90 143.2452
1122.00 142.0416
1122.10 142.1844
1122.20 142.6569
1122.30 144.5244
1122.40 147.2819
1122.50 149.9573
1122.60 151.6773
1122.70 152.4737
1122.80 153.5707
1122.90 154.5481
1123.00 154.9637
1123.10 155.4028
1123.20 153.9719
1123.30 151.3124
1123.40 148.6467
1123.50 145.4838
1123.60 144.0704
1123.70 142.6786
1123.80 142.9191
1123.90 146.0743
1124.00 149.2256
1124.10 152.3145
1124.20 154.3998
1124.30 156.3123
1124.40 158.2259
1124.50 158.7043
1124.60 159.0306
1124.70 159.3527
1124.80 158.5281
1124.90 155.2709
1125.00 152.0071
1125.10 148.7733
1125.20 148.2788
1125.30 148.0968
1125.40 148.0501
1125.50 150.0328
1125.60 152.0106
1125.70 154.002
1125.80 155.0096
1125.90 154.936
1126.00 154.8573
1126.10 154.2874
1126.20 153.8568
1126.30 153.4277
1126.40 153.4902
1126.50 154.5915
1126.60 155.7264
1126.70 156.8551
1126.80 157.5416
1126.90 158.0361
1127.00 158.531
1127.10 157.8809
1127.20 157.0357
1127.30 156.1865
1127.40 155.1176
1127.50 153.6705
1127.60 152.224
1127.70 150.9445
1127.80 150.5677
1127.90 150.26
1128.00 150.0934
1128.10 151.1627
1128.20 152.1697
1128.30 153.1708
1128.40 153.867
1128.50 154.5938
1128.60 155.3216
1128.70 155.1686
1128.80 153.8115
1128.90 152.4505
1129.00 151.5152
1129.10 151.6431
1129.20 151.7791
1129.30 151.8186
1129.40 151.6013
1129.50 151.6866
1129.60 151.7776
1129.70 152.8004
1129.80 154.3725
1129.90 155.944
1130.00 157.1509
1130.10 156.5835
1130.20 155.9995
1130.30 155.0922
1130.40 153.1099
1130.50 151.1003
1130.60 149.0814
1130.70 148.3219
1130.80 147.8094
1130.90 147.2971
1131.00 147.9304
1131.10 149.4466
1131.20 150.9642
1131.30 152.2441
1131.40 153.1988
1131.50 154.1506
1131.60 155.2638
1131.70 156.6744
1131.80 158.0655
1131.90 159.4626
1132.00 158.9327
1132.10 158.1863
1132.20 157.4386
1132.30 156.7644
1132.40 156.2532
1132.50 155.7436
1132.60 155.7037
1132.70 155.9829
1132.80 156.2623
1132.90 156.3964
1133.00 156.0569
1133.10 155.6769
1133.20 155.3024
1133.30 154.2143
1133.40 153.0481
1133.50 151.8828
1133.60 150.0357
1133.70 147.5875
1133.80 145.1391
1133.90 143.1513
1134.00 141.7493
1134.10 140.3467
1134.20 138.9234
1134.30 138.7998
1134.40 139.0001
1134.50 139.169
1134.60 138.4372
1134.70 137.7242
1134.80 137.0185
1134.90 139.6963
1135.00 143.8971
1135.10 148.0859
1135.20 150.4064
1135.30 149.2875
1135.40 148.164
1135.50 147.1477
1135.60 145.6622
1135.70 143.9731
1135.80 142.2637
1135.90 140.5987
1136.00 140.3985
1136.10 140.2036
1136.20 141.9964
1136.30 144.0982
1136.40 146.1901
1136.50 147.0227
1136.60 145.441
1136.70 143.8576
1136.80 142.2615
1136.90 140.6555
1137.00 139.0781
1137.10 137.488
1137.20 136.6529
1137.30 135.7259
1137.40 134.7954
1137.50 132.4937
1137.60 129.6918
1137.70 126.8767
1137.80 123.4243
1137.90 116.9842
1138.00 110.524
1138.10 104.2359
1138.20 98.87067
1138.30 93.62759
1138.40 88.31012
1138.50 91.94399
1138.60 98.13862
1138.70 104.3693
1138.80 110.9103
1138.90 117.7855
1139.00 124.6358
1139.10 129.8898
1139.20 130.6295
1139.30 131.3468
1139.40 131.9129
1139.50 130.3835
1139.60 128.5316
1139.70 126.6966
1139.80 123.5842
1139.90 120.2429
1140.00 116.889
1140.10 112.1486
1140.20 105.1584
1140.30 98.14957
1140.40 91.94563
1140.50 87.35373
1140.60 82.80987
1140.70 79.08723
1140.80 83.05175
1140.90 88.69863
1141.00 94.31997
1141.10 102.1429
1141.20 110.4407
1141.30 118.7229
1141.40 124.5653
1141.50 129.0791
1141.60 133.5789
1141.70 138.0128
1141.80 140.2311
1141.90 142.4382
1142.00 144.4621
1142.10 145.507
1142.20 146.4676
1142.30 147.4454
1142.40 148.2239
1142.50 148.7761
1142.60 149.331
1142.70 149.5066
1142.80 149.7555
1142.90 150.003
1143.00 150.3021
1143.10 149.9254
1143.20 149.5455
1143.30 149.1325
1143.40 148.8361
1143.50 148.6502
1143.60 148.464
1143.70 148.6194
1143.80 148.6673
1143.90 148.7091
1144.00 148.121
1144.10 147.8418
1144.20 147.5715
1144.30 147.4026
1144.40 147.0265
1144.50 146.6507
1144.60 146.5818
1144.70 147.5159
1144.80 148.3852
1144.90 149.2422
1145.00 149.1583
1145.10 149.115
1145.20 149.0706
1145.30 149.1551
1145.40 148.9115
1145.50 148.6671
1145.60 148.2972
1145.70 147.7643
1145.80 147.2321
1145.90 147.1046
1146.00 149.1714
1146.10 151.4517
1146.20 153.7381
1146.30 154.3791
1146.40 154.6961
1146.50 155.0134
1146.60 155.3137
1146.70 155.8907
1146.80 156.461
1146.90 157.1933
1147.00 156.8792
1147.10 156.5614
1147.20 156.0676
1147.30 155.5526
1147.40 155.3544
1147.50 155.1563
1147.60 156.0724
1147.70 157.2287
1147.80 158.3853
1147.90 159.7578
1148.00 160.8509
1148.10 161.9419
1148.20 162.1865
1148.30 160.4863
1148.40 158.778
1148.50 157.203
1148.60 156.8768
1148.70 156.8728
1148.80 156.8614
1148.90 158.8976
1149.00 161.3809
1149.10 163.8624
1149.20 165.048
1149.30 164.3346
1149.40 163.6159
1149.50 162.4495
1149.60 161.7251
1149.70 161.0069
1149.80 160.3123
1149.90 159.8912
1150.00 159.5311
1150.10 159.1825
1150.20 159.7697
1150.30 160.0817
1150.40 160.3945
1150.50 160.3429
1150.60 160.6835
1150.70 161.0274
1150.80 161.4473
1150.90 162.191
1151.00 162.9317
1151.10 163.5868
1151.20 163.4944
1151.30 163.2643
1151.40 163.0397
1151.50 162.7036
1151.60 162.0945
1151.70 161.4861
1151.80 160.5698
1151.90 160.0589
1152.00 159.5487
1152.10 158.7829
1152.20 156.6798
1152.30 154.5685
1152.40 152.4233
1152.50 150.3952
1152.60 148.5421
1152.70 146.6681
1152.80 148.3843
1152.90 150.9276
1153.00 153.4709
1153.10 154.8407
1153.20 155.0615
1153.30 155.2818
1153.40 155.2334
1153.50 154.9671
1153.60 154.7053
1153.70 154.6302
1153.80 155.9307
1153.90 157.4717
1154.00 159.015
1154.10 160.3361
1154.20 161.554
1154.30 162.7684
1154.40 162.288
1154.50 160.2514
1154.60 158.2096
1154.70 156.5811
1154.80 155.4194
1154.90 154.2663
1155.00 153.3776
1155.10 154.4321
1155.20 155.6838
1155.30 156.9439
1155.40 157.7406
1155.50 158.4618
1155.60 159.1787
1155.70 159.8125
1155.80 160.6559
1155.90 161.4963
1156.00 162.1505
1156.10 161.4471
1156.20 160.7442
1156.30 160.1905
1156.40 160.8473
1156.50 161.6663
1156.60 162.4796
1156.70 162.2662
1156.80 161.6354
1156.90 161.008
1157.00 160.297
1157.10 159.3538
1157.20 158.415
1157.30 157.5323
1157.40 157.3874
1157.50 157.2427
1157.60 157.1263
1157.70 157.2033
1157.80 157.3143
1157.90 157.42
1158.00 158.038
1158.10 158.7908
1158.20 159.543
1158.30 159.6456
1158.40 159.1417
1158.50 158.6364
1158.60 158.0978
1158.70 157.3188
1158.80 156.5371
1158.90 155.6253
1159.00 154.0711
1159.10 152.4847
1159.20 150.9055
1159.30 149.0159
1159.40 146.763
1159.50 144.508
1159.60 143.4378
1159.70 143.5582
1159.80 143.6908
1159.90 144.0969
1160.00 145.6764
1160.10 147.257
1160.20 148.8959
1160.30 150.825
1160.40 152.7668
1160.50 154.7333
1160.60 154.1537
1160.70 152.9148
1160.80 151.6767
1160.90 150.9899
1161.00 150.2441
1161.10 149.5153
1161.20 149.7828
1161.30 153.0562
1161.40 156.3445
1161.50 159.2848
1161.60 160.5824
1161.70 161.7581
1161.80 163.0092
1161.90 161.6016
1162.00 159.5322
1162.10 157.4568
1162.20 156.3278
1162.30 155.9323
1162.40 155.541
1162.50 155.701
1162.60 157.0748
1162.70 158.451
1162.80 159.8765
1162.90 161.619
1163.00 163.3934
1163.10 165.1698
1163.20 165.3542
1163.30 165.2267
1163.40 165.1125
1163.50 163.2192
1163.60 159.8108
1163.70 156.3933
1163.80 153.75
1163.90 151.9118
1164.00 150.0833
1164.10 148.4957
1164.20 149.6789
1164.30 151.2383
1164.40 152.7558
1164.50 154.8356
1164.60 157.0943
1164.70 159.3677
1164.80 159.5712
1164.90 158.7333
1165.00 157.8911
1165.10 157.1653
1165.20 155.9847
1165.30 154.802
1165.40 153.6566
1165.50 152.5759
1165.60 151.4999
1165.70 150.3941
1165.80 151.3777
1165.90 152.9085
1166.00 154.4311
1166.10 156.0049
1166.20 157.5926
1166.30 159.1793
1166.40 160.2662
1166.50 160.0719
1166.60 159.8753
1166.70 159.5516
1166.80 158.6621
1166.90 157.7438
1167.00 156.8392
1167.10 155.9707
1167.20 155.1269
1167.30 154.2757
1167.40 152.859
1167.50 151.2507
1167.60 149.6431
1167.70 148.7402
1167.80 148.6778
1167.90 148.6176
1168.00 148.2786
1168.10 147.0396
1168.20 145.7685
1168.30 144.3521
1168.40 140.7525
1168.50 136.8785
1168.60 133.0239
1168.70 126.9204
1168.80 119.3358
1168.90 111.7286
1169.00 104.5812
1169.10 96.85315
1169.20 89.15342
1169.30 83.09372
1169.40 86.87003
1169.50 91.30796
1169.60 95.76068
1169.70 103.9735
1169.80 112.9547
1169.90 121.972
1170.00 128.509
1170.10 133.4604
1170.20 138.4007
1170.30 142.6457
1170.40 145.4799
1170.50 148.3072
1170.60 150.7885
1170.70 151.5813
1170.80 152.2917
1170.90 153.024
1171.00 153.3792
1171.10 153.5684
1171.20 153.7536
1171.30 153.9069
1171.40 154.2272
1171.50 154.5463
1171.60 154.5326
1171.70 153.8581
1171.80 153.1803
1171.90 152.4366
1172.00 151.747
1172.10 151.0603
1172.20 150.4145
1172.30 150.6402
1172.40 150.971
1172.50 151.2963
1172.60 152.0092
1172.70 152.8125
1172.80 153.6186
1172.90 154.3924
1173.00 155.2405
1173.10 156.0867
1173.20 156.6138
1173.30 155.8199
1173.40 155.0197
1173.50 154.2426
1173.60 153.4839
1173.70 152.7245
1173.80 151.9401
1173.90 151.5456
1174.00 151.5303
1174.10 151.5143
1174.20 152.1378
1174.30 153.1383
1174.40 154.1398
1174.50 154.9473
1174.60 155.1902
1174.70 155.4276
1174.80 155.5223
1174.90 154.5419
1175.00 153.4446
1175.10 152.3648
1175.20 150.8453
1175.30 149.2476
1175.40 147.6463
1175.50 147.4333
1175.60 148.1555
1175.70 148.8816
1175.80 148.9247
1175.90 147.2503
1176.00 145.5701
1176.10 143.8382
1176.20 141.4293
1176.30 138.9417
1176.40 136.4633
1176.50 133.2768
1176.60 129.9604
1176.70 126.6675
1176.80 120.382
1176.90 111.1969
1177.00 101.989
1177.10 93.54597
1177.20 85.04898
1177.30 76.5752
1177.40 68.95519
1177.50 69.25729
1177.60 70.59466
1177.70 71.70674
1177.80 79.03258
1177.90 88.15007
1178.00 97.27175
1178.10 105.0098
1178.20 111.5631
1178.30 118.0948
1178.40 123.9273
1178.50 127.7528
1178.60 131.5725
1178.70 135.2656
1178.80 137.5486
1178.90 139.7488
1179.00 141.9792
1179.10 142.8564
1179.20 143.5187
1179.30 144.1883
1179.40 144.4997
1179.50 144.497
1179.60 144.4929
1179.70 144.7647
1179.80 145.4254
1179.90 146.0887
1180.00 146.7314
1180.10 147.6822
1180.20 148.6787
1180.30 149.648
1180.40 150.285
1180.50 150.8566
1180.60 151.4459
1180.70 151.3247
1180.80 150.6224
1180.90 149.9192
1181.00 149.149
1181.10 148.3606
1181.20 147.5725
1181.30 146.7414
1181.40 145.8651
1181.50 144.9946
1181.60 144.1501
1181.70 143.9832
1181.80 143.9653
1181.90 143.9407
1182.00 145.0349
1182.10 146.5087
1182.20 147.9865
1182.30 148.7048
1182.40 148.4642
1182.50 148.216
1182.60 147.9054
1182.70 146.7398
1182.80 145.5702
1182.90 144.4679
1183.00 144.5975
1183.10 144.9603
1183.20 145.2951
1183.30 145.2166
1183.40 145.1721
1183.50 145.1306
1183.60 144.5256
1183.70 142.9474
1183.80 141.3656
1183.90 140.4475
1184.00 141.5614
1184.10 142.686
1184.20 143.8152
1184.30 146.0934
1184.40 148.4983
1184.50 150.9519
1184.60 150.1308
1184.70 148.2089
1184.80 146.2885
1184.90 144.531
1185.00 142.7796
1185.10 141.0334
1185.20 140.1474
1185.30 141.3811
1185.40 142.6217
1185.50 143.8073
1185.60 145.2413
1185.70 146.7481
1185.80 148.2619
1185.90 148.7006
1186.00 148.8757
1186.10 149.0555
1186.20 149.1191
1186.30 149.2904
1186.40 149.4601
1186.50 149.5382
1186.60 149.0125
1186.70 148.4833
1186.80 147.9011
1186.90 146.6689
1187.00 145.3691
1187.10 144.0448
1187.20 144.4274
1187.30 145.2715
1187.40 146.1034
1187.50 146.5485
1187.60 146.9437
1187.70 147.3354
1187.80 147.3504
1187.90 146.2111
1188.00 145.0603
1188.10 143.6728
1188.20 139.7137
1188.30 135.5907
1188.40 131.505
1188.50 129.8268
1188.60 128.4319
1188.70 126.9447
1188.80 128.7126
1188.90 133.4842
1189.00 138.2662
1189.10 141.8304
1189.20 143.6638
1189.30 145.4763
1189.40 147.1763
1189.50 147.638
1189.60 148.0242
1189.70 148.3919
1189.80 148.986
1189.90 149.4678
1190.00 149.9577
1190.10 149.6843
1190.20 148.9196
1190.30 148.1579
1190.40 147.1956
1190.50 145.9236
1190.60 144.6504
1190.70 143.8141
1190.80 144.5518
1190.90 145.2988
1191.00 145.9789
1191.10 146.7953
1191.20 147.7931
1191.30 148.7942
1191.40 149.2925
1191.50 149.4557
1191.60 149.6194
1191.70 149.6208
1191.80 149.3947
1191.90 149.1694
1192.00 148.9464
1192.10 149.0712
1192.20 149.1931
1192.30 149.2893
1192.40 148.5599
1192.50 147.7196
1192.60 146.8688
1192.70 146.7094
1192.80 146.8035
1192.90 146.897
1193.00 147.4498
1193.10 148.4484
1193.20 149.4455
1193.30 149.8255
1193.40 148.8869
1193.50 147.9422
1193.60 146.9717
1193.70 144.5715
1193.80 141.9894
1193.90 139.4021
1194.00 138.2838
1194.10 137.5552
1194.20 136.8143
1194.30 136.421
1194.40 136.5725
1194.50 136.7224
1194.60 136.4004
1194.70 134.5526
1194.80 132.6973
1194.90 131.0979
1195.00 130.4071
1195.10 129.7405
1195.20 128.9999
1195.30 131.1519
1195.40 134.2744
1195.50 137.3845
1195.60 138.8026
1195.70 139.279
1195.80 139.7462
1195.90 139.6083
1196.00 137.5685
1196.10 135.5268
1196.20 133.6645
1196.30 132.8388
1196.40 132.0538
1196.50 131.2429
1196.60 131.1588
1196.70 131.1932
1196.80 131.2313
1196.90 130.9025
1197.00 130.2632
1197.10 129.6276
1197.20 127.7982
1197.30 123.6295
1197.40 119.4583
1197.50 115.7601
1197.60 114.4666
1197.70 113.2104
1197.80 111.7974
1197.90 113.9943
1198.00 116.7966
1198.10 119.6044
1198.20 121.7102
1198.30 123.4086
1198.40 125.1037
1198.50 126.9188
1198.60 129.2096
1198.70 131.4952
1198.80 133.0598
1198.90 130.8136
1199.00 128.553
1199.10 126.4147
1199.20 124.5844
1199.30 122.6858
1199.40 120.7514
1199.50 120.425
1199.60 120.974
1199.70 121.5156
1199.80 122.3209
1199.90 123.5019
1200.00 124.6803
