# Version 2.1 - nm, norm@500 to 1, cut digits
# Wavelength(nm)  Flambda(ergs/cm^s/s/nm)
300.00 0.008766121
300.10 0.01062375
300.20 0.01224132
300.30 0.01353615
300.40 0.01449572
300.50 0.01515455
300.60 0.01557252
300.70 0.0158203
300.80 0.01596609
300.90 0.01606409
301.00 0.01615367
301.10 0.0162514
301.20 0.01635686
301.30 0.01646902
301.40 0.01658648
301.50 0.01670778
301.60 0.01683163
301.70 0.01695699
301.80 0.0170831
301.90 0.01720952
302.00 0.01733601
302.10 0.01746249
302.20 0.01758903
302.30 0.0177158
302.40 0.01784315
302.50 0.01797164
302.60 0.01810206
302.70 0.0182354
302.80 0.01837277
302.90 0.01851522
303.00 0.01866354
303.10 0.01881805
303.20 0.01897844
303.30 0.0191439
303.40 0.01931339
303.50 0.0194858
303.60 0.01966015
303.70 0.01983563
303.80 0.0200117
303.90 0.02018799
304.00 0.02036434
304.10 0.02054068
304.20 0.02071687
304.30 0.02089236
304.40 0.02106608
304.50 0.0212363
304.60 0.02140061
304.70 0.02155598
304.80 0.02169906
304.90 0.02182659
305.00 0.02193614
305.10 0.02202678
305.20 0.02209945
305.30 0.02215657
305.40 0.0222014
305.50 0.02223729
305.60 0.02226726
305.70 0.02229373
305.80 0.02231844
305.90 0.02234245
306.00 0.0223663
306.10 0.02239015
306.20 0.022414
306.30 0.02243786
306.40 0.02246171
306.50 0.02248558
306.60 0.02250945
306.70 0.02253335
306.80 0.02255727
306.90 0.02258123
307.00 0.02260522
307.10 0.02262926
307.20 0.02265334
307.30 0.02267745
307.40 0.02270158
307.50 0.02272574
307.60 0.02274991
307.70 0.02277408
307.80 0.02279826
307.90 0.02282244
308.00 0.02284662
308.10 0.02287081
308.20 0.02289539
308.30 0.02292172
308.40 0.02295247
308.50 0.02299197
308.60 0.02304629
308.70 0.02312296
308.80 0.02323041
308.90 0.02337677
309.00 0.02356813
309.10 0.02380679
309.20 0.02409045
309.30 0.02441302
309.40 0.02476637
309.50 0.02514208
309.60 0.0255326
309.70 0.02593187
309.80 0.02633556
309.90 0.026741
310.00 0.02714684
310.10 0.02755268
310.20 0.02795811
310.30 0.02836179
310.40 0.02876102
310.50 0.02915146
310.60 0.02952701
310.70 0.02988008
310.80 0.03020221
310.90 0.03048524
311.00 0.03072302
311.10 0.03091325
311.20 0.03105824
311.30 0.03116411
311.40 0.03123906
311.50 0.03129152
311.60 0.03132909
311.70 0.03135786
311.80 0.0313822
311.90 0.03140477
312.00 0.03142694
312.10 0.03144911
312.20 0.03147178
312.30 0.03149662
312.40 0.03152695
312.50 0.03156814
312.60 0.03162772
312.70 0.03171507
312.80 0.03184062
312.90 0.03201448
313.00 0.03224421
313.10 0.03253267
313.20 0.03287701
313.30 0.03326965
313.40 0.0337005
313.50 0.03415911
313.60 0.03463611
313.70 0.03512398
313.80 0.03561733
313.90 0.03611285
314.00 0.03660888
314.10 0.0371049
314.20 0.03760127
314.30 0.03809915
314.40 0.03860085
314.50 0.03911011
314.60 0.03963218
314.70 0.04017357
314.80 0.04074155
314.90 0.04134316
315.00 0.04198367
315.10 0.04266505
315.20 0.04338534
315.30 0.04413924
315.40 0.04491974
315.50 0.04571957
315.60 0.0465322
315.70 0.04735239
315.80 0.0481764
315.90 0.04900192
316.00 0.04982779
316.10 0.05065366
316.20 0.05147826
316.30 0.05229729
316.40 0.05310229
316.50 0.05387949
316.60 0.05460964
316.70 0.05526875
316.80 0.05583009
316.90 0.05626784
317.00 0.05656261
317.10 0.05670712
317.20 0.05670865
317.30 0.05658659
317.40 0.05636676
317.50 0.0560759
317.60 0.05573797
317.70 0.05537225
317.80 0.0549925
317.90 0.05460719
318.00 0.0542206
318.10 0.05383401
318.20 0.0534484
318.30 0.05306705
318.40 0.05269643
318.50 0.0523471
318.60 0.05203378
318.70 0.05177485
318.80 0.05159075
318.90 0.05150127
319.00 0.05152123
319.10 0.05165621
319.20 0.05190065
319.30 0.05223969
319.40 0.05265357
319.50 0.05312183
319.60 0.05362611
319.70 0.05415167
319.80 0.05468797
319.90 0.05522853
320.00 0.05577007
320.10 0.0563116
320.20 0.05685278
320.30 0.05739238
320.40 0.057928
320.50 0.05845576
320.60 0.05897019
320.70 0.05946452
320.80 0.05993116
320.90 0.06036281
321.00 0.06075398
321.10 0.06110261
321.20 0.06141076
321.30 0.06168392
321.40 0.06192941
321.50 0.06215477
321.60 0.06236682
321.70 0.062571
321.80 0.0627712
321.90 0.06296983
322.00 0.0631681
322.10 0.06336636
322.20 0.06356595
322.30 0.06377129
322.40 0.06399114
322.50 0.06423973
322.60 0.06453699
322.70 0.06490771
322.80 0.06537953
322.90 0.06597917
323.00 0.06672665
323.10 0.06762954
323.20 0.06868028
323.30 0.06985882
323.40 0.07113847
323.50 0.07249159
323.60 0.07389337
323.70 0.07532389
323.80 0.07676892
323.90 0.0782197
324.00 0.07967181
324.10 0.08112391
324.20 0.0825758
324.30 0.08402675
324.40 0.08547535
324.50 0.08691928
324.60 0.0883553
324.70 0.08977939
324.80 0.09118706
324.90 0.09257396
325.00 0.09393685
325.10 0.0952745
325.20 0.09658812
325.30 0.09788099
325.40 0.09915743
325.50 0.1004219
325.60 0.1016785
325.70 0.1029305
325.80 0.1041801
325.90 0.1054287
326.00 0.1066771
326.10 0.1079256
326.20 0.1091744
326.30 0.1104254
326.40 0.1116813
326.50 0.1129474
326.60 0.1142305
326.70 0.1155393
326.80 0.1168835
326.90 0.1182724
327.00 0.1197132
327.10 0.1212083
327.20 0.1227552
327.30 0.1243468
327.40 0.1259738
327.50 0.1276266
327.60 0.1292964
327.70 0.1309762
327.80 0.1326612
327.90 0.1343481
328.00 0.1360355
328.10 0.1377229
328.20 0.1394077
328.30 0.1410805
328.40 0.1427236
328.50 0.1443077
328.60 0.1457917
328.70 0.1471249
328.80 0.1482503
328.90 0.1491132
329.00 0.1496724
329.10 0.1499124
329.20 0.1498486
329.30 0.1495223
329.40 0.1489883
329.50 0.1483034
329.60 0.1475185
329.70 0.1466746
329.80 0.1458009
329.90 0.1449153
330.00 0.1440271
330.10 0.1431388
330.20 0.1422526
330.30 0.1413751
330.40 0.1405197
330.50 0.1397081
330.60 0.1389707
330.70 0.1383452
330.80 0.1378738
330.90 0.1375972
331.00 0.1375459
331.10 0.1377313
331.20 0.1381421
331.30 0.1387476
331.40 0.1395072
331.50 0.1403788
331.60 0.1413245
331.70 0.142314
331.80 0.1433256
331.90 0.144346
332.00 0.1453684
332.10 0.1463908
332.20 0.1474119
332.30 0.1484275
332.40 0.1494291
332.50 0.1504029
332.60 0.1513298
332.70 0.1521858
332.80 0.1529443
332.90 0.1535794
333.00 0.1540719
333.10 0.1544145
333.20 0.1546144
333.30 0.154691
333.40 0.1546701
333.50 0.1545782
333.60 0.1544395
333.70 0.154273
333.80 0.1540925
333.90 0.1539064
334.00 0.1537191
334.10 0.1535489
334.20 0.1534238
334.30 0.1533595
334.40 0.1533573
334.50 0.1534044
334.60 0.1535034
334.70 0.1537077
334.80 0.1541413
334.90 0.1549783
335.00 0.156401
335.10 0.158594
335.20 0.1617077
335.30 0.1657268
335.40 0.1703111
335.50 0.1747482
335.60 0.1781005
335.70 0.179523
335.80 0.1785985
335.90 0.1754794
336.00 0.1708017
336.10 0.1654348
336.20 0.1602442
336.30 0.1559331
336.40 0.1529086
336.50 0.1512655
336.60 0.1508934
336.70 0.1516461
336.80 0.1534381
336.90 0.1561752
337.00 0.1596259
337.10 0.1633397
337.20 0.1667319
337.30 0.1693436
337.40 0.1710719
337.50 0.1721674
337.60 0.1730308
337.70 0.1739312
337.80 0.1748324
337.90 0.1754689
338.00 0.1755209
338.10 0.1747655
338.20 0.173137
338.30 0.1707348
338.40 0.1679042
338.50 0.1652492
338.60 0.1634859
338.70 0.1631595
338.80 0.164363
338.90 0.166758
339.00 0.1698728
339.10 0.1733996
339.20 0.177279
339.30 0.1815167
339.40 0.1859251
339.50 0.1900683
339.60 0.1934231
339.70 0.1955711
339.80 0.1962771
339.90 0.1954391
340.00 0.1930637
340.10 0.1892992
340.20 0.1844401
340.30 0.1788607
340.40 0.172916
340.50 0.1669474
340.60 0.1613461
340.70 0.1565578
340.80 0.1530186
340.90 0.1510269
341.00 0.1506473
341.10 0.1517216
341.20 0.153938
341.30 0.1568857
341.40 0.1601279
341.50 0.1632732
341.60 0.1660203
341.70 0.1681945
341.80 0.1697203
341.90 0.1705521
342.00 0.1706473
342.10 0.1699922
342.20 0.1686562
342.30 0.1668404
342.40 0.164885
342.50 0.1631887
342.60 0.1620691
342.70 0.1616574
342.80 0.1618912
342.90 0.1625845
343.00 0.1635212
343.10 0.1645242
343.20 0.1654694
343.30 0.1662652
343.40 0.1668303
343.50 0.1670961
343.60 0.1670382
343.70 0.1666816
343.80 0.1660843
343.90 0.165332
344.00 0.1645323
344.10 0.1637937
344.20 0.163193
344.30 0.1627719
344.40 0.1625714
344.50 0.162678
344.60 0.1632372
344.70 0.1644107
344.80 0.1663077
344.90 0.1689278
345.00 0.1721431
345.10 0.1757094
345.20 0.1793037
345.30 0.182581
345.40 0.1852382
345.50 0.187082
345.60 0.1880631
345.70 0.1882635
345.80 0.1878348
345.90 0.1869133
346.00 0.1855863
346.10 0.1839117
346.20 0.1819567
346.30 0.1798295
346.40 0.1776787
346.50 0.1756412
346.60 0.1737795
346.70 0.1720651
346.80 0.1704248
346.90 0.1688284
347.00 0.1673409
347.10 0.1661199
347.20 0.1653816
347.30 0.1653443
347.40 0.1661536
347.50 0.1678164
347.60 0.1701954
347.70 0.1730623
347.80 0.1761636
347.90 0.1792678
348.00 0.1821709
348.10 0.1846844
348.20 0.1866367
348.30 0.1879016
348.40 0.1884336
348.50 0.1882844
348.60 0.1875763
348.70 0.1864524
348.80 0.1850588
348.90 0.1835528
349.00 0.1820892
349.10 0.180796
349.20 0.1797663
349.30 0.179065
349.40 0.1787423
349.50 0.1788396
349.60 0.1793875
349.70 0.1804094
349.80 0.1819407
349.90 0.1840412
350.00 0.1867549
350.10 0.190025
350.20 0.1936245
350.30 0.1971697
350.40 0.2002167
350.50 0.2023751
350.60 0.2033799
350.70 0.2031023
350.80 0.2015348
350.90 0.1987731
351.00 0.194993
351.10 0.1904338
351.20 0.1853974
351.30 0.180255
351.40 0.1754176
351.50 0.1712572
351.60 0.168004
351.70 0.1656881
351.80 0.1641781
351.90 0.1632964
352.00 0.1629322
352.10 0.1630703
352.20 0.1637763
352.30 0.1651777
352.40 0.1674275
352.50 0.1706542
352.60 0.1748756
352.70 0.179923
352.80 0.1854543
352.90 0.1910629
353.00 0.1964275
353.10 0.2014007
353.20 0.205988
353.30 0.2102639
353.40 0.2143105
353.50 0.2181963
353.60 0.2219573
353.70 0.2255608
353.80 0.2288926
353.90 0.2317796
354.00 0.2340355
354.10 0.2355202
354.20 0.2361827
354.30 0.2360859
354.40 0.2354128
354.50 0.2344147
354.60 0.2333179
354.70 0.2322576
354.80 0.2312728
354.90 0.2303502
355.00 0.2294702
355.10 0.2286177
355.20 0.227769
355.30 0.2268823
355.40 0.2259011
355.50 0.2247553
355.60 0.2233595
355.70 0.2216126
355.80 0.2194094
355.90 0.2166894
356.00 0.213472
356.10 0.2098402
356.20 0.2059085
356.30 0.2018036
356.40 0.1976714
356.50 0.1936923
356.60 0.1900778
356.70 0.1870272
356.80 0.1846526
356.90 0.1829176
357.00 0.1816445
357.10 0.18058
357.20 0.1794635
357.30 0.178084
357.40 0.1763243
357.50 0.1741832
357.60 0.1717725
357.70 0.1692914
357.80 0.1669877
357.90 0.1651089
358.00 0.1638596
358.10 0.1633803
358.20 0.1637223
358.30 0.164825
358.40 0.1665092
358.50 0.1685106
358.60 0.1705514
358.70 0.1724123
358.80 0.1739879
358.90 0.1753034
359.00 0.1764863
359.10 0.1776995
359.20 0.1790562
359.30 0.180559
359.40 0.182084
359.50 0.1834339
359.60 0.1844258
359.70 0.1849507
359.80 0.1849737
359.90 0.1844981
360.00 0.1835382
360.10 0.1821274
360.20 0.1803675
360.30 0.1784679
360.40 0.1767422
360.50 0.1755557
360.60 0.1752369
360.70 0.1759878
360.80 0.1778177
360.90 0.1805277
361.00 0.1837686
361.10 0.1871545
361.20 0.190362
361.30 0.193173
361.40 0.1954817
361.50 0.1972819
361.60 0.1986441
361.70 0.1996897
361.80 0.2005486
361.90 0.2013027
362.00 0.2019616
362.10 0.2024959
362.20 0.2028771
362.30 0.2030961
362.40 0.2031594
362.50 0.2030696
362.60 0.2028179
362.70 0.2023873
362.80 0.2017688
362.90 0.2009994
363.00 0.2001893
363.10 0.1994946
363.20 0.1990509
363.30 0.1989141
363.40 0.1990385
363.50 0.1992989
363.60 0.1995325
363.70 0.1995731
363.80 0.1992712
363.90 0.1985183
364.00 0.197274
364.10 0.1955845
364.20 0.1935864
364.30 0.1914888
364.40 0.1895367
364.50 0.1879728
364.60 0.1869983
364.70 0.1867294
364.80 0.1871764
364.90 0.1882625
365.00 0.1898602
365.10 0.1918183
365.20 0.1939578
365.30 0.1960573
365.40 0.1978779
365.50 0.1992323
365.60 0.2000554
365.70 0.2004245
365.80 0.2005071
365.90 0.2004807
366.00 0.2004781
366.10 0.2005748
366.20 0.2007962
366.30 0.2011073
366.40 0.2013998
366.50 0.2015161
366.60 0.201303
366.70 0.2006768
366.80 0.1996648
366.90 0.1984008
367.00 0.1970946
367.10 0.195983
367.20 0.1952794
367.30 0.1951325
367.40 0.1955922
367.50 0.1966015
367.60 0.1980224
367.70 0.1996773
367.80 0.2013899
367.90 0.2030083
368.00 0.2044157
368.10 0.2055318
368.20 0.2063107
368.30 0.2067454
368.40 0.2068771
368.50 0.2067981
368.60 0.2066439
368.70 0.2065628
368.80 0.2066706
368.90 0.2070187
369.00 0.207586
369.10 0.2082976
369.20 0.2090522
369.30 0.2097436
369.40 0.2102823
369.50 0.2106263
369.60 0.2108165
369.70 0.2109854
369.80 0.2113172
369.90 0.2119799
370.00 0.21306
370.10 0.2145292
370.20 0.2162574
370.30 0.218056
370.40 0.2197317
370.50 0.2211321
370.60 0.2221698
370.70 0.2228285
370.80 0.223141
370.90 0.2231442
371.00 0.2228347
371.10 0.22215
371.20 0.220997
371.30 0.2193153
371.40 0.2171413
371.50 0.2146417
371.60 0.2120834
371.70 0.2097441
371.80 0.207816
371.90 0.2063334
372.00 0.2051561
372.10 0.2040144
372.20 0.2025939
372.30 0.200657
372.40 0.198169
372.50 0.1953741
372.60 0.1927637
372.70 0.1909291
372.80 0.1903597
372.90 0.1912659
373.00 0.1935
373.10 0.1965907
373.20 0.1998586
373.30 0.2025738
373.40 0.2041187
373.50 0.2041137
373.60 0.202486
373.70 0.1994782
373.80 0.1955972
373.90 0.1915361
374.00 0.1880653
374.10 0.1859072
374.20 0.1856158
374.30 0.1874788
374.40 0.1914673
374.50 0.197227
374.60 0.2041154
374.70 0.2112875
374.80 0.2178303
374.90 0.2229248
375.00 0.2260011
375.10 0.2268358
375.20 0.2255651
375.30 0.2226147
375.40 0.2185831
375.50 0.2141156
375.60 0.2097909
375.70 0.206052
375.80 0.2031964
375.90 0.201421
376.00 0.2009003
376.10 0.2018498
376.20 0.204529
376.30 0.2091819
376.40 0.215926
376.50 0.2246396
376.60 0.2348979
376.70 0.2459643
376.80 0.2568413
376.90 0.2663891
377.00 0.2735066
377.10 0.277349
377.20 0.2775129
377.30 0.274111
377.40 0.2677167
377.50 0.2592144
377.60 0.2496127
377.70 0.2398709
377.80 0.2307659
377.90 0.2228176
378.00 0.2162782
378.10 0.2111802
378.20 0.2074254
378.30 0.2048716
378.40 0.2034068
378.50 0.2030067
378.60 0.2037632
378.70 0.2058864
378.80 0.209671
378.90 0.2154228
379.00 0.2233706
379.10 0.2335623
379.20 0.2457526
379.30 0.2593307
379.40 0.2733196
379.50 0.2864789
379.60 0.2974907
379.70 0.3051825
379.80 0.3087421
379.90 0.3078766
380.00 0.3028649
380.10 0.29448
380.20 0.2838069
380.30 0.2720149
380.40 0.2601533
380.50 0.2490184
380.60 0.2391027
380.70 0.2306097
380.80 0.2235168
380.90 0.2176744
381.00 0.2129033
381.10 0.2090503
381.20 0.2059981
381.30 0.2036457
381.40 0.2018949
381.50 0.2006503
381.60 0.2034408
381.70 0.2145367
381.80 0.2362547
381.90 0.2714248
382.00 0.3254476
382.10 0.4036096
382.20 0.5008064
382.30 0.6208184
382.40 0.7607149
382.50 0.9114128
382.60 1.065556
382.70 1.214321
382.80 1.35153
382.90 1.474155
383.00 1.599262
383.10 1.718507
383.20 1.784013
383.30 1.782337
383.40 1.708174
383.50 1.566257
383.60 1.370349
383.70 1.142382
383.80 0.9038192
383.90 0.6738556
384.00 0.4770511
384.10 0.3409944
384.20 0.2853546
384.30 0.3020293
384.40 0.3628566
384.50 0.4481923
384.60 0.5203738
384.70 0.5742149
384.80 0.5739628
384.90 0.504224
385.00 0.3768286
385.10 0.2313392
385.20 0.1254039
385.30 0.1049961
385.40 0.1743858
385.50 0.2980709
385.60 0.4258731
385.70 0.5223516
385.80 0.5762925
385.90 0.5937475
386.00 0.5951329
386.10 0.6039049
386.20 0.6363754
386.30 0.6955999
386.40 0.7751118
386.50 0.8661456
386.60 0.9578098
386.70 1.037669
386.80 1.093951
386.90 1.118997
387.00 1.111513
387.10 1.07403
387.20 1.006704
387.30 0.9114443
387.40 0.798129
387.50 0.6799995
387.60 0.5647378
387.70 0.4569573
387.80 0.3790028
387.90 0.3625652
388.00 0.4163281
388.10 0.5225292
388.20 0.6523597
388.30 0.785519
388.40 0.9097018
388.50 1.007901
388.60 1.058741
388.70 1.047232
388.80 0.9694141
388.90 0.8328043
389.00 0.6553989
389.10 0.4587031
389.20 0.26269
389.30 0.08656002
389.40 0.01741086
389.50 0
389.60 0
389.70 0
389.80 0.01486965
389.90 0.01748758
390.00 0.05178689
390.10 0.1078402
390.20 0.1659598
390.30 0.2388105
390.40 0.3468611
390.50 0.4606881
390.60 0.5861403
390.70 0.7336182
390.80 0.8939154
390.90 1.031977
391.00 1.107473
391.10 1.100756
391.20 1.0205
391.30 0.9342907
391.40 0.8223426
391.50 0.6900971
391.60 0.5435564
391.70 0.3840275
391.80 0.2143429
391.90 0.03457068
392.00 0
392.10 0
392.20 0
392.30 0.003369792
392.40 0.004699849
392.50 0
392.60 0
392.70 0
392.80 0
392.90 0
393.00 0.02040818
393.10 0.07337731
393.20 0.1832172
393.30 0.3183327
393.40 0.3904966
393.50 0.3850147
393.60 0.3227264
393.70 0.2438835
393.80 0.1732335
393.90 0.1093319
394.00 0.036511
394.10 0.01382237
394.20 0
394.30 0.0004861212
394.40 0.0001293809
394.50 0
394.60 0
394.70 0.08577444
394.80 0.1724834
394.90 0.2383756
395.00 0.2624372
395.10 0.2426111
395.20 0.1855518
395.30 0.1064028
395.40 0.02962061
395.50 0.01785166
395.60 0.06127996
395.70 0.08424418
395.80 0.1445281
395.90 0.2267606
396.00 0.3516783
396.10 0.5062016
396.20 0.6542116
396.30 0.7901088
396.40 0.9093941
396.50 1.019255
396.60 1.115657
396.70 1.17218
396.80 1.158113
396.90 1.048274
397.00 0.8394317
397.10 0.5518366
397.20 0.2252105
397.30 0.08616446
397.40 0.04648029
397.50 0.01504786
397.60 0.003528966
397.70 0.01232696
397.80 0.02996795
397.90 0.04417021
398.00 0.05279999
398.10 0.06245515
398.20 0.07635477
398.30 0.08676753
398.40 0.08166302
398.50 0.0572809
398.60 0.02322518
398.70 0
398.80 0
398.90 0
399.00 0
399.10 0
399.20 0
399.30 0
399.40 0
399.50 0.01172165
399.60 0.1513221
399.70 0.2653736
399.80 0.3438594
399.90 0.3975255
400.00 0.4430787
400.10 0.4941628
400.20 0.5544899
400.30 0.620273
400.40 0.6842301
400.50 0.7412383
400.60 0.7800218
400.70 0.7662404
400.80 0.6863854
400.90 0.5481826
401.00 0.3548039
401.10 0.1306653
401.20 0.0002574263
401.30 0
401.40 0
401.50 0
401.60 0
401.70 0.01846807
401.80 0.2158165
401.90 0.375436
402.00 0.4720899
402.10 0.5021747
402.20 0.4824105
402.30 0.4384515
402.40 0.3969967
402.50 0.3843573
402.60 0.4241048
402.70 0.5240105
402.80 0.6655662
402.90 0.8149742
403.00 0.9394696
403.10 1.019071
403.20 1.045862
403.30 1.019796
403.40 0.951524
403.50 0.8657384
403.60 0.791986
403.70 0.7551056
403.80 0.7584326
403.90 0.7900497
404.00 0.8362798
404.10 0.8831984
404.20 0.9267949
404.30 0.9622852
404.40 0.9809481
404.50 0.9754832
404.60 0.9422184
404.70 0.8789085
404.80 0.7897861
404.90 0.6887196
405.00 0.5911853
405.10 0.5035253
405.20 0.4175618
405.30 0.3220526
405.40 0.2156278
405.50 0.1008631
405.60 0.02447157
405.70 0.02529041
405.80 0.01646884
405.90 0.008054312
406.00 0.01021941
406.10 0.02200738
406.20 0.03407591
406.30 0.04036314
406.40 0.0427621
406.50 0.1349757
406.60 0.2767283
406.70 0.3906208
406.80 0.4682982
406.90 0.5043885
407.00 0.5013685
407.10 0.4701141
407.20 0.4377423
407.30 0.4072753
407.40 0.3688505
407.50 0.3334024
407.60 0.2886729
407.70 0.2338303
407.80 0.1755744
407.90 0.1191839
408.00 0.06592617
408.10 0.01980987
408.20 0.00408358
408.30 0.0008958588
408.40 0.001745725
408.50 0.005971976
408.60 0.01265917
408.70 0.01860848
408.80 0.0301197
408.90 0.06567005
409.00 0.1193052
409.10 0.2009619
409.20 0.3076681
409.30 0.4210865
409.40 0.516686
409.50 0.5844945
409.60 0.6343593
409.70 0.6816327
409.80 0.7319465
409.90 0.7768676
410.00 0.8003727
410.10 0.7877709
410.20 0.7301141
410.30 0.6266604
410.40 0.4885516
410.50 0.3392211
410.60 0.2054535
410.70 0.1254664
410.80 0.07628245
410.90 0.06040457
411.00 0.07182493
411.10 0.09661526
411.20 0.118754
411.30 0.1272993
411.40 0.1158431
411.50 0.08227727
411.60 0.06070357
411.70 0.06791239
411.80 0.09892571
411.90 0.1079687
412.00 0.1002213
412.10 0.09906589
412.20 0.1612092
412.30 0.2351392
412.40 0.3037602
412.50 0.3506364
412.60 0.3655069
412.70 0.349824
412.80 0.3162352
412.90 0.2802397
413.00 0.2557828
413.10 0.253504
413.20 0.2768251
413.30 0.3211801
413.40 0.3779639
413.50 0.4381384
413.60 0.4919223
413.70 0.5299865
413.80 0.5458646
413.90 0.5370119
414.00 0.5010115
414.10 0.4331576
414.20 0.3602644
414.30 0.2742214
414.40 0.1824992
414.50 0.09185638
414.60 0.009353142
414.70 0
414.80 0.007740736
414.90 0.01745496
415.00 0.006415643
415.10 0
415.20 0
415.30 0
415.40 0
415.50 0.002328122
415.60 0.008017412
415.70 0
415.80 0
415.90 0
416.00 0.0001685828
416.10 0.01233124
416.20 0.02358558
416.30 0.02752442
416.40 0.01900088
416.50 0
416.60 0
416.70 0
416.80 0
416.90 0.03294048
417.00 0.09474295
417.10 0.1724403
417.20 0.2340164
417.30 0.2784269
417.40 0.3106963
417.50 0.3282801
417.60 0.3223063
417.70 0.2910197
417.80 0.2422991
417.90 0.1991907
418.00 0.1450635
418.10 0.08075796
418.20 0.009014284
418.30 0
418.40 0
418.50 0.00247651
418.60 0.03392585
418.70 0.06590368
418.80 0.09276557
418.90 0.1115869
419.00 0.1235265
419.10 0.1296331
419.20 0.1277295
419.30 0.1151913
419.40 0.09354172
419.50 0.06758214
419.60 0.04291392
419.70 0.02563712
419.80 0.05562096
419.90 0.1042036
420.00 0.1528381
420.10 0.1797745
420.20 0.1686339
420.30 0.1241532
420.40 0.05147803
420.50 0
420.60 0
420.70 0
420.80 0.003270918
420.90 0.009516355
421.00 0.008644665
421.10 0.006784212
421.20 0.01325167
421.30 0.03615022
421.40 0.1632389
421.50 0.269733
421.60 0.3433211
421.70 0.3822124
421.80 0.3908135
421.90 0.3740944
422.00 0.3390154
422.10 0.2948275
422.20 0.2510603
422.30 0.213878
422.40 0.1792901
422.50 0.1395407
422.60 0.09548915
422.70 0.07094627
422.80 0.04543365
422.90 0.02531534
423.00 0.01983502
423.10 0.03960452
423.20 0.09274075
423.30 0.179666
423.40 0.2895053
423.50 0.4169989
423.60 0.5455871
423.70 0.6316449
423.80 0.6588821
423.90 0.6287955
424.00 0.5518886
424.10 0.4445911
424.20 0.3277502
424.30 0.2173893
424.40 0.1319868
424.50 0.0755691
424.60 0.04679008
424.70 0.04675656
424.80 0.08423867
424.90 0.1458267
425.00 0.2171001
425.10 0.2833462
425.20 0.3318903
425.30 0.3571067
425.40 0.3620982
425.50 0.356435
425.60 0.3501457
425.70 0.3521052
425.80 0.3647046
425.90 0.3801492
426.00 0.3909997
426.10 0.3954705
426.20 0.3925694
426.30 0.3822931
426.40 0.3682926
426.50 0.3548305
426.60 0.3406501
426.70 0.3179686
426.80 0.2800724
426.90 0.2399785
427.00 0.2152543
427.10 0.1823908
427.20 0.1398914
427.30 0.08722797
427.40 0.02712081
427.50 0
427.60 0
427.70 0
427.80 0.003698224
427.90 0.005283419
428.00 0.001496022
428.10 0
428.20 0
428.30 0
428.40 0.08689996
428.50 0.1865471
428.60 0.282874
428.70 0.3713502
428.80 0.4493451
428.90 0.5182049
429.00 0.5812925
429.10 0.6494733
429.20 0.7075115
429.30 0.7415825
429.40 0.7464279
429.50 0.7191482
429.60 0.6629263
429.70 0.5837372
429.80 0.4902959
429.90 0.3968385
430.00 0.3193848
430.10 0.2676083
430.20 0.2367297
430.30 0.2131783
430.40 0.1925578
430.50 0.1876799
430.60 0.213178
430.70 0.2734508
430.80 0.3695428
430.90 0.5014211
431.00 0.6625247
431.10 0.8376012
431.20 1.005098
431.30 1.141135
431.40 1.226423
431.50 1.250848
431.60 1.220806
431.70 1.149827
431.80 1.05029
431.90 0.9375239
432.00 0.8260881
432.10 0.7311599
432.20 0.647908
432.30 0.5753041
432.40 0.5099166
432.50 0.4450678
432.60 0.3772564
432.70 0.3126959
432.80 0.2622675
432.90 0.2324873
433.00 0.2193184
433.10 0.21367
433.20 0.2220695
433.30 0.2513343
433.40 0.2928773
433.50 0.3422108
433.60 0.393563
433.70 0.4427528
433.80 0.5074309
433.90 0.564967
434.00 0.6064404
434.10 0.6193579
434.20 0.5946932
434.30 0.5359841
434.40 0.4626054
434.50 0.3983781
434.60 0.3571975
434.70 0.3374954
434.80 0.3262239
434.90 0.308605
435.00 0.2748577
435.10 0.2213636
435.20 0.1497091
435.30 0.06746871
435.40 0.003364211
435.50 0.0104331
435.60 0.02356382
435.70 0.04282017
435.80 0.06005899
435.90 0.06067161
436.00 0.03791995
436.10 0.02789208
436.20 0.09489447
436.30 0.1675206
436.40 0.2416232
436.50 0.3086783
436.60 0.3513403
436.70 0.3761952
436.80 0.3958393
436.90 0.4118985
437.00 0.4123673
437.10 0.3850237
437.20 0.3267026
437.30 0.2428383
437.40 0.1470781
437.50 0.05699327
437.60 0
437.70 0
437.80 0
437.90 0.004635189
438.00 0.02802498
438.10 0.100513
438.20 0.1693108
438.30 0.2253595
438.40 0.2704414
438.50 0.30082
438.60 0.3066409
438.70 0.2918778
438.80 0.2693195
438.90 0.2443254
439.00 0.2177236
439.10 0.1849923
439.20 0.146972
439.30 0.1119666
439.40 0.08714234
439.50 0.07301139
439.60 0.06429197
439.70 0.05716879
439.80 0.05377998
439.90 0.06799571
440.00 0.09092288
440.10 0.1054772
440.20 0.1015321
440.30 0.07762248
440.40 0.04943929
440.50 0
440.60 0
440.70 0
440.80 0
440.90 0.01337078
441.00 0.03478473
441.10 0.05182908
441.20 0.0595118
441.30 0.05751919
441.40 0.05093082
441.50 0.04589556
441.60 0.04502684
441.70 0.04625215
441.80 0.04499479
441.90 0.0383263
442.00 0.02807804
442.10 0.01992461
442.20 0.01887345
442.30 0.02509928
442.40 0.03310891
442.50 0.03587601
442.60 0.03078567
442.70 0.02178027
442.80 0.01619796
442.90 0.01846457
443.00 0.02588952
443.10 0.03091186
443.20 0.02741966
443.30 0.01527635
443.40 0
443.50 0.04140268
443.60 0.1255473
443.70 0.1997606
443.80 0.2721454
443.90 0.3218798
444.00 0.3380866
444.10 0.3184609
444.20 0.2684243
444.30 0.1935184
444.40 0.09617606
444.50 0.03865444
444.60 0.02749761
444.70 0.01422952
444.80 0.006743679
444.90 0.009207663
445.00 0.02037095
445.10 0.03729852
445.20 0.05769951
445.30 0.07658343
445.40 0.08474185
445.50 0.08393755
445.60 0.1877858
445.70 0.2670082
445.80 0.3252641
445.90 0.3621029
446.00 0.3769766
446.10 0.3774333
446.20 0.3763712
446.30 0.3809638
446.40 0.3874423
446.50 0.3835912
446.60 0.3571947
446.70 0.3053956
446.80 0.2385307
446.90 0.1745567
447.00 0.1277101
447.10 0.1024082
447.20 0.09855571
447.30 0.1192168
447.40 0.1679155
447.50 0.2423457
447.60 0.3306339
447.70 0.4132031
447.80 0.4729081
447.90 0.5017568
448.00 0.5130883
448.10 0.4915235
448.20 0.448598
448.30 0.4069708
448.40 0.3592643
448.50 0.3121119
448.60 0.2746283
448.70 0.2534547
448.80 0.24779
448.90 0.2515819
449.00 0.2622892
449.10 0.284053
449.20 0.3227278
449.30 0.3789557
449.40 0.4463572
449.50 0.5181189
449.60 0.590662
449.70 0.6585574
449.80 0.7132256
449.90 0.7467118
450.00 0.7551238
450.10 0.739929
450.20 0.7099958
450.30 0.6817396
450.40 0.6694912
450.50 0.6785427
450.60 0.7056046
450.70 0.7403488
450.80 0.7694073
450.90 0.7824192
451.00 0.7724746
451.10 0.7357631
451.20 0.6753043
451.30 0.6020151
451.40 0.531337
451.50 0.4773924
451.60 0.4502966
451.70 0.456958
451.80 0.4997039
451.90 0.5727801
452.00 0.6611864
452.10 0.7443773
452.20 0.8031899
452.30 0.8272357
452.40 0.8174321
452.50 0.7817817
452.60 0.7285225
452.70 0.6622359
452.80 0.5851797
452.90 0.5004101
453.00 0.4145436
453.10 0.3370624
453.20 0.2739633
453.30 0.2234488
453.40 0.1810697
453.50 0.1456875
453.60 0.1193209
453.70 0.1067338
453.80 0.1139759
453.90 0.1430733
454.00 0.1888086
454.10 0.2419415
454.20 0.2943213
454.30 0.3415662
454.40 0.3843966
454.50 0.4238229
454.60 0.4547372
454.70 0.4689121
454.80 0.4619346
454.90 0.4381232
455.00 0.4095831
455.10 0.3899253
455.20 0.3918441
455.30 0.4237174
455.40 0.4822592
455.50 0.5540352
455.60 0.6290024
455.70 0.7058063
455.80 0.7814459
455.90 0.8458393
456.00 0.8876375
456.10 0.9007555
456.20 0.8868585
456.30 0.8545532
456.40 0.8152976
456.50 0.7797545
456.60 0.7549884
456.70 0.7423417
456.80 0.738057
456.90 0.7361195
457.00 0.7324367
457.10 0.7282263
457.20 0.7300258
457.30 0.7477392
457.40 0.7921241
457.50 0.8689252
457.60 0.9723366
457.70 1.087592
457.80 1.201599
457.90 1.304001
458.00 1.382191
458.10 1.422999
458.20 1.41735
458.30 1.363677
458.40 1.267384
458.50 1.139222
458.60 0.995075
458.70 0.8524616
458.80 0.7247539
458.90 0.6184622
459.00 0.5329938
459.10 0.4621124
459.20 0.4002461
459.30 0.3507965
459.40 0.3248005
459.50 0.3264304
459.60 0.3448782
459.70 0.364226
459.80 0.3741536
459.90 0.3731877
460.00 0.3653139
460.10 0.3548251
460.20 0.3467227
460.30 0.347009
460.40 0.3616128
460.50 0.393889
460.60 0.441447
460.70 0.4983494
460.80 0.5583328
460.90 0.6176456
461.00 0.6784669
461.10 0.7437259
461.20 0.8098666
461.30 0.8682046
461.40 0.9123704
461.50 0.9454507
461.60 0.9732106
461.70 0.9921252
461.80 0.9943798
461.90 0.9798298
462.00 0.9564062
462.10 0.932761
462.20 0.9149339
462.30 0.9064898
462.40 0.905852
462.50 0.9048527
462.60 0.8926263
462.70 0.8599797
462.80 0.8055075
462.90 0.7376462
463.00 0.6680238
463.10 0.6089425
463.20 0.5695481
463.30 0.5493163
463.40 0.5425605
463.50 0.5469108
463.60 0.565663
463.70 0.6016667
463.80 0.6518958
463.90 0.7102031
464.00 0.7718531
464.10 0.8341036
464.20 0.8926636
464.30 0.9399308
464.40 0.9670251
464.50 0.9679506
464.60 0.9433775
464.70 0.9023066
464.80 0.8559141
464.90 0.8102188
465.00 0.7677151
465.10 0.7294339
465.20 0.6968467
465.30 0.6736773
465.40 0.6630457
465.50 0.6659866
465.60 0.6835759
465.70 0.7180459
465.80 0.7699922
465.90 0.834506
466.00 0.9018583
466.10 0.9614323
466.20 1.004136
466.30 1.02488
466.40 1.023062
466.50 0.9984667
466.60 0.949458
466.70 0.8763742
466.80 0.7839962
466.90 0.6789399
467.00 0.5694716
467.10 0.4687561
467.20 0.3910206
467.30 0.3413596
467.40 0.3120286
467.50 0.2906968
467.60 0.2714122
467.70 0.2565691
467.80 0.2526915
467.90 0.2676302
468.00 0.307142
468.10 0.3715429
468.20 0.4554976
468.30 0.5495951
468.40 0.6450381
468.50 0.7365962
468.60 0.8205991
468.70 0.8938754
468.80 0.9550503
468.90 1.006244
469.00 1.050118
469.10 1.086794
469.20 1.115342
469.30 1.13582
469.40 1.147816
469.50 1.146782
469.60 1.124958
469.70 1.081347
469.80 1.027578
469.90 0.9779986
470.00 0.9370377
470.10 0.8987655
470.20 0.8587638
470.30 0.8186112
470.40 0.7783453
470.50 0.7339815
470.60 0.6831806
470.70 0.6310594
470.80 0.5906458
470.90 0.5753346
471.00 0.5897087
471.10 0.6261937
471.20 0.6666576
471.30 0.6906878
471.40 0.6863186
471.50 0.6537005
471.60 0.6032553
471.70 0.5475196
471.80 0.4932585
471.90 0.443206
472.00 0.4020486
472.10 0.3782795
472.20 0.3786247
472.30 0.4035465
472.40 0.4464844
472.50 0.4958205
472.60 0.5426451
472.70 0.5875455
472.80 0.6378097
472.90 0.6967487
473.00 0.75697
473.10 0.8055328
473.20 0.8344994
473.30 0.8443284
473.40 0.8385771
473.50 0.8215269
473.60 0.8014037
473.70 0.7910118
473.80 0.8025702
473.90 0.8408103
474.00 0.8993787
474.10 0.9628849
474.20 1.014551
474.30 1.043136
474.40 1.044143
474.50 1.01632
474.60 0.9590063
474.70 0.8752686
474.80 0.775378
474.90 0.6764825
475.00 0.5987333
475.10 0.558659
475.20 0.5646687
475.30 0.6141191
475.40 0.6912856
475.50 0.7702433
475.60 0.8223045
475.70 0.8248759
475.80 0.7691535
475.90 0.660346
476.00 0.5113633
476.10 0.3392603
476.20 0.1655869
476.30 0.01747143
476.40 0
476.50 0
476.60 0
476.70 0.07326823
476.80 0.2114679
476.90 0.3449911
477.00 0.4494805
477.10 0.5154606
477.20 0.544606
477.30 0.5422026
477.40 0.5160294
477.50 0.4774375
477.60 0.4391915
477.70 0.4121017
477.80 0.4017033
477.90 0.4080319
478.00 0.4288576
478.10 0.4597437
478.20 0.4918816
478.30 0.5123239
478.40 0.5102035
478.50 0.4870791
478.60 0.4589461
478.70 0.4430316
478.80 0.4457338
478.90 0.4650954
479.00 0.5001163
479.10 0.5537934
479.20 0.6282862
479.30 0.7187155
479.40 0.8115231
479.50 0.8915126
479.60 0.9508302
479.70 0.9891882
479.80 1.008207
479.90 1.006536
480.00 0.9786182
480.10 0.9176554
480.20 0.8211116
480.30 0.6958361
480.40 0.5579586
480.50 0.4274432
480.60 0.3243713
480.70 0.2662588
480.80 0.2617482
480.90 0.3077926
481.00 0.3918236
481.10 0.4960555
481.20 0.6049896
481.30 0.7096838
481.40 0.8060818
481.50 0.8899277
481.60 0.9540869
481.70 0.9937279
481.80 1.011128
481.90 1.011995
482.00 0.998478
482.10 0.9682471
482.20 0.9195285
482.30 0.8549655
482.40 0.7817145
482.50 0.7088899
482.60 0.6451884
482.70 0.5986007
482.80 0.5736381
482.90 0.5688424
483.00 0.5817409
483.10 0.6124198
483.20 0.6586315
483.30 0.7100669
483.40 0.7531485
483.50 0.781119
483.60 0.7941693
483.70 0.7932219
483.80 0.7790266
483.90 0.7569758
484.00 0.7383959
484.10 0.7346458
484.20 0.7502434
484.30 0.7804793
484.40 0.8129157
484.50 0.8319645
484.60 0.8267723
484.70 0.7972639
484.80 0.7522731
484.90 0.7010269
485.00 0.6461083
485.10 0.5858654
485.20 0.522883
485.30 0.4688806
485.40 0.4400636
485.50 0.4459114
485.60 0.4863397
485.70 0.5610864
485.80 0.6760064
485.90 0.8342291
486.00 1.01925
486.10 1.188399
486.20 1.288652
486.30 1.286094
486.40 1.186833
486.50 1.032445
486.60 0.8745225
486.70 0.7495251
486.80 0.6704231
486.90 0.6325502
487.00 0.6252265
487.10 0.6407695
487.20 0.6748009
487.30 0.7226331
487.40 0.7757796
487.50 0.8221055
487.60 0.8503176
487.70 0.8535472
487.80 0.8320702
487.90 0.7938913
488.00 0.7508191
488.10 0.7138736
488.20 0.6916707
488.30 0.6890275
488.40 0.7022062
488.50 0.7195201
488.60 0.7280038
488.70 0.7191561
488.80 0.6917955
488.90 0.6530095
489.00 0.6155447
489.10 0.593135
489.20 0.5956264
489.30 0.6230374
489.40 0.6637559
489.50 0.7015892
489.60 0.7273762
489.70 0.7409259
489.80 0.7431518
489.90 0.7328296
490.00 0.7102488
490.10 0.6798125
490.20 0.6458461
490.30 0.6086658
490.40 0.5714433
490.50 0.5462022
490.60 0.5463977
490.70 0.5753796
490.80 0.6239866
490.90 0.6790701
491.00 0.731063
491.10 0.7727679
491.20 0.796449
491.30 0.7964745
491.40 0.7758985
491.50 0.7480078
491.60 0.7308076
491.70 0.7413011
491.80 0.7905271
491.90 0.8795538
492.00 0.998877
492.10 1.131911
492.20 1.262492
492.30 1.379948
492.40 1.47773
492.50 1.549767
492.60 1.591204
492.70 1.604694
492.80 1.603221
492.90 1.602623
493.00 1.611721
493.10 1.629439
493.20 1.65061
493.30 1.67135
493.40 1.686112
493.50 1.684884
493.60 1.656446
493.70 1.593484
493.80 1.497762
493.90 1.380243
494.00 1.257754
494.10 1.15166
494.20 1.082293
494.30 1.062468
494.40 1.094951
494.50 1.173276
494.60 1.28456
494.70 1.41251
494.80 1.540382
494.90 1.653339
495.00 1.739063
495.10 1.787608
495.20 1.791347
495.30 1.744603
495.40 1.643505
495.50 1.487589
495.60 1.285549
495.70 1.060289
495.80 0.8412429
495.90 0.6503293
496.00 0.4984169
496.10 0.3902185
496.20 0.327133
496.30 0.3055419
496.40 0.3149532
496.50 0.3408625
496.60 0.369791
496.70 0.3929139
496.80 0.4086882
496.90 0.4209498
497.00 0.4307564
497.10 0.4314535
497.20 0.4152172
497.30 0.3842412
497.40 0.3533274
497.50 0.3406975
497.60 0.3582862
497.70 0.408353
497.80 0.4848046
497.90 0.5745669
498.00 0.6596556
498.10 0.7251988
498.20 0.7706839
498.30 0.8087989
498.40 0.8516767
498.50 0.9009541
498.60 0.9488012
498.70 0.9859606
498.80 1.008217
498.90 1.018254
499.00 1.022162
499.10 1.021699
499.20 1.012546
499.30 0.9905349
499.40 0.955517
499.50 0.9103846
499.60 0.8570523
499.70 0.7932615
499.80 0.7133396
499.90 0.613644
500.00 1
500.10 0.8455363
500.20 0.6967856
500.30 0.6269916
500.40 1.291038
500.50 1.191135
500.60 0.5447584
500.70 0.633448
500.80 0.7003192
500.90 0.04821616
501.00 0.04905821
501.10 0.2367118
501.20 1.006412
501.30 0.4342563
501.40 0.6515099
501.50 2.047487
501.60 1.125208
501.70 0.1973069
501.80 0.7101396
501.90 1.134318
502.00 1.299998
502.10 0.9259531
502.20 0.1109406
502.30 0.5514046
502.40 0.750459
502.50 0.5167933
502.60 1.018567
502.70 1.16827
502.80 1.19144
502.90 0.7721111
503.00 0.4867555
503.10 0.2577333
503.20 0.8374149
503.30 1.50257
503.40 1.53073
503.50 1.894676
503.60 1.687778
503.70 0.7946083
503.80 0.6443229
503.90 1.104849
504.00 1.124719
504.10 1.411939
504.20 0.9789298
504.30 0.6137512
504.40 0.9012416
504.50 1.362949
504.60 1.327494
504.70 1.359614
504.80 2.098304
504.90 0.6650885
505.00 0.09257554
505.10 0.05999966
505.20 0.645616
505.30 1.637805
505.40 1.134236
505.50 0
505.60 0.5063586
505.70 1.333316
505.80 1.601441
505.90 0.9092368
506.00 0.5470727
506.10 0.6049903
506.20 0.1324113
506.30 0.5731786
506.40 1.115606
506.50 0.9124041
506.60 1.074155
506.70 1.152207
506.80 0.5131018
506.90 0.257263
507.00 1.099824
507.10 1.644935
507.20 1.434268
507.30 0.3452619
507.40 0.7534742
507.50 2.075366
507.60 2.220153
507.70 1.455008
507.80 1.311879
507.90 0.9916094
508.00 1.070835
508.10 1.811688
508.20 2.268905
508.30 1.343438
508.40 0.5823691
508.50 1.020751
508.60 1.521329
508.70 1.334144
508.80 1.339413
508.90 1.784377
509.00 1.794093
509.10 0.6979187
509.20 0.8526089
509.30 1.32261
509.40 1.298379
509.50 1.341518
509.60 2.083097
509.70 1.133639
509.80 1.209218
509.90 2.086187
510.00 2.654493
510.10 1.6482
510.20 0.2724171
510.30 0.5186323
510.40 0.8198341
510.50 1.358169
510.60 1.263213
510.70 1.524964
510.80 1.085249
510.90 0.5010138
511.00 0.1531937
511.10 0.5725193
511.20 1.31991
511.30 1.160304
511.40 1.643476
511.50 1.865518
511.60 1.689197
511.70 1.397128
511.80 0.7250683
511.90 0.7804711
512.00 1.377355
512.10 1.768371
512.20 2.010076
512.30 2.010792
512.40 1.68737
512.50 0.4099383
512.60 1.131409
512.70 1.507579
512.80 1.157315
512.90 0.624805
513.00 0.6180974
513.10 1.37361
513.20 1.6289
513.30 1.461433
513.40 1.203383
513.50 1.221814
513.60 1.922057
513.70 2.103512
513.80 1.877181
513.90 1.148348
514.00 1.814065
514.10 2.252116
514.20 1.439975
514.30 0.6927086
514.40 1.743764
514.50 1.806079
514.60 1.406707
514.70 1.058262
514.80 1.422123
514.90 1.122502
515.00 1.309707
515.10 1.380021
515.20 1.784301
515.30 1.341503
515.40 0.3819119
515.50 1.33032
515.60 2.109542
515.70 1.763062
515.80 1.532761
515.90 1.76455
516.00 2.583249
516.10 2.653478
516.20 2.30187
516.30 2.410387
516.40 2.799358
516.50 2.568702
516.60 2.018876
516.70 1.336908
516.80 1.129595
516.90 0.7331757
517.00 0.03147841
517.10 0
517.20 0.4315853
517.30 0.6640226
517.40 0.3591487
517.50 0.9349606
517.60 0.3561718
517.70 0.1361097
517.80 0.2162772
517.90 0.05644889
518.00 0.05436438
518.10 0.5526473
518.20 0.4630279
518.30 0.2080105
518.40 0.904308
518.50 1.178264
518.60 1.220813
518.70 1.520655
518.80 0.9424664
518.90 0.5970497
519.00 0.7679971
519.10 0.6712405
519.20 0.8115708
519.30 0.8517661
519.40 0.6262624
519.50 0.5202594
519.60 0.5613346
519.70 0.8489874
519.80 0.7365922
519.90 0.9234396
520.00 1.623424
520.10 1.066533
520.20 0.6992788
520.30 1.24361
520.40 0.7725334
520.50 0.3166801
520.60 1.248601
520.70 0.8134433
520.80 0.7568424
520.90 0.8240757
521.00 0.8706821
521.10 0.5393227
521.20 0.4583274
521.30 0.534668
521.40 1.586817
521.50 1.671578
521.60 0.8924815
521.70 1.274043
521.80 1.188189
521.90 0.4807269
522.00 0.3610696
522.10 1.529311
522.20 2.114739
522.30 1.839142
522.40 2.178834
522.50 2.258224
522.60 1.213745
522.70 0.9967918
522.80 1.913803
522.90 2.39601
523.00 1.724472
523.10 1.143006
523.20 1.336184
523.30 1.683051
523.40 0.9625185
523.50 0.6172426
523.60 1.091435
523.70 1.528679
523.80 1.362796
523.90 1.312738
524.00 1.754062
524.10 2.081907
524.20 1.199908
524.30 0.3807538
524.40 0.4233963
524.50 0.9561989
524.60 0.8347574
524.70 1.200716
524.80 1.046612
524.90 0.07865594
525.00 0.79033
525.10 1.778631
525.20 1.718279
525.30 1.313407
525.40 0.4901714
525.50 1.994908
525.60 2.209151
525.70 1.820825
525.80 1.341483
525.90 1.649148
526.00 1.349463
526.10 1.618213
526.20 1.033064
526.30 1.160302
526.40 1.438415
526.50 1.120048
526.60 0.4417017
526.70 0.9754549
526.80 2.051047
526.90 1.587636
527.00 0.7630684
527.10 1.239177
527.20 1.331792
527.30 1.84494
527.40 2.428507
527.50 2.084341
527.60 1.497587
527.70 0.8458153
527.80 0.5291315
527.90 1.59896
528.00 2.588417
528.10 1.545678
528.20 1.229181
528.30 1.39517
528.40 1.525275
528.50 1.399341
528.60 1.85433
528.70 2.051068
528.80 1.142045
528.90 1.109674
529.00 2.179669
529.10 2.457506
529.20 2.715588
529.30 2.329224
529.40 2.024915
529.50 1.877348
529.60 1.715022
529.70 1.274662
529.80 1.667033
529.90 1.190587
530.00 0.9453482
530.10 1.069869
530.20 1.967761
530.30 2.213891
530.40 1.774872
530.50 1.855469
530.60 1.875076
530.70 1.035068
530.80 1.420193
530.90 2.046607
531.00 1.765232
531.10 1.82092
531.20 2.259017
531.30 1.402205
531.40 1.561115
531.50 2.127364
531.60 1.807616
531.70 1.057446
531.80 1.103572
531.90 2.024851
532.00 2.151055
532.10 2.112425
532.20 2.386164
532.30 1.608269
532.40 0.8618282
532.50 0.9308575
532.60 1.590983
532.70 1.926039
532.80 1.348986
532.90 1.918447
533.00 1.546627
533.10 1.524034
533.20 1.946038
533.30 2.269188
533.40 1.715874
533.50 0.936406
533.60 1.610512
533.70 2.155359
533.80 2.082224
533.90 1.704522
534.00 1.358553
534.10 1.371552
534.20 1.059631
534.30 1.688707
534.40 2.578224
534.50 3.026184
534.60 2.473522
534.70 1.322307
534.80 0.810057
534.90 1.149233
535.00 2.051627
535.10 1.750424
535.20 1.746424
535.30 2.679658
535.40 3.282461
535.50 2.642242
535.60 1.985958
535.70 1.754498
535.80 0.9383241
535.90 1.197178
536.00 1.936501
536.10 1.790816
536.20 1.527048
536.30 2.171015
536.40 1.850876
536.50 0.9305325
536.60 1.559361
536.70 2.256189
536.80 2.538074
536.90 2.31418
537.00 2.33267
537.10 2.376415
537.20 1.191789
537.30 1.110885
537.40 1.392659
537.50 1.695648
537.60 2.27297
537.70 2.455311
537.80 1.766099
537.90 1.643666
538.00 2.446194
538.10 2.756171
538.20 1.98549
538.30 2.055318
538.40 2.967408
538.50 3.214376
538.60 2.511391
538.70 3.065279
538.80 3.211994
538.90 2.665257
539.00 2.011324
539.10 2.068825
539.20 2.462203
539.30 2.393178
539.40 1.594777
539.50 1.973703
539.60 2.108347
539.70 1.827548
539.80 1.75958
539.90 2.174833
540.00 2.372057
540.10 2.691356
540.20 2.538396
540.30 2.878073
540.40 2.562024
540.50 2.504217
540.60 2.586162
540.70 2.639079
540.80 2.076901
540.90 2.296346
541.00 2.478133
541.10 1.982101
541.20 1.942795
541.30 1.919654
541.40 2.090122
541.50 1.909956
541.60 2.115724
541.70 2.077275
541.80 2.492812
541.90 2.454345
542.00 2.037898
542.10 2.143567
542.20 2.743525
542.30 3.11257
542.40 2.992248
542.50 2.204757
542.60 1.718701
542.70 2.073579
542.80 2.893012
542.90 3.325983
543.00 2.446591
543.10 2.278021
543.20 2.058291
543.30 3.209974
543.40 3.143173
543.50 2.749516
543.60 2.496055
543.70 2.911785
543.80 2.746743
543.90 2.43534
544.00 2.400496
544.10 2.764821
544.20 3.384902
544.30 3.690261
544.40 3.261606
544.50 3.2417
544.60 3.454603
544.70 2.679906
544.80 2.078862
544.90 1.231386
545.00 0.404986
545.10 0.3886679
545.20 0.6128189
545.30 0.0777832
545.40 0.1158757
545.50 0.03926206
545.60 0.915136
545.70 2.415487
545.80 1.837201
545.90 0.6529436
546.00 0.9016163
546.10 1.74793
546.20 1.399113
546.30 1.516665
546.40 1.227476
546.50 0.9873515
546.60 1.142449
546.70 1.36203
546.80 2.099883
546.90 1.995974
547.00 1.167233
547.10 0.920022
547.20 0.538417
547.30 0.9839638
547.40 1.337543
547.50 1.460675
547.60 1.228537
547.70 1.988754
547.80 1.194014
547.90 0.8541461
548.00 0.8007237
548.10 1.456726
548.20 1.708634
548.30 1.562925
548.40 1.321196
548.50 1.647312
548.60 1.87137
548.70 2.097919
548.80 1.770931
548.90 1.123014
549.00 1.117309
549.10 1.706824
549.20 1.799668
549.30 1.51776
549.40 0.4832654
549.50 0.8260461
549.60 1.115456
549.70 1.101659
549.80 0.7611681
549.90 1.326781
550.00 1.131014
550.10 0.7162977
550.20 1.062778
550.30 0.6323387
550.40 0.6875192
550.50 1.167693
550.60 1.512623
550.70 0.6433387
550.80 0.5800083
550.90 0.8222109
551.00 0.5210871
551.10 0.1921898
551.20 0.1927641
551.30 0.3802791
551.40 0.7556378
551.50 1.058422
551.60 1.458691
551.70 0.7592983
551.80 0.2464237
551.90 0
552.00 0.3785286
552.10 1.154432
552.20 0.5103796
552.30 0.0662755
552.40 0.2082885
552.50 0.2565499
552.60 0.2726562
552.70 0.0470421
552.80 0.1880823
552.90 0.4985215
553.00 0.9119321
553.10 0.7430003
553.20 0.843847
553.30 1.023801
553.40 0.9507334
553.50 0.5453165
553.60 0.5480441
553.70 0.2796303
553.80 0.3669583
553.90 0.7580918
554.00 1.192289
554.10 1.013825
554.20 0.2096389
554.30 0.017041
554.40 0.8173933
554.50 1.178065
554.60 0.9589195
554.70 0.4148035
554.80 0.6381203
554.90 0.8407997
555.00 0.4333005
555.10 0.3308893
555.20 0.2824169
555.30 0.4377435
555.40 0.2652078
555.50 0.3480727
555.60 0.940357
555.70 1.377679
555.80 1.053697
555.90 0.7960947
556.00 0.1843888
556.10 0.369075
556.20 0.9560584
556.30 0.9487305
556.40 1.23882
556.50 0.9485181
556.60 0.7590898
556.70 0.8591433
556.80 1.455957
556.90 1.443972
557.00 1.247653
557.10 1.393606
557.20 1.388212
557.30 1.387669
557.40 1.387682
557.50 1.387682
557.60 1.387682
557.70 1.387682
557.80 1.387682
557.90 1.387682
558.00 1.387682
558.10 1.387682
558.20 1.387692
558.30 1.407934
558.40 1.341868
558.50 1.022799
558.60 1.401335
558.70 1.990786
558.80 1.99676
558.90 1.536139
559.00 2.029794
559.10 2.507618
559.20 2.233468
559.30 1.356685
559.40 1.719734
559.50 2.254743
559.60 1.342953
559.70 0.7523108
559.80 1.451038
559.90 1.528653
560.00 1.099824
560.10 1.76471
560.20 2.07392
560.30 1.988172
560.40 1.113653
560.50 0.8559843
560.60 1.31232
560.70 1.141104
560.80 0.6737739
560.90 1.163321
561.00 1.560863
561.10 1.513726
561.20 1.33591
561.30 1.555541
561.40 2.228564
561.50 1.75682
561.60 1.52004
561.70 1.325688
561.80 1.276353
561.90 1.121572
562.00 0.9414391
562.10 0.8527553
562.20 1.201036
562.30 0.6933229
562.40 1.55785
562.50 1.692374
562.60 1.54691
562.70 1.637509
562.80 2.16981
562.90 1.699698
563.00 0.9079358
563.10 0.6875339
563.20 0.4847625
563.30 1.031196
563.40 1.327273
563.50 1.558285
563.60 1.286777
563.70 0.7796003
563.80 1.113637
563.90 1.278009
564.00 0.5993721
564.10 0.9289507
564.20 1.392674
564.30 1.420621
564.40 1.018024
564.50 1.37023
564.60 2.154989
564.70 1.83312
564.80 1.558269
564.90 1.812519
565.00 1.928429
565.10 1.844956
565.20 0.9687982
565.30 1.129076
565.40 1.969797
565.50 1.768296
565.60 0.8471521
565.70 0.7511132
565.80 1.616364
565.90 2.014502
566.00 1.21983
566.10 1.317011
566.20 1.73009
566.30 2.098707
566.40 1.540661
566.50 0.7892863
566.60 1.097814
566.70 1.627057
566.80 1.326608
566.90 1.562627
567.00 1.841446
567.10 2.152084
567.20 1.923343
567.30 1.65148
567.40 1.245307
567.50 1.453087
567.60 1.034442
567.70 0.7216992
567.80 1.15689
567.90 1.711163
568.00 1.634867
568.10 0.794076
568.20 0.6352516
568.30 1.627541
568.40 2.769125
568.50 2.902246
568.60 2.338089
568.70 1.265444
568.80 1.099795
568.90 1.479672
569.00 1.608294
569.10 1.178951
569.20 1.640579
569.30 2.198289
569.40 1.884427
569.50 1.76312
569.60 1.880963
569.70 2.578719
569.80 3.039913
569.90 2.838899
570.00 1.97419
570.10 1.354066
570.20 1.338325
570.30 2.529812
570.40 3.022925
570.50 2.511751
570.60 1.936018
570.70 2.511808
570.80 2.802322
570.90 1.809873
571.00 1.686908
571.10 1.987465
571.20 1.943428
571.30 2.176856
571.40 2.452265
571.50 1.840057
571.60 1.814234
571.70 1.812774
571.80 1.262182
571.90 1.399022
572.00 1.728604
572.10 1.044369
572.20 0.7240801
572.30 1.52647
572.40 1.920247
572.50 1.702122
572.60 1.473618
572.70 1.432215
572.80 1.620823
572.90 1.877572
573.00 2.438226
573.10 2.077693
573.20 2.101268
573.30 1.977076
573.40 1.525946
573.50 1.998593
573.60 2.449978
573.70 2.181104
573.80 1.408604
573.90 1.230332
574.00 1.768522
574.10 2.039029
574.20 1.985649
574.30 2.339627
574.40 2.934727
574.50 2.27204
574.60 1.478428
574.70 1.737009
574.80 2.550594
574.90 2.610137
575.00 2.345571
575.10 2.094816
575.20 1.71937
575.30 1.497396
575.40 2.068266
575.50 2.717393
575.60 2.339699
575.70 2.478147
575.80 2.278397
575.90 2.372305
576.00 2.386807
576.10 2.666179
576.20 2.557465
576.30 2.691851
576.40 2.902184
576.50 1.941833
576.60 1.03304
576.70 0.9260824
576.80 1.507736
576.90 1.646701
577.00 1.926897
577.10 1.915877
577.20 2.224367
577.30 1.965262
577.40 1.842171
577.50 2.041825
577.60 2.039756
577.70 2.188447
577.80 1.929922
577.90 2.194491
578.00 1.853364
578.10 1.963006
578.20 1.751466
578.30 1.340019
578.40 1.765026
578.50 2.60691
578.60 2.233654
578.70 1.825833
578.80 2.354325
578.90 2.518875
579.00 2.109945
579.10 1.982259
579.20 2.12592
579.30 2.215545
579.40 1.538066
579.50 1.369834
579.60 1.896484
579.70 2.430377
579.80 2.500958
579.90 2.770655
580.00 2.507272
580.10 1.711111
580.20 1.881909
580.30 2.709151
580.40 2.22587
580.50 1.545711
580.60 2.191651
580.70 2.793853
580.80 3.37013
580.90 3.291465
581.00 3.099387
581.10 1.766196
581.20 1.874786
581.30 2.344213
581.40 2.160595
581.50 1.663638
581.60 1.410428
581.70 1.120002
581.80 1.563634
581.90 1.769903
582.00 2.087323
582.10 2.029359
582.20 1.7849
582.30 1.782293
582.40 1.761424
582.50 2.267881
582.60 2.34401
582.70 1.779813
582.80 1.549508
582.90 2.224889
583.00 2.164637
583.10 1.60263
583.20 1.071479
583.30 0.65247
583.40 1.191719
583.50 1.86281
583.60 2.160085
583.70 2.929566
583.80 2.208909
583.90 2.053552
584.00 2.086054
584.10 2.721774
584.20 2.329762
584.30 1.450272
584.40 1.772069
584.50 2.249031
584.60 1.928215
584.70 1.593582
584.80 1.348208
584.90 1.383683
585.00 1.460278
585.10 1.430112
585.20 0.8287519
585.30 0.863417
585.40 0.900112
585.50 0.8525654
585.60 1.321167
585.70 1.514647
585.80 1.65009
585.90 1.324137
586.00 0.7718573
586.10 0.5318714
586.20 1.064873
586.30 1.748469
586.40 2.049861
586.50 1.80303
586.60 1.544349
586.70 1.88915
586.80 1.554093
586.90 1.046666
587.00 1.248858
587.10 1.876958
587.20 1.923141
587.30 1.698426
587.40 1.435606
587.50 1.354915
587.60 0.9469563
587.70 0.9813595
587.80 0.5035467
587.90 0.4298099
588.00 0.9950191
588.10 1.062869
588.20 0.8834065
588.30 0.3987947
588.40 0.8892762
588.50 0.7459766
588.60 0.8182962
588.70 1.228723
588.80 1.20694
588.90 0.9897121
589.00 1.047359
589.10 1.074333
589.20 2.066583
589.30 2.141419
589.40 0.2488644
589.50 0.1392778
589.60 0.04747669
589.70 2.717136
589.80 2.089362
589.90 0.1883932
590.00 0.510544
590.10 0.8250093
590.20 0.2738224
590.30 0.616188
590.40 0.9532089
590.50 1.041277
590.60 0.9303699
590.70 0.4711873
590.80 0.1090621
590.90 0.079626
591.00 0.9400264
591.10 0.7999994
591.20 1.056431
591.30 1.295987
591.40 0.8669668
591.50 0.8611037
591.60 1.354092
591.70 1.548325
591.80 0.5545372
591.90 0.07593797
592.00 0.1930379
592.10 0.6498887
592.20 0.9275709
592.30 0.7151004
592.40 0.6134002
592.50 0.0982207
592.60 0.04832613
592.70 0.5673502
592.80 1.685476
592.90 1.71662
593.00 0.9076106
593.10 0.3552881
593.20 0.7924259
593.30 0.7691311
593.40 0.6893294
593.50 0.5909866
593.60 0.4282326
593.70 0.8168382
593.80 0.8601149
593.90 0.6885905
594.00 0.5769721
594.10 0.9979288
594.20 1.310826
594.30 1.317867
594.40 1.208989
594.50 1.048083
594.60 1.009395
594.70 1.425013
594.80 1.596938
594.90 1.676802
595.00 1.618729
595.10 1.257617
595.20 1.554136
595.30 1.649097
595.40 1.176892
595.50 0.7466015
595.60 0.9248942
595.70 1.577659
595.80 1.112787
595.90 0.9626583
596.00 1.270565
596.10 1.554714
596.20 1.469509
596.30 1.292057
596.40 1.106606
596.50 1.266277
596.60 1.349917
596.70 1.459681
596.80 1.877107
596.90 1.66243
597.00 1.364762
597.10 1.313717
597.20 1.449807
597.30 1.308006
597.40 1.209956
597.50 1.254693
597.60 0.4773138
597.70 0.08124471
597.80 0.4510628
597.90 0.9103793
598.00 0.8124805
598.10 0.9877042
598.20 1.16508
598.30 0.9823702
598.40 1.346509
598.50 2.157699
598.60 2.03767
598.70 1.448759
598.80 1.479003
598.90 1.778365
599.00 1.265986
599.10 1.256287
599.20 1.267006
599.30 1.354947
599.40 1.70278
599.50 2.037701
599.60 1.897213
599.70 1.766194
599.80 2.303793
599.90 2.251276
600.00 1.594569
600.10 1.021178
600.20 1.03813
600.30 1.109439
600.40 1.217848
600.50 1.213065
600.60 1.491837
600.70 1.104231
600.80 0.6333052
600.90 1.333917
601.00 1.629968
601.10 1.541053
601.20 1.337164
601.30 1.700607
601.40 1.306506
601.50 0.8371197
601.60 1.56279
601.70 1.680426
601.80 1.569073
601.90 1.864829
602.00 2.305324
602.10 2.267297
602.20 2.111184
602.30 2.226072
602.40 1.60556
602.50 1.13199
602.60 0.9650321
602.70 1.523117
602.80 1.385029
602.90 0.9840437
603.00 0.5645748
603.10 0.8436221
603.20 1.46139
603.30 1.857384
603.40 1.9684
603.50 1.299265
603.60 1.470066
603.70 1.837103
603.80 1.938125
603.90 1.278323
604.00 1.009503
604.10 1.503379
604.20 1.589524
604.30 1.741202
604.40 1.810092
604.50 1.594009
604.60 1.531364
604.70 1.655502
604.80 1.951937
604.90 1.494554
605.00 1.027176
605.10 1.003201
605.20 1.50592
605.30 2.10042
605.40 2.225291
605.50 1.635401
605.60 1.446998
605.70 1.958537
605.80 2.2302
605.90 1.885552
606.00 1.863305
606.10 1.833344
606.20 1.918821
606.30 2.104153
606.40 2.166004
606.50 1.841869
606.60 1.726057
606.70 2.171581
606.80 1.877475
606.90 1.559071
607.00 1.438991
607.10 1.674335
607.20 1.91708
607.30 1.92597
607.40 1.500261
607.50 1.634869
607.60 1.885365
607.70 2.079999
607.80 2.04697
607.90 1.964604
608.00 2.027788
608.10 1.936845
608.20 1.737481
608.30 1.756599
608.40 2.112426
608.50 2.144713
608.60 1.577588
608.70 1.157365
608.80 1.283714
608.90 1.896841
609.00 2.183075
609.10 2.122406
609.20 2.074293
609.30 2.087684
609.40 1.937533
609.50 1.761561
609.60 1.83539
609.70 2.242641
609.80 2.630185
609.90 2.691652
610.00 2.880646
610.10 2.755725
610.20 1.958225
610.30 1.605701
610.40 1.595905
610.50 1.681885
610.60 1.334216
610.70 1.292067
610.80 1.71035
610.90 2.303458
611.00 2.787129
611.10 2.763673
611.20 2.630085
611.30 2.35229
611.40 2.073442
611.50 1.775062
611.60 1.589913
611.70 1.790049
611.80 1.672236
611.90 1.73833
612.00 1.793564
612.10 1.786825
612.20 1.943187
612.30 2.374547
612.40 2.400688
612.50 1.760802
612.60 1.678911
612.70 1.791756
612.80 1.653537
612.90 1.562209
613.00 1.44842
613.10 1.423457
613.20 1.662487
613.30 1.806378
613.40 1.562751
613.50 1.774562
613.60 2.141111
613.70 2.191686
613.80 2.077859
613.90 1.885798
614.00 2.066094
614.10 1.822355
614.20 1.531324
614.30 1.114582
614.40 1.039241
614.50 1.751216
614.60 2.139148
614.70 1.627826
614.80 0.6037677
614.90 0.4900055
615.00 0.8608126
615.10 1.006701
615.20 1.167012
615.30 1.609339
615.40 1.724329
615.50 1.582675
615.60 1.343894
615.70 1.062678
615.80 1.455051
615.90 1.614353
616.00 1.280498
616.10 0.5155433
616.20 0.5909013
616.30 1.276557
616.40 1.538582
616.50 1.099645
616.60 0.2964549
616.70 0.416999
616.80 0.5386575
616.90 0.7598641
617.00 0.9676654
617.10 0.779958
617.20 0.5472092
617.30 0.596389
617.40 0.9873065
617.50 0.9039861
617.60 0.3953067
617.70 0.575776
617.80 1.046277
617.90 0.9906205
618.00 0.6132689
618.10 0.7222612
618.20 1.102583
618.30 0.5270543
618.40 0.0946745
618.50 0.3751153
618.60 0.8530307
618.70 0.895229
618.80 0.853587
618.90 0.8931984
619.00 1.08768
619.10 1.204658
619.20 1.345569
619.30 2.095335
619.40 2.392253
619.50 1.811963
619.60 1.211556
619.70 0.7974103
619.80 0.619748
619.90 0.4855544
620.00 0.8789234
620.10 0.6501992
620.20 0.2223059
620.30 0.4694743
620.40 0.9615012
620.50 1.468968
620.60 1.580459
620.70 1.229878
620.80 0.9965265
620.90 1.146887
621.00 1.238089
621.10 0.7873954
621.20 0.6322476
621.30 0.4331089
621.40 0.4941759
621.50 0.6230412
621.60 0.7269025
621.70 0.702235
621.80 1.221843
621.90 1.690871
622.00 1.623451
622.10 1.231622
622.20 0.8681652
622.30 0.5789098
622.40 0.6836953
622.50 1.062151
622.60 1.377165
622.70 1.466302
622.80 0.8597006
622.90 0.7107919
623.00 0.8020101
623.10 1.083874
623.20 1.501393
623.30 1.899259
623.40 1.132983
623.50 0.126259
623.60 0.2424353
623.70 0.4797814
623.80 0.1368294
623.90 0.2487005
624.00 0.8743234
624.10 1.383825
624.20 1.509566
624.30 1.176192
624.40 1.077546
624.50 1.308562
624.60 1.482729
624.70 1.163986
624.80 0.7297192
624.90 0.7243176
625.00 0.7823535
625.10 0.9717649
625.20 0.5519726
625.30 0.9393376
625.40 1.695143
625.50 0.5337886
625.60 0.08171323
625.70 0.07689273
625.80 0.9278155
625.90 0.8545761
626.00 0.6902549
626.10 0.952841
626.20 1.379491
626.30 1.625648
626.40 0.9680245
626.50 0.4931733
626.60 0.7817104
626.70 1.082707
626.80 1.399101
626.90 1.813099
627.00 1.773109
627.10 1.484164
627.20 1.103364
627.30 0.9063061
627.40 1.185798
627.50 1.41141
627.60 1.259574
627.70 0.8992853
627.80 0.9762822
627.90 1.28413
628.00 1.327498
628.10 1.310595
628.20 1.454962
628.30 1.764122
628.40 1.493055
628.50 0.7932856
628.60 0.4505812
628.70 1.483418
628.80 1.439454
628.90 1.139303
629.00 1.448177
629.10 1.560023
629.20 1.265147
629.30 1.150954
629.40 1.506083
629.50 1.9657
629.60 1.542482
629.70 0.1733076
629.80 1.210437
629.90 1.913059
630.00 1.615628
630.10 0.08584456
630.20 1.147541
630.30 2.657348
630.40 2.695257
630.50 3.764938
630.60 1.855464
630.70 1.076185
630.80 1.638207
630.90 1.816267
631.00 1.908723
631.10 1.831503
631.20 2.50408
631.30 2.592254
631.40 2.181357
631.50 1.954996
631.60 1.737609
631.70 1.936631
631.80 2.302607
631.90 2.186393
632.00 1.693643
632.10 1.857317
632.20 2.377283
632.30 2.476102
632.40 2.191055
632.50 1.99962
632.60 1.828736
632.70 1.960829
632.80 2.055146
632.90 2.456232
633.00 2.529003
633.10 1.978163
633.20 1.882773
633.30 2.290848
633.40 2.843921
633.50 2.909483
633.60 2.601513
633.70 2.728917
633.80 2.862943
633.90 2.922429
634.00 2.616723
634.10 2.053166
634.20 2.683894
634.30 3.426732
634.40 3.289829
634.50 2.907132
634.60 3.044449
634.70 3.229335
634.80 3.158644
634.90 2.970597
635.00 3.079951
635.10 2.777931
635.20 2.485973
635.30 2.732393
635.40 2.683396
635.50 2.179293
635.60 2.173404
635.70 3.118351
635.80 3.409925
635.90 2.882216
636.00 2.663904
636.10 2.502351
636.20 2.534364
636.30 2.740913
636.40 3.060162
636.50 2.74432
636.60 2.421159
636.70 2.098079
636.80 2.010138
636.90 2.403621
637.00 2.893135
637.10 3.18935
637.20 2.869022
637.30 2.453474
637.40 2.667833
637.50 2.884091
637.60 2.861371
637.70 2.800566
637.80 2.593308
637.90 2.462754
638.00 2.275979
638.10 2.268608
638.20 2.292385
638.30 2.345893
638.40 2.524091
638.50 2.336748
638.60 2.605733
638.70 2.935126
638.80 2.898003
638.90 2.765476
639.00 2.595511
639.10 2.729562
639.20 2.51141
639.30 2.406339
639.40 2.636944
639.50 2.855373
639.60 2.86763
639.70 2.587918
639.80 2.49472
639.90 2.770507
640.00 3.282289
640.10 3.515414
640.20 3.197675
640.30 2.978331
640.40 3.0116
640.50 3.067821
640.60 3.075409
640.70 3.090444
640.80 3.021052
640.90 3.029211
641.00 2.792662
641.10 2.809599
641.20 3.068086
641.30 3.044446
641.40 3.083667
641.50 3.021145
641.60 2.880271
641.70 2.846239
641.80 3.151357
641.90 3.128926
642.00 3.116564
642.10 3.087135
642.20 2.687707
642.30 2.315268
642.40 2.145872
642.50 2.697044
642.60 2.817909
642.70 2.639866
642.80 2.625383
642.90 2.896733
643.00 3.320724
643.10 3.157493
643.20 3.178705
643.30 3.219829
643.40 3.535297
643.50 3.323071
643.60 2.788167
643.70 2.885475
643.80 3.203791
643.90 3.427193
644.00 3.44187
644.10 3.313826
644.20 3.297738
644.30 3.288148
644.40 3.307526
644.50 3.020765
644.60 2.815646
644.70 3.29497
644.80 3.093153
644.90 2.567468
645.00 2.585952
645.10 2.864389
645.20 2.937962
645.30 2.908136
645.40 2.794098
645.50 2.653498
645.60 3.341351
645.70 3.587544
645.80 3.23703
645.90 2.657904
646.00 2.642605
646.10 3.233584
646.20 3.344601
646.30 2.719866
646.40 2.619574
646.50 3.105216
646.60 3.117463
646.70 2.912132
646.80 2.956961
646.90 3.091884
647.00 3.232268
647.10 3.460847
647.20 3.503573
647.30 3.474578
647.40 3.655669
647.50 3.536528
647.60 3.305819
647.70 3.244009
647.80 3.294945
647.90 3.377763
648.00 3.321078
648.10 3.162243
648.20 3.446761
648.30 3.484124
648.40 3.287578
648.50 3.27615
648.60 3.272157
648.70 3.26528
648.80 3.177192
648.90 2.963897
649.00 3.322914
649.10 3.589773
649.20 3.523323
649.30 3.553189
649.40 3.414824
649.50 3.366867
649.60 3.367815
649.70 3.556715
649.80 3.420384
649.90 3.545644
650.00 4.24359
650.10 4.665953
650.20 4.710487
650.30 4.29983
650.40 3.951136
650.50 3.673445
650.60 3.659715
650.70 4.312396
650.80 4.471969
650.90 4.359858
651.00 4.507197
651.10 4.860152
651.20 5.228305
651.30 5.139179
651.40 4.737305
651.50 4.464852
651.60 4.618315
651.70 4.499975
651.80 4.579422
651.90 4.964772
652.00 5.523329
652.10 5.618297
652.20 5.506523
652.30 5.424319
652.40 5.80497
652.50 6.517793
652.60 6.541615
652.70 6.46516
652.80 6.609063
652.90 6.774339
653.00 6.922085
653.10 6.591188
653.20 6.425933
653.30 6.288133
653.40 6.76636
653.50 7.771655
653.60 7.474695
653.70 6.865698
653.80 6.897685
653.90 7.364211
654.00 7.852723
654.10 8.18095
654.20 8.055533
654.30 7.259658
654.40 6.914427
654.50 6.896498
654.60 6.678261
654.70 6.520493
654.80 6.600473
654.90 6.855974
655.00 6.721797
655.10 6.0769
655.20 5.873126
655.30 6.263763
655.40 6.152
655.50 6.043835
655.60 6.117745
655.70 6.081999
655.80 6.096737
655.90 6.27112
656.00 6.860764
656.10 7.245586
656.20 8.827521
656.30 11.78411
656.40 13.87979
656.50 13.11884
656.60 10.04831
656.70 6.981708
656.80 5.131792
656.90 4.982745
657.00 5.205619
657.10 4.95263
657.20 4.613782
657.30 4.541973
657.40 4.246723
657.50 4.323154
657.60 4.991271
657.70 5.423096
657.80 4.597814
657.90 3.918468
658.00 4.398279
658.10 4.522466
658.20 4.222722
658.30 3.864577
658.40 3.850003
658.50 4.127451
658.60 4.706865
658.70 5.751058
658.80 5.94184
658.90 5.593735
659.00 5.013714
659.10 4.616423
659.20 4.767127
659.30 4.819779
659.40 4.688406
659.50 4.398055
659.60 4.501038
659.70 4.686958
659.80 4.251892
659.90 4.075272
660.00 4.323719
660.10 4.318243
660.20 4.247343
660.30 4.357425
660.40 4.52995
660.50 4.712469
660.60 4.845269
660.70 4.807652
660.80 4.53555
660.90 4.625281
661.00 4.679765
661.10 4.795669
661.20 4.904674
661.30 5.013742
661.40 5.093509
661.50 4.90705
661.60 4.75497
661.70 4.617467
661.80 4.883368
661.90 4.854751
662.00 4.472694
662.10 4.318469
662.20 4.400676
662.30 4.446233
662.40 4.136489
662.50 4.171992
662.60 4.079309
662.70 3.656837
662.80 3.675632
662.90 3.578888
663.00 3.657615
663.10 3.922096
663.20 4.356098
663.30 4.667565
663.40 4.265145
663.50 3.631683
663.60 3.716607
663.70 4.114599
663.80 3.934706
663.90 3.596207
664.00 3.379036
664.10 3.482638
664.20 3.652829
664.30 4.029882
664.40 4.313866
664.50 4.24181
664.60 4.192315
664.70 4.099043
664.80 4.133594
664.90 4.057974
665.00 3.786266
665.10 3.548171
665.20 2.937971
665.30 2.796115
665.40 3.258998
665.50 3.070414
665.60 3.067721
665.70 3.178149
665.80 2.855707
665.90 2.606899
666.00 2.879811
666.10 3.456468
666.20 3.678061
666.30 3.538745
666.40 3.692064
666.50 3.760545
666.60 3.689298
666.70 3.744445
666.80 3.950761
666.90 4.124852
667.00 4.037913
667.10 3.832396
667.20 3.682243
667.30 3.639616
667.40 3.531237
667.50 3.785663
667.60 3.966671
667.70 4.32899
667.80 4.298779
667.90 4.122632
668.00 3.76713
668.10 3.609668
668.20 3.561479
668.30 3.075249
668.40 3.367955
668.50 3.685877
668.60 3.731763
668.70 3.495173
668.80 3.18284
668.90 3.024808
669.00 2.763627
669.10 3.183909
669.20 3.889599
669.30 3.874384
669.40 3.303337
669.50 3.078789
669.60 3.303767
669.70 3.729706
669.80 3.901262
669.90 3.506493
670.00 3.115027
670.10 3.395413
670.20 3.733531
670.30 3.845043
670.40 3.946099
670.50 4.090573
670.60 4.527488
670.70 4.686262
670.80 4.677527
670.90 4.397735
671.00 4.160686
671.10 4.285899
671.20 4.48166
671.30 4.55456
671.40 4.08886
671.50 3.574149
671.60 3.177746
671.70 3.100388
671.80 2.978579
671.90 2.623082
672.00 2.734696
672.10 2.915712
672.20 3.004736
672.30 3.093431
672.40 3.187629
672.50 3.354252
672.60 3.308103
672.70 3.369761
672.80 3.463354
672.90 3.404259
673.00 3.328181
673.10 3.321219
673.20 3.376812
673.30 3.410632
673.40 3.208634
673.50 3.079298
673.60 3.276478
673.70 3.62807
673.80 3.622358
673.90 3.544285
674.00 3.606608
674.10 3.685434
674.20 3.7552
674.30 3.90586
674.40 3.973939
674.50 3.620184
674.60 3.531394
674.70 3.648083
674.80 3.442599
674.90 3.072511
675.00 2.933682
675.10 3.151149
675.20 3.338316
675.30 3.266066
675.40 2.962585
675.50 3.115751
675.60 3.471686
675.70 3.678668
675.80 3.685986
675.90 3.587635
676.00 3.750312
676.10 4.050941
676.20 3.848876
676.30 3.771845
676.40 3.784363
676.50 3.526664
676.60 4.198376
676.70 4.658928
676.80 4.463778
676.90 4.526981
677.00 4.791723
677.10 5.350142
677.20 5.29411
677.30 4.714179
677.40 4.432811
677.50 4.585464
677.60 4.650728
677.70 4.536278
677.80 4.563059
677.90 4.676238
678.00 4.69364
678.10 4.135485
678.20 3.667374
678.30 3.767753
678.40 3.709284
678.50 3.355215
678.60 2.841775
678.70 2.64203
678.80 2.807916
678.90 3.251348
679.00 3.708211
679.10 3.919763
679.20 3.850045
679.30 3.350826
679.40 3.234242
679.50 3.618655
679.60 3.936904
679.70 4.043126
679.80 3.880764
679.90 3.743245
680.00 3.885095
680.10 4.368753
680.20 4.624272
680.30 4.460274
680.40 4.345471
680.50 4.150327
680.60 4.163748
680.70 4.338654
680.80 4.466419
680.90 4.612975
681.00 4.146581
681.10 4.109857
681.20 4.70931
681.30 4.950406
681.40 4.774703
681.50 4.285372
681.60 4.117939
681.70 4.334244
681.80 4.343888
681.90 4.137488
682.00 3.999519
682.10 4.071434
682.20 4.33057
682.30 4.234408
682.40 4.006389
682.50 4.063642
682.60 4.407348
682.70 4.664423
682.80 4.446241
682.90 4.31096
683.00 4.554527
683.10 4.596887
683.20 4.792326
683.30 4.796387
683.40 4.47212
683.50 4.74107
683.60 5.229715
683.70 5.528115
683.80 5.3102
683.90 5.003572
684.00 4.758031
684.10 4.858223
684.20 5.1111
684.30 5.012848
684.40 4.964198
684.50 4.869606
684.60 4.888061
684.70 4.85703
684.80 4.745473
684.90 4.798891
685.00 4.818688
685.10 4.577693
685.20 4.484715
685.30 4.414967
685.40 4.379829
685.50 4.437798
685.60 4.458025
685.70 4.5814
685.80 4.442564
685.90 4.396606
686.00 4.594219
686.10 4.486812
686.20 4.04873
686.30 3.959733
686.40 4.220809
686.50 4.452893
686.60 4.191156
686.70 3.797963
686.80 4.763658
686.90 5.065209
687.00 3.834879
687.10 3.738812
687.20 4.59356
687.30 5.182562
687.40 5.248712
687.50 5.04601
687.60 5.283126
687.70 5.420662
687.80 5.307836
687.90 5.548046
688.00 5.810063
688.10 5.697751
688.20 5.577569
688.30 5.621712
688.40 5.577553
688.50 5.403953
688.60 5.511194
688.70 5.784797
688.80 5.617323
688.90 5.790149
689.00 5.89647
689.10 5.417961
689.20 4.725536
689.30 4.070821
689.40 4.608426
689.50 5.414166
689.60 5.425408
689.70 5.363279
689.80 5.331335
689.90 5.312501
690.00 5.215421
690.10 4.984029
690.20 4.854348
690.30 4.773914
690.40 4.984407
690.50 5.45696
690.60 5.474789
690.70 5.490398
690.80 5.909096
690.90 5.983289
691.00 5.741756
691.10 5.841731
691.20 6.147795
691.30 6.160429
691.40 5.857836
691.50 5.97679
691.60 6.335997
691.70 6.214819
691.80 5.734875
691.90 5.601421
692.00 5.653278
692.10 5.803197
692.20 5.72109
692.30 5.377755
692.40 5.895213
692.50 6.591569
692.60 6.926353
692.70 7.283501
692.80 7.091262
692.90 6.588338
693.00 6.190549
693.10 6.15561
693.20 6.563752
693.30 6.948399
693.40 7.265228
693.50 7.00678
693.60 6.745252
693.70 7.097224
693.80 7.227535
693.90 7.21156
694.00 6.986343
694.10 6.75197
694.20 6.90481
694.30 7.242332
694.40 8.140588
694.50 8.545298
694.60 8.45776
694.70 8.929385
694.80 9.508862
694.90 9.955559
695.00 9.900764
695.10 9.401407
695.20 8.79435
695.30 8.267195
695.40 8.105597
695.50 8.022463
695.60 8.189699
695.70 8.190805
695.80 8.093534
695.90 8.166417
696.00 8.2519
696.10 8.438175
696.20 8.248689
696.30 8.111251
696.40 8.557135
696.50 9.11023
696.60 9.443695
696.70 9.535975
696.80 9.678307
696.90 9.730792
697.00 9.481867
697.10 8.939108
697.20 8.721947
697.30 9.438335
697.40 9.376201
697.50 8.763437
697.60 9.122403
697.70 9.7924
697.80 10.44944
697.90 10.67555
698.00 10.45464
698.10 10.1827
698.20 10.12411
698.30 10.4706
698.40 10.69486
698.50 10.48623
698.60 10.51694
698.70 10.49647
698.80 10.48168
698.90 10.34742
699.00 10.67092
699.10 10.70137
699.20 10.08104
699.30 9.66058
699.40 9.798585
699.50 10.30194
699.60 10.26899
699.70 9.914825
699.80 9.552477
699.90 9.554333
700.00 9.985317
700.10 10.12932
700.20 9.88502
700.30 9.859102
700.40 10.15093
700.50 10.29035
700.60 10.14207
700.70 10.12527
700.80 10.38983
700.90 10.61175
701.00 11.02716
701.10 11.44977
701.20 11.60521
701.30 11.49717
701.40 11.11732
701.50 11.00986
701.60 11.29614
701.70 11.43929
701.80 11.44138
701.90 11.29386
702.00 11.51048
702.10 12.31306
702.20 12.68789
702.30 12.31443
702.40 11.62524
702.50 10.97843
702.60 10.95584
702.70 11.57671
702.80 12.5773
702.90 13.42508
703.00 13.75589
703.10 13.81518
703.20 13.4953
703.30 13.39216
703.40 13.64174
703.50 14.01116
703.60 14.64444
703.70 15.20962
703.80 15.47004
703.90 15.22973
704.00 14.48098
704.10 14.21559
704.20 14.72463
704.30 15.20698
704.40 15.58719
704.50 15.76547
704.60 15.7446
704.70 15.69268
704.80 15.47154
704.90 15.55645
705.00 15.66678
705.10 16.15419
705.20 16.56684
705.30 15.79581
705.40 13.93555
705.50 11.15355
705.60 8.205406
705.70 6.160439
705.80 5.640726
705.90 5.610297
706.00 5.208676
706.10 4.981301
706.20 4.937303
706.30 5.027146
706.40 5.324617
706.50 5.461168
706.60 5.543459
706.70 5.479619
706.80 5.417538
706.90 5.834128
707.00 6.144949
707.10 6.16801
707.20 6.26954
707.30 6.396394
707.40 6.354883
707.50 6.454312
707.60 6.502178
707.70 6.345069
707.80 6.175534
707.90 6.190864
708.00 6.816781
708.10 7.686547
708.20 7.679759
708.30 7.353868
708.40 7.177349
708.50 7.121154
708.60 7.342357
708.70 7.493226
708.80 7.161167
708.90 5.931623
709.00 4.442307
709.10 3.835079
709.20 4.196184
709.30 4.560061
709.40 4.585843
709.50 4.452387
709.60 4.267887
709.70 4.484012
709.80 4.836925
709.90 4.768846
710.00 4.455146
710.10 4.482433
710.20 4.588493
710.30 4.5951
710.40 4.690338
710.50 4.783719
710.60 4.892295
710.70 4.783365
710.80 4.903064
710.90 5.616246
711.00 6.102135
711.10 6.014475
711.20 5.797027
711.30 5.706119
711.40 5.884295
711.50 6.096527
711.60 6.2499
711.70 6.222949
711.80 6.000028
711.90 6.215478
712.00 6.804358
712.10 7.190495
712.20 7.232027
712.30 6.902938
712.40 6.476358
712.50 6.143866
712.60 5.760364
712.70 5.297071
712.80 4.796571
712.90 3.982956
713.00 3.662006
713.10 3.994041
713.20 4.161443
713.30 4.170745
713.40 4.086547
713.50 4.0523
713.60 4.010764
713.70 3.860216
713.80 3.896935
713.90 4.194066
714.00 4.484874
714.10 4.417305
714.20 4.392287
714.30 4.430919
714.40 4.398381
714.50 4.34797
714.60 4.347492
714.70 4.599637
714.80 4.676779
714.90 4.682948
715.00 4.758449
715.10 4.468175
715.20 4.202959
715.30 4.227169
715.40 4.517755
715.50 5.052294
715.60 5.534798
715.70 5.691816
715.80 5.46392
715.90 4.973837
716.00 4.930546
716.10 5.24219
716.20 4.950956
716.30 4.495712
716.40 4.35145
716.50 4.68608
716.60 5.44613
716.70 5.648231
716.80 5.097207
716.90 4.731293
717.00 4.845967
717.10 5.10435
717.20 5.428014
717.30 5.710005
717.40 5.729507
717.50 5.80408
717.60 5.897516
717.70 5.655728
717.80 5.437251
717.90 5.257631
718.00 5.278909
718.10 5.695923
718.20 6.095576
718.30 6.290689
718.40 6.235143
718.50 6.150469
718.60 6.388974
718.70 6.718697
718.80 6.873729
718.90 7.023614
719.00 7.31673
719.10 7.36467
719.20 7.240842
719.30 7.204064
719.40 7.106579
719.50 7.266452
719.60 7.139465
719.70 6.781183
719.80 6.442805
719.90 5.631965
720.00 5.310358
720.10 5.80658
720.20 6.192506
720.30 6.42045
720.40 6.188138
720.50 5.928569
720.60 6.186623
720.70 6.210234
720.80 6.134547
720.90 6.217243
721.00 6.331641
721.10 6.248655
721.20 6.178471
721.30 6.431949
721.40 7.046693
721.50 7.434335
721.60 6.983255
721.70 6.53724
721.80 6.863725
721.90 7.446585
722.00 7.599448
722.10 7.403054
722.20 7.194218
722.30 7.283293
722.40 7.788016
722.50 8.160861
722.60 8.157446
722.70 8.392909
722.80 8.847964
722.90 8.8718
723.00 8.435793
723.10 7.986062
723.20 7.806426
723.30 7.995463
723.40 8.330653
723.50 8.695783
723.60 8.863372
723.70 8.769545
723.80 8.879577
723.90 9.530848
724.00 9.657217
724.10 8.753374
724.20 8.107968
724.30 8.222514
724.40 9.609474
724.50 10.51412
724.60 9.800163
724.70 9.48201
724.80 9.978663
724.90 10.52117
725.00 10.81232
725.10 10.9157
725.20 11.08995
725.30 11.17114
725.40 11.23686
725.50 11.50824
725.60 11.92088
725.70 12.38707
725.80 12.09118
725.90 11.36379
726.00 11.35382
726.10 11.56854
726.20 11.76693
726.30 12.27305
726.40 12.83542
726.50 13.40765
726.60 13.62804
726.70 13.13115
726.80 13.03801
726.90 13.34624
727.00 13.18403
727.10 12.90734
727.20 12.70439
727.30 12.40634
727.40 12.43052
727.50 13.03258
727.60 13.94515
727.70 14.42822
727.80 12.35322
727.90 10.39902
728.00 11.72479
728.10 13.30671
728.20 13.36109
728.30 13.03325
728.40 13.20735
728.50 13.97557
728.60 14.23526
728.70 14.01444
728.80 14.23759
728.90 14.88021
729.00 15.54307
729.10 15.78219
729.20 15.717
729.30 15.60664
729.40 15.50067
729.50 15.81335
729.60 16.18309
729.70 16.79243
729.80 17.3155
729.90 17.03084
730.00 16.8588
730.10 17.16128
730.20 17.5756
730.30 18.05177
730.40 18.60439
730.50 18.95833
730.60 19.10855
730.70 18.81085
730.80 18.43542
730.90 19.05099
731.00 19.78647
731.10 19.80621
731.20 19.41833
731.30 19.44203
731.40 20.64504
731.50 21.99654
731.60 21.84044
731.70 20.76488
731.80 20.86494
731.90 21.75045
732.00 22.02478
732.10 22.03978
732.20 22.2054
732.30 22.39141
732.40 22.46984
732.50 22.18374
732.60 21.77495
732.70 21.49723
732.80 21.48834
732.90 22.06823
733.00 22.46333
733.10 22.86682
733.20 22.97154
733.30 22.56567
733.40 22.16499
733.50 21.88516
733.60 22.67114
733.70 24.12868
733.80 24.92164
733.90 25.47054
734.00 26.63145
734.10 27.59208
734.20 27.59282
734.30 26.6
734.40 25.01463
734.50 23.56732
734.60 22.74993
734.70 22.31944
734.80 22.16877
734.90 22.72708
735.00 23.71683
735.10 24.61231
735.20 25.06324
735.30 24.98508
735.40 24.71167
735.50 24.3685
735.60 23.98079
735.70 23.35472
735.80 22.85211
735.90 23.53066
736.00 24.62189
736.10 24.7904
736.20 24.66449
736.30 24.76175
736.40 25.27081
736.50 26.36613
736.60 27.13324
736.70 27.15356
736.80 27.15676
736.90 27.8924
737.00 28.65619
737.10 28.08091
737.20 27.42277
737.30 27.48177
737.40 27.44105
737.50 27.02283
737.60 25.96797
737.70 25.24008
737.80 25.43806
737.90 26.18729
738.00 26.97654
738.10 27.419
738.20 27.59151
738.30 27.33601
738.40 26.9361
738.50 26.74731
738.60 26.86042
738.70 27.45724
738.80 28.22158
738.90 29.19219
739.00 30.13225
739.10 30.37748
739.20 30.05896
739.30 28.85965
739.40 27.15488
739.50 25.69923
739.60 24.75109
739.70 24.80302
739.80 25.50076
739.90 26.70297
740.00 27.70559
740.10 27.64851
740.20 27.76808
740.30 28.7249
740.40 29.25847
740.50 28.52074
740.60 26.24229
740.70 24.7036
740.80 25.1632
740.90 25.95347
741.00 26.72565
741.10 27.38053
741.20 27.7278
741.30 28.19088
741.40 28.71962
741.50 28.69058
741.60 27.86763
741.70 26.82499
741.80 26.17267
741.90 25.75101
742.00 25.18374
742.10 24.76132
742.20 24.764
742.30 25.39471
742.40 26.32924
742.50 27.16621
742.60 27.67888
742.70 27.84251
742.80 28.25578
742.90 28.5926
743.00 28.71478
743.10 28.77802
743.20 28.35068
743.30 27.8067
743.40 27.20943
743.50 26.46806
743.60 25.7484
743.70 25.13057
743.80 25.15013
743.90 25.8018
744.00 26.44142
744.10 26.99765
744.20 27.46238
744.30 26.72047
744.40 25.55246
744.50 25.19734
744.60 25.10131
744.70 25.29393
744.80 25.2799
744.90 24.64019
745.00 24.53789
745.10 25.61311
745.20 26.66857
745.30 26.84388
745.40 26.62688
745.50 26.20812
745.60 25.84809
745.70 25.60799
745.80 25.43664
745.90 25.60779
746.00 25.78027
746.10 25.97357
746.20 26.11386
746.30 26.33601
746.40 26.78271
746.50 27.2213
746.60 27.58997
746.70 27.73597
746.80 27.51835
746.90 26.89603
747.00 26.65097
747.10 27.47043
747.20 28.77472
747.30 28.63389
747.40 27.06129
747.50 25.65987
747.60 24.96687
747.70 25.48971
747.80 26.71188
747.90 27.34902
748.00 27.31871
748.10 27.66242
748.20 28.21305
748.30 28.60506
748.40 29.42574
748.50 30.19409
748.60 30.24206
748.70 29.79349
748.80 29.18182
748.90 28.90776
749.00 29.32405
749.10 29.37526
749.20 28.79805
749.30 28.38786
749.40 27.90244
749.50 27.36806
749.60 27.16857
749.70 27.3108
749.80 27.75922
749.90 28.4674
750.00 29.56927
750.10 30.42926
750.20 30.57843
750.30 30.75474
750.40 31.05931
750.50 30.92409
750.60 30.33936
750.70 29.56962
750.80 29.17807
750.90 29.69893
751.00 30.83354
751.10 31.88279
751.20 32.07944
751.30 31.06463
751.40 29.94012
751.50 29.94386
751.60 30.33643
751.70 30.52694
751.80 30.54374
751.90 30.42111
752.00 30.32558
752.10 30.17665
752.20 30.02108
752.30 30.35887
752.40 31.6011
752.50 32.11681
752.60 31.22278
752.70 30.25779
752.80 29.57708
752.90 29.56375
753.00 30.43408
753.10 31.58193
753.20 32.69021
753.30 33.29638
753.40 32.77428
753.50 31.72095
753.60 31.12036
753.70 31.27509
753.80 32.38669
753.90 33.8969
754.00 35.0578
754.10 35.63986
754.20 35.37877
754.30 34.76707
754.40 34.82152
754.50 35.19762
754.60 35.52628
754.70 35.50404
754.80 34.84063
754.90 34.1933
755.00 33.92836
755.10 34.35484
755.20 35.15283
755.30 35.31707
755.40 34.82193
755.50 34.37179
755.60 34.38703
755.70 34.56554
755.80 34.97251
755.90 35.84856
756.00 36.7156
756.10 37.3836
756.20 37.30885
756.30 36.58254
756.40 36.31077
756.50 35.80793
756.60 34.85486
756.70 34.30518
756.80 33.80694
756.90 33.26102
757.00 32.85922
757.10 32.82416
757.20 33.85744
757.30 36.20887
757.40 38.19277
757.50 37.8935
757.60 36.44082
757.70 35.59613
757.80 35.18248
757.90 35.04738
758.00 35.38206
758.10 36.19615
758.20 37.41503
758.30 38.32917
758.40 38.514
758.50 38.48139
758.60 38.12724
758.70 36.33917
758.80 33.02686
758.90 28.95357
759.00 24.76103
759.10 21.07615
759.20 18.16628
759.30 16.78738
759.40 17.46814
759.50 18.79059
759.60 19.85087
759.70 20.21968
759.80 19.31281
759.90 19.15484
760.00 20.68604
760.10 22.24228
760.20 22.45302
760.30 21.00659
760.40 19.66603
760.50 20.04007
760.60 20.59062
760.70 20.35112
760.80 20.02649
760.90 20.05829
761.00 20.36463
761.10 21.18271
761.20 22.34054
761.30 23.65265
761.40 24.75594
761.50 24.644
761.60 23.86841
761.70 23.62907
761.80 24.32469
761.90 25.69992
762.00 26.91533
762.10 27.05307
762.20 26.11286
762.30 24.70148
762.40 23.55707
762.50 23.12587
762.60 22.65138
762.70 21.62759
762.80 19.97248
762.90 17.28472
763.00 14.75155
763.10 13.60649
763.20 13.96426
763.30 15.11758
763.40 15.75589
763.50 15.60716
763.60 14.92188
763.70 14.45837
763.80 14.91251
763.90 15.28745
764.00 14.8547
764.10 14.50821
764.20 14.5696
764.30 14.87001
764.40 15.21512
764.50 15.21774
764.60 14.78635
764.70 14.37529
764.80 14.18143
764.90 14.00696
765.00 13.7817
765.10 13.42875
765.20 13.21198
765.30 13.41016
765.40 13.43031
765.50 12.70467
765.60 11.3997
765.70 10.39211
765.80 10.12201
765.90 10.10505
766.00 9.858602
766.10 9.089757
766.20 7.998572
766.30 6.77921
766.40 5.771764
766.50 5.044746
766.60 4.529518
766.70 4.509658
766.80 4.981187
766.90 5.85098
767.00 6.610667
767.10 6.864806
767.20 6.94342
767.30 7.111971
767.40 7.409559
767.50 7.862616
767.60 8.316488
767.70 8.692216
767.80 8.878849
767.90 8.888333
768.00 9.166396
768.10 9.877967
768.20 10.45504
768.30 10.52573
768.40 10.54094
768.50 10.62453
768.60 10.60632
768.70 10.45581
768.80 10.09151
768.90 9.828882
769.00 9.953263
769.10 10.30229
769.20 10.40426
769.30 10.13323
769.40 9.754434
769.50 9.207998
769.60 8.498975
769.70 7.702104
769.80 6.860506
769.90 5.942355
770.00 4.940494
770.10 4.777404
770.20 5.622574
770.30 6.585934
770.40 7.293587
770.50 7.760813
770.60 8.172626
770.70 8.547405
770.80 9.041057
770.90 9.658954
771.00 10.13576
771.10 10.82563
771.20 11.18635
771.30 11.1056
771.40 11.9093
771.50 12.5317
771.60 12.02898
771.70 11.65426
771.80 11.53445
771.90 12.18237
772.00 13.3444
772.10 13.31895
772.20 12.91552
772.30 13.6772
772.40 14.69194
772.50 14.95098
772.60 14.91882
772.70 14.66244
772.80 14.39226
772.90 14.86868
773.00 16.03841
773.10 17.42284
773.20 18.29461
773.30 18.28375
773.40 17.99987
773.50 17.81354
773.60 17.74012
773.70 18.05778
773.80 18.72403
773.90 19.43338
774.00 20.08182
774.10 20.32841
774.20 19.92813
774.30 19.4754
774.40 19.02325
774.50 17.72658
774.60 16.05053
774.70 15.4552
774.80 15.56481
774.90 15.43541
775.00 14.92197
775.10 13.69169
775.20 12.8154
775.30 13.56349
775.40 14.62169
775.50 14.76237
775.60 14.42539
775.70 14.1454
775.80 14.15117
775.90 14.54277
776.00 14.96504
776.10 15.06412
776.20 14.8136
776.30 14.30985
776.40 14.33966
776.50 15.031
776.60 15.34274
776.70 15.28485
776.80 15.80915
776.90 16.63007
777.00 17.18481
777.10 17.49604
777.20 17.51104
777.30 17.56549
777.40 18.02254
777.50 18.55169
777.60 18.77138
777.70 18.63548
777.80 18.27114
777.90 18.48985
778.00 19.23584
778.10 19.55281
778.20 19.24532
778.30 17.98191
778.40 16.25687
778.50 15.21409
778.60 14.9684
778.70 15.10407
778.80 15.47868
778.90 15.88209
779.00 16.19223
779.10 17.17958
779.20 18.48409
779.30 19.44052
779.40 19.82185
779.50 19.28308
779.60 18.93095
779.70 18.82844
779.80 17.88293
779.90 17.02653
780.00 16.28103
780.10 14.966
780.20 14.45153
780.30 15.3626
780.40 17.13453
780.50 19.32168
780.60 20.81088
780.70 21.22629
780.80 21.5228
780.90 22.13505
781.00 22.27581
781.10 21.87724
781.20 21.83594
781.30 22.10661
781.40 22.59916
781.50 23.20999
781.60 23.35707
781.70 23.43847
781.80 23.80749
781.90 24.49951
782.00 24.744
782.10 22.97131
782.20 21.05142
782.30 20.57836
782.40 20.16077
782.50 20.22035
782.60 20.3269
782.70 19.95516
782.80 19.85613
782.90 19.36632
783.00 18.18856
783.10 17.34746
783.20 17.44346
783.30 18.21477
783.40 19.09518
783.50 19.65801
783.60 19.93351
783.70 19.98769
783.80 20.07463
783.90 20.31267
784.00 20.29726
784.10 20.30569
784.20 20.5948
784.30 20.60194
784.40 20.50396
784.50 20.79018
784.60 21.37096
784.70 22.07497
784.80 22.56298
784.90 22.45669
785.00 21.69944
785.10 21.05517
785.20 21.28863
785.30 21.85871
785.40 22.23211
785.50 22.17446
785.60 21.70529
785.70 21.75042
785.80 22.06173
785.90 22.4062
786.00 22.91108
786.10 22.6047
786.20 21.79307
786.30 21.4771
786.40 21.55206
786.50 21.38923
786.60 20.99583
786.70 20.67735
786.80 20.28548
786.90 20.40231
787.00 20.94734
787.10 21.21137
787.20 21.15503
787.30 20.44497
787.40 19.94958
787.50 20.42336
787.60 21.06083
787.70 21.47995
787.80 21.83876
787.90 22.30557
788.00 22.66835
788.10 22.97319
788.20 23.68651
788.30 24.23786
788.40 24.21447
788.50 24.20862
788.60 24.38304
788.70 24.85281
788.80 25.53529
788.90 25.75154
789.00 25.43974
789.10 24.96045
789.20 24.59574
789.30 24.89472
789.40 25.73431
789.50 26.16719
789.60 25.71658
789.70 24.7362
789.80 23.6471
789.90 22.48553
790.00 21.58928
790.10 21.17802
790.20 21.12632
790.30 21.67974
790.40 22.6353
790.50 23.44445
790.60 23.99445
790.70 23.90185
790.80 23.03181
790.90 22.15418
791.00 21.81628
791.10 21.5726
791.20 21.40964
791.30 21.21897
791.40 20.72104
791.50 20.85179
791.60 21.09418
791.70 21.08707
791.80 21.60766
791.90 21.60989
792.00 20.65173
792.10 19.7189
792.20 19.43488
792.30 20.03396
792.40 21.03426
792.50 21.90899
792.60 22.30387
792.70 22.2826
792.80 22.49664
792.90 22.83897
793.00 23.00497
793.10 23.13166
793.20 23.42636
793.30 24.50659
793.40 25.84168
793.50 26.58201
793.60 26.8296
793.70 26.46744
793.80 26.14731
793.90 26.082
794.00 25.03623
794.10 23.24205
794.20 21.85289
794.30 21.22655
794.40 21.52431
794.50 22.27083
794.60 22.77419
794.70 22.28257
794.80 20.10022
794.90 18.08091
795.00 18.48562
795.10 20.70847
795.20 22.88466
795.30 24.20315
795.40 25.21663
795.50 26.29832
795.60 27.08854
795.70 27.42111
795.80 27.08051
795.90 26.34382
796.00 25.94496
796.10 25.25279
796.20 23.7542
796.30 23.04423
796.40 23.98555
796.50 24.92832
796.60 24.74568
796.70 24.25492
796.80 24.35003
796.90 25.60371
797.00 27.64408
797.10 28.76657
797.20 28.67949
797.30 28.63425
797.40 28.38239
797.50 27.22691
797.60 26.08211
797.70 25.53505
797.80 25.29802
797.90 25.14607
798.00 24.91895
798.10 24.87718
798.20 25.09597
798.30 25.11036
798.40 24.77895
798.50 24.28754
798.60 23.77647
798.70 23.41653
798.80 23.40529
798.90 23.57432
799.00 23.70193
799.10 23.98334
799.20 24.74231
799.30 26.01249
799.40 26.80082
799.50 25.9928
799.60 24.77305
799.70 24.51906
799.80 24.80807
799.90 25.17883
800.00 25.52025
800.10 26.04197
800.20 26.70609
800.30 27.35568
800.40 28.07497
800.50 28.24945
800.60 27.97402
800.70 28.21956
800.80 29.08586
800.90 30.00849
801.00 30.32694
801.10 30.19614
801.20 30.14666
801.30 30.31444
801.40 30.65459
801.50 30.50073
801.60 30.01145
801.70 30.33617
801.80 31.39592
801.90 32.31979
802.00 32.65792
802.10 32.37253
802.20 31.79276
802.30 31.27633
802.40 31.22266
802.50 31.5186
802.60 31.91225
802.70 32.94386
802.80 34.3102
802.90 35.30949
803.00 36.06791
803.10 36.45575
803.20 36.35282
803.30 36.05987
803.40 35.93055
803.50 36.10692
803.60 36.69215
803.70 37.08196
803.80 36.5249
803.90 35.96924
804.00 36.05637
804.10 36.06814
804.20 36.17097
804.30 36.88411
804.40 37.73749
804.50 38.24377
804.60 38.07949
804.70 37.21904
804.80 36.96214
804.90 38.06033
805.00 39.56178
805.10 40.67609
805.20 41.53128
805.30 42.42774
805.40 42.94656
805.50 43.09727
805.60 43.37696
805.70 43.65223
805.80 44.03823
805.90 44.2182
806.00 43.87776
806.10 44.14786
806.20 45.10641
806.30 45.60009
806.40 45.31247
806.50 44.87949
806.60 44.84265
806.70 45.04478
806.80 45.33395
806.90 45.60588
807.00 45.26909
807.10 44.72256
807.20 45.13945
807.30 46.3
807.40 47.37269
807.50 48.11612
807.60 48.50406
807.70 48.63012
807.80 49.04235
807.90 50.14046
808.00 50.98056
808.10 50.46373
808.20 49.81152
808.30 50.55527
808.40 51.59346
808.50 52.30981
808.60 53.25461
808.70 53.63878
808.80 53.21439
808.90 52.57506
809.00 51.84474
809.10 51.76957
809.20 52.94401
809.30 54.5057
809.40 55.16888
809.50 54.71215
809.60 54.30054
809.70 54.04368
809.80 53.51789
809.90 53.33098
810.00 53.3678
810.10 53.40035
810.20 53.6239
810.30 53.47377
810.40 52.73882
810.50 52.31906
810.60 52.98339
810.70 54.69323
810.80 56.38582
810.90 57.33858
811.00 58.07494
811.10 58.52176
811.20 58.37549
811.30 58.21757
811.40 58.31889
811.50 58.7693
811.60 59.13535
811.70 58.55087
811.80 57.59741
811.90 57.66381
812.00 58.89776
812.10 60.16036
812.20 60.90069
812.30 61.2137
812.40 61.17792
812.50 61.48378
812.60 62.06036
812.70 62.23938
812.80 62.56069
812.90 63.44526
813.00 64.00289
813.10 63.79706
813.20 63.57961
813.30 63.65657
813.40 64.14067
813.50 65.26768
813.60 66.0315
813.70 66.02253
813.80 66.23536
813.90 66.57731
814.00 66.55503
814.10 66.42433
814.20 65.90772
814.30 64.94605
814.40 63.8772
814.50 63.02257
814.60 62.97035
814.70 63.41968
814.80 63.57026
814.90 63.20329
815.00 63.14394
815.10 64.24657
815.20 65.5433
815.30 66.12647
815.40 66.31098
815.50 66.00127
815.60 65.32058
815.70 65.0995
815.80 65.17135
815.90 64.83394
816.00 64.4016
816.10 63.98694
816.20 63.33289
816.30 63.11742
816.40 63.97905
816.50 65.54251
816.60 66.96182
816.70 67.72786
816.80 68.11854
816.90 68.60563
817.00 69.17189
817.10 69.95857
817.20 70.33887
817.30 69.72053
817.40 69.38696
817.50 69.21599
817.60 68.34261
817.70 67.05354
817.80 65.19782
817.90 63.44665
818.00 62.5227
818.10 60.66859
818.20 55.70269
818.30 47.88566
818.40 39.99801
818.50 36.09964
818.60 37.81899
818.70 43.46246
818.80 50.31198
818.90 55.40894
819.00 57.77088
819.10 58.22223
819.20 56.92184
819.30 53.14016
819.40 47.01273
819.50 40.20761
819.60 34.80881
819.70 32.79208
819.80 34.57886
819.90 38.7549
820.00 43.44029
820.10 47.44424
820.20 50.78259
820.30 53.7713
820.40 56.23285
820.50 57.82954
820.60 58.11588
820.70 56.2839
820.80 53.09737
820.90 51.55743
821.00 52.97278
821.10 55.57301
821.20 58.1291
821.30 59.68304
821.40 59.21848
821.50 57.98013
821.60 57.19713
821.70 56.60209
821.80 56.21764
821.90 56.5022
822.00 57.4438
822.10 58.83886
822.20 60.55278
822.30 62.00363
822.40 62.97941
822.50 63.52142
822.60 63.44116
822.70 63.29438
822.80 63.4442
822.90 63.9268
823.00 64.99559
823.10 66.20253
823.20 67.0537
823.30 67.4104
823.40 66.71134
823.50 65.21531
823.60 64.31925
823.70 64.71277
823.80 66.12882
823.90 67.82285
824.00 69.0276
824.10 69.73369
824.20 70.19293
824.30 70.14991
824.40 69.49441
824.50 68.90923
824.60 69.10705
824.70 70.2552
824.80 72.17068
824.90 73.85531
825.00 73.96533
825.10 72.11953
825.20 69.02378
825.30 65.93183
825.40 63.93585
825.50 63.1495
825.60 62.63764
825.70 61.88047
825.80 61.1649
825.90 61.35554
826.00 63.16671
826.10 65.53602
826.20 67.39581
826.30 68.64235
826.40 69.24531
826.50 69.89994
826.60 70.53517
826.70 70.42029
826.80 69.81618
826.90 68.94023
827.00 67.93301
827.10 67.00908
827.20 65.69015
827.30 63.48295
827.40 60.91552
827.50 59.74443
827.60 60.9564
827.70 62.84887
827.80 63.59725
827.90 63.44153
828.00 62.71541
828.10 61.51469
828.20 60.29665
828.30 59.01405
828.40 58.07312
828.50 58.73877
828.60 60.34793
828.70 60.97183
828.80 60.01595
828.90 57.08326
829.00 53.09172
829.10 50.97551
829.20 51.5587
829.30 53.39052
829.40 54.88963
829.50 55.14253
829.60 55.12232
829.70 55.93488
829.80 56.83919
829.90 57.15846
830.00 49.97176
830.10 49.80322
830.20 49.63468
830.30 49.81725
830.40 49.99981
830.50 50.45775
830.60 50.9157
830.70 51.56169
830.80 52.20769
830.90 53.57846
831.00 54.94922
831.10 56.22562
831.20 57.50201
831.30 56.59237
831.40 55.68273
831.50 56.19666
831.60 56.71059
831.70 57.21953
831.80 57.72846
831.90 57.61646
832.00 57.50445
832.10 57.63076
832.20 57.75706
832.30 57.56982
832.40 57.38259
832.50 56.62073
832.60 55.85887
832.70 56.41081
832.80 56.96275
832.90 59.0843
833.00 61.20584
833.10 58.55677
833.20 55.90771
833.30 56.5944
833.40 57.28109
833.50 56.49859
833.60 55.71609
833.70 55.28571
833.80 54.85533
833.90 56.37968
834.00 57.90403
834.10 58.02774
834.20 58.15144
834.30 58.87508
834.40 59.59872
834.50 55.57216
834.60 51.54561
834.70 50.66496
834.80 49.78431
834.90 51.30319
835.00 52.82207
835.10 54.47663
835.20 56.13119
835.30 56.49292
835.40 56.85466
835.50 56.6388
835.60 56.42294
835.70 57.86836
835.80 59.31379
835.90 58.72889
836.00 58.144
836.10 58.31834
836.20 58.49268
836.30 59.16581
836.40 59.83895
836.50 59.9821
836.60 60.12526
836.70 60.66927
836.80 61.21327
836.90 62.92589
837.00 64.63852
837.10 61.15018
837.20 57.66185
837.30 58.84203
837.40 60.02221
837.50 58.28236
837.60 56.54251
837.70 55.66455
837.80 54.78659
837.90 55.97218
838.00 57.15777
838.10 59.13541
838.20 61.11305
838.30 59.01919
838.40 56.92533
838.50 57.08527
838.60 57.2452
838.70 55.91907
838.80 54.59294
838.90 52.29288
839.00 49.99281
839.10 50.49691
839.20 51.00101
839.30 52.33581
839.40 53.6706
839.50 55.06877
839.60 56.46693
839.70 57.59774
839.80 58.72855
839.90 60.42007
840.00 62.1116
840.10 55.43353
840.20 58.2331
840.30 59.51208
840.40 59.63361
840.50 60.04299
840.60 61.3801
840.70 62.7171
840.80 62.81071
840.90 62.77091
841.00 66.02863
841.10 71.66257
841.20 74.58512
841.30 69.46907
841.40 64.36375
841.50 60.15811
841.60 55.99924
841.70 59.09328
841.80 67.23793
841.90 71.5367
842.00 65.51736
842.10 59.52052
842.20 57.19265
842.30 55.08044
842.40 53.75406
842.50 52.87149
842.60 52.6326
842.70 53.99076
842.80 55.35398
842.90 55.8599
843.00 56.31236
843.10 57.08317
843.20 58.02798
843.30 57.80437
843.40 55.14103
843.50 52.50318
843.60 48.93513
843.70 45.32121
843.80 42.97425
843.90 41.16252
844.00 42.01885
844.10 48.25094
844.20 54.41403
844.30 47.52184
844.40 40.65602
844.50 35.30734
844.60 30.68708
844.70 28.92232
844.80 32.35838
844.90 35.7709
845.00 38.47651
845.10 41.20476
845.20 38.22875
845.30 32.89061
845.40 29.5928
845.50 29.75387
845.60 29.94269
845.70 30.27361
845.80 30.59715
845.90 30.84566
846.00 31.07214
846.10 32.13615
846.20 34.45102
846.30 36.66463
846.40 37.90115
846.50 39.15893
846.60 34.30016
846.70 27.32156
846.80 25.8248
846.90 31.86864
847.00 36.99138
847.10 32.75549
847.20 28.52624
847.30 29.13647
847.40 31.20412
847.50 32.32247
847.60 32.25182
847.70 32.35094
847.80 33.40583
847.90 34.46836
848.00 35.16676
848.10 35.79652
848.20 36.21361
848.30 36.40838
848.40 36.53803
848.50 36.19639
848.60 35.8509
848.70 35.73284
848.80 35.66994
848.90 35.02923
849.00 33.76245
849.10 32.80805
849.20 33.42138
849.30 34.03142
849.40 33.71301
849.50 33.2364
849.60 33.75558
849.70 35.27166
849.80 36.27311
849.90 34.99263
850.00 33.7126
850.10 37.91366
850.20 42.91978
850.30 43.44187
850.40 40.10687
850.50 37.6952
850.60 38.83903
850.70 39.99245
850.80 36.34868
850.90 32.15978
851.00 31.23996
851.10 32.70164
851.20 34.57581
851.30 37.64381
851.40 40.702
851.50 40.1568
851.60 39.30988
851.70 36.11594
851.80 31.40083
851.90 28.39561
852.00 29.73173
852.10 31.07062
852.20 30.35348
852.30 29.5264
852.40 31.40295
852.50 34.81587
852.60 37.73568
852.70 39.54268
852.80 41.3204
852.90 39.61154
853.00 37.84155
853.10 36.92198
853.20 36.4552
853.30 36.65534
853.40 38.10646
853.50 39.52619
853.60 37.59346
853.70 35.66472
853.80 36.86293
853.90 39.48008
854.00 40.77765
854.10 39.8447
854.20 38.97607
854.30 38.99359
854.40 39.00657
854.50 40.38355
854.60 42.28392
854.70 42.73119
854.80 40.96445
854.90 39.36718
855.00 40.13567
855.10 40.90266
855.20 41.30113
855.30 41.57156
855.40 42.19398
855.50 43.32256
855.60 44.06934
855.70 41.56124
855.80 39.0345
855.90 38.90625
856.00 39.504
856.10 39.09678
856.20 37.47181
856.30 36.13968
856.40 36.43157
856.50 36.72712
856.60 39.23067
856.70 42.20229
856.80 43.63812
856.90 43.54129
857.00 42.84528
857.10 39.40448
857.20 35.97115
857.30 34.28862
857.40 32.90863
857.50 34.11531
857.60 37.53541
857.70 40.42124
857.80 41.26209
857.90 42.08799
858.00 42.0292
858.10 41.87153
858.20 41.66329
858.30 41.49741
858.40 41.04317
858.50 39.54289
858.60 38.05518
858.70 41.42389
858.80 45.20642
858.90 47.071
859.00 47.68877
859.10 47.84972
859.20 46.79101
859.30 45.72136
859.40 44.19906
859.50 42.64954
859.60 43.77956
859.70 46.40982
859.80 48.13536
859.90 47.88006
860.00 47.59786
860.10 47.91428
860.20 48.23227
860.30 50.63485
860.40 54.06091
860.50 54.45233
860.60 49.11039
860.70 43.92349
860.80 44.70517
860.90 45.48138
861.00 45.05976
861.10 44.16444
861.20 43.80845
861.30 44.28597
861.40 44.63957
861.50 43.52981
861.60 42.41199
861.70 43.00002
861.80 44.18355
861.90 44.62884
862.00 43.95532
862.10 43.50566
862.20 45.16134
862.30 46.80658
862.40 47.9406
862.50 48.95608
862.60 48.23127
862.70 45.58628
862.80 43.64402
862.90 45.72628
863.00 47.81383
863.10 45.97155
863.20 43.27496
863.30 42.84477
863.40 44.57678
863.50 45.63293
863.60 43.78784
863.70 41.95653
863.80 43.18801
863.90 44.91357
864.00 46.23062
864.10 47.20825
864.20 47.32474
864.30 44.22629
864.40 41.1616
864.50 44.41857
864.60 48.46485
864.70 47.87483
864.80 44.04842
864.90 41.5751
865.00 43.16675
865.10 44.81032
865.20 43.2825
865.30 41.54857
865.40 41.60441
865.50 42.77021
865.60 44.25688
865.70 46.49966
865.80 48.70563
865.90 49.25404
866.00 49.76953
866.10 50.01391
866.20 50.15952
866.30 49.98772
866.40 49.12601
866.50 48.3242
866.60 47.78532
866.70 47.22022
866.80 46.55568
866.90 45.8997
867.00 46.43056
867.10 48.95093
867.20 51.07311
867.30 46.94196
867.40 42.80634
867.50 43.62655
867.60 46.16657
867.70 49.10689
867.80 52.59257
867.90 55.57318
868.00 54.20089
868.10 52.83577
868.20 49.54714
868.30 45.73149
868.40 45.21856
868.50 48.65257
868.60 51.35866
868.70 49.21301
868.80 47.04811
868.90 48.50365
869.00 50.72806
869.10 49.75803
869.20 45.75961
869.30 42.10072
869.40 39.80342
869.50 37.50449
869.60 38.18909
869.70 39.30281
869.80 39.30394
869.90 38.23633
870.00 37.77499
870.10 39.50439
870.20 41.25634
870.30 42.57084
870.40 43.83548
870.50 44.27385
870.60 44.14127
870.70 44.58441
870.80 46.46787
870.90 48.28232
871.00 44.6312
871.10 40.77662
871.20 41.47745
871.30 44.68246
871.40 45.93865
871.50 43.00435
871.60 40.05265
871.70 42.12114
871.80 44.19844
871.90 44.66255
872.00 44.36677
872.10 44.20448
872.20 44.16574
872.30 44.05066
872.40 42.52069
872.50 40.98942
872.60 41.7291
872.70 43.29927
872.80 44.96489
872.90 46.53491
873.00 47.99858
873.10 49.43389
873.20 50.86076
873.30 50.20548
873.40 48.99898
873.50 48.20077
873.60 47.82513
873.70 47.28315
873.80 45.31244
873.90 43.3254
874.00 44.65542
874.10 46.70558
874.20 48.27743
874.30 49.29503
874.40 50.77652
874.50 53.98689
874.60 57.13443
874.70 57.52746
874.80 57.54826
874.90 56.2623
875.00 54.0723
875.10 52.48576
875.20 52.48387
875.30 52.50366
875.40 53.65821
875.50 54.90238
875.60 53.38943
875.70 50.11083
875.80 48.72024
875.90 52.00541
876.00 55.33334
876.10 55.87705
876.20 56.30802
876.30 55.33179
876.40 53.70561
876.50 52.25696
876.60 51.3005
876.70 50.43365
876.80 51.84489
876.90 53.28386
877.00 54.78508
877.10 56.21971
877.20 57.67097
877.30 59.0438
877.40 60.61151
877.50 64.88356
877.60 69.13086
877.70 68.39138
877.80 66.04269
877.90 64.08753
878.00 63.10853
878.10 62.14059
878.20 60.63019
878.30 59.15334
878.40 60.30977
878.50 62.07882
878.60 64.61045
878.70 67.97135
878.80 70.72886
878.90 71.027
879.00 71.35641
879.10 70.22832
879.20 68.82468
879.30 67.47972
879.40 66.18452
879.50 65.38142
879.60 66.39909
879.70 67.44799
879.80 67.94699
879.90 68.36482
880.00 68.54084
880.10 68.68763
880.20 67.67657
880.30 64.24401
880.40 60.92055
880.50 60.06113
880.60 59.30639
880.70 59.93522
880.80 61.20045
880.90 61.10344
881.00 58.29373
881.10 55.71475
881.20 62.32849
881.30 68.89139
881.40 71.99519
881.50 73.59161
881.60 75.05441
881.70 76.43117
881.80 77.73866
881.90 77.83428
882.00 77.87882
882.10 75.1584
882.20 71.54086
882.30 68.20637
882.40 65.50104
882.50 62.61212
882.60 58.03907
882.70 53.54501
882.80 56.72845
882.90 61.74165
883.00 66.03543
883.10 69.47856
883.20 72.57964
883.30 74.00026
883.40 75.36128
883.50 74.75976
883.60 73.85047
883.70 73.46722
883.80 73.50099
883.90 74.66286
884.00 79.70691
884.10 84.7294
884.20 81.94632
884.30 78.38626
884.40 76.88187
884.50 76.87308
884.60 75.66742
884.70 71.73635
884.80 67.83084
884.90 62.60986
885.00 57.35999
885.10 58.57734
885.20 63.12525
885.30 68.60854
885.40 75.30024
885.50 81.66117
885.60 81.43659
885.70 81.15066
885.80 76.3638
885.90 69.86687
886.00 64.84162
886.10 62.17762
886.20 59.39272
886.30 55.13497
886.40 50.97878
886.50 50.8229
886.60 51.76039
886.70 54.15633
886.80 58.12628
886.90 60.91616
887.00 57.85635
887.10 54.75182
887.20 51.83877
887.30 49.01172
887.40 47.15675
887.50 45.84886
887.60 45.20558
887.70 47.11501
887.80 49.05595
887.90 51.488
888.00 53.97907
888.10 55.56734
888.20 56.5436
888.30 56.39491
888.40 53.35166
888.50 50.36046
888.60 51.26512
888.70 52.44863
888.80 51.36975
888.90 48.76205
889.00 49.03598
889.10 55.64984
889.20 62.18052
889.30 61.7769
889.40 61.2859
889.50 58.7435
889.60 55.26447
889.70 53.63805
889.80 55.42677
889.90 57.33876
890.00 59.45706
890.10 61.60427
890.20 63.20544
890.30 64.53713
890.40 67.40307
890.50 72.54382
890.60 77.11689
890.70 77.35436
890.80 77.55144
890.90 72.73269
891.00 66.63388
891.10 63.73179
891.20 64.40837
891.30 64.8929
891.40 64.00949
891.50 63.18148
891.60 63.5524
891.70 64.10123
891.80 65.02834
891.90 66.48935
892.00 67.72021
892.10 67.82495
892.20 67.86081
892.30 66.75797
892.40 65.55833
892.50 64.8594
892.60 64.5582
892.70 65.1785
892.80 67.96314
892.90 70.76677
893.00 70.00408
893.10 69.16149
893.20 70.79711
893.30 73.65486
893.40 75.93479
893.50 77.20355
893.60 78.25141
893.70 77.01217
893.80 75.72455
893.90 71.7322
894.00 66.76385
894.10 63.32006
894.20 61.70602
894.30 60.35078
894.40 60.42866
894.50 60.47231
894.60 59.79975
894.70 58.94429
894.80 59.79277
894.90 62.2954
895.00 64.25843
895.10 63.87631
895.20 63.47712
895.30 62.41398
895.40 61.25881
895.50 61.41309
895.60 62.65217
895.70 64.26137
895.80 66.90196
895.90 69.49728
896.00 70.6415
896.10 71.63069
896.20 72.41835
896.30 73.15232
896.40 72.94611
896.50 70.01933
896.60 67.03927
896.70 66.70893
896.80 66.51016
896.90 67.64083
897.00 69.45807
897.10 70.85201
897.20 71.08167
897.30 71.26391
897.40 73.35531
897.50 75.47527
897.60 77.20177
897.70 78.71437
897.80 78.93018
897.90 77.25969
898.00 75.77068
898.10 77.60703
898.20 79.46876
898.30 79.05901
898.40 77.92799
898.50 79.54951
898.60 83.96691
898.70 87.59436
898.80 87.09693
898.90 86.47984
899.00 82.90401
899.10 78.83254
899.20 77.60572
899.30 78.81317
899.40 80.16666
899.50 81.89333
899.60 83.60462
899.70 80.80415
899.80 77.50275
899.90 76.28779
900.00 76.5556
900.10 77.1898
900.20 78.6401
900.30 80.20414
900.40 84.00237
900.50 87.87447
900.60 91.80018
900.70 95.77963
900.80 96.35883
900.90 90.91502
901.00 85.64289
901.10 86.43826
901.20 87.29043
901.30 86.79398
901.40 85.66816
901.50 85.21566
901.60 85.89063
901.70 86.29352
901.80 84.80986
901.90 83.34533
902.00 80.8495
902.10 78.06613
902.20 76.41356
902.30 76.0374
902.40 75.8618
902.50 76.77089
902.60 77.70351
902.70 77.04452
902.80 76.09346
902.90 76.64843
903.00 78.41099
903.10 79.72055
903.20 79.29497
903.30 78.89851
903.40 81.04341
903.50 83.39093
903.60 85.77134
903.70 88.1986
903.80 90.17638
903.90 91.06307
904.00 91.89813
904.10 89.13004
904.20 86.29114
904.30 85.95717
904.40 86.91922
904.50 87.74038
904.60 88.23607
904.70 88.89333
904.80 90.56933
904.90 92.24115
905.00 93.2847
905.10 94.13237
905.20 92.51182
905.30 88.10843
905.40 83.98458
905.50 81.13746
905.60 78.2946
905.70 78.49076
905.80 79.43796
905.90 79.94921
906.00 79.94911
906.10 80.05585
906.20 80.48671
906.30 80.92297
906.40 80.08501
906.50 79.04103
906.60 79.06675
906.70 80.15473
906.80 80.46696
906.90 78.35965
907.00 76.30765
907.10 78.71235
907.20 81.39711
907.30 81.50995
907.40 80.02935
907.50 78.78916
907.60 78.23624
907.70 77.76322
907.80 82.33181
907.90 86.92324
908.00 87.80024
908.10 87.02317
908.20 86.17421
908.30 85.56953
908.40 84.83957
908.50 83.56155
908.60 82.31658
908.70 80.78415
908.80 79.11854
908.90 80.28836
909.00 84.85663
909.10 88.73414
909.20 88.62314
909.30 88.55068
909.40 89.16802
909.50 89.89798
909.60 90.73137
909.70 91.68683
909.80 92.93863
909.90 95.51084
910.00 98.09875
910.10 97.18614
910.20 95.92663
910.30 95.16819
910.40 94.83957
910.50 94.99874
910.60 96.45808
910.70 97.92761
910.80 94.25244
910.90 90.45692
911.00 91.26044
911.10 94.2791
911.20 96.98178
911.30 99.14555
911.40 101.0782
911.50 99.21045
911.60 97.3177
911.70 97.86654
911.80 99.37875
911.90 99.65217
912.00 98.06724
912.10 96.56808
912.20 95.18567
912.30 93.75969
912.40 93.06989
912.50 92.59373
912.60 92.1132
912.70 91.64138
912.80 91.00472
912.90 89.57453
913.00 88.17552
913.10 91.16639
913.20 94.75835
913.30 96.68854
913.40 97.30542
913.50 98.75376
913.60 102.7247
913.70 106.6052
913.80 105.223
913.90 103.5681
914.00 98.98838
914.10 92.81945
914.20 88.88444
914.30 89.18587
914.40 89.69339
914.50 94.12361
914.60 98.53481
914.70 100.7179
914.80 102.0289
914.90 101.4709
915.00 98.51701
915.10 95.89745
915.20 96.33109
915.30 96.83507
915.40 97.40917
915.50 97.90676
915.60 101.9222
915.70 109.7575
915.80 115.5408
915.90 111.6719
916.00 107.7874
916.10 105.1234
916.20 102.6953
916.30 101.4408
916.40 101.2367
916.50 101.5928
916.60 103.1076
916.70 104.6228
916.80 107.3971
916.90 110.281
917.00 109.8274
917.10 107.4121
917.20 105.881
917.30 106.454
917.40 106.9997
917.50 105.8588
917.60 104.7389
917.70 104.9624
917.80 105.7249
917.90 106.7718
918.00 108.2395
918.10 109.6415
918.20 109.6771
918.30 109.6896
918.40 108.7266
918.50 107.4912
918.60 105.5905
918.70 103.0282
918.80 102.3116
918.90 111.7775
919.00 121.2689
919.10 123.1374
919.20 123.4479
919.30 120.5964
919.40 115.4818
919.50 111.4127
919.60 111.3394
919.70 111.4191
919.80 114.9337
919.90 118.7432
920.00 119.7642
920.10 118.9437
920.20 118.4627
920.30 119.2252
920.40 120.031
920.50 118.6144
920.60 117.1531
920.70 113.5218
920.80 108.8927
920.90 104.5585
921.00 101.1829
921.10 98.02665
921.20 95.10859
921.30 92.19506
921.40 96.50002
921.50 103.15
921.60 107.4234
921.70 108.799
921.80 109.9234
921.90 109.4032
922.00 108.8832
922.10 106.0517
922.20 102.7232
922.30 100.9064
922.40 100.5178
922.50 99.88116
922.60 98.2312
922.70 96.61633
922.80 96.02829
922.90 95.53132
923.00 96.51308
923.10 98.59885
923.20 99.71348
923.30 98.74138
923.40 97.88803
923.50 94.0567
923.60 90.11465
923.70 90.58619
923.80 93.28104
923.90 95.38526
924.00 96.55226
924.10 97.90977
924.20 101.6379
924.30 105.3338
924.40 106.1908
924.50 106.056
924.60 103.7871
924.70 99.04521
924.80 94.89892
924.90 95.18639
925.00 95.51285
925.10 94.65383
925.20 93.47005
925.30 93.00417
925.40 93.28002
925.50 93.67889
925.60 94.29528
925.70 94.94205
925.80 98.23536
925.90 101.8451
926.00 103.8585
926.10 104.985
926.20 105.0491
926.30 102.3799
926.40 99.79296
926.50 101.4853
926.60 103.3481
926.70 104.8037
926.80 105.9263
926.90 106.5274
927.00 106.5192
927.10 106.4521
927.20 105.9016
927.30 105.3452
927.40 104.1303
927.50 102.7046
927.60 100.029
927.70 95.6356
927.80 91.53181
927.90 89.65954
928.00 87.87645
928.10 90.59104
928.20 94.27578
928.30 96.50423
928.40 97.28985
928.50 98.25789
928.60 99.85679
928.70 101.3511
928.80 100.5583
928.90 99.52478
929.00 98.57268
929.10 97.56308
929.20 96.70788
929.30 96.40221
929.40 96.14612
929.50 97.87724
929.60 99.68729
929.70 99.15181
929.80 97.40209
929.90 94.41508
930.00 89.45326
930.10 84.8202
930.20 87.5357
930.30 90.27136
930.40 91.64
930.50 92.41217
930.60 91.85069
930.70 89.57519
930.80 87.69499
930.90 88.39162
931.00 89.10342
931.10 91.4684
931.20 94.17702
931.30 97.34909
931.40 101.001
931.50 103.6662
931.60 102.8275
931.70 102.0114
931.80 99.16095
931.90 96.07419
932.00 93.02534
932.10 90.11423
932.20 88.88615
932.30 92.21064
932.40 95.53735
932.50 99.31096
932.60 103.0704
932.70 103.3332
932.80 101.8065
932.90 100.7851
933.00 100.6166
933.10 100.4569
933.20 100.8712
933.30 101.2862
933.40 97.83808
933.50 93.0169
933.60 92.23656
933.70 96.88136
933.80 100.8449
933.90 99.60807
934.00 98.3671
934.10 100.8062
934.20 104.0639
934.30 102.9017
934.40 97.61785
934.50 94.60841
934.60 100.3206
934.70 106.0321
934.80 105.0697
934.90 103.281
935.00 103.959
935.10 101.2104
935.20 98.46172
935.30 97.43612
935.40 97.30735
935.50 97.17642
935.60 97.89286
935.70 98.66453
935.80 99.08337
935.90 98.44303
936.00 97.80708
936.10 98.46747
936.20 100.4109
936.30 102.3577
936.40 102.9811
936.50 103.1594
936.60 103.107
936.70 99.99485
936.80 96.88693
936.90 94.62851
937.00 93.88817
937.10 93.14791
937.20 90.73786
937.30 87.38465
937.40 84.02524
937.50 88.17156
937.60 93.00663
937.70 97.1082
937.80 98.22329
937.90 99.33496
938.00 99.90287
938.10 99.86077
938.20 99.82022
938.30 99.08575
938.40 98.14052
938.50 97.30144
938.60 99.19423
938.70 101.0893
938.80 102.5288
938.90 103.0165
939.00 103.5043
939.10 103.4668
939.20 103.0692
939.30 102.6737
939.40 102.4193
939.50 102.1722
939.60 101.7319
939.70 100.1693
939.80 98.5939
939.90 97.14864
940.00 95.98435
940.10 94.81832
940.20 95.36567
940.30 96.54563
940.40 97.72436
940.50 98.41069
940.60 99.11722
940.70 100.2621
940.80 102.5287
940.90 104.7955
941.00 105.9863
941.10 106.3313
941.20 106.683
941.30 105.7156
941.40 104.5013
941.50 103.147
941.60 100.8669
941.70 98.58231
941.80 97.53863
941.90 98.3151
942.00 99.09268
942.10 99.81687
942.20 100.5494
942.30 101.2816
942.40 103.0745
942.50 104.8604
942.60 106.1672
942.70 106.1006
942.80 106.0339
942.90 105.123
943.00 103.6142
943.10 102.099
943.20 103.7212
943.30 105.9854
943.40 108.2093
943.50 109.9432
943.60 111.6611
943.70 111.673
943.80 109.0491
943.90 106.4253
944.00 105.5152
944.10 105.4072
944.20 105.2959
944.30 103.8823
944.40 102.4518
944.50 101.2318
944.60 100.7069
944.70 100.1822
944.80 101.0931
944.90 103.2924
945.00 105.4911
945.10 104.7584
945.20 103.3806
945.30 102.2441
945.40 103.1774
945.50 104.0979
945.60 104.6494
945.70 104.6377
945.80 104.6274
945.90 104.778
946.00 104.9765
946.10 105.1682
946.20 106.5669
946.30 108.0756
946.40 109.3163
946.50 109.5666
946.60 109.816
946.70 110.4596
946.80 111.456
946.90 112.4507
947.00 111.4184
947.10 109.8821
947.20 108.5683
947.30 109.7782
947.40 110.9849
947.50 111.8696
947.60 112.244
947.70 112.6186
947.80 114.8611
947.90 118.0984
948.00 121.3335
948.10 120.1413
948.20 118.6664
948.30 117.3511
948.40 116.6151
948.50 115.8792
948.60 117.0813
948.70 120.1886
948.80 123.2983
948.90 123.7674
949.00 123.5483
949.10 123.3643
949.20 123.7144
949.30 124.0619
949.40 123.1972
949.50 120.043
949.60 116.8888
949.70 117.4992
949.80 120.3023
949.90 123.0934
950.00 122.0111
950.10 120.6249
950.20 119.5605
950.30 119.7419
950.40 119.9226
950.50 119.6283
950.60 118.7763
950.70 117.9208
950.80 118.228
950.90 118.8953
951.00 119.6067
951.10 120.953
951.20 122.2964
951.30 122.2222
951.40 119.4385
951.50 116.655
951.60 115.4794
951.70 115.2246
951.80 114.9702
951.90 115.5939
952.00 116.299
952.10 117.0964
952.20 118.373
952.30 119.6499
952.40 120.7979
952.50 121.8595
952.60 122.9219
952.70 123.4487
952.80 123.7957
952.90 124.1801
953.00 124.9131
953.10 125.6333
953.20 125.7866
953.30 124.8715
953.40 123.9565
953.50 123.1314
953.60 122.3302
953.70 121.5293
953.80 120.4426
953.90 119.3666
954.00 118.8487
954.10 120.4094
954.20 121.9707
954.30 123.2561
954.40 124.2632
954.50 125.2746
954.60 125.9348
954.70 126.5072
954.80 126.9989
954.90 126.3097
955.00 125.6155
955.10 125.4881
955.20 126.4357
955.30 127.3847
955.40 127.5378
955.50 127.2448
955.60 126.9499
955.70 126.2977
955.80 125.6292
955.90 125.2501
956.00 125.9173
956.10 126.5844
956.20 127.547
956.30 128.7265
956.40 129.9098
956.50 127.9766
956.60 125.1756
956.70 122.6424
956.80 124.0507
956.90 125.4766
957.00 126.9055
957.10 128.293
957.20 129.6792
957.30 129.8002
957.40 129.1665
957.50 128.5404
957.60 125.8789
957.70 123.0569
957.80 121.064
957.90 122.0972
958.00 123.1308
958.10 123.3897
958.20 122.9343
958.30 122.483
958.40 121.5615
958.50 120.5025
958.60 119.3815
958.70 117.4003
958.80 115.4084
958.90 113.9426
959.00 113.3472
959.10 112.7495
959.20 112.3858
959.30 112.2297
959.40 112.0658
959.50 111.9625
959.60 111.8578
959.70 111.2902
959.80 108.8837
959.90 106.4765
960.00 105.7126
960.10 106.5778
960.20 107.426
960.30 110.6546
960.40 114.5443
960.50 118.1556
960.60 118.9537
960.70 119.7441
960.80 120.5489
960.90 121.2999
961.00 122.0545
961.10 122.0121
961.20 121.5392
961.30 121.069
961.40 117.9554
961.50 114.6913
961.60 112.7266
961.70 114.9742
961.80 117.2198
961.90 119.1222
962.00 120.7916
962.10 122.4656
962.20 122.5426
962.30 122.2291
962.40 122.1229
962.50 123.7448
962.60 125.3666
962.70 126.8535
962.80 128.1645
962.90 129.4776
963.00 126.6337
963.10 121.811
963.20 116.9928
963.30 117.3134
963.40 117.7877
963.50 117.5011
963.60 114.9834
963.70 112.4705
963.80 108.9077
963.90 104.3609
964.00 99.7909
964.10 101.5968
964.20 104.8128
964.30 108.105
964.40 112.5436
964.50 116.9814
964.60 119.0648
964.70 117.564
964.80 116.0676
964.90 115.7373
965.00 115.9065
965.10 116.0626
965.20 114.7315
965.30 113.3827
965.40 112.6838
965.50 113.6854
965.60 114.6883
965.70 116.1385
965.80 117.945
965.90 119.7509
966.00 121.2404
966.10 122.6738
966.20 123.9883
966.30 124.5765
966.40 125.1646
966.50 125.8265
966.60 126.5457
966.70 127.2692
966.80 126.7826
966.90 125.8255
967.00 124.856
967.10 123.8208
967.20 122.7857
967.30 121.7805
967.40 120.768
967.50 119.761
967.60 118.6987
967.70 117.5504
967.80 116.3736
967.90 118.5304
968.00 121.2014
968.10 123.4449
968.20 123.8292
968.30 124.2147
968.40 123.7796
968.50 122.2334
968.60 120.6914
968.70 119.8311
968.80 119.1875
968.90 118.5963
969.00 119.2088
969.10 119.8338
969.20 120.9479
969.30 123.2046
969.40 125.4589
969.50 126.537
969.60 126.8861
969.70 127.2494
969.80 129.2516
969.90 131.4036
970.00 132.6761
970.10 130.4034
970.20 128.1318
970.30 126.9245
970.40 126.7896
970.50 126.6724
970.60 124.0755
970.70 120.7477
970.80 117.8533
970.90 121.5716
971.00 125.3021
971.10 128.9656
971.20 132.6729
971.30 136.3876
971.40 137.0618
971.50 136.058
971.60 135.0671
971.70 136.809
971.80 138.7153
971.90 140.0579
972.00 139.4013
972.10 138.7444
972.20 137.3376
972.30 135.2405
972.40 133.1343
972.50 131.9508
972.60 130.9823
972.70 129.7507
972.80 126.079
972.90 122.406
973.00 119.1712
973.10 116.5562
973.20 113.9181
973.30 116.138
973.40 120.62
973.50 125.1034
973.60 124.5523
973.70 123.8849
973.80 123.6078
973.90 124.3069
974.00 125.0057
974.10 124.2156
974.20 122.2378
974.30 120.2748
974.40 118.8838
974.50 117.581
974.60 116.5922
974.70 117.7593
974.80 118.9244
974.90 120.6994
975.00 123.3181
975.10 125.9456
975.20 127.9761
975.30 129.7753
975.40 131.4806
975.50 128.5165
975.60 125.5514
975.70 124.1425
975.80 126.1638
975.90 128.1806
976.00 129.1899
976.10 129.5313
976.20 129.8857
976.30 130.7129
976.40 131.5949
976.50 132.2409
976.60 132.0013
976.70 131.7634
976.80 131.0355
976.90 129.7404
977.00 128.4601
977.10 128.2774
977.20 128.4006
977.30 128.5846
977.40 130.3882
977.50 132.1938
977.60 133.6589
977.70 134.5687
977.80 135.4857
977.90 135.6973
978.00 135.499
978.10 135.3215
978.20 131.3702
978.30 127.1648
978.40 123.8496
978.50 123.4075
978.60 122.9546
978.70 123.1401
978.80 123.9922
978.90 124.8356
979.00 126.8868
979.10 129.2121
979.20 131.5947
979.30 134.7205
979.40 137.8473
979.50 140.7318
979.60 143.198
979.70 145.6787
979.80 145.3086
979.90 143.6404
980.00 141.9624
980.10 142.0686
980.20 142.1942
980.30 142.0583
980.40 141.2331
980.50 140.4084
980.60 139.402
980.70 138.2529
980.80 137.1038
980.90 137.1108
981.00 137.31
981.10 137.567
981.20 138.1967
981.30 138.8281
981.40 138.6171
981.50 137.337
981.60 136.062
981.70 135.8734
981.80 136.0708
981.90 136.1889
982.00 135.1041
982.10 134.0193
982.20 133.1223
982.30 132.5628
982.40 132.0018
982.50 132.9584
982.60 134.8513
982.70 136.74
982.80 136.5915
982.90 136.2645
983.00 136.236
983.10 137.2616
983.20 138.2858
983.30 138.0903
983.40 136.6833
983.50 135.2785
983.60 134.3974
983.70 133.6443
983.80 132.9826
983.90 133.2806
984.00 133.5776
984.10 134.1223
984.20 135.1019
984.30 136.0849
984.40 137.4533
984.50 138.9963
984.60 140.5392
984.70 139.8653
984.80 139.1256
984.90 138.2003
985.00 136.7536
985.10 135.3116
985.20 134.0545
985.30 132.9306
985.40 131.7959
985.50 133.2977
985.60 135.2703
985.70 137.3663
985.80 140.2071
985.90 143.0498
986.00 144.0768
986.10 142.7709
986.20 141.4642
986.30 141.2518
986.40 141.4257
986.50 141.5568
986.60 140.5911
986.70 139.6258
986.80 138.3154
986.90 136.2165
987.00 134.1163
987.10 134.9805
987.20 137.6676
987.30 140.3305
987.40 143.6284
987.50 146.9905
987.60 149.2254
987.70 147.1493
987.80 145.0787
987.90 142.9429
988.00 140.7205
988.10 138.4941
988.20 139.5086
988.30 141.3358
988.40 143.2034
988.50 145.6929
988.60 148.1832
988.70 149.2011
988.80 147.9019
988.90 146.6089
989.00 145.4674
989.10 144.3925
989.20 143.3202
989.30 140.9757
989.40 138.6046
989.50 134.8601
989.60 127.3505
989.70 119.8536
989.80 113.3027
989.90 107.4433
990.00 101.5508
990.10 99.88621
990.20 98.91101
990.30 97.34636
990.40 92.68433
990.50 88.02587
990.60 83.98227
990.70 80.66972
990.80 77.34498
990.90 76.69212
991.00 76.93151
991.10 77.16815
991.20 77.95396
991.30 78.74163
991.40 78.69878
991.50 76.9987
991.60 75.29838
991.70 74.69613
991.80 74.73628
991.90 74.74448
992.00 78.00145
992.10 81.49745
992.20 83.98155
992.30 82.82742
992.40 81.68311
992.50 79.86422
992.60 77.40127
992.70 74.90893
992.80 78.65742
992.90 83.86112
993.00 88.83211
993.10 92.04366
993.20 95.26069
993.30 96.32355
993.40 94.25623
993.50 92.19425
993.60 93.39106
993.70 95.97888
993.80 98.54004
993.90 102.4293
994.00 106.3196
994.10 108.9453
994.20 108.4799
994.30 108.0289
994.40 107.175
994.50 106.0292
994.60 104.8788
994.70 106.4708
994.80 108.3987
994.90 110.599
995.00 114.128
995.10 117.6581
995.20 119.9833
995.30 121.0014
995.40 122.0218
995.50 120.9333
995.60 119.2532
995.70 117.5594
995.80 115.3194
995.90 113.0765
996.00 111.5448
996.10 111.2395
996.20 110.9224
996.30 113.3633
996.40 117.1587
996.50 120.9344
996.60 124.2231
996.70 127.487
996.80 127.7303
996.90 119.3366
997.00 110.9621
997.10 103.2496
997.20 96.0352
997.30 88.79338
997.40 89.19561
997.50 90.92349
997.60 93.07388
997.70 97.81259
997.80 102.5504
997.90 106.1165
998.00 108.2604
998.10 110.4076
998.20 110.4848
998.30 109.8433
998.40 109.1357
998.50 106.0977
998.60 103.0579
998.70 101.0171
998.80 100.9069
998.90 100.7858
999.00 100.8792
999.10 101.1109
999.20 101.3498
999.30 101.6279
999.40 101.9078
999.50 101.7688
999.60 100.2713
999.70 98.7821
999.80 99.92014
999.90 103.381
1000.00 106.8173
1000.10 111.303
1000.20 116.0088
1000.30 120.3529
1000.40 121.618
1000.50 122.8887
1000.60 122.5895
1000.70 119.9581
1000.80 117.3435
1000.90 113.5704
1001.00 109.3343
1001.10 105.1159
1001.20 106.0334
1001.30 106.9465
1001.40 108.2487
1001.50 110.4478
1001.60 112.6429
1001.70 115.9645
1001.80 120.0343
1001.90 124.1303
1002.00 122.3359
1002.10 119.9272
1002.20 118.201
1002.30 119.1141
1002.40 120.0154
1002.50 120.6808
1002.60 121.0933
1002.70 121.5149
1002.80 121.4309
1002.90 121.2542
1003.00 121.023
1003.10 120.0058
1003.20 118.9868
1003.30 117.654
1003.40 115.8883
1003.50 114.1273
1003.60 111.172
1003.70 107.7113
1003.80 104.2725
1003.90 107.4976
1004.00 110.7193
1004.10 114.7802
1004.20 120.8148
1004.30 126.8494
1004.40 129.3196
1004.50 129.4389
1004.60 129.5877
1004.70 127.5573
1004.80 125.3089
1004.90 122.3457
1005.00 116.5794
1005.10 110.8201
1005.20 104.8259
1005.30 98.59777
1005.40 92.35759
1005.50 90.66921
1005.60 90.08436
1005.70 89.932
1005.80 93.6006
1005.90 97.26533
1006.00 100.9047
1006.10 104.5253
1006.20 108.1583
1006.30 107.3239
1006.40 104.6191
1006.50 101.9371
1006.60 106.1537
1006.70 110.3679
1006.80 114.8645
1006.90 120.0126
1007.00 125.1712
1007.10 126.1984
1007.20 124.5418
1007.30 122.9074
1007.40 122.8049
1007.50 122.8648
1007.60 123.5182
1007.70 126.5477
1007.80 129.5776
1007.90 131.2605
1008.00 131.6358
1008.10 132.0224
1008.20 131.6753
1008.30 131.1469
1008.40 130.9549
1008.50 133.7015
1008.60 136.4467
1008.70 136.8292
1008.80 133.728
1008.90 130.6472
1009.00 127.8382
1009.10 125.1666
1009.20 122.5066
1009.30 122.415
1009.40 122.32
1009.50 123.5454
1009.60 127.8219
1009.70 132.0961
1009.80 136.6575
1009.90 141.3957
1010.00 146.1321
1010.10 149.335
1010.20 152.3693
1010.30 154.1605
1010.40 151.144
1010.50 148.1392
1010.60 145.7662
1010.70 144.0204
1010.80 142.2778
1010.90 138.2535
1011.00 133.6597
1011.10 129.2597
1011.20 126.6201
1011.30 123.9767
1011.40 121.6848
1011.50 119.8887
1011.60 118.0901
1011.70 116.2949
1011.80 114.5091
1011.90 112.7482
1012.00 118.11
1012.10 123.4671
1012.20 129.293
1012.30 136.2245
1012.40 143.168
1012.50 145.8531
1012.60 145.7413
1012.70 145.6587
1012.80 145.7293
1012.90 145.8529
1013.00 145.8728
1013.10 145.4913
1013.20 145.115
1013.30 141.9787
1013.40 136.1074
1013.50 130.2624
1013.60 124.2029
1013.70 118.1316
1013.80 112.6665
1013.90 112.3332
1014.00 111.9896
1014.10 113.5106
1014.20 117.8028
1014.30 122.0871
1014.40 125.1555
1014.50 127.7135
1014.60 130.2677
1014.70 127.1972
1014.80 124.1264
1014.90 123.1695
1015.00 127.0386
1015.10 130.8783
1015.20 133.8701
1015.30 136.2778
1015.40 138.7229
1015.50 135.4349
1015.60 131.5671
1015.70 127.8349
1015.80 124.512
1015.90 121.1774
1016.00 120.4159
1016.10 122.1806
1016.20 123.9243
1016.30 125.9169
1016.40 127.9625
1016.50 130.0357
1016.60 132.2331
1016.70 134.427
1016.80 135.6927
1016.90 135.583
1017.00 135.4946
1017.10 133.7324
1017.20 131.2989
1017.30 128.9015
1017.40 134.7577
1017.50 140.6106
1017.60 145.0754
1017.70 146.3675
1017.80 147.6908
1017.90 145.0131
1018.00 139.7675
1018.10 134.5303
1018.20 130.3767
1018.30 126.3188
1018.40 122.8512
1018.50 121.8191
1018.60 120.7857
1018.70 120.7973
1018.80 121.8267
1018.90 122.8275
1019.00 126.4885
1019.10 130.78
1019.20 134.5947
1019.30 134.2128
1019.40 133.8384
1019.50 133.7534
1019.60 134.1115
1019.70 134.4628
1019.80 135.1826
1019.90 136.0489
1020.00 136.9133
1020.10 136.457
1020.20 135.9981
1020.30 135.6162
1020.40 135.3979
1020.50 135.1759
1020.60 136.4051
1020.70 138.5945
1020.80 140.789
1020.90 139.3434
1021.00 137.5075
1021.10 135.8071
1021.20 134.6869
1021.30 133.5776
1021.40 131.513
1021.50 128.4957
1021.60 125.4683
1021.70 122.3853
1021.80 119.277
1021.90 116.3253
1022.00 114.7184
1022.10 113.1069
1022.20 113.9093
1022.30 118.2353
1022.40 122.5326
1022.50 126.4402
1022.60 130.1321
1022.70 133.7973
1022.80 133.053
1022.90 132.3109
1023.00 130.6608
1023.10 126.9702
1023.20 123.2865
1023.30 123.1895
1023.40 125.4579
1023.50 127.7226
1023.60 130.7989
1023.70 133.9353
1023.80 136.9806
1023.90 139.8354
1024.00 142.6974
1024.10 145.5233
1024.20 148.2677
1024.30 151.0042
1024.40 149.2005
1024.50 146.3178
1024.60 143.3952
1024.70 140.0539
1024.80 136.7049
1024.90 134.1816
1025.00 132.8479
1025.10 131.5232
1025.20 128.3086
1025.30 124.3307
1025.40 120.4135
1025.50 123.4847
1025.60 126.5489
1025.70 127.986
1025.80 125.719
1025.90 123.485
1026.00 119.3141
1026.10 113.9871
1026.20 108.6859
1026.30 107.599
1026.40 106.9461
1026.50 107.7115
1026.60 113.9727
1026.70 120.2169
1026.80 125.9306
1026.90 131.0357
1027.00 136.1686
1027.10 136.0212
1027.20 134.6541
1027.30 133.1609
1027.40 130.7868
1027.50 128.4146
1027.60 126.4063
1027.70 124.9566
1027.80 123.4912
1027.90 121.8113
1028.00 120.0526
1028.10 118.1744
1028.20 115.2117
1028.30 112.2501
1028.40 111.1159
1028.50 112.7012
1028.60 114.2511
1028.70 119.9572
1028.80 127.3695
1028.90 134.7354
1029.00 135.238
1029.10 135.7529
1029.20 134.9819
1029.30 131.2221
1029.40 127.458
1029.50 126.3843
1029.60 127.018
1029.70 127.6277
1029.80 128.6312
1029.90 129.6885
1030.00 129.797
1030.10 126.079
1030.20 122.3593
1030.30 121.4569
1030.40 123.3191
1030.50 125.1535
1030.60 130.9382
1030.70 137.6406
1030.80 143.2321
1030.90 139.4623
1031.00 135.6993
1031.10 134.0319
1031.20 135.4535
1031.30 136.8526
1031.40 138.2258
1031.50 139.5317
1031.60 140.7791
1031.70 135.4922
1031.80 130.209
1031.90 126.1744
1032.00 124.9663
1032.10 123.74
1032.20 123.2358
1032.30 123.1614
1032.40 123.0854
1032.50 121.9174
1032.60 120.6468
1032.70 121.1969
1032.80 128.5943
1032.90 135.9798
1033.00 142.7087
1033.10 148.7816
1033.20 154.8733
1033.30 154.3186
1033.40 152.186
1033.50 149.5261
1033.60 142.8102
1033.70 136.1023
1033.80 130.6809
1033.90 127.1055
1034.00 123.4999
1034.10 124.8427
1034.20 128.19
1034.30 131.5004
1034.40 131.0873
1034.50 130.674
1034.60 131.3629
1034.70 134.5296
1034.80 137.666
1034.90 137.8322
1035.00 135.9724
1035.10 134.0763
1035.20 133.1315
1035.30 132.3221
1035.40 131.9749
1035.50 132.5466
1035.60 133.117
1035.70 134.6191
1035.80 136.7441
1035.90 138.8761
1036.00 141.846
1036.10 144.8953
1036.20 147.6657
1036.30 149.4784
1036.40 151.3025
1036.50 151.4959
1036.60 150.103
1036.70 148.7079
1036.80 150.256
1036.90 152.5202
1037.00 155.002
1037.10 159.211
1037.20 163.4194
1037.30 166.1787
1037.40 166.8174
1037.50 167.4747
1037.60 162.5103
1037.70 155.2455
1037.80 147.9695
1037.90 140.3991
1038.00 132.8267
1038.10 127.3701
1038.20 126.7155
1038.30 126.0266
1038.40 129.9457
1038.50 136.7687
1038.60 143.5721
1038.70 146.2817
1038.80 148.5425
1038.90 149.7241
1039.00 146.8703
1039.10 144.0209
1039.20 141.9449
1039.30 140.6251
1039.40 139.3059
1039.50 137.9316
1039.60 136.5463
1039.70 135.4691
1039.80 136.8508
1039.90 138.2206
1040.00 140.8627
1040.10 145.3629
1040.20 149.8495
1040.30 151.6512
1040.40 152.2638
1040.50 152.8404
1040.60 153.7048
1040.70 154.5721
1040.80 155.2379
1040.90 155.4136
1041.00 155.5999
1041.10 151.7924
1041.20 146.3699
1041.30 140.972
1041.40 138.8499
1041.50 136.72
1041.60 137.6751
1041.70 145.5216
1041.80 153.3437
1041.90 158.0138
1042.00 160.5511
1042.10 163.0588
1042.20 158.5845
1042.30 153.4075
1042.40 148.1733
1042.50 142.6023
1042.60 137.0362
1042.70 131.6283
1042.80 126.4127
1042.90 121.1738
1043.00 124.3994
1043.10 129.6215
1043.20 135.3628
1043.30 145.2411
1043.40 155.1275
1043.50 160.8215
1043.60 160.4047
1043.70 160.0207
1043.80 159.4863
1043.90 158.9822
1044.00 158.4986
1044.10 159.2531
1044.20 160.0077
1044.30 160.0234
1044.40 158.3785
1044.50 156.7393
1044.60 156.1844
1044.70 156.3517
1044.80 156.5213
1044.90 158.8686
1045.00 161.4466
1045.10 165.0158
1045.20 172.08
1045.30 179.1496
1045.40 183.5551
1045.50 185.3886
1045.60 187.2033
1045.70 184.5592
1045.80 180.8713
1045.90 175.9507
1046.00 166.3563
1046.10 156.762
1046.20 150.4527
1046.30 147.4071
1046.40 144.3466
1046.50 143.0448
1046.60 142.1122
1046.70 140.9139
1046.80 137.3072
1046.90 133.6997
1047.00 131.3715
1047.10 130.9736
1047.20 130.5572
1047.30 131.3101
1047.40 132.4863
1047.50 133.6505
1047.60 134.9264
1047.70 136.2039
1047.80 136.4995
1047.90 134.609
1048.00 132.7229
1048.10 133.6792
1048.20 136.503
1048.30 139.3578
1048.40 141.7594
1048.50 144.0884
1048.60 145.8311
1048.70 145.5683
1048.80 145.3126
1048.90 145.4194
1049.00 145.9216
1049.10 146.4341
1049.20 147.3766
1049.30 148.4021
1049.40 149.2689
1049.50 148.9889
1049.60 148.7275
1049.70 147.0904
1049.80 143.5984
1049.90 140.0701
1050.00 139.7776
1050.10 140.6771
1050.20 141.667
1050.30 143.6534
1050.40 145.6535
1050.50 145.9739
1050.60 143.8476
1050.70 141.725
1050.80 140.2744
1050.90 139.1127
1051.00 137.9337
1051.10 135.8025
1051.20 133.6819
1051.30 131.1578
1051.40 127.7504
1051.50 124.3287
1051.60 124.1645
1051.70 126.0616
1051.80 127.9258
1051.90 128.5796
1052.00 129.1068
1052.10 129.8766
1052.20 131.5804
1052.30 133.279
1052.40 135.4338
1052.50 137.9483
1052.60 140.4508
1052.70 143.1801
1052.80 145.9437
1052.90 148.0884
1053.00 145.5803
1053.10 143.0872
1053.20 141.1975
1053.30 140.2533
1053.40 139.2888
1053.50 139.8397
1053.60 140.9161
1053.70 141.9525
1053.80 141.6642
1053.90 141.3838
1054.00 140.9761
1054.10 140.4245
1054.20 139.8518
1054.30 139.8091
1054.40 139.9119
1054.50 139.9504
1054.60 136.1173
1054.70 132.2902
1054.80 129.9063
1054.90 130.7934
1055.00 131.6555
1055.10 134.7848
1055.20 139.2768
1055.30 143.7057
1055.40 142.0181
1055.50 139.6836
1055.60 136.8468
1055.70 132.3074
1055.80 127.7722
1055.90 125.3793
1056.00 125.0675
1056.10 124.7541
1056.20 123.7599
1056.30 122.5761
1056.40 121.6183
1056.50 122.4723
1056.60 123.3215
1056.70 124.5671
1056.80 126.3597
1056.90 128.1658
1057.00 128.0754
1057.10 127.2301
1057.20 126.4299
1057.30 128.7999
1057.40 131.166
1057.50 133.3664
1057.60 135.2392
1057.70 137.1214
1057.80 136.813
1057.90 135.6058
1058.00 134.4163
1058.10 135.5673
1058.20 136.7179
1058.30 137.019
1058.40 135.3895
1058.50 133.781
1058.60 132.0626
1058.70 130.339
1058.80 128.6196
1058.90 127.0437
1059.00 125.4695
1059.10 124.2411
1059.20 124.3449
1059.30 124.4491
1059.40 125.3041
1059.50 126.834
1059.60 128.3521
1059.70 130.4982
1059.80 132.8076
1059.90 134.7566
1060.00 133.9299
1060.10 133.1034
1060.20 132.0997
1060.30 130.7652
1060.40 129.43
1060.50 126.8155
1060.60 123.6904
1060.70 120.5679
1060.80 120.9643
1060.90 121.3563
1061.00 122.4172
1061.10 124.395
1061.20 126.3535
1061.30 129.765
1061.40 133.7579
1061.50 137.7278
1061.60 137.188
1061.70 136.6554
1061.80 135.6477
1061.90 133.6934
1062.00 131.7375
1062.10 130.696
1062.20 130.2969
1062.30 129.944
1062.40 131.5532
1062.50 133.3524
1062.60 135.6176
1062.70 139.6268
1062.80 143.6344
1062.90 146.1369
1063.00 147.1694
1063.10 148.1965
1063.20 147.0751
1063.30 145.4908
1063.40 143.9647
1063.50 142.629
1063.60 141.2822
1063.70 141.7273
1063.80 144.7715
1063.90 147.8047
1064.00 149.6705
1064.10 151.0218
1064.20 152.2525
1064.30 152.5911
1064.40 152.9337
1064.50 152.3568
1064.60 150.4064
1064.70 148.4551
1064.80 148.7684
1064.90 150.0233
1065.00 151.2667
1065.10 149.6941
1065.20 148.1276
1065.30 146.2272
1065.40 143.7772
1065.50 141.3339
1065.60 138.6687
1065.70 135.8126
1065.80 132.9678
1065.90 133.4073
1066.00 134.1968
1066.10 134.4362
1066.20 132.6188
1066.30 130.8175
1066.40 129.2373
1066.50 127.9215
1066.60 126.5996
1066.70 127.0975
1066.80 127.9868
1066.90 128.8178
1067.00 129.511
1067.10 130.2062
1067.20 131.8036
1067.30 134.2483
1067.40 136.6897
1067.50 139.583
1067.60 142.5401
1067.70 145.3707
1067.80 147.5685
1067.90 149.7698
1068.00 150.8773
1068.10 150.3849
1068.20 149.8939
1068.30 151.378
1068.40 153.5908
1068.50 155.743
1068.60 156.5693
1068.70 157.3991
1068.80 157.2572
1068.90 155.09
1069.00 152.9272
1069.10 152.6782
1069.20 153.6728
1069.30 154.6471
1069.40 152.2275
1069.50 149.4435
1069.60 146.504
1069.70 143.2041
1069.80 139.8935
1069.90 139.7728
1070.00 142.5995
1070.10 145.394
1070.20 145.0089
1070.30 144.2848
1070.40 144.0071
1070.50 145.2872
1070.60 146.5537
1070.70 147.5125
1070.80 148.058
1070.90 148.5764
1071.00 148.0262
1071.10 147.2948
1071.20 146.8997
1071.30 149.0904
1071.40 151.2683
1071.50 153.5782
1071.60 155.9654
1071.70 158.3775
1071.80 158.8562
1071.90 158.6141
1072.00 158.3933
1072.10 158.1016
1072.20 157.8114
1072.30 156.3667
1072.40 152.4243
1072.50 148.4982
1072.60 147.9248
1072.70 149.5348
1072.80 151.2072
1072.90 153.9971
1073.00 156.8833
1073.10 158.1767
1073.20 155.9431
1073.30 153.7272
1073.40 151.7756
1073.50 150.1549
1073.60 148.5838
1073.70 148.621
1073.80 148.8061
1073.90 149.9484
1074.00 154.7863
1074.10 159.6249
1074.20 162.1179
1074.30 162.2828
1074.40 162.4498
1074.50 163.4038
1074.60 164.5939
1074.70 165.5881
1074.80 164.5568
1074.90 163.5248
1075.00 161.6815
1075.10 158.7685
1075.20 155.8716
1075.30 152.5123
1075.40 148.9836
1075.50 145.5449
1075.60 149.4714
1075.70 153.3826
1075.80 156.8251
1075.90 159.4104
1076.00 162.0072
1076.10 162.295
1076.20 161.7172
1076.30 161.1378
1076.40 161.2342
1076.50 161.3285
1076.60 161.646
1076.70 162.4673
1076.80 163.2894
1076.90 164.0594
1077.00 164.7344
1077.10 165.3823
1077.20 164.2049
1077.30 162.84
1077.40 161.3785
1077.50 159.6084
1077.60 157.8478
1077.70 157.2101
1077.80 157.6609
1077.90 158.0983
1078.00 159.7375
1078.10 161.6327
1078.20 163.3219
1078.30 163.6882
1078.40 164.06
1078.50 163.2497
1078.60 161.2214
1078.70 159.1741
1078.80 156.6117
1078.90 153.9794
1079.00 151.5357
1079.10 150.396
1079.20 149.2522
1079.30 147.7096
1079.40 145.5766
1079.50 143.4299
1079.60 144.5219
1079.70 146.912
1079.80 149.3077
1079.90 151.9299
1080.00 154.5528
1080.10 156.9859
1080.20 159.0378
1080.30 161.0944
1080.40 162.3627
1080.50 163.1158
1080.60 163.8704
1080.70 163.8997
1080.80 163.8485
1080.90 164.2895
1081.00 165.9171
1081.10 167.5473
1081.20 167.4889
1081.30 166.3239
1081.40 165.1639
1081.50 165.8545
1081.60 166.7463
1081.70 168.0271
1081.80 170.6694
1081.90 173.3189
1082.00 173.1905
1082.10 170.4357
1082.20 167.6896
1082.30 165.6085
1082.40 163.7074
1082.50 161.8894
1082.60 160.755
1082.70 159.6154
1082.80 159.056
1082.90 159.2659
1083.00 159.4784
1083.10 163.2821
1083.20 168.5885
1083.30 173.9068
1083.40 175.7049
1083.50 177.5086
1083.60 177.9704
1083.70 176.5785
1083.80 175.1876
1083.90 174.5355
1084.00 174.1835
1084.10 173.8271
1084.20 172.6343
1084.30 171.443
1084.40 169.6402
1084.50 166.4213
1084.60 163.2144
1084.70 161.3264
1084.80 160.3918
1084.90 159.4988
1085.00 163.2426
1085.10 167.4673
1085.20 169.6234
1085.30 163.7205
1085.40 157.8388
1085.50 156.6817
1085.60 160.3245
1085.70 163.9927
1085.80 168.1499
1085.90 172.376
1086.00 176.2973
1086.10 178.9591
1086.20 181.6233
1086.30 182.8643
1086.40 182.7772
1086.50 182.6891
1086.60 182.0377
1086.70 181.2908
1086.80 180.6878
1086.90 180.8896
1087.00 181.0771
1087.10 181.6254
1087.20 182.6456
1087.30 183.6835
1087.40 181.2606
1087.50 177.4784
1087.60 173.7358
1087.70 174.0407
1087.80 174.3283
1087.90 174.5744
1088.00 174.4763
1088.10 174.3937
1088.20 173.1957
1088.30 171.4217
1088.40 169.6957
1088.50 171.4664
1088.60 173.2302
1088.70 174.5065
1088.80 174.6818
1088.90 174.8766
1089.00 174.6656
1089.10 174.2215
1089.20 173.7811
1089.30 171.6911
1089.40 169.4125
1089.50 168.0081
1089.60 170.1451
1089.70 172.2708
1089.80 175.281
1089.90 179.0254
1090.00 182.7378
1090.10 184.3142
1090.20 185.3872
1090.30 186.4262
1090.40 187.4781
1090.50 188.5347
1090.60 187.2212
1090.70 183.5969
1090.80 179.9637
1090.90 176.3237
1091.00 172.7165
1091.10 169.5504
1091.20 169.7938
1091.30 170.0208
1091.40 171.8448
1091.50 175.9147
1091.60 179.9718
1091.70 183.7973
1091.80 187.4899
1091.90 191.1427
1092.00 189.6841
1092.10 188.2319
1092.20 186.7154
1092.30 185.1095
1092.40 183.4917
1092.50 182.3486
1092.60 181.4946
1092.70 180.663
1092.80 180.1791
1092.90 179.73
1093.00 179.6087
1093.10 180.3254
1093.20 181.043
1093.30 180.3828
1093.40 178.8087
1093.50 177.2387
1093.60 173.5394
1093.70 169.6025
1093.80 167.559
1093.90 173.0464
1094.00 178.5152
1094.10 182.5306
1094.20 185.0103
1094.30 187.4794
1094.40 184.1381
1094.50 179.4291
1094.60 174.914
1094.70 171.8885
1094.80 168.8477
1094.90 169.1625
1095.00 174.0939
1095.10 179.0091
1095.20 184.2579
1095.30 189.5917
1095.40 194.3035
1095.50 193.8841
1095.60 193.4772
1095.70 192.5418
1095.80 190.9518
1095.90 189.3614
1096.00 189.7783
1096.10 190.9692
1096.20 192.1396
1096.30 192.47
1096.40 192.8008
1096.50 192.7235
1096.60 191.7749
1096.70 190.8388
1096.80 187.5349
1096.90 182.7349
1097.00 177.9248
1097.10 173.7545
1097.20 169.6545
1097.30 166.9355
1097.40 168.9892
1097.50 171.027
1097.60 173.9311
1097.70 177.4039
1097.80 180.889
1097.90 182.4692
1098.00 183.8347
1098.10 185.056
1098.20 186.0026
1098.30 186.9689
1098.40 185.1858
1098.50 180.6887
1098.60 176.1866
1098.70 176.0349
1098.80 176.9583
1098.90 177.9235
1099.00 179.0424
1099.10 180.1587
1099.20 181.8484
1099.30 184.3394
1099.40 186.8214
1099.50 187.4058
1099.60 187.1734
1099.70 186.8279
1099.80 185.6548
1099.90 184.4801
1100.00 183.9077
1100.10 184.2715
1100.20 184.6395
1100.30 183.4647
1100.40 181.6553
1100.50 179.8728
1100.60 179.9975
1100.70 180.1122
1100.80 180.3514
1100.90 180.7502
1101.00 181.1533
1101.10 182.5779
1101.20 184.7278
1101.30 186.9189
1101.40 188.5945
1101.50 190.2027
1101.60 190.9797
1101.70 188.9421
1101.80 186.9227
1101.90 183.8562
1102.00 180.1605
1102.10 176.4702
1102.20 173.094
1102.30 169.7472
1102.40 167.945
1102.50 172.075
1102.60 176.1752
1102.70 180.0242
1102.80 183.4325
1102.90 186.8334
1103.00 185.2579
1103.10 182.493
1103.20 179.3663
1103.30 174.0353
1103.40 168.7182
1103.50 164.6227
1103.60 162.403
1103.70 160.197
1103.80 162.0092
1103.90 165.3662
1104.00 168.4376
1104.10 168.7296
1104.20 169.0219
1104.30 169.808
1104.40 171.5088
1104.50 173.2187
1104.60 174.5301
1104.70 175.6209
1104.80 176.717
1104.90 175.2658
1105.00 173.8118
1105.10 171.4028
1105.20 167.1121
1105.30 162.847
1105.40 158.2662
1105.50 153.4853
1105.60 148.7763
1105.70 152.8616
1105.80 157.8901
1105.90 161.8591
1106.00 161.4784
1106.10 161.1104
1106.20 160.616
1106.30 160.1051
1106.40 159.615
1106.50 161.7236
1106.60 164.1137
1106.70 165.409
1106.80 162.5589
1106.90 159.7181
1107.00 157.9503
1107.10 157.3097
1107.20 156.6798
1107.30 159.2043
1107.40 162.4475
1107.50 165.1624
1107.60 163.4011
1107.70 161.6551
1107.80 160.8958
1107.90 161.6596
1108.00 162.4195
1108.10 165.6958
1108.20 169.5844
1108.30 173.3804
1108.40 176.1129
1108.50 178.8483
1108.60 179.7972
1108.70 178.1671
1108.80 176.554
1108.90 175.3813
1109.00 174.4502
1109.10 173.5379
1109.20 174.4985
1109.30 175.4471
1109.40 177.0165
1109.50 179.9384
1109.60 182.8637
1109.70 184.5444
1109.80 185.3975
1109.90 186.2058
1110.00 184.5875
1110.10 182.7227
1110.20 179.4999
1110.30 173.2369
1110.40 166.9732
1110.50 163.7193
1110.60 162.4394
1110.70 161.1831
1110.80 162.0068
1110.90 163.0373
1111.00 163.4489
1111.10 161.6476
1111.20 159.8517
1111.30 158.5185
1111.40 157.6287
1111.50 156.7335
1111.60 158.3049
1111.70 160.4708
1111.80 162.4859
1111.90 162.9116
1112.00 163.3468
1112.10 163.3023
1112.20 162.8549
1112.30 162.4117
1112.40 164.3937
1112.50 166.959
1112.60 169.5338
1112.70 171.8935
1112.80 174.2499
1112.90 176.0497
1113.00 177.0585
1113.10 178.0834
1113.20 178.9315
1113.30 179.7687
1113.40 180.5967
1113.50 180.2091
1113.60 179.835
1113.70 178.511
1113.80 175.0873
1113.90 171.6376
1114.00 171.1752
1114.10 172.4977
1114.20 173.8239
1114.30 177.756
1114.40 181.6838
1114.50 185.2494
1114.60 188.0166
1114.70 190.8138
1114.80 190.3847
1114.90 187.9617
1115.00 185.5855
1115.10 184.6892
1115.20 183.9298
1115.30 182.8638
1115.40 180.488
1115.50 178.1239
1115.60 177.5787
1115.70 178.9154
1115.80 180.2393
1115.90 180.5387
1116.00 180.609
1116.10 180.1508
1116.20 177.4758
1116.30 174.7975
1116.40 172.9115
1116.50 171.7865
1116.60 170.6743
1116.70 169.5247
1116.80 168.3468
1116.90 166.9361
1117.00 164.1678
1117.10 161.4017
1117.20 159.2062
1117.30 157.843
1117.40 156.4728
1117.50 156.0193
1117.60 155.8679
1117.70 155.6992
1117.80 159.4942
1117.90 163.2826
1118.00 166.5012
1118.10 168.3052
1118.20 170.1173
1118.30 171.9849
1118.40 173.8314
1118.50 175.6227
1118.60 178.6879
1118.70 181.7664
1118.80 182.6586
1118.90 178.6802
1119.00 174.8113
1119.10 172.0459
1119.20 169.9985
1119.30 167.9474
1119.40 167.6218
1119.50 167.489
1119.60 167.7358
1119.70 169.5567
1119.80 171.3781
1119.90 172.4539
1120.00 172.8143
1120.10 173.1742
1120.20 170.1693
1120.30 166.9337
1120.40 165.4003
1120.50 170.526
1120.60 175.6222
1120.70 179.4623
1120.80 182.0536
1120.90 184.5893
1121.00 182.7382
1121.10 179.8386
1121.20 177.035
1121.30 175.2683
1121.40 173.5021
1121.50 172.1201
1121.60 171.1584
1121.70 170.1572
1121.80 168.4996
1121.90 166.6086
1122.00 165.0497
1122.10 166.0789
1122.20 167.1653
1122.30 169.5364
1122.40 173.624
1122.50 177.6939
1122.60 177.7962
1122.70 176.109
1122.80 174.9829
1122.90 175.8686
1123.00 176.6556
1123.10 177.4477
1123.20 176.4132
1123.30 174.9964
1123.40 173.5783
1123.50 170.1869
1123.60 166.2931
1123.70 162.4039
1123.80 161.8376
1123.90 166.3408
1124.00 170.8431
1124.10 175.2149
1124.20 178.3338
1124.30 181.4224
1124.40 184.5112
1124.50 184.7746
1124.60 184.7252
1124.70 184.6749
1124.80 183.1212
1124.90 180.2712
1125.00 177.4198
1125.10 174.5433
1125.20 172.0992
1125.30 169.7101
1125.40 167.7722
1125.50 170.0719
1125.60 172.371
1125.70 174.6729
1125.80 176.1474
1125.90 177.3593
1126.00 178.57
1126.10 178.4606
1126.20 177.5512
1126.30 176.6422
1126.40 176.7111
1126.50 178.3004
1126.60 179.8956
1126.70 181.4926
1126.80 183.0403
1126.90 184.5544
1127.00 186.0686
1127.10 185.2121
1127.20 183.7787
1127.30 182.3444
1127.40 180.5483
1127.50 178.4706
1127.60 176.3929
1127.70 174.5768
1127.80 173.4579
1127.90 172.3514
1128.00 171.5327
1128.10 173.3017
1128.20 175.0598
1128.30 176.8166
1128.40 177.9268
1128.50 178.8945
1128.60 179.8624
1128.70 179.1845
1128.80 177.3008
1128.90 175.4162
1129.00 174.334
1129.10 175.1357
1129.20 175.9388
1129.30 176.5978
1129.40 176.0737
1129.50 175.6028
1129.60 175.1331
1129.70 175.9935
1129.80 177.2417
1129.90 178.4898
1130.00 179.2324
1130.10 179.221
1130.20 179.2061
1130.30 178.5168
1130.40 176.1962
1130.50 173.8708
1130.60 171.5435
1130.70 171.0524
1130.80 170.6048
1130.90 170.1572
1131.00 171.5248
1131.10 173.4513
1131.20 175.378
1131.30 176.9208
1131.40 178.0652
1131.50 179.2089
1131.60 180.6501
1131.70 182.7711
1131.80 184.8886
1131.90 187.0074
1132.00 185.9491
1132.10 184.8529
1132.20 183.7565
1132.30 182.67
1132.40 181.6114
1132.50 180.553
1132.60 180.3944
1132.70 181.1083
1132.80 181.8222
1132.90 182.2766
1133.00 182.1022
1133.10 181.9207
1133.20 181.7403
1133.30 180.3633
1133.40 178.9725
1133.50 177.582
1133.60 175.0837
1133.70 172.0558
1133.80 169.0278
1133.90 166.8081
1134.00 165.4175
1134.10 164.0268
1134.20 162.649
1134.30 161.5682
1134.40 160.5442
1134.50 159.5134
1134.60 156.8523
1134.70 154.1947
1134.80 151.5387
1134.90 155.583
1135.00 162.5137
1135.10 169.4417
1135.20 172.4448
1135.30 171.2421
1135.40 170.0385
1135.50 168.9989
1135.60 168.4556
1135.70 167.8767
1135.80 167.2935
1135.90 164.3208
1136.00 161.6047
1136.10 158.8898
1136.20 160.6714
1136.30 164.2865
1136.40 167.8994
1136.50 168.9518
1136.60 167.239
1136.70 165.5259
1136.80 163.7501
1136.90 161.7277
1137.00 159.7104
1137.10 157.6904
1137.20 157.3356
1137.30 156.9647
1137.40 156.593
1137.50 153.3982
1137.60 149.0079
1137.70 144.6147
1137.80 138.8817
1137.90 131.3954
1138.00 123.9048
1138.10 116.6734
1138.20 110.5149
1138.30 104.3791
1138.40 98.22731
1138.50 105.2491
1138.60 112.7201
1138.70 120.1989
1138.80 128.5282
1138.90 137.2607
1139.00 145.9879
1139.10 151.512
1139.20 151.8574
1139.30 152.1979
1139.40 152.1129
1139.50 150.0557
1139.60 147.9417
1139.70 145.8313
1139.80 141.2537
1139.90 136.3861
1140.00 131.5157
1140.10 124.5579
1140.20 116.4133
1140.30 108.2648
1140.40 101.5837
1140.50 97.17225
1140.60 92.77123
1140.70 90.29
1140.80 96.28232
1140.90 102.5709
1141.00 108.8541
1141.10 119.2657
1141.20 130.1768
1141.30 141.0845
1141.40 147.2679
1141.50 151.3755
1141.60 155.48
1141.70 159.3093
1141.80 162.3515
1141.90 165.3912
1142.00 168.0434
1142.10 169.1001
1142.20 170.1418
1142.30 171.1873
1142.40 172.1082
1142.50 172.9792
1142.60 173.8508
1142.70 173.9752
1142.80 173.8214
1142.90 173.6674
1143.00 173.5797
1143.10 173.4588
1143.20 173.3372
1143.30 173.1463
1143.40 172.7214
1143.50 172.3159
1143.60 171.9102
1143.70 172.4439
1143.80 173.0564
1143.90 173.6675
1144.00 172.8029
1144.10 171.4075
1144.20 170.014
1144.30 168.8243
1144.40 167.8775
1144.50 166.9308
1144.60 166.5358
1144.70 168.305
1144.80 170.063
1144.90 171.8183
1145.00 171.5696
1145.10 171.1238
1145.20 170.6777
1145.30 170.5912
1145.40 170.591
1145.50 170.5906
1145.60 170.3262
1145.70 169.6697
1145.80 169.0133
1145.90 169.1848
1146.00 172.7719
1146.10 176.3965
1146.20 180.0225
1146.30 180.7141
1146.40 181.055
1146.50 181.3959
1146.60 181.6151
1146.70 181.8323
1146.80 182.0481
1146.90 182.532
1147.00 183.1912
1147.10 183.8496
1147.20 184.1456
1147.30 183.1095
1147.40 182.1293
1147.50 181.149
1147.60 182.1073
1147.70 183.3014
1147.80 184.4956
1147.90 186.3157
1148.00 188.3394
1148.10 190.3625
1148.20 190.7812
1148.30 188.6758
1148.40 186.5686
1148.50 184.7106
1148.60 183.9742
1148.70 183.2947
1148.80 182.6136
1148.90 185.4986
1149.00 188.8183
1149.10 192.1377
1149.20 193.4607
1149.30 193.6915
1149.40 193.9212
1149.50 193.3143
1149.60 191.6482
1149.70 189.9834
1149.80 188.3802
1149.90 187.056
1150.00 185.7423
1150.10 184.4311
1150.20 185.6165
1150.30 187.013
1150.40 188.4096
1150.50 188.936
1150.60 189.1865
1150.70 189.4376
1150.80 189.8736
1150.90 190.6246
1151.00 191.375
1151.10 191.9108
1151.20 191.5136
1151.30 191.0922
1151.40 190.6721
1151.50 190.5255
1151.60 190.3637
1151.70 190.2021
1151.80 189.2118
1151.90 187.9606
1152.00 186.7096
1152.10 185.0211
1152.20 182.511
1152.30 179.9991
1152.40 177.3397
1152.50 174.1285
1152.60 170.9482
1152.70 167.7634
1152.80 170.7624
1152.90 174.5237
1153.00 178.2849
1153.10 180.1227
1153.20 181.0232
1153.30 181.9237
1153.40 182.2844
1153.50 181.8674
1153.60 181.4514
1153.70 181.435
1153.80 183.1307
1153.90 184.8685
1154.00 186.6068
1154.10 188.0555
1154.20 189.4581
1154.30 190.86
1154.40 189.2821
1154.50 186.2806
1154.60 183.278
1154.70 181.0339
1154.80 179.8993
1154.90 178.7667
1155.00 178.2068
1155.10 180.0974
1155.20 182.0228
1155.30 183.9499
1155.40 184.9978
1155.50 185.9437
1155.60 186.8886
1155.70 187.5128
1155.80 188.043
1155.90 188.5724
1156.00 188.7103
1156.10 188.0711
1156.20 187.432
1156.30 187.0641
1156.40 187.8871
1156.50 188.7385
1156.60 189.5887
1156.70 189.0773
1156.80 188.3615
1156.90 187.6464
1157.00 186.8193
1157.10 185.9087
1157.20 184.9991
1157.30 184.3031
1157.40 184.0452
1157.50 183.7874
1157.60 183.5572
1157.70 183.4498
1157.80 183.3484
1157.90 183.2459
1158.00 184.0024
1158.10 184.868
1158.20 185.7335
1158.30 185.6569
1158.40 185.1191
1158.50 184.581
1158.60 183.9046
1158.70 182.9854
1158.80 182.0655
1158.90 180.8853
1159.00 178.6416
1159.10 176.392
1159.20 174.1439
1159.30 171.9016
1159.40 169.5958
1159.50 167.2895
1159.60 166.7057
1159.70 166.9803
1159.80 167.2576
1159.90 168.224
1160.00 170.0404
1160.10 171.8571
1160.20 173.775
1160.30 176.1069
1160.40 178.4408
1160.50 180.78
1160.60 179.2753
1160.70 177.6548
1160.80 176.0345
1160.90 175.584
1161.00 175.582
1161.10 175.5837
1161.20 177.35
1161.30 181.2381
1161.40 185.1294
1161.50 188.4416
1161.60 189.4007
1161.70 190.3378
1161.80 191.2911
1161.90 188.642
1162.00 185.8768
1162.10 183.1104
1162.20 181.9223
1162.30 181.4685
1162.40 181.0157
1162.50 181.572
1162.60 183.2553
1162.70 184.939
1162.80 186.7121
1162.90 188.8629
1163.00 191.0193
1163.10 193.176
1163.20 193.0683
1163.30 192.9059
1163.40 192.7463
1163.50 189.7099
1163.60 185.3076
1163.70 180.9033
1163.80 177.8416
1163.90 176.1252
1164.00 174.4109
1164.10 173.3458
1164.20 175.2095
1164.30 177.1398
1164.40 179.0611
1164.50 181.6906
1164.60 184.351
1164.70 187.0146
1164.80 186.2521
1164.90 184.5404
1165.00 182.8277
1165.10 181.3579
1165.20 180.0289
1165.30 178.6994
1165.40 177.4201
1165.50 176.2532
1165.60 175.0873
1165.70 173.915
1165.80 175.4189
1165.90 177.0188
1166.00 178.6169
1166.10 180.3973
1166.20 182.2239
1166.30 184.0502
1166.40 184.9982
1166.50 184.9292
1166.60 184.8596
1166.70 184.4892
1166.80 183.367
1166.90 182.2396
1167.00 181.1151
1167.10 179.974
1167.20 178.8373
1167.30 177.6989
1167.40 175.6083
1167.50 173.2712
1167.60 170.9342
1167.70 169.9179
1167.80 170.2457
1167.90 170.574
1168.00 170.3552
1168.10 168.8157
1168.20 167.2704
1168.30 165.3903
1168.40 160.3334
1168.50 155.2281
1168.60 150.127
1168.70 141.7674
1168.80 132.4308
1168.90 123.0893
1169.00 114.6052
1169.10 106.5311
1169.20 98.46309
1169.30 94.07331
1169.40 99.34348
1169.50 104.7321
1169.60 110.5381
1169.70 120.8104
1169.80 131.2167
1169.90 141.6308
1170.00 148.4017
1170.10 154.0913
1170.20 159.7786
1170.30 164.3746
1170.40 168.0741
1170.50 171.7721
1170.60 174.6513
1170.70 175.4579
1170.80 176.2499
1170.90 177.0445
1171.00 177.7542
1171.10 178.4348
1171.20 179.1145
1171.30 179.3456
1171.40 179.4953
1171.50 179.6447
1171.60 179.398
1171.70 178.8106
1171.80 178.2225
1171.90 177.4329
1172.00 176.3656
1172.10 175.299
1172.20 174.3652
1172.30 174.7263
1172.40 175.1059
1172.50 175.4843
1172.60 176.5472
1172.70 177.6946
1172.80 178.8426
1172.90 179.8603
1173.00 180.8076
1173.10 181.7546
1173.20 182.0498
1173.30 181.2189
1173.40 180.3866
1173.50 179.562
1173.60 178.7651
1173.70 177.9682
1173.80 177.1659
1173.90 176.5304
1174.00 175.9725
1174.10 175.4145
1174.20 176.0507
1174.30 177.2174
1174.40 178.3842
1174.50 179.1112
1174.60 179.1283
1174.70 179.1442
1174.80 178.8604
1174.90 177.2878
1175.00 175.6945
1175.10 174.1051
1175.20 171.6761
1175.30 169.1486
1175.40 166.6204
1175.50 166.55
1175.60 167.5934
1175.70 168.6376
1175.80 168.568
1175.90 166.7075
1176.00 164.8457
1176.10 162.806
1176.20 159.9656
1176.30 157.1114
1176.40 154.2591
1176.50 150.1362
1176.60 145.8627
1176.70 141.5942
1176.80 132.7594
1176.90 121.6817
1177.00 110.5991
1177.10 100.7502
1177.20 91.98385
1177.30 83.2225
1177.40 76.42433
1177.50 78.29484
1177.60 80.34956
1177.70 82.35563
1177.80 92.24929
1177.90 102.4568
1178.00 112.6652
1178.10 121.1477
1178.20 128.7863
1178.30 136.4202
1178.40 142.6481
1178.50 147.2337
1178.60 151.8181
1178.70 156.0738
1178.80 158.8492
1178.90 161.6101
1179.00 164.3776
1179.10 165.0319
1179.20 165.6484
1179.30 166.2665
1179.40 166.4236
1179.50 166.4258
1179.60 166.4276
1179.70 166.9661
1179.80 168.0618
1179.90 169.158
1180.00 170.1926
1180.10 171.1448
1180.20 172.1051
1180.30 173.0595
1180.40 173.6725
1180.50 174.2739
1180.60 174.8791
1180.70 174.5867
1180.80 173.9988
1180.90 173.4108
1181.00 172.65
1181.10 171.7249
1181.20 170.7998
1181.30 169.7917
1181.40 168.5996
1181.50 167.4084
1181.60 166.2884
1181.70 165.891
1181.80 165.5199
1181.90 165.1472
1182.00 166.7431
1182.10 168.8487
1182.20 170.9553
1182.30 171.7667
1182.40 171.6346
1182.50 171.5008
1182.60 171.1425
1182.70 170.1309
1182.80 169.1185
1182.90 168.2594
1183.00 168.8936
1183.10 169.5691
1183.20 170.2387
1183.30 169.958
1183.40 169.4647
1183.50 168.9719
1183.60 167.6371
1183.70 165.6353
1183.80 163.6328
1183.90 162.886
1184.00 164.2034
1184.10 165.5231
1184.20 166.9695
1184.30 169.7733
1184.40 172.5989
1184.50 175.4351
1184.60 173.2515
1184.70 170.3805
1184.80 167.5099
1184.90 164.9388
1185.00 162.5481
1185.10 160.1586
1185.20 159.5152
1185.30 161.6393
1185.40 163.7648
1185.50 165.8607
1185.60 167.9264
1185.70 170.0046
1185.80 172.0843
1185.90 172.523
1186.00 172.7541
1186.10 172.9862
1186.20 172.8119
1186.30 172.4906
1186.40 172.1689
1186.50 171.7844
1186.60 171.224
1186.70 170.6629
1186.80 169.9264
1186.90 168.4054
1187.00 166.8727
1187.10 165.3346
1187.20 166.2898
1187.30 167.5699
1187.40 168.8473
1187.50 169.3207
1187.60 169.4706
1187.70 169.6198
1187.80 169.0215
1187.90 167.5355
1188.00 166.047
1188.10 163.9725
1188.20 159.2582
1188.30 154.5147
1188.40 149.7793
1188.50 148.9522
1188.60 148.176
1188.70 147.3798
1188.80 150.837
1188.90 156.4034
1189.00 161.9721
1189.10 165.6046
1189.20 167.213
1189.30 168.8169
1189.40 169.9642
1189.50 169.8635
1189.60 169.7497
1189.70 169.6318
1189.80 170.43
1189.90 171.2084
1190.00 171.9887
1190.10 171.6748
1190.20 171.0344
1190.30 170.3947
1190.40 169.3051
1190.50 167.7443
1190.60 166.1833
1190.70 165.4942
1190.80 166.9381
1190.90 168.384
1191.00 169.7646
1191.10 170.6983
1191.20 171.6637
1191.30 172.6298
1191.40 173.1001
1191.50 173.4096
1191.60 173.7192
1191.70 173.7525
1191.80 173.5804
1191.90 173.4085
1192.00 173.2287
1192.10 173.0897
1192.20 172.9502
1192.30 172.7302
1192.40 171.6759
1192.50 170.6021
1192.60 169.5262
1192.70 169.4709
1192.80 169.5603
1192.90 169.6494
1193.00 170.5044
1193.10 171.8945
1193.20 173.2844
1193.30 173.56
1193.40 172.0952
1193.50 170.629
1193.60 169.018
1193.70 165.8744
1193.80 162.6988
1193.90 159.5221
1194.00 158.4947
1194.10 157.7459
1194.20 156.9946
1194.30 156.6788
1194.40 156.62
1194.50 156.5609
1194.60 155.7317
1194.70 153.6026
1194.80 151.4718
1194.90 149.7245
1195.00 149.4812
1195.10 149.2427
1195.20 148.9882
1195.30 152.4411
1195.40 156.4202
1195.50 160.3965
1195.60 161.5427
1195.70 161.4384
1195.80 161.3321
1195.90 160.061
1196.00 157.392
1196.10 154.7226
1196.20 152.396
1196.30 151.4964
1196.40 150.6041
1196.50 149.7062
1196.60 149.7746
1196.70 149.8638
1196.80 149.9539
1196.90 149.5511
1197.00 148.9098
1197.10 148.2692
1197.20 145.6891
1197.30 140.9634
1197.40 136.2371
1197.50 132.4204
1197.60 130.9533
1197.70 129.4943
1197.80 128.0014
1197.90 131.1768
1198.00 134.4582
1198.10 137.7408
1198.20 140.1894
1198.30 142.3887
1198.40 144.5872
1198.50 146.8296
1198.60 149.1784
1198.70 151.5261
1198.80 152.3219
1198.90 149.1157
1199.00 145.9065
1199.10 142.8316
1199.20 140.8078
1199.30 138.7722
1199.40 136.7289
1199.50 136.8181
1199.60 137.524
1199.70 138.2283
1199.80 139.3259
1199.90 140.7218
1200.00 142.1171
