# Version 2.1 - nm, norm@500 to 1, cut digits
# Wavelength(nm)  Flambda(ergs/cm^s/s/nm)
300.00 0.008299109
300.10 0.01011601
300.20 0.01165534
300.30 0.012849
300.40 0.01371387
300.50 0.01430345
300.60 0.01467863
300.70 0.01490234
300.80 0.01503545
300.90 0.01512643
301.00 0.0152106
301.10 0.01530282
301.20 0.01540262
301.30 0.0155088
301.40 0.01561984
301.50 0.01573435
301.60 0.01585112
301.70 0.01596923
301.80 0.01608802
301.90 0.01620708
302.00 0.0163262
302.10 0.01644532
302.20 0.01656449
302.30 0.01668386
302.40 0.01680374
302.50 0.01692464
302.60 0.01704726
302.70 0.01717251
302.80 0.01730146
302.90 0.01743525
303.00 0.01757479
303.10 0.01772044
303.20 0.01787185
303.30 0.01802809
303.40 0.01818804
303.50 0.01835061
303.60 0.0185149
303.70 0.01868021
303.80 0.01884603
303.90 0.01901206
304.00 0.01917813
304.10 0.01934421
304.20 0.01951014
304.30 0.01967545
304.40 0.01983919
304.50 0.01999981
304.60 0.02015517
304.70 0.0203025
304.80 0.02043851
304.90 0.02055972
305.00 0.02066334
305.10 0.02074826
305.20 0.02081558
305.30 0.0208681
305.40 0.02090931
305.50 0.02094249
305.60 0.0209704
305.70 0.02099519
305.80 0.02101842
305.90 0.02104102
306.00 0.02106349
306.10 0.02108595
306.20 0.02110841
306.30 0.02113087
306.40 0.02115334
306.50 0.02117581
306.60 0.0211983
306.70 0.0212208
306.80 0.02124332
306.90 0.02126588
307.00 0.02128848
307.10 0.02131112
307.20 0.02133379
307.30 0.0213565
307.40 0.02137923
307.50 0.02140198
307.60 0.02142474
307.70 0.02144751
307.80 0.02147028
307.90 0.02149306
308.00 0.02151583
308.10 0.0215386
308.20 0.02156173
308.30 0.02158642
308.40 0.02161504
308.50 0.02165145
308.60 0.02170104
308.70 0.02177073
308.80 0.02186875
308.90 0.02200379
309.00 0.02218288
309.10 0.02240877
309.20 0.0226787
309.30 0.02298565
309.40 0.02332093
309.50 0.02367631
309.60 0.02404488
309.70 0.02442123
309.80 0.02480151
309.90 0.02518336
310.00 0.02556556
310.10 0.02594776
310.20 0.0263296
310.30 0.02670987
310.40 0.02708619
310.50 0.02745469
310.60 0.02780992
310.70 0.02814496
310.80 0.02845152
310.90 0.02872086
311.00 0.02894592
311.10 0.02912394
311.20 0.02925768
311.30 0.0293542
311.40 0.02942224
311.50 0.02947008
311.60 0.02950467
311.70 0.02953143
311.80 0.02955423
311.90 0.02957547
312.00 0.02959635
312.10 0.02961723
312.20 0.02963855
312.30 0.02966181
312.40 0.02968995
312.50 0.02972776
312.60 0.02978194
312.70 0.02986106
312.80 0.02997537
312.90 0.03013564
313.00 0.03035059
313.10 0.03062364
313.20 0.03095139
313.30 0.03132509
313.40 0.03173397
313.50 0.0321678
313.60 0.03261801
313.70 0.03307788
313.80 0.03354263
313.90 0.03400931
314.00 0.03447644
314.10 0.03494357
314.20 0.03541101
314.30 0.0358798
314.40 0.03635198
314.50 0.03683089
314.60 0.0373212
314.70 0.03782888
314.80 0.03836104
314.90 0.0389252
315.00 0.03952742
315.10 0.04017009
315.20 0.04085082
315.30 0.04156355
315.40 0.04230077
315.50 0.04305536
315.60 0.04382134
315.70 0.04459404
315.80 0.04537015
315.90 0.04614761
316.00 0.04692537
316.10 0.04770313
316.20 0.04847976
316.30 0.04925144
316.40 0.05001062
316.50 0.05074507
316.60 0.05143763
316.70 0.05206636
316.80 0.05260507
316.90 0.05302617
317.00 0.05330735
317.10 0.05343987
317.20 0.05343246
317.30 0.05330744
317.40 0.0530924
317.50 0.05281354
317.60 0.05249278
317.70 0.05214729
317.80 0.05178931
317.90 0.05142637
318.00 0.0510623
318.10 0.05069823
318.20 0.05033503
318.30 0.04997562
318.40 0.04962577
318.50 0.04929485
318.60 0.04899601
318.70 0.04874602
318.80 0.04856494
318.90 0.04847389
319.00 0.04848995
319.10 0.04861981
319.20 0.04885679
319.30 0.04918378
319.40 0.04957969
319.50 0.05002446
319.60 0.0505013
319.70 0.05099707
319.80 0.0515024
319.90 0.05201152
320.00 0.05252151
320.10 0.0530315
320.20 0.05354117
320.30 0.05404944
320.40 0.05455417
320.50 0.0550519
320.60 0.05553777
320.70 0.05600556
320.80 0.05644788
320.90 0.05685689
321.00 0.05722629
321.10 0.0575536
321.20 0.0578413
321.30 0.05809569
321.40 0.05832461
321.50 0.05853545
321.60 0.05873443
321.70 0.05892641
321.80 0.05911485
321.90 0.05930189
322.00 0.05948861
322.10 0.05967533
322.20 0.05986322
322.30 0.06005623
322.40 0.06026217
322.50 0.06049368
322.60 0.06076851
322.70 0.06110934
322.80 0.06154327
322.90 0.06209882
323.00 0.06279908
323.10 0.06365306
323.20 0.06465175
323.30 0.06577206
323.40 0.06698546
323.50 0.06826487
323.60 0.0695876
323.70 0.0709359
323.80 0.07229713
323.90 0.07366348
324.00 0.075031
324.10 0.07639852
324.20 0.07776584
324.30 0.07913234
324.40 0.08049674
324.50 0.08185698
324.60 0.08321019
324.70 0.08455267
324.80 0.08588004
324.90 0.08718764
325.00 0.08847174
325.10 0.08973087
325.20 0.09096649
325.30 0.09218236
325.40 0.0933831
325.50 0.09457313
325.60 0.09575611
325.70 0.09693494
325.80 0.09811167
325.90 0.09928757
326.00 0.1004633
326.10 0.101639
326.20 0.1028151
326.30 0.103993
326.40 0.1051755
326.50 0.1063669
326.60 0.1075734
326.70 0.1088031
326.80 0.1100653
326.90 0.1113702
327.00 0.1127257
327.10 0.114135
327.20 0.115595
327.30 0.1170976
327.40 0.1186327
327.50 0.120191
327.60 0.1217644
327.70 0.1233468
327.80 0.1249338
327.90 0.1265225
328.00 0.1281116
328.10 0.1297007
328.20 0.1312874
328.30 0.1328636
328.40 0.1344133
328.50 0.1359104
328.60 0.1373185
328.70 0.138591
328.80 0.1396723
328.90 0.1405038
329.00 0.141038
329.10 0.1412564
329.20 0.1411775
329.30 0.1408488
329.40 0.1403289
329.50 0.1396734
329.60 0.1389289
329.70 0.1381318
329.80 0.1373082
329.90 0.1364741
330.00 0.1356376
330.10 0.1348011
330.20 0.1339664
330.30 0.1331394
330.40 0.1323322
330.50 0.1315639
330.60 0.1308617
330.70 0.13026
330.80 0.1298002
330.90 0.1295257
331.00 0.1294718
331.10 0.1296521
331.20 0.1300528
331.30 0.130639
331.40 0.131367
331.50 0.1321955
331.60 0.1330901
331.70 0.1340237
331.80 0.1349769
331.90 0.135938
332.00 0.1369008
332.10 0.1378637
332.20 0.1388254
332.30 0.1397821
332.40 0.1407264
332.50 0.1416461
332.60 0.1425239
332.70 0.143338
332.80 0.1440624
332.90 0.1446693
333.00 0.1451367
333.10 0.1454558
333.20 0.1456352
333.30 0.1456973
333.40 0.1456696
333.50 0.1455782
333.60 0.145445
333.70 0.1452871
333.80 0.1451168
333.90 0.1449415
334.00 0.1447651
334.10 0.1446039
334.20 0.1444829
334.30 0.144416
334.40 0.1444043
334.50 0.1444366
334.60 0.1445231
334.70 0.1447296
334.80 0.1451735
334.90 0.1459774
335.00 0.1472419
335.10 0.1491145
335.20 0.1518261
335.30 0.1555445
335.40 0.1600928
335.50 0.1647654
335.60 0.1684509
335.70 0.1700759
335.80 0.1691109
335.90 0.1657746
336.00 0.1608687
336.10 0.1554098
336.20 0.1503375
336.30 0.1463487
336.40 0.1437483
336.50 0.1424419
336.60 0.1421383
336.70 0.1426603
336.80 0.1440906
336.90 0.1465853
337.00 0.1500541
337.10 0.1539744
337.20 0.1575368
337.30 0.1600747
337.40 0.1614507
337.50 0.1620828
337.60 0.1626143
337.70 0.1634505
337.80 0.1645067
337.90 0.165372
338.00 0.1656284
338.10 0.1650407
338.20 0.1635312
338.30 0.1611247
338.40 0.1581072
338.50 0.1551633
338.60 0.1532238
338.70 0.1530022
338.80 0.1545318
338.90 0.1572001
339.00 0.1602638
339.10 0.1633788
339.20 0.1667179
339.30 0.1705864
339.40 0.174915
339.50 0.1791481
339.60 0.1825679
339.70 0.1846776
339.80 0.1853028
339.90 0.1844221
340.00 0.1820691
340.10 0.1784042
340.20 0.1737559
340.30 0.1685072
340.40 0.1629403
340.50 0.1572771
340.60 0.1518457
340.70 0.1471315
340.80 0.1436493
340.90 0.1417367
341.00 0.1414465
341.10 0.1425938
341.20 0.1448504
341.30 0.1477911
341.40 0.1509569
341.50 0.1539457
341.60 0.156484
341.70 0.1584619
341.80 0.1598736
341.90 0.1607109
342.00 0.16091
342.10 0.1603805
342.20 0.1591001
342.30 0.1572296
342.40 0.1551565
342.50 0.1533807
342.60 0.1522927
342.70 0.1520126
342.80 0.152398
342.90 0.1531748
343.00 0.154087
343.10 0.1549871
343.20 0.1558247
343.30 0.1565701
343.40 0.157149
343.50 0.1574557
343.60 0.1574283
343.70 0.1570778
343.80 0.1564647
343.90 0.1556852
344.00 0.1548722
344.10 0.1541647
344.20 0.153642
344.30 0.1533025
344.40 0.1531274
344.50 0.1531753
344.60 0.1536093
344.70 0.154629
344.80 0.1563741
344.90 0.1588593
345.00 0.1619629
345.10 0.1654425
345.20 0.1689699
345.30 0.1721819
345.40 0.1747454
345.50 0.1764495
345.60 0.1772673
345.70 0.1773428
345.80 0.1768868
345.90 0.1760486
346.00 0.1748734
346.10 0.1733483
346.20 0.1714816
346.30 0.1693714
346.40 0.1672188
346.50 0.1652407
346.60 0.1635391
346.70 0.1620456
346.80 0.1606029
346.90 0.1591175
347.00 0.157641
347.10 0.1563549
347.20 0.1555196
347.30 0.1554053
347.40 0.15619
347.50 0.1578624
347.60 0.1602253
347.70 0.1630004
347.80 0.1659374
347.90 0.1688549
348.00 0.1716066
348.10 0.174031
348.20 0.17594
348.30 0.1771678
348.40 0.1776456
348.50 0.1774409
348.60 0.1767119
348.70 0.1756181
348.80 0.1742892
348.90 0.1728549
349.00 0.1714536
349.10 0.1702078
349.20 0.1692085
349.30 0.1685245
349.40 0.1682208
349.50 0.1683471
349.60 0.168911
349.70 0.169884
349.80 0.1712625
349.90 0.1731279
350.00 0.1756079
350.10 0.1787309
350.20 0.1822888
350.30 0.1858403
350.40 0.1888657
350.50 0.1909462
350.60 0.1918517
350.70 0.1915169
350.80 0.1899863
350.90 0.1873736
351.00 0.1838303
351.10 0.1795329
351.20 0.1747112
351.30 0.1697039
351.40 0.16496
351.50 0.1609291
351.60 0.1578856
351.70 0.1558279
351.80 0.1545456
351.90 0.1538005
352.00 0.1534712
352.10 0.1535604
352.20 0.1541456
352.30 0.1553567
352.40 0.1573651
352.50 0.1603499
352.60 0.1643855
352.70 0.1693135
352.80 0.1747314
352.90 0.1801445
353.00 0.1851963
353.10 0.1897933
353.20 0.1940279
353.30 0.1980152
353.40 0.2018163
353.50 0.2054684
353.60 0.2090084
353.70 0.2124256
353.80 0.2156179
353.90 0.2184113
354.00 0.2206133
354.10 0.2220653
354.20 0.2226803
354.30 0.2224979
354.40 0.2217249
354.50 0.2206747
354.60 0.219617
354.70 0.2186687
354.80 0.2178081
354.90 0.2169735
355.00 0.216138
355.10 0.2153083
355.20 0.2144848
355.30 0.2136402
355.40 0.2127288
355.50 0.2116904
355.60 0.2104373
355.70 0.2088465
355.80 0.2067861
355.90 0.2041898
356.00 0.2011034
356.10 0.1976472
356.20 0.1939472
356.30 0.1900994
356.40 0.1861935
356.50 0.1823711
356.60 0.1788534
356.70 0.1758909
356.80 0.1736456
356.90 0.1720908
357.00 0.1710177
357.10 0.1701329
357.20 0.169155
357.30 0.1678751
357.40 0.16619
357.50 0.1641153
357.60 0.1617779
357.70 0.1593835
357.80 0.1571708
357.90 0.1553634
358.00 0.1541425
358.10 0.1536451
358.20 0.1539463
358.30 0.1550199
358.40 0.1567043
358.50 0.1587232
358.60 0.1607641
358.70 0.162571
358.80 0.1640193
358.90 0.1651447
359.00 0.1661197
359.10 0.1671718
359.20 0.1684623
359.30 0.1699898
359.40 0.1715714
359.50 0.1729351
359.60 0.1738639
359.70 0.1742817
359.80 0.17423
359.90 0.1737749
360.00 0.1729321
360.10 0.1716751
360.20 0.1700263
360.30 0.1681475
360.40 0.166357
360.50 0.1650634
360.60 0.1646484
360.70 0.1653512
360.80 0.1671827
360.90 0.1699058
361.00 0.1731165
361.10 0.1763974
361.20 0.1794419
361.30 0.1820772
361.40 0.1842276
361.50 0.1858836
361.60 0.1871071
361.70 0.1880356
361.80 0.1888291
361.90 0.1895745
362.00 0.190247
362.10 0.1907753
362.20 0.191118
362.30 0.191285
362.40 0.1913122
362.50 0.1912272
362.60 0.1910307
362.70 0.1906844
362.80 0.1901303
362.90 0.1893639
363.00 0.1885021
363.10 0.1877533
363.20 0.1873026
363.30 0.1872107
363.40 0.1873994
363.50 0.1877105
363.60 0.1879732
363.70 0.1880369
363.80 0.1877739
363.90 0.1870855
364.00 0.1859222
364.10 0.1843101
364.20 0.1823688
364.30 0.180305
364.40 0.1783751
364.50 0.1768388
364.60 0.1759073
364.70 0.175687
364.80 0.1761562
364.90 0.1772058
365.00 0.1787087
365.10 0.1805573
365.20 0.182627
365.30 0.1847114
365.40 0.1865313
365.50 0.1878432
365.60 0.1885645
365.70 0.1888111
365.80 0.1888048
365.90 0.1887434
366.00 0.188737
366.10 0.1888298
366.20 0.1890429
366.30 0.1893617
366.40 0.1896943
366.50 0.1898754
366.60 0.1897279
366.70 0.1891468
366.80 0.1881521
366.90 0.1868824
367.00 0.1855579
367.10 0.1844269
367.20 0.1837139
367.30 0.1835732
367.40 0.1840495
367.50 0.1850685
367.60 0.1864715
367.70 0.1880713
367.80 0.1896997
367.90 0.1912273
368.00 0.1925605
368.10 0.1936302
368.20 0.1943857
368.30 0.1948038
368.40 0.1949078
368.50 0.1947828
368.60 0.1945739
368.70 0.1944486
368.80 0.1945356
368.90 0.1948799
369.00 0.1954432
369.10 0.1961436
369.20 0.19689
369.30 0.1975872
369.40 0.1981363
369.50 0.1984672
369.60 0.1985983
369.70 0.1986662
369.80 0.1988842
369.90 0.1994535
370.00 0.2004783
370.10 0.2019257
370.20 0.2036459
370.30 0.205429
370.40 0.2070674
370.50 0.2084026
370.60 0.2093486
370.70 0.2099044
370.80 0.2101348
370.90 0.2101145
371.00 0.2098614
371.10 0.2093026
371.20 0.2083064
371.30 0.2067633
371.40 0.2046751
371.50 0.2022042
371.60 0.1996454
371.70 0.1973193
371.80 0.1954531
371.90 0.1940979
372.00 0.1931157
372.10 0.1922237
372.20 0.1910658
372.30 0.1893349
372.40 0.1869289
372.50 0.1840744
372.60 0.1813152
372.70 0.1793333
372.80 0.1786905
372.90 0.179615
373.00 0.181928
373.10 0.1851091
373.20 0.1884406
373.30 0.1911784
373.40 0.192716
373.50 0.1927
373.60 0.1910818
373.70 0.1881089
373.80 0.1842738
373.90 0.1802476
374.00 0.1767837
374.10 0.1745951
374.20 0.1742289
374.30 0.1759698
374.40 0.1797977
374.50 0.1853816
374.60 0.1921071
374.70 0.1991448
374.80 0.2055745
374.90 0.2105568
375.00 0.2135094
375.10 0.2142172
375.20 0.2128421
375.30 0.2098391
375.40 0.2058292
375.50 0.2014684
375.60 0.1973281
375.70 0.1938174
375.80 0.1911764
375.90 0.1895362
376.00 0.1890193
376.10 0.18982
376.20 0.1922125
376.30 0.1964799
376.40 0.2027834
376.50 0.2110371
376.60 0.2208516
376.70 0.2315326
376.80 0.2421217
376.90 0.2514867
377.00 0.2584925
377.10 0.262248
377.20 0.2623343
377.30 0.2588946
377.40 0.2525533
377.50 0.2442286
377.60 0.2349293
377.70 0.225589
377.80 0.2169452
377.90 0.2094702
378.00 0.2033674
378.10 0.1986322
378.20 0.1951512
378.30 0.1927834
378.40 0.1914194
378.50 0.1910295
378.60 0.1916967
378.70 0.193623
378.80 0.1970927
378.90 0.2024031
379.00 0.2097927
379.10 0.2193537
379.20 0.2309112
379.30 0.2439209
379.40 0.2574449
379.50 0.2702532
379.60 0.2810182
379.70 0.2885435
379.80 0.2919904
379.90 0.2910549
380.00 0.286037
380.10 0.2777562
380.20 0.2673394
380.30 0.2559632
380.40 0.2446428
380.50 0.2341167
380.60 0.2248167
380.70 0.2168953
380.80 0.2102916
380.90 0.2048373
381.00 0.2003609
381.10 0.1967364
381.20 0.1938712
381.30 0.1916695
381.40 0.1900256
381.50 0.1888501
381.60 0.191303
381.70 0.2012039
381.80 0.2205989
381.90 0.2519525
382.00 0.3000192
382.10 0.3680652
382.20 0.4468565
382.30 0.5499718
382.40 0.675725
382.50 0.8106906
382.60 0.946934
382.70 1.07605
382.80 1.193828
382.90 1.299732
383.00 1.435122
383.10 1.590473
383.20 1.675652
383.30 1.674577
383.40 1.586414
383.50 1.428954
383.60 1.233637
383.70 1.032216
383.80 0.8373131
383.90 0.6475189
384.00 0.474948
384.10 0.3481685
384.20 0.2891873
384.30 0.2869145
384.40 0.3184596
384.50 0.3927458
384.60 0.4768086
384.70 0.5886473
384.80 0.6584793
384.90 0.6353454
385.00 0.5089819
385.10 0.3246475
385.20 0.1699303
385.30 0.1254004
385.40 0.2080936
385.50 0.3635759
385.60 0.5118938
385.70 0.6022823
385.80 0.6265929
385.90 0.6020876
386.00 0.5616881
386.10 0.5407434
386.20 0.5624406
386.30 0.6253379
386.40 0.7117548
386.50 0.8063262
386.60 0.8989285
386.70 0.9800045
386.80 1.037889
386.90 1.066767
387.00 1.07002
387.10 1.050872
387.20 1.004303
387.30 0.9272854
387.40 0.8309671
387.50 0.730046
387.60 0.6261017
387.70 0.5163732
387.80 0.4289074
387.90 0.4099986
388.00 0.4711731
388.10 0.577089
388.20 0.6801508
388.30 0.7649065
388.40 0.8416852
388.50 0.9125979
388.60 0.9607163
388.70 0.9665161
388.80 0.9201923
388.90 0.8220462
389.00 0.6809465
389.10 0.5095429
389.20 0.3220641
389.30 0.1362376
389.40 0.03747722
389.50 0
389.60 0
389.70 0
389.80 0.03173077
389.90 0.03726875
390.00 0.04488873
390.10 0.09406296
390.20 0.1445498
390.30 0.2129591
390.40 0.3283075
390.50 0.4235381
390.60 0.5187118
390.70 0.6523837
390.80 0.8256924
390.90 0.9865726
391.00 1.06937
391.10 1.0406
391.20 0.9146131
391.30 0.8277479
391.40 0.7274245
391.50 0.6092606
391.60 0.4786655
391.70 0.3363751
391.80 0.1844626
391.90 0.02290813
392.00 0
392.10 0
392.20 0
392.30 0.007613465
392.40 0.01034293
392.50 0
392.60 0
392.70 0
392.80 0
392.90 0
393.00 0.0438171
393.10 0.1569094
393.20 0.3208647
393.30 0.495353
393.40 0.573224
393.50 0.5224876
393.60 0.3826093
393.70 0.2384054
393.80 0.1460337
393.90 0.09803496
394.00 0.04961666
394.10 0.02958203
394.20 0
394.30 0.001008251
394.40 0.0002683454
394.50 0
394.60 0
394.70 0.07753538
394.80 0.1445851
394.90 0.2022981
395.00 0.2233658
395.10 0.2058087
395.20 0.1556449
395.30 0.0861109
395.40 0.01810654
395.50 0.03839373
395.60 0.130871
395.70 0.1669823
395.80 0.1920808
395.90 0.2170063
396.00 0.3031856
396.10 0.4433557
396.20 0.5769749
396.30 0.6983364
396.40 0.8033066
396.50 0.9166989
396.60 1.043195
396.70 1.14693
396.80 1.186466
396.90 1.122416
397.00 0.9447418
397.10 0.6745481
397.20 0.3524832
397.30 0.184318
397.40 0.09945054
397.50 0.03233004
397.60 0.00775412
397.70 0.02651111
397.80 0.06410383
397.90 0.09435004
398.00 0.1127052
398.10 0.1332212
398.20 0.1627578
398.30 0.1848868
398.40 0.1740457
398.50 0.1222428
398.60 0.0498741
398.70 0
398.80 0
398.90 0
399.00 0
399.10 0
399.20 0
399.30 0
399.40 0
399.50 0.004876721
399.60 0.1364731
399.70 0.2438031
399.80 0.3094142
399.90 0.3517436
400.00 0.3941182
400.10 0.4495529
400.20 0.5130271
400.30 0.5707916
400.40 0.6145213
400.50 0.6514906
400.60 0.6856883
400.70 0.6736491
400.80 0.6040643
400.90 0.4951916
401.00 0.3338862
401.10 0.1334654
401.20 0.0008976516
401.30 0
401.40 0
401.50 0
401.60 0
401.70 0.03030569
401.80 0.2256723
401.90 0.3749906
402.00 0.4606871
402.10 0.4891229
402.20 0.4817864
402.30 0.457586
402.40 0.4278479
402.50 0.4085223
402.60 0.4265968
402.70 0.4991895
402.80 0.6124789
402.90 0.7341886
403.00 0.8370176
403.10 0.9098704
403.20 0.9464336
403.30 0.9368614
403.40 0.8790432
403.50 0.7918188
403.60 0.7087735
403.70 0.6673592
403.80 0.6698945
403.90 0.6972804
404.00 0.7372662
404.10 0.778682
404.20 0.8253072
404.30 0.8756276
404.40 0.9165312
404.50 0.9324235
404.60 0.9119945
404.70 0.8475564
404.80 0.7438987
404.90 0.625323
405.00 0.5207479
405.10 0.4406364
405.20 0.3697067
405.30 0.2895715
405.40 0.2004343
405.50 0.1090512
405.60 0.05240095
405.70 0.05410344
405.80 0.03532164
405.90 0.01742815
406.00 0.02204715
406.10 0.04712637
406.20 0.07278968
406.30 0.08615576
406.40 0.09126745
406.50 0.1762513
406.60 0.3061954
406.70 0.410308
406.80 0.4781289
406.90 0.5009472
407.00 0.4778423
407.10 0.4222591
407.20 0.3810511
407.30 0.3547618
407.40 0.3216164
407.50 0.3043877
407.60 0.2761703
407.70 0.2327299
407.80 0.1840334
407.90 0.1343412
408.00 0.08199257
408.10 0.03168525
408.20 0.009064087
408.30 0.002273699
408.40 0.004043957
408.50 0.01298806
408.60 0.02717634
408.70 0.03981088
408.80 0.04989758
408.90 0.07058041
409.00 0.1040024
409.10 0.1742313
409.20 0.2838704
409.30 0.4061502
409.40 0.5000073
409.50 0.5522612
409.60 0.5871692
409.70 0.63697
409.80 0.7101195
409.90 0.787882
410.00 0.8413458
410.10 0.8466531
410.20 0.7901726
410.30 0.6713472
410.40 0.5068585
410.50 0.3286784
410.60 0.1717899
410.70 0.1017476
410.80 0.05939712
410.90 0.04625189
411.00 0.0570619
411.10 0.07932251
411.20 0.09907756
411.30 0.1070434
411.40 0.09748745
411.50 0.06799734
411.60 0.08155266
411.70 0.1447724
411.80 0.2107932
411.90 0.2300443
412.00 0.213534
412.10 0.1947589
412.20 0.2335045
412.30 0.2869049
412.40 0.3377468
412.50 0.3683565
412.60 0.368839
412.70 0.3418455
412.80 0.3003593
412.90 0.258932
413.00 0.2302619
413.10 0.2243303
413.20 0.2436595
413.30 0.2835286
413.40 0.3365924
413.50 0.3951045
413.60 0.4496657
413.70 0.490731
413.80 0.5108951
413.90 0.504315
414.00 0.4638311
414.10 0.3823479
414.20 0.3165399
414.30 0.2401611
414.40 0.1585771
414.50 0.07760493
414.60 0.003220428
414.70 0
414.80 0.01682767
414.90 0.03751306
415.00 0.01399802
415.10 0
415.20 0
415.30 0
415.40 0
415.50 0
415.60 0.002156399
415.70 0
415.80 0
415.90 0
416.00 0.0007285136
416.10 0.0265666
416.20 0.05046545
416.30 0.05879099
416.40 0.04059607
416.50 0
416.60 0
416.70 0
416.80 0
416.90 0.0232575
417.00 0.08591353
417.10 0.1798325
417.20 0.2425064
417.30 0.2805354
417.40 0.3106728
417.50 0.3303336
417.60 0.3205097
417.70 0.2742732
417.80 0.2072397
417.90 0.1682988
418.00 0.1202337
418.10 0.06349088
418.20 0.0005190961
418.30 0
418.40 0
418.50 0.005383127
418.60 0.07225834
418.70 0.1403086
418.80 0.197515
418.90 0.2376343
419.00 0.2631059
419.10 0.2761331
419.20 0.2720705
419.30 0.2453515
419.40 0.1992522
419.50 0.1440116
419.60 0.09153867
419.70 0.0539286
419.80 0.07059017
419.90 0.1144146
420.00 0.1605093
420.10 0.1794839
420.20 0.1536814
420.30 0.1042693
420.40 0.03968231
420.50 0
420.60 0
420.70 0
420.80 0.007361769
420.90 0.02065812
421.00 0.01878459
421.10 0.01477507
421.20 0.02845664
421.30 0.0706848
421.40 0.2116457
421.50 0.3282872
421.60 0.4035275
421.70 0.4377802
421.80 0.4398329
421.90 0.4165867
422.00 0.374737
422.10 0.3246622
422.20 0.2786116
422.30 0.2417889
422.40 0.2029388
422.50 0.1475873
422.60 0.08221958
422.70 0.06129701
422.80 0.0387874
422.90 0.02078123
423.00 0.01597939
423.10 0.03390021
423.20 0.08156844
423.30 0.1592174
423.40 0.2571254
423.50 0.3864539
423.60 0.5356093
423.70 0.635435
423.80 0.6674695
423.90 0.6352532
424.00 0.552542
424.10 0.4386061
424.20 0.3156295
424.30 0.199308
424.40 0.1161179
424.50 0.06597207
424.60 0.04041855
424.70 0.04059738
424.80 0.09030699
424.90 0.1674285
425.00 0.2497336
425.10 0.3192816
425.20 0.3619691
425.30 0.3748339
425.40 0.3662381
425.50 0.3516648
425.60 0.3450578
425.70 0.3542003
425.80 0.3754228
425.90 0.3932657
426.00 0.3966577
426.10 0.3880205
426.20 0.3741755
426.30 0.3597284
426.40 0.3499635
426.50 0.3485122
426.60 0.3478882
426.70 0.3273416
426.80 0.2707557
426.90 0.2093931
427.00 0.1869147
427.10 0.1573922
427.20 0.1195972
427.30 0.07296425
427.40 0.01979731
427.50 0
427.60 0
427.70 0
427.80 0.007935563
427.90 0.01127867
428.00 0.003222382
428.10 0
428.20 0
428.30 0
428.40 0.07046191
428.50 0.1593134
428.60 0.2465983
428.70 0.3272425
428.80 0.3976355
428.90 0.4583529
429.00 0.5127499
429.10 0.5852695
429.20 0.6515823
429.30 0.6916151
429.40 0.7032151
429.50 0.6857472
429.60 0.6422582
429.70 0.5747249
429.80 0.4867585
429.90 0.3938776
430.00 0.3210843
430.10 0.2834654
430.20 0.2695184
430.30 0.2542045
430.40 0.2306629
430.50 0.2201117
430.60 0.2435055
430.70 0.3005605
430.80 0.3837735
430.90 0.4916018
431.00 0.623032
431.10 0.7688512
431.20 0.9108316
431.30 1.026889
431.40 1.098014
431.50 1.112588
431.60 1.081616
431.70 1.019103
431.80 0.9310699
431.90 0.8310934
432.00 0.7346851
432.10 0.6642592
432.20 0.6061036
432.30 0.5579517
432.40 0.5124491
432.50 0.4572206
432.60 0.3852438
432.70 0.3070665
432.80 0.245144
432.90 0.2133793
433.00 0.2020044
433.10 0.1896464
433.20 0.1887409
433.30 0.2144059
433.40 0.2512288
433.50 0.2950403
433.60 0.3403314
433.70 0.3858658
433.80 0.4772164
433.90 0.57271
434.00 0.6578882
434.10 0.7061219
434.20 0.6934351
434.30 0.6204136
434.40 0.5190434
434.50 0.4309523
434.60 0.3792315
434.70 0.358792
434.80 0.3471624
434.90 0.3231904
435.00 0.2778394
435.10 0.2135413
435.20 0.1382353
435.30 0.06144244
435.40 0.007479156
435.50 0.02250959
435.60 0.05045587
435.70 0.09145116
435.80 0.1281612
435.90 0.1294907
436.00 0.08108937
436.10 0.0303804
436.20 0.07703923
436.30 0.1429368
436.40 0.2246545
436.50 0.3050769
436.60 0.3478683
436.70 0.3677588
436.80 0.3911046
436.90 0.4232155
437.00 0.4425728
437.10 0.4247108
437.20 0.3619173
437.30 0.2645457
437.40 0.1548635
437.50 0.05612944
437.60 0
437.70 0
437.80 0
437.90 0.01028469
438.00 0.04225273
438.10 0.1114288
438.20 0.1655863
438.30 0.201021
438.40 0.232626
438.50 0.2600467
438.60 0.2655621
438.70 0.2539686
438.80 0.2446563
438.90 0.2398956
439.00 0.2324075
439.10 0.2060591
439.20 0.1592035
439.30 0.109225
439.40 0.07323564
439.50 0.05564588
439.60 0.04850855
439.70 0.04293531
439.80 0.04037116
439.90 0.06729871
440.00 0.1048455
440.10 0.1218899
440.20 0.1056882
440.30 0.06352905
440.40 0.03767952
440.50 0
440.60 0
440.70 0
440.80 0
440.90 0.02873917
441.00 0.07436806
441.10 0.1106741
441.20 0.1270196
441.30 0.1227592
441.40 0.1087436
441.50 0.0980807
441.60 0.09631941
441.70 0.09901284
441.80 0.09638659
441.90 0.08219189
442.00 0.06033071
442.10 0.04290148
442.20 0.04058995
442.30 0.0537882
442.40 0.07080855
442.50 0.07668749
442.60 0.06584854
442.70 0.04668111
442.80 0.03481162
442.90 0.03966701
443.00 0.05551678
443.10 0.06625273
443.20 0.05885086
443.30 0.03301673
443.40 0
443.50 0.02603326
443.60 0.1009167
443.70 0.1673451
443.80 0.2523356
443.90 0.3184175
444.00 0.3462159
444.10 0.3321474
444.20 0.2876209
444.30 0.2231399
444.40 0.1386096
444.50 0.0827342
444.60 0.05903636
444.70 0.03084981
444.80 0.01494675
444.90 0.02019304
445.00 0.04393763
445.10 0.07993943
445.20 0.1233225
445.30 0.1634727
445.40 0.1808091
445.50 0.168729
445.60 0.2340159
445.70 0.2782445
445.80 0.3168156
445.90 0.3471706
446.00 0.3602649
446.10 0.3612504
446.20 0.3680636
446.30 0.3912551
446.40 0.4221038
446.50 0.4376531
446.60 0.4161598
446.70 0.3534646
446.80 0.2695073
446.90 0.1962538
447.00 0.153984
447.10 0.1395544
447.20 0.1404016
447.30 0.1550197
447.40 0.1914575
447.50 0.2523218
447.60 0.3258015
447.70 0.389366
447.80 0.4251649
447.90 0.4302918
448.00 0.4406148
448.10 0.4217898
448.20 0.3886929
448.30 0.3752691
448.40 0.350456
448.50 0.3165743
448.60 0.2870928
448.70 0.2742124
448.80 0.2772955
448.90 0.2868443
449.00 0.2993448
449.10 0.3219523
449.20 0.3631895
449.30 0.421625
449.40 0.4853597
449.50 0.5445903
449.60 0.5990069
449.70 0.6499384
449.80 0.6938086
449.90 0.7230275
450.00 0.7309008
450.10 0.7162898
450.20 0.6865728
450.30 0.6581955
450.40 0.6470949
450.50 0.6588104
450.60 0.6867399
450.70 0.7172365
450.80 0.7381001
450.90 0.7444143
451.00 0.7343897
451.10 0.704858
451.20 0.6561322
451.30 0.5954486
451.40 0.5344976
451.50 0.4837274
451.60 0.4505868
451.70 0.4426917
451.80 0.4677677
451.90 0.5275103
452.00 0.6110174
452.10 0.6964644
452.20 0.7611449
452.30 0.7933959
452.40 0.7957591
452.50 0.7773737
452.60 0.7439217
452.70 0.6938021
452.80 0.6225623
452.90 0.5318128
453.00 0.4354351
453.10 0.3539222
453.20 0.2992533
453.30 0.2659639
453.40 0.2393506
453.50 0.2087756
453.60 0.1731165
453.70 0.141233
453.80 0.128291
453.90 0.1443266
454.00 0.1854699
454.10 0.2381577
454.20 0.2891933
454.30 0.3332133
454.40 0.3739657
454.50 0.4142121
454.60 0.4452528
454.70 0.4528227
454.80 0.4307312
454.90 0.388973
455.00 0.3488765
455.10 0.3316185
455.20 0.3538861
455.30 0.4202535
455.40 0.5125115
455.50 0.5990097
455.60 0.6629409
455.70 0.7128404
455.80 0.7612646
455.90 0.8059871
456.00 0.8354719
456.10 0.8427457
456.20 0.8300274
456.30 0.8050335
456.40 0.775951
456.50 0.7504287
456.60 0.7342052
456.70 0.72836
456.80 0.7288934
456.90 0.7294135
457.00 0.7264912
457.10 0.7228621
457.20 0.726152
457.30 0.7467593
457.40 0.7950132
457.50 0.8729157
457.60 0.9673475
457.70 1.058063
457.80 1.136244
457.90 1.205747
458.00 1.266642
458.10 1.308557
458.20 1.317589
458.30 1.284771
458.40 1.208045
458.50 1.091787
458.60 0.9498839
458.70 0.8043724
458.80 0.6761791
458.90 0.5767159
459.00 0.5039698
459.10 0.4440522
459.20 0.3843282
459.30 0.3300907
459.40 0.3018718
459.50 0.3104306
459.60 0.3408571
459.70 0.368017
459.80 0.3787335
459.90 0.3763754
460.00 0.3692831
460.10 0.360513
460.20 0.3511281
460.30 0.345039
460.40 0.3485435
460.50 0.3668534
460.60 0.4007865
460.70 0.4470881
460.80 0.5004033
460.90 0.5585289
461.00 0.6270858
461.10 0.7095955
461.20 0.7939151
461.30 0.8581835
461.40 0.8920273
461.50 0.9078488
461.60 0.9229369
461.70 0.9360961
461.80 0.9349212
461.90 0.9172114
462.00 0.8940153
462.10 0.8767067
462.20 0.8702317
462.30 0.8761743
462.40 0.8915914
462.50 0.9046164
462.60 0.8975167
462.70 0.8569123
462.80 0.7839382
462.90 0.6946061
463.00 0.6099284
463.10 0.5494889
463.20 0.523284
463.30 0.5231681
463.40 0.5324385
463.50 0.5437331
463.60 0.5639238
463.70 0.6000145
463.80 0.6472947
463.90 0.6955278
464.00 0.740055
464.10 0.7838436
464.20 0.8293938
464.30 0.8718138
464.40 0.9004035
464.50 0.9062093
464.60 0.889112
464.70 0.8597163
464.80 0.829778
464.90 0.8011426
465.00 0.768856
465.10 0.7297776
465.20 0.6881989
465.30 0.6543376
465.40 0.6363726
465.50 0.6372469
465.60 0.6583472
465.70 0.7014635
465.80 0.7645234
465.90 0.8381425
466.00 0.9080938
466.10 0.9610416
466.20 0.9897855
466.30 0.9966283
466.40 0.989723
466.50 0.9729926
466.60 0.9416104
466.70 0.888191
466.80 0.809551
466.90 0.706313
467.00 0.5861907
467.10 0.470514
467.20 0.3865031
467.30 0.3459278
467.40 0.3351421
467.50 0.3296705
467.60 0.3159298
467.70 0.2962339
467.80 0.2809236
467.90 0.2825248
468.00 0.3113671
468.10 0.3702315
468.20 0.4521041
468.30 0.5445169
468.40 0.6377854
468.50 0.7279138
468.60 0.8117404
468.70 0.8840211
468.80 0.9408939
468.90 0.9839029
469.00 1.01633
469.10 1.038491
469.20 1.05093
469.30 1.059829
469.40 1.071134
469.50 1.077947
469.60 1.062068
469.70 1.016264
469.80 0.9574102
469.90 0.9075187
470.00 0.8694116
470.10 0.8299231
470.20 0.7845805
470.30 0.7432207
470.40 0.7117722
470.50 0.6816333
470.60 0.6401008
470.70 0.5876313
470.80 0.5417067
470.90 0.524153
471.00 0.5449499
471.10 0.5956592
471.20 0.6524351
471.30 0.6882876
471.40 0.6887624
471.50 0.658418
471.60 0.6152308
471.70 0.5735276
471.80 0.5326289
471.90 0.4851841
472.00 0.4332227
472.10 0.3928218
472.20 0.3824926
472.30 0.4101386
472.40 0.4668333
472.50 0.5311111
472.60 0.5850489
472.70 0.6285583
472.80 0.675404
472.90 0.7332546
473.00 0.79109
473.10 0.8296238
473.20 0.8402154
473.30 0.8288271
473.40 0.8048237
473.50 0.7744604
473.60 0.7461228
473.70 0.7343828
473.80 0.7536223
473.90 0.8068581
474.00 0.8803262
474.10 0.9494645
474.20 0.9934182
474.30 1.005747
474.40 0.9924237
474.50 0.9604582
474.60 0.9098187
474.70 0.8378257
474.80 0.7481577
474.90 0.6550162
475.00 0.5798342
475.10 0.5422021
475.20 0.5533582
475.30 0.611405
475.40 0.6976053
475.50 0.7799478
475.60 0.8245901
475.70 0.8099265
475.80 0.7357233
475.90 0.6180496
476.00 0.4740444
476.10 0.3144173
476.20 0.1498306
476.30 0.002357619
476.40 0
476.50 0
476.60 0
476.70 0.06342884
476.80 0.2041911
476.90 0.334292
477.00 0.4309053
477.10 0.4908012
477.20 0.5221899
477.30 0.5310133
477.40 0.518975
477.50 0.4905768
477.60 0.4557708
477.70 0.4252793
477.80 0.4042795
477.90 0.3940299
478.00 0.3984472
478.10 0.4212941
478.20 0.4563403
478.30 0.4841741
478.40 0.4850805
478.50 0.4595956
478.60 0.4310724
478.70 0.4217123
478.80 0.4326051
478.90 0.4507243
479.00 0.4707583
479.10 0.5041935
479.20 0.5663088
479.30 0.6579269
479.40 0.7607524
479.50 0.850453
479.60 0.9131985
479.70 0.9492503
479.80 0.9652393
479.90 0.9643258
480.00 0.9408544
480.10 0.8841919
480.20 0.7893291
480.30 0.6644506
480.40 0.5279933
480.50 0.4006105
480.60 0.3022657
480.70 0.2518124
480.80 0.2598575
480.90 0.3223928
481.00 0.4218181
481.10 0.5341178
481.20 0.6411516
481.30 0.7369035
481.40 0.82193
481.50 0.8924696
481.60 0.9383254
481.70 0.9543112
481.80 0.9488437
481.90 0.9363777
482.00 0.9223745
482.10 0.9003636
482.20 0.8622199
482.30 0.807097
482.40 0.741953
482.50 0.6771785
482.60 0.6235692
482.70 0.5900419
482.80 0.5775671
482.90 0.577364
483.00 0.5831701
483.10 0.5994196
483.20 0.6306295
483.30 0.6686183
483.40 0.6994155
483.50 0.7202566
483.60 0.737848
483.70 0.7532761
483.80 0.7594325
483.90 0.7540414
484.00 0.7469676
484.10 0.7519769
484.20 0.7751467
484.30 0.8106102
484.40 0.8428944
484.50 0.8537666
484.60 0.8337601
484.70 0.7905734
484.80 0.7432647
484.90 0.7050248
485.00 0.6711541
485.10 0.6263456
485.20 0.5644056
485.30 0.4997378
485.40 0.4574144
485.50 0.4507598
485.60 0.4759856
485.70 0.5324077
485.80 0.6390114
485.90 0.8185375
486.00 1.059573
486.10 1.297125
486.20 1.440784
486.30 1.432157
486.40 1.283586
486.50 1.067191
486.60 0.865944
486.70 0.7281618
486.80 0.6564124
486.90 0.6263578
487.00 0.6136354
487.10 0.6100615
487.20 0.6214256
487.30 0.6558606
487.40 0.7121933
487.50 0.7760556
487.60 0.8273195
487.70 0.8501584
487.80 0.8399048
487.90 0.8033595
488.00 0.7536908
488.10 0.7060738
488.20 0.6750539
488.30 0.6700167
488.40 0.6878848
488.50 0.713845
488.60 0.7300238
488.70 0.7240551
488.80 0.6935794
488.90 0.64705
489.00 0.6007275
489.10 0.5734387
489.20 0.5788861
489.30 0.6150243
489.40 0.6616749
489.50 0.6949133
489.60 0.7072545
489.70 0.7082223
489.80 0.7065765
489.90 0.701843
490.00 0.6919364
490.10 0.6791101
490.20 0.6632672
490.30 0.6373586
490.40 0.6005173
490.50 0.5696708
490.60 0.5668212
490.70 0.597118
490.80 0.6453938
490.90 0.6935006
491.00 0.7347015
491.10 0.768779
491.20 0.7909619
491.30 0.7933253
491.40 0.7760392
491.50 0.7511828
491.60 0.7362113
491.70 0.7473317
491.80 0.7950937
491.90 0.8803814
492.00 0.992247
492.10 1.11239
492.20 1.226396
492.30 1.329093
492.40 1.418193
492.50 1.485719
492.60 1.520328
492.70 1.521912
492.80 1.509148
492.90 1.506214
493.00 1.523317
493.10 1.552404
493.20 1.581398
493.30 1.606249
493.40 1.62546
493.50 1.631404
493.60 1.612864
493.70 1.562751
493.80 1.483094
493.90 1.382859
494.00 1.275476
494.10 1.180396
494.20 1.117937
494.30 1.101021
494.40 1.132393
494.50 1.206241
494.60 1.310422
494.70 1.428436
494.80 1.542897
494.90 1.639741
495.00 1.708911
495.10 1.743625
495.20 1.740608
495.30 1.697213
495.40 1.606862
495.50 1.461223
495.60 1.263035
495.70 1.036419
495.80 0.8155044
495.90 0.6229078
496.00 0.4663054
496.10 0.3501937
496.20 0.2810163
496.30 0.2606155
496.40 0.2793747
496.50 0.31889
496.60 0.3597928
496.70 0.3887166
496.80 0.4047386
496.90 0.4177208
497.00 0.4325782
497.10 0.4370787
497.20 0.4132101
497.30 0.3613481
497.40 0.3071694
497.50 0.2824944
497.60 0.3050058
497.70 0.3744532
497.80 0.4780627
497.90 0.5922925
498.00 0.6863337
498.10 0.7389587
498.20 0.7583109
498.30 0.7760815
498.40 0.8182843
498.50 0.8846832
498.60 0.9532292
498.70 1.000417
498.80 1.017062
498.90 1.010836
499.00 0.9967677
499.10 0.9825297
499.20 0.9640898
499.30 0.9351684
499.40 0.8957195
499.50 0.8515097
499.60 0.8066122
499.70 0.7564611
499.80 0.6888036
499.90 0.594118
500.00 1
500.10 0.890953
500.20 0.6856518
500.30 0.5344661
500.40 1.174263
500.50 1.15051
500.60 0.5705242
500.70 0.6647004
500.80 0.7158227
500.90 0.1038035
501.00 0.105769
501.10 0.3066648
501.20 0.9869473
501.30 0.4363078
501.40 0.674473
501.50 1.928018
501.60 1.013334
501.70 0.1883865
501.80 0.6853873
501.90 1.091195
502.00 1.304807
502.10 0.8567157
502.20 0.1304846
502.30 0.5337633
502.40 0.6829498
502.50 0.4832584
502.60 1.003585
502.70 1.141233
502.80 1.150719
502.90 0.791079
503.00 0.5757576
503.10 0.3788595
503.20 0.835973
503.30 1.42591
503.40 1.467484
503.50 1.705285
503.60 1.537226
503.70 0.852697
503.80 0.713145
503.90 1.070671
504.00 1.114197
504.10 1.304865
504.20 0.8862207
504.30 0.6148177
504.40 0.8747392
504.50 1.24073
504.60 1.226255
504.70 1.2806
504.80 1.912243
504.90 0.6751829
505.00 0.1985023
505.10 0.1291937
505.20 0.6428086
505.30 1.568672
505.40 1.059833
505.50 0
505.60 0.5133532
505.70 1.320468
505.80 1.524738
505.90 0.8701438
506.00 0.5771187
506.10 0.6191534
506.20 0.1295085
506.30 0.606619
506.40 1.110552
506.50 0.8766212
506.60 1.008028
506.70 1.074643
506.80 0.5256989
506.90 0.3123113
507.00 1.137973
507.10 1.649218
507.20 1.389177
507.30 0.3749726
507.40 0.8008805
507.50 2.037375
507.60 2.170741
507.70 1.479001
507.80 1.335522
507.90 1.06718
508.00 1.111783
508.10 1.755771
508.20 2.174609
508.30 1.331174
508.40 0.5773526
508.50 0.9190768
508.60 1.416696
508.70 1.338059
508.80 1.364336
508.90 1.72236
509.00 1.731656
509.10 0.7135979
509.20 0.8430754
509.30 1.304456
509.40 1.284726
509.50 1.304608
509.60 2.041697
509.70 1.247181
509.80 1.249782
509.90 2.026606
510.00 2.467083
510.10 1.48678
510.20 0.2606252
510.30 0.5016941
510.40 0.7659524
510.50 1.314801
510.60 1.220576
510.70 1.38943
510.80 1.041111
510.90 0.5882206
511.00 0.2852069
511.10 0.6369584
511.20 1.334844
511.30 1.22672
511.40 1.605276
511.50 1.784041
511.60 1.691072
511.70 1.464742
511.80 0.7457331
511.90 0.7879448
512.00 1.367721
512.10 1.739435
512.20 1.953177
512.30 1.981046
512.40 1.681684
512.50 0.5017849
512.60 1.1058
512.70 1.466057
512.80 1.16277
512.90 0.5958771
513.00 0.6180422
513.10 1.395614
513.20 1.588699
513.30 1.439261
513.40 1.25006
513.50 1.227056
513.60 1.875438
513.70 2.003457
513.80 1.775775
513.90 1.139136
514.00 1.773601
514.10 2.075933
514.20 1.336573
514.30 0.7192079
514.40 1.696091
514.50 1.79618
514.60 1.40425
514.70 1.044477
514.80 1.343921
514.90 1.070108
515.00 1.201285
515.10 1.281543
515.20 1.707361
515.30 1.34565
515.40 0.4675569
515.50 1.299058
515.60 1.96651
515.70 1.732856
515.80 1.563174
515.90 1.774887
516.00 2.478531
516.10 2.514993
516.20 2.232251
516.30 2.348936
516.40 2.727411
516.50 2.489101
516.60 1.940342
516.70 1.299276
516.80 1.105249
516.90 0.6706086
517.00 0.01920778
517.10 0
517.20 0.3923024
517.30 0.6442057
517.40 0.3799254
517.50 0.8916684
517.60 0.4208281
517.70 0.2080745
517.80 0.2578346
517.90 0.1207671
518.00 0.1163608
518.10 0.524354
518.20 0.4371338
518.30 0.1666426
518.40 0.8037972
518.50 1.091106
518.60 1.20861
518.70 1.475892
518.80 0.9634166
518.90 0.6285797
519.00 0.7638615
519.10 0.6818579
519.20 0.8164366
519.30 0.8118455
519.40 0.6266948
519.50 0.5463263
519.60 0.6032807
519.70 0.8479963
519.80 0.6836075
519.90 0.8224328
520.00 1.433308
520.10 0.9194526
520.20 0.6183636
520.30 1.218967
520.40 0.8475803
520.50 0.3992522
520.60 1.187293
520.70 0.8132749
520.80 0.8129674
520.90 0.8632919
521.00 0.8403438
521.10 0.5299049
521.20 0.5077535
521.30 0.6007343
521.40 1.568646
521.50 1.589419
521.60 0.8606067
521.70 1.247852
521.80 1.178657
521.90 0.5280405
522.00 0.4611972
522.10 1.487
522.20 1.965625
522.30 1.68042
522.40 2.001411
522.50 2.198241
522.60 1.297941
522.70 1.104723
522.80 1.873428
522.90 2.219459
523.00 1.627814
523.10 1.135546
523.20 1.347443
523.30 1.648119
523.40 0.9745601
523.50 0.6333285
523.60 1.104694
523.70 1.481497
523.80 1.348591
523.90 1.336211
524.00 1.72767
524.10 1.971777
524.20 1.224722
524.30 0.4677211
524.40 0.4591435
524.50 0.9024147
524.60 0.8138327
524.70 1.167795
524.80 1.026409
524.90 0.1691792
525.00 0.837828
525.10 1.666563
525.20 1.595701
525.30 1.30531
525.40 0.6649448
525.50 1.93645
525.60 2.044461
525.70 1.728095
525.80 1.379875
525.90 1.64804
526.00 1.337141
526.10 1.540268
526.20 1.047349
526.30 1.192471
526.40 1.408478
526.50 1.116339
526.60 0.5191054
526.70 0.9952893
526.80 1.973816
526.90 1.511314
527.00 0.8275733
527.10 1.292011
527.20 1.315974
527.30 1.745603
527.40 2.270138
527.50 1.991731
527.60 1.523154
527.70 0.9091918
527.80 0.6131585
527.90 1.568065
528.00 2.464305
528.10 1.480983
528.20 1.154955
528.30 1.416125
528.40 1.577945
528.50 1.375486
528.60 1.733329
528.70 1.962573
528.80 1.201035
528.90 1.163524
529.00 2.096286
529.10 2.326728
529.20 2.563044
529.30 2.225764
529.40 1.963655
529.50 1.83399
529.60 1.692093
529.70 1.337304
529.80 1.701541
529.90 1.212446
530.00 0.9656847
530.10 1.129594
530.20 1.986128
530.30 2.166675
530.40 1.766084
530.50 1.870581
530.60 1.867435
530.70 1.110147
530.80 1.419281
530.90 1.969098
531.00 1.722921
531.10 1.73378
531.20 2.118635
531.30 1.39238
531.40 1.491198
531.50 1.971745
531.60 1.730613
531.70 1.083908
531.80 1.125062
531.90 1.9081
532.00 2.020928
532.10 2.089542
532.20 2.316939
532.30 1.57141
532.40 0.8910018
532.50 0.9876636
532.60 1.591245
532.70 1.839294
532.80 1.302062
532.90 1.892635
533.00 1.520207
533.10 1.453625
533.20 1.852822
533.30 2.259504
533.40 1.731312
533.50 0.9363813
533.60 1.537295
533.70 1.987595
533.80 1.959183
533.90 1.66562
534.00 1.413746
534.10 1.399969
534.20 1.062359
534.30 1.630623
534.40 2.462276
534.50 2.889756
534.60 2.432437
534.70 1.372246
534.80 0.830375
534.90 1.122784
535.00 1.95707
535.10 1.778172
535.20 1.795948
535.30 2.630793
535.40 3.174389
535.50 2.587121
535.60 1.9561
535.70 1.751844
535.80 0.97799
535.90 1.203991
536.00 1.876691
536.10 1.801667
536.20 1.553447
536.30 2.090112
536.40 1.759929
536.50 0.9873791
536.60 1.503482
536.70 2.084827
536.80 2.33247
536.90 2.167427
537.00 2.179473
537.10 2.22306
537.20 1.21044
537.30 1.179255
537.40 1.37734
537.50 1.609951
537.60 2.130265
537.70 2.33454
537.80 1.755126
537.90 1.717867
538.00 2.448187
538.10 2.644069
538.20 1.902653
538.30 1.99447
538.40 2.880565
538.50 3.080299
538.60 2.413294
538.70 2.846696
538.80 3.032468
538.90 2.531842
539.00 1.961892
539.10 2.051657
539.20 2.367495
539.30 2.232519
539.40 1.586173
539.50 1.959563
539.60 2.080514
539.70 1.823716
539.80 1.826879
539.90 2.210551
540.00 2.320037
540.10 2.637063
540.20 2.561917
540.30 2.850735
540.40 2.523944
540.50 2.429439
540.60 2.475936
540.70 2.598375
540.80 2.113185
540.90 2.182066
541.00 2.317786
541.10 1.867168
541.20 1.900793
541.30 1.929393
541.40 2.046329
541.50 1.85861
541.60 2.0403
541.70 2.030398
541.80 2.453007
541.90 2.428399
542.00 1.979494
542.10 2.089059
542.20 2.659181
542.30 3.027727
542.40 2.938465
542.50 2.240416
542.60 1.807977
542.70 2.063384
542.80 2.740452
542.90 3.148952
543.00 2.352207
543.10 2.189922
543.20 2.004044
543.30 3.007358
543.40 2.945203
543.50 2.635984
543.60 2.425176
543.70 2.767967
543.80 2.609739
543.90 2.421807
544.00 2.401298
544.10 2.700271
544.20 3.313564
544.30 3.579049
544.40 3.124902
544.50 3.11365
544.60 3.368546
544.70 2.69316
544.80 2.113282
544.90 1.318825
545.00 0.508633
545.10 0.3546984
545.20 0.5316392
545.30 0.08359466
545.40 0.126878
545.50 0.08500332
545.60 0.8548105
545.70 2.185849
545.80 1.704581
545.90 0.6693438
546.00 0.912926
546.10 1.753796
546.20 1.455715
546.30 1.56361
546.40 1.275055
546.50 0.9643219
546.60 1.07757
546.70 1.288861
546.80 2.015468
546.90 1.939292
547.00 1.167233
547.10 0.8877252
547.20 0.5397294
547.30 0.9008967
547.40 1.190314
547.50 1.356281
547.60 1.243731
547.70 1.901661
547.80 1.180328
547.90 0.8892986
548.00 0.8582767
548.10 1.411783
548.20 1.604558
548.30 1.445457
548.40 1.257964
548.50 1.581806
548.60 1.768183
548.70 1.961529
548.80 1.680167
548.90 1.084109
549.00 1.074947
549.10 1.564972
549.20 1.69257
549.30 1.451551
549.40 0.5291865
549.50 0.8701286
549.60 1.146144
549.70 1.064154
549.80 0.7579024
549.90 1.325286
550.00 1.101081
550.10 0.683852
550.20 0.9976959
550.30 0.6562932
550.40 0.67797
550.50 1.078291
550.60 1.415881
550.70 0.6232701
550.80 0.5443451
550.90 0.7694732
551.00 0.4908953
551.10 0.1841949
551.20 0.1470348
551.30 0.316964
551.40 0.6763636
551.50 1.0107
551.60 1.421039
551.70 0.7986718
551.80 0.2546993
551.90 0
552.00 0.3701108
552.10 1.064521
552.20 0.4346031
552.30 0.05985763
552.40 0.2152166
552.50 0.2693125
552.60 0.3429484
552.70 0.1010682
552.80 0.2002606
552.90 0.4829127
553.00 0.8139427
553.10 0.6846563
553.20 0.7956406
553.30 0.9655027
553.40 0.9043107
553.50 0.5630755
553.60 0.5083943
553.70 0.2754884
553.80 0.3512524
553.90 0.6929833
554.00 1.13428
554.10 0.9703938
554.20 0.2183847
554.30 0.03702349
554.40 0.8021295
554.50 1.13308
554.60 0.8583015
554.70 0.3505265
554.80 0.5488398
554.90 0.7668795
555.00 0.4319635
555.10 0.3407285
555.20 0.2296548
555.30 0.4203256
555.40 0.3183874
555.50 0.3628827
555.60 0.8811361
555.70 1.283373
555.80 1.023052
555.90 0.7380666
556.00 0.2035648
556.10 0.4276482
556.20 0.9251203
556.30 0.8868804
556.40 1.177378
556.50 0.9656037
556.60 0.7919352
556.70 0.8217504
556.80 1.334854
556.90 1.33264
557.00 1.185448
557.10 1.335643
557.20 1.330991
557.30 1.329828
557.40 1.329855
557.50 1.329855
557.60 1.329855
557.70 1.329855
557.80 1.329855
557.90 1.329855
558.00 1.329855
558.10 1.329855
558.20 1.329875
558.30 1.348164
558.40 1.285172
558.50 1.007226
558.60 1.390536
558.70 1.925403
558.80 1.902205
558.90 1.466901
559.00 1.905909
559.10 2.329648
559.20 2.095971
559.30 1.336567
559.40 1.651213
559.50 2.138627
559.60 1.356185
559.70 0.7590718
559.80 1.338555
559.90 1.427493
560.00 1.080221
560.10 1.666351
560.20 1.984551
560.30 1.932721
560.40 1.145632
560.50 0.8932991
560.60 1.295889
560.70 1.076143
560.80 0.6442573
560.90 1.115976
561.00 1.543316
561.10 1.541073
561.20 1.314056
561.30 1.46148
561.40 2.104356
561.50 1.708474
561.60 1.466358
561.70 1.329001
561.80 1.278026
561.90 1.077946
562.00 0.8837963
562.10 0.8359429
562.20 1.194124
562.30 0.721196
562.40 1.499836
562.50 1.603234
562.60 1.455725
562.70 1.524386
562.80 1.997471
562.90 1.60422
563.00 0.9829359
563.10 0.7329506
563.20 0.4643176
563.30 0.9401996
563.40 1.282944
563.50 1.538577
563.60 1.274474
563.70 0.7558433
563.80 1.018857
563.90 1.239336
564.00 0.6558258
564.10 0.8905338
564.20 1.264561
564.30 1.325766
564.40 1.018794
564.50 1.304136
564.60 2.00735
564.70 1.700304
564.80 1.504277
564.90 1.764679
565.00 1.858363
565.10 1.745633
565.20 0.9840544
565.30 1.194919
565.40 1.940748
565.50 1.720711
565.60 0.8346673
565.70 0.7725179
565.80 1.568322
565.90 1.958392
566.00 1.243951
566.10 1.283306
566.20 1.63983
566.30 2.002945
566.40 1.552332
566.50 0.8265717
566.60 1.095159
566.70 1.599025
566.80 1.348683
566.90 1.533828
567.00 1.780758
567.10 2.067228
567.20 1.874348
567.30 1.650484
567.40 1.228637
567.50 1.403631
567.60 1.014884
567.70 0.7808762
567.80 1.163616
567.90 1.65701
568.00 1.603819
568.10 0.815155
568.20 0.6565847
568.30 1.61232
568.40 2.716772
568.50 2.798991
568.60 2.180628
568.70 1.221749
568.80 1.132327
568.90 1.556895
569.00 1.703961
569.10 1.204287
569.20 1.630963
569.30 2.157396
569.40 1.883298
569.50 1.723906
569.60 1.773685
569.70 2.3878
569.80 2.822437
569.90 2.696199
570.00 1.953648
570.10 1.386277
570.20 1.342539
570.30 2.346071
570.40 2.808152
570.50 2.424834
570.60 1.972297
570.70 2.451884
570.80 2.703102
570.90 1.803983
571.00 1.673664
571.10 1.949105
571.20 1.913202
571.30 2.13819
571.40 2.33786
571.50 1.738822
571.60 1.71677
571.70 1.759045
571.80 1.35693
571.90 1.463295
572.00 1.688593
572.10 1.019328
572.20 0.7646566
572.30 1.505073
572.40 1.895431
572.50 1.725387
572.60 1.525916
572.70 1.491113
572.80 1.630855
572.90 1.829147
573.00 2.345716
573.10 2.031983
573.20 2.030571
573.30 1.934282
573.40 1.585054
573.50 2.005132
573.60 2.391868
573.70 2.132362
573.80 1.441254
573.90 1.259913
574.00 1.685371
574.10 1.935767
574.20 1.929671
574.30 2.278213
574.40 2.841513
574.50 2.260988
574.60 1.516951
574.70 1.69496
574.80 2.504082
574.90 2.478233
575.00 2.15885
575.10 1.995025
575.20 1.760299
575.30 1.521748
575.40 1.957911
575.50 2.597684
575.60 2.281913
575.70 2.385605
575.80 2.234179
575.90 2.334517
576.00 2.311296
576.10 2.4708
576.20 2.37722
576.30 2.532368
576.40 2.776041
576.50 1.933327
576.60 1.106847
576.70 1.016669
576.80 1.5423
576.90 1.589146
577.00 1.798359
577.10 1.839719
577.20 2.09918
577.30 1.800962
577.40 1.707529
577.50 1.971652
577.60 2.033448
577.70 2.145451
577.80 1.858165
577.90 2.070159
578.00 1.837574
578.10 2.002232
578.20 1.799997
578.30 1.341572
578.40 1.630345
578.50 2.433257
578.60 2.204449
578.70 1.896357
578.80 2.311902
578.90 2.448952
579.00 2.122864
579.10 2.03784
579.20 2.17366
579.30 2.197975
579.40 1.565885
579.50 1.436286
579.60 1.934081
579.70 2.447005
579.80 2.487429
579.90 2.660777
580.00 2.468378
580.10 1.806236
580.20 1.930958
580.30 2.637451
580.40 2.183051
580.50 1.624878
580.60 2.230172
580.70 2.754604
580.80 3.299034
580.90 3.249314
581.00 3.011921
581.10 1.805928
581.20 1.902873
581.30 2.266192
581.40 2.091415
581.50 1.642653
581.60 1.442804
581.70 1.199044
581.80 1.65875
581.90 1.831797
582.00 1.999255
582.10 1.960718
582.20 1.785634
582.30 1.791296
582.40 1.748629
582.50 2.136586
582.60 2.222879
582.70 1.774639
582.80 1.609306
582.90 2.141867
583.00 2.097878
583.10 1.667293
583.20 1.197878
583.30 0.7673834
583.40 1.323872
583.50 1.918853
583.60 2.025914
583.70 2.698333
583.80 2.07943
583.90 1.928905
584.00 1.961231
584.10 2.599154
584.20 2.310287
584.30 1.524956
584.40 1.832428
584.50 2.251382
584.60 1.875435
584.70 1.530268
584.80 1.315305
584.90 1.432817
585.00 1.531753
585.10 1.474435
585.20 0.8495719
585.30 0.8813844
585.40 0.9662106
585.50 0.9454626
585.60 1.392789
585.70 1.523613
585.80 1.611148
585.90 1.333691
586.00 0.8496834
586.10 0.532337
586.20 0.9556087
586.30 1.602301
586.40 1.940899
586.50 1.731203
586.60 1.502438
586.70 1.785593
586.80 1.478221
586.90 1.087663
587.00 1.27177
587.10 1.782111
587.20 1.788311
587.30 1.588453
587.40 1.396684
587.50 1.326311
587.60 0.9456389
587.70 0.9652466
587.80 0.5519866
587.90 0.47207
588.00 0.9812417
588.10 0.9992672
588.20 0.8445758
588.30 0.4481837
588.40 0.9041669
588.50 0.7511285
588.60 0.7541988
588.70 1.134332
588.80 1.207136
588.90 1.152737
589.00 1.232413
589.10 1.05102
589.20 1.953666
589.30 2.227996
589.40 0.530453
589.50 0.2970881
589.60 0.101882
589.70 2.471851
589.80 1.940142
589.90 0.2755682
590.00 0.5830255
590.10 0.7998894
590.20 0.3396701
590.30 0.6326518
590.40 0.8801762
590.50 0.9616744
590.60 0.9059797
590.70 0.5681332
590.80 0.2331486
590.90 0.1705655
591.00 0.904916
591.10 0.8130185
591.20 1.072245
591.30 1.245245
591.40 0.8513609
591.50 0.8526892
591.60 1.334086
591.70 1.478995
591.80 0.5461253
591.90 0.1628803
592.00 0.2807726
592.10 0.6709279
592.20 0.8872414
592.30 0.7745754
592.40 0.701485
592.50 0.1103103
592.60 0.1041967
592.70 0.651694
592.80 1.625564
592.90 1.594776
593.00 0.8775473
593.10 0.4352374
593.20 0.8332278
593.30 0.793066
593.40 0.6923836
593.50 0.5605906
593.60 0.4181331
593.70 0.8324887
593.80 0.8734623
593.90 0.6905537
594.00 0.5888575
594.10 0.9759178
594.20 1.22247
594.30 1.270623
594.40 1.196156
594.50 1.042203
594.60 0.99277
594.70 1.412027
594.80 1.599515
594.90 1.671161
595.00 1.646103
595.10 1.267682
595.20 1.465411
595.30 1.496337
595.40 1.082049
595.50 0.6955349
595.60 0.9091912
595.70 1.630673
595.80 1.2322
595.90 1.019547
596.00 1.233781
596.10 1.492578
596.20 1.379988
596.30 1.172505
596.40 1.026095
596.50 1.27359
596.60 1.361824
596.70 1.439268
596.80 1.818922
596.90 1.578658
597.00 1.286011
597.10 1.216532
597.20 1.325258
597.30 1.178263
597.40 1.098569
597.50 1.203591
597.60 0.5287845
597.70 0.1746271
597.80 0.4511553
597.90 0.8696046
598.00 0.8111489
598.10 1.025073
598.20 1.17426
598.30 0.9853385
598.40 1.300426
598.50 2.021944
598.60 1.923273
598.70 1.376946
598.80 1.430534
598.90 1.717518
599.00 1.229016
599.10 1.232542
599.20 1.265416
599.30 1.328663
599.40 1.587804
599.50 1.859946
599.60 1.763494
599.70 1.662636
599.80 2.128895
599.90 2.136861
600.00 1.587004
600.10 1.071505
600.20 1.057809
600.30 1.121616
600.40 1.245296
600.50 1.213774
600.60 1.442406
600.70 1.080649
600.80 0.708246
600.90 1.353992
601.00 1.559679
601.10 1.435316
601.20 1.27617
601.30 1.659943
601.40 1.290759
601.50 0.8191083
601.60 1.505867
601.70 1.637208
601.80 1.570625
601.90 1.836527
602.00 2.194011
602.10 2.085746
602.20 1.941944
602.30 2.069665
602.40 1.54526
602.50 1.147141
602.60 0.9885094
602.70 1.463109
602.80 1.304614
602.90 0.9588298
603.00 0.5867718
603.10 0.8000775
603.20 1.369142
603.30 1.746646
603.40 1.911421
603.50 1.342408
603.60 1.466148
603.70 1.791735
603.80 1.855201
603.90 1.228961
604.00 0.9882998
604.10 1.435902
604.20 1.529048
604.30 1.695071
604.40 1.784164
604.50 1.582681
604.60 1.490627
604.70 1.619093
604.80 1.961805
604.90 1.551002
605.00 1.054134
605.10 0.9966719
605.20 1.484364
605.30 2.011441
605.40 2.092752
605.50 1.560933
605.60 1.408498
605.70 1.914916
605.80 2.17103
605.90 1.796568
606.00 1.745866
606.10 1.729898
606.20 1.829644
606.30 2.007428
606.40 2.073298
606.50 1.785936
606.60 1.658574
606.70 2.095259
606.80 1.881661
606.90 1.613783
607.00 1.477165
607.10 1.658115
607.20 1.869359
607.30 1.836237
607.40 1.458862
607.50 1.600086
607.60 1.829588
607.70 1.997527
607.80 1.952109
607.90 1.891678
608.00 1.927281
608.10 1.856707
608.20 1.678672
608.30 1.70599
608.40 2.083694
608.50 2.099388
608.60 1.547422
608.70 1.157318
608.80 1.303507
608.90 1.845357
609.00 2.029062
609.10 2.007298
609.20 2.012994
609.30 2.035559
609.40 1.866129
609.50 1.703528
609.60 1.764856
609.70 2.126953
609.80 2.522047
609.90 2.56952
610.00 2.691266
610.10 2.609858
610.20 1.92236
610.30 1.58351
610.40 1.503384
610.50 1.608296
610.60 1.3376
610.70 1.295225
610.80 1.629353
610.90 2.184398
611.00 2.634801
611.10 2.630806
611.20 2.531013
611.30 2.268294
611.40 1.979741
611.50 1.701069
611.60 1.519202
611.70 1.703905
611.80 1.604507
611.90 1.699547
612.00 1.788991
612.10 1.770339
612.20 1.881037
612.30 2.253978
612.40 2.282833
612.50 1.713757
612.60 1.5929
612.70 1.677504
612.80 1.547754
612.90 1.469001
613.00 1.429094
613.10 1.42744
613.20 1.56881
613.30 1.719425
613.40 1.562503
613.50 1.750964
613.60 2.031747
613.70 2.070835
613.80 1.982815
613.90 1.768941
614.00 1.923308
614.10 1.730028
614.20 1.463958
614.30 1.05583
614.40 1.011177
614.50 1.690234
614.60 2.053206
614.70 1.58044
614.80 0.6872503
614.90 0.5616395
615.00 0.8865306
615.10 0.9791365
615.20 1.083209
615.30 1.505098
615.40 1.641532
615.50 1.510316
615.60 1.257133
615.70 1.041519
615.80 1.458506
615.90 1.565679
616.00 1.242731
616.10 0.5629611
616.20 0.6297825
616.30 1.246255
616.40 1.490701
616.50 1.101985
616.60 0.3358013
616.70 0.4248459
616.80 0.550646
616.90 0.7403479
617.00 0.9382083
617.10 0.7710079
617.20 0.5862787
617.30 0.6426606
617.40 0.9642024
617.50 0.9114398
617.60 0.4778606
617.70 0.6032724
617.80 0.9808191
617.90 0.9673947
618.00 0.6172996
618.10 0.6659792
618.20 0.9608347
618.30 0.471479
618.40 0.202848
618.50 0.4803407
618.60 0.880504
618.70 0.9047468
618.80 0.8466885
618.90 0.8547732
619.00 1.034077
619.10 1.158911
619.20 1.270041
619.30 1.99014
619.40 2.267032
619.50 1.727982
619.60 1.172557
619.70 0.8317628
619.80 0.653789
619.90 0.4894025
620.00 0.8363206
620.10 0.6512083
620.20 0.297064
620.30 0.5042146
620.40 0.9506656
620.50 1.401476
620.60 1.473214
620.70 1.149717
620.80 0.9764002
620.90 1.155178
621.00 1.223702
621.10 0.82795
621.20 0.6940193
621.30 0.4768364
621.40 0.535489
621.50 0.671971
621.60 0.7793162
621.70 0.7169045
621.80 1.137872
621.90 1.579042
622.00 1.553808
622.10 1.20587
622.20 0.8842028
622.30 0.6018242
622.40 0.7072671
622.50 1.032346
622.60 1.304262
622.70 1.361743
622.80 0.8246795
622.90 0.7425147
623.00 0.8226108
623.10 1.074585
623.20 1.431823
623.30 1.771541
623.40 1.103299
623.50 0.22961
623.60 0.2957028
623.70 0.5073963
623.80 0.1721757
623.90 0.1934522
624.00 0.8229095
624.10 1.392052
624.20 1.495096
624.30 1.069809
624.40 0.9683954
624.50 1.270664
624.60 1.4512
624.70 1.140435
624.80 0.7144268
624.90 0.7019644
625.00 0.7629695
625.10 0.9272169
625.20 0.5770929
625.30 0.9494784
625.40 1.651907
625.50 0.6098948
625.60 0.1752246
625.70 0.1649887
625.80 0.9295935
625.90 0.9049992
626.00 0.752744
626.10 0.9803023
626.20 1.37094
626.30 1.549499
626.40 0.9155437
626.50 0.5159116
626.60 0.7972883
626.70 1.041798
626.80 1.282478
626.90 1.673849
627.00 1.677559
627.10 1.434245
627.20 1.06683
627.30 0.9104916
627.40 1.19939
627.50 1.395269
627.60 1.249785
627.70 0.9437797
627.80 1.052506
627.90 1.304566
628.00 1.315554
628.10 1.272433
628.20 1.391014
628.30 1.686468
628.40 1.455981
628.50 0.8045466
628.60 0.4859782
628.70 1.414978
628.80 1.430247
628.90 1.140251
629.00 1.389428
629.10 1.513493
629.20 1.282642
629.30 1.217783
629.40 1.499539
629.50 1.879972
629.60 1.516668
629.70 0.3709414
629.80 1.326277
629.90 1.958447
630.00 1.685399
630.10 0.1844204
630.20 1.020866
630.30 2.302182
630.40 2.56429
630.50 3.694151
630.60 1.902998
630.70 1.151244
630.80 1.614528
630.90 1.776506
631.00 1.856052
631.10 1.819532
631.20 2.464418
631.30 2.523896
631.40 2.130731
631.50 1.889373
631.60 1.679065
631.70 1.894213
631.80 2.228699
631.90 2.109012
632.00 1.668068
632.10 1.874898
632.20 2.330402
632.30 2.365671
632.40 2.122229
632.50 1.980532
632.60 1.825875
632.70 1.906891
632.80 1.982894
632.90 2.372983
633.00 2.476813
633.10 1.933841
633.20 1.792728
633.30 2.159653
633.40 2.708982
633.50 2.805732
633.60 2.524515
633.70 2.641389
633.80 2.757389
633.90 2.818003
634.00 2.536281
634.10 2.049655
634.20 2.643553
634.30 3.293173
634.40 3.122982
634.50 2.770378
634.60 2.929734
634.70 3.129908
634.80 3.078834
634.90 2.878262
635.00 2.983174
635.10 2.727395
635.20 2.435583
635.30 2.62679
635.40 2.610517
635.50 2.197187
635.60 2.174752
635.70 3.024152
635.80 3.279127
635.90 2.741802
636.00 2.527788
636.10 2.481447
636.20 2.631575
636.30 2.802267
636.40 2.949157
636.50 2.56967
636.60 2.27447
636.70 2.001872
636.80 1.992375
636.90 2.364226
637.00 2.787468
637.10 3.07776
637.20 2.825618
637.30 2.440874
637.40 2.580754
637.50 2.744904
637.60 2.757863
637.70 2.733625
637.80 2.544519
637.90 2.409899
638.00 2.240013
638.10 2.24877
638.20 2.217158
638.30 2.248947
638.40 2.454958
638.50 2.313692
638.60 2.557163
638.70 2.844311
638.80 2.808706
638.90 2.680691
639.00 2.529753
639.10 2.653193
639.20 2.465027
639.30 2.378368
639.40 2.613262
639.50 2.801614
639.60 2.778439
639.70 2.519794
639.80 2.458643
639.90 2.723706
640.00 3.193088
640.10 3.415398
640.20 3.105604
640.30 2.881676
640.40 2.932974
640.50 3.034715
640.60 3.067275
640.70 3.05046
640.80 2.952944
640.90 2.93591
641.00 2.714747
641.10 2.737928
641.20 2.967005
641.30 2.963502
641.40 3.016064
641.50 2.951904
641.60 2.800973
641.70 2.762205
641.80 3.060256
641.90 3.056149
642.00 3.043328
642.10 3.009809
642.20 2.638069
642.30 2.292447
642.40 2.144169
642.50 2.616783
642.60 2.703971
642.70 2.551471
642.80 2.576785
642.90 2.862683
643.00 3.224632
643.10 3.056913
643.20 3.075876
643.30 3.11088
643.40 3.387672
643.50 3.170324
643.60 2.682593
643.70 2.790324
643.80 3.105165
643.90 3.332576
644.00 3.325356
644.10 3.174515
644.20 3.148705
644.30 3.174381
644.40 3.203252
644.50 2.924014
644.60 2.737973
644.70 3.183129
644.80 3.024587
644.90 2.535839
645.00 2.532266
645.10 2.790138
645.20 2.874305
645.30 2.874031
645.40 2.762913
645.50 2.639787
645.60 3.234077
645.70 3.438374
645.80 3.121572
645.90 2.604788
646.00 2.613502
646.10 3.17047
646.20 3.260742
646.30 2.672069
646.40 2.599467
646.50 3.045894
646.60 3.029744
646.70 2.795294
646.80 2.856039
646.90 3.039362
647.00 3.194029
647.10 3.344735
647.20 3.358723
647.30 3.414833
647.40 3.650297
647.50 3.514894
647.60 3.211438
647.70 3.127584
647.80 3.187115
647.90 3.275361
648.00 3.202929
648.10 3.053313
648.20 3.317235
648.30 3.355003
648.40 3.179391
648.50 3.157967
648.60 3.136833
648.70 3.163173
648.80 3.112833
648.90 2.916606
649.00 3.22968
649.10 3.451356
649.20 3.397495
649.30 3.447482
649.40 3.329051
649.50 3.296742
649.60 3.33174
649.70 3.516031
649.80 3.351575
649.90 3.430697
650.00 4.10786
650.10 4.456469
650.20 4.482845
650.30 4.163511
650.40 3.904588
650.50 3.655581
650.60 3.598785
650.70 4.197596
650.80 4.368516
650.90 4.272853
651.00 4.403138
651.10 4.730422
651.20 5.067846
651.30 4.997159
651.40 4.621181
651.50 4.371254
651.60 4.520448
651.70 4.432844
651.80 4.494504
651.90 4.850196
652.00 5.371866
652.10 5.443661
652.20 5.363963
652.30 5.315336
652.40 5.645818
652.50 6.241666
652.60 6.267067
652.70 6.283645
652.80 6.464647
652.90 6.608266
653.00 6.742228
653.10 6.486162
653.20 6.348464
653.30 6.171981
653.40 6.54403
653.50 7.427844
653.60 7.215383
653.70 6.722016
653.80 6.773338
653.90 7.212575
654.00 7.652258
654.10 7.923431
654.20 7.816202
654.30 7.133224
654.40 6.816448
654.50 6.765176
654.60 6.531105
654.70 6.372419
654.80 6.451336
654.90 6.678401
655.00 6.52771
655.10 5.928083
655.20 5.767022
655.30 6.121333
655.40 5.991639
655.50 5.85978
655.60 5.946222
655.70 5.93667
655.80 5.961446
655.90 6.158171
656.00 6.725633
656.10 7.116063
656.20 8.813558
656.30 11.88
656.40 13.97343
656.50 13.18896
656.60 10.11953
656.70 7.064548
656.80 5.178409
656.90 4.919887
657.00 5.079024
657.10 4.829326
657.20 4.551844
657.30 4.511514
657.40 4.24844
657.50 4.287189
657.60 4.870878
657.70 5.269657
657.80 4.534146
657.90 3.912449
658.00 4.294861
658.10 4.371971
658.20 4.108584
658.30 3.831881
658.40 3.831635
658.50 4.070803
658.60 4.591834
658.70 5.553603
658.80 5.740545
658.90 5.389153
659.00 4.854306
659.10 4.51557
659.20 4.660702
659.30 4.730374
659.40 4.613595
659.50 4.332794
659.60 4.410078
659.70 4.585143
659.80 4.22751
659.90 4.051008
660.00 4.24823
660.10 4.247075
660.20 4.206317
660.30 4.316715
660.40 4.462026
660.50 4.616268
660.60 4.732096
660.70 4.69332
660.80 4.435535
660.90 4.507595
661.00 4.568685
661.10 4.673579
661.20 4.76516
661.30 4.872955
661.40 4.962202
661.50 4.813161
661.60 4.630352
661.70 4.487249
661.80 4.760977
661.90 4.750459
662.00 4.395609
662.10 4.226163
662.20 4.29041
662.30 4.33634
662.40 4.06908
662.50 4.093218
662.60 3.959832
662.70 3.550948
662.80 3.597595
662.90 3.530008
663.00 3.593907
663.10 3.838517
663.20 4.239459
663.30 4.524459
663.40 4.185654
663.50 3.636668
663.60 3.701013
663.70 4.014793
663.80 3.82423
663.90 3.537445
664.00 3.362495
664.10 3.474719
664.20 3.630467
664.30 3.967572
664.40 4.203039
664.50 4.138465
664.60 4.083602
664.70 3.990603
664.80 4.038442
664.90 3.996467
665.00 3.773095
665.10 3.538364
665.20 2.932853
665.30 2.758039
665.40 3.157601
665.50 3.021933
665.60 3.054113
665.70 3.141833
665.80 2.833824
665.90 2.600754
666.00 2.866968
666.10 3.370776
666.20 3.566977
666.30 3.471596
666.40 3.61682
666.50 3.684197
666.60 3.621164
666.70 3.664198
666.80 3.830648
666.90 4.003946
667.00 3.97153
667.10 3.790584
667.20 3.650982
667.30 3.574904
667.40 3.451538
667.50 3.692148
667.60 3.872998
667.70 4.218116
667.80 4.215065
667.90 4.081752
668.00 3.756412
668.10 3.59167
668.20 3.50907
668.30 3.023946
668.40 3.258224
668.50 3.535165
668.60 3.60122
668.70 3.390959
668.80 3.088244
668.90 2.957878
669.00 2.756315
669.10 3.130261
669.20 3.745477
669.30 3.721879
669.40 3.178838
669.50 2.974609
669.60 3.223231
669.70 3.642761
669.80 3.796566
669.90 3.416216
670.00 3.075789
670.10 3.350124
670.20 3.680785
670.30 3.791329
670.40 3.858711
670.50 3.972661
670.60 4.365799
670.70 4.517022
670.80 4.507214
670.90 4.221795
671.00 3.997879
671.10 4.143803
671.20 4.352194
671.30 4.41623
671.40 3.970126
671.50 3.481095
671.60 3.11521
671.70 3.029415
671.80 2.906809
671.90 2.598109
672.00 2.708101
672.10 2.885866
672.20 2.974161
672.30 3.045428
672.40 3.116994
672.50 3.269397
672.60 3.22951
672.70 3.289505
672.80 3.417838
672.90 3.39657
673.00 3.293506
673.10 3.245542
673.20 3.306472
673.30 3.387712
673.40 3.24381
673.50 3.106297
673.60 3.235283
673.70 3.502152
673.80 3.496352
673.90 3.477344
674.00 3.547516
674.10 3.603621
674.20 3.657036
674.30 3.800657
674.40 3.877477
674.50 3.577412
674.60 3.504206
674.70 3.591854
674.80 3.380325
674.90 3.030378
675.00 2.911472
675.10 3.130001
675.20 3.304592
675.30 3.230723
675.40 2.963876
675.50 3.135823
675.60 3.451101
675.70 3.624194
675.80 3.631491
675.90 3.516348
676.00 3.649943
676.10 3.940768
676.20 3.788582
676.30 3.736671
676.40 3.726834
676.50 3.502441
676.60 4.136682
676.70 4.541808
676.80 4.359801
676.90 4.423599
677.00 4.66564
677.10 5.181213
677.20 5.144772
677.30 4.620937
677.40 4.363547
677.50 4.501106
677.60 4.552387
677.70 4.458427
677.80 4.469433
677.90 4.577993
678.00 4.613965
678.10 4.110041
678.20 3.652829
678.30 3.663329
678.40 3.583331
678.50 3.287769
678.60 2.842184
678.70 2.665491
678.80 2.820433
678.90 3.24536
679.00 3.67108
679.10 3.86739
679.20 3.798322
679.30 3.317804
679.40 3.194914
679.50 3.550248
679.60 3.850757
679.70 3.948593
679.80 3.807608
679.90 3.695556
680.00 3.822276
680.10 4.243707
680.20 4.452926
680.30 4.302179
680.40 4.210038
680.50 4.052901
680.60 4.083855
680.70 4.261063
680.80 4.363195
680.90 4.453348
681.00 4.05493
681.10 4.05081
681.20 4.589382
681.30 4.804883
681.40 4.631175
681.50 4.174186
681.60 4.006428
681.70 4.205326
681.80 4.227658
681.90 4.05169
682.00 3.940315
682.10 3.985773
682.20 4.196186
682.30 4.131721
682.40 3.937175
682.50 3.978314
682.60 4.288584
682.70 4.552697
682.80 4.397421
682.90 4.264548
683.00 4.409534
683.10 4.397093
683.20 4.60136
683.30 4.650624
683.40 4.374101
683.50 4.612908
683.60 5.077598
683.70 5.356236
683.80 5.152122
683.90 4.891496
684.00 4.665564
684.10 4.743933
684.20 5.00194
684.30 4.936503
684.40 4.877042
684.50 4.770354
684.60 4.761764
684.70 4.734794
684.80 4.654748
684.90 4.69083
685.00 4.674968
685.10 4.438875
685.20 4.354394
685.30 4.280543
685.40 4.234795
685.50 4.290176
685.60 4.3397
685.70 4.473816
685.80 4.346107
685.90 4.286574
686.00 4.448087
686.10 4.378121
686.20 4.028728
686.30 3.973763
686.40 4.233782
686.50 4.444019
686.60 4.173739
686.70 3.775245
686.80 4.598351
686.90 4.911938
687.00 3.807406
687.10 3.674832
687.20 4.45079
687.30 5.029483
687.40 5.143147
687.50 4.98331
687.60 5.204799
687.70 5.315116
687.80 5.190975
687.90 5.389734
688.00 5.582199
688.10 5.482081
688.20 5.417195
688.30 5.460436
688.40 5.408071
688.50 5.234234
688.60 5.346724
688.70 5.635275
688.80 5.485567
688.90 5.617583
689.00 5.676004
689.10 5.20391
689.20 4.600942
689.30 4.076483
689.40 4.589854
689.50 5.287485
689.60 5.264173
689.70 5.219125
689.80 5.199559
689.90 5.186135
690.00 5.096537
690.10 4.870445
690.20 4.716233
690.30 4.636215
690.40 4.866557
690.50 5.316956
690.60 5.324975
690.70 5.35463
690.80 5.792692
690.90 5.87896
691.00 5.622309
691.10 5.683265
691.20 5.950219
691.30 6.003846
691.40 5.730175
691.50 5.821628
691.60 6.161329
691.70 6.048808
691.80 5.591612
691.90 5.411838
692.00 5.415017
692.10 5.550928
692.20 5.508341
692.30 5.263899
692.40 5.784847
692.50 6.383436
692.60 6.623549
692.70 6.973194
692.80 6.852889
692.90 6.422552
693.00 6.048131
693.10 6.003528
693.20 6.402438
693.30 6.775454
693.40 7.084256
693.50 6.863014
693.60 6.627664
693.70 6.950936
693.80 7.055893
693.90 7.016252
694.00 6.797099
694.10 6.596396
694.20 6.76514
694.30 7.098424
694.40 7.952344
694.50 8.367219
694.60 8.316228
694.70 8.778174
694.80 9.312284
694.90 9.677691
695.00 9.612242
695.10 9.155575
695.20 8.627806
695.30 8.150806
695.40 7.96402
695.50 7.858081
695.60 8.00585
695.70 8.04196
695.80 7.936958
695.90 7.962232
696.00 8.022086
696.10 8.204742
696.20 8.070488
696.30 7.958248
696.40 8.37007
696.50 8.888754
696.60 9.190231
696.70 9.263028
696.80 9.3967
696.90 9.454854
697.00 9.225978
697.10 8.723787
697.20 8.498659
697.30 9.135647
697.40 9.089684
697.50 8.533556
697.60 8.870107
697.70 9.526424
697.80 10.18413
697.90 10.41537
698.00 10.17875
698.10 9.885994
698.20 9.835206
698.30 10.1852
698.40 10.39177
698.50 10.17244
698.60 10.19641
698.70 10.21489
698.80 10.21642
698.90 10.07497
699.00 10.32114
699.10 10.34293
699.20 9.799756
699.30 9.406943
699.40 9.558577
699.50 10.05305
699.60 10.04027
699.70 9.719413
699.80 9.363414
699.90 9.324899
700.00 9.690696
700.10 9.84301
700.20 9.665498
700.30 9.666197
700.40 9.901287
700.50 9.977141
700.60 9.839802
700.70 9.870675
700.80 10.15703
700.90 10.3736
701.00 10.76321
701.10 11.15807
701.20 11.30999
701.30 11.20228
701.40 10.80707
701.50 10.70894
701.60 11.03265
701.70 11.20721
701.80 11.21066
701.90 11.06651
702.00 11.28898
702.10 12.05664
702.20 12.37206
702.30 11.98725
702.40 11.35295
702.50 10.7569
702.60 10.7519
702.70 11.32255
702.80 12.28704
702.90 13.14226
703.00 13.45438
703.10 13.5095
703.20 13.22496
703.30 13.12137
703.40 13.34965
703.50 13.70219
703.60 14.31323
703.70 14.86947
703.80 15.13279
703.90 14.93154
704.00 14.2532
704.10 14.01685
704.20 14.46837
704.30 14.90198
704.40 15.2646
704.50 15.45037
704.60 15.461
704.70 15.42165
704.80 15.21019
704.90 15.27203
705.00 15.382
705.10 15.88144
705.20 16.28247
705.30 15.5232
705.40 13.70215
705.50 10.98441
705.60 8.096452
705.70 6.064498
705.80 5.488269
705.90 5.447758
706.00 5.112919
706.10 4.893433
706.20 4.83288
706.30 4.900922
706.40 5.157659
706.50 5.281963
706.60 5.381498
706.70 5.365427
706.80 5.344849
706.90 5.712894
707.00 5.982324
707.10 6.014319
707.20 6.123159
707.30 6.257904
707.40 6.21304
707.50 6.285112
707.60 6.318922
707.70 6.168752
707.80 6.026222
707.90 6.067298
708.00 6.627336
708.10 7.371263
708.20 7.383203
708.30 7.148803
708.40 7.022255
708.50 6.968675
708.60 7.146034
708.70 7.255777
708.80 6.92959
708.90 5.795088
709.00 4.401673
709.10 3.804028
709.20 4.114589
709.30 4.440487
709.40 4.454259
709.50 4.330024
709.60 4.166624
709.70 4.366615
709.80 4.69621
709.90 4.649398
710.00 4.367255
710.10 4.382111
710.20 4.480781
710.30 4.490929
710.40 4.59294
710.50 4.699345
710.60 4.807344
710.70 4.70235
710.80 4.798747
710.90 5.448793
711.00 5.911966
711.10 5.859368
711.20 5.661759
711.30 5.550614
711.40 5.696759
711.50 5.914916
711.60 6.072403
711.70 6.034498
711.80 5.83585
711.90 6.053886
712.00 6.618853
712.10 6.984507
712.20 7.006768
712.30 6.706852
712.40 6.318948
712.50 5.978197
712.60 5.584949
712.70 5.130919
712.80 4.652922
712.90 3.910698
713.00 3.607459
713.10 3.903651
713.20 4.065779
713.30 4.078176
713.40 4.001487
713.50 3.978462
713.60 3.959776
713.70 3.822422
713.80 3.809955
713.90 4.061893
714.00 4.346495
714.10 4.304313
714.20 4.301674
714.30 4.345537
714.40 4.308365
714.50 4.259875
714.60 4.267362
714.70 4.512654
714.80 4.613877
714.90 4.610108
715.00 4.638634
715.10 4.368963
715.20 4.149618
715.30 4.179384
715.40 4.44886
715.50 4.947316
715.60 5.408408
715.70 5.572336
715.80 5.351836
715.90 4.872986
716.00 4.831601
716.10 5.135029
716.20 4.857559
716.30 4.403289
716.40 4.245108
716.50 4.571013
716.60 5.309636
716.70 5.509316
716.80 4.999574
716.90 4.651346
717.00 4.751294
717.10 5.012496
717.20 5.30569
717.30 5.544858
717.40 5.548262
717.50 5.599807
717.60 5.696994
717.70 5.496707
717.80 5.328103
717.90 5.178059
718.00 5.210931
718.10 5.626208
718.20 5.991219
718.30 6.16053
718.40 6.105104
718.50 6.035817
718.60 6.26718
718.70 6.5569
718.80 6.692417
718.90 6.844197
719.00 7.130005
719.10 7.201391
719.20 7.100481
719.30 7.054147
719.40 6.956885
719.50 7.101028
719.60 6.990305
719.70 6.647354
719.80 6.324772
719.90 5.580712
720.00 5.251041
720.10 5.661918
720.20 6.025437
720.30 6.271808
720.40 6.074588
720.50 5.828149
720.60 6.046225
720.70 6.088214
720.80 6.030484
720.90 6.07955
721.00 6.159645
721.10 6.10322
721.20 6.076225
721.30 6.320045
721.40 6.88096
721.50 7.231309
721.60 6.826905
721.70 6.417996
721.80 6.702142
721.90 7.227665
722.00 7.358145
722.10 7.184322
722.20 7.016802
722.30 7.117803
722.40 7.590874
722.50 7.931648
722.60 7.936806
722.70 8.170072
722.80 8.601699
722.90 8.640016
723.00 8.240777
723.10 7.806957
723.20 7.646854
723.30 7.840587
723.40 8.141932
723.50 8.470709
723.60 8.627804
723.70 8.552745
723.80 8.676081
723.90 9.266443
724.00 9.38085
724.10 8.598174
724.20 7.993928
724.30 8.080881
724.40 9.344324
724.50 10.16805
724.60 9.556306
724.70 9.330877
724.80 9.835292
724.90 10.28656
725.00 10.51942
725.10 10.66981
725.20 10.89092
725.30 10.96786
725.40 10.98543
725.50 11.21673
725.60 11.61566
725.70 12.06598
725.80 11.82024
725.90 11.1636
726.00 11.13642
726.10 11.32843
726.20 11.54383
726.30 12.05151
726.40 12.58985
726.50 13.14161
726.60 13.36974
726.70 12.9129
726.80 12.81821
726.90 13.0814
727.00 12.89902
727.10 12.60811
727.20 12.37206
727.30 12.05185
727.40 12.04995
727.50 12.65931
727.60 13.62072
727.70 14.15253
727.80 12.27664
727.90 10.41647
728.00 11.6146
728.10 13.12804
728.20 13.16669
728.30 12.80722
728.40 12.93062
728.50 13.66117
728.60 13.98576
728.70 13.79051
728.80 13.95466
728.90 14.57996
729.00 15.20584
729.10 15.41
729.20 15.34226
729.30 15.25864
729.40 15.20656
729.50 15.53174
729.60 15.91149
729.70 16.52915
729.80 17.04058
729.90 16.73565
730.00 16.52793
730.10 16.84601
730.20 17.28632
730.30 17.73354
730.40 18.26854
730.50 18.62909
730.60 18.73703
730.70 18.45952
730.80 18.18893
730.90 18.81786
731.00 19.50383
731.10 19.49027
731.20 19.10574
731.30 19.12232
731.40 20.2155
731.50 21.45733
731.60 21.37686
731.70 20.44856
731.80 20.51022
731.90 21.28337
732.00 21.63183
732.10 21.75558
732.20 21.89852
732.30 22.02601
732.40 22.08592
732.50 21.84509
732.60 21.47933
732.70 21.20542
732.80 21.23496
732.90 21.83201
733.00 22.17702
733.10 22.49501
733.20 22.57783
733.30 22.21645
733.40 21.8503
733.50 21.59087
733.60 22.34788
733.70 23.75563
733.80 24.54222
733.90 25.07728
734.00 26.09636
734.10 27.00635
734.20 27.11085
734.30 26.1199
734.40 24.59116
734.50 23.27295
734.60 22.46011
734.70 21.99207
734.80 21.8206
734.90 22.3652
735.00 23.33518
735.10 24.18918
735.20 24.63046
735.30 24.59947
735.40 24.3653
735.50 24.00777
735.60 23.57818
735.70 22.95053
735.80 22.52871
735.90 23.23071
736.00 24.25646
736.10 24.40118
736.20 24.27975
736.30 24.42339
736.40 24.9827
736.50 26.04602
736.60 26.76337
736.70 26.75966
736.80 26.7967
736.90 27.54099
737.00 28.27435
737.10 27.76822
737.20 27.14694
737.30 27.153
737.40 27.04803
737.50 26.5619
737.60 25.52298
737.70 24.87198
737.80 25.10945
737.90 25.84876
738.00 26.57813
738.10 26.94528
738.20 27.08123
738.30 26.88978
738.40 26.58404
738.50 26.41981
738.60 26.50011
738.70 27.03413
738.80 27.7637
738.90 28.73353
739.00 29.66618
739.10 29.92848
739.20 29.62708
739.30 28.45932
739.40 26.79235
739.50 25.3594
739.60 24.42277
739.70 24.45488
739.80 25.14607
739.90 26.31303
740.00 27.27334
740.10 27.27014
740.20 27.42833
740.30 28.33856
740.40 28.79401
740.50 27.98298
740.60 25.75857
740.70 24.32575
740.80 24.77378
740.90 25.49113
741.00 26.22593
741.10 26.89526
741.20 27.25675
741.30 27.677
741.40 28.15885
741.50 28.17915
741.60 27.48373
741.70 26.51024
741.80 25.78727
741.90 25.28327
742.00 24.69631
742.10 24.30364
742.20 24.3663
742.30 24.98679
742.40 25.86611
742.50 26.69389
742.60 27.215
742.70 27.38898
742.80 27.75947
742.90 28.03806
743.00 28.17536
743.10 28.27807
743.20 27.89326
743.30 27.41432
743.40 26.88512
743.50 26.10764
743.60 25.28578
743.70 24.60995
743.80 24.6309
743.90 25.36167
744.00 26.08698
744.10 26.60451
744.20 26.94675
744.30 26.22572
744.40 25.14411
744.50 24.78895
744.60 24.66142
744.70 24.81362
744.80 24.78775
744.90 24.2023
745.00 24.14662
745.10 25.17589
745.20 26.20764
745.30 26.42905
745.40 26.22489
745.50 25.8045
745.60 25.44783
745.70 25.20468
745.80 25.02137
745.90 25.15191
746.00 25.29699
746.10 25.49238
746.20 25.66275
746.30 25.9323
746.40 26.39978
746.50 26.80084
746.60 27.11935
746.70 27.24402
746.80 27.03785
746.90 26.46431
747.00 26.24513
747.10 27.03133
747.20 28.26339
747.30 28.15235
747.40 26.64845
747.50 25.26042
747.60 24.61911
747.70 25.14132
747.80 26.29765
747.90 26.93232
748.00 26.9258
748.10 27.20967
748.20 27.71304
748.30 28.08786
748.40 28.87086
748.50 29.64825
748.60 29.69591
748.70 29.22945
748.80 28.63454
748.90 28.38824
749.00 28.7873
749.10 28.8488
749.20 28.33272
749.30 27.93611
749.40 27.44064
749.50 26.90355
749.60 26.70527
749.70 26.86618
749.80 27.346
749.90 28.06995
750.00 29.13867
750.10 29.9529
750.20 30.07752
750.30 30.22602
750.40 30.50611
750.50 30.35157
750.60 29.74331
750.70 29.00259
750.80 28.67373
750.90 29.21467
751.00 30.33375
751.10 31.34846
751.20 31.55618
751.30 30.63284
751.40 29.56815
751.50 29.5217
751.60 29.84272
751.70 30.03205
751.80 30.08993
751.90 29.96397
752.00 29.83822
752.10 29.7048
752.20 29.54543
752.30 29.84237
752.40 31.02549
752.50 31.52592
752.60 30.77252
752.70 29.93407
752.80 29.19959
752.90 29.08653
753.00 29.86593
753.10 30.98837
753.20 32.12484
753.30 32.69415
753.40 32.15988
753.50 31.18004
753.60 30.62593
753.70 30.78043
753.80 31.86451
753.90 33.33984
754.00 34.50199
754.10 35.07737
754.20 34.81334
754.30 34.23801
754.40 34.29434
754.50 34.66137
754.60 34.97313
754.70 34.91934
754.80 34.26687
754.90 33.63065
755.00 33.34059
755.10 33.71394
755.20 34.51202
755.30 34.75143
755.40 34.33089
755.50 33.89626
755.60 33.88218
755.70 34.05031
755.80 34.42301
755.90 35.23764
756.00 36.06704
756.10 36.68889
756.20 36.6153
756.30 35.94842
756.40 35.68599
756.50 35.19102
756.60 34.29234
756.70 33.76295
756.80 33.25533
756.90 32.69133
757.00 32.27981
757.10 32.29723
757.20 33.41028
757.30 35.72565
757.40 37.56355
757.50 37.22476
757.60 35.87678
757.70 35.09307
757.80 34.62276
757.90 34.40286
758.00 34.71503
758.10 35.58225
758.20 36.86952
758.30 37.81936
758.40 38.01272
758.50 37.94533
758.60 37.5343
758.70 35.80304
758.80 32.613
758.90 28.56303
759.00 24.34148
759.10 20.65818
759.20 17.79291
759.30 16.45555
759.40 17.09038
759.50 18.35848
759.60 19.37946
759.70 19.70928
759.80 18.87262
759.90 18.79967
760.00 20.30124
760.10 21.6906
760.20 21.74058
760.30 20.35373
760.40 19.20178
760.50 19.66476
760.60 20.20778
760.70 19.95177
760.80 19.64693
760.90 19.70362
761.00 20.02117
761.10 20.76845
761.20 21.79397
761.30 22.97861
761.40 24.05468
761.50 24.09742
761.60 23.46108
761.70 23.2499
761.80 23.88124
761.90 25.10461
762.00 26.23275
762.10 26.37491
762.20 25.43837
762.30 24.11548
762.40 23.11233
762.50 22.72522
762.60 22.24535
762.70 21.17305
762.80 19.49447
762.90 16.93322
763.00 14.49843
763.10 13.33366
763.20 13.63679
763.30 14.71233
763.40 15.32938
763.50 15.21174
763.60 14.56996
763.70 14.15169
763.80 14.58822
763.90 14.92444
764.00 14.53102
764.10 14.18961
764.20 14.18592
764.30 14.44969
764.40 14.79223
764.50 14.82588
764.60 14.3942
764.70 13.92152
764.80 13.73078
764.90 13.62289
765.00 13.43225
765.10 13.08506
765.20 12.84358
765.30 13.01473
765.40 13.04944
765.50 12.33244
765.60 11.03683
765.70 10.0696
765.80 9.830905
765.90 9.818076
766.00 9.553074
766.10 8.796427
766.20 7.771167
766.30 6.629775
766.40 5.695008
766.50 5.035184
766.60 4.5479
766.70 4.516676
766.80 4.933529
766.90 5.69675
767.00 6.406406
767.10 6.703539
767.20 6.82652
767.30 6.986571
767.40 7.255306
767.50 7.676045
767.60 8.11566
767.70 8.49977
767.80 8.685116
767.90 8.699771
768.00 8.969481
768.10 9.613508
768.20 10.11653
768.30 10.17888
768.40 10.2256
768.50 10.347
768.60 10.35803
768.70 10.21873
768.80 9.877685
768.90 9.629989
769.00 9.73944
769.10 10.06612
769.20 10.14804
769.30 9.879729
769.40 9.506201
769.50 8.958013
769.60 8.279635
769.70 7.525543
769.80 6.716865
769.90 5.839414
770.00 4.886518
770.10 4.720911
770.20 5.494781
770.30 6.388768
770.40 7.087302
770.50 7.577805
770.60 7.996299
770.70 8.37199
770.80 8.829798
770.90 9.41642
771.00 9.918299
771.10 10.57424
771.20 10.89506
771.30 10.83368
771.40 11.59946
771.50 12.20557
771.60 11.75866
771.70 11.45796
771.80 11.41896
771.90 11.95824
772.00 12.97933
772.10 13.03618
772.20 12.7405
772.30 13.45809
772.40 14.35307
772.50 14.59669
772.60 14.62453
772.70 14.43753
772.80 14.22028
772.90 14.67297
773.00 15.736
773.10 16.98384
773.20 17.78971
773.30 17.8078
773.40 17.5923
773.50 17.46022
773.60 17.39021
773.70 17.67719
773.80 18.32659
773.90 19.01074
774.00 19.59839
774.10 19.80772
774.20 19.44699
774.30 19.03483
774.40 18.563
774.50 17.28751
774.60 15.70457
774.70 15.13922
774.80 15.20944
774.90 15.07452
775.00 14.57146
775.10 13.3983
775.20 12.59749
775.30 13.23469
775.40 14.15514
775.50 14.35215
775.60 14.12571
775.70 13.895
775.80 13.9041
775.90 14.28735
776.00 14.69141
776.10 14.79887
776.20 14.60713
776.30 14.14953
776.40 14.13598
776.50 14.73954
776.60 15.03196
776.70 15.00378
776.80 15.52873
776.90 16.33202
777.00 16.84967
777.10 17.11232
777.20 17.11728
777.30 17.18747
777.40 17.64772
777.50 18.15626
777.60 18.34644
777.70 18.21606
777.80 17.86473
777.90 18.04039
778.00 18.74123
778.10 19.06143
778.20 18.79321
778.30 17.62793
778.40 15.99538
778.50 14.99325
778.60 14.75795
778.70 14.87558
778.80 15.20521
778.90 15.56407
779.00 15.86995
779.10 16.81175
779.20 18.00084
779.30 18.82903
779.40 19.21342
779.50 18.84437
779.60 18.58456
779.70 18.48764
779.80 17.57015
779.90 16.67104
780.00 15.84817
780.10 14.53994
780.20 14.06802
780.30 15.00016
780.40 16.77444
780.50 18.95029
780.60 20.46035
780.70 20.93774
780.80 21.25067
780.90 21.7737
781.00 21.84358
781.10 21.4515
781.20 21.37345
781.30 21.62188
781.40 22.17589
781.50 22.84243
781.60 23.02548
781.70 23.10154
781.80 23.41657
781.90 24.03403
782.00 24.23713
782.10 22.60342
782.20 20.7612
782.30 20.14352
782.40 19.69545
782.50 19.82977
782.60 20.0536
782.70 19.80081
782.80 19.646
782.90 19.06543
783.00 17.88622
783.10 17.05612
783.20 17.12511
783.30 17.86283
783.40 18.73025
783.50 19.29186
783.60 19.57222
783.70 19.63841
783.80 19.73526
783.90 19.98535
784.00 19.98729
784.10 19.9971
784.20 20.27428
784.30 20.27034
784.40 20.16862
784.50 20.45356
784.60 21.03152
784.70 21.73022
784.80 22.18665
784.90 22.05633
785.00 21.31543
785.10 20.66759
785.20 20.87481
785.30 21.45869
785.40 21.86268
785.50 21.83157
785.60 21.42633
785.70 21.48098
785.80 21.76109
785.90 22.09856
786.00 22.54634
786.10 22.22452
786.20 21.50423
786.30 21.22345
786.40 21.20714
786.50 20.99422
786.60 20.62702
786.70 20.31338
786.80 19.95089
786.90 20.06261
787.00 20.59009
787.10 20.88291
787.20 20.81394
787.30 20.09005
787.40 19.57321
787.50 20.01355
787.60 20.66912
787.70 21.12007
787.80 21.51515
787.90 22.06756
788.00 22.48863
788.10 22.75482
788.20 23.34095
788.30 23.77399
788.40 23.79502
788.50 23.87187
788.60 24.05043
788.70 24.48451
788.80 25.0853
788.90 25.28065
789.00 25.03544
789.10 24.61474
789.20 24.2828
789.30 24.56414
789.40 25.36265
789.50 25.79895
789.60 25.37856
789.70 24.39933
789.80 23.30755
789.90 22.1812
790.00 21.2936
790.10 20.85641
790.20 20.79299
790.30 21.32722
790.40 22.29052
790.50 23.13077
790.60 23.68904
790.70 23.63598
790.80 22.81916
790.90 21.89276
791.00 21.42618
791.10 21.07019
791.20 20.79403
791.30 20.62302
791.40 20.32649
791.50 20.59854
791.60 20.90355
791.70 20.86645
791.80 21.236
791.90 21.16478
792.00 20.24548
792.10 19.39076
792.20 19.21529
792.30 19.84636
792.40 20.73431
792.50 21.47597
792.60 21.86363
792.70 21.90634
792.80 22.12975
792.90 22.42928
793.00 22.55245
793.10 22.70276
793.20 23.07857
793.30 24.17121
793.40 25.45218
793.50 26.11878
793.60 26.31545
793.70 26.00098
793.80 25.74703
793.90 25.70492
794.00 24.68975
794.10 22.91048
794.20 21.50633
794.30 20.86721
794.40 21.17302
794.50 21.93492
794.60 22.40809
794.70 21.88907
794.80 19.79475
794.90 17.84354
795.00 18.18204
795.10 20.31802
795.20 22.45668
795.30 23.81255
795.40 24.87158
795.50 25.90718
795.60 26.62965
795.70 26.94112
795.80 26.64618
795.90 25.95655
796.00 25.52445
796.10 24.8225
796.20 23.38243
796.30 22.66008
796.40 23.50476
796.50 24.43494
796.60 24.39007
796.70 24.06209
796.80 24.1981
796.90 25.3371
797.00 27.21314
797.10 28.29459
797.20 28.29773
797.30 28.30336
797.40 28.02855
797.50 26.86508
797.60 25.70256
797.70 25.12136
797.80 24.8569
797.90 24.69258
798.00 24.49716
798.10 24.49611
798.20 24.73138
798.30 24.75255
798.40 24.41171
798.50 23.90749
798.60 23.39914
798.70 23.02777
798.80 22.96712
798.90 23.11479
799.00 23.30944
799.10 23.68518
799.20 24.48781
799.30 25.72488
799.40 26.44349
799.50 25.62338
799.60 24.42969
799.70 24.21926
799.80 24.5577
799.90 24.91003
800.00 25.19861
800.10 25.68156
800.20 26.32564
800.30 26.95005
800.40 27.63207
800.50 27.83035
800.60 27.60976
800.70 27.84768
800.80 28.6654
800.90 29.56625
801.00 29.90226
801.10 29.77583
801.20 29.71242
801.30 29.86661
801.40 30.19728
801.50 30.08828
801.60 29.66683
801.70 30.00644
801.80 31.0379
801.90 31.91897
802.00 32.24696
802.10 32.00319
802.20 31.47356
802.30 30.99532
802.40 30.95147
802.50 31.27381
802.60 31.74412
802.70 32.78761
802.80 34.03464
802.90 34.86559
803.00 35.54043
803.10 35.95932
803.20 35.91734
803.30 35.6607
803.40 35.52101
803.50 35.66317
803.60 36.19855
803.70 36.56717
803.80 36.09047
803.90 35.60556
804.00 35.65358
804.10 35.6184
804.20 35.71597
804.30 36.39484
804.40 37.22526
804.50 37.77023
804.60 37.65766
804.70 36.86915
804.80 36.61567
804.90 37.54008
805.00 38.89291
805.10 40.0516
805.20 40.99856
805.30 41.95069
805.40 42.53622
805.50 42.6955
805.60 42.91936
805.70 43.15288
805.80 43.47982
805.90 43.63757
806.00 43.37484
806.10 43.68627
806.20 44.60184
806.30 45.03724
806.40 44.71776
806.50 44.29199
806.60 44.23566
806.70 44.43973
806.80 44.81403
806.90 45.12445
807.00 44.7958
807.10 44.26792
807.20 44.62229
807.30 45.71811
807.40 46.81981
807.50 47.61422
807.60 48.01525
807.70 48.15177
807.80 48.55345
807.90 49.5858
808.00 50.39021
808.10 49.96095
808.20 49.41972
808.30 50.14009
808.40 51.10816
808.50 51.79585
808.60 52.70333
808.70 53.06095
808.80 52.62695
808.90 51.97827
809.00 51.26702
809.10 51.20737
809.20 52.32363
809.30 53.80678
809.40 54.48583
809.50 54.1132
809.60 53.71466
809.70 53.41179
809.80 52.84826
809.90 52.62748
810.00 52.67594
810.10 52.74084
810.20 52.98418
810.30 52.8991
810.40 52.24588
810.50 51.8357
810.60 52.43875
810.70 54.05966
810.80 55.70684
810.90 56.67712
811.00 57.40561
811.10 57.81394
811.20 57.65324
811.30 57.51491
811.40 57.68084
811.50 58.14992
811.60 58.45903
811.70 57.85748
811.80 56.92558
811.90 57.01162
812.00 58.28354
812.10 59.60404
812.20 60.3701
812.30 60.65801
812.40 60.58263
812.50 60.82048
812.60 61.34514
812.70 61.55831
812.80 61.93259
812.90 62.81162
813.00 63.35253
813.10 63.15158
813.20 62.90436
813.30 62.95707
813.40 63.44181
813.50 64.51406
813.60 65.23876
813.70 65.23865
813.80 65.44588
813.90 65.86606
814.00 66.00547
814.10 65.90745
814.20 65.2797
814.30 64.19898
814.40 63.05796
814.50 62.19337
814.60 62.18404
814.70 62.69305
814.80 62.8715
814.90 62.51074
815.00 62.38704
815.10 63.31494
815.20 64.53169
815.30 65.2144
815.40 65.52175
815.50 65.26437
815.60 64.57396
815.70 64.32214
815.80 64.40311
815.90 64.14033
816.00 63.74571
816.10 63.3135
816.20 62.68366
816.30 62.50809
816.40 63.37668
816.50 64.9173
816.60 66.28781
816.70 66.9889
816.80 67.32712
816.90 67.83866
817.00 68.4749
817.10 69.25061
817.20 69.59367
817.30 69.00131
817.40 68.63844
817.50 68.40361
817.60 67.57871
817.70 66.41712
817.80 64.66842
817.90 62.94126
818.00 61.90932
818.10 59.92961
818.20 55.03654
818.30 47.41215
818.40 39.63811
818.50 35.74565
818.60 37.40023
818.70 42.95256
818.80 49.72029
818.90 54.78311
819.00 57.13106
819.10 57.56519
819.20 56.28187
819.30 52.58465
819.40 46.55507
819.50 39.76411
819.60 34.33809
819.70 32.31501
819.80 34.14368
819.90 38.35093
820.00 42.98619
820.10 46.95063
820.20 50.26038
820.30 53.20826
820.40 55.67847
820.50 57.2437
820.60 57.41731
820.70 55.5424
820.80 52.41344
820.90 50.89967
821.00 52.25237
821.10 54.77642
821.20 57.27123
821.30 58.80352
821.40 58.4056
821.50 57.21257
821.60 56.41156
821.70 55.84258
821.80 55.53931
821.90 55.89657
822.00 56.86063
822.10 58.21278
822.20 59.84824
822.30 61.24362
822.40 62.19019
822.50 62.73059
822.60 62.71194
822.70 62.62988
822.80 62.78514
822.90 63.22996
823.00 64.24997
823.10 65.46925
823.20 66.3893
823.30 66.74972
823.40 65.99822
823.50 64.46945
823.60 63.5407
823.70 63.90046
823.80 65.29484
823.90 66.9858
824.00 68.22727
824.10 68.9848
824.20 69.47103
824.30 69.42083
824.40 68.7151
824.50 68.04403
824.60 68.15826
824.70 69.27148
824.80 71.22686
824.90 72.9713
825.00 73.09513
825.10 71.27727
825.20 68.2552
825.30 65.21159
825.40 63.21828
825.50 62.40484
825.60 61.8825
825.70 61.15997
825.80 60.50533
825.90 60.71779
826.00 62.43558
826.10 64.70421
826.20 66.54883
826.30 67.81191
826.40 68.44353
826.50 69.07002
826.60 69.62456
826.70 69.53933
826.80 69.07402
826.90 68.31266
827.00 67.33087
827.10 66.31756
827.20 64.88788
827.30 62.70036
827.40 60.25336
827.50 59.11831
827.60 60.20729
827.70 61.98465
827.80 62.78899
827.90 62.77544
828.00 62.16039
828.10 61.03953
828.20 59.80901
828.30 58.44573
828.40 57.45642
828.50 57.97455
828.60 59.37836
828.70 59.99388
828.80 59.23242
828.90 56.61257
829.00 52.90649
829.10 50.79157
829.20 51.10394
829.30 52.67135
829.40 54.09874
829.50 54.4467
829.60 54.50183
829.70 55.27863
829.80 56.17049
829.90 56.49709
830.00 49.95319
830.10 49.67348
830.20 49.39377
830.30 49.43164
830.40 49.46952
830.50 49.8608
830.60 50.25209
830.70 50.87164
830.80 51.49118
830.90 52.84708
831.00 54.20298
831.10 55.40469
831.20 56.60639
831.30 55.77864
831.40 54.95088
831.50 55.36887
831.60 55.78686
831.70 56.3633
831.80 56.93973
831.90 56.90189
832.00 56.86405
832.10 57.03005
832.20 57.19605
832.30 57.09581
832.40 56.99556
832.50 56.33655
832.60 55.67754
832.70 56.02894
832.80 56.38033
832.90 58.16494
833.00 59.94955
833.10 57.75672
833.20 55.56388
833.30 56.2487
833.40 56.93353
833.50 56.05171
833.60 55.16989
833.70 54.69826
833.80 54.22663
833.90 55.65688
834.00 57.08714
834.10 57.26615
834.20 57.44515
834.30 58.21089
834.40 58.97663
834.50 55.26797
834.60 51.55932
834.70 50.56866
834.80 49.578
834.90 51.00404
835.00 52.43007
835.10 54.02813
835.20 55.62619
835.30 55.94799
835.40 56.2698
835.50 56.05918
835.60 55.84856
835.70 57.12951
835.80 58.41046
835.90 58.00652
836.00 57.60257
836.10 57.80501
836.20 58.00745
836.30 58.52833
836.40 59.04922
836.50 59.10507
836.60 59.16092
836.70 59.73121
836.80 60.30149
836.90 62.04206
837.00 63.78262
837.10 60.7626
837.20 57.74258
837.30 58.55167
837.40 59.36076
837.50 57.57685
837.60 55.79294
837.70 54.9628
837.80 54.13266
837.90 55.30777
838.00 56.48288
838.10 58.34578
838.20 60.20868
838.30 58.31914
838.40 56.42961
838.50 56.48995
838.60 56.5503
838.70 55.17944
838.80 53.80858
838.90 51.59469
839.00 49.38081
839.10 49.93906
839.20 50.49732
839.30 51.81143
839.40 53.12554
839.50 54.41095
839.60 55.69635
839.70 56.74487
839.80 57.79339
839.90 59.34913
840.00 60.90487
840.10 55.10808
840.20 57.74108
840.30 58.90953
840.40 59.00612
840.50 59.37906
840.60 60.60175
840.70 61.82419
840.80 61.93714
840.90 61.93666
841.00 64.90172
841.10 69.98976
841.20 72.56961
841.30 67.83013
841.40 63.11403
841.50 59.4985
841.60 55.91229
841.70 58.77113
841.80 66.13022
841.90 69.96032
842.00 64.42303
842.10 58.93225
842.20 56.689
842.30 54.61469
842.40 53.46454
842.50 52.77958
842.60 52.62844
842.70 53.83118
842.80 55.04408
842.90 55.45096
843.00 55.78758
843.10 56.48796
843.20 57.37336
843.30 57.01822
843.40 54.24835
843.50 51.53033
843.60 47.8818
843.70 44.15861
843.80 42.04445
843.90 40.48393
844.00 41.40494
844.10 47.26993
844.20 52.98582
844.30 46.52811
844.40 40.12511
844.50 35.09676
844.60 30.70658
844.70 29.01083
844.80 32.09811
844.90 35.1565
845.00 37.66958
845.10 40.22962
845.20 37.42236
845.30 32.49043
845.40 29.36967
845.50 29.3029
845.60 29.29817
845.70 29.62571
845.80 29.93794
845.90 30.15788
846.00 30.35705
846.10 31.37877
846.20 33.56129
846.30 35.61491
846.40 36.73275
846.50 37.8947
846.60 33.4902
846.70 27.19247
846.80 25.82218
846.90 31.19302
847.00 35.75569
847.10 32.04338
847.20 28.3448
847.30 28.88221
847.40 30.71049
847.50 31.67392
847.60 31.57661
847.70 31.69561
847.80 32.78412
847.90 33.88812
848.00 34.52427
848.10 35.09615
848.20 35.45348
848.30 35.60577
848.40 35.72021
848.50 35.44988
848.60 35.17161
848.70 35.09908
848.80 35.08253
848.90 34.58657
849.00 33.53975
849.10 32.76384
849.20 33.39742
849.30 34.0238
849.40 33.76163
849.50 33.36937
849.60 33.71466
849.70 34.90662
849.80 35.6744
849.90 34.44707
850.00 33.22176
850.10 37.0134
850.20 41.52481
850.30 42.11893
850.40 39.29662
850.50 37.15565
850.60 38.03184
850.70 38.92792
850.80 35.55741
850.90 31.68775
851.00 30.89921
851.10 32.25479
851.20 34.00833
851.30 36.86099
851.40 39.69159
851.50 39.18445
851.60 38.41165
851.70 35.45156
851.80 31.12591
851.90 28.35968
852.00 29.4852
852.10 30.61727
852.20 29.97063
852.30 29.22667
852.40 30.99937
852.50 34.14089
852.60 36.86272
852.70 38.61615
852.80 40.30718
852.90 38.80248
853.00 37.25344
853.10 36.4203
853.20 35.98745
853.30 36.18771
853.40 37.52382
853.50 38.83483
853.60 37.15916
853.70 35.49172
853.80 36.55942
853.90 38.88613
854.00 40.02573
854.10 39.17809
854.20 38.42174
854.30 38.47811
854.40 38.52509
854.50 39.78498
854.60 41.50191
854.70 41.96829
854.80 40.48471
854.90 39.13842
855.00 39.86463
855.10 40.58789
855.20 41.01059
855.30 41.32188
855.40 41.89864
855.50 42.91162
855.60 43.6125
855.70 41.43894
855.80 39.22558
855.90 38.97405
856.00 39.3806
856.10 38.93379
856.20 37.40533
856.30 36.18643
856.40 36.49042
856.50 36.80289
856.60 39.17735
856.70 41.96904
856.80 43.30445
856.90 43.26387
857.00 42.62957
857.10 39.48407
857.20 36.35388
857.30 34.76924
857.40 33.44415
857.50 34.55109
857.60 37.64343
857.70 40.27639
857.80 41.10555
857.90 41.90352
858.00 41.89772
858.10 41.82752
858.20 41.5596
858.30 41.31176
858.40 40.87674
858.50 39.56427
858.60 38.2785
858.70 41.35127
858.80 44.78534
858.90 46.45771
859.00 47.02302
859.10 47.17054
859.20 46.2223
859.30 45.25066
859.40 43.84528
859.50 42.41024
859.60 43.51832
859.70 45.96356
859.80 47.57999
859.90 47.42191
860.00 47.20645
860.10 47.46403
860.20 47.71719
860.30 49.84783
860.40 52.89592
860.50 53.31954
860.60 48.66232
860.70 44.10602
860.80 44.8282
860.90 45.53861
861.00 45.09934
861.10 44.25115
861.20 43.92068
861.30 44.33738
861.40 44.60361
861.50 43.52631
861.60 42.43257
861.70 42.89397
861.80 43.89315
861.90 44.33399
862.00 43.79332
862.10 43.44168
862.20 44.97529
862.30 46.48691
862.40 47.50549
862.50 48.43867
862.60 47.66256
862.70 45.14246
862.80 43.32273
862.90 45.17432
863.00 47.03615
863.10 45.34606
863.20 42.89412
863.30 42.59572
863.40 44.2295
863.50 45.20895
863.60 43.5819
863.70 41.98309
863.80 43.09301
863.90 44.63469
864.00 45.79822
864.10 46.65771
864.20 46.74193
864.30 43.96152
864.40 41.25307
864.50 44.26557
864.60 48.00118
864.70 47.39372
864.80 43.89912
864.90 41.60905
865.00 42.94304
865.10 44.38794
865.20 43.13752
865.30 41.70702
865.40 41.8394
865.50 42.95757
865.60 44.38026
865.70 46.48521
865.80 48.5114
865.90 48.97999
866.00 49.41841
866.10 49.53015
866.20 49.56035
866.30 49.3581
866.40 48.54889
866.50 47.86473
866.60 47.54291
866.70 47.16599
866.80 46.5928
866.90 46.04352
867.00 46.50238
867.10 48.72009
867.20 50.58299
867.30 46.86543
867.40 43.13966
867.50 43.92838
867.60 46.2572
867.70 48.94464
867.80 52.11235
867.90 54.8036
868.00 53.61061
868.10 52.43207
868.20 49.50813
868.30 46.12448
868.40 45.59224
868.50 48.55666
868.60 50.96343
868.70 49.12881
868.80 47.2518
868.90 48.45081
869.00 50.33786
869.10 49.3239
869.20 45.6097
869.30 42.22739
869.40 40.07636
869.50 37.92174
869.60 38.4137
869.70 39.26669
869.80 39.37018
869.90 38.523
870.00 38.14636
870.10 39.68792
870.20 41.27759
870.30 42.5281
870.40 43.73114
870.50 44.18993
870.60 44.13844
870.70 44.62388
870.80 46.40406
870.90 48.03587
871.00 44.63449
871.10 41.07457
871.20 41.67446
871.30 44.491
871.40 45.60784
871.50 43.0067
871.60 40.36899
871.70 42.18623
871.80 44.02151
871.90 44.39637
872.00 44.08301
872.10 43.97647
872.20 44.00048
872.30 43.95338
872.40 42.63716
872.50 41.3181
872.60 42.00653
872.70 43.41809
872.80 45.13583
872.90 46.79784
873.00 48.22672
873.10 49.52518
873.20 50.80382
873.30 50.06982
873.40 48.84487
873.50 48.04297
873.60 47.61729
873.70 47.13602
873.80 45.4453
873.90 43.71999
874.00 44.90958
874.10 46.72278
874.20 48.2384
874.30 49.26612
874.40 50.78683
874.50 53.88162
874.60 56.84318
874.70 57.22439
874.80 57.30197
874.90 55.96218
875.00 53.8147
875.10 52.34884
875.20 52.34733
875.30 52.39449
875.40 53.57604
875.50 54.83651
875.60 53.52807
875.70 50.66057
875.80 49.43788
875.90 52.35786
876.00 55.36997
876.10 55.99821
876.20 56.49598
876.30 55.53887
876.40 54.02655
876.50 52.57752
876.60 51.53954
876.70 50.63668
876.80 51.82883
876.90 53.08054
877.00 54.58944
877.10 56.01146
877.20 57.5431
877.30 59.02698
877.40 60.67063
877.50 64.69405
877.60 68.66505
877.70 68.11988
877.80 66.18044
877.90 64.14201
878.00 62.9404
878.10 61.86238
878.20 60.36783
878.30 58.94741
878.40 60.1159
878.50 61.83421
878.60 64.23056
878.70 67.36802
878.80 69.83025
878.90 70.03225
879.00 70.30111
879.10 69.35811
879.20 68.1626
879.30 67.0385
879.40 65.97394
879.50 65.31231
879.60 66.24523
879.70 67.24625
879.80 67.87451
879.90 68.41835
880.00 68.54973
880.10 68.68824
880.20 67.42242
880.30 63.8731
880.40 60.55706
880.50 59.62861
880.60 58.80579
880.70 59.53642
880.80 60.8386
880.90 60.80919
881.00 58.33825
881.10 56.24518
881.20 62.50552
881.30 68.65944
881.40 71.63615
881.50 73.28405
881.60 74.70928
881.70 76.05213
881.80 77.34053
881.90 77.53017
882.00 77.61184
882.10 75.08573
882.20 71.79973
882.30 68.51138
882.40 65.7616
882.50 62.88127
882.60 58.5224
882.70 54.33381
882.80 57.33032
882.90 61.93345
883.00 65.97632
883.10 69.26024
883.20 72.24369
883.30 73.73647
883.40 75.10162
883.50 74.55194
883.60 73.74567
883.70 73.45011
883.80 73.52384
883.90 74.64796
884.00 79.24588
884.10 83.79789
884.20 81.36453
884.30 78.2297
884.40 76.83093
884.50 76.78044
884.60 75.47218
884.70 71.68145
884.80 67.94498
884.90 63.07207
885.00 58.20774
885.10 59.37275
885.20 63.46321
885.30 68.85757
885.40 75.42646
885.50 81.4532
885.60 81.39197
885.70 81.19711
885.80 76.44321
885.90 70.19977
886.00 65.21164
886.10 62.31491
886.20 59.29783
886.30 54.964
886.40 50.84932
886.50 50.83264
886.60 51.75045
886.70 54.2716
886.80 58.23055
886.90 60.71877
887.00 57.73493
887.10 54.65387
887.20 51.53153
887.30 48.48707
887.40 46.80328
887.50 45.57754
887.60 45.09299
887.70 46.96497
887.80 48.90496
887.90 51.38207
888.00 53.90859
888.10 55.49959
888.20 56.56182
888.30 56.33133
888.40 53.4302
888.50 50.63802
888.60 51.34351
888.70 52.28322
888.80 51.33854
888.90 49.01455
889.00 49.48747
889.10 55.66753
889.20 61.66959
889.30 61.37097
889.40 60.97129
889.50 58.59766
889.60 55.40794
889.70 53.76873
889.80 55.14617
889.90 56.78163
890.00 58.73385
890.10 60.74997
890.20 62.55122
890.30 64.12856
890.40 66.92142
890.50 71.72551
890.60 75.91086
890.70 76.17065
890.80 76.34315
890.90 71.86255
891.00 66.25768
891.10 63.52562
891.20 63.9779
891.30 64.35233
891.40 63.55272
891.50 62.87311
891.60 63.46977
891.70 64.21963
891.80 65.03253
891.90 66.32343
892.00 67.52914
892.10 67.77351
892.20 67.87116
892.30 66.8314
892.40 65.71194
892.50 64.93648
892.60 64.50655
892.70 65.00679
892.80 67.46137
892.90 69.95687
893.00 69.31725
893.10 68.64587
893.20 70.42692
893.30 73.28988
893.40 75.56527
893.50 76.93433
893.60 77.9149
893.70 76.68225
893.80 75.34419
893.90 71.20886
894.00 66.20497
894.10 62.94553
894.20 61.33147
894.30 60.10799
894.40 60.29635
894.50 60.41082
894.60 59.72437
894.70 58.85368
894.80 59.86754
894.90 62.35701
895.00 64.19726
895.10 63.87179
895.20 63.50855
895.30 62.45193
895.40 61.33571
895.50 61.52473
895.60 62.65633
895.70 64.25522
895.80 66.83799
895.90 69.32346
896.00 70.40247
896.10 71.33783
896.20 71.93905
896.30 72.4919
896.40 72.29798
896.50 69.70501
896.60 66.9992
896.70 66.58963
896.80 66.32004
896.90 67.27938
897.00 68.83878
897.10 70.26344
897.20 70.69678
897.30 70.97908
897.40 72.8668
897.50 74.81541
897.60 76.5494
897.70 78.08304
897.80 78.41982
897.90 77.08559
898.00 75.71394
898.10 77.14835
898.20 78.63645
898.30 78.16588
898.40 77.02073
898.50 78.7987
898.60 83.08125
898.70 86.57623
898.80 86.35577
898.90 85.87988
899.00 82.4564
899.10 78.61512
899.20 77.42356
899.30 78.3944
899.40 79.56054
899.50 81.08551
899.60 82.57774
899.70 80.02427
899.80 77.02199
899.90 75.82889
900.00 75.96267
900.10 76.48278
900.20 77.72995
900.30 79.22247
900.40 82.94372
900.50 86.7432
900.60 90.55801
900.70 94.43345
900.80 94.8812
900.90 89.90391
901.00 85.05673
901.10 85.5625
901.20 86.18994
901.30 85.91655
901.40 85.0703
901.50 84.68244
901.60 85.29079
901.70 85.57233
901.80 84.11155
901.90 82.69028
902.00 80.34382
902.10 77.74346
902.20 76.1437
902.30 75.67515
902.40 75.37832
902.50 76.04836
902.60 76.7685
902.70 76.12434
902.80 75.216
902.90 75.73736
903.00 77.31702
903.10 78.58896
903.20 78.36226
903.30 78.19667
903.40 80.31515
903.50 82.59393
903.60 84.87449
903.70 87.20858
903.80 89.1344
903.90 90.08204
904.00 90.92023
904.10 88.49394
904.20 86.00523
904.30 85.58387
904.40 86.31342
904.50 86.96976
904.60 87.33678
904.70 87.99001
904.80 89.69185
904.90 91.3845
905.00 92.48041
905.10 93.41878
905.20 91.67844
905.30 87.42781
905.40 83.56697
905.50 80.92311
905.60 78.28882
905.70 78.39794
905.80 79.1744
905.90 79.63156
906.00 79.63387
906.10 79.78031
906.20 80.23745
906.30 80.70747
906.40 80.10881
906.50 79.31672
906.60 79.13557
906.70 79.90615
906.80 80.02802
906.90 78.0084
907.00 76.10596
907.10 78.2436
907.20 80.63094
907.30 80.90762
907.40 79.76802
907.50 78.72748
907.60 78.27281
907.70 77.92544
907.80 82.10217
907.90 86.32815
908.00 87.43532
908.10 87.07337
908.20 86.34799
908.30 85.81243
908.40 85.05763
908.50 83.70216
908.60 82.41848
908.70 81.08976
908.80 79.6467
908.90 80.64983
909.00 84.67339
909.10 88.09995
909.20 87.98624
909.30 87.95524
909.40 88.66833
909.50 89.48313
909.60 90.34752
909.70 91.32042
909.80 92.4813
909.90 94.78663
910.00 97.12557
910.10 96.38532
910.20 95.33839
910.30 94.58917
910.40 94.22065
910.50 94.22699
910.60 95.37598
910.70 96.54595
910.80 93.13381
910.90 89.66308
911.00 90.64126
911.10 93.58387
911.20 96.2095
911.30 98.34788
911.40 100.1878
911.50 98.57001
911.60 96.89803
911.70 97.20553
911.80 98.37337
911.90 98.57886
912.00 97.14165
912.10 95.87773
912.20 94.78603
912.30 93.60176
912.40 92.94642
912.50 92.48605
912.60 91.99868
912.70 91.5125
912.80 90.91159
912.90 89.62613
913.00 88.40687
913.10 91.15899
913.20 94.4576
913.30 96.36991
913.40 97.10966
913.50 98.51406
913.60 102.1416
913.70 105.5757
913.80 104.145
913.90 102.4669
914.00 98.06122
914.10 92.24052
914.20 88.60895
914.30 88.7866
914.40 89.30978
914.50 93.53086
914.60 97.71197
914.70 99.85382
914.80 101.2424
914.90 100.5975
915.00 97.77038
915.10 95.28262
915.20 95.53548
915.30 95.93938
915.40 96.74595
915.50 97.46225
915.60 101.4852
915.70 108.9229
915.80 114.235
915.90 110.7737
916.00 107.2767
916.10 104.7053
916.20 102.341
916.30 100.9422
916.40 100.4741
916.50 100.8069
916.60 102.2947
916.70 103.7851
916.80 106.4547
916.90 109.2259
917.00 108.8545
917.10 106.7352
917.20 105.318
917.30 105.7532
917.40 106.1292
917.50 104.9444
917.60 103.8044
917.70 104.0074
917.80 104.6773
917.90 105.6403
918.00 106.989
918.10 108.3275
918.20 108.4843
918.30 108.592
918.40 107.7391
918.50 106.658
918.60 104.8109
918.70 102.3509
918.80 101.7969
918.90 110.4869
919.00 119.233
919.10 121.3808
919.20 122.182
919.30 119.4208
919.40 114.6514
919.50 110.6904
919.60 110.2146
919.70 110.0666
919.80 113.3904
919.90 116.9631
920.00 118.0496
920.10 117.5146
920.20 117.0338
920.30 117.5663
920.40 118.1921
920.50 116.94
920.60 115.6498
920.70 112.2785
920.80 108.0326
920.90 103.7009
921.00 100.1423
921.10 97.04822
921.20 94.42815
921.30 91.8197
921.40 95.84037
921.50 101.941
921.60 105.7907
921.70 107.045
921.80 108.0686
921.90 107.6237
922.00 107.1769
922.10 104.5378
922.20 101.4404
922.30 99.72882
922.40 99.29677
922.50 98.6487
922.60 97.09341
922.70 95.61416
922.80 95.18854
922.90 94.83138
923.00 95.69099
923.10 97.55742
923.20 98.3207
923.30 97.12455
923.40 96.18117
923.50 92.79617
923.60 89.29749
923.70 89.85498
923.80 92.39451
923.90 94.28567
924.00 95.31255
924.10 96.59422
924.20 100.0669
924.30 103.4736
924.40 104.4523
924.50 104.5879
924.60 102.4513
924.70 98.06195
924.80 94.18569
924.90 94.22272
925.00 94.34358
925.10 93.60653
925.20 92.56943
925.30 92.13748
925.40 92.36128
925.50 92.79465
925.60 93.48132
925.70 94.2346
925.80 97.5123
925.90 101.0785
926.00 102.789
926.10 103.7271
926.20 103.6385
926.30 101.073
926.40 98.68234
926.50 100.2447
926.60 101.9566
926.70 103.5992
926.80 104.9439
926.90 105.5483
927.00 105.5416
927.10 105.4304
927.20 104.8086
927.30 104.174
927.40 102.867
927.50 101.381
927.60 98.76939
927.70 94.62204
927.80 90.7141
927.90 88.78753
928.00 87.05058
928.10 89.6615
928.20 93.11283
928.30 95.24991
928.40 96.10097
928.50 97.16465
928.60 98.82148
928.70 100.2547
928.80 99.32028
928.90 98.18209
929.00 97.31271
929.10 96.39047
929.20 95.53396
929.30 95.13594
929.40 94.84403
929.50 96.44093
929.60 98.10841
929.70 97.72389
929.80 96.26912
929.90 93.45822
930.00 88.81674
930.10 84.49558
930.20 86.72902
930.30 89.00667
930.40 90.35072
930.50 91.15641
930.60 90.65163
930.70 88.60803
930.80 86.97295
930.90 87.65749
931.00 88.37504
931.10 90.68186
931.20 93.26872
931.30 96.25427
931.40 99.6724
931.50 102.0463
931.60 101.1893
931.70 100.3775
931.80 97.74964
931.90 94.92974
932.00 92.1173
932.10 89.54451
932.20 88.47099
932.30 91.45545
932.40 94.44465
932.50 97.83655
932.60 101.1804
932.70 101.3729
932.80 99.96728
932.90 99.07412
933.00 98.95094
933.10 98.81638
933.20 99.16917
933.30 99.52325
933.40 96.44236
933.50 92.12115
933.60 91.39637
933.70 95.58501
933.80 99.20127
933.90 98.18472
934.00 97.15956
934.10 99.40973
934.20 102.3332
934.30 101.1606
934.40 96.3189
934.50 93.64759
934.60 98.85766
934.70 104.0662
934.80 103.3255
934.90 101.8467
935.00 102.5377
935.10 99.91245
935.20 97.28698
935.30 96.24183
935.40 96.07721
935.50 95.90809
935.60 96.51904
935.70 97.19363
935.80 97.55695
935.90 97.13808
936.00 96.72852
936.10 97.46678
936.20 99.38698
936.30 101.3141
936.40 101.913
936.50 101.9605
936.60 101.8045
936.70 98.95235
936.80 96.10926
936.90 94.01199
937.00 93.17305
937.10 92.33428
937.20 90.07405
937.30 87.05904
937.40 84.03117
937.50 87.76349
937.60 92.16032
937.70 95.90725
937.80 96.94342
937.90 97.97235
938.00 98.50285
938.10 98.44877
938.20 98.39792
938.30 97.76683
938.40 96.97047
938.50 96.25947
938.60 97.97955
938.70 99.70453
938.80 101.0304
938.90 101.5434
939.00 102.0565
939.10 102.0778
939.20 101.7499
939.30 101.4266
939.40 101.2057
939.50 100.9734
939.60 100.5813
939.70 99.02866
939.80 97.44898
939.90 96.03246
940.00 95.07429
940.10 94.11249
940.20 94.64087
940.30 95.71772
940.40 96.7988
940.50 97.53334
940.60 98.31086
940.70 99.46574
940.80 101.6463
940.90 103.8275
941.00 104.9927
941.10 105.2808
941.20 105.5831
941.30 104.6594
941.40 103.4679
941.50 102.1557
941.60 99.96085
941.70 97.75671
941.80 96.66696
941.90 97.34149
942.00 98.01835
942.10 98.71279
942.20 99.4813
942.30 100.2492
942.40 101.8891
942.50 103.4999
942.60 104.6776
942.70 104.5175
942.80 104.3574
942.90 103.5406
943.00 102.3841
943.10 101.2146
943.20 102.8014
943.30 104.9513
943.40 107.0784
943.50 108.6285
943.60 110.1449
943.70 110.1267
943.80 107.6441
943.90 105.1621
944.00 104.2091
944.10 103.9667
944.20 103.7177
944.30 102.3917
944.40 101.0823
944.50 99.97224
944.60 99.59673
944.70 99.2216
944.80 100.1015
944.90 102.1265
945.00 104.15
945.10 103.5547
945.20 102.3811
945.30 101.4237
945.40 102.1956
945.50 102.9402
945.60 103.3726
945.70 103.3784
945.80 103.3873
945.90 103.5169
946.00 103.6399
946.10 103.7487
946.20 105.1051
946.30 106.6256
946.40 107.8859
946.50 108.0742
946.60 108.2606
946.70 108.8494
946.80 109.7873
946.90 110.7217
947.00 109.8475
947.10 108.5268
947.20 107.4058
947.30 108.5064
947.40 109.6002
947.50 110.4159
947.60 110.8389
947.70 111.2621
947.80 113.3267
947.90 116.2515
948.00 119.1716
948.10 118.1487
948.20 116.874
948.30 115.7527
948.40 115.2049
948.50 114.6572
948.60 115.7812
948.70 118.5065
948.80 121.237
948.90 121.6694
949.00 121.5205
949.10 121.3948
949.20 121.7204
949.30 122.0402
949.40 121.2671
949.50 118.2663
949.60 115.2657
949.70 115.7602
949.80 118.3809
949.90 120.9765
950.00 120.0455
950.10 118.8225
950.20 117.89
950.30 118.1254
950.40 118.3595
950.50 118.1412
950.60 117.2961
950.70 116.4436
950.80 116.698
950.90 117.3328
951.00 118.0004
951.10 119.2039
951.20 120.4013
951.30 120.3204
951.40 117.7032
951.50 115.0864
951.60 113.938
951.70 113.6506
951.80 113.364
951.90 113.882
952.00 114.4807
952.10 115.1583
952.20 116.4125
952.30 117.6671
952.40 118.8225
952.50 119.9751
952.60 121.1294
952.70 121.7239
952.80 122.0994
952.90 122.5196
953.00 123.1399
953.10 123.7328
953.20 123.8196
953.30 122.9338
953.40 122.0481
953.50 121.1892
953.60 120.2847
953.70 119.3808
953.80 118.4006
953.90 117.4895
954.00 117.057
954.10 118.3781
954.20 119.7004
954.30 120.8049
954.40 121.7018
954.50 122.6077
954.60 123.2686
954.70 123.8843
954.80 124.4176
954.90 123.8283
955.00 123.2284
955.10 123.1201
955.20 123.9716
955.30 124.8261
955.40 124.9965
955.50 124.7855
955.60 124.5708
955.70 124.1139
955.80 123.6674
955.90 123.4749
956.00 124.1489
956.10 124.8224
956.20 125.6907
956.30 126.5865
956.40 127.4904
956.50 125.6796
956.60 123.127
956.70 120.7932
956.80 122.1674
956.90 123.579
957.00 125.0016
957.10 126.3455
957.20 127.6867
957.30 127.7801
957.40 127.0802
957.50 126.396
957.60 123.87
957.70 121.1897
957.80 119.2488
957.90 120.1135
958.00 120.9789
958.10 121.1823
958.20 120.8514
958.30 120.5288
958.40 119.7606
958.50 118.8472
958.60 117.8801
958.70 115.9819
958.80 114.0608
958.90 112.5984
959.00 111.8144
959.10 111.0256
959.20 110.6292
959.30 110.6171
959.40 110.589
959.50 110.5775
959.60 110.5559
959.70 110.1315
959.80 107.7488
959.90 105.3648
960.00 104.517
960.10 105.2518
960.20 105.9514
960.30 108.988
960.40 112.7487
960.50 116.2463
960.60 117.0824
960.70 117.9021
960.80 118.7351
960.90 119.4274
961.00 120.1271
961.10 120.096
961.20 119.6463
961.30 119.2022
961.40 116.3215
961.50 113.2883
961.60 111.4301
961.70 113.4998
961.80 115.5657
961.90 117.3758
962.00 119.1097
962.10 120.8534
962.20 121.0018
962.30 120.7151
962.40 120.628
962.50 122.0487
962.60 123.4693
962.70 124.7632
962.80 125.9323
962.90 127.1057
963.00 124.5214
963.10 120.1208
963.20 115.7295
963.30 115.8775
963.40 116.1546
963.50 115.75
963.60 113.2673
963.70 110.7945
963.80 107.3295
963.90 102.8302
964.00 98.2831
964.10 99.92068
964.20 103.0458
964.30 106.1661
964.40 110.4775
964.50 114.7874
964.60 116.9496
964.70 115.6091
964.80 114.2779
964.90 114.0172
965.00 114.2153
965.10 114.3859
965.20 113.1902
965.30 111.9749
965.40 111.3401
965.50 112.2594
965.60 113.1814
965.70 114.5777
965.80 116.3723
965.90 118.1655
966.00 119.644
966.10 121.0612
966.20 122.3673
966.30 122.9308
966.40 123.4942
966.50 124.0982
966.60 124.671
966.70 125.2526
966.80 124.7916
966.90 123.9257
967.00 123.0347
967.10 122.0786
967.20 121.1226
967.30 120.1984
967.40 119.1862
967.50 118.1853
967.60 117.0618
967.70 115.753
967.80 114.3846
967.90 116.3766
968.00 118.9529
968.10 121.1172
968.20 121.7457
968.30 122.3767
968.40 122.1572
968.50 120.628
968.60 119.1075
968.70 118.1625
968.80 117.3875
968.90 116.6703
969.00 117.2437
969.10 117.8436
969.20 118.8878
969.30 121.1473
969.40 123.4016
969.50 124.5357
969.60 124.9654
969.70 125.4246
969.80 127.2583
969.90 129.202
970.00 130.3638
970.10 128.3407
970.20 126.3198
970.30 125.2096
970.40 124.9732
970.50 124.7736
970.60 122.2145
970.70 118.9231
970.80 115.9785
970.90 119.4342
971.00 122.9156
971.10 126.3454
971.20 130.0241
971.30 133.7178
971.40 134.5729
971.50 133.8132
971.60 133.0802
971.70 134.6886
971.80 136.4253
971.90 137.6531
972.00 136.9419
972.10 136.23
972.20 134.8462
972.30 132.8465
972.40 130.8278
972.50 129.7193
972.60 128.8373
972.70 127.7406
972.80 124.2523
972.90 120.7616
973.00 117.671
973.10 115.1023
973.20 112.4857
973.30 114.4859
973.40 118.7283
973.50 122.9734
973.60 122.5437
973.70 121.9899
973.80 121.8087
973.90 122.4709
974.00 123.1325
974.10 122.3873
974.20 120.4991
974.30 118.6413
974.40 117.1953
974.50 115.7953
974.60 114.6831
974.70 115.8177
974.80 116.948
974.90 118.6012
975.00 121.0599
975.10 123.5369
975.20 125.4661
975.30 127.1707
975.40 128.793
975.50 126.2409
975.60 123.6868
975.70 122.5242
975.80 124.3888
975.90 126.244
976.00 127.1504
976.10 127.4313
976.20 127.7393
976.30 128.4411
976.40 129.1841
976.50 129.7242
976.60 129.6523
976.70 129.5841
976.80 129.0145
976.90 127.8257
977.00 126.6674
977.10 126.3201
977.20 126.1683
977.30 126.0469
977.40 127.7996
977.50 129.5564
977.60 130.9842
977.70 131.9616
977.80 132.9539
977.90 133.19
978.00 132.956
978.10 132.7651
978.20 129.0209
978.30 125.0221
978.40 121.8575
978.50 121.2637
978.60 120.6475
978.70 120.6917
978.80 121.5071
978.90 122.3046
979.00 124.2519
979.10 126.4707
979.20 128.7276
979.30 131.8771
979.40 135.0288
979.50 137.8713
979.60 140.1343
979.70 142.4275
979.80 142.142
979.90 140.6615
980.00 139.1606
980.10 139.2662
980.20 139.3909
980.30 139.2784
980.40 138.5206
980.50 137.7641
980.60 136.812
980.70 135.7005
980.80 134.5888
980.90 134.6034
981.00 134.8096
981.10 135.07
981.20 135.7606
981.30 136.4545
981.40 136.2457
981.50 134.8502
981.60 133.4656
981.70 133.1746
981.80 133.2774
981.90 133.283
982.00 132.4232
982.10 131.5633
982.20 130.8424
982.30 130.3124
982.40 129.7793
982.50 130.6492
982.60 132.3921
982.70 134.1264
982.80 134.0109
982.90 133.7317
983.00 133.7204
983.10 134.5725
983.20 135.4218
983.30 135.2123
983.40 133.9613
983.50 132.7147
983.60 131.8723
983.70 131.1245
983.80 130.4705
983.90 130.8381
984.00 131.2034
984.10 131.7669
984.20 132.7169
984.30 133.674
984.40 134.894
984.50 136.224
984.60 137.5537
984.70 137.0427
984.80 136.4809
984.90 135.7086
985.00 134.3274
985.10 132.9558
985.20 131.738
985.30 130.6158
985.40 129.4714
985.50 130.9049
985.60 132.8052
985.70 134.7992
985.80 137.4189
985.90 140.0425
986.00 141.0096
986.10 139.8226
986.20 138.6337
986.30 138.4482
986.40 138.6191
986.50 138.7425
986.60 137.9242
986.70 137.1067
986.80 135.924
986.90 133.851
987.00 131.7754
987.10 132.4607
987.20 134.8508
987.30 137.1907
987.40 140.397
987.50 143.6921
987.60 145.9388
987.70 144.0941
987.80 142.2609
987.90 140.2473
988.00 138.0089
988.10 135.7622
988.20 136.6676
988.30 138.3661
988.40 140.0976
988.50 142.6062
988.60 145.1166
988.70 146.1911
988.80 144.9905
988.90 143.8026
989.00 142.6799
989.10 141.5781
989.20 140.4817
989.30 138.2133
989.40 135.9195
989.50 132.3415
989.60 125.184
989.70 118.0529
989.80 111.7617
989.90 106.058
990.00 100.2856
990.10 98.61987
990.20 97.62478
990.30 96.07332
990.40 91.59573
990.50 87.12552
990.60 83.17045
990.70 79.80266
990.80 76.40959
990.90 75.73586
991.00 75.97169
991.10 76.18034
991.20 77.00943
991.30 77.8424
991.40 77.82947
991.50 76.08164
991.60 74.3333
991.70 73.69917
991.80 73.71392
991.90 73.66241
992.00 76.88175
992.10 80.33548
992.20 82.80926
992.30 81.70556
992.40 80.62219
992.50 78.8915
992.60 76.51917
992.70 74.08589
992.80 77.64054
992.90 82.58087
993.00 87.30569
993.10 90.54196
993.20 93.78959
993.30 94.90862
993.40 92.90302
993.50 90.90845
993.60 91.95669
993.70 94.29697
993.80 96.58261
993.90 100.5354
994.00 104.4901
994.10 107.1954
994.20 106.8539
994.30 106.5424
994.40 105.7689
994.50 104.6502
994.60 103.5218
994.70 104.9907
994.80 106.7738
994.90 108.8058
995.00 112.1512
995.10 115.4988
995.20 117.754
995.30 118.8221
995.40 119.895
995.50 118.9415
995.60 117.4235
995.70 115.9042
995.80 113.6181
995.90 111.326
996.00 109.7411
996.10 109.3912
996.20 109.017
996.30 111.3495
996.40 115.0061
996.50 118.6219
996.60 121.9489
996.70 125.2539
996.80 125.6466
996.90 117.6732
997.00 109.7395
997.10 102.3485
997.20 95.33858
997.30 88.27178
997.40 88.54498
997.50 90.06361
997.60 91.97479
997.70 96.50832
997.80 101.0401
997.90 104.4829
998.00 106.6159
998.10 108.7559
998.20 108.8865
998.30 108.3295
998.40 107.7364
998.50 104.753
998.60 101.7658
998.70 99.77348
998.80 99.69251
998.90 99.58891
999.00 99.62664
999.10 99.77285
999.20 99.93409
999.30 100.1719
999.40 100.4133
999.50 100.2899
999.60 99.0348
999.70 97.79702
999.80 98.85529
999.90 101.9357
1000.00 104.9651
1000.10 109.3305
1000.20 113.9399
1000.30 118.1874
1000.40 119.5526
1000.50 120.9295
1000.60 120.7827
1000.70 118.4005
1000.80 116.0534
1000.90 112.408
1001.00 108.2781
1001.10 104.1855
1001.20 104.8292
1001.30 105.4637
1001.40 106.5869
1001.50 108.8202
1001.60 111.045
1001.70 114.2955
1001.80 118.2234
1001.90 122.2056
1002.00 120.4779
1002.10 118.2015
1002.20 116.5718
1002.30 117.3384
1002.40 118.0805
1002.50 118.7453
1002.60 119.2949
1002.70 119.8635
1002.80 119.6637
1002.90 119.3437
1003.00 119.0244
1003.10 118.0936
1003.20 117.1593
1003.30 115.8688
1003.40 114.1241
1003.50 112.389
1003.60 109.5415
1003.70 106.2311
1003.80 102.9677
1003.90 105.9649
1004.00 108.9549
1004.10 112.7684
1004.20 118.5307
1004.30 124.2929
1004.40 126.7428
1004.50 127.0381
1004.60 127.3947
1004.70 125.526
1004.80 123.4616
1004.90 120.6682
1005.00 115.0852
1005.10 109.5167
1005.20 103.6962
1005.30 97.62671
1005.40 91.53225
1005.50 89.82329
1005.60 89.13731
1005.70 88.89301
1005.80 92.45404
1005.90 96.00705
1006.00 99.53282
1006.10 103.0574
1006.20 106.6078
1006.30 105.8436
1006.40 103.3251
1006.50 100.8548
1006.60 104.7859
1006.70 108.712
1006.80 112.9714
1006.90 117.9892
1007.00 123.0291
1007.10 123.9719
1007.20 122.3347
1007.30 120.7433
1007.40 120.6202
1007.50 120.6436
1007.60 121.2621
1007.70 124.2586
1007.80 127.2559
1007.90 128.8991
1008.00 129.2723
1008.10 129.6689
1008.20 129.3892
1008.30 128.9448
1008.40 128.8207
1008.50 131.389
1008.60 133.9544
1008.70 134.2741
1008.80 131.354
1008.90 128.476
1009.00 125.6601
1009.10 122.9156
1009.20 120.1962
1009.30 120.0033
1009.40 119.8035
1009.50 120.9168
1009.60 125.0264
1009.70 129.1312
1009.80 133.5768
1009.90 138.2184
1010.00 142.8564
1010.10 146.106
1010.20 149.2051
1010.30 151.0554
1010.40 148.2624
1010.50 145.4939
1010.60 143.2303
1010.70 141.4633
1010.80 139.7031
1010.90 135.8991
1011.00 131.5859
1011.10 127.4318
1011.20 124.7471
1011.30 122.0547
1011.40 119.7952
1011.50 118.1174
1011.60 116.4344
1011.70 114.7029
1011.80 112.9677
1011.90 111.2856
1012.00 116.2748
1012.10 121.254
1012.20 126.7597
1012.30 133.511
1012.40 140.2874
1012.50 143.0038
1012.60 143.1035
1012.70 143.2639
1012.80 143.1611
1012.90 143.1055
1013.00 142.9837
1013.10 142.6199
1013.20 142.267
1013.30 139.3206
1013.40 133.8348
1013.50 128.4032
1013.60 122.392
1013.70 116.3248
1013.80 110.8969
1013.90 110.5244
1014.00 110.1305
1014.10 111.5828
1014.20 115.7457
1014.30 119.892
1014.40 122.8815
1014.50 125.3976
1014.60 127.9034
1014.70 124.9062
1014.80 121.9084
1014.90 120.9509
1015.00 124.5274
1015.10 128.0428
1015.20 130.998
1015.30 133.538
1015.40 136.1556
1015.50 133.0029
1015.60 129.3313
1015.70 125.7849
1015.80 122.4685
1015.90 119.1277
1016.00 118.3308
1016.10 119.9762
1016.20 121.5783
1016.30 123.4945
1016.40 125.4697
1016.50 127.4808
1016.60 129.5616
1016.70 131.635
1016.80 132.8697
1016.90 132.8814
1017.00 132.9372
1017.10 131.1469
1017.20 128.664
1017.30 126.2589
1017.40 131.801
1017.50 137.3364
1017.60 141.6376
1017.70 143.1942
1017.80 144.8157
1017.90 142.2403
1018.00 137.0807
1018.10 131.9384
1018.20 128.0463
1018.30 124.2403
1018.40 120.9439
1018.50 119.8387
1018.60 118.7309
1018.70 118.6685
1018.80 119.5938
1018.90 120.4596
1019.00 124.0214
1019.10 128.1834
1019.20 131.8855
1019.30 131.6539
1019.40 131.438
1019.50 131.4091
1019.60 131.6815
1019.70 131.9399
1019.80 132.6101
1019.90 133.4323
1020.00 134.2498
1020.10 133.7602
1020.20 133.2651
1020.30 132.8907
1020.40 132.7616
1020.50 132.6252
1020.60 133.8264
1020.70 135.9044
1020.80 137.9926
1020.90 136.6877
1021.00 135.036
1021.10 133.4526
1021.20 132.227
1021.30 131.024
1021.40 128.9196
1021.50 125.9204
1021.60 122.9002
1021.70 119.9375
1021.80 116.965
1021.90 114.1522
1022.00 112.6382
1022.10 111.1145
1022.20 111.9012
1022.30 115.9458
1022.40 119.9308
1022.50 123.7658
1022.60 127.4323
1022.70 131.0403
1022.80 130.4231
1022.90 129.8106
1023.00 128.3039
1023.10 124.8787
1023.20 121.4676
1023.30 121.3236
1023.40 123.3029
1023.50 125.2763
1023.60 128.3159
1023.70 131.4098
1023.80 134.3355
1023.90 136.9583
1024.00 139.5962
1024.10 142.2897
1024.20 144.9428
1024.30 147.5795
1024.40 145.8908
1024.50 143.2399
1024.60 140.54
1024.70 137.2996
1024.80 134.0431
1024.90 131.6131
1025.00 130.3171
1025.10 129.0398
1025.20 125.8945
1025.30 122.0478
1025.40 118.331
1025.50 121.1847
1025.60 124.0239
1025.70 125.3565
1025.80 123.367
1025.90 121.446
1026.00 117.3693
1026.10 112.1445
1026.20 106.9747
1026.30 105.8971
1026.40 105.2015
1026.50 105.8936
1026.60 111.7498
1026.70 117.5706
1026.80 123.1117
1026.90 128.2057
1027.00 133.3573
1027.10 133.3223
1027.20 132.204
1027.30 130.9077
1027.40 128.5682
1027.50 126.2327
1027.60 124.2012
1027.70 122.6531
1027.80 121.0724
1027.90 119.5306
1028.00 117.9451
1028.10 116.2361
1028.20 113.4056
1028.30 110.5775
1028.40 109.43
1028.50 110.7573
1028.60 112.0113
1028.70 117.5392
1028.80 124.739
1028.90 131.8405
1029.00 132.4623
1029.10 133.1097
1029.20 132.4651
1029.30 128.8373
1029.40 125.2008
1029.50 124.2227
1029.60 124.8332
1029.70 125.3936
1029.80 126.2067
1029.90 127.0692
1030.00 127.0894
1030.10 123.6776
1030.20 120.2623
1030.30 119.4754
1030.40 121.2044
1030.50 122.8756
1030.60 128.4111
1030.70 134.7638
1030.80 139.9947
1030.90 136.4984
1031.00 133.0163
1031.10 131.4653
1031.20 132.6966
1031.30 133.8813
1031.40 135.2677
1031.50 136.6206
1031.60 137.8478
1031.70 132.8638
1031.80 127.8874
1031.90 124.0884
1032.00 122.8535
1032.10 121.5808
1032.20 121.1163
1032.30 121.0804
1032.40 121.0399
1032.50 119.7851
1032.60 118.4353
1032.70 118.9494
1032.80 125.9851
1032.90 132.9962
1033.00 139.4377
1033.10 145.3097
1033.20 151.221
1033.30 150.8183
1033.40 149.0152
1033.50 146.5894
1033.60 140.0516
1033.70 133.5301
1033.80 128.269
1033.90 124.7204
1034.00 121.1096
1034.10 122.3637
1034.20 125.4558
1034.30 128.4692
1034.40 127.9882
1034.50 127.5072
1034.60 128.0981
1034.70 130.9904
1034.80 133.8201
1034.90 134.1558
1035.00 132.7309
1035.10 131.2267
1035.20 130.1992
1035.30 129.2883
1035.40 128.9489
1035.50 129.603
1035.60 130.2545
1035.70 131.7328
1035.80 133.7659
1035.90 135.8147
1036.00 138.7531
1036.10 141.7612
1036.20 144.4474
1036.30 146.1803
1036.40 147.9367
1036.50 148.1279
1036.60 146.8493
1036.70 145.5661
1036.80 147.0032
1036.90 149.0781
1037.00 151.3976
1037.10 155.418
1037.20 159.4372
1037.30 162.0865
1037.40 162.7939
1037.50 163.5398
1037.60 158.844
1037.70 152.0483
1037.80 145.2268
1037.90 137.9103
1038.00 130.5897
1038.10 125.2882
1038.20 124.4101
1038.30 123.4607
1038.40 127.137
1038.50 133.5388
1038.60 139.9
1038.70 142.629
1038.80 144.9669
1038.90 146.1785
1039.00 143.4899
1039.10 140.8109
1039.20 138.852
1039.30 137.5776
1039.40 136.3045
1039.50 134.9675
1039.60 133.6207
1039.70 132.6053
1039.80 133.9057
1039.90 135.1814
1040.00 137.6606
1040.10 141.836
1040.20 145.9831
1040.30 147.8502
1040.40 148.6578
1040.50 149.3881
1040.60 150.2217
1040.70 151.0612
1040.80 151.7306
1040.90 151.9621
1041.00 152.2156
1041.10 148.5272
1041.20 143.355
1041.30 138.2341
1041.40 136.0341
1041.50 133.818
1041.60 134.6712
1041.70 142.0281
1041.80 149.3346
1041.90 153.9426
1042.00 156.684
1042.10 159.3599
1042.20 155.0287
1042.30 150.0741
1042.40 145.0964
1042.50 139.8036
1042.60 134.5208
1042.70 129.3024
1042.80 124.2211
1042.90 119.0915
1043.00 122.0639
1043.10 126.8073
1043.20 132.1464
1043.30 141.6738
1043.40 151.2181
1043.50 156.7486
1043.60 156.6378
1043.70 156.5953
1043.80 156.0402
1043.90 155.4674
1044.00 154.9386
1044.10 155.6455
1044.20 156.3523
1044.30 156.355
1044.40 154.8489
1044.50 153.3548
1044.60 152.8241
1044.70 152.9347
1044.80 153.0509
1044.90 155.1916
1045.00 157.5334
1045.10 160.9605
1045.20 167.7238
1045.30 174.4982
1045.40 178.7442
1045.50 180.6578
1045.60 182.531
1045.70 180.098
1045.80 176.7394
1045.90 172.1277
1046.00 163.0584
1046.10 153.9895
1046.20 147.8935
1046.30 144.7251
1046.40 141.5258
1046.50 140.2452
1046.60 139.2946
1046.70 138.1057
1046.80 134.7422
1046.90 131.3773
1047.00 129.1376
1047.10 128.6102
1047.20 128.0444
1047.30 128.8294
1047.40 130.0276
1047.50 131.2006
1047.60 132.447
1047.70 133.6967
1047.80 133.9704
1047.90 132.1898
1048.00 130.4186
1048.10 131.2598
1048.20 133.7849
1048.30 136.3768
1048.40 138.8418
1048.50 141.2448
1048.60 142.9805
1048.70 142.7716
1048.80 142.5771
1048.90 142.6492
1049.00 143.0578
1049.10 143.4884
1049.20 144.4258
1049.30 145.4376
1049.40 146.2598
1049.50 145.9749
1049.60 145.7286
1049.70 144.0026
1049.80 140.5025
1049.90 136.9271
1050.00 136.8018
1050.10 137.7404
1050.20 138.7412
1050.30 140.6754
1050.40 142.638
1050.50 142.9737
1050.60 141.0255
1050.70 139.0848
1050.80 137.7387
1050.90 136.6494
1051.00 135.5239
1051.10 133.4952
1051.20 131.4885
1051.30 129.0443
1051.40 125.706
1051.50 122.3383
1051.60 122.2092
1051.70 124.0045
1051.80 125.7309
1051.90 126.3206
1052.00 126.8006
1052.10 127.5069
1052.20 129.0425
1052.30 130.5674
1052.40 132.6621
1052.50 135.1212
1052.60 137.5557
1052.70 140.3111
1052.80 143.099
1052.90 145.1787
1053.00 142.8456
1053.10 140.5439
1053.20 138.7204
1053.30 137.7027
1053.40 136.6429
1053.50 137.2919
1053.60 138.4089
1053.70 139.4408
1053.80 139.1627
1053.90 138.9009
1054.00 138.4457
1054.10 137.801
1054.20 137.1128
1054.30 137.2179
1054.40 137.4893
1054.50 137.623
1054.60 133.8963
1054.70 130.1822
1054.80 127.8288
1054.90 128.447
1055.00 129.0133
1055.10 132.0577
1055.20 136.4368
1055.30 140.682
1055.40 139.188
1055.50 137.1257
1055.60 134.4749
1055.70 130.1287
1055.80 125.7911
1055.90 123.4603
1056.00 123.0063
1056.10 122.5495
1056.20 121.5763
1056.30 120.4332
1056.40 119.5343
1056.50 120.3507
1056.60 121.1572
1056.70 122.3745
1056.80 124.1063
1056.90 125.8662
1057.00 125.7683
1057.10 124.9975
1057.20 124.3232
1057.30 126.6209
1057.40 128.9104
1057.50 131.012
1057.60 132.7992
1057.70 134.6059
1057.80 134.3029
1057.90 133.1809
1058.00 132.0964
1058.10 133.1648
1058.20 134.2323
1058.30 134.4946
1058.40 132.9876
1058.50 131.5242
1058.60 129.8074
1058.70 128.0673
1058.80 126.337
1058.90 124.8633
1059.00 123.388
1059.10 122.2485
1059.20 122.3398
1059.30 122.4319
1059.40 123.3188
1059.50 124.8388
1059.60 126.3344
1059.70 128.371
1059.80 130.5559
1059.90 132.3338
1060.00 131.4573
1060.10 130.5811
1060.20 129.623
1060.30 128.4031
1060.40 127.1819
1060.50 124.7139
1060.60 121.7914
1060.70 118.8743
1060.80 119.0885
1060.90 119.2935
1061.00 120.2318
1061.10 122.0856
1061.20 123.8997
1061.30 127.1732
1061.40 130.9842
1061.50 134.746
1061.60 134.3996
1061.70 134.0684
1061.80 133.1828
1061.90 131.3507
1062.00 129.5152
1062.10 128.4232
1062.20 127.8966
1062.30 127.4686
1062.40 129.0451
1062.50 130.7848
1062.60 132.9993
1062.70 136.8538
1062.80 140.7049
1062.90 143.1565
1063.00 144.2828
1063.10 145.3962
1063.20 144.2362
1063.30 142.666
1063.40 141.1999
1063.50 139.9675
1063.60 138.7121
1063.70 139.1616
1063.80 141.978
1063.90 144.7718
1064.00 146.5709
1064.10 147.9136
1064.20 149.1075
1064.30 149.378
1064.40 149.6569
1064.50 149.1074
1064.60 147.3284
1064.70 145.5476
1064.80 145.8656
1064.90 147.0216
1065.00 148.1534
1065.10 146.7619
1065.20 145.3831
1065.30 143.5272
1065.40 141.0492
1065.50 138.5848
1065.60 136.0207
1065.70 133.2986
1065.80 130.6019
1065.90 130.9933
1066.00 131.6962
1066.10 131.8491
1066.20 130.1074
1066.30 128.3992
1066.40 126.8138
1066.50 125.4444
1066.60 124.0637
1066.70 124.6252
1066.80 125.5372
1066.90 126.3316
1067.00 126.8946
1067.10 127.4616
1067.20 128.9531
1067.30 131.2522
1067.40 133.5459
1067.50 136.4902
1067.60 139.4923
1067.70 142.2947
1067.80 144.3813
1067.90 146.4752
1068.00 147.5461
1068.10 147.1696
1068.20 146.7962
1068.30 148.5215
1068.40 150.8954
1068.50 153.1407
1068.60 154.0365
1068.70 154.9396
1068.80 154.7926
1068.90 152.7113
1069.00 150.6391
1069.10 150.3432
1069.20 151.1628
1069.30 151.9395
1069.40 149.6134
1069.50 146.9694
1069.60 144.0729
1069.70 140.727
1069.80 137.3588
1069.90 137.2345
1070.00 139.8379
1070.10 142.3733
1070.20 141.9377
1070.30 141.2023
1070.40 140.9554
1070.50 142.1792
1070.60 143.3748
1070.70 144.4765
1070.80 145.259
1070.90 145.9831
1071.00 145.3307
1071.10 144.517
1071.20 144.0736
1071.30 146.03
1071.40 147.9599
1071.50 150.1559
1071.60 152.4929
1071.70 154.8816
1071.80 155.2358
1071.90 154.9478
1072.00 154.705
1072.10 154.4647
1072.20 154.2276
1072.30 152.8148
1072.40 149.0761
1072.50 145.3712
1072.60 144.7658
1072.70 146.1167
1072.80 147.6025
1072.90 150.3778
1073.00 153.2372
1073.10 154.5391
1073.20 152.609
1073.30 150.7154
1073.40 148.7085
1073.50 146.9558
1073.60 145.3092
1073.70 145.4095
1073.80 145.6387
1073.90 146.7811
1074.00 151.2902
1074.10 155.8008
1074.20 158.1922
1074.30 158.5017
1074.40 158.8147
1074.50 159.6253
1074.60 160.644
1074.70 161.5329
1074.80 160.6939
1074.90 159.8533
1075.00 158.1216
1075.10 155.3659
1075.20 152.6441
1075.30 149.4263
1075.40 146.0576
1075.50 142.8807
1075.60 146.4346
1075.70 149.9568
1075.80 153.2529
1075.90 155.88
1076.00 158.5311
1076.10 158.7642
1076.20 158.225
1076.30 157.6816
1076.40 157.7058
1076.50 157.7256
1076.60 157.96
1076.70 158.6583
1076.80 159.3581
1076.90 160.1454
1077.00 160.8627
1077.10 161.5224
1077.20 160.4076
1077.30 159.1281
1077.40 157.7279
1077.50 156.0109
1077.60 154.3138
1077.70 153.6721
1077.80 154.0128
1077.90 154.3266
1078.00 155.9384
1078.10 157.7797
1078.20 159.3545
1078.30 159.6615
1078.40 159.98
1078.50 159.3025
1078.60 157.5534
1078.70 155.7636
1078.80 153.2268
1078.90 150.6283
1079.00 148.2599
1079.10 147.1279
1079.20 145.9874
1079.30 144.4853
1079.40 142.4573
1079.50 140.4009
1079.60 141.4893
1079.70 143.7341
1079.80 145.9914
1079.90 148.4878
1080.00 150.986
1080.10 153.2681
1080.20 155.1781
1080.30 157.0977
1080.40 158.292
1080.50 159.0243
1080.60 159.7607
1080.70 159.8888
1080.80 159.9492
1080.90 160.4145
1081.00 161.9069
1081.10 163.4045
1081.20 163.3558
1081.30 162.317
1081.40 161.2889
1081.50 161.934
1081.60 162.7557
1081.70 164.0079
1081.80 166.5667
1081.90 169.1404
1082.00 168.9872
1082.10 166.4298
1082.20 163.8901
1082.30 161.8657
1082.40 159.9997
1082.50 158.2204
1082.60 157.0823
1082.70 155.9333
1082.80 155.4214
1082.90 155.6492
1083.00 155.8831
1083.10 159.4178
1083.20 164.2899
1083.30 169.1873
1083.40 170.9756
1083.50 172.7753
1083.60 173.1924
1083.70 171.8749
1083.80 170.5596
1083.90 169.9535
1084.00 169.6163
1084.10 169.27
1084.20 168.1772
1084.30 167.0874
1084.40 165.443
1084.50 162.5273
1084.60 159.6366
1084.70 157.7546
1084.80 156.7027
1084.90 155.7409
1085.00 159.2472
1085.10 163.1773
1085.20 165.1806
1085.30 159.9332
1085.40 154.7298
1085.50 153.6259
1085.60 156.7822
1085.70 159.9943
1085.80 163.9068
1085.90 167.8811
1086.00 171.6
1086.10 174.2124
1086.20 176.8296
1086.30 178.0209
1086.40 177.9884
1086.50 177.953
1086.60 177.19
1086.70 176.3417
1086.80 175.7025
1086.90 175.9023
1087.00 176.0721
1087.10 176.6514
1087.20 177.6958
1087.30 178.7769
1087.40 176.423
1087.50 172.8603
1087.60 169.3809
1087.70 169.5634
1087.80 169.7102
1087.90 169.9894
1088.00 170.0477
1088.10 170.1381
1088.20 168.9234
1088.30 167.1955
1088.40 165.5695
1088.50 167.1908
1088.60 168.7978
1088.70 169.9521
1088.80 170.1254
1088.90 170.3389
1089.00 170.1078
1089.10 169.6595
1089.20 169.2198
1089.30 167.3701
1089.40 165.3524
1089.50 164.0949
1089.60 165.9726
1089.70 167.8266
1089.80 170.7211
1089.90 174.3357
1090.00 177.8824
1090.10 179.3922
1090.20 180.4579
1090.30 181.4409
1090.40 182.364
1090.50 183.2968
1090.60 182.0183
1090.70 178.6545
1090.80 175.2715
1090.90 171.7196
1091.00 168.1987
1091.10 165.1615
1091.20 165.2876
1091.30 165.3797
1091.40 167.0768
1091.50 170.8623
1091.60 174.621
1091.70 178.274
1091.80 181.8099
1091.90 185.2602
1092.00 183.9899
1092.10 182.7329
1092.20 181.3682
1092.30 179.8829
1092.40 178.3729
1092.50 177.3359
1092.60 176.5562
1092.70 175.8235
1092.80 175.4376
1092.90 175.0823
1093.00 174.9647
1093.10 175.5573
1093.20 176.152
1093.30 175.51
1093.40 174.0535
1093.50 172.6056
1093.60 169.2774
1093.70 165.7381
1093.80 163.9021
1093.90 168.7894
1094.00 173.6379
1094.10 177.3341
1094.20 179.702
1094.30 182.0462
1094.40 178.8131
1094.50 174.3665
1094.60 170.1287
1094.70 167.236
1094.80 164.3115
1094.90 164.7922
1095.00 169.4931
1095.10 174.1603
1095.20 179.1192
1095.30 184.1544
1095.40 188.5571
1095.50 188.264
1095.60 187.9966
1095.70 187.0927
1095.80 185.5285
1095.90 183.9636
1096.00 184.4345
1096.10 185.5944
1096.20 186.711
1096.30 187.0413
1096.40 187.3725
1096.50 187.2788
1096.60 186.3664
1096.70 185.48
1096.80 182.2982
1096.90 177.7619
1097.00 173.2034
1097.10 169.1496
1097.20 165.1504
1097.30 162.6655
1097.40 164.6354
1097.50 166.5725
1097.60 169.3027
1097.70 172.5425
1097.80 175.8081
1097.90 177.4098
1098.00 178.8203
1098.10 179.9771
1098.20 180.7619
1098.30 181.5877
1098.40 179.9008
1098.50 175.7776
1098.60 171.6444
1098.70 171.439
1098.80 172.1891
1098.90 173.0152
1099.00 174.0496
1099.10 175.0784
1099.20 176.6774
1099.30 179.0063
1099.40 181.3166
1099.50 181.9527
1099.60 181.8635
1099.70 181.6354
1099.80 180.5719
1099.90 179.5051
1100.00 178.9369
1100.10 179.1868
1100.20 179.4453
1100.30 178.254
1100.40 176.498
1100.50 174.7988
1100.60 174.8626
1100.70 174.9058
1100.80 175.1659
1100.90 175.652
1101.00 176.1471
1101.10 177.4503
1101.20 179.3867
1101.30 181.4107
1101.40 183.1009
1101.50 184.7325
1101.60 185.433
1101.70 183.4958
1101.80 181.5963
1101.90 178.6048
1102.00 175.0324
1102.10 171.4717
1102.20 168.2627
1102.30 165.0812
1102.40 163.3779
1102.50 167.0638
1102.60 170.688
1102.70 174.4112
1102.80 177.829
1102.90 181.2306
1103.00 179.9468
1103.10 177.6076
1103.20 174.7668
1103.30 169.6547
1103.40 164.5716
1103.50 160.5309
1103.60 158.1469
1103.70 155.794
1103.80 157.5319
1103.90 160.6459
1104.00 163.5426
1104.10 164.0358
1104.20 164.5296
1104.30 165.2615
1104.40 166.7203
1104.50 168.1982
1104.60 169.4692
1104.70 170.5454
1104.80 171.6328
1104.90 170.4493
1105.00 169.2602
1105.10 166.9634
1105.20 162.8199
1105.30 158.7293
1105.40 154.334
1105.50 149.7579
1105.60 145.3363
1105.70 149.0314
1105.80 153.5568
1105.90 157.1862
1106.00 156.9905
1106.10 156.8211
1106.20 156.3848
1106.30 155.9151
1106.40 155.4897
1106.50 157.4838
1106.60 159.7312
1106.70 160.9045
1106.80 158.2785
1106.90 155.6719
1107.00 153.9305
1107.10 153.1696
1107.20 152.4327
1107.30 154.8317
1107.40 157.8662
1107.50 160.3894
1107.60 158.8963
1107.70 157.435
1107.80 156.8055
1107.90 157.517
1108.00 158.2206
1108.10 161.236
1108.20 164.7936
1108.30 168.3097
1108.40 170.9576
1108.50 173.6116
1108.60 174.5568
1108.70 173.1534
1108.80 171.7856
1108.90 170.6577
1109.00 169.7456
1109.10 168.873
1109.20 169.7052
1109.30 170.5125
1109.40 171.9539
1109.50 174.6685
1109.60 177.3903
1109.70 178.998
1109.80 179.8678
1109.90 180.6413
1110.00 179.0787
1110.10 177.3053
1110.20 174.2174
1110.30 168.3376
1110.40 162.4562
1110.50 159.3293
1110.60 157.9696
1110.70 156.6621
1110.80 157.5235
1110.90 158.5738
1111.00 158.96
1111.10 157.2508
1111.20 155.5524
1111.30 154.2973
1111.40 153.444
1111.50 152.5802
1111.60 154.0188
1111.70 155.9859
1111.80 157.8552
1111.90 158.3498
1112.00 158.8639
1112.10 158.8202
1112.20 158.3827
1112.30 157.9544
1112.40 159.7831
1112.50 162.1274
1112.60 164.5341
1112.70 166.8571
1112.80 169.1733
1112.90 170.9439
1113.00 171.99
1113.10 173.0692
1113.20 173.8027
1113.30 174.5265
1113.40 175.2303
1113.50 174.8131
1113.60 174.4239
1113.70 173.0915
1113.80 169.8083
1113.90 166.4714
1114.00 166.1797
1114.10 167.4782
1114.20 168.7857
1114.30 172.477
1114.40 176.1595
1114.50 179.4871
1114.60 182.0857
1114.70 184.7466
1114.80 184.1805
1114.90 181.7976
1115.00 179.5135
1115.10 178.704
1115.20 178.0004
1115.30 177.073
1115.40 175.066
1115.50 173.0832
1115.60 172.6102
1115.70 173.7814
1115.80 174.9253
1115.90 175.0292
1116.00 174.9306
1116.10 174.403
1116.20 171.9418
1116.30 169.4736
1116.40 167.7614
1116.50 166.7387
1116.60 165.7429
1116.70 164.8267
1116.80 163.8902
1116.90 162.6196
1117.00 159.9208
1117.10 157.2267
1117.20 155.0664
1117.30 153.6568
1117.40 152.2325
1117.50 151.8803
1117.60 151.7944
1117.70 151.6727
1117.80 155.0886
1117.90 158.4907
1118.00 161.4549
1118.10 163.2144
1118.20 164.991
1118.30 166.9436
1118.40 168.8764
1118.50 170.6922
1118.60 173.5024
1118.70 176.3403
1118.80 177.051
1118.90 173.2917
1119.00 169.7651
1119.10 167.2547
1119.20 165.3838
1119.30 163.5051
1119.40 163.1587
1119.50 162.9849
1119.60 163.1299
1119.70 164.665
1119.80 166.2011
1119.90 167.078
1120.00 167.3597
1120.10 167.6405
1120.20 164.9265
1120.30 162.1846
1120.40 161.0022
1120.50 165.7411
1120.60 170.4182
1120.70 173.9669
1120.80 176.4029
1120.90 178.7191
1121.00 176.8925
1121.10 174.1328
1121.20 171.4589
1121.30 169.9259
1121.40 168.3939
1121.50 167.2015
1121.60 166.1862
1121.70 165.0869
1121.80 163.4041
1121.90 161.5729
1122.00 160.0924
1122.10 160.9169
1122.20 161.863
1122.30 164.1261
1122.40 167.9171
1122.50 171.6713
1122.60 172.155
1122.70 171.047
1122.80 170.4413
1122.90 171.3499
1123.00 172.0487
1123.10 172.7581
1123.20 171.627
1123.30 169.9102
1123.40 168.1905
1123.50 164.841
1123.60 161.5234
1123.70 158.2154
1123.80 157.8389
1123.90 162.0397
1124.00 166.2388
1124.10 170.3232
1124.20 173.2086
1124.30 176.0295
1124.40 178.851
1124.50 179.1655
1124.60 179.204
1124.70 179.2406
1124.80 177.8554
1124.90 174.8974
1125.00 171.9364
1125.10 168.9655
1125.20 166.98
1125.30 165.1114
1125.40 163.6161
1125.50 165.8451
1125.60 168.0727
1125.70 170.3064
1125.80 171.6751
1125.90 172.5848
1126.00 173.4923
1126.10 173.2735
1126.20 172.4752
1126.30 171.6774
1126.40 171.7457
1126.50 173.2264
1126.60 174.7197
1126.70 176.2125
1126.80 177.5617
1126.90 178.8392
1127.00 180.117
1127.10 179.3054
1127.20 178.005
1127.30 176.7028
1127.40 175.0706
1127.50 173.1324
1127.60 171.1945
1127.70 169.4983
1127.80 168.5527
1127.90 167.6332
1128.00 166.9676
1128.10 168.579
1128.20 170.167
1128.30 171.7524
1128.40 172.7676
1128.50 173.6809
1128.60 174.5945
1128.70 174.0387
1128.80 172.2722
1128.90 170.5039
1129.00 169.4526
1129.10 170.099
1129.20 170.7483
1129.30 171.2631
1129.40 170.8074
1129.50 170.4646
1129.60 170.1244
1129.70 171.0263
1129.80 172.3562
1129.90 173.6859
1130.00 174.5439
1130.10 174.402
1130.20 174.2526
1130.30 173.5106
1130.40 171.2628
1130.50 169.0051
1130.60 166.7432
1130.70 166.1879
1130.80 165.725
1130.90 165.2621
1131.00 166.4612
1131.10 168.2989
1131.20 170.1373
1131.30 171.6234
1131.40 172.7263
1131.50 173.8279
1131.60 175.1964
1131.70 177.1571
1131.80 179.1104
1131.90 181.0663
1132.00 180.1286
1132.10 179.1101
1132.20 178.0911
1132.30 177.0975
1132.40 176.1641
1132.50 175.2313
1132.60 175.1011
1132.70 175.7159
1132.80 176.3308
1132.90 176.7116
1133.00 176.4971
1133.10 176.2673
1133.20 176.04
1133.30 174.726
1133.40 173.383
1133.50 172.0405
1133.60 169.6879
1133.70 166.7862
1133.80 163.8844
1133.90 161.7131
1134.00 160.3173
1134.10 158.9212
1134.20 157.5287
1134.30 156.6721
1134.40 155.9362
1134.50 155.1862
1134.60 152.9687
1134.70 150.7586
1134.80 148.5518
1134.90 152.2821
1135.00 158.5876
1135.10 164.8877
1135.20 167.7424
1135.30 166.5559
1135.40 165.3673
1135.50 164.3311
1135.60 163.5647
1135.70 162.7227
1135.80 161.8717
1135.90 159.1973
1136.00 157.0687
1136.10 154.9425
1136.20 156.7333
1136.30 160.0029
1136.40 163.2682
1136.50 164.274
1136.60 162.586
1136.70 160.8972
1136.80 159.1582
1136.90 157.229
1137.00 155.3105
1137.10 153.3863
1137.20 152.9171
1137.30 152.4134
1137.40 151.9083
1137.50 148.9143
1137.60 144.8847
1137.70 140.8491
1137.80 135.6376
1137.90 128.3711
1138.00 121.0956
1138.10 114.0617
1138.20 108.072
1138.30 102.1303
1138.40 96.15532
1138.50 102.4016
1138.60 109.6033
1138.70 116.8211
1138.80 124.7554
1138.90 133.0782
1139.00 141.3899
1139.10 146.8691
1139.20 147.3047
1139.30 147.7302
1139.40 147.797
1139.50 145.8563
1139.60 143.795
1139.70 141.7412
1139.80 137.4955
1139.90 132.9726
1140.00 128.4441
1140.10 121.9902
1140.20 114.0906
1140.30 106.1827
1140.40 99.59351
1140.50 95.12918
1140.60 90.68638
1140.70 87.90215
1140.80 93.4355
1140.90 99.59872
1141.00 105.7505
1141.10 115.5833
1141.20 125.9116
1141.30 136.233
1141.40 142.3553
1141.50 146.5698
1141.60 150.778
1141.70 154.7633
1141.80 157.6191
1141.90 160.4699
1142.00 162.9808
1142.10 164.0365
1142.20 165.0605
1142.30 166.0922
1142.40 166.9842
1142.50 167.7843
1142.60 168.5855
1142.70 168.7212
1142.80 168.6612
1142.90 168.6006
1143.00 168.604
1143.10 168.4213
1143.20 168.2372
1143.30 167.9923
1143.40 167.5958
1143.50 167.2406
1143.60 166.8851
1143.70 167.3311
1143.80 167.8117
1143.90 168.2895
1144.00 167.4856
1144.10 166.3484
1144.20 165.2152
1144.30 164.2621
1144.40 163.4459
1144.50 162.6297
1144.60 162.3106
1144.70 163.8905
1144.80 165.4464
1144.90 166.9968
1145.00 166.7845
1145.10 166.4309
1145.20 166.0767
1145.30 166.0306
1145.40 165.9725
1145.50 165.914
1145.60 165.6239
1145.70 164.9946
1145.80 164.3655
1145.90 164.4664
1146.00 167.7069
1146.10 171.0271
1146.20 174.35
1146.30 175.0327
1146.40 175.3692
1146.50 175.7059
1146.60 175.9441
1146.70 176.2465
1146.80 176.546
1146.90 177.0907
1147.00 177.521
1147.10 177.9497
1147.20 178.0593
1147.30 177.1433
1147.40 176.3459
1147.50 175.5485
1147.60 176.502
1147.70 177.6936
1147.80 178.8854
1147.90 180.6077
1148.00 182.4196
1148.10 184.2304
1148.20 184.6089
1148.30 182.5892
1148.40 180.5658
1148.50 178.7654
1148.60 178.1225
1148.70 177.6003
1148.80 177.0748
1148.90 179.7696
1149.00 182.904
1149.10 186.0375
1149.20 187.3358
1149.30 187.3443
1149.40 187.3504
1149.50 186.608
1149.60 185.1587
1149.70 183.7122
1149.80 182.3181
1149.90 181.2025
1150.00 180.1094
1150.10 179.0215
1150.20 180.0716
1150.30 181.218
1150.40 182.3647
1150.50 182.7553
1150.60 183.0277
1150.70 183.3016
1150.80 183.7343
1150.90 184.4854
1151.00 185.2352
1151.10 185.8013
1151.20 185.4754
1151.30 185.0982
1151.40 184.7235
1151.50 184.5325
1151.60 184.2649
1151.70 183.9976
1151.80 183.021
1151.90 181.9411
1152.00 180.8615
1152.10 179.3842
1152.20 176.9581
1152.30 174.5284
1152.40 171.9797
1152.50 169.0381
1152.60 166.162
1152.70 163.2765
1152.80 165.9841
1152.90 169.4731
1153.00 172.9621
1153.10 174.6966
1153.20 175.4388
1153.30 176.1809
1153.40 176.4459
1153.50 176.0628
1153.60 175.6818
1153.70 175.6506
1153.80 177.2584
1153.90 178.9558
1154.00 180.6543
1154.10 182.0781
1154.20 183.4418
1154.30 184.8039
1154.40 183.4808
1154.50 180.6958
1154.60 177.9084
1154.70 175.8019
1154.80 174.6574
1154.90 173.5168
1155.00 172.8765
1155.10 174.5761
1155.20 176.3493
1155.30 178.1264
1155.40 179.1197
1155.50 180.0168
1155.60 180.912
1155.70 181.5402
1155.80 182.1461
1155.90 182.7506
1156.00 183.0115
1156.10 182.3535
1156.20 181.6957
1156.30 181.2818
1156.40 182.0694
1156.50 182.9175
1156.60 183.763
1156.70 183.3196
1156.80 182.6199
1156.90 181.9218
1157.00 181.1206
1157.10 180.2002
1157.20 179.2818
1157.30 178.5379
1157.40 178.3048
1157.50 178.0718
1157.60 177.8675
1157.70 177.8038
1157.80 177.7528
1157.90 177.6995
1158.00 178.4261
1158.10 179.2685
1158.20 180.1106
1158.30 180.0756
1158.40 179.5425
1158.50 179.0089
1158.60 178.3632
1158.70 177.4746
1158.80 176.5847
1158.90 175.4646
1159.00 173.3762
1159.10 171.2755
1159.20 169.178
1159.30 167.0119
1159.40 164.7105
1159.50 162.4083
1159.60 161.7073
1159.70 161.9482
1159.80 162.1946
1159.90 163.0302
1160.00 164.7965
1160.10 166.5633
1160.20 168.4218
1160.30 170.667
1160.40 172.9164
1160.50 175.1769
1160.60 173.8861
1160.70 172.3489
1160.80 170.8121
1160.90 170.307
1161.00 170.1319
1161.10 169.9645
1161.20 171.3805
1161.30 175.1384
1161.40 178.9029
1161.50 182.1381
1161.60 183.1767
1161.70 184.1688
1161.80 185.1946
1161.90 182.8308
1162.00 180.2203
1162.10 177.607
1162.20 176.428
1162.30 175.9867
1162.40 175.5474
1162.50 176.0108
1162.60 177.6269
1162.70 179.2442
1162.80 180.9418
1162.90 183.0045
1163.00 185.0791
1163.10 187.1545
1163.20 187.115
1163.30 186.9591
1163.40 186.8091
1163.50 184.033
1163.60 179.8487
1163.70 175.6603
1163.80 172.6888
1163.90 170.9408
1164.00 169.1972
1164.10 168.0038
1164.20 169.7135
1164.30 171.5648
1164.40 173.3973
1164.50 175.9036
1164.60 178.476
1164.70 181.055
1164.80 180.5181
1164.90 179.0054
1165.00 177.4908
1165.10 176.1925
1165.20 174.8941
1165.30 173.5947
1165.40 172.3434
1165.50 171.1938
1165.60 170.0462
1165.70 168.8853
1165.80 170.2717
1165.90 171.862
1166.00 173.4487
1166.10 175.1855
1166.20 176.9609
1166.30 178.7359
1166.40 179.7205
1166.50 179.6203
1166.60 179.5191
1166.70 179.1583
1166.80 178.0872
1166.90 177.0049
1167.00 175.9287
1167.10 174.849
1167.20 173.7787
1167.30 172.705
1167.40 170.7652
1167.50 168.5908
1167.60 166.4166
1167.70 165.4229
1167.80 165.6599
1167.90 165.8978
1168.00 165.6502
1168.10 164.1759
1168.20 162.6892
1168.30 160.9127
1168.40 156.1824
1168.50 151.3493
1168.60 146.5249
1168.70 138.671
1168.80 129.7146
1168.90 120.7482
1169.00 112.5593
1169.10 104.5467
1169.20 96.5468
1169.30 91.74381
1169.40 96.68536
1169.50 101.8781
1169.60 107.3843
1169.70 117.1994
1169.80 127.2998
1169.90 137.4164
1170.00 144.1537
1170.10 149.6839
1170.20 155.2092
1170.30 159.7377
1170.40 163.2429
1170.50 166.7449
1170.60 169.5407
1170.70 170.3466
1170.80 171.1215
1170.90 171.9045
1171.00 172.5337
1171.10 173.101
1171.20 173.6666
1171.30 173.8803
1171.40 174.0712
1171.50 174.2616
1171.60 174.0689
1171.70 173.4574
1171.80 172.8445
1171.90 172.0634
1172.00 171.0828
1172.10 170.1035
1172.20 169.2344
1172.30 169.5645
1172.40 169.934
1172.50 170.301
1172.60 171.2844
1172.70 172.3542
1172.80 173.4253
1172.90 174.3891
1173.00 175.3167
1173.10 176.2434
1173.20 176.5955
1173.30 175.7699
1173.40 174.9415
1173.50 174.1253
1173.60 173.3355
1173.70 172.5456
1173.80 171.7445
1173.90 171.1624
1174.00 170.7303
1174.10 170.2978
1174.20 170.932
1174.30 172.0626
1174.40 173.1936
1174.50 173.9429
1174.60 174.0138
1174.70 174.0822
1174.80 173.8874
1174.90 172.449
1175.00 170.9669
1175.10 169.4926
1175.20 167.2712
1175.30 164.9558
1175.40 162.6388
1175.50 162.5346
1175.60 163.5071
1175.70 164.4813
1175.80 164.438
1175.90 162.6127
1176.00 160.7848
1176.10 158.8102
1176.20 156.0614
1176.30 153.2832
1176.40 150.5091
1176.50 146.593
1176.60 142.5298
1176.70 138.4772
1176.80 130.2171
1176.90 119.5463
1177.00 108.8652
1177.10 99.32189
1177.20 90.59675
1177.30 81.88201
1177.40 74.86736
1177.50 76.38131
1177.60 78.28633
1177.70 80.09042
1177.80 89.40546
1177.90 99.38814
1178.00 109.3727
1178.10 117.7047
1178.20 125.1069
1178.30 132.4995
1178.40 138.6556
1178.50 143.0747
1178.60 147.4911
1178.70 151.6277
1178.80 154.2946
1178.90 156.9305
1179.00 159.58
1179.10 160.2887
1179.20 160.9169
1179.30 161.5483
1179.40 161.743
1179.50 161.7439
1179.60 161.7443
1179.70 162.221
1179.80 163.2175
1179.90 164.2152
1180.00 165.1613
1180.10 166.1178
1180.20 167.0914
1180.30 168.0529
1180.40 168.6723
1180.50 169.2671
1180.60 169.8698
1180.70 169.6172
1180.80 168.9996
1180.90 168.3816
1181.00 167.6156
1181.10 166.7193
1181.20 165.823
1181.30 164.8529
1181.40 163.7309
1181.50 162.611
1181.60 161.5514
1181.70 161.2067
1181.80 160.9178
1181.90 160.6258
1182.00 162.1084
1182.10 164.0723
1182.20 166.038
1182.30 166.8315
1182.40 166.6731
1182.50 166.5112
1182.60 166.1651
1182.70 165.1153
1182.80 164.0637
1182.90 163.1449
1183.00 163.664
1183.10 164.271
1183.20 164.8654
1183.30 164.6297
1183.40 164.239
1183.50 163.8497
1183.60 162.682
1183.70 160.7713
1183.80 158.8589
1183.90 158.0679
1184.00 159.3433
1184.10 160.6235
1184.20 161.9989
1184.30 164.6865
1184.40 167.4206
1184.50 170.1766
1184.60 168.308
1184.70 165.65
1184.80 162.9926
1184.90 160.606
1185.00 158.3592
1185.10 156.1147
1185.20 155.4114
1185.30 157.3343
1185.40 159.2602
1185.50 161.1483
1185.60 163.0716
1185.70 165.0216
1185.80 166.9748
1185.90 167.4145
1186.00 167.6322
1186.10 167.8521
1186.20 167.7335
1186.30 167.5278
1186.40 167.3215
1186.50 167.0449
1186.60 166.4898
1186.70 165.9331
1186.80 165.2312
1186.90 163.7739
1187.00 162.2918
1187.10 160.7986
1187.20 161.6221
1187.30 162.8047
1187.40 163.9818
1187.50 164.448
1187.60 164.6542
1187.70 164.8589
1187.80 164.4052
1187.90 162.996
1188.00 161.5816
1188.10 159.6649
1188.20 155.1136
1188.30 150.5003
1188.40 145.9036
1188.50 144.8782
1188.60 143.9605
1188.70 143.0014
1188.80 146.0674
1188.90 151.4658
1189.00 156.869
1189.10 160.4956
1189.20 162.1582
1189.30 163.8114
1189.40 165.094
1189.50 165.1265
1189.60 165.131
1189.70 165.1271
1189.80 165.8788
1189.90 166.5887
1190.00 167.3022
1190.10 166.996
1190.20 166.3224
1190.30 165.6502
1190.40 164.5878
1190.50 163.0903
1190.60 161.5924
1190.70 160.8661
1190.80 162.1497
1190.90 163.4374
1191.00 164.6575
1191.10 165.5664
1191.20 166.5427
1191.30 167.5204
1191.40 167.9985
1191.50 168.2736
1191.60 168.5488
1191.70 168.5742
1191.80 168.388
1191.90 168.2021
1192.00 168.011
1192.10 167.9341
1192.20 167.8559
1192.30 167.7107
1192.40 166.7299
1192.50 165.7077
1192.60 164.6809
1192.70 164.6005
1192.80 164.6915
1192.90 164.7822
1193.00 165.5688
1193.10 166.8718
1193.20 168.1742
1193.30 168.4758
1193.40 167.1291
1193.50 165.7797
1193.60 164.3156
1193.70 161.3371
1193.80 158.2907
1193.90 155.242
1194.00 154.1905
1194.10 153.4456
1194.20 152.6952
1194.30 152.3588
1194.40 152.3492
1194.50 152.3388
1194.60 151.6268
1194.70 149.5548
1194.80 147.4794
1194.90 145.7618
1195.00 145.4148
1195.10 145.0777
1195.20 144.7075
1195.30 147.8649
1195.40 151.6571
1195.50 155.4437
1195.60 156.6562
1195.70 156.6855
1195.80 156.7107
1195.90 155.7053
1196.00 153.1752
1196.10 150.6444
1196.20 148.4192
1196.30 147.5347
1196.40 146.6658
1196.50 145.7852
1196.60 145.8174
1196.70 145.8938
1196.80 145.9719
1196.90 145.5852
1197.00 144.9411
1197.10 144.2987
1197.20 141.891
1197.30 137.2814
1197.40 132.6706
1197.50 128.8697
1197.60 127.4429
1197.70 126.0328
1197.80 124.5524
1197.90 127.5057
1198.00 130.6846
1198.10 133.8659
1198.20 136.241
1198.30 138.3279
1198.40 140.4133
1198.50 142.5605
1198.60 144.9025
1198.70 147.2421
1198.80 148.2246
1198.90 145.232
1199.00 142.233
1199.10 139.3688
1199.20 137.3853
1199.30 135.3769
1199.40 133.3524
1199.50 133.3432
1199.60 134.0154
1199.70 134.6843
1199.80 135.7157
1199.90 137.0653
1200.00 138.4136
