# Version 2.1 - nm, norm@500 to 1, cut digits
# Wavelength(nm)  Flambda(ergs/cm^s/s/nm)
300.00 0.006269363
300.10 0.007928083
300.20 0.009129869
300.30 0.00987348
300.40 0.01031271
300.50 0.01059022
300.60 0.01077279
300.70 0.01088845
300.80 0.01096482
300.90 0.0110247
301.00 0.01108514
301.10 0.01115337
301.20 0.01122854
301.30 0.01130869
301.40 0.01139184
301.50 0.01147669
301.60 0.01156254
301.70 0.01164899
301.80 0.01173574
301.90 0.01182261
302.00 0.0119095
302.10 0.0119964
302.20 0.01208331
302.30 0.01217032
302.40 0.01225755
302.50 0.01234523
302.60 0.01243368
302.70 0.01252341
302.80 0.01261543
302.90 0.01271123
303.00 0.01281229
303.10 0.01291927
303.20 0.01303151
303.30 0.01314754
303.40 0.01326584
303.50 0.01338543
303.60 0.01350579
303.70 0.0136266
303.80 0.01374763
303.90 0.01386876
304.00 0.01398991
304.10 0.01411105
304.20 0.01423214
304.30 0.01435294
304.40 0.01447305
304.50 0.01459179
304.60 0.01470819
304.70 0.01482064
304.80 0.01492611
304.90 0.01502003
305.00 0.01509784
305.10 0.01515756
305.20 0.01520117
305.30 0.01523323
305.40 0.01525831
305.50 0.01527944
305.60 0.01529824
305.70 0.01531566
305.80 0.01533238
305.90 0.01534883
306.00 0.01536522
306.10 0.0153816
306.20 0.01539799
306.30 0.01541437
306.40 0.01543076
306.50 0.01544715
306.60 0.01546354
306.70 0.01547995
306.80 0.01549637
306.90 0.01551281
307.00 0.01552929
307.10 0.01554581
307.20 0.01556236
307.30 0.01557894
307.40 0.01559553
307.50 0.01561214
307.60 0.01562874
307.70 0.01564535
307.80 0.01566196
307.90 0.01567858
308.00 0.01569519
308.10 0.0157118
308.20 0.01572857
308.30 0.01574603
308.40 0.01576523
308.50 0.01578788
308.60 0.01581637
308.70 0.01585475
308.80 0.0159106
308.90 0.01599534
309.00 0.01612042
309.10 0.01629076
309.20 0.01650143
309.30 0.016741
309.40 0.01699804
309.50 0.01726496
309.60 0.01753773
309.70 0.01781394
309.80 0.0180919
309.90 0.01837055
310.00 0.01864935
310.10 0.01892815
310.20 0.0192068
310.30 0.01948475
310.40 0.01976095
310.50 0.02003368
310.60 0.02030055
310.70 0.02055748
310.80 0.02079684
310.90 0.02100715
311.00 0.02117691
311.10 0.02130118
311.20 0.02138491
311.30 0.02143958
311.40 0.02147669
311.50 0.02150386
311.60 0.02152516
311.70 0.02154299
311.80 0.02155908
311.90 0.02157447
312.00 0.0215897
312.10 0.02160493
312.20 0.02162036
312.30 0.02163664
312.40 0.02165509
312.50 0.02167782
312.60 0.02170779
312.70 0.02175004
312.80 0.02181399
312.90 0.02191381
313.00 0.02206371
313.10 0.0222698
313.20 0.02252597
313.30 0.02281801
313.40 0.02313175
313.50 0.02345776
313.60 0.02379102
313.70 0.02412857
313.80 0.02446827
313.90 0.02480883
314.00 0.02514959
314.10 0.02549035
314.20 0.02583124
314.30 0.02617273
314.40 0.02651573
314.50 0.02686171
314.60 0.02721273
314.70 0.02757229
314.80 0.02794696
314.90 0.0283466
315.00 0.02878111
315.10 0.02925472
315.20 0.02976319
315.30 0.03029664
315.40 0.03084518
315.50 0.03140227
315.60 0.03196441
315.70 0.03252953
315.80 0.03309615
315.90 0.03366337
316.00 0.03423073
316.10 0.03479808
316.20 0.03536494
316.30 0.0359296
316.40 0.03648873
316.50 0.0370369
316.60 0.03756653
316.70 0.03806475
316.80 0.03850746
316.90 0.03885837
317.00 0.03908114
317.10 0.03916015
317.20 0.03911102
317.30 0.03897008
317.40 0.03877364
317.50 0.03854579
317.60 0.03829939
317.70 0.03804204
317.80 0.03777916
317.90 0.03751408
318.00 0.0372485
318.10 0.03698292
318.20 0.03671773
318.30 0.03645421
318.40 0.03619493
318.50 0.03594404
318.60 0.03570734
318.70 0.03549469
318.80 0.03532452
318.90 0.03522463
319.00 0.03522283
319.10 0.03533108
319.20 0.03553741
319.30 0.03581402
319.40 0.03613312
319.50 0.03647627
319.60 0.03683361
319.70 0.03719933
319.80 0.03756929
319.90 0.03794093
320.00 0.03831296
320.10 0.03868498
320.20 0.03905686
320.30 0.03942812
320.40 0.03979782
320.50 0.04016441
320.60 0.04052575
320.70 0.0408782
320.80 0.04121494
320.90 0.04152568
321.00 0.04180015
321.10 0.04203391
321.20 0.0422314
321.30 0.04240289
321.40 0.04255867
321.50 0.04270556
321.60 0.0428472
321.70 0.04298573
321.80 0.0431227
321.90 0.04325905
322.00 0.04339526
322.10 0.04353146
322.20 0.04366819
322.30 0.04380718
322.40 0.0439519
322.50 0.04410794
322.60 0.04428317
322.70 0.04449087
322.80 0.04475597
322.90 0.04511601
323.00 0.04560857
323.10 0.04624978
323.20 0.04702351
323.30 0.04789218
323.40 0.04881826
323.50 0.04977681
323.60 0.05075454
323.70 0.05174359
323.80 0.05273837
323.90 0.05373542
324.00 0.05473299
324.10 0.05573055
324.20 0.05672804
324.30 0.05772515
324.40 0.05872134
324.50 0.05971568
324.60 0.06070691
324.70 0.06169286
324.80 0.06266949
324.90 0.0636307
325.00 0.06457038
325.10 0.06548591
325.20 0.06637992
325.30 0.0672585
325.40 0.06812776
325.50 0.06899175
325.60 0.06985262
325.70 0.07071164
325.80 0.07156974
325.90 0.07242747
326.00 0.07328512
326.10 0.07414277
326.20 0.0750006
326.30 0.07585922
326.40 0.07671984
326.50 0.07758444
326.60 0.07845574
326.70 0.07933842
326.80 0.0802412
326.90 0.08117721
327.00 0.08215962
327.10 0.08319408
327.20 0.08427493
327.30 0.08538902
327.40 0.08652321
327.50 0.08766876
327.60 0.08882104
327.70 0.08997728
327.80 0.09113552
327.90 0.09229456
328.00 0.09345378
328.10 0.094613
328.20 0.09577115
328.30 0.09692464
328.40 0.09806638
328.50 0.09918486
328.60 0.1002639
328.70 0.1012763
328.80 0.1021707
328.90 0.1028701
329.00 0.1032973
329.10 0.1034191
329.20 0.1032687
329.30 0.1029233
329.40 0.1024599
329.50 0.1019299
329.60 0.1013604
329.70 0.1007677
329.80 0.1001632
329.90 0.09955402
330.00 0.0989438
330.10 0.09833359
330.20 0.09772416
330.30 0.09711819
330.40 0.09652094
330.50 0.09594095
330.60 0.09539019
330.70 0.09488892
330.80 0.09447512
330.90 0.094206
331.00 0.0941388
331.10 0.09429814
331.20 0.09465942
331.30 0.09516536
331.40 0.09575878
331.50 0.09640169
331.60 0.09707382
331.70 0.09776322
331.80 0.09846134
331.90 0.09916291
332.00 0.09986528
332.10 0.1005676
332.20 0.1012695
332.30 0.1019692
332.40 0.1026633
332.50 0.1033466
332.60 0.1040113
332.70 0.1046447
332.80 0.1052227
332.90 0.1057091
333.00 0.1060676
333.10 0.1062827
333.20 0.10637
333.30 0.1063657
333.40 0.106306
333.50 0.1062149
333.60 0.1061054
333.70 0.1059849
333.80 0.1058589
333.90 0.1057307
334.00 0.105602
334.10 0.1054801
334.20 0.1053759
334.30 0.1052958
334.40 0.10524
334.50 0.1052038
334.60 0.1052336
334.70 0.1054539
334.80 0.1059533
334.90 0.1066169
335.00 0.1071672
335.10 0.1075816
335.20 0.1084694
335.30 0.1108528
335.40 0.1153121
335.50 0.1211605
335.60 0.1264591
335.70 0.1290542
335.80 0.1278843
335.90 0.12348
336.00 0.1174283
336.10 0.1114476
336.20 0.1068385
336.30 0.1042805
336.40 0.1036082
336.50 0.1038456
336.60 0.1038554
336.70 0.1033133
336.80 0.1030855
336.90 0.1044957
337.00 0.1081081
337.10 0.1130566
337.20 0.1174719
337.30 0.1197101
337.40 0.1194708
337.50 0.1179579
337.60 0.1169547
337.70 0.1175068
337.80 0.1193022
337.90 0.121247
338.00 0.1224586
338.10 0.1226409
338.20 0.1216584
338.30 0.1191907
338.40 0.1152518
338.50 0.1109138
338.60 0.1081209
338.70 0.1083829
338.80 0.1114563
338.90 0.1154417
339.00 0.1183207
339.10 0.1195731
339.20 0.1204565
339.30 0.1226739
339.40 0.126706
339.50 0.1314297
339.60 0.1352107
339.70 0.1371786
339.80 0.1374386
339.90 0.1363442
340.00 0.1340548
340.10 0.1307907
340.20 0.1270425
340.30 0.1232419
340.40 0.1193374
340.50 0.1149971
340.60 0.1102629
340.70 0.1058121
340.80 0.1025349
340.90 0.1009576
341.00 0.1010782
341.10 0.1025849
341.20 0.1050674
341.30 0.1080261
341.40 0.1108908
341.50 0.113203
341.60 0.114814
341.70 0.1159124
341.80 0.1168176
341.90 0.1176946
342.00 0.118381
342.10 0.1184261
342.20 0.1173826
342.30 0.1152256
342.40 0.1125694
342.50 0.1103932
342.60 0.1094333
342.70 0.1097608
342.80 0.1108584
342.90 0.1120367
343.00 0.1128504
343.10 0.1132872
343.20 0.1136389
343.30 0.1141625
343.40 0.1148155
343.50 0.1153177
343.60 0.1154315
343.70 0.1151039
343.80 0.1144066
343.90 0.1134876
344.00 0.1125982
344.10 0.1120228
344.20 0.1118548
344.30 0.1118887
344.40 0.1118285
344.50 0.1116046
344.60 0.1114635
344.70 0.1117849
344.80 0.1128534
344.90 0.1147541
345.00 0.1173915
345.10 0.1205277
345.20 0.1238047
345.30 0.1267676
345.40 0.1289399
345.50 0.1300232
345.60 0.1300958
345.70 0.1295913
345.80 0.1290002
345.90 0.128535
346.00 0.1280461
346.10 0.1271904
346.20 0.125702
346.30 0.1236348
346.40 0.1214364
346.50 0.1197008
346.60 0.1187148
346.70 0.1182234
346.80 0.1176747
346.90 0.1166802
347.00 0.1152299
347.10 0.1136185
347.20 0.1123174
347.30 0.1118431
347.40 0.1125269
347.50 0.1142727
347.60 0.116601
347.70 0.118997
347.80 0.1212203
347.90 0.1233198
348.00 0.1254145
348.10 0.1274657
348.20 0.1292061
348.30 0.1302826
348.40 0.1305163
348.50 0.13005
348.60 0.1292113
348.70 0.1282386
348.80 0.1271879
348.90 0.1260626
349.00 0.1249268
349.10 0.1238806
349.20 0.1230051
349.30 0.1223898
349.40 0.1221692
349.50 0.1224327
349.60 0.1230808
349.70 0.1238434
349.80 0.1245345
349.90 0.1253382
350.00 0.1267738
350.10 0.1292665
350.20 0.1326916
350.30 0.1363337
350.40 0.1393106
350.50 0.1410644
350.60 0.1415234
350.70 0.1409171
350.80 0.1395319
350.90 0.1375674
351.00 0.1350644
351.10 0.1319113
351.20 0.1280053
351.30 0.1235399
351.40 0.1191497
351.50 0.1156522
351.60 0.1135319
351.70 0.1126396
351.80 0.1123949
351.90 0.112272
352.00 0.1120991
352.10 0.1119627
352.20 0.111996
352.30 0.1123425
352.40 0.1132626
352.50 0.1151734
352.60 0.1184138
352.70 0.1228712
352.80 0.1278555
352.90 0.1324519
353.00 0.1361357
353.10 0.1390614
353.20 0.1417282
353.30 0.1444414
353.40 0.1471659
353.50 0.1497938
353.60 0.1523667
353.70 0.1549758
353.80 0.1575743
353.90 0.1599799
354.00 0.1619696
354.10 0.1632939
354.20 0.1636985
354.30 0.1631146
354.40 0.1618639
354.50 0.1605535
354.60 0.1596594
354.70 0.1592154
354.80 0.1589179
354.90 0.1584782
355.00 0.1578357
355.10 0.1570982
355.20 0.1563777
355.30 0.1557139
355.40 0.1551115
355.50 0.1545548
355.60 0.1539437
355.70 0.1530524
355.80 0.1516208
355.90 0.1495551
356.00 0.1470252
356.10 0.1443263
356.20 0.1416409
356.30 0.1389221
356.40 0.1360021
356.50 0.1328433
356.60 0.1297153
356.70 0.1271111
356.80 0.1254288
356.90 0.1246859
357.00 0.1245246
357.10 0.1244606
357.20 0.1241107
357.30 0.1232722
357.40 0.1219051
357.50 0.1201036
357.60 0.1180668
357.70 0.1160345
357.80 0.1142067
357.90 0.1127006
358.00 0.111591
358.10 0.1110009
358.20 0.1111174
358.30 0.1120738
358.40 0.1137887
358.50 0.1159233
358.60 0.1179995
358.70 0.1195869
358.80 0.1204676
358.90 0.1207278
359.00 0.1207526
359.10 0.1210736
359.20 0.1220784
359.30 0.123747
359.40 0.1256188
359.50 0.1270707
359.60 0.1277216
359.70 0.127648
359.80 0.1272483
359.90 0.1268805
360.00 0.1265683
360.10 0.1260048
360.20 0.1248448
360.30 0.1230305
360.40 0.1209075
360.50 0.1190935
360.60 0.1182238
360.70 0.1187146
360.80 0.1205853
360.90 0.1234167
361.00 0.1265416
361.10 0.1293905
361.20 0.1317291
361.30 0.1335923
361.40 0.1350434
361.50 0.1360573
361.60 0.1366561
361.70 0.137056
361.80 0.1375591
361.90 0.1382765
362.00 0.1390243
362.10 0.1395338
362.20 0.1397031
362.30 0.139631
362.40 0.1394911
362.50 0.1394272
362.60 0.1394836
362.70 0.1395236
362.80 0.1392596
362.90 0.1384939
363.00 0.1373766
363.10 0.1363637
363.20 0.1358726
363.30 0.1359878
363.40 0.1364788
363.50 0.137031
363.60 0.1374335
363.70 0.137606
363.80 0.1375196
363.90 0.1371192
364.00 0.1363131
364.10 0.1350328
364.20 0.1333225
364.30 0.1313804
364.40 0.1295204
364.50 0.1280859
364.60 0.1273389
364.70 0.1273405
364.80 0.1279212
364.90 0.1288193
365.00 0.1299065
365.10 0.1312778
365.20 0.1330589
365.30 0.1351084
365.40 0.1369568
365.50 0.1380932
365.60 0.1383537
365.70 0.1380344
365.80 0.1376143
365.90 0.1373892
366.00 0.137365
366.10 0.1374414
366.20 0.1376195
366.30 0.1379799
366.40 0.1385042
366.50 0.13899
366.60 0.1391453
366.70 0.138764
366.80 0.1378325
366.90 0.1365146
367.00 0.1350818
367.10 0.1338414
367.20 0.1330723
367.30 0.1329581
367.40 0.1335197
367.50 0.1346013
367.60 0.1359457
367.70 0.1373159
367.80 0.1385806
367.90 0.1397126
368.00 0.1407235
368.10 0.1415954
368.20 0.1422552
368.30 0.1426034
368.40 0.1425805
368.50 0.1422394
368.60 0.141772
368.70 0.1414394
368.80 0.1414308
368.90 0.1417632
369.00 0.142318
369.10 0.1429781
369.20 0.1436993
369.30 0.1444354
369.40 0.1450425
369.50 0.1453183
369.60 0.1451763
369.70 0.1447757
369.80 0.1444681
369.90 0.1446124
370.00 0.1453977
370.10 0.1467687
370.20 0.1484813
370.30 0.1502229
370.40 0.1517162
370.50 0.1527706
370.60 0.1533064
370.70 0.1533932
370.80 0.1532455
370.90 0.1531154
371.00 0.1531205
371.10 0.1531382
371.20 0.1528539
371.30 0.1519295
371.40 0.1502043
371.50 0.1478244
371.60 0.1452193
371.70 0.1429144
371.80 0.1413037
371.90 0.1405178
372.00 0.1404269
372.10 0.1406808
372.20 0.1407246
372.30 0.1399222
372.40 0.1378564
372.50 0.1346757
372.60 0.1311766
372.70 0.1284757
372.80 0.1274803
372.90 0.1285056
373.00 0.1312256
373.10 0.1348821
373.20 0.1385666
373.30 0.1414565
373.40 0.1429862
373.50 0.1429192
373.60 0.1413169
373.70 0.1384556
373.80 0.1347681
373.90 0.1308346
374.00 0.1273435
374.10 0.1249755
374.20 0.124255
374.30 0.125458
374.40 0.1286044
374.50 0.1334664
374.60 0.13955
374.70 0.1460835
374.80 0.1520976
374.90 0.1566441
375.00 0.1590718
375.10 0.1592014
375.20 0.157317
375.30 0.1540176
375.40 0.1500393
375.50 0.1461003
375.60 0.1427461
375.70 0.1402368
375.80 0.1385489
375.90 0.1375095
376.00 0.1370012
376.10 0.1371236
376.20 0.1382237
376.30 0.1407714
376.40 0.1451331
376.50 0.1513898
376.60 0.1593084
376.70 0.1683804
376.80 0.1778122
376.90 0.1864877
377.00 0.1930945
377.10 0.1965104
377.20 0.1962374
377.30 0.1925627
377.40 0.1863586
377.50 0.1787171
377.60 0.1706645
377.70 0.1630314
377.80 0.1563843
377.90 0.1509823
378.00 0.1468055
378.10 0.1436771
378.20 0.1414096
378.30 0.1398665
378.40 0.138948
378.50 0.1385986
378.60 0.1388617
378.70 0.1399049
378.80 0.1419699
378.90 0.1453181
379.00 0.1502382
379.10 0.1570296
379.20 0.1658422
379.30 0.1764314
379.40 0.1880256
379.50 0.1994217
379.60 0.2092234
379.70 0.2161037
379.80 0.2190853
379.90 0.217808
380.00 0.2126749
380.10 0.2047361
380.20 0.1953327
380.30 0.1856946
380.40 0.1766974
380.50 0.1688224
380.60 0.1622268
380.70 0.1568281
380.80 0.1523864
380.90 0.1486439
381.00 0.1454614
381.10 0.1428372
381.20 0.1407927
381.30 0.139254
381.40 0.1380794
381.50 0.1372049
381.60 0.1381298
381.70 0.1426423
381.80 0.1515639
381.90 0.1657031
382.00 0.1868893
382.10 0.2097179
382.20 0.2077039
382.30 0.2347684
382.40 0.2945862
382.50 0.3571357
382.60 0.414251
382.70 0.4603652
382.80 0.4979282
382.90 0.5339481
383.00 0.7089857
383.10 1.010188
383.20 1.17549
383.30 1.179407
383.40 1.03895
383.50 0.8240425
383.60 0.6376821
383.70 0.5519446
383.80 0.54362
383.90 0.5263866
384.00 0.4596307
384.10 0.3740763
384.20 0.3007155
384.30 0.2176192
384.40 0.1258724
384.50 0.1531653
384.60 0.2852773
384.70 0.635889
384.80 0.9955631
384.90 1.167081
385.00 1.047953
385.10 0.7052192
385.20 0.3493895
385.30 0.2048303
385.40 0.3422312
385.50 0.6285885
385.60 0.8600471
385.70 0.9222945
385.80 0.8205654
385.90 0.6196308
386.00 0.4049288
386.10 0.260843
386.20 0.237734
386.30 0.3142152
386.40 0.4261511
386.50 0.5320867
386.60 0.6263137
386.70 0.7115493
386.80 0.7762477
386.90 0.8216812
387.00 0.8700756
387.10 0.9273573
387.20 0.9677459
387.30 0.9686985
387.40 0.9467234
387.50 0.9215082
387.60 0.8682634
387.70 0.7536054
387.80 0.6293834
387.90 0.6018448
388.00 0.6933168
388.10 0.7952618
388.20 0.7832242
388.30 0.6630243
388.40 0.5387109
388.50 0.4913107
388.60 0.5240764
388.70 0.6020672
388.80 0.6927534
388.90 0.7639229
389.00 0.7823012
389.10 0.7221172
389.20 0.5751816
389.30 0.3542131
389.40 0.1337766
389.50 0
389.60 0
389.70 0
389.80 0.1044029
389.90 0.1210559
390.00 0.01609661
390.10 0.0351975
390.20 0.05337855
390.30 0.1032613
390.40 0.2482401
390.50 0.2646142
390.60 0.2305829
390.70 0.3011974
390.80 0.5211751
390.90 0.7693482
391.00 0.876794
391.10 0.754059
391.20 0.4395356
391.30 0.3536018
391.40 0.3068995
391.50 0.2530556
391.60 0.1946886
391.70 0.1306918
391.80 0.0604802
391.90 0
392.00 0
392.10 0
392.20 0
392.30 0.03871407
392.40 0.04417745
392.50 0
392.60 0
392.70 0
392.80 0
392.90 0
393.00 0.1528195
393.10 0.5268631
393.20 0.9303025
393.30 1.281814
393.40 1.390733
393.50 1.148718
393.60 0.6741816
393.70 0.2434825
393.80 0.04958545
393.90 0.06198099
394.00 0.1128146
394.10 0.1001165
394.20 0
394.30 0.002376592
394.40 0.0006325283
394.50 0
394.60 0
394.70 0.04973947
394.80 0.03404052
394.90 0.05645365
395.00 0.06461081
395.10 0.05713831
395.20 0.03701863
395.30 0.009299473
395.40 0
395.50 0.1360118
395.60 0.4339636
395.70 0.5263327
395.80 0.4030614
395.90 0.1844457
396.00 0.1012542
396.10 0.1721428
396.20 0.2376042
396.30 0.2926875
396.40 0.3351299
396.50 0.4634387
396.60 0.7204896
396.70 1.033283
396.80 1.314384
396.90 1.459488
397.00 1.423617
397.10 1.228903
397.20 0.9224265
397.30 0.6209811
397.40 0.3357858
397.50 0.1134554
397.60 0.0327419
397.70 0.09389834
397.80 0.2159101
397.90 0.3134758
398.00 0.371925
398.10 0.4366012
398.20 0.5297681
398.30 0.5996343
398.40 0.5656295
398.50 0.402519
398.60 0.1742269
398.70 0
398.80 0
398.90 0
399.00 0
399.10 0
399.20 0
399.30 0
399.40 0
399.50 0
399.60 0.07630606
399.70 0.1527509
399.80 0.1639887
399.90 0.1584832
400.00 0.1855034
400.10 0.2554085
400.20 0.3282068
400.30 0.3499759
400.40 0.308153
400.50 0.2607211
400.60 0.2747804
400.70 0.2702121
400.80 0.2460635
400.90 0.2645344
401.00 0.2441344
401.10 0.1508604
401.20 0.01421642
401.30 0
401.40 0
401.50 0
401.60 0
401.70 0.08734682
401.80 0.2669742
401.90 0.3681791
402.00 0.4054901
402.10 0.426301
402.20 0.4713473
402.30 0.5309693
402.40 0.5518512
402.50 0.505735
402.60 0.4324966
402.70 0.3874161
402.80 0.3768226
402.90 0.3765325
403.00 0.3837862
403.10 0.4251789
403.20 0.5008484
403.30 0.5599475
403.40 0.547258
403.50 0.4568635
403.60 0.3380629
403.70 0.2795703
403.80 0.2792643
403.90 0.2888551
404.00 0.3026602
404.10 0.3210333
404.20 0.3796475
404.30 0.4907714
404.40 0.6242031
404.50 0.7307166
404.60 0.7666309
404.70 0.7002439
404.80 0.5380576
404.90 0.34846
405.00 0.2172177
405.10 0.1720463
405.20 0.167664
405.30 0.1555042
405.40 0.1419922
405.50 0.1512312
405.60 0.1782456
405.70 0.1823965
405.80 0.1219833
405.90 0.06513031
406.00 0.08029069
406.10 0.1603682
406.20 0.2418945
406.30 0.2842421
406.40 0.3008182
406.50 0.352954
406.60 0.4291315
406.70 0.4885641
406.80 0.5123877
406.90 0.4786368
407.00 0.3723861
407.10 0.2170213
407.20 0.1399613
407.30 0.1311002
407.40 0.1199653
407.50 0.1790035
407.60 0.2208349
407.70 0.226737
407.80 0.2200301
407.90 0.2009224
408.00 0.1556474
408.10 0.09108153
408.20 0.04114107
408.30 0.01918627
408.40 0.02361091
408.50 0.05063329
408.60 0.09467444
408.70 0.1342777
408.80 0.1377054
408.90 0.09496604
409.00 0.04205592
409.10 0.06158039
409.20 0.1795381
409.30 0.3345443
409.40 0.4171759
409.50 0.4012762
409.60 0.3716594
409.70 0.431588
409.80 0.601729
409.90 0.8205413
410.00 1.005257
410.10 1.092902
410.20 1.048219
410.30 0.8691516
410.40 0.5949934
410.50 0.295112
410.60 0.04091024
410.70 0.01175789
410.80 0
410.90 0
411.00 0.002232868
411.10 0.01274382
411.20 0.02165765
411.30 0.02639126
411.40 0.0243098
411.50 0.01254774
411.60 0.1738202
411.70 0.4715611
411.80 0.6836345
411.90 0.7454868
412.00 0.6918808
412.10 0.5980188
412.20 0.5352562
412.30 0.4993899
412.40 0.4734478
412.50 0.4348821
412.60 0.3753182
412.70 0.3020628
412.80 0.2288598
412.90 0.1657893
413.00 0.1201835
413.10 0.09928079
413.20 0.1017785
413.30 0.1221232
413.40 0.1581045
413.50 0.20746
413.60 0.262822
413.70 0.3144172
413.80 0.351472
413.90 0.354486
414.00 0.2964115
414.10 0.1602667
414.20 0.1263219
414.30 0.09319626
414.40 0.05726153
414.50 0.02042823
414.60 0
414.70 0
414.80 0.06537488
414.90 0.1320107
415.00 0.0560002
415.10 0
415.20 0
415.30 0
415.40 0
415.50 0
415.60 0
415.70 0
415.80 0
415.90 0
416.00 0.01432108
416.10 0.0955796
416.20 0.1704263
416.30 0.1952443
416.40 0.1351743
416.50 0.003217913
416.60 0
416.70 0
416.80 0
416.90 0
417.00 0.05396052
417.10 0.2120513
417.20 0.2765247
417.30 0.2859377
417.40 0.3055938
417.50 0.3332555
417.60 0.3086663
417.70 0.2032471
417.80 0.06350223
417.90 0.04434561
418.00 0.02344117
418.10 0
418.20 0
418.30 0
418.40 0
418.50 0.02089473
418.60 0.2333195
418.70 0.4511402
418.80 0.6356475
418.90 0.7662305
419.00 0.8498214
419.10 0.8925568
419.20 0.8791763
419.30 0.7924443
419.40 0.64398
419.50 0.4672464
419.60 0.3000043
419.70 0.1783819
419.80 0.1381199
419.90 0.1601172
420.00 0.1941616
420.10 0.1796472
420.20 0.09360293
420.30 0.02525105
420.40 0
420.50 0
420.60 0
420.70 0
420.80 0.03656969
420.90 0.07931709
421.00 0.07271927
421.10 0.0582511
421.20 0.09940241
421.30 0.2189659
421.40 0.4115349
421.50 0.5664311
421.60 0.6466655
421.70 0.6609145
421.80 0.6353533
421.90 0.5848536
422.00 0.5154815
422.10 0.4427262
422.20 0.3898951
422.30 0.3571044
422.40 0.3018343
422.50 0.1815739
422.60 0.02710327
422.70 0.02093333
422.80 0.01163305
422.90 0.003327663
423.00 0.001456714
423.10 0.01047929
423.20 0.03283508
423.30 0.06814926
423.40 0.1119767
423.50 0.2442215
423.60 0.4747517
423.70 0.6297209
423.80 0.6820561
423.90 0.6432467
424.00 0.5396444
424.10 0.4015248
424.20 0.2562074
424.30 0.1181228
424.40 0.04684917
424.50 0.0248825
424.60 0.01377658
424.70 0.01455553
424.80 0.1136292
424.90 0.2535651
425.00 0.3801523
425.10 0.4619708
425.20 0.4787251
425.30 0.438585
425.40 0.3722645
425.50 0.3202932
425.60 0.3129021
425.70 0.3528088
425.80 0.4106297
425.90 0.4390297
426.00 0.4119694
426.10 0.349321
426.20 0.290346
426.30 0.2587833
426.40 0.266668
426.50 0.3150333
426.60 0.3707242
426.70 0.3595264
426.80 0.2265669
426.90 0.07860371
427.00 0.06706867
427.10 0.0530872
427.20 0.03646313
427.30 0.01662621
427.40 0
427.50 0
427.60 0
427.70 0
427.80 0.02752697
427.90 0.03724678
428.00 0.01157187
428.10 0
428.20 0
428.30 0
428.40 0.008105653
428.50 0.04797432
428.60 0.09180659
428.70 0.1338623
428.80 0.1682873
428.90 0.1932479
429.00 0.2114442
429.10 0.3021454
429.20 0.4024861
429.30 0.4665556
429.40 0.5058655
429.50 0.5298827
429.60 0.5409674
429.70 0.523969
429.80 0.4610821
429.90 0.3731785
430.00 0.3223898
430.10 0.3458163
430.20 0.4038208
430.30 0.4240374
430.40 0.3896275
430.50 0.356376
430.60 0.3707822
430.70 0.4125529
430.80 0.4384225
430.90 0.4407338
431.00 0.4421048
431.10 0.4592267
431.20 0.4885352
431.30 0.5161841
431.40 0.5248206
431.50 0.49677
431.60 0.4621405
431.70 0.4366865
431.80 0.399595
431.90 0.3566517
432.00 0.3270917
432.10 0.3632552
432.20 0.4144152
432.30 0.4723813
432.40 0.5128485
432.50 0.4999571
432.60 0.4127346
432.70 0.2800993
432.80 0.1724706
432.90 0.1342217
433.00 0.1317781
433.10 0.09275508
433.20 0.05365868
433.30 0.06373774
433.40 0.0795262
433.50 0.09859179
433.60 0.1172486
433.70 0.1479774
433.80 0.3539131
433.90 0.6153659
434.00 0.8923522
434.10 1.094468
434.20 1.131682
434.30 0.9926437
434.40 0.7657295
434.50 0.5707861
434.60 0.4709032
434.70 0.4458264
434.80 0.4327943
434.90 0.3834797
435.00 0.2915728
435.10 0.1843568
435.20 0.09605637
435.30 0.04427949
435.40 0.03431442
435.50 0.08202025
435.60 0.171587
435.70 0.3033556
435.80 0.4216726
435.90 0.4267639
436.00 0.2723321
436.10 0.05150889
436.20 0.00921221
436.30 0.0425966
436.40 0.1521484
436.50 0.2856603
436.60 0.3281932
436.70 0.3277023
436.80 0.3667916
436.90 0.4655507
437.00 0.5631537
437.10 0.5849883
437.20 0.5052282
437.30 0.3549478
437.40 0.191595
437.50 0.06098314
437.60 0
437.70 0
437.80 0
437.90 0.04656405
438.00 0.1128478
438.10 0.1646587
438.20 0.1548014
438.30 0.1022463
438.40 0.07587375
438.50 0.0892935
438.60 0.09285657
438.70 0.09521929
438.80 0.1426452
438.90 0.2236187
439.00 0.2967165
439.10 0.2980158
439.20 0.2160531
439.30 0.1057699
439.40 0.02485911
439.50 0
439.60 0
439.70 0
439.80 0
439.90 0.07209904
440.00 0.1700171
440.10 0.1970913
440.20 0.1297791
440.30 0.01174361
440.40 0
440.50 0
440.60 0
440.70 0
440.80 0
440.90 0.1012494
441.00 0.2492158
441.10 0.3665584
441.20 0.4187575
441.30 0.4044738
441.40 0.3597644
441.50 0.3273314
441.60 0.3245269
441.70 0.3359336
441.80 0.3291318
441.90 0.2835716
442.00 0.211897
442.10 0.1535671
442.20 0.1437493
442.30 0.1843544
442.40 0.2380397
442.50 0.2565471
442.60 0.221643
442.70 0.1601755
442.80 0.1225051
442.90 0.1390817
443.00 0.1914085
443.10 0.2273352
443.20 0.204605
443.30 0.122153
443.40 0.01524814
443.50 0
443.60 0.008362416
443.70 0.04009618
443.80 0.1757137
443.90 0.3086627
444.00 0.3842942
444.10 0.3938317
444.20 0.3735508
444.30 0.3546029
444.40 0.3267185
444.50 0.2802493
444.60 0.2058353
444.70 0.1171877
444.80 0.06716406
444.90 0.08404825
445.00 0.1596829
445.10 0.2742445
445.20 0.412099
445.30 0.5394581
445.40 0.5941354
445.50 0.5348771
445.60 0.4358124
445.70 0.3318827
445.80 0.2869224
445.90 0.2892293
446.00 0.2943197
446.10 0.2973297
446.20 0.3368703
446.30 0.4371612
446.40 0.5688249
446.50 0.6647728
446.60 0.664504
446.70 0.5588884
446.80 0.4073303
446.90 0.2989434
447.00 0.2782257
447.10 0.3104028
447.20 0.3312676
447.30 0.3203133
447.40 0.3042327
447.50 0.306144
447.60 0.3149954
447.70 0.2966601
447.80 0.2308201
447.90 0.1358947
448.00 0.1411815
448.10 0.1340852
448.20 0.1432972
448.30 0.2491597
448.40 0.322059
448.50 0.3457896
448.60 0.3514292
448.70 0.3741001
448.80 0.41389
448.90 0.4471903
449.00 0.4667947
449.10 0.4926777
449.20 0.5443003
449.30 0.6109427
449.40 0.6570884
449.50 0.6604119
449.60 0.6348875
449.70 0.6111528
449.80 0.6074146
449.90 0.617849
450.00 0.6238385
450.10 0.6130491
450.20 0.5860632
450.30 0.5583116
450.40 0.5514307
450.50 0.5721344
450.60 0.6012462
450.70 0.6124771
450.80 0.598744
450.90 0.5774417
451.00 0.5680582
451.10 0.5704424
451.20 0.573501
451.30 0.5682953
451.40 0.5501336
451.50 0.5140989
451.60 0.4567452
451.70 0.3884371
451.80 0.3390082
451.90 0.3413429
452.00 0.4022692
452.10 0.4951445
452.20 0.5826767
452.30 0.6481008
452.40 0.7011174
452.50 0.7558241
452.60 0.8070249
452.70 0.8269613
452.80 0.7830651
452.90 0.6710062
453.00 0.5348513
453.10 0.440304
453.20 0.4232254
453.30 0.4622413
453.40 0.5003415
453.50 0.4887504
453.60 0.4149061
453.70 0.3053641
453.80 0.2123427
453.90 0.1774627
454.00 0.2009826
454.10 0.2508552
454.20 0.2933827
454.30 0.3200793
454.40 0.3481138
454.50 0.3880783
454.60 0.4167864
454.70 0.3951786
454.80 0.3096961
454.90 0.1936318
455.00 0.1062579
455.10 0.09988368
455.20 0.207314
455.30 0.4166286
455.40 0.6472863
455.50 0.7924591
455.60 0.8081109
455.70 0.7442592
455.80 0.6778539
455.90 0.6390184
456.00 0.6157352
456.10 0.598241
456.20 0.5918165
456.30 0.6003509
456.40 0.6175325
456.50 0.6374218
456.60 0.6595134
456.70 0.6836072
456.80 0.7050015
456.90 0.7162037
457.00 0.7167803
457.10 0.7156553
457.20 0.7247809
457.30 0.756503
457.40 0.8190949
457.50 0.8984899
457.60 0.950945
457.70 0.9339313
457.80 0.857313
457.90 0.7850069
458.00 0.7706288
458.10 0.8159101
458.20 0.8867352
458.30 0.9424974
458.40 0.9489572
458.50 0.8834661
458.60 0.7521732
458.70 0.5968892
458.80 0.4702097
458.90 0.4030389
459.00 0.3864105
459.10 0.3745692
459.20 0.326214
459.30 0.2546917
459.40 0.2192635
459.50 0.2574206
459.60 0.3376169
459.70 0.397524
459.80 0.4128548
459.90 0.4067907
460.00 0.4046477
460.10 0.4034651
460.20 0.3879843
460.30 0.3540688
460.40 0.3098185
460.50 0.2677139
460.60 0.2416511
460.70 0.2403221
460.80 0.2636498
460.90 0.3167211
461.00 0.4187068
461.10 0.573962
461.20 0.7336935
461.30 0.8216812
461.40 0.8120796
461.50 0.7566648
461.60 0.7202278
461.70 0.7104352
461.80 0.6953341
461.90 0.6644194
462.00 0.6423813
462.10 0.6522536
462.20 0.6938632
462.30 0.7594376
462.40 0.8397914
462.50 0.9082484
462.60 0.9196501
462.70 0.8440378
462.80 0.6933013
462.90 0.5148605
463.00 0.3687745
463.10 0.3047271
463.20 0.3356618
463.30 0.4211063
463.40 0.4981426
463.50 0.538463
463.60 0.5637984
463.70 0.59863
463.80 0.6315836
463.90 0.6357314
464.00 0.6070608
464.10 0.5726455
464.20 0.5634452
464.30 0.5857529
464.40 0.6210287
464.50 0.6478606
464.60 0.6628946
464.70 0.683422
464.80 0.7235141
464.90 0.7675018
465.00 0.779221
465.10 0.7380885
465.20 0.6602329
465.30 0.5828921
465.40 0.5350582
465.50 0.5273826
465.60 0.5626384
465.70 0.6412026
465.80 0.7502781
465.90 0.8617905
466.00 0.94233
466.10 0.9668538
466.20 0.9362148
466.30 0.8841269
466.40 0.8556712
466.50 0.8719585
466.60 0.9144383
466.70 0.9431388
466.80 0.9215983
466.90 0.8257951
467.00 0.6616011
467.10 0.4845122
467.20 0.3757196
467.30 0.3747138
467.40 0.4433597
467.50 0.5065322
467.60 0.5184009
467.70 0.4803778
467.80 0.4184226
467.90 0.3644338
468.00 0.3476198
468.10 0.3809654
468.20 0.4508179
468.30 0.5326911
468.40 0.6137124
468.50 0.6948928
468.60 0.774789
468.70 0.8395363
468.80 0.8754732
468.90 0.8823036
469.00 0.8659823
469.10 0.827285
469.20 0.7724793
469.30 0.7330027
469.40 0.7412557
469.50 0.7808407
469.60 0.7907187
469.70 0.7382881
469.80 0.6621721
469.90 0.615359
470.00 0.5928318
470.10 0.5507809
470.20 0.4848059
470.30 0.4397854
470.40 0.4466709
470.50 0.477694
470.60 0.4767488
470.70 0.4245904
470.80 0.3569533
470.90 0.3304723
471.00 0.3773849
471.10 0.4856868
471.20 0.6081793
471.30 0.6911247
471.40 0.7101114
471.50 0.6882105
471.60 0.6750197
471.70 0.6926339
471.80 0.7095346
471.90 0.6758675
472.00 0.5814984
472.10 0.4731376
472.20 0.4182688
472.30 0.4564192
472.40 0.5695212
472.50 0.6953198
472.60 0.7780238
472.70 0.8142764
472.80 0.8447058
472.90 0.8955216
473.00 0.941257
473.10 0.936771
473.20 0.8707697
473.30 0.7720592
473.40 0.6737832
473.50 0.5896367
473.60 0.5276337
473.70 0.509005
473.80 0.5574172
473.90 0.6698932
474.00 0.8029581
474.10 0.894299
474.20 0.9058608
474.30 0.8508972
474.40 0.7789648
474.50 0.7316287
474.60 0.7115633
474.70 0.6920061
474.80 0.6488123
474.90 0.5834257
475.00 0.5220784
475.10 0.4965962
475.20 0.5296242
475.30 0.6223684
475.40 0.7440142
475.50 0.8379067
475.60 0.8494024
475.70 0.7615715
475.80 0.6102311
475.90 0.4567052
476.00 0.3354617
476.10 0.2303714
476.20 0.1063935
476.30 0
476.40 0
476.50 0
476.60 0
476.70 0.03980584
476.80 0.1851403
476.90 0.2951754
477.00 0.3545093
477.10 0.3865144
477.20 0.426886
477.30 0.4842666
477.40 0.5344943
477.50 0.5524854
477.60 0.5353443
477.70 0.4926702
477.80 0.4279754
477.90 0.3478021
478.00 0.2818559
478.10 0.2683018
478.20 0.3123681
478.30 0.3689808
478.40 0.3826778
478.50 0.3496885
478.60 0.3226956
478.70 0.3431299
478.80 0.3893638
478.90 0.4025485
479.00 0.359859
479.10 0.3082122
479.20 0.3173202
479.30 0.4116734
479.40 0.5535162
479.50 0.6809209
479.60 0.7555234
479.70 0.7800905
479.80 0.7823688
479.90 0.7846822
480.00 0.7814086
480.10 0.7462133
480.20 0.6633995
480.30 0.5453635
480.40 0.4184256
480.50 0.305195
480.60 0.2255656
480.70 0.2050132
480.80 0.2629339
480.90 0.3912014
481.00 0.551113
481.10 0.6931322
481.20 0.7888057
481.30 0.8446754
481.40 0.8804677
481.50 0.8943228
481.60 0.8631411
481.70 0.7799848
481.80 0.6786471
481.90 0.6103279
482.00 0.5949967
482.10 0.609296
482.20 0.6182772
482.30 0.6058957
482.40 0.5778436
482.50 0.5496113
482.60 0.5405532
482.70 0.5632884
482.80 0.6040751
482.90 0.6236921
483.00 0.5998
483.10 0.554592
483.20 0.5211632
483.30 0.5014425
483.40 0.4808208
483.50 0.4728938
483.60 0.5104402
483.70 0.5946779
483.80 0.6860848
483.90 0.7507258
484.00 0.7918107
484.10 0.8320922
484.20 0.8837423
484.30 0.9369599
484.40 0.9653358
484.50 0.9409801
484.60 0.8602717
484.70 0.7621614
484.80 0.7070687
484.90 0.7243659
485.00 0.7795627
485.10 0.8010721
485.20 0.7461877
485.30 0.6400348
485.40 0.5439323
485.50 0.4865608
485.60 0.448273
485.70 0.4269779
485.80 0.4983755
485.90 0.7703119
486.00 1.254606
486.10 1.790548
486.20 2.124838
486.30 2.09088
486.40 1.727107
486.50 1.238875
486.60 0.8462219
486.70 0.6491371
486.80 0.6055482
486.90 0.6073331
487.00 0.5723584
487.10 0.4900316
487.20 0.40789
487.30 0.386749
487.40 0.4556182
487.50 0.5911701
487.60 0.7371095
487.70 0.8408981
487.80 0.8776204
487.90 0.8490244
488.00 0.773499
488.10 0.6828161
488.20 0.6156557
488.30 0.6005285
488.40 0.6379463
488.50 0.7008581
488.60 0.75087
488.70 0.7588094
488.80 0.7169911
488.90 0.6397867
489.00 0.5583689
489.10 0.512396
489.20 0.5306862
489.30 0.6019948
489.40 0.6709328
489.50 0.6826274
489.60 0.6375957
489.70 0.58601
489.80 0.5689595
489.90 0.5887127
490.00 0.6330616
490.10 0.6951534
490.20 0.756424
490.30 0.7792957
490.40 0.7460981
490.50 0.6937376
490.60 0.6791092
490.70 0.7144652
490.80 0.7599472
490.90 0.7774055
491.00 0.7726525
491.10 0.7749316
491.20 0.7918422
491.30 0.8056467
491.40 0.8039611
491.50 0.7930626
491.60 0.7874451
491.70 0.7997758
491.80 0.8388878
491.90 0.9055444
492.00 0.983309
492.10 1.046918
492.20 1.08917
492.30 1.127694
492.40 1.178102
492.50 1.225055
492.60 1.230851
492.70 1.18387
492.80 1.125405
492.90 1.112971
493.00 1.16202
493.10 1.236034
493.20 1.295089
493.30 1.335151
493.40 1.372165
493.50 1.408943
493.60 1.434289
493.70 1.441557
493.80 1.433304
493.90 1.409961
494.00 1.370699
494.10 1.326549
494.20 1.296978
494.30 1.294693
494.40 1.322189
494.50 1.376703
494.60 1.449639
494.70 1.524014
494.80 1.579946
494.90 1.606835
495.00 1.604371
495.10 1.57907
495.20 1.545173
495.30 1.511479
495.40 1.459531
495.50 1.349319
495.60 1.161229
495.70 0.9264792
495.80 0.6990435
495.90 0.5032019
496.00 0.3316759
496.10 0.1868093
496.20 0.0953835
496.30 0.08177022
496.40 0.1401885
496.50 0.236572
496.60 0.3277947
496.70 0.3821514
496.80 0.4012937
496.90 0.4195492
497.00 0.4571575
497.10 0.4785034
497.20 0.4236975
497.30 0.2861508
497.40 0.1367991
497.50 0.06340097
497.60 0.1067829
497.70 0.2558767
497.80 0.4701781
497.90 0.6828961
498.00 0.8103144
498.10 0.805335
498.20 0.7127681
498.30 0.6440203
498.40 0.6832072
498.50 0.8218959
498.60 0.9777768
498.70 1.067041
498.80 1.059691
498.90 0.9848382
499.00 0.8955362
499.10 0.8245482
499.20 0.7690417
499.30 0.7135788
499.40 0.6581319
499.50 0.6202093
499.60 0.6124285
499.70 0.6193981
499.80 0.5999706
499.90 0.5199552
500.00 1
500.10 1.078036
500.20 0.6434405
500.30 0.1574774
500.40 0.6664717
500.50 0.9626107
500.60 0.6856237
500.70 0.7960093
500.80 0.7824109
500.90 0.3710856
501.00 0.3830053
501.10 0.6281251
501.20 0.9020778
501.30 0.461305
501.40 0.7810415
501.50 1.385377
501.60 0.5342348
501.70 0.1757563
501.80 0.5892986
501.90 0.903487
502.00 1.315815
502.10 0.5742799
502.20 0.2482977
502.30 0.4763394
502.40 0.4130339
502.50 0.3664229
502.60 0.9419742
502.70 1.022552
502.80 0.9736882
502.90 0.8797524
503.00 0.96956
503.10 0.9150042
503.20 0.8407854
503.30 1.088628
503.40 1.182448
503.50 0.8835966
503.60 0.8918284
503.70 1.113892
503.80 1.022541
503.90 0.9345449
504.00 1.077629
504.10 0.8537311
504.20 0.5149102
504.30 0.6482567
504.40 0.7844016
504.50 0.7325022
504.60 0.8071086
504.70 0.959384
504.80 1.118988
504.90 0.7447778
505.00 0.6839315
505.10 0.4625491
505.20 0.6565438
505.30 1.268535
505.40 0.7556463
505.50 0
505.60 0.5704529
505.70 1.265661
505.80 1.196082
505.90 0.7208338
506.00 0.7285247
506.10 0.7054372
506.20 0.1700286
506.30 0.782914
506.40 1.097548
506.50 0.742532
506.60 0.7455329
506.70 0.7622727
506.80 0.6101448
506.90 0.588564
507.00 1.311578
507.10 1.654979
507.20 1.202408
507.30 0.5398357
507.40 1.022938
507.50 1.86307
507.60 1.943249
507.70 1.580301
507.80 1.441099
507.90 1.404837
508.00 1.304962
508.10 1.512051
508.20 1.748072
508.30 1.28185
508.40 0.5924963
508.50 0.5180608
508.60 0.9794902
508.70 1.360924
508.80 1.473579
508.90 1.451338
509.00 1.459085
509.10 0.8046014
509.20 0.8251284
509.30 1.239127
509.40 1.24186
509.50 1.159652
509.60 1.846116
509.70 1.730789
509.80 1.434682
509.90 1.764221
510.00 1.647936
510.10 0.8056414
510.20 0.2537447
510.30 0.4674356
510.40 0.5665252
510.50 1.137014
510.60 1.048165
510.70 0.8183884
510.80 0.8661266
510.90 0.9896471
511.00 0.8915538
511.10 0.9407597
511.20 1.404575
511.30 1.52181
511.40 1.443694
511.50 1.432752
511.60 1.701512
511.70 1.763937
511.80 0.8702589
511.90 0.8537693
512.00 1.338635
512.10 1.613076
512.20 1.703605
512.30 1.84912
512.40 1.659946
512.50 0.9287548
512.60 1.013331
512.70 1.292778
512.80 1.196649
512.90 0.5050583
513.00 0.6474062
513.10 1.488772
513.20 1.419583
513.30 1.361583
513.40 1.467914
513.50 1.26646
513.60 1.672283
513.70 1.5751
513.80 1.357426
513.90 1.130243
514.00 1.601885
514.10 1.320608
514.20 0.9134167
514.30 0.8673717
514.40 1.496471
514.50 1.749579
514.60 1.40096
514.70 1.005295
514.80 1.026834
514.90 0.8744763
515.00 0.7618143
515.10 0.8788298
515.20 1.382167
515.30 1.373141
515.40 0.8649282
515.50 1.173701
515.60 1.349077
515.70 1.599614
515.80 1.701198
515.90 1.83069
516.00 2.020416
516.10 1.91572
516.20 1.941982
516.30 2.086547
516.40 2.406264
516.50 2.146902
516.60 1.61666
516.70 1.151102
516.80 1.003123
516.90 0.4088334
517.00 0
517.10 0
517.20 0.2346981
517.30 0.5605917
517.40 0.4737725
517.50 0.6961402
517.60 0.6979566
517.70 0.5221077
517.80 0.4426863
517.90 0.4073529
518.00 0.3942117
518.10 0.4091341
518.20 0.3358543
518.30 0.01173202
518.40 0.3758571
518.50 0.7121716
518.60 1.146893
518.70 1.266289
518.80 1.049056
518.90 0.7769917
519.00 0.759012
519.10 0.7445631
519.20 0.851976
519.30 0.6539876
519.40 0.6409834
519.50 0.6764374
519.60 0.8010825
519.70 0.861926
519.80 0.4876327
519.90 0.4158552
520.00 0.6221996
520.10 0.3085731
520.20 0.3008052
520.30 1.112197
520.40 1.17218
520.50 0.7749472
520.60 0.925045
520.70 0.8122978
520.80 1.049125
520.90 1.027089
521.00 0.7110911
521.10 0.5009026
521.20 0.7379628
521.30 0.9072011
521.40 1.489878
521.50 1.245313
521.60 0.7589508
521.70 1.156325
521.80 1.160486
521.90 0.7774876
522.00 0.9367614
522.10 1.324778
522.20 1.337479
522.30 1.022329
522.40 1.254126
522.50 1.932296
522.60 1.67132
522.70 1.58511
522.80 1.701845
522.90 1.461657
523.00 1.234034
523.10 1.145198
523.20 1.425461
523.30 1.511093
523.40 1.06157
523.50 0.7564439
523.60 1.196685
523.70 1.302899
523.80 1.313628
523.90 1.461311
524.00 1.626671
524.10 1.504472
524.20 1.344032
524.30 0.8702763
524.40 0.6479603
524.50 0.7013981
524.60 0.7588543
524.70 1.045505
524.80 0.9609491
524.90 0.5997491
525.00 1.065013
525.10 1.192392
525.20 1.083679
525.30 1.290629
525.40 1.44613
525.50 1.688703
525.60 1.354193
525.70 1.357446
525.80 1.565985
525.90 1.653332
526.00 1.307005
526.10 1.222765
526.20 1.131257
526.30 1.348575
526.40 1.296335
526.50 1.117782
526.60 0.8799175
526.70 1.098771
526.80 1.63379
526.90 1.193641
527.00 1.124179
527.10 1.520217
527.20 1.256101
527.30 1.328472
527.40 1.591531
527.50 1.606484
527.60 1.65229
527.70 1.218158
527.80 1.016195
527.90 1.452832
528.00 1.921306
528.10 1.224035
528.20 0.8700939
528.30 1.523291
528.40 1.814203
528.50 1.300341
528.60 1.240988
528.70 1.601542
528.80 1.490103
528.90 1.434116
529.00 1.752295
529.10 1.773993
529.20 1.913991
529.30 1.794514
529.40 1.715196
529.50 1.667617
529.60 1.620367
529.70 1.637975
529.80 1.856688
529.90 1.329977
530.00 1.096461
530.10 1.421888
530.20 2.068045
530.30 1.968761
530.40 1.755353
530.50 1.958652
530.60 1.85516
530.70 1.468942
530.80 1.443886
530.90 1.648972
531.00 1.558598
531.10 1.379456
531.20 1.525183
531.30 1.375856
531.40 1.220697
531.50 1.320013
531.60 1.417906
531.70 1.235916
531.80 1.256733
531.90 1.425523
532.00 1.477634
532.10 1.996408
532.20 2.018225
532.30 1.434998
532.40 1.063795
532.50 1.276278
532.60 1.615633
532.70 1.481609
532.80 1.131052
532.90 1.786918
533.00 1.425875
533.10 1.18457
533.20 1.475647
533.30 2.214955
533.40 1.810021
533.50 0.977454
533.60 1.25133
533.70 1.288264
533.80 1.447976
533.90 1.520532
534.00 1.676575
534.10 1.550075
534.20 1.114452
534.30 1.411817
534.40 1.974792
534.50 2.300639
534.60 2.257452
534.70 1.618481
534.80 0.9652806
534.90 1.053478
535.00 1.579584
535.10 1.925866
535.20 2.03585
535.30 2.426422
535.40 2.705644
535.50 2.366878
535.60 1.862392
535.70 1.77558
535.80 1.205762
535.90 1.28037
536.00 1.641961
536.10 1.8616
536.20 1.687209
536.30 1.75752
536.40 1.396225
536.50 1.272766
536.60 1.295665
536.70 1.37196
536.80 1.464397
536.90 1.551687
537.00 1.535646
537.10 1.580849
537.20 1.324673
537.30 1.498618
537.40 1.343406
537.50 1.286539
537.60 1.551643
537.70 1.831001
537.80 1.732313
537.90 2.063499
538.00 2.46949
538.10 2.181979
538.20 1.591496
538.30 1.768848
538.40 2.510495
538.50 2.503214
538.60 2.011522
538.70 1.920374
538.80 2.262513
538.90 1.977501
539.00 1.786225
539.10 2.007493
539.20 1.981846
539.30 1.572983
539.40 1.591924
539.50 1.932539
539.60 1.988273
539.70 1.83215
539.80 2.130791
539.90 2.378058
540.00 2.122365
540.10 2.42421
540.20 2.683066
540.30 2.745421
540.40 2.384632
540.50 2.139461
540.60 2.029155
540.70 2.430645
540.80 2.290432
540.90 1.726504
541.00 1.656855
541.10 1.407163
541.20 1.74816
541.30 1.997084
541.40 1.884663
541.50 1.675239
541.60 1.753924
541.70 1.873383
541.80 2.310478
541.90 2.338851
542.00 1.768333
542.10 1.898196
542.20 2.324316
542.30 2.676406
542.40 2.717103
542.50 2.421213
542.60 2.229887
542.70 2.056755
542.80 2.111822
542.90 2.403909
543.00 1.975801
543.10 1.836991
543.20 1.798851
543.30 2.146006
543.40 2.110513
543.50 2.166695
543.60 2.14469
543.70 2.175872
543.80 2.057692
543.90 2.395081
544.00 2.436948
544.10 2.455846
544.20 3.020863
544.30 3.114945
544.40 2.568789
544.50 2.590908
544.60 3.009706
544.70 2.766912
544.80 2.275402
544.90 1.713639
545.00 0.9864992
545.10 0.245046
545.20 0.2117134
545.30 0.1475968
545.40 0.2100756
545.50 0.3191614
545.60 0.6161668
545.70 1.186866
545.80 1.132752
545.90 0.7641501
546.00 0.978815
546.10 1.769179
546.20 1.699216
546.30 1.757338
546.40 1.485139
546.50 0.8938266
546.60 0.8299767
546.70 0.997705
546.80 1.654569
546.90 1.700085
547.00 1.191733
547.10 0.7799855
547.20 0.581407
547.30 0.5769756
547.40 0.5927419
547.50 0.9339261
547.60 1.323492
547.70 1.523738
547.80 1.13994
547.90 1.067114
548.00 1.129578
548.10 1.232856
548.20 1.174631
548.30 0.9689337
548.40 1.011893
548.50 1.316285
548.60 1.341817
548.70 1.387154
548.80 1.301958
548.90 0.9441841
549.00 0.9217275
549.10 0.9769924
549.20 1.250628
549.30 1.189101
549.40 0.772012
549.50 1.093235
549.60 1.295743
549.70 0.9229194
549.80 0.773342
549.90 1.32594
550.00 0.9829585
550.10 0.562639
550.20 0.72236
550.30 0.7686408
550.40 0.6473917
550.50 0.7010029
550.60 0.9976499
550.70 0.5553667
550.80 0.4115926
550.90 0.5563961
551.00 0.3806282
551.10 0.1778156
551.20 0
551.30 0.06818981
551.40 0.3471785
551.50 0.8026328
551.60 1.239083
551.70 0.9639768
551.80 0.3113083
551.90 0
552.00 0.3518961
552.10 0.6751351
552.20 0.1265291
552.30 0.05766801
552.40 0.2638469
552.50 0.3398325
552.60 0.6539731
552.70 0.3546494
552.80 0.2770827
552.90 0.429507
553.00 0.3969733
553.10 0.4409578
553.20 0.5962357
553.30 0.7186251
553.40 0.7010253
553.50 0.6372734
553.60 0.3446644
553.70 0.2748512
553.80 0.2999638
553.90 0.4191061
554.00 0.8709109
554.10 0.7744592
554.20 0.2720197
554.30 0.143133
554.40 0.7306918
554.50 0.923903
554.60 0.4284901
554.70 0.09255071
554.80 0.1788262
554.90 0.4547369
555.00 0.4358217
555.10 0.3950141
555.20 0.03002283
555.30 0.3614915
555.40 0.5569006
555.50 0.437843
555.60 0.628235
555.70 0.8724485
555.80 0.8883623
555.90 0.5000937
556.00 0.3145806
556.10 0.7011599
556.20 0.8043407
556.30 0.6377822
556.40 0.918227
556.50 1.048684
556.60 0.9495259
556.70 0.6874594
556.80 0.8296236
556.90 0.8678449
557.00 0.9347244
557.10 1.101827
557.20 1.101715
557.30 1.097775
557.40 1.097839
557.50 1.097839
557.60 1.097839
557.70 1.097839
557.80 1.097839
557.90 1.097839
558.00 1.097839
558.10 1.097839
558.20 1.097886
558.30 1.107224
558.40 1.0594
558.50 0.9690793
558.60 1.364022
558.70 1.652674
558.80 1.509663
558.90 1.194703
559.00 1.388225
559.10 1.568353
559.20 1.512165
559.30 1.277418
559.40 1.379334
559.50 1.644807
559.60 1.432971
559.70 0.829524
559.80 0.879851
559.90 1.001599
560.00 1.004428
560.10 1.239115
560.20 1.590411
560.30 1.684792
560.40 1.297248
560.50 1.079271
560.60 1.237856
560.70 0.8247149
560.80 0.5614607
560.90 0.9409248
561.00 1.47536
561.10 1.666242
561.20 1.239584
561.30 1.07457
561.40 1.568261
561.50 1.508507
561.60 1.253568
561.70 1.355669
561.80 1.291294
561.90 0.9081768
562.00 0.6663349
562.10 0.7897128
562.20 1.176245
562.30 0.8717419
562.40 1.258324
562.50 1.224179
562.60 1.076456
562.70 1.053804
562.80 1.259515
562.90 1.198986
563.00 1.315796
563.10 0.9527876
563.20 0.4127663
563.30 0.5739225
563.40 1.107322
563.50 1.464104
563.60 1.238679
563.70 0.6842608
563.80 0.6336764
563.90 1.083758
564.00 0.9239032
564.10 0.7510675
564.20 0.7337187
564.30 0.9339975
564.40 1.042095
564.50 1.039324
564.60 1.377556
564.70 1.143087
564.80 1.28458
564.90 1.562705
565.00 1.56012
565.10 1.329458
565.20 1.081259
565.30 1.498041
565.40 1.817078
565.50 1.528995
565.60 0.8262515
565.70 0.9127084
565.80 1.383255
565.90 1.725855
566.00 1.376918
566.10 1.170179
566.20 1.274422
566.30 1.600039
566.40 1.612395
566.50 1.014891
566.60 1.106005
566.70 1.487712
566.80 1.457683
566.90 1.415791
567.00 1.51837
567.10 1.691554
567.20 1.655721
567.30 1.644518
567.40 1.179078
567.50 1.210929
567.60 0.9608773
567.70 1.066021
567.80 1.218933
567.90 1.441596
568.00 1.482849
568.10 0.9379991
568.20 0.7872487
568.30 1.559511
568.40 2.468778
568.50 2.333921
568.60 1.516042
568.70 1.074347
568.80 1.305977
568.90 1.895161
569.00 2.11318
569.10 1.335871
569.20 1.59945
569.30 1.975903
569.40 1.883396
569.50 1.573527
569.60 1.334213
569.70 1.573853
569.80 1.882628
569.90 2.079177
570.00 1.878437
570.10 1.557227
570.20 1.401071
570.30 1.575561
570.40 1.886881
570.50 2.055004
570.60 2.14115
570.70 2.201752
570.80 2.278076
570.90 1.807498
571.00 1.655269
571.10 1.814359
571.20 1.810955
571.30 1.986802
571.40 1.857505
571.50 1.332342
571.60 1.325784
571.70 1.552932
571.80 1.788852
571.90 1.756364
572.00 1.531521
572.10 0.9529805
572.20 0.9899528
572.30 1.444229
572.40 1.802802
572.50 1.838642
572.60 1.769663
572.70 1.766199
572.80 1.695543
572.90 1.640831
573.00 1.954098
573.10 1.852129
573.20 1.744507
573.30 1.773875
573.40 1.87075
573.50 2.053305
573.60 2.149786
573.70 1.934623
573.80 1.6094
573.90 1.416598
574.00 1.356377
574.10 1.515783
574.20 1.702151
574.30 2.011581
574.40 2.423219
574.50 2.210733
574.60 1.710294
574.70 1.550423
574.80 2.31137
574.90 1.925542
575.00 1.393108
575.10 1.602912
575.20 1.965586
575.30 1.665283
575.40 1.52178
575.50 2.104234
575.60 2.060853
575.70 2.012653
575.80 2.068114
575.90 2.188499
576.00 1.999734
576.10 1.641157
576.20 1.611846
576.30 1.845902
576.40 2.213666
576.50 1.89423
576.60 1.446249
576.70 1.4254
576.80 1.695339
576.90 1.357496
577.00 1.265905
577.10 1.525715
577.20 1.567053
577.30 1.121037
577.40 1.159506
577.50 1.685383
577.60 2.009489
577.70 1.962453
577.80 1.564517
577.90 1.54824
578.00 1.78188
578.10 2.174646
578.20 2.02596
578.30 1.392498
578.40 1.097631
578.50 1.70833
578.60 2.09767
578.70 2.217548
578.80 2.13702
578.90 2.15572
579.00 2.191419
579.10 2.291531
579.20 2.388947
579.30 2.134198
579.40 1.718815
579.50 1.765009
579.60 2.121384
579.70 2.525364
579.80 2.438433
579.90 2.204229
580.00 2.320022
580.10 2.247055
580.20 2.173513
580.30 2.345583
580.40 2.028734
580.50 2.007174
580.60 2.424597
580.70 2.60562
580.80 2.992954
580.90 3.063013
581.00 2.640952
581.10 2.004486
581.20 2.035254
581.30 1.933212
581.40 1.801545
581.50 1.571638
581.60 1.600262
581.70 1.559975
581.80 2.070895
581.90 2.099512
582.00 1.630119
582.10 1.670385
582.20 1.790144
582.30 1.83406
582.40 1.6999
582.50 1.576596
582.60 1.708139
582.70 1.766256
582.80 1.88027
582.90 1.794793
583.00 1.820147
583.10 1.959178
583.20 1.769113
583.30 1.307931
583.40 1.913424
583.50 2.164902
583.60 1.471154
583.70 1.712094
583.80 1.545249
583.90 1.417036
584.00 1.438136
584.10 2.056576
584.20 2.216816
584.30 1.864097
584.40 2.099609
584.50 2.25547
584.60 1.662991
584.70 1.28981
584.80 1.200942
584.90 1.645727
585.00 1.830507
585.10 1.656252
585.20 0.95293
585.30 0.974651
585.40 1.263079
585.50 1.35699
585.60 1.699586
585.70 1.558431
585.80 1.440172
585.90 1.383017
586.00 1.206348
586.10 0.5743491
586.20 0.5139939
586.30 0.9775177
586.40 1.457633
586.50 1.410365
586.60 1.31852
586.70 1.335241
586.80 1.153184
586.90 1.267718
587.00 1.373657
587.10 1.371973
587.20 1.205258
587.30 1.114744
587.40 1.229953
587.50 1.201226
587.60 0.9523633
587.70 0.9146311
587.80 0.7881664
587.90 0.6794189
588.00 0.9277786
588.10 0.7318465
588.20 0.6840777
588.30 0.6735194
588.40 0.9704828
588.50 0.7824168
588.60 0.4901118
588.70 0.7264043
588.80 1.192661
588.90 1.823161
589.00 1.985804
589.10 0.9383446
589.20 1.44058
589.30 2.543359
589.40 1.725747
589.50 0.9735945
589.60 0.3536549
589.70 1.375007
589.80 1.270139
589.90 0.6634869
590.00 0.8965424
590.10 0.6924722
590.20 0.6306487
590.30 0.7098002
590.40 0.5760646
590.50 0.6279271
590.60 0.8039471
590.70 0.9851535
590.80 0.7806317
590.90 0.5822018
591.00 0.7553356
591.10 0.8702563
591.20 1.137874
591.30 1.026735
591.40 0.7919941
591.50 0.8226597
591.60 1.238978
591.70 1.17448
591.80 0.5345322
591.90 0.5628901
592.00 0.6776239
592.10 0.7773084
592.20 0.728731
592.30 1.037212
592.40 1.086603
592.50 0.1982183
592.60 0.3775061
592.70 1.027363
592.80 1.356834
592.90 1.066374
593.00 0.7622509
593.10 0.7989444
593.20 1.018118
593.30 0.9096292
593.40 0.7262345
593.50 0.4614917
593.60 0.4092581
593.70 0.9090418
593.80 0.9335227
593.90 0.7176198
594.00 0.6693202
594.10 0.8978994
594.20 0.8548644
594.30 1.075339
594.40 1.150545
594.50 1.036017
594.60 0.9435576
594.70 1.358941
594.80 1.601564
594.90 1.639947
595.00 1.752058
595.10 1.308525
595.20 1.082747
595.30 0.8484009
595.40 0.6928522
595.50 0.5000378
595.60 0.8549066
595.70 1.837878
595.80 1.734423
595.90 1.266084
596.00 1.077094
596.10 1.220168
596.20 0.9984149
596.30 0.6701384
596.40 0.6952406
596.50 1.306284
596.60 1.411305
596.70 1.349148
596.80 1.555069
596.90 1.214801
597.00 0.9531347
597.10 0.8097007
597.20 0.8024758
597.30 0.638245
597.40 0.6359317
597.50 0.992562
597.60 0.7791064
597.70 0.6152042
597.80 0.4864289
597.90 0.713843
598.00 0.8222056
598.10 1.189277
598.20 1.220851
598.30 1.015578
598.40 1.110091
598.50 1.425881
598.60 1.42471
598.70 1.082345
598.80 1.229069
598.90 1.450737
599.00 1.079493
599.10 1.139835
599.20 1.265274
599.30 1.22432
599.40 1.101288
599.50 1.103407
599.60 1.200172
599.70 1.230845
599.80 1.375986
599.90 1.635237
600.00 1.555036
600.10 1.301549
600.20 1.157751
600.30 1.190402
600.40 1.375953
600.50 1.232114
600.60 1.238801
600.70 0.9967809
600.80 1.050379
600.90 1.438677
601.00 1.257485
601.10 0.9916246
601.20 1.030441
601.30 1.488941
601.40 1.236407
601.50 0.7687287
601.60 1.267745
601.70 1.456506
601.80 1.582047
601.90 1.711539
602.00 1.707577
602.10 1.310128
602.20 1.222869
602.30 1.399152
602.40 1.296433
602.50 1.232338
602.60 1.11703
602.70 1.222951
602.80 0.9847729
602.90 0.8839897
603.00 0.7210576
603.10 0.6483781
603.20 0.9941518
603.30 1.28321
603.40 1.669025
603.50 1.543276
603.60 1.464105
603.70 1.598686
603.80 1.498696
603.90 1.04014
604.00 0.9287607
604.10 1.165949
604.20 1.287598
604.30 1.51112
604.40 1.681132
604.50 1.548214
604.60 1.339021
604.70 1.478797
604.80 2.002171
604.90 1.807254
605.00 1.211781
605.10 1.014294
605.20 1.41636
605.30 1.640594
605.40 1.536397
605.50 1.267629
605.60 1.273355
605.70 1.739528
605.80 1.920375
605.90 1.433534
606.00 1.269518
606.10 1.313649
606.20 1.469446
606.30 1.608121
606.40 1.686645
606.50 1.563357
606.60 1.38964
606.70 1.770782
606.80 1.905349
606.90 1.866314
607.00 1.669888
607.10 1.614561
607.20 1.682527
607.30 1.474214
607.40 1.31297
607.50 1.475769
607.60 1.609299
607.70 1.662789
607.80 1.568413
607.90 1.601889
608.00 1.515131
608.10 1.526139
608.20 1.440733
608.30 1.499977
608.40 1.958063
608.50 1.908331
608.60 1.44522
608.70 1.195813
608.80 1.418497
608.90 1.640604
609.00 1.386837
609.10 1.529997
609.20 1.761289
609.30 1.820753
609.40 1.581795
609.50 1.482431
609.60 1.486909
609.70 1.645818
609.80 2.058504
609.90 2.045146
610.00 1.881055
610.10 1.986918
610.20 1.783951
610.30 1.508111
610.40 1.135111
610.50 1.317306
610.60 1.384558
610.70 1.345635
610.80 1.314458
610.90 1.686771
611.00 1.975417
611.10 2.052745
611.20 2.100079
611.30 1.909855
611.40 1.592205
611.50 1.406716
611.60 1.244379
611.70 1.353764
611.80 1.332419
611.90 1.54452
612.00 1.777067
612.10 1.711153
612.20 1.62441
612.30 1.735598
612.40 1.775271
612.50 1.524898
612.60 1.243628
612.70 1.20888
612.80 1.122819
612.90 1.101103
613.00 1.37209
613.10 1.46764
613.20 1.193519
613.30 1.365109
613.40 1.575927
613.50 1.658404
613.60 1.569745
613.70 1.56226
613.80 1.588881
613.90 1.289828
614.00 1.326762
614.10 1.351152
614.20 1.195652
614.30 0.8365525
614.40 0.9262214
614.50 1.444901
614.60 1.691186
614.70 1.394724
614.80 1.077105
614.90 0.9014666
615.00 1.019679
615.10 0.8847606
615.20 0.7460999
615.30 1.066429
615.40 1.289967
615.50 1.209069
615.60 0.9073953
615.70 0.9721063
615.80 1.472763
615.90 1.354145
616.00 1.086695
616.10 0.7855889
616.20 0.8102258
616.30 1.112161
616.40 1.274858
616.50 1.113336
616.60 0.53084
616.70 0.483724
616.80 0.6224612
616.90 0.6733743
617.00 0.8203054
617.10 0.747976
617.20 0.7708242
617.30 0.8516978
617.40 0.8678774
617.50 0.9445729
617.60 0.8439096
617.70 0.7357358
617.80 0.707817
617.90 0.8726749
618.00 0.6528835
618.10 0.4457258
618.20 0.370159
618.30 0.2622036
618.40 0.693921
618.50 0.9483988
618.60 1.003505
618.70 0.9483607
618.80 0.8176725
618.90 0.690089
619.00 0.8008236
619.10 0.9552002
619.20 0.9375993
619.30 1.505249
619.40 1.686777
619.50 1.343581
619.60 1.000758
619.70 0.9837695
619.80 0.8109114
619.90 0.5234949
620.00 0.6592003
620.10 0.6653139
620.20 0.6395103
620.30 0.6721703
620.40 0.9063233
620.50 1.101404
620.60 1.00638
620.70 0.8097415
620.80 0.8947827
620.90 1.18597
621.00 1.156997
621.10 1.006889
621.20 0.9665097
621.30 0.6833504
621.40 0.7274098
621.50 0.8875181
621.60 1.006015
621.70 0.7867389
621.80 0.7768587
621.90 1.084495
622.00 1.23711
622.10 1.091031
622.20 0.9583428
622.30 0.7131064
622.40 0.8150605
622.50 0.9030754
622.60 0.9822656
622.70 0.9013784
622.80 0.6757966
622.90 0.8797718
623.00 0.9137571
623.10 1.031522
623.20 1.120908
623.30 1.204662
623.40 0.9724271
623.50 0.6893403
623.60 0.5438526
623.70 0.6428794
623.80 0.3533207
623.90 0
624.00 0.6147987
624.10 1.412497
624.20 1.415923
624.30 0.6187677
624.40 0.5079167
624.50 1.09881
624.60 1.298727
624.70 1.03412
624.80 0.6603812
624.90 0.6209671
625.00 0.6918782
625.10 0.7431094
625.20 0.7004691
625.30 0.9974163
625.40 1.449957
625.50 0.9493498
625.60 0.6041645
625.70 0.5721227
625.80 0.9449792
625.90 1.124631
626.00 1.027081
626.10 1.096685
626.20 1.321124
626.30 1.212294
626.40 0.7043481
626.50 0.6381522
626.60 0.8792702
626.70 0.8776068
626.80 0.7920177
626.90 1.072743
627.00 1.260435
627.10 1.217973
627.20 0.9167304
627.30 0.936829
627.40 1.257491
627.50 1.326344
627.60 1.212949
627.70 1.14512
627.80 1.383015
627.90 1.389757
628.00 1.263065
628.10 1.113083
628.20 1.121702
628.30 1.346859
628.40 1.295963
628.50 0.877191
628.60 0.6747971
628.70 1.128523
628.80 1.394019
628.90 1.165204
629.00 1.155666
629.10 1.321347
629.20 1.364425
629.30 1.512513
629.40 1.477861
629.50 1.511012
629.60 1.413825
629.70 1.256562
629.80 1.835504
629.90 2.140282
630.00 1.97165
630.10 0.6467029
630.20 0.5208478
630.30 0.8078175
630.40 1.998357
630.50 3.334324
630.60 2.104184
630.70 1.499664
630.80 1.535926
630.90 1.626361
631.00 1.647963
631.10 1.783068
631.20 2.28942
631.30 2.227851
631.40 1.9273
631.50 1.634168
631.60 1.460859
631.70 1.738367
631.80 1.932478
631.90 1.802717
632.00 1.593561
632.10 1.976189
632.20 2.141962
632.30 1.90386
632.40 1.843448
632.50 1.918319
632.60 1.84029
632.70 1.704175
632.80 1.701247
632.90 2.032505
633.00 2.265486
633.10 1.777202
633.20 1.450788
633.30 1.631103
633.40 2.145597
633.50 2.372278
633.60 2.215309
633.70 2.28451
633.80 2.322853
633.90 2.389304
634.00 2.219746
634.10 2.076889
634.20 2.493913
634.30 2.727536
634.40 2.426987
634.50 2.216384
634.60 2.464169
634.70 2.722083
634.80 2.754814
634.90 2.512024
635.00 2.596802
635.10 2.543775
635.20 2.259387
635.30 2.206556
635.40 2.324355
635.50 2.304748
635.60 2.211026
635.70 2.622802
635.80 2.712163
635.90 2.154426
636.00 1.96819
636.10 2.409277
636.20 3.049717
636.30 3.058349
636.40 2.474061
636.50 1.849175
636.60 1.688167
636.70 1.635055
636.80 1.947846
636.90 2.212957
637.00 2.347265
637.10 2.606177
637.20 2.650294
637.30 2.410758
637.40 2.235427
637.50 2.173144
637.60 2.333165
637.70 2.463168
637.80 2.357696
637.90 2.211111
638.00 2.115756
638.10 2.187773
638.20 1.920108
638.30 1.856803
638.40 2.171429
638.50 2.23047
638.60 2.357936
638.70 2.456019
638.80 2.428429
638.90 2.322507
639.00 2.257204
639.10 2.332426
639.20 2.282229
639.30 2.282149
639.40 2.528015
639.50 2.585664
639.60 2.420151
639.70 2.266615
639.80 2.346622
639.90 2.553716
640.00 2.825248
640.10 2.994024
640.20 2.729645
640.30 2.498246
640.40 2.625372
640.50 2.918529
640.60 3.05867
640.70 2.908846
640.80 2.695682
640.90 2.571086
641.00 2.422735
641.10 2.470608
641.20 2.567263
641.30 2.650345
641.40 2.758995
641.50 2.689488
641.60 2.4983
641.70 2.436095
641.80 2.691824
641.90 2.763694
642.00 2.746272
642.10 2.694977
642.20 2.452908
642.30 2.230369
642.40 2.174069
642.50 2.298746
642.60 2.243849
642.70 2.206702
642.80 2.399975
642.90 2.737582
643.00 2.826905
643.10 2.650933
643.20 2.660417
643.30 2.667537
643.40 2.77024
643.50 2.539751
643.60 2.272046
643.70 2.420757
643.80 2.709292
643.90 2.944275
644.00 2.844087
644.10 2.603852
644.20 2.539788
644.30 2.717633
644.40 2.792391
644.50 2.560007
644.60 2.460808
644.70 2.741679
644.80 2.767306
644.90 2.447215
645.00 2.347073
645.10 2.510701
645.20 2.640103
645.30 2.765232
645.40 2.671962
645.50 2.629147
645.60 2.809146
645.70 2.828902
645.80 2.665711
645.90 2.433121
646.00 2.543436
646.10 2.934734
646.20 2.933363
646.30 2.51896
646.40 2.568639
646.50 2.835392
646.60 2.702975
646.70 2.358616
646.80 2.486872
646.90 2.868946
647.00 3.081452
647.10 2.899768
647.20 2.792491
647.30 3.206449
647.40 3.664953
647.50 3.468622
647.60 2.871944
647.70 2.69901
647.80 2.79204
647.90 2.895092
648.00 2.749927
648.10 2.635819
648.20 2.800818
648.30 2.839773
648.40 2.758921
648.50 2.69527
648.60 2.597897
648.70 2.760265
648.80 2.873686
648.90 2.763573
649.00 2.877644
649.10 2.903023
649.20 2.903404
649.30 3.035498
649.40 3.005218
649.50 3.04211
649.60 3.221959
649.70 3.382854
649.80 3.109778
649.90 2.994644
650.00 3.559623
650.10 3.589465
650.20 3.543494
650.30 3.62486
650.40 3.757639
650.50 3.640481
650.60 3.406975
650.70 3.759315
650.80 3.973831
650.90 3.95446
651.00 4.01159
651.10 4.223407
651.20 4.421291
651.30 4.425364
651.40 4.165665
651.50 4.01545
651.60 4.141293
651.70 4.190867
651.80 4.182984
651.90 4.407909
652.00 4.758928
652.10 4.734046
652.20 4.79579
652.30 4.892932
652.40 5.002302
652.50 5.084137
652.60 5.116023
652.70 5.528689
652.80 5.868297
652.90 5.921387
653.00 5.992695
653.10 6.060505
653.20 6.044301
653.30 5.713287
653.40 5.626477
653.50 5.970982
653.60 6.127096
653.70 6.142559
653.80 6.281664
653.90 6.596224
654.00 6.816104
654.10 6.839785
654.20 6.815889
654.30 6.630307
654.40 6.433702
654.50 6.230768
654.60 5.928898
654.70 5.765584
654.80 5.8312
654.90 5.925861
655.00 5.709341
655.10 5.315925
655.20 5.33101
655.30 5.513862
655.40 5.313292
655.50 5.087554
655.60 5.222584
655.70 5.328402
655.80 5.401968
655.90 5.688897
656.00 6.147506
656.10 6.574191
656.20 8.764106
656.30 12.27359
656.40 14.34756
656.50 13.48072
656.60 10.44317
656.70 7.441317
656.80 5.401519
656.90 4.66582
657.00 4.546879
657.10 4.319873
657.20 4.307121
657.30 4.395859
657.40 4.273184
657.50 4.151895
657.60 4.364123
657.70 4.615463
657.80 4.287274
657.90 3.92378
658.00 3.870706
658.10 3.740388
658.20 3.638276
658.30 3.716833
658.40 3.783733
658.50 3.861314
658.60 4.125325
658.70 4.710085
658.80 4.878506
658.90 4.529523
659.00 4.205449
659.10 4.126051
659.20 4.241624
659.30 4.375633
659.40 4.315548
659.50 4.075375
659.60 4.035824
659.70 4.159143
659.80 4.143378
659.90 3.975097
660.00 3.947956
660.10 3.964966
660.20 4.053551
660.30 4.162897
660.40 4.190605
660.50 4.220108
660.60 4.259697
660.70 4.215705
660.80 4.023848
660.90 4.018435
661.00 4.106813
661.10 4.164252
661.20 4.182001
661.30 4.284368
661.40 4.41297
661.50 4.427355
661.60 4.122056
661.70 3.956761
661.80 4.248557
661.90 4.310653
662.00 4.076951
662.10 3.843804
662.20 3.828813
662.30 3.873976
662.40 3.793822
662.50 3.766087
662.60 3.460742
662.70 3.116973
662.80 3.271609
662.90 3.329484
663.00 3.336707
663.10 3.497567
663.20 3.752348
663.30 3.918938
663.40 3.859091
663.50 3.680841
663.60 3.647202
663.70 3.585414
663.80 3.34747
663.90 3.285567
664.00 3.29928
664.10 3.448724
664.20 3.543457
664.30 3.703067
664.40 3.727811
664.50 3.699331
664.60 3.624658
664.70 3.53688
664.80 3.637531
664.90 3.734975
665.00 3.717091
665.10 3.495268
665.20 2.919793
665.30 2.60265
665.40 2.716312
665.50 2.80926
665.60 2.990638
665.70 2.982566
665.80 2.749433
665.90 2.59185
666.00 2.818389
666.10 2.997909
666.20 3.082954
666.30 3.179589
666.40 3.287063
666.50 3.349639
666.60 3.327524
666.70 3.322657
666.80 3.319263
666.90 3.483516
667.00 3.68258
667.10 3.61276
667.20 3.523639
667.30 3.309676
667.40 3.125279
667.50 3.297692
667.60 3.471327
667.70 3.73318
667.80 3.847857
667.90 3.899503
668.00 3.707763
668.10 3.508127
668.20 3.269367
668.30 2.794748
668.40 2.769729
668.50 2.865482
668.60 3.017713
668.70 2.92806
668.80 2.679171
668.90 2.67464
669.00 2.735308
669.10 2.900023
669.20 3.108521
669.30 3.047825
669.40 2.642971
669.50 2.533639
669.60 2.874391
669.70 3.255016
669.80 3.332436
669.90 3.027281
670.00 2.913387
670.10 3.151879
670.20 3.440012
670.30 3.543392
670.40 3.468883
670.50 3.452973
670.60 3.648091
670.70 3.76304
670.80 3.751386
670.90 3.456944
671.00 3.296578
671.10 3.521735
671.20 3.77398
671.30 3.795576
671.40 3.445565
671.50 3.078496
671.60 2.847655
671.70 2.722124
671.80 2.593407
671.90 2.487777
672.00 2.584083
672.10 2.741657
672.20 2.825816
672.30 2.824171
672.40 2.800136
672.50 2.886979
672.60 2.876421
672.70 2.929413
672.80 3.199976
672.90 3.340485
673.00 3.130288
673.10 2.912861
673.20 2.993047
673.30 3.270301
673.40 3.377332
673.50 3.21162
673.60 3.047913
673.70 2.949014
673.80 2.946837
673.90 3.180842
674.00 3.282832
674.10 3.241492
674.20 3.224947
674.30 3.337191
674.40 3.452722
674.50 3.390502
674.60 3.382506
674.70 3.340253
674.80 3.104567
674.90 2.84591
675.00 2.81033
675.10 3.02219
675.20 3.139704
675.30 3.065717
675.40 2.966755
675.50 3.212906
675.60 3.346573
675.70 3.372679
675.80 3.38061
675.90 3.198399
676.00 3.203746
676.10 3.441849
676.20 3.505683
676.30 3.565329
676.40 3.467027
676.50 3.394345
676.60 3.850186
676.70 4.009687
676.80 3.890589
676.90 3.955278
677.00 4.09408
677.10 4.411292
677.20 4.459273
677.30 4.191855
677.40 4.044372
677.50 4.114366
677.60 4.11112
677.70 4.110781
677.80 4.054188
677.90 4.13846
678.00 4.250783
678.10 3.991226
678.20 3.588165
678.30 3.20897
678.40 3.031941
678.50 2.987971
678.60 2.843167
678.70 2.769443
678.80 2.872083
678.90 3.202889
679.00 3.484759
679.10 3.613801
679.20 3.550758
679.30 3.167171
679.40 3.022782
679.50 3.244278
679.60 3.461334
679.70 3.521997
679.80 3.477214
679.90 3.477113
680.00 3.538028
680.10 3.683294
680.20 3.690386
680.30 3.603952
680.40 3.612587
680.50 3.620492
680.60 3.721761
680.70 3.899805
680.80 3.890036
680.90 3.743387
681.00 3.651011
681.10 3.786844
681.20 4.05035
681.30 4.150752
681.40 3.992049
681.50 3.686221
681.60 3.518888
681.70 3.632244
681.80 3.706458
681.90 3.665758
682.00 3.672221
682.10 3.606878
682.20 3.603828
682.30 3.674387
682.40 3.627336
682.50 3.599222
682.60 3.759195
682.70 4.045204
682.80 4.161571
682.90 4.045763
683.00 3.775662
683.10 3.535002
683.20 3.764652
683.30 3.999519
683.40 3.935026
683.50 4.042716
683.60 4.391845
683.70 4.574516
683.80 4.432672
683.90 4.373887
684.00 4.241395
684.10 4.2276
684.20 4.499408
684.30 4.574999
684.40 4.473954
684.50 4.323838
684.60 4.201962
684.70 4.190988
684.80 4.243593
684.90 4.20513
685.00 4.039118
685.10 3.829037
685.20 3.776495
685.30 3.681301
685.40 3.591056
685.50 3.634382
685.60 3.808504
685.70 3.984131
685.80 3.908607
685.90 3.796724
686.00 3.799805
686.10 3.888716
686.20 3.92597
686.30 4.016874
686.40 4.265097
686.50 4.376789
686.60 4.08333
686.70 3.683202
686.80 3.875336
686.90 4.220098
687.00 3.679704
687.10 3.400906
687.20 3.822462
687.30 4.34009
687.40 4.652831
687.50 4.684932
687.60 4.835686
687.70 4.827458
687.80 4.662222
687.90 4.679551
688.00 4.571342
688.10 4.525008
688.20 4.695374
688.30 4.733799
688.40 4.64736
688.50 4.476229
688.60 4.600891
688.70 4.937956
688.80 4.871874
688.90 4.834285
689.00 4.693525
689.10 4.266233
689.20 4.057404
689.30 4.098134
689.40 4.494181
689.50 4.715588
689.60 4.552345
689.70 4.583173
689.80 4.614441
689.90 4.622575
690.00 4.566128
690.10 4.36698
690.20 4.108676
690.30 4.026669
690.40 4.333723
690.50 4.682309
690.60 4.656819
690.70 4.752971
690.80 5.263638
690.90 5.403255
691.00 5.094839
691.10 4.988701
691.20 5.079651
691.30 5.303907
691.40 5.163301
691.50 5.137938
691.60 5.385089
691.70 5.309304
691.80 4.956218
691.90 4.575155
692.00 4.360867
692.10 4.430708
692.20 4.564957
692.30 4.758752
692.40 5.285642
692.50 5.458682
692.60 5.298295
692.70 5.606535
692.80 5.792581
692.90 5.68077
693.00 5.418387
693.10 5.338208
693.20 5.690587
693.30 6.009865
693.40 6.27874
693.50 6.222904
693.60 6.104324
693.70 6.293354
693.80 6.287609
693.90 6.150335
694.00 5.966824
694.10 5.918734
694.20 6.155618
694.30 6.469371
694.40 7.113645
694.50 7.564129
694.60 7.676441
694.70 8.085957
694.80 8.414002
694.90 8.428101
695.00 8.323786
695.10 8.062407
695.20 7.879332
695.30 7.62149
695.40 7.325513
695.50 7.120269
695.60 7.179874
695.70 7.363921
695.80 7.231471
695.90 7.054908
696.00 7.006312
696.10 7.168839
696.20 7.274591
696.30 7.275642
696.40 7.532124
696.50 7.892259
696.60 8.053044
696.70 8.045138
696.80 8.140505
696.90 8.220909
697.00 8.082096
697.10 7.764065
697.20 7.508429
697.30 7.782717
697.40 7.806777
697.50 7.516546
697.60 7.756847
697.70 8.341903
697.80 8.984574
697.90 9.233176
698.00 8.939504
698.10 8.567619
698.20 8.549846
698.30 8.903224
698.40 9.032321
698.50 8.780711
698.60 8.776953
698.70 8.957309
698.80 9.025978
698.90 8.857426
699.00 8.766188
699.10 8.747232
699.20 8.544754
699.30 8.280766
699.40 8.484346
699.50 8.923462
699.60 9.000601
699.70 8.837534
699.80 8.523172
699.90 8.315201
700.00 8.390498
700.10 8.573737
700.20 8.690136
700.30 8.807586
700.40 8.796756
700.50 8.599083
700.60 8.507152
700.70 8.739021
700.80 9.115138
700.90 9.310964
701.00 9.583199
701.10 9.845826
701.20 9.976908
701.30 9.878754
701.40 9.442465
701.50 9.39648
701.60 9.868234
701.70 10.1653
701.80 10.17204
701.90 10.04882
702.00 10.29363
702.10 10.89441
702.20 10.95448
702.30 10.53467
702.40 10.14348
702.50 9.768014
702.60 9.829838
702.70 10.17281
702.80 10.96631
702.90 11.84648
703.00 12.0928
703.10 12.13922
703.20 12.01009
703.30 11.90163
703.40 12.03151
703.50 12.3104
703.60 12.82494
703.70 13.34029
703.80 13.6133
703.90 13.58222
704.00 13.22012
704.10 13.11805
704.20 13.3211
704.30 13.54409
704.40 13.8277
704.50 14.04219
704.60 14.18666
704.70 14.20376
704.80 14.0435
704.90 14.00708
705.00 14.11048
705.10 14.64135
705.20 14.97705
705.30 14.28422
705.40 12.65637
705.50 10.23515
705.60 7.618233
705.70 5.646629
705.80 4.820574
705.90 4.736704
706.00 4.698574
706.10 4.513563
706.20 4.375974
706.30 4.346057
706.40 4.426506
706.50 4.501979
706.60 4.677077
706.70 4.869967
706.80 5.030117
706.90 5.184233
707.00 5.275913
707.10 5.350833
707.20 5.491526
707.30 5.658632
707.40 5.605671
707.50 5.562456
707.60 5.534375
707.70 5.41742
707.80 5.396762
707.90 5.550712
708.00 5.816642
708.10 6.004635
708.20 6.097302
708.30 6.260907
708.40 6.354274
708.50 6.31836
708.60 6.30492
708.70 6.225491
708.80 5.90914
708.90 5.181641
709.00 4.210085
709.10 3.654933
709.20 3.738333
709.30 3.897258
709.40 3.864624
709.50 3.783542
709.60 3.712757
709.70 3.837339
709.80 4.059003
709.90 4.108124
710.00 3.972534
710.10 3.936717
710.20 4.002968
710.30 4.028953
710.40 4.156339
710.50 4.3142
710.60 4.418887
710.70 4.341152
710.80 4.345713
710.90 4.716776
711.00 5.075656
711.10 5.179253
711.20 5.077647
711.30 4.887859
711.40 4.893222
711.50 5.125146
711.60 5.291347
711.70 5.207382
711.80 5.120643
711.90 5.347476
712.00 5.799036
712.10 6.074156
712.20 6.020612
712.30 5.856654
712.40 5.642999
712.50 5.266842
712.60 4.817564
712.70 4.381462
712.80 3.985989
712.90 3.558163
713.00 3.341477
713.10 3.481947
713.20 3.618609
713.30 3.640873
713.40 3.595517
713.50 3.619972
713.60 3.701479
713.70 3.630956
713.80 3.416299
713.90 3.468337
714.00 3.715093
714.10 3.783266
714.20 3.878957
714.30 3.949059
714.40 3.898617
714.50 3.861323
714.60 3.900928
714.70 4.108192
714.80 4.309684
714.90 4.267669
715.00 4.099236
715.10 3.926997
715.20 3.910893
715.30 3.965788
715.40 4.139974
715.50 4.473974
715.60 4.835392
715.70 5.025689
715.80 4.841772
715.90 4.421711
716.00 4.382106
716.10 4.632478
716.20 4.420029
716.30 3.988867
716.40 3.782007
716.50 4.060391
716.60 4.680143
716.70 4.862945
716.80 4.548314
716.90 4.288808
717.00 4.325312
717.10 4.592412
717.20 4.75262
717.30 4.808504
717.40 4.746227
717.50 4.698492
717.60 4.806296
717.70 4.788699
717.80 4.838407
717.90 4.820468
718.00 4.903784
718.10 5.301272
718.20 5.511861
718.30 5.569028
718.40 5.51982
718.50 5.523047
718.60 5.721858
718.70 5.837469
718.80 5.889382
718.90 6.046654
719.00 6.292603
719.10 6.460287
719.20 6.458222
719.30 6.372806
719.40 6.282845
719.50 6.357832
719.60 6.316543
719.70 6.040587
719.80 5.781791
719.90 5.332906
720.00 4.976015
720.10 5.012531
720.20 5.269867
720.30 5.586921
720.40 5.543824
720.50 5.360656
720.60 5.403817
720.70 5.522143
720.80 5.544346
720.90 5.45439
721.00 5.391041
721.10 5.452769
721.20 5.611554
721.30 5.808104
721.40 6.124974
721.50 6.307716
721.60 6.117263
721.70 5.883637
721.80 5.98277
721.90 6.25047
722.00 6.283481
722.10 6.212353
722.20 6.228636
722.30 6.380517
722.40 6.707777
722.50 6.907947
722.60 6.954122
722.70 7.174116
722.80 7.497304
722.90 7.598103
723.00 7.366071
723.10 7.008287
723.20 6.927315
723.30 7.128607
723.40 7.278662
723.50 7.452518
723.60 7.571962
723.70 7.586663
723.80 7.766467
723.90 8.081705
724.00 8.142398
724.10 7.899284
724.20 7.489532
724.30 7.45854
724.40 8.158908
724.50 8.618605
724.60 8.470822
724.70 8.647444
724.80 9.167509
724.90 9.226684
725.00 9.214754
725.10 9.566629
725.20 9.978562
725.30 10.02901
725.40 9.840379
725.50 9.897885
725.60 10.23277
725.70 10.60801
725.80 10.58592
725.90 10.25057
726.00 10.14908
726.10 10.23902
726.20 10.52602
726.30 11.03399
726.40 11.46311
726.50 11.91226
726.60 12.1642
726.70 11.89518
726.80 11.80105
726.90 11.86655
727.00 11.60176
727.10 11.24799
727.20 10.86113
727.30 10.44583
727.40 10.33868
727.50 10.97677
727.60 12.12729
727.70 12.85373
727.80 11.88639
727.90 10.48157
728.00 11.08868
728.10 12.25616
728.20 12.23093
728.30 11.76042
728.40 11.67429
728.50 12.22395
728.60 12.81528
728.70 12.74186
728.80 12.6577
728.90 13.1927
729.00 13.64498
729.10 13.69805
729.20 13.62404
729.30 13.65762
729.40 13.83742
729.50 14.20845
729.60 14.62472
729.70 15.26477
729.80 15.71549
729.90 15.33867
730.00 14.9845
730.10 15.35399
730.20 15.89695
730.30 16.22062
730.40 16.67067
730.50 17.04772
730.60 16.9744
730.70 16.7968
730.80 16.98448
730.90 17.65263
731.00 18.11026
731.10 17.95992
731.20 17.60172
731.30 17.58764
731.40 18.18549
731.50 18.93124
731.60 19.17932
731.70 18.90729
731.80 18.80842
731.90 19.08603
732.00 19.73972
732.10 20.31867
732.20 20.36219
732.30 20.24425
732.40 20.22911
732.50 20.1858
732.60 20.00736
732.70 19.75142
732.80 19.93685
732.90 20.59092
733.00 20.72882
733.10 20.68928
733.20 20.68227
733.30 20.51925
733.40 20.31229
733.50 20.15681
733.60 20.77595
733.70 21.93347
733.80 22.67423
733.90 23.14238
734.00 23.53477
734.10 24.19953
734.20 24.73501
734.30 23.78286
734.40 22.53567
734.50 21.78451
734.60 21.00149
734.70 20.39464
734.80 20.15297
734.90 20.63255
735.00 21.4958
735.10 22.15302
735.20 22.54382
735.30 22.71431
735.40 22.65344
735.50 22.244
735.60 21.64271
735.70 21.02098
735.80 20.95248
735.90 21.7383
736.00 22.46812
736.10 22.51993
736.20 22.42725
736.30 22.7617
736.40 23.51566
736.50 24.41436
736.60 24.90514
736.70 24.80846
736.80 24.99343
736.90 25.74987
737.00 26.33303
737.10 26.14436
737.20 25.70336
737.30 25.48061
737.40 25.09683
737.50 24.32976
737.60 23.39182
737.70 23.08968
737.80 23.49031
737.90 24.1705
738.00 24.62978
738.10 24.67273
738.20 24.65023
738.30 24.73226
738.40 24.83283
738.50 24.78053
738.60 24.7268
738.70 24.98281
738.80 25.54315
738.90 26.48162
739.00 27.35888
739.10 27.69047
739.20 27.46835
739.30 26.46074
739.40 24.995
739.50 23.69646
739.60 22.83947
739.70 22.7913
739.80 23.43771
739.90 24.42377
740.00 25.17844
740.10 25.4082
740.20 25.73034
740.30 26.41492
740.40 26.52369
740.50 25.4238
740.60 23.48822
740.70 22.5355
740.80 22.91119
740.90 23.3013
741.00 23.86918
741.10 24.5944
741.20 25.01446
741.30 25.2409
741.40 25.50702
741.50 25.73851
741.60 25.61013
741.70 24.95784
741.80 23.94496
741.90 23.09013
742.00 22.42953
742.10 22.17849
742.20 22.50214
742.30 23.06975
742.40 23.69405
742.50 24.4595
742.60 25.00369
742.70 25.2202
742.80 25.39971
742.90 25.42548
743.00 25.62199
743.10 25.88772
743.20 25.70007
743.30 25.51467
743.40 25.28756
743.50 24.37236
743.60 23.12875
743.70 22.22153
743.80 22.25375
743.90 23.31231
744.00 24.39569
744.10 24.73767
744.20 24.54259
744.30 23.92281
744.40 23.23184
744.50 22.88138
744.60 22.62279
744.70 22.59774
744.80 22.52256
744.90 22.18706
745.00 22.32952
745.10 23.13182
745.20 24.03562
745.30 24.45286
745.40 24.3144
745.50 23.89734
745.60 23.55966
745.70 23.30843
745.80 23.08284
745.90 23.04078
746.00 23.06701
746.10 23.26687
746.20 23.56236
746.30 24.02604
746.40 24.56913
746.50 24.80113
746.60 24.89779
746.70 24.92744
746.80 24.77354
746.90 24.42679
747.00 24.33666
747.10 24.9713
747.20 25.86462
747.30 25.87597
747.40 24.69271
747.50 23.39131
747.60 22.98655
747.70 23.49941
747.80 24.3546
747.90 24.96395
748.00 25.05549
748.10 25.07063
748.20 25.35214
748.30 25.64676
748.40 26.25702
748.50 27.05291
748.60 27.0971
748.70 26.56469
748.80 26.05143
748.90 25.92714
749.00 26.24425
749.10 26.35627
749.20 26.12282
749.30 25.79447
749.40 25.26193
749.50 24.71835
749.60 24.52658
749.70 24.76674
749.80 25.37675
749.90 26.16123
750.00 27.07073
750.10 27.67508
750.20 27.69585
750.30 27.71934
750.40 27.88289
750.50 27.65007
750.60 26.95756
750.70 26.35285
750.80 26.29019
750.90 26.90259
751.00 27.93887
751.10 28.7941
751.20 29.04936
751.30 28.53704
751.40 27.74727
751.50 27.48328
751.60 27.49647
751.70 27.68751
751.80 27.92403
751.90 27.7809
752.00 27.51831
752.10 27.44571
752.20 27.27924
752.30 27.4052
752.40 28.30549
752.50 28.72533
752.60 28.58359
752.70 28.28877
752.80 27.33214
752.90 26.79273
753.00 27.17
753.10 28.17082
753.20 29.41211
753.30 29.82079
753.40 29.25419
753.50 28.60762
753.60 28.25927
753.70 28.40977
753.80 29.35501
753.90 30.65177
754.00 31.79692
754.10 32.33608
754.20 32.07169
754.30 31.66723
754.40 31.72783
754.50 32.04561
754.60 32.27786
754.70 32.09108
754.80 31.49799
754.90 30.92128
755.00 30.53435
755.10 30.67716
755.20 31.45673
755.30 32.00822
755.40 31.91359
755.50 31.55415
755.60 31.41349
755.70 31.53499
755.80 31.75637
755.90 32.28879
756.00 32.93609
756.10 33.34588
756.20 33.28056
756.30 32.88241
756.40 32.65808
756.50 32.20358
756.60 31.55535
756.70 31.11658
756.80 30.57234
756.90 29.94068
757.00 29.50605
757.10 29.76474
757.20 31.2029
757.30 33.30982
757.40 34.48088
757.50 33.99261
757.60 33.13125
757.70 32.61859
757.80 31.90924
757.90 31.33051
758.00 31.53882
758.10 32.61612
758.20 34.17223
758.30 35.26383
758.40 35.50212
758.50 35.29002
758.60 34.6418
758.70 33.19057
758.80 30.58673
758.90 26.70434
759.00 22.40689
759.10 18.75768
759.20 16.11351
759.30 14.97701
759.40 15.41062
759.50 16.43318
759.60 17.27439
759.70 17.43379
759.80 16.92401
759.90 17.21995
760.00 18.55279
760.10 19.1954
760.20 18.561
760.30 17.46118
760.40 17.14203
760.50 17.97103
760.60 18.47407
760.70 18.16777
760.80 17.95934
760.90 18.11409
761.00 18.46302
761.10 18.88934
761.20 19.33684
761.30 19.97143
761.40 20.92558
761.50 21.63436
761.60 21.60831
761.70 21.52024
761.80 21.86438
761.90 22.42064
762.00 23.15599
762.10 23.31404
762.20 22.41558
762.30 21.50012
762.40 21.11953
762.50 20.92922
762.60 20.43401
762.70 19.16121
762.80 17.38521
762.90 15.38107
763.00 13.39171
763.10 12.15051
763.20 12.19997
763.30 12.91678
763.40 13.444
763.50 13.48211
763.60 13.05018
763.70 12.83109
763.80 13.17359
763.90 13.33934
764.00 13.12997
764.10 12.81277
764.20 12.52707
764.30 12.6348
764.40 12.9627
764.50 13.12385
764.60 12.69647
764.70 11.97401
764.80 11.811
764.90 11.99328
765.00 11.94625
765.10 11.6234
765.20 11.27622
765.30 11.3245
765.40 11.41829
765.50 10.74829
765.60 9.518118
765.70 8.742843
765.80 8.638742
765.90 8.634717
766.00 8.275385
766.10 7.558407
766.20 6.805368
766.30 5.992911
766.40 5.362545
766.50 4.976642
766.60 4.599247
766.70 4.513171
766.80 4.692861
766.90 5.002348
767.00 5.505034
767.10 5.995667
767.20 6.315131
767.30 6.439525
767.40 6.581955
767.50 6.861767
767.60 7.241133
767.70 7.6642
767.80 7.850481
767.90 7.894399
768.00 8.126568
768.10 8.472206
768.20 8.654733
768.30 8.685999
768.40 8.86831
768.50 9.147637
768.60 9.283079
768.70 9.198967
768.80 8.973369
768.90 8.801754
769.00 8.842543
769.10 9.058157
769.20 9.049659
769.30 8.796892
769.40 8.44684
769.50 7.893856
769.60 7.347252
769.70 6.770849
769.80 6.091189
769.90 5.377154
770.00 4.637004
770.10 4.459401
770.20 4.91925
770.30 5.518371
770.40 6.188284
770.50 6.790541
770.60 7.2445
770.70 7.623965
770.80 7.922151
770.90 8.364679
771.00 8.9699
771.10 9.476272
771.20 9.631822
771.30 9.668191
771.40 10.25654
771.50 10.77863
771.60 10.58633
771.70 10.60718
771.80 10.91091
771.90 10.97815
772.00 11.37427
772.10 11.78486
772.20 11.96686
772.30 12.48254
772.40 12.84306
772.50 13.01579
772.60 13.30398
772.70 13.42849
772.80 13.45626
772.90 13.80434
773.00 14.38645
773.10 15.01583
773.20 15.51441
773.30 15.65447
773.40 15.73946
773.50 15.84981
773.60 15.80465
773.70 15.95599
773.80 16.51411
773.90 17.07339
774.00 17.39296
774.10 17.44371
774.20 17.25879
774.30 17.01642
774.40 16.45488
774.50 15.2923
774.60 14.14063
774.70 13.70853
774.80 13.60198
774.90 13.44128
775.00 12.99154
775.10 12.08904
775.20 11.61627
775.30 11.74729
775.40 12.05491
775.50 12.49559
775.60 12.75606
775.70 12.75042
775.80 12.77356
775.90 13.10346
776.00 13.41764
776.10 13.563
776.20 13.63285
776.30 13.38729
776.40 13.18608
776.50 13.3941
776.60 13.59711
776.70 13.70562
776.80 14.23094
776.90 14.94584
777.00 15.29505
777.10 15.34531
777.20 15.31019
777.30 15.4489
777.40 15.91283
777.50 16.3206
777.60 16.38076
777.70 16.27972
777.80 15.9977
777.90 15.98653
778.00 16.47089
778.10 16.78957
778.20 16.68891
778.30 15.96658
778.40 14.76743
778.50 13.95794
778.60 13.76418
778.70 13.80059
778.80 13.93546
778.90 14.10127
779.00 14.38621
779.10 15.10866
779.20 15.7727
779.30 16.03659
779.40 16.42764
779.50 16.79575
779.60 16.94317
779.70 16.87694
779.80 16.10535
779.90 15.04465
780.00 13.90771
780.10 12.6593
780.20 12.37911
780.30 13.38016
780.40 15.1311
780.50 17.21995
780.60 18.79831
780.70 19.54023
780.80 19.91801
780.90 20.04787
781.00 19.81319
781.10 19.45471
781.20 19.21775
781.30 19.36599
781.40 20.17168
781.50 21.06206
781.60 21.39979
781.70 21.45724
781.80 21.53764
781.90 21.81813
782.00 21.83189
782.10 20.83048
782.20 19.36036
782.30 18.13002
782.40 17.55755
782.50 18.00296
782.60 18.72164
782.70 18.98306
782.80 18.5849
782.90 17.62103
783.00 16.45377
783.10 15.67812
783.20 15.62417
783.30 16.20171
783.40 16.99914
783.50 17.55283
783.60 17.8552
783.70 17.97491
783.80 18.11173
783.90 18.40387
784.00 18.48145
784.10 18.4994
784.20 18.71585
784.30 18.66638
784.40 18.55859
784.50 18.83871
784.60 19.40009
784.70 20.06637
784.80 20.37966
784.90 20.14898
785.00 19.49796
785.10 18.85722
785.20 18.94535
785.30 19.57064
785.40 20.09489
785.50 20.17378
785.60 20.05094
785.70 20.14491
785.80 20.28731
785.90 20.59457
786.00 20.79147
786.10 20.40907
786.20 20.08519
786.30 19.94864
786.40 19.54046
786.50 19.12419
786.60 18.8851
786.70 18.60684
786.80 18.38536
786.90 18.47613
787.00 18.91092
787.10 19.31198
787.20 19.18908
787.30 18.42668
787.40 17.83328
787.50 18.11922
787.60 18.83831
787.70 19.42659
787.80 19.98035
787.90 20.8853
788.00 21.54044
788.10 21.63452
788.20 21.66724
788.30 21.59412
788.40 21.81022
788.50 22.24056
788.60 22.43333
788.70 22.69933
788.80 22.93285
788.90 23.0379
789.00 23.09248
789.10 22.94272
789.20 22.76402
789.30 22.95939
789.40 23.55467
789.50 23.99338
789.60 23.71602
789.70 22.76937
789.80 21.69415
789.90 20.74181
790.00 19.9061
790.10 19.36176
790.20 19.24578
790.30 19.68588
790.40 20.6622
790.50 21.61974
790.60 22.2037
790.70 22.31812
790.80 21.73807
790.90 20.60966
791.00 19.58502
791.10 18.74767
791.20 17.99941
791.30 17.92522
791.40 18.50588
791.50 19.38279
791.60 19.95223
791.70 19.79101
791.80 19.50484
791.90 19.11879
792.00 18.38825
792.10 17.89144
792.20 18.18662
792.30 18.9397
792.40 19.33147
792.50 19.49115
792.60 19.8364
792.70 20.14776
792.80 20.40259
792.90 20.51452
793.00 20.46154
793.10 20.71826
793.20 21.43655
793.30 22.55613
793.40 23.57602
793.50 23.91905
793.60 23.89896
793.70 23.79515
793.80 23.82475
793.90 23.87474
794.00 23.01093
794.10 21.33609
794.20 19.89723
794.30 19.21746
794.40 19.55404
794.50 20.37082
794.60 20.70964
794.70 20.08268
794.80 18.40589
794.90 16.78506
795.00 16.82541
795.10 18.53641
795.20 20.47491
795.30 21.97826
795.40 23.21987
795.50 24.0374
795.60 24.45298
795.70 24.66581
795.80 24.5775
795.90 24.11563
796.00 23.55243
796.10 22.8167
796.20 21.65701
796.30 20.89795
796.40 21.31057
796.50 22.17413
796.60 22.73104
796.70 23.1143
796.80 23.42496
796.90 24.04153
797.00 25.16305
797.10 26.04309
797.20 26.43674
797.30 26.66277
797.40 26.2987
797.50 25.13205
797.60 23.92132
797.70 23.2059
797.80 22.83205
797.90 22.62373
798.00 22.57117
798.10 22.74085
798.20 23.03209
798.30 23.07298
798.40 22.69778
798.50 22.15335
798.60 21.67102
798.70 21.26058
798.80 20.98785
798.90 21.03349
799.00 21.504
799.10 22.27588
799.20 23.24947
799.30 24.3168
799.40 24.73037
799.50 23.89375
799.60 22.84434
799.70 22.81507
799.80 23.34116
799.90 23.60231
800.00 23.66903
800.10 23.9825
800.20 24.52625
800.30 25.02988
800.40 25.53659
800.50 25.83191
800.60 25.85373
800.70 26.05528
800.80 26.64437
800.90 27.42634
801.00 27.82896
801.10 27.72977
801.20 27.61405
801.30 27.71195
801.40 27.99928
801.50 28.09176
801.60 27.97763
801.70 28.37175
801.80 29.24941
801.90 29.92148
802.00 30.2003
802.10 30.14221
802.20 29.83758
802.30 29.53064
802.40 29.5286
802.50 29.95875
802.60 30.7461
802.70 31.81153
802.80 32.52207
802.90 32.62243
803.00 32.92413
803.10 33.46189
803.20 33.68314
803.30 33.59455
803.40 33.41988
803.50 33.414
803.60 33.71982
803.70 33.98351
803.80 33.86066
803.90 33.68996
804.00 33.57039
804.10 33.34026
804.20 33.41658
804.30 33.93455
804.40 34.64849
804.50 35.34666
804.60 35.46265
804.70 35.00327
804.80 34.76444
804.90 34.91783
805.00 35.60116
805.10 36.92296
805.20 38.24775
805.30 39.42587
805.40 40.29006
805.50 40.48839
805.60 40.47047
805.70 40.51723
805.80 40.58055
805.90 40.6381
806.00 40.71586
806.10 41.19723
806.20 41.9066
806.30 42.086
806.40 41.6405
806.50 41.24948
806.60 41.10399
806.70 41.30753
806.80 42.0319
806.90 42.49617
807.00 42.21053
807.10 41.77458
807.20 41.84996
807.30 42.64081
807.40 43.84327
807.50 44.84396
807.60 45.29659
807.70 45.47418
807.80 45.81784
807.90 46.54003
808.00 47.17081
808.10 47.12993
808.20 47.07931
808.30 47.68178
808.40 48.32777
808.50 48.87802
808.60 49.60294
808.70 49.83959
808.80 49.37786
808.90 48.7081
809.00 48.10015
809.10 48.11012
809.20 48.94977
809.30 50.05859
809.40 50.78481
809.50 50.77792
809.60 50.44166
809.70 49.94803
809.80 49.24242
809.90 48.8885
810.00 48.98631
810.10 49.18617
810.20 49.50518
810.30 49.69703
810.40 49.40985
810.50 49.05191
810.60 49.37342
810.70 50.56486
810.80 51.97343
810.90 53.00115
811.00 53.68523
811.10 53.92195
811.20 53.7062
811.30 53.65733
811.40 54.09715
811.50 54.63375
811.60 54.68362
811.70 54.01112
811.80 53.18347
811.90 53.34491
812.00 54.74824
812.10 56.29431
812.20 57.16762
812.30 57.35121
812.40 57.10991
812.50 57.0488
812.60 57.3381
812.70 57.69818
812.80 58.294
812.90 59.1231
813.00 59.57279
813.10 59.39571
813.20 59.02821
813.30 58.97565
813.40 59.44712
813.50 60.25275
813.60 60.79078
813.70 60.83474
813.80 61.02009
813.90 61.76689
814.00 62.59351
814.10 62.63778
814.20 61.55181
814.30 59.98833
814.40 58.56612
814.50 57.68129
814.60 57.8521
814.70 58.59709
814.80 58.89155
814.90 58.5722
815.00 58.1756
815.10 58.32964
815.20 59.17365
815.30 60.26311
815.40 61.08271
815.50 61.05364
815.60 60.34119
815.70 59.96341
815.80 60.07818
815.90 60.13921
816.00 59.91507
816.10 59.41681
816.20 58.90196
816.30 58.89622
816.40 59.76932
816.50 61.17357
816.60 62.30733
816.70 62.72675
816.80 62.8435
816.90 63.44389
817.00 64.34854
817.10 65.04136
817.20 65.20857
817.30 64.74385
817.40 64.26948
817.50 63.77413
817.60 63.17771
817.70 62.57864
817.80 61.32085
817.90 59.73179
818.00 58.25148
818.10 55.76407
818.20 51.27019
818.30 44.61246
818.40 37.47116
818.50 33.66983
818.60 35.00295
818.70 40.05721
818.80 46.35282
818.90 51.18114
819.00 53.43313
819.10 53.78987
819.20 52.60167
819.30 49.3337
819.40 43.83486
819.50 37.22194
819.60 31.77084
819.70 29.75562
819.80 31.73259
819.90 36.00963
820.00 40.3657
820.10 44.10179
820.20 47.23466
820.30 49.9556
820.40 52.41323
820.50 53.8118
820.60 53.50194
820.70 51.49449
820.80 48.70338
820.90 47.34898
821.00 48.40083
821.10 50.53812
821.20 52.70959
821.30 54.11016
821.40 54.01013
821.50 53.04629
821.60 52.19474
821.70 51.75781
821.80 51.81123
821.90 52.46535
822.00 53.49395
822.10 54.62587
822.20 55.88427
822.30 57.0037
822.40 57.7985
822.50 58.32344
822.60 58.57805
822.70 58.7804
822.80 58.95757
822.90 59.22918
823.00 60.01529
823.10 61.26143
823.20 62.45204
823.30 62.81155
823.40 61.84626
823.50 60.21069
823.60 59.16909
823.70 59.38341
823.80 60.65654
823.90 62.298
824.00 63.6714
824.10 64.6335
824.20 65.22047
824.30 65.13584
824.40 64.23047
824.50 63.20797
824.60 62.96389
824.70 63.9042
824.80 65.98314
824.90 67.94094
825.00 68.12864
825.10 66.4818
825.20 63.84781
825.30 61.0843
825.40 59.14884
825.50 58.23172
825.60 57.66772
825.70 57.10061
825.80 56.71322
825.90 57.01177
826.00 58.29739
826.10 60.09605
826.20 61.84013
826.30 63.14228
826.40 63.87846
826.50 64.3673
826.60 64.56788
826.70 64.62004
826.80 64.75848
826.90 64.5
827.00 63.64678
827.10 62.27011
827.20 60.39264
827.30 58.33321
827.40 56.45872
827.50 55.50887
827.60 56.04488
827.70 57.28348
827.80 58.30795
827.90 58.90607
828.00 58.78543
828.10 58.03945
828.20 56.79422
828.30 55.12825
828.40 53.95584
828.50 53.82302
828.60 54.31221
828.70 54.87792
828.80 54.96486
828.90 53.74338
829.00 51.34133
829.10 49.2724
829.20 48.4117
829.30 48.81107
829.40 49.90551
829.50 50.66218
829.60 51.04175
829.70 51.64156
829.80 52.45273
829.90 52.8043
830.00 49.20498
830.10 48.45036
830.20 47.69575
830.30 47.10318
830.40 46.51061
830.50 46.58797
830.60 46.66534
830.70 47.1624
830.80 47.65946
830.90 48.92966
831.00 50.19986
831.10 51.05398
831.20 51.90809
831.30 51.45104
831.40 50.99399
831.50 50.99204
831.60 50.99009
831.70 51.83525
831.80 52.68042
831.90 52.97641
832.00 53.2724
832.10 53.59554
832.20 53.91868
832.30 54.19813
832.40 54.47759
832.50 54.27795
832.60 54.07831
832.70 53.54272
832.80 53.00713
832.90 53.29122
833.00 53.57532
833.10 53.41785
833.20 53.26038
833.30 53.93777
833.40 54.61517
833.50 53.31216
833.60 52.00915
833.70 51.3611
833.80 50.71304
833.90 51.71162
834.00 52.7102
834.10 53.13468
834.20 53.55917
834.30 54.48457
834.40 55.40997
834.50 53.16204
834.60 50.91411
834.70 49.47267
834.80 48.03124
834.90 49.01395
835.00 49.99666
835.10 51.30718
835.20 52.61769
835.30 52.76132
835.40 52.90495
835.50 52.72291
835.60 52.54086
835.70 53.08874
835.80 53.63662
835.90 54.02108
836.00 54.40555
836.10 54.72384
836.20 55.04214
836.30 54.88691
836.40 54.73168
836.50 54.40447
836.60 54.07725
836.70 54.75147
836.80 55.42569
836.90 57.24737
837.00 59.06905
837.10 58.1476
837.20 57.22615
837.30 56.41489
837.40 55.60362
837.50 53.65448
837.60 51.70534
837.70 51.09278
837.80 50.48022
837.90 51.5769
838.00 52.67358
838.10 54.0001
838.20 55.32661
838.30 54.3602
838.40 53.39379
838.50 53.01758
838.60 52.64136
838.70 51.11361
838.80 49.58587
838.90 47.78519
839.00 45.98452
839.10 46.77709
839.20 47.56966
839.30 48.77566
839.40 49.98165
839.50 50.7398
839.60 51.49794
839.70 52.15687
839.80 52.8158
839.90 53.76376
840.00 54.71172
840.10 52.83615
840.20 54.67272
840.30 55.3553
840.40 55.36669
840.50 55.58722
840.60 56.29714
840.70 57.00622
840.80 57.21087
840.90 57.38313
841.00 58.99902
841.10 61.59208
841.20 62.6071
841.30 59.60613
841.40 56.69795
841.50 55.69697
841.60 54.66769
841.70 56.46991
841.80 60.2851
841.90 61.99586
842.00 58.69611
842.10 55.50044
842.20 53.63855
842.30 51.7743
842.40 51.42388
842.50 51.60805
842.60 51.81986
842.70 52.31332
842.80 52.81926
842.90 52.75694
843.00 52.58742
843.10 52.99981
843.20 53.6284
843.30 52.70675
843.40 49.57206
843.50 46.52521
843.60 42.56187
843.70 38.45204
843.80 37.36352
843.90 36.90179
844.00 38.14271
844.10 42.32434
844.20 45.95462
844.30 41.57414
844.40 37.32262
844.50 33.75219
844.60 30.42888
844.70 29.07577
844.80 30.56442
844.90 32.05285
845.00 33.70524
845.10 35.4683
845.20 33.46118
845.30 30.39725
845.40 28.06995
845.50 26.97801
845.60 26.14438
845.70 26.43342
845.80 26.68636
845.90 26.78549
846.00 26.87005
846.10 27.68362
846.20 29.23527
846.30 30.56225
846.40 31.16556
846.50 31.87282
846.60 29.51694
846.70 26.29752
846.80 25.49819
846.90 27.82182
847.00 29.86455
847.10 28.50438
847.20 27.17545
847.30 27.37588
847.40 28.12661
847.50 28.42065
847.60 28.23371
847.70 28.45641
847.80 29.66899
847.90 30.90669
848.00 31.24823
848.10 31.55067
848.20 31.64818
848.30 31.62154
848.40 31.67657
848.50 31.72415
848.60 31.75365
848.70 31.89263
848.80 32.07945
848.90 32.20459
849.00 32.11777
849.10 32.14154
849.20 32.85505
849.30 33.53957
849.40 33.5378
849.50 33.51444
849.60 33.09677
849.70 32.8622
849.80 32.59619
849.90 31.61578
850.00 30.67626
850.10 32.61806
850.20 34.88932
850.30 35.7722
850.40 35.21848
850.50 34.28707
850.60 33.99682
850.70 33.75348
850.80 31.63209
850.90 29.24289
851.00 29.04036
851.10 29.90595
851.20 31.11309
851.30 32.98013
851.40 34.73809
851.50 34.39791
851.60 33.94983
851.70 32.06612
851.80 29.52362
851.90 27.84878
852.00 28.02698
852.10 28.24691
852.20 27.92302
852.30 27.55783
852.40 28.82447
852.50 30.71108
852.60 32.52648
852.70 34.01802
852.80 35.30606
852.90 34.74333
853.00 34.19475
853.10 33.76022
853.20 33.49246
853.30 33.69679
853.40 34.50965
853.50 35.31895
853.60 34.79294
853.70 34.28485
853.80 34.75724
853.90 35.77382
854.00 36.21702
854.10 35.77164
854.20 35.50098
854.30 35.70349
854.40 35.88388
854.50 36.59795
854.60 37.48483
854.70 38.04002
854.80 37.82882
854.90 37.60043
855.00 38.13356
855.10 38.66389
855.20 39.19359
855.30 39.68256
855.40 40.05858
855.50 40.55887
855.60 41.03929
855.70 40.35395
855.80 39.53802
855.90 38.77503
856.00 38.34329
856.10 37.70849
856.20 36.61092
856.30 35.9143
856.40 36.25546
856.50 36.64574
856.60 38.40939
856.70 40.35982
856.80 41.24612
856.90 41.46245
857.00 41.10932
857.10 39.32367
857.20 37.56812
857.30 36.43243
857.40 35.37901
857.50 36.02489
857.60 37.6243
857.70 39.10375
857.80 39.86167
857.90 40.53944
858.00 40.78758
858.10 41.08642
858.20 40.55334
858.30 39.95258
858.40 39.61674
858.50 39.14553
858.60 38.75801
858.70 40.46936
858.80 42.31709
858.90 43.13305
859.00 43.46651
859.10 43.5516
859.20 43.10408
859.30 42.57861
859.40 41.71523
859.50 40.825
859.60 41.81143
859.70 43.39604
859.80 44.49825
859.90 44.7609
860.00 44.83593
860.10 44.83818
860.20 44.82113
860.30 45.7433
860.40 47.09338
860.50 47.62953
860.60 46.02299
860.70 44.30234
860.80 44.75704
860.90 45.17079
861.00 44.68145
861.10 44.05366
861.20 43.81117
861.30 43.92552
861.40 43.78979
861.50 42.86432
861.60 41.90976
861.70 41.82375
861.80 42.00181
861.90 42.38553
862.00 42.40757
862.10 42.49497
862.20 43.47034
862.30 44.38179
862.40 44.89817
862.50 45.44416
862.60 44.44998
862.70 42.52989
862.80 41.31981
862.90 42.15604
863.00 42.99185
863.10 41.99514
863.20 40.65624
863.30 40.9142
863.40 42.07169
863.50 42.71516
863.60 42.09053
863.70 41.5219
863.80 42.06826
863.90 42.77885
864.00 43.26155
864.10 43.60268
864.20 43.562
864.30 42.23756
864.40 41.14706
864.50 43.03615
864.60 45.31437
864.70 44.634
864.80 42.65353
864.90 41.22321
865.00 41.42502
865.10 41.99507
865.20 41.97327
865.30 41.88061
865.40 42.33349
865.50 43.21551
865.60 44.32827
865.70 45.78622
865.80 46.97745
865.90 47.0917
866.00 47.17791
866.10 46.71482
866.20 46.23699
866.30 45.8781
866.40 45.28951
866.50 45.14474
866.60 45.76436
866.70 46.23011
866.80 46.1065
866.90 46.04817
867.00 46.18572
867.10 47.0424
867.20 47.72053
867.30 45.85899
867.40 44.01265
867.50 44.66256
867.60 46.0256
867.70 47.54416
867.80 49.25647
867.90 50.65098
868.00 50.27932
868.10 49.92717
868.20 48.64399
868.30 47.18872
868.40 46.56673
868.50 47.42629
868.60 48.50048
868.70 48.06094
868.80 47.43969
868.90 47.48802
869.00 47.85331
869.10 46.6563
869.20 44.24437
869.30 42.12637
869.40 40.64512
869.50 39.14831
869.60 38.77933
869.70 38.50348
869.80 39.04741
869.90 39.17238
870.00 39.17703
870.10 39.88096
870.20 40.74261
870.30 41.69154
870.40 42.60851
870.50 43.1565
870.60 43.4716
870.70 44.14586
870.80 45.44989
870.90 46.23063
871.00 43.98876
871.10 41.76953
871.20 41.88367
871.30 42.93809
871.40 43.42365
871.50 42.32069
871.60 41.11504
871.70 41.81912
871.80 42.55782
871.90 42.52791
872.00 42.15354
872.10 42.30169
872.20 42.60249
872.30 42.8466
872.40 42.48261
872.50 42.10699
872.60 42.55492
872.70 43.26913
872.80 45.1789
872.90 47.20181
873.00 48.46862
873.10 49.18279
873.20 49.77295
873.30 48.71573
873.40 47.44012
873.50 46.63076
873.60 45.99332
873.70 45.78021
873.80 45.32536
873.90 44.76573
874.00 45.31879
874.10 46.08973
874.20 47.34509
874.30 48.40456
874.40 50.04857
874.50 52.55587
874.60 54.65161
874.70 55.00032
874.80 55.29206
874.90 53.73398
875.00 51.80814
875.10 50.86804
875.20 50.83451
875.30 51.03893
875.40 52.33233
875.50 53.64217
875.60 53.27104
875.70 52.25154
875.80 51.76626
875.90 53.02886
876.00 54.62336
876.10 55.60745
876.20 56.38807
876.30 55.57168
876.40 54.58755
876.50 53.15164
876.60 51.77385
876.70 50.73627
876.80 50.94312
876.90 51.35755
877.00 52.83652
877.10 54.18439
877.20 56.0624
877.30 58.01554
877.40 59.9472
877.50 62.80456
877.60 65.50263
877.70 65.83852
877.80 65.6847
877.90 63.33394
878.00 61.1976
878.10 59.63677
878.20 58.20298
878.30 57.095
878.40 58.29246
878.50 59.74855
878.60 61.50049
878.70 63.59059
878.80 64.72022
878.90 64.51278
879.00 64.52866
879.10 64.41122
879.20 64.15864
879.30 64.03385
879.40 63.98652
879.50 63.91709
879.60 64.434
879.70 65.22212
879.80 66.39537
879.90 67.46401
880.00 67.42143
880.10 67.49318
880.20 65.12169
880.30 61.13965
880.40 57.9404
880.50 56.7118
880.60 55.64574
880.70 56.80179
880.80 58.22801
880.90 58.49232
881.00 57.54954
881.10 57.59487
881.20 62.14554
881.30 66.41302
881.40 68.8202
881.50 70.68223
881.60 71.94366
881.70 73.12821
881.80 74.27648
881.90 74.8435
882.00 75.08829
882.10 73.49197
882.20 71.68875
882.30 68.65105
882.40 65.75128
882.50 62.94684
882.60 59.58276
882.70 56.83504
882.80 58.92732
882.90 61.65717
883.00 64.53161
883.10 67.06523
883.20 69.49304
883.30 71.28441
883.40 72.64104
883.50 72.35869
883.60 72.02291
883.70 72.10457
883.80 72.34337
883.90 73.27008
884.00 75.82141
884.10 78.22507
884.20 77.35702
884.30 76.13146
884.40 75.23731
884.50 74.99735
884.60 73.26375
884.70 70.16352
884.80 67.23346
884.90 63.96123
885.00 60.87902
885.10 61.75559
885.20 63.79658
885.30 68.69077
885.40 74.56927
885.50 79.03228
885.60 79.73517
885.70 79.91035
885.80 75.44739
885.90 70.43406
886.00 65.68866
886.10 61.82309
886.20 57.84729
886.30 53.25874
886.40 49.47072
886.50 50.0338
886.60 50.8808
886.70 53.91503
886.80 57.72821
886.90 58.84019
887.00 56.27926
887.10 53.33999
887.20 49.38275
887.30 45.47123
887.40 44.49686
887.50 43.62837
887.60 43.85856
887.70 45.53039
887.80 47.45018
887.90 50.07995
888.00 52.70757
888.10 54.29876
888.20 55.7094
888.30 55.14603
888.40 52.95017
888.50 51.04439
888.60 50.8286
888.70 50.69707
888.80 50.34888
888.90 49.32778
889.00 50.66941
889.10 54.83411
889.20 58.39689
889.30 58.56421
889.40 58.56104
889.50 56.98412
889.60 55.1048
889.70 53.42635
889.80 52.9829
889.90 53.38025
890.00 54.54447
890.10 55.99034
890.20 58.62645
890.30 61.2169
890.40 63.62446
890.50 66.86072
890.60 69.29575
890.70 69.67956
890.80 69.7416
890.90 66.85181
891.00 63.51483
891.10 61.5692
891.20 61.03061
891.30 60.89755
891.40 60.45092
891.50 60.4554
891.60 62.01256
891.70 63.60029
891.80 63.919
891.90 64.45874
892.00 65.52195
892.10 66.35315
892.20 66.71009
892.30 65.97837
892.40 65.2148
892.50 64.11538
892.60 63.1405
892.70 63.10959
892.80 64.07839
892.90 65.19428
893.00 65.10593
893.10 65.20499
893.20 67.55635
893.30 70.36699
893.40 72.58007
893.50 74.3558
893.60 75.03489
893.70 73.89926
893.80 72.34622
893.90 67.7063
894.00 62.68233
894.10 60.25353
894.20 58.65499
894.30 58.04503
894.40 58.70261
894.50 59.08978
894.60 58.34882
894.70 57.45433
894.80 59.14749
894.90 61.51562
895.00 62.81241
895.10 62.7805
895.20 62.58096
895.30 61.5913
895.40 60.65757
895.50 60.94936
895.60 61.58149
895.70 63.11932
895.80 65.40115
895.90 67.34056
896.00 68.11631
896.10 68.78539
896.20 68.57016
896.30 68.33157
896.40 68.18954
896.50 67.09396
896.60 65.65442
896.70 64.93878
896.80 64.37207
896.90 64.556
897.00 64.96863
897.10 66.47909
897.20 67.76252
897.30 68.46415
897.40 69.43403
897.50 70.60203
897.60 72.31498
897.70 73.90579
897.80 74.77539
897.90 74.92698
898.00 74.08114
898.10 73.75293
898.20 73.58714
898.30 72.84981
898.40 71.70448
898.50 74.10739
898.60 77.69359
898.70 80.5333
898.80 81.5215
898.90 81.6667
899.00 79.02546
899.10 76.28376
899.20 75.25894
899.30 75.17717
899.40 75.49757
899.50 76.1021
899.60 76.60068
899.70 75.16824
899.80 73.51989
899.90 72.44613
900.00 71.98364
900.10 71.96213
900.20 72.28286
900.30 73.49607
900.40 76.82692
900.50 80.22531
900.60 83.47493
900.70 86.79432
900.80 86.69178
900.90 83.8737
901.00 80.96101
901.10 80.19401
901.20 79.8415
901.30 80.50375
901.40 80.86982
901.50 80.78607
901.60 81.10308
901.70 80.86528
901.80 79.56012
901.90 78.34213
902.00 76.67623
902.10 74.90473
902.20 73.54824
902.30 72.67605
902.40 71.85941
902.50 71.4768
902.60 71.25406
902.70 70.67402
902.80 69.96806
902.90 70.32047
903.00 71.08596
903.10 72.19672
903.20 72.85713
903.30 73.68488
903.40 75.62869
903.50 77.57251
903.60 79.39445
903.70 81.27972
903.80 82.92807
903.90 84.1126
904.00 84.96095
904.10 84.0935
904.20 83.15361
904.30 82.35601
904.40 82.05909
904.50 81.97579
904.60 81.77725
904.70 82.41951
904.80 84.19527
904.90 85.93278
905.00 87.22991
905.10 88.51363
905.20 86.32474
905.30 82.86208
905.40 80.22399
905.50 78.50477
905.60 76.8327
905.70 76.55652
905.80 76.57199
905.90 76.7708
906.00 76.7701
906.10 77.06535
906.20 77.60453
906.30 78.22918
906.40 78.69006
906.50 79.00132
906.60 77.96565
906.70 77.37229
906.80 76.67777
906.90 75.091
907.00 73.86233
907.10 74.76778
907.20 75.82288
907.30 76.79401
907.40 77.14481
907.50 76.99508
907.60 76.98312
907.70 77.18942
907.80 79.57106
907.90 82.13255
908.00 84.20124
908.10 85.63001
908.20 85.48349
908.30 85.27255
908.40 84.3984
908.50 82.72533
908.60 81.32919
908.70 80.91348
908.80 80.46119
908.90 80.72314
909.00 82.30174
909.10 83.69658
909.20 83.56855
909.30 83.72729
909.40 84.83016
909.50 85.98178
909.60 86.95475
909.70 87.97534
909.80 88.72156
909.90 89.82891
910.00 91.04949
910.10 91.08028
910.20 90.96412
910.30 90.27432
910.40 89.74679
910.50 89.11058
910.60 88.9086
910.70 88.75185
910.80 86.55173
910.90 84.57452
911.00 86.24712
911.10 88.76529
911.20 90.9834
911.30 92.9528
911.40 94.36351
911.50 93.8891
911.60 93.2082
911.70 92.48667
911.80 92.15567
911.90 92.05669
912.00 91.28706
912.10 91.05933
912.20 91.23037
912.30 91.10976
912.40 90.62769
912.50 90.24809
912.60 89.74485
912.70 89.21945
912.80 88.81051
912.90 88.20098
913.00 87.79863
913.10 89.45643
913.20 91.40116
913.30 93.16618
913.40 94.39996
913.50 95.57973
913.60 97.63594
913.70 99.04324
913.80 97.44704
913.90 95.70203
914.00 92.15935
914.10 87.98858
914.20 85.72796
914.30 85.34559
914.40 85.94093
914.50 89.14681
914.60 92.24133
914.70 94.1749
914.80 95.85187
914.90 94.85863
915.00 92.66016
915.10 90.792
915.20 90.24464
915.30 90.22469
915.40 91.99074
915.50 93.6425
915.60 97.60608
915.70 103.1447
915.80 106.3165
915.90 104.7442
916.00 102.9754
916.10 100.8586
916.20 98.82265
916.30 96.84186
916.40 95.25878
916.50 95.46463
916.60 96.76909
916.70 98.13462
916.80 100.2975
916.90 102.4986
917.00 102.4901
917.10 101.7021
917.20 100.8258
917.30 100.6685
917.40 100.2961
917.50 98.95076
917.60 97.75155
917.70 97.84389
917.80 98.09941
917.90 98.68947
918.00 99.50003
918.10 100.5232
918.20 101.1865
918.30 101.6949
918.40 101.3431
918.50 100.938
918.60 99.35982
918.70 97.40819
918.80 97.56642
918.90 102.6694
919.00 108.0202
919.10 111.3333
919.20 114.1853
919.30 111.9061
919.40 108.7472
919.50 105.3345
919.60 103.1303
919.70 102.0452
919.80 104.4515
919.90 106.9224
920.00 108.2824
920.10 108.9835
920.20 108.5059
920.30 108.0392
920.40 107.9049
920.50 107.4126
920.60 106.8777
920.70 104.7087
920.80 102.198
920.90 97.98849
921.00 93.74386
921.10 90.97829
921.20 89.65694
921.30 88.43763
921.40 91.12355
921.50 94.70578
921.60 96.66066
921.70 97.3909
921.80 97.98684
921.90 97.9111
922.00 97.75893
922.10 95.99699
922.20 93.97858
922.30 92.77624
922.40 92.17032
922.50 91.4714
922.60 90.3465
922.70 89.50838
922.80 89.79628
922.90 90.06691
923.00 90.41347
923.10 91.2869
923.20 90.49636
923.30 88.35739
923.40 87.02899
923.50 85.60425
923.60 84.10163
923.70 85.01065
923.80 86.80775
923.90 87.73319
924.00 88.13188
924.10 89.03389
924.20 91.28643
924.30 93.41822
924.40 94.95742
924.50 96.25617
924.60 94.75378
924.70 91.99859
924.80 89.35198
924.90 88.28043
925.00 87.50596
925.10 87.2839
925.20 86.89211
925.30 86.61522
925.40 86.61169
925.50 87.17974
925.60 88.14071
925.70 89.37785
925.80 92.53017
925.90 95.82117
926.00 96.23123
926.10 96.35686
926.20 95.60706
926.30 93.55228
926.40 92.04591
926.50 92.96891
926.60 93.99183
926.70 96.38132
926.80 98.63371
926.90 99.25862
927.00 99.28285
927.10 98.98597
927.20 98.08534
927.30 97.12857
927.40 95.46467
927.50 93.74999
927.60 91.46532
927.70 88.47324
927.80 85.51713
927.90 83.41498
928.00 81.91506
928.10 83.9662
928.20 86.31192
928.30 88.00592
928.40 89.12377
928.50 90.58088
928.60 92.45166
928.70 93.5725
928.80 92.07897
928.90 90.53304
929.00 90.027
929.10 89.4919
929.20 88.65052
929.30 87.86872
929.40 87.44598
929.50 88.42512
929.60 89.44116
929.70 89.72001
929.80 89.56028
929.90 87.58153
930.00 84.44536
930.10 81.55803
930.20 81.63494
930.30 81.89512
930.40 83.0886
930.50 84.01872
930.60 83.79496
930.70 82.81738
930.80 82.25224
930.90 82.83673
931.00 83.54988
931.10 85.52471
931.20 87.53689
931.30 89.68468
931.40 92.04276
931.50 93.13643
931.60 92.27228
931.70 91.46265
931.80 89.82186
931.90 88.1914
932.00 86.48166
932.10 85.45024
932.20 85.08675
932.30 86.54106
932.40 88.0099
932.50 89.67357
932.60 91.12253
932.70 90.99321
932.80 90.1382
932.90 89.81429
933.00 89.88126
933.10 89.87471
933.20 89.97989
933.30 90.08814
933.40 88.66699
933.50 86.61047
933.60 86.14548
933.70 88.25623
933.80 90.27273
933.90 90.22455
934.00 90.15284
934.10 91.53067
934.20 92.93449
934.30 91.76076
934.40 88.96033
934.50 87.81356
934.60 90.71296
934.70 93.60882
934.80 93.83079
934.90 93.7149
935.00 94.42315
935.10 92.39901
935.20 90.37431
935.30 89.28324
935.40 88.96954
935.50 88.64527
935.60 88.79687
935.70 89.04497
935.80 89.16453
935.90 89.69325
936.00 90.25093
936.10 91.31598
936.20 93.09633
936.30 94.89292
936.40 95.36204
936.50 94.85766
936.60 94.26874
936.70 92.61353
936.80 90.98829
936.90 89.64449
937.00 88.41877
937.10 87.19345
937.20 85.62437
937.30 84.11677
937.40 82.57881
937.50 84.43542
937.60 86.82823
937.70 88.94325
937.80 89.6077
937.90 90.25011
938.00 90.60824
938.10 90.51414
938.20 90.42764
938.30 90.23913
938.40 90.08055
938.50 89.92915
938.60 90.86916
938.70 91.82534
938.80 92.62972
938.90 93.23384
939.00 93.83806
939.10 94.12104
939.20 94.11342
939.30 94.11645
939.40 94.04674
939.50 93.88924
939.60 93.70123
939.70 92.22407
939.80 90.66193
939.90 89.40655
940.00 89.33752
940.10 89.25994
940.20 89.70533
940.30 90.32381
940.40 90.96202
940.50 91.86919
940.60 92.91346
940.70 94.08426
940.80 95.84655
940.90 97.61024
941.00 98.64227
941.10 98.70108
941.20 98.79319
941.30 98.06598
941.40 96.99662
941.50 95.88619
941.60 94.10376
941.70 92.29053
941.80 91.05147
941.90 91.27946
942.00 91.51292
942.10 92.05541
942.20 92.94768
942.30 93.83844
942.40 94.77544
942.50 95.59226
942.60 96.18797
942.70 95.64798
942.80 95.10779
942.90 94.71852
943.00 95.08758
943.10 95.42577
943.20 96.84455
943.30 98.47247
943.40 100.1341
943.50 100.8599
943.60 101.479
943.70 101.3296
943.80 99.5295
943.90 97.73051
944.00 96.6163
944.10 95.79933
944.20 94.9667
944.30 94.0536
944.40 93.29617
944.50 92.6721
944.60 92.91406
944.70 93.15691
944.80 93.8783
944.90 95.09865
945.00 96.31561
945.10 96.33121
945.20 96.07051
945.30 95.91021
945.40 95.98044
945.50 95.96402
945.60 95.88496
945.70 95.97135
945.80 96.0648
945.90 96.08069
946.00 95.85914
946.10 95.60442
946.20 96.73765
946.30 98.25565
946.40 99.58079
946.50 99.54477
946.60 99.50429
946.70 99.83437
946.80 100.4813
946.90 101.1198
947.00 100.947
947.10 100.5867
947.20 100.32
947.30 100.9188
947.40 101.4964
947.50 101.9958
947.60 102.6124
947.70 103.2293
947.80 104.4721
947.90 105.9752
948.00 107.4672
948.10 107.209
948.20 106.84
948.30 106.5781
948.40 106.8365
948.50 107.0953
948.60 107.8607
948.70 108.8908
948.80 109.933
948.90 110.1916
949.00 110.3378
949.10 110.4675
949.20 110.6936
949.30 110.903
949.40 110.5309
949.50 108.2698
949.60 106.0092
949.70 105.9726
949.80 107.697
949.90 109.3622
950.00 109.1231
950.10 108.6543
950.20 108.3293
950.30 108.7999
950.40 109.2678
950.50 109.3547
950.60 108.5459
950.70 107.7195
950.80 107.7404
950.90 108.2112
951.00 108.6748
951.10 109.2459
951.20 109.7978
951.30 109.6935
951.40 107.8758
951.50 106.0591
951.60 105.062
951.70 104.6398
951.80 104.2194
951.90 104.2629
952.00 104.3805
952.10 104.5263
952.20 105.6395
952.30 106.7538
952.40 107.9212
952.50 109.4379
952.60 110.9584
952.70 111.8358
952.80 112.3411
952.90 112.904
953.00 113.0217
953.10 113.0514
953.20 112.8463
953.30 112.1092
953.40 111.3723
953.50 110.3903
953.60 109.0712
953.70 107.7538
953.80 107.2435
953.90 107.0448
954.00 106.9933
954.10 107.2694
954.20 107.5482
954.30 107.85
954.40 108.2507
954.50 108.6724
954.60 109.2865
954.70 110.039
954.80 110.7194
954.90 110.5741
955.00 110.3922
955.10 110.3867
955.20 110.8237
955.30 111.2674
955.40 111.5099
955.50 111.6584
955.60 111.7983
955.70 112.193
955.80 112.71
955.90 113.3231
956.00 114.0135
956.10 114.703
956.20 115.1389
956.30 114.8085
956.40 114.4972
956.50 113.2474
956.60 111.8116
956.70 110.4066
956.80 111.6069
956.90 112.9256
957.00 114.2618
957.10 115.3634
957.20 116.4584
957.30 116.436
957.40 115.4908
957.50 114.5827
957.60 112.7004
957.70 110.6942
957.80 109.0306
957.90 109.1388
958.00 109.2486
958.10 109.2327
958.20 109.4586
958.30 109.7042
958.40 109.6101
958.50 109.3465
958.60 109.0643
958.70 107.5872
958.80 106.0383
958.90 104.6217
959.00 103.0473
959.10 101.4615
959.20 100.9365
959.30 101.5214
959.40 102.0683
959.50 102.4623
959.60 102.8128
959.70 102.9764
959.80 100.7388
959.90 98.49798
960.00 97.28719
960.10 97.39729
960.20 97.42437
960.30 99.56879
960.40 102.6695
960.50 105.6027
960.60 106.6284
960.70 107.6041
960.80 108.5468
960.90 108.9868
961.00 109.4444
961.10 109.4535
961.20 109.1114
961.30 108.7826
961.40 106.9743
961.50 105.0101
961.60 103.6548
961.70 104.8807
961.80 106.0975
961.90 107.4843
962.00 109.4591
962.10 111.4569
962.20 111.9151
962.30 111.7696
962.40 111.7629
962.50 112.2679
962.60 112.7711
962.70 113.2127
962.80 113.7531
962.90 114.3038
963.00 112.9059
963.10 110.4449
963.20 108.0057
963.30 107.4058
963.40 106.8269
963.50 105.9129
963.60 103.646
963.70 101.4026
963.80 98.36768
963.90 94.12606
964.00 89.77153
964.10 90.61415
964.20 93.20119
964.30 95.54246
964.40 99.26393
964.50 102.9821
964.60 105.4024
964.70 104.802
964.80 104.2234
964.90 104.2498
965.00 104.542
965.10 104.7693
965.20 104.2061
965.30 103.6148
965.40 103.2981
965.50 103.8624
965.60 104.4329
965.70 105.5611
965.80 107.2505
965.90 108.9366
966.00 110.3276
966.10 111.6384
966.20 112.8779
966.30 113.3364
966.40 113.7947
966.50 114.1321
966.60 114.0687
966.70 114.0259
966.80 113.6682
966.90 113.1961
967.00 112.666
967.10 112.0889
967.20 111.5125
967.30 110.9395
967.40 109.9441
967.50 108.9753
967.60 107.5584
967.70 105.5407
967.80 103.3827
967.90 104.6166
968.00 106.6995
968.10 108.508
968.20 110.2222
968.30 111.9423
968.40 112.6386
968.50 111.2449
968.60 109.8719
968.70 108.5932
968.80 107.2824
968.90 106.035
969.00 106.3827
969.10 106.8124
969.20 107.5496
969.30 109.7621
969.40 111.9622
969.50 113.3386
969.60 114.1447
969.70 115.0205
969.80 116.0861
969.90 117.0923
970.00 117.7501
970.10 116.8592
970.20 115.9735
970.30 115.2979
970.40 114.6329
970.50 114.0544
970.60 111.6658
970.70 108.5644
970.80 105.4858
970.90 107.6893
971.00 109.9687
971.10 112.3665
971.20 115.8718
971.30 119.4127
971.40 121.0375
971.50 121.3785
971.60 121.7826
971.70 122.7789
971.80 123.7485
971.90 124.4294
972.00 123.4928
972.10 122.5547
972.20 121.2996
972.30 119.76
972.40 118.1757
972.50 117.4358
972.60 116.9641
972.70 116.4526
972.80 113.836
972.90 111.2138
973.00 108.7793
973.10 106.4268
973.20 103.9617
973.30 105.0072
973.40 108.1226
973.50 111.2442
973.60 111.3816
973.70 111.3686
973.80 111.5955
973.90 112.0707
974.00 112.5444
974.10 112.0118
974.20 110.5703
974.30 109.2008
974.40 107.528
974.50 105.721
974.60 104.1093
974.70 105.0447
974.80 105.9702
974.90 107.1039
975.00 108.8528
975.10 110.6445
975.20 112.0911
975.30 113.3511
975.40 114.5786
975.50 113.8718
975.60 113.1588
975.70 113.0711
975.80 114.2
975.90 115.307
976.00 115.7701
976.10 115.8115
976.20 115.9166
976.30 116.0504
976.40 116.1652
976.50 116.2512
976.60 116.9051
976.70 117.5674
976.80 117.6801
976.90 116.9841
977.00 116.3601
977.10 115.2768
977.20 113.9161
977.30 112.4952
977.40 113.9587
977.50 115.432
977.60 116.6998
977.70 117.9775
977.80 119.2903
977.90 119.6358
978.00 119.2788
978.10 119.0233
978.20 116.2573
978.30 113.2476
978.40 110.7489
978.50 109.4401
978.60 108.0786
978.70 107.5299
978.80 108.158
978.90 108.7436
979.00 110.2058
979.10 111.915
979.20 113.6188
979.30 116.8225
979.40 120.0311
979.50 122.6327
979.60 124.0058
979.70 125.4502
979.80 125.5152
979.90 124.8656
980.00 124.1679
980.10 124.2762
980.20 124.4012
980.30 124.3929
980.40 123.9499
980.50 123.5098
980.60 122.8195
980.70 121.9053
980.80 120.9911
980.90 121.0334
981.00 121.2566
981.10 121.5323
981.20 122.4677
981.30 123.411
981.40 123.2098
981.50 121.3743
981.60 119.5646
981.70 118.825
981.80 118.4934
981.90 118.0299
982.00 118.1682
982.10 118.3064
982.20 118.3472
982.30 117.9548
982.40 117.5551
982.50 118.029
982.60 119.0761
982.70 120.1027
982.80 120.1438
982.90 120.0909
983.00 120.1403
983.10 120.2168
983.20 120.2863
983.30 120.023
983.40 119.4718
983.50 118.9306
983.60 118.272
983.70 117.5642
983.80 116.9567
983.90 117.5904
984.00 118.2187
984.10 118.8596
984.20 119.6699
984.30 120.4966
984.40 121.0535
984.50 121.445
984.60 121.836
984.70 122.0371
984.80 122.2506
984.90 122.1544
985.00 121.1054
985.10 120.079
985.20 119.0475
985.30 117.9498
985.40 116.7997
985.50 117.8963
985.60 119.4219
985.70 120.9284
985.80 122.5411
985.90 124.163
986.00 124.8358
986.10 124.1886
986.20 123.5368
986.30 123.4697
986.40 123.6187
986.50 123.7159
986.60 123.566
986.70 123.4178
986.80 122.7925
986.90 120.8837
987.00 118.9687
987.10 118.8571
987.20 119.8854
987.30 120.7953
987.40 123.5365
987.50 126.4663
987.60 128.6936
987.70 127.9093
987.80 127.1522
987.90 125.7027
988.00 123.4559
988.10 121.1895
988.20 121.5865
988.30 122.6614
988.40 123.7722
988.50 126.2916
988.60 128.8154
988.70 130.0986
988.80 129.3722
988.90 128.6757
989.00 127.6645
989.10 126.4822
989.20 125.3126
989.30 123.4364
989.40 121.5423
989.50 118.7532
989.60 113.3078
989.70 107.9246
989.80 102.8497
989.90 97.89867
990.00 92.78562
990.10 91.14898
990.20 90.07602
990.30 88.60377
990.40 85.0409
990.50 81.49544
990.60 77.99309
990.70 74.44748
990.80 70.8423
990.90 70.07173
991.00 70.24445
991.10 70.33463
991.20 71.33606
991.30 72.34661
991.40 72.43546
991.50 70.53293
991.60 68.6292
991.70 67.86367
991.80 67.74418
991.90 67.46851
992.00 70.45695
992.10 73.65041
992.20 75.99918
992.30 75.16747
992.40 74.38372
992.50 73.04235
992.60 71.09078
992.70 68.99554
992.80 71.63185
992.90 75.30454
993.00 78.87074
993.10 82.1517
993.20 85.45946
993.30 86.77248
993.40 85.11076
993.50 83.47508
993.60 83.84452
993.70 85.03388
993.80 86.11657
993.90 90.2488
994.00 94.38572
994.10 97.36667
994.20 97.60929
994.30 97.92263
994.40 97.49734
994.50 96.51824
994.60 95.51598
994.70 96.40421
994.80 97.50166
994.90 98.77836
995.00 101.2553
995.10 103.7375
995.20 105.6372
995.30 106.901
995.40 108.1763
995.50 107.8487
995.60 107.0959
995.70 106.3294
995.80 103.8834
995.90 101.4234
996.00 99.65967
996.10 99.11724
996.20 98.51743
996.30 100.3287
996.40 103.282
996.50 106.1388
996.60 109.5658
996.70 112.9839
996.80 113.969
996.90 108.058
997.00 102.2407
997.10 96.37367
997.20 90.37781
997.30 84.24781
997.40 83.92271
997.50 84.45274
997.60 85.31569
997.70 88.85071
997.80 92.38152
997.90 95.21983
998.00 97.27196
998.10 99.34047
998.20 99.72838
998.30 99.58965
998.40 99.46689
998.50 96.77494
998.60 94.074
998.70 92.33433
998.80 92.34828
998.90 92.30889
999.00 92.12314
999.10 91.91757
999.20 91.74743
999.30 91.80122
999.40 91.86388
999.50 91.83468
999.60 91.67516
999.70 91.55636
999.80 92.22206
999.90 93.56582
1000.00 94.78917
1000.10 98.52751
1000.20 102.5986
1000.30 106.3285
1000.40 108.1166
1000.50 109.9323
1000.60 110.4367
1000.70 109.2042
1000.80 108.0543
1000.90 105.0409
1001.00 101.4718
1001.10 98.01599
1001.20 97.42897
1001.30 96.82021
1001.40 97.18724
1001.50 99.51462
1001.60 101.8218
1001.70 104.7023
1001.80 107.9392
1001.90 111.3042
1002.00 109.9209
1002.10 108.2879
1002.20 107.0978
1002.30 107.1869
1002.40 107.2181
1002.50 107.888
1002.60 109.0281
1002.70 110.2126
1002.80 109.5453
1002.90 108.649
1003.00 107.9466
1003.10 107.3831
1003.20 106.8113
1003.30 105.7323
1003.40 104.1296
1003.50 102.5495
1003.60 100.2352
1003.70 97.65297
1003.80 95.23361
1003.90 97.14043
1004.00 99.03018
1004.10 101.7156
1004.20 106.1699
1004.30 110.6241
1004.40 112.9525
1004.50 114.0376
1004.60 115.2673
1004.70 114.1448
1004.80 112.9298
1004.90 110.9103
1005.00 106.2682
1005.10 101.6601
1005.20 96.70973
1005.30 91.45462
1005.40 86.14062
1005.50 84.35584
1005.60 83.21251
1005.70 82.59446
1005.80 85.57485
1005.90 88.53631
1006.00 91.4929
1006.10 94.52384
1006.20 97.61537
1006.30 97.18064
1006.40 95.54786
1006.50 94.06982
1006.60 96.6548
1006.70 99.22799
1006.80 102.3885
1006.90 106.7303
1007.00 111.1241
1007.10 111.698
1007.20 110.2308
1007.30 108.8719
1007.40 108.6384
1007.50 108.4763
1007.60 108.9562
1007.70 111.7295
1007.80 114.5045
1007.90 115.9474
1008.00 116.33
1008.10 116.7681
1008.20 116.7837
1008.30 116.7107
1008.40 116.875
1008.50 118.5926
1008.60 120.3036
1008.70 120.3577
1008.80 118.3262
1008.90 116.394
1009.00 113.6061
1009.10 110.6092
1009.20 107.7097
1009.30 107.064
1009.40 106.4022
1009.50 107.0389
1009.60 110.3243
1009.70 113.5987
1009.80 117.4315
1009.90 121.5329
1010.00 125.6258
1010.10 128.9955
1010.20 132.2972
1010.30 134.3572
1010.40 132.6482
1010.50 130.9967
1010.60 129.2517
1010.70 127.437
1010.80 125.6384
1010.90 122.8705
1011.00 119.8678
1011.10 116.8561
1011.20 114.0322
1011.30 111.19
1011.40 109.1318
1011.50 107.9911
1011.60 106.8381
1011.70 105.4246
1011.80 103.9522
1011.90 102.6573
1012.00 105.8782
1012.10 109.0759
1012.20 113.1125
1012.30 118.939
1012.40 124.8244
1012.50 127.6106
1012.60 128.6415
1012.70 129.8154
1012.80 128.9639
1012.90 128.1338
1013.00 127.4293
1013.10 127.1642
1013.20 126.9246
1013.30 124.8717
1013.40 121.2047
1013.50 117.6658
1013.60 112.0037
1013.70 106.1022
1013.80 100.984
1013.90 100.4041
1014.00 99.77345
1014.10 100.9161
1014.20 104.408
1014.30 107.8608
1014.40 110.4642
1014.50 112.7726
1014.60 114.9761
1014.70 112.3821
1014.80 109.7868
1014.90 108.8383
1015.00 111.0143
1015.10 113.0464
1015.20 115.8214
1015.30 118.9089
1015.40 122.1793
1015.50 119.7224
1015.60 117.0255
1015.70 114.3192
1015.80 111.0763
1015.90 107.7759
1016.00 106.8439
1016.10 107.9042
1016.20 108.8624
1016.30 110.4208
1016.40 112.0613
1016.50 113.7405
1016.60 115.2513
1016.70 116.7449
1016.80 117.8334
1016.90 118.3931
1017.00 119.0565
1017.10 117.1846
1017.20 114.5564
1017.30 112.207
1017.40 116.2148
1017.50 120.2069
1017.60 123.7356
1017.70 126.4338
1017.80 129.2847
1017.90 127.2008
1018.00 122.566
1018.10 117.9721
1018.20 115.2732
1018.30 112.6162
1018.40 110.1453
1018.50 108.7561
1018.60 107.3605
1018.70 106.9746
1018.80 107.4066
1018.90 107.6985
1019.00 110.7531
1019.10 114.2561
1019.20 117.3697
1019.30 117.8098
1019.40 118.2868
1019.50 118.482
1019.60 118.3703
1019.70 118.2256
1019.80 118.6671
1019.90 119.2791
1020.00 119.8588
1020.10 119.2362
1020.20 118.6003
1020.30 118.282
1020.40 118.5411
1020.50 118.7828
1020.60 119.8399
1020.70 121.3881
1020.80 122.9605
1020.90 122.3074
1021.00 121.5026
1021.10 120.4605
1021.20 118.8303
1021.30 117.2531
1021.40 115.0091
1021.50 112.1471
1021.60 109.2353
1021.70 106.8618
1021.80 104.5437
1021.90 102.3988
1022.00 101.3073
1022.10 100.1932
1022.20 100.8843
1022.30 103.5851
1022.40 106.1454
1022.50 109.6014
1022.60 113.0953
1022.70 116.343
1022.80 116.2978
1022.90 116.2638
1023.00 115.4074
1023.10 113.2201
1023.20 111.0664
1023.30 110.6988
1023.40 111.3539
1023.50 112.0513
1023.60 114.857
1023.70 117.6897
1023.80 120.0352
1023.90 121.6186
1024.00 123.2375
1024.10 125.2782
1024.20 127.4529
1024.30 129.5888
1024.40 128.4755
1024.50 126.9301
1024.60 125.2193
1024.70 122.474
1024.80 119.691
1024.90 117.7357
1025.00 116.6382
1025.10 115.5848
1025.20 112.8165
1025.30 109.635
1025.40 106.8839
1025.50 108.6939
1025.60 110.4699
1025.70 111.354
1025.80 110.6537
1025.90 110.115
1026.00 106.5304
1026.10 101.8769
1026.20 97.40697
1026.30 96.35721
1026.40 95.46223
1026.50 95.84534
1026.60 99.7929
1026.70 103.6573
1026.80 108.3492
1026.90 113.2917
1027.00 118.3698
1027.10 118.8454
1027.20 118.8493
1027.30 118.4028
1027.40 116.2735
1027.50 114.1535
1027.60 112.0679
1027.70 110.1282
1027.80 108.1115
1027.90 107.2095
1028.00 106.4128
1028.10 105.451
1028.20 103.2581
1028.30 101.0706
1028.40 99.87575
1028.50 100.0261
1028.60 100.0035
1028.70 104.6247
1028.80 110.7052
1028.90 116.4961
1029.00 117.675
1029.10 118.9141
1029.20 118.793
1029.30 115.828
1029.40 112.8423
1029.50 112.2858
1029.60 112.7558
1029.70 113.093
1029.80 113.0879
1029.90 113.1096
1030.00 112.7418
1030.10 110.7312
1030.20 108.7123
1030.30 108.4306
1030.40 109.5202
1030.50 110.4735
1030.60 114.8021
1030.70 119.4937
1030.80 123.0133
1030.90 120.8086
1031.00 118.6375
1031.10 117.604
1031.20 117.9538
1031.30 118.1937
1031.40 119.6098
1031.50 121.137
1031.60 122.2262
1031.70 118.699
1031.80 115.1896
1031.90 112.4848
1032.00 111.139
1032.10 109.704
1032.20 109.4396
1032.30 109.5835
1032.40 109.6768
1032.50 108.076
1032.60 106.4212
1032.70 106.7931
1032.80 112.0626
1032.90 117.2743
1033.00 122.3325
1033.10 127.2085
1033.20 132.177
1033.30 132.4668
1033.40 132.1501
1033.50 130.7509
1033.60 125.1649
1033.70 119.6175
1033.80 115.1509
1033.90 111.7673
1034.00 108.2367
1034.10 109.0572
1034.20 110.9435
1034.30 112.5805
1034.40 111.8216
1034.50 111.0624
1034.60 111.2051
1034.70 112.8111
1034.80 114.2695
1034.90 115.3647
1035.00 115.8829
1035.10 116.0805
1035.20 114.7362
1035.30 113.4299
1035.40 113.1522
1035.50 114.1407
1035.60 115.123
1035.70 116.4615
1035.80 118.0469
1035.90 119.6922
1036.00 122.4144
1036.10 125.1643
1036.20 127.4346
1036.30 128.8093
1036.40 130.2396
1036.50 130.4113
1036.60 129.6592
1036.70 128.8964
1036.80 129.8131
1036.90 131.0143
1037.00 132.5893
1037.10 135.6879
1037.20 138.7836
1037.30 140.8979
1037.40 141.8992
1037.50 142.991
1037.60 139.588
1037.70 135.0108
1037.80 130.2878
1037.90 124.2403
1038.00 118.1829
1038.10 113.6724
1038.20 111.818
1038.30 109.7954
1038.40 112.3322
1038.50 116.7359
1038.60 121.0467
1038.70 123.812
1038.80 126.4321
1038.90 127.7182
1039.00 125.8245
1039.10 123.9532
1039.20 122.5445
1039.30 121.4926
1039.40 120.4434
1039.50 119.2973
1039.60 118.1468
1039.70 117.407
1039.80 118.2891
1039.90 119.113
1040.00 120.8334
1040.10 123.5008
1040.20 126.1016
1040.30 128.2218
1040.40 129.8697
1040.50 131.2422
1040.60 131.9401
1040.70 132.6519
1040.80 133.3207
1040.90 133.7907
1041.00 134.3122
1041.10 131.2508
1041.20 127.3172
1041.30 123.5039
1041.40 120.9994
1041.50 118.4569
1041.60 118.8553
1041.70 123.8713
1041.80 128.7685
1041.90 133.0184
1042.00 136.5955
1042.10 139.8908
1042.20 136.3269
1042.30 132.4943
1042.40 128.7319
1042.50 124.7588
1042.60 120.8095
1042.70 116.5189
1042.80 112.1259
1042.90 107.6192
1043.00 109.3856
1043.10 111.9163
1043.20 115.4545
1043.30 123.2339
1043.40 131.0532
1043.50 135.7447
1043.60 136.991
1043.70 138.3984
1043.80 137.7675
1043.90 136.9188
1044.00 136.2216
1044.10 136.7019
1044.20 137.1822
1044.30 137.1308
1044.40 136.2664
1044.50 135.4303
1044.60 135.0077
1044.70 134.8631
1044.80 134.762
1044.90 135.9626
1045.00 137.2383
1045.10 139.9832
1045.20 145.27
1045.30 150.5831
1045.40 154.0262
1045.50 156.2365
1045.60 158.2978
1045.70 156.8573
1045.80 155.0183
1045.90 151.8313
1046.00 145.2667
1046.10 138.7031
1046.20 133.6856
1046.30 130.0685
1046.40 126.3785
1046.50 125.2188
1046.60 124.2091
1046.70 123.0708
1046.80 120.8249
1046.90 118.5756
1047.00 116.762
1047.10 115.6748
1047.20 114.4973
1047.30 115.394
1047.40 116.6444
1047.50 117.8264
1047.60 118.9201
1047.70 120.0213
1047.80 120.2017
1047.90 118.9625
1048.00 117.7457
1048.10 118.0688
1048.20 119.2359
1048.30 120.6611
1048.40 123.3397
1048.50 126.0004
1048.60 127.6628
1048.70 127.7137
1048.80 127.7989
1048.90 127.7245
1049.00 127.7255
1049.10 127.7981
1049.20 128.6816
1049.30 129.6001
1049.40 130.1975
1049.50 129.9042
1049.60 129.702
1049.70 127.5907
1049.80 124.1113
1049.90 120.4543
1050.00 121.0375
1050.10 122.1012
1050.20 123.1602
1050.30 124.8552
1050.40 126.6172
1050.50 127.0023
1050.60 125.8777
1050.70 124.7707
1050.80 123.9078
1050.90 123.1565
1051.00 122.3007
1051.10 120.7862
1051.20 119.3234
1051.30 117.2547
1051.40 114.2788
1051.50 111.2335
1051.60 111.2392
1051.70 112.5169
1051.80 113.6122
1051.90 113.9291
1052.00 114.2075
1052.10 114.6163
1052.20 115.3818
1052.30 116.1222
1052.40 117.8956
1052.50 120.0363
1052.60 122.1392
1052.70 124.957
1052.80 127.7955
1052.90 129.5485
1053.00 128.0705
1053.10 126.6665
1053.20 125.1588
1053.30 123.8369
1053.40 122.4157
1053.50 123.4651
1053.60 124.7232
1053.70 125.7018
1053.80 125.4848
1053.90 125.3061
1054.00 124.6427
1054.10 123.603
1054.20 122.4605
1054.30 123.2047
1054.40 124.1964
1054.50 124.7161
1054.60 121.5724
1054.70 118.4587
1054.80 116.2809
1054.90 115.6993
1055.00 114.9952
1055.10 117.5871
1055.20 121.3425
1055.30 124.6783
1055.40 124.0851
1055.50 123.2653
1055.60 121.4668
1055.70 118.0703
1055.80 114.6943
1055.90 112.672
1056.00 111.595
1056.10 110.5258
1056.20 109.6533
1056.30 108.7009
1056.40 108.0942
1056.50 108.7307
1056.60 109.3438
1056.70 110.4249
1056.80 111.8659
1056.90 113.3729
1057.00 113.246
1057.10 112.8182
1057.20 112.7092
1057.30 114.6247
1057.40 116.5212
1057.50 118.1523
1057.60 119.5377
1057.70 120.969
1057.80 120.705
1057.90 119.9898
1058.00 119.3877
1058.10 120.0672
1058.20 120.7446
1058.30 120.8364
1058.40 119.9097
1058.50 119.0859
1058.60 117.3917
1058.70 115.5977
1058.80 113.8732
1058.90 112.8712
1059.00 111.8579
1059.10 111.1492
1059.20 111.1992
1059.30 111.2512
1059.40 112.2513
1059.50 113.6837
1059.60 115.0563
1059.70 116.5895
1059.80 118.1987
1059.90 119.1721
1060.00 118.1046
1060.10 117.0378
1060.20 116.2911
1060.30 115.5825
1060.40 114.871
1060.50 113.0967
1060.60 111.1215
1060.70 109.1579
1060.80 108.5761
1060.90 107.9727
1061.00 108.3555
1061.10 109.61
1061.20 110.7706
1061.30 113.3757
1061.40 116.3126
1061.50 119.0774
1061.60 119.5826
1061.70 120.1236
1061.80 119.7684
1061.90 118.5059
1062.00 117.2356
1062.10 115.9619
1062.20 114.9063
1062.30 114.1757
1062.40 115.5509
1062.50 116.9787
1062.60 118.9355
1062.70 122.0292
1062.80 125.1148
1062.90 127.3014
1063.00 128.8254
1063.10 130.2606
1063.20 128.9742
1063.30 127.5118
1063.40 126.3283
1063.50 125.5492
1063.60 124.716
1063.70 125.1738
1063.80 126.9317
1063.90 128.6363
1064.00 130.1149
1064.10 131.3965
1064.20 132.3982
1064.30 132.3831
1064.40 132.3878
1064.50 131.9685
1064.60 130.9711
1064.70 129.9691
1064.80 130.2905
1064.90 130.9825
1065.00 131.6076
1065.10 131.0371
1065.20 130.4963
1065.30 128.8717
1065.40 126.3452
1065.50 123.851
1065.60 121.7651
1065.70 119.6635
1065.80 117.6817
1065.90 117.8511
1066.00 118.1579
1066.10 117.9368
1066.20 116.5805
1066.30 115.3032
1066.40 113.7111
1066.50 112.1189
1066.60 110.552
1066.70 111.3738
1066.80 112.3574
1066.90 112.9713
1067.00 112.9716
1067.10 112.9812
1067.20 113.969
1067.30 115.5633
1067.40 117.1856
1067.50 120.2814
1067.60 123.4066
1067.70 126.0132
1067.80 127.5844
1067.90 129.1728
1068.00 130.0655
1068.10 130.2063
1068.20 130.3541
1068.30 133.0402
1068.40 136.0138
1068.50 138.5809
1068.60 139.7525
1068.70 140.9409
1068.80 140.7756
1068.90 139.1341
1069.00 137.5139
1069.10 137.021
1069.20 137.0615
1069.30 136.9726
1069.40 135.1258
1069.50 133.1596
1069.60 130.5206
1069.70 127.0723
1069.80 123.5714
1069.90 123.4298
1070.00 124.9869
1070.10 126.3339
1070.20 125.7037
1070.30 124.9471
1070.40 124.8234
1070.50 125.7439
1070.60 126.5978
1070.70 128.2831
1070.80 130.0573
1070.90 131.6259
1071.00 130.5718
1071.10 129.4461
1071.20 128.8094
1071.30 129.6941
1071.40 130.5166
1071.50 132.1915
1071.60 134.2723
1071.70 136.4748
1071.80 136.2854
1071.90 135.8091
1072.00 135.4795
1072.10 135.4614
1072.20 135.4505
1072.30 134.2166
1072.40 131.4713
1072.50 128.8056
1072.60 128.0438
1072.70 128.208
1072.80 128.8696
1072.90 131.4927
1073.00 134.1477
1073.10 135.459
1073.20 134.9055
1073.30 134.4382
1073.40 132.2546
1073.50 129.9927
1073.60 128.0936
1073.70 128.4577
1073.80 128.8691
1073.90 129.996
1074.00 132.9786
1074.10 135.9649
1074.20 137.8645
1074.30 138.7992
1074.40 139.7094
1074.50 139.8793
1074.60 140.1344
1074.70 140.55
1074.80 140.554
1074.90 140.5542
1075.00 139.3621
1075.10 137.3772
1075.20 135.4717
1075.30 132.9418
1075.40 130.3445
1075.50 128.3646
1075.60 130.1899
1075.70 131.9406
1075.80 134.5315
1075.90 137.27
1076.00 140.065
1076.10 140.0691
1076.20 139.7251
1076.30 139.35
1076.40 139.0646
1076.50 138.7687
1076.60 138.6519
1076.70 138.8125
1076.80 138.9766
1076.90 139.8118
1077.00 140.685
1077.10 141.369
1077.20 140.5615
1077.30 139.6885
1077.40 138.5893
1077.50 137.1531
1077.60 135.7635
1077.70 135.0935
1077.80 134.9201
1077.90 134.7201
1078.00 136.1779
1078.10 137.7433
1078.20 138.7903
1078.30 138.8519
1078.40 138.9407
1078.50 138.8456
1078.60 138.3347
1078.70 137.6819
1078.80 135.3335
1078.90 132.9599
1079.00 130.9655
1079.10 129.8764
1079.20 128.767
1079.30 127.4734
1079.40 125.9445
1079.50 124.3484
1079.60 125.3867
1079.70 126.9402
1079.80 128.5469
1079.90 130.4388
1080.00 132.3348
1080.10 133.9103
1080.20 135.1663
1080.30 136.445
1080.40 137.2873
1080.50 137.9105
1080.60 138.5655
1080.70 139.126
1080.80 139.6702
1080.90 140.2246
1081.00 141.0975
1081.10 141.9828
1081.20 141.9762
1081.30 141.5071
1081.40 141.072
1081.50 141.4995
1081.60 141.9969
1081.70 143.0993
1081.80 145.2295
1081.90 147.3949
1082.00 147.1439
1082.10 145.5164
1082.20 143.9181
1082.30 142.1832
1082.40 140.5123
1082.50 138.9504
1082.60 137.8242
1082.70 136.6722
1082.80 136.3799
1082.90 136.674
1083.00 136.9995
1083.10 139.2825
1083.20 142.1571
1083.30 145.1174
1083.40 146.8188
1083.50 148.5473
1083.60 148.76
1083.70 147.8038
1083.80 146.8528
1083.90 146.4569
1084.00 146.1859
1084.10 145.8931
1084.20 145.2619
1084.30 144.6376
1084.40 143.7154
1084.50 142.1822
1084.60 140.708
1084.70 138.8899
1084.80 137.3515
1084.90 136.1467
1085.00 138.5281
1085.10 141.0829
1085.20 142.3961
1085.30 140.1377
1085.40 137.9831
1085.50 137.1191
1085.60 138.0822
1085.70 139.273
1085.80 142.0316
1085.90 144.8188
1086.00 147.5678
1086.10 149.8971
1086.20 152.2377
1086.30 153.1916
1086.40 153.4086
1086.50 153.5824
1086.60 152.3634
1086.70 151.1055
1086.80 150.3219
1086.90 150.4852
1087.00 150.5781
1087.10 151.2928
1087.20 152.4269
1087.30 153.6474
1087.40 151.6669
1087.50 149.155
1087.60 146.8741
1087.70 146.4909
1087.80 146.0236
1087.90 146.4573
1088.00 147.1979
1088.10 148.0141
1088.20 146.7665
1088.30 145.2898
1088.40 144.1354
1088.50 145.0542
1088.60 145.9393
1088.70 146.5624
1088.80 146.7489
1088.90 147.0303
1089.00 146.7051
1089.10 146.2377
1089.20 145.8117
1089.30 145.0391
1089.40 144.1918
1089.50 143.5948
1089.60 144.3029
1089.70 144.9553
1089.80 147.2756
1089.90 150.2277
1090.00 152.972
1090.10 154.1776
1090.20 155.1995
1090.30 155.9107
1090.40 156.2587
1090.50 156.6294
1090.60 155.5333
1090.70 153.3821
1090.80 151.1593
1090.90 148.0891
1091.00 145.0391
1091.10 142.6236
1091.20 142.213
1091.30 141.7223
1091.40 142.8362
1091.50 145.2928
1091.60 147.6863
1091.70 150.5148
1091.80 153.2956
1091.90 155.7702
1092.00 155.3487
1092.10 154.9585
1092.20 154.2656
1092.30 153.3243
1092.40 152.3248
1092.50 151.7823
1092.60 151.3531
1092.70 151.0576
1092.80 151.092
1092.90 151.1381
1093.00 151.0364
1093.10 151.0815
1093.20 151.1315
1093.30 150.584
1093.40 149.6705
1093.50 148.783
1093.60 147.1341
1093.70 145.3928
1093.80 144.4895
1093.90 146.6538
1094.00 148.7265
1094.10 150.9774
1094.20 152.8231
1094.30 154.5484
1094.40 151.8901
1094.50 148.7069
1094.60 145.7571
1094.70 143.4872
1094.80 141.1423
1094.90 142.3061
1095.00 145.8603
1095.10 149.3349
1095.20 152.9203
1095.30 156.5415
1095.40 159.5047
1095.50 159.7866
1095.60 160.1291
1095.70 159.3834
1095.80 157.9786
1095.90 156.5721
1096.00 157.2435
1096.10 158.2202
1096.20 159.0714
1096.30 159.3922
1096.40 159.715
1096.50 159.5579
1096.60 158.8366
1096.70 158.1765
1096.80 155.606
1096.90 152.3296
1097.00 148.9596
1097.10 145.5031
1097.20 142.0443
1097.30 140.63
1097.40 142.16
1097.50 143.6126
1097.60 145.5383
1097.70 147.7062
1097.80 149.9466
1097.90 151.6008
1098.00 153.1697
1098.10 154.0336
1098.20 154.1334
1098.30 154.3297
1098.40 153.0836
1098.50 150.6616
1098.60 148.225
1098.70 147.7913
1098.80 147.7758
1098.90 147.9879
1099.00 148.6272
1099.10 149.2538
1099.20 150.4183
1099.30 151.9835
1099.40 153.5079
1099.50 154.3685
1099.60 154.9136
1099.70 155.1789
1099.80 154.6078
1099.90 154.029
1100.00 153.4968
1100.10 153.2544
1100.20 153.0324
1100.30 151.8053
1100.40 150.3288
1100.50 149.0249
1100.60 148.8079
1100.70 148.5422
1100.80 148.8992
1100.90 149.7521
1101.00 150.626
1101.10 151.3784
1101.20 152.3536
1101.30 153.611
1101.40 155.3085
1101.50 156.9847
1101.60 157.3432
1101.70 155.9134
1101.80 154.5723
1101.90 151.9736
1102.00 149.0209
1102.10 146.1215
1102.20 143.7171
1102.30 141.329
1102.40 140.0813
1102.50 141.7254
1102.60 143.2239
1102.70 146.3229
1102.80 149.6971
1102.90 152.9923
1103.00 153.006
1103.10 152.5637
1103.20 151.0178
1103.30 147.0121
1103.40 143.0747
1103.50 139.362
1103.60 136.3183
1103.70 133.4307
1103.80 134.7938
1103.90 136.7695
1104.00 138.8402
1104.10 140.1834
1104.20 141.5277
1104.30 142.0249
1104.40 142.4332
1104.50 142.8863
1104.60 143.9414
1104.70 144.9158
1104.80 145.9155
1104.90 145.8958
1105.00 145.8628
1105.10 144.1286
1105.20 140.7687
1105.30 137.5335
1105.40 134.0318
1105.50 130.4351
1105.60 127.3789
1105.70 129.2791
1105.80 131.5154
1105.90 133.6098
1106.00 134.2307
1106.10 134.9134
1106.20 134.7404
1106.30 134.4656
1106.40 134.3328
1106.50 135.7738
1106.60 137.3363
1106.70 137.9433
1106.80 136.3566
1106.90 134.8156
1107.00 133.2213
1107.10 131.9515
1107.20 130.7907
1107.30 132.5705
1107.40 134.6174
1107.50 136.2744
1107.60 136.0059
1107.70 135.812
1107.80 135.7417
1107.90 136.1934
1108.00 136.6384
1108.10 138.4507
1108.20 140.4939
1108.30 142.7287
1108.40 144.9508
1108.50 147.1871
1108.60 148.1019
1108.70 147.7274
1108.80 147.4367
1108.90 146.5278
1109.00 145.7163
1109.10 145.0207
1109.20 145.2569
1109.30 145.4345
1109.40 146.3079
1109.50 148.0718
1109.60 149.8529
1109.70 151.109
1109.80 152.0327
1109.90 152.6223
1110.00 151.3476
1110.10 150.0085
1110.20 147.5583
1110.30 143.468
1110.40 139.3739
1110.50 136.8554
1110.60 135.1645
1110.70 133.7099
1110.80 134.7144
1110.90 135.8187
1111.00 136.0807
1111.10 134.824
1111.20 133.593
1111.30 132.7001
1111.40 132.0188
1111.50 131.33
1111.60 132.1678
1111.70 133.2375
1111.80 134.4415
1111.90 135.2256
1112.00 136.0559
1112.10 136.0059
1112.20 135.6148
1112.30 135.2609
1112.40 136.3703
1112.50 137.6958
1112.60 139.3283
1112.70 141.4326
1112.80 143.5212
1112.90 145.1369
1113.00 146.3354
1113.10 147.6121
1113.20 147.8405
1113.30 148.0639
1113.40 148.2173
1113.50 147.6917
1113.60 147.2319
1113.70 145.8588
1113.80 143.2361
1113.90 140.4869
1114.00 140.9275
1114.10 142.0772
1114.20 143.2867
1114.30 145.8535
1114.40 148.3995
1114.50 150.6467
1114.60 152.4874
1114.70 154.4751
1114.80 153.3348
1114.90 151.1928
1115.00 149.3396
1115.10 148.8811
1115.20 148.4161
1115.30 148.1369
1115.40 147.7886
1115.50 147.4974
1115.60 147.3465
1115.70 147.7798
1115.80 148.1278
1115.90 147.4075
1116.00 146.6025
1116.10 145.7995
1116.20 144.3261
1116.30 142.8363
1116.40 141.9254
1116.50 141.3788
1116.60 140.9135
1116.70 141.0162
1116.80 141.126
1116.90 140.463
1117.00 138.1313
1117.10 135.8103
1117.20 133.844
1117.30 132.2564
1117.40 130.6343
1117.50 130.6979
1117.60 130.8706
1117.70 130.9644
1117.80 132.6686
1117.90 134.3404
1118.00 136.1612
1118.10 137.7056
1118.20 139.2901
1118.30 141.5485
1118.40 143.7946
1118.50 145.679
1118.60 147.3452
1118.70 149.0768
1118.80 148.9809
1118.90 146.2686
1119.00 144.2979
1119.10 142.9366
1119.20 141.8603
1119.30 140.7568
1119.40 140.3147
1119.50 139.9522
1119.60 139.6601
1119.70 139.9317
1119.80 140.2059
1119.90 140.209
1120.00 140.1457
1120.10 140.0805
1120.20 138.6898
1120.30 138.1239
1120.40 138.4588
1120.50 141.3953
1120.60 144.1724
1120.70 146.4018
1120.80 148.1346
1120.90 149.4361
1121.00 147.773
1121.10 145.6972
1121.20 143.6608
1121.30 143.1591
1121.40 142.6597
1121.50 142.3024
1121.60 141.0987
1121.70 139.6275
1121.80 137.9003
1121.90 136.3812
1122.00 135.277
1122.10 135.1973
1122.20 135.5114
1122.30 137.2293
1122.40 139.6236
1122.50 141.9312
1122.60 144.0362
1122.70 145.4406
1122.80 147.0767
1122.90 148.0723
1123.00 148.4013
1123.10 148.7552
1123.20 147.2385
1123.30 144.3031
1123.40 141.361
1123.50 138.2856
1123.60 137.4859
1123.70 136.7091
1123.80 137.1426
1123.90 139.9344
1124.00 142.7222
1124.10 145.4643
1124.20 147.2756
1124.30 148.8818
1124.40 150.4892
1124.50 151.0173
1124.60 151.4348
1124.70 151.848
1124.80 151.2064
1124.90 147.8856
1125.00 144.5578
1125.10 141.2671
1125.20 141.2393
1125.30 141.5816
1125.40 141.9939
1125.50 143.8899
1125.60 145.7795
1125.70 147.6834
1125.80 148.5682
1125.90 148.1862
1126.00 147.7988
1126.10 147.1215
1126.20 146.81
1126.30 146.5
1126.40 146.5586
1126.50 147.5261
1126.60 148.5333
1126.70 149.5333
1126.80 150.0026
1126.90 150.2439
1127.00 150.4857
1127.10 149.895
1127.20 149.2053
1127.30 148.5114
1127.40 147.6362
1127.50 146.3646
1127.60 145.0934
1127.70 143.9597
1127.80 143.7642
1127.90 143.6499
1128.00 143.6403
1128.10 144.523
1128.20 145.3318
1128.30 146.1344
1128.40 146.7249
1128.50 147.388
1128.60 148.052
1128.70 148.0285
1128.80 146.8159
1128.90 145.5991
1129.00 144.7092
1129.10 144.667
1129.20 144.6347
1129.30 144.5216
1129.40 144.3885
1129.50 144.6143
1129.60 144.846
1129.70 145.8988
1129.80 147.533
1129.90 149.1666
1130.00 150.4674
1130.10 149.7664
1130.20 149.0478
1130.30 148.0923
1130.40 146.2095
1130.50 144.2938
1130.60 142.3684
1130.70 141.5477
1130.80 141.0199
1130.90 140.4921
1131.00 140.9383
1131.10 142.3348
1131.20 143.7327
1131.30 144.9354
1131.40 145.8359
1131.50 146.7335
1131.60 147.756
1131.70 148.9777
1131.80 150.1766
1131.90 151.3817
1132.00 150.9887
1132.10 150.3385
1132.20 149.687
1132.30 149.1228
1132.40 148.7525
1132.50 148.3839
1132.60 148.3712
1132.70 148.5375
1132.80 148.7041
1132.90 148.7566
1133.00 148.3813
1133.10 147.9581
1133.20 147.5408
1133.30 146.5352
1133.40 145.4368
1133.50 144.3393
1133.60 142.6685
1133.70 140.3872
1133.80 138.1056
1133.90 136.1902
1134.00 134.7926
1134.10 133.3944
1134.20 131.9713
1134.30 132.0795
1134.40 132.5724
1134.50 133.0321
1134.60 132.7905
1134.70 132.5701
1134.80 132.3575
1134.90 134.6879
1135.00 138.1884
1135.10 141.6762
1135.20 143.7998
1135.30 142.7108
1135.40 141.6169
1135.50 140.6119
1135.60 138.9049
1135.70 136.9556
1135.80 134.9849
1135.90 133.6586
1136.00 134.0723
1136.10 134.4917
1136.20 136.2692
1136.30 137.9796
1136.40 139.6797
1136.50 140.4453
1136.60 138.9119
1136.70 137.3767
1136.80 135.8384
1136.90 134.3455
1137.00 132.8863
1137.10 131.4137
1137.20 130.4675
1137.30 129.4127
1137.40 128.3543
1137.50 126.2917
1137.60 123.9058
1137.70 121.5059
1137.80 118.6409
1137.90 112.524
1138.00 106.3858
1138.10 100.3911
1138.20 95.26472
1138.30 90.27928
1138.40 85.21528
1138.50 87.97903
1138.60 93.78281
1138.70 99.62469
1138.80 105.6665
1138.90 112.022
1139.00 118.3514
1139.10 123.489
1139.20 124.3302
1139.30 125.1478
1139.40 125.8736
1139.50 124.4914
1139.60 122.7271
1139.70 120.9806
1139.80 118.254
1139.90 115.3176
1140.00 112.3679
1140.10 108.2069
1140.20 101.5665
1140.30 94.90647
1140.40 88.87283
1140.50 84.2667
1140.60 79.71131
1140.70 75.72196
1140.80 79.15131
1140.90 84.57395
1141.00 89.96962
1141.10 97.08977
1141.20 104.6736
1141.30 112.241
1141.40 117.9489
1141.50 122.5287
1141.60 127.0936
1141.70 131.634
1141.80 133.6345
1141.90 135.6232
1142.00 137.4785
1142.10 138.5158
1142.20 139.4532
1142.30 140.409
1142.40 141.1405
1142.50 141.6054
1142.60 142.0732
1142.70 142.2629
1142.80 142.6108
1142.90 142.9573
1143.00 143.3487
1143.10 142.9152
1143.20 142.4782
1143.30 142.0171
1143.40 141.7563
1143.50 141.6269
1143.60 141.497
1143.70 141.5584
1143.80 141.4687
1143.90 141.3725
1144.00 140.8628
1144.10 140.8627
1144.20 140.872
1144.30 140.957
1144.40 140.7278
1144.50 140.4989
1144.60 140.5103
1144.70 141.2248
1144.80 141.8622
1144.90 142.4866
1145.00 142.4484
1145.10 142.5085
1145.20 142.5675
1145.30 142.6923
1145.40 142.3922
1145.50 142.0912
1145.60 141.6987
1145.70 141.2006
1145.80 140.7032
1145.90 140.5052
1146.00 142.1777
1146.10 144.1035
1146.20 146.0358
1146.30 146.6567
1146.40 146.9644
1146.50 147.2725
1146.60 147.5925
1146.70 148.2539
1146.80 148.9083
1146.90 149.6934
1147.00 149.1461
1147.10 148.5949
1147.20 147.914
1147.30 147.5305
1147.40 147.5226
1147.50 147.5149
1147.60 148.4063
1147.70 149.536
1147.80 150.6659
1147.90 151.9104
1148.00 152.7614
1148.10 153.6101
1148.20 153.8107
1148.30 152.2343
1148.40 150.6492
1148.50 149.1668
1148.60 148.9471
1148.70 149.1089
1148.80 149.263
1148.90 151.0701
1149.00 153.3216
1149.10 155.5713
1149.20 156.7034
1149.30 155.7645
1149.40 154.82
1149.50 153.5306
1149.60 153.0445
1149.70 152.5651
1149.80 152.1008
1149.90 151.9061
1150.00 151.7846
1150.10 151.6751
1150.20 152.1041
1150.30 152.1428
1150.40 152.1822
1150.50 151.9921
1150.60 152.3522
1150.70 152.7156
1150.80 153.1303
1150.90 153.8672
1151.00 154.6011
1151.10 155.2784
1151.20 155.2599
1151.30 155.0778
1151.40 154.9017
1151.50 154.5196
1151.60 153.8052
1151.70 153.0915
1151.80 152.203
1151.90 151.8773
1152.00 151.5524
1152.10 151.0235
1152.20 149.05
1152.30 147.0679
1152.40 145.0743
1152.50 143.3535
1152.60 141.8401
1152.70 140.3047
1152.80 141.6851
1152.90 143.8977
1153.00 146.1103
1153.10 147.3494
1153.20 147.4029
1153.30 147.4559
1153.40 147.3084
1153.50 147.0823
1153.60 146.8609
1153.70 146.7745
1153.80 147.9663
1153.90 149.4439
1154.00 150.9238
1154.10 152.2004
1154.20 153.3616
1154.30 154.519
1154.40 154.3104
1154.50 152.5339
1154.60 150.7519
1154.70 149.2907
1154.80 148.1324
1154.90 146.9831
1155.00 146.0239
1155.10 146.8629
1155.20 147.9357
1155.30 149.0175
1155.40 149.7415
1155.50 150.3975
1155.60 151.049
1155.70 151.6805
1155.80 152.5932
1155.90 153.5026
1156.00 154.2762
1156.10 153.5676
1156.20 152.8595
1156.30 152.2678
1156.40 152.8746
1156.50 153.674
1156.60 154.4674
1156.70 154.3311
1156.80 153.7313
1156.90 153.1351
1157.00 152.4556
1157.10 151.5104
1157.20 150.5699
1157.30 149.6538
1157.40 149.5408
1157.50 149.4282
1157.60 149.3416
1157.70 149.4618
1157.80 149.6223
1157.90 149.7774
1158.00 150.3547
1158.10 151.0714
1158.20 151.7874
1158.30 151.9344
1158.40 151.4475
1158.50 150.9591
1158.60 150.4581
1158.70 149.7193
1158.80 148.9775
1158.90 148.1386
1159.00 146.7681
1159.10 145.3601
1159.20 143.9598
1159.30 142.1735
1159.40 139.9553
1159.50 137.7348
1159.60 136.5557
1159.70 136.6322
1159.80 136.7214
1159.90 136.9906
1160.00 138.498
1160.10 140.0066
1160.20 141.5614
1160.30 143.3718
1160.40 145.1983
1160.50 147.0509
1160.60 146.7029
1160.70 145.5731
1160.80 144.4442
1160.90 143.6982
1161.00 142.7691
1161.10 141.858
1161.20 141.7605
1161.30 144.8472
1161.40 147.9496
1161.50 150.7716
1161.60 152.1507
1161.70 153.3866
1161.80 154.7023
1161.90 153.6103
1162.00 151.7325
1162.10 149.8482
1162.20 148.7467
1162.30 148.3685
1162.40 147.9948
1162.50 148.0591
1162.60 149.343
1162.70 150.6295
1162.80 151.9545
1162.90 153.5772
1163.00 155.238
1163.10 156.9008
1163.20 157.1566
1163.30 157.042
1163.40 156.9416
1163.50 155.3459
1163.60 152.219
1163.70 149.0825
1163.80 146.5619
1163.90 144.7026
1164.00 142.8536
1164.10 141.1558
1164.20 142.1595
1164.30 143.6074
1164.40 145.0111
1164.50 146.9422
1164.60 149.0869
1164.70 151.2472
1164.80 151.6863
1164.90 151.0756
1165.00 150.4603
1165.10 149.9221
1165.20 148.7889
1165.30 147.6535
1165.40 146.5501
1165.50 145.4984
1165.60 144.4516
1165.70 143.3733
1165.80 144.2192
1165.90 145.7148
1166.00 147.2018
1166.10 148.7125
1166.20 150.229
1166.30 151.7444
1166.40 152.8536
1166.50 152.6342
1166.60 152.4122
1166.70 152.1033
1166.80 151.2796
1166.90 150.4226
1167.00 149.5801
1167.10 148.7842
1167.20 148.0176
1167.30 147.2431
1167.40 146.0091
1167.50 144.5994
1167.60 143.1903
1167.70 142.3257
1167.80 142.1675
1167.90 142.0115
1168.00 141.6454
1168.10 140.4935
1168.20 139.3041
1168.30 138.0138
1168.40 134.8078
1168.50 131.2768
1168.60 127.7663
1168.70 122.2719
1168.80 115.1945
1168.90 108.0933
1169.00 101.319
1169.10 93.72884
1169.20 86.16857
1169.30 79.76566
1169.40 83.12148
1169.50 87.25512
1169.60 91.33277
1169.70 98.97728
1169.80 107.5362
1169.90 116.1334
1170.00 122.5553
1170.10 127.2905
1170.20 132.0139
1170.30 136.1333
1170.40 138.7351
1170.50 141.3295
1170.60 143.6873
1170.70 144.4698
1170.80 145.1551
1170.90 145.8638
1171.00 146.1263
1171.10 146.1913
1171.20 146.2522
1171.30 146.3846
1171.40 146.7425
1171.50 147.0991
1171.60 147.1438
1171.70 146.4582
1171.80 145.7691
1171.90 145.0428
1172.00 144.4496
1172.10 143.8595
1172.20 143.2911
1172.30 143.4818
1172.40 143.7972
1172.50 144.1069
1172.60 144.7281
1172.70 145.4398
1172.80 146.1545
1172.90 146.8601
1173.00 147.6746
1173.10 148.487
1173.20 149.0633
1173.30 148.2876
1173.40 147.5053
1173.50 146.747
1173.60 146.0027
1173.70 145.2574
1173.80 144.4857
1173.90 144.1578
1174.00 144.2777
1174.10 144.3967
1174.20 145.0146
1174.30 145.9669
1174.40 146.9204
1174.50 147.7377
1174.60 148.0329
1174.70 148.3223
1174.80 148.5075
1174.90 147.6828
1175.00 146.7195
1175.10 145.7748
1175.20 144.4904
1175.30 143.1336
1175.40 141.773
1175.50 141.5266
1175.60 142.1592
1175.70 142.7958
1175.80 142.8663
1175.90 141.2602
1176.00 139.648
1176.10 138.0099
1176.20 135.7316
1176.30 133.36
1176.40 130.9981
1176.50 128.0732
1176.60 125.0266
1176.70 122.0048
1176.80 116.3987
1176.90 107.7725
1177.00 99.12223
1177.10 91.08516
1177.20 82.71389
1177.30 74.36712
1177.40 66.61449
1177.50 66.50699
1177.60 67.62004
1177.70 68.49518
1177.80 75.13621
1177.90 83.90553
1178.00 92.67926
1178.10 100.1711
1178.20 106.4122
1178.30 112.6305
1178.40 118.3098
1178.50 121.9195
1178.60 125.523
1178.70 129.045
1178.80 131.1899
1178.90 133.2368
1179.00 135.3156
1179.10 136.2407
1179.20 136.9114
1179.30 137.5898
1179.40 137.9349
1179.50 137.9312
1179.60 137.926
1179.70 138.1312
1179.80 138.6791
1179.90 139.2296
1180.00 139.7683
1180.10 140.7061
1180.20 141.6978
1180.30 142.6608
1180.40 143.3013
1180.50 143.8648
1180.60 144.4468
1180.70 144.3679
1180.80 143.646
1180.90 142.9231
1181.00 142.1591
1181.10 141.4128
1181.20 140.6668
1181.30 139.8882
1181.40 139.0989
1181.50 138.3166
1181.60 137.5503
1181.70 137.4428
1181.80 137.512
1181.90 137.574
1182.00 138.5349
1182.10 139.8384
1182.20 141.1463
1182.30 141.8314
1182.40 141.567
1182.50 141.2944
1182.60 140.9926
1182.70 139.7958
1182.80 138.5947
1182.90 137.4407
1183.00 137.4397
1183.10 137.714
1183.20 137.9588
1183.30 137.9358
1183.40 138.0067
1183.50 138.0809
1183.60 137.6629
1183.70 136.2098
1183.80 134.753
1183.90 133.8049
1184.00 134.8538
1184.10 135.914
1184.20 136.9574
1184.30 139.0894
1184.40 141.3727
1184.50 143.7076
1184.60 143.2279
1184.70 141.5616
1184.80 139.897
1184.90 138.3533
1185.00 136.773
1185.10 135.198
1185.20 134.2617
1185.30 135.2596
1185.40 136.2648
1185.50 137.215
1185.60 138.4807
1185.70 139.8335
1185.80 141.1938
1185.90 141.6298
1186.00 141.7919
1186.10 141.959
1186.20 142.0802
1186.30 142.37
1186.40 142.6581
1186.50 142.8491
1186.60 142.3398
1186.70 141.8268
1186.80 141.2861
1186.90 140.1347
1187.00 138.9025
1187.10 137.6443
1187.20 137.8815
1187.30 138.6072
1187.40 139.32
1187.50 139.76
1187.60 140.2177
1187.70 140.6718
1187.80 140.8325
1187.90 139.7894
1188.00 138.7343
1188.10 137.5216
1188.20 133.7838
1188.30 129.8531
1188.40 125.9617
1188.50 124.0746
1188.60 122.5203
1188.70 120.8686
1188.80 122.2155
1188.90 126.7442
1189.00 131.284
1189.10 134.8035
1189.20 136.6874
1189.30 138.5492
1189.40 140.3668
1189.50 140.9606
1189.60 141.4647
1189.70 141.9491
1189.80 142.49
1189.90 142.8976
1190.00 143.3136
1190.10 143.055
1190.20 142.2715
1190.30 141.4912
1190.40 140.5672
1190.50 139.3769
1190.60 138.1854
1190.70 137.3209
1190.80 137.8736
1190.90 138.436
1191.00 138.9368
1191.10 139.7174
1191.20 140.714
1191.30 141.7139
1191.40 142.2154
1191.50 142.3437
1191.60 142.4725
1191.70 142.4674
1191.80 142.2325
1191.90 141.9984
1192.00 141.7681
1192.10 141.956
1192.20 142.1408
1192.30 142.3114
1192.40 141.6681
1192.50 140.8928
1192.60 140.1065
1192.70 139.9239
1192.80 140.0178
1192.90 140.1109
1193.00 140.584
1193.10 141.475
1193.20 142.3646
1193.30 142.7656
1193.40 141.9685
1193.50 141.1649
1193.60 140.3581
1193.70 138.1628
1193.80 135.7515
1193.90 133.3346
1194.00 132.2022
1194.10 131.4808
1194.20 130.7465
1194.30 130.3412
1194.40 130.5441
1194.50 130.7452
1194.60 130.5506
1194.70 128.795
1194.80 127.0316
1194.90 125.4817
1195.00 124.6795
1195.10 123.9046
1195.20 123.0515
1195.30 124.8632
1195.40 127.7402
1195.50 130.6041
1195.60 132.0808
1195.70 132.7045
1195.80 133.3183
1195.90 133.454
1196.00 131.5897
1196.10 129.7234
1196.20 127.994
1196.30 127.1922
1196.40 126.438
1196.50 125.6566
1196.60 125.5369
1196.70 125.558
1196.80 125.5829
1196.90 125.2756
1197.00 124.6457
1197.10 124.0197
1197.20 122.3813
1197.30 118.3874
1197.40 114.3908
1197.50 110.754
1197.60 109.5039
1197.70 108.293
1197.80 106.9166
1197.90 108.8568
1198.00 111.5164
1198.10 114.1817
1198.20 116.1857
1198.30 117.7491
1198.40 119.3091
1198.50 121.0072
1198.60 123.2654
1198.70 125.5179
1198.80 127.2504
1198.90 125.2677
1199.00 123.2699
1199.10 121.3825
1199.20 119.6127
1199.30 117.761
1199.40 115.8714
1199.50 115.4473
1199.60 115.9499
1199.70 116.4446
1199.80 117.1728
1199.90 118.2908
1200.00 119.406
