# Version 2.1 - nm, norm@500 to 1, cut digits, bergeron_3750_75.dat_3750
# Wavelength(nm)  Flambda(ergs/cm^s/s/nm)
300.00 0.1413
300.10 0.1416
300.20 0.1419
300.30 0.1422
300.40 0.1425
300.50 0.1428
300.60 0.1431
300.70 0.1434
300.80 0.1437
300.90 0.144
301.00 0.1443
301.10 0.1446
301.20 0.1449
301.30 0.1452
301.40 0.1455
301.50 0.1458
301.60 0.1461
301.70 0.1464
301.80 0.1467
301.90 0.1469
302.00 0.1472
302.10 0.1475
302.20 0.1479
302.30 0.1482
302.40 0.1485
302.50 0.1488
302.60 0.1491
302.70 0.1494
302.80 0.1497
302.90 0.15
303.00 0.1503
303.10 0.1506
303.20 0.1509
303.30 0.1512
303.40 0.1515
303.50 0.1518
303.60 0.1521
303.70 0.1524
303.80 0.1527
303.90 0.153
304.00 0.1533
304.10 0.1536
304.20 0.1539
304.30 0.1542
304.40 0.1545
304.50 0.1549
304.60 0.1552
304.70 0.1555
304.80 0.1558
304.90 0.1561
305.00 0.1564
305.10 0.1567
305.20 0.157
305.30 0.1573
305.40 0.1576
305.50 0.158
305.60 0.1583
305.70 0.1586
305.80 0.1589
305.90 0.1592
306.00 0.1595
306.10 0.1598
306.20 0.1601
306.30 0.1604
306.40 0.1608
306.50 0.1611
306.60 0.1614
306.70 0.1617
306.80 0.162
306.90 0.1624
307.00 0.1627
307.10 0.163
307.20 0.1633
307.30 0.1636
307.40 0.1639
307.50 0.1642
307.60 0.1646
307.70 0.1649
307.80 0.1652
307.90 0.1655
308.00 0.1658
308.10 0.1661
308.20 0.1665
308.30 0.1668
308.40 0.1671
308.50 0.1674
308.60 0.1678
308.70 0.1681
308.80 0.1684
308.90 0.1687
309.00 0.169
309.10 0.1694
309.20 0.1697
309.30 0.17
309.40 0.1703
309.50 0.1707
309.60 0.171
309.70 0.1713
309.80 0.1716
309.90 0.1719
310.00 0.1723
310.10 0.1726
310.20 0.1729
310.30 0.1732
310.40 0.1736
310.50 0.1739
310.60 0.1742
310.70 0.1746
310.80 0.1749
310.90 0.1752
311.00 0.1756
311.10 0.1759
311.20 0.1762
311.30 0.1765
311.40 0.1769
311.50 0.1772
311.60 0.1775
311.70 0.1779
311.80 0.1782
311.90 0.1785
312.00 0.1788
312.10 0.1792
312.20 0.1795
312.30 0.1798
312.40 0.1802
312.50 0.1805
312.60 0.1808
312.70 0.1812
312.80 0.1815
312.90 0.1818
313.00 0.1822
313.10 0.1825
313.20 0.1828
313.30 0.1832
313.40 0.1835
313.50 0.1838
313.60 0.1842
313.70 0.1845
313.80 0.1848
313.90 0.1852
314.00 0.1855
314.10 0.1859
314.20 0.1862
314.30 0.1865
314.40 0.1869
314.50 0.1872
314.60 0.1876
314.70 0.1879
314.80 0.1883
314.90 0.1886
315.00 0.1889
315.10 0.1893
315.20 0.1896
315.30 0.19
315.40 0.1903
315.50 0.1906
315.60 0.191
315.70 0.1913
315.80 0.1917
315.90 0.192
316.00 0.1923
316.10 0.1927
316.20 0.193
316.30 0.1934
316.40 0.1937
316.50 0.1941
316.60 0.1944
316.70 0.1948
316.80 0.1951
316.90 0.1955
317.00 0.1958
317.10 0.1962
317.20 0.1965
317.30 0.1969
317.40 0.1972
317.50 0.1975
317.60 0.1979
317.70 0.1982
317.80 0.1986
317.90 0.1989
318.00 0.1993
318.10 0.1996
318.20 0.2
318.30 0.2003
318.40 0.2007
318.50 0.201
318.60 0.2014
318.70 0.2017
318.80 0.2021
318.90 0.2025
319.00 0.2028
319.10 0.2032
319.20 0.2035
319.30 0.2039
319.40 0.2042
319.50 0.2046
319.60 0.2049
319.70 0.2053
319.80 0.2056
319.90 0.206
320.00 0.2063
320.10 0.2067
320.20 0.207
320.30 0.2074
320.40 0.2078
320.50 0.2081
320.60 0.2085
320.70 0.2088
320.80 0.2092
320.90 0.2096
321.00 0.2099
321.10 0.2103
321.20 0.2106
321.30 0.211
321.40 0.2113
321.50 0.2117
321.60 0.2121
321.70 0.2124
321.80 0.2128
321.90 0.2131
322.00 0.2135
322.10 0.2139
322.20 0.2142
322.30 0.2146
322.40 0.215
322.50 0.2153
322.60 0.2157
322.70 0.2161
322.80 0.2164
322.90 0.2168
323.00 0.2171
323.10 0.2175
323.20 0.2179
323.30 0.2182
323.40 0.2186
323.50 0.219
323.60 0.2193
323.70 0.2197
323.80 0.22
323.90 0.2204
324.00 0.2208
324.10 0.2211
324.20 0.2215
324.30 0.2219
324.40 0.2223
324.50 0.2226
324.60 0.223
324.70 0.2234
324.80 0.2237
324.90 0.2241
325.00 0.2245
325.10 0.2249
325.20 0.2252
325.30 0.2256
325.40 0.226
325.50 0.2263
325.60 0.2267
325.70 0.2271
325.80 0.2274
325.90 0.2278
326.00 0.2282
326.10 0.2285
326.20 0.2289
326.30 0.2293
326.40 0.2297
326.50 0.2301
326.60 0.2304
326.70 0.2308
326.80 0.2312
326.90 0.2316
327.00 0.2319
327.10 0.2323
327.20 0.2327
327.30 0.2331
327.40 0.2334
327.50 0.2338
327.60 0.2342
327.70 0.2345
327.80 0.2349
327.90 0.2353
328.00 0.2357
328.10 0.236
328.20 0.2364
328.30 0.2368
328.40 0.2372
328.50 0.2376
328.60 0.238
328.70 0.2383
328.80 0.2387
328.90 0.2391
329.00 0.2395
329.10 0.2399
329.20 0.2402
329.30 0.2406
329.40 0.241
329.50 0.2414
329.60 0.2418
329.70 0.2421
329.80 0.2425
329.90 0.2429
330.00 0.2433
330.10 0.2437
330.20 0.2441
330.30 0.2444
330.40 0.2448
330.50 0.2452
330.60 0.2456
330.70 0.246
330.80 0.2464
330.90 0.2468
331.00 0.2472
331.10 0.2475
331.20 0.2479
331.30 0.2483
331.40 0.2487
331.50 0.2491
331.60 0.2495
331.70 0.2498
331.80 0.2502
331.90 0.2506
332.00 0.251
332.10 0.2514
332.20 0.2518
332.30 0.2522
332.40 0.2526
332.50 0.253
332.60 0.2534
332.70 0.2537
332.80 0.2541
332.90 0.2545
333.00 0.2549
333.10 0.2553
333.20 0.2557
333.30 0.2561
333.40 0.2565
333.50 0.2569
333.60 0.2573
333.70 0.2576
333.80 0.258
333.90 0.2584
334.00 0.2588
334.10 0.2592
334.20 0.2596
334.30 0.26
334.40 0.2604
334.50 0.2608
334.60 0.2612
334.70 0.2616
334.80 0.262
334.90 0.2624
335.00 0.2628
335.10 0.2632
335.20 0.2636
335.30 0.264
335.40 0.2644
335.50 0.2648
335.60 0.2652
335.70 0.2655
335.80 0.2659
335.90 0.2663
336.00 0.2667
336.10 0.2671
336.20 0.2675
336.30 0.2679
336.40 0.2683
336.50 0.2687
336.60 0.2691
336.70 0.2695
336.80 0.2699
336.90 0.2703
337.00 0.2708
337.10 0.2712
337.20 0.2716
337.30 0.272
337.40 0.2723
337.50 0.2727
337.60 0.2731
337.70 0.2735
337.80 0.2739
337.90 0.2743
338.00 0.2747
338.10 0.2751
338.20 0.2756
338.30 0.276
338.40 0.2764
338.50 0.2768
338.60 0.2772
338.70 0.2776
338.80 0.278
338.90 0.2784
339.00 0.2788
339.10 0.2792
339.20 0.2796
339.30 0.28
339.40 0.2804
339.50 0.2808
339.60 0.2812
339.70 0.2816
339.80 0.282
339.90 0.2824
340.00 0.2828
340.10 0.2833
340.20 0.2837
340.30 0.2841
340.40 0.2845
340.50 0.2849
340.60 0.2853
340.70 0.2857
340.80 0.2861
340.90 0.2866
341.00 0.287
341.10 0.2874
341.20 0.2878
341.30 0.2882
341.40 0.2886
341.50 0.289
341.60 0.2894
341.70 0.2898
341.80 0.2902
341.90 0.2906
342.00 0.291
342.10 0.2915
342.20 0.2919
342.30 0.2923
342.40 0.2927
342.50 0.2931
342.60 0.2935
342.70 0.294
342.80 0.2944
342.90 0.2948
343.00 0.2952
343.10 0.2956
343.20 0.296
343.30 0.2965
343.40 0.2969
343.50 0.2973
343.60 0.2977
343.70 0.2981
343.80 0.2985
343.90 0.2989
344.00 0.2993
344.10 0.2998
344.20 0.3002
344.30 0.3006
344.40 0.301
344.50 0.3014
344.60 0.3019
344.70 0.3023
344.80 0.3027
344.90 0.3031
345.00 0.3035
345.10 0.304
345.20 0.3044
345.30 0.3048
345.40 0.3052
345.50 0.3056
345.60 0.306
345.70 0.3065
345.80 0.3069
345.90 0.3073
346.00 0.3077
346.10 0.3081
346.20 0.3086
346.30 0.309
346.40 0.3094
346.50 0.3098
346.60 0.3103
346.70 0.3107
346.80 0.3111
346.90 0.3115
347.00 0.312
347.10 0.3124
347.20 0.3128
347.30 0.3132
347.40 0.3136
347.50 0.3141
347.60 0.3145
347.70 0.3149
347.80 0.3153
347.90 0.3157
348.00 0.3162
348.10 0.3166
348.20 0.317
348.30 0.3175
348.40 0.3179
348.50 0.3183
348.60 0.3187
348.70 0.3192
348.80 0.3196
348.90 0.32
349.00 0.3205
349.10 0.3209
349.20 0.3213
349.30 0.3217
349.40 0.3222
349.50 0.3226
349.60 0.323
349.70 0.3234
349.80 0.3238
349.90 0.3243
350.00 0.3247
350.10 0.3251
350.20 0.3256
350.30 0.326
350.40 0.3264
350.50 0.3269
350.60 0.3273
350.70 0.3277
350.80 0.3282
350.90 0.3286
351.00 0.329
351.10 0.3295
351.20 0.3299
351.30 0.3303
351.40 0.3308
351.50 0.3312
351.60 0.3316
351.70 0.332
351.80 0.3325
351.90 0.3329
352.00 0.3333
352.10 0.3338
352.20 0.3342
352.30 0.3346
352.40 0.3351
352.50 0.3355
352.60 0.336
352.70 0.3364
352.80 0.3368
352.90 0.3373
353.00 0.3377
353.10 0.3381
353.20 0.3386
353.30 0.339
353.40 0.3394
353.50 0.3399
353.60 0.3403
353.70 0.3407
353.80 0.3412
353.90 0.3416
354.00 0.342
354.10 0.3425
354.20 0.3429
354.30 0.3433
354.40 0.3438
354.50 0.3442
354.60 0.3447
354.70 0.3451
354.80 0.3456
354.90 0.346
355.00 0.3464
355.10 0.3469
355.20 0.3473
355.30 0.3477
355.40 0.3482
355.50 0.3486
355.60 0.3491
355.70 0.3495
355.80 0.3499
355.90 0.3504
356.00 0.3508
356.10 0.3512
356.20 0.3517
356.30 0.3521
356.40 0.3526
356.50 0.353
356.60 0.3535
356.70 0.3539
356.80 0.3543
356.90 0.3548
357.00 0.3552
357.10 0.3557
357.20 0.3561
357.30 0.3566
357.40 0.357
357.50 0.3574
357.60 0.3579
357.70 0.3583
357.80 0.3588
357.90 0.3592
358.00 0.3596
358.10 0.3601
358.20 0.3605
358.30 0.361
358.40 0.3614
358.50 0.3619
358.60 0.3623
358.70 0.3628
358.80 0.3632
358.90 0.3637
359.00 0.3641
359.10 0.3645
359.20 0.365
359.30 0.3654
359.40 0.3659
359.50 0.3663
359.60 0.3668
359.70 0.3672
359.80 0.3676
359.90 0.3681
360.00 0.3685
360.10 0.369
360.20 0.3694
360.30 0.3699
360.40 0.3703
360.50 0.3708
360.60 0.3712
360.70 0.3717
360.80 0.3721
360.90 0.3726
361.00 0.373
361.10 0.3735
361.20 0.3739
361.30 0.3744
361.40 0.3748
361.50 0.3753
361.60 0.3757
361.70 0.3762
361.80 0.3766
361.90 0.377
362.00 0.3775
362.10 0.3779
362.20 0.3784
362.30 0.3788
362.40 0.3793
362.50 0.3797
362.60 0.3802
362.70 0.3806
362.80 0.3811
362.90 0.3815
363.00 0.382
363.10 0.3824
363.20 0.3829
363.30 0.3833
363.40 0.3838
363.50 0.3843
363.60 0.3847
363.70 0.3852
363.80 0.3856
363.90 0.3861
364.00 0.3865
364.10 0.387
364.20 0.3874
364.30 0.3879
364.40 0.3883
364.50 0.3888
364.60 0.3892
364.70 0.3897
364.80 0.3901
364.90 0.3906
365.00 0.3911
365.10 0.3915
365.20 0.392
365.30 0.3924
365.40 0.3929
365.50 0.3933
365.60 0.3938
365.70 0.3942
365.80 0.3947
365.90 0.3951
366.00 0.3956
366.10 0.396
366.20 0.3965
366.30 0.397
366.40 0.3974
366.50 0.3979
366.60 0.3984
366.70 0.3988
366.80 0.3993
366.90 0.3997
367.00 0.4002
367.10 0.4006
367.20 0.4011
367.30 0.4016
367.40 0.402
367.50 0.4025
367.60 0.4029
367.70 0.4034
367.80 0.4038
367.90 0.4043
368.00 0.4047
368.10 0.4052
368.20 0.4057
368.30 0.4061
368.40 0.4066
368.50 0.4071
368.60 0.4075
368.70 0.408
368.80 0.4084
368.90 0.4089
369.00 0.4094
369.10 0.4098
369.20 0.4103
369.30 0.4107
369.40 0.4112
369.50 0.4116
369.60 0.4121
369.70 0.4126
369.80 0.413
369.90 0.4135
370.00 0.4139
370.10 0.4144
370.20 0.4149
370.30 0.4153
370.40 0.4158
370.50 0.4163
370.60 0.4167
370.70 0.4172
370.80 0.4176
370.90 0.4181
371.00 0.4186
371.10 0.419
371.20 0.4195
371.30 0.42
371.40 0.4204
371.50 0.4209
371.60 0.4213
371.70 0.4218
371.80 0.4222
371.90 0.4227
372.00 0.4232
372.10 0.4236
372.20 0.4241
372.30 0.4246
372.40 0.425
372.50 0.4255
372.60 0.426
372.70 0.4264
372.80 0.4269
372.90 0.4274
373.00 0.4278
373.10 0.4283
373.20 0.4288
373.30 0.4292
373.40 0.4297
373.50 0.4302
373.60 0.4306
373.70 0.4311
373.80 0.4315
373.90 0.432
374.00 0.4325
374.10 0.4329
374.20 0.4334
374.30 0.4339
374.40 0.4343
374.50 0.4348
374.60 0.4353
374.70 0.4357
374.80 0.4362
374.90 0.4367
375.00 0.4371
375.10 0.4376
375.20 0.4381
375.30 0.4385
375.40 0.439
375.50 0.4395
375.60 0.4399
375.70 0.4404
375.80 0.4408
375.90 0.4413
376.00 0.4418
376.10 0.4422
376.20 0.4427
376.30 0.4432
376.40 0.4437
376.50 0.4441
376.60 0.4446
376.70 0.4451
376.80 0.4455
376.90 0.446
377.00 0.4465
377.10 0.4469
377.20 0.4474
377.30 0.4479
377.40 0.4483
377.50 0.4488
377.60 0.4493
377.70 0.4498
377.80 0.4502
377.90 0.4507
378.00 0.4512
378.10 0.4516
378.20 0.4521
378.30 0.4526
378.40 0.453
378.50 0.4535
378.60 0.454
378.70 0.4544
378.80 0.4549
378.90 0.4554
379.00 0.4558
379.10 0.4563
379.20 0.4568
379.30 0.4573
379.40 0.4577
379.50 0.4582
379.60 0.4587
379.70 0.4592
379.80 0.4596
379.90 0.4601
380.00 0.4606
380.10 0.461
380.20 0.4615
380.30 0.462
380.40 0.4625
380.50 0.4629
380.60 0.4634
380.70 0.4639
380.80 0.4643
380.90 0.4648
381.00 0.4653
381.10 0.4658
381.20 0.4662
381.30 0.4667
381.40 0.4672
381.50 0.4676
381.60 0.4681
381.70 0.4686
381.80 0.4691
381.90 0.4695
382.00 0.47
382.10 0.4705
382.20 0.471
382.30 0.4714
382.40 0.4719
382.50 0.4724
382.60 0.4729
382.70 0.4733
382.80 0.4738
382.90 0.4743
383.00 0.4747
383.10 0.4752
383.20 0.4757
383.30 0.4762
383.40 0.4766
383.50 0.4771
383.60 0.4776
383.70 0.4781
383.80 0.4785
383.90 0.479
384.00 0.4795
384.10 0.4799
384.20 0.4804
384.30 0.4809
384.40 0.4814
384.50 0.4818
384.60 0.4823
384.70 0.4828
384.80 0.4833
384.90 0.4837
385.00 0.4842
385.10 0.4847
385.20 0.4852
385.30 0.4857
385.40 0.4861
385.50 0.4866
385.60 0.4871
385.70 0.4875
385.80 0.488
385.90 0.4885
386.00 0.489
386.10 0.4895
386.20 0.4899
386.30 0.4904
386.40 0.4909
386.50 0.4914
386.60 0.4918
386.70 0.4923
386.80 0.4928
386.90 0.4933
387.00 0.4937
387.10 0.4942
387.20 0.4947
387.30 0.4952
387.40 0.4956
387.50 0.4961
387.60 0.4966
387.70 0.4971
387.80 0.4975
387.90 0.498
388.00 0.4985
388.10 0.499
388.20 0.4994
388.30 0.4999
388.40 0.5004
388.50 0.5009
388.60 0.5014
388.70 0.5018
388.80 0.5023
388.90 0.5028
389.00 0.5033
389.10 0.5038
389.20 0.5042
389.30 0.5047
389.40 0.5052
389.50 0.5057
389.60 0.5061
389.70 0.5066
389.80 0.5071
389.90 0.5076
390.00 0.5081
390.10 0.5085
390.20 0.509
390.30 0.5095
390.40 0.51
390.50 0.5104
390.60 0.5109
390.70 0.5114
390.80 0.5119
390.90 0.5124
391.00 0.5128
391.10 0.5133
391.20 0.5138
391.30 0.5143
391.40 0.5147
391.50 0.5152
391.60 0.5157
391.70 0.5162
391.80 0.5167
391.90 0.5171
392.00 0.5176
392.10 0.5181
392.20 0.5186
392.30 0.5191
392.40 0.5195
392.50 0.52
392.60 0.5205
392.70 0.521
392.80 0.5214
392.90 0.5219
393.00 0.5224
393.10 0.5229
393.20 0.5234
393.30 0.5238
393.40 0.5243
393.50 0.5248
393.60 0.5253
393.70 0.5258
393.80 0.5262
393.90 0.5267
394.00 0.5272
394.10 0.5277
394.20 0.5282
394.30 0.5286
394.40 0.5291
394.50 0.5296
394.60 0.5301
394.70 0.5306
394.80 0.531
394.90 0.5315
395.00 0.532
395.10 0.5325
395.20 0.533
395.30 0.5335
395.40 0.5339
395.50 0.5344
395.60 0.5349
395.70 0.5354
395.80 0.5358
395.90 0.5363
396.00 0.5368
396.10 0.5373
396.20 0.5378
396.30 0.5383
396.40 0.5387
396.50 0.5392
396.60 0.5397
396.70 0.5402
396.80 0.5406
396.90 0.5411
397.00 0.5416
397.10 0.5421
397.20 0.5426
397.30 0.5431
397.40 0.5435
397.50 0.544
397.60 0.5445
397.70 0.545
397.80 0.5455
397.90 0.5459
398.00 0.5464
398.10 0.5469
398.20 0.5474
398.30 0.5479
398.40 0.5483
398.50 0.5488
398.60 0.5493
398.70 0.5498
398.80 0.5503
398.90 0.5507
399.00 0.5512
399.10 0.5517
399.20 0.5522
399.30 0.5527
399.40 0.5531
399.50 0.5536
399.60 0.5541
399.70 0.5546
399.80 0.5551
399.90 0.5556
400.00 0.556
400.10 0.5565
400.20 0.557
400.30 0.5575
400.40 0.558
400.50 0.5584
400.60 0.5589
400.70 0.5594
400.80 0.5599
400.90 0.5604
401.00 0.5608
401.10 0.5613
401.20 0.5618
401.30 0.5623
401.40 0.5628
401.50 0.5632
401.60 0.5637
401.70 0.5642
401.80 0.5647
401.90 0.5652
402.00 0.5657
402.10 0.5661
402.20 0.5666
402.30 0.5671
402.40 0.5676
402.50 0.5681
402.60 0.5685
402.70 0.569
402.80 0.5695
402.90 0.57
403.00 0.5705
403.10 0.571
403.20 0.5715
403.30 0.5719
403.40 0.5724
403.50 0.5729
403.60 0.5734
403.70 0.5739
403.80 0.5743
403.90 0.5748
404.00 0.5753
404.10 0.5758
404.20 0.5763
404.30 0.5767
404.40 0.5772
404.50 0.5777
404.60 0.5782
404.70 0.5787
404.80 0.5792
404.90 0.5796
405.00 0.5801
405.10 0.5806
405.20 0.5811
405.30 0.5816
405.40 0.582
405.50 0.5825
405.60 0.583
405.70 0.5835
405.80 0.584
405.90 0.5844
406.00 0.5849
406.10 0.5854
406.20 0.5859
406.30 0.5864
406.40 0.5868
406.50 0.5873
406.60 0.5878
406.70 0.5883
406.80 0.5888
406.90 0.5893
407.00 0.5897
407.10 0.5902
407.20 0.5907
407.30 0.5912
407.40 0.5917
407.50 0.5921
407.60 0.5926
407.70 0.5931
407.80 0.5936
407.90 0.5941
408.00 0.5946
408.10 0.595
408.20 0.5955
408.30 0.596
408.40 0.5965
408.50 0.597
408.60 0.5975
408.70 0.5979
408.80 0.5984
408.90 0.5989
409.00 0.5994
409.10 0.5999
409.20 0.6003
409.30 0.6008
409.40 0.6013
409.50 0.6018
409.60 0.6023
409.70 0.6027
409.80 0.6032
409.90 0.6037
410.00 0.6042
410.10 0.6047
410.20 0.6051
410.30 0.6056
410.40 0.6061
410.50 0.6066
410.60 0.6071
410.70 0.6076
410.80 0.608
410.90 0.6085
411.00 0.609
411.10 0.6095
411.20 0.61
411.30 0.6104
411.40 0.6109
411.50 0.6114
411.60 0.6119
411.70 0.6124
411.80 0.6128
411.90 0.6133
412.00 0.6138
412.10 0.6143
412.20 0.6148
412.30 0.6152
412.40 0.6157
412.50 0.6162
412.60 0.6167
412.70 0.6172
412.80 0.6177
412.90 0.6181
413.00 0.6186
413.10 0.6191
413.20 0.6196
413.30 0.6201
413.40 0.6205
413.50 0.621
413.60 0.6215
413.70 0.622
413.80 0.6225
413.90 0.6229
414.00 0.6234
414.10 0.6239
414.20 0.6244
414.30 0.6249
414.40 0.6253
414.50 0.6258
414.60 0.6263
414.70 0.6268
414.80 0.6273
414.90 0.6277
415.00 0.6282
415.10 0.6287
415.20 0.6292
415.30 0.6297
415.40 0.6301
415.50 0.6306
415.60 0.6311
415.70 0.6316
415.80 0.6321
415.90 0.6325
416.00 0.633
416.10 0.6335
416.20 0.634
416.30 0.6345
416.40 0.6349
416.50 0.6354
416.60 0.6359
416.70 0.6364
416.80 0.6369
416.90 0.6373
417.00 0.6378
417.10 0.6383
417.20 0.6388
417.30 0.6392
417.40 0.6397
417.50 0.6402
417.60 0.6407
417.70 0.6412
417.80 0.6417
417.90 0.6421
418.00 0.6426
418.10 0.6431
418.20 0.6436
418.30 0.644
418.40 0.6445
418.50 0.645
418.60 0.6455
418.70 0.646
418.80 0.6464
418.90 0.6469
419.00 0.6474
419.10 0.6479
419.20 0.6484
419.30 0.6488
419.40 0.6493
419.50 0.6498
419.60 0.6503
419.70 0.6507
419.80 0.6512
419.90 0.6517
420.00 0.6522
420.10 0.6526
420.20 0.6531
420.30 0.6536
420.40 0.6541
420.50 0.6546
420.60 0.655
420.70 0.6555
420.80 0.656
420.90 0.6565
421.00 0.6569
421.10 0.6574
421.20 0.6579
421.30 0.6584
421.40 0.6589
421.50 0.6593
421.60 0.6598
421.70 0.6603
421.80 0.6608
421.90 0.6612
422.00 0.6617
422.10 0.6622
422.20 0.6627
422.30 0.6632
422.40 0.6636
422.50 0.6641
422.60 0.6646
422.70 0.6651
422.80 0.6655
422.90 0.666
423.00 0.6665
423.10 0.667
423.20 0.6674
423.30 0.6679
423.40 0.6684
423.50 0.6689
423.60 0.6693
423.70 0.6698
423.80 0.6703
423.90 0.6708
424.00 0.6713
424.10 0.6717
424.20 0.6722
424.30 0.6727
424.40 0.6732
424.50 0.6736
424.60 0.6741
424.70 0.6746
424.80 0.6751
424.90 0.6755
425.00 0.676
425.10 0.6765
425.20 0.677
425.30 0.6774
425.40 0.6779
425.50 0.6784
425.60 0.6789
425.70 0.6793
425.80 0.6798
425.90 0.6803
426.00 0.6808
426.10 0.6812
426.20 0.6817
426.30 0.6822
426.40 0.6827
426.50 0.6831
426.60 0.6836
426.70 0.6841
426.80 0.6846
426.90 0.685
427.00 0.6855
427.10 0.686
427.20 0.6865
427.30 0.6869
427.40 0.6874
427.50 0.6879
427.60 0.6884
427.70 0.6888
427.80 0.6893
427.90 0.6898
428.00 0.6903
428.10 0.6907
428.20 0.6912
428.30 0.6917
428.40 0.6921
428.50 0.6926
428.60 0.6931
428.70 0.6936
428.80 0.694
428.90 0.6945
429.00 0.695
429.10 0.6955
429.20 0.6959
429.30 0.6964
429.40 0.6969
429.50 0.6973
429.60 0.6978
429.70 0.6983
429.80 0.6988
429.90 0.6992
430.00 0.6997
430.10 0.7002
430.20 0.7006
430.30 0.7011
430.40 0.7016
430.50 0.7021
430.60 0.7025
430.70 0.703
430.80 0.7035
430.90 0.7039
431.00 0.7044
431.10 0.7049
431.20 0.7054
431.30 0.7058
431.40 0.7063
431.50 0.7068
431.60 0.7072
431.70 0.7077
431.80 0.7082
431.90 0.7087
432.00 0.7091
432.10 0.7096
432.20 0.7101
432.30 0.7105
432.40 0.711
432.50 0.7115
432.60 0.7119
432.70 0.7124
432.80 0.7129
432.90 0.7134
433.00 0.7138
433.10 0.7143
433.20 0.7148
433.30 0.7152
433.40 0.7157
433.50 0.7162
433.60 0.7166
433.70 0.7171
433.80 0.7176
433.90 0.7181
434.00 0.7185
434.10 0.719
434.20 0.7195
434.30 0.7199
434.40 0.7204
434.50 0.7209
434.60 0.7213
434.70 0.7218
434.80 0.7223
434.90 0.7227
435.00 0.7232
435.10 0.7237
435.20 0.7242
435.30 0.7246
435.40 0.7251
435.50 0.7255
435.60 0.726
435.70 0.7265
435.80 0.7269
435.90 0.7274
436.00 0.7279
436.10 0.7283
436.20 0.7288
436.30 0.7293
436.40 0.7298
436.50 0.7302
436.60 0.7307
436.70 0.7312
436.80 0.7316
436.90 0.7321
437.00 0.7326
437.10 0.733
437.20 0.7335
437.30 0.7339
437.40 0.7344
437.50 0.7349
437.60 0.7353
437.70 0.7358
437.80 0.7363
437.90 0.7368
438.00 0.7372
438.10 0.7377
438.20 0.7381
438.30 0.7386
438.40 0.7391
438.50 0.7395
438.60 0.74
438.70 0.7405
438.80 0.7409
438.90 0.7414
439.00 0.7419
439.10 0.7423
439.20 0.7428
439.30 0.7433
439.40 0.7437
439.50 0.7442
439.60 0.7446
439.70 0.7451
439.80 0.7456
439.90 0.746
440.00 0.7465
440.10 0.747
440.20 0.7474
440.30 0.7479
440.40 0.7484
440.50 0.7488
440.60 0.7493
440.70 0.7497
440.80 0.7502
440.90 0.7507
441.00 0.7511
441.10 0.7516
441.20 0.7521
441.30 0.7525
441.40 0.753
441.50 0.7534
441.60 0.7539
441.70 0.7544
441.80 0.7548
441.90 0.7553
442.00 0.7558
442.10 0.7562
442.20 0.7567
442.30 0.7571
442.40 0.7576
442.50 0.758
442.60 0.7585
442.70 0.759
442.80 0.7594
442.90 0.7599
443.00 0.7604
443.10 0.7608
443.20 0.7613
443.30 0.7617
443.40 0.7622
443.50 0.7627
443.60 0.7631
443.70 0.7636
443.80 0.764
443.90 0.7645
444.00 0.765
444.10 0.7654
444.20 0.7659
444.30 0.7663
444.40 0.7668
444.50 0.7673
444.60 0.7677
444.70 0.7682
444.80 0.7686
444.90 0.7691
445.00 0.7695
445.10 0.77
445.20 0.7705
445.30 0.7709
445.40 0.7714
445.50 0.7718
445.60 0.7723
445.70 0.7728
445.80 0.7732
445.90 0.7737
446.00 0.7741
446.10 0.7746
446.20 0.775
446.30 0.7755
446.40 0.776
446.50 0.7764
446.60 0.7769
446.70 0.7773
446.80 0.7778
446.90 0.7782
447.00 0.7787
447.10 0.7792
447.20 0.7796
447.30 0.7801
447.40 0.7805
447.50 0.781
447.60 0.7814
447.70 0.7819
447.80 0.7823
447.90 0.7828
448.00 0.7832
448.10 0.7837
448.20 0.7842
448.30 0.7846
448.40 0.7851
448.50 0.7855
448.60 0.786
448.70 0.7864
448.80 0.7869
448.90 0.7873
449.00 0.7878
449.10 0.7882
449.20 0.7887
449.30 0.7892
449.40 0.7896
449.50 0.7901
449.60 0.7905
449.70 0.791
449.80 0.7914
449.90 0.7919
450.00 0.7923
450.10 0.7928
450.20 0.7932
450.30 0.7937
450.40 0.7941
450.50 0.7946
450.60 0.795
450.70 0.7955
450.80 0.7959
450.90 0.7964
451.00 0.7968
451.10 0.7973
451.20 0.7977
451.30 0.7982
451.40 0.7986
451.50 0.7991
451.60 0.7995
451.70 0.8
451.80 0.8004
451.90 0.8009
452.00 0.8013
452.10 0.8018
452.20 0.8022
452.30 0.8027
452.40 0.8032
452.50 0.8036
452.60 0.8041
452.70 0.8045
452.80 0.805
452.90 0.8054
453.00 0.8058
453.10 0.8063
453.20 0.8067
453.30 0.8072
453.40 0.8076
453.50 0.8081
453.60 0.8085
453.70 0.809
453.80 0.8094
453.90 0.8099
454.00 0.8103
454.10 0.8108
454.20 0.8112
454.30 0.8117
454.40 0.8121
454.50 0.8126
454.60 0.813
454.70 0.8135
454.80 0.8139
454.90 0.8143
455.00 0.8148
455.10 0.8152
455.20 0.8157
455.30 0.8161
455.40 0.8166
455.50 0.817
455.60 0.8175
455.70 0.8179
455.80 0.8184
455.90 0.8188
456.00 0.8193
456.10 0.8197
456.20 0.8201
456.30 0.8206
456.40 0.821
456.50 0.8215
456.60 0.8219
456.70 0.8224
456.80 0.8228
456.90 0.8233
457.00 0.8237
457.10 0.8241
457.20 0.8246
457.30 0.825
457.40 0.8255
457.50 0.8259
457.60 0.8264
457.70 0.8268
457.80 0.8272
457.90 0.8277
458.00 0.8281
458.10 0.8286
458.20 0.829
458.30 0.8295
458.40 0.8299
458.50 0.8303
458.60 0.8308
458.70 0.8312
458.80 0.8317
458.90 0.8321
459.00 0.8325
459.10 0.833
459.20 0.8334
459.30 0.8339
459.40 0.8343
459.50 0.8347
459.60 0.8352
459.70 0.8356
459.80 0.8361
459.90 0.8365
460.00 0.8369
460.10 0.8374
460.20 0.8378
460.30 0.8383
460.40 0.8387
460.50 0.8391
460.60 0.8396
460.70 0.84
460.80 0.8405
460.90 0.8409
461.00 0.8413
461.10 0.8418
461.20 0.8422
461.30 0.8427
461.40 0.8431
461.50 0.8435
461.60 0.844
461.70 0.8444
461.80 0.8448
461.90 0.8453
462.00 0.8457
462.10 0.8461
462.20 0.8466
462.30 0.847
462.40 0.8475
462.50 0.8479
462.60 0.8483
462.70 0.8488
462.80 0.8492
462.90 0.8496
463.00 0.8501
463.10 0.8505
463.20 0.8509
463.30 0.8514
463.40 0.8518
463.50 0.8522
463.60 0.8527
463.70 0.8531
463.80 0.8535
463.90 0.854
464.00 0.8544
464.10 0.8548
464.20 0.8553
464.30 0.8557
464.40 0.8561
464.50 0.8566
464.60 0.857
464.70 0.8574
464.80 0.8579
464.90 0.8583
465.00 0.8587
465.10 0.8592
465.20 0.8596
465.30 0.86
465.40 0.8605
465.50 0.8609
465.60 0.8613
465.70 0.8618
465.80 0.8622
465.90 0.8626
466.00 0.8631
466.10 0.8635
466.20 0.8639
466.30 0.8644
466.40 0.8648
466.50 0.8652
466.60 0.8657
466.70 0.8661
466.80 0.8665
466.90 0.8669
467.00 0.8674
467.10 0.8678
467.20 0.8682
467.30 0.8687
467.40 0.8691
467.50 0.8695
467.60 0.8699
467.70 0.8704
467.80 0.8708
467.90 0.8712
468.00 0.8717
468.10 0.8721
468.20 0.8725
468.30 0.8729
468.40 0.8734
468.50 0.8738
468.60 0.8742
468.70 0.8746
468.80 0.8751
468.90 0.8755
469.00 0.8759
469.10 0.8763
469.20 0.8768
469.30 0.8772
469.40 0.8776
469.50 0.878
469.60 0.8785
469.70 0.8789
469.80 0.8793
469.90 0.8797
470.00 0.8802
470.10 0.8806
470.20 0.881
470.30 0.8814
470.40 0.8819
470.50 0.8823
470.60 0.8827
470.70 0.8831
470.80 0.8836
470.90 0.884
471.00 0.8844
471.10 0.8848
471.20 0.8853
471.30 0.8857
471.40 0.8861
471.50 0.8865
471.60 0.887
471.70 0.8874
471.80 0.8878
471.90 0.8882
472.00 0.8886
472.10 0.8891
472.20 0.8895
472.30 0.8899
472.40 0.8903
472.50 0.8907
472.60 0.8912
472.70 0.8916
472.80 0.892
472.90 0.8924
473.00 0.8929
473.10 0.8933
473.20 0.8937
473.30 0.8941
473.40 0.8945
473.50 0.8949
473.60 0.8954
473.70 0.8958
473.80 0.8962
473.90 0.8966
474.00 0.897
474.10 0.8975
474.20 0.8979
474.30 0.8983
474.40 0.8987
474.50 0.8991
474.60 0.8995
474.70 0.9
474.80 0.9004
474.90 0.9008
475.00 0.9012
475.10 0.9016
475.20 0.902
475.30 0.9025
475.40 0.9029
475.50 0.9033
475.60 0.9037
475.70 0.9041
475.80 0.9046
475.90 0.905
476.00 0.9054
476.10 0.9058
476.20 0.9062
476.30 0.9066
476.40 0.907
476.50 0.9075
476.60 0.9079
476.70 0.9083
476.80 0.9087
476.90 0.9091
477.00 0.9095
477.10 0.9099
477.20 0.9104
477.30 0.9108
477.40 0.9112
477.50 0.9116
477.60 0.912
477.70 0.9124
477.80 0.9128
477.90 0.9132
478.00 0.9136
478.10 0.9141
478.20 0.9145
478.30 0.9149
478.40 0.9153
478.50 0.9157
478.60 0.9161
478.70 0.9165
478.80 0.9169
478.90 0.9173
479.00 0.9178
479.10 0.9182
479.20 0.9186
479.30 0.919
479.40 0.9194
479.50 0.9198
479.60 0.9202
479.70 0.9206
479.80 0.921
479.90 0.9214
480.00 0.9219
480.10 0.9223
480.20 0.9227
480.30 0.9231
480.40 0.9235
480.50 0.9239
480.60 0.9243
480.70 0.9247
480.80 0.9251
480.90 0.9255
481.00 0.9259
481.10 0.9263
481.20 0.9268
481.30 0.9272
481.40 0.9276
481.50 0.928
481.60 0.9284
481.70 0.9288
481.80 0.9292
481.90 0.9296
482.00 0.93
482.10 0.9304
482.20 0.9308
482.30 0.9312
482.40 0.9316
482.50 0.932
482.60 0.9324
482.70 0.9328
482.80 0.9332
482.90 0.9336
483.00 0.934
483.10 0.9344
483.20 0.9348
483.30 0.9352
483.40 0.9356
483.50 0.9361
483.60 0.9365
483.70 0.9369
483.80 0.9373
483.90 0.9377
484.00 0.9381
484.10 0.9385
484.20 0.9389
484.30 0.9393
484.40 0.9397
484.50 0.9401
484.60 0.9405
484.70 0.9409
484.80 0.9413
484.90 0.9417
485.00 0.9421
485.10 0.9425
485.20 0.9429
485.30 0.9433
485.40 0.9437
485.50 0.9441
485.60 0.9445
485.70 0.9448
485.80 0.9452
485.90 0.9456
486.00 0.946
486.10 0.9464
486.20 0.9468
486.30 0.9472
486.40 0.9476
486.50 0.948
486.60 0.9484
486.70 0.9488
486.80 0.9492
486.90 0.9496
487.00 0.95
487.10 0.9504
487.20 0.9508
487.30 0.9512
487.40 0.9516
487.50 0.952
487.60 0.9524
487.70 0.9528
487.80 0.9532
487.90 0.9536
488.00 0.954
488.10 0.9544
488.20 0.9548
488.30 0.9552
488.40 0.9556
488.50 0.956
488.60 0.9563
488.70 0.9567
488.80 0.9571
488.90 0.9575
489.00 0.9579
489.10 0.9583
489.20 0.9587
489.30 0.9591
489.40 0.9595
489.50 0.9599
489.60 0.9603
489.70 0.9607
489.80 0.9611
489.90 0.9614
490.00 0.9618
490.10 0.9622
490.20 0.9626
490.30 0.963
490.40 0.9634
490.50 0.9638
490.60 0.9642
490.70 0.9646
490.80 0.965
490.90 0.9653
491.00 0.9657
491.10 0.9661
491.20 0.9665
491.30 0.9669
491.40 0.9673
491.50 0.9677
491.60 0.9681
491.70 0.9685
491.80 0.9688
491.90 0.9692
492.00 0.9696
492.10 0.97
492.20 0.9704
492.30 0.9708
492.40 0.9712
492.50 0.9716
492.60 0.9719
492.70 0.9723
492.80 0.9727
492.90 0.9731
493.00 0.9735
493.10 0.9739
493.20 0.9743
493.30 0.9746
493.40 0.975
493.50 0.9754
493.60 0.9758
493.70 0.9762
493.80 0.9766
493.90 0.9769
494.00 0.9773
494.10 0.9777
494.20 0.9781
494.30 0.9785
494.40 0.9789
494.50 0.9792
494.60 0.9796
494.70 0.98
494.80 0.9804
494.90 0.9808
495.00 0.9812
495.10 0.9815
495.20 0.9819
495.30 0.9823
495.40 0.9827
495.50 0.9831
495.60 0.9834
495.70 0.9838
495.80 0.9842
495.90 0.9846
496.00 0.985
496.10 0.9853
496.20 0.9857
496.30 0.9861
496.40 0.9865
496.50 0.9869
496.60 0.9872
496.70 0.9876
496.80 0.988
496.90 0.9884
497.00 0.9888
497.10 0.9891
497.20 0.9895
497.30 0.9899
497.40 0.9903
497.50 0.9906
497.60 0.991
497.70 0.9914
497.80 0.9918
497.90 0.9921
498.00 0.9925
498.10 0.9929
498.20 0.9933
498.30 0.9936
498.40 0.994
498.50 0.9944
498.60 0.9948
498.70 0.9951
498.80 0.9955
498.90 0.9959
499.00 0.9963
499.10 0.9966
499.20 0.997
499.30 0.9974
499.40 0.9978
499.50 0.9981
499.60 0.9985
499.70 0.9989
499.80 0.9993
499.90 0.9996
500.00 1
500.10 1
500.20 1.001
500.30 1.001
500.40 1.001
500.50 1.002
500.60 1.002
500.70 1.003
500.80 1.003
500.90 1.003
501.00 1.004
501.10 1.004
501.20 1.004
501.30 1.005
501.40 1.005
501.50 1.006
501.60 1.006
501.70 1.006
501.80 1.007
501.90 1.007
502.00 1.007
502.10 1.008
502.20 1.008
502.30 1.009
502.40 1.009
502.50 1.009
502.60 1.01
502.70 1.01
502.80 1.01
502.90 1.011
503.00 1.011
503.10 1.011
503.20 1.012
503.30 1.012
503.40 1.013
503.50 1.013
503.60 1.013
503.70 1.014
503.80 1.014
503.90 1.014
504.00 1.015
504.10 1.015
504.20 1.015
504.30 1.016
504.40 1.016
504.50 1.017
504.60 1.017
504.70 1.017
504.80 1.018
504.90 1.018
505.00 1.018
505.10 1.019
505.20 1.019
505.30 1.019
505.40 1.02
505.50 1.02
505.60 1.021
505.70 1.021
505.80 1.021
505.90 1.022
506.00 1.022
506.10 1.022
506.20 1.023
506.30 1.023
506.40 1.023
506.50 1.024
506.60 1.024
506.70 1.025
506.80 1.025
506.90 1.025
507.00 1.026
507.10 1.026
507.20 1.026
507.30 1.027
507.40 1.027
507.50 1.027
507.60 1.028
507.70 1.028
507.80 1.028
507.90 1.029
508.00 1.029
508.10 1.03
508.20 1.03
508.30 1.03
508.40 1.031
508.50 1.031
508.60 1.031
508.70 1.032
508.80 1.032
508.90 1.032
509.00 1.033
509.10 1.033
509.20 1.033
509.30 1.034
509.40 1.034
509.50 1.035
509.60 1.035
509.70 1.035
509.80 1.036
509.90 1.036
510.00 1.036
510.10 1.037
510.20 1.037
510.30 1.037
510.40 1.038
510.50 1.038
510.60 1.038
510.70 1.039
510.80 1.039
510.90 1.039
511.00 1.04
511.10 1.04
511.20 1.04
511.30 1.041
511.40 1.041
511.50 1.042
511.60 1.042
511.70 1.042
511.80 1.043
511.90 1.043
512.00 1.043
512.10 1.044
512.20 1.044
512.30 1.044
512.40 1.045
512.50 1.045
512.60 1.045
512.70 1.046
512.80 1.046
512.90 1.046
513.00 1.047
513.10 1.047
513.20 1.047
513.30 1.048
513.40 1.048
513.50 1.048
513.60 1.049
513.70 1.049
513.80 1.05
513.90 1.05
514.00 1.05
514.10 1.051
514.20 1.051
514.30 1.051
514.40 1.052
514.50 1.052
514.60 1.052
514.70 1.053
514.80 1.053
514.90 1.053
515.00 1.054
515.10 1.054
515.20 1.054
515.30 1.055
515.40 1.055
515.50 1.055
515.60 1.056
515.70 1.056
515.80 1.056
515.90 1.057
516.00 1.057
516.10 1.057
516.20 1.058
516.30 1.058
516.40 1.058
516.50 1.059
516.60 1.059
516.70 1.059
516.80 1.06
516.90 1.06
517.00 1.06
517.10 1.061
517.20 1.061
517.30 1.062
517.40 1.062
517.50 1.062
517.60 1.063
517.70 1.063
517.80 1.063
517.90 1.064
518.00 1.064
518.10 1.064
518.20 1.065
518.30 1.065
518.40 1.065
518.50 1.066
518.60 1.066
518.70 1.066
518.80 1.067
518.90 1.067
519.00 1.067
519.10 1.068
519.20 1.068
519.30 1.068
519.40 1.069
519.50 1.069
519.60 1.069
519.70 1.07
519.80 1.07
519.90 1.07
520.00 1.071
520.10 1.071
520.20 1.071
520.30 1.072
520.40 1.072
520.50 1.072
520.60 1.073
520.70 1.073
520.80 1.073
520.90 1.074
521.00 1.074
521.10 1.074
521.20 1.075
521.30 1.075
521.40 1.075
521.50 1.076
521.60 1.076
521.70 1.076
521.80 1.077
521.90 1.077
522.00 1.077
522.10 1.078
522.20 1.078
522.30 1.078
522.40 1.078
522.50 1.079
522.60 1.079
522.70 1.079
522.80 1.08
522.90 1.08
523.00 1.08
523.10 1.081
523.20 1.081
523.30 1.081
523.40 1.082
523.50 1.082
523.60 1.082
523.70 1.083
523.80 1.083
523.90 1.083
524.00 1.084
524.10 1.084
524.20 1.084
524.30 1.085
524.40 1.085
524.50 1.085
524.60 1.086
524.70 1.086
524.80 1.086
524.90 1.087
525.00 1.087
525.10 1.087
525.20 1.088
525.30 1.088
525.40 1.088
525.50 1.089
525.60 1.089
525.70 1.089
525.80 1.09
525.90 1.09
526.00 1.09
526.10 1.09
526.20 1.091
526.30 1.091
526.40 1.091
526.50 1.092
526.60 1.092
526.70 1.092
526.80 1.093
526.90 1.093
527.00 1.093
527.10 1.094
527.20 1.094
527.30 1.094
527.40 1.095
527.50 1.095
527.60 1.095
527.70 1.096
527.80 1.096
527.90 1.096
528.00 1.097
528.10 1.097
528.20 1.097
528.30 1.097
528.40 1.098
528.50 1.098
528.60 1.098
528.70 1.099
528.80 1.099
528.90 1.099
529.00 1.1
529.10 1.1
529.20 1.1
529.30 1.101
529.40 1.101
529.50 1.101
529.60 1.102
529.70 1.102
529.80 1.102
529.90 1.103
530.00 1.103
530.10 1.103
530.20 1.103
530.30 1.104
530.40 1.104
530.50 1.104
530.60 1.105
530.70 1.105
530.80 1.105
530.90 1.106
531.00 1.106
531.10 1.106
531.20 1.107
531.30 1.107
531.40 1.107
531.50 1.107
531.60 1.108
531.70 1.108
531.80 1.108
531.90 1.109
532.00 1.109
532.10 1.109
532.20 1.11
532.30 1.11
532.40 1.11
532.50 1.111
532.60 1.111
532.70 1.111
532.80 1.111
532.90 1.112
533.00 1.112
533.10 1.112
533.20 1.113
533.30 1.113
533.40 1.113
533.50 1.114
533.60 1.114
533.70 1.114
533.80 1.115
533.90 1.115
534.00 1.115
534.10 1.115
534.20 1.116
534.30 1.116
534.40 1.116
534.50 1.117
534.60 1.117
534.70 1.117
534.80 1.118
534.90 1.118
535.00 1.118
535.10 1.118
535.20 1.119
535.30 1.119
535.40 1.119
535.50 1.12
535.60 1.12
535.70 1.12
535.80 1.121
535.90 1.121
536.00 1.121
536.10 1.122
536.20 1.122
536.30 1.122
536.40 1.122
536.50 1.123
536.60 1.123
536.70 1.123
536.80 1.124
536.90 1.124
537.00 1.124
537.10 1.124
537.20 1.125
537.30 1.125
537.40 1.125
537.50 1.126
537.60 1.126
537.70 1.126
537.80 1.127
537.90 1.127
538.00 1.127
538.10 1.127
538.20 1.128
538.30 1.128
538.40 1.128
538.50 1.129
538.60 1.129
538.70 1.129
538.80 1.13
538.90 1.13
539.00 1.13
539.10 1.13
539.20 1.131
539.30 1.131
539.40 1.131
539.50 1.132
539.60 1.132
539.70 1.132
539.80 1.132
539.90 1.133
540.00 1.133
540.10 1.133
540.20 1.134
540.30 1.134
540.40 1.134
540.50 1.134
540.60 1.135
540.70 1.135
540.80 1.135
540.90 1.136
541.00 1.136
541.10 1.136
541.20 1.137
541.30 1.137
541.40 1.137
541.50 1.137
541.60 1.138
541.70 1.138
541.80 1.138
541.90 1.139
542.00 1.139
542.10 1.139
542.20 1.139
542.30 1.14
542.40 1.14
542.50 1.14
542.60 1.141
542.70 1.141
542.80 1.141
542.90 1.141
543.00 1.142
543.10 1.142
543.20 1.142
543.30 1.143
543.40 1.143
543.50 1.143
543.60 1.143
543.70 1.144
543.80 1.144
543.90 1.144
544.00 1.145
544.10 1.145
544.20 1.145
544.30 1.145
544.40 1.146
544.50 1.146
544.60 1.146
544.70 1.147
544.80 1.147
544.90 1.147
545.00 1.147
545.10 1.148
545.20 1.148
545.30 1.148
545.40 1.148
545.50 1.149
545.60 1.149
545.70 1.149
545.80 1.15
545.90 1.15
546.00 1.15
546.10 1.15
546.20 1.151
546.30 1.151
546.40 1.151
546.50 1.152
546.60 1.152
546.70 1.152
546.80 1.152
546.90 1.153
547.00 1.153
547.10 1.153
547.20 1.154
547.30 1.154
547.40 1.154
547.50 1.154
547.60 1.155
547.70 1.155
547.80 1.155
547.90 1.155
548.00 1.156
548.10 1.156
548.20 1.156
548.30 1.157
548.40 1.157
548.50 1.157
548.60 1.157
548.70 1.158
548.80 1.158
548.90 1.158
549.00 1.158
549.10 1.159
549.20 1.159
549.30 1.159
549.40 1.16
549.50 1.16
549.60 1.16
549.70 1.16
549.80 1.161
549.90 1.161
550.00 1.161
550.10 1.161
550.20 1.162
550.30 1.162
550.40 1.162
550.50 1.163
550.60 1.163
550.70 1.163
550.80 1.163
550.90 1.164
551.00 1.164
551.10 1.164
551.20 1.164
551.30 1.165
551.40 1.165
551.50 1.165
551.60 1.165
551.70 1.166
551.80 1.166
551.90 1.166
552.00 1.167
552.10 1.167
552.20 1.167
552.30 1.167
552.40 1.168
552.50 1.168
552.60 1.168
552.70 1.168
552.80 1.169
552.90 1.169
553.00 1.169
553.10 1.169
553.20 1.17
553.30 1.17
553.40 1.17
553.50 1.171
553.60 1.171
553.70 1.171
553.80 1.171
553.90 1.172
554.00 1.172
554.10 1.172
554.20 1.172
554.30 1.173
554.40 1.173
554.50 1.173
554.60 1.173
554.70 1.174
554.80 1.174
554.90 1.174
555.00 1.174
555.10 1.175
555.20 1.175
555.30 1.175
555.40 1.175
555.50 1.176
555.60 1.176
555.70 1.176
555.80 1.177
555.90 1.177
556.00 1.177
556.10 1.177
556.20 1.178
556.30 1.178
556.40 1.178
556.50 1.178
556.60 1.179
556.70 1.179
556.80 1.179
556.90 1.179
557.00 1.18
557.10 1.18
557.20 1.18
557.30 1.18
557.40 1.181
557.50 1.181
557.60 1.181
557.70 1.181
557.80 1.182
557.90 1.182
558.00 1.182
558.10 1.182
558.20 1.183
558.30 1.183
558.40 1.183
558.50 1.183
558.60 1.184
558.70 1.184
558.80 1.184
558.90 1.184
559.00 1.185
559.10 1.185
559.20 1.185
559.30 1.185
559.40 1.186
559.50 1.186
559.60 1.186
559.70 1.186
559.80 1.187
559.90 1.187
560.00 1.187
560.10 1.187
560.20 1.188
560.30 1.188
560.40 1.188
560.50 1.188
560.60 1.189
560.70 1.189
560.80 1.189
560.90 1.189
561.00 1.19
561.10 1.19
561.20 1.19
561.30 1.19
561.40 1.191
561.50 1.191
561.60 1.191
561.70 1.191
561.80 1.192
561.90 1.192
562.00 1.192
562.10 1.192
562.20 1.193
562.30 1.193
562.40 1.193
562.50 1.193
562.60 1.194
562.70 1.194
562.80 1.194
562.90 1.194
563.00 1.195
563.10 1.195
563.20 1.195
563.30 1.195
563.40 1.196
563.50 1.196
563.60 1.196
563.70 1.196
563.80 1.197
563.90 1.197
564.00 1.197
564.10 1.197
564.20 1.198
564.30 1.198
564.40 1.198
564.50 1.198
564.60 1.199
564.70 1.199
564.80 1.199
564.90 1.199
565.00 1.199
565.10 1.2
565.20 1.2
565.30 1.2
565.40 1.2
565.50 1.201
565.60 1.201
565.70 1.201
565.80 1.201
565.90 1.202
566.00 1.202
566.10 1.202
566.20 1.202
566.30 1.203
566.40 1.203
566.50 1.203
566.60 1.203
566.70 1.204
566.80 1.204
566.90 1.204
567.00 1.204
567.10 1.204
567.20 1.205
567.30 1.205
567.40 1.205
567.50 1.205
567.60 1.206
567.70 1.206
567.80 1.206
567.90 1.206
568.00 1.207
568.10 1.207
568.20 1.207
568.30 1.207
568.40 1.208
568.50 1.208
568.60 1.208
568.70 1.208
568.80 1.208
568.90 1.209
569.00 1.209
569.10 1.209
569.20 1.209
569.30 1.21
569.40 1.21
569.50 1.21
569.60 1.21
569.70 1.211
569.80 1.211
569.90 1.211
570.00 1.211
570.10 1.211
570.20 1.212
570.30 1.212
570.40 1.212
570.50 1.212
570.60 1.213
570.70 1.213
570.80 1.213
570.90 1.213
571.00 1.214
571.10 1.214
571.20 1.214
571.30 1.214
571.40 1.214
571.50 1.215
571.60 1.215
571.70 1.215
571.80 1.215
571.90 1.216
572.00 1.216
572.10 1.216
572.20 1.216
572.30 1.216
572.40 1.217
572.50 1.217
572.60 1.217
572.70 1.217
572.80 1.218
572.90 1.218
573.00 1.218
573.10 1.218
573.20 1.218
573.30 1.219
573.40 1.219
573.50 1.219
573.60 1.219
573.70 1.22
573.80 1.22
573.90 1.22
574.00 1.22
574.10 1.22
574.20 1.221
574.30 1.221
574.40 1.221
574.50 1.221
574.60 1.222
574.70 1.222
574.80 1.222
574.90 1.222
575.00 1.222
575.10 1.223
575.20 1.223
575.30 1.223
575.40 1.223
575.50 1.223
575.60 1.224
575.70 1.224
575.80 1.224
575.90 1.224
576.00 1.225
576.10 1.225
576.20 1.225
576.30 1.225
576.40 1.225
576.50 1.226
576.60 1.226
576.70 1.226
576.80 1.226
576.90 1.227
577.00 1.227
577.10 1.227
577.20 1.227
577.30 1.227
577.40 1.228
577.50 1.228
577.60 1.228
577.70 1.228
577.80 1.229
577.90 1.229
578.00 1.229
578.10 1.229
578.20 1.229
578.30 1.23
578.40 1.23
578.50 1.23
578.60 1.23
578.70 1.23
578.80 1.231
578.90 1.231
579.00 1.231
579.10 1.231
579.20 1.231
579.30 1.232
579.40 1.232
579.50 1.232
579.60 1.232
579.70 1.232
579.80 1.233
579.90 1.233
580.00 1.233
580.10 1.233
580.20 1.234
580.30 1.234
580.40 1.234
580.50 1.234
580.60 1.234
580.70 1.235
580.80 1.235
580.90 1.235
581.00 1.235
581.10 1.235
581.20 1.236
581.30 1.236
581.40 1.236
581.50 1.236
581.60 1.236
581.70 1.237
581.80 1.237
581.90 1.237
582.00 1.237
582.10 1.238
582.20 1.238
582.30 1.238
582.40 1.238
582.50 1.238
582.60 1.239
582.70 1.239
582.80 1.239
582.90 1.239
583.00 1.239
583.10 1.24
583.20 1.24
583.30 1.24
583.40 1.24
583.50 1.24
583.60 1.241
583.70 1.241
583.80 1.241
583.90 1.241
584.00 1.241
584.10 1.242
584.20 1.242
584.30 1.242
584.40 1.242
584.50 1.242
584.60 1.242
584.70 1.243
584.80 1.243
584.90 1.243
585.00 1.243
585.10 1.243
585.20 1.244
585.30 1.244
585.40 1.244
585.50 1.244
585.60 1.245
585.70 1.245
585.80 1.245
585.90 1.245
586.00 1.245
586.10 1.246
586.20 1.246
586.30 1.246
586.40 1.246
586.50 1.246
586.60 1.247
586.70 1.247
586.80 1.247
586.90 1.247
587.00 1.247
587.10 1.247
587.20 1.248
587.30 1.248
587.40 1.248
587.50 1.248
587.60 1.248
587.70 1.249
587.80 1.249
587.90 1.249
588.00 1.249
588.10 1.249
588.20 1.25
588.30 1.25
588.40 1.25
588.50 1.25
588.60 1.25
588.70 1.251
588.80 1.251
588.90 1.251
589.00 1.251
589.10 1.251
589.20 1.252
589.30 1.252
589.40 1.252
589.50 1.252
589.60 1.252
589.70 1.252
589.80 1.253
589.90 1.253
590.00 1.253
590.10 1.253
590.20 1.253
590.30 1.254
590.40 1.254
590.50 1.254
590.60 1.254
590.70 1.254
590.80 1.255
590.90 1.255
591.00 1.255
591.10 1.255
591.20 1.255
591.30 1.255
591.40 1.256
591.50 1.256
591.60 1.256
591.70 1.256
591.80 1.256
591.90 1.257
592.00 1.257
592.10 1.257
592.20 1.257
592.30 1.257
592.40 1.257
592.50 1.258
592.60 1.258
592.70 1.258
592.80 1.258
592.90 1.258
593.00 1.259
593.10 1.259
593.20 1.259
593.30 1.259
593.40 1.259
593.50 1.26
593.60 1.26
593.70 1.26
593.80 1.26
593.90 1.26
594.00 1.26
594.10 1.261
594.20 1.261
594.30 1.261
594.40 1.261
594.50 1.261
594.60 1.262
594.70 1.262
594.80 1.262
594.90 1.262
595.00 1.262
595.10 1.262
595.20 1.263
595.30 1.263
595.40 1.263
595.50 1.263
595.60 1.263
595.70 1.264
595.80 1.264
595.90 1.264
596.00 1.264
596.10 1.264
596.20 1.264
596.30 1.265
596.40 1.265
596.50 1.265
596.60 1.265
596.70 1.265
596.80 1.265
596.90 1.266
597.00 1.266
597.10 1.266
597.20 1.266
597.30 1.266
597.40 1.266
597.50 1.267
597.60 1.267
597.70 1.267
597.80 1.267
597.90 1.267
598.00 1.268
598.10 1.268
598.20 1.268
598.30 1.268
598.40 1.268
598.50 1.268
598.60 1.269
598.70 1.269
598.80 1.269
598.90 1.269
599.00 1.269
599.10 1.269
599.20 1.27
599.30 1.27
599.40 1.27
599.50 1.27
599.60 1.27
599.70 1.27
599.80 1.271
599.90 1.271
600.00 1.271
600.10 1.271
600.20 1.271
600.30 1.271
600.40 1.272
600.50 1.272
600.60 1.272
600.70 1.272
600.80 1.272
600.90 1.272
601.00 1.273
601.10 1.273
601.20 1.273
601.30 1.273
601.40 1.273
601.50 1.273
601.60 1.274
601.70 1.274
601.80 1.274
601.90 1.274
602.00 1.274
602.10 1.274
602.20 1.275
602.30 1.275
602.40 1.275
602.50 1.275
602.60 1.275
602.70 1.275
602.80 1.276
602.90 1.276
603.00 1.276
603.10 1.276
603.20 1.276
603.30 1.276
603.40 1.277
603.50 1.277
603.60 1.277
603.70 1.277
603.80 1.277
603.90 1.277
604.00 1.278
604.10 1.278
604.20 1.278
604.30 1.278
604.40 1.278
604.50 1.278
604.60 1.279
604.70 1.279
604.80 1.279
604.90 1.279
605.00 1.279
605.10 1.279
605.20 1.28
605.30 1.28
605.40 1.28
605.50 1.28
605.60 1.28
605.70 1.28
605.80 1.28
605.90 1.281
606.00 1.281
606.10 1.281
606.20 1.281
606.30 1.281
606.40 1.281
606.50 1.282
606.60 1.282
606.70 1.282
606.80 1.282
606.90 1.282
607.00 1.282
607.10 1.282
607.20 1.283
607.30 1.283
607.40 1.283
607.50 1.283
607.60 1.283
607.70 1.283
607.80 1.284
607.90 1.284
608.00 1.284
608.10 1.284
608.20 1.284
608.30 1.284
608.40 1.284
608.50 1.285
608.60 1.285
608.70 1.285
608.80 1.285
608.90 1.285
609.00 1.285
609.10 1.286
609.20 1.286
609.30 1.286
609.40 1.286
609.50 1.286
609.60 1.286
609.70 1.286
609.80 1.287
609.90 1.287
610.00 1.287
610.10 1.287
610.20 1.287
610.30 1.287
610.40 1.288
610.50 1.288
610.60 1.288
610.70 1.288
610.80 1.288
610.90 1.288
611.00 1.288
611.10 1.289
611.20 1.289
611.30 1.289
611.40 1.289
611.50 1.289
611.60 1.289
611.70 1.29
611.80 1.29
611.90 1.29
612.00 1.29
612.10 1.29
612.20 1.29
612.30 1.29
612.40 1.291
612.50 1.291
612.60 1.291
612.70 1.291
612.80 1.291
612.90 1.291
613.00 1.291
613.10 1.292
613.20 1.292
613.30 1.292
613.40 1.292
613.50 1.292
613.60 1.292
613.70 1.292
613.80 1.293
613.90 1.293
614.00 1.293
614.10 1.293
614.20 1.293
614.30 1.293
614.40 1.293
614.50 1.294
614.60 1.294
614.70 1.294
614.80 1.294
614.90 1.294
615.00 1.294
615.10 1.294
615.20 1.295
615.30 1.295
615.40 1.295
615.50 1.295
615.60 1.295
615.70 1.295
615.80 1.295
615.90 1.296
616.00 1.296
616.10 1.296
616.20 1.296
616.30 1.296
616.40 1.296
616.50 1.296
616.60 1.296
616.70 1.297
616.80 1.297
616.90 1.297
617.00 1.297
617.10 1.297
617.20 1.297
617.30 1.297
617.40 1.298
617.50 1.298
617.60 1.298
617.70 1.298
617.80 1.298
617.90 1.298
618.00 1.298
618.10 1.298
618.20 1.299
618.30 1.299
618.40 1.299
618.50 1.299
618.60 1.299
618.70 1.299
618.80 1.299
618.90 1.3
619.00 1.3
619.10 1.3
619.20 1.3
619.30 1.3
619.40 1.3
619.50 1.3
619.60 1.3
619.70 1.301
619.80 1.301
619.90 1.301
620.00 1.301
620.10 1.301
620.20 1.301
620.30 1.301
620.40 1.302
620.50 1.302
620.60 1.302
620.70 1.302
620.80 1.302
620.90 1.302
621.00 1.302
621.10 1.302
621.20 1.303
621.30 1.303
621.40 1.303
621.50 1.303
621.60 1.303
621.70 1.303
621.80 1.303
621.90 1.304
622.00 1.304
622.10 1.304
622.20 1.304
622.30 1.304
622.40 1.304
622.50 1.304
622.60 1.304
622.70 1.305
622.80 1.305
622.90 1.305
623.00 1.305
623.10 1.305
623.20 1.305
623.30 1.305
623.40 1.305
623.50 1.306
623.60 1.306
623.70 1.306
623.80 1.306
623.90 1.306
624.00 1.306
624.10 1.306
624.20 1.306
624.30 1.306
624.40 1.307
624.50 1.307
624.60 1.307
624.70 1.307
624.80 1.307
624.90 1.307
625.00 1.307
625.10 1.307
625.20 1.308
625.30 1.308
625.40 1.308
625.50 1.308
625.60 1.308
625.70 1.308
625.80 1.308
625.90 1.308
626.00 1.309
626.10 1.309
626.20 1.309
626.30 1.309
626.40 1.309
626.50 1.309
626.60 1.309
626.70 1.309
626.80 1.31
626.90 1.31
627.00 1.31
627.10 1.31
627.20 1.31
627.30 1.31
627.40 1.31
627.50 1.31
627.60 1.31
627.70 1.311
627.80 1.311
627.90 1.311
628.00 1.311
628.10 1.311
628.20 1.311
628.30 1.311
628.40 1.311
628.50 1.312
628.60 1.312
628.70 1.312
628.80 1.312
628.90 1.312
629.00 1.312
629.10 1.312
629.20 1.312
629.30 1.312
629.40 1.313
629.50 1.313
629.60 1.313
629.70 1.313
629.80 1.313
629.90 1.313
630.00 1.313
630.10 1.313
630.20 1.314
630.30 1.314
630.40 1.314
630.50 1.314
630.60 1.314
630.70 1.314
630.80 1.314
630.90 1.314
631.00 1.314
631.10 1.314
631.20 1.315
631.30 1.315
631.40 1.315
631.50 1.315
631.60 1.315
631.70 1.315
631.80 1.315
631.90 1.315
632.00 1.315
632.10 1.316
632.20 1.316
632.30 1.316
632.40 1.316
632.50 1.316
632.60 1.316
632.70 1.316
632.80 1.316
632.90 1.316
633.00 1.317
633.10 1.317
633.20 1.317
633.30 1.317
633.40 1.317
633.50 1.317
633.60 1.317
633.70 1.317
633.80 1.317
633.90 1.318
634.00 1.318
634.10 1.318
634.20 1.318
634.30 1.318
634.40 1.318
634.50 1.318
634.60 1.318
634.70 1.318
634.80 1.318
634.90 1.319
635.00 1.319
635.10 1.319
635.20 1.319
635.30 1.319
635.40 1.319
635.50 1.319
635.60 1.319
635.70 1.319
635.80 1.32
635.90 1.32
636.00 1.32
636.10 1.32
636.20 1.32
636.30 1.32
636.40 1.32
636.50 1.32
636.60 1.32
636.70 1.32
636.80 1.321
636.90 1.321
637.00 1.321
637.10 1.321
637.20 1.321
637.30 1.321
637.40 1.321
637.50 1.321
637.60 1.321
637.70 1.321
637.80 1.322
637.90 1.322
638.00 1.322
638.10 1.322
638.20 1.322
638.30 1.322
638.40 1.322
638.50 1.322
638.60 1.322
638.70 1.322
638.80 1.323
638.90 1.323
639.00 1.323
639.10 1.323
639.20 1.323
639.30 1.323
639.40 1.323
639.50 1.323
639.60 1.323
639.70 1.323
639.80 1.324
639.90 1.324
640.00 1.324
640.10 1.324
640.20 1.324
640.30 1.324
640.40 1.324
640.50 1.324
640.60 1.324
640.70 1.324
640.80 1.324
640.90 1.325
641.00 1.325
641.10 1.325
641.20 1.325
641.30 1.325
641.40 1.325
641.50 1.325
641.60 1.325
641.70 1.325
641.80 1.325
641.90 1.325
642.00 1.326
642.10 1.326
642.20 1.326
642.30 1.326
642.40 1.326
642.50 1.326
642.60 1.326
642.70 1.326
642.80 1.326
642.90 1.326
643.00 1.327
643.10 1.327
643.20 1.327
643.30 1.327
643.40 1.327
643.50 1.327
643.60 1.327
643.70 1.327
643.80 1.327
643.90 1.327
644.00 1.327
644.10 1.327
644.20 1.328
644.30 1.328
644.40 1.328
644.50 1.328
644.60 1.328
644.70 1.328
644.80 1.328
644.90 1.328
645.00 1.328
645.10 1.328
645.20 1.328
645.30 1.328
645.40 1.329
645.50 1.329
645.60 1.329
645.70 1.329
645.80 1.329
645.90 1.329
646.00 1.329
646.10 1.329
646.20 1.329
646.30 1.329
646.40 1.329
646.50 1.33
646.60 1.33
646.70 1.33
646.80 1.33
646.90 1.33
647.00 1.33
647.10 1.33
647.20 1.33
647.30 1.33
647.40 1.33
647.50 1.33
647.60 1.33
647.70 1.331
647.80 1.331
647.90 1.331
648.00 1.331
648.10 1.331
648.20 1.331
648.30 1.331
648.40 1.331
648.50 1.331
648.60 1.331
648.70 1.331
648.80 1.331
648.90 1.331
649.00 1.332
649.10 1.332
649.20 1.332
649.30 1.332
649.40 1.332
649.50 1.332
649.60 1.332
649.70 1.332
649.80 1.332
649.90 1.332
650.00 1.332
650.10 1.332
650.20 1.333
650.30 1.333
650.40 1.333
650.50 1.333
650.60 1.333
650.70 1.333
650.80 1.333
650.90 1.333
651.00 1.333
651.10 1.333
651.20 1.333
651.30 1.333
651.40 1.333
651.50 1.334
651.60 1.334
651.70 1.334
651.80 1.334
651.90 1.334
652.00 1.334
652.10 1.334
652.20 1.334
652.30 1.334
652.40 1.334
652.50 1.334
652.60 1.334
652.70 1.334
652.80 1.334
652.90 1.335
653.00 1.335
653.10 1.335
653.20 1.335
653.30 1.335
653.40 1.335
653.50 1.335
653.60 1.335
653.70 1.335
653.80 1.335
653.90 1.335
654.00 1.335
654.10 1.335
654.20 1.336
654.30 1.336
654.40 1.336
654.50 1.336
654.60 1.336
654.70 1.336
654.80 1.336
654.90 1.336
655.00 1.336
655.10 1.336
655.20 1.336
655.30 1.336
655.40 1.336
655.50 1.336
655.60 1.336
655.70 1.336
655.80 1.336
655.90 1.336
656.00 1.336
656.10 1.336
656.20 1.337
656.30 1.337
656.40 1.337
656.50 1.337
656.60 1.337
656.70 1.337
656.80 1.337
656.90 1.337
657.00 1.337
657.10 1.337
657.20 1.337
657.30 1.338
657.40 1.338
657.50 1.338
657.60 1.338
657.70 1.338
657.80 1.338
657.90 1.338
658.00 1.338
658.10 1.338
658.20 1.338
658.30 1.338
658.40 1.338
658.50 1.338
658.60 1.338
658.70 1.338
658.80 1.339
658.90 1.339
659.00 1.339
659.10 1.339
659.20 1.339
659.30 1.339
659.40 1.339
659.50 1.339
659.60 1.339
659.70 1.339
659.80 1.339
659.90 1.339
660.00 1.339
660.10 1.339
660.20 1.339
660.30 1.34
660.40 1.34
660.50 1.34
660.60 1.34
660.70 1.34
660.80 1.34
660.90 1.34
661.00 1.34
661.10 1.34
661.20 1.34
661.30 1.34
661.40 1.34
661.50 1.34
661.60 1.34
661.70 1.34
661.80 1.34
661.90 1.34
662.00 1.341
662.10 1.341
662.20 1.341
662.30 1.341
662.40 1.341
662.50 1.341
662.60 1.341
662.70 1.341
662.80 1.341
662.90 1.341
663.00 1.341
663.10 1.341
663.20 1.341
663.30 1.341
663.40 1.341
663.50 1.341
663.60 1.341
663.70 1.341
663.80 1.342
663.90 1.342
664.00 1.342
664.10 1.342
664.20 1.342
664.30 1.342
664.40 1.342
664.50 1.342
664.60 1.342
664.70 1.342
664.80 1.342
664.90 1.342
665.00 1.342
665.10 1.342
665.20 1.342
665.30 1.342
665.40 1.342
665.50 1.342
665.60 1.342
665.70 1.343
665.80 1.343
665.90 1.343
666.00 1.343
666.10 1.343
666.20 1.343
666.30 1.343
666.40 1.343
666.50 1.343
666.60 1.343
666.70 1.343
666.80 1.343
666.90 1.343
667.00 1.343
667.10 1.343
667.20 1.343
667.30 1.343
667.40 1.343
667.50 1.343
667.60 1.344
667.70 1.344
667.80 1.344
667.90 1.344
668.00 1.344
668.10 1.344
668.20 1.344
668.30 1.344
668.40 1.344
668.50 1.344
668.60 1.344
668.70 1.344
668.80 1.344
668.90 1.344
669.00 1.344
669.10 1.344
669.20 1.344
669.30 1.344
669.40 1.344
669.50 1.344
669.60 1.344
669.70 1.344
669.80 1.345
669.90 1.345
670.00 1.345
670.10 1.345
670.20 1.345
670.30 1.345
670.40 1.345
670.50 1.345
670.60 1.345
670.70 1.345
670.80 1.345
670.90 1.345
671.00 1.345
671.10 1.345
671.20 1.345
671.30 1.345
671.40 1.345
671.50 1.345
671.60 1.345
671.70 1.345
671.80 1.345
671.90 1.345
672.00 1.345
672.10 1.345
672.20 1.346
672.30 1.346
672.40 1.346
672.50 1.346
672.60 1.346
672.70 1.346
672.80 1.346
672.90 1.346
673.00 1.346
673.10 1.346
673.20 1.346
673.30 1.346
673.40 1.346
673.50 1.346
673.60 1.346
673.70 1.346
673.80 1.346
673.90 1.346
674.00 1.346
674.10 1.346
674.20 1.346
674.30 1.346
674.40 1.346
674.50 1.346
674.60 1.346
674.70 1.347
674.80 1.347
674.90 1.347
675.00 1.347
675.10 1.347
675.20 1.347
675.30 1.347
675.40 1.347
675.50 1.347
675.60 1.347
675.70 1.347
675.80 1.347
675.90 1.347
676.00 1.347
676.10 1.347
676.20 1.347
676.30 1.347
676.40 1.347
676.50 1.347
676.60 1.347
676.70 1.347
676.80 1.347
676.90 1.347
677.00 1.347
677.10 1.347
677.20 1.347
677.30 1.347
677.40 1.347
677.50 1.347
677.60 1.347
677.70 1.348
677.80 1.348
677.90 1.348
678.00 1.348
678.10 1.348
678.20 1.348
678.30 1.348
678.40 1.348
678.50 1.348
678.60 1.348
678.70 1.348
678.80 1.348
678.90 1.348
679.00 1.348
679.10 1.348
679.20 1.348
679.30 1.348
679.40 1.348
679.50 1.348
679.60 1.348
679.70 1.348
679.80 1.348
679.90 1.348
680.00 1.348
680.10 1.348
680.20 1.348
680.30 1.348
680.40 1.348
680.50 1.348
680.60 1.348
680.70 1.348
680.80 1.348
680.90 1.348
681.00 1.348
681.10 1.349
681.20 1.349
681.30 1.349
681.40 1.349
681.50 1.349
681.60 1.349
681.70 1.349
681.80 1.349
681.90 1.349
682.00 1.349
682.10 1.349
682.20 1.349
682.30 1.349
682.40 1.349
682.50 1.349
682.60 1.349
682.70 1.349
682.80 1.349
682.90 1.349
683.00 1.349
683.10 1.349
683.20 1.349
683.30 1.349
683.40 1.349
683.50 1.349
683.60 1.349
683.70 1.349
683.80 1.349
683.90 1.349
684.00 1.349
684.10 1.349
684.20 1.349
684.30 1.349
684.40 1.349
684.50 1.349
684.60 1.349
684.70 1.349
684.80 1.349
684.90 1.349
685.00 1.349
685.10 1.349
685.20 1.349
685.30 1.349
685.40 1.349
685.50 1.349
685.60 1.349
685.70 1.349
685.80 1.35
685.90 1.35
686.00 1.35
686.10 1.35
686.20 1.35
686.30 1.35
686.40 1.35
686.50 1.35
686.60 1.35
686.70 1.35
686.80 1.35
686.90 1.35
687.00 1.35
687.10 1.35
687.20 1.35
687.30 1.35
687.40 1.35
687.50 1.35
687.60 1.35
687.70 1.35
687.80 1.35
687.90 1.35
688.00 1.35
688.10 1.35
688.20 1.35
688.30 1.35
688.40 1.35
688.50 1.35
688.60 1.35
688.70 1.35
688.80 1.35
688.90 1.35
689.00 1.35
689.10 1.35
689.20 1.35
689.30 1.35
689.40 1.35
689.50 1.35
689.60 1.35
689.70 1.35
689.80 1.35
689.90 1.35
690.00 1.35
690.10 1.35
690.20 1.35
690.30 1.35
690.40 1.35
690.50 1.35
690.60 1.35
690.70 1.35
690.80 1.35
690.90 1.35
691.00 1.35
691.10 1.35
691.20 1.35
691.30 1.35
691.40 1.35
691.50 1.35
691.60 1.35
691.70 1.35
691.80 1.35
691.90 1.35
692.00 1.35
692.10 1.35
692.20 1.35
692.30 1.35
692.40 1.35
692.50 1.35
692.60 1.35
692.70 1.35
692.80 1.35
692.90 1.35
693.00 1.35
693.10 1.35
693.20 1.35
693.30 1.35
693.40 1.35
693.50 1.35
693.60 1.35
693.70 1.35
693.80 1.35
693.90 1.35
694.00 1.35
694.10 1.35
694.20 1.35
694.30 1.35
694.40 1.35
694.50 1.35
694.60 1.35
694.70 1.35
694.80 1.35
694.90 1.35
695.00 1.35
695.10 1.35
695.20 1.35
695.30 1.35
695.40 1.35
695.50 1.35
695.60 1.35
695.70 1.35
695.80 1.35
695.90 1.35
696.00 1.35
696.10 1.35
696.20 1.35
696.30 1.35
696.40 1.35
696.50 1.35
696.60 1.35
696.70 1.35
696.80 1.35
696.90 1.35
697.00 1.35
697.10 1.35
697.20 1.35
697.30 1.35
697.40 1.35
697.50 1.35
697.60 1.35
697.70 1.35
697.80 1.35
697.90 1.35
698.00 1.35
698.10 1.35
698.20 1.35
698.30 1.35
698.40 1.35
698.50 1.35
698.60 1.35
698.70 1.35
698.80 1.35
698.90 1.35
699.00 1.35
699.10 1.35
699.20 1.35
699.30 1.35
699.40 1.35
699.50 1.35
699.60 1.35
699.70 1.35
699.80 1.35
699.90 1.35
700.00 1.35
700.10 1.35
700.20 1.35
700.30 1.35
700.40 1.35
700.50 1.35
700.60 1.35
700.70 1.35
700.80 1.35
700.90 1.35
701.00 1.35
701.10 1.35
701.20 1.35
701.30 1.35
701.40 1.35
701.50 1.35
701.60 1.35
701.70 1.35
701.80 1.35
701.90 1.35
702.00 1.35
702.10 1.35
702.20 1.35
702.30 1.35
702.40 1.35
702.50 1.35
702.60 1.35
702.70 1.35
702.80 1.35
702.90 1.35
703.00 1.35
703.10 1.35
703.20 1.35
703.30 1.35
703.40 1.35
703.50 1.35
703.60 1.35
703.70 1.35
703.80 1.35
703.90 1.35
704.00 1.35
704.10 1.35
704.20 1.35
704.30 1.35
704.40 1.35
704.50 1.35
704.60 1.35
704.70 1.35
704.80 1.35
704.90 1.35
705.00 1.35
705.10 1.35
705.20 1.35
705.30 1.35
705.40 1.35
705.50 1.35
705.60 1.35
705.70 1.35
705.80 1.35
705.90 1.35
706.00 1.35
706.10 1.35
706.20 1.35
706.30 1.35
706.40 1.35
706.50 1.349
706.60 1.349
706.70 1.349
706.80 1.349
706.90 1.349
707.00 1.349
707.10 1.349
707.20 1.349
707.30 1.349
707.40 1.349
707.50 1.349
707.60 1.349
707.70 1.349
707.80 1.349
707.90 1.349
708.00 1.349
708.10 1.349
708.20 1.349
708.30 1.349
708.40 1.349
708.50 1.349
708.60 1.349
708.70 1.349
708.80 1.349
708.90 1.349
709.00 1.349
709.10 1.349
709.20 1.349
709.30 1.349
709.40 1.349
709.50 1.349
709.60 1.349
709.70 1.349
709.80 1.349
709.90 1.349
710.00 1.349
710.10 1.349
710.20 1.349
710.30 1.349
710.40 1.349
710.50 1.349
710.60 1.349
710.70 1.349
710.80 1.349
710.90 1.349
711.00 1.349
711.10 1.349
711.20 1.348
711.30 1.348
711.40 1.348
711.50 1.348
711.60 1.348
711.70 1.348
711.80 1.348
711.90 1.348
712.00 1.348
712.10 1.348
712.20 1.348
712.30 1.348
712.40 1.348
712.50 1.348
712.60 1.348
712.70 1.348
712.80 1.348
712.90 1.348
713.00 1.348
713.10 1.348
713.20 1.348
713.30 1.348
713.40 1.348
713.50 1.348
713.60 1.348
713.70 1.348
713.80 1.348
713.90 1.348
714.00 1.348
714.10 1.348
714.20 1.348
714.30 1.348
714.40 1.348
714.50 1.348
714.60 1.348
714.70 1.348
714.80 1.348
714.90 1.348
715.00 1.347
715.10 1.347
715.20 1.347
715.30 1.347
715.40 1.347
715.50 1.347
715.60 1.347
715.70 1.347
715.80 1.347
715.90 1.347
716.00 1.347
716.10 1.347
716.20 1.347
716.30 1.347
716.40 1.347
716.50 1.347
716.60 1.347
716.70 1.347
716.80 1.347
716.90 1.347
717.00 1.347
717.10 1.347
717.20 1.347
717.30 1.347
717.40 1.347
717.50 1.347
717.60 1.347
717.70 1.347
717.80 1.346
717.90 1.346
718.00 1.346
718.10 1.346
718.20 1.346
718.30 1.346
718.40 1.346
718.50 1.346
718.60 1.346
718.70 1.346
718.80 1.346
718.90 1.346
719.00 1.346
719.10 1.346
719.20 1.346
719.30 1.346
719.40 1.346
719.50 1.346
719.60 1.346
719.70 1.346
719.80 1.346
719.90 1.346
720.00 1.346
720.10 1.346
720.20 1.346
720.30 1.346
720.40 1.346
720.50 1.345
720.60 1.345
720.70 1.345
720.80 1.345
720.90 1.345
721.00 1.345
721.10 1.345
721.20 1.345
721.30 1.345
721.40 1.345
721.50 1.345
721.60 1.345
721.70 1.345
721.80 1.345
721.90 1.345
722.00 1.345
722.10 1.345
722.20 1.345
722.30 1.345
722.40 1.345
722.50 1.345
722.60 1.345
722.70 1.345
722.80 1.345
722.90 1.345
723.00 1.344
723.10 1.344
723.20 1.344
723.30 1.344
723.40 1.344
723.50 1.344
723.60 1.344
723.70 1.344
723.80 1.344
723.90 1.344
724.00 1.344
724.10 1.344
724.20 1.344
724.30 1.344
724.40 1.344
724.50 1.344
724.60 1.344
724.70 1.344
724.80 1.344
724.90 1.344
725.00 1.344
725.10 1.344
725.20 1.344
725.30 1.344
725.40 1.343
725.50 1.343
725.60 1.343
725.70 1.343
725.80 1.343
725.90 1.343
726.00 1.343
726.10 1.343
726.20 1.343
726.30 1.343
726.40 1.343
726.50 1.343
726.60 1.343
726.70 1.343
726.80 1.343
726.90 1.343
727.00 1.343
727.10 1.343
727.20 1.343
727.30 1.343
727.40 1.343
727.50 1.342
727.60 1.342
727.70 1.342
727.80 1.342
727.90 1.342
728.00 1.342
728.10 1.342
728.20 1.342
728.30 1.342
728.40 1.342
728.50 1.342
728.60 1.342
728.70 1.342
728.80 1.342
728.90 1.342
729.00 1.342
729.10 1.342
729.20 1.342
729.30 1.342
729.40 1.342
729.50 1.341
729.60 1.341
729.70 1.341
729.80 1.341
729.90 1.341
730.00 1.341
730.10 1.341
730.20 1.341
730.30 1.341
730.40 1.341
730.50 1.341
730.60 1.341
730.70 1.341
730.80 1.341
730.90 1.341
731.00 1.341
731.10 1.341
731.20 1.341
731.30 1.341
731.40 1.341
731.50 1.34
731.60 1.34
731.70 1.34
731.80 1.34
731.90 1.34
732.00 1.34
732.10 1.34
732.20 1.34
732.30 1.34
732.40 1.34
732.50 1.34
732.60 1.34
732.70 1.34
732.80 1.34
732.90 1.34
733.00 1.34
733.10 1.34
733.20 1.34
733.30 1.34
733.40 1.339
733.50 1.339
733.60 1.339
733.70 1.339
733.80 1.339
733.90 1.339
734.00 1.339
734.10 1.339
734.20 1.339
734.30 1.339
734.40 1.339
734.50 1.339
734.60 1.339
734.70 1.339
734.80 1.339
734.90 1.339
735.00 1.339
735.10 1.339
735.20 1.338
735.30 1.338
735.40 1.338
735.50 1.338
735.60 1.338
735.70 1.338
735.80 1.338
735.90 1.338
736.00 1.338
736.10 1.338
736.20 1.338
736.30 1.338
736.40 1.338
736.50 1.338
736.60 1.338
736.70 1.338
736.80 1.338
736.90 1.338
737.00 1.338
737.10 1.337
737.20 1.337
737.30 1.337
737.40 1.337
737.50 1.337
737.60 1.337
737.70 1.337
737.80 1.337
737.90 1.337
738.00 1.337
738.10 1.337
738.20 1.337
738.30 1.337
738.40 1.337
738.50 1.337
738.60 1.337
738.70 1.337
738.80 1.337
738.90 1.336
739.00 1.336
739.10 1.336
739.20 1.336
739.30 1.336
739.40 1.336
739.50 1.336
739.60 1.336
739.70 1.336
739.80 1.336
739.90 1.336
740.00 1.336
740.10 1.336
740.20 1.336
740.30 1.336
740.40 1.336
740.50 1.336
740.60 1.336
740.70 1.335
740.80 1.335
740.90 1.335
741.00 1.335
741.10 1.335
741.20 1.335
741.30 1.335
741.40 1.335
741.50 1.335
741.60 1.335
741.70 1.335
741.80 1.335
741.90 1.335
742.00 1.335
742.10 1.335
742.20 1.335
742.30 1.335
742.40 1.334
742.50 1.334
742.60 1.334
742.70 1.334
742.80 1.334
742.90 1.334
743.00 1.334
743.10 1.334
743.20 1.334
743.30 1.334
743.40 1.334
743.50 1.334
743.60 1.334
743.70 1.334
743.80 1.334
743.90 1.334
744.00 1.333
744.10 1.333
744.20 1.333
744.30 1.333
744.40 1.333
744.50 1.333
744.60 1.333
744.70 1.333
744.80 1.333
744.90 1.333
745.00 1.333
745.10 1.333
745.20 1.333
745.30 1.333
745.40 1.333
745.50 1.333
745.60 1.333
745.70 1.332
745.80 1.332
745.90 1.332
746.00 1.332
746.10 1.332
746.20 1.332
746.30 1.332
746.40 1.332
746.50 1.332
746.60 1.332
746.70 1.332
746.80 1.332
746.90 1.332
747.00 1.332
747.10 1.332
747.20 1.332
747.30 1.332
747.40 1.331
747.50 1.331
747.60 1.331
747.70 1.331
747.80 1.331
747.90 1.331
748.00 1.331
748.10 1.331
748.20 1.331
748.30 1.331
748.40 1.331
748.50 1.331
748.60 1.331
748.70 1.331
748.80 1.331
748.90 1.331
749.00 1.33
749.10 1.33
749.20 1.33
749.30 1.33
749.40 1.33
749.50 1.33
749.60 1.33
749.70 1.33
749.80 1.33
749.90 1.33
750.00 1.33
750.10 1.33
750.20 1.33
750.30 1.33
750.40 1.33
750.50 1.33
750.60 1.329
750.70 1.329
750.80 1.329
750.90 1.329
751.00 1.329
751.10 1.329
751.20 1.329
751.30 1.329
751.40 1.329
751.50 1.329
751.60 1.329
751.70 1.329
751.80 1.329
751.90 1.329
752.00 1.329
752.10 1.328
752.20 1.328
752.30 1.328
752.40 1.328
752.50 1.328
752.60 1.328
752.70 1.328
752.80 1.328
752.90 1.328
753.00 1.328
753.10 1.328
753.20 1.328
753.30 1.328
753.40 1.328
753.50 1.328
753.60 1.327
753.70 1.327
753.80 1.327
753.90 1.327
754.00 1.327
754.10 1.327
754.20 1.327
754.30 1.327
754.40 1.327
754.50 1.327
754.60 1.327
754.70 1.327
754.80 1.327
754.90 1.327
755.00 1.327
755.10 1.326
755.20 1.326
755.30 1.326
755.40 1.326
755.50 1.326
755.60 1.326
755.70 1.326
755.80 1.326
755.90 1.326
756.00 1.326
756.10 1.326
756.20 1.326
756.30 1.326
756.40 1.326
756.50 1.326
756.60 1.325
756.70 1.325
756.80 1.325
756.90 1.325
757.00 1.325
757.10 1.325
757.20 1.325
757.30 1.325
757.40 1.325
757.50 1.325
757.60 1.325
757.70 1.325
757.80 1.325
757.90 1.325
758.00 1.325
758.10 1.324
758.20 1.324
758.30 1.324
758.40 1.324
758.50 1.324
758.60 1.324
758.70 1.324
758.80 1.324
758.90 1.324
759.00 1.324
759.10 1.324
759.20 1.324
759.30 1.324
759.40 1.324
759.50 1.324
759.60 1.323
759.70 1.323
759.80 1.323
759.90 1.323
760.00 1.323
760.10 1.323
760.20 1.323
760.30 1.323
760.40 1.323
760.50 1.323
760.60 1.323
760.70 1.323
760.80 1.323
760.90 1.323
761.00 1.322
761.10 1.322
761.20 1.322
761.30 1.322
761.40 1.322
761.50 1.322
761.60 1.322
761.70 1.322
761.80 1.322
761.90 1.322
762.00 1.322
762.10 1.322
762.20 1.322
762.30 1.322
762.40 1.321
762.50 1.321
762.60 1.321
762.70 1.321
762.80 1.321
762.90 1.321
763.00 1.321
763.10 1.321
763.20 1.321
763.30 1.321
763.40 1.321
763.50 1.321
763.60 1.321
763.70 1.321
763.80 1.32
763.90 1.32
764.00 1.32
764.10 1.32
764.20 1.32
764.30 1.32
764.40 1.32
764.50 1.32
764.60 1.32
764.70 1.32
764.80 1.32
764.90 1.32
765.00 1.32
765.10 1.319
765.20 1.319
765.30 1.319
765.40 1.319
765.50 1.319
765.60 1.319
765.70 1.319
765.80 1.319
765.90 1.319
766.00 1.319
766.10 1.319
766.20 1.319
766.30 1.319
766.40 1.319
766.50 1.318
766.60 1.318
766.70 1.318
766.80 1.318
766.90 1.318
767.00 1.318
767.10 1.318
767.20 1.318
767.30 1.318
767.40 1.318
767.50 1.318
767.60 1.318
767.70 1.318
767.80 1.318
767.90 1.317
768.00 1.317
768.10 1.317
768.20 1.317
768.30 1.317
768.40 1.317
768.50 1.317
768.60 1.317
768.70 1.317
768.80 1.317
768.90 1.317
769.00 1.317
769.10 1.317
769.20 1.317
769.30 1.316
769.40 1.316
769.50 1.316
769.60 1.316
769.70 1.316
769.80 1.316
769.90 1.316
770.00 1.316
770.10 1.316
770.20 1.316
770.30 1.316
770.40 1.316
770.50 1.316
770.60 1.315
770.70 1.315
770.80 1.315
770.90 1.315
771.00 1.315
771.10 1.315
771.20 1.315
771.30 1.315
771.40 1.315
771.50 1.315
771.60 1.315
771.70 1.315
771.80 1.315
771.90 1.314
772.00 1.314
772.10 1.314
772.20 1.314
772.30 1.314
772.40 1.314
772.50 1.314
772.60 1.314
772.70 1.314
772.80 1.314
772.90 1.314
773.00 1.314
773.10 1.314
773.20 1.313
773.30 1.313
773.40 1.313
773.50 1.313
773.60 1.313
773.70 1.313
773.80 1.313
773.90 1.313
774.00 1.313
774.10 1.313
774.20 1.313
774.30 1.313
774.40 1.313
774.50 1.312
774.60 1.312
774.70 1.312
774.80 1.312
774.90 1.312
775.00 1.312
775.10 1.312
775.20 1.312
775.30 1.312
775.40 1.312
775.50 1.312
775.60 1.312
775.70 1.312
775.80 1.311
775.90 1.311
776.00 1.311
776.10 1.311
776.20 1.311
776.30 1.311
776.40 1.311
776.50 1.311
776.60 1.311
776.70 1.311
776.80 1.311
776.90 1.311
777.00 1.311
777.10 1.31
777.20 1.31
777.30 1.31
777.40 1.31
777.50 1.31
777.60 1.31
777.70 1.31
777.80 1.31
777.90 1.31
778.00 1.31
778.10 1.31
778.20 1.31
778.30 1.31
778.40 1.309
778.50 1.309
778.60 1.309
778.70 1.309
778.80 1.309
778.90 1.309
779.00 1.309
779.10 1.309
779.20 1.309
779.30 1.309
779.40 1.309
779.50 1.309
779.60 1.309
779.70 1.308
779.80 1.308
779.90 1.308
780.00 1.308
780.10 1.308
780.20 1.308
780.30 1.308
780.40 1.308
780.50 1.308
780.60 1.308
780.70 1.308
780.80 1.308
780.90 1.307
781.00 1.307
781.10 1.307
781.20 1.307
781.30 1.307
781.40 1.307
781.50 1.307
781.60 1.307
781.70 1.307
781.80 1.307
781.90 1.307
782.00 1.307
782.10 1.306
782.20 1.306
782.30 1.306
782.40 1.306
782.50 1.306
782.60 1.306
782.70 1.306
782.80 1.306
782.90 1.306
783.00 1.306
783.10 1.306
783.20 1.306
783.30 1.306
783.40 1.305
783.50 1.305
783.60 1.305
783.70 1.305
783.80 1.305
783.90 1.305
784.00 1.305
784.10 1.305
784.20 1.305
784.30 1.305
784.40 1.305
784.50 1.305
784.60 1.304
784.70 1.304
784.80 1.304
784.90 1.304
785.00 1.304
785.10 1.304
785.20 1.304
785.30 1.304
785.40 1.304
785.50 1.304
785.60 1.304
785.70 1.304
785.80 1.303
785.90 1.303
786.00 1.303
786.10 1.303
786.20 1.303
786.30 1.303
786.40 1.303
786.50 1.303
786.60 1.303
786.70 1.303
786.80 1.303
786.90 1.303
787.00 1.302
787.10 1.302
787.20 1.302
787.30 1.302
787.40 1.302
787.50 1.302
787.60 1.302
787.70 1.302
787.80 1.302
787.90 1.302
788.00 1.302
788.10 1.302
788.20 1.301
788.30 1.301
788.40 1.301
788.50 1.301
788.60 1.301
788.70 1.301
788.80 1.301
788.90 1.301
789.00 1.301
789.10 1.301
789.20 1.301
789.30 1.301
789.40 1.301
789.50 1.3
789.60 1.3
789.70 1.3
789.80 1.3
789.90 1.3
790.00 1.3
790.10 1.3
790.20 1.3
790.30 1.3
790.40 1.3
790.50 1.3
790.60 1.299
790.70 1.299
790.80 1.299
790.90 1.299
791.00 1.299
791.10 1.299
791.20 1.299
791.30 1.299
791.40 1.299
791.50 1.299
791.60 1.299
791.70 1.299
791.80 1.298
791.90 1.298
792.00 1.298
792.10 1.298
792.20 1.298
792.30 1.298
792.40 1.298
792.50 1.298
792.60 1.298
792.70 1.298
792.80 1.298
792.90 1.297
793.00 1.297
793.10 1.297
793.20 1.297
793.30 1.297
793.40 1.297
793.50 1.297
793.60 1.297
793.70 1.297
793.80 1.297
793.90 1.297
794.00 1.297
794.10 1.296
794.20 1.296
794.30 1.296
794.40 1.296
794.50 1.296
794.60 1.296
794.70 1.296
794.80 1.296
794.90 1.296
795.00 1.296
795.10 1.296
795.20 1.295
795.30 1.295
795.40 1.295
795.50 1.295
795.60 1.295
795.70 1.295
795.80 1.295
795.90 1.295
796.00 1.295
796.10 1.295
796.20 1.295
796.30 1.295
796.40 1.294
796.50 1.294
796.60 1.294
796.70 1.294
796.80 1.294
796.90 1.294
797.00 1.294
797.10 1.294
797.20 1.294
797.30 1.294
797.40 1.294
797.50 1.293
797.60 1.293
797.70 1.293
797.80 1.293
797.90 1.293
798.00 1.293
798.10 1.293
798.20 1.293
798.30 1.293
798.40 1.293
798.50 1.293
798.60 1.292
798.70 1.292
798.80 1.292
798.90 1.292
799.00 1.292
799.10 1.292
799.20 1.292
799.30 1.292
799.40 1.292
799.50 1.292
799.60 1.292
799.70 1.292
799.80 1.291
799.90 1.291
800.00 1.291
800.10 1.291
800.20 1.291
800.30 1.291
800.40 1.291
800.50 1.291
800.60 1.291
800.70 1.291
800.80 1.29
800.90 1.29
801.00 1.29
801.10 1.29
801.20 1.29
801.30 1.29
801.40 1.29
801.50 1.29
801.60 1.29
801.70 1.29
801.80 1.29
801.90 1.289
802.00 1.289
802.10 1.289
802.20 1.289
802.30 1.289
802.40 1.289
802.50 1.289
802.60 1.289
802.70 1.289
802.80 1.289
802.90 1.288
803.00 1.288
803.10 1.288
803.20 1.288
803.30 1.288
803.40 1.288
803.50 1.288
803.60 1.288
803.70 1.288
803.80 1.288
803.90 1.287
804.00 1.287
804.10 1.287
804.20 1.287
804.30 1.287
804.40 1.287
804.50 1.287
804.60 1.287
804.70 1.287
804.80 1.287
804.90 1.286
805.00 1.286
805.10 1.286
805.20 1.286
805.30 1.286
805.40 1.286
805.50 1.286
805.60 1.286
805.70 1.286
805.80 1.286
805.90 1.286
806.00 1.285
806.10 1.285
806.20 1.285
806.30 1.285
806.40 1.285
806.50 1.285
806.60 1.285
806.70 1.285
806.80 1.285
806.90 1.285
807.00 1.284
807.10 1.284
807.20 1.284
807.30 1.284
807.40 1.284
807.50 1.284
807.60 1.284
807.70 1.284
807.80 1.284
807.90 1.284
808.00 1.283
808.10 1.283
808.20 1.283
808.30 1.283
808.40 1.283
808.50 1.283
808.60 1.283
808.70 1.283
808.80 1.283
808.90 1.283
809.00 1.283
809.10 1.282
809.20 1.282
809.30 1.282
809.40 1.282
809.50 1.282
809.60 1.282
809.70 1.282
809.80 1.282
809.90 1.282
810.00 1.282
810.10 1.281
810.20 1.281
810.30 1.281
810.40 1.281
810.50 1.281
810.60 1.281
810.70 1.281
810.80 1.281
810.90 1.281
811.00 1.28
811.10 1.28
811.20 1.28
811.30 1.28
811.40 1.28
811.50 1.28
811.60 1.28
811.70 1.28
811.80 1.28
811.90 1.279
812.00 1.279
812.10 1.279
812.20 1.279
812.30 1.279
812.40 1.279
812.50 1.279
812.60 1.279
812.70 1.279
812.80 1.279
812.90 1.278
813.00 1.278
813.10 1.278
813.20 1.278
813.30 1.278
813.40 1.278
813.50 1.278
813.60 1.278
813.70 1.278
813.80 1.277
813.90 1.277
814.00 1.277
814.10 1.277
814.20 1.277
814.30 1.277
814.40 1.277
814.50 1.277
814.60 1.277
814.70 1.276
814.80 1.276
814.90 1.276
815.00 1.276
815.10 1.276
815.20 1.276
815.30 1.276
815.40 1.276
815.50 1.276
815.60 1.275
815.70 1.275
815.80 1.275
815.90 1.275
816.00 1.275
816.10 1.275
816.20 1.275
816.30 1.275
816.40 1.275
816.50 1.275
816.60 1.274
816.70 1.274
816.80 1.274
816.90 1.274
817.00 1.274
817.10 1.274
817.20 1.274
817.30 1.274
817.40 1.274
817.50 1.273
817.60 1.273
817.70 1.273
817.80 1.273
817.90 1.273
818.00 1.273
818.10 1.273
818.20 1.273
818.30 1.273
818.40 1.272
818.50 1.272
818.60 1.272
818.70 1.272
818.80 1.272
818.90 1.272
819.00 1.272
819.10 1.272
819.20 1.272
819.30 1.272
819.40 1.271
819.50 1.271
819.60 1.271
819.70 1.271
819.80 1.271
819.90 1.271
820.00 1.271
820.10 1.271
820.20 1.271
820.30 1.27
820.40 1.27
820.50 1.27
820.60 1.27
820.70 1.27
820.80 1.27
820.90 1.27
821.00 1.27
821.10 1.27
821.20 1.269
821.30 1.269
821.40 1.269
821.50 1.269
821.60 1.269
821.70 1.269
821.80 1.269
821.90 1.269
822.00 1.269
822.10 1.268
822.20 1.268
822.30 1.268
822.40 1.268
822.50 1.268
822.60 1.268
822.70 1.268
822.80 1.268
822.90 1.267
823.00 1.267
823.10 1.267
823.20 1.267
823.30 1.267
823.40 1.267
823.50 1.267
823.60 1.267
823.70 1.267
823.80 1.266
823.90 1.266
824.00 1.266
824.10 1.266
824.20 1.266
824.30 1.266
824.40 1.266
824.50 1.266
824.60 1.265
824.70 1.265
824.80 1.265
824.90 1.265
825.00 1.265
825.10 1.265
825.20 1.265
825.30 1.265
825.40 1.265
825.50 1.264
825.60 1.264
825.70 1.264
825.80 1.264
825.90 1.264
826.00 1.264
826.10 1.264
826.20 1.264
826.30 1.264
826.40 1.263
826.50 1.263
826.60 1.263
826.70 1.263
826.80 1.263
826.90 1.263
827.00 1.263
827.10 1.263
827.20 1.262
827.30 1.262
827.40 1.262
827.50 1.262
827.60 1.262
827.70 1.262
827.80 1.262
827.90 1.262
828.00 1.262
828.10 1.261
828.20 1.261
828.30 1.261
828.40 1.261
828.50 1.261
828.60 1.261
828.70 1.261
828.80 1.261
828.90 1.26
829.00 1.26
829.10 1.26
829.20 1.26
829.30 1.26
829.40 1.26
829.50 1.26
829.60 1.26
829.70 1.259
829.80 1.259
829.90 1.259
830.00 1.259
830.10 1.259
830.20 1.259
830.30 1.259
830.40 1.259
830.50 1.258
830.60 1.258
830.70 1.258
830.80 1.258
830.90 1.258
831.00 1.258
831.10 1.258
831.20 1.258
831.30 1.258
831.40 1.257
831.50 1.257
831.60 1.257
831.70 1.257
831.80 1.257
831.90 1.257
832.00 1.257
832.10 1.257
832.20 1.256
832.30 1.256
832.40 1.256
832.50 1.256
832.60 1.256
832.70 1.256
832.80 1.256
832.90 1.256
833.00 1.255
833.10 1.255
833.20 1.255
833.30 1.255
833.40 1.255
833.50 1.255
833.60 1.255
833.70 1.255
833.80 1.254
833.90 1.254
834.00 1.254
834.10 1.254
834.20 1.254
834.30 1.254
834.40 1.254
834.50 1.254
834.60 1.253
834.70 1.253
834.80 1.253
834.90 1.253
835.00 1.253
835.10 1.253
835.20 1.253
835.30 1.253
835.40 1.252
835.50 1.252
835.60 1.252
835.70 1.252
835.80 1.252
835.90 1.252
836.00 1.252
836.10 1.252
836.20 1.251
836.30 1.251
836.40 1.251
836.50 1.251
836.60 1.251
836.70 1.251
836.80 1.251
836.90 1.251
837.00 1.25
837.10 1.25
837.20 1.25
837.30 1.25
837.40 1.25
837.50 1.25
837.60 1.25
837.70 1.25
837.80 1.249
837.90 1.249
838.00 1.249
838.10 1.249
838.20 1.249
838.30 1.249
838.40 1.249
838.50 1.248
838.60 1.248
838.70 1.248
838.80 1.248
838.90 1.248
839.00 1.248
839.10 1.248
839.20 1.248
839.30 1.247
839.40 1.247
839.50 1.247
839.60 1.247
839.70 1.247
839.80 1.247
839.90 1.247
840.00 1.247
840.10 1.246
840.20 1.246
840.30 1.246
840.40 1.246
840.50 1.246
840.60 1.246
840.70 1.246
840.80 1.246
840.90 1.245
841.00 1.245
841.10 1.245
841.20 1.245
841.30 1.245
841.40 1.245
841.50 1.245
841.60 1.245
841.70 1.244
841.80 1.244
841.90 1.244
842.00 1.244
842.10 1.244
842.20 1.244
842.30 1.244
842.40 1.243
842.50 1.243
842.60 1.243
842.70 1.243
842.80 1.243
842.90 1.243
843.00 1.243
843.10 1.243
843.20 1.242
843.30 1.242
843.40 1.242
843.50 1.242
843.60 1.242
843.70 1.242
843.80 1.242
843.90 1.241
844.00 1.241
844.10 1.241
844.20 1.241
844.30 1.241
844.40 1.241
844.50 1.241
844.60 1.241
844.70 1.24
844.80 1.24
844.90 1.24
845.00 1.24
845.10 1.24
845.20 1.24
845.30 1.24
845.40 1.24
845.50 1.239
845.60 1.239
845.70 1.239
845.80 1.239
845.90 1.239
846.00 1.239
846.10 1.239
846.20 1.238
846.30 1.238
846.40 1.238
846.50 1.238
846.60 1.238
846.70 1.238
846.80 1.238
846.90 1.238
847.00 1.237
847.10 1.237
847.20 1.237
847.30 1.237
847.40 1.237
847.50 1.237
847.60 1.237
847.70 1.236
847.80 1.236
847.90 1.236
848.00 1.236
848.10 1.236
848.20 1.236
848.30 1.236
848.40 1.236
848.50 1.235
848.60 1.235
848.70 1.235
848.80 1.235
848.90 1.235
849.00 1.235
849.10 1.235
849.20 1.234
849.30 1.234
849.40 1.234
849.50 1.234
849.60 1.234
849.70 1.234
849.80 1.234
849.90 1.233
850.00 1.233
850.10 1.233
850.20 1.233
850.30 1.233
850.40 1.233
850.50 1.233
850.60 1.233
850.70 1.232
850.80 1.232
850.90 1.232
851.00 1.232
851.10 1.232
851.20 1.232
851.30 1.232
851.40 1.231
851.50 1.231
851.60 1.231
851.70 1.231
851.80 1.231
851.90 1.231
852.00 1.231
852.10 1.23
852.20 1.23
852.30 1.23
852.40 1.23
852.50 1.23
852.60 1.23
852.70 1.23
852.80 1.23
852.90 1.229
853.00 1.229
853.10 1.229
853.20 1.229
853.30 1.229
853.40 1.229
853.50 1.229
853.60 1.228
853.70 1.228
853.80 1.228
853.90 1.228
854.00 1.228
854.10 1.228
854.20 1.228
854.30 1.227
854.40 1.227
854.50 1.227
854.60 1.227
854.70 1.227
854.80 1.227
854.90 1.227
855.00 1.226
855.10 1.226
855.20 1.226
855.30 1.226
855.40 1.226
855.50 1.226
855.60 1.226
855.70 1.225
855.80 1.225
855.90 1.225
856.00 1.225
856.10 1.225
856.20 1.225
856.30 1.225
856.40 1.224
856.50 1.224
856.60 1.224
856.70 1.224
856.80 1.224
856.90 1.224
857.00 1.224
857.10 1.224
857.20 1.223
857.30 1.223
857.40 1.223
857.50 1.223
857.60 1.223
857.70 1.223
857.80 1.223
857.90 1.222
858.00 1.222
858.10 1.222
858.20 1.222
858.30 1.222
858.40 1.222
858.50 1.221
858.60 1.221
858.70 1.221
858.80 1.221
858.90 1.221
859.00 1.221
859.10 1.221
859.20 1.22
859.30 1.22
859.40 1.22
859.50 1.22
859.60 1.22
859.70 1.22
859.80 1.22
859.90 1.219
860.00 1.219
860.10 1.219
860.20 1.219
860.30 1.219
860.40 1.219
860.50 1.219
860.60 1.218
860.70 1.218
860.80 1.218
860.90 1.218
861.00 1.218
861.10 1.218
861.20 1.218
861.30 1.217
861.40 1.217
861.50 1.217
861.60 1.217
861.70 1.217
861.80 1.217
861.90 1.217
862.00 1.216
862.10 1.216
862.20 1.216
862.30 1.216
862.40 1.216
862.50 1.216
862.60 1.216
862.70 1.215
862.80 1.215
862.90 1.215
863.00 1.215
863.10 1.215
863.20 1.215
863.30 1.215
863.40 1.214
863.50 1.214
863.60 1.214
863.70 1.214
863.80 1.214
863.90 1.214
864.00 1.214
864.10 1.213
864.20 1.213
864.30 1.213
864.40 1.213
864.50 1.213
864.60 1.213
864.70 1.212
864.80 1.212
864.90 1.212
865.00 1.212
865.10 1.212
865.20 1.212
865.30 1.212
865.40 1.211
865.50 1.211
865.60 1.211
865.70 1.211
865.80 1.211
865.90 1.211
866.00 1.211
866.10 1.21
866.20 1.21
866.30 1.21
866.40 1.21
866.50 1.21
866.60 1.21
866.70 1.21
866.80 1.209
866.90 1.209
867.00 1.209
867.10 1.209
867.20 1.209
867.30 1.209
867.40 1.208
867.50 1.208
867.60 1.208
867.70 1.208
867.80 1.208
867.90 1.208
868.00 1.208
868.10 1.207
868.20 1.207
868.30 1.207
868.40 1.207
868.50 1.207
868.60 1.207
868.70 1.207
868.80 1.206
868.90 1.206
869.00 1.206
869.10 1.206
869.20 1.206
869.30 1.206
869.40 1.205
869.50 1.205
869.60 1.205
869.70 1.205
869.80 1.205
869.90 1.205
870.00 1.205
870.10 1.204
870.20 1.204
870.30 1.204
870.40 1.204
870.50 1.204
870.60 1.204
870.70 1.203
870.80 1.203
870.90 1.203
871.00 1.203
871.10 1.203
871.20 1.203
871.30 1.203
871.40 1.202
871.50 1.202
871.60 1.202
871.70 1.202
871.80 1.202
871.90 1.202
872.00 1.202
872.10 1.201
872.20 1.201
872.30 1.201
872.40 1.201
872.50 1.201
872.60 1.201
872.70 1.2
872.80 1.2
872.90 1.2
873.00 1.2
873.10 1.2
873.20 1.2
873.30 1.199
873.40 1.199
873.50 1.199
873.60 1.199
873.70 1.199
873.80 1.199
873.90 1.199
874.00 1.198
874.10 1.198
874.20 1.198
874.30 1.198
874.40 1.198
874.50 1.198
874.60 1.197
874.70 1.197
874.80 1.197
874.90 1.197
875.00 1.197
875.10 1.197
875.20 1.197
875.30 1.196
875.40 1.196
875.50 1.196
875.60 1.196
875.70 1.196
875.80 1.196
875.90 1.195
876.00 1.195
876.10 1.195
876.20 1.195
876.30 1.195
876.40 1.195
876.50 1.194
876.60 1.194
876.70 1.194
876.80 1.194
876.90 1.194
877.00 1.194
877.10 1.194
877.20 1.193
877.30 1.193
877.40 1.193
877.50 1.193
877.60 1.193
877.70 1.193
877.80 1.192
877.90 1.192
878.00 1.192
878.10 1.192
878.20 1.192
878.30 1.192
878.40 1.191
878.50 1.191
878.60 1.191
878.70 1.191
878.80 1.191
878.90 1.191
879.00 1.19
879.10 1.19
879.20 1.19
879.30 1.19
879.40 1.19
879.50 1.19
879.60 1.189
879.70 1.189
879.80 1.189
879.90 1.189
880.00 1.189
880.10 1.189
880.20 1.189
880.30 1.188
880.40 1.188
880.50 1.188
880.60 1.188
880.70 1.188
880.80 1.188
880.90 1.187
881.00 1.187
881.10 1.187
881.20 1.187
881.30 1.187
881.40 1.187
881.50 1.186
881.60 1.186
881.70 1.186
881.80 1.186
881.90 1.186
882.00 1.186
882.10 1.185
882.20 1.185
882.30 1.185
882.40 1.185
882.50 1.185
882.60 1.185
882.70 1.184
882.80 1.184
882.90 1.184
883.00 1.184
883.10 1.184
883.20 1.184
883.30 1.183
883.40 1.183
883.50 1.183
883.60 1.183
883.70 1.183
883.80 1.183
883.90 1.182
884.00 1.182
884.10 1.182
884.20 1.182
884.30 1.182
884.40 1.182
884.50 1.181
884.60 1.181
884.70 1.181
884.80 1.181
884.90 1.181
885.00 1.181
885.10 1.18
885.20 1.18
885.30 1.18
885.40 1.18
885.50 1.18
885.60 1.18
885.70 1.179
885.80 1.179
885.90 1.179
886.00 1.179
886.10 1.179
886.20 1.179
886.30 1.178
886.40 1.178
886.50 1.178
886.60 1.178
886.70 1.178
886.80 1.178
886.90 1.177
887.00 1.177
887.10 1.177
887.20 1.177
887.30 1.177
887.40 1.177
887.50 1.176
887.60 1.176
887.70 1.176
887.80 1.176
887.90 1.176
888.00 1.175
888.10 1.175
888.20 1.175
888.30 1.175
888.40 1.175
888.50 1.175
888.60 1.174
888.70 1.174
888.80 1.174
888.90 1.174
889.00 1.174
889.10 1.174
889.20 1.173
889.30 1.173
889.40 1.173
889.50 1.173
889.60 1.173
889.70 1.172
889.80 1.172
889.90 1.172
890.00 1.172
890.10 1.172
890.20 1.172
890.30 1.171
890.40 1.171
890.50 1.171
890.60 1.171
890.70 1.171
890.80 1.171
890.90 1.17
891.00 1.17
891.10 1.17
891.20 1.17
891.30 1.17
891.40 1.17
891.50 1.169
891.60 1.169
891.70 1.169
891.80 1.169
891.90 1.169
892.00 1.168
892.10 1.168
892.20 1.168
892.30 1.168
892.40 1.168
892.50 1.168
892.60 1.167
892.70 1.167
892.80 1.167
892.90 1.167
893.00 1.167
893.10 1.167
893.20 1.166
893.30 1.166
893.40 1.166
893.50 1.166
893.60 1.166
893.70 1.166
893.80 1.165
893.90 1.165
894.00 1.165
894.10 1.165
894.20 1.165
894.30 1.165
894.40 1.164
894.50 1.164
894.60 1.164
894.70 1.164
894.80 1.164
894.90 1.164
895.00 1.163
895.10 1.163
895.20 1.163
895.30 1.163
895.40 1.163
895.50 1.163
895.60 1.162
895.70 1.162
895.80 1.162
895.90 1.162
896.00 1.162
896.10 1.162
896.20 1.161
896.30 1.161
896.40 1.161
896.50 1.161
896.60 1.161
896.70 1.161
896.80 1.16
896.90 1.16
897.00 1.16
897.10 1.16
897.20 1.16
897.30 1.159
897.40 1.159
897.50 1.159
897.60 1.159
897.70 1.159
897.80 1.159
897.90 1.158
898.00 1.158
898.10 1.158
898.20 1.158
898.30 1.158
898.40 1.157
898.50 1.157
898.60 1.157
898.70 1.157
898.80 1.157
898.90 1.156
899.00 1.156
899.10 1.156
899.20 1.156
899.30 1.156
899.40 1.155
899.50 1.155
899.60 1.155
899.70 1.155
899.80 1.155
899.90 1.154
900.00 1.154
900.10 1.154
900.20 1.154
900.30 1.154
900.40 1.154
900.50 1.153
900.60 1.153
900.70 1.153
900.80 1.153
900.90 1.153
901.00 1.152
901.10 1.152
901.20 1.152
901.30 1.152
901.40 1.152
901.50 1.151
901.60 1.151
901.70 1.151
901.80 1.151
901.90 1.151
902.00 1.151
902.10 1.15
902.20 1.15
902.30 1.15
902.40 1.15
902.50 1.149
902.60 1.149
902.70 1.149
902.80 1.149
902.90 1.148
903.00 1.148
903.10 1.148
903.20 1.148
903.30 1.147
903.40 1.147
903.50 1.147
903.60 1.147
903.70 1.147
903.80 1.146
903.90 1.146
904.00 1.146
904.10 1.146
904.20 1.145
904.30 1.145
904.40 1.145
904.50 1.145
904.60 1.144
904.70 1.144
904.80 1.144
904.90 1.144
905.00 1.144
905.10 1.143
905.20 1.143
905.30 1.143
905.40 1.143
905.50 1.142
905.60 1.142
905.70 1.142
905.80 1.142
905.90 1.141
906.00 1.141
906.10 1.141
906.20 1.141
906.30 1.141
906.40 1.14
906.50 1.14
906.60 1.14
906.70 1.14
906.80 1.139
906.90 1.139
907.00 1.139
907.10 1.139
907.20 1.139
907.30 1.138
907.40 1.138
907.50 1.138
907.60 1.138
907.70 1.137
907.80 1.137
907.90 1.137
908.00 1.137
908.10 1.137
908.20 1.136
908.30 1.136
908.40 1.136
908.50 1.136
908.60 1.136
908.70 1.135
908.80 1.135
908.90 1.135
909.00 1.135
909.10 1.134
909.20 1.134
909.30 1.134
909.40 1.134
909.50 1.134
909.60 1.133
909.70 1.133
909.80 1.133
909.90 1.133
910.00 1.133
910.10 1.132
910.20 1.132
910.30 1.132
910.40 1.132
910.50 1.131
910.60 1.131
910.70 1.131
910.80 1.131
910.90 1.131
911.00 1.13
911.10 1.13
911.20 1.13
911.30 1.13
911.40 1.13
911.50 1.129
911.60 1.129
911.70 1.129
911.80 1.129
911.90 1.128
912.00 1.128
912.10 1.128
912.20 1.128
912.30 1.128
912.40 1.127
912.50 1.127
912.60 1.127
912.70 1.127
912.80 1.127
912.90 1.126
913.00 1.126
913.10 1.126
913.20 1.126
913.30 1.126
913.40 1.125
913.50 1.125
913.60 1.125
913.70 1.125
913.80 1.125
913.90 1.124
914.00 1.124
914.10 1.124
914.20 1.124
914.30 1.124
914.40 1.123
914.50 1.123
914.60 1.123
914.70 1.123
914.80 1.123
914.90 1.122
915.00 1.122
915.10 1.122
915.20 1.122
915.30 1.122
915.40 1.121
915.50 1.121
915.60 1.121
915.70 1.121
915.80 1.121
915.90 1.12
916.00 1.12
916.10 1.12
916.20 1.12
916.30 1.12
916.40 1.119
916.50 1.119
916.60 1.119
916.70 1.119
916.80 1.119
916.90 1.118
917.00 1.118
917.10 1.118
917.20 1.118
917.30 1.118
917.40 1.117
917.50 1.117
917.60 1.117
917.70 1.117
917.80 1.117
917.90 1.116
918.00 1.116
918.10 1.116
918.20 1.116
918.30 1.115
918.40 1.115
918.50 1.115
918.60 1.115
918.70 1.115
918.80 1.114
918.90 1.114
919.00 1.114
919.10 1.114
919.20 1.113
919.30 1.113
919.40 1.113
919.50 1.113
919.60 1.113
919.70 1.112
919.80 1.112
919.90 1.112
920.00 1.112
920.10 1.112
920.20 1.111
920.30 1.111
920.40 1.111
920.50 1.111
920.60 1.11
920.70 1.11
920.80 1.11
920.90 1.11
921.00 1.11
921.10 1.109
921.20 1.109
921.30 1.109
921.40 1.109
921.50 1.108
921.60 1.108
921.70 1.108
921.80 1.108
921.90 1.108
922.00 1.107
922.10 1.107
922.20 1.107
922.30 1.107
922.40 1.106
922.50 1.106
922.60 1.106
922.70 1.106
922.80 1.106
922.90 1.105
923.00 1.105
923.10 1.105
923.20 1.105
923.30 1.104
923.40 1.104
923.50 1.104
923.60 1.104
923.70 1.104
923.80 1.103
923.90 1.103
924.00 1.103
924.10 1.103
924.20 1.102
924.30 1.102
924.40 1.102
924.50 1.102
924.60 1.102
924.70 1.101
924.80 1.101
924.90 1.101
925.00 1.101
925.10 1.1
925.20 1.1
925.30 1.1
925.40 1.1
925.50 1.1
925.60 1.099
925.70 1.099
925.80 1.099
925.90 1.099
926.00 1.098
926.10 1.098
926.20 1.098
926.30 1.098
926.40 1.098
926.50 1.097
926.60 1.097
926.70 1.097
926.80 1.097
926.90 1.096
927.00 1.096
927.10 1.096
927.20 1.096
927.30 1.096
927.40 1.095
927.50 1.095
927.60 1.095
927.70 1.095
927.80 1.094
927.90 1.094
928.00 1.094
928.10 1.094
928.20 1.093
928.30 1.093
928.40 1.093
928.50 1.093
928.60 1.093
928.70 1.092
928.80 1.092
928.90 1.092
929.00 1.092
929.10 1.091
929.20 1.091
929.30 1.091
929.40 1.091
929.50 1.09
929.60 1.09
929.70 1.09
929.80 1.09
929.90 1.09
930.00 1.089
930.10 1.089
930.20 1.089
930.30 1.089
930.40 1.088
930.50 1.088
930.60 1.088
930.70 1.088
930.80 1.087
930.90 1.087
931.00 1.087
931.10 1.087
931.20 1.087
931.30 1.086
931.40 1.086
931.50 1.086
931.60 1.086
931.70 1.085
931.80 1.085
931.90 1.085
932.00 1.085
932.10 1.084
932.20 1.084
932.30 1.084
932.40 1.084
932.50 1.084
932.60 1.083
932.70 1.083
932.80 1.083
932.90 1.083
933.00 1.082
933.10 1.082
933.20 1.082
933.30 1.082
933.40 1.081
933.50 1.081
933.60 1.081
933.70 1.081
933.80 1.08
933.90 1.08
934.00 1.08
934.10 1.08
934.20 1.08
934.30 1.079
934.40 1.079
934.50 1.079
934.60 1.079
934.70 1.078
934.80 1.078
934.90 1.078
935.00 1.078
935.10 1.077
935.20 1.077
935.30 1.077
935.40 1.077
935.50 1.076
935.60 1.076
935.70 1.076
935.80 1.076
935.90 1.075
936.00 1.075
936.10 1.075
936.20 1.075
936.30 1.074
936.40 1.074
936.50 1.074
936.60 1.074
936.70 1.074
936.80 1.073
936.90 1.073
937.00 1.073
937.10 1.073
937.20 1.072
937.30 1.072
937.40 1.072
937.50 1.072
937.60 1.071
937.70 1.071
937.80 1.071
937.90 1.071
938.00 1.07
938.10 1.07
938.20 1.07
938.30 1.07
938.40 1.069
938.50 1.069
938.60 1.069
938.70 1.069
938.80 1.068
938.90 1.068
939.00 1.068
939.10 1.068
939.20 1.067
939.30 1.067
939.40 1.067
939.50 1.067
939.60 1.066
939.70 1.066
939.80 1.066
939.90 1.066
940.00 1.065
940.10 1.065
940.20 1.065
940.30 1.065
940.40 1.064
940.50 1.064
940.60 1.064
940.70 1.064
940.80 1.064
940.90 1.063
941.00 1.063
941.10 1.063
941.20 1.063
941.30 1.062
941.40 1.062
941.50 1.062
941.60 1.062
941.70 1.061
941.80 1.061
941.90 1.061
942.00 1.061
942.10 1.06
942.20 1.06
942.30 1.06
942.40 1.06
942.50 1.059
942.60 1.059
942.70 1.059
942.80 1.059
942.90 1.058
943.00 1.058
943.10 1.058
943.20 1.058
943.30 1.057
943.40 1.057
943.50 1.057
943.60 1.057
943.70 1.056
943.80 1.056
943.90 1.056
944.00 1.056
944.10 1.055
944.20 1.055
944.30 1.055
944.40 1.055
944.50 1.054
944.60 1.054
944.70 1.054
944.80 1.054
944.90 1.053
945.00 1.053
945.10 1.053
945.20 1.053
945.30 1.052
945.40 1.052
945.50 1.052
945.60 1.052
945.70 1.051
945.80 1.051
945.90 1.051
946.00 1.051
946.10 1.05
946.20 1.05
946.30 1.05
946.40 1.049
946.50 1.049
946.60 1.049
946.70 1.049
946.80 1.048
946.90 1.048
947.00 1.048
947.10 1.048
947.20 1.047
947.30 1.047
947.40 1.047
947.50 1.047
947.60 1.046
947.70 1.046
947.80 1.046
947.90 1.046
948.00 1.045
948.10 1.045
948.20 1.045
948.30 1.045
948.40 1.044
948.50 1.044
948.60 1.044
948.70 1.044
948.80 1.043
948.90 1.043
949.00 1.043
949.10 1.043
949.20 1.042
949.30 1.042
949.40 1.042
949.50 1.042
949.60 1.041
949.70 1.041
949.80 1.041
949.90 1.04
950.00 1.04
950.10 1.04
950.20 1.04
950.30 1.039
950.40 1.039
950.50 1.039
950.60 1.039
950.70 1.038
950.80 1.038
950.90 1.038
951.00 1.038
951.10 1.037
951.20 1.037
951.30 1.037
951.40 1.037
951.50 1.036
951.60 1.036
951.70 1.036
951.80 1.036
951.90 1.035
952.00 1.035
952.10 1.035
952.20 1.035
952.30 1.034
952.40 1.034
952.50 1.034
952.60 1.033
952.70 1.033
952.80 1.033
952.90 1.033
953.00 1.032
953.10 1.032
953.20 1.032
953.30 1.032
953.40 1.031
953.50 1.031
953.60 1.031
953.70 1.031
953.80 1.03
953.90 1.03
954.00 1.03
954.10 1.03
954.20 1.029
954.30 1.029
954.40 1.029
954.50 1.028
954.60 1.028
954.70 1.028
954.80 1.028
954.90 1.027
955.00 1.027
955.10 1.027
955.20 1.027
955.30 1.026
955.40 1.026
955.50 1.026
955.60 1.026
955.70 1.025
955.80 1.025
955.90 1.025
956.00 1.025
956.10 1.024
956.20 1.024
956.30 1.024
956.40 1.023
956.50 1.023
956.60 1.023
956.70 1.023
956.80 1.022
956.90 1.022
957.00 1.022
957.10 1.022
957.20 1.021
957.30 1.021
957.40 1.021
957.50 1.021
957.60 1.02
957.70 1.02
957.80 1.02
957.90 1.019
958.00 1.019
958.10 1.019
958.20 1.019
958.30 1.018
958.40 1.018
958.50 1.018
958.60 1.018
958.70 1.017
958.80 1.017
958.90 1.017
959.00 1.017
959.10 1.016
959.20 1.016
959.30 1.016
959.40 1.015
959.50 1.015
959.60 1.015
959.70 1.015
959.80 1.014
959.90 1.014
960.00 1.014
960.10 1.014
960.20 1.013
960.30 1.013
960.40 1.013
960.50 1.013
960.60 1.012
960.70 1.012
960.80 1.012
960.90 1.011
961.00 1.011
961.10 1.011
961.20 1.011
961.30 1.01
961.40 1.01
961.50 1.01
961.60 1.01
961.70 1.009
961.80 1.009
961.90 1.009
962.00 1.008
962.10 1.008
962.20 1.008
962.30 1.008
962.40 1.007
962.50 1.007
962.60 1.007
962.70 1.007
962.80 1.006
962.90 1.006
963.00 1.006
963.10 1.006
963.20 1.005
963.30 1.005
963.40 1.005
963.50 1.004
963.60 1.004
963.70 1.004
963.80 1.004
963.90 1.003
964.00 1.003
964.10 1.003
964.20 1.003
964.30 1.002
964.40 1.002
964.50 1.002
964.60 1.001
964.70 1.001
964.80 1.001
964.90 1.001
965.00 1
965.10 1
965.20 0.9998
965.30 0.9996
965.40 0.9993
965.50 0.999
965.60 0.9987
965.70 0.9985
965.80 0.9982
965.90 0.9979
966.00 0.9977
966.10 0.9974
966.20 0.9971
966.30 0.9968
966.40 0.9966
966.50 0.9963
966.60 0.996
966.70 0.9957
966.80 0.9955
966.90 0.9952
967.00 0.9949
967.10 0.9947
967.20 0.9944
967.30 0.9941
967.40 0.9939
967.50 0.9936
967.60 0.9933
967.70 0.993
967.80 0.9928
967.90 0.9925
968.00 0.9922
968.10 0.992
968.20 0.9917
968.30 0.9914
968.40 0.9911
968.50 0.9909
968.60 0.9906
968.70 0.9903
968.80 0.9901
968.90 0.9898
969.00 0.9895
969.10 0.9892
969.20 0.989
969.30 0.9887
969.40 0.9884
969.50 0.9881
969.60 0.9879
969.70 0.9876
969.80 0.9873
969.90 0.9871
970.00 0.9868
970.10 0.9865
970.20 0.9862
970.30 0.986
970.40 0.9857
970.50 0.9854
970.60 0.9851
970.70 0.9849
970.80 0.9846
970.90 0.9843
971.00 0.9841
971.10 0.9838
971.20 0.9835
971.30 0.9832
971.40 0.983
971.50 0.9827
971.60 0.9824
971.70 0.9822
971.80 0.9819
971.90 0.9816
972.00 0.9813
972.10 0.9811
972.20 0.9808
972.30 0.9805
972.40 0.9803
972.50 0.98
972.60 0.9797
972.70 0.9794
972.80 0.9792
972.90 0.9789
973.00 0.9786
973.10 0.9783
973.20 0.9781
973.30 0.9778
973.40 0.9775
973.50 0.9772
973.60 0.977
973.70 0.9767
973.80 0.9764
973.90 0.9762
974.00 0.9759
974.10 0.9756
974.20 0.9753
974.30 0.9751
974.40 0.9748
974.50 0.9745
974.60 0.9742
974.70 0.974
974.80 0.9737
974.90 0.9734
975.00 0.9731
975.10 0.9729
975.20 0.9726
975.30 0.9723
975.40 0.972
975.50 0.9718
975.60 0.9715
975.70 0.9712
975.80 0.9709
975.90 0.9707
976.00 0.9704
976.10 0.9701
976.20 0.9698
976.30 0.9696
976.40 0.9693
976.50 0.969
976.60 0.9688
976.70 0.9685
976.80 0.9682
976.90 0.9679
977.00 0.9677
977.10 0.9674
977.20 0.9671
977.30 0.9668
977.40 0.9666
977.50 0.9663
977.60 0.966
977.70 0.9657
977.80 0.9655
977.90 0.9652
978.00 0.9649
978.10 0.9646
978.20 0.9644
978.30 0.9641
978.40 0.9638
978.50 0.9635
978.60 0.9633
978.70 0.963
978.80 0.9627
978.90 0.9625
979.00 0.9622
979.10 0.9619
979.20 0.9616
979.30 0.9614
979.40 0.9611
979.50 0.9608
979.60 0.9605
979.70 0.9603
979.80 0.96
979.90 0.9597
980.00 0.9595
980.10 0.9592
980.20 0.9589
980.30 0.9586
980.40 0.9584
980.50 0.9581
980.60 0.9578
980.70 0.9576
980.80 0.9573
980.90 0.957
981.00 0.9567
981.10 0.9565
981.20 0.9562
981.30 0.9559
981.40 0.9557
981.50 0.9554
981.60 0.9551
981.70 0.9548
981.80 0.9546
981.90 0.9543
982.00 0.954
982.10 0.9538
982.20 0.9535
982.30 0.9532
982.40 0.9529
982.50 0.9527
982.60 0.9524
982.70 0.9521
982.80 0.9519
982.90 0.9516
983.00 0.9513
983.10 0.951
983.20 0.9508
983.30 0.9505
983.40 0.9502
983.50 0.95
983.60 0.9497
983.70 0.9494
983.80 0.9492
983.90 0.9489
984.00 0.9486
984.10 0.9483
984.20 0.9481
984.30 0.9478
984.40 0.9475
984.50 0.9473
984.60 0.947
984.70 0.9467
984.80 0.9465
984.90 0.9462
985.00 0.9459
985.10 0.9456
985.20 0.9454
985.30 0.9451
985.40 0.9448
985.50 0.9446
985.60 0.9443
985.70 0.944
985.80 0.9438
985.90 0.9435
986.00 0.9432
986.10 0.943
986.20 0.9427
986.30 0.9424
986.40 0.9422
986.50 0.9419
986.60 0.9416
986.70 0.9414
986.80 0.9411
986.90 0.9408
987.00 0.9406
987.10 0.9403
987.20 0.94
987.30 0.9397
987.40 0.9395
987.50 0.9392
987.60 0.9389
987.70 0.9387
987.80 0.9384
987.90 0.9381
988.00 0.9378
988.10 0.9376
988.20 0.9373
988.30 0.937
988.40 0.9367
988.50 0.9365
988.60 0.9362
988.70 0.9359
988.80 0.9357
988.90 0.9354
989.00 0.9351
989.10 0.9348
989.20 0.9346
989.30 0.9343
989.40 0.934
989.50 0.9338
989.60 0.9335
989.70 0.9332
989.80 0.9329
989.90 0.9327
990.00 0.9324
990.10 0.9321
990.20 0.9319
990.30 0.9316
990.40 0.9313
990.50 0.9311
990.60 0.9308
990.70 0.9305
990.80 0.9302
990.90 0.93
991.00 0.9297
991.10 0.9294
991.20 0.9292
991.30 0.9289
991.40 0.9286
991.50 0.9283
991.60 0.9281
991.70 0.9278
991.80 0.9275
991.90 0.9273
992.00 0.927
992.10 0.9267
992.20 0.9264
992.30 0.9262
992.40 0.9259
992.50 0.9256
992.60 0.9254
992.70 0.9251
992.80 0.9248
992.90 0.9245
993.00 0.9243
993.10 0.924
993.20 0.9237
993.30 0.9235
993.40 0.9232
993.50 0.9229
993.60 0.9226
993.70 0.9224
993.80 0.9221
993.90 0.9218
994.00 0.9216
994.10 0.9213
994.20 0.921
994.30 0.9207
994.40 0.9205
994.50 0.9202
994.60 0.9199
994.70 0.9197
994.80 0.9194
994.90 0.9191
995.00 0.9188
995.10 0.9185
995.20 0.9182
995.30 0.9179
995.40 0.9177
995.50 0.9174
995.60 0.9171
995.70 0.9168
995.80 0.9166
995.90 0.9163
996.00 0.916
996.10 0.9157
996.20 0.9155
996.30 0.9152
996.40 0.9149
996.50 0.9147
996.60 0.9144
996.70 0.9141
996.80 0.9138
996.90 0.9136
997.00 0.9133
997.10 0.913
997.20 0.9128
997.30 0.9125
997.40 0.9122
997.50 0.9119
997.60 0.9117
997.70 0.9114
997.80 0.9111
997.90 0.9109
998.00 0.9106
998.10 0.9103
998.20 0.9101
998.30 0.9098
998.40 0.9096
998.50 0.9093
998.60 0.909
998.70 0.9088
998.80 0.9085
998.90 0.9082
999.00 0.908
999.10 0.9077
999.20 0.9074
999.30 0.9072
999.40 0.9069
999.50 0.9066
999.60 0.9064
999.70 0.9061
999.80 0.9058
999.90 0.9056
1000.00 0.9053
1000.10 0.905
1000.20 0.9048
1000.30 0.9045
1000.40 0.9043
1000.50 0.904
1000.60 0.9037
1000.70 0.9035
1000.80 0.9032
1000.90 0.9029
1001.00 0.9027
1001.10 0.9024
1001.20 0.9021
1001.30 0.9019
1001.40 0.9016
1001.50 0.9013
1001.60 0.9011
1001.70 0.9008
1001.80 0.9006
1001.90 0.9003
1002.00 0.9001
1002.10 0.8998
1002.20 0.8995
1002.30 0.8993
1002.40 0.899
1002.50 0.8987
1002.60 0.8985
1002.70 0.8982
1002.80 0.898
1002.90 0.8977
1003.00 0.8974
1003.10 0.8972
1003.20 0.8969
1003.30 0.8967
1003.40 0.8964
1003.50 0.8961
1003.60 0.8959
1003.70 0.8956
1003.80 0.8954
1003.90 0.8951
1004.00 0.8949
1004.10 0.8946
1004.20 0.8943
1004.30 0.8941
1004.40 0.8938
1004.50 0.8936
1004.60 0.8933
1004.70 0.893
1004.80 0.8928
1004.90 0.8925
1005.00 0.8923
1005.10 0.892
1005.20 0.8917
1005.30 0.8915
1005.40 0.8912
1005.50 0.891
1005.60 0.8907
1005.70 0.8905
1005.80 0.8902
1005.90 0.89
1006.00 0.8897
1006.10 0.8895
1006.20 0.8892
1006.30 0.8889
1006.40 0.8887
1006.50 0.8884
1006.60 0.8882
1006.70 0.8879
1006.80 0.8877
1006.90 0.8874
1007.00 0.8871
1007.10 0.8869
1007.20 0.8866
1007.30 0.8864
1007.40 0.8861
1007.50 0.8859
1007.60 0.8856
1007.70 0.8854
1007.80 0.8851
1007.90 0.8849
1008.00 0.8846
1008.10 0.8844
1008.20 0.8841
1008.30 0.8839
1008.40 0.8836
1008.50 0.8834
1008.60 0.8831
1008.70 0.8829
1008.80 0.8826
1008.90 0.8824
1009.00 0.8821
1009.10 0.8819
1009.20 0.8816
1009.30 0.8814
1009.40 0.8811
1009.50 0.8809
1009.60 0.8806
1009.70 0.8804
1009.80 0.8801
1009.90 0.8799
1010.00 0.8796
1010.10 0.8794
1010.20 0.8792
1010.30 0.8789
1010.40 0.8787
1010.50 0.8784
1010.60 0.8782
1010.70 0.8779
1010.80 0.8777
1010.90 0.8774
1011.00 0.8772
1011.10 0.877
1011.20 0.8767
1011.30 0.8765
1011.40 0.8762
1011.50 0.876
1011.60 0.8757
1011.70 0.8755
1011.80 0.8752
1011.90 0.875
1012.00 0.8748
1012.10 0.8745
1012.20 0.8743
1012.30 0.874
1012.40 0.8738
1012.50 0.8735
1012.60 0.8733
1012.70 0.873
1012.80 0.8728
1012.90 0.8726
1013.00 0.8723
1013.10 0.8721
1013.20 0.8718
1013.30 0.8716
1013.40 0.8713
1013.50 0.8711
1013.60 0.8709
1013.70 0.8706
1013.80 0.8704
1013.90 0.8701
1014.00 0.8699
1014.10 0.8697
1014.20 0.8694
1014.30 0.8692
1014.40 0.8689
1014.50 0.8687
1014.60 0.8685
1014.70 0.8682
1014.80 0.868
1014.90 0.8678
1015.00 0.8675
1015.10 0.8673
1015.20 0.8671
1015.30 0.8668
1015.40 0.8666
1015.50 0.8664
1015.60 0.8661
1015.70 0.8659
1015.80 0.8657
1015.90 0.8654
1016.00 0.8652
1016.10 0.865
1016.20 0.8647
1016.30 0.8645
1016.40 0.8643
1016.50 0.8641
1016.60 0.8638
1016.70 0.8636
1016.80 0.8634
1016.90 0.8631
1017.00 0.8629
1017.10 0.8627
1017.20 0.8624
1017.30 0.8622
1017.40 0.862
1017.50 0.8617
1017.60 0.8615
1017.70 0.8613
1017.80 0.861
1017.90 0.8608
1018.00 0.8606
1018.10 0.8603
1018.20 0.8601
1018.30 0.8599
1018.40 0.8596
1018.50 0.8594
1018.60 0.8592
1018.70 0.8589
1018.80 0.8587
1018.90 0.8585
1019.00 0.8582
1019.10 0.858
1019.20 0.8578
1019.30 0.8576
1019.40 0.8573
1019.50 0.8571
1019.60 0.8569
1019.70 0.8566
1019.80 0.8564
1019.90 0.8562
1020.00 0.8559
1020.10 0.8557
1020.20 0.8555
1020.30 0.8552
1020.40 0.855
1020.50 0.8548
1020.60 0.8545
1020.70 0.8543
1020.80 0.8541
1020.90 0.8538
1021.00 0.8536
1021.10 0.8534
1021.20 0.8532
1021.30 0.8529
1021.40 0.8527
1021.50 0.8525
1021.60 0.8523
1021.70 0.852
1021.80 0.8518
1021.90 0.8516
1022.00 0.8513
1022.10 0.8511
1022.20 0.8509
1022.30 0.8507
1022.40 0.8504
1022.50 0.8502
1022.60 0.85
1022.70 0.8498
1022.80 0.8495
1022.90 0.8493
1023.00 0.8491
1023.10 0.8489
1023.20 0.8486
1023.30 0.8484
1023.40 0.8482
1023.50 0.848
1023.60 0.8477
1023.70 0.8475
1023.80 0.8473
1023.90 0.847
1024.00 0.8468
1024.10 0.8466
1024.20 0.8464
1024.30 0.8461
1024.40 0.8459
1024.50 0.8457
1024.60 0.8455
1024.70 0.8452
1024.80 0.845
1024.90 0.8448
1025.00 0.8446
1025.10 0.8443
1025.20 0.8441
1025.30 0.8439
1025.40 0.8437
1025.50 0.8435
1025.60 0.8432
1025.70 0.843
1025.80 0.8428
1025.90 0.8426
1026.00 0.8423
1026.10 0.8421
1026.20 0.8419
1026.30 0.8417
1026.40 0.8414
1026.50 0.8412
1026.60 0.841
1026.70 0.8408
1026.80 0.8405
1026.90 0.8403
1027.00 0.8401
1027.10 0.8399
1027.20 0.8397
1027.30 0.8394
1027.40 0.8392
1027.50 0.839
1027.60 0.8388
1027.70 0.8386
1027.80 0.8384
1027.90 0.8381
1028.00 0.8379
1028.10 0.8377
1028.20 0.8375
1028.30 0.8373
1028.40 0.837
1028.50 0.8368
1028.60 0.8366
1028.70 0.8364
1028.80 0.8362
1028.90 0.836
1029.00 0.8357
1029.10 0.8355
1029.20 0.8353
1029.30 0.8351
1029.40 0.8349
1029.50 0.8347
1029.60 0.8344
1029.70 0.8342
1029.80 0.834
1029.90 0.8338
1030.00 0.8336
1030.10 0.8334
1030.20 0.8332
1030.30 0.8329
1030.40 0.8327
1030.50 0.8325
1030.60 0.8323
1030.70 0.8321
1030.80 0.8319
1030.90 0.8316
1031.00 0.8314
1031.10 0.8312
1031.20 0.831
1031.30 0.8308
1031.40 0.8306
1031.50 0.8303
1031.60 0.8301
1031.70 0.8299
1031.80 0.8297
1031.90 0.8295
1032.00 0.8293
1032.10 0.8291
1032.20 0.8289
1032.30 0.8286
1032.40 0.8284
1032.50 0.8282
1032.60 0.828
1032.70 0.8278
1032.80 0.8276
1032.90 0.8274
1033.00 0.8272
1033.10 0.827
1033.20 0.8268
1033.30 0.8266
1033.40 0.8263
1033.50 0.8261
1033.60 0.8259
1033.70 0.8257
1033.80 0.8255
1033.90 0.8253
1034.00 0.8251
1034.10 0.8249
1034.20 0.8247
1034.30 0.8245
1034.40 0.8243
1034.50 0.8241
1034.60 0.8239
1034.70 0.8236
1034.80 0.8234
1034.90 0.8232
1035.00 0.823
1035.10 0.8228
1035.20 0.8226
1035.30 0.8224
1035.40 0.8222
1035.50 0.822
1035.60 0.8218
1035.70 0.8216
1035.80 0.8214
1035.90 0.8212
1036.00 0.8209
1036.10 0.8207
1036.20 0.8205
1036.30 0.8203
1036.40 0.8201
1036.50 0.8199
1036.60 0.8197
1036.70 0.8195
1036.80 0.8193
1036.90 0.8191
1037.00 0.8189
1037.10 0.8187
1037.20 0.8185
1037.30 0.8183
1037.40 0.8181
1037.50 0.8179
1037.60 0.8177
1037.70 0.8175
1037.80 0.8173
1037.90 0.8171
1038.00 0.8169
1038.10 0.8167
1038.20 0.8165
1038.30 0.8163
1038.40 0.8161
1038.50 0.8159
1038.60 0.8157
1038.70 0.8155
1038.80 0.8153
1038.90 0.8151
1039.00 0.8149
1039.10 0.8147
1039.20 0.8145
1039.30 0.8143
1039.40 0.8141
1039.50 0.8139
1039.60 0.8137
1039.70 0.8135
1039.80 0.8133
1039.90 0.8131
1040.00 0.8129
1040.10 0.8127
1040.20 0.8125
1040.30 0.8123
1040.40 0.8121
1040.50 0.8119
1040.60 0.8117
1040.70 0.8115
1040.80 0.8113
1040.90 0.8111
1041.00 0.8109
1041.10 0.8107
1041.20 0.8105
1041.30 0.8103
1041.40 0.8101
1041.50 0.8099
1041.60 0.8097
1041.70 0.8095
1041.80 0.8093
1041.90 0.8091
1042.00 0.8089
1042.10 0.8087
1042.20 0.8086
1042.30 0.8084
1042.40 0.8082
1042.50 0.808
1042.60 0.8078
1042.70 0.8076
1042.80 0.8074
1042.90 0.8072
1043.00 0.807
1043.10 0.8068
1043.20 0.8067
1043.30 0.8065
1043.40 0.8063
1043.50 0.8061
1043.60 0.8059
1043.70 0.8057
1043.80 0.8055
1043.90 0.8053
1044.00 0.8051
1044.10 0.8049
1044.20 0.8048
1044.30 0.8046
1044.40 0.8044
1044.50 0.8042
1044.60 0.804
1044.70 0.8038
1044.80 0.8036
1044.90 0.8034
1045.00 0.8032
1045.10 0.8031
1045.20 0.8029
1045.30 0.8027
1045.40 0.8025
1045.50 0.8023
1045.60 0.8021
1045.70 0.8019
1045.80 0.8017
1045.90 0.8015
1046.00 0.8014
1046.10 0.8012
1046.20 0.801
1046.30 0.8008
1046.40 0.8006
1046.50 0.8004
1046.60 0.8002
1046.70 0.8
1046.80 0.7998
1046.90 0.7997
1047.00 0.7995
1047.10 0.7993
1047.20 0.7991
1047.30 0.7989
1047.40 0.7987
1047.50 0.7986
1047.60 0.7984
1047.70 0.7982
1047.80 0.798
1047.90 0.7978
1048.00 0.7977
1048.10 0.7975
1048.20 0.7973
1048.30 0.7971
1048.40 0.7969
1048.50 0.7967
1048.60 0.7966
1048.70 0.7964
1048.80 0.7962
1048.90 0.796
1049.00 0.7958
1049.10 0.7957
1049.20 0.7955
1049.30 0.7953
1049.40 0.7951
1049.50 0.7949
1049.60 0.7948
1049.70 0.7946
1049.80 0.7944
1049.90 0.7942
1050.00 0.794
1050.10 0.7939
1050.20 0.7937
1050.30 0.7935
1050.40 0.7933
1050.50 0.7931
1050.60 0.793
1050.70 0.7928
1050.80 0.7926
1050.90 0.7924
1051.00 0.7922
1051.10 0.7921
1051.20 0.7919
1051.30 0.7917
1051.40 0.7915
1051.50 0.7913
1051.60 0.7912
1051.70 0.791
1051.80 0.7908
1051.90 0.7906
1052.00 0.7904
1052.10 0.7903
1052.20 0.7901
1052.30 0.7899
1052.40 0.7897
1052.50 0.7896
1052.60 0.7894
1052.70 0.7892
1052.80 0.7891
1052.90 0.7889
1053.00 0.7887
1053.10 0.7885
1053.20 0.7884
1053.30 0.7882
1053.40 0.788
1053.50 0.7878
1053.60 0.7877
1053.70 0.7875
1053.80 0.7873
1053.90 0.7872
1054.00 0.787
1054.10 0.7868
1054.20 0.7866
1054.30 0.7865
1054.40 0.7863
1054.50 0.7861
1054.60 0.786
1054.70 0.7858
1054.80 0.7856
1054.90 0.7854
1055.00 0.7853
1055.10 0.7851
1055.20 0.7849
1055.30 0.7848
1055.40 0.7846
1055.50 0.7844
1055.60 0.7842
1055.70 0.7841
1055.80 0.7839
1055.90 0.7837
1056.00 0.7836
1056.10 0.7834
1056.20 0.7832
1056.30 0.783
1056.40 0.7829
1056.50 0.7827
1056.60 0.7825
1056.70 0.7824
1056.80 0.7822
1056.90 0.782
1057.00 0.7818
1057.10 0.7817
1057.20 0.7815
1057.30 0.7814
1057.40 0.7812
1057.50 0.781
1057.60 0.7809
1057.70 0.7807
1057.80 0.7805
1057.90 0.7804
1058.00 0.7802
1058.10 0.78
1058.20 0.7799
1058.30 0.7797
1058.40 0.7796
1058.50 0.7794
1058.60 0.7792
1058.70 0.7791
1058.80 0.7789
1058.90 0.7787
1059.00 0.7786
1059.10 0.7784
1059.20 0.7782
1059.30 0.7781
1059.40 0.7779
1059.50 0.7778
1059.60 0.7776
1059.70 0.7774
1059.80 0.7773
1059.90 0.7771
1060.00 0.7769
1060.10 0.7768
1060.20 0.7766
1060.30 0.7765
1060.40 0.7763
1060.50 0.7761
1060.60 0.776
1060.70 0.7758
1060.80 0.7756
1060.90 0.7755
1061.00 0.7753
1061.10 0.7752
1061.20 0.775
1061.30 0.7748
1061.40 0.7747
1061.50 0.7745
1061.60 0.7743
1061.70 0.7742
1061.80 0.774
1061.90 0.7739
1062.00 0.7737
1062.10 0.7735
1062.20 0.7734
1062.30 0.7732
1062.40 0.7731
1062.50 0.7729
1062.60 0.7728
1062.70 0.7726
1062.80 0.7725
1062.90 0.7723
1063.00 0.7721
1063.10 0.772
1063.20 0.7718
1063.30 0.7717
1063.40 0.7715
1063.50 0.7714
1063.60 0.7712
1063.70 0.7711
1063.80 0.7709
1063.90 0.7708
1064.00 0.7706
1064.10 0.7704
1064.20 0.7703
1064.30 0.7701
1064.40 0.77
1064.50 0.7698
1064.60 0.7697
1064.70 0.7695
1064.80 0.7694
1064.90 0.7692
1065.00 0.7691
1065.10 0.7689
1065.20 0.7687
1065.30 0.7686
1065.40 0.7684
1065.50 0.7683
1065.60 0.7681
1065.70 0.768
1065.80 0.7678
1065.90 0.7677
1066.00 0.7675
1066.10 0.7674
1066.20 0.7672
1066.30 0.7671
1066.40 0.7669
1066.50 0.7667
1066.60 0.7666
1066.70 0.7664
1066.80 0.7663
1066.90 0.7661
1067.00 0.766
1067.10 0.7658
1067.20 0.7657
1067.30 0.7655
1067.40 0.7654
1067.50 0.7652
1067.60 0.7651
1067.70 0.765
1067.80 0.7648
1067.90 0.7647
1068.00 0.7645
1068.10 0.7644
1068.20 0.7642
1068.30 0.7641
1068.40 0.7639
1068.50 0.7638
1068.60 0.7636
1068.70 0.7635
1068.80 0.7634
1068.90 0.7632
1069.00 0.7631
1069.10 0.7629
1069.20 0.7628
1069.30 0.7626
1069.40 0.7625
1069.50 0.7623
1069.60 0.7622
1069.70 0.762
1069.80 0.7619
1069.90 0.7618
1070.00 0.7616
1070.10 0.7615
1070.20 0.7613
1070.30 0.7612
1070.40 0.761
1070.50 0.7609
1070.60 0.7607
1070.70 0.7606
1070.80 0.7604
1070.90 0.7603
1071.00 0.7602
1071.10 0.76
1071.20 0.7599
1071.30 0.7597
1071.40 0.7596
1071.50 0.7594
1071.60 0.7593
1071.70 0.7591
1071.80 0.759
1071.90 0.7589
1072.00 0.7587
1072.10 0.7586
1072.20 0.7584
1072.30 0.7583
1072.40 0.7581
1072.50 0.758
1072.60 0.7579
1072.70 0.7577
1072.80 0.7576
1072.90 0.7574
1073.00 0.7573
1073.10 0.7571
1073.20 0.757
1073.30 0.7568
1073.40 0.7567
1073.50 0.7566
1073.60 0.7564
1073.70 0.7563
1073.80 0.7561
1073.90 0.756
1074.00 0.7559
1074.10 0.7557
1074.20 0.7556
1074.30 0.7554
1074.40 0.7553
1074.50 0.7552
1074.60 0.755
1074.70 0.7549
1074.80 0.7547
1074.90 0.7546
1075.00 0.7545
1075.10 0.7543
1075.20 0.7542
1075.30 0.754
1075.40 0.7539
1075.50 0.7538
1075.60 0.7536
1075.70 0.7535
1075.80 0.7534
1075.90 0.7532
1076.00 0.7531
1076.10 0.7529
1076.20 0.7528
1076.30 0.7527
1076.40 0.7525
1076.50 0.7524
1076.60 0.7522
1076.70 0.7521
1076.80 0.752
1076.90 0.7518
1077.00 0.7517
1077.10 0.7515
1077.20 0.7514
1077.30 0.7513
1077.40 0.7511
1077.50 0.751
1077.60 0.7509
1077.70 0.7507
1077.80 0.7506
1077.90 0.7504
1078.00 0.7503
1078.10 0.7502
1078.20 0.75
1078.30 0.7499
1078.40 0.7498
1078.50 0.7496
1078.60 0.7495
1078.70 0.7494
1078.80 0.7492
1078.90 0.7491
1079.00 0.749
1079.10 0.7488
1079.20 0.7487
1079.30 0.7485
1079.40 0.7484
1079.50 0.7483
1079.60 0.7481
1079.70 0.748
1079.80 0.7479
1079.90 0.7477
1080.00 0.7476
1080.10 0.7475
1080.20 0.7473
1080.30 0.7472
1080.40 0.7471
1080.50 0.7469
1080.60 0.7468
1080.70 0.7467
1080.80 0.7465
1080.90 0.7464
1081.00 0.7463
1081.10 0.7461
1081.20 0.746
1081.30 0.7459
1081.40 0.7457
1081.50 0.7456
1081.60 0.7455
1081.70 0.7454
1081.80 0.7452
1081.90 0.7451
1082.00 0.745
1082.10 0.7448
1082.20 0.7447
1082.30 0.7446
1082.40 0.7444
1082.50 0.7443
1082.60 0.7442
1082.70 0.744
1082.80 0.7439
1082.90 0.7438
1083.00 0.7437
1083.10 0.7435
1083.20 0.7434
1083.30 0.7433
1083.40 0.7431
1083.50 0.743
1083.60 0.7429
1083.70 0.7427
1083.80 0.7426
1083.90 0.7425
1084.00 0.7423
1084.10 0.7422
1084.20 0.7421
1084.30 0.742
1084.40 0.7418
1084.50 0.7417
1084.60 0.7416
1084.70 0.7414
1084.80 0.7413
1084.90 0.7412
1085.00 0.741
1085.10 0.7409
1085.20 0.7408
1085.30 0.7407
1085.40 0.7405
1085.50 0.7404
1085.60 0.7403
1085.70 0.7401
1085.80 0.74
1085.90 0.7399
1086.00 0.7397
1086.10 0.7396
1086.20 0.7395
1086.30 0.7394
1086.40 0.7392
1086.50 0.7391
1086.60 0.739
1086.70 0.7389
1086.80 0.7387
1086.90 0.7386
1087.00 0.7385
1087.10 0.7384
1087.20 0.7382
1087.30 0.7381
1087.40 0.738
1087.50 0.7378
1087.60 0.7377
1087.70 0.7376
1087.80 0.7375
1087.90 0.7373
1088.00 0.7372
1088.10 0.7371
1088.20 0.7369
1088.30 0.7368
1088.40 0.7367
1088.50 0.7366
1088.60 0.7364
1088.70 0.7363
1088.80 0.7362
1088.90 0.7361
1089.00 0.7359
1089.10 0.7358
1089.20 0.7357
1089.30 0.7356
1089.40 0.7354
1089.50 0.7353
1089.60 0.7352
1089.70 0.7351
1089.80 0.7349
1089.90 0.7348
1090.00 0.7347
1090.10 0.7346
1090.20 0.7344
1090.30 0.7343
1090.40 0.7342
1090.50 0.7341
1090.60 0.7339
1090.70 0.7338
1090.80 0.7337
1090.90 0.7336
1091.00 0.7334
1091.10 0.7333
1091.20 0.7332
1091.30 0.7331
1091.40 0.7329
1091.50 0.7328
1091.60 0.7327
1091.70 0.7326
1091.80 0.7325
1091.90 0.7323
1092.00 0.7322
1092.10 0.7321
1092.20 0.732
1092.30 0.7318
1092.40 0.7317
1092.50 0.7316
1092.60 0.7315
1092.70 0.7313
1092.80 0.7312
1092.90 0.7311
1093.00 0.731
1093.10 0.7309
1093.20 0.7308
1093.30 0.7307
1093.40 0.7306
1093.50 0.7304
1093.60 0.7303
1093.70 0.7302
1093.80 0.7301
1093.90 0.7299
1094.00 0.7298
1094.10 0.7297
1094.20 0.7296
1094.30 0.7295
1094.40 0.7293
1094.50 0.7292
1094.60 0.7291
1094.70 0.729
1094.80 0.7288
1094.90 0.7287
1095.00 0.7286
1095.10 0.7285
1095.20 0.7284
1095.30 0.7282
1095.40 0.7281
1095.50 0.728
1095.60 0.7279
1095.70 0.7278
1095.80 0.7276
1095.90 0.7275
1096.00 0.7274
1096.10 0.7273
1096.20 0.7272
1096.30 0.727
1096.40 0.7269
1096.50 0.7268
1096.60 0.7267
1096.70 0.7266
1096.80 0.7264
1096.90 0.7263
1097.00 0.7262
1097.10 0.7261
1097.20 0.726
1097.30 0.7258
1097.40 0.7257
1097.50 0.7256
1097.60 0.7255
1097.70 0.7253
1097.80 0.7252
1097.90 0.7251
1098.00 0.725
1098.10 0.7249
1098.20 0.7247
1098.30 0.7246
1098.40 0.7245
1098.50 0.7244
1098.60 0.7243
1098.70 0.7241
1098.80 0.724
1098.90 0.7239
1099.00 0.7238
1099.10 0.7237
1099.20 0.7235
1099.30 0.7234
1099.40 0.7233
1099.50 0.7232
1099.60 0.7231
1099.70 0.7229
1099.80 0.7228
1099.90 0.7227
1100.00 0.7226
1100.10 0.7225
1100.20 0.7223
1100.30 0.7222
1100.40 0.7221
1100.50 0.722
1100.60 0.7219
1100.70 0.7217
1100.80 0.7216
1100.90 0.7215
1101.00 0.7214
1101.10 0.7213
1101.20 0.7211
1101.30 0.721
1101.40 0.7209
1101.50 0.7208
1101.60 0.7207
1101.70 0.7206
1101.80 0.7204
1101.90 0.7203
1102.00 0.7202
1102.10 0.7201
1102.20 0.72
1102.30 0.7199
1102.40 0.7197
1102.50 0.7196
1102.60 0.7195
1102.70 0.7194
1102.80 0.7193
1102.90 0.7191
1103.00 0.719
1103.10 0.7189
1103.20 0.7188
1103.30 0.7187
1103.40 0.7186
1103.50 0.7184
1103.60 0.7183
1103.70 0.7182
1103.80 0.7181
1103.90 0.718
1104.00 0.7179
1104.10 0.7177
1104.20 0.7176
1104.30 0.7175
1104.40 0.7174
1104.50 0.7173
1104.60 0.7172
1104.70 0.717
1104.80 0.7169
1104.90 0.7168
1105.00 0.7167
1105.10 0.7166
1105.20 0.7165
1105.30 0.7163
1105.40 0.7162
1105.50 0.7161
1105.60 0.716
1105.70 0.7159
1105.80 0.7158
1105.90 0.7156
1106.00 0.7155
1106.10 0.7154
1106.20 0.7153
1106.30 0.7152
1106.40 0.7151
1106.50 0.7149
1106.60 0.7148
1106.70 0.7147
1106.80 0.7146
1106.90 0.7145
1107.00 0.7144
1107.10 0.7142
1107.20 0.7141
1107.30 0.714
1107.40 0.7139
1107.50 0.7138
1107.60 0.7137
1107.70 0.7135
1107.80 0.7134
1107.90 0.7133
1108.00 0.7132
1108.10 0.7131
1108.20 0.713
1108.30 0.7129
1108.40 0.7127
1108.50 0.7126
1108.60 0.7125
1108.70 0.7124
1108.80 0.7123
1108.90 0.7122
1109.00 0.712
1109.10 0.7119
1109.20 0.7118
1109.30 0.7117
1109.40 0.7116
1109.50 0.7115
1109.60 0.7113
1109.70 0.7112
1109.80 0.7111
1109.90 0.711
1110.00 0.7109
1110.10 0.7108
1110.20 0.7107
1110.30 0.7105
1110.40 0.7104
1110.50 0.7103
1110.60 0.7102
1110.70 0.7101
1110.80 0.71
1110.90 0.7099
1111.00 0.7098
1111.10 0.7096
1111.20 0.7095
1111.30 0.7094
1111.40 0.7093
1111.50 0.7092
1111.60 0.7091
1111.70 0.709
1111.80 0.7088
1111.90 0.7087
1112.00 0.7086
1112.10 0.7085
1112.20 0.7084
1112.30 0.7083
1112.40 0.7082
1112.50 0.708
1112.60 0.7079
1112.70 0.7078
1112.80 0.7077
1112.90 0.7076
1113.00 0.7075
1113.10 0.7074
1113.20 0.7072
1113.30 0.7071
1113.40 0.707
1113.50 0.7069
1113.60 0.7068
1113.70 0.7067
1113.80 0.7066
1113.90 0.7064
1114.00 0.7063
1114.10 0.7062
1114.20 0.7061
1114.30 0.706
1114.40 0.7059
1114.50 0.7058
1114.60 0.7057
1114.70 0.7055
1114.80 0.7054
1114.90 0.7053
1115.00 0.7052
1115.10 0.7051
1115.20 0.705
1115.30 0.7049
1115.40 0.7047
1115.50 0.7046
1115.60 0.7045
1115.70 0.7044
1115.80 0.7043
1115.90 0.7042
1116.00 0.7041
1116.10 0.704
1116.20 0.7038
1116.30 0.7037
1116.40 0.7036
1116.50 0.7035
1116.60 0.7034
1116.70 0.7033
1116.80 0.7032
1116.90 0.7031
1117.00 0.7029
1117.10 0.7028
1117.20 0.7027
1117.30 0.7026
1117.40 0.7025
1117.50 0.7024
1117.60 0.7023
1117.70 0.7022
1117.80 0.7021
1117.90 0.7019
1118.00 0.7018
1118.10 0.7017
1118.20 0.7016
1118.30 0.7015
1118.40 0.7014
1118.50 0.7013
1118.60 0.7012
1118.70 0.701
1118.80 0.7009
1118.90 0.7008
1119.00 0.7007
1119.10 0.7006
1119.20 0.7005
1119.30 0.7004
1119.40 0.7003
1119.50 0.7002
1119.60 0.7
1119.70 0.6999
1119.80 0.6998
1119.90 0.6997
1120.00 0.6996
1120.10 0.6995
1120.20 0.6994
1120.30 0.6993
1120.40 0.6992
1120.50 0.699
1120.60 0.6989
1120.70 0.6988
1120.80 0.6987
1120.90 0.6986
1121.00 0.6985
1121.10 0.6984
1121.20 0.6983
1121.30 0.6982
1121.40 0.698
1121.50 0.6979
1121.60 0.6978
1121.70 0.6977
1121.80 0.6976
1121.90 0.6975
1122.00 0.6974
1122.10 0.6973
1122.20 0.6972
1122.30 0.697
1122.40 0.6969
1122.50 0.6968
1122.60 0.6967
1122.70 0.6966
1122.80 0.6965
1122.90 0.6964
1123.00 0.6963
1123.10 0.6962
1123.20 0.696
1123.30 0.6959
1123.40 0.6958
1123.50 0.6957
1123.60 0.6956
1123.70 0.6955
1123.80 0.6954
1123.90 0.6953
1124.00 0.6952
1124.10 0.695
1124.20 0.6949
1124.30 0.6948
1124.40 0.6947
1124.50 0.6946
1124.60 0.6945
1124.70 0.6944
1124.80 0.6943
1124.90 0.6942
1125.00 0.694
1125.10 0.6939
1125.20 0.6938
1125.30 0.6937
1125.40 0.6936
1125.50 0.6935
1125.60 0.6934
1125.70 0.6933
1125.80 0.6932
1125.90 0.693
1126.00 0.6929
1126.10 0.6928
1126.20 0.6927
1126.30 0.6926
1126.40 0.6925
1126.50 0.6924
1126.60 0.6923
1126.70 0.6922
1126.80 0.692
1126.90 0.6919
1127.00 0.6918
1127.10 0.6917
1127.20 0.6916
1127.30 0.6915
1127.40 0.6914
1127.50 0.6913
1127.60 0.6912
1127.70 0.6911
1127.80 0.6909
1127.90 0.6908
1128.00 0.6907
1128.10 0.6906
1128.20 0.6905
1128.30 0.6904
1128.40 0.6903
1128.50 0.6902
1128.60 0.6901
1128.70 0.69
1128.80 0.6898
1128.90 0.6897
1129.00 0.6896
1129.10 0.6895
1129.20 0.6894
1129.30 0.6893
1129.40 0.6892
1129.50 0.6891
1129.60 0.689
1129.70 0.6889
1129.80 0.6887
1129.90 0.6886
1130.00 0.6885
1130.10 0.6884
1130.20 0.6883
1130.30 0.6882
1130.40 0.6881
1130.50 0.688
1130.60 0.6879
1130.70 0.6878
1130.80 0.6877
1130.90 0.6875
1131.00 0.6874
1131.10 0.6873
1131.20 0.6872
1131.30 0.6871
1131.40 0.687
1131.50 0.6869
1131.60 0.6868
1131.70 0.6867
1131.80 0.6866
1131.90 0.6865
1132.00 0.6863
1132.10 0.6862
1132.20 0.6861
1132.30 0.686
1132.40 0.6859
1132.50 0.6858
1132.60 0.6857
1132.70 0.6856
1132.80 0.6854
1132.90 0.6853
1133.00 0.6852
1133.10 0.6851
1133.20 0.685
1133.30 0.6849
1133.40 0.6848
1133.50 0.6847
1133.60 0.6845
1133.70 0.6844
1133.80 0.6843
1133.90 0.6842
1134.00 0.6841
1134.10 0.684
1134.20 0.6839
1134.30 0.6838
1134.40 0.6836
1134.50 0.6835
1134.60 0.6834
1134.70 0.6833
1134.80 0.6832
1134.90 0.6831
1135.00 0.683
1135.10 0.6829
1135.20 0.6828
1135.30 0.6826
1135.40 0.6825
1135.50 0.6824
1135.60 0.6823
1135.70 0.6822
1135.80 0.6821
1135.90 0.682
1136.00 0.6819
1136.10 0.6817
1136.20 0.6816
1136.30 0.6815
1136.40 0.6814
1136.50 0.6813
1136.60 0.6812
1136.70 0.6811
1136.80 0.681
1136.90 0.6809
1137.00 0.6807
1137.10 0.6806
1137.20 0.6805
1137.30 0.6804
1137.40 0.6803
1137.50 0.6802
1137.60 0.6801
1137.70 0.68
1137.80 0.6798
1137.90 0.6797
1138.00 0.6796
1138.10 0.6795
1138.20 0.6794
1138.30 0.6793
1138.40 0.6792
1138.50 0.6791
1138.60 0.6789
1138.70 0.6788
1138.80 0.6787
1138.90 0.6786
1139.00 0.6785
1139.10 0.6784
1139.20 0.6783
1139.30 0.6782
1139.40 0.678
1139.50 0.6779
1139.60 0.6778
1139.70 0.6777
1139.80 0.6776
1139.90 0.6775
1140.00 0.6774
1140.10 0.6773
1140.20 0.6771
1140.30 0.677
1140.40 0.6769
1140.50 0.6768
1140.60 0.6767
1140.70 0.6766
1140.80 0.6765
1140.90 0.6764
1141.00 0.6762
1141.10 0.6761
1141.20 0.676
1141.30 0.6759
1141.40 0.6758
1141.50 0.6757
1141.60 0.6756
1141.70 0.6755
1141.80 0.6754
1141.90 0.6752
1142.00 0.6751
1142.10 0.675
1142.20 0.6749
1142.30 0.6748
1142.40 0.6747
1142.50 0.6746
1142.60 0.6745
1142.70 0.6743
1142.80 0.6742
1142.90 0.6741
1143.00 0.674
1143.10 0.6739
1143.20 0.6738
1143.30 0.6737
1143.40 0.6735
1143.50 0.6734
1143.60 0.6733
1143.70 0.6732
1143.80 0.6731
1143.90 0.673
1144.00 0.6729
1144.10 0.6728
1144.20 0.6726
1144.30 0.6725
1144.40 0.6724
1144.50 0.6723
1144.60 0.6722
1144.70 0.6721
1144.80 0.672
1144.90 0.6719
1145.00 0.6717
1145.10 0.6716
1145.20 0.6715
1145.30 0.6714
1145.40 0.6713
1145.50 0.6712
1145.60 0.6711
1145.70 0.671
1145.80 0.6708
1145.90 0.6707
1146.00 0.6706
1146.10 0.6705
1146.20 0.6704
1146.30 0.6703
1146.40 0.6702
1146.50 0.6701
1146.60 0.6699
1146.70 0.6698
1146.80 0.6697
1146.90 0.6696
1147.00 0.6695
1147.10 0.6694
1147.20 0.6693
1147.30 0.6691
1147.40 0.669
1147.50 0.6689
1147.60 0.6688
1147.70 0.6687
1147.80 0.6686
1147.90 0.6685
1148.00 0.6683
1148.10 0.6682
1148.20 0.6681
1148.30 0.668
1148.40 0.6679
1148.50 0.6678
1148.60 0.6676
1148.70 0.6675
1148.80 0.6674
1148.90 0.6673
1149.00 0.6672
1149.10 0.6671
1149.20 0.6669
1149.30 0.6668
1149.40 0.6667
1149.50 0.6666
1149.60 0.6665
1149.70 0.6664
1149.80 0.6663
1149.90 0.6661
1150.00 0.666
1150.10 0.6659
1150.20 0.6658
1150.30 0.6657
1150.40 0.6656
1150.50 0.6655
1150.60 0.6653
1150.70 0.6652
1150.80 0.6651
1150.90 0.665
1151.00 0.6649
1151.10 0.6648
1151.20 0.6646
1151.30 0.6645
1151.40 0.6644
1151.50 0.6643
1151.60 0.6642
1151.70 0.6641
1151.80 0.664
1151.90 0.6638
1152.00 0.6637
1152.10 0.6636
1152.20 0.6635
1152.30 0.6634
1152.40 0.6633
1152.50 0.6631
1152.60 0.663
1152.70 0.6629
1152.80 0.6628
1152.90 0.6627
1153.00 0.6626
1153.10 0.6624
1153.20 0.6623
1153.30 0.6622
1153.40 0.6621
1153.50 0.662
1153.60 0.6619
1153.70 0.6617
1153.80 0.6616
1153.90 0.6615
1154.00 0.6614
1154.10 0.6613
1154.20 0.6612
1154.30 0.661
1154.40 0.6609
1154.50 0.6608
1154.60 0.6607
1154.70 0.6606
1154.80 0.6605
1154.90 0.6603
1155.00 0.6602
1155.10 0.6601
1155.20 0.66
1155.30 0.6599
1155.40 0.6598
1155.50 0.6597
1155.60 0.6595
1155.70 0.6594
1155.80 0.6593
1155.90 0.6592
1156.00 0.6591
1156.10 0.659
1156.20 0.6588
1156.30 0.6587
1156.40 0.6586
1156.50 0.6585
1156.60 0.6584
1156.70 0.6583
1156.80 0.6581
1156.90 0.658
1157.00 0.6579
1157.10 0.6578
1157.20 0.6577
1157.30 0.6576
1157.40 0.6574
1157.50 0.6573
1157.60 0.6572
1157.70 0.6571
1157.80 0.657
1157.90 0.6568
1158.00 0.6567
1158.10 0.6566
1158.20 0.6565
1158.30 0.6564
1158.40 0.6562
1158.50 0.6561
1158.60 0.656
1158.70 0.6559
1158.80 0.6558
1158.90 0.6556
1159.00 0.6555
1159.10 0.6554
1159.20 0.6553
1159.30 0.6552
1159.40 0.6551
1159.50 0.6549
1159.60 0.6548
1159.70 0.6547
1159.80 0.6546
1159.90 0.6545
1160.00 0.6543
1160.10 0.6542
1160.20 0.6541
1160.30 0.654
1160.40 0.6539
1160.50 0.6537
1160.60 0.6536
1160.70 0.6535
1160.80 0.6534
1160.90 0.6533
1161.00 0.6532
1161.10 0.653
1161.20 0.6529
1161.30 0.6528
1161.40 0.6527
1161.50 0.6526
1161.60 0.6524
1161.70 0.6523
1161.80 0.6522
1161.90 0.6521
1162.00 0.652
1162.10 0.6519
1162.20 0.6517
1162.30 0.6516
1162.40 0.6515
1162.50 0.6514
1162.60 0.6512
1162.70 0.6511
1162.80 0.651
1162.90 0.6509
1163.00 0.6508
1163.10 0.6506
1163.20 0.6505
1163.30 0.6504
1163.40 0.6503
1163.50 0.6502
1163.60 0.65
1163.70 0.6499
1163.80 0.6498
1163.90 0.6497
1164.00 0.6496
1164.10 0.6494
1164.20 0.6493
1164.30 0.6492
1164.40 0.6491
1164.50 0.6489
1164.60 0.6488
1164.70 0.6487
1164.80 0.6486
1164.90 0.6485
1165.00 0.6483
1165.10 0.6482
1165.20 0.6481
1165.30 0.648
1165.40 0.6479
1165.50 0.6477
1165.60 0.6476
1165.70 0.6475
1165.80 0.6474
1165.90 0.6473
1166.00 0.6471
1166.10 0.647
1166.20 0.6469
1166.30 0.6468
1166.40 0.6467
1166.50 0.6465
1166.60 0.6464
1166.70 0.6463
1166.80 0.6462
1166.90 0.6461
1167.00 0.6459
1167.10 0.6458
1167.20 0.6457
1167.30 0.6456
1167.40 0.6454
1167.50 0.6453
1167.60 0.6452
1167.70 0.6451
1167.80 0.6449
1167.90 0.6448
1168.00 0.6447
1168.10 0.6446
1168.20 0.6445
1168.30 0.6443
1168.40 0.6442
1168.50 0.6441
1168.60 0.644
1168.70 0.6438
1168.80 0.6437
1168.90 0.6436
1169.00 0.6435
1169.10 0.6433
1169.20 0.6432
1169.30 0.6431
1169.40 0.643
1169.50 0.6428
1169.60 0.6427
1169.70 0.6426
1169.80 0.6425
1169.90 0.6424
1170.00 0.6422
1170.10 0.6421
1170.20 0.642
1170.30 0.6419
1170.40 0.6417
1170.50 0.6416
1170.60 0.6415
1170.70 0.6414
1170.80 0.6412
1170.90 0.6411
1171.00 0.641
1171.10 0.6409
1171.20 0.6408
1171.30 0.6406
1171.40 0.6405
1171.50 0.6404
1171.60 0.6403
1171.70 0.6401
1171.80 0.64
1171.90 0.6399
1172.00 0.6398
1172.10 0.6397
1172.20 0.6395
1172.30 0.6394
1172.40 0.6393
1172.50 0.6392
1172.60 0.639
1172.70 0.6389
1172.80 0.6388
1172.90 0.6387
1173.00 0.6385
1173.10 0.6384
1173.20 0.6383
1173.30 0.6382
1173.40 0.638
1173.50 0.6379
1173.60 0.6378
1173.70 0.6377
1173.80 0.6375
1173.90 0.6374
1174.00 0.6373
1174.10 0.6372
1174.20 0.637
1174.30 0.6369
1174.40 0.6368
1174.50 0.6367
1174.60 0.6365
1174.70 0.6364
1174.80 0.6363
1174.90 0.6362
1175.00 0.636
1175.10 0.6359
1175.20 0.6358
1175.30 0.6357
1175.40 0.6355
1175.50 0.6354
1175.60 0.6353
1175.70 0.6352
1175.80 0.635
1175.90 0.6349
1176.00 0.6348
1176.10 0.6347
1176.20 0.6345
1176.30 0.6344
1176.40 0.6343
1176.50 0.6342
1176.60 0.6341
1176.70 0.6339
1176.80 0.6338
1176.90 0.6337
1177.00 0.6336
1177.10 0.6334
1177.20 0.6333
1177.30 0.6332
1177.40 0.633
1177.50 0.6329
1177.60 0.6328
1177.70 0.6327
1177.80 0.6325
1177.90 0.6324
1178.00 0.6323
1178.10 0.6322
1178.20 0.632
1178.30 0.6319
1178.40 0.6318
1178.50 0.6316
1178.60 0.6315
1178.70 0.6314
1178.80 0.6313
1178.90 0.6311
1179.00 0.631
1179.10 0.6309
1179.20 0.6308
1179.30 0.6306
1179.40 0.6305
1179.50 0.6304
1179.60 0.6303
1179.70 0.6301
1179.80 0.63
1179.90 0.6299
1180.00 0.6297
1180.10 0.6296
1180.20 0.6295
1180.30 0.6294
1180.40 0.6292
1180.50 0.6291
1180.60 0.629
1180.70 0.6289
1180.80 0.6287
1180.90 0.6286
1181.00 0.6285
1181.10 0.6284
1181.20 0.6282
1181.30 0.6281
1181.40 0.628
1181.50 0.6279
1181.60 0.6277
1181.70 0.6276
1181.80 0.6275
1181.90 0.6274
1182.00 0.6272
1182.10 0.6271
1182.20 0.627
1182.30 0.6268
1182.40 0.6267
1182.50 0.6266
1182.60 0.6264
1182.70 0.6263
1182.80 0.6262
1182.90 0.6261
1183.00 0.6259
1183.10 0.6258
1183.20 0.6257
1183.30 0.6255
1183.40 0.6254
1183.50 0.6253
1183.60 0.6252
1183.70 0.625
1183.80 0.6249
1183.90 0.6248
1184.00 0.6246
1184.10 0.6245
1184.20 0.6244
1184.30 0.6243
1184.40 0.6241
1184.50 0.624
1184.60 0.6239
1184.70 0.6237
1184.80 0.6236
1184.90 0.6235
1185.00 0.6234
1185.10 0.6232
1185.20 0.6231
1185.30 0.623
1185.40 0.6229
1185.50 0.6227
1185.60 0.6226
1185.70 0.6225
1185.80 0.6223
1185.90 0.6222
1186.00 0.6221
1186.10 0.622
1186.20 0.6218
1186.30 0.6217
1186.40 0.6216
1186.50 0.6214
1186.60 0.6213
1186.70 0.6212
1186.80 0.6211
1186.90 0.6209
1187.00 0.6208
1187.10 0.6207
1187.20 0.6205
1187.30 0.6204
1187.40 0.6203
1187.50 0.6202
1187.60 0.62
1187.70 0.6199
1187.80 0.6198
1187.90 0.6196
1188.00 0.6195
1188.10 0.6194
1188.20 0.6193
1188.30 0.6191
1188.40 0.619
1188.50 0.6189
1188.60 0.6187
1188.70 0.6186
1188.80 0.6185
1188.90 0.6183
1189.00 0.6182
1189.10 0.6181
1189.20 0.618
1189.30 0.6178
1189.40 0.6177
1189.50 0.6176
1189.60 0.6174
1189.70 0.6173
1189.80 0.6172
1189.90 0.6171
1190.00 0.6169
1190.10 0.6168
1190.20 0.6167
1190.30 0.6165
1190.40 0.6164
1190.50 0.6163
1190.60 0.6162
1190.70 0.616
1190.80 0.6159
1190.90 0.6158
1191.00 0.6156
1191.10 0.6155
1191.20 0.6154
1191.30 0.6153
1191.40 0.6151
1191.50 0.615
1191.60 0.6149
1191.70 0.6147
1191.80 0.6146
1191.90 0.6145
1192.00 0.6144
1192.10 0.6142
1192.20 0.6141
1192.30 0.614
1192.40 0.6138
1192.50 0.6137
1192.60 0.6136
1192.70 0.6134
1192.80 0.6133
1192.90 0.6132
1193.00 0.6131
1193.10 0.6129
1193.20 0.6128
1193.30 0.6127
1193.40 0.6125
1193.50 0.6124
1193.60 0.6123
1193.70 0.6121
1193.80 0.612
1193.90 0.6119
1194.00 0.6118
1194.10 0.6116
1194.20 0.6115
1194.30 0.6114
1194.40 0.6112
1194.50 0.6111
1194.60 0.611
1194.70 0.6108
1194.80 0.6107
1194.90 0.6106
1195.00 0.6105
1195.10 0.6103
1195.20 0.6102
1195.30 0.6101
1195.40 0.6099
1195.50 0.6098
1195.60 0.6097
1195.70 0.6095
1195.80 0.6094
1195.90 0.6093
1196.00 0.6092
1196.10 0.609
1196.20 0.6089
1196.30 0.6088
1196.40 0.6086
1196.50 0.6085
1196.60 0.6084
1196.70 0.6083
1196.80 0.6081
1196.90 0.608
1197.00 0.6079
1197.10 0.6077
1197.20 0.6076
1197.30 0.6075
1197.40 0.6073
1197.50 0.6072
1197.60 0.6071
1197.70 0.6069
1197.80 0.6068
1197.90 0.6067
1198.00 0.6066
1198.10 0.6064
1198.20 0.6063
1198.30 0.6062
1198.40 0.606
1198.50 0.6059
1198.60 0.6058
1198.70 0.6056
1198.80 0.6055
1198.90 0.6054
1199.00 0.6052
1199.10 0.6051
1199.20 0.605
1199.30 0.6048
1199.40 0.6047
1199.50 0.6046
1199.60 0.6045
1199.70 0.6043
1199.80 0.6042
1199.90 0.6041
1200.00 0
