# Version 2.1 - nm, norm@500 to 1, cut digits, bergeron_13500_75.dat_13500
# Wavelength(nm)  Flambda(ergs/cm^s/s/nm)
300.00 1.9
300.10 1.899
300.20 1.898
300.30 1.896
300.40 1.895
300.50 1.894
300.60 1.892
300.70 1.891
300.80 1.89
300.90 1.888
301.00 1.887
301.10 1.886
301.20 1.884
301.30 1.883
301.40 1.882
301.50 1.88
301.60 1.879
301.70 1.878
301.80 1.876
301.90 1.875
302.00 1.874
302.10 1.872
302.20 1.871
302.30 1.87
302.40 1.868
302.50 1.867
302.60 1.866
302.70 1.865
302.80 1.863
302.90 1.862
303.00 1.861
303.10 1.859
303.20 1.858
303.30 1.857
303.40 1.855
303.50 1.854
303.60 1.853
303.70 1.852
303.80 1.85
303.90 1.849
304.00 1.848
304.10 1.846
304.20 1.845
304.30 1.844
304.40 1.843
304.50 1.841
304.60 1.84
304.70 1.839
304.80 1.837
304.90 1.836
305.00 1.835
305.10 1.834
305.20 1.832
305.30 1.831
305.40 1.83
305.50 1.828
305.60 1.827
305.70 1.826
305.80 1.825
305.90 1.823
306.00 1.822
306.10 1.821
306.20 1.82
306.30 1.818
306.40 1.817
306.50 1.816
306.60 1.815
306.70 1.813
306.80 1.812
306.90 1.811
307.00 1.809
307.10 1.808
307.20 1.807
307.30 1.806
307.40 1.804
307.50 1.803
307.60 1.802
307.70 1.801
307.80 1.799
307.90 1.798
308.00 1.797
308.10 1.796
308.20 1.795
308.30 1.793
308.40 1.792
308.50 1.791
308.60 1.79
308.70 1.788
308.80 1.787
308.90 1.786
309.00 1.785
309.10 1.783
309.20 1.782
309.30 1.781
309.40 1.78
309.50 1.778
309.60 1.777
309.70 1.776
309.80 1.775
309.90 1.774
310.00 1.772
310.10 1.771
310.20 1.77
310.30 1.769
310.40 1.767
310.50 1.766
310.60 1.765
310.70 1.764
310.80 1.763
310.90 1.761
311.00 1.76
311.10 1.759
311.20 1.758
311.30 1.757
311.40 1.755
311.50 1.754
311.60 1.753
311.70 1.752
311.80 1.751
311.90 1.749
312.00 1.748
312.10 1.747
312.20 1.746
312.30 1.745
312.40 1.743
312.50 1.742
312.60 1.741
312.70 1.74
312.80 1.739
312.90 1.737
313.00 1.736
313.10 1.735
313.20 1.734
313.30 1.733
313.40 1.732
313.50 1.73
313.60 1.729
313.70 1.728
313.80 1.727
313.90 1.726
314.00 1.724
314.10 1.723
314.20 1.722
314.30 1.721
314.40 1.72
314.50 1.719
314.60 1.717
314.70 1.716
314.80 1.715
314.90 1.714
315.00 1.713
315.10 1.712
315.20 1.71
315.30 1.709
315.40 1.708
315.50 1.707
315.60 1.706
315.70 1.705
315.80 1.704
315.90 1.702
316.00 1.701
316.10 1.7
316.20 1.699
316.30 1.698
316.40 1.697
316.50 1.695
316.60 1.694
316.70 1.693
316.80 1.692
316.90 1.691
317.00 1.69
317.10 1.689
317.20 1.687
317.30 1.686
317.40 1.685
317.50 1.684
317.60 1.683
317.70 1.682
317.80 1.681
317.90 1.68
318.00 1.678
318.10 1.677
318.20 1.676
318.30 1.675
318.40 1.674
318.50 1.673
318.60 1.672
318.70 1.67
318.80 1.669
318.90 1.668
319.00 1.667
319.10 1.666
319.20 1.665
319.30 1.664
319.40 1.663
319.50 1.662
319.60 1.66
319.70 1.659
319.80 1.658
319.90 1.657
320.00 1.656
320.10 1.655
320.20 1.654
320.30 1.653
320.40 1.652
320.50 1.65
320.60 1.649
320.70 1.648
320.80 1.647
320.90 1.646
321.00 1.645
321.10 1.644
321.20 1.643
321.30 1.642
321.40 1.64
321.50 1.639
321.60 1.638
321.70 1.637
321.80 1.636
321.90 1.635
322.00 1.634
322.10 1.633
322.20 1.632
322.30 1.631
322.40 1.63
322.50 1.628
322.60 1.627
322.70 1.626
322.80 1.625
322.90 1.624
323.00 1.623
323.10 1.622
323.20 1.621
323.30 1.62
323.40 1.619
323.50 1.618
323.60 1.617
323.70 1.616
323.80 1.614
323.90 1.613
324.00 1.612
324.10 1.611
324.20 1.61
324.30 1.609
324.40 1.608
324.50 1.607
324.60 1.606
324.70 1.605
324.80 1.604
324.90 1.603
325.00 1.602
325.10 1.601
325.20 1.6
325.30 1.598
325.40 1.597
325.50 1.596
325.60 1.595
325.70 1.594
325.80 1.593
325.90 1.592
326.00 1.591
326.10 1.59
326.20 1.589
326.30 1.588
326.40 1.587
326.50 1.586
326.60 1.585
326.70 1.584
326.80 1.583
326.90 1.582
327.00 1.581
327.10 1.58
327.20 1.579
327.30 1.577
327.40 1.576
327.50 1.575
327.60 1.574
327.70 1.573
327.80 1.572
327.90 1.571
328.00 1.57
328.10 1.569
328.20 1.568
328.30 1.567
328.40 1.566
328.50 1.565
328.60 1.564
328.70 1.563
328.80 1.562
328.90 1.561
329.00 1.56
329.10 1.559
329.20 1.558
329.30 1.557
329.40 1.556
329.50 1.555
329.60 1.554
329.70 1.553
329.80 1.552
329.90 1.551
330.00 1.55
330.10 1.549
330.20 1.548
330.30 1.547
330.40 1.546
330.50 1.545
330.60 1.544
330.70 1.543
330.80 1.542
330.90 1.541
331.00 1.54
331.10 1.539
331.20 1.538
331.30 1.537
331.40 1.536
331.50 1.535
331.60 1.534
331.70 1.533
331.80 1.532
331.90 1.531
332.00 1.53
332.10 1.529
332.20 1.528
332.30 1.527
332.40 1.526
332.50 1.525
332.60 1.524
332.70 1.523
332.80 1.522
332.90 1.521
333.00 1.52
333.10 1.519
333.20 1.518
333.30 1.517
333.40 1.516
333.50 1.515
333.60 1.514
333.70 1.513
333.80 1.512
333.90 1.511
334.00 1.51
334.10 1.509
334.20 1.508
334.30 1.507
334.40 1.506
334.50 1.505
334.60 1.504
334.70 1.503
334.80 1.502
334.90 1.501
335.00 1.5
335.10 1.499
335.20 1.498
335.30 1.497
335.40 1.496
335.50 1.495
335.60 1.494
335.70 1.493
335.80 1.492
335.90 1.491
336.00 1.49
336.10 1.489
336.20 1.488
336.30 1.487
336.40 1.487
336.50 1.486
336.60 1.485
336.70 1.484
336.80 1.483
336.90 1.482
337.00 1.481
337.10 1.48
337.20 1.479
337.30 1.478
337.40 1.477
337.50 1.476
337.60 1.475
337.70 1.474
337.80 1.473
337.90 1.472
338.00 1.471
338.10 1.47
338.20 1.469
338.30 1.468
338.40 1.467
338.50 1.467
338.60 1.466
338.70 1.465
338.80 1.464
338.90 1.463
339.00 1.462
339.10 1.461
339.20 1.46
339.30 1.459
339.40 1.458
339.50 1.457
339.60 1.456
339.70 1.455
339.80 1.454
339.90 1.453
340.00 1.452
340.10 1.452
340.20 1.451
340.30 1.45
340.40 1.449
340.50 1.448
340.60 1.447
340.70 1.446
340.80 1.445
340.90 1.444
341.00 1.443
341.10 1.442
341.20 1.441
341.30 1.44
341.40 1.44
341.50 1.439
341.60 1.438
341.70 1.437
341.80 1.436
341.90 1.435
342.00 1.434
342.10 1.433
342.20 1.432
342.30 1.431
342.40 1.43
342.50 1.429
342.60 1.429
342.70 1.428
342.80 1.427
342.90 1.426
343.00 1.425
343.10 1.424
343.20 1.423
343.30 1.422
343.40 1.421
343.50 1.42
343.60 1.419
343.70 1.419
343.80 1.418
343.90 1.417
344.00 1.416
344.10 1.415
344.20 1.414
344.30 1.413
344.40 1.412
344.50 1.411
344.60 1.41
344.70 1.41
344.80 1.409
344.90 1.408
345.00 1.407
345.10 1.406
345.20 1.405
345.30 1.404
345.40 1.403
345.50 1.402
345.60 1.402
345.70 1.401
345.80 1.4
345.90 1.399
346.00 1.398
346.10 1.397
346.20 1.396
346.30 1.395
346.40 1.394
346.50 1.394
346.60 1.393
346.70 1.392
346.80 1.391
346.90 1.39
347.00 1.389
347.10 1.388
347.20 1.387
347.30 1.387
347.40 1.386
347.50 1.385
347.60 1.384
347.70 1.383
347.80 1.382
347.90 1.381
348.00 1.38
348.10 1.38
348.20 1.379
348.30 1.378
348.40 1.377
348.50 1.376
348.60 1.375
348.70 1.374
348.80 1.374
348.90 1.373
349.00 1.372
349.10 1.371
349.20 1.37
349.30 1.369
349.40 1.368
349.50 1.367
349.60 1.367
349.70 1.366
349.80 1.365
349.90 1.364
350.00 1.363
350.10 1.362
350.20 1.361
350.30 1.361
350.40 1.36
350.50 1.359
350.60 1.358
350.70 1.357
350.80 1.356
350.90 1.356
351.00 1.355
351.10 1.354
351.20 1.353
351.30 1.352
351.40 1.351
351.50 1.35
351.60 1.35
351.70 1.349
351.80 1.348
351.90 1.347
352.00 1.346
352.10 1.345
352.20 1.345
352.30 1.344
352.40 1.343
352.50 1.342
352.60 1.341
352.70 1.34
352.80 1.339
352.90 1.339
353.00 1.338
353.10 1.337
353.20 1.336
353.30 1.335
353.40 1.334
353.50 1.334
353.60 1.333
353.70 1.332
353.80 1.331
353.90 1.33
354.00 1.33
354.10 1.329
354.20 1.328
354.30 1.327
354.40 1.326
354.50 1.325
354.60 1.325
354.70 1.324
354.80 1.323
354.90 1.322
355.00 1.321
355.10 1.32
355.20 1.32
355.30 1.319
355.40 1.318
355.50 1.317
355.60 1.316
355.70 1.316
355.80 1.315
355.90 1.314
356.00 1.313
356.10 1.312
356.20 1.311
356.30 1.311
356.40 1.31
356.50 1.309
356.60 1.308
356.70 1.307
356.80 1.307
356.90 1.306
357.00 1.305
357.10 1.304
357.20 1.303
357.30 1.303
357.40 1.302
357.50 1.301
357.60 1.3
357.70 1.299
357.80 1.299
357.90 1.298
358.00 1.297
358.10 1.296
358.20 1.295
358.30 1.295
358.40 1.294
358.50 1.293
358.60 1.292
358.70 1.291
358.80 1.291
358.90 1.29
359.00 1.289
359.10 1.288
359.20 1.287
359.30 1.287
359.40 1.286
359.50 1.285
359.60 1.284
359.70 1.283
359.80 1.283
359.90 1.282
360.00 1.281
360.10 1.28
360.20 1.279
360.30 1.279
360.40 1.278
360.50 1.277
360.60 1.276
360.70 1.276
360.80 1.275
360.90 1.274
361.00 1.273
361.10 1.272
361.20 1.272
361.30 1.271
361.40 1.27
361.50 1.269
361.60 1.268
361.70 1.268
361.80 1.267
361.90 1.266
362.00 1.265
362.10 1.265
362.20 1.264
362.30 1.263
362.40 1.262
362.50 1.261
362.60 1.261
362.70 1.26
362.80 1.259
362.90 1.258
363.00 1.258
363.10 1.257
363.20 1.256
363.30 1.255
363.40 1.254
363.50 1.254
363.60 1.253
363.70 1.252
363.80 1.251
363.90 1.25
364.00 1.249
364.10 1.249
364.20 1.248
364.30 1.247
364.40 1.246
364.50 1.245
364.60 1.244
364.70 1.244
364.80 1.243
364.90 1.242
365.00 1.241
365.10 1.24
365.20 1.24
365.30 1.239
365.40 1.238
365.50 1.237
365.60 1.236
365.70 1.235
365.80 1.235
365.90 1.234
366.00 1.233
366.10 1.232
366.20 1.232
366.30 1.231
366.40 1.23
366.50 1.229
366.60 1.229
366.70 1.228
366.80 1.227
366.90 1.226
367.00 1.226
367.10 1.225
367.20 1.224
367.30 1.223
367.40 1.223
367.50 1.222
367.60 1.221
367.70 1.22
367.80 1.22
367.90 1.219
368.00 1.218
368.10 1.218
368.20 1.217
368.30 1.217
368.40 1.217
368.50 1.216
368.60 1.216
368.70 1.215
368.80 1.215
368.90 1.215
369.00 1.214
369.10 1.214
369.20 1.214
369.30 1.213
369.40 1.213
369.50 1.212
369.60 1.212
369.70 1.212
369.80 1.211
369.90 1.211
370.00 1.211
370.10 1.211
370.20 1.212
370.30 1.212
370.40 1.213
370.50 1.214
370.60 1.214
370.70 1.215
370.80 1.215
370.90 1.216
371.00 1.217
371.10 1.217
371.20 1.218
371.30 1.218
371.40 1.219
371.50 1.22
371.60 1.22
371.70 1.221
371.80 1.221
371.90 1.222
372.00 1.223
372.10 1.224
372.20 1.226
372.30 1.228
372.40 1.23
372.50 1.231
372.60 1.233
372.70 1.235
372.80 1.237
372.90 1.239
373.00 1.24
373.10 1.242
373.20 1.244
373.30 1.246
373.40 1.247
373.50 1.249
373.60 1.251
373.70 1.253
373.80 1.254
373.90 1.256
374.00 1.258
374.10 1.26
374.20 1.262
374.30 1.265
374.40 1.267
374.50 1.269
374.60 1.271
374.70 1.274
374.80 1.276
374.90 1.278
375.00 1.28
375.10 1.282
375.20 1.285
375.30 1.287
375.40 1.289
375.50 1.291
375.60 1.293
375.70 1.295
375.80 1.298
375.90 1.3
376.00 1.302
376.10 1.303
376.20 1.304
376.30 1.305
376.40 1.307
376.50 1.308
376.60 1.309
376.70 1.31
376.80 1.311
376.90 1.312
377.00 1.313
377.10 1.312
377.20 1.31
377.30 1.308
377.40 1.306
377.50 1.305
377.60 1.303
377.70 1.301
377.80 1.3
377.90 1.298
378.00 1.296
378.10 1.285
378.20 1.275
378.30 1.264
378.40 1.254
378.50 1.243
378.60 1.233
378.70 1.222
378.80 1.212
378.90 1.201
379.00 1.191
379.10 1.182
379.20 1.174
379.30 1.166
379.40 1.158
379.50 1.15
379.60 1.142
379.70 1.134
379.80 1.125
379.90 1.117
380.00 1.109
380.10 1.122
380.20 1.135
380.30 1.148
380.40 1.161
380.50 1.173
380.60 1.186
380.70 1.199
380.80 1.212
380.90 1.225
381.00 1.237
381.10 1.242
381.20 1.247
381.30 1.251
381.40 1.256
381.50 1.261
381.60 1.26
381.70 1.258
381.80 1.254
381.90 1.248
382.00 1.241
382.10 1.231
382.20 1.22
382.30 1.198
382.40 1.176
382.50 1.154
382.60 1.132
382.70 1.11
382.80 1.088
382.90 1.066
383.00 1.045
383.10 1.023
383.20 1.001
383.30 0.9818
383.40 0.9594
383.50 0.936
383.60 0.9407
383.70 0.9646
383.80 0.9868
383.90 1.006
384.00 1.028
384.10 1.055
384.20 1.082
384.30 1.11
384.40 1.137
384.50 1.162
384.60 1.186
384.70 1.207
384.80 1.225
384.90 1.242
385.00 1.256
385.10 1.268
385.20 1.279
385.30 1.289
385.40 1.296
385.50 1.302
385.60 1.307
385.70 1.311
385.80 1.314
385.90 1.315
386.00 1.315
386.10 1.314
386.20 1.313
386.30 1.309
386.40 1.305
386.50 1.3
386.60 1.293
386.70 1.286
386.80 1.277
386.90 1.267
387.00 1.256
387.10 1.244
387.20 1.231
387.30 1.216
387.40 1.2
387.50 1.181
387.60 1.161
387.70 1.14
387.80 1.115
387.90 1.089
388.00 1.06
388.10 1.028
388.20 0.9939
388.30 0.959
388.40 0.9233
388.50 0.8901
388.60 0.8593
388.70 0.8304
388.80 0.8025
388.90 0.7757
389.00 0.8001
389.10 0.8266
389.20 0.8552
389.30 0.8853
389.40 0.918
389.50 0.9532
389.60 0.9884
389.70 1.022
389.80 1.055
389.90 1.085
390.00 1.113
390.10 1.139
390.20 1.162
390.30 1.184
390.40 1.205
390.50 1.223
390.60 1.241
390.70 1.258
390.80 1.274
390.90 1.289
391.00 1.303
391.10 1.316
391.20 1.329
391.30 1.342
391.40 1.353
391.50 1.363
391.60 1.374
391.70 1.383
391.80 1.391
391.90 1.399
392.00 1.406
392.10 1.412
392.20 1.417
392.30 1.421
392.40 1.425
392.50 1.428
392.60 1.43
392.70 1.431
392.80 1.431
392.90 1.43
393.00 1.428
393.10 1.426
393.20 1.423
393.30 1.418
393.40 1.413
393.50 1.407
393.60 1.4
393.70 1.392
393.80 1.383
393.90 1.374
394.00 1.364
394.10 1.352
394.20 1.34
394.30 1.327
394.40 1.313
394.50 1.299
394.60 1.284
394.70 1.268
394.80 1.252
394.90 1.235
395.00 1.217
395.10 1.199
395.20 1.18
395.30 1.16
395.40 1.14
395.50 1.119
395.60 1.096
395.70 1.073
395.80 1.049
395.90 1.023
396.00 0.9964
396.10 0.9684
396.20 0.9373
396.30 0.9046
396.40 0.8701
396.50 0.8334
396.60 0.7975
396.70 0.7625
396.80 0.7286
396.90 0.6891
397.00 0.6441
397.10 0.6853
397.20 0.7227
397.30 0.7564
397.40 0.7905
397.50 0.8255
397.60 0.8615
397.70 0.8955
397.80 0.9277
397.90 0.9582
398.00 0.9858
398.10 1.012
398.20 1.037
398.30 1.061
398.40 1.084
398.50 1.106
398.60 1.126
398.70 1.146
398.80 1.166
398.90 1.185
399.00 1.203
399.10 1.222
399.20 1.239
399.30 1.256
399.40 1.273
399.50 1.29
399.60 1.306
399.70 1.321
399.80 1.337
399.90 1.351
400.00 1.366
400.10 1.379
400.20 1.393
400.30 1.406
400.40 1.418
400.50 1.43
400.60 1.441
400.70 1.452
400.80 1.463
400.90 1.473
401.00 1.482
401.10 1.491
401.20 1.5
401.30 1.508
401.40 1.516
401.50 1.523
401.60 1.53
401.70 1.536
401.80 1.542
401.90 1.548
402.00 1.553
402.10 1.558
402.20 1.562
402.30 1.566
402.40 1.57
402.50 1.573
402.60 1.576
402.70 1.578
402.80 1.58
402.90 1.582
403.00 1.583
403.10 1.584
403.20 1.584
403.30 1.584
403.40 1.584
403.50 1.583
403.60 1.582
403.70 1.581
403.80 1.579
403.90 1.577
404.00 1.575
404.10 1.572
404.20 1.569
404.30 1.565
404.40 1.561
404.50 1.556
404.60 1.552
404.70 1.546
404.80 1.541
404.90 1.535
405.00 1.529
405.10 1.522
405.20 1.515
405.30 1.507
405.40 1.499
405.50 1.491
405.60 1.482
405.70 1.473
405.80 1.463
405.90 1.453
406.00 1.442
406.10 1.431
406.20 1.42
406.30 1.408
406.40 1.396
406.50 1.383
406.60 1.37
406.70 1.357
406.80 1.343
406.90 1.328
407.00 1.314
407.10 1.298
407.20 1.283
407.30 1.266
407.40 1.25
407.50 1.233
407.60 1.215
407.70 1.197
407.80 1.179
407.90 1.161
408.00 1.142
408.10 1.123
408.20 1.103
408.30 1.083
408.40 1.064
408.50 1.043
408.60 1.023
408.70 1.002
408.80 0.9804
408.90 0.9586
409.00 0.9365
409.10 0.9134
409.20 0.8896
409.30 0.8651
409.40 0.8383
409.50 0.81
409.60 0.7803
409.70 0.7483
409.80 0.716
409.90 0.6834
410.00 0.6447
410.10 0.6047
410.20 0.5631
410.30 0.6199
410.40 0.6654
410.50 0.6994
410.60 0.7313
410.70 0.7626
410.80 0.7932
410.90 0.821
411.00 0.8474
411.10 0.8723
411.20 0.8953
411.30 0.9176
411.40 0.9393
411.50 0.96
411.60 0.9804
411.70 1.001
411.80 1.02
411.90 1.039
412.00 1.058
412.10 1.077
412.20 1.095
412.30 1.113
412.40 1.13
412.50 1.148
412.60 1.165
412.70 1.182
412.80 1.198
412.90 1.214
413.00 1.229
413.10 1.245
413.20 1.26
413.30 1.274
413.40 1.288
413.50 1.301
413.60 1.314
413.70 1.327
413.80 1.34
413.90 1.352
414.00 1.363
414.10 1.375
414.20 1.385
414.30 1.396
414.40 1.407
414.50 1.416
414.60 1.426
414.70 1.436
414.80 1.444
414.90 1.453
415.00 1.462
415.10 1.47
415.20 1.478
415.30 1.485
415.40 1.492
415.50 1.499
415.60 1.506
415.70 1.513
415.80 1.519
415.90 1.525
416.00 1.53
416.10 1.536
416.20 1.541
416.30 1.546
416.40 1.551
416.50 1.556
416.60 1.56
416.70 1.565
416.80 1.569
416.90 1.573
417.00 1.577
417.10 1.58
417.20 1.584
417.30 1.587
417.40 1.59
417.50 1.593
417.60 1.596
417.70 1.598
417.80 1.601
417.90 1.603
418.00 1.605
418.10 1.608
418.20 1.61
418.30 1.612
418.40 1.613
418.50 1.615
418.60 1.616
418.70 1.618
418.80 1.619
418.90 1.62
419.00 1.622
419.10 1.623
419.20 1.623
419.30 1.624
419.40 1.625
419.50 1.626
419.60 1.626
419.70 1.627
419.80 1.627
419.90 1.628
420.00 1.628
420.10 1.628
420.20 1.628
420.30 1.628
420.40 1.628
420.50 1.628
420.60 1.628
420.70 1.628
420.80 1.627
420.90 1.627
421.00 1.626
421.10 1.626
421.20 1.625
421.30 1.625
421.40 1.624
421.50 1.623
421.60 1.623
421.70 1.622
421.80 1.621
421.90 1.62
422.00 1.619
422.10 1.617
422.20 1.616
422.30 1.615
422.40 1.614
422.50 1.612
422.60 1.611
422.70 1.61
422.80 1.608
422.90 1.606
423.00 1.605
423.10 1.603
423.20 1.601
423.30 1.599
423.40 1.597
423.50 1.595
423.60 1.593
423.70 1.591
423.80 1.589
423.90 1.587
424.00 1.584
424.10 1.582
424.20 1.58
424.30 1.577
424.40 1.575
424.50 1.572
424.60 1.569
424.70 1.566
424.80 1.563
424.90 1.56
425.00 1.557
425.10 1.554
425.20 1.551
425.30 1.548
425.40 1.544
425.50 1.541
425.60 1.537
425.70 1.533
425.80 1.53
425.90 1.526
426.00 1.522
426.10 1.517
426.20 1.512
426.30 1.508
426.40 1.503
426.50 1.499
426.60 1.494
426.70 1.489
426.80 1.484
426.90 1.479
427.00 1.474
427.10 1.469
427.20 1.463
427.30 1.458
427.40 1.452
427.50 1.446
427.60 1.44
427.70 1.434
427.80 1.427
427.90 1.421
428.00 1.414
428.10 1.407
428.20 1.4
428.30 1.393
428.40 1.386
428.50 1.378
428.60 1.37
428.70 1.362
428.80 1.354
428.90 1.346
429.00 1.337
429.10 1.329
429.20 1.32
429.30 1.31
429.40 1.301
429.50 1.291
429.60 1.281
429.70 1.271
429.80 1.261
429.90 1.25
430.00 1.24
430.10 1.228
430.20 1.217
430.30 1.206
430.40 1.194
430.50 1.182
430.60 1.17
430.70 1.157
430.80 1.145
430.90 1.132
431.00 1.119
431.10 1.105
431.20 1.092
431.30 1.078
431.40 1.064
431.50 1.05
431.60 1.036
431.70 1.021
431.80 1.006
431.90 0.991
432.00 0.9752
432.10 0.9591
432.20 0.9423
432.30 0.925
432.40 0.9072
432.50 0.8882
432.60 0.8687
432.70 0.8486
432.80 0.8281
432.90 0.8077
433.00 0.7876
433.10 0.7685
433.20 0.7492
433.30 0.7297
433.40 0.7081
433.50 0.6851
433.60 0.6607
433.70 0.6329
433.80 0.6021
433.90 0.5682
434.00 0.4943
434.10 0.4953
434.20 0.571
434.30 0.6037
434.40 0.6336
434.50 0.6606
434.60 0.6842
434.70 0.7064
434.80 0.727
434.90 0.7457
435.00 0.7642
435.10 0.7825
435.20 0.8017
435.30 0.8211
435.40 0.8406
435.50 0.8596
435.60 0.8779
435.70 0.8957
435.80 0.9122
435.90 0.9282
436.00 0.9437
436.10 0.9584
436.20 0.9728
436.30 0.9869
436.40 1
436.50 1.014
436.60 1.027
436.70 1.039
436.80 1.051
436.90 1.063
437.00 1.075
437.10 1.087
437.20 1.098
437.30 1.109
437.40 1.12
437.50 1.131
437.60 1.141
437.70 1.151
437.80 1.161
437.90 1.171
438.00 1.18
438.10 1.19
438.20 1.198
438.30 1.207
438.40 1.215
438.50 1.224
438.60 1.231
438.70 1.239
438.80 1.247
438.90 1.254
439.00 1.261
439.10 1.267
439.20 1.274
439.30 1.28
439.40 1.286
439.50 1.292
439.60 1.298
439.70 1.303
439.80 1.309
439.90 1.314
440.00 1.319
440.10 1.324
440.20 1.328
440.30 1.333
440.40 1.337
440.50 1.341
440.60 1.345
440.70 1.349
440.80 1.352
440.90 1.356
441.00 1.359
441.10 1.363
441.20 1.366
441.30 1.369
441.40 1.372
441.50 1.375
441.60 1.377
441.70 1.38
441.80 1.382
441.90 1.385
442.00 1.387
442.10 1.389
442.20 1.391
442.30 1.393
442.40 1.395
442.50 1.397
442.60 1.399
442.70 1.4
442.80 1.402
442.90 1.403
443.00 1.404
443.10 1.406
443.20 1.407
443.30 1.408
443.40 1.409
443.50 1.41
443.60 1.412
443.70 1.413
443.80 1.414
443.90 1.414
444.00 1.415
444.10 1.416
444.20 1.416
444.30 1.417
444.40 1.418
444.50 1.418
444.60 1.419
444.70 1.419
444.80 1.42
444.90 1.42
445.00 1.42
445.10 1.421
445.20 1.421
445.30 1.421
445.40 1.421
445.50 1.422
445.60 1.422
445.70 1.422
445.80 1.422
445.90 1.422
446.00 1.422
446.10 1.422
446.20 1.422
446.30 1.422
446.40 1.422
446.50 1.422
446.60 1.422
446.70 1.421
446.80 1.421
446.90 1.421
447.00 1.421
447.10 1.421
447.20 1.42
447.30 1.42
447.40 1.42
447.50 1.419
447.60 1.419
447.70 1.419
447.80 1.418
447.90 1.418
448.00 1.418
448.10 1.417
448.20 1.417
448.30 1.416
448.40 1.416
448.50 1.415
448.60 1.415
448.70 1.414
448.80 1.414
448.90 1.413
449.00 1.413
449.10 1.413
449.20 1.412
449.30 1.412
449.40 1.411
449.50 1.41
449.60 1.41
449.70 1.409
449.80 1.409
449.90 1.408
450.00 1.407
450.10 1.407
450.20 1.406
450.30 1.405
450.40 1.405
450.50 1.404
450.60 1.403
450.70 1.403
450.80 1.402
450.90 1.401
451.00 1.401
451.10 1.4
451.20 1.399
451.30 1.399
451.40 1.398
451.50 1.397
451.60 1.396
451.70 1.396
451.80 1.395
451.90 1.394
452.00 1.393
452.10 1.393
452.20 1.392
452.30 1.391
452.40 1.39
452.50 1.39
452.60 1.389
452.70 1.388
452.80 1.387
452.90 1.386
453.00 1.386
453.10 1.385
453.20 1.384
453.30 1.383
453.40 1.382
453.50 1.382
453.60 1.381
453.70 1.38
453.80 1.379
453.90 1.378
454.00 1.377
454.10 1.377
454.20 1.376
454.30 1.375
454.40 1.374
454.50 1.373
454.60 1.372
454.70 1.372
454.80 1.371
454.90 1.37
455.00 1.369
455.10 1.368
455.20 1.367
455.30 1.366
455.40 1.366
455.50 1.365
455.60 1.364
455.70 1.363
455.80 1.362
455.90 1.361
456.00 1.36
456.10 1.359
456.20 1.359
456.30 1.358
456.40 1.357
456.50 1.356
456.60 1.355
456.70 1.354
456.80 1.353
456.90 1.353
457.00 1.352
457.10 1.351
457.20 1.35
457.30 1.349
457.40 1.348
457.50 1.347
457.60 1.346
457.70 1.346
457.80 1.345
457.90 1.344
458.00 1.343
458.10 1.342
458.20 1.341
458.30 1.34
458.40 1.339
458.50 1.338
458.60 1.337
458.70 1.336
458.80 1.335
458.90 1.335
459.00 1.334
459.10 1.333
459.20 1.332
459.30 1.331
459.40 1.33
459.50 1.329
459.60 1.328
459.70 1.327
459.80 1.326
459.90 1.325
460.00 1.324
460.10 1.323
460.20 1.322
460.30 1.322
460.40 1.321
460.50 1.32
460.60 1.319
460.70 1.318
460.80 1.317
460.90 1.316
461.00 1.315
461.10 1.314
461.20 1.313
461.30 1.312
461.40 1.311
461.50 1.31
461.60 1.309
461.70 1.308
461.80 1.307
461.90 1.306
462.00 1.305
462.10 1.304
462.20 1.303
462.30 1.302
462.40 1.301
462.50 1.3
462.60 1.299
462.70 1.298
462.80 1.297
462.90 1.296
463.00 1.295
463.10 1.294
463.20 1.293
463.30 1.292
463.40 1.291
463.50 1.29
463.60 1.289
463.70 1.289
463.80 1.288
463.90 1.287
464.00 1.286
464.10 1.285
464.20 1.284
464.30 1.283
464.40 1.282
464.50 1.281
464.60 1.279
464.70 1.278
464.80 1.277
464.90 1.276
465.00 1.275
465.10 1.274
465.20 1.273
465.30 1.272
465.40 1.271
465.50 1.27
465.60 1.269
465.70 1.268
465.80 1.267
465.90 1.266
466.00 1.265
466.10 1.264
466.20 1.263
466.30 1.262
466.40 1.261
466.50 1.26
466.60 1.259
466.70 1.258
466.80 1.256
466.90 1.255
467.00 1.254
467.10 1.253
467.20 1.252
467.30 1.251
467.40 1.25
467.50 1.249
467.60 1.248
467.70 1.247
467.80 1.246
467.90 1.244
468.00 1.243
468.10 1.242
468.20 1.241
468.30 1.24
468.40 1.239
468.50 1.238
468.60 1.236
468.70 1.235
468.80 1.234
468.90 1.233
469.00 1.232
469.10 1.231
469.20 1.229
469.30 1.228
469.40 1.227
469.50 1.226
469.60 1.225
469.70 1.223
469.80 1.222
469.90 1.221
470.00 1.22
470.10 1.218
470.20 1.217
470.30 1.216
470.40 1.215
470.50 1.213
470.60 1.212
470.70 1.211
470.80 1.21
470.90 1.208
471.00 1.207
471.10 1.206
471.20 1.205
471.30 1.203
471.40 1.202
471.50 1.2
471.60 1.199
471.70 1.198
471.80 1.196
471.90 1.195
472.00 1.194
472.10 1.192
472.20 1.191
472.30 1.189
472.40 1.188
472.50 1.186
472.60 1.185
472.70 1.183
472.80 1.182
472.90 1.18
473.00 1.179
473.10 1.177
473.20 1.176
473.30 1.174
473.40 1.172
473.50 1.171
473.60 1.169
473.70 1.167
473.80 1.166
473.90 1.164
474.00 1.162
474.10 1.161
474.20 1.159
474.30 1.157
474.40 1.155
474.50 1.153
474.60 1.151
474.70 1.149
474.80 1.148
474.90 1.146
475.00 1.144
475.10 1.142
475.20 1.14
475.30 1.138
475.40 1.136
475.50 1.134
475.60 1.131
475.70 1.129
475.80 1.127
475.90 1.125
476.00 1.123
476.10 1.121
476.20 1.118
476.30 1.116
476.40 1.113
476.50 1.111
476.60 1.108
476.70 1.106
476.80 1.104
476.90 1.101
477.00 1.099
477.10 1.096
477.20 1.093
477.30 1.09
477.40 1.087
477.50 1.085
477.60 1.082
477.70 1.079
477.80 1.076
477.90 1.073
478.00 1.07
478.10 1.067
478.20 1.064
478.30 1.06
478.40 1.057
478.50 1.053
478.60 1.05
478.70 1.046
478.80 1.043
478.90 1.039
479.00 1.035
479.10 1.032
479.20 1.028
479.30 1.024
479.40 1.019
479.50 1.015
479.60 1.011
479.70 1.007
479.80 1.002
479.90 0.9981
480.00 0.9939
480.10 0.9896
480.20 0.9847
480.30 0.9795
480.40 0.9743
480.50 0.9692
480.60 0.964
480.70 0.9588
480.80 0.9536
480.90 0.9485
481.00 0.9433
481.10 0.9381
481.20 0.9322
481.30 0.9258
481.40 0.9194
481.50 0.9131
481.60 0.9067
481.70 0.9004
481.80 0.8941
481.90 0.8877
482.00 0.8814
482.10 0.8751
482.20 0.8678
482.30 0.8601
482.40 0.8525
482.50 0.8448
482.60 0.8371
482.70 0.8294
482.80 0.8217
482.90 0.8141
483.00 0.8064
483.10 0.7988
483.20 0.79
483.30 0.7806
483.40 0.7713
483.50 0.7619
483.60 0.7526
483.70 0.7433
483.80 0.734
483.90 0.7247
484.00 0.7154
484.10 0.7061
484.20 0.6959
484.30 0.6853
484.40 0.6747
484.50 0.6642
484.60 0.6536
484.70 0.6424
484.80 0.631
484.90 0.6196
485.00 0.6082
485.10 0.5969
485.20 0.5852
485.30 0.5734
485.40 0.5609
485.50 0.5481
485.60 0.5341
485.70 0.5196
485.80 0.5014
485.90 0.4816
486.00 0.4535
486.10 0.3728
486.20 0.4117
486.30 0.4649
486.40 0.4871
486.50 0.5067
486.60 0.5226
486.70 0.5367
486.80 0.5496
486.90 0.5618
487.00 0.5733
487.10 0.5846
487.20 0.5955
487.30 0.6062
487.40 0.6169
487.50 0.6276
487.60 0.6383
487.70 0.6484
487.80 0.6582
487.90 0.6679
488.00 0.6777
488.10 0.6875
488.20 0.6963
488.30 0.7046
488.40 0.713
488.50 0.7213
488.60 0.7296
488.70 0.738
488.80 0.7463
488.90 0.7546
489.00 0.7629
489.10 0.7712
489.20 0.7783
489.30 0.7848
489.40 0.7913
489.50 0.7978
489.60 0.8042
489.70 0.8107
489.80 0.8172
489.90 0.8237
490.00 0.8301
490.10 0.8366
490.20 0.842
490.30 0.847
490.40 0.852
490.50 0.857
490.60 0.862
490.70 0.867
490.80 0.8719
490.90 0.8769
491.00 0.8819
491.10 0.8868
491.20 0.8909
491.30 0.8946
491.40 0.8983
491.50 0.902
491.60 0.9057
491.70 0.9094
491.80 0.9131
491.90 0.9168
492.00 0.9205
492.10 0.9242
492.20 0.9272
492.30 0.9299
492.40 0.9326
492.50 0.9353
492.60 0.938
492.70 0.9407
492.80 0.9434
492.90 0.9461
493.00 0.9488
493.10 0.9515
493.20 0.9536
493.30 0.9556
493.40 0.9575
493.50 0.9594
493.60 0.9614
493.70 0.9633
493.80 0.9652
493.90 0.9672
494.00 0.9691
494.10 0.971
494.20 0.9725
494.30 0.9738
494.40 0.9751
494.50 0.9764
494.60 0.9777
494.70 0.979
494.80 0.9803
494.90 0.9816
495.00 0.9829
495.10 0.9842
495.20 0.9852
495.30 0.986
495.40 0.9869
495.50 0.9877
495.60 0.9885
495.70 0.9894
495.80 0.9902
495.90 0.991
496.00 0.9919
496.10 0.9927
496.20 0.9933
496.30 0.9938
496.40 0.9943
496.50 0.9948
496.60 0.9953
496.70 0.9958
496.80 0.9963
496.90 0.9968
497.00 0.9973
497.10 0.9978
497.20 0.9981
497.30 0.9984
497.40 0.9986
497.50 0.9988
497.60 0.9991
497.70 0.9993
497.80 0.9996
497.90 0.9998
498.00 1
498.10 1
498.20 1
498.30 1
498.40 1
498.50 1.001
498.60 1.001
498.70 1.001
498.80 1.001
498.90 1.001
499.00 1.001
499.10 1.001
499.20 1.001
499.30 1.001
499.40 1.001
499.50 1
499.60 1
499.70 1
499.80 1
499.90 1
500.00 1
500.10 0.9999
500.20 0.9997
500.30 0.9995
500.40 0.9993
500.50 0.9991
500.60 0.9989
500.70 0.9987
500.80 0.9985
500.90 0.9983
501.00 0.9981
501.10 0.9979
501.20 0.9976
501.30 0.9973
501.40 0.997
501.50 0.9967
501.60 0.9964
501.70 0.9962
501.80 0.9959
501.90 0.9956
502.00 0.9953
502.10 0.995
502.20 0.9947
502.30 0.9943
502.40 0.994
502.50 0.9936
502.60 0.9933
502.70 0.9929
502.80 0.9926
502.90 0.9922
503.00 0.9919
503.10 0.9915
503.20 0.9911
503.30 0.9908
503.40 0.9904
503.50 0.99
503.60 0.9896
503.70 0.9892
503.80 0.9888
503.90 0.9884
504.00 0.988
504.10 0.9876
504.20 0.9871
504.30 0.9867
504.40 0.9863
504.50 0.9858
504.60 0.9854
504.70 0.985
504.80 0.9845
504.90 0.9841
505.00 0.9837
505.10 0.9832
505.20 0.9828
505.30 0.9823
505.40 0.9818
505.50 0.9814
505.60 0.9809
505.70 0.9804
505.80 0.98
505.90 0.9795
506.00 0.979
506.10 0.9786
506.20 0.9781
506.30 0.9776
506.40 0.9771
506.50 0.9766
506.60 0.9761
506.70 0.9757
506.80 0.9752
506.90 0.9747
507.00 0.9742
507.10 0.9737
507.20 0.9732
507.30 0.9727
507.40 0.9722
507.50 0.9717
507.60 0.9712
507.70 0.9707
507.80 0.9702
507.90 0.9697
508.00 0.9692
508.10 0.9687
508.20 0.9682
508.30 0.9676
508.40 0.9671
508.50 0.9666
508.60 0.9661
508.70 0.9656
508.80 0.965
508.90 0.9645
509.00 0.964
509.10 0.9635
509.20 0.963
509.30 0.9624
509.40 0.9619
509.50 0.9614
509.60 0.9608
509.70 0.9603
509.80 0.9598
509.90 0.9593
510.00 0.9587
510.10 0.9582
510.20 0.9577
510.30 0.9571
510.40 0.9566
510.50 0.9561
510.60 0.9555
510.70 0.955
510.80 0.9545
510.90 0.9539
511.00 0.9534
511.10 0.9529
511.20 0.9523
511.30 0.9518
511.40 0.9512
511.50 0.9507
511.60 0.9501
511.70 0.9496
511.80 0.9491
511.90 0.9485
512.00 0.948
512.10 0.9474
512.20 0.9469
512.30 0.9464
512.40 0.9458
512.50 0.9453
512.60 0.9447
512.70 0.9442
512.80 0.9436
512.90 0.9431
513.00 0.9425
513.10 0.942
513.20 0.9415
513.30 0.9409
513.40 0.9404
513.50 0.9398
513.60 0.9393
513.70 0.9387
513.80 0.9382
513.90 0.9376
514.00 0.9371
514.10 0.9365
514.20 0.936
514.30 0.9354
514.40 0.9349
514.50 0.9343
514.60 0.9338
514.70 0.9332
514.80 0.9327
514.90 0.9321
515.00 0.9316
515.10 0.931
515.20 0.9305
515.30 0.9299
515.40 0.9294
515.50 0.9288
515.60 0.9283
515.70 0.9278
515.80 0.9272
515.90 0.9267
516.00 0.9261
516.10 0.9256
516.20 0.925
516.30 0.9245
516.40 0.9239
516.50 0.9234
516.60 0.9228
516.70 0.9223
516.80 0.9217
516.90 0.9212
517.00 0.9206
517.10 0.9201
517.20 0.9195
517.30 0.919
517.40 0.9184
517.50 0.9179
517.60 0.9173
517.70 0.9168
517.80 0.9162
517.90 0.9157
518.00 0.9152
518.10 0.9146
518.20 0.9141
518.30 0.9135
518.40 0.913
518.50 0.9124
518.60 0.9119
518.70 0.9113
518.80 0.9108
518.90 0.9102
519.00 0.9097
519.10 0.9091
519.20 0.9086
519.30 0.9081
519.40 0.9075
519.50 0.907
519.60 0.9064
519.70 0.9059
519.80 0.9053
519.90 0.9048
520.00 0.9042
520.10 0.9037
520.20 0.9032
520.30 0.9026
520.40 0.9021
520.50 0.9015
520.60 0.901
520.70 0.9004
520.80 0.8999
520.90 0.8994
521.00 0.8988
521.10 0.8983
521.20 0.8977
521.30 0.8972
521.40 0.8967
521.50 0.8961
521.60 0.8956
521.70 0.895
521.80 0.8945
521.90 0.894
522.00 0.8934
522.10 0.8929
522.20 0.8923
522.30 0.8918
522.40 0.8913
522.50 0.8907
522.60 0.8902
522.70 0.8896
522.80 0.8891
522.90 0.8886
523.00 0.888
523.10 0.8875
523.20 0.887
523.30 0.8864
523.40 0.8859
523.50 0.8854
523.60 0.8848
523.70 0.8843
523.80 0.8837
523.90 0.8832
524.00 0.8827
524.10 0.8821
524.20 0.8816
524.30 0.8811
524.40 0.8805
524.50 0.88
524.60 0.8795
524.70 0.8789
524.80 0.8784
524.90 0.8779
525.00 0.8773
525.10 0.8768
525.20 0.8763
525.30 0.8758
525.40 0.8752
525.50 0.8747
525.60 0.8742
525.70 0.8736
525.80 0.8731
525.90 0.8726
526.00 0.872
526.10 0.8715
526.20 0.871
526.30 0.8705
526.40 0.8699
526.50 0.8694
526.60 0.8689
526.70 0.8684
526.80 0.8678
526.90 0.8673
527.00 0.8668
527.10 0.8662
527.20 0.8657
527.30 0.8652
527.40 0.8647
527.50 0.8641
527.60 0.8636
527.70 0.8631
527.80 0.8626
527.90 0.8621
528.00 0.8615
528.10 0.861
528.20 0.8605
528.30 0.86
528.40 0.8594
528.50 0.8589
528.60 0.8584
528.70 0.8579
528.80 0.8574
528.90 0.8568
529.00 0.8563
529.10 0.8558
529.20 0.8553
529.30 0.8548
529.40 0.8543
529.50 0.8537
529.60 0.8532
529.70 0.8527
529.80 0.8522
529.90 0.8517
530.00 0.8511
530.10 0.8506
530.20 0.8501
530.30 0.8496
530.40 0.8491
530.50 0.8486
530.60 0.8481
530.70 0.8475
530.80 0.847
530.90 0.8465
531.00 0.846
531.10 0.8455
531.20 0.845
531.30 0.8445
531.40 0.844
531.50 0.8434
531.60 0.8429
531.70 0.8424
531.80 0.8419
531.90 0.8414
532.00 0.8409
532.10 0.8404
532.20 0.8399
532.30 0.8394
532.40 0.8389
532.50 0.8384
532.60 0.8378
532.70 0.8373
532.80 0.8368
532.90 0.8363
533.00 0.8358
533.10 0.8353
533.20 0.8348
533.30 0.8343
533.40 0.8338
533.50 0.8333
533.60 0.8328
533.70 0.8323
533.80 0.8318
533.90 0.8313
534.00 0.8308
534.10 0.8303
534.20 0.8298
534.30 0.8293
534.40 0.8288
534.50 0.8283
534.60 0.8278
534.70 0.8273
534.80 0.8268
534.90 0.8263
535.00 0.8258
535.10 0.8253
535.20 0.8248
535.30 0.8243
535.40 0.8238
535.50 0.8233
535.60 0.8228
535.70 0.8223
535.80 0.8218
535.90 0.8213
536.00 0.8208
536.10 0.8203
536.20 0.8198
536.30 0.8193
536.40 0.8188
536.50 0.8183
536.60 0.8178
536.70 0.8173
536.80 0.8168
536.90 0.8164
537.00 0.8159
537.10 0.8154
537.20 0.8149
537.30 0.8144
537.40 0.8139
537.50 0.8134
537.60 0.8129
537.70 0.8124
537.80 0.8119
537.90 0.8114
538.00 0.811
538.10 0.8105
538.20 0.81
538.30 0.8095
538.40 0.809
538.50 0.8085
538.60 0.808
538.70 0.8075
538.80 0.8071
538.90 0.8066
539.00 0.8061
539.10 0.8056
539.20 0.8051
539.30 0.8046
539.40 0.8041
539.50 0.8037
539.60 0.8032
539.70 0.8027
539.80 0.8022
539.90 0.8017
540.00 0.8012
540.10 0.8008
540.20 0.8003
540.30 0.7998
540.40 0.7993
540.50 0.7988
540.60 0.7984
540.70 0.7979
540.80 0.7974
540.90 0.7969
541.00 0.7964
541.10 0.796
541.20 0.7955
541.30 0.795
541.40 0.7945
541.50 0.7941
541.60 0.7936
541.70 0.7931
541.80 0.7926
541.90 0.7922
542.00 0.7917
542.10 0.7912
542.20 0.7907
542.30 0.7903
542.40 0.7898
542.50 0.7893
542.60 0.7888
542.70 0.7884
542.80 0.7879
542.90 0.7874
543.00 0.7869
543.10 0.7865
543.20 0.786
543.30 0.7855
543.40 0.7851
543.50 0.7846
543.60 0.7841
543.70 0.7837
543.80 0.7832
543.90 0.7827
544.00 0.7822
544.10 0.7818
544.20 0.7813
544.30 0.7808
544.40 0.7804
544.50 0.7799
544.60 0.7794
544.70 0.779
544.80 0.7785
544.90 0.7781
545.00 0.7776
545.10 0.7771
545.20 0.7767
545.30 0.7762
545.40 0.7757
545.50 0.7753
545.60 0.7748
545.70 0.7743
545.80 0.7739
545.90 0.7734
546.00 0.773
546.10 0.7725
546.20 0.7721
546.30 0.7716
546.40 0.7712
546.50 0.7708
546.60 0.7704
546.70 0.77
546.80 0.7695
546.90 0.7691
547.00 0.7687
547.10 0.7683
547.20 0.7678
547.30 0.7674
547.40 0.7669
547.50 0.7665
547.60 0.766
547.70 0.7655
547.80 0.7651
547.90 0.7646
548.00 0.7642
548.10 0.7637
548.20 0.7633
548.30 0.7628
548.40 0.7623
548.50 0.7619
548.60 0.7614
548.70 0.761
548.80 0.7605
548.90 0.7601
549.00 0.7596
549.10 0.7592
549.20 0.7587
549.30 0.7583
549.40 0.7578
549.50 0.7574
549.60 0.7569
549.70 0.7564
549.80 0.756
549.90 0.7555
550.00 0.7551
550.10 0.7546
550.20 0.7542
550.30 0.7537
550.40 0.7533
550.50 0.7529
550.60 0.7524
550.70 0.752
550.80 0.7515
550.90 0.7511
551.00 0.7506
551.10 0.7502
551.20 0.7497
551.30 0.7493
551.40 0.7488
551.50 0.7484
551.60 0.7479
551.70 0.7475
551.80 0.7471
551.90 0.7466
552.00 0.7462
552.10 0.7457
552.20 0.7453
552.30 0.7448
552.40 0.7444
552.50 0.744
552.60 0.7435
552.70 0.7431
552.80 0.7426
552.90 0.7422
553.00 0.7417
553.10 0.7413
553.20 0.7409
553.30 0.7404
553.40 0.74
553.50 0.7395
553.60 0.7391
553.70 0.7387
553.80 0.7382
553.90 0.7378
554.00 0.7374
554.10 0.7369
554.20 0.7365
554.30 0.7361
554.40 0.7356
554.50 0.7352
554.60 0.7347
554.70 0.7343
554.80 0.7339
554.90 0.7334
555.00 0.733
555.10 0.7326
555.20 0.7321
555.30 0.7317
555.40 0.7313
555.50 0.7308
555.60 0.7304
555.70 0.73
555.80 0.7296
555.90 0.7291
556.00 0.7287
556.10 0.7283
556.20 0.7278
556.30 0.7274
556.40 0.727
556.50 0.7265
556.60 0.7261
556.70 0.7257
556.80 0.7253
556.90 0.7248
557.00 0.7244
557.10 0.724
557.20 0.7236
557.30 0.7231
557.40 0.7227
557.50 0.7223
557.60 0.7219
557.70 0.7214
557.80 0.721
557.90 0.7206
558.00 0.7202
558.10 0.7197
558.20 0.7193
558.30 0.7189
558.40 0.7185
558.50 0.718
558.60 0.7176
558.70 0.7172
558.80 0.7168
558.90 0.7163
559.00 0.7159
559.10 0.7155
559.20 0.7151
559.30 0.7147
559.40 0.7142
559.50 0.7138
559.60 0.7134
559.70 0.713
559.80 0.7126
559.90 0.7122
560.00 0.7117
560.10 0.7113
560.20 0.7109
560.30 0.7105
560.40 0.7101
560.50 0.7097
560.60 0.7092
560.70 0.7088
560.80 0.7084
560.90 0.708
561.00 0.7076
561.10 0.7072
561.20 0.7067
561.30 0.7063
561.40 0.7059
561.50 0.7055
561.60 0.7051
561.70 0.7047
561.80 0.7043
561.90 0.7039
562.00 0.7034
562.10 0.703
562.20 0.7026
562.30 0.7022
562.40 0.7018
562.50 0.7014
562.60 0.701
562.70 0.7006
562.80 0.7002
562.90 0.6998
563.00 0.6993
563.10 0.6989
563.20 0.6985
563.30 0.6981
563.40 0.6977
563.50 0.6973
563.60 0.6969
563.70 0.6965
563.80 0.6961
563.90 0.6957
564.00 0.6953
564.10 0.6949
564.20 0.6945
564.30 0.6941
564.40 0.6937
564.50 0.6933
564.60 0.6928
564.70 0.6924
564.80 0.692
564.90 0.6916
565.00 0.6912
565.10 0.6908
565.20 0.6904
565.30 0.69
565.40 0.6896
565.50 0.6892
565.60 0.6888
565.70 0.6884
565.80 0.688
565.90 0.6876
566.00 0.6872
566.10 0.6868
566.20 0.6864
566.30 0.686
566.40 0.6856
566.50 0.6852
566.60 0.6848
566.70 0.6844
566.80 0.684
566.90 0.6836
567.00 0.6832
567.10 0.6828
567.20 0.6824
567.30 0.6821
567.40 0.6817
567.50 0.6813
567.60 0.6809
567.70 0.6805
567.80 0.6801
567.90 0.6797
568.00 0.6793
568.10 0.6789
568.20 0.6785
568.30 0.6781
568.40 0.6777
568.50 0.6773
568.60 0.6769
568.70 0.6765
568.80 0.6761
568.90 0.6758
569.00 0.6754
569.10 0.675
569.20 0.6746
569.30 0.6742
569.40 0.6738
569.50 0.6734
569.60 0.673
569.70 0.6726
569.80 0.6722
569.90 0.6719
570.00 0.6715
570.10 0.6711
570.20 0.6707
570.30 0.6703
570.40 0.6699
570.50 0.6695
570.60 0.6691
570.70 0.6688
570.80 0.6684
570.90 0.668
571.00 0.6676
571.10 0.6672
571.20 0.6668
571.30 0.6664
571.40 0.6661
571.50 0.6657
571.60 0.6653
571.70 0.6649
571.80 0.6645
571.90 0.6641
572.00 0.6638
572.10 0.6634
572.20 0.663
572.30 0.6626
572.40 0.6622
572.50 0.6619
572.60 0.6615
572.70 0.6611
572.80 0.6607
572.90 0.6603
573.00 0.66
573.10 0.6596
573.20 0.6592
573.30 0.6588
573.40 0.6584
573.50 0.6581
573.60 0.6577
573.70 0.6573
573.80 0.6569
573.90 0.6565
574.00 0.6562
574.10 0.6558
574.20 0.6554
574.30 0.655
574.40 0.6547
574.50 0.6543
574.60 0.6539
574.70 0.6535
574.80 0.6532
574.90 0.6528
575.00 0.6524
575.10 0.652
575.20 0.6517
575.30 0.6513
575.40 0.6509
575.50 0.6505
575.60 0.6502
575.70 0.6498
575.80 0.6494
575.90 0.6491
576.00 0.6487
576.10 0.6483
576.20 0.6479
576.30 0.6476
576.40 0.6472
576.50 0.6468
576.60 0.6465
576.70 0.6461
576.80 0.6457
576.90 0.6454
577.00 0.645
577.10 0.6446
577.20 0.6442
577.30 0.6439
577.40 0.6435
577.50 0.6431
577.60 0.6428
577.70 0.6424
577.80 0.642
577.90 0.6417
578.00 0.6413
578.10 0.6409
578.20 0.6406
578.30 0.6402
578.40 0.6398
578.50 0.6395
578.60 0.6391
578.70 0.6387
578.80 0.6384
578.90 0.638
579.00 0.6377
579.10 0.6373
579.20 0.6369
579.30 0.6366
579.40 0.6362
579.50 0.6358
579.60 0.6355
579.70 0.6351
579.80 0.6348
579.90 0.6344
580.00 0.634
580.10 0.6337
580.20 0.6333
580.30 0.633
580.40 0.6326
580.50 0.6322
580.60 0.6319
580.70 0.6315
580.80 0.6312
580.90 0.6308
581.00 0.6304
581.10 0.6301
581.20 0.6297
581.30 0.6294
581.40 0.629
581.50 0.6286
581.60 0.6283
581.70 0.6279
581.80 0.6276
581.90 0.6272
582.00 0.6269
582.10 0.6265
582.20 0.6262
582.30 0.6258
582.40 0.6254
582.50 0.6251
582.60 0.6247
582.70 0.6244
582.80 0.624
582.90 0.6237
583.00 0.6233
583.10 0.623
583.20 0.6226
583.30 0.6223
583.40 0.6219
583.50 0.6216
583.60 0.6212
583.70 0.6209
583.80 0.6205
583.90 0.6201
584.00 0.6198
584.10 0.6194
584.20 0.6191
584.30 0.6187
584.40 0.6184
584.50 0.618
584.60 0.6177
584.70 0.6174
584.80 0.617
584.90 0.6167
585.00 0.6163
585.10 0.616
585.20 0.6156
585.30 0.6153
585.40 0.6149
585.50 0.6146
585.60 0.6142
585.70 0.6139
585.80 0.6135
585.90 0.6132
586.00 0.6128
586.10 0.6125
586.20 0.6121
586.30 0.6118
586.40 0.6114
586.50 0.6111
586.60 0.6108
586.70 0.6104
586.80 0.6101
586.90 0.6097
587.00 0.6094
587.10 0.609
587.20 0.6087
587.30 0.6084
587.40 0.608
587.50 0.6077
587.60 0.6073
587.70 0.607
587.80 0.6066
587.90 0.6063
588.00 0.606
588.10 0.6056
588.20 0.6053
588.30 0.6049
588.40 0.6046
588.50 0.6043
588.60 0.6039
588.70 0.6036
588.80 0.6032
588.90 0.6029
589.00 0.6026
589.10 0.6022
589.20 0.6019
589.30 0.6016
589.40 0.6012
589.50 0.6009
589.60 0.6005
589.70 0.6002
589.80 0.5999
589.90 0.5995
590.00 0.5992
590.10 0.5989
590.20 0.5985
590.30 0.5982
590.40 0.5979
590.50 0.5975
590.60 0.5972
590.70 0.5968
590.80 0.5965
590.90 0.5962
591.00 0.5958
591.10 0.5955
591.20 0.5952
591.30 0.5948
591.40 0.5945
591.50 0.5942
591.60 0.5938
591.70 0.5935
591.80 0.5932
591.90 0.5928
592.00 0.5925
592.10 0.5922
592.20 0.5919
592.30 0.5915
592.40 0.5912
592.50 0.5909
592.60 0.5905
592.70 0.5902
592.80 0.5899
592.90 0.5895
593.00 0.5892
593.10 0.5889
593.20 0.5886
593.30 0.5882
593.40 0.5879
593.50 0.5876
593.60 0.5872
593.70 0.5869
593.80 0.5866
593.90 0.5863
594.00 0.5859
594.10 0.5856
594.20 0.5853
594.30 0.585
594.40 0.5846
594.50 0.5843
594.60 0.584
594.70 0.5837
594.80 0.5833
594.90 0.583
595.00 0.5827
595.10 0.5824
595.20 0.582
595.30 0.5817
595.40 0.5814
595.50 0.5811
595.60 0.5807
595.70 0.5804
595.80 0.5801
595.90 0.5798
596.00 0.5794
596.10 0.5791
596.20 0.5787
596.30 0.5783
596.40 0.578
596.50 0.5776
596.60 0.5772
596.70 0.5768
596.80 0.5764
596.90 0.576
597.00 0.5756
597.10 0.5752
597.20 0.5748
597.30 0.5745
597.40 0.5742
597.50 0.5739
597.60 0.5736
597.70 0.5732
597.80 0.5729
597.90 0.5726
598.00 0.5723
598.10 0.572
598.20 0.5716
598.30 0.5713
598.40 0.571
598.50 0.5707
598.60 0.5704
598.70 0.57
598.80 0.5697
598.90 0.5694
599.00 0.5691
599.10 0.5688
599.20 0.5684
599.30 0.5681
599.40 0.5678
599.50 0.5675
599.60 0.5672
599.70 0.5669
599.80 0.5665
599.90 0.5662
600.00 0.5659
600.10 0.5656
600.20 0.5653
600.30 0.565
600.40 0.5647
600.50 0.5643
600.60 0.564
600.70 0.5637
600.80 0.5634
600.90 0.5631
601.00 0.5628
601.10 0.5625
601.20 0.5621
601.30 0.5618
601.40 0.5615
601.50 0.5612
601.60 0.5609
601.70 0.5606
601.80 0.5603
601.90 0.5599
602.00 0.5596
602.10 0.5593
602.20 0.559
602.30 0.5587
602.40 0.5584
602.50 0.5581
602.60 0.5578
602.70 0.5575
602.80 0.5572
602.90 0.5568
603.00 0.5565
603.10 0.5562
603.20 0.5559
603.30 0.5556
603.40 0.5553
603.50 0.555
603.60 0.5547
603.70 0.5544
603.80 0.5541
603.90 0.5537
604.00 0.5534
604.10 0.5531
604.20 0.5528
604.30 0.5525
604.40 0.5522
604.50 0.5519
604.60 0.5516
604.70 0.5513
604.80 0.551
604.90 0.5507
605.00 0.5504
605.10 0.5501
605.20 0.5498
605.30 0.5495
605.40 0.5492
605.50 0.5488
605.60 0.5485
605.70 0.5482
605.80 0.5479
605.90 0.5476
606.00 0.5473
606.10 0.547
606.20 0.5467
606.30 0.5464
606.40 0.5461
606.50 0.5458
606.60 0.5455
606.70 0.5452
606.80 0.5449
606.90 0.5446
607.00 0.5443
607.10 0.544
607.20 0.5437
607.30 0.5434
607.40 0.5431
607.50 0.5428
607.60 0.5425
607.70 0.5422
607.80 0.5419
607.90 0.5416
608.00 0.5413
608.10 0.541
608.20 0.5407
608.30 0.5404
608.40 0.5401
608.50 0.5398
608.60 0.5395
608.70 0.5392
608.80 0.5389
608.90 0.5386
609.00 0.5383
609.10 0.538
609.20 0.5377
609.30 0.5374
609.40 0.5371
609.50 0.5368
609.60 0.5365
609.70 0.5362
609.80 0.5359
609.90 0.5356
610.00 0.5353
610.10 0.535
610.20 0.5347
610.30 0.5344
610.40 0.5341
610.50 0.5338
610.60 0.5335
610.70 0.5332
610.80 0.5329
610.90 0.5326
611.00 0.5323
611.10 0.532
611.20 0.5318
611.30 0.5315
611.40 0.5312
611.50 0.5309
611.60 0.5306
611.70 0.5303
611.80 0.53
611.90 0.5297
612.00 0.5294
612.10 0.5291
612.20 0.5288
612.30 0.5285
612.40 0.5282
612.50 0.5279
612.60 0.5276
612.70 0.5273
612.80 0.5271
612.90 0.5268
613.00 0.5265
613.10 0.5262
613.20 0.5259
613.30 0.5256
613.40 0.5253
613.50 0.525
613.60 0.5247
613.70 0.5244
613.80 0.5241
613.90 0.5239
614.00 0.5236
614.10 0.5233
614.20 0.523
614.30 0.5227
614.40 0.5224
614.50 0.5221
614.60 0.5218
614.70 0.5215
614.80 0.5212
614.90 0.5209
615.00 0.5207
615.10 0.5204
615.20 0.5201
615.30 0.5198
615.40 0.5195
615.50 0.5192
615.60 0.5189
615.70 0.5186
615.80 0.5184
615.90 0.5181
616.00 0.5178
616.10 0.5175
616.20 0.5172
616.30 0.5169
616.40 0.5166
616.50 0.5163
616.60 0.516
616.70 0.5158
616.80 0.5155
616.90 0.5152
617.00 0.5149
617.10 0.5146
617.20 0.5143
617.30 0.514
617.40 0.5138
617.50 0.5135
617.60 0.5132
617.70 0.5129
617.80 0.5126
617.90 0.5123
618.00 0.512
618.10 0.5118
618.20 0.5115
618.30 0.5112
618.40 0.5109
618.50 0.5106
618.60 0.5103
618.70 0.51
618.80 0.5098
618.90 0.5095
619.00 0.5092
619.10 0.5089
619.20 0.5086
619.30 0.5083
619.40 0.508
619.50 0.5078
619.60 0.5075
619.70 0.5072
619.80 0.5069
619.90 0.5066
620.00 0.5063
620.10 0.5061
620.20 0.5058
620.30 0.5055
620.40 0.5052
620.50 0.5049
620.60 0.5046
620.70 0.5044
620.80 0.5041
620.90 0.5038
621.00 0.5035
621.10 0.5032
621.20 0.503
621.30 0.5027
621.40 0.5024
621.50 0.5021
621.60 0.5018
621.70 0.5015
621.80 0.5013
621.90 0.501
622.00 0.5007
622.10 0.5004
622.20 0.5001
622.30 0.4998
622.40 0.4996
622.50 0.4993
622.60 0.499
622.70 0.4987
622.80 0.4984
622.90 0.4982
623.00 0.4979
623.10 0.4976
623.20 0.4973
623.30 0.497
623.40 0.4967
623.50 0.4965
623.60 0.4962
623.70 0.4959
623.80 0.4956
623.90 0.4953
624.00 0.4951
624.10 0.4948
624.20 0.4945
624.30 0.4942
624.40 0.4939
624.50 0.4937
624.60 0.4934
624.70 0.4931
624.80 0.4928
624.90 0.4925
625.00 0.4923
625.10 0.492
625.20 0.4917
625.30 0.4914
625.40 0.4911
625.50 0.4909
625.60 0.4906
625.70 0.4903
625.80 0.49
625.90 0.4897
626.00 0.4895
626.10 0.4892
626.20 0.4889
626.30 0.4886
626.40 0.4883
626.50 0.488
626.60 0.4878
626.70 0.4875
626.80 0.4872
626.90 0.4869
627.00 0.4866
627.10 0.4864
627.20 0.4861
627.30 0.4858
627.40 0.4855
627.50 0.4852
627.60 0.485
627.70 0.4847
627.80 0.4844
627.90 0.4841
628.00 0.4838
628.10 0.4836
628.20 0.4833
628.30 0.483
628.40 0.4827
628.50 0.4824
628.60 0.4822
628.70 0.4819
628.80 0.4816
628.90 0.4813
629.00 0.481
629.10 0.4807
629.20 0.4805
629.30 0.4802
629.40 0.4799
629.50 0.4796
629.60 0.4793
629.70 0.4791
629.80 0.4788
629.90 0.4785
630.00 0.4782
630.10 0.4779
630.20 0.4776
630.30 0.4774
630.40 0.4771
630.50 0.4768
630.60 0.4765
630.70 0.4762
630.80 0.4759
630.90 0.4757
631.00 0.4754
631.10 0.4751
631.20 0.4748
631.30 0.4745
631.40 0.4742
631.50 0.4739
631.60 0.4737
631.70 0.4734
631.80 0.4731
631.90 0.4728
632.00 0.4725
632.10 0.4722
632.20 0.4719
632.30 0.4717
632.40 0.4714
632.50 0.4711
632.60 0.4708
632.70 0.4705
632.80 0.4702
632.90 0.4699
633.00 0.4696
633.10 0.4693
633.20 0.469
633.30 0.4687
633.40 0.4685
633.50 0.4682
633.60 0.4679
633.70 0.4676
633.80 0.4673
633.90 0.467
634.00 0.4667
634.10 0.4664
634.20 0.4661
634.30 0.4658
634.40 0.4655
634.50 0.4652
634.60 0.4649
634.70 0.4646
634.80 0.4643
634.90 0.464
635.00 0.4637
635.10 0.4634
635.20 0.4631
635.30 0.4628
635.40 0.4625
635.50 0.4622
635.60 0.4619
635.70 0.4616
635.80 0.4613
635.90 0.461
636.00 0.4607
636.10 0.4604
636.20 0.4601
636.30 0.4598
636.40 0.4595
636.50 0.4591
636.60 0.4588
636.70 0.4585
636.80 0.4582
636.90 0.4579
637.00 0.4576
637.10 0.4573
637.20 0.4569
637.30 0.4566
637.40 0.4563
637.50 0.456
637.60 0.4557
637.70 0.4553
637.80 0.455
637.90 0.4547
638.00 0.4544
638.10 0.454
638.20 0.4537
638.30 0.4534
638.40 0.453
638.50 0.4527
638.60 0.4524
638.70 0.452
638.80 0.4517
638.90 0.4514
639.00 0.451
639.10 0.4507
639.20 0.4504
639.30 0.45
639.40 0.4497
639.50 0.4493
639.60 0.449
639.70 0.4486
639.80 0.4482
639.90 0.4479
640.00 0.4475
640.10 0.4472
640.20 0.4468
640.30 0.4465
640.40 0.4461
640.50 0.4457
640.60 0.4454
640.70 0.445
640.80 0.4446
640.90 0.4442
641.00 0.4439
641.10 0.4435
641.20 0.4431
641.30 0.4427
641.40 0.4423
641.50 0.442
641.60 0.4416
641.70 0.4412
641.80 0.4408
641.90 0.4404
642.00 0.44
642.10 0.4396
642.20 0.4392
642.30 0.4388
642.40 0.4383
642.50 0.4379
642.60 0.4375
642.70 0.4371
642.80 0.4366
642.90 0.4362
643.00 0.4358
643.10 0.4353
643.20 0.4349
643.30 0.4345
643.40 0.434
643.50 0.4335
643.60 0.4331
643.70 0.4326
643.80 0.4321
643.90 0.4316
644.00 0.4312
644.10 0.4307
644.20 0.4302
644.30 0.4298
644.40 0.4292
644.50 0.4287
644.60 0.4282
644.70 0.4277
644.80 0.4271
644.90 0.4266
645.00 0.4261
645.10 0.4256
645.20 0.425
645.30 0.4245
645.40 0.4239
645.50 0.4233
645.60 0.4227
645.70 0.4221
645.80 0.4216
645.90 0.421
646.00 0.4204
646.10 0.4198
646.20 0.4192
646.30 0.4186
646.40 0.4179
646.50 0.4172
646.60 0.4166
646.70 0.4159
646.80 0.4152
646.90 0.4145
647.00 0.4139
647.10 0.4132
647.20 0.4125
647.30 0.4118
647.40 0.411
647.50 0.4103
647.60 0.4095
647.70 0.4087
647.80 0.4079
647.90 0.4071
648.00 0.4063
648.10 0.4055
648.20 0.4047
648.30 0.4039
648.40 0.403
648.50 0.4021
648.60 0.4011
648.70 0.4002
648.80 0.3993
648.90 0.3983
649.00 0.3974
649.10 0.3965
649.20 0.3955
649.30 0.3946
649.40 0.3934
649.50 0.3923
649.60 0.3912
649.70 0.3901
649.80 0.389
649.90 0.3879
650.00 0.3868
650.10 0.3856
650.20 0.3845
650.30 0.3834
650.40 0.382
650.50 0.3807
650.60 0.3793
650.70 0.378
650.80 0.3767
650.90 0.3753
651.00 0.374
651.10 0.3726
651.20 0.3713
651.30 0.3699
651.40 0.3682
651.50 0.3666
651.60 0.365
651.70 0.3633
651.80 0.3617
651.90 0.3601
652.00 0.3584
652.10 0.3568
652.20 0.3552
652.30 0.3534
652.40 0.3514
652.50 0.3494
652.60 0.3475
652.70 0.3455
652.80 0.3435
652.90 0.3415
653.00 0.3395
653.10 0.3375
653.20 0.3355
653.30 0.3334
653.40 0.331
653.50 0.3285
653.60 0.3261
653.70 0.3236
653.80 0.3212
653.90 0.3188
654.00 0.3163
654.10 0.3139
654.20 0.3115
654.30 0.3089
654.40 0.3061
654.50 0.3033
654.60 0.3005
654.70 0.2977
654.80 0.2948
654.90 0.2916
655.00 0.2883
655.10 0.2851
655.20 0.2818
655.30 0.2785
655.40 0.275
655.50 0.2713
655.60 0.2673
655.70 0.2631
655.80 0.2582
655.90 0.2528
656.00 0.2452
656.10 0.2368
656.20 0.2103
656.30 0.1861
656.40 0.2259
656.50 0.24
656.60 0.2475
656.70 0.2543
656.80 0.259
656.90 0.2635
657.00 0.2673
657.10 0.271
657.20 0.2744
657.30 0.2776
657.40 0.2806
657.50 0.2836
657.60 0.2865
657.70 0.2895
657.80 0.2924
657.90 0.2949
658.00 0.2974
658.10 0.3
658.20 0.3025
658.30 0.3049
658.40 0.307
658.50 0.3092
658.60 0.3113
658.70 0.3134
658.80 0.3155
658.90 0.3176
659.00 0.3197
659.10 0.3218
659.20 0.3239
659.30 0.3259
659.40 0.3276
659.50 0.3292
659.60 0.3308
659.70 0.3325
659.80 0.3341
659.90 0.3357
660.00 0.3373
660.10 0.339
660.20 0.3406
660.30 0.3421
660.40 0.3434
660.50 0.3446
660.60 0.3459
660.70 0.3471
660.80 0.3483
660.90 0.3496
661.00 0.3508
661.10 0.352
661.20 0.3533
661.30 0.3544
661.40 0.3554
661.50 0.3563
661.60 0.3572
661.70 0.3581
661.80 0.359
661.90 0.36
662.00 0.3609
662.10 0.3618
662.20 0.3627
662.30 0.3636
662.40 0.3643
662.50 0.3649
662.60 0.3656
662.70 0.3663
662.80 0.367
662.90 0.3676
663.00 0.3683
663.10 0.369
663.20 0.3696
663.30 0.3703
663.40 0.3708
663.50 0.3712
663.60 0.3717
663.70 0.3722
663.80 0.3727
663.90 0.3732
664.00 0.3737
664.10 0.3741
664.20 0.3746
664.30 0.3751
664.40 0.3754
664.50 0.3757
664.60 0.3761
664.70 0.3764
664.80 0.3767
664.90 0.3771
665.00 0.3774
665.10 0.3777
665.20 0.378
665.30 0.3783
665.40 0.3786
665.50 0.3788
665.60 0.379
665.70 0.3792
665.80 0.3794
665.90 0.3796
666.00 0.3798
666.10 0.3801
666.20 0.3803
666.30 0.3805
666.40 0.3806
666.50 0.3807
666.60 0.3809
666.70 0.381
666.80 0.3811
666.90 0.3812
667.00 0.3814
667.10 0.3815
667.20 0.3816
667.30 0.3818
667.40 0.3818
667.50 0.3819
667.60 0.3819
667.70 0.382
667.80 0.3821
667.90 0.3821
668.00 0.3822
668.10 0.3823
668.20 0.3823
668.30 0.3824
668.40 0.3824
668.50 0.3824
668.60 0.3824
668.70 0.3824
668.80 0.3824
668.90 0.3824
669.00 0.3825
669.10 0.3825
669.20 0.3825
669.30 0.3825
669.40 0.3825
669.50 0.3824
669.60 0.3824
669.70 0.3824
669.80 0.3823
669.90 0.3823
670.00 0.3823
670.10 0.3823
670.20 0.3822
670.30 0.3822
670.40 0.3821
670.50 0.3821
670.60 0.382
670.70 0.3819
670.80 0.3819
670.90 0.3818
671.00 0.3818
671.10 0.3817
671.20 0.3817
671.30 0.3816
671.40 0.3815
671.50 0.3814
671.60 0.3813
671.70 0.3813
671.80 0.3812
671.90 0.3811
672.00 0.381
672.10 0.3809
672.20 0.3808
672.30 0.3808
672.40 0.3807
672.50 0.3806
672.60 0.3805
672.70 0.3804
672.80 0.3803
672.90 0.3802
673.00 0.3801
673.10 0.38
673.20 0.3799
673.30 0.3798
673.40 0.3796
673.50 0.3795
673.60 0.3794
673.70 0.3793
673.80 0.3792
673.90 0.3791
674.00 0.379
674.10 0.3788
674.20 0.3787
674.30 0.3786
674.40 0.3785
674.50 0.3784
674.60 0.3782
674.70 0.3781
674.80 0.378
674.90 0.3778
675.00 0.3777
675.10 0.3776
675.20 0.3775
675.30 0.3773
675.40 0.3772
675.50 0.3771
675.60 0.3769
675.70 0.3768
675.80 0.3767
675.90 0.3765
676.00 0.3764
676.10 0.3762
676.20 0.3761
676.30 0.376
676.40 0.3758
676.50 0.3757
676.60 0.3755
676.70 0.3754
676.80 0.3753
676.90 0.3751
677.00 0.375
677.10 0.3748
677.20 0.3747
677.30 0.3746
677.40 0.3744
677.50 0.3743
677.60 0.3741
677.70 0.374
677.80 0.3738
677.90 0.3737
678.00 0.3735
678.10 0.3734
678.20 0.3732
678.30 0.3731
678.40 0.3729
678.50 0.3728
678.60 0.3726
678.70 0.3724
678.80 0.3723
678.90 0.3721
679.00 0.372
679.10 0.3718
679.20 0.3717
679.30 0.3715
679.40 0.3714
679.50 0.3712
679.60 0.3711
679.70 0.3709
679.80 0.3707
679.90 0.3706
680.00 0.3704
680.10 0.3703
680.20 0.3701
680.30 0.37
680.40 0.3698
680.50 0.3696
680.60 0.3695
680.70 0.3693
680.80 0.3692
680.90 0.369
681.00 0.3688
681.10 0.3687
681.20 0.3685
681.30 0.3684
681.40 0.3682
681.50 0.368
681.60 0.3679
681.70 0.3677
681.80 0.3676
681.90 0.3674
682.00 0.3672
682.10 0.3671
682.20 0.3669
682.30 0.3668
682.40 0.3666
682.50 0.3664
682.60 0.3663
682.70 0.3661
682.80 0.3659
682.90 0.3658
683.00 0.3656
683.10 0.3655
683.20 0.3653
683.30 0.3651
683.40 0.365
683.50 0.3648
683.60 0.3646
683.70 0.3645
683.80 0.3643
683.90 0.3641
684.00 0.364
684.10 0.3638
684.20 0.3636
684.30 0.3635
684.40 0.3633
684.50 0.3632
684.60 0.363
684.70 0.3628
684.80 0.3627
684.90 0.3625
685.00 0.3623
685.10 0.3622
685.20 0.362
685.30 0.3618
685.40 0.3617
685.50 0.3615
685.60 0.3613
685.70 0.3612
685.80 0.361
685.90 0.3608
686.00 0.3607
686.10 0.3605
686.20 0.3603
686.30 0.3602
686.40 0.36
686.50 0.3599
686.60 0.3597
686.70 0.3595
686.80 0.3594
686.90 0.3592
687.00 0.359
687.10 0.3589
687.20 0.3587
687.30 0.3585
687.40 0.3584
687.50 0.3582
687.60 0.358
687.70 0.3579
687.80 0.3577
687.90 0.3575
688.00 0.3574
688.10 0.3572
688.20 0.357
688.30 0.3569
688.40 0.3567
688.50 0.3565
688.60 0.3564
688.70 0.3562
688.80 0.356
688.90 0.3559
689.00 0.3557
689.10 0.3555
689.20 0.3554
689.30 0.3552
689.40 0.355
689.50 0.3549
689.60 0.3547
689.70 0.3545
689.80 0.3544
689.90 0.3542
690.00 0.354
690.10 0.3539
690.20 0.3537
690.30 0.3535
690.40 0.3534
690.50 0.3532
690.60 0.353
690.70 0.3529
690.80 0.3527
690.90 0.3525
691.00 0.3524
691.10 0.3522
691.20 0.352
691.30 0.3519
691.40 0.3517
691.50 0.3515
691.60 0.3514
691.70 0.3512
691.80 0.351
691.90 0.3509
692.00 0.3507
692.10 0.3505
692.20 0.3504
692.30 0.3502
692.40 0.35
692.50 0.3499
692.60 0.3497
692.70 0.3496
692.80 0.3494
692.90 0.3492
693.00 0.3491
693.10 0.3489
693.20 0.3487
693.30 0.3486
693.40 0.3484
693.50 0.3482
693.60 0.3481
693.70 0.3479
693.80 0.3477
693.90 0.3476
694.00 0.3474
694.10 0.3472
694.20 0.3471
694.30 0.3469
694.40 0.3468
694.50 0.3466
694.60 0.3464
694.70 0.3463
694.80 0.3461
694.90 0.3459
695.00 0.3458
695.10 0.3456
695.20 0.3454
695.30 0.3453
695.40 0.3451
695.50 0.345
695.60 0.3448
695.70 0.3446
695.80 0.3445
695.90 0.3443
696.00 0.3441
696.10 0.344
696.20 0.3438
696.30 0.3437
696.40 0.3435
696.50 0.3433
696.60 0.3432
696.70 0.343
696.80 0.3428
696.90 0.3427
697.00 0.3425
697.10 0.3424
697.20 0.3422
697.30 0.342
697.40 0.3419
697.50 0.3417
697.60 0.3416
697.70 0.3414
697.80 0.3412
697.90 0.3411
698.00 0.3409
698.10 0.3408
698.20 0.3406
698.30 0.3404
698.40 0.3403
698.50 0.3401
698.60 0.3399
698.70 0.3398
698.80 0.3396
698.90 0.3395
699.00 0.3393
699.10 0.3391
699.20 0.339
699.30 0.3388
699.40 0.3387
699.50 0.3385
699.60 0.3383
699.70 0.3382
699.80 0.338
699.90 0.3379
700.00 0.3377
700.10 0.3376
700.20 0.3374
700.30 0.3373
700.40 0.3371
700.50 0.337
700.60 0.3368
700.70 0.3367
700.80 0.3365
700.90 0.3364
701.00 0.3362
701.10 0.3361
701.20 0.3359
701.30 0.3358
701.40 0.3356
701.50 0.3355
701.60 0.3354
701.70 0.3352
701.80 0.3351
701.90 0.3349
702.00 0.3348
702.10 0.3346
702.20 0.3345
702.30 0.3343
702.40 0.3342
702.50 0.334
702.60 0.3339
702.70 0.3337
702.80 0.3336
702.90 0.3334
703.00 0.3333
703.10 0.3332
703.20 0.333
703.30 0.3329
703.40 0.3327
703.50 0.3326
703.60 0.3324
703.70 0.3323
703.80 0.3321
703.90 0.332
704.00 0.3318
704.10 0.3317
704.20 0.3316
704.30 0.3314
704.40 0.3313
704.50 0.3311
704.60 0.331
704.70 0.3308
704.80 0.3307
704.90 0.3305
705.00 0.3304
705.10 0.3302
705.20 0.3301
705.30 0.3299
705.40 0.3298
705.50 0.3296
705.60 0.3295
705.70 0.3293
705.80 0.3291
705.90 0.329
706.00 0.3288
706.10 0.3287
706.20 0.3285
706.30 0.3284
706.40 0.3282
706.50 0.3281
706.60 0.3279
706.70 0.3277
706.80 0.3276
706.90 0.3274
707.00 0.3273
707.10 0.3271
707.20 0.327
707.30 0.3268
707.40 0.3267
707.50 0.3265
707.60 0.3263
707.70 0.3262
707.80 0.326
707.90 0.3259
708.00 0.3257
708.10 0.3256
708.20 0.3254
708.30 0.3253
708.40 0.3251
708.50 0.325
708.60 0.3248
708.70 0.3246
708.80 0.3245
708.90 0.3243
709.00 0.3242
709.10 0.324
709.20 0.3239
709.30 0.3237
709.40 0.3236
709.50 0.3234
709.60 0.3233
709.70 0.3231
709.80 0.323
709.90 0.3228
710.00 0.3226
710.10 0.3225
710.20 0.3223
710.30 0.3222
710.40 0.322
710.50 0.3219
710.60 0.3217
710.70 0.3216
710.80 0.3214
710.90 0.3213
711.00 0.3211
711.10 0.321
711.20 0.3208
711.30 0.3207
711.40 0.3205
711.50 0.3204
711.60 0.3202
711.70 0.3201
711.80 0.3199
711.90 0.3198
712.00 0.3196
712.10 0.3195
712.20 0.3193
712.30 0.3192
712.40 0.319
712.50 0.3189
712.60 0.3187
712.70 0.3186
712.80 0.3184
712.90 0.3183
713.00 0.3181
713.10 0.318
713.20 0.3178
713.30 0.3176
713.40 0.3175
713.50 0.3173
713.60 0.3172
713.70 0.317
713.80 0.3169
713.90 0.3167
714.00 0.3166
714.10 0.3164
714.20 0.3163
714.30 0.3161
714.40 0.316
714.50 0.3159
714.60 0.3157
714.70 0.3156
714.80 0.3154
714.90 0.3153
715.00 0.3151
715.10 0.315
715.20 0.3148
715.30 0.3147
715.40 0.3145
715.50 0.3144
715.60 0.3142
715.70 0.3141
715.80 0.3139
715.90 0.3138
716.00 0.3137
716.10 0.3135
716.20 0.3134
716.30 0.3132
716.40 0.3131
716.50 0.3129
716.60 0.3128
716.70 0.3126
716.80 0.3125
716.90 0.3123
717.00 0.3122
717.10 0.3121
717.20 0.3119
717.30 0.3118
717.40 0.3116
717.50 0.3115
717.60 0.3113
717.70 0.3112
717.80 0.3111
717.90 0.3109
718.00 0.3108
718.10 0.3106
718.20 0.3105
718.30 0.3103
718.40 0.3102
718.50 0.31
718.60 0.3099
718.70 0.3098
718.80 0.3096
718.90 0.3095
719.00 0.3093
719.10 0.3092
719.20 0.309
719.30 0.3089
719.40 0.3088
719.50 0.3086
719.60 0.3085
719.70 0.3083
719.80 0.3082
719.90 0.308
720.00 0.3079
720.10 0.3078
720.20 0.3076
720.30 0.3075
720.40 0.3073
720.50 0.3072
720.60 0.307
720.70 0.3069
720.80 0.3067
720.90 0.3066
721.00 0.3065
721.10 0.3063
721.20 0.3062
721.30 0.306
721.40 0.3059
721.50 0.3057
721.60 0.3056
721.70 0.3055
721.80 0.3053
721.90 0.3052
722.00 0.305
722.10 0.3049
722.20 0.3047
722.30 0.3046
722.40 0.3044
722.50 0.3043
722.60 0.3042
722.70 0.304
722.80 0.3039
722.90 0.3037
723.00 0.3036
723.10 0.3034
723.20 0.3033
723.30 0.3032
723.40 0.303
723.50 0.3029
723.60 0.3027
723.70 0.3026
723.80 0.3024
723.90 0.3023
724.00 0.3022
724.10 0.302
724.20 0.3019
724.30 0.3017
724.40 0.3016
724.50 0.3015
724.60 0.3013
724.70 0.3012
724.80 0.301
724.90 0.3009
725.00 0.3007
725.10 0.3006
725.20 0.3005
725.30 0.3003
725.40 0.3002
725.50 0.3
725.60 0.2999
725.70 0.2998
725.80 0.2996
725.90 0.2995
726.00 0.2993
726.10 0.2992
726.20 0.2991
726.30 0.2989
726.40 0.2988
726.50 0.2986
726.60 0.2985
726.70 0.2984
726.80 0.2982
726.90 0.2981
727.00 0.2979
727.10 0.2978
727.20 0.2977
727.30 0.2975
727.40 0.2974
727.50 0.2973
727.60 0.2971
727.70 0.297
727.80 0.2968
727.90 0.2967
728.00 0.2966
728.10 0.2964
728.20 0.2963
728.30 0.2961
728.40 0.296
728.50 0.2959
728.60 0.2957
728.70 0.2956
728.80 0.2954
728.90 0.2953
729.00 0.2952
729.10 0.295
729.20 0.2949
729.30 0.2948
729.40 0.2946
729.50 0.2945
729.60 0.2943
729.70 0.2942
729.80 0.2941
729.90 0.2939
730.00 0.2938
730.10 0.2937
730.20 0.2935
730.30 0.2934
730.40 0.2933
730.50 0.2931
730.60 0.293
730.70 0.2928
730.80 0.2927
730.90 0.2926
731.00 0.2924
731.10 0.2923
731.20 0.2922
731.30 0.292
731.40 0.2919
731.50 0.2918
731.60 0.2916
731.70 0.2915
731.80 0.2914
731.90 0.2912
732.00 0.2911
732.10 0.2909
732.20 0.2908
732.30 0.2907
732.40 0.2905
732.50 0.2904
732.60 0.2903
732.70 0.2901
732.80 0.29
732.90 0.2899
733.00 0.2897
733.10 0.2896
733.20 0.2895
733.30 0.2893
733.40 0.2892
733.50 0.2891
733.60 0.2889
733.70 0.2888
733.80 0.2887
733.90 0.2885
734.00 0.2884
734.10 0.2883
734.20 0.2881
734.30 0.288
734.40 0.2879
734.50 0.2877
734.60 0.2876
734.70 0.2875
734.80 0.2873
734.90 0.2872
735.00 0.2871
735.10 0.2869
735.20 0.2868
735.30 0.2867
735.40 0.2865
735.50 0.2864
735.60 0.2863
735.70 0.2861
735.80 0.286
735.90 0.2859
736.00 0.2857
736.10 0.2856
736.20 0.2855
736.30 0.2853
736.40 0.2852
736.50 0.2851
736.60 0.2849
736.70 0.2848
736.80 0.2847
736.90 0.2845
737.00 0.2844
737.10 0.2843
737.20 0.2841
737.30 0.284
737.40 0.2839
737.50 0.2838
737.60 0.2836
737.70 0.2835
737.80 0.2834
737.90 0.2832
738.00 0.2831
738.10 0.283
738.20 0.2828
738.30 0.2827
738.40 0.2826
738.50 0.2824
738.60 0.2823
738.70 0.2822
738.80 0.282
738.90 0.2819
739.00 0.2818
739.10 0.2817
739.20 0.2815
739.30 0.2814
739.40 0.2813
739.50 0.2811
739.60 0.281
739.70 0.2809
739.80 0.2807
739.90 0.2806
740.00 0.2805
740.10 0.2804
740.20 0.2802
740.30 0.2801
740.40 0.28
740.50 0.2798
740.60 0.2797
740.70 0.2796
740.80 0.2795
740.90 0.2793
741.00 0.2792
741.10 0.2791
741.20 0.2789
741.30 0.2788
741.40 0.2787
741.50 0.2786
741.60 0.2784
741.70 0.2783
741.80 0.2782
741.90 0.2781
742.00 0.2779
742.10 0.2778
742.20 0.2777
742.30 0.2775
742.40 0.2774
742.50 0.2773
742.60 0.2772
742.70 0.277
742.80 0.2769
742.90 0.2768
743.00 0.2767
743.10 0.2765
743.20 0.2764
743.30 0.2763
743.40 0.2761
743.50 0.276
743.60 0.2759
743.70 0.2758
743.80 0.2756
743.90 0.2755
744.00 0.2754
744.10 0.2753
744.20 0.2751
744.30 0.275
744.40 0.2749
744.50 0.2748
744.60 0.2746
744.70 0.2745
744.80 0.2744
744.90 0.2743
745.00 0.2741
745.10 0.274
745.20 0.2739
745.30 0.2738
745.40 0.2736
745.50 0.2735
745.60 0.2734
745.70 0.2733
745.80 0.2731
745.90 0.273
746.00 0.2729
746.10 0.2728
746.20 0.2726
746.30 0.2725
746.40 0.2724
746.50 0.2723
746.60 0.2721
746.70 0.272
746.80 0.2719
746.90 0.2718
747.00 0.2716
747.10 0.2715
747.20 0.2714
747.30 0.2713
747.40 0.2711
747.50 0.271
747.60 0.2709
747.70 0.2708
747.80 0.2706
747.90 0.2705
748.00 0.2704
748.10 0.2703
748.20 0.2701
748.30 0.27
748.40 0.2699
748.50 0.2698
748.60 0.2696
748.70 0.2695
748.80 0.2694
748.90 0.2693
749.00 0.2692
749.10 0.269
749.20 0.2689
749.30 0.2688
749.40 0.2687
749.50 0.2685
749.60 0.2684
749.70 0.2683
749.80 0.2682
749.90 0.268
750.00 0.2679
750.10 0.2678
750.20 0.2677
750.30 0.2676
750.40 0.2674
750.50 0.2673
750.60 0.2672
750.70 0.2671
750.80 0.267
750.90 0.2668
751.00 0.2667
751.10 0.2666
751.20 0.2665
751.30 0.2664
751.40 0.2662
751.50 0.2661
751.60 0.266
751.70 0.2659
751.80 0.2657
751.90 0.2656
752.00 0.2655
752.10 0.2654
752.20 0.2653
752.30 0.2651
752.40 0.265
752.50 0.2649
752.60 0.2648
752.70 0.2647
752.80 0.2645
752.90 0.2644
753.00 0.2643
753.10 0.2642
753.20 0.2641
753.30 0.264
753.40 0.2638
753.50 0.2637
753.60 0.2636
753.70 0.2635
753.80 0.2634
753.90 0.2632
754.00 0.2631
754.10 0.263
754.20 0.2629
754.30 0.2628
754.40 0.2626
754.50 0.2625
754.60 0.2624
754.70 0.2623
754.80 0.2622
754.90 0.262
755.00 0.2619
755.10 0.2618
755.20 0.2617
755.30 0.2616
755.40 0.2615
755.50 0.2613
755.60 0.2612
755.70 0.2611
755.80 0.261
755.90 0.2609
756.00 0.2607
756.10 0.2606
756.20 0.2605
756.30 0.2604
756.40 0.2603
756.50 0.2602
756.60 0.26
756.70 0.2599
756.80 0.2598
756.90 0.2597
757.00 0.2596
757.10 0.2595
757.20 0.2593
757.30 0.2592
757.40 0.2591
757.50 0.259
757.60 0.2589
757.70 0.2587
757.80 0.2586
757.90 0.2585
758.00 0.2584
758.10 0.2583
758.20 0.2582
758.30 0.258
758.40 0.2579
758.50 0.2578
758.60 0.2577
758.70 0.2576
758.80 0.2575
758.90 0.2573
759.00 0.2572
759.10 0.2571
759.20 0.257
759.30 0.2569
759.40 0.2568
759.50 0.2566
759.60 0.2565
759.70 0.2564
759.80 0.2563
759.90 0.2562
760.00 0.2561
760.10 0.256
760.20 0.2558
760.30 0.2557
760.40 0.2556
760.50 0.2555
760.60 0.2554
760.70 0.2553
760.80 0.2552
760.90 0.255
761.00 0.2549
761.10 0.2548
761.20 0.2547
761.30 0.2546
761.40 0.2545
761.50 0.2544
761.60 0.2542
761.70 0.2541
761.80 0.254
761.90 0.2539
762.00 0.2538
762.10 0.2537
762.20 0.2536
762.30 0.2534
762.40 0.2533
762.50 0.2532
762.60 0.2531
762.70 0.253
762.80 0.2529
762.90 0.2528
763.00 0.2527
763.10 0.2525
763.20 0.2524
763.30 0.2523
763.40 0.2522
763.50 0.2521
763.60 0.252
763.70 0.2519
763.80 0.2518
763.90 0.2516
764.00 0.2515
764.10 0.2514
764.20 0.2513
764.30 0.2512
764.40 0.2511
764.50 0.251
764.60 0.2509
764.70 0.2507
764.80 0.2506
764.90 0.2505
765.00 0.2504
765.10 0.2503
765.20 0.2502
765.30 0.2501
765.40 0.25
765.50 0.2498
765.60 0.2497
765.70 0.2496
765.80 0.2495
765.90 0.2494
766.00 0.2493
766.10 0.2492
766.20 0.2491
766.30 0.2489
766.40 0.2488
766.50 0.2487
766.60 0.2486
766.70 0.2485
766.80 0.2484
766.90 0.2483
767.00 0.2482
767.10 0.2481
767.20 0.2479
767.30 0.2478
767.40 0.2477
767.50 0.2476
767.60 0.2475
767.70 0.2474
767.80 0.2473
767.90 0.2472
768.00 0.2471
768.10 0.247
768.20 0.2468
768.30 0.2467
768.40 0.2466
768.50 0.2465
768.60 0.2464
768.70 0.2463
768.80 0.2462
768.90 0.2461
769.00 0.246
769.10 0.2459
769.20 0.2457
769.30 0.2456
769.40 0.2455
769.50 0.2454
769.60 0.2453
769.70 0.2452
769.80 0.2451
769.90 0.245
770.00 0.2449
770.10 0.2448
770.20 0.2446
770.30 0.2445
770.40 0.2444
770.50 0.2443
770.60 0.2442
770.70 0.2441
770.80 0.244
770.90 0.2439
771.00 0.2438
771.10 0.2437
771.20 0.2436
771.30 0.2435
771.40 0.2433
771.50 0.2432
771.60 0.2431
771.70 0.243
771.80 0.2429
771.90 0.2428
772.00 0.2427
772.10 0.2426
772.20 0.2425
772.30 0.2424
772.40 0.2423
772.50 0.2422
772.60 0.2421
772.70 0.242
772.80 0.2418
772.90 0.2417
773.00 0.2416
773.10 0.2415
773.20 0.2414
773.30 0.2413
773.40 0.2412
773.50 0.2411
773.60 0.241
773.70 0.2409
773.80 0.2408
773.90 0.2407
774.00 0.2406
774.10 0.2405
774.20 0.2404
774.30 0.2402
774.40 0.2401
774.50 0.24
774.60 0.2399
774.70 0.2398
774.80 0.2397
774.90 0.2396
775.00 0.2395
775.10 0.2394
775.20 0.2393
775.30 0.2392
775.40 0.2391
775.50 0.239
775.60 0.2389
775.70 0.2388
775.80 0.2387
775.90 0.2386
776.00 0.2384
776.10 0.2383
776.20 0.2382
776.30 0.2381
776.40 0.238
776.50 0.2379
776.60 0.2378
776.70 0.2377
776.80 0.2376
776.90 0.2375
777.00 0.2374
777.10 0.2373
777.20 0.2372
777.30 0.2371
777.40 0.237
777.50 0.2369
777.60 0.2368
777.70 0.2367
777.80 0.2366
777.90 0.2364
778.00 0.2363
778.10 0.2362
778.20 0.2361
778.30 0.236
778.40 0.2359
778.50 0.2358
778.60 0.2357
778.70 0.2356
778.80 0.2355
778.90 0.2354
779.00 0.2353
779.10 0.2352
779.20 0.2351
779.30 0.235
779.40 0.2349
779.50 0.2348
779.60 0.2347
779.70 0.2346
779.80 0.2345
779.90 0.2344
780.00 0.2343
780.10 0.2342
780.20 0.2341
780.30 0.234
780.40 0.2339
780.50 0.2338
780.60 0.2336
780.70 0.2335
780.80 0.2334
780.90 0.2333
781.00 0.2332
781.10 0.2331
781.20 0.233
781.30 0.2329
781.40 0.2328
781.50 0.2327
781.60 0.2326
781.70 0.2325
781.80 0.2324
781.90 0.2323
782.00 0.2322
782.10 0.2321
782.20 0.232
782.30 0.2319
782.40 0.2318
782.50 0.2317
782.60 0.2316
782.70 0.2315
782.80 0.2314
782.90 0.2313
783.00 0.2312
783.10 0.2311
783.20 0.231
783.30 0.2309
783.40 0.2308
783.50 0.2307
783.60 0.2306
783.70 0.2305
783.80 0.2304
783.90 0.2303
784.00 0.2302
784.10 0.2301
784.20 0.23
784.30 0.2299
784.40 0.2298
784.50 0.2297
784.60 0.2296
784.70 0.2295
784.80 0.2294
784.90 0.2293
785.00 0.2292
785.10 0.2291
785.20 0.229
785.30 0.2289
785.40 0.2288
785.50 0.2287
785.60 0.2286
785.70 0.2285
785.80 0.2284
785.90 0.2283
786.00 0.2282
786.10 0.2281
786.20 0.228
786.30 0.2279
786.40 0.2278
786.50 0.2277
786.60 0.2276
786.70 0.2275
786.80 0.2274
786.90 0.2273
787.00 0.2272
787.10 0.2271
787.20 0.227
787.30 0.2269
787.40 0.2268
787.50 0.2267
787.60 0.2266
787.70 0.2265
787.80 0.2264
787.90 0.2263
788.00 0.2262
788.10 0.2261
788.20 0.226
788.30 0.2259
788.40 0.2258
788.50 0.2257
788.60 0.2256
788.70 0.2255
788.80 0.2254
788.90 0.2253
789.00 0.2252
789.10 0.2251
789.20 0.225
789.30 0.2249
789.40 0.2248
789.50 0.2247
789.60 0.2246
789.70 0.2245
789.80 0.2244
789.90 0.2243
790.00 0.2242
790.10 0.2241
790.20 0.224
790.30 0.2239
790.40 0.2238
790.50 0.2238
790.60 0.2237
790.70 0.2236
790.80 0.2235
790.90 0.2234
791.00 0.2233
791.10 0.2232
791.20 0.2231
791.30 0.223
791.40 0.2229
791.50 0.2228
791.60 0.2227
791.70 0.2226
791.80 0.2225
791.90 0.2224
792.00 0.2223
792.10 0.2222
792.20 0.2221
792.30 0.222
792.40 0.2219
792.50 0.2218
792.60 0.2217
792.70 0.2216
792.80 0.2215
792.90 0.2214
793.00 0.2213
793.10 0.2213
793.20 0.2212
793.30 0.2211
793.40 0.221
793.50 0.2209
793.60 0.2208
793.70 0.2207
793.80 0.2206
793.90 0.2205
794.00 0.2204
794.10 0.2203
794.20 0.2202
794.30 0.2201
794.40 0.22
794.50 0.2199
794.60 0.2198
794.70 0.2197
794.80 0.2196
794.90 0.2195
795.00 0.2194
795.10 0.2193
795.20 0.2193
795.30 0.2192
795.40 0.2191
795.50 0.219
795.60 0.2189
795.70 0.2188
795.80 0.2187
795.90 0.2186
796.00 0.2185
796.10 0.2184
796.20 0.2183
796.30 0.2182
796.40 0.2181
796.50 0.218
796.60 0.2179
796.70 0.2178
796.80 0.2177
796.90 0.2176
797.00 0.2176
797.10 0.2175
797.20 0.2174
797.30 0.2173
797.40 0.2172
797.50 0.2171
797.60 0.217
797.70 0.2169
797.80 0.2168
797.90 0.2167
798.00 0.2166
798.10 0.2165
798.20 0.2164
798.30 0.2163
798.40 0.2162
798.50 0.2161
798.60 0.2161
798.70 0.216
798.80 0.2159
798.90 0.2158
799.00 0.2157
799.10 0.2156
799.20 0.2155
799.30 0.2154
799.40 0.2153
799.50 0.2152
799.60 0.2151
799.70 0.215
799.80 0.2149
799.90 0.2148
800.00 0.2147
800.10 0.2147
800.20 0.2146
800.30 0.2145
800.40 0.2144
800.50 0.2143
800.60 0.2142
800.70 0.2141
800.80 0.214
800.90 0.2139
801.00 0.2138
801.10 0.2137
801.20 0.2136
801.30 0.2136
801.40 0.2135
801.50 0.2134
801.60 0.2133
801.70 0.2132
801.80 0.2131
801.90 0.213
802.00 0.2129
802.10 0.2128
802.20 0.2127
802.30 0.2126
802.40 0.2126
802.50 0.2125
802.60 0.2124
802.70 0.2123
802.80 0.2122
802.90 0.2121
803.00 0.212
803.10 0.2119
803.20 0.2118
803.30 0.2117
803.40 0.2116
803.50 0.2116
803.60 0.2115
803.70 0.2114
803.80 0.2113
803.90 0.2112
804.00 0.2111
804.10 0.211
804.20 0.2109
804.30 0.2108
804.40 0.2107
804.50 0.2107
804.60 0.2106
804.70 0.2105
804.80 0.2104
804.90 0.2103
805.00 0.2102
805.10 0.2101
805.20 0.21
805.30 0.2099
805.40 0.2098
805.50 0.2098
805.60 0.2097
805.70 0.2096
805.80 0.2095
805.90 0.2094
806.00 0.2093
806.10 0.2092
806.20 0.2091
806.30 0.209
806.40 0.2089
806.50 0.2089
806.60 0.2088
806.70 0.2087
806.80 0.2086
806.90 0.2085
807.00 0.2084
807.10 0.2083
807.20 0.2082
807.30 0.2081
807.40 0.2081
807.50 0.208
807.60 0.2079
807.70 0.2078
807.80 0.2077
807.90 0.2076
808.00 0.2075
808.10 0.2074
808.20 0.2073
808.30 0.2073
808.40 0.2072
808.50 0.2071
808.60 0.207
808.70 0.2069
808.80 0.2068
808.90 0.2067
809.00 0.2066
809.10 0.2065
809.20 0.2065
809.30 0.2064
809.40 0.2063
809.50 0.2062
809.60 0.2061
809.70 0.206
809.80 0.2059
809.90 0.2058
810.00 0.2058
810.10 0.2057
810.20 0.2056
810.30 0.2055
810.40 0.2054
810.50 0.2053
810.60 0.2052
810.70 0.2051
810.80 0.2051
810.90 0.205
811.00 0.2049
811.10 0.2048
811.20 0.2047
811.30 0.2046
811.40 0.2045
811.50 0.2045
811.60 0.2044
811.70 0.2043
811.80 0.2042
811.90 0.2041
812.00 0.204
812.10 0.2039
812.20 0.2038
812.30 0.2038
812.40 0.2037
812.50 0.2036
812.60 0.2035
812.70 0.2034
812.80 0.2033
812.90 0.2032
813.00 0.2032
813.10 0.2031
813.20 0.203
813.30 0.2029
813.40 0.2028
813.50 0.2027
813.60 0.2026
813.70 0.2026
813.80 0.2025
813.90 0.2024
814.00 0.2023
814.10 0.2022
814.20 0.2021
814.30 0.202
814.40 0.202
814.50 0.2019
814.60 0.2018
814.70 0.2017
814.80 0.2016
814.90 0.2015
815.00 0.2014
815.10 0.2014
815.20 0.2013
815.30 0.2012
815.40 0.2011
815.50 0.201
815.60 0.2009
815.70 0.2009
815.80 0.2008
815.90 0.2007
816.00 0.2006
816.10 0.2005
816.20 0.2004
816.30 0.2003
816.40 0.2003
816.50 0.2002
816.60 0.2001
816.70 0.2
816.80 0.1999
816.90 0.1998
817.00 0.1998
817.10 0.1997
817.20 0.1996
817.30 0.1995
817.40 0.1994
817.50 0.1993
817.60 0.1992
817.70 0.1992
817.80 0.1991
817.90 0.199
818.00 0.1989
818.10 0.1988
818.20 0.1987
818.30 0.1987
818.40 0.1986
818.50 0.1985
818.60 0.1984
818.70 0.1983
818.80 0.1982
818.90 0.1982
819.00 0.1981
819.10 0.198
819.20 0.1979
819.30 0.1978
819.40 0.1977
819.50 0.1976
819.60 0.1976
819.70 0.1975
819.80 0.1974
819.90 0.1973
820.00 0.1972
820.10 0.1971
820.20 0.1971
820.30 0.197
820.40 0.1969
820.50 0.1968
820.60 0.1967
820.70 0.1967
820.80 0.1966
820.90 0.1965
821.00 0.1964
821.10 0.1963
821.20 0.1962
821.30 0.1962
821.40 0.1961
821.50 0.196
821.60 0.1959
821.70 0.1958
821.80 0.1957
821.90 0.1957
822.00 0.1956
822.10 0.1955
822.20 0.1954
822.30 0.1953
822.40 0.1953
822.50 0.1952
822.60 0.1951
822.70 0.195
822.80 0.1949
822.90 0.1948
823.00 0.1948
823.10 0.1947
823.20 0.1946
823.30 0.1945
823.40 0.1944
823.50 0.1944
823.60 0.1943
823.70 0.1942
823.80 0.1941
823.90 0.194
824.00 0.194
824.10 0.1939
824.20 0.1938
824.30 0.1937
824.40 0.1936
824.50 0.1935
824.60 0.1935
824.70 0.1934
824.80 0.1933
824.90 0.1932
825.00 0.1931
825.10 0.1931
825.20 0.193
825.30 0.1929
825.40 0.1928
825.50 0.1927
825.60 0.1927
825.70 0.1926
825.80 0.1925
825.90 0.1924
826.00 0.1923
826.10 0.1923
826.20 0.1922
826.30 0.1921
826.40 0.192
826.50 0.1919
826.60 0.1919
826.70 0.1918
826.80 0.1917
826.90 0.1916
827.00 0.1915
827.10 0.1915
827.20 0.1914
827.30 0.1913
827.40 0.1912
827.50 0.1911
827.60 0.1911
827.70 0.191
827.80 0.1909
827.90 0.1908
828.00 0.1907
828.10 0.1907
828.20 0.1906
828.30 0.1905
828.40 0.1904
828.50 0.1903
828.60 0.1903
828.70 0.1902
828.80 0.1901
828.90 0.19
829.00 0.1899
829.10 0.1899
829.20 0.1898
829.30 0.1897
829.40 0.1896
829.50 0.1895
829.60 0.1895
829.70 0.1894
829.80 0.1893
829.90 0.1892
830.00 0.1892
830.10 0.1891
830.20 0.189
830.30 0.1889
830.40 0.1888
830.50 0.1888
830.60 0.1887
830.70 0.1886
830.80 0.1885
830.90 0.1884
831.00 0.1884
831.10 0.1883
831.20 0.1882
831.30 0.1881
831.40 0.1881
831.50 0.188
831.60 0.1879
831.70 0.1878
831.80 0.1877
831.90 0.1877
832.00 0.1876
832.10 0.1875
832.20 0.1874
832.30 0.1874
832.40 0.1873
832.50 0.1872
832.60 0.1871
832.70 0.187
832.80 0.187
832.90 0.1869
833.00 0.1868
833.10 0.1867
833.20 0.1867
833.30 0.1866
833.40 0.1865
833.50 0.1864
833.60 0.1863
833.70 0.1863
833.80 0.1862
833.90 0.1861
834.00 0.186
834.10 0.186
834.20 0.1859
834.30 0.1858
834.40 0.1857
834.50 0.1857
834.60 0.1856
834.70 0.1855
834.80 0.1854
834.90 0.1853
835.00 0.1853
835.10 0.1852
835.20 0.1851
835.30 0.185
835.40 0.185
835.50 0.1849
835.60 0.1848
835.70 0.1847
835.80 0.1847
835.90 0.1846
836.00 0.1845
836.10 0.1844
836.20 0.1843
836.30 0.1843
836.40 0.1842
836.50 0.1841
836.60 0.184
836.70 0.184
836.80 0.1839
836.90 0.1838
837.00 0.1837
837.10 0.1837
837.20 0.1836
837.30 0.1835
837.40 0.1834
837.50 0.1834
837.60 0.1833
837.70 0.1832
837.80 0.1831
837.90 0.1831
838.00 0.183
838.10 0.1829
838.20 0.1828
838.30 0.1828
838.40 0.1827
838.50 0.1826
838.60 0.1825
838.70 0.1825
838.80 0.1824
838.90 0.1823
839.00 0.1822
839.10 0.1822
839.20 0.1821
839.30 0.182
839.40 0.1819
839.50 0.1819
839.60 0.1818
839.70 0.1817
839.80 0.1816
839.90 0.1816
840.00 0.1815
840.10 0.1814
840.20 0.1813
840.30 0.1813
840.40 0.1812
840.50 0.1811
840.60 0.181
840.70 0.181
840.80 0.1809
840.90 0.1808
841.00 0.1807
841.10 0.1807
841.20 0.1806
841.30 0.1805
841.40 0.1804
841.50 0.1804
841.60 0.1803
841.70 0.1802
841.80 0.1801
841.90 0.1801
842.00 0.18
842.10 0.1799
842.20 0.1798
842.30 0.1798
842.40 0.1797
842.50 0.1796
842.60 0.1795
842.70 0.1795
842.80 0.1794
842.90 0.1793
843.00 0.1793
843.10 0.1792
843.20 0.1791
843.30 0.179
843.40 0.179
843.50 0.1789
843.60 0.1788
843.70 0.1787
843.80 0.1787
843.90 0.1786
844.00 0.1785
844.10 0.1784
844.20 0.1784
844.30 0.1783
844.40 0.1782
844.50 0.1781
844.60 0.1781
844.70 0.178
844.80 0.1779
844.90 0.1779
845.00 0.1778
845.10 0.1777
845.20 0.1776
845.30 0.1776
845.40 0.1775
845.50 0.1774
845.60 0.1773
845.70 0.1773
845.80 0.1772
845.90 0.1771
846.00 0.1771
846.10 0.177
846.20 0.1769
846.30 0.1768
846.40 0.1768
846.50 0.1767
846.60 0.1766
846.70 0.1765
846.80 0.1765
846.90 0.1764
847.00 0.1763
847.10 0.1763
847.20 0.1762
847.30 0.1761
847.40 0.1761
847.50 0.176
847.60 0.176
847.70 0.1759
847.80 0.1758
847.90 0.1758
848.00 0.1757
848.10 0.1757
848.20 0.1756
848.30 0.1755
848.40 0.1755
848.50 0.1754
848.60 0.1754
848.70 0.1753
848.80 0.1753
848.90 0.1752
849.00 0.1751
849.10 0.1751
849.20 0.175
849.30 0.175
849.40 0.1749
849.50 0.1748
849.60 0.1748
849.70 0.1747
849.80 0.1747
849.90 0.1746
850.00 0.1745
850.10 0.1745
850.20 0.1744
850.30 0.1744
850.40 0.1743
850.50 0.1742
850.60 0.1742
850.70 0.1741
850.80 0.1741
850.90 0.174
851.00 0.1739
851.10 0.1739
851.20 0.1738
851.30 0.1738
851.40 0.1737
851.50 0.1737
851.60 0.1736
851.70 0.1735
851.80 0.1735
851.90 0.1734
852.00 0.1734
852.10 0.1733
852.20 0.1732
852.30 0.1732
852.40 0.1731
852.50 0.1731
852.60 0.173
852.70 0.1729
852.80 0.1729
852.90 0.1728
853.00 0.1728
853.10 0.1727
853.20 0.1726
853.30 0.1726
853.40 0.1725
853.50 0.1725
853.60 0.1724
853.70 0.1724
853.80 0.1723
853.90 0.1722
854.00 0.1722
854.10 0.1721
854.20 0.1721
854.30 0.172
854.40 0.1719
854.50 0.1719
854.60 0.1718
854.70 0.1718
854.80 0.1717
854.90 0.1716
855.00 0.1716
855.10 0.1715
855.20 0.1715
855.30 0.1714
855.40 0.1714
855.50 0.1713
855.60 0.1712
855.70 0.1712
855.80 0.1711
855.90 0.1711
856.00 0.171
856.10 0.1709
856.20 0.1709
856.30 0.1708
856.40 0.1708
856.50 0.1707
856.60 0.1706
856.70 0.1706
856.80 0.1705
856.90 0.1705
857.00 0.1704
857.10 0.1704
857.20 0.1703
857.30 0.1703
857.40 0.1702
857.50 0.1701
857.60 0.1701
857.70 0.17
857.80 0.17
857.90 0.1699
858.00 0.1699
858.10 0.1698
858.20 0.1698
858.30 0.1697
858.40 0.1697
858.50 0.1696
858.60 0.1696
858.70 0.1695
858.80 0.1694
858.90 0.1694
859.00 0.1693
859.10 0.1693
859.20 0.1692
859.30 0.1692
859.40 0.1691
859.50 0.1691
859.60 0.169
859.70 0.169
859.80 0.1689
859.90 0.1689
860.00 0.1688
860.10 0.1688
860.20 0.1687
860.30 0.1686
860.40 0.1686
860.50 0.1685
860.60 0.1685
860.70 0.1684
860.80 0.1684
860.90 0.1683
861.00 0.1683
861.10 0.1682
861.20 0.1682
861.30 0.1681
861.40 0.1681
861.50 0.168
861.60 0.168
861.70 0.1679
861.80 0.1679
861.90 0.1678
862.00 0.1677
862.10 0.1677
862.20 0.1676
862.30 0.1676
862.40 0.1675
862.50 0.1674
862.60 0.1674
862.70 0.1673
862.80 0.1672
862.90 0.1672
863.00 0.1671
863.10 0.1671
863.20 0.167
863.30 0.1669
863.40 0.1669
863.50 0.1668
863.60 0.1668
863.70 0.1667
863.80 0.1666
863.90 0.1666
864.00 0.1665
864.10 0.1664
864.20 0.1664
864.30 0.1663
864.40 0.1663
864.50 0.1662
864.60 0.1661
864.70 0.1661
864.80 0.166
864.90 0.166
865.00 0.1659
865.10 0.1658
865.20 0.1658
865.30 0.1657
865.40 0.1656
865.50 0.1656
865.60 0.1655
865.70 0.1655
865.80 0.1654
865.90 0.1653
866.00 0.1653
866.10 0.1652
866.20 0.1652
866.30 0.1651
866.40 0.165
866.50 0.165
866.60 0.1649
866.70 0.1649
866.80 0.1648
866.90 0.1647
867.00 0.1647
867.10 0.1646
867.20 0.1646
867.30 0.1646
867.40 0.1645
867.50 0.1645
867.60 0.1645
867.70 0.1644
867.80 0.1644
867.90 0.1644
868.00 0.1643
868.10 0.1643
868.20 0.1643
868.30 0.1643
868.40 0.1642
868.50 0.1642
868.60 0.1642
868.70 0.1641
868.80 0.1641
868.90 0.1641
869.00 0.164
869.10 0.164
869.20 0.164
869.30 0.1639
869.40 0.1639
869.50 0.1639
869.60 0.1638
869.70 0.1638
869.80 0.1638
869.90 0.1637
870.00 0.1637
870.10 0.1637
870.20 0.1636
870.30 0.1636
870.40 0.1636
870.50 0.1636
870.60 0.1635
870.70 0.1635
870.80 0.1635
870.90 0.1634
871.00 0.1634
871.10 0.1634
871.20 0.1633
871.30 0.1633
871.40 0.1633
871.50 0.1632
871.60 0.1632
871.70 0.1632
871.80 0.1631
871.90 0.1631
872.00 0.1631
872.10 0.163
872.20 0.163
872.30 0.1629
872.40 0.1628
872.50 0.1628
872.60 0.1627
872.70 0.1626
872.80 0.1626
872.90 0.1625
873.00 0.1625
873.10 0.1624
873.20 0.1623
873.30 0.1623
873.40 0.1622
873.50 0.1621
873.60 0.1621
873.70 0.162
873.80 0.162
873.90 0.1619
874.00 0.1618
874.10 0.1618
874.20 0.1617
874.30 0.1616
874.40 0.1616
874.50 0.1615
874.60 0.1615
874.70 0.1614
874.80 0.1613
874.90 0.1613
875.00 0.1612
875.10 0.1612
875.20 0.1611
875.30 0.161
875.40 0.161
875.50 0.1609
875.60 0.1608
875.70 0.1608
875.80 0.1607
875.90 0.1607
876.00 0.1606
876.10 0.1605
876.20 0.1605
876.30 0.1604
876.40 0.1604
876.50 0.1603
876.60 0.1602
876.70 0.1602
876.80 0.1601
876.90 0.16
877.00 0.16
877.10 0.16
877.20 0.1599
877.30 0.1599
877.40 0.1599
877.50 0.1599
877.60 0.1598
877.70 0.1598
877.80 0.1598
877.90 0.1598
878.00 0.1597
878.10 0.1597
878.20 0.1597
878.30 0.1597
878.40 0.1596
878.50 0.1596
878.60 0.1596
878.70 0.1596
878.80 0.1595
878.90 0.1595
879.00 0.1595
879.10 0.1595
879.20 0.1595
879.30 0.1594
879.40 0.1594
879.50 0.1594
879.60 0.1594
879.70 0.1593
879.80 0.1593
879.90 0.1593
880.00 0.1593
880.10 0.1592
880.20 0.1592
880.30 0.1592
880.40 0.1592
880.50 0.1591
880.60 0.1591
880.70 0.1591
880.80 0.1591
880.90 0.159
881.00 0.159
881.10 0.159
881.20 0.159
881.30 0.159
881.40 0.1589
881.50 0.1589
881.60 0.1589
881.70 0.1589
881.80 0.1588
881.90 0.1588
882.00 0.1588
882.10 0.1586
882.20 0.1584
882.30 0.1583
882.40 0.1581
882.50 0.1579
882.60 0.1578
882.70 0.1576
882.80 0.1574
882.90 0.1573
883.00 0.1571
883.10 0.1569
883.20 0.1567
883.30 0.1566
883.40 0.1564
883.50 0.1562
883.60 0.1561
883.70 0.1559
883.80 0.1557
883.90 0.1556
884.00 0.1554
884.10 0.1552
884.20 0.1551
884.30 0.1549
884.40 0.1547
884.50 0.1546
884.60 0.1544
884.70 0.1542
884.80 0.154
884.90 0.1539
885.00 0.1537
885.10 0.1535
885.20 0.1534
885.30 0.1532
885.40 0.153
885.50 0.1529
885.60 0.1527
885.70 0.1525
885.80 0.1524
885.90 0.1522
886.00 0.152
886.10 0.1519
886.20 0.1517
886.30 0.1515
886.40 0.1514
886.50 0.1512
886.60 0.151
886.70 0.1509
886.80 0.1507
886.90 0.1505
887.00 0.1504
887.10 0.1504
887.20 0.1505
887.30 0.1506
887.40 0.1507
887.50 0.1507
887.60 0.1508
887.70 0.1509
887.80 0.151
887.90 0.151
888.00 0.1511
888.10 0.1512
888.20 0.1513
888.30 0.1513
888.40 0.1514
888.50 0.1515
888.60 0.1516
888.70 0.1516
888.80 0.1517
888.90 0.1518
889.00 0.1519
889.10 0.1519
889.20 0.152
889.30 0.1521
889.40 0.1521
889.50 0.1522
889.60 0.1523
889.70 0.1524
889.80 0.1524
889.90 0.1525
890.00 0.1526
890.10 0.1527
890.20 0.1527
890.30 0.1528
890.40 0.1529
890.50 0.153
890.60 0.153
890.70 0.1531
890.80 0.1532
890.90 0.1533
891.00 0.1533
891.10 0.1534
891.20 0.1535
891.30 0.1535
891.40 0.1536
891.50 0.1537
891.60 0.1538
891.70 0.1538
891.80 0.1539
891.90 0.154
892.00 0.1541
892.10 0.154
892.20 0.1539
892.30 0.1538
892.40 0.1538
892.50 0.1537
892.60 0.1536
892.70 0.1535
892.80 0.1535
892.90 0.1534
893.00 0.1533
893.10 0.1533
893.20 0.1532
893.30 0.1531
893.40 0.153
893.50 0.153
893.60 0.1529
893.70 0.1528
893.80 0.1527
893.90 0.1527
894.00 0.1526
894.10 0.1525
894.20 0.1524
894.30 0.1524
894.40 0.1523
894.50 0.1522
894.60 0.1522
894.70 0.1521
894.80 0.152
894.90 0.1519
895.00 0.1519
895.10 0.1518
895.20 0.1517
895.30 0.1516
895.40 0.1516
895.50 0.1515
895.60 0.1514
895.70 0.1514
895.80 0.1513
895.90 0.1512
896.00 0.1511
896.10 0.1511
896.20 0.151
896.30 0.1509
896.40 0.1509
896.50 0.1508
896.60 0.1507
896.70 0.1506
896.80 0.1506
896.90 0.1505
897.00 0.1504
897.10 0.1501
897.20 0.1498
897.30 0.1495
897.40 0.1492
897.50 0.1489
897.60 0.1487
897.70 0.1484
897.80 0.1481
897.90 0.1478
898.00 0.1475
898.10 0.1472
898.20 0.1469
898.30 0.1466
898.40 0.1463
898.50 0.146
898.60 0.1457
898.70 0.1454
898.80 0.1451
898.90 0.1448
899.00 0.1446
899.10 0.1443
899.20 0.144
899.30 0.1437
899.40 0.1434
899.50 0.1431
899.60 0.1428
899.70 0.1425
899.80 0.1422
899.90 0.1419
900.00 0.1416
900.10 0.1413
900.20 0.1411
900.30 0.1408
900.40 0.1405
900.50 0.1402
900.60 0.1399
900.70 0.1396
900.80 0.1393
900.90 0.139
901.00 0.1387
901.10 0.1384
901.20 0.1382
901.30 0.1379
901.40 0.1376
901.50 0.1373
901.60 0.137
901.70 0.1367
901.80 0.1364
901.90 0.1361
902.00 0.1358
902.10 0.136
902.20 0.1362
902.30 0.1363
902.40 0.1365
902.50 0.1367
902.60 0.1369
902.70 0.137
902.80 0.1372
902.90 0.1374
903.00 0.1375
903.10 0.1377
903.20 0.1379
903.30 0.138
903.40 0.1382
903.50 0.1384
903.60 0.1385
903.70 0.1387
903.80 0.1389
903.90 0.139
904.00 0.1392
904.10 0.1394
904.20 0.1395
904.30 0.1397
904.40 0.1399
904.50 0.14
904.60 0.1402
904.70 0.1404
904.80 0.1405
904.90 0.1407
905.00 0.1409
905.10 0.141
905.20 0.1412
905.30 0.1414
905.40 0.1415
905.50 0.1417
905.60 0.1419
905.70 0.142
905.80 0.1422
905.90 0.1424
906.00 0.1425
906.10 0.1427
906.20 0.1428
906.30 0.143
906.40 0.1432
906.50 0.1433
906.60 0.1435
906.70 0.1437
906.80 0.1438
906.90 0.144
907.00 0.1442
907.10 0.1442
907.20 0.1442
907.30 0.1442
907.40 0.1442
907.50 0.1442
907.60 0.1443
907.70 0.1443
907.80 0.1443
907.90 0.1443
908.00 0.1443
908.10 0.1443
908.20 0.1444
908.30 0.1444
908.40 0.1444
908.50 0.1444
908.60 0.1444
908.70 0.1444
908.80 0.1445
908.90 0.1445
909.00 0.1445
909.10 0.1445
909.20 0.1445
909.30 0.1445
909.40 0.1445
909.50 0.1446
909.60 0.1446
909.70 0.1446
909.80 0.1446
909.90 0.1446
910.00 0.1446
910.10 0.1447
910.20 0.1447
910.30 0.1447
910.40 0.1447
910.50 0.1447
910.60 0.1447
910.70 0.1447
910.80 0.1448
910.90 0.1448
911.00 0.1448
911.10 0.1448
911.20 0.1448
911.30 0.1448
911.40 0.1449
911.50 0.1449
911.60 0.1449
911.70 0.1449
911.80 0.1449
911.90 0.1449
912.00 0.1449
912.10 0.1448
912.20 0.1447
912.30 0.1445
912.40 0.1444
912.50 0.1442
912.60 0.1441
912.70 0.1439
912.80 0.1438
912.90 0.1436
913.00 0.1435
913.10 0.1434
913.20 0.1432
913.30 0.1431
913.40 0.1429
913.50 0.1428
913.60 0.1426
913.70 0.1425
913.80 0.1424
913.90 0.1422
914.00 0.1421
914.10 0.1419
914.20 0.1418
914.30 0.1416
914.40 0.1415
914.50 0.1414
914.60 0.1412
914.70 0.1411
914.80 0.1409
914.90 0.1408
915.00 0.1406
915.10 0.1405
915.20 0.1404
915.30 0.1402
915.40 0.1401
915.50 0.1399
915.60 0.1398
915.70 0.1396
915.80 0.1395
915.90 0.1394
916.00 0.1392
916.10 0.1391
916.20 0.1389
916.30 0.1388
916.40 0.1386
916.50 0.1385
916.60 0.1384
916.70 0.1382
916.80 0.1381
916.90 0.1379
917.00 0.1378
917.10 0.1374
917.20 0.137
917.30 0.1367
917.40 0.1363
917.50 0.1359
917.60 0.1355
917.70 0.1352
917.80 0.1348
917.90 0.1344
918.00 0.134
918.10 0.1337
918.20 0.1333
918.30 0.1329
918.40 0.1325
918.50 0.1322
918.60 0.1318
918.70 0.1314
918.80 0.131
918.90 0.1307
919.00 0.1303
919.10 0.1299
919.20 0.1295
919.30 0.1292
919.40 0.1288
919.50 0.1284
919.60 0.128
919.70 0.1277
919.80 0.1273
919.90 0.1269
920.00 0.1265
920.10 0.1262
920.20 0.1258
920.30 0.1254
920.40 0.1251
920.50 0.1247
920.60 0.1243
920.70 0.1239
920.80 0.1236
920.90 0.1232
921.00 0.1228
921.10 0.1225
921.20 0.1221
921.30 0.1217
921.40 0.1213
921.50 0.121
921.60 0.1206
921.70 0.1202
921.80 0.1199
921.90 0.1195
922.00 0.1191
922.10 0.1192
922.20 0.1193
922.30 0.1193
922.40 0.1194
922.50 0.1195
922.60 0.1195
922.70 0.1196
922.80 0.1197
922.90 0.1198
923.00 0.1198
923.10 0.1199
923.20 0.12
923.30 0.12
923.40 0.1201
923.50 0.1202
923.60 0.1203
923.70 0.1203
923.80 0.1204
923.90 0.1205
924.00 0.1205
924.10 0.1206
924.20 0.1207
924.30 0.1208
924.40 0.1208
924.50 0.1209
924.60 0.121
924.70 0.121
924.80 0.1211
924.90 0.1212
925.00 0.1212
925.10 0.1213
925.20 0.1214
925.30 0.1215
925.40 0.1215
925.50 0.1216
925.60 0.1217
925.70 0.1217
925.80 0.1218
925.90 0.1219
926.00 0.1219
926.10 0.122
926.20 0.1221
926.30 0.1222
926.40 0.1222
926.50 0.1223
926.60 0.1224
926.70 0.1224
926.80 0.1225
926.90 0.1226
927.00 0.1226
927.10 0.1228
927.20 0.123
927.30 0.1231
927.40 0.1233
927.50 0.1235
927.60 0.1236
927.70 0.1238
927.80 0.124
927.90 0.1241
928.00 0.1243
928.10 0.1244
928.20 0.1246
928.30 0.1248
928.40 0.1249
928.50 0.1251
928.60 0.1253
928.70 0.1254
928.80 0.1256
928.90 0.1257
929.00 0.1259
929.10 0.1261
929.20 0.1262
929.30 0.1264
929.40 0.1265
929.50 0.1267
929.60 0.1269
929.70 0.127
929.80 0.1272
929.90 0.1274
930.00 0.1275
930.10 0.1277
930.20 0.1278
930.30 0.128
930.40 0.1282
930.50 0.1283
930.60 0.1285
930.70 0.1286
930.80 0.1288
930.90 0.129
931.00 0.1291
931.10 0.1293
931.20 0.1294
931.30 0.1296
931.40 0.1298
931.50 0.1299
931.60 0.1301
931.70 0.1302
931.80 0.1304
931.90 0.1306
932.00 0.1307
932.10 0.1308
932.20 0.1308
932.30 0.1309
932.40 0.1309
932.50 0.131
932.60 0.131
932.70 0.1311
932.80 0.1311
932.90 0.1312
933.00 0.1313
933.10 0.1313
933.20 0.1314
933.30 0.1314
933.40 0.1315
933.50 0.1315
933.60 0.1316
933.70 0.1316
933.80 0.1317
933.90 0.1317
934.00 0.1318
934.10 0.1318
934.20 0.1319
934.30 0.1319
934.40 0.1319
934.50 0.1319
934.60 0.1319
934.70 0.1319
934.80 0.1319
934.90 0.1319
935.00 0.1319
935.10 0.1319
935.20 0.1319
935.30 0.1319
935.40 0.1319
935.50 0.1319
935.60 0.1319
935.70 0.1319
935.80 0.1319
935.90 0.1319
936.00 0.1319
936.10 0.1319
936.20 0.1319
936.30 0.1319
936.40 0.1319
936.50 0.1319
936.60 0.1319
936.70 0.1319
936.80 0.1319
936.90 0.1319
937.00 0.1319
937.10 0.1319
937.20 0.1318
937.30 0.1318
937.40 0.1318
937.50 0.1317
937.60 0.1317
937.70 0.1317
937.80 0.1316
937.90 0.1316
938.00 0.1316
938.10 0.1315
938.20 0.1315
938.30 0.1314
938.40 0.1314
938.50 0.1313
938.60 0.1313
938.70 0.1312
938.80 0.1311
938.90 0.1311
939.00 0.131
939.10 0.1309
939.20 0.1309
939.30 0.1308
939.40 0.1307
939.50 0.1307
939.60 0.1306
939.70 0.1306
939.80 0.1305
939.90 0.1304
940.00 0.1304
940.10 0.1303
940.20 0.1302
940.30 0.1302
940.40 0.1301
940.50 0.13
940.60 0.1299
940.70 0.1298
940.80 0.1297
940.90 0.1296
941.00 0.1295
941.10 0.1294
941.20 0.1293
941.30 0.1292
941.40 0.1291
941.50 0.129
941.60 0.1289
941.70 0.1288
941.80 0.1287
941.90 0.1286
942.00 0.1285
942.10 0.1284
942.20 0.1283
942.30 0.1281
942.40 0.128
942.50 0.1278
942.60 0.1277
942.70 0.1275
942.80 0.1274
942.90 0.1272
943.00 0.1271
943.10 0.1269
943.20 0.1268
943.30 0.1266
943.40 0.1265
943.50 0.1263
943.60 0.1262
943.70 0.126
943.80 0.1259
943.90 0.1257
944.00 0.1256
944.10 0.1254
944.20 0.1253
944.30 0.1251
944.40 0.1249
944.50 0.1248
944.60 0.1246
944.70 0.1244
944.80 0.1242
944.90 0.124
945.00 0.1238
945.10 0.1236
945.20 0.1234
945.30 0.1232
945.40 0.123
945.50 0.1227
945.60 0.1225
945.70 0.1222
945.80 0.122
945.90 0.1218
946.00 0.1215
946.10 0.1213
946.20 0.121
946.30 0.1208
946.40 0.1205
946.50 0.1203
946.60 0.1201
946.70 0.1198
946.80 0.1196
946.90 0.1193
947.00 0.1191
947.10 0.1188
947.20 0.1186
947.30 0.1183
947.40 0.118
947.50 0.1177
947.60 0.1173
947.70 0.117
947.80 0.1167
947.90 0.1164
948.00 0.1161
948.10 0.1158
948.20 0.1155
948.30 0.1151
948.40 0.1148
948.50 0.1145
948.60 0.1142
948.70 0.1139
948.80 0.1136
948.90 0.1133
949.00 0.113
949.10 0.1126
949.20 0.1123
949.30 0.112
949.40 0.1116
949.50 0.1113
949.60 0.1109
949.70 0.1105
949.80 0.1102
949.90 0.1098
950.00 0.1094
950.10 0.1091
950.20 0.1087
950.30 0.1083
950.40 0.108
950.50 0.1076
950.60 0.1072
950.70 0.1068
950.80 0.1065
950.90 0.1061
951.00 0.1057
951.10 0.1054
951.20 0.105
951.30 0.1046
951.40 0.1043
951.50 0.1039
951.60 0.1035
951.70 0.1031
951.80 0.1027
951.90 0.1023
952.00 0.1019
952.10 0.1015
952.20 0.1012
952.30 0.1008
952.40 0.1004
952.50 0.1
952.60 0.09965
952.70 0.09928
952.80 0.0989
952.90 0.0986
953.00 0.09829
953.10 0.09798
953.20 0.09768
953.30 0.09737
953.40 0.09707
953.50 0.09676
953.60 0.09671
953.70 0.09666
953.80 0.09661
953.90 0.09657
954.00 0.09704
954.10 0.09752
954.20 0.09882
954.30 0.0997
954.40 0.09817
954.50 0.09691
954.60 0.09643
954.70 0.09595
954.80 0.09596
954.90 0.09597
955.00 0.09598
955.10 0.096
955.20 0.09624
955.30 0.09647
955.40 0.09671
955.50 0.09695
955.60 0.09719
955.70 0.09742
955.80 0.09766
955.90 0.09796
956.00 0.09826
956.10 0.09856
956.20 0.09885
956.30 0.09915
956.40 0.09945
956.50 0.09975
956.60 0.1
956.70 0.1003
956.80 0.1006
956.90 0.1009
957.00 0.1012
957.10 0.1015
957.20 0.1018
957.30 0.1021
957.40 0.1024
957.50 0.1026
957.60 0.1029
957.70 0.1032
957.80 0.1034
957.90 0.1037
958.00 0.104
958.10 0.1042
958.20 0.1045
958.30 0.1047
958.40 0.105
958.50 0.1053
958.60 0.1055
958.70 0.1058
958.80 0.1061
958.90 0.1063
959.00 0.1066
959.10 0.1068
959.20 0.1071
959.30 0.1074
959.40 0.1076
959.50 0.1078
959.60 0.108
959.70 0.1081
959.80 0.1083
959.90 0.1085
960.00 0.1087
960.10 0.1089
960.20 0.1091
960.30 0.1093
960.40 0.1095
960.50 0.1097
960.60 0.1099
960.70 0.1101
960.80 0.1103
960.90 0.1105
961.00 0.1107
961.10 0.1109
961.20 0.1111
961.30 0.1113
961.40 0.1114
961.50 0.1116
961.60 0.1117
961.70 0.1119
961.80 0.1121
961.90 0.1122
962.00 0.1124
962.10 0.1125
962.20 0.1126
962.30 0.1127
962.40 0.1129
962.50 0.113
962.60 0.1131
962.70 0.1132
962.80 0.1134
962.90 0.1135
963.00 0.1136
963.10 0.1138
963.20 0.1139
963.30 0.114
963.40 0.1141
963.50 0.1142
963.60 0.1143
963.70 0.1144
963.80 0.1145
963.90 0.1146
964.00 0.1147
964.10 0.1148
964.20 0.1149
964.30 0.115
964.40 0.1151
964.50 0.1151
964.60 0.1152
964.70 0.1153
964.80 0.1153
964.90 0.1154
965.00 0.1155
965.10 0.1156
965.20 0.1156
965.30 0.1157
965.40 0.1158
965.50 0.1158
965.60 0.1159
965.70 0.116
965.80 0.116
965.90 0.1161
966.00 0.1162
966.10 0.1163
966.20 0.1163
966.30 0.1164
966.40 0.1164
966.50 0.1165
966.60 0.1165
966.70 0.1166
966.80 0.1166
966.90 0.1167
967.00 0.1167
967.10 0.1168
967.20 0.1168
967.30 0.1168
967.40 0.1169
967.50 0.1169
967.60 0.1169
967.70 0.117
967.80 0.117
967.90 0.117
968.00 0.1171
968.10 0.1171
968.20 0.1171
968.30 0.1172
968.40 0.1172
968.50 0.1172
968.60 0.1172
968.70 0.1172
968.80 0.1173
968.90 0.1173
969.00 0.1173
969.10 0.1173
969.20 0.1173
969.30 0.1173
969.40 0.1173
969.50 0.1174
969.60 0.1174
969.70 0.1174
969.80 0.1174
969.90 0.1174
970.00 0.1174
970.10 0.1175
970.20 0.1175
970.30 0.1175
970.40 0.1175
970.50 0.1175
970.60 0.1175
970.70 0.1175
970.80 0.1175
970.90 0.1175
971.00 0.1175
971.10 0.1175
971.20 0.1175
971.30 0.1175
971.40 0.1175
971.50 0.1175
971.60 0.1175
971.70 0.1175
971.80 0.1175
971.90 0.1175
972.00 0.1175
972.10 0.1175
972.20 0.1174
972.30 0.1174
972.40 0.1174
972.50 0.1174
972.60 0.1174
972.70 0.1174
972.80 0.1174
972.90 0.1173
973.00 0.1173
973.10 0.1173
973.20 0.1173
973.30 0.1173
973.40 0.1173
973.50 0.1173
973.60 0.1172
973.70 0.1172
973.80 0.1172
973.90 0.1172
974.00 0.1172
974.10 0.1172
974.20 0.1172
974.30 0.1171
974.40 0.1171
974.50 0.1171
974.60 0.1171
974.70 0.117
974.80 0.117
974.90 0.117
975.00 0.1169
975.10 0.1169
975.20 0.1169
975.30 0.1169
975.40 0.1168
975.50 0.1168
975.60 0.1168
975.70 0.1167
975.80 0.1167
975.90 0.1167
976.00 0.1167
976.10 0.1166
976.20 0.1166
976.30 0.1166
976.40 0.1166
976.50 0.1165
976.60 0.1165
976.70 0.1165
976.80 0.1164
976.90 0.1164
977.00 0.1164
977.10 0.1163
977.20 0.1163
977.30 0.1163
977.40 0.1162
977.50 0.1162
977.60 0.1161
977.70 0.1161
977.80 0.116
977.90 0.116
978.00 0.116
978.10 0.1159
978.20 0.1159
978.30 0.1158
978.40 0.1158
978.50 0.1157
978.60 0.1157
978.70 0.1156
978.80 0.1156
978.90 0.1156
979.00 0.1155
979.10 0.1155
979.20 0.1154
979.30 0.1154
979.40 0.1153
979.50 0.1153
979.60 0.1153
979.70 0.1152
979.80 0.1152
979.90 0.1151
980.00 0.1151
980.10 0.115
980.20 0.115
980.30 0.1149
980.40 0.1149
980.50 0.1149
980.60 0.1148
980.70 0.1148
980.80 0.1147
980.90 0.1147
981.00 0.1146
981.10 0.1146
981.20 0.1146
981.30 0.1145
981.40 0.1145
981.50 0.1144
981.60 0.1144
981.70 0.1143
981.80 0.1143
981.90 0.1143
982.00 0.1142
982.10 0.1141
982.20 0.1141
982.30 0.114
982.40 0.114
982.50 0.1139
982.60 0.1139
982.70 0.1138
982.80 0.1137
982.90 0.1137
983.00 0.1136
983.10 0.1136
983.20 0.1135
983.30 0.1134
983.40 0.1134
983.50 0.1133
983.60 0.1133
983.70 0.1132
983.80 0.1131
983.90 0.1131
984.00 0.113
984.10 0.113
984.20 0.1129
984.30 0.1128
984.40 0.1128
984.50 0.1127
984.60 0.1127
984.70 0.1126
984.80 0.1125
984.90 0.1125
985.00 0.1124
985.10 0.1123
985.20 0.1122
985.30 0.1122
985.40 0.1121
985.50 0.112
985.60 0.1119
985.70 0.1119
985.80 0.1118
985.90 0.1117
986.00 0.1116
986.10 0.1116
986.20 0.1115
986.30 0.1114
986.40 0.1114
986.50 0.1113
986.60 0.1112
986.70 0.1111
986.80 0.1111
986.90 0.111
987.00 0.1109
987.10 0.1108
987.20 0.1107
987.30 0.1107
987.40 0.1106
987.50 0.1105
987.60 0.1104
987.70 0.1103
987.80 0.1102
987.90 0.1101
988.00 0.11
988.10 0.11
988.20 0.1099
988.30 0.1098
988.40 0.1097
988.50 0.1096
988.60 0.1095
988.70 0.1094
988.80 0.1093
988.90 0.1092
989.00 0.1091
989.10 0.109
989.20 0.1089
989.30 0.1088
989.40 0.1087
989.50 0.1086
989.60 0.1085
989.70 0.1084
989.80 0.1083
989.90 0.1082
990.00 0.1081
990.10 0.108
990.20 0.1079
990.30 0.1078
990.40 0.1077
990.50 0.1076
990.60 0.1075
990.70 0.1074
990.80 0.1073
990.90 0.1072
991.00 0.107
991.10 0.1069
991.20 0.1068
991.30 0.1067
991.40 0.1066
991.50 0.1065
991.60 0.1063
991.70 0.1062
991.80 0.1061
991.90 0.106
992.00 0.1059
992.10 0.1057
992.20 0.1056
992.30 0.1055
992.40 0.1053
992.50 0.1052
992.60 0.1051
992.70 0.1049
992.80 0.1048
992.90 0.1046
993.00 0.1045
993.10 0.1043
993.20 0.1042
993.30 0.104
993.40 0.1039
993.50 0.1037
993.60 0.1036
993.70 0.1034
993.80 0.1033
993.90 0.1031
994.00 0.103
994.10 0.1028
994.20 0.1027
994.30 0.1025
994.40 0.1024
994.50 0.1022
994.60 0.1021
994.70 0.1019
994.80 0.1017
994.90 0.1016
995.00 0.1014
995.10 0.1012
995.20 0.101
995.30 0.1009
995.40 0.1007
995.50 0.1005
995.60 0.1003
995.70 0.1002
995.80 0.09996
995.90 0.09976
996.00 0.09957
996.10 0.09937
996.20 0.09917
996.30 0.09898
996.40 0.09878
996.50 0.09858
996.60 0.09839
996.70 0.09819
996.80 0.098
996.90 0.0978
997.00 0.0976
997.10 0.09739
997.20 0.09717
997.30 0.09695
997.40 0.09673
997.50 0.09651
997.60 0.09629
997.70 0.09605
997.80 0.0958
997.90 0.09555
998.00 0.0953
998.10 0.09505
998.20 0.0948
998.30 0.09455
998.40 0.0943
998.50 0.09405
998.60 0.0938
998.70 0.09355
998.80 0.0933
998.90 0.09305
999.00 0.09281
999.10 0.09256
999.20 0.09231
999.30 0.09206
999.40 0.09181
999.50 0.09156
999.60 0.09131
999.70 0.09102
999.80 0.09072
999.90 0.09042
1000.00 0.09012
1000.10 0.08982
1000.20 0.08952
1000.30 0.08921
1000.40 0.08891
1000.50 0.08861
1000.60 0.08831
1000.70 0.08801
1000.80 0.08771
1000.90 0.08741
1001.00 0.08711
1001.10 0.08681
1001.20 0.08651
1001.30 0.08621
1001.40 0.08591
1001.50 0.08561
1001.60 0.08531
1001.70 0.08498
1001.80 0.08465
1001.90 0.08432
1002.00 0.08399
1002.10 0.08364
1002.20 0.08329
1002.30 0.08294
1002.40 0.08259
1002.50 0.08224
1002.60 0.08189
1002.70 0.08154
1002.80 0.08119
1002.90 0.08085
1003.00 0.0805
1003.10 0.08015
1003.20 0.07979
1003.30 0.07942
1003.40 0.07905
1003.50 0.07869
1003.60 0.07832
1003.70 0.07796
1003.80 0.07759
1003.90 0.07724
1004.00 0.07689
1004.10 0.07655
1004.20 0.0762
1004.30 0.07599
1004.40 0.07582
1004.50 0.07589
1004.60 0.07682
1004.70 0.07615
1004.80 0.07567
1004.90 0.07578
1005.00 0.07591
1005.10 0.07616
1005.20 0.07646
1005.30 0.07675
1005.40 0.07705
1005.50 0.07736
1005.60 0.07767
1005.70 0.07799
1005.80 0.0783
1005.90 0.07861
1006.00 0.07893
1006.10 0.07924
1006.20 0.07954
1006.30 0.07983
1006.40 0.08013
1006.50 0.08042
1006.60 0.08072
1006.70 0.08101
1006.80 0.08131
1006.90 0.0816
1007.00 0.0819
1007.10 0.08217
1007.20 0.08244
1007.30 0.08272
1007.40 0.08299
1007.50 0.08326
1007.60 0.08354
1007.70 0.08378
1007.80 0.08402
1007.90 0.08425
1008.00 0.08449
1008.10 0.08472
1008.20 0.08496
1008.30 0.08519
1008.40 0.08543
1008.50 0.08566
1008.60 0.0859
1008.70 0.08613
1008.80 0.08637
1008.90 0.0866
1009.00 0.08683
1009.10 0.08707
1009.20 0.0873
1009.30 0.08754
1009.40 0.08777
1009.50 0.08801
1009.60 0.08824
1009.70 0.08843
1009.80 0.08861
1009.90 0.08879
1010.00 0.08896
1010.10 0.08914
1010.20 0.08932
1010.30 0.0895
1010.40 0.08968
1010.50 0.08985
1010.60 0.09003
1010.70 0.09021
1010.80 0.09038
1010.90 0.09056
1011.00 0.09074
1011.10 0.09092
1011.20 0.09109
1011.30 0.09127
1011.40 0.09145
1011.50 0.09162
1011.60 0.0918
1011.70 0.09196
1011.80 0.0921
1011.90 0.09225
1012.00 0.0924
1012.10 0.09252
1012.20 0.09265
1012.30 0.09277
1012.40 0.09289
1012.50 0.09302
1012.60 0.09314
1012.70 0.09326
1012.80 0.09339
1012.90 0.09351
1013.00 0.09364
1013.10 0.09376
1013.20 0.09388
1013.30 0.09401
1013.40 0.09413
1013.50 0.09425
1013.60 0.09437
1013.70 0.09448
1013.80 0.09458
1013.90 0.09467
1014.00 0.09477
1014.10 0.09487
1014.20 0.09497
1014.30 0.09506
1014.40 0.09516
1014.50 0.09526
1014.60 0.09536
1014.70 0.09543
1014.80 0.09551
1014.90 0.09558
1015.00 0.09565
1015.10 0.09573
1015.20 0.0958
1015.30 0.09587
1015.40 0.09594
1015.50 0.09601
1015.60 0.09609
1015.70 0.09616
1015.80 0.09623
1015.90 0.0963
1016.00 0.09638
1016.10 0.09645
1016.20 0.09652
1016.30 0.09659
1016.40 0.09667
1016.50 0.09674
1016.60 0.09681
1016.70 0.09687
1016.80 0.09693
1016.90 0.09699
1017.00 0.09705
1017.10 0.09709
1017.20 0.09713
1017.30 0.09718
1017.40 0.09722
1017.50 0.09726
1017.60 0.0973
1017.70 0.09735
1017.80 0.09739
1017.90 0.09743
1018.00 0.09747
1018.10 0.09752
1018.20 0.09756
1018.30 0.0976
1018.40 0.09765
1018.50 0.09769
1018.60 0.09773
1018.70 0.09776
1018.80 0.09779
1018.90 0.09781
1019.00 0.09784
1019.10 0.09786
1019.20 0.09789
1019.30 0.09792
1019.40 0.09794
1019.50 0.09797
1019.60 0.09799
1019.70 0.09802
1019.80 0.09804
1019.90 0.09807
1020.00 0.0981
1020.10 0.09812
1020.20 0.09815
1020.30 0.09817
1020.40 0.0982
1020.50 0.09822
1020.60 0.09825
1020.70 0.09827
1020.80 0.09828
1020.90 0.09829
1021.00 0.09831
1021.10 0.09832
1021.20 0.09833
1021.30 0.09835
1021.40 0.09836
1021.50 0.09837
1021.60 0.09839
1021.70 0.0984
1021.80 0.09841
1021.90 0.09843
1022.00 0.09844
1022.10 0.09844
1022.20 0.09844
1022.30 0.09844
1022.40 0.09845
1022.50 0.09845
1022.60 0.09845
1022.70 0.09845
1022.80 0.09845
1022.90 0.09845
1023.00 0.09845
1023.10 0.09845
1023.20 0.09846
1023.30 0.09846
1023.40 0.09846
1023.50 0.09846
1023.60 0.09846
1023.70 0.09846
1023.80 0.09846
1023.90 0.09846
1024.00 0.09847
1024.10 0.09847
1024.20 0.09847
1024.30 0.09847
1024.40 0.09847
1024.50 0.09847
1024.60 0.09847
1024.70 0.09847
1024.80 0.09846
1024.90 0.09845
1025.00 0.09844
1025.10 0.09843
1025.20 0.09842
1025.30 0.09841
1025.40 0.0984
1025.50 0.09839
1025.60 0.09838
1025.70 0.09837
1025.80 0.09836
1025.90 0.09835
1026.00 0.09834
1026.10 0.09833
1026.20 0.09832
1026.30 0.09831
1026.40 0.0983
1026.50 0.09829
1026.60 0.09828
1026.70 0.09827
1026.80 0.09826
1026.90 0.09825
1027.00 0.09824
1027.10 0.09822
1027.20 0.0982
1027.30 0.09818
1027.40 0.09816
1027.50 0.09814
1027.60 0.09813
1027.70 0.09811
1027.80 0.09809
1027.90 0.09807
1028.00 0.09805
1028.10 0.09803
1028.20 0.09801
1028.30 0.09799
1028.40 0.09797
1028.50 0.09796
1028.60 0.09794
1028.70 0.09792
1028.80 0.0979
1028.90 0.09788
1029.00 0.09786
1029.10 0.09784
1029.20 0.09782
1029.30 0.0978
1029.40 0.09779
1029.50 0.09777
1029.60 0.09775
1029.70 0.09773
1029.80 0.09771
1029.90 0.09769
1030.00 0.09767
1030.10 0.09765
1030.20 0.09764
1030.30 0.09762
1030.40 0.0976
1030.50 0.09758
1030.60 0.09756
1030.70 0.09754
1030.80 0.09752
1030.90 0.0975
1031.00 0.09749
1031.10 0.09747
1031.20 0.09745
1031.30 0.09743
1031.40 0.09741
1031.50 0.09739
1031.60 0.09737
1031.70 0.09735
1031.80 0.09734
1031.90 0.09732
1032.00 0.0973
1032.10 0.09727
1032.20 0.09725
1032.30 0.09722
1032.40 0.09719
1032.50 0.09717
1032.60 0.09714
1032.70 0.09712
1032.80 0.09709
1032.90 0.09707
1033.00 0.09704
1033.10 0.09701
1033.20 0.09699
1033.30 0.09696
1033.40 0.09694
1033.50 0.09691
1033.60 0.09688
1033.70 0.09686
1033.80 0.09683
1033.90 0.09681
1034.00 0.09678
1034.10 0.09676
1034.20 0.09673
1034.30 0.0967
1034.40 0.09668
1034.50 0.09665
1034.60 0.09663
1034.70 0.0966
1034.80 0.09658
1034.90 0.09655
1035.00 0.09652
1035.10 0.0965
1035.20 0.09647
1035.30 0.09645
1035.40 0.09642
1035.50 0.0964
1035.60 0.09637
1035.70 0.09635
1035.80 0.09632
1035.90 0.09629
1036.00 0.09627
1036.10 0.09624
1036.20 0.09622
1036.30 0.09619
1036.40 0.09617
1036.50 0.09614
1036.60 0.09611
1036.70 0.09609
1036.80 0.09606
1036.90 0.09604
1037.00 0.09601
1037.10 0.09598
1037.20 0.09595
1037.30 0.09592
1037.40 0.0959
1037.50 0.09587
1037.60 0.09584
1037.70 0.09581
1037.80 0.09578
1037.90 0.09575
1038.00 0.09572
1038.10 0.09569
1038.20 0.09566
1038.30 0.09563
1038.40 0.0956
1038.50 0.09557
1038.60 0.09555
1038.70 0.09552
1038.80 0.09549
1038.90 0.09546
1039.00 0.09543
1039.10 0.0954
1039.20 0.09537
1039.30 0.09534
1039.40 0.09531
1039.50 0.09528
1039.60 0.09525
1039.70 0.09523
1039.80 0.0952
1039.90 0.09517
1040.00 0.09514
1040.10 0.09511
1040.20 0.09508
1040.30 0.09505
1040.40 0.09502
1040.50 0.09499
1040.60 0.09496
1040.70 0.09494
1040.80 0.09491
1040.90 0.09488
1041.00 0.09485
1041.10 0.09482
1041.20 0.09479
1041.30 0.09476
1041.40 0.09473
1041.50 0.0947
1041.60 0.09468
1041.70 0.09465
1041.80 0.09462
1041.90 0.09459
1042.00 0.09456
1042.10 0.09453
1042.20 0.0945
1042.30 0.09447
1042.40 0.09443
1042.50 0.0944
1042.60 0.09437
1042.70 0.09434
1042.80 0.09431
1042.90 0.09428
1043.00 0.09425
1043.10 0.09422
1043.20 0.09419
1043.30 0.09415
1043.40 0.09412
1043.50 0.09409
1043.60 0.09406
1043.70 0.09403
1043.80 0.094
1043.90 0.09397
1044.00 0.09394
1044.10 0.09391
1044.20 0.09387
1044.30 0.09384
1044.40 0.09381
1044.50 0.09378
1044.60 0.09375
1044.70 0.09372
1044.80 0.09369
1044.90 0.09366
1045.00 0.09363
1045.10 0.0936
1045.20 0.09357
1045.30 0.09353
1045.40 0.0935
1045.50 0.09347
1045.60 0.09344
1045.70 0.09341
1045.80 0.09338
1045.90 0.09335
1046.00 0.09332
1046.10 0.09329
1046.20 0.09326
1046.30 0.09323
1046.40 0.09319
1046.50 0.09316
1046.60 0.09313
1046.70 0.0931
1046.80 0.09307
1046.90 0.09304
1047.00 0.09301
1047.10 0.09298
1047.20 0.09295
1047.30 0.09291
1047.40 0.09288
1047.50 0.09285
1047.60 0.09282
1047.70 0.09279
1047.80 0.09275
1047.90 0.09272
1048.00 0.09269
1048.10 0.09266
1048.20 0.09263
1048.30 0.09259
1048.40 0.09256
1048.50 0.09253
1048.60 0.0925
1048.70 0.09247
1048.80 0.09243
1048.90 0.0924
1049.00 0.09237
1049.10 0.09234
1049.20 0.09231
1049.30 0.09227
1049.40 0.09224
1049.50 0.09221
1049.60 0.09218
1049.70 0.09215
1049.80 0.09212
1049.90 0.09208
1050.00 0.09205
1050.10 0.09202
1050.20 0.09199
1050.30 0.09196
1050.40 0.09192
1050.50 0.09189
1050.60 0.09186
1050.70 0.09183
1050.80 0.0918
1050.90 0.09177
1051.00 0.09173
1051.10 0.0917
1051.20 0.09167
1051.30 0.09164
1051.40 0.09161
1051.50 0.09158
1051.60 0.09154
1051.70 0.09151
1051.80 0.09148
1051.90 0.09145
1052.00 0.09142
1052.10 0.09138
1052.20 0.09135
1052.30 0.09132
1052.40 0.09129
1052.50 0.09125
1052.60 0.09122
1052.70 0.09119
1052.80 0.09115
1052.90 0.09112
1053.00 0.09109
1053.10 0.09105
1053.20 0.09102
1053.30 0.09099
1053.40 0.09095
1053.50 0.09092
1053.60 0.09089
1053.70 0.09086
1053.80 0.09082
1053.90 0.09079
1054.00 0.09076
1054.10 0.09072
1054.20 0.09069
1054.30 0.09066
1054.40 0.09062
1054.50 0.09059
1054.60 0.09056
1054.70 0.09053
1054.80 0.09049
1054.90 0.09046
1055.00 0.09043
1055.10 0.09039
1055.20 0.09036
1055.30 0.09033
1055.40 0.0903
1055.50 0.09026
1055.60 0.09023
1055.70 0.0902
1055.80 0.09016
1055.90 0.09013
1056.00 0.0901
1056.10 0.09007
1056.20 0.09003
1056.30 0.09
1056.40 0.08997
1056.50 0.08993
1056.60 0.0899
1056.70 0.08987
1056.80 0.08984
1056.90 0.0898
1057.00 0.08977
1057.10 0.08974
1057.20 0.0897
1057.30 0.08967
1057.40 0.08963
1057.50 0.0896
1057.60 0.08956
1057.70 0.08953
1057.80 0.08949
1057.90 0.08946
1058.00 0.08942
1058.10 0.08939
1058.20 0.08935
1058.30 0.08932
1058.40 0.08929
1058.50 0.08925
1058.60 0.08922
1058.70 0.08918
1058.80 0.08915
1058.90 0.08911
1059.00 0.08908
1059.10 0.08904
1059.20 0.08901
1059.30 0.08897
1059.40 0.08894
1059.50 0.08891
1059.60 0.08887
1059.70 0.08884
1059.80 0.0888
1059.90 0.08877
1060.00 0.08873
1060.10 0.0887
1060.20 0.08866
1060.30 0.08863
1060.40 0.0886
1060.50 0.08856
1060.60 0.08853
1060.70 0.08849
1060.80 0.08846
1060.90 0.08842
1061.00 0.08839
1061.10 0.08835
1061.20 0.08832
1061.30 0.08829
1061.40 0.08825
1061.50 0.08822
1061.60 0.08818
1061.70 0.08815
1061.80 0.08811
1061.90 0.08808
1062.00 0.08805
1062.10 0.08801
1062.20 0.08797
1062.30 0.08793
1062.40 0.08789
1062.50 0.08786
1062.60 0.08782
1062.70 0.08778
1062.80 0.08774
1062.90 0.08771
1063.00 0.08767
1063.10 0.08763
1063.20 0.08759
1063.30 0.08756
1063.40 0.08752
1063.50 0.08748
1063.60 0.08744
1063.70 0.0874
1063.80 0.08737
1063.90 0.08733
1064.00 0.08729
1064.10 0.08725
1064.20 0.08722
1064.30 0.08718
1064.40 0.08714
1064.50 0.0871
1064.60 0.08707
1064.70 0.08703
1064.80 0.08699
1064.90 0.08695
1065.00 0.08692
1065.10 0.08688
1065.20 0.08684
1065.30 0.0868
1065.40 0.08677
1065.50 0.08673
1065.60 0.08669
1065.70 0.08665
1065.80 0.08662
1065.90 0.08658
1066.00 0.08654
1066.10 0.0865
1066.20 0.08647
1066.30 0.08643
1066.40 0.08639
1066.50 0.08636
1066.60 0.08632
1066.70 0.08628
1066.80 0.08624
1066.90 0.08621
1067.00 0.08617
1067.10 0.08612
1067.20 0.08608
1067.30 0.08604
1067.40 0.08599
1067.50 0.08595
1067.60 0.08591
1067.70 0.08586
1067.80 0.08582
1067.90 0.08577
1068.00 0.08573
1068.10 0.08569
1068.20 0.08564
1068.30 0.0856
1068.40 0.08555
1068.50 0.08551
1068.60 0.08547
1068.70 0.08542
1068.80 0.08538
1068.90 0.08534
1069.00 0.08529
1069.10 0.08525
1069.20 0.08521
1069.30 0.08516
1069.40 0.08512
1069.50 0.08507
1069.60 0.08503
1069.70 0.08499
1069.80 0.08494
1069.90 0.0849
1070.00 0.08486
1070.10 0.08481
1070.20 0.08477
1070.30 0.08473
1070.40 0.08468
1070.50 0.08464
1070.60 0.0846
1070.70 0.08455
1070.80 0.08451
1070.90 0.08447
1071.00 0.08442
1071.10 0.08438
1071.20 0.08434
1071.30 0.08429
1071.40 0.08425
1071.50 0.08421
1071.60 0.08416
1071.70 0.08412
1071.80 0.08408
1071.90 0.08403
1072.00 0.08399
1072.10 0.08394
1072.20 0.08389
1072.30 0.08384
1072.40 0.08379
1072.50 0.08374
1072.60 0.08369
1072.70 0.08364
1072.80 0.08359
1072.90 0.08354
1073.00 0.0835
1073.10 0.08345
1073.20 0.0834
1073.30 0.08335
1073.40 0.0833
1073.50 0.08325
1073.60 0.08319
1073.70 0.08313
1073.80 0.08307
1073.90 0.08301
1074.00 0.08295
1074.10 0.08289
1074.20 0.08283
1074.30 0.08278
1074.40 0.08272
1074.50 0.08266
1074.60 0.0826
1074.70 0.08254
1074.80 0.08248
1074.90 0.08242
1075.00 0.08237
1075.10 0.08231
1075.20 0.08225
1075.30 0.08219
1075.40 0.08213
1075.50 0.08207
1075.60 0.08202
1075.70 0.08196
1075.80 0.0819
1075.90 0.08184
1076.00 0.08178
1076.10 0.08172
1076.20 0.08167
1076.30 0.08161
1076.40 0.08155
1076.50 0.08149
1076.60 0.08143
1076.70 0.08137
1076.80 0.08132
1076.90 0.08126
1077.00 0.0812
1077.10 0.08113
1077.20 0.08107
1077.30 0.081
1077.40 0.08094
1077.50 0.08087
1077.60 0.0808
1077.70 0.08072
1077.80 0.08065
1077.90 0.08057
1078.00 0.0805
1078.10 0.08042
1078.20 0.08035
1078.30 0.08028
1078.40 0.0802
1078.50 0.08013
1078.60 0.08005
1078.70 0.07998
1078.80 0.0799
1078.90 0.07983
1079.00 0.07976
1079.10 0.07968
1079.20 0.07961
1079.30 0.07953
1079.40 0.07946
1079.50 0.07938
1079.60 0.07929
1079.70 0.07921
1079.80 0.07912
1079.90 0.07903
1080.00 0.07894
1080.10 0.07886
1080.20 0.07877
1080.30 0.07868
1080.40 0.07859
1080.50 0.0785
1080.60 0.07842
1080.70 0.07833
1080.80 0.07824
1080.90 0.07815
1081.00 0.07807
1081.10 0.07798
1081.20 0.07789
1081.30 0.0778
1081.40 0.07772
1081.50 0.07763
1081.60 0.07753
1081.70 0.07743
1081.80 0.07734
1081.90 0.07724
1082.00 0.07715
1082.10 0.07704
1082.20 0.07693
1082.30 0.07682
1082.40 0.07671
1082.50 0.0766
1082.60 0.0765
1082.70 0.07639
1082.80 0.07628
1082.90 0.07617
1083.00 0.07606
1083.10 0.07595
1083.20 0.07585
1083.30 0.07574
1083.40 0.07563
1083.50 0.07552
1083.60 0.07539
1083.70 0.07527
1083.80 0.07515
1083.90 0.07503
1084.00 0.0749
1084.10 0.07478
1084.20 0.07466
1084.30 0.07454
1084.40 0.07441
1084.50 0.07429
1084.60 0.07414
1084.70 0.074
1084.80 0.07386
1084.90 0.07372
1085.00 0.07357
1085.10 0.07343
1085.20 0.07329
1085.30 0.07315
1085.40 0.073
1085.50 0.07286
1085.60 0.07272
1085.70 0.07258
1085.80 0.07243
1085.90 0.07229
1086.00 0.07215
1086.10 0.07201
1086.20 0.07187
1086.30 0.07173
1086.40 0.07158
1086.50 0.07143
1086.60 0.07127
1086.70 0.07111
1086.80 0.07095
1086.90 0.07079
1087.00 0.07062
1087.10 0.07044
1087.20 0.07026
1087.30 0.07009
1087.40 0.06991
1087.50 0.06973
1087.60 0.06955
1087.70 0.06937
1087.80 0.06919
1087.90 0.06901
1088.00 0.06883
1088.10 0.06865
1088.20 0.06847
1088.30 0.0683
1088.40 0.06812
1088.50 0.06793
1088.60 0.06771
1088.70 0.0675
1088.80 0.06729
1088.90 0.06708
1089.00 0.06686
1089.10 0.06665
1089.20 0.06644
1089.30 0.06622
1089.40 0.06601
1089.50 0.0658
1089.60 0.06559
1089.70 0.06537
1089.80 0.06516
1089.90 0.06495
1090.00 0.06474
1090.10 0.06453
1090.20 0.06431
1090.30 0.0641
1090.40 0.06389
1090.50 0.06367
1090.60 0.06341
1090.70 0.06316
1090.80 0.0629
1090.90 0.06265
1091.00 0.06239
1091.10 0.06214
1091.20 0.06189
1091.30 0.06163
1091.40 0.06138
1091.50 0.06113
1091.60 0.06087
1091.70 0.06062
1091.80 0.06037
1091.90 0.06011
1092.00 0.05985
1092.10 0.05953
1092.20 0.05922
1092.30 0.05891
1092.40 0.05859
1092.50 0.05828
1092.60 0.05796
1092.70 0.05762
1092.80 0.05722
1092.90 0.05683
1093.00 0.05643
1093.10 0.05601
1093.20 0.05554
1093.30 0.05508
1093.40 0.05489
1093.50 0.05504
1093.60 0.05491
1093.70 0.0553
1093.80 0.05573
1093.90 0.05614
1094.00 0.0565
1094.10 0.05687
1094.20 0.05723
1094.30 0.05757
1094.40 0.05784
1094.50 0.05812
1094.60 0.05839
1094.70 0.05867
1094.80 0.05895
1094.90 0.05922
1095.00 0.05948
1095.10 0.05969
1095.20 0.0599
1095.30 0.06012
1095.40 0.06033
1095.50 0.06054
1095.60 0.06075
1095.70 0.06097
1095.80 0.06118
1095.90 0.06139
1096.00 0.0616
1096.10 0.06182
1096.20 0.06203
1096.30 0.06224
1096.40 0.06245
1096.50 0.06266
1096.60 0.06284
1096.70 0.06302
1096.80 0.06321
1096.90 0.06339
1097.00 0.06357
1097.10 0.06373
1097.20 0.06389
1097.30 0.06405
1097.40 0.06421
1097.50 0.06437
1097.60 0.06453
1097.70 0.06469
1097.80 0.06485
1097.90 0.06501
1098.00 0.06517
1098.10 0.06533
1098.20 0.06549
1098.30 0.06565
1098.40 0.06581
1098.50 0.06596
1098.60 0.06609
1098.70 0.06621
1098.80 0.06634
1098.90 0.06646
1099.00 0.06659
1099.10 0.06671
1099.20 0.06683
1099.30 0.06696
1099.40 0.06708
1099.50 0.06721
1099.60 0.06733
1099.70 0.06746
1099.80 0.06758
1099.90 0.06771
1100.00 0.06783
1100.10 0.06795
1100.20 0.06808
1100.30 0.0682
1100.40 0.06833
1100.50 0.06844
1100.60 0.06853
1100.70 0.06863
1100.80 0.06872
1100.90 0.06882
1101.00 0.06891
1101.10 0.069
1101.20 0.0691
1101.30 0.06919
1101.40 0.06928
1101.50 0.06938
1101.60 0.06947
1101.70 0.06956
1101.80 0.06966
1101.90 0.06975
1102.00 0.06984
1102.10 0.06992
1102.20 0.07
1102.30 0.07007
1102.40 0.07015
1102.50 0.07022
1102.60 0.07029
1102.70 0.07036
1102.80 0.07043
1102.90 0.07049
1103.00 0.07056
1103.10 0.07063
1103.20 0.0707
1103.30 0.07077
1103.40 0.07084
1103.50 0.0709
1103.60 0.07095
1103.70 0.071
1103.80 0.07105
1103.90 0.0711
1104.00 0.07115
1104.10 0.0712
1104.20 0.07125
1104.30 0.0713
1104.40 0.07135
1104.50 0.0714
1104.60 0.07145
1104.70 0.0715
1104.80 0.07155
1104.90 0.07161
1105.00 0.07166
1105.10 0.07171
1105.20 0.07176
1105.30 0.07181
1105.40 0.07186
1105.50 0.0719
1105.60 0.07194
1105.70 0.07197
1105.80 0.07201
1105.90 0.07204
1106.00 0.07207
1106.10 0.07211
1106.20 0.07214
1106.30 0.07218
1106.40 0.07221
1106.50 0.07225
1106.60 0.07228
1106.70 0.07232
1106.80 0.07235
1106.90 0.07238
1107.00 0.07242
1107.10 0.07244
1107.20 0.07247
1107.30 0.07249
1107.40 0.07252
1107.50 0.07254
1107.60 0.07256
1107.70 0.07258
1107.80 0.0726
1107.90 0.07262
1108.00 0.07263
1108.10 0.07265
1108.20 0.07267
1108.30 0.07269
1108.40 0.07271
1108.50 0.07273
1108.60 0.07275
1108.70 0.07277
1108.80 0.07278
1108.90 0.0728
1109.00 0.07282
1109.10 0.07284
1109.20 0.07286
1109.30 0.07288
1109.40 0.0729
1109.50 0.07291
1109.60 0.07292
1109.70 0.07292
1109.80 0.07293
1109.90 0.07293
1110.00 0.07294
1110.10 0.07295
1110.20 0.07295
1110.30 0.07296
1110.40 0.07296
1110.50 0.07297
1110.60 0.07297
1110.70 0.07298
1110.80 0.07299
1110.90 0.07299
1111.00 0.073
1111.10 0.073
1111.20 0.07301
1111.30 0.07301
1111.40 0.07302
1111.50 0.07303
1111.60 0.07303
1111.70 0.07304
1111.80 0.07304
1111.90 0.07305
1112.00 0.07305
1112.10 0.07305
1112.20 0.07306
1112.30 0.07306
1112.40 0.07306
1112.50 0.07306
1112.60 0.07306
1112.70 0.07306
1112.80 0.07306
1112.90 0.07306
1113.00 0.07306
1113.10 0.07306
1113.20 0.07306
1113.30 0.07306
1113.40 0.07306
1113.50 0.07306
1113.60 0.07305
1113.70 0.07304
1113.80 0.07304
1113.90 0.07303
1114.00 0.07302
1114.10 0.07301
1114.20 0.07301
1114.30 0.073
1114.40 0.07299
1114.50 0.07299
1114.60 0.07298
1114.70 0.07297
1114.80 0.07296
1114.90 0.07296
1115.00 0.07295
1115.10 0.07294
1115.20 0.07294
1115.30 0.07293
1115.40 0.07292
1115.50 0.07291
1115.60 0.07291
1115.70 0.0729
1115.80 0.07289
1115.90 0.07289
1116.00 0.07288
1116.10 0.07287
1116.20 0.07287
1116.30 0.07286
1116.40 0.07285
1116.50 0.07284
1116.60 0.07284
1116.70 0.07283
1116.80 0.07282
1116.90 0.07282
1117.00 0.07281
1117.10 0.07279
1117.20 0.07278
1117.30 0.07276
1117.40 0.07275
1117.50 0.07274
1117.60 0.07272
1117.70 0.07271
1117.80 0.07269
1117.90 0.07268
1118.00 0.07266
1118.10 0.07265
1118.20 0.07263
1118.30 0.07262
1118.40 0.07261
1118.50 0.07259
1118.60 0.07258
1118.70 0.07256
1118.80 0.07255
1118.90 0.07253
1119.00 0.07252
1119.10 0.0725
1119.20 0.07249
1119.30 0.07247
1119.40 0.07246
1119.50 0.07245
1119.60 0.07243
1119.70 0.07242
1119.80 0.0724
1119.90 0.07239
1120.00 0.07237
1120.10 0.07236
1120.20 0.07234
1120.30 0.07233
1120.40 0.07232
1120.50 0.0723
1120.60 0.07229
1120.70 0.07227
1120.80 0.07226
1120.90 0.07224
1121.00 0.07223
1121.10 0.07221
1121.20 0.0722
1121.30 0.07219
1121.40 0.07217
1121.50 0.07216
1121.60 0.07214
1121.70 0.07213
1121.80 0.07211
1121.90 0.0721
1122.00 0.07209
1122.10 0.07207
1122.20 0.07205
1122.30 0.07203
1122.40 0.07201
1122.50 0.072
1122.60 0.07198
1122.70 0.07196
1122.80 0.07194
1122.90 0.07192
1123.00 0.0719
1123.10 0.07189
1123.20 0.07187
1123.30 0.07185
1123.40 0.07183
1123.50 0.07181
1123.60 0.0718
1123.70 0.07178
1123.80 0.07176
1123.90 0.07174
1124.00 0.07172
1124.10 0.07171
1124.20 0.07169
1124.30 0.07167
1124.40 0.07165
1124.50 0.07163
1124.60 0.07162
1124.70 0.0716
1124.80 0.07158
1124.90 0.07156
1125.00 0.07155
1125.10 0.07153
1125.20 0.07151
1125.30 0.07149
1125.40 0.07147
1125.50 0.07146
1125.60 0.07144
1125.70 0.07142
1125.80 0.0714
1125.90 0.07138
1126.00 0.07137
1126.10 0.07135
1126.20 0.07133
1126.30 0.07131
1126.40 0.07129
1126.50 0.07128
1126.60 0.07126
1126.70 0.07124
1126.80 0.07122
1126.90 0.07121
1127.00 0.07119
1127.10 0.07117
1127.20 0.07115
1127.30 0.07113
1127.40 0.07111
1127.50 0.07109
1127.60 0.07107
1127.70 0.07105
1127.80 0.07103
1127.90 0.07101
1128.00 0.07099
1128.10 0.07097
1128.20 0.07095
1128.30 0.07093
1128.40 0.07091
1128.50 0.07089
1128.60 0.07087
1128.70 0.07085
1128.80 0.07083
1128.90 0.07081
1129.00 0.07079
1129.10 0.07077
1129.20 0.07075
1129.30 0.07073
1129.40 0.07071
1129.50 0.07069
1129.60 0.07067
1129.70 0.07065
1129.80 0.07063
1129.90 0.07061
1130.00 0.07059
1130.10 0.07057
1130.20 0.07055
1130.30 0.07053
1130.40 0.07051
1130.50 0.07049
1130.60 0.07047
1130.70 0.07045
1130.80 0.07043
1130.90 0.07041
1131.00 0.07039
1131.10 0.07037
1131.20 0.07035
1131.30 0.07033
1131.40 0.07031
1131.50 0.07029
1131.60 0.07027
1131.70 0.07025
1131.80 0.07023
1131.90 0.07021
1132.00 0.07019
1132.10 0.07017
1132.20 0.07015
1132.30 0.07013
1132.40 0.07011
1132.50 0.07009
1132.60 0.07007
1132.70 0.07005
1132.80 0.07003
1132.90 0.07001
1133.00 0.06999
1133.10 0.06997
1133.20 0.06995
1133.30 0.06992
1133.40 0.0699
1133.50 0.06988
1133.60 0.06986
1133.70 0.06984
1133.80 0.06982
1133.90 0.0698
1134.00 0.06978
1134.10 0.06976
1134.20 0.06974
1134.30 0.06972
1134.40 0.0697
1134.50 0.06968
1134.60 0.06966
1134.70 0.06964
1134.80 0.06962
1134.90 0.06959
1135.00 0.06957
1135.10 0.06955
1135.20 0.06953
1135.30 0.06951
1135.40 0.06949
1135.50 0.06947
1135.60 0.06945
1135.70 0.06943
1135.80 0.06941
1135.90 0.06939
1136.00 0.06937
1136.10 0.06935
1136.20 0.06933
1136.30 0.06931
1136.40 0.06929
1136.50 0.06927
1136.60 0.06925
1136.70 0.06923
1136.80 0.0692
1136.90 0.06918
1137.00 0.06916
1137.10 0.06914
1137.20 0.06912
1137.30 0.0691
1137.40 0.06908
1137.50 0.06906
1137.60 0.06904
1137.70 0.06902
1137.80 0.069
1137.90 0.06897
1138.00 0.06895
1138.10 0.06893
1138.20 0.06891
1138.30 0.06889
1138.40 0.06887
1138.50 0.06885
1138.60 0.06883
1138.70 0.06881
1138.80 0.06879
1138.90 0.06876
1139.00 0.06874
1139.10 0.06872
1139.20 0.0687
1139.30 0.06868
1139.40 0.06866
1139.50 0.06864
1139.60 0.06862
1139.70 0.0686
1139.80 0.06858
1139.90 0.06856
1140.00 0.06853
1140.10 0.06851
1140.20 0.06849
1140.30 0.06847
1140.40 0.06845
1140.50 0.06843
1140.60 0.06841
1140.70 0.06839
1140.80 0.06837
1140.90 0.06835
1141.00 0.06833
1141.10 0.06831
1141.20 0.06829
1141.30 0.06826
1141.40 0.06824
1141.50 0.06822
1141.60 0.0682
1141.70 0.06818
1141.80 0.06816
1141.90 0.06814
1142.00 0.06812
1142.10 0.0681
1142.20 0.06808
1142.30 0.06806
1142.40 0.06804
1142.50 0.06801
1142.60 0.06799
1142.70 0.06797
1142.80 0.06795
1142.90 0.06793
1143.00 0.06791
1143.10 0.06789
1143.20 0.06787
1143.30 0.06785
1143.40 0.06783
1143.50 0.0678
1143.60 0.06778
1143.70 0.06776
1143.80 0.06774
1143.90 0.06772
1144.00 0.0677
1144.10 0.06768
1144.20 0.06766
1144.30 0.06764
1144.40 0.06762
1144.50 0.0676
1144.60 0.06758
1144.70 0.06755
1144.80 0.06753
1144.90 0.06751
1145.00 0.06749
1145.10 0.06747
1145.20 0.06745
1145.30 0.06743
1145.40 0.06741
1145.50 0.06739
1145.60 0.06737
1145.70 0.06735
1145.80 0.06733
1145.90 0.06731
1146.00 0.06728
1146.10 0.06726
1146.20 0.06724
1146.30 0.06722
1146.40 0.0672
1146.50 0.06718
1146.60 0.06716
1146.70 0.06714
1146.80 0.06712
1146.90 0.0671
1147.00 0.06708
1147.10 0.06706
1147.20 0.06704
1147.30 0.06702
1147.40 0.06699
1147.50 0.06697
1147.60 0.06695
1147.70 0.06693
1147.80 0.06691
1147.90 0.06689
1148.00 0.06687
1148.10 0.06685
1148.20 0.06683
1148.30 0.06681
1148.40 0.06679
1148.50 0.06677
1148.60 0.06675
1148.70 0.06672
1148.80 0.0667
1148.90 0.06668
1149.00 0.06666
1149.10 0.06664
1149.20 0.06662
1149.30 0.0666
1149.40 0.06658
1149.50 0.06656
1149.60 0.06654
1149.70 0.06652
1149.80 0.0665
1149.90 0.06648
1150.00 0.06646
1150.10 0.06644
1150.20 0.06641
1150.30 0.06639
1150.40 0.06637
1150.50 0.06635
1150.60 0.06633
1150.70 0.06631
1150.80 0.06629
1150.90 0.06627
1151.00 0.06625
1151.10 0.06623
1151.20 0.06621
1151.30 0.06619
1151.40 0.06617
1151.50 0.06615
1151.60 0.06613
1151.70 0.06611
1151.80 0.06609
1151.90 0.06607
1152.00 0.06604
1152.10 0.06602
1152.20 0.066
1152.30 0.06598
1152.40 0.06596
1152.50 0.06594
1152.60 0.06592
1152.70 0.0659
1152.80 0.06588
1152.90 0.06586
1153.00 0.06584
1153.10 0.06582
1153.20 0.0658
1153.30 0.06578
1153.40 0.06576
1153.50 0.06574
1153.60 0.06572
1153.70 0.0657
1153.80 0.06568
1153.90 0.06565
1154.00 0.06563
1154.10 0.06561
1154.20 0.06559
1154.30 0.06557
1154.40 0.06555
1154.50 0.06553
1154.60 0.06551
1154.70 0.06549
1154.80 0.06547
1154.90 0.06545
1155.00 0.06543
1155.10 0.06541
1155.20 0.06539
1155.30 0.06537
1155.40 0.06535
1155.50 0.06533
1155.60 0.06531
1155.70 0.06529
1155.80 0.06527
1155.90 0.06525
1156.00 0.06523
1156.10 0.06521
1156.20 0.06519
1156.30 0.06516
1156.40 0.06514
1156.50 0.06512
1156.60 0.0651
1156.70 0.06508
1156.80 0.06506
1156.90 0.06504
1157.00 0.06502
1157.10 0.065
1157.20 0.06498
1157.30 0.06496
1157.40 0.06494
1157.50 0.06492
1157.60 0.0649
1157.70 0.06488
1157.80 0.06486
1157.90 0.06484
1158.00 0.06482
1158.10 0.0648
1158.20 0.06478
1158.30 0.06476
1158.40 0.06474
1158.50 0.06472
1158.60 0.0647
1158.70 0.06468
1158.80 0.06466
1158.90 0.06464
1159.00 0.06462
1159.10 0.0646
1159.20 0.06458
1159.30 0.06456
1159.40 0.06454
1159.50 0.06452
1159.60 0.0645
1159.70 0.06448
1159.80 0.06446
1159.90 0.06444
1160.00 0.06442
1160.10 0.0644
1160.20 0.06438
1160.30 0.06436
1160.40 0.06434
1160.50 0.06432
1160.60 0.0643
1160.70 0.06428
1160.80 0.06426
1160.90 0.06424
1161.00 0.06422
1161.10 0.0642
1161.20 0.06418
1161.30 0.06416
1161.40 0.06414
1161.50 0.06412
1161.60 0.0641
1161.70 0.06408
1161.80 0.06406
1161.90 0.06404
1162.00 0.06402
1162.10 0.064
1162.20 0.06398
1162.30 0.06396
1162.40 0.06394
1162.50 0.06392
1162.60 0.0639
1162.70 0.06388
1162.80 0.06386
1162.90 0.06384
1163.00 0.06382
1163.10 0.0638
1163.20 0.06378
1163.30 0.06376
1163.40 0.06374
1163.50 0.06372
1163.60 0.0637
1163.70 0.06368
1163.80 0.06366
1163.90 0.06364
1164.00 0.06362
1164.10 0.0636
1164.20 0.06358
1164.30 0.06356
1164.40 0.06354
1164.50 0.06352
1164.60 0.0635
1164.70 0.06348
1164.80 0.06346
1164.90 0.06344
1165.00 0.06342
1165.10 0.0634
1165.20 0.06338
1165.30 0.06336
1165.40 0.06334
1165.50 0.06332
1165.60 0.0633
1165.70 0.06328
1165.80 0.06326
1165.90 0.06324
1166.00 0.06322
1166.10 0.0632
1166.20 0.06318
1166.30 0.06316
1166.40 0.06314
1166.50 0.06312
1166.60 0.0631
1166.70 0.06309
1166.80 0.06307
1166.90 0.06305
1167.00 0.06303
1167.10 0.06301
1167.20 0.06299
1167.30 0.06297
1167.40 0.06295
1167.50 0.06293
1167.60 0.06291
1167.70 0.06289
1167.80 0.06287
1167.90 0.06285
1168.00 0.06283
1168.10 0.06281
1168.20 0.06279
1168.30 0.06277
1168.40 0.06275
1168.50 0.06273
1168.60 0.06271
1168.70 0.06269
1168.80 0.06267
1168.90 0.06265
1169.00 0.06263
1169.10 0.06261
1169.20 0.0626
1169.30 0.06258
1169.40 0.06256
1169.50 0.06254
1169.60 0.06252
1169.70 0.0625
1169.80 0.06248
1169.90 0.06246
1170.00 0.06244
1170.10 0.06242
1170.20 0.0624
1170.30 0.06238
1170.40 0.06236
1170.50 0.06234
1170.60 0.06232
1170.70 0.0623
1170.80 0.06228
1170.90 0.06226
1171.00 0.06224
1171.10 0.06223
1171.20 0.06221
1171.30 0.06219
1171.40 0.06217
1171.50 0.06215
1171.60 0.06213
1171.70 0.06211
1171.80 0.06209
1171.90 0.06207
1172.00 0.06205
1172.10 0.06203
1172.20 0.06201
1172.30 0.06199
1172.40 0.06197
1172.50 0.06195
1172.60 0.06193
1172.70 0.06192
1172.80 0.0619
1172.90 0.06188
1173.00 0.06186
1173.10 0.06184
1173.20 0.06182
1173.30 0.0618
1173.40 0.06178
1173.50 0.06176
1173.60 0.06174
1173.70 0.06172
1173.80 0.0617
1173.90 0.06168
1174.00 0.06167
1174.10 0.06165
1174.20 0.06163
1174.30 0.06161
1174.40 0.06159
1174.50 0.06157
1174.60 0.06155
1174.70 0.06153
1174.80 0.06151
1174.90 0.06149
1175.00 0.06147
1175.10 0.06145
1175.20 0.06143
1175.30 0.06142
1175.40 0.0614
1175.50 0.06138
1175.60 0.06136
1175.70 0.06134
1175.80 0.06132
1175.90 0.0613
1176.00 0.06128
1176.10 0.06126
1176.20 0.06124
1176.30 0.06122
1176.40 0.06121
1176.50 0.06119
1176.60 0.06117
1176.70 0.06115
1176.80 0.06113
1176.90 0.06111
1177.00 0.06109
1177.10 0.06107
1177.20 0.06105
1177.30 0.06103
1177.40 0.06102
1177.50 0.061
1177.60 0.06098
1177.70 0.06096
1177.80 0.06094
1177.90 0.06092
1178.00 0.0609
1178.10 0.06088
1178.20 0.06086
1178.30 0.06084
1178.40 0.06083
1178.50 0.06081
1178.60 0.06079
1178.70 0.06077
1178.80 0.06075
1178.90 0.06073
1179.00 0.06071
1179.10 0.06069
1179.20 0.06067
1179.30 0.06066
1179.40 0.06064
1179.50 0.06062
1179.60 0.0606
1179.70 0.06058
1179.80 0.06056
1179.90 0.06054
1180.00 0.06052
1180.10 0.0605
1180.20 0.06049
1180.30 0.06047
1180.40 0.06045
1180.50 0.06043
1180.60 0.06041
1180.70 0.06039
1180.80 0.06037
1180.90 0.06035
1181.00 0.06034
1181.10 0.06032
1181.20 0.0603
1181.30 0.06028
1181.40 0.06026
1181.50 0.06024
1181.60 0.06022
1181.70 0.0602
1181.80 0.06019
1181.90 0.06017
1182.00 0.06015
1182.10 0.06013
1182.20 0.06011
1182.30 0.06009
1182.40 0.06007
1182.50 0.06005
1182.60 0.06004
1182.70 0.06002
1182.80 0.06
1182.90 0.05998
1183.00 0.05996
1183.10 0.05994
1183.20 0.05992
1183.30 0.05991
1183.40 0.05989
1183.50 0.05987
1183.60 0.05985
1183.70 0.05983
1183.80 0.05981
1183.90 0.05979
1184.00 0.05977
1184.10 0.05976
1184.20 0.05974
1184.30 0.05972
1184.40 0.0597
1184.50 0.05968
1184.60 0.05966
1184.70 0.05964
1184.80 0.05963
1184.90 0.05961
1185.00 0.05959
1185.10 0.05957
1185.20 0.05955
1185.30 0.05953
1185.40 0.05952
1185.50 0.0595
1185.60 0.05948
1185.70 0.05946
1185.80 0.05944
1185.90 0.05942
1186.00 0.0594
1186.10 0.05939
1186.20 0.05937
1186.30 0.05935
1186.40 0.05933
1186.50 0.05931
1186.60 0.05929
1186.70 0.05927
1186.80 0.05926
1186.90 0.05924
1187.00 0.05922
1187.10 0.0592
1187.20 0.05918
1187.30 0.05916
1187.40 0.05915
1187.50 0.05913
1187.60 0.05911
1187.70 0.05909
1187.80 0.05907
1187.90 0.05905
1188.00 0.05904
1188.10 0.05902
1188.20 0.059
1188.30 0.05898
1188.40 0.05896
1188.50 0.05894
1188.60 0.05893
1188.70 0.05891
1188.80 0.05889
1188.90 0.05887
1189.00 0.05885
1189.10 0.05884
1189.20 0.05882
1189.30 0.0588
1189.40 0.05878
1189.50 0.05876
1189.60 0.05874
1189.70 0.05873
1189.80 0.05871
1189.90 0.05869
1190.00 0.05867
1190.10 0.05865
1190.20 0.05864
1190.30 0.05862
1190.40 0.0586
1190.50 0.05858
1190.60 0.05856
1190.70 0.05854
1190.80 0.05853
1190.90 0.05851
1191.00 0.05849
1191.10 0.05847
1191.20 0.05845
1191.30 0.05844
1191.40 0.05842
1191.50 0.0584
1191.60 0.05838
1191.70 0.05836
1191.80 0.05834
1191.90 0.05833
1192.00 0.05831
1192.10 0.05829
1192.20 0.05827
1192.30 0.05825
1192.40 0.05824
1192.50 0.05822
1192.60 0.0582
1192.70 0.05818
1192.80 0.05816
1192.90 0.05815
1193.00 0.05813
1193.10 0.05811
1193.20 0.05809
1193.30 0.05807
1193.40 0.05806
1193.50 0.05804
1193.60 0.05802
1193.70 0.058
1193.80 0.05798
1193.90 0.05797
1194.00 0.05795
1194.10 0.05793
1194.20 0.05791
1194.30 0.05789
1194.40 0.05788
1194.50 0.05786
1194.60 0.05784
1194.70 0.05782
1194.80 0.05781
1194.90 0.05779
1195.00 0.05777
1195.10 0.05775
1195.20 0.05773
1195.30 0.05772
1195.40 0.0577
1195.50 0.05768
1195.60 0.05766
1195.70 0.05764
1195.80 0.05763
1195.90 0.05761
1196.00 0.05759
1196.10 0.05757
1196.20 0.05756
1196.30 0.05754
1196.40 0.05752
1196.50 0.0575
1196.60 0.05748
1196.70 0.05747
1196.80 0.05745
1196.90 0.05743
1197.00 0.05741
1197.10 0.05739
1197.20 0.05738
1197.30 0.05736
1197.40 0.05734
1197.50 0.05732
1197.60 0.05731
1197.70 0.05729
1197.80 0.05727
1197.90 0.05725
1198.00 0.05724
1198.10 0.05722
1198.20 0.0572
1198.30 0.05718
1198.40 0.05716
1198.50 0.05715
1198.60 0.05713
1198.70 0.05711
1198.80 0.05709
1198.90 0.05708
1199.00 0.05706
1199.10 0.05704
1199.20 0.05702
1199.30 0.05701
1199.40 0.05699
1199.50 0.05697
1199.60 0.05695
1199.70 0.05694
1199.80 0.05692
1199.90 0.0569
1200.00 0
