# Version 2.1 - nm, norm@500 to 1, cut digits, bergeron_100000_65.dat_100000
# Wavelength(nm)  Flambda(ergs/cm^s/s/nm)
300.00 6.824
300.10 6.816
300.20 6.807
300.30 6.799
300.40 6.79
300.50 6.782
300.60 6.773
300.70 6.765
300.80 6.756
300.90 6.748
301.00 6.739
301.10 6.731
301.20 6.722
301.30 6.714
301.40 6.706
301.50 6.697
301.60 6.689
301.70 6.68
301.80 6.672
301.90 6.664
302.00 6.656
302.10 6.647
302.20 6.639
302.30 6.631
302.40 6.622
302.50 6.614
302.60 6.606
302.70 6.598
302.80 6.59
302.90 6.581
303.00 6.573
303.10 6.565
303.20 6.557
303.30 6.549
303.40 6.541
303.50 6.532
303.60 6.524
303.70 6.516
303.80 6.508
303.90 6.5
304.00 6.492
304.10 6.484
304.20 6.476
304.30 6.468
304.40 6.46
304.50 6.452
304.60 6.444
304.70 6.436
304.80 6.428
304.90 6.42
305.00 6.412
305.10 6.404
305.20 6.396
305.30 6.388
305.40 6.381
305.50 6.373
305.60 6.365
305.70 6.357
305.80 6.349
305.90 6.341
306.00 6.334
306.10 6.326
306.20 6.318
306.30 6.31
306.40 6.302
306.50 6.295
306.60 6.287
306.70 6.279
306.80 6.272
306.90 6.264
307.00 6.256
307.10 6.248
307.20 6.241
307.30 6.233
307.40 6.226
307.50 6.218
307.60 6.21
307.70 6.203
307.80 6.195
307.90 6.187
308.00 6.18
308.10 6.172
308.20 6.165
308.30 6.157
308.40 6.15
308.50 6.142
308.60 6.135
308.70 6.127
308.80 6.12
308.90 6.112
309.00 6.105
309.10 6.097
309.20 6.09
309.30 6.083
309.40 6.075
309.50 6.068
309.60 6.06
309.70 6.053
309.80 6.046
309.90 6.038
310.00 6.031
310.10 6.024
310.20 6.016
310.30 6.009
310.40 6.002
310.50 5.994
310.60 5.987
310.70 5.98
310.80 5.973
310.90 5.965
311.00 5.958
311.10 5.951
311.20 5.944
311.30 5.936
311.40 5.929
311.50 5.922
311.60 5.915
311.70 5.908
311.80 5.901
311.90 5.894
312.00 5.886
312.10 5.879
312.20 5.872
312.30 5.865
312.40 5.858
312.50 5.851
312.60 5.844
312.70 5.837
312.80 5.83
312.90 5.823
313.00 5.816
313.10 5.809
313.20 5.802
313.30 5.795
313.40 5.788
313.50 5.781
313.60 5.774
313.70 5.767
313.80 5.76
313.90 5.753
314.00 5.746
314.10 5.739
314.20 5.732
314.30 5.725
314.40 5.719
314.50 5.712
314.60 5.705
314.70 5.698
314.80 5.691
314.90 5.684
315.00 5.678
315.10 5.671
315.20 5.664
315.30 5.657
315.40 5.65
315.50 5.644
315.60 5.637
315.70 5.63
315.80 5.623
315.90 5.617
316.00 5.61
316.10 5.603
316.20 5.597
316.30 5.59
316.40 5.583
316.50 5.577
316.60 5.57
316.70 5.563
316.80 5.557
316.90 5.55
317.00 5.543
317.10 5.537
317.20 5.53
317.30 5.524
317.40 5.517
317.50 5.511
317.60 5.504
317.70 5.498
317.80 5.491
317.90 5.484
318.00 5.478
318.10 5.471
318.20 5.465
318.30 5.458
318.40 5.452
318.50 5.446
318.60 5.439
318.70 5.433
318.80 5.426
318.90 5.42
319.00 5.413
319.10 5.407
319.20 5.401
319.30 5.394
319.40 5.388
319.50 5.381
319.60 5.375
319.70 5.369
319.80 5.362
319.90 5.356
320.00 5.35
320.10 5.343
320.20 5.337
320.30 5.331
320.40 5.325
320.50 5.318
320.60 5.312
320.70 5.306
320.80 5.3
320.90 5.293
321.00 5.287
321.10 5.281
321.20 5.275
321.30 5.268
321.40 5.262
321.50 5.256
321.60 5.25
321.70 5.244
321.80 5.238
321.90 5.231
322.00 5.225
322.10 5.219
322.20 5.213
322.30 5.207
322.40 5.201
322.50 5.195
322.60 5.189
322.70 5.183
322.80 5.177
322.90 5.17
323.00 5.164
323.10 5.158
323.20 5.152
323.30 5.146
323.40 5.14
323.50 5.134
323.60 5.128
323.70 5.122
323.80 5.116
323.90 5.11
324.00 5.104
324.10 5.098
324.20 5.093
324.30 5.087
324.40 5.081
324.50 5.075
324.60 5.069
324.70 5.063
324.80 5.057
324.90 5.051
325.00 5.045
325.10 5.039
325.20 5.034
325.30 5.028
325.40 5.022
325.50 5.016
325.60 5.01
325.70 5.004
325.80 4.999
325.90 4.993
326.00 4.987
326.10 4.981
326.20 4.975
326.30 4.97
326.40 4.964
326.50 4.958
326.60 4.953
326.70 4.947
326.80 4.941
326.90 4.935
327.00 4.93
327.10 4.924
327.20 4.918
327.30 4.913
327.40 4.907
327.50 4.901
327.60 4.896
327.70 4.89
327.80 4.884
327.90 4.879
328.00 4.873
328.10 4.867
328.20 4.862
328.30 4.856
328.40 4.851
328.50 4.845
328.60 4.839
328.70 4.834
328.80 4.828
328.90 4.823
329.00 4.817
329.10 4.812
329.20 4.806
329.30 4.801
329.40 4.795
329.50 4.79
329.60 4.784
329.70 4.779
329.80 4.773
329.90 4.768
330.00 4.762
330.10 4.757
330.20 4.751
330.30 4.746
330.40 4.741
330.50 4.735
330.60 4.73
330.70 4.724
330.80 4.719
330.90 4.714
331.00 4.708
331.10 4.703
331.20 4.697
331.30 4.692
331.40 4.687
331.50 4.681
331.60 4.676
331.70 4.671
331.80 4.665
331.90 4.66
332.00 4.655
332.10 4.649
332.20 4.644
332.30 4.639
332.40 4.634
332.50 4.628
332.60 4.623
332.70 4.618
332.80 4.612
332.90 4.607
333.00 4.602
333.10 4.597
333.20 4.592
333.30 4.586
333.40 4.581
333.50 4.576
333.60 4.571
333.70 4.566
333.80 4.56
333.90 4.555
334.00 4.55
334.10 4.545
334.20 4.54
334.30 4.535
334.40 4.529
334.50 4.524
334.60 4.519
334.70 4.514
334.80 4.509
334.90 4.504
335.00 4.499
335.10 4.494
335.20 4.489
335.30 4.484
335.40 4.479
335.50 4.474
335.60 4.468
335.70 4.463
335.80 4.458
335.90 4.453
336.00 4.448
336.10 4.443
336.20 4.438
336.30 4.433
336.40 4.428
336.50 4.423
336.60 4.418
336.70 4.413
336.80 4.409
336.90 4.404
337.00 4.399
337.10 4.394
337.20 4.389
337.30 4.384
337.40 4.379
337.50 4.374
337.60 4.369
337.70 4.364
337.80 4.359
337.90 4.354
338.00 4.349
338.10 4.345
338.20 4.34
338.30 4.335
338.40 4.33
338.50 4.325
338.60 4.32
338.70 4.316
338.80 4.311
338.90 4.306
339.00 4.301
339.10 4.296
339.20 4.292
339.30 4.287
339.40 4.282
339.50 4.277
339.60 4.272
339.70 4.268
339.80 4.263
339.90 4.258
340.00 4.253
340.10 4.249
340.20 4.244
340.30 4.239
340.40 4.234
340.50 4.23
340.60 4.225
340.70 4.22
340.80 4.216
340.90 4.211
341.00 4.206
341.10 4.202
341.20 4.197
341.30 4.192
341.40 4.188
341.50 4.183
341.60 4.178
341.70 4.174
341.80 4.169
341.90 4.164
342.00 4.16
342.10 4.155
342.20 4.151
342.30 4.146
342.40 4.142
342.50 4.137
342.60 4.132
342.70 4.128
342.80 4.123
342.90 4.119
343.00 4.114
343.10 4.11
343.20 4.105
343.30 4.101
343.40 4.096
343.50 4.091
343.60 4.087
343.70 4.082
343.80 4.078
343.90 4.073
344.00 4.069
344.10 4.064
344.20 4.06
344.30 4.056
344.40 4.051
344.50 4.047
344.60 4.042
344.70 4.038
344.80 4.033
344.90 4.029
345.00 4.024
345.10 4.02
345.20 4.016
345.30 4.011
345.40 4.007
345.50 4.002
345.60 3.998
345.70 3.994
345.80 3.989
345.90 3.985
346.00 3.98
346.10 3.976
346.20 3.972
346.30 3.967
346.40 3.963
346.50 3.959
346.60 3.954
346.70 3.95
346.80 3.946
346.90 3.942
347.00 3.937
347.10 3.933
347.20 3.929
347.30 3.924
347.40 3.92
347.50 3.916
347.60 3.911
347.70 3.907
347.80 3.903
347.90 3.899
348.00 3.894
348.10 3.89
348.20 3.886
348.30 3.882
348.40 3.878
348.50 3.873
348.60 3.869
348.70 3.865
348.80 3.861
348.90 3.857
349.00 3.852
349.10 3.848
349.20 3.844
349.30 3.84
349.40 3.836
349.50 3.831
349.60 3.827
349.70 3.823
349.80 3.819
349.90 3.815
350.00 3.811
350.10 3.807
350.20 3.802
350.30 3.798
350.40 3.794
350.50 3.79
350.60 3.786
350.70 3.782
350.80 3.778
350.90 3.774
351.00 3.77
351.10 3.766
351.20 3.762
351.30 3.758
351.40 3.753
351.50 3.749
351.60 3.745
351.70 3.741
351.80 3.737
351.90 3.733
352.00 3.729
352.10 3.725
352.20 3.721
352.30 3.717
352.40 3.713
352.50 3.709
352.60 3.705
352.70 3.701
352.80 3.697
352.90 3.693
353.00 3.689
353.10 3.685
353.20 3.681
353.30 3.677
353.40 3.673
353.50 3.67
353.60 3.666
353.70 3.662
353.80 3.658
353.90 3.654
354.00 3.65
354.10 3.646
354.20 3.642
354.30 3.638
354.40 3.634
354.50 3.63
354.60 3.627
354.70 3.623
354.80 3.619
354.90 3.615
355.00 3.611
355.10 3.607
355.20 3.603
355.30 3.599
355.40 3.596
355.50 3.592
355.60 3.588
355.70 3.584
355.80 3.58
355.90 3.576
356.00 3.573
356.10 3.569
356.20 3.565
356.30 3.561
356.40 3.557
356.50 3.554
356.60 3.55
356.70 3.546
356.80 3.542
356.90 3.539
357.00 3.535
357.10 3.531
357.20 3.527
357.30 3.524
357.40 3.52
357.50 3.516
357.60 3.512
357.70 3.509
357.80 3.505
357.90 3.501
358.00 3.497
358.10 3.494
358.20 3.49
358.30 3.486
358.40 3.483
358.50 3.479
358.60 3.475
358.70 3.472
358.80 3.468
358.90 3.464
359.00 3.461
359.10 3.457
359.20 3.453
359.30 3.45
359.40 3.446
359.50 3.442
359.60 3.439
359.70 3.435
359.80 3.431
359.90 3.428
360.00 3.424
360.10 3.421
360.20 3.417
360.30 3.413
360.40 3.41
360.50 3.406
360.60 3.403
360.70 3.399
360.80 3.396
360.90 3.392
361.00 3.388
361.10 3.385
361.20 3.381
361.30 3.378
361.40 3.374
361.50 3.371
361.60 3.367
361.70 3.364
361.80 3.36
361.90 3.356
362.00 3.353
362.10 3.349
362.20 3.346
362.30 3.342
362.40 3.339
362.50 3.335
362.60 3.332
362.70 3.328
362.80 3.325
362.90 3.321
363.00 3.318
363.10 3.314
363.20 3.311
363.30 3.308
363.40 3.304
363.50 3.301
363.60 3.297
363.70 3.294
363.80 3.29
363.90 3.287
364.00 3.283
364.10 3.28
364.20 3.277
364.30 3.273
364.40 3.27
364.50 3.266
364.60 3.263
364.70 3.26
364.80 3.256
364.90 3.253
365.00 3.249
365.10 3.246
365.20 3.243
365.30 3.239
365.40 3.236
365.50 3.233
365.60 3.229
365.70 3.226
365.80 3.222
365.90 3.219
366.00 3.216
366.10 3.212
366.20 3.209
366.30 3.206
366.40 3.202
366.50 3.199
366.60 3.195
366.70 3.192
366.80 3.189
366.90 3.185
367.00 3.182
367.10 3.179
367.20 3.175
367.30 3.172
367.40 3.169
367.50 3.165
367.60 3.162
367.70 3.159
367.80 3.155
367.90 3.152
368.00 3.149
368.10 3.145
368.20 3.142
368.30 3.139
368.40 3.135
368.50 3.132
368.60 3.129
368.70 3.126
368.80 3.122
368.90 3.119
369.00 3.116
369.10 3.112
369.20 3.109
369.30 3.106
369.40 3.103
369.50 3.099
369.60 3.096
369.70 3.093
369.80 3.09
369.90 3.086
370.00 3.083
370.10 3.08
370.20 3.077
370.30 3.074
370.40 3.07
370.50 3.067
370.60 3.064
370.70 3.061
370.80 3.058
370.90 3.054
371.00 3.051
371.10 3.048
371.20 3.045
371.30 3.042
371.40 3.039
371.50 3.035
371.60 3.032
371.70 3.029
371.80 3.026
371.90 3.023
372.00 3.02
372.10 3.017
372.20 3.014
372.30 3.011
372.40 3.007
372.50 3.004
372.60 3.001
372.70 2.998
372.80 2.995
372.90 2.992
373.00 2.989
373.10 2.986
373.20 2.983
373.30 2.98
373.40 2.977
373.50 2.974
373.60 2.971
373.70 2.968
373.80 2.965
373.90 2.962
374.00 2.959
374.10 2.956
374.20 2.953
374.30 2.95
374.40 2.947
374.50 2.945
374.60 2.942
374.70 2.939
374.80 2.936
374.90 2.933
375.00 2.93
375.10 2.927
375.20 2.924
375.30 2.922
375.40 2.919
375.50 2.916
375.60 2.913
375.70 2.91
375.80 2.907
375.90 2.904
376.00 2.902
376.10 2.898
376.20 2.895
376.30 2.892
376.40 2.889
376.50 2.886
376.60 2.883
376.70 2.88
376.80 2.876
376.90 2.873
377.00 2.87
377.10 2.868
377.20 2.866
377.30 2.863
377.40 2.861
377.50 2.859
377.60 2.856
377.70 2.854
377.80 2.852
377.90 2.849
378.00 2.847
378.10 2.844
378.20 2.841
378.30 2.838
378.40 2.835
378.50 2.832
378.60 2.829
378.70 2.826
378.80 2.822
378.90 2.819
379.00 2.816
379.10 2.813
379.20 2.81
379.30 2.806
379.40 2.803
379.50 2.8
379.60 2.797
379.70 2.793
379.80 2.79
379.90 2.787
380.00 2.783
380.10 2.782
380.20 2.781
380.30 2.779
380.40 2.778
380.50 2.776
380.60 2.775
380.70 2.774
380.80 2.772
380.90 2.771
381.00 2.769
381.10 2.767
381.20 2.765
381.30 2.762
381.40 2.76
381.50 2.757
381.60 2.754
381.70 2.751
381.80 2.748
381.90 2.745
382.00 2.741
382.10 2.737
382.20 2.733
382.30 2.728
382.40 2.723
382.50 2.718
382.60 2.713
382.70 2.708
382.80 2.702
382.90 2.697
383.00 2.692
383.10 2.687
383.20 2.682
383.30 2.676
383.40 2.67
383.50 2.665
383.60 2.663
383.70 2.664
383.80 2.665
383.90 2.666
384.00 2.668
384.10 2.669
384.20 2.67
384.30 2.67
384.40 2.671
384.50 2.671
384.60 2.671
384.70 2.671
384.80 2.671
384.90 2.67
385.00 2.669
385.10 2.668
385.20 2.667
385.30 2.666
385.40 2.665
385.50 2.663
385.60 2.661
385.70 2.659
385.80 2.657
385.90 2.655
386.00 2.652
386.10 2.65
386.20 2.647
386.30 2.644
386.40 2.641
386.50 2.638
386.60 2.634
386.70 2.63
386.80 2.627
386.90 2.622
387.00 2.618
387.10 2.614
387.20 2.609
387.30 2.604
387.40 2.598
387.50 2.593
387.60 2.587
387.70 2.58
387.80 2.574
387.90 2.566
388.00 2.559
388.10 2.551
388.20 2.543
388.30 2.534
388.40 2.524
388.50 2.515
388.60 2.505
388.70 2.495
388.80 2.487
388.90 2.482
389.00 2.482
389.10 2.485
389.20 2.49
389.30 2.496
389.40 2.501
389.50 2.506
389.60 2.51
389.70 2.514
389.80 2.517
389.90 2.52
390.00 2.522
390.10 2.524
390.20 2.526
390.30 2.527
390.40 2.529
390.50 2.529
390.60 2.53
390.70 2.53
390.80 2.53
390.90 2.53
391.00 2.53
391.10 2.53
391.20 2.529
391.30 2.528
391.40 2.527
391.50 2.526
391.60 2.525
391.70 2.524
391.80 2.522
391.90 2.521
392.00 2.519
392.10 2.517
392.20 2.515
392.30 2.513
392.40 2.511
392.50 2.509
392.60 2.507
392.70 2.505
392.80 2.503
392.90 2.5
393.00 2.498
393.10 2.495
393.20 2.493
393.30 2.49
393.40 2.487
393.50 2.484
393.60 2.481
393.70 2.478
393.80 2.475
393.90 2.472
394.00 2.469
394.10 2.465
394.20 2.461
394.30 2.458
394.40 2.454
394.50 2.45
394.60 2.445
394.70 2.441
394.80 2.436
394.90 2.431
395.00 2.426
395.10 2.421
395.20 2.415
395.30 2.409
395.40 2.402
395.50 2.395
395.60 2.388
395.70 2.38
395.80 2.372
395.90 2.363
396.00 2.353
396.10 2.343
396.20 2.332
396.30 2.32
396.40 2.307
396.50 2.293
396.60 2.278
396.70 2.262
396.80 2.244
396.90 2.227
397.00 2.209
397.10 2.221
397.20 2.234
397.30 2.248
397.40 2.26
397.50 2.27
397.60 2.28
397.70 2.289
397.80 2.296
397.90 2.303
398.00 2.309
398.10 2.314
398.20 2.319
398.30 2.322
398.40 2.326
398.50 2.329
398.60 2.331
398.70 2.333
398.80 2.335
398.90 2.336
399.00 2.337
399.10 2.338
399.20 2.338
399.30 2.339
399.40 2.339
399.50 2.338
399.60 2.338
399.70 2.338
399.80 2.337
399.90 2.336
400.00 2.335
400.10 2.334
400.20 2.333
400.30 2.332
400.40 2.331
400.50 2.329
400.60 2.328
400.70 2.326
400.80 2.325
400.90 2.323
401.00 2.322
401.10 2.32
401.20 2.318
401.30 2.316
401.40 2.315
401.50 2.313
401.60 2.311
401.70 2.309
401.80 2.307
401.90 2.305
402.00 2.303
402.10 2.301
402.20 2.299
402.30 2.297
402.40 2.295
402.50 2.293
402.60 2.291
402.70 2.289
402.80 2.287
402.90 2.285
403.00 2.283
403.10 2.281
403.20 2.279
403.30 2.277
403.40 2.274
403.50 2.272
403.60 2.27
403.70 2.268
403.80 2.266
403.90 2.264
404.00 2.262
404.10 2.259
404.20 2.257
404.30 2.255
404.40 2.253
404.50 2.25
404.60 2.248
404.70 2.246
404.80 2.244
404.90 2.241
405.00 2.239
405.10 2.237
405.20 2.234
405.30 2.232
405.40 2.23
405.50 2.227
405.60 2.225
405.70 2.222
405.80 2.22
405.90 2.217
406.00 2.215
406.10 2.212
406.20 2.21
406.30 2.207
406.40 2.204
406.50 2.201
406.60 2.199
406.70 2.196
406.80 2.193
406.90 2.19
407.00 2.187
407.10 2.183
407.20 2.18
407.30 2.177
407.40 2.173
407.50 2.169
407.60 2.165
407.70 2.161
407.80 2.157
407.90 2.152
408.00 2.148
408.10 2.143
408.20 2.137
408.30 2.132
408.40 2.126
408.50 2.119
408.60 2.112
408.70 2.104
408.80 2.096
408.90 2.087
409.00 2.078
409.10 2.068
409.20 2.056
409.30 2.044
409.40 2.03
409.50 2.016
409.60 2
409.70 1.981
409.80 1.96
409.90 1.937
410.00 1.908
410.10 1.889
410.20 1.881
410.30 1.896
410.40 1.915
410.50 1.939
410.60 1.956
410.70 1.972
410.80 1.986
410.90 1.997
411.00 2.008
411.10 2.017
411.20 2.024
411.30 2.031
411.40 2.037
411.50 2.042
411.60 2.047
411.70 2.051
411.80 2.054
411.90 2.057
412.00 2.059
412.10 2.061
412.20 2.062
412.30 2.063
412.40 2.064
412.50 2.065
412.60 2.065
412.70 2.065
412.80 2.065
412.90 2.065
413.00 2.065
413.10 2.064
413.20 2.064
413.30 2.063
413.40 2.062
413.50 2.061
413.60 2.06
413.70 2.059
413.80 2.058
413.90 2.057
414.00 2.055
414.10 2.054
414.20 2.053
414.30 2.051
414.40 2.05
414.50 2.048
414.60 2.047
414.70 2.045
414.80 2.044
414.90 2.042
415.00 2.041
415.10 2.039
415.20 2.037
415.30 2.036
415.40 2.034
415.50 2.032
415.60 2.031
415.70 2.029
415.80 2.027
415.90 2.026
416.00 2.024
416.10 2.022
416.20 2.021
416.30 2.019
416.40 2.017
416.50 2.015
416.60 2.014
416.70 2.012
416.80 2.01
416.90 2.008
417.00 2.007
417.10 2.005
417.20 2.003
417.30 2.001
417.40 2
417.50 1.998
417.60 1.996
417.70 1.994
417.80 1.992
417.90 1.991
418.00 1.989
418.10 1.987
418.20 1.985
418.30 1.984
418.40 1.982
418.50 1.98
418.60 1.978
418.70 1.976
418.80 1.975
418.90 1.973
419.00 1.971
419.10 1.969
419.20 1.968
419.30 1.966
419.40 1.964
419.50 1.962
419.60 1.961
419.70 1.959
419.80 1.957
419.90 1.955
420.00 1.953
420.10 1.952
420.20 1.95
420.30 1.948
420.40 1.946
420.50 1.945
420.60 1.943
420.70 1.941
420.80 1.939
420.90 1.938
421.00 1.936
421.10 1.934
421.20 1.932
421.30 1.931
421.40 1.929
421.50 1.927
421.60 1.925
421.70 1.924
421.80 1.922
421.90 1.92
422.00 1.918
422.10 1.917
422.20 1.915
422.30 1.913
422.40 1.911
422.50 1.91
422.60 1.908
422.70 1.906
422.80 1.904
422.90 1.903
423.00 1.901
423.10 1.899
423.20 1.898
423.30 1.896
423.40 1.894
423.50 1.892
423.60 1.891
423.70 1.889
423.80 1.887
423.90 1.886
424.00 1.884
424.10 1.882
424.20 1.88
424.30 1.879
424.40 1.877
424.50 1.875
424.60 1.873
424.70 1.872
424.80 1.87
424.90 1.868
425.00 1.867
425.10 1.865
425.20 1.863
425.30 1.862
425.40 1.86
425.50 1.858
425.60 1.856
425.70 1.855
425.80 1.853
425.90 1.851
426.00 1.85
426.10 1.848
426.20 1.846
426.30 1.844
426.40 1.843
426.50 1.841
426.60 1.839
426.70 1.838
426.80 1.836
426.90 1.834
427.00 1.832
427.10 1.831
427.20 1.829
427.30 1.827
427.40 1.826
427.50 1.824
427.60 1.822
427.70 1.82
427.80 1.819
427.90 1.817
428.00 1.815
428.10 1.813
428.20 1.812
428.30 1.81
428.40 1.808
428.50 1.806
428.60 1.805
428.70 1.803
428.80 1.801
428.90 1.799
429.00 1.797
429.10 1.796
429.20 1.794
429.30 1.792
429.40 1.79
429.50 1.788
429.60 1.786
429.70 1.784
429.80 1.782
429.90 1.78
430.00 1.778
430.10 1.776
430.20 1.774
430.30 1.772
430.40 1.77
430.50 1.768
430.60 1.765
430.70 1.763
430.80 1.761
430.90 1.758
431.00 1.756
431.10 1.753
431.20 1.751
431.30 1.748
431.40 1.745
431.50 1.742
431.60 1.738
431.70 1.735
431.80 1.731
431.90 1.727
432.00 1.723
432.10 1.719
432.20 1.714
432.30 1.709
432.40 1.703
432.50 1.697
432.60 1.691
432.70 1.684
432.80 1.676
432.90 1.667
433.00 1.658
433.10 1.647
433.20 1.635
433.30 1.622
433.40 1.607
433.50 1.591
433.60 1.572
433.70 1.548
433.80 1.519
433.90 1.484
434.00 1.451
434.10 1.451
434.20 1.483
434.30 1.515
434.40 1.541
434.50 1.562
434.60 1.577
434.70 1.591
434.80 1.603
434.90 1.612
435.00 1.621
435.10 1.629
435.20 1.635
435.30 1.64
435.40 1.645
435.50 1.649
435.60 1.653
435.70 1.656
435.80 1.658
435.90 1.66
436.00 1.662
436.10 1.663
436.20 1.664
436.30 1.665
436.40 1.665
436.50 1.666
436.60 1.666
436.70 1.666
436.80 1.666
436.90 1.665
437.00 1.665
437.10 1.665
437.20 1.664
437.30 1.663
437.40 1.663
437.50 1.662
437.60 1.661
437.70 1.66
437.80 1.659
437.90 1.658
438.00 1.657
438.10 1.656
438.20 1.655
438.30 1.654
438.40 1.653
438.50 1.652
438.60 1.65
438.70 1.649
438.80 1.648
438.90 1.647
439.00 1.646
439.10 1.644
439.20 1.643
439.30 1.642
439.40 1.641
439.50 1.639
439.60 1.638
439.70 1.637
439.80 1.635
439.90 1.634
440.00 1.633
440.10 1.632
440.20 1.63
440.30 1.629
440.40 1.628
440.50 1.626
440.60 1.625
440.70 1.624
440.80 1.622
440.90 1.621
441.00 1.62
441.10 1.618
441.20 1.617
441.30 1.615
441.40 1.614
441.50 1.613
441.60 1.611
441.70 1.61
441.80 1.609
441.90 1.607
442.00 1.606
442.10 1.605
442.20 1.603
442.30 1.602
442.40 1.601
442.50 1.599
442.60 1.598
442.70 1.596
442.80 1.595
442.90 1.594
443.00 1.592
443.10 1.591
443.20 1.59
443.30 1.588
443.40 1.587
443.50 1.586
443.60 1.584
443.70 1.583
443.80 1.582
443.90 1.58
444.00 1.579
444.10 1.578
444.20 1.576
444.30 1.575
444.40 1.574
444.50 1.572
444.60 1.571
444.70 1.569
444.80 1.568
444.90 1.567
445.00 1.565
445.10 1.564
445.20 1.563
445.30 1.561
445.40 1.56
445.50 1.559
445.60 1.557
445.70 1.556
445.80 1.555
445.90 1.553
446.00 1.552
446.10 1.551
446.20 1.549
446.30 1.548
446.40 1.547
446.50 1.546
446.60 1.544
446.70 1.543
446.80 1.542
446.90 1.54
447.00 1.539
447.10 1.538
447.20 1.536
447.30 1.535
447.40 1.534
447.50 1.532
447.60 1.531
447.70 1.53
447.80 1.528
447.90 1.527
448.00 1.526
448.10 1.525
448.20 1.523
448.30 1.522
448.40 1.521
448.50 1.519
448.60 1.518
448.70 1.517
448.80 1.515
448.90 1.514
449.00 1.513
449.10 1.512
449.20 1.51
449.30 1.509
449.40 1.508
449.50 1.506
449.60 1.505
449.70 1.504
449.80 1.503
449.90 1.501
450.00 1.5
450.10 1.499
450.20 1.497
450.30 1.496
450.40 1.495
450.50 1.494
450.60 1.492
450.70 1.491
450.80 1.49
450.90 1.489
451.00 1.487
451.10 1.486
451.20 1.485
451.30 1.483
451.40 1.482
451.50 1.481
451.60 1.48
451.70 1.478
451.80 1.477
451.90 1.476
452.00 1.475
452.10 1.473
452.20 1.472
452.30 1.471
452.40 1.47
452.50 1.468
452.60 1.467
452.70 1.466
452.80 1.465
452.90 1.463
453.00 1.462
453.10 1.461
453.20 1.46
453.30 1.459
453.40 1.457
453.50 1.456
453.60 1.455
453.70 1.454
453.80 1.452
453.90 1.451
454.00 1.45
454.10 1.449
454.20 1.447
454.30 1.446
454.40 1.445
454.50 1.444
454.60 1.443
454.70 1.441
454.80 1.44
454.90 1.439
455.00 1.438
455.10 1.437
455.20 1.435
455.30 1.434
455.40 1.433
455.50 1.432
455.60 1.43
455.70 1.429
455.80 1.428
455.90 1.427
456.00 1.426
456.10 1.424
456.20 1.423
456.30 1.422
456.40 1.421
456.50 1.42
456.60 1.418
456.70 1.417
456.80 1.416
456.90 1.415
457.00 1.414
457.10 1.412
457.20 1.411
457.30 1.41
457.40 1.409
457.50 1.408
457.60 1.407
457.70 1.405
457.80 1.404
457.90 1.403
458.00 1.402
458.10 1.401
458.20 1.4
458.30 1.398
458.40 1.397
458.50 1.396
458.60 1.395
458.70 1.394
458.80 1.392
458.90 1.391
459.00 1.39
459.10 1.389
459.20 1.388
459.30 1.387
459.40 1.386
459.50 1.384
459.60 1.383
459.70 1.382
459.80 1.381
459.90 1.38
460.00 1.379
460.10 1.377
460.20 1.376
460.30 1.375
460.40 1.374
460.50 1.373
460.60 1.372
460.70 1.371
460.80 1.369
460.90 1.368
461.00 1.367
461.10 1.366
461.20 1.365
461.30 1.364
461.40 1.363
461.50 1.361
461.60 1.36
461.70 1.359
461.80 1.358
461.90 1.357
462.00 1.356
462.10 1.355
462.20 1.354
462.30 1.352
462.40 1.351
462.50 1.35
462.60 1.349
462.70 1.348
462.80 1.347
462.90 1.346
463.00 1.345
463.10 1.343
463.20 1.342
463.30 1.341
463.40 1.34
463.50 1.339
463.60 1.338
463.70 1.337
463.80 1.336
463.90 1.335
464.00 1.333
464.10 1.332
464.20 1.331
464.30 1.33
464.40 1.329
464.50 1.328
464.60 1.327
464.70 1.326
464.80 1.325
464.90 1.323
465.00 1.322
465.10 1.321
465.20 1.32
465.30 1.319
465.40 1.318
465.50 1.317
465.60 1.316
465.70 1.315
465.80 1.314
465.90 1.313
466.00 1.312
466.10 1.31
466.20 1.309
466.30 1.308
466.40 1.307
466.50 1.306
466.60 1.305
466.70 1.304
466.80 1.303
466.90 1.302
467.00 1.301
467.10 1.3
467.20 1.299
467.30 1.298
467.40 1.296
467.50 1.295
467.60 1.294
467.70 1.293
467.80 1.292
467.90 1.291
468.00 1.29
468.10 1.289
468.20 1.288
468.30 1.287
468.40 1.286
468.50 1.285
468.60 1.284
468.70 1.283
468.80 1.282
468.90 1.281
469.00 1.279
469.10 1.278
469.20 1.277
469.30 1.276
469.40 1.275
469.50 1.274
469.60 1.273
469.70 1.272
469.80 1.271
469.90 1.27
470.00 1.269
470.10 1.268
470.20 1.267
470.30 1.266
470.40 1.265
470.50 1.264
470.60 1.263
470.70 1.262
470.80 1.261
470.90 1.26
471.00 1.259
471.10 1.258
471.20 1.257
471.30 1.256
471.40 1.255
471.50 1.253
471.60 1.252
471.70 1.251
471.80 1.25
471.90 1.249
472.00 1.248
472.10 1.247
472.20 1.246
472.30 1.245
472.40 1.244
472.50 1.243
472.60 1.242
472.70 1.241
472.80 1.24
472.90 1.239
473.00 1.238
473.10 1.237
473.20 1.236
473.30 1.235
473.40 1.234
473.50 1.233
473.60 1.232
473.70 1.231
473.80 1.23
473.90 1.229
474.00 1.228
474.10 1.227
474.20 1.226
474.30 1.225
474.40 1.224
474.50 1.223
474.60 1.222
474.70 1.221
474.80 1.22
474.90 1.219
475.00 1.218
475.10 1.217
475.20 1.216
475.30 1.215
475.40 1.214
475.50 1.213
475.60 1.212
475.70 1.211
475.80 1.21
475.90 1.209
476.00 1.208
476.10 1.207
476.20 1.206
476.30 1.205
476.40 1.204
476.50 1.203
476.60 1.202
476.70 1.201
476.80 1.2
476.90 1.199
477.00 1.198
477.10 1.197
477.20 1.196
477.30 1.195
477.40 1.194
477.50 1.193
477.60 1.192
477.70 1.191
477.80 1.19
477.90 1.189
478.00 1.188
478.10 1.187
478.20 1.186
478.30 1.185
478.40 1.184
478.50 1.183
478.60 1.182
478.70 1.181
478.80 1.18
478.90 1.179
479.00 1.178
479.10 1.177
479.20 1.176
479.30 1.175
479.40 1.174
479.50 1.173
479.60 1.172
479.70 1.171
479.80 1.17
479.90 1.169
480.00 1.168
480.10 1.167
480.20 1.166
480.30 1.165
480.40 1.164
480.50 1.163
480.60 1.162
480.70 1.161
480.80 1.16
480.90 1.159
481.00 1.158
481.10 1.157
481.20 1.156
481.30 1.155
481.40 1.154
481.50 1.152
481.60 1.151
481.70 1.15
481.80 1.149
481.90 1.148
482.00 1.147
482.10 1.146
482.20 1.144
482.30 1.143
482.40 1.142
482.50 1.14
482.60 1.139
482.70 1.138
482.80 1.136
482.90 1.135
483.00 1.134
483.10 1.132
483.20 1.13
483.30 1.128
483.40 1.126
483.50 1.124
483.60 1.122
483.70 1.12
483.80 1.118
483.90 1.116
484.00 1.114
484.10 1.112
484.20 1.109
484.30 1.106
484.40 1.103
484.50 1.099
484.60 1.096
484.70 1.091
484.80 1.086
484.90 1.081
485.00 1.076
485.10 1.07
485.20 1.064
485.30 1.056
485.40 1.047
485.50 1.037
485.60 1.025
485.70 1.011
485.80 0.9903
485.90 0.9661
486.00 0.93
486.10 0.9064
486.20 0.9056
486.30 0.9425
486.40 0.9699
486.50 0.9929
486.60 1.009
486.70 1.021
486.80 1.03
486.90 1.038
487.00 1.045
487.10 1.05
487.20 1.055
487.30 1.058
487.40 1.062
487.50 1.065
487.60 1.069
487.70 1.071
487.80 1.072
487.90 1.074
488.00 1.075
488.10 1.077
488.20 1.077
488.30 1.078
488.40 1.078
488.50 1.078
488.60 1.078
488.70 1.079
488.80 1.079
488.90 1.079
489.00 1.079
489.10 1.08
489.20 1.079
489.30 1.079
489.40 1.078
489.50 1.078
489.60 1.078
489.70 1.077
489.80 1.077
489.90 1.076
490.00 1.076
490.10 1.075
490.20 1.075
490.30 1.074
490.40 1.074
490.50 1.073
490.60 1.072
490.70 1.072
490.80 1.071
490.90 1.07
491.00 1.07
491.10 1.069
491.20 1.068
491.30 1.068
491.40 1.067
491.50 1.066
491.60 1.065
491.70 1.065
491.80 1.064
491.90 1.063
492.00 1.062
492.10 1.062
492.20 1.061
492.30 1.06
492.40 1.059
492.50 1.059
492.60 1.058
492.70 1.057
492.80 1.056
492.90 1.055
493.00 1.055
493.10 1.054
493.20 1.053
493.30 1.052
493.40 1.052
493.50 1.051
493.60 1.05
493.70 1.049
493.80 1.048
493.90 1.048
494.00 1.047
494.10 1.046
494.20 1.045
494.30 1.045
494.40 1.044
494.50 1.043
494.60 1.042
494.70 1.041
494.80 1.041
494.90 1.04
495.00 1.039
495.10 1.038
495.20 1.037
495.30 1.037
495.40 1.036
495.50 1.035
495.60 1.034
495.70 1.033
495.80 1.033
495.90 1.032
496.00 1.031
496.10 1.03
496.20 1.03
496.30 1.029
496.40 1.028
496.50 1.027
496.60 1.026
496.70 1.026
496.80 1.025
496.90 1.024
497.00 1.023
497.10 1.022
497.20 1.022
497.30 1.021
497.40 1.02
497.50 1.019
497.60 1.019
497.70 1.018
497.80 1.017
497.90 1.016
498.00 1.015
498.10 1.015
498.20 1.014
498.30 1.013
498.40 1.012
498.50 1.012
498.60 1.011
498.70 1.01
498.80 1.009
498.90 1.008
499.00 1.008
499.10 1.007
499.20 1.006
499.30 1.005
499.40 1.005
499.50 1.004
499.60 1.003
499.70 1.002
499.80 1.002
499.90 1.001
500.00 1
500.10 0.9992
500.20 0.9985
500.30 0.9977
500.40 0.9969
500.50 0.9962
500.60 0.9954
500.70 0.9947
500.80 0.9939
500.90 0.9931
501.00 0.9924
501.10 0.9916
501.20 0.9908
501.30 0.9901
501.40 0.9893
501.50 0.9886
501.60 0.9878
501.70 0.9871
501.80 0.9863
501.90 0.9856
502.00 0.9848
502.10 0.984
502.20 0.9833
502.30 0.9825
502.40 0.9818
502.50 0.981
502.60 0.9803
502.70 0.9795
502.80 0.9788
502.90 0.978
503.00 0.9773
503.10 0.9766
503.20 0.9758
503.30 0.9751
503.40 0.9743
503.50 0.9736
503.60 0.9728
503.70 0.9721
503.80 0.9713
503.90 0.9706
504.00 0.9699
504.10 0.9691
504.20 0.9684
504.30 0.9676
504.40 0.9669
504.50 0.9662
504.60 0.9654
504.70 0.9647
504.80 0.964
504.90 0.9632
505.00 0.9625
505.10 0.9618
505.20 0.961
505.30 0.9603
505.40 0.9596
505.50 0.9588
505.60 0.9581
505.70 0.9574
505.80 0.9567
505.90 0.9559
506.00 0.9552
506.10 0.9545
506.20 0.9538
506.30 0.953
506.40 0.9523
506.50 0.9516
506.60 0.9509
506.70 0.9501
506.80 0.9494
506.90 0.9487
507.00 0.948
507.10 0.9473
507.20 0.9465
507.30 0.9458
507.40 0.9451
507.50 0.9444
507.60 0.9437
507.70 0.943
507.80 0.9422
507.90 0.9415
508.00 0.9408
508.10 0.9401
508.20 0.9394
508.30 0.9387
508.40 0.938
508.50 0.9372
508.60 0.9365
508.70 0.9358
508.80 0.9351
508.90 0.9344
509.00 0.9337
509.10 0.933
509.20 0.9323
509.30 0.9316
509.40 0.9309
509.50 0.9302
509.60 0.9295
509.70 0.9288
509.80 0.9281
509.90 0.9274
510.00 0.9267
510.10 0.926
510.20 0.9253
510.30 0.9246
510.40 0.9239
510.50 0.9232
510.60 0.9225
510.70 0.9218
510.80 0.9211
510.90 0.9204
511.00 0.9197
511.10 0.919
511.20 0.9183
511.30 0.9176
511.40 0.9169
511.50 0.9162
511.60 0.9156
511.70 0.9149
511.80 0.9142
511.90 0.9135
512.00 0.9128
512.10 0.9121
512.20 0.9114
512.30 0.9107
512.40 0.9101
512.50 0.9094
512.60 0.9087
512.70 0.908
512.80 0.9073
512.90 0.9066
513.00 0.906
513.10 0.9053
513.20 0.9046
513.30 0.9039
513.40 0.9033
513.50 0.9026
513.60 0.9019
513.70 0.9012
513.80 0.9005
513.90 0.8999
514.00 0.8992
514.10 0.8985
514.20 0.8979
514.30 0.8972
514.40 0.8965
514.50 0.8958
514.60 0.8952
514.70 0.8945
514.80 0.8938
514.90 0.8932
515.00 0.8925
515.10 0.8918
515.20 0.8912
515.30 0.8905
515.40 0.8898
515.50 0.8892
515.60 0.8885
515.70 0.8878
515.80 0.8872
515.90 0.8865
516.00 0.8858
516.10 0.8852
516.20 0.8845
516.30 0.8839
516.40 0.8832
516.50 0.8825
516.60 0.8819
516.70 0.8812
516.80 0.8806
516.90 0.8799
517.00 0.8792
517.10 0.8786
517.20 0.8779
517.30 0.8773
517.40 0.8766
517.50 0.876
517.60 0.8753
517.70 0.8747
517.80 0.874
517.90 0.8734
518.00 0.8727
518.10 0.8721
518.20 0.8714
518.30 0.8708
518.40 0.8701
518.50 0.8695
518.60 0.8688
518.70 0.8682
518.80 0.8676
518.90 0.8669
519.00 0.8663
519.10 0.8656
519.20 0.865
519.30 0.8643
519.40 0.8637
519.50 0.8631
519.60 0.8624
519.70 0.8618
519.80 0.8611
519.90 0.8605
520.00 0.8599
520.10 0.8592
520.20 0.8586
520.30 0.8579
520.40 0.8573
520.50 0.8567
520.60 0.856
520.70 0.8554
520.80 0.8548
520.90 0.8541
521.00 0.8535
521.10 0.8529
521.20 0.8522
521.30 0.8516
521.40 0.851
521.50 0.8504
521.60 0.8497
521.70 0.8491
521.80 0.8485
521.90 0.8478
522.00 0.8472
522.10 0.8466
522.20 0.846
522.30 0.8453
522.40 0.8447
522.50 0.8441
522.60 0.8435
522.70 0.8429
522.80 0.8422
522.90 0.8416
523.00 0.841
523.10 0.8404
523.20 0.8398
523.30 0.8391
523.40 0.8385
523.50 0.8379
523.60 0.8373
523.70 0.8367
523.80 0.836
523.90 0.8354
524.00 0.8348
524.10 0.8342
524.20 0.8336
524.30 0.833
524.40 0.8324
524.50 0.8318
524.60 0.8311
524.70 0.8305
524.80 0.8299
524.90 0.8293
525.00 0.8287
525.10 0.8281
525.20 0.8275
525.30 0.8269
525.40 0.8263
525.50 0.8257
525.60 0.8251
525.70 0.8245
525.80 0.8239
525.90 0.8232
526.00 0.8226
526.10 0.822
526.20 0.8214
526.30 0.8208
526.40 0.8202
526.50 0.8196
526.60 0.819
526.70 0.8184
526.80 0.8178
526.90 0.8172
527.00 0.8166
527.10 0.816
527.20 0.8154
527.30 0.8148
527.40 0.8142
527.50 0.8137
527.60 0.8131
527.70 0.8125
527.80 0.8119
527.90 0.8113
528.00 0.8107
528.10 0.8101
528.20 0.8095
528.30 0.8089
528.40 0.8083
528.50 0.8077
528.60 0.8071
528.70 0.8066
528.80 0.806
528.90 0.8054
529.00 0.8048
529.10 0.8042
529.20 0.8036
529.30 0.803
529.40 0.8024
529.50 0.8019
529.60 0.8013
529.70 0.8007
529.80 0.8001
529.90 0.7995
530.00 0.7989
530.10 0.7984
530.20 0.7978
530.30 0.7972
530.40 0.7966
530.50 0.796
530.60 0.7955
530.70 0.7949
530.80 0.7943
530.90 0.7937
531.00 0.7932
531.10 0.7926
531.20 0.792
531.30 0.7914
531.40 0.7909
531.50 0.7903
531.60 0.7897
531.70 0.7891
531.80 0.7886
531.90 0.788
532.00 0.7874
532.10 0.7869
532.20 0.7863
532.30 0.7857
532.40 0.7851
532.50 0.7846
532.60 0.784
532.70 0.7834
532.80 0.7829
532.90 0.7823
533.00 0.7817
533.10 0.7812
533.20 0.7806
533.30 0.78
533.40 0.7795
533.50 0.7789
533.60 0.7783
533.70 0.7778
533.80 0.7772
533.90 0.7767
534.00 0.7761
534.10 0.7755
534.20 0.775
534.30 0.7744
534.40 0.7739
534.50 0.7733
534.60 0.7727
534.70 0.7722
534.80 0.7716
534.90 0.7711
535.00 0.7705
535.10 0.77
535.20 0.7694
535.30 0.7689
535.40 0.7683
535.50 0.7677
535.60 0.7672
535.70 0.7666
535.80 0.7661
535.90 0.7655
536.00 0.765
536.10 0.7644
536.20 0.7639
536.30 0.7633
536.40 0.7628
536.50 0.7622
536.60 0.7617
536.70 0.7611
536.80 0.7606
536.90 0.76
537.00 0.7595
537.10 0.759
537.20 0.7584
537.30 0.7579
537.40 0.7573
537.50 0.7568
537.60 0.7562
537.70 0.7557
537.80 0.7552
537.90 0.7546
538.00 0.7541
538.10 0.7535
538.20 0.753
538.30 0.7524
538.40 0.7519
538.50 0.7514
538.60 0.7508
538.70 0.7503
538.80 0.7498
538.90 0.7492
539.00 0.7487
539.10 0.7482
539.20 0.7476
539.30 0.7471
539.40 0.7465
539.50 0.746
539.60 0.7455
539.70 0.7449
539.80 0.7444
539.90 0.7439
540.00 0.7433
540.10 0.7428
540.20 0.7423
540.30 0.7418
540.40 0.7412
540.50 0.7407
540.60 0.7402
540.70 0.7396
540.80 0.7391
540.90 0.7386
541.00 0.7381
541.10 0.7375
541.20 0.737
541.30 0.7365
541.40 0.736
541.50 0.7354
541.60 0.7349
541.70 0.7344
541.80 0.7339
541.90 0.7333
542.00 0.7328
542.10 0.7323
542.20 0.7318
542.30 0.7312
542.40 0.7307
542.50 0.7302
542.60 0.7297
542.70 0.7292
542.80 0.7287
542.90 0.7281
543.00 0.7276
543.10 0.7271
543.20 0.7266
543.30 0.7261
543.40 0.7256
543.50 0.725
543.60 0.7245
543.70 0.724
543.80 0.7235
543.90 0.723
544.00 0.7225
544.10 0.722
544.20 0.7214
544.30 0.7209
544.40 0.7204
544.50 0.7199
544.60 0.7194
544.70 0.7189
544.80 0.7184
544.90 0.7179
545.00 0.7174
545.10 0.7169
545.20 0.7163
545.30 0.7158
545.40 0.7153
545.50 0.7148
545.60 0.7143
545.70 0.7138
545.80 0.7133
545.90 0.7128
546.00 0.7123
546.10 0.7118
546.20 0.7113
546.30 0.7108
546.40 0.7103
546.50 0.7098
546.60 0.7093
546.70 0.7088
546.80 0.7083
546.90 0.7078
547.00 0.7073
547.10 0.7068
547.20 0.7063
547.30 0.7058
547.40 0.7053
547.50 0.7048
547.60 0.7043
547.70 0.7038
547.80 0.7033
547.90 0.7028
548.00 0.7023
548.10 0.7018
548.20 0.7013
548.30 0.7008
548.40 0.7003
548.50 0.6999
548.60 0.6994
548.70 0.6989
548.80 0.6984
548.90 0.6979
549.00 0.6974
549.10 0.6969
549.20 0.6964
549.30 0.6959
549.40 0.6954
549.50 0.6949
549.60 0.6945
549.70 0.694
549.80 0.6935
549.90 0.693
550.00 0.6925
550.10 0.692
550.20 0.6915
550.30 0.6911
550.40 0.6906
550.50 0.6901
550.60 0.6896
550.70 0.6891
550.80 0.6886
550.90 0.6881
551.00 0.6877
551.10 0.6872
551.20 0.6867
551.30 0.6862
551.40 0.6857
551.50 0.6853
551.60 0.6848
551.70 0.6843
551.80 0.6838
551.90 0.6833
552.00 0.6829
552.10 0.6824
552.20 0.6819
552.30 0.6814
552.40 0.681
552.50 0.6805
552.60 0.68
552.70 0.6795
552.80 0.6791
552.90 0.6786
553.00 0.6781
553.10 0.6776
553.20 0.6772
553.30 0.6767
553.40 0.6762
553.50 0.6758
553.60 0.6753
553.70 0.6748
553.80 0.6743
553.90 0.6739
554.00 0.6734
554.10 0.6729
554.20 0.6725
554.30 0.672
554.40 0.6715
554.50 0.6711
554.60 0.6706
554.70 0.6701
554.80 0.6697
554.90 0.6692
555.00 0.6687
555.10 0.6683
555.20 0.6678
555.30 0.6673
555.40 0.6669
555.50 0.6664
555.60 0.6659
555.70 0.6655
555.80 0.665
555.90 0.6645
556.00 0.6641
556.10 0.6636
556.20 0.6632
556.30 0.6627
556.40 0.6622
556.50 0.6618
556.60 0.6613
556.70 0.6609
556.80 0.6604
556.90 0.66
557.00 0.6595
557.10 0.659
557.20 0.6586
557.30 0.6581
557.40 0.6577
557.50 0.6572
557.60 0.6568
557.70 0.6563
557.80 0.6559
557.90 0.6554
558.00 0.6549
558.10 0.6545
558.20 0.654
558.30 0.6536
558.40 0.6531
558.50 0.6527
558.60 0.6522
558.70 0.6518
558.80 0.6513
558.90 0.6509
559.00 0.6504
559.10 0.65
559.20 0.6495
559.30 0.6491
559.40 0.6486
559.50 0.6482
559.60 0.6477
559.70 0.6473
559.80 0.6468
559.90 0.6464
560.00 0.646
560.10 0.6455
560.20 0.6451
560.30 0.6446
560.40 0.6442
560.50 0.6437
560.60 0.6433
560.70 0.6428
560.80 0.6424
560.90 0.642
561.00 0.6415
561.10 0.6411
561.20 0.6406
561.30 0.6402
561.40 0.6397
561.50 0.6393
561.60 0.6389
561.70 0.6384
561.80 0.638
561.90 0.6376
562.00 0.6371
562.10 0.6367
562.20 0.6362
562.30 0.6358
562.40 0.6354
562.50 0.6349
562.60 0.6345
562.70 0.6341
562.80 0.6336
562.90 0.6332
563.00 0.6328
563.10 0.6323
563.20 0.6319
563.30 0.6315
563.40 0.631
563.50 0.6306
563.60 0.6302
563.70 0.6297
563.80 0.6293
563.90 0.6289
564.00 0.6284
564.10 0.628
564.20 0.6276
564.30 0.6271
564.40 0.6267
564.50 0.6263
564.60 0.6259
564.70 0.6254
564.80 0.625
564.90 0.6246
565.00 0.6241
565.10 0.6237
565.20 0.6233
565.30 0.6229
565.40 0.6224
565.50 0.622
565.60 0.6216
565.70 0.6212
565.80 0.6207
565.90 0.6203
566.00 0.6199
566.10 0.6195
566.20 0.619
566.30 0.6186
566.40 0.6182
566.50 0.6178
566.60 0.6174
566.70 0.6169
566.80 0.6165
566.90 0.6161
567.00 0.6157
567.10 0.6153
567.20 0.6148
567.30 0.6144
567.40 0.614
567.50 0.6136
567.60 0.6132
567.70 0.6128
567.80 0.6123
567.90 0.6119
568.00 0.6115
568.10 0.6111
568.20 0.6107
568.30 0.6103
568.40 0.6098
568.50 0.6094
568.60 0.609
568.70 0.6086
568.80 0.6082
568.90 0.6078
569.00 0.6074
569.10 0.6069
569.20 0.6065
569.30 0.6061
569.40 0.6057
569.50 0.6053
569.60 0.6049
569.70 0.6045
569.80 0.6041
569.90 0.6037
570.00 0.6032
570.10 0.6028
570.20 0.6024
570.30 0.602
570.40 0.6016
570.50 0.6012
570.60 0.6008
570.70 0.6004
570.80 0.6
570.90 0.5996
571.00 0.5992
571.10 0.5988
571.20 0.5984
571.30 0.598
571.40 0.5976
571.50 0.5972
571.60 0.5968
571.70 0.5963
571.80 0.5959
571.90 0.5955
572.00 0.5951
572.10 0.5947
572.20 0.5943
572.30 0.5939
572.40 0.5935
572.50 0.5931
572.60 0.5927
572.70 0.5923
572.80 0.5919
572.90 0.5915
573.00 0.5911
573.10 0.5907
573.20 0.5903
573.30 0.5899
573.40 0.5895
573.50 0.5891
573.60 0.5887
573.70 0.5884
573.80 0.588
573.90 0.5876
574.00 0.5872
574.10 0.5868
574.20 0.5864
574.30 0.586
574.40 0.5856
574.50 0.5852
574.60 0.5848
574.70 0.5844
574.80 0.584
574.90 0.5836
575.00 0.5832
575.10 0.5828
575.20 0.5824
575.30 0.5821
575.40 0.5817
575.50 0.5813
575.60 0.5809
575.70 0.5805
575.80 0.5801
575.90 0.5797
576.00 0.5793
576.10 0.5789
576.20 0.5785
576.30 0.5782
576.40 0.5778
576.50 0.5774
576.60 0.577
576.70 0.5766
576.80 0.5762
576.90 0.5758
577.00 0.5754
577.10 0.5751
577.20 0.5747
577.30 0.5743
577.40 0.5739
577.50 0.5735
577.60 0.5731
577.70 0.5728
577.80 0.5724
577.90 0.572
578.00 0.5716
578.10 0.5712
578.20 0.5708
578.30 0.5705
578.40 0.5701
578.50 0.5697
578.60 0.5693
578.70 0.5689
578.80 0.5686
578.90 0.5682
579.00 0.5678
579.10 0.5674
579.20 0.567
579.30 0.5667
579.40 0.5663
579.50 0.5659
579.60 0.5655
579.70 0.5652
579.80 0.5648
579.90 0.5644
580.00 0.564
580.10 0.5636
580.20 0.5633
580.30 0.5629
580.40 0.5625
580.50 0.5622
580.60 0.5618
580.70 0.5614
580.80 0.561
580.90 0.5607
581.00 0.5603
581.10 0.5599
581.20 0.5595
581.30 0.5592
581.40 0.5588
581.50 0.5584
581.60 0.5581
581.70 0.5577
581.80 0.5573
581.90 0.5569
582.00 0.5566
582.10 0.5562
582.20 0.5558
582.30 0.5555
582.40 0.5551
582.50 0.5547
582.60 0.5544
582.70 0.554
582.80 0.5536
582.90 0.5533
583.00 0.5529
583.10 0.5525
583.20 0.5522
583.30 0.5518
583.40 0.5514
583.50 0.5511
583.60 0.5507
583.70 0.5503
583.80 0.55
583.90 0.5496
584.00 0.5492
584.10 0.5489
584.20 0.5485
584.30 0.5481
584.40 0.5478
584.50 0.5474
584.60 0.5471
584.70 0.5467
584.80 0.5463
584.90 0.546
585.00 0.5456
585.10 0.5453
585.20 0.5449
585.30 0.5445
585.40 0.5442
585.50 0.5438
585.60 0.5435
585.70 0.5431
585.80 0.5427
585.90 0.5424
586.00 0.542
586.10 0.5417
586.20 0.5413
586.30 0.5409
586.40 0.5406
586.50 0.5402
586.60 0.5399
586.70 0.5395
586.80 0.5392
586.90 0.5388
587.00 0.5385
587.10 0.5381
587.20 0.5378
587.30 0.5374
587.40 0.537
587.50 0.5367
587.60 0.5363
587.70 0.536
587.80 0.5356
587.90 0.5353
588.00 0.5349
588.10 0.5346
588.20 0.5342
588.30 0.5339
588.40 0.5335
588.50 0.5332
588.60 0.5328
588.70 0.5325
588.80 0.5321
588.90 0.5318
589.00 0.5314
589.10 0.5311
589.20 0.5307
589.30 0.5304
589.40 0.53
589.50 0.5297
589.60 0.5293
589.70 0.529
589.80 0.5286
589.90 0.5283
590.00 0.5279
590.10 0.5276
590.20 0.5273
590.30 0.5269
590.40 0.5266
590.50 0.5262
590.60 0.5259
590.70 0.5255
590.80 0.5252
590.90 0.5248
591.00 0.5245
591.10 0.5242
591.20 0.5238
591.30 0.5235
591.40 0.5231
591.50 0.5228
591.60 0.5224
591.70 0.5221
591.80 0.5218
591.90 0.5214
592.00 0.5211
592.10 0.5207
592.20 0.5204
592.30 0.5201
592.40 0.5197
592.50 0.5194
592.60 0.519
592.70 0.5187
592.80 0.5184
592.90 0.518
593.00 0.5177
593.10 0.5174
593.20 0.517
593.30 0.5167
593.40 0.5163
593.50 0.516
593.60 0.5157
593.70 0.5153
593.80 0.515
593.90 0.5147
594.00 0.5143
594.10 0.514
594.20 0.5137
594.30 0.5133
594.40 0.513
594.50 0.5127
594.60 0.5123
594.70 0.512
594.80 0.5117
594.90 0.5113
595.00 0.511
595.10 0.5107
595.20 0.5103
595.30 0.51
595.40 0.5097
595.50 0.5093
595.60 0.509
595.70 0.5087
595.80 0.5083
595.90 0.508
596.00 0.5077
596.10 0.5074
596.20 0.507
596.30 0.5067
596.40 0.5064
596.50 0.506
596.60 0.5057
596.70 0.5054
596.80 0.5051
596.90 0.5047
597.00 0.5044
597.10 0.5041
597.20 0.5037
597.30 0.5034
597.40 0.5031
597.50 0.5028
597.60 0.5024
597.70 0.5021
597.80 0.5018
597.90 0.5015
598.00 0.5011
598.10 0.5008
598.20 0.5005
598.30 0.5002
598.40 0.4999
598.50 0.4995
598.60 0.4992
598.70 0.4989
598.80 0.4986
598.90 0.4982
599.00 0.4979
599.10 0.4976
599.20 0.4973
599.30 0.497
599.40 0.4966
599.50 0.4963
599.60 0.496
599.70 0.4957
599.80 0.4953
599.90 0.495
600.00 0.4947
600.10 0.4944
600.20 0.4941
600.30 0.4938
600.40 0.4934
600.50 0.4931
600.60 0.4928
600.70 0.4925
600.80 0.4922
600.90 0.4919
601.00 0.4915
601.10 0.4912
601.20 0.4909
601.30 0.4906
601.40 0.4903
601.50 0.49
601.60 0.4896
601.70 0.4893
601.80 0.489
601.90 0.4887
602.00 0.4884
602.10 0.4881
602.20 0.4878
602.30 0.4874
602.40 0.4871
602.50 0.4868
602.60 0.4865
602.70 0.4862
602.80 0.4859
602.90 0.4856
603.00 0.4853
603.10 0.4849
603.20 0.4846
603.30 0.4843
603.40 0.484
603.50 0.4837
603.60 0.4834
603.70 0.4831
603.80 0.4828
603.90 0.4825
604.00 0.4822
604.10 0.4818
604.20 0.4815
604.30 0.4812
604.40 0.4809
604.50 0.4806
604.60 0.4803
604.70 0.48
604.80 0.4797
604.90 0.4794
605.00 0.4791
605.10 0.4788
605.20 0.4785
605.30 0.4782
605.40 0.4779
605.50 0.4775
605.60 0.4772
605.70 0.4769
605.80 0.4766
605.90 0.4763
606.00 0.476
606.10 0.4757
606.20 0.4754
606.30 0.4751
606.40 0.4748
606.50 0.4745
606.60 0.4742
606.70 0.4739
606.80 0.4736
606.90 0.4733
607.00 0.473
607.10 0.4727
607.20 0.4724
607.30 0.4721
607.40 0.4718
607.50 0.4715
607.60 0.4712
607.70 0.4709
607.80 0.4706
607.90 0.4703
608.00 0.47
608.10 0.4697
608.20 0.4694
608.30 0.4691
608.40 0.4688
608.50 0.4685
608.60 0.4682
608.70 0.4679
608.80 0.4676
608.90 0.4673
609.00 0.467
609.10 0.4667
609.20 0.4664
609.30 0.4661
609.40 0.4658
609.50 0.4655
609.60 0.4652
609.70 0.4649
609.80 0.4646
609.90 0.4644
610.00 0.4641
610.10 0.4638
610.20 0.4635
610.30 0.4632
610.40 0.4629
610.50 0.4626
610.60 0.4623
610.70 0.462
610.80 0.4617
610.90 0.4614
611.00 0.4611
611.10 0.4608
611.20 0.4605
611.30 0.4602
611.40 0.46
611.50 0.4597
611.60 0.4594
611.70 0.4591
611.80 0.4588
611.90 0.4585
612.00 0.4582
612.10 0.4579
612.20 0.4576
612.30 0.4573
612.40 0.4571
612.50 0.4568
612.60 0.4565
612.70 0.4562
612.80 0.4559
612.90 0.4556
613.00 0.4553
613.10 0.455
613.20 0.4548
613.30 0.4545
613.40 0.4542
613.50 0.4539
613.60 0.4536
613.70 0.4533
613.80 0.453
613.90 0.4527
614.00 0.4525
614.10 0.4522
614.20 0.4519
614.30 0.4516
614.40 0.4513
614.50 0.451
614.60 0.4508
614.70 0.4505
614.80 0.4502
614.90 0.4499
615.00 0.4496
615.10 0.4493
615.20 0.4491
615.30 0.4488
615.40 0.4485
615.50 0.4482
615.60 0.4479
615.70 0.4476
615.80 0.4474
615.90 0.4471
616.00 0.4468
616.10 0.4465
616.20 0.4462
616.30 0.446
616.40 0.4457
616.50 0.4454
616.60 0.4451
616.70 0.4448
616.80 0.4446
616.90 0.4443
617.00 0.444
617.10 0.4437
617.20 0.4434
617.30 0.4432
617.40 0.4429
617.50 0.4426
617.60 0.4423
617.70 0.4421
617.80 0.4418
617.90 0.4415
618.00 0.4412
618.10 0.441
618.20 0.4407
618.30 0.4404
618.40 0.4401
618.50 0.4398
618.60 0.4396
618.70 0.4393
618.80 0.439
618.90 0.4387
619.00 0.4385
619.10 0.4382
619.20 0.4379
619.30 0.4377
619.40 0.4374
619.50 0.4371
619.60 0.4368
619.70 0.4366
619.80 0.4363
619.90 0.436
620.00 0.4357
620.10 0.4355
620.20 0.4352
620.30 0.4349
620.40 0.4347
620.50 0.4344
620.60 0.4341
620.70 0.4338
620.80 0.4336
620.90 0.4333
621.00 0.433
621.10 0.4328
621.20 0.4325
621.30 0.4322
621.40 0.432
621.50 0.4317
621.60 0.4314
621.70 0.4311
621.80 0.4309
621.90 0.4306
622.00 0.4303
622.10 0.4301
622.20 0.4298
622.30 0.4295
622.40 0.4293
622.50 0.429
622.60 0.4287
622.70 0.4285
622.80 0.4282
622.90 0.4279
623.00 0.4277
623.10 0.4274
623.20 0.4271
623.30 0.4269
623.40 0.4266
623.50 0.4263
623.60 0.4261
623.70 0.4258
623.80 0.4255
623.90 0.4253
624.00 0.425
624.10 0.4248
624.20 0.4245
624.30 0.4242
624.40 0.424
624.50 0.4237
624.60 0.4234
624.70 0.4232
624.80 0.4229
624.90 0.4227
625.00 0.4224
625.10 0.4221
625.20 0.4219
625.30 0.4216
625.40 0.4213
625.50 0.4211
625.60 0.4208
625.70 0.4206
625.80 0.4203
625.90 0.42
626.00 0.4198
626.10 0.4195
626.20 0.4193
626.30 0.419
626.40 0.4187
626.50 0.4185
626.60 0.4182
626.70 0.418
626.80 0.4177
626.90 0.4175
627.00 0.4172
627.10 0.4169
627.20 0.4167
627.30 0.4164
627.40 0.4162
627.50 0.4159
627.60 0.4157
627.70 0.4154
627.80 0.4151
627.90 0.4149
628.00 0.4146
628.10 0.4144
628.20 0.4141
628.30 0.4139
628.40 0.4136
628.50 0.4134
628.60 0.4131
628.70 0.4128
628.80 0.4126
628.90 0.4123
629.00 0.4121
629.10 0.4118
629.20 0.4116
629.30 0.4113
629.40 0.4111
629.50 0.4108
629.60 0.4106
629.70 0.4103
629.80 0.4101
629.90 0.4098
630.00 0.4095
630.10 0.4093
630.20 0.409
630.30 0.4088
630.40 0.4085
630.50 0.4083
630.60 0.408
630.70 0.4078
630.80 0.4075
630.90 0.4073
631.00 0.407
631.10 0.4068
631.20 0.4065
631.30 0.4063
631.40 0.406
631.50 0.4058
631.60 0.4055
631.70 0.4053
631.80 0.405
631.90 0.4048
632.00 0.4045
632.10 0.4043
632.20 0.4041
632.30 0.4038
632.40 0.4036
632.50 0.4033
632.60 0.4031
632.70 0.4028
632.80 0.4026
632.90 0.4023
633.00 0.4021
633.10 0.4018
633.20 0.4016
633.30 0.4013
633.40 0.4011
633.50 0.4008
633.60 0.4006
633.70 0.4004
633.80 0.4001
633.90 0.3999
634.00 0.3996
634.10 0.3994
634.20 0.3991
634.30 0.3989
634.40 0.3986
634.50 0.3984
634.60 0.3982
634.70 0.3979
634.80 0.3977
634.90 0.3974
635.00 0.3972
635.10 0.3969
635.20 0.3967
635.30 0.3965
635.40 0.3962
635.50 0.396
635.60 0.3957
635.70 0.3955
635.80 0.3952
635.90 0.395
636.00 0.3948
636.10 0.3945
636.20 0.3943
636.30 0.394
636.40 0.3938
636.50 0.3936
636.60 0.3933
636.70 0.3931
636.80 0.3928
636.90 0.3926
637.00 0.3924
637.10 0.3921
637.20 0.3919
637.30 0.3916
637.40 0.3914
637.50 0.3912
637.60 0.3909
637.70 0.3907
637.80 0.3905
637.90 0.3902
638.00 0.39
638.10 0.3897
638.20 0.3895
638.30 0.3893
638.40 0.389
638.50 0.3888
638.60 0.3886
638.70 0.3883
638.80 0.3881
638.90 0.3879
639.00 0.3876
639.10 0.3874
639.20 0.3871
639.30 0.3869
639.40 0.3867
639.50 0.3864
639.60 0.3862
639.70 0.386
639.80 0.3857
639.90 0.3855
640.00 0.3853
640.10 0.385
640.20 0.3848
640.30 0.3846
640.40 0.3843
640.50 0.3841
640.60 0.3839
640.70 0.3836
640.80 0.3834
640.90 0.3832
641.00 0.3829
641.10 0.3827
641.20 0.3825
641.30 0.3822
641.40 0.382
641.50 0.3818
641.60 0.3815
641.70 0.3813
641.80 0.3811
641.90 0.3808
642.00 0.3806
642.10 0.3804
642.20 0.3802
642.30 0.3799
642.40 0.3797
642.50 0.3795
642.60 0.3792
642.70 0.379
642.80 0.3788
642.90 0.3785
643.00 0.3783
643.10 0.3781
643.20 0.3778
643.30 0.3776
643.40 0.3774
643.50 0.3772
643.60 0.3769
643.70 0.3767
643.80 0.3765
643.90 0.3762
644.00 0.376
644.10 0.3758
644.20 0.3756
644.30 0.3753
644.40 0.3751
644.50 0.3749
644.60 0.3746
644.70 0.3744
644.80 0.3742
644.90 0.374
645.00 0.3737
645.10 0.3735
645.20 0.3733
645.30 0.3731
645.40 0.3728
645.50 0.3726
645.60 0.3724
645.70 0.3721
645.80 0.3719
645.90 0.3717
646.00 0.3715
646.10 0.3712
646.20 0.371
646.30 0.3708
646.40 0.3706
646.50 0.3703
646.60 0.3701
646.70 0.3699
646.80 0.3696
646.90 0.3694
647.00 0.3692
647.10 0.369
647.20 0.3687
647.30 0.3685
647.40 0.3683
647.50 0.3681
647.60 0.3678
647.70 0.3676
647.80 0.3674
647.90 0.3671
648.00 0.3669
648.10 0.3667
648.20 0.3665
648.30 0.3662
648.40 0.366
648.50 0.3658
648.60 0.3655
648.70 0.3653
648.80 0.3651
648.90 0.3649
649.00 0.3646
649.10 0.3644
649.20 0.3642
649.30 0.3639
649.40 0.3637
649.50 0.3635
649.60 0.3632
649.70 0.363
649.80 0.3628
649.90 0.3625
650.00 0.3623
650.10 0.3621
650.20 0.3618
650.30 0.3616
650.40 0.3613
650.50 0.3611
650.60 0.3609
650.70 0.3606
650.80 0.3604
650.90 0.3601
651.00 0.3599
651.10 0.3596
651.20 0.3594
651.30 0.3591
651.40 0.3589
651.50 0.3586
651.60 0.3583
651.70 0.358
651.80 0.3578
651.90 0.3575
652.00 0.3572
652.10 0.357
652.20 0.3567
652.30 0.3564
652.40 0.3561
652.50 0.3557
652.60 0.3554
652.70 0.3551
652.80 0.3547
652.90 0.3544
653.00 0.3541
653.10 0.3537
653.20 0.3534
653.30 0.353
653.40 0.3525
653.50 0.3519
653.60 0.3514
653.70 0.3509
653.80 0.3503
653.90 0.3498
654.00 0.3493
654.10 0.3487
654.20 0.3482
654.30 0.3476
654.40 0.3467
654.50 0.3457
654.60 0.3448
654.70 0.3438
654.80 0.3428
654.90 0.3411
655.00 0.3395
655.10 0.3379
655.20 0.3363
655.30 0.3345
655.40 0.3319
655.50 0.3292
655.60 0.3256
655.70 0.3217
655.80 0.3161
655.90 0.3092
656.00 0.2973
656.10 0.284
656.20 0.2773
656.30 0.2923
656.40 0.2742
656.50 0.2888
656.60 0.3006
656.70 0.311
656.80 0.3163
656.90 0.3211
657.00 0.3242
657.10 0.3272
657.20 0.3294
657.30 0.3313
657.40 0.3325
657.50 0.3337
657.60 0.3349
657.70 0.3362
657.80 0.3372
657.90 0.3378
658.00 0.3383
658.10 0.3388
658.20 0.3393
658.30 0.3398
658.40 0.3399
658.50 0.34
658.60 0.3401
658.70 0.3402
658.80 0.3403
658.90 0.3404
659.00 0.3406
659.10 0.3407
659.20 0.3408
659.30 0.3409
659.40 0.3408
659.50 0.3407
659.60 0.3406
659.70 0.3405
659.80 0.3405
659.90 0.3404
660.00 0.3403
660.10 0.3402
660.20 0.3401
660.30 0.34
660.40 0.3399
660.50 0.3398
660.60 0.3396
660.70 0.3395
660.80 0.3393
660.90 0.3392
661.00 0.339
661.10 0.3389
661.20 0.3387
661.30 0.3386
661.40 0.3384
661.50 0.3383
661.60 0.3381
661.70 0.3379
661.80 0.3377
661.90 0.3376
662.00 0.3374
662.10 0.3372
662.20 0.3371
662.30 0.3369
662.40 0.3367
662.50 0.3365
662.60 0.3364
662.70 0.3362
662.80 0.336
662.90 0.3358
663.00 0.3356
663.10 0.3355
663.20 0.3353
663.30 0.3351
663.40 0.3349
663.50 0.3347
663.60 0.3345
663.70 0.3343
663.80 0.3342
663.90 0.334
664.00 0.3338
664.10 0.3336
664.20 0.3334
664.30 0.3332
664.40 0.3331
664.50 0.3329
664.60 0.3327
664.70 0.3325
664.80 0.3323
664.90 0.3321
665.00 0.3319
665.10 0.3317
665.20 0.3316
665.30 0.3314
665.40 0.3312
665.50 0.331
665.60 0.3308
665.70 0.3306
665.80 0.3304
665.90 0.3302
666.00 0.3301
666.10 0.3299
666.20 0.3297
666.30 0.3295
666.40 0.3293
666.50 0.3291
666.60 0.3289
666.70 0.3287
666.80 0.3285
666.90 0.3284
667.00 0.3282
667.10 0.328
667.20 0.3278
667.30 0.3276
667.40 0.3274
667.50 0.3272
667.60 0.327
667.70 0.3269
667.80 0.3267
667.90 0.3265
668.00 0.3263
668.10 0.3261
668.20 0.3259
668.30 0.3257
668.40 0.3255
668.50 0.3254
668.60 0.3252
668.70 0.325
668.80 0.3248
668.90 0.3246
669.00 0.3244
669.10 0.3242
669.20 0.3241
669.30 0.3239
669.40 0.3237
669.50 0.3235
669.60 0.3233
669.70 0.3231
669.80 0.3229
669.90 0.3228
670.00 0.3226
670.10 0.3224
670.20 0.3222
670.30 0.322
670.40 0.3218
670.50 0.3216
670.60 0.3215
670.70 0.3213
670.80 0.3211
670.90 0.3209
671.00 0.3207
671.10 0.3205
671.20 0.3204
671.30 0.3202
671.40 0.32
671.50 0.3198
671.60 0.3196
671.70 0.3194
671.80 0.3192
671.90 0.3191
672.00 0.3189
672.10 0.3187
672.20 0.3185
672.30 0.3183
672.40 0.3182
672.50 0.318
672.60 0.3178
672.70 0.3176
672.80 0.3174
672.90 0.3172
673.00 0.3171
673.10 0.3169
673.20 0.3167
673.30 0.3165
673.40 0.3163
673.50 0.3161
673.60 0.316
673.70 0.3158
673.80 0.3156
673.90 0.3154
674.00 0.3152
674.10 0.3151
674.20 0.3149
674.30 0.3147
674.40 0.3145
674.50 0.3143
674.60 0.3142
674.70 0.314
674.80 0.3138
674.90 0.3136
675.00 0.3134
675.10 0.3133
675.20 0.3131
675.30 0.3129
675.40 0.3127
675.50 0.3125
675.60 0.3124
675.70 0.3122
675.80 0.312
675.90 0.3118
676.00 0.3116
676.10 0.3115
676.20 0.3113
676.30 0.3111
676.40 0.3109
676.50 0.3108
676.60 0.3106
676.70 0.3104
676.80 0.3102
676.90 0.31
677.00 0.3099
677.10 0.3097
677.20 0.3095
677.30 0.3093
677.40 0.3092
677.50 0.309
677.60 0.3088
677.70 0.3086
677.80 0.3085
677.90 0.3083
678.00 0.3081
678.10 0.3079
678.20 0.3078
678.30 0.3076
678.40 0.3074
678.50 0.3072
678.60 0.307
678.70 0.3069
678.80 0.3067
678.90 0.3065
679.00 0.3063
679.10 0.3062
679.20 0.306
679.30 0.3058
679.40 0.3057
679.50 0.3055
679.60 0.3053
679.70 0.3051
679.80 0.305
679.90 0.3048
680.00 0.3046
680.10 0.3044
680.20 0.3043
680.30 0.3041
680.40 0.3039
680.50 0.3037
680.60 0.3036
680.70 0.3034
680.80 0.3032
680.90 0.3031
681.00 0.3029
681.10 0.3027
681.20 0.3025
681.30 0.3024
681.40 0.3022
681.50 0.302
681.60 0.3018
681.70 0.3017
681.80 0.3015
681.90 0.3013
682.00 0.3012
682.10 0.301
682.20 0.3008
682.30 0.3006
682.40 0.3005
682.50 0.3003
682.60 0.3001
682.70 0.3
682.80 0.2998
682.90 0.2996
683.00 0.2995
683.10 0.2993
683.20 0.2991
683.30 0.2989
683.40 0.2988
683.50 0.2986
683.60 0.2984
683.70 0.2983
683.80 0.2981
683.90 0.2979
684.00 0.2978
684.10 0.2976
684.20 0.2974
684.30 0.2973
684.40 0.2971
684.50 0.2969
684.60 0.2968
684.70 0.2966
684.80 0.2964
684.90 0.2962
685.00 0.2961
685.10 0.2959
685.20 0.2957
685.30 0.2956
685.40 0.2954
685.50 0.2952
685.60 0.2951
685.70 0.2949
685.80 0.2947
685.90 0.2946
686.00 0.2944
686.10 0.2942
686.20 0.2941
686.30 0.2939
686.40 0.2937
686.50 0.2936
686.60 0.2934
686.70 0.2932
686.80 0.2931
686.90 0.2929
687.00 0.2927
687.10 0.2926
687.20 0.2924
687.30 0.2923
687.40 0.2921
687.50 0.2919
687.60 0.2918
687.70 0.2916
687.80 0.2914
687.90 0.2913
688.00 0.2911
688.10 0.2909
688.20 0.2908
688.30 0.2906
688.40 0.2904
688.50 0.2903
688.60 0.2901
688.70 0.29
688.80 0.2898
688.90 0.2896
689.00 0.2895
689.10 0.2893
689.20 0.2891
689.30 0.289
689.40 0.2888
689.50 0.2887
689.60 0.2885
689.70 0.2883
689.80 0.2882
689.90 0.288
690.00 0.2878
690.10 0.2877
690.20 0.2875
690.30 0.2874
690.40 0.2872
690.50 0.287
690.60 0.2869
690.70 0.2867
690.80 0.2866
690.90 0.2864
691.00 0.2862
691.10 0.2861
691.20 0.2859
691.30 0.2858
691.40 0.2856
691.50 0.2854
691.60 0.2853
691.70 0.2851
691.80 0.285
691.90 0.2848
692.00 0.2846
692.10 0.2845
692.20 0.2843
692.30 0.2842
692.40 0.284
692.50 0.2838
692.60 0.2837
692.70 0.2835
692.80 0.2834
692.90 0.2832
693.00 0.2831
693.10 0.2829
693.20 0.2827
693.30 0.2826
693.40 0.2824
693.50 0.2823
693.60 0.2821
693.70 0.2819
693.80 0.2818
693.90 0.2816
694.00 0.2815
694.10 0.2813
694.20 0.2812
694.30 0.281
694.40 0.2808
694.50 0.2807
694.60 0.2805
694.70 0.2804
694.80 0.2802
694.90 0.2801
695.00 0.2799
695.10 0.2797
695.20 0.2796
695.30 0.2794
695.40 0.2793
695.50 0.2791
695.60 0.279
695.70 0.2788
695.80 0.2787
695.90 0.2785
696.00 0.2783
696.10 0.2782
696.20 0.278
696.30 0.2779
696.40 0.2777
696.50 0.2776
696.60 0.2774
696.70 0.2773
696.80 0.2771
696.90 0.277
697.00 0.2768
697.10 0.2766
697.20 0.2765
697.30 0.2763
697.40 0.2762
697.50 0.276
697.60 0.2759
697.70 0.2757
697.80 0.2756
697.90 0.2754
698.00 0.2753
698.10 0.2751
698.20 0.275
698.30 0.2748
698.40 0.2747
698.50 0.2745
698.60 0.2743
698.70 0.2742
698.80 0.274
698.90 0.2739
699.00 0.2737
699.10 0.2736
699.20 0.2734
699.30 0.2733
699.40 0.2731
699.50 0.273
699.60 0.2728
699.70 0.2727
699.80 0.2725
699.90 0.2724
700.00 0.2722
700.10 0.2721
700.20 0.2719
700.30 0.2718
700.40 0.2716
700.50 0.2715
700.60 0.2713
700.70 0.2712
700.80 0.271
700.90 0.2709
701.00 0.2707
701.10 0.2706
701.20 0.2704
701.30 0.2703
701.40 0.2701
701.50 0.27
701.60 0.2698
701.70 0.2697
701.80 0.2695
701.90 0.2694
702.00 0.2692
702.10 0.2691
702.20 0.2689
702.30 0.2688
702.40 0.2686
702.50 0.2685
702.60 0.2683
702.70 0.2682
702.80 0.268
702.90 0.2679
703.00 0.2677
703.10 0.2676
703.20 0.2674
703.30 0.2673
703.40 0.2672
703.50 0.267
703.60 0.2669
703.70 0.2667
703.80 0.2666
703.90 0.2664
704.00 0.2663
704.10 0.2661
704.20 0.266
704.30 0.2658
704.40 0.2657
704.50 0.2655
704.60 0.2654
704.70 0.2652
704.80 0.2651
704.90 0.2649
705.00 0.2648
705.10 0.2647
705.20 0.2645
705.30 0.2644
705.40 0.2642
705.50 0.2641
705.60 0.2639
705.70 0.2638
705.80 0.2636
705.90 0.2635
706.00 0.2633
706.10 0.2632
706.20 0.2631
706.30 0.2629
706.40 0.2628
706.50 0.2626
706.60 0.2625
706.70 0.2623
706.80 0.2622
706.90 0.2621
707.00 0.2619
707.10 0.2618
707.20 0.2616
707.30 0.2615
707.40 0.2613
707.50 0.2612
707.60 0.261
707.70 0.2609
707.80 0.2608
707.90 0.2606
708.00 0.2605
708.10 0.2603
708.20 0.2602
708.30 0.26
708.40 0.2599
708.50 0.2598
708.60 0.2596
708.70 0.2595
708.80 0.2593
708.90 0.2592
709.00 0.2591
709.10 0.2589
709.20 0.2588
709.30 0.2586
709.40 0.2585
709.50 0.2583
709.60 0.2582
709.70 0.2581
709.80 0.2579
709.90 0.2578
710.00 0.2576
710.10 0.2575
710.20 0.2574
710.30 0.2572
710.40 0.2571
710.50 0.2569
710.60 0.2568
710.70 0.2567
710.80 0.2565
710.90 0.2564
711.00 0.2562
711.10 0.2561
711.20 0.256
711.30 0.2558
711.40 0.2557
711.50 0.2555
711.60 0.2554
711.70 0.2553
711.80 0.2551
711.90 0.255
712.00 0.2548
712.10 0.2547
712.20 0.2546
712.30 0.2544
712.40 0.2543
712.50 0.2541
712.60 0.254
712.70 0.2539
712.80 0.2537
712.90 0.2536
713.00 0.2535
713.10 0.2533
713.20 0.2532
713.30 0.253
713.40 0.2529
713.50 0.2528
713.60 0.2526
713.70 0.2525
713.80 0.2524
713.90 0.2522
714.00 0.2521
714.10 0.2519
714.20 0.2518
714.30 0.2517
714.40 0.2515
714.50 0.2514
714.60 0.2513
714.70 0.2511
714.80 0.251
714.90 0.2508
715.00 0.2507
715.10 0.2506
715.20 0.2504
715.30 0.2503
715.40 0.2502
715.50 0.25
715.60 0.2499
715.70 0.2498
715.80 0.2496
715.90 0.2495
716.00 0.2494
716.10 0.2492
716.20 0.2491
716.30 0.249
716.40 0.2488
716.50 0.2487
716.60 0.2485
716.70 0.2484
716.80 0.2483
716.90 0.2481
717.00 0.248
717.10 0.2479
717.20 0.2477
717.30 0.2476
717.40 0.2475
717.50 0.2473
717.60 0.2472
717.70 0.2471
717.80 0.2469
717.90 0.2468
718.00 0.2467
718.10 0.2465
718.20 0.2464
718.30 0.2463
718.40 0.2461
718.50 0.246
718.60 0.2459
718.70 0.2457
718.80 0.2456
718.90 0.2455
719.00 0.2453
719.10 0.2452
719.20 0.2451
719.30 0.2449
719.40 0.2448
719.50 0.2447
719.60 0.2445
719.70 0.2444
719.80 0.2443
719.90 0.2441
720.00 0.244
720.10 0.2439
720.20 0.2438
720.30 0.2436
720.40 0.2435
720.50 0.2434
720.60 0.2432
720.70 0.2431
720.80 0.243
720.90 0.2428
721.00 0.2427
721.10 0.2426
721.20 0.2424
721.30 0.2423
721.40 0.2422
721.50 0.2421
721.60 0.2419
721.70 0.2418
721.80 0.2417
721.90 0.2415
722.00 0.2414
722.10 0.2413
722.20 0.2411
722.30 0.241
722.40 0.2409
722.50 0.2408
722.60 0.2406
722.70 0.2405
722.80 0.2404
722.90 0.2402
723.00 0.2401
723.10 0.24
723.20 0.2399
723.30 0.2397
723.40 0.2396
723.50 0.2395
723.60 0.2393
723.70 0.2392
723.80 0.2391
723.90 0.239
724.00 0.2388
724.10 0.2387
724.20 0.2386
724.30 0.2384
724.40 0.2383
724.50 0.2382
724.60 0.2381
724.70 0.2379
724.80 0.2378
724.90 0.2377
725.00 0.2375
725.10 0.2374
725.20 0.2373
725.30 0.2372
725.40 0.237
725.50 0.2369
725.60 0.2368
725.70 0.2367
725.80 0.2365
725.90 0.2364
726.00 0.2363
726.10 0.2362
726.20 0.236
726.30 0.2359
726.40 0.2358
726.50 0.2356
726.60 0.2355
726.70 0.2354
726.80 0.2353
726.90 0.2351
727.00 0.235
727.10 0.2349
727.20 0.2348
727.30 0.2346
727.40 0.2345
727.50 0.2344
727.60 0.2343
727.70 0.2341
727.80 0.234
727.90 0.2339
728.00 0.2338
728.10 0.2336
728.20 0.2335
728.30 0.2334
728.40 0.2333
728.50 0.2331
728.60 0.233
728.70 0.2329
728.80 0.2328
728.90 0.2326
729.00 0.2325
729.10 0.2324
729.20 0.2323
729.30 0.2322
729.40 0.232
729.50 0.2319
729.60 0.2318
729.70 0.2317
729.80 0.2315
729.90 0.2314
730.00 0.2313
730.10 0.2312
730.20 0.231
730.30 0.2309
730.40 0.2308
730.50 0.2307
730.60 0.2306
730.70 0.2304
730.80 0.2303
730.90 0.2302
731.00 0.2301
731.10 0.2299
731.20 0.2298
731.30 0.2297
731.40 0.2296
731.50 0.2295
731.60 0.2293
731.70 0.2292
731.80 0.2291
731.90 0.229
732.00 0.2289
732.10 0.2287
732.20 0.2286
732.30 0.2285
732.40 0.2284
732.50 0.2283
732.60 0.2281
732.70 0.228
732.80 0.2279
732.90 0.2278
733.00 0.2277
733.10 0.2275
733.20 0.2274
733.30 0.2273
733.40 0.2272
733.50 0.2271
733.60 0.2269
733.70 0.2268
733.80 0.2267
733.90 0.2266
734.00 0.2265
734.10 0.2263
734.20 0.2262
734.30 0.2261
734.40 0.226
734.50 0.2259
734.60 0.2257
734.70 0.2256
734.80 0.2255
734.90 0.2254
735.00 0.2253
735.10 0.2251
735.20 0.225
735.30 0.2249
735.40 0.2248
735.50 0.2247
735.60 0.2245
735.70 0.2244
735.80 0.2243
735.90 0.2242
736.00 0.2241
736.10 0.224
736.20 0.2238
736.30 0.2237
736.40 0.2236
736.50 0.2235
736.60 0.2234
736.70 0.2232
736.80 0.2231
736.90 0.223
737.00 0.2229
737.10 0.2228
737.20 0.2227
737.30 0.2225
737.40 0.2224
737.50 0.2223
737.60 0.2222
737.70 0.2221
737.80 0.2219
737.90 0.2218
738.00 0.2217
738.10 0.2216
738.20 0.2215
738.30 0.2214
738.40 0.2212
738.50 0.2211
738.60 0.221
738.70 0.2209
738.80 0.2208
738.90 0.2207
739.00 0.2205
739.10 0.2204
739.20 0.2203
739.30 0.2202
739.40 0.2201
739.50 0.22
739.60 0.2198
739.70 0.2197
739.80 0.2196
739.90 0.2195
740.00 0.2194
740.10 0.2193
740.20 0.2192
740.30 0.219
740.40 0.2189
740.50 0.2188
740.60 0.2187
740.70 0.2186
740.80 0.2185
740.90 0.2184
741.00 0.2182
741.10 0.2181
741.20 0.218
741.30 0.2179
741.40 0.2178
741.50 0.2177
741.60 0.2176
741.70 0.2174
741.80 0.2173
741.90 0.2172
742.00 0.2171
742.10 0.217
742.20 0.2169
742.30 0.2168
742.40 0.2167
742.50 0.2165
742.60 0.2164
742.70 0.2163
742.80 0.2162
742.90 0.2161
743.00 0.216
743.10 0.2159
743.20 0.2158
743.30 0.2156
743.40 0.2155
743.50 0.2154
743.60 0.2153
743.70 0.2152
743.80 0.2151
743.90 0.215
744.00 0.2149
744.10 0.2147
744.20 0.2146
744.30 0.2145
744.40 0.2144
744.50 0.2143
744.60 0.2142
744.70 0.2141
744.80 0.214
744.90 0.2138
745.00 0.2137
745.10 0.2136
745.20 0.2135
745.30 0.2134
745.40 0.2133
745.50 0.2132
745.60 0.2131
745.70 0.213
745.80 0.2128
745.90 0.2127
746.00 0.2126
746.10 0.2125
746.20 0.2124
746.30 0.2123
746.40 0.2122
746.50 0.2121
746.60 0.212
746.70 0.2119
746.80 0.2117
746.90 0.2116
747.00 0.2115
747.10 0.2114
747.20 0.2113
747.30 0.2112
747.40 0.2111
747.50 0.211
747.60 0.2109
747.70 0.2107
747.80 0.2106
747.90 0.2105
748.00 0.2104
748.10 0.2103
748.20 0.2102
748.30 0.2101
748.40 0.21
748.50 0.2099
748.60 0.2098
748.70 0.2096
748.80 0.2095
748.90 0.2094
749.00 0.2093
749.10 0.2092
749.20 0.2091
749.30 0.209
749.40 0.2089
749.50 0.2088
749.60 0.2087
749.70 0.2086
749.80 0.2084
749.90 0.2083
750.00 0.2082
750.10 0.2081
750.20 0.208
750.30 0.2079
750.40 0.2078
750.50 0.2077
750.60 0.2076
750.70 0.2075
750.80 0.2074
750.90 0.2073
751.00 0.2072
751.10 0.2071
751.20 0.2069
751.30 0.2068
751.40 0.2067
751.50 0.2066
751.60 0.2065
751.70 0.2064
751.80 0.2063
751.90 0.2062
752.00 0.2061
752.10 0.206
752.20 0.2059
752.30 0.2058
752.40 0.2057
752.50 0.2056
752.60 0.2055
752.70 0.2054
752.80 0.2053
752.90 0.2051
753.00 0.205
753.10 0.2049
753.20 0.2048
753.30 0.2047
753.40 0.2046
753.50 0.2045
753.60 0.2044
753.70 0.2043
753.80 0.2042
753.90 0.2041
754.00 0.204
754.10 0.2039
754.20 0.2038
754.30 0.2037
754.40 0.2036
754.50 0.2035
754.60 0.2034
754.70 0.2033
754.80 0.2032
754.90 0.203
755.00 0.2029
755.10 0.2028
755.20 0.2027
755.30 0.2026
755.40 0.2025
755.50 0.2024
755.60 0.2023
755.70 0.2022
755.80 0.2021
755.90 0.202
756.00 0.2019
756.10 0.2018
756.20 0.2017
756.30 0.2016
756.40 0.2015
756.50 0.2014
756.60 0.2013
756.70 0.2012
756.80 0.2011
756.90 0.201
757.00 0.2009
757.10 0.2008
757.20 0.2007
757.30 0.2006
757.40 0.2005
757.50 0.2003
757.60 0.2002
757.70 0.2001
757.80 0.2
757.90 0.1999
758.00 0.1998
758.10 0.1997
758.20 0.1996
758.30 0.1995
758.40 0.1994
758.50 0.1993
758.60 0.1992
758.70 0.1991
758.80 0.199
758.90 0.1989
759.00 0.1988
759.10 0.1987
759.20 0.1986
759.30 0.1985
759.40 0.1984
759.50 0.1983
759.60 0.1982
759.70 0.1981
759.80 0.198
759.90 0.1979
760.00 0.1978
760.10 0.1977
760.20 0.1976
760.30 0.1975
760.40 0.1974
760.50 0.1973
760.60 0.1972
760.70 0.1971
760.80 0.197
760.90 0.1969
761.00 0.1968
761.10 0.1967
761.20 0.1966
761.30 0.1965
761.40 0.1964
761.50 0.1963
761.60 0.1962
761.70 0.1961
761.80 0.196
761.90 0.1959
762.00 0.1958
762.10 0.1957
762.20 0.1956
762.30 0.1955
762.40 0.1954
762.50 0.1953
762.60 0.1952
762.70 0.1951
762.80 0.195
762.90 0.1949
763.00 0.1948
763.10 0.1947
763.20 0.1946
763.30 0.1945
763.40 0.1944
763.50 0.1943
763.60 0.1942
763.70 0.1941
763.80 0.194
763.90 0.1939
764.00 0.1938
764.10 0.1937
764.20 0.1936
764.30 0.1935
764.40 0.1934
764.50 0.1933
764.60 0.1932
764.70 0.1931
764.80 0.193
764.90 0.1929
765.00 0.1928
765.10 0.1927
765.20 0.1926
765.30 0.1925
765.40 0.1924
765.50 0.1923
765.60 0.1922
765.70 0.1921
765.80 0.192
765.90 0.1919
766.00 0.1918
766.10 0.1917
766.20 0.1917
766.30 0.1916
766.40 0.1915
766.50 0.1914
766.60 0.1913
766.70 0.1912
766.80 0.1911
766.90 0.191
767.00 0.1909
767.10 0.1908
767.20 0.1907
767.30 0.1906
767.40 0.1905
767.50 0.1904
767.60 0.1903
767.70 0.1902
767.80 0.1901
767.90 0.19
768.00 0.1899
768.10 0.1898
768.20 0.1897
768.30 0.1896
768.40 0.1895
768.50 0.1894
768.60 0.1893
768.70 0.1892
768.80 0.1891
768.90 0.189
769.00 0.1889
769.10 0.1888
769.20 0.1887
769.30 0.1887
769.40 0.1886
769.50 0.1885
769.60 0.1884
769.70 0.1883
769.80 0.1882
769.90 0.1881
770.00 0.188
770.10 0.1879
770.20 0.1878
770.30 0.1877
770.40 0.1876
770.50 0.1875
770.60 0.1874
770.70 0.1873
770.80 0.1872
770.90 0.1871
771.00 0.187
771.10 0.1869
771.20 0.1869
771.30 0.1868
771.40 0.1867
771.50 0.1866
771.60 0.1865
771.70 0.1864
771.80 0.1863
771.90 0.1862
772.00 0.1861
772.10 0.186
772.20 0.1859
772.30 0.1858
772.40 0.1857
772.50 0.1856
772.60 0.1855
772.70 0.1855
772.80 0.1854
772.90 0.1853
773.00 0.1852
773.10 0.1851
773.20 0.185
773.30 0.1849
773.40 0.1848
773.50 0.1847
773.60 0.1846
773.70 0.1845
773.80 0.1844
773.90 0.1843
774.00 0.1842
774.10 0.1842
774.20 0.1841
774.30 0.184
774.40 0.1839
774.50 0.1838
774.60 0.1837
774.70 0.1836
774.80 0.1835
774.90 0.1834
775.00 0.1833
775.10 0.1832
775.20 0.1831
775.30 0.1831
775.40 0.183
775.50 0.1829
775.60 0.1828
775.70 0.1827
775.80 0.1826
775.90 0.1825
776.00 0.1824
776.10 0.1823
776.20 0.1822
776.30 0.1821
776.40 0.182
776.50 0.182
776.60 0.1819
776.70 0.1818
776.80 0.1817
776.90 0.1816
777.00 0.1815
777.10 0.1814
777.20 0.1813
777.30 0.1812
777.40 0.1811
777.50 0.181
777.60 0.1809
777.70 0.1809
777.80 0.1808
777.90 0.1807
778.00 0.1806
778.10 0.1805
778.20 0.1804
778.30 0.1803
778.40 0.1802
778.50 0.1801
778.60 0.18
778.70 0.18
778.80 0.1799
778.90 0.1798
779.00 0.1797
779.10 0.1796
779.20 0.1795
779.30 0.1794
779.40 0.1793
779.50 0.1792
779.60 0.1791
779.70 0.179
779.80 0.179
779.90 0.1789
780.00 0.1788
780.10 0.1787
780.20 0.1786
780.30 0.1785
780.40 0.1784
780.50 0.1783
780.60 0.1783
780.70 0.1782
780.80 0.1781
780.90 0.178
781.00 0.1779
781.10 0.1778
781.20 0.1777
781.30 0.1776
781.40 0.1775
781.50 0.1775
781.60 0.1774
781.70 0.1773
781.80 0.1772
781.90 0.1771
782.00 0.177
782.10 0.1769
782.20 0.1768
782.30 0.1768
782.40 0.1767
782.50 0.1766
782.60 0.1765
782.70 0.1764
782.80 0.1763
782.90 0.1762
783.00 0.1761
783.10 0.1761
783.20 0.176
783.30 0.1759
783.40 0.1758
783.50 0.1757
783.60 0.1756
783.70 0.1755
783.80 0.1755
783.90 0.1754
784.00 0.1753
784.10 0.1752
784.20 0.1751
784.30 0.175
784.40 0.1749
784.50 0.1748
784.60 0.1748
784.70 0.1747
784.80 0.1746
784.90 0.1745
785.00 0.1744
785.10 0.1743
785.20 0.1742
785.30 0.1742
785.40 0.1741
785.50 0.174
785.60 0.1739
785.70 0.1738
785.80 0.1737
785.90 0.1736
786.00 0.1735
786.10 0.1735
786.20 0.1734
786.30 0.1733
786.40 0.1732
786.50 0.1731
786.60 0.173
786.70 0.1729
786.80 0.1729
786.90 0.1728
787.00 0.1727
787.10 0.1726
787.20 0.1725
787.30 0.1724
787.40 0.1723
787.50 0.1723
787.60 0.1722
787.70 0.1721
787.80 0.172
787.90 0.1719
788.00 0.1718
788.10 0.1717
788.20 0.1717
788.30 0.1716
788.40 0.1715
788.50 0.1714
788.60 0.1713
788.70 0.1712
788.80 0.1712
788.90 0.1711
789.00 0.171
789.10 0.1709
789.20 0.1708
789.30 0.1707
789.40 0.1706
789.50 0.1706
789.60 0.1705
789.70 0.1704
789.80 0.1703
789.90 0.1702
790.00 0.1701
790.10 0.1701
790.20 0.17
790.30 0.1699
790.40 0.1698
790.50 0.1697
790.60 0.1696
790.70 0.1696
790.80 0.1695
790.90 0.1694
791.00 0.1693
791.10 0.1692
791.20 0.1691
791.30 0.1691
791.40 0.169
791.50 0.1689
791.60 0.1688
791.70 0.1687
791.80 0.1686
791.90 0.1686
792.00 0.1685
792.10 0.1684
792.20 0.1683
792.30 0.1682
792.40 0.1682
792.50 0.1681
792.60 0.168
792.70 0.1679
792.80 0.1678
792.90 0.1677
793.00 0.1677
793.10 0.1676
793.20 0.1675
793.30 0.1674
793.40 0.1673
793.50 0.1673
793.60 0.1672
793.70 0.1671
793.80 0.167
793.90 0.1669
794.00 0.1668
794.10 0.1668
794.20 0.1667
794.30 0.1666
794.40 0.1665
794.50 0.1664
794.60 0.1664
794.70 0.1663
794.80 0.1662
794.90 0.1661
795.00 0.166
795.10 0.1659
795.20 0.1659
795.30 0.1658
795.40 0.1657
795.50 0.1656
795.60 0.1655
795.70 0.1655
795.80 0.1654
795.90 0.1653
796.00 0.1652
796.10 0.1651
796.20 0.1651
796.30 0.165
796.40 0.1649
796.50 0.1648
796.60 0.1647
796.70 0.1647
796.80 0.1646
796.90 0.1645
797.00 0.1644
797.10 0.1643
797.20 0.1643
797.30 0.1642
797.40 0.1641
797.50 0.164
797.60 0.1639
797.70 0.1638
797.80 0.1638
797.90 0.1637
798.00 0.1636
798.10 0.1635
798.20 0.1634
798.30 0.1634
798.40 0.1633
798.50 0.1632
798.60 0.1631
798.70 0.163
798.80 0.163
798.90 0.1629
799.00 0.1628
799.10 0.1627
799.20 0.1626
799.30 0.1626
799.40 0.1625
799.50 0.1624
799.60 0.1623
799.70 0.1622
799.80 0.1622
799.90 0.1621
800.00 0.162
800.10 0.1619
800.20 0.1619
800.30 0.1618
800.40 0.1617
800.50 0.1616
800.60 0.1615
800.70 0.1615
800.80 0.1614
800.90 0.1613
801.00 0.1612
801.10 0.1612
801.20 0.1611
801.30 0.161
801.40 0.1609
801.50 0.1608
801.60 0.1608
801.70 0.1607
801.80 0.1606
801.90 0.1605
802.00 0.1605
802.10 0.1604
802.20 0.1603
802.30 0.1602
802.40 0.1601
802.50 0.1601
802.60 0.16
802.70 0.1599
802.80 0.1598
802.90 0.1598
803.00 0.1597
803.10 0.1596
803.20 0.1595
803.30 0.1595
803.40 0.1594
803.50 0.1593
803.60 0.1592
803.70 0.1591
803.80 0.1591
803.90 0.159
804.00 0.1589
804.10 0.1588
804.20 0.1588
804.30 0.1587
804.40 0.1586
804.50 0.1585
804.60 0.1585
804.70 0.1584
804.80 0.1583
804.90 0.1582
805.00 0.1581
805.10 0.1581
805.20 0.158
805.30 0.1579
805.40 0.1578
805.50 0.1578
805.60 0.1577
805.70 0.1576
805.80 0.1575
805.90 0.1575
806.00 0.1574
806.10 0.1573
806.20 0.1572
806.30 0.1572
806.40 0.1571
806.50 0.157
806.60 0.1569
806.70 0.1569
806.80 0.1568
806.90 0.1567
807.00 0.1566
807.10 0.1565
807.20 0.1565
807.30 0.1564
807.40 0.1563
807.50 0.1562
807.60 0.1562
807.70 0.1561
807.80 0.156
807.90 0.1559
808.00 0.1559
808.10 0.1558
808.20 0.1557
808.30 0.1556
808.40 0.1556
808.50 0.1555
808.60 0.1554
808.70 0.1553
808.80 0.1553
808.90 0.1552
809.00 0.1551
809.10 0.155
809.20 0.155
809.30 0.1549
809.40 0.1548
809.50 0.1547
809.60 0.1547
809.70 0.1546
809.80 0.1545
809.90 0.1544
810.00 0.1544
810.10 0.1543
810.20 0.1542
810.30 0.1541
810.40 0.1541
810.50 0.154
810.60 0.1539
810.70 0.1539
810.80 0.1538
810.90 0.1537
811.00 0.1536
811.10 0.1536
811.20 0.1535
811.30 0.1534
811.40 0.1533
811.50 0.1533
811.60 0.1532
811.70 0.1531
811.80 0.153
811.90 0.153
812.00 0.1529
812.10 0.1528
812.20 0.1528
812.30 0.1527
812.40 0.1526
812.50 0.1525
812.60 0.1525
812.70 0.1524
812.80 0.1523
812.90 0.1522
813.00 0.1522
813.10 0.1521
813.20 0.152
813.30 0.152
813.40 0.1519
813.50 0.1518
813.60 0.1517
813.70 0.1517
813.80 0.1516
813.90 0.1515
814.00 0.1514
814.10 0.1514
814.20 0.1513
814.30 0.1512
814.40 0.1512
814.50 0.1511
814.60 0.151
814.70 0.1509
814.80 0.1509
814.90 0.1508
815.00 0.1507
815.10 0.1507
815.20 0.1506
815.30 0.1505
815.40 0.1504
815.50 0.1504
815.60 0.1503
815.70 0.1502
815.80 0.1502
815.90 0.1501
816.00 0.15
816.10 0.1499
816.20 0.1499
816.30 0.1498
816.40 0.1497
816.50 0.1497
816.60 0.1496
816.70 0.1495
816.80 0.1494
816.90 0.1494
817.00 0.1493
817.10 0.1492
817.20 0.1492
817.30 0.1491
817.40 0.149
817.50 0.1489
817.60 0.1489
817.70 0.1488
817.80 0.1487
817.90 0.1487
818.00 0.1486
818.10 0.1485
818.20 0.1484
818.30 0.1484
818.40 0.1483
818.50 0.1482
818.60 0.1482
818.70 0.1481
818.80 0.148
818.90 0.1479
819.00 0.1479
819.10 0.1478
819.20 0.1477
819.30 0.1477
819.40 0.1476
819.50 0.1475
819.60 0.1474
819.70 0.1474
819.80 0.1473
819.90 0.1472
820.00 0.1472
820.10 0.1471
820.20 0.147
820.30 0.147
820.40 0.1469
820.50 0.1468
820.60 0.1467
820.70 0.1467
820.80 0.1466
820.90 0.1465
821.00 0.1465
821.10 0.1464
821.20 0.1463
821.30 0.1463
821.40 0.1462
821.50 0.1461
821.60 0.1461
821.70 0.146
821.80 0.1459
821.90 0.1458
822.00 0.1458
822.10 0.1457
822.20 0.1456
822.30 0.1456
822.40 0.1455
822.50 0.1454
822.60 0.1454
822.70 0.1453
822.80 0.1452
822.90 0.1452
823.00 0.1451
823.10 0.145
823.20 0.145
823.30 0.1449
823.40 0.1448
823.50 0.1447
823.60 0.1447
823.70 0.1446
823.80 0.1445
823.90 0.1445
824.00 0.1444
824.10 0.1443
824.20 0.1443
824.30 0.1442
824.40 0.1441
824.50 0.1441
824.60 0.144
824.70 0.1439
824.80 0.1439
824.90 0.1438
825.00 0.1437
825.10 0.1437
825.20 0.1436
825.30 0.1435
825.40 0.1435
825.50 0.1434
825.60 0.1433
825.70 0.1433
825.80 0.1432
825.90 0.1431
826.00 0.1431
826.10 0.143
826.20 0.1429
826.30 0.1428
826.40 0.1428
826.50 0.1427
826.60 0.1426
826.70 0.1426
826.80 0.1425
826.90 0.1424
827.00 0.1424
827.10 0.1423
827.20 0.1422
827.30 0.1422
827.40 0.1421
827.50 0.142
827.60 0.142
827.70 0.1419
827.80 0.1418
827.90 0.1418
828.00 0.1417
828.10 0.1416
828.20 0.1416
828.30 0.1415
828.40 0.1414
828.50 0.1414
828.60 0.1413
828.70 0.1412
828.80 0.1412
828.90 0.1411
829.00 0.141
829.10 0.141
829.20 0.1409
829.30 0.1408
829.40 0.1408
829.50 0.1407
829.60 0.1406
829.70 0.1406
829.80 0.1405
829.90 0.1405
830.00 0.1404
830.10 0.1403
830.20 0.1403
830.30 0.1402
830.40 0.1401
830.50 0.1401
830.60 0.14
830.70 0.1399
830.80 0.1399
830.90 0.1398
831.00 0.1397
831.10 0.1397
831.20 0.1396
831.30 0.1395
831.40 0.1395
831.50 0.1394
831.60 0.1393
831.70 0.1393
831.80 0.1392
831.90 0.1391
832.00 0.1391
832.10 0.139
832.20 0.1389
832.30 0.1389
832.40 0.1388
832.50 0.1387
832.60 0.1387
832.70 0.1386
832.80 0.1386
832.90 0.1385
833.00 0.1384
833.10 0.1384
833.20 0.1383
833.30 0.1382
833.40 0.1382
833.50 0.1381
833.60 0.138
833.70 0.138
833.80 0.1379
833.90 0.1378
834.00 0.1378
834.10 0.1377
834.20 0.1377
834.30 0.1376
834.40 0.1375
834.50 0.1375
834.60 0.1374
834.70 0.1373
834.80 0.1373
834.90 0.1372
835.00 0.1371
835.10 0.1371
835.20 0.137
835.30 0.1369
835.40 0.1369
835.50 0.1368
835.60 0.1368
835.70 0.1367
835.80 0.1366
835.90 0.1366
836.00 0.1365
836.10 0.1364
836.20 0.1364
836.30 0.1363
836.40 0.1362
836.50 0.1362
836.60 0.1361
836.70 0.1361
836.80 0.136
836.90 0.1359
837.00 0.1359
837.10 0.1358
837.20 0.1357
837.30 0.1357
837.40 0.1356
837.50 0.1355
837.60 0.1355
837.70 0.1354
837.80 0.1354
837.90 0.1353
838.00 0.1352
838.10 0.1352
838.20 0.1351
838.30 0.135
838.40 0.135
838.50 0.1349
838.60 0.1349
838.70 0.1348
838.80 0.1347
838.90 0.1347
839.00 0.1346
839.10 0.1345
839.20 0.1345
839.30 0.1344
839.40 0.1344
839.50 0.1343
839.60 0.1342
839.70 0.1342
839.80 0.1341
839.90 0.134
840.00 0.134
840.10 0.1339
840.20 0.1339
840.30 0.1338
840.40 0.1337
840.50 0.1337
840.60 0.1336
840.70 0.1335
840.80 0.1335
840.90 0.1334
841.00 0.1334
841.10 0.1333
841.20 0.1332
841.30 0.1332
841.40 0.1331
841.50 0.133
841.60 0.133
841.70 0.1329
841.80 0.1329
841.90 0.1328
842.00 0.1327
842.10 0.1327
842.20 0.1326
842.30 0.1326
842.40 0.1325
842.50 0.1324
842.60 0.1324
842.70 0.1323
842.80 0.1323
842.90 0.1322
843.00 0.1321
843.10 0.1321
843.20 0.132
843.30 0.1319
843.40 0.1319
843.50 0.1318
843.60 0.1318
843.70 0.1317
843.80 0.1316
843.90 0.1316
844.00 0.1315
844.10 0.1315
844.20 0.1314
844.30 0.1313
844.40 0.1313
844.50 0.1312
844.60 0.1312
844.70 0.1311
844.80 0.131
844.90 0.131
845.00 0.1309
845.10 0.1309
845.20 0.1308
845.30 0.1307
845.40 0.1307
845.50 0.1306
845.60 0.1306
845.70 0.1305
845.80 0.1304
845.90 0.1304
846.00 0.1303
846.10 0.1303
846.20 0.1302
846.30 0.1301
846.40 0.1301
846.50 0.13
846.60 0.13
846.70 0.1299
846.80 0.1298
846.90 0.1298
847.00 0.1297
847.10 0.1297
847.20 0.1296
847.30 0.1295
847.40 0.1295
847.50 0.1294
847.60 0.1294
847.70 0.1293
847.80 0.1292
847.90 0.1292
848.00 0.1291
848.10 0.1291
848.20 0.129
848.30 0.1289
848.40 0.1289
848.50 0.1288
848.60 0.1288
848.70 0.1287
848.80 0.1286
848.90 0.1286
849.00 0.1285
849.10 0.1285
849.20 0.1284
849.30 0.1283
849.40 0.1283
849.50 0.1282
849.60 0.1282
849.70 0.1281
849.80 0.1281
849.90 0.128
850.00 0.1279
850.10 0.1279
850.20 0.1278
850.30 0.1278
850.40 0.1277
850.50 0.1276
850.60 0.1276
850.70 0.1275
850.80 0.1275
850.90 0.1274
851.00 0.1274
851.10 0.1273
851.20 0.1272
851.30 0.1272
851.40 0.1271
851.50 0.1271
851.60 0.127
851.70 0.1269
851.80 0.1269
851.90 0.1268
852.00 0.1268
852.10 0.1267
852.20 0.1267
852.30 0.1266
852.40 0.1265
852.50 0.1265
852.60 0.1264
852.70 0.1264
852.80 0.1263
852.90 0.1262
853.00 0.1262
853.10 0.1261
853.20 0.1261
853.30 0.126
853.40 0.126
853.50 0.1259
853.60 0.1258
853.70 0.1258
853.80 0.1257
853.90 0.1257
854.00 0.1256
854.10 0.1256
854.20 0.1255
854.30 0.1254
854.40 0.1254
854.50 0.1253
854.60 0.1253
854.70 0.1252
854.80 0.1252
854.90 0.1251
855.00 0.125
855.10 0.125
855.20 0.1249
855.30 0.1249
855.40 0.1248
855.50 0.1248
855.60 0.1247
855.70 0.1246
855.80 0.1246
855.90 0.1245
856.00 0.1245
856.10 0.1244
856.20 0.1244
856.30 0.1243
856.40 0.1242
856.50 0.1242
856.60 0.1241
856.70 0.1241
856.80 0.124
856.90 0.124
857.00 0.1239
857.10 0.1239
857.20 0.1238
857.30 0.1237
857.40 0.1237
857.50 0.1236
857.60 0.1236
857.70 0.1235
857.80 0.1235
857.90 0.1234
858.00 0.1233
858.10 0.1233
858.20 0.1232
858.30 0.1232
858.40 0.1231
858.50 0.1231
858.60 0.123
858.70 0.123
858.80 0.1229
858.90 0.1228
859.00 0.1228
859.10 0.1227
859.20 0.1227
859.30 0.1226
859.40 0.1226
859.50 0.1225
859.60 0.1225
859.70 0.1224
859.80 0.1223
859.90 0.1223
860.00 0.1222
860.10 0.1222
860.20 0.1221
860.30 0.1221
860.40 0.122
860.50 0.122
860.60 0.1219
860.70 0.1218
860.80 0.1218
860.90 0.1217
861.00 0.1217
861.10 0.1216
861.20 0.1216
861.30 0.1215
861.40 0.1215
861.50 0.1214
861.60 0.1214
861.70 0.1213
861.80 0.1212
861.90 0.1212
862.00 0.1211
862.10 0.1211
862.20 0.121
862.30 0.121
862.40 0.1209
862.50 0.1209
862.60 0.1208
862.70 0.1208
862.80 0.1207
862.90 0.1206
863.00 0.1206
863.10 0.1205
863.20 0.1205
863.30 0.1204
863.40 0.1204
863.50 0.1203
863.60 0.1203
863.70 0.1202
863.80 0.1202
863.90 0.1201
864.00 0.12
864.10 0.12
864.20 0.1199
864.30 0.1199
864.40 0.1198
864.50 0.1198
864.60 0.1197
864.70 0.1197
864.80 0.1196
864.90 0.1196
865.00 0.1195
865.10 0.1195
865.20 0.1194
865.30 0.1193
865.40 0.1193
865.50 0.1192
865.60 0.1192
865.70 0.1191
865.80 0.1191
865.90 0.119
866.00 0.119
866.10 0.1189
866.20 0.1189
866.30 0.1188
866.40 0.1188
866.50 0.1187
866.60 0.1187
866.70 0.1186
866.80 0.1185
866.90 0.1185
867.00 0.1184
867.10 0.1184
867.20 0.1183
867.30 0.1183
867.40 0.1182
867.50 0.1182
867.60 0.1181
867.70 0.1181
867.80 0.118
867.90 0.118
868.00 0.1179
868.10 0.1179
868.20 0.1178
868.30 0.1178
868.40 0.1177
868.50 0.1176
868.60 0.1176
868.70 0.1175
868.80 0.1175
868.90 0.1174
869.00 0.1174
869.10 0.1173
869.20 0.1173
869.30 0.1172
869.40 0.1172
869.50 0.1171
869.60 0.1171
869.70 0.117
869.80 0.117
869.90 0.1169
870.00 0.1169
870.10 0.1168
870.20 0.1168
870.30 0.1167
870.40 0.1166
870.50 0.1166
870.60 0.1165
870.70 0.1165
870.80 0.1164
870.90 0.1164
871.00 0.1163
871.10 0.1163
871.20 0.1162
871.30 0.1162
871.40 0.1161
871.50 0.1161
871.60 0.116
871.70 0.116
871.80 0.1159
871.90 0.1159
872.00 0.1158
872.10 0.1158
872.20 0.1157
872.30 0.1157
872.40 0.1156
872.50 0.1156
872.60 0.1155
872.70 0.1155
872.80 0.1154
872.90 0.1154
873.00 0.1153
873.10 0.1153
873.20 0.1152
873.30 0.1151
873.40 0.1151
873.50 0.115
873.60 0.115
873.70 0.1149
873.80 0.1149
873.90 0.1148
874.00 0.1148
874.10 0.1147
874.20 0.1147
874.30 0.1146
874.40 0.1146
874.50 0.1145
874.60 0.1145
874.70 0.1144
874.80 0.1144
874.90 0.1143
875.00 0.1143
875.10 0.1142
875.20 0.1142
875.30 0.1141
875.40 0.1141
875.50 0.114
875.60 0.114
875.70 0.1139
875.80 0.1139
875.90 0.1138
876.00 0.1138
876.10 0.1137
876.20 0.1137
876.30 0.1136
876.40 0.1136
876.50 0.1135
876.60 0.1135
876.70 0.1134
876.80 0.1134
876.90 0.1133
877.00 0.1133
877.10 0.1132
877.20 0.1132
877.30 0.1131
877.40 0.1131
877.50 0.113
877.60 0.113
877.70 0.1129
877.80 0.1129
877.90 0.1128
878.00 0.1128
878.10 0.1127
878.20 0.1127
878.30 0.1126
878.40 0.1126
878.50 0.1125
878.60 0.1125
878.70 0.1124
878.80 0.1124
878.90 0.1123
879.00 0.1123
879.10 0.1122
879.20 0.1122
879.30 0.1121
879.40 0.1121
879.50 0.112
879.60 0.112
879.70 0.1119
879.80 0.1119
879.90 0.1118
880.00 0.1118
880.10 0.1117
880.20 0.1117
880.30 0.1116
880.40 0.1116
880.50 0.1115
880.60 0.1115
880.70 0.1114
880.80 0.1114
880.90 0.1113
881.00 0.1113
881.10 0.1112
881.20 0.1112
881.30 0.1111
881.40 0.1111
881.50 0.111
881.60 0.111
881.70 0.1109
881.80 0.1109
881.90 0.1108
882.00 0.1108
882.10 0.1107
882.20 0.1107
882.30 0.1106
882.40 0.1106
882.50 0.1105
882.60 0.1105
882.70 0.1105
882.80 0.1104
882.90 0.1104
883.00 0.1103
883.10 0.1103
883.20 0.1102
883.30 0.1102
883.40 0.1101
883.50 0.1101
883.60 0.11
883.70 0.11
883.80 0.1099
883.90 0.1099
884.00 0.1098
884.10 0.1098
884.20 0.1097
884.30 0.1097
884.40 0.1096
884.50 0.1096
884.60 0.1095
884.70 0.1095
884.80 0.1094
884.90 0.1094
885.00 0.1093
885.10 0.1093
885.20 0.1092
885.30 0.1092
885.40 0.1091
885.50 0.1091
885.60 0.1091
885.70 0.109
885.80 0.109
885.90 0.1089
886.00 0.1089
886.10 0.1088
886.20 0.1088
886.30 0.1087
886.40 0.1087
886.50 0.1086
886.60 0.1086
886.70 0.1085
886.80 0.1085
886.90 0.1084
887.00 0.1084
887.10 0.1083
887.20 0.1083
887.30 0.1082
887.40 0.1082
887.50 0.1082
887.60 0.1081
887.70 0.1081
887.80 0.108
887.90 0.108
888.00 0.1079
888.10 0.1079
888.20 0.1078
888.30 0.1078
888.40 0.1077
888.50 0.1077
888.60 0.1076
888.70 0.1076
888.80 0.1075
888.90 0.1075
889.00 0.1074
889.10 0.1074
889.20 0.1074
889.30 0.1073
889.40 0.1073
889.50 0.1072
889.60 0.1072
889.70 0.1071
889.80 0.1071
889.90 0.107
890.00 0.107
890.10 0.1069
890.20 0.1069
890.30 0.1068
890.40 0.1068
890.50 0.1068
890.60 0.1067
890.70 0.1067
890.80 0.1066
890.90 0.1066
891.00 0.1065
891.10 0.1065
891.20 0.1064
891.30 0.1064
891.40 0.1063
891.50 0.1063
891.60 0.1062
891.70 0.1062
891.80 0.1061
891.90 0.1061
892.00 0.1061
892.10 0.106
892.20 0.106
892.30 0.1059
892.40 0.1059
892.50 0.1058
892.60 0.1058
892.70 0.1057
892.80 0.1057
892.90 0.1056
893.00 0.1056
893.10 0.1055
893.20 0.1055
893.30 0.1054
893.40 0.1054
893.50 0.1054
893.60 0.1053
893.70 0.1053
893.80 0.1052
893.90 0.1052
894.00 0.1051
894.10 0.1051
894.20 0.105
894.30 0.105
894.40 0.1049
894.50 0.1049
894.60 0.1048
894.70 0.1048
894.80 0.1048
894.90 0.1047
895.00 0.1047
895.10 0.1046
895.20 0.1046
895.30 0.1045
895.40 0.1045
895.50 0.1044
895.60 0.1044
895.70 0.1043
895.80 0.1043
895.90 0.1042
896.00 0.1042
896.10 0.1042
896.20 0.1041
896.30 0.1041
896.40 0.104
896.50 0.104
896.60 0.1039
896.70 0.1039
896.80 0.1038
896.90 0.1038
897.00 0.1037
897.10 0.1037
897.20 0.1036
897.30 0.1036
897.40 0.1036
897.50 0.1035
897.60 0.1035
897.70 0.1034
897.80 0.1034
897.90 0.1033
898.00 0.1033
898.10 0.1032
898.20 0.1032
898.30 0.1031
898.40 0.1031
898.50 0.1031
898.60 0.103
898.70 0.103
898.80 0.1029
898.90 0.1029
899.00 0.1028
899.10 0.1028
899.20 0.1027
899.30 0.1027
899.40 0.1026
899.50 0.1026
899.60 0.1026
899.70 0.1025
899.80 0.1025
899.90 0.1024
900.00 0.1024
900.10 0.1023
900.20 0.1023
900.30 0.1022
900.40 0.1022
900.50 0.1021
900.60 0.1021
900.70 0.1021
900.80 0.102
900.90 0.102
901.00 0.1019
901.10 0.1019
901.20 0.1018
901.30 0.1018
901.40 0.1017
901.50 0.1017
901.60 0.1017
901.70 0.1016
901.80 0.1016
901.90 0.1015
902.00 0.1015
902.10 0.1014
902.20 0.1014
902.30 0.1014
902.40 0.1013
902.50 0.1013
902.60 0.1012
902.70 0.1012
902.80 0.1011
902.90 0.1011
903.00 0.1011
903.10 0.101
903.20 0.101
903.30 0.1009
903.40 0.1009
903.50 0.1008
903.60 0.1008
903.70 0.1008
903.80 0.1007
903.90 0.1007
904.00 0.1006
904.10 0.1006
904.20 0.1006
904.30 0.1005
904.40 0.1005
904.50 0.1004
904.60 0.1004
904.70 0.1004
904.80 0.1003
904.90 0.1003
905.00 0.1002
905.10 0.1002
905.20 0.1001
905.30 0.1001
905.40 0.1001
905.50 0.1
905.60 0.09998
905.70 0.09994
905.80 0.0999
905.90 0.09985
906.00 0.09981
906.10 0.09977
906.20 0.09973
906.30 0.09969
906.40 0.09965
906.50 0.09961
906.60 0.09957
906.70 0.09952
906.80 0.09948
906.90 0.09944
907.00 0.0994
907.10 0.09936
907.20 0.09932
907.30 0.09928
907.40 0.09923
907.50 0.09919
907.60 0.09915
907.70 0.09911
907.80 0.09907
907.90 0.09903
908.00 0.09898
908.10 0.09894
908.20 0.0989
908.30 0.09886
908.40 0.09882
908.50 0.09878
908.60 0.09873
908.70 0.09869
908.80 0.09865
908.90 0.09861
909.00 0.09857
909.10 0.09853
909.20 0.09849
909.30 0.09844
909.40 0.0984
909.50 0.09836
909.60 0.09832
909.70 0.09828
909.80 0.09824
909.90 0.0982
910.00 0.09816
910.10 0.09811
910.20 0.09807
910.30 0.09803
910.40 0.09799
910.50 0.09795
910.60 0.09791
910.70 0.09787
910.80 0.09783
910.90 0.09778
911.00 0.09774
911.10 0.0977
911.20 0.09766
911.30 0.09762
911.40 0.09758
911.50 0.09754
911.60 0.0975
911.70 0.09746
911.80 0.09741
911.90 0.09737
912.00 0.09733
912.10 0.09729
912.20 0.09725
912.30 0.0972
912.40 0.09716
912.50 0.09712
912.60 0.09707
912.70 0.09703
912.80 0.09699
912.90 0.09695
913.00 0.0969
913.10 0.09686
913.20 0.09682
913.30 0.09677
913.40 0.09673
913.50 0.09669
913.60 0.09665
913.70 0.0966
913.80 0.09656
913.90 0.09652
914.00 0.09648
914.10 0.09643
914.20 0.09639
914.30 0.09635
914.40 0.0963
914.50 0.09626
914.60 0.09622
914.70 0.09618
914.80 0.09613
914.90 0.09609
915.00 0.09605
915.10 0.09601
915.20 0.09596
915.30 0.09592
915.40 0.09588
915.50 0.09584
915.60 0.09579
915.70 0.09575
915.80 0.09571
915.90 0.09567
916.00 0.09562
916.10 0.09558
916.20 0.09554
916.30 0.0955
916.40 0.09546
916.50 0.09541
916.60 0.09537
916.70 0.09533
916.80 0.09529
916.90 0.09524
917.00 0.0952
917.10 0.09516
917.20 0.09511
917.30 0.09507
917.40 0.09502
917.50 0.09498
917.60 0.09494
917.70 0.09489
917.80 0.09485
917.90 0.0948
918.00 0.09476
918.10 0.09471
918.20 0.09467
918.30 0.09462
918.40 0.09458
918.50 0.09454
918.60 0.09449
918.70 0.09445
918.80 0.0944
918.90 0.09436
919.00 0.09432
919.10 0.09427
919.20 0.09423
919.30 0.09418
919.40 0.09414
919.50 0.09409
919.60 0.09405
919.70 0.09401
919.80 0.09396
919.90 0.09392
920.00 0.09387
920.10 0.09383
920.20 0.09379
920.30 0.09374
920.40 0.0937
920.50 0.09366
920.60 0.09361
920.70 0.09357
920.80 0.09352
920.90 0.09348
921.00 0.09344
921.10 0.09339
921.20 0.09335
921.30 0.0933
921.40 0.09326
921.50 0.09322
921.60 0.09317
921.70 0.09313
921.80 0.09309
921.90 0.09304
922.00 0.093
922.10 0.09296
922.20 0.09293
922.30 0.09289
922.40 0.09285
922.50 0.09282
922.60 0.09278
922.70 0.09275
922.80 0.09271
922.90 0.09267
923.00 0.09264
923.10 0.0926
923.20 0.09257
923.30 0.09253
923.40 0.0925
923.50 0.09246
923.60 0.09242
923.70 0.09239
923.80 0.09235
923.90 0.09232
924.00 0.09228
924.10 0.09224
924.20 0.09221
924.30 0.09217
924.40 0.09214
924.50 0.0921
924.60 0.09207
924.70 0.09203
924.80 0.09199
924.90 0.09196
925.00 0.09192
925.10 0.09189
925.20 0.09185
925.30 0.09182
925.40 0.09178
925.50 0.09174
925.60 0.09171
925.70 0.09167
925.80 0.09164
925.90 0.0916
926.00 0.09157
926.10 0.09153
926.20 0.0915
926.30 0.09146
926.40 0.09142
926.50 0.09139
926.60 0.09135
926.70 0.09132
926.80 0.09128
926.90 0.09125
927.00 0.09121
927.10 0.09118
927.20 0.09114
927.30 0.09111
927.40 0.09107
927.50 0.09104
927.60 0.091
927.70 0.09097
927.80 0.09093
927.90 0.0909
928.00 0.09086
928.10 0.09083
928.20 0.09079
928.30 0.09076
928.40 0.09072
928.50 0.09069
928.60 0.09065
928.70 0.09062
928.80 0.09058
928.90 0.09055
929.00 0.09051
929.10 0.09048
929.20 0.09044
929.30 0.09041
929.40 0.09037
929.50 0.09034
929.60 0.0903
929.70 0.09027
929.80 0.09023
929.90 0.0902
930.00 0.09016
930.10 0.09013
930.20 0.09009
930.30 0.09006
930.40 0.09003
930.50 0.08999
930.60 0.08996
930.70 0.08992
930.80 0.08989
930.90 0.08985
931.00 0.08982
931.10 0.08978
931.20 0.08975
931.30 0.08971
931.40 0.08968
931.50 0.08964
931.60 0.08961
931.70 0.08958
931.80 0.08954
931.90 0.08951
932.00 0.08947
932.10 0.08944
932.20 0.0894
932.30 0.08936
932.40 0.08933
932.50 0.08929
932.60 0.08926
932.70 0.08922
932.80 0.08918
932.90 0.08915
933.00 0.08911
933.10 0.08908
933.20 0.08904
933.30 0.089
933.40 0.08897
933.50 0.08893
933.60 0.0889
933.70 0.08886
933.80 0.08882
933.90 0.08879
934.00 0.08875
934.10 0.08872
934.20 0.08868
934.30 0.08864
934.40 0.08861
934.50 0.08857
934.60 0.08854
934.70 0.0885
934.80 0.08846
934.90 0.08843
935.00 0.08839
935.10 0.08835
935.20 0.08832
935.30 0.08828
935.40 0.08825
935.50 0.08821
935.60 0.08817
935.70 0.08814
935.80 0.0881
935.90 0.08806
936.00 0.08803
936.10 0.08799
936.20 0.08796
936.30 0.08792
936.40 0.08788
936.50 0.08785
936.60 0.08781
936.70 0.08778
936.80 0.08774
936.90 0.0877
937.00 0.08767
937.10 0.08763
937.20 0.08759
937.30 0.08756
937.40 0.08752
937.50 0.08749
937.60 0.08745
937.70 0.08741
937.80 0.08738
937.90 0.08734
938.00 0.0873
938.10 0.08727
938.20 0.08723
938.30 0.0872
938.40 0.08716
938.50 0.08712
938.60 0.08709
938.70 0.08705
938.80 0.08701
938.90 0.08698
939.00 0.08694
939.10 0.08691
939.20 0.08687
939.30 0.08683
939.40 0.0868
939.50 0.08676
939.60 0.08672
939.70 0.08669
939.80 0.08665
939.90 0.08662
940.00 0.08658
940.10 0.08654
940.20 0.08651
940.30 0.08647
940.40 0.08643
940.50 0.0864
940.60 0.08636
940.70 0.08633
940.80 0.08629
940.90 0.08625
941.00 0.08622
941.10 0.08618
941.20 0.08614
941.30 0.08611
941.40 0.08607
941.50 0.08603
941.60 0.086
941.70 0.08596
941.80 0.08593
941.90 0.08589
942.00 0.08585
942.10 0.08582
942.20 0.08578
942.30 0.08574
942.40 0.08571
942.50 0.08567
942.60 0.08563
942.70 0.0856
942.80 0.08556
942.90 0.08552
943.00 0.08549
943.10 0.08545
943.20 0.08541
943.30 0.08538
943.40 0.08534
943.50 0.0853
943.60 0.08527
943.70 0.08523
943.80 0.08519
943.90 0.08516
944.00 0.08512
944.10 0.08508
944.20 0.08505
944.30 0.08501
944.40 0.08497
944.50 0.08494
944.60 0.0849
944.70 0.08486
944.80 0.08483
944.90 0.08479
945.00 0.08475
945.10 0.08472
945.20 0.08468
945.30 0.08464
945.40 0.0846
945.50 0.08457
945.60 0.08453
945.70 0.08449
945.80 0.08445
945.90 0.08442
946.00 0.08438
946.10 0.08434
946.20 0.0843
946.30 0.08426
946.40 0.08423
946.50 0.08419
946.60 0.08415
946.70 0.08411
946.80 0.08408
946.90 0.08404
947.00 0.084
947.10 0.08396
947.20 0.08393
947.30 0.08389
947.40 0.08385
947.50 0.08381
947.60 0.08377
947.70 0.08373
947.80 0.08369
947.90 0.08365
948.00 0.08361
948.10 0.08357
948.20 0.08353
948.30 0.08349
948.40 0.08345
948.50 0.08341
948.60 0.08338
948.70 0.08334
948.80 0.0833
948.90 0.08326
949.00 0.08322
949.10 0.08318
949.20 0.08314
949.30 0.0831
949.40 0.08306
949.50 0.08302
949.60 0.08298
949.70 0.08293
949.80 0.08289
949.90 0.08285
950.00 0.08281
950.10 0.08277
950.20 0.08272
950.30 0.08268
950.40 0.08264
950.50 0.0826
950.60 0.08256
950.70 0.08251
950.80 0.08247
950.90 0.08243
951.00 0.08239
951.10 0.08235
951.20 0.0823
951.30 0.08226
951.40 0.08222
951.50 0.08217
951.60 0.08213
951.70 0.08209
951.80 0.08204
951.90 0.082
952.00 0.08195
952.10 0.08191
952.20 0.08187
952.30 0.08182
952.40 0.08178
952.50 0.08173
952.60 0.08169
952.70 0.08164
952.80 0.0816
952.90 0.08156
953.00 0.08152
953.10 0.08147
953.20 0.08143
953.30 0.08139
953.40 0.08135
953.50 0.0813
953.60 0.08127
953.70 0.08123
953.80 0.08119
953.90 0.08116
954.00 0.08113
954.10 0.0811
954.20 0.08107
954.30 0.08104
954.40 0.08102
954.50 0.081
954.60 0.08097
954.70 0.08094
954.80 0.08089
954.90 0.08085
955.00 0.08081
955.10 0.08077
955.20 0.08074
955.30 0.08071
955.40 0.08068
955.50 0.08064
955.60 0.08061
955.70 0.08058
955.80 0.08055
955.90 0.08053
956.00 0.08051
956.10 0.08049
956.20 0.08046
956.30 0.08044
956.40 0.08042
956.50 0.0804
956.60 0.08037
956.70 0.08035
956.80 0.08033
956.90 0.08031
957.00 0.08028
957.10 0.08026
957.20 0.08024
957.30 0.08022
957.40 0.0802
957.50 0.08017
957.60 0.08015
957.70 0.08012
957.80 0.0801
957.90 0.08008
958.00 0.08005
958.10 0.08003
958.20 0.08001
958.30 0.07998
958.40 0.07996
958.50 0.07994
958.60 0.07991
958.70 0.07989
958.80 0.07986
958.90 0.07984
959.00 0.07982
959.10 0.07979
959.20 0.07977
959.30 0.07975
959.40 0.07972
959.50 0.07969
959.60 0.07967
959.70 0.07964
959.80 0.07961
959.90 0.07959
960.00 0.07956
960.10 0.07953
960.20 0.07951
960.30 0.07948
960.40 0.07945
960.50 0.07943
960.60 0.0794
960.70 0.07937
960.80 0.07935
960.90 0.07932
961.00 0.07929
961.10 0.07927
961.20 0.07924
961.30 0.07921
961.40 0.07918
961.50 0.07916
961.60 0.07913
961.70 0.0791
961.80 0.07907
961.90 0.07904
962.00 0.07902
962.10 0.07899
962.20 0.07896
962.30 0.07893
962.40 0.0789
962.50 0.07887
962.60 0.07884
962.70 0.07881
962.80 0.07878
962.90 0.07875
963.00 0.07873
963.10 0.0787
963.20 0.07867
963.30 0.07864
963.40 0.07861
963.50 0.07858
963.60 0.07855
963.70 0.07852
963.80 0.07849
963.90 0.07846
964.00 0.07843
964.10 0.0784
964.20 0.07837
964.30 0.07834
964.40 0.07831
964.50 0.07828
964.60 0.07825
964.70 0.07822
964.80 0.07819
964.90 0.07816
965.00 0.07813
965.10 0.0781
965.20 0.07807
965.30 0.07804
965.40 0.07801
965.50 0.07798
965.60 0.07795
965.70 0.07792
965.80 0.07789
965.90 0.07786
966.00 0.07783
966.10 0.0778
966.20 0.07777
966.30 0.07774
966.40 0.07771
966.50 0.07768
966.60 0.07765
966.70 0.07762
966.80 0.07759
966.90 0.07756
967.00 0.07753
967.10 0.0775
967.20 0.07747
967.30 0.07744
967.40 0.07741
967.50 0.07738
967.60 0.07735
967.70 0.07732
967.80 0.07729
967.90 0.07726
968.00 0.07723
968.10 0.0772
968.20 0.07717
968.30 0.07714
968.40 0.07711
968.50 0.07708
968.60 0.07705
968.70 0.07702
968.80 0.07699
968.90 0.07696
969.00 0.07693
969.10 0.0769
969.20 0.07687
969.30 0.07684
969.40 0.0768
969.50 0.07677
969.60 0.07674
969.70 0.07671
969.80 0.07668
969.90 0.07665
970.00 0.07662
970.10 0.07659
970.20 0.07656
970.30 0.07653
970.40 0.0765
970.50 0.07647
970.60 0.07644
970.70 0.07641
970.80 0.07638
970.90 0.07635
971.00 0.07632
971.10 0.07629
971.20 0.07626
971.30 0.07623
971.40 0.0762
971.50 0.07617
971.60 0.07614
971.70 0.07611
971.80 0.07608
971.90 0.07605
972.00 0.07602
972.10 0.07599
972.20 0.07596
972.30 0.07593
972.40 0.0759
972.50 0.07587
972.60 0.07584
972.70 0.07581
972.80 0.07578
972.90 0.07575
973.00 0.07572
973.10 0.07569
973.20 0.07566
973.30 0.07563
973.40 0.0756
973.50 0.07557
973.60 0.07554
973.70 0.07551
973.80 0.07548
973.90 0.07545
974.00 0.07542
974.10 0.07539
974.20 0.07536
974.30 0.07533
974.40 0.0753
974.50 0.07527
974.60 0.07524
974.70 0.07521
974.80 0.07518
974.90 0.07515
975.00 0.07512
975.10 0.07509
975.20 0.07506
975.30 0.07503
975.40 0.075
975.50 0.07497
975.60 0.07494
975.70 0.07491
975.80 0.07488
975.90 0.07485
976.00 0.07482
976.10 0.07479
976.20 0.07476
976.30 0.07473
976.40 0.0747
976.50 0.07467
976.60 0.07464
976.70 0.07461
976.80 0.07458
976.90 0.07455
977.00 0.07452
977.10 0.07449
977.20 0.07446
977.30 0.07443
977.40 0.0744
977.50 0.07437
977.60 0.07434
977.70 0.07431
977.80 0.07428
977.90 0.07425
978.00 0.07422
978.10 0.07419
978.20 0.07416
978.30 0.07414
978.40 0.07411
978.50 0.07408
978.60 0.07405
978.70 0.07402
978.80 0.07399
978.90 0.07396
979.00 0.07393
979.10 0.0739
979.20 0.07387
979.30 0.07384
979.40 0.07381
979.50 0.07378
979.60 0.07375
979.70 0.07372
979.80 0.07369
979.90 0.07366
980.00 0.07364
980.10 0.07361
980.20 0.07358
980.30 0.07355
980.40 0.07352
980.50 0.07349
980.60 0.07346
980.70 0.07343
980.80 0.0734
980.90 0.07337
981.00 0.07334
981.10 0.07331
981.20 0.07328
981.30 0.07325
981.40 0.07323
981.50 0.0732
981.60 0.07317
981.70 0.07314
981.80 0.07311
981.90 0.07308
982.00 0.07305
982.10 0.07302
982.20 0.07299
982.30 0.07296
982.40 0.07293
982.50 0.0729
982.60 0.07288
982.70 0.07285
982.80 0.07282
982.90 0.07279
983.00 0.07276
983.10 0.07273
983.20 0.0727
983.30 0.07267
983.40 0.07264
983.50 0.07261
983.60 0.07259
983.70 0.07256
983.80 0.07253
983.90 0.0725
984.00 0.07247
984.10 0.07244
984.20 0.07241
984.30 0.07238
984.40 0.07235
984.50 0.07233
984.60 0.0723
984.70 0.07227
984.80 0.07224
984.90 0.07221
985.00 0.07218
985.10 0.07215
985.20 0.07212
985.30 0.0721
985.40 0.07207
985.50 0.07204
985.60 0.07201
985.70 0.07198
985.80 0.07195
985.90 0.07192
986.00 0.07189
986.10 0.07187
986.20 0.07184
986.30 0.07181
986.40 0.07178
986.50 0.07175
986.60 0.07172
986.70 0.07169
986.80 0.07166
986.90 0.07164
987.00 0.07161
987.10 0.07158
987.20 0.07155
987.30 0.07152
987.40 0.07149
987.50 0.07146
987.60 0.07144
987.70 0.07141
987.80 0.07138
987.90 0.07135
988.00 0.07132
988.10 0.07129
988.20 0.07126
988.30 0.07124
988.40 0.07121
988.50 0.07118
988.60 0.07115
988.70 0.07112
988.80 0.07109
988.90 0.07106
989.00 0.07104
989.10 0.07101
989.20 0.07098
989.30 0.07095
989.40 0.07092
989.50 0.07089
989.60 0.07086
989.70 0.07084
989.80 0.07081
989.90 0.07078
990.00 0.07075
990.10 0.07072
990.20 0.07069
990.30 0.07067
990.40 0.07064
990.50 0.07061
990.60 0.07058
990.70 0.07055
990.80 0.07052
990.90 0.07049
991.00 0.07047
991.10 0.07044
991.20 0.07041
991.30 0.07038
991.40 0.07035
991.50 0.07032
991.60 0.07029
991.70 0.07027
991.80 0.07024
991.90 0.07021
992.00 0.07018
992.10 0.07015
992.20 0.07012
992.30 0.07009
992.40 0.07007
992.50 0.07004
992.60 0.07001
992.70 0.06998
992.80 0.06995
992.90 0.06992
993.00 0.06989
993.10 0.06986
993.20 0.06984
993.30 0.06981
993.40 0.06978
993.50 0.06975
993.60 0.06972
993.70 0.06969
993.80 0.06966
993.90 0.06963
994.00 0.0696
994.10 0.06958
994.20 0.06955
994.30 0.06952
994.40 0.06949
994.50 0.06946
994.60 0.06943
994.70 0.0694
994.80 0.06937
994.90 0.06934
995.00 0.06931
995.10 0.06929
995.20 0.06926
995.30 0.06923
995.40 0.0692
995.50 0.06917
995.60 0.06914
995.70 0.06911
995.80 0.06908
995.90 0.06905
996.00 0.06902
996.10 0.06899
996.20 0.06896
996.30 0.06893
996.40 0.0689
996.50 0.06887
996.60 0.06884
996.70 0.06881
996.80 0.06878
996.90 0.06875
997.00 0.06872
997.10 0.06869
997.20 0.06866
997.30 0.06863
997.40 0.0686
997.50 0.06856
997.60 0.06853
997.70 0.0685
997.80 0.06847
997.90 0.06844
998.00 0.0684
998.10 0.06837
998.20 0.06834
998.30 0.0683
998.40 0.06827
998.50 0.06824
998.60 0.0682
998.70 0.06817
998.80 0.06814
998.90 0.06811
999.00 0.06807
999.10 0.06804
999.20 0.06801
999.30 0.06797
999.40 0.06794
999.50 0.06791
999.60 0.06788
999.70 0.06784
999.80 0.0678
999.90 0.06776
1000.00 0.06772
1000.10 0.06769
1000.20 0.06765
1000.30 0.06761
1000.40 0.06757
1000.50 0.06753
1000.60 0.06749
1000.70 0.06746
1000.80 0.06742
1000.90 0.06738
1001.00 0.06734
1001.10 0.0673
1001.20 0.06726
1001.30 0.06723
1001.40 0.06719
1001.50 0.06715
1001.60 0.06711
1001.70 0.06707
1001.80 0.06703
1001.90 0.06698
1002.00 0.06694
1002.10 0.0669
1002.20 0.06685
1002.30 0.0668
1002.40 0.06676
1002.50 0.06671
1002.60 0.06666
1002.70 0.06662
1002.80 0.06657
1002.90 0.06653
1003.00 0.06648
1003.10 0.06643
1003.20 0.06639
1003.30 0.06634
1003.40 0.06629
1003.50 0.06624
1003.60 0.0662
1003.70 0.06615
1003.80 0.0661
1003.90 0.06606
1004.00 0.06603
1004.10 0.06599
1004.20 0.06596
1004.30 0.06594
1004.40 0.06592
1004.50 0.06592
1004.60 0.06594
1004.70 0.06598
1004.80 0.06603
1004.90 0.06602
1005.00 0.06601
1005.10 0.06594
1005.20 0.06585
1005.30 0.06577
1005.40 0.06569
1005.50 0.06565
1005.60 0.06563
1005.70 0.06561
1005.80 0.06559
1005.90 0.06557
1006.00 0.06555
1006.10 0.06553
1006.20 0.06552
1006.30 0.06552
1006.40 0.06551
1006.50 0.06551
1006.60 0.06551
1006.70 0.0655
1006.80 0.0655
1006.90 0.0655
1007.00 0.06549
1007.10 0.06549
1007.20 0.06548
1007.30 0.06548
1007.40 0.06547
1007.50 0.06547
1007.60 0.06546
1007.70 0.06545
1007.80 0.06544
1007.90 0.06543
1008.00 0.06542
1008.10 0.0654
1008.20 0.06539
1008.30 0.06538
1008.40 0.06537
1008.50 0.06536
1008.60 0.06535
1008.70 0.06533
1008.80 0.06532
1008.90 0.06531
1009.00 0.0653
1009.10 0.06529
1009.20 0.06528
1009.30 0.06527
1009.40 0.06525
1009.50 0.06524
1009.60 0.06523
1009.70 0.06521
1009.80 0.0652
1009.90 0.06518
1010.00 0.06516
1010.10 0.06514
1010.20 0.06512
1010.30 0.0651
1010.40 0.06509
1010.50 0.06507
1010.60 0.06505
1010.70 0.06503
1010.80 0.06501
1010.90 0.065
1011.00 0.06498
1011.10 0.06496
1011.20 0.06494
1011.30 0.06492
1011.40 0.06491
1011.50 0.06489
1011.60 0.06487
1011.70 0.06485
1011.80 0.06483
1011.90 0.06481
1012.00 0.06479
1012.10 0.06477
1012.20 0.06474
1012.30 0.06472
1012.40 0.0647
1012.50 0.06468
1012.60 0.06466
1012.70 0.06464
1012.80 0.06462
1012.90 0.06459
1013.00 0.06457
1013.10 0.06455
1013.20 0.06453
1013.30 0.06451
1013.40 0.06449
1013.50 0.06446
1013.60 0.06444
1013.70 0.06442
1013.80 0.0644
1013.90 0.06438
1014.00 0.06435
1014.10 0.06433
1014.20 0.06431
1014.30 0.06429
1014.40 0.06426
1014.50 0.06424
1014.60 0.06422
1014.70 0.06419
1014.80 0.06417
1014.90 0.06415
1015.00 0.06413
1015.10 0.0641
1015.20 0.06408
1015.30 0.06406
1015.40 0.06403
1015.50 0.06401
1015.60 0.06399
1015.70 0.06396
1015.80 0.06394
1015.90 0.06392
1016.00 0.06389
1016.10 0.06387
1016.20 0.06385
1016.30 0.06382
1016.40 0.0638
1016.50 0.06378
1016.60 0.06375
1016.70 0.06373
1016.80 0.06371
1016.90 0.06368
1017.00 0.06366
1017.10 0.06364
1017.20 0.06361
1017.30 0.06359
1017.40 0.06357
1017.50 0.06354
1017.60 0.06352
1017.70 0.0635
1017.80 0.06347
1017.90 0.06345
1018.00 0.06343
1018.10 0.0634
1018.20 0.06338
1018.30 0.06335
1018.40 0.06333
1018.50 0.06331
1018.60 0.06328
1018.70 0.06326
1018.80 0.06324
1018.90 0.06321
1019.00 0.06319
1019.10 0.06317
1019.20 0.06314
1019.30 0.06312
1019.40 0.0631
1019.50 0.06307
1019.60 0.06305
1019.70 0.06302
1019.80 0.063
1019.90 0.06298
1020.00 0.06295
1020.10 0.06293
1020.20 0.06291
1020.30 0.06288
1020.40 0.06286
1020.50 0.06284
1020.60 0.06281
1020.70 0.06279
1020.80 0.06276
1020.90 0.06274
1021.00 0.06272
1021.10 0.06269
1021.20 0.06267
1021.30 0.06265
1021.40 0.06262
1021.50 0.0626
1021.60 0.06258
1021.70 0.06255
1021.80 0.06253
1021.90 0.06251
1022.00 0.06248
1022.10 0.06246
1022.20 0.06243
1022.30 0.06241
1022.40 0.06239
1022.50 0.06236
1022.60 0.06234
1022.70 0.06232
1022.80 0.06229
1022.90 0.06227
1023.00 0.06225
1023.10 0.06222
1023.20 0.0622
1023.30 0.06218
1023.40 0.06215
1023.50 0.06213
1023.60 0.06211
1023.70 0.06208
1023.80 0.06206
1023.90 0.06203
1024.00 0.06201
1024.10 0.06199
1024.20 0.06196
1024.30 0.06194
1024.40 0.06192
1024.50 0.06189
1024.60 0.06187
1024.70 0.06185
1024.80 0.06182
1024.90 0.0618
1025.00 0.06178
1025.10 0.06175
1025.20 0.06173
1025.30 0.06171
1025.40 0.06168
1025.50 0.06166
1025.60 0.06164
1025.70 0.06161
1025.80 0.06159
1025.90 0.06157
1026.00 0.06154
1026.10 0.06152
1026.20 0.0615
1026.30 0.06147
1026.40 0.06145
1026.50 0.06143
1026.60 0.0614
1026.70 0.06138
1026.80 0.06136
1026.90 0.06134
1027.00 0.06131
1027.10 0.06129
1027.20 0.06127
1027.30 0.06124
1027.40 0.06122
1027.50 0.0612
1027.60 0.06117
1027.70 0.06115
1027.80 0.06113
1027.90 0.0611
1028.00 0.06108
1028.10 0.06106
1028.20 0.06103
1028.30 0.06101
1028.40 0.06099
1028.50 0.06097
1028.60 0.06094
1028.70 0.06092
1028.80 0.0609
1028.90 0.06087
1029.00 0.06085
1029.10 0.06083
1029.20 0.0608
1029.30 0.06078
1029.40 0.06076
1029.50 0.06074
1029.60 0.06071
1029.70 0.06069
1029.80 0.06067
1029.90 0.06064
1030.00 0.06062
1030.10 0.0606
1030.20 0.06058
1030.30 0.06055
1030.40 0.06053
1030.50 0.06051
1030.60 0.06048
1030.70 0.06046
1030.80 0.06044
1030.90 0.06042
1031.00 0.06039
1031.10 0.06037
1031.20 0.06035
1031.30 0.06032
1031.40 0.0603
1031.50 0.06028
1031.60 0.06026
1031.70 0.06023
1031.80 0.06021
1031.90 0.06019
1032.00 0.06016
1032.10 0.06014
1032.20 0.06012
1032.30 0.0601
1032.40 0.06007
1032.50 0.06005
1032.60 0.06003
1032.70 0.06001
1032.80 0.05998
1032.90 0.05996
1033.00 0.05994
1033.10 0.05992
1033.20 0.05989
1033.30 0.05987
1033.40 0.05985
1033.50 0.05983
1033.60 0.0598
1033.70 0.05978
1033.80 0.05976
1033.90 0.05974
1034.00 0.05971
1034.10 0.05969
1034.20 0.05967
1034.30 0.05965
1034.40 0.05962
1034.50 0.0596
1034.60 0.05958
1034.70 0.05956
1034.80 0.05953
1034.90 0.05951
1035.00 0.05949
1035.10 0.05947
1035.20 0.05944
1035.30 0.05942
1035.40 0.0594
1035.50 0.05938
1035.60 0.05935
1035.70 0.05933
1035.80 0.05931
1035.90 0.05929
1036.00 0.05926
1036.10 0.05924
1036.20 0.05922
1036.30 0.0592
1036.40 0.05918
1036.50 0.05915
1036.60 0.05913
1036.70 0.05911
1036.80 0.05909
1036.90 0.05906
1037.00 0.05904
1037.10 0.05902
1037.20 0.059
1037.30 0.05898
1037.40 0.05895
1037.50 0.05893
1037.60 0.05891
1037.70 0.05889
1037.80 0.05886
1037.90 0.05884
1038.00 0.05882
1038.10 0.0588
1038.20 0.05878
1038.30 0.05875
1038.40 0.05873
1038.50 0.05871
1038.60 0.05869
1038.70 0.05867
1038.80 0.05864
1038.90 0.05862
1039.00 0.0586
1039.10 0.05858
1039.20 0.05856
1039.30 0.05853
1039.40 0.05851
1039.50 0.05849
1039.60 0.05847
1039.70 0.05845
1039.80 0.05842
1039.90 0.0584
1040.00 0.05838
1040.10 0.05836
1040.20 0.05834
1040.30 0.05832
1040.40 0.05829
1040.50 0.05827
1040.60 0.05825
1040.70 0.05823
1040.80 0.05821
1040.90 0.05818
1041.00 0.05816
1041.10 0.05814
1041.20 0.05812
1041.30 0.0581
1041.40 0.05807
1041.50 0.05805
1041.60 0.05803
1041.70 0.05801
1041.80 0.05799
1041.90 0.05797
1042.00 0.05794
1042.10 0.05792
1042.20 0.0579
1042.30 0.05788
1042.40 0.05786
1042.50 0.05784
1042.60 0.05781
1042.70 0.05779
1042.80 0.05777
1042.90 0.05775
1043.00 0.05773
1043.10 0.05771
1043.20 0.05769
1043.30 0.05766
1043.40 0.05764
1043.50 0.05762
1043.60 0.0576
1043.70 0.05758
1043.80 0.05756
1043.90 0.05753
1044.00 0.05751
1044.10 0.05749
1044.20 0.05747
1044.30 0.05745
1044.40 0.05743
1044.50 0.05741
1044.60 0.05738
1044.70 0.05736
1044.80 0.05734
1044.90 0.05732
1045.00 0.0573
1045.10 0.05728
1045.20 0.05726
1045.30 0.05723
1045.40 0.05721
1045.50 0.05719
1045.60 0.05717
1045.70 0.05715
1045.80 0.05713
1045.90 0.05711
1046.00 0.05708
1046.10 0.05706
1046.20 0.05704
1046.30 0.05702
1046.40 0.057
1046.50 0.05698
1046.60 0.05696
1046.70 0.05694
1046.80 0.05691
1046.90 0.05689
1047.00 0.05687
1047.10 0.05685
1047.20 0.05683
1047.30 0.05681
1047.40 0.05679
1047.50 0.05677
1047.60 0.05674
1047.70 0.05672
1047.80 0.0567
1047.90 0.05668
1048.00 0.05666
1048.10 0.05664
1048.20 0.05662
1048.30 0.0566
1048.40 0.05658
1048.50 0.05655
1048.60 0.05653
1048.70 0.05651
1048.80 0.05649
1048.90 0.05647
1049.00 0.05645
1049.10 0.05643
1049.20 0.05641
1049.30 0.05639
1049.40 0.05637
1049.50 0.05634
1049.60 0.05632
1049.70 0.0563
1049.80 0.05628
1049.90 0.05626
1050.00 0.05624
1050.10 0.05622
1050.20 0.0562
1050.30 0.05618
1050.40 0.05616
1050.50 0.05614
1050.60 0.05611
1050.70 0.05609
1050.80 0.05607
1050.90 0.05605
1051.00 0.05603
1051.10 0.05601
1051.20 0.05599
1051.30 0.05597
1051.40 0.05595
1051.50 0.05593
1051.60 0.05591
1051.70 0.05589
1051.80 0.05586
1051.90 0.05584
1052.00 0.05582
1052.10 0.0558
1052.20 0.05578
1052.30 0.05576
1052.40 0.05574
1052.50 0.05572
1052.60 0.0557
1052.70 0.05568
1052.80 0.05566
1052.90 0.05564
1053.00 0.05562
1053.10 0.0556
1053.20 0.05558
1053.30 0.05555
1053.40 0.05553
1053.50 0.05551
1053.60 0.05549
1053.70 0.05547
1053.80 0.05545
1053.90 0.05543
1054.00 0.05541
1054.10 0.05539
1054.20 0.05537
1054.30 0.05535
1054.40 0.05533
1054.50 0.05531
1054.60 0.05529
1054.70 0.05527
1054.80 0.05525
1054.90 0.05523
1055.00 0.05521
1055.10 0.05519
1055.20 0.05516
1055.30 0.05514
1055.40 0.05512
1055.50 0.0551
1055.60 0.05508
1055.70 0.05506
1055.80 0.05504
1055.90 0.05502
1056.00 0.055
1056.10 0.05498
1056.20 0.05496
1056.30 0.05494
1056.40 0.05492
1056.50 0.0549
1056.60 0.05488
1056.70 0.05486
1056.80 0.05484
1056.90 0.05482
1057.00 0.0548
1057.10 0.05478
1057.20 0.05476
1057.30 0.05474
1057.40 0.05472
1057.50 0.0547
1057.60 0.05468
1057.70 0.05466
1057.80 0.05464
1057.90 0.05462
1058.00 0.0546
1058.10 0.05458
1058.20 0.05456
1058.30 0.05454
1058.40 0.05452
1058.50 0.0545
1058.60 0.05448
1058.70 0.05446
1058.80 0.05444
1058.90 0.05442
1059.00 0.0544
1059.10 0.05438
1059.20 0.05436
1059.30 0.05433
1059.40 0.05431
1059.50 0.05429
1059.60 0.05427
1059.70 0.05425
1059.80 0.05423
1059.90 0.05421
1060.00 0.05419
1060.10 0.05417
1060.20 0.05415
1060.30 0.05413
1060.40 0.05411
1060.50 0.05409
1060.60 0.05407
1060.70 0.05405
1060.80 0.05403
1060.90 0.05401
1061.00 0.05399
1061.10 0.05398
1061.20 0.05396
1061.30 0.05394
1061.40 0.05392
1061.50 0.0539
1061.60 0.05388
1061.70 0.05386
1061.80 0.05384
1061.90 0.05382
1062.00 0.0538
1062.10 0.05378
1062.20 0.05376
1062.30 0.05374
1062.40 0.05372
1062.50 0.0537
1062.60 0.05368
1062.70 0.05366
1062.80 0.05364
1062.90 0.05362
1063.00 0.0536
1063.10 0.05358
1063.20 0.05356
1063.30 0.05354
1063.40 0.05352
1063.50 0.0535
1063.60 0.05348
1063.70 0.05346
1063.80 0.05344
1063.90 0.05342
1064.00 0.0534
1064.10 0.05338
1064.20 0.05336
1064.30 0.05334
1064.40 0.05332
1064.50 0.0533
1064.60 0.05328
1064.70 0.05326
1064.80 0.05325
1064.90 0.05323
1065.00 0.05321
1065.10 0.05319
1065.20 0.05317
1065.30 0.05315
1065.40 0.05313
1065.50 0.05311
1065.60 0.05309
1065.70 0.05307
1065.80 0.05305
1065.90 0.05303
1066.00 0.05301
1066.10 0.05299
1066.20 0.05297
1066.30 0.05295
1066.40 0.05293
1066.50 0.05291
1066.60 0.05289
1066.70 0.05287
1066.80 0.05285
1066.90 0.05284
1067.00 0.05282
1067.10 0.0528
1067.20 0.05278
1067.30 0.05276
1067.40 0.05274
1067.50 0.05272
1067.60 0.0527
1067.70 0.05268
1067.80 0.05266
1067.90 0.05264
1068.00 0.05262
1068.10 0.0526
1068.20 0.05258
1068.30 0.05256
1068.40 0.05255
1068.50 0.05253
1068.60 0.05251
1068.70 0.05249
1068.80 0.05247
1068.90 0.05245
1069.00 0.05243
1069.10 0.05241
1069.20 0.05239
1069.30 0.05237
1069.40 0.05235
1069.50 0.05233
1069.60 0.05231
1069.70 0.0523
1069.80 0.05228
1069.90 0.05226
1070.00 0.05224
1070.10 0.05222
1070.20 0.0522
1070.30 0.05218
1070.40 0.05216
1070.50 0.05214
1070.60 0.05212
1070.70 0.0521
1070.80 0.05208
1070.90 0.05207
1071.00 0.05205
1071.10 0.05203
1071.20 0.05201
1071.30 0.05199
1071.40 0.05197
1071.50 0.05195
1071.60 0.05193
1071.70 0.05191
1071.80 0.05189
1071.90 0.05187
1072.00 0.05186
1072.10 0.05184
1072.20 0.05182
1072.30 0.0518
1072.40 0.05178
1072.50 0.05176
1072.60 0.05174
1072.70 0.05172
1072.80 0.0517
1072.90 0.05168
1073.00 0.05167
1073.10 0.05165
1073.20 0.05163
1073.30 0.05161
1073.40 0.05159
1073.50 0.05157
1073.60 0.05155
1073.70 0.05153
1073.80 0.05151
1073.90 0.0515
1074.00 0.05148
1074.10 0.05146
1074.20 0.05144
1074.30 0.05142
1074.40 0.0514
1074.50 0.05138
1074.60 0.05136
1074.70 0.05134
1074.80 0.05133
1074.90 0.05131
1075.00 0.05129
1075.10 0.05127
1075.20 0.05125
1075.30 0.05123
1075.40 0.05121
1075.50 0.05119
1075.60 0.05117
1075.70 0.05116
1075.80 0.05114
1075.90 0.05112
1076.00 0.0511
1076.10 0.05108
1076.20 0.05106
1076.30 0.05104
1076.40 0.05102
1076.50 0.05101
1076.60 0.05099
1076.70 0.05097
1076.80 0.05095
1076.90 0.05093
1077.00 0.05091
1077.10 0.05089
1077.20 0.05087
1077.30 0.05086
1077.40 0.05084
1077.50 0.05082
1077.60 0.0508
1077.70 0.05078
1077.80 0.05076
1077.90 0.05074
1078.00 0.05072
1078.10 0.0507
1078.20 0.05069
1078.30 0.05067
1078.40 0.05065
1078.50 0.05063
1078.60 0.05061
1078.70 0.05059
1078.80 0.05057
1078.90 0.05055
1079.00 0.05054
1079.10 0.05052
1079.20 0.0505
1079.30 0.05048
1079.40 0.05046
1079.50 0.05044
1079.60 0.05042
1079.70 0.0504
1079.80 0.05039
1079.90 0.05037
1080.00 0.05035
1080.10 0.05033
1080.20 0.05031
1080.30 0.05029
1080.40 0.05027
1080.50 0.05025
1080.60 0.05024
1080.70 0.05022
1080.80 0.0502
1080.90 0.05018
1081.00 0.05016
1081.10 0.05014
1081.20 0.05012
1081.30 0.0501
1081.40 0.05009
1081.50 0.05007
1081.60 0.05005
1081.70 0.05003
1081.80 0.05001
1081.90 0.04999
1082.00 0.04997
1082.10 0.04995
1082.20 0.04993
1082.30 0.04991
1082.40 0.04989
1082.50 0.04988
1082.60 0.04986
1082.70 0.04984
1082.80 0.04982
1082.90 0.0498
1083.00 0.04978
1083.10 0.04976
1083.20 0.04974
1083.30 0.04972
1083.40 0.0497
1083.50 0.04968
1083.60 0.04966
1083.70 0.04965
1083.80 0.04963
1083.90 0.04961
1084.00 0.04959
1084.10 0.04957
1084.20 0.04955
1084.30 0.04953
1084.40 0.04951
1084.50 0.04949
1084.60 0.04947
1084.70 0.04945
1084.80 0.04943
1084.90 0.04941
1085.00 0.04939
1085.10 0.04937
1085.20 0.04935
1085.30 0.04932
1085.40 0.0493
1085.50 0.04928
1085.60 0.04926
1085.70 0.04924
1085.80 0.04922
1085.90 0.0492
1086.00 0.04918
1086.10 0.04916
1086.20 0.04914
1086.30 0.04912
1086.40 0.0491
1086.50 0.04908
1086.60 0.04906
1086.70 0.04904
1086.80 0.04901
1086.90 0.04899
1087.00 0.04897
1087.10 0.04895
1087.20 0.04892
1087.30 0.0489
1087.40 0.04887
1087.50 0.04885
1087.60 0.04883
1087.70 0.0488
1087.80 0.04878
1087.90 0.04876
1088.00 0.04873
1088.10 0.04871
1088.20 0.04869
1088.30 0.04866
1088.40 0.04864
1088.50 0.04861
1088.60 0.04858
1088.70 0.04855
1088.80 0.04852
1088.90 0.04849
1089.00 0.04846
1089.10 0.04843
1089.20 0.0484
1089.30 0.04837
1089.40 0.04834
1089.50 0.04831
1089.60 0.04828
1089.70 0.04826
1089.80 0.04823
1089.90 0.0482
1090.00 0.04817
1090.10 0.04814
1090.20 0.04811
1090.30 0.04808
1090.40 0.04805
1090.50 0.04801
1090.60 0.04797
1090.70 0.04793
1090.80 0.04789
1090.90 0.04785
1091.00 0.04781
1091.10 0.04777
1091.20 0.04773
1091.30 0.04769
1091.40 0.04765
1091.50 0.0476
1091.60 0.04756
1091.70 0.04752
1091.80 0.04748
1091.90 0.04744
1092.00 0.0474
1092.10 0.04735
1092.20 0.04731
1092.30 0.04727
1092.40 0.04722
1092.50 0.04718
1092.60 0.04713
1092.70 0.04709
1092.80 0.04706
1092.90 0.04703
1093.00 0.047
1093.10 0.04698
1093.20 0.04698
1093.30 0.04697
1093.40 0.04698
1093.50 0.04701
1093.60 0.04706
1093.70 0.0471
1093.80 0.04713
1093.90 0.04712
1094.00 0.04704
1094.10 0.04696
1094.20 0.04688
1094.30 0.04682
1094.40 0.0468
1094.50 0.04679
1094.60 0.04678
1094.70 0.04676
1094.80 0.04675
1094.90 0.04674
1095.00 0.04673
1095.10 0.04674
1095.20 0.04675
1095.30 0.04676
1095.40 0.04677
1095.50 0.04678
1095.60 0.04679
1095.70 0.0468
1095.80 0.04681
1095.90 0.04682
1096.00 0.04683
1096.10 0.04684
1096.20 0.04685
1096.30 0.04686
1096.40 0.04687
1096.50 0.04688
1096.60 0.04688
1096.70 0.04689
1096.80 0.04689
1096.90 0.0469
1097.00 0.0469
1097.10 0.0469
1097.20 0.04689
1097.30 0.04689
1097.40 0.04689
1097.50 0.04689
1097.60 0.04688
1097.70 0.04688
1097.80 0.04688
1097.90 0.04688
1098.00 0.04687
1098.10 0.04687
1098.20 0.04687
1098.30 0.04687
1098.40 0.04686
1098.50 0.04686
1098.60 0.04685
1098.70 0.04684
1098.80 0.04683
1098.90 0.04682
1099.00 0.04681
1099.10 0.0468
1099.20 0.04679
1099.30 0.04678
1099.40 0.04677
1099.50 0.04676
1099.60 0.04675
1099.70 0.04674
1099.80 0.04673
1099.90 0.04672
1100.00 0.04671
1100.10 0.0467
1100.20 0.0467
1100.30 0.04669
1100.40 0.04668
1100.50 0.04667
1100.60 0.04665
1100.70 0.04664
1100.80 0.04663
1100.90 0.04661
1101.00 0.0466
1101.10 0.04659
1101.20 0.04657
1101.30 0.04656
1101.40 0.04655
1101.50 0.04653
1101.60 0.04652
1101.70 0.04651
1101.80 0.0465
1101.90 0.04648
1102.00 0.04647
1102.10 0.04646
1102.20 0.04644
1102.30 0.04643
1102.40 0.04641
1102.50 0.0464
1102.60 0.04638
1102.70 0.04637
1102.80 0.04636
1102.90 0.04634
1103.00 0.04633
1103.10 0.04631
1103.20 0.0463
1103.30 0.04628
1103.40 0.04627
1103.50 0.04625
1103.60 0.04624
1103.70 0.04622
1103.80 0.04621
1103.90 0.04619
1104.00 0.04618
1104.10 0.04616
1104.20 0.04615
1104.30 0.04613
1104.40 0.04612
1104.50 0.0461
1104.60 0.04609
1104.70 0.04607
1104.80 0.04606
1104.90 0.04604
1105.00 0.04603
1105.10 0.04601
1105.20 0.046
1105.30 0.04598
1105.40 0.04597
1105.50 0.04595
1105.60 0.04593
1105.70 0.04592
1105.80 0.0459
1105.90 0.04589
1106.00 0.04587
1106.10 0.04586
1106.20 0.04584
1106.30 0.04583
1106.40 0.04581
1106.50 0.0458
1106.60 0.04578
1106.70 0.04576
1106.80 0.04575
1106.90 0.04573
1107.00 0.04572
1107.10 0.0457
1107.20 0.04569
1107.30 0.04567
1107.40 0.04566
1107.50 0.04564
1107.60 0.04562
1107.70 0.04561
1107.80 0.04559
1107.90 0.04558
1108.00 0.04556
1108.10 0.04555
1108.20 0.04553
1108.30 0.04551
1108.40 0.0455
1108.50 0.04548
1108.60 0.04547
1108.70 0.04545
1108.80 0.04544
1108.90 0.04542
1109.00 0.04541
1109.10 0.04539
1109.20 0.04537
1109.30 0.04536
1109.40 0.04534
1109.50 0.04533
1109.60 0.04531
1109.70 0.0453
1109.80 0.04528
1109.90 0.04526
1110.00 0.04525
1110.10 0.04523
1110.20 0.04522
1110.30 0.0452
1110.40 0.04519
1110.50 0.04517
1110.60 0.04516
1110.70 0.04514
1110.80 0.04512
1110.90 0.04511
1111.00 0.04509
1111.10 0.04508
1111.20 0.04506
1111.30 0.04505
1111.40 0.04503
1111.50 0.04501
1111.60 0.045
1111.70 0.04498
1111.80 0.04497
1111.90 0.04495
1112.00 0.04494
1112.10 0.04492
1112.20 0.04491
1112.30 0.04489
1112.40 0.04487
1112.50 0.04486
1112.60 0.04484
1112.70 0.04483
1112.80 0.04481
1112.90 0.0448
1113.00 0.04478
1113.10 0.04477
1113.20 0.04475
1113.30 0.04473
1113.40 0.04472
1113.50 0.0447
1113.60 0.04469
1113.70 0.04467
1113.80 0.04466
1113.90 0.04464
1114.00 0.04463
1114.10 0.04461
1114.20 0.04459
1114.30 0.04458
1114.40 0.04456
1114.50 0.04455
1114.60 0.04453
1114.70 0.04452
1114.80 0.0445
1114.90 0.04449
1115.00 0.04447
1115.10 0.04445
1115.20 0.04444
1115.30 0.04442
1115.40 0.04441
1115.50 0.04439
1115.60 0.04438
1115.70 0.04436
1115.80 0.04435
1115.90 0.04433
1116.00 0.04432
1116.10 0.0443
1116.20 0.04429
1116.30 0.04427
1116.40 0.04425
1116.50 0.04424
1116.60 0.04422
1116.70 0.04421
1116.80 0.04419
1116.90 0.04418
1117.00 0.04416
1117.10 0.04415
1117.20 0.04413
1117.30 0.04412
1117.40 0.0441
1117.50 0.04409
1117.60 0.04407
1117.70 0.04405
1117.80 0.04404
1117.90 0.04402
1118.00 0.04401
1118.10 0.04399
1118.20 0.04398
1118.30 0.04396
1118.40 0.04395
1118.50 0.04393
1118.60 0.04392
1118.70 0.0439
1118.80 0.04389
1118.90 0.04387
1119.00 0.04386
1119.10 0.04384
1119.20 0.04383
1119.30 0.04381
1119.40 0.04379
1119.50 0.04378
1119.60 0.04376
1119.70 0.04375
1119.80 0.04373
1119.90 0.04372
1120.00 0.0437
1120.10 0.04369
1120.20 0.04367
1120.30 0.04366
1120.40 0.04364
1120.50 0.04363
1120.60 0.04361
1120.70 0.0436
1120.80 0.04358
1120.90 0.04357
1121.00 0.04355
1121.10 0.04354
1121.20 0.04352
1121.30 0.04351
1121.40 0.04349
1121.50 0.04348
1121.60 0.04346
1121.70 0.04345
1121.80 0.04343
1121.90 0.04342
1122.00 0.0434
1122.10 0.04339
1122.20 0.04337
1122.30 0.04336
1122.40 0.04334
1122.50 0.04333
1122.60 0.04331
1122.70 0.0433
1122.80 0.04328
1122.90 0.04327
1123.00 0.04325
1123.10 0.04324
1123.20 0.04322
1123.30 0.04321
1123.40 0.04319
1123.50 0.04318
1123.60 0.04316
1123.70 0.04315
1123.80 0.04313
1123.90 0.04312
1124.00 0.0431
1124.10 0.04309
1124.20 0.04307
1124.30 0.04306
1124.40 0.04304
1124.50 0.04303
1124.60 0.04301
1124.70 0.043
1124.80 0.04298
1124.90 0.04297
1125.00 0.04295
1125.10 0.04294
1125.20 0.04292
1125.30 0.04291
1125.40 0.04289
1125.50 0.04288
1125.60 0.04286
1125.70 0.04285
1125.80 0.04283
1125.90 0.04282
1126.00 0.0428
1126.10 0.04279
1126.20 0.04277
1126.30 0.04276
1126.40 0.04274
1126.50 0.04273
1126.60 0.04271
1126.70 0.0427
1126.80 0.04268
1126.90 0.04267
1127.00 0.04265
1127.10 0.04264
1127.20 0.04262
1127.30 0.04261
1127.40 0.0426
1127.50 0.04258
1127.60 0.04257
1127.70 0.04255
1127.80 0.04254
1127.90 0.04252
1128.00 0.04251
1128.10 0.04249
1128.20 0.04248
1128.30 0.04246
1128.40 0.04245
1128.50 0.04243
1128.60 0.04242
1128.70 0.0424
1128.80 0.04239
1128.90 0.04237
1129.00 0.04236
1129.10 0.04235
1129.20 0.04233
1129.30 0.04232
1129.40 0.0423
1129.50 0.04229
1129.60 0.04227
1129.70 0.04226
1129.80 0.04224
1129.90 0.04223
1130.00 0.04221
1130.10 0.0422
1130.20 0.04218
1130.30 0.04217
1130.40 0.04216
1130.50 0.04214
1130.60 0.04213
1130.70 0.04211
1130.80 0.0421
1130.90 0.04208
1131.00 0.04207
1131.10 0.04205
1131.20 0.04204
1131.30 0.04202
1131.40 0.04201
1131.50 0.042
1131.60 0.04198
1131.70 0.04197
1131.80 0.04195
1131.90 0.04194
1132.00 0.04192
1132.10 0.04191
1132.20 0.04189
1132.30 0.04188
1132.40 0.04187
1132.50 0.04185
1132.60 0.04184
1132.70 0.04182
1132.80 0.04181
1132.90 0.04179
1133.00 0.04178
1133.10 0.04176
1133.20 0.04175
1133.30 0.04174
1133.40 0.04172
1133.50 0.04171
1133.60 0.04169
1133.70 0.04168
1133.80 0.04166
1133.90 0.04165
1134.00 0.04164
1134.10 0.04162
1134.20 0.04161
1134.30 0.04159
1134.40 0.04158
1134.50 0.04156
1134.60 0.04155
1134.70 0.04154
1134.80 0.04152
1134.90 0.04151
1135.00 0.04149
1135.10 0.04148
1135.20 0.04146
1135.30 0.04145
1135.40 0.04144
1135.50 0.04142
1135.60 0.04141
1135.70 0.04139
1135.80 0.04138
1135.90 0.04136
1136.00 0.04135
1136.10 0.04134
1136.20 0.04132
1136.30 0.04131
1136.40 0.04129
1136.50 0.04128
1136.60 0.04126
1136.70 0.04125
1136.80 0.04124
1136.90 0.04122
1137.00 0.04121
1137.10 0.04119
1137.20 0.04118
1137.30 0.04117
1137.40 0.04115
1137.50 0.04114
1137.60 0.04112
1137.70 0.04111
1137.80 0.04109
1137.90 0.04108
1138.00 0.04107
1138.10 0.04105
1138.20 0.04104
1138.30 0.04102
1138.40 0.04101
1138.50 0.041
1138.60 0.04098
1138.70 0.04097
1138.80 0.04095
1138.90 0.04094
1139.00 0.04093
1139.10 0.04091
1139.20 0.0409
1139.30 0.04088
1139.40 0.04087
1139.50 0.04086
1139.60 0.04084
1139.70 0.04083
1139.80 0.04081
1139.90 0.0408
1140.00 0.04079
1140.10 0.04077
1140.20 0.04076
1140.30 0.04074
1140.40 0.04073
1140.50 0.04072
1140.60 0.0407
1140.70 0.04069
1140.80 0.04067
1140.90 0.04066
1141.00 0.04065
1141.10 0.04063
1141.20 0.04062
1141.30 0.0406
1141.40 0.04059
1141.50 0.04058
1141.60 0.04056
1141.70 0.04055
1141.80 0.04053
1141.90 0.04052
1142.00 0.04051
1142.10 0.04049
1142.20 0.04048
1142.30 0.04047
1142.40 0.04045
1142.50 0.04044
1142.60 0.04042
1142.70 0.04041
1142.80 0.0404
1142.90 0.04038
1143.00 0.04037
1143.10 0.04036
1143.20 0.04034
1143.30 0.04033
1143.40 0.04031
1143.50 0.0403
1143.60 0.04029
1143.70 0.04027
1143.80 0.04026
1143.90 0.04025
1144.00 0.04023
1144.10 0.04022
1144.20 0.0402
1144.30 0.04019
1144.40 0.04018
1144.50 0.04016
1144.60 0.04015
1144.70 0.04014
1144.80 0.04012
1144.90 0.04011
1145.00 0.04009
1145.10 0.04008
1145.20 0.04007
1145.30 0.04005
1145.40 0.04004
1145.50 0.04003
1145.60 0.04001
1145.70 0.04
1145.80 0.03999
1145.90 0.03997
1146.00 0.03996
1146.10 0.03994
1146.20 0.03993
1146.30 0.03992
1146.40 0.0399
1146.50 0.03989
1146.60 0.03988
1146.70 0.03986
1146.80 0.03985
1146.90 0.03983
1147.00 0.03982
1147.10 0.03981
1147.20 0.03979
1147.30 0.03978
1147.40 0.03977
1147.50 0.03975
1147.60 0.03974
1147.70 0.03973
1147.80 0.03971
1147.90 0.0397
1148.00 0.03969
1148.10 0.03967
1148.20 0.03966
1148.30 0.03965
1148.40 0.03963
1148.50 0.03962
1148.60 0.03961
1148.70 0.03959
1148.80 0.03958
1148.90 0.03957
1149.00 0.03955
1149.10 0.03954
1149.20 0.03952
1149.30 0.03951
1149.40 0.0395
1149.50 0.03948
1149.60 0.03947
1149.70 0.03946
1149.80 0.03944
1149.90 0.03943
1150.00 0.03942
1150.10 0.0394
1150.20 0.03939
1150.30 0.03938
1150.40 0.03936
1150.50 0.03935
1150.60 0.03934
1150.70 0.03932
1150.80 0.03931
1150.90 0.0393
1151.00 0.03928
1151.10 0.03927
1151.20 0.03926
1151.30 0.03924
1151.40 0.03923
1151.50 0.03922
1151.60 0.0392
1151.70 0.03919
1151.80 0.03918
1151.90 0.03916
1152.00 0.03915
1152.10 0.03914
1152.20 0.03912
1152.30 0.03911
1152.40 0.0391
1152.50 0.03908
1152.60 0.03907
1152.70 0.03906
1152.80 0.03904
1152.90 0.03903
1153.00 0.03902
1153.10 0.039
1153.20 0.03899
1153.30 0.03898
1153.40 0.03896
1153.50 0.03895
1153.60 0.03894
1153.70 0.03893
1153.80 0.03891
1153.90 0.0389
1154.00 0.03889
1154.10 0.03887
1154.20 0.03886
1154.30 0.03885
1154.40 0.03883
1154.50 0.03882
1154.60 0.03881
1154.70 0.03879
1154.80 0.03878
1154.90 0.03877
1155.00 0.03875
1155.10 0.03874
1155.20 0.03873
1155.30 0.03871
1155.40 0.0387
1155.50 0.03869
1155.60 0.03868
1155.70 0.03866
1155.80 0.03865
1155.90 0.03864
1156.00 0.03862
1156.10 0.03861
1156.20 0.0386
1156.30 0.03858
1156.40 0.03857
1156.50 0.03856
1156.60 0.03854
1156.70 0.03853
1156.80 0.03852
1156.90 0.03851
1157.00 0.03849
1157.10 0.03848
1157.20 0.03847
1157.30 0.03845
1157.40 0.03844
1157.50 0.03843
1157.60 0.03841
1157.70 0.0384
1157.80 0.03839
1157.90 0.03838
1158.00 0.03836
1158.10 0.03835
1158.20 0.03834
1158.30 0.03832
1158.40 0.03831
1158.50 0.0383
1158.60 0.03829
1158.70 0.03827
1158.80 0.03826
1158.90 0.03825
1159.00 0.03823
1159.10 0.03822
1159.20 0.03821
1159.30 0.0382
1159.40 0.03818
1159.50 0.03817
1159.60 0.03816
1159.70 0.03814
1159.80 0.03813
1159.90 0.03812
1160.00 0.03811
1160.10 0.03809
1160.20 0.03808
1160.30 0.03807
1160.40 0.03805
1160.50 0.03804
1160.60 0.03803
1160.70 0.03802
1160.80 0.038
1160.90 0.03799
1161.00 0.03798
1161.10 0.03796
1161.20 0.03795
1161.30 0.03794
1161.40 0.03793
1161.50 0.03791
1161.60 0.0379
1161.70 0.03789
1161.80 0.03787
1161.90 0.03786
1162.00 0.03785
1162.10 0.03784
1162.20 0.03782
1162.30 0.03781
1162.40 0.0378
1162.50 0.03779
1162.60 0.03777
1162.70 0.03776
1162.80 0.03775
1162.90 0.03773
1163.00 0.03772
1163.10 0.03771
1163.20 0.0377
1163.30 0.03768
1163.40 0.03767
1163.50 0.03766
1163.60 0.03765
1163.70 0.03763
1163.80 0.03762
1163.90 0.03761
1164.00 0.0376
1164.10 0.03758
1164.20 0.03757
1164.30 0.03756
1164.40 0.03755
1164.50 0.03753
1164.60 0.03752
1164.70 0.03751
1164.80 0.0375
1164.90 0.03748
1165.00 0.03747
1165.10 0.03746
1165.20 0.03744
1165.30 0.03743
1165.40 0.03742
1165.50 0.03741
1165.60 0.03739
1165.70 0.03738
1165.80 0.03737
1165.90 0.03736
1166.00 0.03734
1166.10 0.03733
1166.20 0.03732
1166.30 0.03731
1166.40 0.03729
1166.50 0.03728
1166.60 0.03727
1166.70 0.03726
1166.80 0.03724
1166.90 0.03723
1167.00 0.03722
1167.10 0.03721
1167.20 0.03719
1167.30 0.03718
1167.40 0.03717
1167.50 0.03716
1167.60 0.03714
1167.70 0.03713
1167.80 0.03712
1167.90 0.03711
1168.00 0.03709
1168.10 0.03708
1168.20 0.03707
1168.30 0.03706
1168.40 0.03705
1168.50 0.03703
1168.60 0.03702
1168.70 0.03701
1168.80 0.037
1168.90 0.03698
1169.00 0.03697
1169.10 0.03696
1169.20 0.03695
1169.30 0.03693
1169.40 0.03692
1169.50 0.03691
1169.60 0.0369
1169.70 0.03688
1169.80 0.03687
1169.90 0.03686
1170.00 0.03685
1170.10 0.03684
1170.20 0.03682
1170.30 0.03681
1170.40 0.0368
1170.50 0.03679
1170.60 0.03677
1170.70 0.03676
1170.80 0.03675
1170.90 0.03674
1171.00 0.03672
1171.10 0.03671
1171.20 0.0367
1171.30 0.03669
1171.40 0.03668
1171.50 0.03666
1171.60 0.03665
1171.70 0.03664
1171.80 0.03663
1171.90 0.03661
1172.00 0.0366
1172.10 0.03659
1172.20 0.03658
1172.30 0.03657
1172.40 0.03655
1172.50 0.03654
1172.60 0.03653
1172.70 0.03652
1172.80 0.0365
1172.90 0.03649
1173.00 0.03648
1173.10 0.03647
1173.20 0.03646
1173.30 0.03644
1173.40 0.03643
1173.50 0.03642
1173.60 0.03641
1173.70 0.0364
1173.80 0.03638
1173.90 0.03637
1174.00 0.03636
1174.10 0.03635
1174.20 0.03633
1174.30 0.03632
1174.40 0.03631
1174.50 0.0363
1174.60 0.03629
1174.70 0.03627
1174.80 0.03626
1174.90 0.03625
1175.00 0.03624
1175.10 0.03623
1175.20 0.03621
1175.30 0.0362
1175.40 0.03619
1175.50 0.03618
1175.60 0.03617
1175.70 0.03615
1175.80 0.03614
1175.90 0.03613
1176.00 0.03612
1176.10 0.03611
1176.20 0.03609
1176.30 0.03608
1176.40 0.03607
1176.50 0.03606
1176.60 0.03605
1176.70 0.03603
1176.80 0.03602
1176.90 0.03601
1177.00 0.036
1177.10 0.03599
1177.20 0.03597
1177.30 0.03596
1177.40 0.03595
1177.50 0.03594
1177.60 0.03593
1177.70 0.03591
1177.80 0.0359
1177.90 0.03589
1178.00 0.03588
1178.10 0.03587
1178.20 0.03585
1178.30 0.03584
1178.40 0.03583
1178.50 0.03582
1178.60 0.03581
1178.70 0.0358
1178.80 0.03578
1178.90 0.03577
1179.00 0.03576
1179.10 0.03575
1179.20 0.03574
1179.30 0.03572
1179.40 0.03571
1179.50 0.0357
1179.60 0.03569
1179.70 0.03568
1179.80 0.03567
1179.90 0.03565
1180.00 0.03564
1180.10 0.03563
1180.20 0.03562
1180.30 0.03561
1180.40 0.03559
1180.50 0.03558
1180.60 0.03557
1180.70 0.03556
1180.80 0.03555
1180.90 0.03554
1181.00 0.03552
1181.10 0.03551
1181.20 0.0355
1181.30 0.03549
1181.40 0.03548
1181.50 0.03546
1181.60 0.03545
1181.70 0.03544
1181.80 0.03543
1181.90 0.03542
1182.00 0.03541
1182.10 0.03539
1182.20 0.03538
1182.30 0.03537
1182.40 0.03536
1182.50 0.03535
1182.60 0.03534
1182.70 0.03532
1182.80 0.03531
1182.90 0.0353
1183.00 0.03529
1183.10 0.03528
1183.20 0.03527
1183.30 0.03525
1183.40 0.03524
1183.50 0.03523
1183.60 0.03522
1183.70 0.03521
1183.80 0.0352
1183.90 0.03518
1184.00 0.03517
1184.10 0.03516
1184.20 0.03515
1184.30 0.03514
1184.40 0.03513
1184.50 0.03511
1184.60 0.0351
1184.70 0.03509
1184.80 0.03508
1184.90 0.03507
1185.00 0.03506
1185.10 0.03505
1185.20 0.03503
1185.30 0.03502
1185.40 0.03501
1185.50 0.035
1185.60 0.03499
1185.70 0.03498
1185.80 0.03496
1185.90 0.03495
1186.00 0.03494
1186.10 0.03493
1186.20 0.03492
1186.30 0.03491
1186.40 0.0349
1186.50 0.03488
1186.60 0.03487
1186.70 0.03486
1186.80 0.03485
1186.90 0.03484
1187.00 0.03483
1187.10 0.03481
1187.20 0.0348
1187.30 0.03479
1187.40 0.03478
1187.50 0.03477
1187.60 0.03476
1187.70 0.03475
1187.80 0.03473
1187.90 0.03472
1188.00 0.03471
1188.10 0.0347
1188.20 0.03469
1188.30 0.03468
1188.40 0.03467
1188.50 0.03465
1188.60 0.03464
1188.70 0.03463
1188.80 0.03462
1188.90 0.03461
1189.00 0.0346
1189.10 0.03459
1189.20 0.03458
1189.30 0.03456
1189.40 0.03455
1189.50 0.03454
1189.60 0.03453
1189.70 0.03452
1189.80 0.03451
1189.90 0.0345
1190.00 0.03448
1190.10 0.03447
1190.20 0.03446
1190.30 0.03445
1190.40 0.03444
1190.50 0.03443
1190.60 0.03442
1190.70 0.03441
1190.80 0.03439
1190.90 0.03438
1191.00 0.03437
1191.10 0.03436
1191.20 0.03435
1191.30 0.03434
1191.40 0.03433
1191.50 0.03431
1191.60 0.0343
1191.70 0.03429
1191.80 0.03428
1191.90 0.03427
1192.00 0.03426
1192.10 0.03425
1192.20 0.03424
1192.30 0.03422
1192.40 0.03421
1192.50 0.0342
1192.60 0.03419
1192.70 0.03418
1192.80 0.03417
1192.90 0.03416
1193.00 0.03415
1193.10 0.03414
1193.20 0.03412
1193.30 0.03411
1193.40 0.0341
1193.50 0.03409
1193.60 0.03408
1193.70 0.03407
1193.80 0.03406
1193.90 0.03405
1194.00 0.03403
1194.10 0.03402
1194.20 0.03401
1194.30 0.034
1194.40 0.03399
1194.50 0.03398
1194.60 0.03397
1194.70 0.03396
1194.80 0.03395
1194.90 0.03393
1195.00 0.03392
1195.10 0.03391
1195.20 0.0339
1195.30 0.03389
1195.40 0.03388
1195.50 0.03387
1195.60 0.03386
1195.70 0.03385
1195.80 0.03383
1195.90 0.03382
1196.00 0.03381
1196.10 0.0338
1196.20 0.03379
1196.30 0.03378
1196.40 0.03377
1196.50 0.03376
1196.60 0.03375
1196.70 0.03374
1196.80 0.03372
1196.90 0.03371
1197.00 0.0337
1197.10 0.03369
1197.20 0.03368
1197.30 0.03367
1197.40 0.03366
1197.50 0.03365
1197.60 0.03364
1197.70 0.03363
1197.80 0.03361
1197.90 0.0336
1198.00 0.03359
1198.10 0.03358
1198.20 0.03357
1198.30 0.03356
1198.40 0.03355
1198.50 0.03354
1198.60 0.03353
1198.70 0.03352
1198.80 0.0335
1198.90 0.03349
1199.00 0.03348
1199.10 0.03347
1199.20 0.03346
1199.30 0.03345
1199.40 0.03344
1199.50 0.03343
1199.60 0.03342
1199.70 0.03341
1199.80 0.0334
1199.90 0.03338
1200.00 0
