# Version 2.1 - nm, norm@500 to 1, cut digits, bergeron_70000_80.dat_70000
# Wavelength(nm)  Flambda(ergs/cm^s/s/nm)
300.00 6.552
300.10 6.544
300.20 6.536
300.30 6.528
300.40 6.52
300.50 6.512
300.60 6.504
300.70 6.496
300.80 6.488
300.90 6.48
301.00 6.472
301.10 6.464
301.20 6.456
301.30 6.448
301.40 6.44
301.50 6.432
301.60 6.425
301.70 6.417
301.80 6.409
301.90 6.401
302.00 6.393
302.10 6.385
302.20 6.377
302.30 6.37
302.40 6.362
302.50 6.354
302.60 6.346
302.70 6.339
302.80 6.331
302.90 6.323
303.00 6.315
303.10 6.308
303.20 6.3
303.30 6.292
303.40 6.285
303.50 6.277
303.60 6.269
303.70 6.262
303.80 6.254
303.90 6.246
304.00 6.239
304.10 6.231
304.20 6.224
304.30 6.216
304.40 6.208
304.50 6.201
304.60 6.193
304.70 6.186
304.80 6.178
304.90 6.171
305.00 6.163
305.10 6.156
305.20 6.148
305.30 6.141
305.40 6.133
305.50 6.126
305.60 6.119
305.70 6.111
305.80 6.104
305.90 6.096
306.00 6.089
306.10 6.082
306.20 6.074
306.30 6.067
306.40 6.06
306.50 6.052
306.60 6.045
306.70 6.038
306.80 6.03
306.90 6.023
307.00 6.016
307.10 6.009
307.20 6.001
307.30 5.994
307.40 5.987
307.50 5.98
307.60 5.972
307.70 5.965
307.80 5.958
307.90 5.951
308.00 5.944
308.10 5.937
308.20 5.929
308.30 5.922
308.40 5.915
308.50 5.908
308.60 5.901
308.70 5.894
308.80 5.887
308.90 5.88
309.00 5.873
309.10 5.866
309.20 5.859
309.30 5.852
309.40 5.845
309.50 5.838
309.60 5.831
309.70 5.824
309.80 5.817
309.90 5.81
310.00 5.803
310.10 5.796
310.20 5.789
310.30 5.782
310.40 5.775
310.50 5.768
310.60 5.761
310.70 5.754
310.80 5.748
310.90 5.741
311.00 5.734
311.10 5.727
311.20 5.72
311.30 5.713
311.40 5.707
311.50 5.7
311.60 5.693
311.70 5.686
311.80 5.68
311.90 5.673
312.00 5.666
312.10 5.659
312.20 5.653
312.30 5.646
312.40 5.639
312.50 5.632
312.60 5.626
312.70 5.619
312.80 5.612
312.90 5.606
313.00 5.599
313.10 5.593
313.20 5.586
313.30 5.579
313.40 5.573
313.50 5.566
313.60 5.56
313.70 5.553
313.80 5.546
313.90 5.54
314.00 5.533
314.10 5.527
314.20 5.52
314.30 5.514
314.40 5.507
314.50 5.501
314.60 5.494
314.70 5.488
314.80 5.481
314.90 5.475
315.00 5.468
315.10 5.462
315.20 5.455
315.30 5.449
315.40 5.443
315.50 5.436
315.60 5.43
315.70 5.423
315.80 5.417
315.90 5.411
316.00 5.404
316.10 5.398
316.20 5.392
316.30 5.385
316.40 5.379
316.50 5.373
316.60 5.366
316.70 5.36
316.80 5.354
316.90 5.348
317.00 5.341
317.10 5.335
317.20 5.329
317.30 5.323
317.40 5.316
317.50 5.31
317.60 5.304
317.70 5.298
317.80 5.292
317.90 5.285
318.00 5.279
318.10 5.273
318.20 5.267
318.30 5.261
318.40 5.255
318.50 5.249
318.60 5.242
318.70 5.236
318.80 5.23
318.90 5.224
319.00 5.218
319.10 5.212
319.20 5.206
319.30 5.2
319.40 5.194
319.50 5.188
319.60 5.182
319.70 5.176
319.80 5.17
319.90 5.164
320.00 5.158
320.10 5.152
320.20 5.146
320.30 5.14
320.40 5.134
320.50 5.128
320.60 5.122
320.70 5.116
320.80 5.11
320.90 5.104
321.00 5.098
321.10 5.092
321.20 5.087
321.30 5.081
321.40 5.075
321.50 5.069
321.60 5.063
321.70 5.057
321.80 5.051
321.90 5.046
322.00 5.04
322.10 5.034
322.20 5.028
322.30 5.022
322.40 5.017
322.50 5.011
322.60 5.005
322.70 4.999
322.80 4.993
322.90 4.988
323.00 4.982
323.10 4.976
323.20 4.971
323.30 4.965
323.40 4.959
323.50 4.953
323.60 4.948
323.70 4.942
323.80 4.936
323.90 4.931
324.00 4.925
324.10 4.919
324.20 4.914
324.30 4.908
324.40 4.903
324.50 4.897
324.60 4.891
324.70 4.886
324.80 4.88
324.90 4.875
325.00 4.869
325.10 4.863
325.20 4.858
325.30 4.852
325.40 4.847
325.50 4.841
325.60 4.836
325.70 4.83
325.80 4.825
325.90 4.819
326.00 4.814
326.10 4.808
326.20 4.803
326.30 4.797
326.40 4.792
326.50 4.786
326.60 4.781
326.70 4.775
326.80 4.77
326.90 4.765
327.00 4.759
327.10 4.754
327.20 4.748
327.30 4.743
327.40 4.738
327.50 4.732
327.60 4.727
327.70 4.721
327.80 4.716
327.90 4.711
328.00 4.705
328.10 4.7
328.20 4.695
328.30 4.689
328.40 4.684
328.50 4.679
328.60 4.673
328.70 4.668
328.80 4.663
328.90 4.658
329.00 4.652
329.10 4.647
329.20 4.642
329.30 4.637
329.40 4.631
329.50 4.626
329.60 4.621
329.70 4.616
329.80 4.611
329.90 4.605
330.00 4.6
330.10 4.595
330.20 4.59
330.30 4.585
330.40 4.579
330.50 4.574
330.60 4.569
330.70 4.564
330.80 4.559
330.90 4.554
331.00 4.549
331.10 4.544
331.20 4.538
331.30 4.533
331.40 4.528
331.50 4.523
331.60 4.518
331.70 4.513
331.80 4.508
331.90 4.503
332.00 4.498
332.10 4.493
332.20 4.488
332.30 4.483
332.40 4.478
332.50 4.473
332.60 4.468
332.70 4.463
332.80 4.458
332.90 4.453
333.00 4.448
333.10 4.443
333.20 4.438
333.30 4.433
333.40 4.428
333.50 4.423
333.60 4.418
333.70 4.413
333.80 4.408
333.90 4.403
334.00 4.398
334.10 4.393
334.20 4.389
334.30 4.384
334.40 4.379
334.50 4.374
334.60 4.369
334.70 4.364
334.80 4.359
334.90 4.355
335.00 4.35
335.10 4.345
335.20 4.34
335.30 4.335
335.40 4.33
335.50 4.326
335.60 4.321
335.70 4.316
335.80 4.311
335.90 4.306
336.00 4.302
336.10 4.297
336.20 4.292
336.30 4.287
336.40 4.283
336.50 4.278
336.60 4.273
336.70 4.269
336.80 4.264
336.90 4.259
337.00 4.254
337.10 4.25
337.20 4.245
337.30 4.24
337.40 4.236
337.50 4.231
337.60 4.226
337.70 4.222
337.80 4.217
337.90 4.212
338.00 4.208
338.10 4.203
338.20 4.198
338.30 4.194
338.40 4.189
338.50 4.185
338.60 4.18
338.70 4.175
338.80 4.171
338.90 4.166
339.00 4.162
339.10 4.157
339.20 4.152
339.30 4.148
339.40 4.143
339.50 4.139
339.60 4.134
339.70 4.13
339.80 4.125
339.90 4.121
340.00 4.116
340.10 4.112
340.20 4.107
340.30 4.103
340.40 4.098
340.50 4.094
340.60 4.089
340.70 4.085
340.80 4.08
340.90 4.076
341.00 4.071
341.10 4.067
341.20 4.062
341.30 4.058
341.40 4.054
341.50 4.049
341.60 4.045
341.70 4.04
341.80 4.036
341.90 4.031
342.00 4.027
342.10 4.023
342.20 4.018
342.30 4.014
342.40 4.01
342.50 4.005
342.60 4.001
342.70 3.997
342.80 3.992
342.90 3.988
343.00 3.984
343.10 3.979
343.20 3.975
343.30 3.971
343.40 3.966
343.50 3.962
343.60 3.958
343.70 3.953
343.80 3.949
343.90 3.945
344.00 3.94
344.10 3.936
344.20 3.932
344.30 3.928
344.40 3.923
344.50 3.919
344.60 3.915
344.70 3.911
344.80 3.907
344.90 3.902
345.00 3.898
345.10 3.894
345.20 3.89
345.30 3.885
345.40 3.881
345.50 3.877
345.60 3.873
345.70 3.869
345.80 3.864
345.90 3.86
346.00 3.856
346.10 3.852
346.20 3.848
346.30 3.844
346.40 3.84
346.50 3.835
346.60 3.831
346.70 3.827
346.80 3.823
346.90 3.819
347.00 3.815
347.10 3.811
347.20 3.807
347.30 3.803
347.40 3.799
347.50 3.794
347.60 3.79
347.70 3.786
347.80 3.782
347.90 3.778
348.00 3.774
348.10 3.77
348.20 3.766
348.30 3.762
348.40 3.758
348.50 3.754
348.60 3.75
348.70 3.746
348.80 3.742
348.90 3.738
349.00 3.734
349.10 3.73
349.20 3.726
349.30 3.722
349.40 3.718
349.50 3.714
349.60 3.71
349.70 3.706
349.80 3.702
349.90 3.698
350.00 3.694
350.10 3.69
350.20 3.686
350.30 3.682
350.40 3.679
350.50 3.675
350.60 3.671
350.70 3.667
350.80 3.663
350.90 3.659
351.00 3.655
351.10 3.651
351.20 3.647
351.30 3.644
351.40 3.64
351.50 3.636
351.60 3.632
351.70 3.628
351.80 3.624
351.90 3.62
352.00 3.616
352.10 3.613
352.20 3.609
352.30 3.605
352.40 3.601
352.50 3.597
352.60 3.594
352.70 3.59
352.80 3.586
352.90 3.582
353.00 3.578
353.10 3.575
353.20 3.571
353.30 3.567
353.40 3.563
353.50 3.56
353.60 3.556
353.70 3.552
353.80 3.548
353.90 3.545
354.00 3.541
354.10 3.537
354.20 3.533
354.30 3.53
354.40 3.526
354.50 3.522
354.60 3.518
354.70 3.515
354.80 3.511
354.90 3.507
355.00 3.504
355.10 3.5
355.20 3.496
355.30 3.493
355.40 3.489
355.50 3.485
355.60 3.482
355.70 3.478
355.80 3.474
355.90 3.471
356.00 3.467
356.10 3.463
356.20 3.46
356.30 3.456
356.40 3.453
356.50 3.449
356.60 3.445
356.70 3.442
356.80 3.438
356.90 3.435
357.00 3.431
357.10 3.427
357.20 3.424
357.30 3.42
357.40 3.417
357.50 3.413
357.60 3.409
357.70 3.406
357.80 3.402
357.90 3.399
358.00 3.395
358.10 3.392
358.20 3.388
358.30 3.385
358.40 3.381
358.50 3.378
358.60 3.374
358.70 3.371
358.80 3.367
358.90 3.364
359.00 3.36
359.10 3.357
359.20 3.353
359.30 3.35
359.40 3.346
359.50 3.343
359.60 3.339
359.70 3.336
359.80 3.332
359.90 3.329
360.00 3.325
360.10 3.322
360.20 3.318
360.30 3.315
360.40 3.311
360.50 3.308
360.60 3.305
360.70 3.301
360.80 3.298
360.90 3.294
361.00 3.291
361.10 3.288
361.20 3.284
361.30 3.281
361.40 3.277
361.50 3.274
361.60 3.271
361.70 3.267
361.80 3.264
361.90 3.26
362.00 3.257
362.10 3.254
362.20 3.25
362.30 3.247
362.40 3.244
362.50 3.24
362.60 3.237
362.70 3.234
362.80 3.23
362.90 3.227
363.00 3.224
363.10 3.22
363.20 3.217
363.30 3.214
363.40 3.21
363.50 3.207
363.60 3.204
363.70 3.201
363.80 3.197
363.90 3.194
364.00 3.191
364.10 3.187
364.20 3.184
364.30 3.181
364.40 3.178
364.50 3.174
364.60 3.171
364.70 3.168
364.80 3.165
364.90 3.161
365.00 3.158
365.10 3.155
365.20 3.152
365.30 3.148
365.40 3.145
365.50 3.142
365.60 3.139
365.70 3.136
365.80 3.132
365.90 3.129
366.00 3.126
366.10 3.123
366.20 3.119
366.30 3.116
366.40 3.113
366.50 3.11
366.60 3.106
366.70 3.103
366.80 3.1
366.90 3.097
367.00 3.094
367.10 3.09
367.20 3.087
367.30 3.084
367.40 3.081
367.50 3.078
367.60 3.074
367.70 3.071
367.80 3.068
367.90 3.065
368.00 3.062
368.10 3.058
368.20 3.055
368.30 3.052
368.40 3.049
368.50 3.046
368.60 3.042
368.70 3.039
368.80 3.036
368.90 3.033
369.00 3.03
369.10 3.027
369.20 3.023
369.30 3.02
369.40 3.017
369.50 3.014
369.60 3.011
369.70 3.008
369.80 3.005
369.90 3.001
370.00 2.998
370.10 2.995
370.20 2.992
370.30 2.989
370.40 2.986
370.50 2.983
370.60 2.98
370.70 2.977
370.80 2.974
370.90 2.971
371.00 2.967
371.10 2.964
371.20 2.961
371.30 2.958
371.40 2.955
371.50 2.952
371.60 2.949
371.70 2.946
371.80 2.943
371.90 2.94
372.00 2.937
372.10 2.934
372.20 2.931
372.30 2.928
372.40 2.925
372.50 2.922
372.60 2.919
372.70 2.916
372.80 2.913
372.90 2.91
373.00 2.907
373.10 2.904
373.20 2.901
373.30 2.898
373.40 2.895
373.50 2.893
373.60 2.89
373.70 2.887
373.80 2.884
373.90 2.881
374.00 2.878
374.10 2.875
374.20 2.872
374.30 2.869
374.40 2.866
374.50 2.863
374.60 2.86
374.70 2.857
374.80 2.855
374.90 2.852
375.00 2.849
375.10 2.846
375.20 2.843
375.30 2.84
375.40 2.837
375.50 2.834
375.60 2.831
375.70 2.829
375.80 2.826
375.90 2.823
376.00 2.82
376.10 2.817
376.20 2.814
376.30 2.812
376.40 2.809
376.50 2.806
376.60 2.803
376.70 2.8
376.80 2.798
376.90 2.795
377.00 2.792
377.10 2.789
377.20 2.786
377.30 2.784
377.40 2.781
377.50 2.778
377.60 2.776
377.70 2.773
377.80 2.77
377.90 2.767
378.00 2.765
378.10 2.762
378.20 2.759
378.30 2.757
378.40 2.754
378.50 2.751
378.60 2.749
378.70 2.746
378.80 2.743
378.90 2.741
379.00 2.738
379.10 2.735
379.20 2.733
379.30 2.73
379.40 2.727
379.50 2.725
379.60 2.722
379.70 2.72
379.80 2.717
379.90 2.714
380.00 2.712
380.10 2.709
380.20 2.707
380.30 2.704
380.40 2.702
380.50 2.699
380.60 2.697
380.70 2.694
380.80 2.692
380.90 2.689
381.00 2.687
381.10 2.684
381.20 2.682
381.30 2.679
381.40 2.677
381.50 2.674
381.60 2.672
381.70 2.669
381.80 2.666
381.90 2.664
382.00 2.661
382.10 2.659
382.20 2.656
382.30 2.654
382.40 2.651
382.50 2.648
382.60 2.646
382.70 2.643
382.80 2.641
382.90 2.638
383.00 2.635
383.10 2.633
383.20 2.63
383.30 2.628
383.40 2.625
383.50 2.623
383.60 2.621
383.70 2.618
383.80 2.616
383.90 2.614
384.00 2.612
384.10 2.61
384.20 2.607
384.30 2.605
384.40 2.603
384.50 2.601
384.60 2.599
384.70 2.597
384.80 2.595
384.90 2.593
385.00 2.59
385.10 2.588
385.20 2.586
385.30 2.584
385.40 2.581
385.50 2.579
385.60 2.577
385.70 2.574
385.80 2.572
385.90 2.569
386.00 2.567
386.10 2.564
386.20 2.562
386.30 2.559
386.40 2.556
386.50 2.554
386.60 2.551
386.70 2.548
386.80 2.545
386.90 2.543
387.00 2.54
387.10 2.537
387.20 2.534
387.30 2.531
387.40 2.528
387.50 2.525
387.60 2.522
387.70 2.519
387.80 2.516
387.90 2.513
388.00 2.51
388.10 2.507
388.20 2.504
388.30 2.501
388.40 2.498
388.50 2.495
388.60 2.492
388.70 2.49
388.80 2.488
388.90 2.486
389.00 2.484
389.10 2.482
389.20 2.48
389.30 2.478
389.40 2.477
389.50 2.476
389.60 2.474
389.70 2.473
389.80 2.472
389.90 2.471
390.00 2.47
390.10 2.469
390.20 2.467
390.30 2.466
390.40 2.465
390.50 2.464
390.60 2.462
390.70 2.461
390.80 2.46
390.90 2.458
391.00 2.457
391.10 2.455
391.20 2.454
391.30 2.452
391.40 2.45
391.50 2.448
391.60 2.447
391.70 2.445
391.80 2.443
391.90 2.441
392.00 2.439
392.10 2.437
392.20 2.435
392.30 2.432
392.40 2.43
392.50 2.428
392.60 2.425
392.70 2.423
392.80 2.42
392.90 2.418
393.00 2.415
393.10 2.412
393.20 2.41
393.30 2.407
393.40 2.404
393.50 2.401
393.60 2.398
393.70 2.394
393.80 2.391
393.90 2.388
394.00 2.384
394.10 2.381
394.20 2.377
394.30 2.374
394.40 2.37
394.50 2.366
394.60 2.362
394.70 2.358
394.80 2.354
394.90 2.35
395.00 2.346
395.10 2.342
395.20 2.337
395.30 2.333
395.40 2.329
395.50 2.324
395.60 2.319
395.70 2.315
395.80 2.31
395.90 2.305
396.00 2.301
396.10 2.296
396.20 2.291
396.30 2.286
396.40 2.281
396.50 2.277
396.60 2.272
396.70 2.268
396.80 2.263
396.90 2.259
397.00 2.256
397.10 2.255
397.20 2.255
397.30 2.256
397.40 2.256
397.50 2.257
397.60 2.258
397.70 2.259
397.80 2.26
397.90 2.261
398.00 2.262
398.10 2.262
398.20 2.263
398.30 2.264
398.40 2.265
398.50 2.266
398.60 2.266
398.70 2.267
398.80 2.267
398.90 2.268
399.00 2.268
399.10 2.268
399.20 2.269
399.30 2.269
399.40 2.269
399.50 2.269
399.60 2.269
399.70 2.269
399.80 2.269
399.90 2.268
400.00 2.268
400.10 2.268
400.20 2.267
400.30 2.267
400.40 2.266
400.50 2.265
400.60 2.265
400.70 2.264
400.80 2.263
400.90 2.262
401.00 2.261
401.10 2.26
401.20 2.259
401.30 2.258
401.40 2.257
401.50 2.255
401.60 2.254
401.70 2.253
401.80 2.251
401.90 2.25
402.00 2.249
402.10 2.247
402.20 2.245
402.30 2.244
402.40 2.242
402.50 2.24
402.60 2.239
402.70 2.237
402.80 2.235
402.90 2.233
403.00 2.231
403.10 2.229
403.20 2.227
403.30 2.225
403.40 2.223
403.50 2.221
403.60 2.219
403.70 2.216
403.80 2.214
403.90 2.212
404.00 2.209
404.10 2.207
404.20 2.204
404.30 2.202
404.40 2.199
404.50 2.197
404.60 2.194
404.70 2.191
404.80 2.188
404.90 2.186
405.00 2.183
405.10 2.18
405.20 2.177
405.30 2.174
405.40 2.17
405.50 2.167
405.60 2.164
405.70 2.16
405.80 2.157
405.90 2.153
406.00 2.15
406.10 2.146
406.20 2.142
406.30 2.139
406.40 2.135
406.50 2.131
406.60 2.127
406.70 2.122
406.80 2.118
406.90 2.114
407.00 2.109
407.10 2.104
407.20 2.1
407.30 2.095
407.40 2.09
407.50 2.085
407.60 2.079
407.70 2.074
407.80 2.069
407.90 2.063
408.00 2.057
408.10 2.051
408.20 2.045
408.30 2.039
408.40 2.033
408.50 2.026
408.60 2.02
408.70 2.013
408.80 2.006
408.90 1.999
409.00 1.992
409.10 1.985
409.20 1.978
409.30 1.971
409.40 1.964
409.50 1.957
409.60 1.95
409.70 1.943
409.80 1.938
409.90 1.933
410.00 1.931
410.10 1.931
410.20 1.932
410.30 1.927
410.40 1.924
410.50 1.924
410.60 1.926
410.70 1.929
410.80 1.932
410.90 1.936
411.00 1.94
411.10 1.943
411.20 1.947
411.30 1.951
411.40 1.954
411.50 1.957
411.60 1.961
411.70 1.964
411.80 1.967
411.90 1.97
412.00 1.972
412.10 1.975
412.20 1.977
412.30 1.98
412.40 1.982
412.50 1.984
412.60 1.986
412.70 1.987
412.80 1.989
412.90 1.991
413.00 1.992
413.10 1.993
413.20 1.994
413.30 1.995
413.40 1.996
413.50 1.997
413.60 1.997
413.70 1.998
413.80 1.998
413.90 1.999
414.00 1.999
414.10 1.999
414.20 1.999
414.30 1.999
414.40 1.999
414.50 1.999
414.60 1.999
414.70 1.999
414.80 1.999
414.90 1.998
415.00 1.998
415.10 1.997
415.20 1.997
415.30 1.996
415.40 1.996
415.50 1.995
415.60 1.994
415.70 1.993
415.80 1.992
415.90 1.992
416.00 1.991
416.10 1.99
416.20 1.989
416.30 1.988
416.40 1.987
416.50 1.986
416.60 1.985
416.70 1.984
416.80 1.982
416.90 1.981
417.00 1.98
417.10 1.979
417.20 1.978
417.30 1.976
417.40 1.975
417.50 1.974
417.60 1.972
417.70 1.971
417.80 1.97
417.90 1.968
418.00 1.967
418.10 1.966
418.20 1.964
418.30 1.963
418.40 1.961
418.50 1.96
418.60 1.958
418.70 1.957
418.80 1.955
418.90 1.954
419.00 1.952
419.10 1.951
419.20 1.949
419.30 1.948
419.40 1.946
419.50 1.945
419.60 1.943
419.70 1.942
419.80 1.94
419.90 1.938
420.00 1.937
420.10 1.935
420.20 1.934
420.30 1.932
420.40 1.93
420.50 1.929
420.60 1.927
420.70 1.925
420.80 1.924
420.90 1.922
421.00 1.92
421.10 1.919
421.20 1.917
421.30 1.915
421.40 1.914
421.50 1.912
421.60 1.91
421.70 1.909
421.80 1.907
421.90 1.905
422.00 1.904
422.10 1.902
422.20 1.9
422.30 1.898
422.40 1.897
422.50 1.895
422.60 1.893
422.70 1.892
422.80 1.89
422.90 1.888
423.00 1.886
423.10 1.885
423.20 1.883
423.30 1.881
423.40 1.879
423.50 1.877
423.60 1.876
423.70 1.874
423.80 1.872
423.90 1.87
424.00 1.868
424.10 1.867
424.20 1.865
424.30 1.863
424.40 1.861
424.50 1.859
424.60 1.857
424.70 1.856
424.80 1.854
424.90 1.852
425.00 1.85
425.10 1.848
425.20 1.846
425.30 1.844
425.40 1.842
425.50 1.84
425.60 1.838
425.70 1.836
425.80 1.835
425.90 1.833
426.00 1.831
426.10 1.829
426.20 1.827
426.30 1.825
426.40 1.822
426.50 1.82
426.60 1.818
426.70 1.816
426.80 1.814
426.90 1.812
427.00 1.81
427.10 1.808
427.20 1.805
427.30 1.803
427.40 1.801
427.50 1.799
427.60 1.796
427.70 1.794
427.80 1.792
427.90 1.789
428.00 1.787
428.10 1.785
428.20 1.782
428.30 1.78
428.40 1.777
428.50 1.774
428.60 1.772
428.70 1.769
428.80 1.766
428.90 1.764
429.00 1.761
429.10 1.758
429.20 1.755
429.30 1.752
429.40 1.749
429.50 1.746
429.60 1.742
429.70 1.739
429.80 1.736
429.90 1.732
430.00 1.729
430.10 1.725
430.20 1.722
430.30 1.718
430.40 1.714
430.50 1.71
430.60 1.706
430.70 1.702
430.80 1.697
430.90 1.693
431.00 1.688
431.10 1.684
431.20 1.679
431.30 1.674
431.40 1.669
431.50 1.664
431.60 1.658
431.70 1.653
431.80 1.647
431.90 1.641
432.00 1.635
432.10 1.629
432.20 1.622
432.30 1.616
432.40 1.609
432.50 1.602
432.60 1.595
432.70 1.588
432.80 1.58
432.90 1.573
433.00 1.565
433.10 1.558
433.20 1.55
433.30 1.543
433.40 1.535
433.50 1.528
433.60 1.521
433.70 1.514
433.80 1.507
433.90 1.5
434.00 1.494
434.10 1.493
434.20 1.497
434.30 1.501
434.40 1.506
434.50 1.51
434.60 1.514
434.70 1.519
434.80 1.524
434.90 1.529
435.00 1.534
435.10 1.539
435.20 1.544
435.30 1.548
435.40 1.553
435.50 1.557
435.60 1.562
435.70 1.566
435.80 1.57
435.90 1.573
436.00 1.577
436.10 1.58
436.20 1.583
436.30 1.586
436.40 1.589
436.50 1.592
436.60 1.594
436.70 1.597
436.80 1.599
436.90 1.601
437.00 1.603
437.10 1.604
437.20 1.606
437.30 1.607
437.40 1.608
437.50 1.61
437.60 1.611
437.70 1.612
437.80 1.612
437.90 1.613
438.00 1.614
438.10 1.614
438.20 1.615
438.30 1.615
438.40 1.615
438.50 1.616
438.60 1.616
438.70 1.616
438.80 1.616
438.90 1.616
439.00 1.616
439.10 1.615
439.20 1.615
439.30 1.615
439.40 1.615
439.50 1.614
439.60 1.614
439.70 1.613
439.80 1.613
439.90 1.612
440.00 1.612
440.10 1.611
440.20 1.61
440.30 1.61
440.40 1.609
440.50 1.608
440.60 1.608
440.70 1.607
440.80 1.606
440.90 1.605
441.00 1.604
441.10 1.603
441.20 1.602
441.30 1.602
441.40 1.601
441.50 1.6
441.60 1.599
441.70 1.598
441.80 1.597
441.90 1.596
442.00 1.595
442.10 1.594
442.20 1.593
442.30 1.592
442.40 1.591
442.50 1.589
442.60 1.588
442.70 1.587
442.80 1.586
442.90 1.585
443.00 1.584
443.10 1.583
443.20 1.582
443.30 1.58
443.40 1.579
443.50 1.578
443.60 1.577
443.70 1.576
443.80 1.575
443.90 1.574
444.00 1.572
444.10 1.571
444.20 1.57
444.30 1.569
444.40 1.568
444.50 1.566
444.60 1.565
444.70 1.564
444.80 1.563
444.90 1.562
445.00 1.56
445.10 1.559
445.20 1.558
445.30 1.557
445.40 1.555
445.50 1.554
445.60 1.553
445.70 1.552
445.80 1.55
445.90 1.549
446.00 1.548
446.10 1.547
446.20 1.546
446.30 1.544
446.40 1.543
446.50 1.542
446.60 1.541
446.70 1.539
446.80 1.538
446.90 1.537
447.00 1.536
447.10 1.534
447.20 1.533
447.30 1.532
447.40 1.531
447.50 1.529
447.60 1.528
447.70 1.527
447.80 1.526
447.90 1.524
448.00 1.523
448.10 1.522
448.20 1.521
448.30 1.519
448.40 1.518
448.50 1.517
448.60 1.516
448.70 1.514
448.80 1.513
448.90 1.512
449.00 1.511
449.10 1.509
449.20 1.508
449.30 1.507
449.40 1.506
449.50 1.504
449.60 1.503
449.70 1.502
449.80 1.501
449.90 1.499
450.00 1.498
450.10 1.497
450.20 1.496
450.30 1.494
450.40 1.493
450.50 1.492
450.60 1.491
450.70 1.489
450.80 1.488
450.90 1.487
451.00 1.486
451.10 1.484
451.20 1.483
451.30 1.482
451.40 1.481
451.50 1.48
451.60 1.478
451.70 1.477
451.80 1.476
451.90 1.475
452.00 1.473
452.10 1.472
452.20 1.471
452.30 1.47
452.40 1.468
452.50 1.467
452.60 1.466
452.70 1.465
452.80 1.464
452.90 1.462
453.00 1.461
453.10 1.46
453.20 1.459
453.30 1.457
453.40 1.456
453.50 1.455
453.60 1.454
453.70 1.453
453.80 1.451
453.90 1.45
454.00 1.449
454.10 1.448
454.20 1.447
454.30 1.445
454.40 1.444
454.50 1.443
454.60 1.442
454.70 1.441
454.80 1.439
454.90 1.438
455.00 1.437
455.10 1.436
455.20 1.435
455.30 1.433
455.40 1.432
455.50 1.431
455.60 1.43
455.70 1.429
455.80 1.427
455.90 1.426
456.00 1.425
456.10 1.424
456.20 1.423
456.30 1.421
456.40 1.42
456.50 1.419
456.60 1.418
456.70 1.417
456.80 1.415
456.90 1.414
457.00 1.413
457.10 1.412
457.20 1.411
457.30 1.41
457.40 1.408
457.50 1.407
457.60 1.406
457.70 1.405
457.80 1.404
457.90 1.403
458.00 1.401
458.10 1.4
458.20 1.399
458.30 1.398
458.40 1.397
458.50 1.396
458.60 1.394
458.70 1.393
458.80 1.392
458.90 1.391
459.00 1.39
459.10 1.389
459.20 1.387
459.30 1.386
459.40 1.385
459.50 1.384
459.60 1.383
459.70 1.382
459.80 1.38
459.90 1.379
460.00 1.378
460.10 1.377
460.20 1.376
460.30 1.375
460.40 1.374
460.50 1.372
460.60 1.371
460.70 1.37
460.80 1.369
460.90 1.368
461.00 1.367
461.10 1.366
461.20 1.364
461.30 1.363
461.40 1.362
461.50 1.361
461.60 1.36
461.70 1.359
461.80 1.358
461.90 1.357
462.00 1.355
462.10 1.354
462.20 1.353
462.30 1.352
462.40 1.351
462.50 1.35
462.60 1.349
462.70 1.347
462.80 1.346
462.90 1.345
463.00 1.344
463.10 1.343
463.20 1.342
463.30 1.341
463.40 1.34
463.50 1.339
463.60 1.337
463.70 1.336
463.80 1.335
463.90 1.334
464.00 1.333
464.10 1.332
464.20 1.331
464.30 1.33
464.40 1.329
464.50 1.327
464.60 1.326
464.70 1.325
464.80 1.324
464.90 1.323
465.00 1.322
465.10 1.321
465.20 1.32
465.30 1.319
465.40 1.318
465.50 1.316
465.60 1.315
465.70 1.314
465.80 1.313
465.90 1.312
466.00 1.311
466.10 1.31
466.20 1.309
466.30 1.308
466.40 1.307
466.50 1.306
466.60 1.304
466.70 1.303
466.80 1.302
466.90 1.301
467.00 1.3
467.10 1.299
467.20 1.298
467.30 1.297
467.40 1.296
467.50 1.295
467.60 1.294
467.70 1.293
467.80 1.291
467.90 1.29
468.00 1.289
468.10 1.288
468.20 1.287
468.30 1.286
468.40 1.285
468.50 1.284
468.60 1.283
468.70 1.282
468.80 1.281
468.90 1.28
469.00 1.279
469.10 1.277
469.20 1.276
469.30 1.275
469.40 1.274
469.50 1.273
469.60 1.272
469.70 1.271
469.80 1.27
469.90 1.269
470.00 1.268
470.10 1.267
470.20 1.266
470.30 1.265
470.40 1.264
470.50 1.263
470.60 1.261
470.70 1.26
470.80 1.259
470.90 1.258
471.00 1.257
471.10 1.256
471.20 1.255
471.30 1.254
471.40 1.253
471.50 1.252
471.60 1.251
471.70 1.25
471.80 1.249
471.90 1.248
472.00 1.247
472.10 1.246
472.20 1.245
472.30 1.243
472.40 1.242
472.50 1.241
472.60 1.24
472.70 1.239
472.80 1.238
472.90 1.237
473.00 1.236
473.10 1.235
473.20 1.234
473.30 1.233
473.40 1.232
473.50 1.231
473.60 1.23
473.70 1.229
473.80 1.227
473.90 1.226
474.00 1.225
474.10 1.224
474.20 1.223
474.30 1.222
474.40 1.221
474.50 1.22
474.60 1.219
474.70 1.218
474.80 1.217
474.90 1.216
475.00 1.215
475.10 1.214
475.20 1.212
475.30 1.211
475.40 1.21
475.50 1.209
475.60 1.208
475.70 1.207
475.80 1.206
475.90 1.205
476.00 1.204
476.10 1.203
476.20 1.201
476.30 1.2
476.40 1.199
476.50 1.198
476.60 1.197
476.70 1.196
476.80 1.195
476.90 1.194
477.00 1.192
477.10 1.191
477.20 1.19
477.30 1.189
477.40 1.188
477.50 1.187
477.60 1.185
477.70 1.184
477.80 1.183
477.90 1.182
478.00 1.181
478.10 1.179
478.20 1.178
478.30 1.177
478.40 1.176
478.50 1.174
478.60 1.173
478.70 1.172
478.80 1.171
478.90 1.169
479.00 1.168
479.10 1.167
479.20 1.166
479.30 1.164
479.40 1.163
479.50 1.161
479.60 1.16
479.70 1.159
479.80 1.157
479.90 1.156
480.00 1.154
480.10 1.153
480.20 1.151
480.30 1.15
480.40 1.148
480.50 1.147
480.60 1.145
480.70 1.143
480.80 1.142
480.90 1.14
481.00 1.139
481.10 1.137
481.20 1.135
481.30 1.133
481.40 1.131
481.50 1.129
481.60 1.127
481.70 1.125
481.80 1.123
481.90 1.121
482.00 1.119
482.10 1.117
482.20 1.115
482.30 1.112
482.40 1.11
482.50 1.107
482.60 1.105
482.70 1.102
482.80 1.1
482.90 1.097
483.00 1.095
483.10 1.092
483.20 1.089
483.30 1.085
483.40 1.082
483.50 1.079
483.60 1.075
483.70 1.072
483.80 1.068
483.90 1.065
484.00 1.061
484.10 1.058
484.20 1.054
484.30 1.05
484.40 1.045
484.50 1.041
484.60 1.037
484.70 1.032
484.80 1.027
484.90 1.022
485.00 1.018
485.10 1.013
485.20 1.008
485.30 1.003
485.40 0.9977
485.50 0.9927
485.60 0.9878
485.70 0.983
485.80 0.979
485.90 0.9754
486.00 0.9749
486.10 0.9866
486.20 0.9802
486.30 0.9717
486.40 0.9728
486.50 0.9749
486.60 0.9778
486.70 0.9811
486.80 0.9845
486.90 0.988
487.00 0.9916
487.10 0.9951
487.20 0.9984
487.30 1.002
487.40 1.005
487.50 1.008
487.60 1.011
487.70 1.014
487.80 1.017
487.90 1.019
488.00 1.022
488.10 1.025
488.20 1.027
488.30 1.028
488.40 1.03
488.50 1.032
488.60 1.033
488.70 1.035
488.80 1.037
488.90 1.039
489.00 1.04
489.10 1.042
489.20 1.043
489.30 1.044
489.40 1.045
489.50 1.045
489.60 1.046
489.70 1.047
489.80 1.048
489.90 1.048
490.00 1.049
490.10 1.05
490.20 1.05
490.30 1.051
490.40 1.051
490.50 1.051
490.60 1.051
490.70 1.051
490.80 1.051
490.90 1.052
491.00 1.052
491.10 1.052
491.20 1.052
491.30 1.052
491.40 1.051
491.50 1.051
491.60 1.051
491.70 1.051
491.80 1.051
491.90 1.05
492.00 1.05
492.10 1.05
492.20 1.05
492.30 1.049
492.40 1.049
492.50 1.049
492.60 1.048
492.70 1.048
492.80 1.047
492.90 1.047
493.00 1.046
493.10 1.046
493.20 1.046
493.30 1.045
493.40 1.044
493.50 1.044
493.60 1.043
493.70 1.043
493.80 1.042
493.90 1.042
494.00 1.041
494.10 1.041
494.20 1.04
494.30 1.04
494.40 1.039
494.50 1.038
494.60 1.038
494.70 1.037
494.80 1.036
494.90 1.036
495.00 1.035
495.10 1.035
495.20 1.034
495.30 1.033
495.40 1.033
495.50 1.032
495.60 1.031
495.70 1.031
495.80 1.03
495.90 1.029
496.00 1.029
496.10 1.028
496.20 1.027
496.30 1.027
496.40 1.026
496.50 1.025
496.60 1.024
496.70 1.024
496.80 1.023
496.90 1.022
497.00 1.022
497.10 1.021
497.20 1.02
497.30 1.02
497.40 1.019
497.50 1.018
497.60 1.017
497.70 1.017
497.80 1.016
497.90 1.015
498.00 1.015
498.10 1.014
498.20 1.013
498.30 1.012
498.40 1.012
498.50 1.011
498.60 1.01
498.70 1.009
498.80 1.009
498.90 1.008
499.00 1.007
499.10 1.007
499.20 1.006
499.30 1.005
499.40 1.004
499.50 1.004
499.60 1.003
499.70 1.002
499.80 1.001
499.90 1.001
500.00 1
500.10 0.9993
500.20 0.9985
500.30 0.9978
500.40 0.9971
500.50 0.9963
500.60 0.9956
500.70 0.9949
500.80 0.9941
500.90 0.9934
501.00 0.9927
501.10 0.992
501.20 0.9912
501.30 0.9905
501.40 0.9898
501.50 0.989
501.60 0.9883
501.70 0.9876
501.80 0.9868
501.90 0.9861
502.00 0.9854
502.10 0.9846
502.20 0.9839
502.30 0.9832
502.40 0.9825
502.50 0.9817
502.60 0.981
502.70 0.9803
502.80 0.9795
502.90 0.9788
503.00 0.9781
503.10 0.9774
503.20 0.9766
503.30 0.9759
503.40 0.9752
503.50 0.9744
503.60 0.9737
503.70 0.973
503.80 0.9723
503.90 0.9715
504.00 0.9708
504.10 0.9701
504.20 0.9694
504.30 0.9686
504.40 0.9679
504.50 0.9672
504.60 0.9665
504.70 0.9657
504.80 0.965
504.90 0.9643
505.00 0.9636
505.10 0.9629
505.20 0.9621
505.30 0.9614
505.40 0.9607
505.50 0.96
505.60 0.9593
505.70 0.9586
505.80 0.9578
505.90 0.9571
506.00 0.9564
506.10 0.9557
506.20 0.955
506.30 0.9543
506.40 0.9536
506.50 0.9528
506.60 0.9521
506.70 0.9514
506.80 0.9507
506.90 0.95
507.00 0.9493
507.10 0.9486
507.20 0.9479
507.30 0.9471
507.40 0.9464
507.50 0.9457
507.60 0.945
507.70 0.9443
507.80 0.9436
507.90 0.9429
508.00 0.9422
508.10 0.9415
508.20 0.9408
508.30 0.9401
508.40 0.9394
508.50 0.9387
508.60 0.938
508.70 0.9373
508.80 0.9366
508.90 0.9359
509.00 0.9352
509.10 0.9345
509.20 0.9338
509.30 0.9331
509.40 0.9324
509.50 0.9317
509.60 0.931
509.70 0.9303
509.80 0.9296
509.90 0.9289
510.00 0.9282
510.10 0.9275
510.20 0.9268
510.30 0.9261
510.40 0.9254
510.50 0.9247
510.60 0.9241
510.70 0.9234
510.80 0.9227
510.90 0.922
511.00 0.9213
511.10 0.9206
511.20 0.9199
511.30 0.9192
511.40 0.9185
511.50 0.9179
511.60 0.9172
511.70 0.9165
511.80 0.9158
511.90 0.9151
512.00 0.9144
512.10 0.9138
512.20 0.9131
512.30 0.9124
512.40 0.9117
512.50 0.911
512.60 0.9104
512.70 0.9097
512.80 0.909
512.90 0.9083
513.00 0.9076
513.10 0.907
513.20 0.9063
513.30 0.9056
513.40 0.9049
513.50 0.9043
513.60 0.9036
513.70 0.9029
513.80 0.9023
513.90 0.9016
514.00 0.9009
514.10 0.9002
514.20 0.8996
514.30 0.8989
514.40 0.8982
514.50 0.8976
514.60 0.8969
514.70 0.8962
514.80 0.8956
514.90 0.8949
515.00 0.8942
515.10 0.8936
515.20 0.8929
515.30 0.8922
515.40 0.8916
515.50 0.8909
515.60 0.8903
515.70 0.8896
515.80 0.8889
515.90 0.8883
516.00 0.8876
516.10 0.887
516.20 0.8863
516.30 0.8856
516.40 0.885
516.50 0.8843
516.60 0.8837
516.70 0.883
516.80 0.8824
516.90 0.8817
517.00 0.8811
517.10 0.8804
517.20 0.8797
517.30 0.8791
517.40 0.8784
517.50 0.8778
517.60 0.8771
517.70 0.8765
517.80 0.8758
517.90 0.8752
518.00 0.8746
518.10 0.8739
518.20 0.8733
518.30 0.8726
518.40 0.872
518.50 0.8713
518.60 0.8707
518.70 0.87
518.80 0.8694
518.90 0.8688
519.00 0.8681
519.10 0.8675
519.20 0.8668
519.30 0.8662
519.40 0.8656
519.50 0.8649
519.60 0.8643
519.70 0.8636
519.80 0.863
519.90 0.8624
520.00 0.8617
520.10 0.8611
520.20 0.8605
520.30 0.8598
520.40 0.8592
520.50 0.8586
520.60 0.8579
520.70 0.8573
520.80 0.8567
520.90 0.856
521.00 0.8554
521.10 0.8548
521.20 0.8541
521.30 0.8535
521.40 0.8529
521.50 0.8523
521.60 0.8516
521.70 0.851
521.80 0.8504
521.90 0.8498
522.00 0.8491
522.10 0.8485
522.20 0.8479
522.30 0.8473
522.40 0.8466
522.50 0.846
522.60 0.8454
522.70 0.8448
522.80 0.8442
522.90 0.8435
523.00 0.8429
523.10 0.8423
523.20 0.8417
523.30 0.8411
523.40 0.8404
523.50 0.8398
523.60 0.8392
523.70 0.8386
523.80 0.838
523.90 0.8374
524.00 0.8368
524.10 0.8361
524.20 0.8355
524.30 0.8349
524.40 0.8343
524.50 0.8337
524.60 0.8331
524.70 0.8325
524.80 0.8319
524.90 0.8313
525.00 0.8307
525.10 0.83
525.20 0.8294
525.30 0.8288
525.40 0.8282
525.50 0.8276
525.60 0.827
525.70 0.8264
525.80 0.8258
525.90 0.8252
526.00 0.8246
526.10 0.824
526.20 0.8234
526.30 0.8228
526.40 0.8222
526.50 0.8216
526.60 0.821
526.70 0.8204
526.80 0.8198
526.90 0.8192
527.00 0.8186
527.10 0.818
527.20 0.8174
527.30 0.8168
527.40 0.8162
527.50 0.8156
527.60 0.815
527.70 0.8144
527.80 0.8139
527.90 0.8133
528.00 0.8127
528.10 0.8121
528.20 0.8115
528.30 0.8109
528.40 0.8103
528.50 0.8097
528.60 0.8091
528.70 0.8085
528.80 0.808
528.90 0.8074
529.00 0.8068
529.10 0.8062
529.20 0.8056
529.30 0.805
529.40 0.8044
529.50 0.8039
529.60 0.8033
529.70 0.8027
529.80 0.8021
529.90 0.8015
530.00 0.801
530.10 0.8004
530.20 0.7998
530.30 0.7992
530.40 0.7986
530.50 0.7981
530.60 0.7975
530.70 0.7969
530.80 0.7963
530.90 0.7957
531.00 0.7952
531.10 0.7946
531.20 0.794
531.30 0.7934
531.40 0.7929
531.50 0.7923
531.60 0.7917
531.70 0.7912
531.80 0.7906
531.90 0.79
532.00 0.7894
532.10 0.7889
532.20 0.7883
532.30 0.7877
532.40 0.7872
532.50 0.7866
532.60 0.786
532.70 0.7855
532.80 0.7849
532.90 0.7843
533.00 0.7838
533.10 0.7832
533.20 0.7826
533.30 0.7821
533.40 0.7815
533.50 0.7809
533.60 0.7804
533.70 0.7798
533.80 0.7793
533.90 0.7787
534.00 0.7781
534.10 0.7776
534.20 0.777
534.30 0.7765
534.40 0.7759
534.50 0.7753
534.60 0.7748
534.70 0.7742
534.80 0.7737
534.90 0.7731
535.00 0.7726
535.10 0.772
535.20 0.7715
535.30 0.7709
535.40 0.7703
535.50 0.7698
535.60 0.7692
535.70 0.7687
535.80 0.7681
535.90 0.7676
536.00 0.767
536.10 0.7665
536.20 0.7659
536.30 0.7654
536.40 0.7648
536.50 0.7643
536.60 0.7637
536.70 0.7632
536.80 0.7626
536.90 0.7621
537.00 0.7616
537.10 0.761
537.20 0.7605
537.30 0.7599
537.40 0.7594
537.50 0.7588
537.60 0.7583
537.70 0.7578
537.80 0.7572
537.90 0.7567
538.00 0.7561
538.10 0.7556
538.20 0.755
538.30 0.7545
538.40 0.754
538.50 0.7534
538.60 0.7529
538.70 0.7524
538.80 0.7518
538.90 0.7513
539.00 0.7507
539.10 0.7502
539.20 0.7497
539.30 0.7491
539.40 0.7486
539.50 0.7481
539.60 0.7475
539.70 0.747
539.80 0.7465
539.90 0.7459
540.00 0.7454
540.10 0.7449
540.20 0.7444
540.30 0.7438
540.40 0.7433
540.50 0.7428
540.60 0.7422
540.70 0.7417
540.80 0.7412
540.90 0.7407
541.00 0.7401
541.10 0.7396
541.20 0.7391
541.30 0.7386
541.40 0.738
541.50 0.7375
541.60 0.737
541.70 0.7365
541.80 0.7359
541.90 0.7354
542.00 0.7349
542.10 0.7344
542.20 0.7338
542.30 0.7333
542.40 0.7328
542.50 0.7323
542.60 0.7318
542.70 0.7312
542.80 0.7307
542.90 0.7302
543.00 0.7297
543.10 0.7292
543.20 0.7287
543.30 0.7281
543.40 0.7276
543.50 0.7271
543.60 0.7266
543.70 0.7261
543.80 0.7256
543.90 0.7251
544.00 0.7245
544.10 0.724
544.20 0.7235
544.30 0.723
544.40 0.7225
544.50 0.722
544.60 0.7215
544.70 0.721
544.80 0.7205
544.90 0.72
545.00 0.7194
545.10 0.7189
545.20 0.7184
545.30 0.7179
545.40 0.7174
545.50 0.7169
545.60 0.7164
545.70 0.7159
545.80 0.7154
545.90 0.7149
546.00 0.7144
546.10 0.7139
546.20 0.7134
546.30 0.7129
546.40 0.7124
546.50 0.7119
546.60 0.7114
546.70 0.7109
546.80 0.7104
546.90 0.7099
547.00 0.7094
547.10 0.7089
547.20 0.7084
547.30 0.7079
547.40 0.7074
547.50 0.7069
547.60 0.7064
547.70 0.7059
547.80 0.7054
547.90 0.7049
548.00 0.7044
548.10 0.7039
548.20 0.7034
548.30 0.7029
548.40 0.7024
548.50 0.7019
548.60 0.7014
548.70 0.701
548.80 0.7005
548.90 0.7
549.00 0.6995
549.10 0.699
549.20 0.6985
549.30 0.698
549.40 0.6975
549.50 0.697
549.60 0.6965
549.70 0.6961
549.80 0.6956
549.90 0.6951
550.00 0.6946
550.10 0.6941
550.20 0.6936
550.30 0.6931
550.40 0.6927
550.50 0.6922
550.60 0.6917
550.70 0.6912
550.80 0.6907
550.90 0.6902
551.00 0.6898
551.10 0.6893
551.20 0.6888
551.30 0.6883
551.40 0.6878
551.50 0.6874
551.60 0.6869
551.70 0.6864
551.80 0.6859
551.90 0.6854
552.00 0.685
552.10 0.6845
552.20 0.684
552.30 0.6835
552.40 0.6831
552.50 0.6826
552.60 0.6821
552.70 0.6816
552.80 0.6812
552.90 0.6807
553.00 0.6802
553.10 0.6797
553.20 0.6793
553.30 0.6788
553.40 0.6783
553.50 0.6778
553.60 0.6774
553.70 0.6769
553.80 0.6764
553.90 0.676
554.00 0.6755
554.10 0.675
554.20 0.6746
554.30 0.6741
554.40 0.6736
554.50 0.6732
554.60 0.6727
554.70 0.6722
554.80 0.6718
554.90 0.6713
555.00 0.6708
555.10 0.6704
555.20 0.6699
555.30 0.6694
555.40 0.669
555.50 0.6685
555.60 0.668
555.70 0.6676
555.80 0.6671
555.90 0.6666
556.00 0.6662
556.10 0.6657
556.20 0.6653
556.30 0.6648
556.40 0.6643
556.50 0.6639
556.60 0.6634
556.70 0.663
556.80 0.6625
556.90 0.6621
557.00 0.6616
557.10 0.6611
557.20 0.6607
557.30 0.6602
557.40 0.6598
557.50 0.6593
557.60 0.6589
557.70 0.6584
557.80 0.6579
557.90 0.6575
558.00 0.657
558.10 0.6566
558.20 0.6561
558.30 0.6557
558.40 0.6552
558.50 0.6548
558.60 0.6543
558.70 0.6539
558.80 0.6534
558.90 0.653
559.00 0.6525
559.10 0.6521
559.20 0.6516
559.30 0.6512
559.40 0.6507
559.50 0.6503
559.60 0.6498
559.70 0.6494
559.80 0.6489
559.90 0.6485
560.00 0.648
560.10 0.6476
560.20 0.6472
560.30 0.6467
560.40 0.6463
560.50 0.6458
560.60 0.6454
560.70 0.6449
560.80 0.6445
560.90 0.6441
561.00 0.6436
561.10 0.6432
561.20 0.6427
561.30 0.6423
561.40 0.6418
561.50 0.6414
561.60 0.641
561.70 0.6405
561.80 0.6401
561.90 0.6396
562.00 0.6392
562.10 0.6388
562.20 0.6383
562.30 0.6379
562.40 0.6375
562.50 0.637
562.60 0.6366
562.70 0.6362
562.80 0.6357
562.90 0.6353
563.00 0.6348
563.10 0.6344
563.20 0.634
563.30 0.6335
563.40 0.6331
563.50 0.6327
563.60 0.6322
563.70 0.6318
563.80 0.6314
563.90 0.631
564.00 0.6305
564.10 0.6301
564.20 0.6297
564.30 0.6292
564.40 0.6288
564.50 0.6284
564.60 0.6279
564.70 0.6275
564.80 0.6271
564.90 0.6267
565.00 0.6262
565.10 0.6258
565.20 0.6254
565.30 0.625
565.40 0.6245
565.50 0.6241
565.60 0.6237
565.70 0.6233
565.80 0.6228
565.90 0.6224
566.00 0.622
566.10 0.6216
566.20 0.6211
566.30 0.6207
566.40 0.6203
566.50 0.6199
566.60 0.6195
566.70 0.619
566.80 0.6186
566.90 0.6182
567.00 0.6178
567.10 0.6173
567.20 0.6169
567.30 0.6165
567.40 0.6161
567.50 0.6157
567.60 0.6153
567.70 0.6148
567.80 0.6144
567.90 0.614
568.00 0.6136
568.10 0.6132
568.20 0.6128
568.30 0.6123
568.40 0.6119
568.50 0.6115
568.60 0.6111
568.70 0.6107
568.80 0.6103
568.90 0.6099
569.00 0.6094
569.10 0.609
569.20 0.6086
569.30 0.6082
569.40 0.6078
569.50 0.6074
569.60 0.607
569.70 0.6066
569.80 0.6062
569.90 0.6057
570.00 0.6053
570.10 0.6049
570.20 0.6045
570.30 0.6041
570.40 0.6037
570.50 0.6033
570.60 0.6029
570.70 0.6025
570.80 0.6021
570.90 0.6017
571.00 0.6013
571.10 0.6009
571.20 0.6004
571.30 0.6
571.40 0.5996
571.50 0.5992
571.60 0.5988
571.70 0.5984
571.80 0.598
571.90 0.5976
572.00 0.5972
572.10 0.5968
572.20 0.5964
572.30 0.596
572.40 0.5956
572.50 0.5952
572.60 0.5948
572.70 0.5944
572.80 0.594
572.90 0.5936
573.00 0.5932
573.10 0.5928
573.20 0.5924
573.30 0.592
573.40 0.5916
573.50 0.5912
573.60 0.5908
573.70 0.5904
573.80 0.59
573.90 0.5896
574.00 0.5892
574.10 0.5888
574.20 0.5884
574.30 0.5881
574.40 0.5877
574.50 0.5873
574.60 0.5869
574.70 0.5865
574.80 0.5861
574.90 0.5857
575.00 0.5853
575.10 0.5849
575.20 0.5845
575.30 0.5841
575.40 0.5837
575.50 0.5833
575.60 0.583
575.70 0.5826
575.80 0.5822
575.90 0.5818
576.00 0.5814
576.10 0.581
576.20 0.5806
576.30 0.5802
576.40 0.5798
576.50 0.5795
576.60 0.5791
576.70 0.5787
576.80 0.5783
576.90 0.5779
577.00 0.5775
577.10 0.5771
577.20 0.5767
577.30 0.5764
577.40 0.576
577.50 0.5756
577.60 0.5752
577.70 0.5748
577.80 0.5744
577.90 0.5741
578.00 0.5737
578.10 0.5733
578.20 0.5729
578.30 0.5725
578.40 0.5721
578.50 0.5718
578.60 0.5714
578.70 0.571
578.80 0.5706
578.90 0.5702
579.00 0.5699
579.10 0.5695
579.20 0.5691
579.30 0.5687
579.40 0.5683
579.50 0.568
579.60 0.5676
579.70 0.5672
579.80 0.5668
579.90 0.5665
580.00 0.5661
580.10 0.5657
580.20 0.5653
580.30 0.565
580.40 0.5646
580.50 0.5642
580.60 0.5638
580.70 0.5635
580.80 0.5631
580.90 0.5627
581.00 0.5623
581.10 0.562
581.20 0.5616
581.30 0.5612
581.40 0.5608
581.50 0.5605
581.60 0.5601
581.70 0.5597
581.80 0.5594
581.90 0.559
582.00 0.5586
582.10 0.5583
582.20 0.5579
582.30 0.5575
582.40 0.5571
582.50 0.5568
582.60 0.5564
582.70 0.556
582.80 0.5557
582.90 0.5553
583.00 0.5549
583.10 0.5546
583.20 0.5542
583.30 0.5538
583.40 0.5535
583.50 0.5531
583.60 0.5527
583.70 0.5524
583.80 0.552
583.90 0.5516
584.00 0.5513
584.10 0.5509
584.20 0.5506
584.30 0.5502
584.40 0.5498
584.50 0.5495
584.60 0.5491
584.70 0.5487
584.80 0.5484
584.90 0.548
585.00 0.5477
585.10 0.5473
585.20 0.5469
585.30 0.5466
585.40 0.5462
585.50 0.5459
585.60 0.5455
585.70 0.5451
585.80 0.5448
585.90 0.5444
586.00 0.5441
586.10 0.5437
586.20 0.5433
586.30 0.543
586.40 0.5426
586.50 0.5423
586.60 0.5419
586.70 0.5416
586.80 0.5412
586.90 0.5409
587.00 0.5405
587.10 0.5401
587.20 0.5398
587.30 0.5394
587.40 0.5391
587.50 0.5387
587.60 0.5384
587.70 0.538
587.80 0.5377
587.90 0.5373
588.00 0.537
588.10 0.5366
588.20 0.5363
588.30 0.5359
588.40 0.5356
588.50 0.5352
588.60 0.5349
588.70 0.5345
588.80 0.5341
588.90 0.5338
589.00 0.5335
589.10 0.5331
589.20 0.5328
589.30 0.5324
589.40 0.5321
589.50 0.5317
589.60 0.5314
589.70 0.531
589.80 0.5307
589.90 0.5303
590.00 0.53
590.10 0.5296
590.20 0.5293
590.30 0.5289
590.40 0.5286
590.50 0.5282
590.60 0.5279
590.70 0.5276
590.80 0.5272
590.90 0.5269
591.00 0.5265
591.10 0.5262
591.20 0.5258
591.30 0.5255
591.40 0.5251
591.50 0.5248
591.60 0.5245
591.70 0.5241
591.80 0.5238
591.90 0.5234
592.00 0.5231
592.10 0.5228
592.20 0.5224
592.30 0.5221
592.40 0.5217
592.50 0.5214
592.60 0.5211
592.70 0.5207
592.80 0.5204
592.90 0.52
593.00 0.5197
593.10 0.5194
593.20 0.519
593.30 0.5187
593.40 0.5184
593.50 0.518
593.60 0.5177
593.70 0.5173
593.80 0.517
593.90 0.5167
594.00 0.5163
594.10 0.516
594.20 0.5157
594.30 0.5153
594.40 0.515
594.50 0.5147
594.60 0.5143
594.70 0.514
594.80 0.5137
594.90 0.5133
595.00 0.513
595.10 0.5127
595.20 0.5123
595.30 0.512
595.40 0.5117
595.50 0.5113
595.60 0.511
595.70 0.5107
595.80 0.5103
595.90 0.51
596.00 0.5097
596.10 0.5094
596.20 0.509
596.30 0.5087
596.40 0.5084
596.50 0.508
596.60 0.5077
596.70 0.5074
596.80 0.507
596.90 0.5067
597.00 0.5064
597.10 0.5061
597.20 0.5057
597.30 0.5054
597.40 0.5051
597.50 0.5048
597.60 0.5044
597.70 0.5041
597.80 0.5038
597.90 0.5035
598.00 0.5031
598.10 0.5028
598.20 0.5025
598.30 0.5022
598.40 0.5018
598.50 0.5015
598.60 0.5012
598.70 0.5009
598.80 0.5005
598.90 0.5002
599.00 0.4999
599.10 0.4996
599.20 0.4993
599.30 0.4989
599.40 0.4986
599.50 0.4983
599.60 0.498
599.70 0.4977
599.80 0.4973
599.90 0.497
600.00 0.4967
600.10 0.4964
600.20 0.4961
600.30 0.4957
600.40 0.4954
600.50 0.4951
600.60 0.4948
600.70 0.4945
600.80 0.4941
600.90 0.4938
601.00 0.4935
601.10 0.4932
601.20 0.4929
601.30 0.4926
601.40 0.4922
601.50 0.4919
601.60 0.4916
601.70 0.4913
601.80 0.491
601.90 0.4907
602.00 0.4904
602.10 0.49
602.20 0.4897
602.30 0.4894
602.40 0.4891
602.50 0.4888
602.60 0.4885
602.70 0.4882
602.80 0.4878
602.90 0.4875
603.00 0.4872
603.10 0.4869
603.20 0.4866
603.30 0.4863
603.40 0.486
603.50 0.4857
603.60 0.4854
603.70 0.485
603.80 0.4847
603.90 0.4844
604.00 0.4841
604.10 0.4838
604.20 0.4835
604.30 0.4832
604.40 0.4829
604.50 0.4826
604.60 0.4823
604.70 0.482
604.80 0.4816
604.90 0.4813
605.00 0.481
605.10 0.4807
605.20 0.4804
605.30 0.4801
605.40 0.4798
605.50 0.4795
605.60 0.4792
605.70 0.4789
605.80 0.4786
605.90 0.4783
606.00 0.478
606.10 0.4777
606.20 0.4774
606.30 0.4771
606.40 0.4768
606.50 0.4765
606.60 0.4761
606.70 0.4758
606.80 0.4755
606.90 0.4752
607.00 0.4749
607.10 0.4746
607.20 0.4743
607.30 0.474
607.40 0.4737
607.50 0.4734
607.60 0.4731
607.70 0.4728
607.80 0.4725
607.90 0.4722
608.00 0.4719
608.10 0.4716
608.20 0.4713
608.30 0.471
608.40 0.4707
608.50 0.4704
608.60 0.4701
608.70 0.4698
608.80 0.4695
608.90 0.4692
609.00 0.4689
609.10 0.4686
609.20 0.4683
609.30 0.468
609.40 0.4678
609.50 0.4675
609.60 0.4672
609.70 0.4669
609.80 0.4666
609.90 0.4663
610.00 0.466
610.10 0.4657
610.20 0.4654
610.30 0.4651
610.40 0.4648
610.50 0.4645
610.60 0.4642
610.70 0.4639
610.80 0.4636
610.90 0.4633
611.00 0.463
611.10 0.4627
611.20 0.4625
611.30 0.4622
611.40 0.4619
611.50 0.4616
611.60 0.4613
611.70 0.461
611.80 0.4607
611.90 0.4604
612.00 0.4601
612.10 0.4598
612.20 0.4595
612.30 0.4593
612.40 0.459
612.50 0.4587
612.60 0.4584
612.70 0.4581
612.80 0.4578
612.90 0.4575
613.00 0.4572
613.10 0.4569
613.20 0.4566
613.30 0.4564
613.40 0.4561
613.50 0.4558
613.60 0.4555
613.70 0.4552
613.80 0.4549
613.90 0.4546
614.00 0.4544
614.10 0.4541
614.20 0.4538
614.30 0.4535
614.40 0.4532
614.50 0.4529
614.60 0.4526
614.70 0.4524
614.80 0.4521
614.90 0.4518
615.00 0.4515
615.10 0.4512
615.20 0.4509
615.30 0.4507
615.40 0.4504
615.50 0.4501
615.60 0.4498
615.70 0.4495
615.80 0.4492
615.90 0.449
616.00 0.4487
616.10 0.4484
616.20 0.4481
616.30 0.4478
616.40 0.4476
616.50 0.4473
616.60 0.447
616.70 0.4467
616.80 0.4464
616.90 0.4462
617.00 0.4459
617.10 0.4456
617.20 0.4453
617.30 0.445
617.40 0.4448
617.50 0.4445
617.60 0.4442
617.70 0.4439
617.80 0.4436
617.90 0.4434
618.00 0.4431
618.10 0.4428
618.20 0.4425
618.30 0.4423
618.40 0.442
618.50 0.4417
618.60 0.4414
618.70 0.4412
618.80 0.4409
618.90 0.4406
619.00 0.4403
619.10 0.4401
619.20 0.4398
619.30 0.4395
619.40 0.4392
619.50 0.439
619.60 0.4387
619.70 0.4384
619.80 0.4381
619.90 0.4379
620.00 0.4376
620.10 0.4373
620.20 0.437
620.30 0.4368
620.40 0.4365
620.50 0.4362
620.60 0.436
620.70 0.4357
620.80 0.4354
620.90 0.4351
621.00 0.4349
621.10 0.4346
621.20 0.4343
621.30 0.4341
621.40 0.4338
621.50 0.4335
621.60 0.4332
621.70 0.433
621.80 0.4327
621.90 0.4324
622.00 0.4322
622.10 0.4319
622.20 0.4316
622.30 0.4314
622.40 0.4311
622.50 0.4308
622.60 0.4306
622.70 0.4303
622.80 0.43
622.90 0.4298
623.00 0.4295
623.10 0.4292
623.20 0.429
623.30 0.4287
623.40 0.4284
623.50 0.4282
623.60 0.4279
623.70 0.4276
623.80 0.4274
623.90 0.4271
624.00 0.4268
624.10 0.4266
624.20 0.4263
624.30 0.426
624.40 0.4258
624.50 0.4255
624.60 0.4252
624.70 0.425
624.80 0.4247
624.90 0.4244
625.00 0.4242
625.10 0.4239
625.20 0.4237
625.30 0.4234
625.40 0.4231
625.50 0.4229
625.60 0.4226
625.70 0.4223
625.80 0.4221
625.90 0.4218
626.00 0.4216
626.10 0.4213
626.20 0.421
626.30 0.4208
626.40 0.4205
626.50 0.4203
626.60 0.42
626.70 0.4197
626.80 0.4195
626.90 0.4192
627.00 0.419
627.10 0.4187
627.20 0.4184
627.30 0.4182
627.40 0.4179
627.50 0.4177
627.60 0.4174
627.70 0.4172
627.80 0.4169
627.90 0.4166
628.00 0.4164
628.10 0.4161
628.20 0.4159
628.30 0.4156
628.40 0.4154
628.50 0.4151
628.60 0.4148
628.70 0.4146
628.80 0.4143
628.90 0.4141
629.00 0.4138
629.10 0.4136
629.20 0.4133
629.30 0.413
629.40 0.4128
629.50 0.4125
629.60 0.4123
629.70 0.412
629.80 0.4118
629.90 0.4115
630.00 0.4113
630.10 0.411
630.20 0.4108
630.30 0.4105
630.40 0.4103
630.50 0.41
630.60 0.4097
630.70 0.4095
630.80 0.4092
630.90 0.409
631.00 0.4087
631.10 0.4085
631.20 0.4082
631.30 0.408
631.40 0.4077
631.50 0.4075
631.60 0.4072
631.70 0.407
631.80 0.4067
631.90 0.4065
632.00 0.4062
632.10 0.406
632.20 0.4057
632.30 0.4055
632.40 0.4052
632.50 0.405
632.60 0.4047
632.70 0.4045
632.80 0.4042
632.90 0.404
633.00 0.4037
633.10 0.4035
633.20 0.4032
633.30 0.403
633.40 0.4027
633.50 0.4025
633.60 0.4022
633.70 0.402
633.80 0.4017
633.90 0.4015
634.00 0.4013
634.10 0.401
634.20 0.4008
634.30 0.4005
634.40 0.4003
634.50 0.4
634.60 0.3998
634.70 0.3995
634.80 0.3993
634.90 0.399
635.00 0.3988
635.10 0.3985
635.20 0.3983
635.30 0.3981
635.40 0.3978
635.50 0.3976
635.60 0.3973
635.70 0.3971
635.80 0.3968
635.90 0.3966
636.00 0.3963
636.10 0.3961
636.20 0.3959
636.30 0.3956
636.40 0.3954
636.50 0.3951
636.60 0.3949
636.70 0.3946
636.80 0.3944
636.90 0.3941
637.00 0.3939
637.10 0.3937
637.20 0.3934
637.30 0.3932
637.40 0.3929
637.50 0.3927
637.60 0.3924
637.70 0.3922
637.80 0.392
637.90 0.3917
638.00 0.3915
638.10 0.3912
638.20 0.391
638.30 0.3908
638.40 0.3905
638.50 0.3903
638.60 0.39
638.70 0.3898
638.80 0.3895
638.90 0.3893
639.00 0.3891
639.10 0.3888
639.20 0.3886
639.30 0.3883
639.40 0.3881
639.50 0.3879
639.60 0.3876
639.70 0.3874
639.80 0.3871
639.90 0.3869
640.00 0.3867
640.10 0.3864
640.20 0.3862
640.30 0.3859
640.40 0.3857
640.50 0.3855
640.60 0.3852
640.70 0.385
640.80 0.3847
640.90 0.3845
641.00 0.3843
641.10 0.384
641.20 0.3838
641.30 0.3835
641.40 0.3833
641.50 0.3831
641.60 0.3828
641.70 0.3826
641.80 0.3823
641.90 0.3821
642.00 0.3819
642.10 0.3816
642.20 0.3814
642.30 0.3811
642.40 0.3809
642.50 0.3807
642.60 0.3804
642.70 0.3802
642.80 0.3799
642.90 0.3797
643.00 0.3794
643.10 0.3792
643.20 0.379
643.30 0.3787
643.40 0.3785
643.50 0.3782
643.60 0.378
643.70 0.3778
643.80 0.3775
643.90 0.3773
644.00 0.377
644.10 0.3768
644.20 0.3765
644.30 0.3763
644.40 0.3761
644.50 0.3758
644.60 0.3756
644.70 0.3753
644.80 0.3751
644.90 0.3748
645.00 0.3746
645.10 0.3743
645.20 0.3741
645.30 0.3739
645.40 0.3736
645.50 0.3734
645.60 0.3731
645.70 0.3729
645.80 0.3726
645.90 0.3724
646.00 0.3721
646.10 0.3719
646.20 0.3716
646.30 0.3714
646.40 0.3711
646.50 0.3708
646.60 0.3706
646.70 0.3703
646.80 0.3701
646.90 0.3698
647.00 0.3696
647.10 0.3693
647.20 0.3691
647.30 0.3688
647.40 0.3685
647.50 0.3683
647.60 0.368
647.70 0.3677
647.80 0.3675
647.90 0.3672
648.00 0.3669
648.10 0.3667
648.20 0.3664
648.30 0.3661
648.40 0.3658
648.50 0.3655
648.60 0.3653
648.70 0.365
648.80 0.3647
648.90 0.3644
649.00 0.3641
649.10 0.3638
649.20 0.3635
649.30 0.3633
649.40 0.3629
649.50 0.3626
649.60 0.3623
649.70 0.362
649.80 0.3617
649.90 0.3614
650.00 0.361
650.10 0.3607
650.20 0.3604
650.30 0.3601
650.40 0.3597
650.50 0.3594
650.60 0.359
650.70 0.3586
650.80 0.3583
650.90 0.3579
651.00 0.3576
651.10 0.3572
651.20 0.3568
651.30 0.3565
651.40 0.356
651.50 0.3556
651.60 0.3551
651.70 0.3547
651.80 0.3542
651.90 0.3538
652.00 0.3533
652.10 0.3529
652.20 0.3525
652.30 0.352
652.40 0.3514
652.50 0.3508
652.60 0.3503
652.70 0.3497
652.80 0.3491
652.90 0.3485
653.00 0.348
653.10 0.3474
653.20 0.3468
653.30 0.3462
653.40 0.3454
653.50 0.3446
653.60 0.3438
653.70 0.343
653.80 0.3422
653.90 0.3415
654.00 0.3407
654.10 0.3399
654.20 0.3391
654.30 0.3383
654.40 0.3373
654.50 0.3363
654.60 0.3353
654.70 0.3343
654.80 0.3333
654.90 0.3321
655.00 0.331
655.10 0.3299
655.20 0.3287
655.30 0.3276
655.40 0.3263
655.50 0.3251
655.60 0.3239
655.70 0.3226
655.80 0.3213
655.90 0.32
656.00 0.3188
656.10 0.3179
656.20 0.3252
656.30 0.3393
656.40 0.3197
656.50 0.3174
656.60 0.3181
656.70 0.3189
656.80 0.3199
656.90 0.3208
657.00 0.3217
657.10 0.3226
657.20 0.3234
657.30 0.3242
657.40 0.325
657.50 0.3257
657.60 0.3265
657.70 0.3272
657.80 0.3279
657.90 0.3285
658.00 0.3291
658.10 0.3297
658.20 0.3303
658.30 0.3309
658.40 0.3313
658.50 0.3316
658.60 0.332
658.70 0.3324
658.80 0.3328
658.90 0.3332
659.00 0.3335
659.10 0.3339
659.20 0.3343
659.30 0.3346
659.40 0.3348
659.50 0.335
659.60 0.3351
659.70 0.3353
659.80 0.3354
659.90 0.3356
660.00 0.3357
660.10 0.3359
660.20 0.3361
660.30 0.3362
660.40 0.3362
660.50 0.3362
660.60 0.3363
660.70 0.3363
660.80 0.3363
660.90 0.3363
661.00 0.3364
661.10 0.3364
661.20 0.3364
661.30 0.3364
661.40 0.3364
661.50 0.3363
661.60 0.3362
661.70 0.3362
661.80 0.3361
661.90 0.3361
662.00 0.336
662.10 0.3359
662.20 0.3359
662.30 0.3358
662.40 0.3357
662.50 0.3356
662.60 0.3355
662.70 0.3354
662.80 0.3353
662.90 0.3352
663.00 0.3351
663.10 0.335
663.20 0.3349
663.30 0.3348
663.40 0.3346
663.50 0.3345
663.60 0.3344
663.70 0.3342
663.80 0.3341
663.90 0.3339
664.00 0.3338
664.10 0.3337
664.20 0.3335
664.30 0.3334
664.40 0.3333
664.50 0.3331
664.60 0.3329
664.70 0.3328
664.80 0.3326
664.90 0.3325
665.00 0.3323
665.10 0.3322
665.20 0.332
665.30 0.3319
665.40 0.3317
665.50 0.3316
665.60 0.3314
665.70 0.3312
665.80 0.3311
665.90 0.3309
666.00 0.3307
666.10 0.3306
666.20 0.3304
666.30 0.3303
666.40 0.3301
666.50 0.3299
666.60 0.3297
666.70 0.3296
666.80 0.3294
666.90 0.3292
667.00 0.3291
667.10 0.3289
667.20 0.3287
667.30 0.3286
667.40 0.3284
667.50 0.3282
667.60 0.328
667.70 0.3279
667.80 0.3277
667.90 0.3275
668.00 0.3273
668.10 0.3272
668.20 0.327
668.30 0.3268
668.40 0.3266
668.50 0.3265
668.60 0.3263
668.70 0.3261
668.80 0.3259
668.90 0.3258
669.00 0.3256
669.10 0.3254
669.20 0.3252
669.30 0.3251
669.40 0.3249
669.50 0.3247
669.60 0.3245
669.70 0.3243
669.80 0.3242
669.90 0.324
670.00 0.3238
670.10 0.3236
670.20 0.3235
670.30 0.3233
670.40 0.3231
670.50 0.3229
670.60 0.3227
670.70 0.3226
670.80 0.3224
670.90 0.3222
671.00 0.322
671.10 0.3218
671.20 0.3217
671.30 0.3215
671.40 0.3213
671.50 0.3211
671.60 0.321
671.70 0.3208
671.80 0.3206
671.90 0.3204
672.00 0.3202
672.10 0.3201
672.20 0.3199
672.30 0.3197
672.40 0.3195
672.50 0.3193
672.60 0.3192
672.70 0.319
672.80 0.3188
672.90 0.3186
673.00 0.3185
673.10 0.3183
673.20 0.3181
673.30 0.3179
673.40 0.3177
673.50 0.3176
673.60 0.3174
673.70 0.3172
673.80 0.317
673.90 0.3169
674.00 0.3167
674.10 0.3165
674.20 0.3163
674.30 0.3161
674.40 0.316
674.50 0.3158
674.60 0.3156
674.70 0.3154
674.80 0.3153
674.90 0.3151
675.00 0.3149
675.10 0.3147
675.20 0.3145
675.30 0.3144
675.40 0.3142
675.50 0.314
675.60 0.3138
675.70 0.3137
675.80 0.3135
675.90 0.3133
676.00 0.3131
676.10 0.3129
676.20 0.3128
676.30 0.3126
676.40 0.3124
676.50 0.3122
676.60 0.3121
676.70 0.3119
676.80 0.3117
676.90 0.3115
677.00 0.3114
677.10 0.3112
677.20 0.311
677.30 0.3108
677.40 0.3107
677.50 0.3105
677.60 0.3103
677.70 0.3101
677.80 0.31
677.90 0.3098
678.00 0.3096
678.10 0.3094
678.20 0.3093
678.30 0.3091
678.40 0.3089
678.50 0.3087
678.60 0.3086
678.70 0.3084
678.80 0.3082
678.90 0.308
679.00 0.3079
679.10 0.3077
679.20 0.3075
679.30 0.3073
679.40 0.3072
679.50 0.307
679.60 0.3068
679.70 0.3066
679.80 0.3065
679.90 0.3063
680.00 0.3061
680.10 0.306
680.20 0.3058
680.30 0.3056
680.40 0.3054
680.50 0.3053
680.60 0.3051
680.70 0.3049
680.80 0.3048
680.90 0.3046
681.00 0.3044
681.10 0.3042
681.20 0.3041
681.30 0.3039
681.40 0.3037
681.50 0.3036
681.60 0.3034
681.70 0.3032
681.80 0.303
681.90 0.3029
682.00 0.3027
682.10 0.3025
682.20 0.3024
682.30 0.3022
682.40 0.302
682.50 0.3018
682.60 0.3017
682.70 0.3015
682.80 0.3013
682.90 0.3012
683.00 0.301
683.10 0.3008
683.20 0.3007
683.30 0.3005
683.40 0.3003
683.50 0.3001
683.60 0.3
683.70 0.2998
683.80 0.2996
683.90 0.2995
684.00 0.2993
684.10 0.2991
684.20 0.299
684.30 0.2988
684.40 0.2986
684.50 0.2985
684.60 0.2983
684.70 0.2981
684.80 0.298
684.90 0.2978
685.00 0.2976
685.10 0.2975
685.20 0.2973
685.30 0.2971
685.40 0.297
685.50 0.2968
685.60 0.2966
685.70 0.2965
685.80 0.2963
685.90 0.2961
686.00 0.296
686.10 0.2958
686.20 0.2956
686.30 0.2955
686.40 0.2953
686.50 0.2951
686.60 0.295
686.70 0.2948
686.80 0.2946
686.90 0.2945
687.00 0.2943
687.10 0.2941
687.20 0.294
687.30 0.2938
687.40 0.2936
687.50 0.2935
687.60 0.2933
687.70 0.2931
687.80 0.293
687.90 0.2928
688.00 0.2926
688.10 0.2925
688.20 0.2923
688.30 0.2922
688.40 0.292
688.50 0.2918
688.60 0.2917
688.70 0.2915
688.80 0.2913
688.90 0.2912
689.00 0.291
689.10 0.2908
689.20 0.2907
689.30 0.2905
689.40 0.2904
689.50 0.2902
689.60 0.29
689.70 0.2899
689.80 0.2897
689.90 0.2896
690.00 0.2894
690.10 0.2892
690.20 0.2891
690.30 0.2889
690.40 0.2887
690.50 0.2886
690.60 0.2884
690.70 0.2883
690.80 0.2881
690.90 0.2879
691.00 0.2878
691.10 0.2876
691.20 0.2875
691.30 0.2873
691.40 0.2871
691.50 0.287
691.60 0.2868
691.70 0.2867
691.80 0.2865
691.90 0.2863
692.00 0.2862
692.10 0.286
692.20 0.2859
692.30 0.2857
692.40 0.2855
692.50 0.2854
692.60 0.2852
692.70 0.2851
692.80 0.2849
692.90 0.2847
693.00 0.2846
693.10 0.2844
693.20 0.2843
693.30 0.2841
693.40 0.2839
693.50 0.2838
693.60 0.2836
693.70 0.2835
693.80 0.2833
693.90 0.2832
694.00 0.283
694.10 0.2828
694.20 0.2827
694.30 0.2825
694.40 0.2824
694.50 0.2822
694.60 0.2821
694.70 0.2819
694.80 0.2817
694.90 0.2816
695.00 0.2814
695.10 0.2813
695.20 0.2811
695.30 0.281
695.40 0.2808
695.50 0.2806
695.60 0.2805
695.70 0.2803
695.80 0.2802
695.90 0.28
696.00 0.2799
696.10 0.2797
696.20 0.2796
696.30 0.2794
696.40 0.2792
696.50 0.2791
696.60 0.2789
696.70 0.2788
696.80 0.2786
696.90 0.2785
697.00 0.2783
697.10 0.2782
697.20 0.278
697.30 0.2779
697.40 0.2777
697.50 0.2775
697.60 0.2774
697.70 0.2772
697.80 0.2771
697.90 0.2769
698.00 0.2768
698.10 0.2766
698.20 0.2765
698.30 0.2763
698.40 0.2762
698.50 0.276
698.60 0.2759
698.70 0.2757
698.80 0.2756
698.90 0.2754
699.00 0.2752
699.10 0.2751
699.20 0.2749
699.30 0.2748
699.40 0.2746
699.50 0.2745
699.60 0.2743
699.70 0.2742
699.80 0.274
699.90 0.2739
700.00 0.2737
700.10 0.2736
700.20 0.2734
700.30 0.2733
700.40 0.2731
700.50 0.273
700.60 0.2728
700.70 0.2727
700.80 0.2725
700.90 0.2724
701.00 0.2722
701.10 0.2721
701.20 0.2719
701.30 0.2718
701.40 0.2716
701.50 0.2715
701.60 0.2713
701.70 0.2712
701.80 0.271
701.90 0.2709
702.00 0.2707
702.10 0.2706
702.20 0.2704
702.30 0.2703
702.40 0.2701
702.50 0.27
702.60 0.2698
702.70 0.2697
702.80 0.2695
702.90 0.2694
703.00 0.2692
703.10 0.2691
703.20 0.2689
703.30 0.2688
703.40 0.2686
703.50 0.2685
703.60 0.2684
703.70 0.2682
703.80 0.2681
703.90 0.2679
704.00 0.2678
704.10 0.2676
704.20 0.2675
704.30 0.2673
704.40 0.2672
704.50 0.267
704.60 0.2669
704.70 0.2667
704.80 0.2666
704.90 0.2664
705.00 0.2663
705.10 0.2661
705.20 0.266
705.30 0.2659
705.40 0.2657
705.50 0.2656
705.60 0.2654
705.70 0.2653
705.80 0.2651
705.90 0.265
706.00 0.2648
706.10 0.2647
706.20 0.2645
706.30 0.2644
706.40 0.2643
706.50 0.2641
706.60 0.264
706.70 0.2638
706.80 0.2637
706.90 0.2635
707.00 0.2634
707.10 0.2632
707.20 0.2631
707.30 0.263
707.40 0.2628
707.50 0.2627
707.60 0.2625
707.70 0.2624
707.80 0.2622
707.90 0.2621
708.00 0.262
708.10 0.2618
708.20 0.2617
708.30 0.2615
708.40 0.2614
708.50 0.2612
708.60 0.2611
708.70 0.261
708.80 0.2608
708.90 0.2607
709.00 0.2605
709.10 0.2604
709.20 0.2602
709.30 0.2601
709.40 0.26
709.50 0.2598
709.60 0.2597
709.70 0.2595
709.80 0.2594
709.90 0.2592
710.00 0.2591
710.10 0.259
710.20 0.2588
710.30 0.2587
710.40 0.2585
710.50 0.2584
710.60 0.2583
710.70 0.2581
710.80 0.258
710.90 0.2578
711.00 0.2577
711.10 0.2576
711.20 0.2574
711.30 0.2573
711.40 0.2571
711.50 0.257
711.60 0.2569
711.70 0.2567
711.80 0.2566
711.90 0.2564
712.00 0.2563
712.10 0.2562
712.20 0.256
712.30 0.2559
712.40 0.2557
712.50 0.2556
712.60 0.2555
712.70 0.2553
712.80 0.2552
712.90 0.2551
713.00 0.2549
713.10 0.2548
713.20 0.2546
713.30 0.2545
713.40 0.2544
713.50 0.2542
713.60 0.2541
713.70 0.2539
713.80 0.2538
713.90 0.2537
714.00 0.2535
714.10 0.2534
714.20 0.2533
714.30 0.2531
714.40 0.253
714.50 0.2528
714.60 0.2527
714.70 0.2526
714.80 0.2524
714.90 0.2523
715.00 0.2522
715.10 0.252
715.20 0.2519
715.30 0.2517
715.40 0.2516
715.50 0.2515
715.60 0.2513
715.70 0.2512
715.80 0.2511
715.90 0.2509
716.00 0.2508
716.10 0.2507
716.20 0.2505
716.30 0.2504
716.40 0.2503
716.50 0.2501
716.60 0.25
716.70 0.2499
716.80 0.2497
716.90 0.2496
717.00 0.2495
717.10 0.2493
717.20 0.2492
717.30 0.249
717.40 0.2489
717.50 0.2488
717.60 0.2486
717.70 0.2485
717.80 0.2484
717.90 0.2482
718.00 0.2481
718.10 0.248
718.20 0.2478
718.30 0.2477
718.40 0.2476
718.50 0.2474
718.60 0.2473
718.70 0.2472
718.80 0.247
718.90 0.2469
719.00 0.2468
719.10 0.2466
719.20 0.2465
719.30 0.2464
719.40 0.2462
719.50 0.2461
719.60 0.246
719.70 0.2458
719.80 0.2457
719.90 0.2456
720.00 0.2454
720.10 0.2453
720.20 0.2452
720.30 0.245
720.40 0.2449
720.50 0.2448
720.60 0.2447
720.70 0.2445
720.80 0.2444
720.90 0.2443
721.00 0.2441
721.10 0.244
721.20 0.2439
721.30 0.2437
721.40 0.2436
721.50 0.2435
721.60 0.2433
721.70 0.2432
721.80 0.2431
721.90 0.243
722.00 0.2428
722.10 0.2427
722.20 0.2426
722.30 0.2424
722.40 0.2423
722.50 0.2422
722.60 0.242
722.70 0.2419
722.80 0.2418
722.90 0.2417
723.00 0.2415
723.10 0.2414
723.20 0.2413
723.30 0.2411
723.40 0.241
723.50 0.2409
723.60 0.2407
723.70 0.2406
723.80 0.2405
723.90 0.2404
724.00 0.2402
724.10 0.2401
724.20 0.24
724.30 0.2398
724.40 0.2397
724.50 0.2396
724.60 0.2395
724.70 0.2393
724.80 0.2392
724.90 0.2391
725.00 0.2389
725.10 0.2388
725.20 0.2387
725.30 0.2386
725.40 0.2384
725.50 0.2383
725.60 0.2382
725.70 0.2381
725.80 0.2379
725.90 0.2378
726.00 0.2377
726.10 0.2376
726.20 0.2374
726.30 0.2373
726.40 0.2372
726.50 0.237
726.60 0.2369
726.70 0.2368
726.80 0.2367
726.90 0.2365
727.00 0.2364
727.10 0.2363
727.20 0.2362
727.30 0.236
727.40 0.2359
727.50 0.2358
727.60 0.2357
727.70 0.2355
727.80 0.2354
727.90 0.2353
728.00 0.2352
728.10 0.235
728.20 0.2349
728.30 0.2348
728.40 0.2347
728.50 0.2345
728.60 0.2344
728.70 0.2343
728.80 0.2342
728.90 0.234
729.00 0.2339
729.10 0.2338
729.20 0.2337
729.30 0.2335
729.40 0.2334
729.50 0.2333
729.60 0.2332
729.70 0.233
729.80 0.2329
729.90 0.2328
730.00 0.2327
730.10 0.2325
730.20 0.2324
730.30 0.2323
730.40 0.2322
730.50 0.2321
730.60 0.2319
730.70 0.2318
730.80 0.2317
730.90 0.2316
731.00 0.2314
731.10 0.2313
731.20 0.2312
731.30 0.2311
731.40 0.231
731.50 0.2308
731.60 0.2307
731.70 0.2306
731.80 0.2305
731.90 0.2304
732.00 0.2302
732.10 0.2301
732.20 0.23
732.30 0.2299
732.40 0.2297
732.50 0.2296
732.60 0.2295
732.70 0.2294
732.80 0.2293
732.90 0.2291
733.00 0.229
733.10 0.2289
733.20 0.2288
733.30 0.2287
733.40 0.2285
733.50 0.2284
733.60 0.2283
733.70 0.2282
733.80 0.2281
733.90 0.2279
734.00 0.2278
734.10 0.2277
734.20 0.2276
734.30 0.2275
734.40 0.2273
734.50 0.2272
734.60 0.2271
734.70 0.227
734.80 0.2269
734.90 0.2267
735.00 0.2266
735.10 0.2265
735.20 0.2264
735.30 0.2263
735.40 0.2261
735.50 0.226
735.60 0.2259
735.70 0.2258
735.80 0.2257
735.90 0.2255
736.00 0.2254
736.10 0.2253
736.20 0.2252
736.30 0.2251
736.40 0.225
736.50 0.2248
736.60 0.2247
736.70 0.2246
736.80 0.2245
736.90 0.2244
737.00 0.2242
737.10 0.2241
737.20 0.224
737.30 0.2239
737.40 0.2238
737.50 0.2237
737.60 0.2235
737.70 0.2234
737.80 0.2233
737.90 0.2232
738.00 0.2231
738.10 0.2229
738.20 0.2228
738.30 0.2227
738.40 0.2226
738.50 0.2225
738.60 0.2224
738.70 0.2222
738.80 0.2221
738.90 0.222
739.00 0.2219
739.10 0.2218
739.20 0.2217
739.30 0.2215
739.40 0.2214
739.50 0.2213
739.60 0.2212
739.70 0.2211
739.80 0.2209
739.90 0.2208
740.00 0.2207
740.10 0.2206
740.20 0.2205
740.30 0.2204
740.40 0.2203
740.50 0.2201
740.60 0.22
740.70 0.2199
740.80 0.2198
740.90 0.2197
741.00 0.2196
741.10 0.2195
741.20 0.2193
741.30 0.2192
741.40 0.2191
741.50 0.219
741.60 0.2189
741.70 0.2188
741.80 0.2187
741.90 0.2185
742.00 0.2184
742.10 0.2183
742.20 0.2182
742.30 0.2181
742.40 0.218
742.50 0.2179
742.60 0.2178
742.70 0.2176
742.80 0.2175
742.90 0.2174
743.00 0.2173
743.10 0.2172
743.20 0.2171
743.30 0.217
743.40 0.2169
743.50 0.2167
743.60 0.2166
743.70 0.2165
743.80 0.2164
743.90 0.2163
744.00 0.2162
744.10 0.2161
744.20 0.216
744.30 0.2158
744.40 0.2157
744.50 0.2156
744.60 0.2155
744.70 0.2154
744.80 0.2153
744.90 0.2152
745.00 0.2151
745.10 0.2149
745.20 0.2148
745.30 0.2147
745.40 0.2146
745.50 0.2145
745.60 0.2144
745.70 0.2143
745.80 0.2142
745.90 0.214
746.00 0.2139
746.10 0.2138
746.20 0.2137
746.30 0.2136
746.40 0.2135
746.50 0.2134
746.60 0.2133
746.70 0.2132
746.80 0.213
746.90 0.2129
747.00 0.2128
747.10 0.2127
747.20 0.2126
747.30 0.2125
747.40 0.2124
747.50 0.2123
747.60 0.2122
747.70 0.2121
747.80 0.2119
747.90 0.2118
748.00 0.2117
748.10 0.2116
748.20 0.2115
748.30 0.2114
748.40 0.2113
748.50 0.2112
748.60 0.2111
748.70 0.2109
748.80 0.2108
748.90 0.2107
749.00 0.2106
749.10 0.2105
749.20 0.2104
749.30 0.2103
749.40 0.2102
749.50 0.2101
749.60 0.21
749.70 0.2099
749.80 0.2097
749.90 0.2096
750.00 0.2095
750.10 0.2094
750.20 0.2093
750.30 0.2092
750.40 0.2091
750.50 0.209
750.60 0.2089
750.70 0.2088
750.80 0.2087
750.90 0.2086
751.00 0.2085
751.10 0.2083
751.20 0.2082
751.30 0.2081
751.40 0.208
751.50 0.2079
751.60 0.2078
751.70 0.2077
751.80 0.2076
751.90 0.2075
752.00 0.2074
752.10 0.2073
752.20 0.2072
752.30 0.2071
752.40 0.207
752.50 0.2069
752.60 0.2067
752.70 0.2066
752.80 0.2065
752.90 0.2064
753.00 0.2063
753.10 0.2062
753.20 0.2061
753.30 0.206
753.40 0.2059
753.50 0.2058
753.60 0.2057
753.70 0.2056
753.80 0.2055
753.90 0.2054
754.00 0.2053
754.10 0.2052
754.20 0.2051
754.30 0.205
754.40 0.2048
754.50 0.2047
754.60 0.2046
754.70 0.2045
754.80 0.2044
754.90 0.2043
755.00 0.2042
755.10 0.2041
755.20 0.204
755.30 0.2039
755.40 0.2038
755.50 0.2037
755.60 0.2036
755.70 0.2035
755.80 0.2034
755.90 0.2033
756.00 0.2032
756.10 0.2031
756.20 0.203
756.30 0.2029
756.40 0.2028
756.50 0.2026
756.60 0.2025
756.70 0.2024
756.80 0.2023
756.90 0.2022
757.00 0.2021
757.10 0.202
757.20 0.2019
757.30 0.2018
757.40 0.2017
757.50 0.2016
757.60 0.2015
757.70 0.2014
757.80 0.2013
757.90 0.2012
758.00 0.2011
758.10 0.201
758.20 0.2009
758.30 0.2008
758.40 0.2007
758.50 0.2006
758.60 0.2005
758.70 0.2004
758.80 0.2003
758.90 0.2002
759.00 0.2001
759.10 0.2
759.20 0.1999
759.30 0.1998
759.40 0.1996
759.50 0.1995
759.60 0.1994
759.70 0.1993
759.80 0.1992
759.90 0.1991
760.00 0.199
760.10 0.1989
760.20 0.1988
760.30 0.1987
760.40 0.1986
760.50 0.1985
760.60 0.1984
760.70 0.1983
760.80 0.1982
760.90 0.1981
761.00 0.198
761.10 0.1979
761.20 0.1978
761.30 0.1977
761.40 0.1976
761.50 0.1975
761.60 0.1974
761.70 0.1973
761.80 0.1972
761.90 0.1971
762.00 0.197
762.10 0.1969
762.20 0.1968
762.30 0.1967
762.40 0.1966
762.50 0.1965
762.60 0.1964
762.70 0.1963
762.80 0.1962
762.90 0.1961
763.00 0.196
763.10 0.1959
763.20 0.1958
763.30 0.1957
763.40 0.1956
763.50 0.1955
763.60 0.1954
763.70 0.1953
763.80 0.1952
763.90 0.1951
764.00 0.195
764.10 0.1949
764.20 0.1948
764.30 0.1947
764.40 0.1946
764.50 0.1945
764.60 0.1944
764.70 0.1943
764.80 0.1943
764.90 0.1942
765.00 0.1941
765.10 0.194
765.20 0.1939
765.30 0.1938
765.40 0.1937
765.50 0.1936
765.60 0.1935
765.70 0.1934
765.80 0.1933
765.90 0.1932
766.00 0.1931
766.10 0.193
766.20 0.1929
766.30 0.1928
766.40 0.1927
766.50 0.1926
766.60 0.1925
766.70 0.1924
766.80 0.1923
766.90 0.1922
767.00 0.1921
767.10 0.192
767.20 0.1919
767.30 0.1918
767.40 0.1917
767.50 0.1916
767.60 0.1915
767.70 0.1914
767.80 0.1913
767.90 0.1912
768.00 0.1911
768.10 0.191
768.20 0.1909
768.30 0.1908
768.40 0.1907
768.50 0.1906
768.60 0.1905
768.70 0.1904
768.80 0.1903
768.90 0.1902
769.00 0.1902
769.10 0.1901
769.20 0.19
769.30 0.1899
769.40 0.1898
769.50 0.1897
769.60 0.1896
769.70 0.1895
769.80 0.1894
769.90 0.1893
770.00 0.1892
770.10 0.1891
770.20 0.189
770.30 0.1889
770.40 0.1888
770.50 0.1887
770.60 0.1886
770.70 0.1885
770.80 0.1884
770.90 0.1883
771.00 0.1882
771.10 0.1882
771.20 0.1881
771.30 0.188
771.40 0.1879
771.50 0.1878
771.60 0.1877
771.70 0.1876
771.80 0.1875
771.90 0.1874
772.00 0.1873
772.10 0.1872
772.20 0.1871
772.30 0.187
772.40 0.1869
772.50 0.1868
772.60 0.1867
772.70 0.1867
772.80 0.1866
772.90 0.1865
773.00 0.1864
773.10 0.1863
773.20 0.1862
773.30 0.1861
773.40 0.186
773.50 0.1859
773.60 0.1858
773.70 0.1857
773.80 0.1856
773.90 0.1855
774.00 0.1854
774.10 0.1854
774.20 0.1853
774.30 0.1852
774.40 0.1851
774.50 0.185
774.60 0.1849
774.70 0.1848
774.80 0.1847
774.90 0.1846
775.00 0.1845
775.10 0.1844
775.20 0.1843
775.30 0.1842
775.40 0.1841
775.50 0.1841
775.60 0.184
775.70 0.1839
775.80 0.1838
775.90 0.1837
776.00 0.1836
776.10 0.1835
776.20 0.1834
776.30 0.1833
776.40 0.1832
776.50 0.1831
776.60 0.183
776.70 0.183
776.80 0.1829
776.90 0.1828
777.00 0.1827
777.10 0.1826
777.20 0.1825
777.30 0.1824
777.40 0.1823
777.50 0.1822
777.60 0.1821
777.70 0.182
777.80 0.1819
777.90 0.1819
778.00 0.1818
778.10 0.1817
778.20 0.1816
778.30 0.1815
778.40 0.1814
778.50 0.1813
778.60 0.1812
778.70 0.1811
778.80 0.181
778.90 0.1809
779.00 0.1809
779.10 0.1808
779.20 0.1807
779.30 0.1806
779.40 0.1805
779.50 0.1804
779.60 0.1803
779.70 0.1802
779.80 0.1801
779.90 0.18
780.00 0.1799
780.10 0.1799
780.20 0.1798
780.30 0.1797
780.40 0.1796
780.50 0.1795
780.60 0.1794
780.70 0.1793
780.80 0.1792
780.90 0.1792
781.00 0.1791
781.10 0.179
781.20 0.1789
781.30 0.1788
781.40 0.1787
781.50 0.1786
781.60 0.1785
781.70 0.1784
781.80 0.1784
781.90 0.1783
782.00 0.1782
782.10 0.1781
782.20 0.178
782.30 0.1779
782.40 0.1778
782.50 0.1777
782.60 0.1777
782.70 0.1776
782.80 0.1775
782.90 0.1774
783.00 0.1773
783.10 0.1772
783.20 0.1771
783.30 0.177
783.40 0.177
783.50 0.1769
783.60 0.1768
783.70 0.1767
783.80 0.1766
783.90 0.1765
784.00 0.1764
784.10 0.1763
784.20 0.1763
784.30 0.1762
784.40 0.1761
784.50 0.176
784.60 0.1759
784.70 0.1758
784.80 0.1757
784.90 0.1756
785.00 0.1756
785.10 0.1755
785.20 0.1754
785.30 0.1753
785.40 0.1752
785.50 0.1751
785.60 0.175
785.70 0.175
785.80 0.1749
785.90 0.1748
786.00 0.1747
786.10 0.1746
786.20 0.1745
786.30 0.1744
786.40 0.1743
786.50 0.1743
786.60 0.1742
786.70 0.1741
786.80 0.174
786.90 0.1739
787.00 0.1738
787.10 0.1737
787.20 0.1737
787.30 0.1736
787.40 0.1735
787.50 0.1734
787.60 0.1733
787.70 0.1732
787.80 0.1731
787.90 0.1731
788.00 0.173
788.10 0.1729
788.20 0.1728
788.30 0.1727
788.40 0.1726
788.50 0.1725
788.60 0.1725
788.70 0.1724
788.80 0.1723
788.90 0.1722
789.00 0.1721
789.10 0.172
789.20 0.1719
789.30 0.1719
789.40 0.1718
789.50 0.1717
789.60 0.1716
789.70 0.1715
789.80 0.1714
789.90 0.1714
790.00 0.1713
790.10 0.1712
790.20 0.1711
790.30 0.171
790.40 0.1709
790.50 0.1709
790.60 0.1708
790.70 0.1707
790.80 0.1706
790.90 0.1705
791.00 0.1704
791.10 0.1704
791.20 0.1703
791.30 0.1702
791.40 0.1701
791.50 0.17
791.60 0.1699
791.70 0.1699
791.80 0.1698
791.90 0.1697
792.00 0.1696
792.10 0.1695
792.20 0.1694
792.30 0.1694
792.40 0.1693
792.50 0.1692
792.60 0.1691
792.70 0.169
792.80 0.1689
792.90 0.1689
793.00 0.1688
793.10 0.1687
793.20 0.1686
793.30 0.1685
793.40 0.1685
793.50 0.1684
793.60 0.1683
793.70 0.1682
793.80 0.1681
793.90 0.168
794.00 0.168
794.10 0.1679
794.20 0.1678
794.30 0.1677
794.40 0.1676
794.50 0.1675
794.60 0.1675
794.70 0.1674
794.80 0.1673
794.90 0.1672
795.00 0.1671
795.10 0.1671
795.20 0.167
795.30 0.1669
795.40 0.1668
795.50 0.1667
795.60 0.1667
795.70 0.1666
795.80 0.1665
795.90 0.1664
796.00 0.1663
796.10 0.1662
796.20 0.1662
796.30 0.1661
796.40 0.166
796.50 0.1659
796.60 0.1658
796.70 0.1658
796.80 0.1657
796.90 0.1656
797.00 0.1655
797.10 0.1654
797.20 0.1654
797.30 0.1653
797.40 0.1652
797.50 0.1651
797.60 0.165
797.70 0.1649
797.80 0.1649
797.90 0.1648
798.00 0.1647
798.10 0.1646
798.20 0.1645
798.30 0.1645
798.40 0.1644
798.50 0.1643
798.60 0.1642
798.70 0.1641
798.80 0.1641
798.90 0.164
799.00 0.1639
799.10 0.1638
799.20 0.1637
799.30 0.1637
799.40 0.1636
799.50 0.1635
799.60 0.1634
799.70 0.1633
799.80 0.1633
799.90 0.1632
800.00 0.1631
800.10 0.163
800.20 0.1629
800.30 0.1629
800.40 0.1628
800.50 0.1627
800.60 0.1626
800.70 0.1626
800.80 0.1625
800.90 0.1624
801.00 0.1623
801.10 0.1622
801.20 0.1622
801.30 0.1621
801.40 0.162
801.50 0.1619
801.60 0.1619
801.70 0.1618
801.80 0.1617
801.90 0.1616
802.00 0.1615
802.10 0.1615
802.20 0.1614
802.30 0.1613
802.40 0.1612
802.50 0.1612
802.60 0.1611
802.70 0.161
802.80 0.1609
802.90 0.1608
803.00 0.1608
803.10 0.1607
803.20 0.1606
803.30 0.1605
803.40 0.1605
803.50 0.1604
803.60 0.1603
803.70 0.1602
803.80 0.1601
803.90 0.1601
804.00 0.16
804.10 0.1599
804.20 0.1598
804.30 0.1598
804.40 0.1597
804.50 0.1596
804.60 0.1595
804.70 0.1595
804.80 0.1594
804.90 0.1593
805.00 0.1592
805.10 0.1591
805.20 0.1591
805.30 0.159
805.40 0.1589
805.50 0.1588
805.60 0.1588
805.70 0.1587
805.80 0.1586
805.90 0.1585
806.00 0.1585
806.10 0.1584
806.20 0.1583
806.30 0.1582
806.40 0.1581
806.50 0.1581
806.60 0.158
806.70 0.1579
806.80 0.1578
806.90 0.1578
807.00 0.1577
807.10 0.1576
807.20 0.1575
807.30 0.1575
807.40 0.1574
807.50 0.1573
807.60 0.1572
807.70 0.1572
807.80 0.1571
807.90 0.157
808.00 0.1569
808.10 0.1569
808.20 0.1568
808.30 0.1567
808.40 0.1566
808.50 0.1566
808.60 0.1565
808.70 0.1564
808.80 0.1563
808.90 0.1562
809.00 0.1562
809.10 0.1561
809.20 0.156
809.30 0.1559
809.40 0.1559
809.50 0.1558
809.60 0.1557
809.70 0.1556
809.80 0.1556
809.90 0.1555
810.00 0.1554
810.10 0.1553
810.20 0.1553
810.30 0.1552
810.40 0.1551
810.50 0.1551
810.60 0.155
810.70 0.1549
810.80 0.1548
810.90 0.1548
811.00 0.1547
811.10 0.1546
811.20 0.1545
811.30 0.1545
811.40 0.1544
811.50 0.1543
811.60 0.1542
811.70 0.1542
811.80 0.1541
811.90 0.154
812.00 0.1539
812.10 0.1539
812.20 0.1538
812.30 0.1537
812.40 0.1537
812.50 0.1536
812.60 0.1535
812.70 0.1534
812.80 0.1534
812.90 0.1533
813.00 0.1532
813.10 0.1531
813.20 0.1531
813.30 0.153
813.40 0.1529
813.50 0.1529
813.60 0.1528
813.70 0.1527
813.80 0.1526
813.90 0.1526
814.00 0.1525
814.10 0.1524
814.20 0.1523
814.30 0.1523
814.40 0.1522
814.50 0.1521
814.60 0.1521
814.70 0.152
814.80 0.1519
814.90 0.1518
815.00 0.1518
815.10 0.1517
815.20 0.1516
815.30 0.1515
815.40 0.1515
815.50 0.1514
815.60 0.1513
815.70 0.1513
815.80 0.1512
815.90 0.1511
816.00 0.151
816.10 0.151
816.20 0.1509
816.30 0.1508
816.40 0.1508
816.50 0.1507
816.60 0.1506
816.70 0.1505
816.80 0.1505
816.90 0.1504
817.00 0.1503
817.10 0.1503
817.20 0.1502
817.30 0.1501
817.40 0.15
817.50 0.15
817.60 0.1499
817.70 0.1498
817.80 0.1498
817.90 0.1497
818.00 0.1496
818.10 0.1495
818.20 0.1495
818.30 0.1494
818.40 0.1493
818.50 0.1493
818.60 0.1492
818.70 0.1491
818.80 0.149
818.90 0.149
819.00 0.1489
819.10 0.1488
819.20 0.1488
819.30 0.1487
819.40 0.1486
819.50 0.1485
819.60 0.1485
819.70 0.1484
819.80 0.1483
819.90 0.1483
820.00 0.1482
820.10 0.1481
820.20 0.148
820.30 0.148
820.40 0.1479
820.50 0.1478
820.60 0.1478
820.70 0.1477
820.80 0.1476
820.90 0.1476
821.00 0.1475
821.10 0.1474
821.20 0.1473
821.30 0.1473
821.40 0.1472
821.50 0.1471
821.60 0.1471
821.70 0.147
821.80 0.1469
821.90 0.1469
822.00 0.1468
822.10 0.1467
822.20 0.1467
822.30 0.1466
822.40 0.1465
822.50 0.1464
822.60 0.1464
822.70 0.1463
822.80 0.1462
822.90 0.1462
823.00 0.1461
823.10 0.146
823.20 0.146
823.30 0.1459
823.40 0.1458
823.50 0.1458
823.60 0.1457
823.70 0.1456
823.80 0.1456
823.90 0.1455
824.00 0.1454
824.10 0.1453
824.20 0.1453
824.30 0.1452
824.40 0.1451
824.50 0.1451
824.60 0.145
824.70 0.1449
824.80 0.1449
824.90 0.1448
825.00 0.1447
825.10 0.1447
825.20 0.1446
825.30 0.1445
825.40 0.1445
825.50 0.1444
825.60 0.1443
825.70 0.1443
825.80 0.1442
825.90 0.1441
826.00 0.1441
826.10 0.144
826.20 0.1439
826.30 0.1438
826.40 0.1438
826.50 0.1437
826.60 0.1436
826.70 0.1436
826.80 0.1435
826.90 0.1434
827.00 0.1434
827.10 0.1433
827.20 0.1432
827.30 0.1432
827.40 0.1431
827.50 0.143
827.60 0.143
827.70 0.1429
827.80 0.1428
827.90 0.1428
828.00 0.1427
828.10 0.1426
828.20 0.1426
828.30 0.1425
828.40 0.1424
828.50 0.1424
828.60 0.1423
828.70 0.1422
828.80 0.1422
828.90 0.1421
829.00 0.142
829.10 0.142
829.20 0.1419
829.30 0.1418
829.40 0.1418
829.50 0.1417
829.60 0.1416
829.70 0.1416
829.80 0.1415
829.90 0.1414
830.00 0.1414
830.10 0.1413
830.20 0.1412
830.30 0.1412
830.40 0.1411
830.50 0.141
830.60 0.141
830.70 0.1409
830.80 0.1408
830.90 0.1408
831.00 0.1407
831.10 0.1406
831.20 0.1406
831.30 0.1405
831.40 0.1404
831.50 0.1404
831.60 0.1403
831.70 0.1403
831.80 0.1402
831.90 0.1401
832.00 0.1401
832.10 0.14
832.20 0.1399
832.30 0.1399
832.40 0.1398
832.50 0.1397
832.60 0.1397
832.70 0.1396
832.80 0.1395
832.90 0.1395
833.00 0.1394
833.10 0.1393
833.20 0.1393
833.30 0.1392
833.40 0.1391
833.50 0.1391
833.60 0.139
833.70 0.1389
833.80 0.1389
833.90 0.1388
834.00 0.1388
834.10 0.1387
834.20 0.1386
834.30 0.1386
834.40 0.1385
834.50 0.1384
834.60 0.1384
834.70 0.1383
834.80 0.1382
834.90 0.1382
835.00 0.1381
835.10 0.138
835.20 0.138
835.30 0.1379
835.40 0.1378
835.50 0.1378
835.60 0.1377
835.70 0.1377
835.80 0.1376
835.90 0.1375
836.00 0.1375
836.10 0.1374
836.20 0.1373
836.30 0.1373
836.40 0.1372
836.50 0.1371
836.60 0.1371
836.70 0.137
836.80 0.1369
836.90 0.1369
837.00 0.1368
837.10 0.1368
837.20 0.1367
837.30 0.1366
837.40 0.1366
837.50 0.1365
837.60 0.1364
837.70 0.1364
837.80 0.1363
837.90 0.1363
838.00 0.1362
838.10 0.1361
838.20 0.1361
838.30 0.136
838.40 0.1359
838.50 0.1359
838.60 0.1358
838.70 0.1357
838.80 0.1357
838.90 0.1356
839.00 0.1356
839.10 0.1355
839.20 0.1354
839.30 0.1354
839.40 0.1353
839.50 0.1352
839.60 0.1352
839.70 0.1351
839.80 0.1351
839.90 0.135
840.00 0.1349
840.10 0.1349
840.20 0.1348
840.30 0.1347
840.40 0.1347
840.50 0.1346
840.60 0.1346
840.70 0.1345
840.80 0.1344
840.90 0.1344
841.00 0.1343
841.10 0.1342
841.20 0.1342
841.30 0.1341
841.40 0.1341
841.50 0.134
841.60 0.1339
841.70 0.1339
841.80 0.1338
841.90 0.1337
842.00 0.1337
842.10 0.1336
842.20 0.1336
842.30 0.1335
842.40 0.1334
842.50 0.1334
842.60 0.1333
842.70 0.1333
842.80 0.1332
842.90 0.1331
843.00 0.1331
843.10 0.133
843.20 0.1329
843.30 0.1329
843.40 0.1328
843.50 0.1328
843.60 0.1327
843.70 0.1326
843.80 0.1326
843.90 0.1325
844.00 0.1325
844.10 0.1324
844.20 0.1323
844.30 0.1323
844.40 0.1322
844.50 0.1322
844.60 0.1321
844.70 0.132
844.80 0.132
844.90 0.1319
845.00 0.1318
845.10 0.1318
845.20 0.1317
845.30 0.1317
845.40 0.1316
845.50 0.1315
845.60 0.1315
845.70 0.1314
845.80 0.1314
845.90 0.1313
846.00 0.1312
846.10 0.1312
846.20 0.1311
846.30 0.1311
846.40 0.131
846.50 0.1309
846.60 0.1309
846.70 0.1308
846.80 0.1308
846.90 0.1307
847.00 0.1306
847.10 0.1306
847.20 0.1305
847.30 0.1305
847.40 0.1304
847.50 0.1303
847.60 0.1303
847.70 0.1302
847.80 0.1302
847.90 0.1301
848.00 0.13
848.10 0.13
848.20 0.1299
848.30 0.1299
848.40 0.1298
848.50 0.1297
848.60 0.1297
848.70 0.1296
848.80 0.1296
848.90 0.1295
849.00 0.1294
849.10 0.1294
849.20 0.1293
849.30 0.1293
849.40 0.1292
849.50 0.1291
849.60 0.1291
849.70 0.129
849.80 0.129
849.90 0.1289
850.00 0.1288
850.10 0.1288
850.20 0.1287
850.30 0.1287
850.40 0.1286
850.50 0.1286
850.60 0.1285
850.70 0.1284
850.80 0.1284
850.90 0.1283
851.00 0.1283
851.10 0.1282
851.20 0.1281
851.30 0.1281
851.40 0.128
851.50 0.128
851.60 0.1279
851.70 0.1278
851.80 0.1278
851.90 0.1277
852.00 0.1277
852.10 0.1276
852.20 0.1276
852.30 0.1275
852.40 0.1274
852.50 0.1274
852.60 0.1273
852.70 0.1273
852.80 0.1272
852.90 0.1271
853.00 0.1271
853.10 0.127
853.20 0.127
853.30 0.1269
853.40 0.1269
853.50 0.1268
853.60 0.1267
853.70 0.1267
853.80 0.1266
853.90 0.1266
854.00 0.1265
854.10 0.1265
854.20 0.1264
854.30 0.1263
854.40 0.1263
854.50 0.1262
854.60 0.1262
854.70 0.1261
854.80 0.1261
854.90 0.126
855.00 0.1259
855.10 0.1259
855.20 0.1258
855.30 0.1258
855.40 0.1257
855.50 0.1256
855.60 0.1256
855.70 0.1255
855.80 0.1255
855.90 0.1254
856.00 0.1254
856.10 0.1253
856.20 0.1252
856.30 0.1252
856.40 0.1251
856.50 0.1251
856.60 0.125
856.70 0.125
856.80 0.1249
856.90 0.1248
857.00 0.1248
857.10 0.1247
857.20 0.1247
857.30 0.1246
857.40 0.1246
857.50 0.1245
857.60 0.1245
857.70 0.1244
857.80 0.1243
857.90 0.1243
858.00 0.1242
858.10 0.1242
858.20 0.1241
858.30 0.1241
858.40 0.124
858.50 0.1239
858.60 0.1239
858.70 0.1238
858.80 0.1238
858.90 0.1237
859.00 0.1237
859.10 0.1236
859.20 0.1236
859.30 0.1235
859.40 0.1234
859.50 0.1234
859.60 0.1233
859.70 0.1233
859.80 0.1232
859.90 0.1232
860.00 0.1231
860.10 0.1231
860.20 0.123
860.30 0.1229
860.40 0.1229
860.50 0.1228
860.60 0.1228
860.70 0.1227
860.80 0.1227
860.90 0.1226
861.00 0.1226
861.10 0.1225
861.20 0.1224
861.30 0.1224
861.40 0.1223
861.50 0.1223
861.60 0.1222
861.70 0.1222
861.80 0.1221
861.90 0.1221
862.00 0.122
862.10 0.1219
862.20 0.1219
862.30 0.1218
862.40 0.1218
862.50 0.1217
862.60 0.1217
862.70 0.1216
862.80 0.1216
862.90 0.1215
863.00 0.1215
863.10 0.1214
863.20 0.1213
863.30 0.1213
863.40 0.1212
863.50 0.1212
863.60 0.1211
863.70 0.1211
863.80 0.121
863.90 0.121
864.00 0.1209
864.10 0.1209
864.20 0.1208
864.30 0.1207
864.40 0.1207
864.50 0.1206
864.60 0.1206
864.70 0.1205
864.80 0.1205
864.90 0.1204
865.00 0.1204
865.10 0.1203
865.20 0.1203
865.30 0.1202
865.40 0.1201
865.50 0.1201
865.60 0.12
865.70 0.12
865.80 0.1199
865.90 0.1199
866.00 0.1198
866.10 0.1198
866.20 0.1197
866.30 0.1197
866.40 0.1196
866.50 0.1196
866.60 0.1195
866.70 0.1194
866.80 0.1194
866.90 0.1193
867.00 0.1193
867.10 0.1192
867.20 0.1192
867.30 0.1191
867.40 0.1191
867.50 0.119
867.60 0.119
867.70 0.1189
867.80 0.1189
867.90 0.1188
868.00 0.1187
868.10 0.1187
868.20 0.1186
868.30 0.1186
868.40 0.1185
868.50 0.1185
868.60 0.1184
868.70 0.1184
868.80 0.1183
868.90 0.1183
869.00 0.1182
869.10 0.1182
869.20 0.1181
869.30 0.1181
869.40 0.118
869.50 0.118
869.60 0.1179
869.70 0.1178
869.80 0.1178
869.90 0.1177
870.00 0.1177
870.10 0.1176
870.20 0.1176
870.30 0.1175
870.40 0.1175
870.50 0.1174
870.60 0.1174
870.70 0.1173
870.80 0.1173
870.90 0.1172
871.00 0.1172
871.10 0.1171
871.20 0.1171
871.30 0.117
871.40 0.117
871.50 0.1169
871.60 0.1169
871.70 0.1168
871.80 0.1167
871.90 0.1167
872.00 0.1166
872.10 0.1166
872.20 0.1165
872.30 0.1165
872.40 0.1164
872.50 0.1164
872.60 0.1163
872.70 0.1163
872.80 0.1162
872.90 0.1162
873.00 0.1161
873.10 0.1161
873.20 0.116
873.30 0.116
873.40 0.1159
873.50 0.1159
873.60 0.1158
873.70 0.1158
873.80 0.1157
873.90 0.1157
874.00 0.1156
874.10 0.1156
874.20 0.1155
874.30 0.1155
874.40 0.1154
874.50 0.1154
874.60 0.1153
874.70 0.1152
874.80 0.1152
874.90 0.1151
875.00 0.1151
875.10 0.115
875.20 0.115
875.30 0.1149
875.40 0.1149
875.50 0.1148
875.60 0.1148
875.70 0.1147
875.80 0.1147
875.90 0.1146
876.00 0.1146
876.10 0.1145
876.20 0.1145
876.30 0.1144
876.40 0.1144
876.50 0.1143
876.60 0.1143
876.70 0.1142
876.80 0.1142
876.90 0.1141
877.00 0.1141
877.10 0.114
877.20 0.114
877.30 0.1139
877.40 0.1139
877.50 0.1138
877.60 0.1138
877.70 0.1137
877.80 0.1137
877.90 0.1136
878.00 0.1136
878.10 0.1135
878.20 0.1135
878.30 0.1134
878.40 0.1134
878.50 0.1133
878.60 0.1133
878.70 0.1132
878.80 0.1132
878.90 0.1131
879.00 0.1131
879.10 0.113
879.20 0.113
879.30 0.1129
879.40 0.1129
879.50 0.1128
879.60 0.1128
879.70 0.1127
879.80 0.1127
879.90 0.1126
880.00 0.1126
880.10 0.1125
880.20 0.1125
880.30 0.1124
880.40 0.1124
880.50 0.1123
880.60 0.1123
880.70 0.1122
880.80 0.1122
880.90 0.1121
881.00 0.1121
881.10 0.112
881.20 0.112
881.30 0.1119
881.40 0.1119
881.50 0.1118
881.60 0.1118
881.70 0.1117
881.80 0.1117
881.90 0.1116
882.00 0.1116
882.10 0.1115
882.20 0.1115
882.30 0.1114
882.40 0.1114
882.50 0.1113
882.60 0.1113
882.70 0.1112
882.80 0.1112
882.90 0.1111
883.00 0.1111
883.10 0.111
883.20 0.111
883.30 0.1109
883.40 0.1109
883.50 0.1108
883.60 0.1108
883.70 0.1108
883.80 0.1107
883.90 0.1107
884.00 0.1106
884.10 0.1106
884.20 0.1105
884.30 0.1105
884.40 0.1104
884.50 0.1104
884.60 0.1103
884.70 0.1103
884.80 0.1102
884.90 0.1102
885.00 0.1101
885.10 0.1101
885.20 0.11
885.30 0.11
885.40 0.1099
885.50 0.1099
885.60 0.1098
885.70 0.1098
885.80 0.1097
885.90 0.1097
886.00 0.1096
886.10 0.1096
886.20 0.1095
886.30 0.1095
886.40 0.1094
886.50 0.1094
886.60 0.1094
886.70 0.1093
886.80 0.1093
886.90 0.1092
887.00 0.1092
887.10 0.1091
887.20 0.1091
887.30 0.109
887.40 0.109
887.50 0.1089
887.60 0.1089
887.70 0.1088
887.80 0.1088
887.90 0.1087
888.00 0.1087
888.10 0.1086
888.20 0.1086
888.30 0.1085
888.40 0.1085
888.50 0.1084
888.60 0.1084
888.70 0.1084
888.80 0.1083
888.90 0.1083
889.00 0.1082
889.10 0.1082
889.20 0.1081
889.30 0.1081
889.40 0.108
889.50 0.108
889.60 0.1079
889.70 0.1079
889.80 0.1078
889.90 0.1078
890.00 0.1077
890.10 0.1077
890.20 0.1076
890.30 0.1076
890.40 0.1075
890.50 0.1075
890.60 0.1075
890.70 0.1074
890.80 0.1074
890.90 0.1073
891.00 0.1073
891.10 0.1072
891.20 0.1072
891.30 0.1071
891.40 0.1071
891.50 0.107
891.60 0.107
891.70 0.1069
891.80 0.1069
891.90 0.1068
892.00 0.1068
892.10 0.1068
892.20 0.1067
892.30 0.1067
892.40 0.1066
892.50 0.1066
892.60 0.1065
892.70 0.1065
892.80 0.1064
892.90 0.1064
893.00 0.1063
893.10 0.1063
893.20 0.1062
893.30 0.1062
893.40 0.1062
893.50 0.1061
893.60 0.1061
893.70 0.106
893.80 0.106
893.90 0.1059
894.00 0.1059
894.10 0.1058
894.20 0.1058
894.30 0.1057
894.40 0.1057
894.50 0.1056
894.60 0.1056
894.70 0.1056
894.80 0.1055
894.90 0.1055
895.00 0.1054
895.10 0.1054
895.20 0.1053
895.30 0.1053
895.40 0.1052
895.50 0.1052
895.60 0.1051
895.70 0.1051
895.80 0.1051
895.90 0.105
896.00 0.105
896.10 0.1049
896.20 0.1049
896.30 0.1048
896.40 0.1048
896.50 0.1047
896.60 0.1047
896.70 0.1046
896.80 0.1046
896.90 0.1046
897.00 0.1045
897.10 0.1045
897.20 0.1044
897.30 0.1044
897.40 0.1043
897.50 0.1043
897.60 0.1042
897.70 0.1042
897.80 0.1041
897.90 0.1041
898.00 0.1041
898.10 0.104
898.20 0.104
898.30 0.1039
898.40 0.1039
898.50 0.1038
898.60 0.1038
898.70 0.1037
898.80 0.1037
898.90 0.1037
899.00 0.1036
899.10 0.1036
899.20 0.1035
899.30 0.1035
899.40 0.1034
899.50 0.1034
899.60 0.1033
899.70 0.1033
899.80 0.1033
899.90 0.1032
900.00 0.1032
900.10 0.1031
900.20 0.1031
900.30 0.103
900.40 0.103
900.50 0.103
900.60 0.1029
900.70 0.1029
900.80 0.1028
900.90 0.1028
901.00 0.1027
901.10 0.1027
901.20 0.1026
901.30 0.1026
901.40 0.1026
901.50 0.1025
901.60 0.1025
901.70 0.1024
901.80 0.1024
901.90 0.1023
902.00 0.1023
902.10 0.1022
902.20 0.1022
902.30 0.1022
902.40 0.1021
902.50 0.1021
902.60 0.102
902.70 0.102
902.80 0.1019
902.90 0.1019
903.00 0.1019
903.10 0.1018
903.20 0.1018
903.30 0.1017
903.40 0.1017
903.50 0.1016
903.60 0.1016
903.70 0.1015
903.80 0.1015
903.90 0.1015
904.00 0.1014
904.10 0.1014
904.20 0.1013
904.30 0.1013
904.40 0.1012
904.50 0.1012
904.60 0.1012
904.70 0.1011
904.80 0.1011
904.90 0.101
905.00 0.101
905.10 0.1009
905.20 0.1009
905.30 0.1008
905.40 0.1008
905.50 0.1008
905.60 0.1007
905.70 0.1007
905.80 0.1006
905.90 0.1006
906.00 0.1005
906.10 0.1005
906.20 0.1005
906.30 0.1004
906.40 0.1004
906.50 0.1003
906.60 0.1003
906.70 0.1002
906.80 0.1002
906.90 0.1002
907.00 0.1001
907.10 0.1001
907.20 0.1
907.30 0.09998
907.40 0.09994
907.50 0.0999
907.60 0.09986
907.70 0.09981
907.80 0.09977
907.90 0.09973
908.00 0.09969
908.10 0.09964
908.20 0.0996
908.30 0.09956
908.40 0.09952
908.50 0.09947
908.60 0.09943
908.70 0.09939
908.80 0.09935
908.90 0.0993
909.00 0.09926
909.10 0.09922
909.20 0.09918
909.30 0.09913
909.40 0.09909
909.50 0.09905
909.60 0.09901
909.70 0.09897
909.80 0.09892
909.90 0.09888
910.00 0.09884
910.10 0.0988
910.20 0.09875
910.30 0.09871
910.40 0.09867
910.50 0.09863
910.60 0.09859
910.70 0.09854
910.80 0.0985
910.90 0.09846
911.00 0.09842
911.10 0.09838
911.20 0.09833
911.30 0.09829
911.40 0.09825
911.50 0.09821
911.60 0.09817
911.70 0.09812
911.80 0.09808
911.90 0.09804
912.00 0.098
912.10 0.09796
912.20 0.09791
912.30 0.09787
912.40 0.09783
912.50 0.09779
912.60 0.09775
912.70 0.09771
912.80 0.09766
912.90 0.09762
913.00 0.09758
913.10 0.09754
913.20 0.0975
913.30 0.09746
913.40 0.09741
913.50 0.09737
913.60 0.09733
913.70 0.09729
913.80 0.09725
913.90 0.09721
914.00 0.09717
914.10 0.09712
914.20 0.09708
914.30 0.09704
914.40 0.097
914.50 0.09696
914.60 0.09692
914.70 0.09688
914.80 0.09683
914.90 0.09679
915.00 0.09675
915.10 0.09671
915.20 0.09667
915.30 0.09663
915.40 0.09659
915.50 0.09655
915.60 0.0965
915.70 0.09646
915.80 0.09642
915.90 0.09638
916.00 0.09634
916.10 0.0963
916.20 0.09626
916.30 0.09622
916.40 0.09618
916.50 0.09613
916.60 0.09609
916.70 0.09605
916.80 0.09601
916.90 0.09597
917.00 0.09593
917.10 0.09589
917.20 0.09585
917.30 0.09581
917.40 0.09577
917.50 0.09573
917.60 0.09569
917.70 0.09565
917.80 0.09561
917.90 0.09557
918.00 0.09553
918.10 0.09549
918.20 0.09545
918.30 0.09541
918.40 0.09537
918.50 0.09533
918.60 0.09529
918.70 0.09525
918.80 0.09521
918.90 0.09517
919.00 0.09513
919.10 0.09509
919.20 0.09505
919.30 0.09501
919.40 0.09497
919.50 0.09493
919.60 0.09489
919.70 0.09485
919.80 0.09481
919.90 0.09477
920.00 0.09473
920.10 0.09469
920.20 0.09465
920.30 0.09461
920.40 0.09457
920.50 0.09453
920.60 0.09449
920.70 0.09445
920.80 0.09441
920.90 0.09437
921.00 0.09433
921.10 0.09429
921.20 0.09425
921.30 0.09421
921.40 0.09418
921.50 0.09414
921.60 0.0941
921.70 0.09406
921.80 0.09402
921.90 0.09398
922.00 0.09394
922.10 0.0939
922.20 0.09386
922.30 0.09382
922.40 0.09378
922.50 0.09374
922.60 0.0937
922.70 0.09366
922.80 0.09362
922.90 0.09358
923.00 0.09355
923.10 0.09351
923.20 0.09347
923.30 0.09343
923.40 0.09339
923.50 0.09335
923.60 0.09331
923.70 0.09327
923.80 0.09323
923.90 0.09319
924.00 0.09315
924.10 0.09311
924.20 0.09308
924.30 0.09304
924.40 0.093
924.50 0.09296
924.60 0.09292
924.70 0.09288
924.80 0.09284
924.90 0.0928
925.00 0.09276
925.10 0.09273
925.20 0.09269
925.30 0.09265
925.40 0.09261
925.50 0.09257
925.60 0.09253
925.70 0.09249
925.80 0.09245
925.90 0.09241
926.00 0.09238
926.10 0.09234
926.20 0.0923
926.30 0.09226
926.40 0.09222
926.50 0.09218
926.60 0.09214
926.70 0.0921
926.80 0.09207
926.90 0.09203
927.00 0.09199
927.10 0.09195
927.20 0.09191
927.30 0.09188
927.40 0.09184
927.50 0.0918
927.60 0.09176
927.70 0.09172
927.80 0.09169
927.90 0.09165
928.00 0.09161
928.10 0.09157
928.20 0.09153
928.30 0.0915
928.40 0.09146
928.50 0.09142
928.60 0.09138
928.70 0.09135
928.80 0.09131
928.90 0.09127
929.00 0.09123
929.10 0.0912
929.20 0.09116
929.30 0.09112
929.40 0.09108
929.50 0.09105
929.60 0.09101
929.70 0.09097
929.80 0.09093
929.90 0.0909
930.00 0.09086
930.10 0.09082
930.20 0.09078
930.30 0.09075
930.40 0.09071
930.50 0.09067
930.60 0.09063
930.70 0.0906
930.80 0.09056
930.90 0.09052
931.00 0.09048
931.10 0.09045
931.20 0.09041
931.30 0.09037
931.40 0.09033
931.50 0.0903
931.60 0.09026
931.70 0.09022
931.80 0.09019
931.90 0.09015
932.00 0.09011
932.10 0.09007
932.20 0.09004
932.30 0.09
932.40 0.08996
932.50 0.08992
932.60 0.08989
932.70 0.08985
932.80 0.08981
932.90 0.08978
933.00 0.08974
933.10 0.0897
933.20 0.08967
933.30 0.08963
933.40 0.08959
933.50 0.08955
933.60 0.08952
933.70 0.08948
933.80 0.08944
933.90 0.08941
934.00 0.08937
934.10 0.08933
934.20 0.0893
934.30 0.08926
934.40 0.08922
934.50 0.08918
934.60 0.08915
934.70 0.08911
934.80 0.08907
934.90 0.08904
935.00 0.089
935.10 0.08896
935.20 0.08893
935.30 0.08889
935.40 0.08885
935.50 0.08881
935.60 0.08878
935.70 0.08874
935.80 0.0887
935.90 0.08867
936.00 0.08863
936.10 0.08859
936.20 0.08856
936.30 0.08852
936.40 0.08848
936.50 0.08845
936.60 0.08841
936.70 0.08837
936.80 0.08834
936.90 0.0883
937.00 0.08826
937.10 0.08823
937.20 0.08819
937.30 0.08815
937.40 0.08811
937.50 0.08808
937.60 0.08804
937.70 0.088
937.80 0.08797
937.90 0.08793
938.00 0.08789
938.10 0.08786
938.20 0.08782
938.30 0.08778
938.40 0.08775
938.50 0.08771
938.60 0.08767
938.70 0.08764
938.80 0.0876
938.90 0.08756
939.00 0.08753
939.10 0.08749
939.20 0.08745
939.30 0.08742
939.40 0.08738
939.50 0.08734
939.60 0.08731
939.70 0.08727
939.80 0.08723
939.90 0.0872
940.00 0.08716
940.10 0.08712
940.20 0.08709
940.30 0.08705
940.40 0.08701
940.50 0.08698
940.60 0.08694
940.70 0.0869
940.80 0.08687
940.90 0.08683
941.00 0.08679
941.10 0.08676
941.20 0.08672
941.30 0.08668
941.40 0.08665
941.50 0.08661
941.60 0.08657
941.70 0.08654
941.80 0.0865
941.90 0.08646
942.00 0.08643
942.10 0.08639
942.20 0.08635
942.30 0.08632
942.40 0.08628
942.50 0.08624
942.60 0.08621
942.70 0.08617
942.80 0.08613
942.90 0.0861
943.00 0.08606
943.10 0.08602
943.20 0.08599
943.30 0.08595
943.40 0.08591
943.50 0.08588
943.60 0.08584
943.70 0.0858
943.80 0.08577
943.90 0.08573
944.00 0.08569
944.10 0.08566
944.20 0.08562
944.30 0.08559
944.40 0.08555
944.50 0.08551
944.60 0.08548
944.70 0.08544
944.80 0.0854
944.90 0.08537
945.00 0.08533
945.10 0.08529
945.20 0.08526
945.30 0.08522
945.40 0.08518
945.50 0.08515
945.60 0.08511
945.70 0.08507
945.80 0.08504
945.90 0.085
946.00 0.08497
946.10 0.08493
946.20 0.08489
946.30 0.08486
946.40 0.08482
946.50 0.08478
946.60 0.08475
946.70 0.08471
946.80 0.08468
946.90 0.08464
947.00 0.0846
947.10 0.08457
947.20 0.08453
947.30 0.08449
947.40 0.08446
947.50 0.08442
947.60 0.08439
947.70 0.08435
947.80 0.08431
947.90 0.08428
948.00 0.08424
948.10 0.08421
948.20 0.08417
948.30 0.08413
948.40 0.0841
948.50 0.08406
948.60 0.08403
948.70 0.08399
948.80 0.08395
948.90 0.08392
949.00 0.08388
949.10 0.08385
949.20 0.08381
949.30 0.08377
949.40 0.08374
949.50 0.0837
949.60 0.08367
949.70 0.08363
949.80 0.0836
949.90 0.08356
950.00 0.08353
950.10 0.08349
950.20 0.08345
950.30 0.08342
950.40 0.08338
950.50 0.08335
950.60 0.08331
950.70 0.08328
950.80 0.08324
950.90 0.08321
951.00 0.08317
951.10 0.08314
951.20 0.0831
951.30 0.08307
951.40 0.08303
951.50 0.083
951.60 0.08296
951.70 0.08293
951.80 0.08289
951.90 0.08286
952.00 0.08282
952.10 0.08279
952.20 0.08276
952.30 0.08272
952.40 0.08269
952.50 0.08265
952.60 0.08262
952.70 0.08259
952.80 0.08255
952.90 0.08252
953.00 0.08249
953.10 0.08245
953.20 0.08242
953.30 0.08239
953.40 0.08235
953.50 0.08232
953.60 0.08229
953.70 0.08226
953.80 0.08223
953.90 0.08219
954.00 0.08216
954.10 0.08213
954.20 0.0821
954.30 0.08207
954.40 0.08204
954.50 0.08201
954.60 0.08198
954.70 0.08194
954.80 0.08191
954.90 0.08187
955.00 0.08184
955.10 0.0818
955.20 0.08177
955.30 0.08173
955.40 0.0817
955.50 0.08166
955.60 0.08163
955.70 0.08159
955.80 0.08156
955.90 0.08153
956.00 0.08149
956.10 0.08146
956.20 0.08143
956.30 0.0814
956.40 0.08136
956.50 0.08133
956.60 0.0813
956.70 0.08126
956.80 0.08123
956.90 0.0812
957.00 0.08117
957.10 0.08113
957.20 0.0811
957.30 0.08107
957.40 0.08104
957.50 0.08101
957.60 0.08098
957.70 0.08095
957.80 0.08091
957.90 0.08088
958.00 0.08085
958.10 0.08082
958.20 0.08079
958.30 0.08076
958.40 0.08073
958.50 0.0807
958.60 0.08066
958.70 0.08063
958.80 0.0806
958.90 0.08057
959.00 0.08054
959.10 0.08051
959.20 0.08048
959.30 0.08045
959.40 0.08042
959.50 0.08039
959.60 0.08035
959.70 0.08032
959.80 0.08029
959.90 0.08026
960.00 0.08023
960.10 0.0802
960.20 0.08017
960.30 0.08014
960.40 0.08011
960.50 0.08008
960.60 0.08005
960.70 0.08002
960.80 0.07999
960.90 0.07996
961.00 0.07993
961.10 0.0799
961.20 0.07987
961.30 0.07984
961.40 0.07981
961.50 0.07978
961.60 0.07975
961.70 0.07971
961.80 0.07968
961.90 0.07965
962.00 0.07962
962.10 0.07959
962.20 0.07956
962.30 0.07953
962.40 0.0795
962.50 0.07947
962.60 0.07944
962.70 0.07941
962.80 0.07938
962.90 0.07935
963.00 0.07932
963.10 0.07929
963.20 0.07926
963.30 0.07923
963.40 0.0792
963.50 0.07917
963.60 0.07914
963.70 0.07911
963.80 0.07908
963.90 0.07905
964.00 0.07902
964.10 0.07899
964.20 0.07896
964.30 0.07893
964.40 0.0789
964.50 0.07887
964.60 0.07884
964.70 0.07881
964.80 0.07878
964.90 0.07875
965.00 0.07872
965.10 0.07869
965.20 0.07866
965.30 0.07863
965.40 0.0786
965.50 0.07857
965.60 0.07854
965.70 0.07851
965.80 0.07848
965.90 0.07845
966.00 0.07842
966.10 0.07839
966.20 0.07836
966.30 0.07833
966.40 0.0783
966.50 0.07827
966.60 0.07824
966.70 0.07821
966.80 0.07818
966.90 0.07815
967.00 0.07812
967.10 0.07809
967.20 0.07806
967.30 0.07803
967.40 0.078
967.50 0.07797
967.60 0.07794
967.70 0.07791
967.80 0.07788
967.90 0.07785
968.00 0.07782
968.10 0.07779
968.20 0.07776
968.30 0.07773
968.40 0.0777
968.50 0.07767
968.60 0.07764
968.70 0.0776
968.80 0.07757
968.90 0.07754
969.00 0.07751
969.10 0.07748
969.20 0.07745
969.30 0.07742
969.40 0.07739
969.50 0.07736
969.60 0.07733
969.70 0.0773
969.80 0.07727
969.90 0.07724
970.00 0.07721
970.10 0.07718
970.20 0.07715
970.30 0.07712
970.40 0.07709
970.50 0.07706
970.60 0.07703
970.70 0.077
970.80 0.07697
970.90 0.07694
971.00 0.07691
971.10 0.07688
971.20 0.07685
971.30 0.07682
971.40 0.07679
971.50 0.07676
971.60 0.07673
971.70 0.0767
971.80 0.07667
971.90 0.07664
972.00 0.07661
972.10 0.07658
972.20 0.07655
972.30 0.07652
972.40 0.07649
972.50 0.07646
972.60 0.07643
972.70 0.0764
972.80 0.07637
972.90 0.07634
973.00 0.07631
973.10 0.07628
973.20 0.07625
973.30 0.07622
973.40 0.07619
973.50 0.07616
973.60 0.07613
973.70 0.0761
973.80 0.07607
973.90 0.07604
974.00 0.07601
974.10 0.07598
974.20 0.07595
974.30 0.07592
974.40 0.07589
974.50 0.07586
974.60 0.07583
974.70 0.0758
974.80 0.07577
974.90 0.07574
975.00 0.07571
975.10 0.07568
975.20 0.07565
975.30 0.07562
975.40 0.07559
975.50 0.07556
975.60 0.07553
975.70 0.0755
975.80 0.07547
975.90 0.07544
976.00 0.07541
976.10 0.07538
976.20 0.07535
976.30 0.07532
976.40 0.07529
976.50 0.07527
976.60 0.07524
976.70 0.07521
976.80 0.07518
976.90 0.07515
977.00 0.07512
977.10 0.07509
977.20 0.07506
977.30 0.07503
977.40 0.075
977.50 0.07497
977.60 0.07494
977.70 0.07491
977.80 0.07488
977.90 0.07485
978.00 0.07482
978.10 0.07479
978.20 0.07476
978.30 0.07473
978.40 0.0747
978.50 0.07467
978.60 0.07464
978.70 0.07461
978.80 0.07458
978.90 0.07455
979.00 0.07452
979.10 0.07449
979.20 0.07446
979.30 0.07443
979.40 0.0744
979.50 0.07437
979.60 0.07434
979.70 0.07431
979.80 0.07428
979.90 0.07425
980.00 0.07422
980.10 0.07419
980.20 0.07416
980.30 0.07413
980.40 0.0741
980.50 0.07407
980.60 0.07404
980.70 0.07401
980.80 0.07398
980.90 0.07395
981.00 0.07392
981.10 0.07389
981.20 0.07386
981.30 0.07383
981.40 0.0738
981.50 0.07377
981.60 0.07374
981.70 0.07371
981.80 0.07368
981.90 0.07365
982.00 0.07362
982.10 0.07359
982.20 0.07356
982.30 0.07353
982.40 0.0735
982.50 0.07347
982.60 0.07345
982.70 0.07342
982.80 0.07339
982.90 0.07336
983.00 0.07333
983.10 0.0733
983.20 0.07327
983.30 0.07324
983.40 0.07321
983.50 0.07318
983.60 0.07315
983.70 0.07312
983.80 0.07309
983.90 0.07306
984.00 0.07303
984.10 0.073
984.20 0.07297
984.30 0.07294
984.40 0.07291
984.50 0.07288
984.60 0.07285
984.70 0.07282
984.80 0.07279
984.90 0.07276
985.00 0.07273
985.10 0.0727
985.20 0.07267
985.30 0.07264
985.40 0.07261
985.50 0.07258
985.60 0.07255
985.70 0.07252
985.80 0.07249
985.90 0.07246
986.00 0.07243
986.10 0.0724
986.20 0.07237
986.30 0.07234
986.40 0.07231
986.50 0.07228
986.60 0.07225
986.70 0.07222
986.80 0.07219
986.90 0.07216
987.00 0.07213
987.10 0.0721
987.20 0.07207
987.30 0.07204
987.40 0.07201
987.50 0.07198
987.60 0.07195
987.70 0.07192
987.80 0.07189
987.90 0.07186
988.00 0.07183
988.10 0.0718
988.20 0.07177
988.30 0.07174
988.40 0.07171
988.50 0.07168
988.60 0.07165
988.70 0.07162
988.80 0.07159
988.90 0.07156
989.00 0.07153
989.10 0.0715
989.20 0.07147
989.30 0.07144
989.40 0.07141
989.50 0.07138
989.60 0.07135
989.70 0.07132
989.80 0.07129
989.90 0.07126
990.00 0.07123
990.10 0.0712
990.20 0.07117
990.30 0.07114
990.40 0.07111
990.50 0.07108
990.60 0.07105
990.70 0.07102
990.80 0.07099
990.90 0.07096
991.00 0.07093
991.10 0.0709
991.20 0.07087
991.30 0.07084
991.40 0.07081
991.50 0.07078
991.60 0.07075
991.70 0.07072
991.80 0.07069
991.90 0.07066
992.00 0.07063
992.10 0.0706
992.20 0.07057
992.30 0.07054
992.40 0.07051
992.50 0.07048
992.60 0.07045
992.70 0.07042
992.80 0.07039
992.90 0.07035
993.00 0.07032
993.10 0.07029
993.20 0.07026
993.30 0.07023
993.40 0.0702
993.50 0.07017
993.60 0.07014
993.70 0.07011
993.80 0.07008
993.90 0.07005
994.00 0.07002
994.10 0.06999
994.20 0.06996
994.30 0.06993
994.40 0.0699
994.50 0.06986
994.60 0.06983
994.70 0.0698
994.80 0.06977
994.90 0.06974
995.00 0.06971
995.10 0.06968
995.20 0.06965
995.30 0.06962
995.40 0.06959
995.50 0.06956
995.60 0.06953
995.70 0.06949
995.80 0.06946
995.90 0.06943
996.00 0.0694
996.10 0.06937
996.20 0.06934
996.30 0.06931
996.40 0.06928
996.50 0.06925
996.60 0.06922
996.70 0.06918
996.80 0.06915
996.90 0.06912
997.00 0.06909
997.10 0.06906
997.20 0.06903
997.30 0.069
997.40 0.06897
997.50 0.06894
997.60 0.0689
997.70 0.06887
997.80 0.06884
997.90 0.06881
998.00 0.06878
998.10 0.06875
998.20 0.06872
998.30 0.06868
998.40 0.06865
998.50 0.06862
998.60 0.06859
998.70 0.06856
998.80 0.06853
998.90 0.0685
999.00 0.06847
999.10 0.06843
999.20 0.0684
999.30 0.06837
999.40 0.06834
999.50 0.06831
999.60 0.06828
999.70 0.06825
999.80 0.06821
999.90 0.06818
1000.00 0.06815
1000.10 0.06812
1000.20 0.06809
1000.30 0.06805
1000.40 0.06802
1000.50 0.06799
1000.60 0.06796
1000.70 0.06793
1000.80 0.0679
1000.90 0.06786
1001.00 0.06783
1001.10 0.0678
1001.20 0.06777
1001.30 0.06774
1001.40 0.0677
1001.50 0.06767
1001.60 0.06764
1001.70 0.06761
1001.80 0.06758
1001.90 0.06755
1002.00 0.06752
1002.10 0.0675
1002.20 0.06747
1002.30 0.06744
1002.40 0.06741
1002.50 0.06739
1002.60 0.06736
1002.70 0.06733
1002.80 0.0673
1002.90 0.06728
1003.00 0.06725
1003.10 0.06722
1003.20 0.0672
1003.30 0.06718
1003.40 0.06715
1003.50 0.06713
1003.60 0.06711
1003.70 0.06708
1003.80 0.06706
1003.90 0.06704
1004.00 0.06702
1004.10 0.067
1004.20 0.06699
1004.30 0.06697
1004.40 0.06695
1004.50 0.06694
1004.60 0.06692
1004.70 0.0669
1004.80 0.06688
1004.90 0.06686
1005.00 0.06683
1005.10 0.0668
1005.20 0.06677
1005.30 0.06674
1005.40 0.0667
1005.50 0.06667
1005.60 0.06664
1005.70 0.0666
1005.80 0.06657
1005.90 0.06654
1006.00 0.0665
1006.10 0.06647
1006.20 0.06644
1006.30 0.06641
1006.40 0.06639
1006.50 0.06636
1006.60 0.06633
1006.70 0.0663
1006.80 0.06628
1006.90 0.06625
1007.00 0.06622
1007.10 0.0662
1007.20 0.06617
1007.30 0.06615
1007.40 0.06613
1007.50 0.0661
1007.60 0.06608
1007.70 0.06606
1007.80 0.06603
1007.90 0.06601
1008.00 0.06599
1008.10 0.06597
1008.20 0.06595
1008.30 0.06593
1008.40 0.06591
1008.50 0.06588
1008.60 0.06586
1008.70 0.06584
1008.80 0.06582
1008.90 0.0658
1009.00 0.06578
1009.10 0.06575
1009.20 0.06573
1009.30 0.06571
1009.40 0.06569
1009.50 0.06567
1009.60 0.06565
1009.70 0.06563
1009.80 0.06561
1009.90 0.06558
1010.00 0.06556
1010.10 0.06554
1010.20 0.06552
1010.30 0.0655
1010.40 0.06548
1010.50 0.06546
1010.60 0.06544
1010.70 0.06542
1010.80 0.0654
1010.90 0.06538
1011.00 0.06536
1011.10 0.06534
1011.20 0.06532
1011.30 0.06529
1011.40 0.06527
1011.50 0.06525
1011.60 0.06523
1011.70 0.06521
1011.80 0.06519
1011.90 0.06517
1012.00 0.06515
1012.10 0.06513
1012.20 0.06511
1012.30 0.06509
1012.40 0.06507
1012.50 0.06505
1012.60 0.06502
1012.70 0.065
1012.80 0.06498
1012.90 0.06496
1013.00 0.06494
1013.10 0.06492
1013.20 0.0649
1013.30 0.06488
1013.40 0.06486
1013.50 0.06484
1013.60 0.06481
1013.70 0.06479
1013.80 0.06477
1013.90 0.06475
1014.00 0.06473
1014.10 0.06471
1014.20 0.06469
1014.30 0.06467
1014.40 0.06464
1014.50 0.06462
1014.60 0.0646
1014.70 0.06458
1014.80 0.06456
1014.90 0.06454
1015.00 0.06452
1015.10 0.06449
1015.20 0.06447
1015.30 0.06445
1015.40 0.06443
1015.50 0.06441
1015.60 0.06439
1015.70 0.06436
1015.80 0.06434
1015.90 0.06432
1016.00 0.0643
1016.10 0.06428
1016.20 0.06426
1016.30 0.06424
1016.40 0.06421
1016.50 0.06419
1016.60 0.06417
1016.70 0.06415
1016.80 0.06413
1016.90 0.06411
1017.00 0.06408
1017.10 0.06406
1017.20 0.06404
1017.30 0.06402
1017.40 0.064
1017.50 0.06397
1017.60 0.06395
1017.70 0.06393
1017.80 0.06391
1017.90 0.06389
1018.00 0.06386
1018.10 0.06384
1018.20 0.06382
1018.30 0.0638
1018.40 0.06378
1018.50 0.06375
1018.60 0.06373
1018.70 0.06371
1018.80 0.06369
1018.90 0.06366
1019.00 0.06364
1019.10 0.06362
1019.20 0.0636
1019.30 0.06358
1019.40 0.06355
1019.50 0.06353
1019.60 0.06351
1019.70 0.06349
1019.80 0.06346
1019.90 0.06344
1020.00 0.06342
1020.10 0.0634
1020.20 0.06337
1020.30 0.06335
1020.40 0.06333
1020.50 0.06331
1020.60 0.06329
1020.70 0.06326
1020.80 0.06324
1020.90 0.06322
1021.00 0.0632
1021.10 0.06317
1021.20 0.06315
1021.30 0.06313
1021.40 0.06311
1021.50 0.06308
1021.60 0.06306
1021.70 0.06304
1021.80 0.06302
1021.90 0.06299
1022.00 0.06297
1022.10 0.06295
1022.20 0.06293
1022.30 0.0629
1022.40 0.06288
1022.50 0.06286
1022.60 0.06284
1022.70 0.06281
1022.80 0.06279
1022.90 0.06277
1023.00 0.06275
1023.10 0.06272
1023.20 0.0627
1023.30 0.06268
1023.40 0.06265
1023.50 0.06263
1023.60 0.06261
1023.70 0.06259
1023.80 0.06256
1023.90 0.06254
1024.00 0.06252
1024.10 0.0625
1024.20 0.06247
1024.30 0.06245
1024.40 0.06243
1024.50 0.06241
1024.60 0.06238
1024.70 0.06236
1024.80 0.06234
1024.90 0.06232
1025.00 0.06229
1025.10 0.06227
1025.20 0.06225
1025.30 0.06223
1025.40 0.0622
1025.50 0.06218
1025.60 0.06216
1025.70 0.06213
1025.80 0.06211
1025.90 0.06209
1026.00 0.06207
1026.10 0.06204
1026.20 0.06202
1026.30 0.062
1026.40 0.06198
1026.50 0.06195
1026.60 0.06193
1026.70 0.06191
1026.80 0.06189
1026.90 0.06186
1027.00 0.06184
1027.10 0.06182
1027.20 0.0618
1027.30 0.06177
1027.40 0.06175
1027.50 0.06173
1027.60 0.0617
1027.70 0.06168
1027.80 0.06166
1027.90 0.06164
1028.00 0.06161
1028.10 0.06159
1028.20 0.06157
1028.30 0.06155
1028.40 0.06152
1028.50 0.0615
1028.60 0.06148
1028.70 0.06145
1028.80 0.06143
1028.90 0.06141
1029.00 0.06139
1029.10 0.06136
1029.20 0.06134
1029.30 0.06132
1029.40 0.0613
1029.50 0.06127
1029.60 0.06125
1029.70 0.06123
1029.80 0.06121
1029.90 0.06118
1030.00 0.06116
1030.10 0.06114
1030.20 0.06112
1030.30 0.06109
1030.40 0.06107
1030.50 0.06105
1030.60 0.06103
1030.70 0.061
1030.80 0.06098
1030.90 0.06096
1031.00 0.06094
1031.10 0.06091
1031.20 0.06089
1031.30 0.06087
1031.40 0.06085
1031.50 0.06082
1031.60 0.0608
1031.70 0.06078
1031.80 0.06076
1031.90 0.06073
1032.00 0.06071
1032.10 0.06069
1032.20 0.06067
1032.30 0.06064
1032.40 0.06062
1032.50 0.0606
1032.60 0.06058
1032.70 0.06055
1032.80 0.06053
1032.90 0.06051
1033.00 0.06049
1033.10 0.06046
1033.20 0.06044
1033.30 0.06042
1033.40 0.0604
1033.50 0.06037
1033.60 0.06035
1033.70 0.06033
1033.80 0.06031
1033.90 0.06029
1034.00 0.06026
1034.10 0.06024
1034.20 0.06022
1034.30 0.0602
1034.40 0.06017
1034.50 0.06015
1034.60 0.06013
1034.70 0.06011
1034.80 0.06008
1034.90 0.06006
1035.00 0.06004
1035.10 0.06002
1035.20 0.05999
1035.30 0.05997
1035.40 0.05995
1035.50 0.05993
1035.60 0.05991
1035.70 0.05988
1035.80 0.05986
1035.90 0.05984
1036.00 0.05982
1036.10 0.05979
1036.20 0.05977
1036.30 0.05975
1036.40 0.05973
1036.50 0.05971
1036.60 0.05968
1036.70 0.05966
1036.80 0.05964
1036.90 0.05962
1037.00 0.05959
1037.10 0.05957
1037.20 0.05955
1037.30 0.05953
1037.40 0.05951
1037.50 0.05948
1037.60 0.05946
1037.70 0.05944
1037.80 0.05942
1037.90 0.0594
1038.00 0.05937
1038.10 0.05935
1038.20 0.05933
1038.30 0.05931
1038.40 0.05928
1038.50 0.05926
1038.60 0.05924
1038.70 0.05922
1038.80 0.0592
1038.90 0.05917
1039.00 0.05915
1039.10 0.05913
1039.20 0.05911
1039.30 0.05909
1039.40 0.05906
1039.50 0.05904
1039.60 0.05902
1039.70 0.059
1039.80 0.05898
1039.90 0.05895
1040.00 0.05893
1040.10 0.05891
1040.20 0.05889
1040.30 0.05887
1040.40 0.05884
1040.50 0.05882
1040.60 0.0588
1040.70 0.05878
1040.80 0.05876
1040.90 0.05874
1041.00 0.05871
1041.10 0.05869
1041.20 0.05867
1041.30 0.05865
1041.40 0.05863
1041.50 0.0586
1041.60 0.05858
1041.70 0.05856
1041.80 0.05854
1041.90 0.05852
1042.00 0.05849
1042.10 0.05847
1042.20 0.05845
1042.30 0.05843
1042.40 0.05841
1042.50 0.05839
1042.60 0.05836
1042.70 0.05834
1042.80 0.05832
1042.90 0.0583
1043.00 0.05828
1043.10 0.05826
1043.20 0.05823
1043.30 0.05821
1043.40 0.05819
1043.50 0.05817
1043.60 0.05815
1043.70 0.05813
1043.80 0.0581
1043.90 0.05808
1044.00 0.05806
1044.10 0.05804
1044.20 0.05802
1044.30 0.058
1044.40 0.05797
1044.50 0.05795
1044.60 0.05793
1044.70 0.05791
1044.80 0.05789
1044.90 0.05787
1045.00 0.05784
1045.10 0.05782
1045.20 0.0578
1045.30 0.05778
1045.40 0.05776
1045.50 0.05774
1045.60 0.05772
1045.70 0.05769
1045.80 0.05767
1045.90 0.05765
1046.00 0.05763
1046.10 0.05761
1046.20 0.05759
1046.30 0.05757
1046.40 0.05754
1046.50 0.05752
1046.60 0.0575
1046.70 0.05748
1046.80 0.05746
1046.90 0.05744
1047.00 0.05741
1047.10 0.05739
1047.20 0.05737
1047.30 0.05735
1047.40 0.05733
1047.50 0.05731
1047.60 0.05729
1047.70 0.05727
1047.80 0.05724
1047.90 0.05722
1048.00 0.0572
1048.10 0.05718
1048.20 0.05716
1048.30 0.05714
1048.40 0.05712
1048.50 0.0571
1048.60 0.05707
1048.70 0.05705
1048.80 0.05703
1048.90 0.05701
1049.00 0.05699
1049.10 0.05697
1049.20 0.05695
1049.30 0.05693
1049.40 0.0569
1049.50 0.05688
1049.60 0.05686
1049.70 0.05684
1049.80 0.05682
1049.90 0.0568
1050.00 0.05678
1050.10 0.05676
1050.20 0.05673
1050.30 0.05671
1050.40 0.05669
1050.50 0.05667
1050.60 0.05665
1050.70 0.05663
1050.80 0.05661
1050.90 0.05659
1051.00 0.05657
1051.10 0.05654
1051.20 0.05652
1051.30 0.0565
1051.40 0.05648
1051.50 0.05646
1051.60 0.05644
1051.70 0.05642
1051.80 0.0564
1051.90 0.05638
1052.00 0.05636
1052.10 0.05633
1052.20 0.05631
1052.30 0.05629
1052.40 0.05627
1052.50 0.05625
1052.60 0.05623
1052.70 0.05621
1052.80 0.05619
1052.90 0.05617
1053.00 0.05615
1053.10 0.05613
1053.20 0.0561
1053.30 0.05608
1053.40 0.05606
1053.50 0.05604
1053.60 0.05602
1053.70 0.056
1053.80 0.05598
1053.90 0.05596
1054.00 0.05594
1054.10 0.05592
1054.20 0.0559
1054.30 0.05587
1054.40 0.05585
1054.50 0.05583
1054.60 0.05581
1054.70 0.05579
1054.80 0.05577
1054.90 0.05575
1055.00 0.05573
1055.10 0.05571
1055.20 0.05569
1055.30 0.05567
1055.40 0.05565
1055.50 0.05563
1055.60 0.0556
1055.70 0.05558
1055.80 0.05556
1055.90 0.05554
1056.00 0.05552
1056.10 0.0555
1056.20 0.05548
1056.30 0.05546
1056.40 0.05544
1056.50 0.05542
1056.60 0.0554
1056.70 0.05538
1056.80 0.05536
1056.90 0.05534
1057.00 0.05532
1057.10 0.05529
1057.20 0.05527
1057.30 0.05525
1057.40 0.05523
1057.50 0.05521
1057.60 0.05519
1057.70 0.05517
1057.80 0.05515
1057.90 0.05513
1058.00 0.05511
1058.10 0.05509
1058.20 0.05507
1058.30 0.05505
1058.40 0.05503
1058.50 0.05501
1058.60 0.05499
1058.70 0.05497
1058.80 0.05495
1058.90 0.05493
1059.00 0.0549
1059.10 0.05488
1059.20 0.05486
1059.30 0.05484
1059.40 0.05482
1059.50 0.0548
1059.60 0.05478
1059.70 0.05476
1059.80 0.05474
1059.90 0.05472
1060.00 0.0547
1060.10 0.05468
1060.20 0.05466
1060.30 0.05464
1060.40 0.05462
1060.50 0.0546
1060.60 0.05458
1060.70 0.05456
1060.80 0.05454
1060.90 0.05452
1061.00 0.0545
1061.10 0.05448
1061.20 0.05446
1061.30 0.05444
1061.40 0.05441
1061.50 0.05439
1061.60 0.05437
1061.70 0.05435
1061.80 0.05433
1061.90 0.05431
1062.00 0.05429
1062.10 0.05427
1062.20 0.05425
1062.30 0.05423
1062.40 0.05421
1062.50 0.05419
1062.60 0.05417
1062.70 0.05415
1062.80 0.05413
1062.90 0.05411
1063.00 0.05409
1063.10 0.05407
1063.20 0.05405
1063.30 0.05403
1063.40 0.05401
1063.50 0.05399
1063.60 0.05397
1063.70 0.05395
1063.80 0.05393
1063.90 0.05391
1064.00 0.05389
1064.10 0.05387
1064.20 0.05385
1064.30 0.05383
1064.40 0.05381
1064.50 0.05379
1064.60 0.05377
1064.70 0.05375
1064.80 0.05373
1064.90 0.05371
1065.00 0.05369
1065.10 0.05367
1065.20 0.05365
1065.30 0.05363
1065.40 0.05361
1065.50 0.05359
1065.60 0.05357
1065.70 0.05355
1065.80 0.05353
1065.90 0.0535
1066.00 0.05348
1066.10 0.05346
1066.20 0.05344
1066.30 0.05342
1066.40 0.0534
1066.50 0.05338
1066.60 0.05336
1066.70 0.05334
1066.80 0.05332
1066.90 0.0533
1067.00 0.05328
1067.10 0.05326
1067.20 0.05324
1067.30 0.05322
1067.40 0.0532
1067.50 0.05318
1067.60 0.05316
1067.70 0.05314
1067.80 0.05312
1067.90 0.0531
1068.00 0.05308
1068.10 0.05306
1068.20 0.05304
1068.30 0.05302
1068.40 0.053
1068.50 0.05298
1068.60 0.05296
1068.70 0.05294
1068.80 0.05292
1068.90 0.0529
1069.00 0.05288
1069.10 0.05286
1069.20 0.05284
1069.30 0.05282
1069.40 0.0528
1069.50 0.05278
1069.60 0.05276
1069.70 0.05274
1069.80 0.05272
1069.90 0.0527
1070.00 0.05268
1070.10 0.05266
1070.20 0.05264
1070.30 0.05262
1070.40 0.0526
1070.50 0.05258
1070.60 0.05256
1070.70 0.05254
1070.80 0.05252
1070.90 0.0525
1071.00 0.05248
1071.10 0.05246
1071.20 0.05244
1071.30 0.05242
1071.40 0.0524
1071.50 0.05238
1071.60 0.05236
1071.70 0.05234
1071.80 0.05232
1071.90 0.0523
1072.00 0.05228
1072.10 0.05226
1072.20 0.05224
1072.30 0.05222
1072.40 0.0522
1072.50 0.05218
1072.60 0.05216
1072.70 0.05214
1072.80 0.05212
1072.90 0.0521
1073.00 0.05208
1073.10 0.05206
1073.20 0.05204
1073.30 0.05202
1073.40 0.052
1073.50 0.05198
1073.60 0.05196
1073.70 0.05194
1073.80 0.05192
1073.90 0.0519
1074.00 0.05188
1074.10 0.05186
1074.20 0.05184
1074.30 0.05182
1074.40 0.0518
1074.50 0.05178
1074.60 0.05176
1074.70 0.05174
1074.80 0.05172
1074.90 0.05169
1075.00 0.05167
1075.10 0.05165
1075.20 0.05163
1075.30 0.05161
1075.40 0.05159
1075.50 0.05157
1075.60 0.05155
1075.70 0.05153
1075.80 0.05151
1075.90 0.05149
1076.00 0.05147
1076.10 0.05145
1076.20 0.05143
1076.30 0.05141
1076.40 0.05139
1076.50 0.05137
1076.60 0.05135
1076.70 0.05133
1076.80 0.05131
1076.90 0.05129
1077.00 0.05127
1077.10 0.05125
1077.20 0.05123
1077.30 0.05121
1077.40 0.05119
1077.50 0.05117
1077.60 0.05115
1077.70 0.05113
1077.80 0.0511
1077.90 0.05108
1078.00 0.05106
1078.10 0.05104
1078.20 0.05102
1078.30 0.051
1078.40 0.05098
1078.50 0.05096
1078.60 0.05094
1078.70 0.05092
1078.80 0.0509
1078.90 0.05088
1079.00 0.05086
1079.10 0.05083
1079.20 0.05081
1079.30 0.05079
1079.40 0.05077
1079.50 0.05075
1079.60 0.05073
1079.70 0.05071
1079.80 0.05069
1079.90 0.05067
1080.00 0.05064
1080.10 0.05062
1080.20 0.0506
1080.30 0.05058
1080.40 0.05056
1080.50 0.05054
1080.60 0.05052
1080.70 0.0505
1080.80 0.05047
1080.90 0.05045
1081.00 0.05043
1081.10 0.05041
1081.20 0.05039
1081.30 0.05037
1081.40 0.05035
1081.50 0.05033
1081.60 0.0503
1081.70 0.05028
1081.80 0.05026
1081.90 0.05024
1082.00 0.05022
1082.10 0.0502
1082.20 0.05017
1082.30 0.05015
1082.40 0.05013
1082.50 0.05011
1082.60 0.05009
1082.70 0.05006
1082.80 0.05004
1082.90 0.05002
1083.00 0.05
1083.10 0.04998
1083.20 0.04995
1083.30 0.04993
1083.40 0.04991
1083.50 0.04989
1083.60 0.04987
1083.70 0.04984
1083.80 0.04982
1083.90 0.0498
1084.00 0.04978
1084.10 0.04975
1084.20 0.04973
1084.30 0.04971
1084.40 0.04969
1084.50 0.04966
1084.60 0.04964
1084.70 0.04962
1084.80 0.04959
1084.90 0.04957
1085.00 0.04955
1085.10 0.04952
1085.20 0.0495
1085.30 0.04948
1085.40 0.04946
1085.50 0.04943
1085.60 0.04941
1085.70 0.04939
1085.80 0.04936
1085.90 0.04934
1086.00 0.04932
1086.10 0.04929
1086.20 0.04927
1086.30 0.04925
1086.40 0.04922
1086.50 0.0492
1086.60 0.04918
1086.70 0.04915
1086.80 0.04913
1086.90 0.04911
1087.00 0.04908
1087.10 0.04906
1087.20 0.04904
1087.30 0.04901
1087.40 0.04899
1087.50 0.04897
1087.60 0.04894
1087.70 0.04892
1087.80 0.04889
1087.90 0.04887
1088.00 0.04885
1088.10 0.04882
1088.20 0.0488
1088.30 0.04878
1088.40 0.04875
1088.50 0.04873
1088.60 0.04871
1088.70 0.04868
1088.80 0.04866
1088.90 0.04864
1089.00 0.04861
1089.10 0.04859
1089.20 0.04857
1089.30 0.04854
1089.40 0.04852
1089.50 0.0485
1089.60 0.04847
1089.70 0.04845
1089.80 0.04843
1089.90 0.0484
1090.00 0.04838
1090.10 0.04836
1090.20 0.04833
1090.30 0.04831
1090.40 0.04829
1090.50 0.04826
1090.60 0.04824
1090.70 0.04822
1090.80 0.0482
1090.90 0.04818
1091.00 0.04816
1091.10 0.04814
1091.20 0.04812
1091.30 0.0481
1091.40 0.04808
1091.50 0.04806
1091.60 0.04804
1091.70 0.04802
1091.80 0.048
1091.90 0.04797
1092.00 0.04795
1092.10 0.04794
1092.20 0.04792
1092.30 0.0479
1092.40 0.04788
1092.50 0.04787
1092.60 0.04785
1092.70 0.04783
1092.80 0.04782
1092.90 0.0478
1093.00 0.04778
1093.10 0.04777
1093.20 0.04776
1093.30 0.04774
1093.40 0.04773
1093.50 0.04773
1093.60 0.04775
1093.70 0.04775
1093.80 0.04775
1093.90 0.04774
1094.00 0.0477
1094.10 0.04766
1094.20 0.04761
1094.30 0.04758
1094.40 0.04756
1094.50 0.04754
1094.60 0.04752
1094.70 0.0475
1094.80 0.04748
1094.90 0.04746
1095.00 0.04745
1095.10 0.04743
1095.20 0.04742
1095.30 0.0474
1095.40 0.04739
1095.50 0.04737
1095.60 0.04736
1095.70 0.04734
1095.80 0.04733
1095.90 0.04731
1096.00 0.0473
1096.10 0.04728
1096.20 0.04727
1096.30 0.04726
1096.40 0.04724
1096.50 0.04723
1096.60 0.04721
1096.70 0.0472
1096.80 0.04719
1096.90 0.04718
1097.00 0.04717
1097.10 0.04716
1097.20 0.04714
1097.30 0.04713
1097.40 0.04712
1097.50 0.04711
1097.60 0.0471
1097.70 0.04709
1097.80 0.04708
1097.90 0.04707
1098.00 0.04706
1098.10 0.04704
1098.20 0.04703
1098.30 0.04702
1098.40 0.04701
1098.50 0.047
1098.60 0.04699
1098.70 0.04698
1098.80 0.04697
1098.90 0.04696
1099.00 0.04695
1099.10 0.04694
1099.20 0.04693
1099.30 0.04692
1099.40 0.04691
1099.50 0.0469
1099.60 0.04689
1099.70 0.04688
1099.80 0.04686
1099.90 0.04685
1100.00 0.04684
1100.10 0.04683
1100.20 0.04682
1100.30 0.04681
1100.40 0.0468
1100.50 0.04679
1100.60 0.04678
1100.70 0.04677
1100.80 0.04676
1100.90 0.04675
1101.00 0.04674
1101.10 0.04672
1101.20 0.04671
1101.30 0.0467
1101.40 0.04669
1101.50 0.04668
1101.60 0.04667
1101.70 0.04666
1101.80 0.04665
1101.90 0.04664
1102.00 0.04663
1102.10 0.04661
1102.20 0.0466
1102.30 0.04659
1102.40 0.04658
1102.50 0.04657
1102.60 0.04656
1102.70 0.04654
1102.80 0.04653
1102.90 0.04652
1103.00 0.04651
1103.10 0.0465
1103.20 0.04649
1103.30 0.04647
1103.40 0.04646
1103.50 0.04645
1103.60 0.04644
1103.70 0.04642
1103.80 0.04641
1103.90 0.0464
1104.00 0.04639
1104.10 0.04637
1104.20 0.04636
1104.30 0.04635
1104.40 0.04634
1104.50 0.04632
1104.60 0.04631
1104.70 0.0463
1104.80 0.04629
1104.90 0.04627
1105.00 0.04626
1105.10 0.04625
1105.20 0.04624
1105.30 0.04622
1105.40 0.04621
1105.50 0.0462
1105.60 0.04618
1105.70 0.04617
1105.80 0.04616
1105.90 0.04615
1106.00 0.04613
1106.10 0.04612
1106.20 0.04611
1106.30 0.04609
1106.40 0.04608
1106.50 0.04607
1106.60 0.04605
1106.70 0.04604
1106.80 0.04603
1106.90 0.04601
1107.00 0.046
1107.10 0.04599
1107.20 0.04597
1107.30 0.04596
1107.40 0.04595
1107.50 0.04593
1107.60 0.04592
1107.70 0.0459
1107.80 0.04589
1107.90 0.04588
1108.00 0.04586
1108.10 0.04585
1108.20 0.04583
1108.30 0.04582
1108.40 0.04581
1108.50 0.04579
1108.60 0.04578
1108.70 0.04576
1108.80 0.04575
1108.90 0.04574
1109.00 0.04572
1109.10 0.04571
1109.20 0.04569
1109.30 0.04568
1109.40 0.04567
1109.50 0.04565
1109.60 0.04564
1109.70 0.04562
1109.80 0.04561
1109.90 0.0456
1110.00 0.04558
1110.10 0.04557
1110.20 0.04555
1110.30 0.04554
1110.40 0.04552
1110.50 0.04551
1110.60 0.04549
1110.70 0.04548
1110.80 0.04547
1110.90 0.04545
1111.00 0.04544
1111.10 0.04542
1111.20 0.04541
1111.30 0.04539
1111.40 0.04538
1111.50 0.04537
1111.60 0.04535
1111.70 0.04534
1111.80 0.04532
1111.90 0.04531
1112.00 0.04529
1112.10 0.04528
1112.20 0.04526
1112.30 0.04525
1112.40 0.04523
1112.50 0.04522
1112.60 0.04521
1112.70 0.04519
1112.80 0.04518
1112.90 0.04516
1113.00 0.04515
1113.10 0.04513
1113.20 0.04512
1113.30 0.0451
1113.40 0.04509
1113.50 0.04507
1113.60 0.04506
1113.70 0.04504
1113.80 0.04503
1113.90 0.04501
1114.00 0.045
1114.10 0.04498
1114.20 0.04497
1114.30 0.04495
1114.40 0.04494
1114.50 0.04492
1114.60 0.04491
1114.70 0.0449
1114.80 0.04488
1114.90 0.04487
1115.00 0.04485
1115.10 0.04484
1115.20 0.04482
1115.30 0.04481
1115.40 0.04479
1115.50 0.04478
1115.60 0.04476
1115.70 0.04475
1115.80 0.04473
1115.90 0.04472
1116.00 0.0447
1116.10 0.04469
1116.20 0.04467
1116.30 0.04466
1116.40 0.04464
1116.50 0.04463
1116.60 0.04461
1116.70 0.0446
1116.80 0.04458
1116.90 0.04457
1117.00 0.04456
1117.10 0.04454
1117.20 0.04452
1117.30 0.04451
1117.40 0.04449
1117.50 0.04448
1117.60 0.04446
1117.70 0.04445
1117.80 0.04443
1117.90 0.04442
1118.00 0.04441
1118.10 0.04439
1118.20 0.04438
1118.30 0.04436
1118.40 0.04435
1118.50 0.04433
1118.60 0.04432
1118.70 0.0443
1118.80 0.04429
1118.90 0.04427
1119.00 0.04426
1119.10 0.04424
1119.20 0.04423
1119.30 0.04421
1119.40 0.0442
1119.50 0.04418
1119.60 0.04417
1119.70 0.04415
1119.80 0.04414
1119.90 0.04412
1120.00 0.04411
1120.10 0.04409
1120.20 0.04408
1120.30 0.04406
1120.40 0.04405
1120.50 0.04403
1120.60 0.04402
1120.70 0.044
1120.80 0.04399
1120.90 0.04397
1121.00 0.04396
1121.10 0.04394
1121.20 0.04393
1121.30 0.04391
1121.40 0.0439
1121.50 0.04388
1121.60 0.04387
1121.70 0.04385
1121.80 0.04384
1121.90 0.04382
1122.00 0.04381
1122.10 0.04379
1122.20 0.04378
1122.30 0.04376
1122.40 0.04375
1122.50 0.04374
1122.60 0.04372
1122.70 0.04371
1122.80 0.04369
1122.90 0.04368
1123.00 0.04366
1123.10 0.04365
1123.20 0.04363
1123.30 0.04362
1123.40 0.0436
1123.50 0.04359
1123.60 0.04357
1123.70 0.04356
1123.80 0.04354
1123.90 0.04353
1124.00 0.04351
1124.10 0.0435
1124.20 0.04348
1124.30 0.04347
1124.40 0.04345
1124.50 0.04344
1124.60 0.04342
1124.70 0.04341
1124.80 0.04339
1124.90 0.04338
1125.00 0.04336
1125.10 0.04335
1125.20 0.04333
1125.30 0.04332
1125.40 0.04331
1125.50 0.04329
1125.60 0.04328
1125.70 0.04326
1125.80 0.04325
1125.90 0.04323
1126.00 0.04322
1126.10 0.0432
1126.20 0.04319
1126.30 0.04317
1126.40 0.04316
1126.50 0.04314
1126.60 0.04313
1126.70 0.04311
1126.80 0.0431
1126.90 0.04308
1127.00 0.04307
1127.10 0.04305
1127.20 0.04304
1127.30 0.04303
1127.40 0.04301
1127.50 0.043
1127.60 0.04298
1127.70 0.04297
1127.80 0.04295
1127.90 0.04294
1128.00 0.04292
1128.10 0.04291
1128.20 0.04289
1128.30 0.04288
1128.40 0.04286
1128.50 0.04285
1128.60 0.04283
1128.70 0.04282
1128.80 0.04281
1128.90 0.04279
1129.00 0.04278
1129.10 0.04276
1129.20 0.04275
1129.30 0.04273
1129.40 0.04272
1129.50 0.0427
1129.60 0.04269
1129.70 0.04267
1129.80 0.04266
1129.90 0.04264
1130.00 0.04263
1130.10 0.04262
1130.20 0.0426
1130.30 0.04259
1130.40 0.04257
1130.50 0.04256
1130.60 0.04254
1130.70 0.04253
1130.80 0.04251
1130.90 0.0425
1131.00 0.04248
1131.10 0.04247
1131.20 0.04245
1131.30 0.04244
1131.40 0.04243
1131.50 0.04241
1131.60 0.0424
1131.70 0.04238
1131.80 0.04237
1131.90 0.04235
1132.00 0.04234
1132.10 0.04232
1132.20 0.04231
1132.30 0.0423
1132.40 0.04228
1132.50 0.04227
1132.60 0.04225
1132.70 0.04224
1132.80 0.04222
1132.90 0.04221
1133.00 0.04219
1133.10 0.04218
1133.20 0.04217
1133.30 0.04215
1133.40 0.04214
1133.50 0.04212
1133.60 0.04211
1133.70 0.04209
1133.80 0.04208
1133.90 0.04206
1134.00 0.04205
1134.10 0.04204
1134.20 0.04202
1134.30 0.04201
1134.40 0.04199
1134.50 0.04198
1134.60 0.04196
1134.70 0.04195
1134.80 0.04194
1134.90 0.04192
1135.00 0.04191
1135.10 0.04189
1135.20 0.04188
1135.30 0.04186
1135.40 0.04185
1135.50 0.04183
1135.60 0.04182
1135.70 0.04181
1135.80 0.04179
1135.90 0.04178
1136.00 0.04176
1136.10 0.04175
1136.20 0.04173
1136.30 0.04172
1136.40 0.04171
1136.50 0.04169
1136.60 0.04168
1136.70 0.04166
1136.80 0.04165
1136.90 0.04163
1137.00 0.04162
1137.10 0.04161
1137.20 0.04159
1137.30 0.04158
1137.40 0.04156
1137.50 0.04155
1137.60 0.04154
1137.70 0.04152
1137.80 0.04151
1137.90 0.04149
1138.00 0.04148
1138.10 0.04146
1138.20 0.04145
1138.30 0.04144
1138.40 0.04142
1138.50 0.04141
1138.60 0.04139
1138.70 0.04138
1138.80 0.04137
1138.90 0.04135
1139.00 0.04134
1139.10 0.04132
1139.20 0.04131
1139.30 0.0413
1139.40 0.04128
1139.50 0.04127
1139.60 0.04125
1139.70 0.04124
1139.80 0.04122
1139.90 0.04121
1140.00 0.0412
1140.10 0.04118
1140.20 0.04117
1140.30 0.04115
1140.40 0.04114
1140.50 0.04113
1140.60 0.04111
1140.70 0.0411
1140.80 0.04108
1140.90 0.04107
1141.00 0.04106
1141.10 0.04104
1141.20 0.04103
1141.30 0.04101
1141.40 0.041
1141.50 0.04099
1141.60 0.04097
1141.70 0.04096
1141.80 0.04094
1141.90 0.04093
1142.00 0.04092
1142.10 0.0409
1142.20 0.04089
1142.30 0.04087
1142.40 0.04086
1142.50 0.04085
1142.60 0.04083
1142.70 0.04082
1142.80 0.0408
1142.90 0.04079
1143.00 0.04078
1143.10 0.04076
1143.20 0.04075
1143.30 0.04074
1143.40 0.04072
1143.50 0.04071
1143.60 0.04069
1143.70 0.04068
1143.80 0.04067
1143.90 0.04065
1144.00 0.04064
1144.10 0.04062
1144.20 0.04061
1144.30 0.0406
1144.40 0.04058
1144.50 0.04057
1144.60 0.04056
1144.70 0.04054
1144.80 0.04053
1144.90 0.04051
1145.00 0.0405
1145.10 0.04049
1145.20 0.04047
1145.30 0.04046
1145.40 0.04045
1145.50 0.04043
1145.60 0.04042
1145.70 0.0404
1145.80 0.04039
1145.90 0.04038
1146.00 0.04036
1146.10 0.04035
1146.20 0.04033
1146.30 0.04032
1146.40 0.04031
1146.50 0.04029
1146.60 0.04028
1146.70 0.04027
1146.80 0.04025
1146.90 0.04024
1147.00 0.04023
1147.10 0.04021
1147.20 0.0402
1147.30 0.04018
1147.40 0.04017
1147.50 0.04016
1147.60 0.04014
1147.70 0.04013
1147.80 0.04012
1147.90 0.0401
1148.00 0.04009
1148.10 0.04008
1148.20 0.04006
1148.30 0.04005
1148.40 0.04003
1148.50 0.04002
1148.60 0.04001
1148.70 0.03999
1148.80 0.03998
1148.90 0.03997
1149.00 0.03995
1149.10 0.03994
1149.20 0.03993
1149.30 0.03991
1149.40 0.0399
1149.50 0.03989
1149.60 0.03987
1149.70 0.03986
1149.80 0.03984
1149.90 0.03983
1150.00 0.03982
1150.10 0.0398
1150.20 0.03979
1150.30 0.03978
1150.40 0.03976
1150.50 0.03975
1150.60 0.03974
1150.70 0.03972
1150.80 0.03971
1150.90 0.0397
1151.00 0.03968
1151.10 0.03967
1151.20 0.03966
1151.30 0.03964
1151.40 0.03963
1151.50 0.03962
1151.60 0.0396
1151.70 0.03959
1151.80 0.03958
1151.90 0.03956
1152.00 0.03955
1152.10 0.03953
1152.20 0.03952
1152.30 0.03951
1152.40 0.03949
1152.50 0.03948
1152.60 0.03947
1152.70 0.03945
1152.80 0.03944
1152.90 0.03943
1153.00 0.03941
1153.10 0.0394
1153.20 0.03939
1153.30 0.03937
1153.40 0.03936
1153.50 0.03935
1153.60 0.03933
1153.70 0.03932
1153.80 0.03931
1153.90 0.03929
1154.00 0.03928
1154.10 0.03927
1154.20 0.03926
1154.30 0.03924
1154.40 0.03923
1154.50 0.03922
1154.60 0.0392
1154.70 0.03919
1154.80 0.03918
1154.90 0.03916
1155.00 0.03915
1155.10 0.03914
1155.20 0.03912
1155.30 0.03911
1155.40 0.0391
1155.50 0.03908
1155.60 0.03907
1155.70 0.03906
1155.80 0.03904
1155.90 0.03903
1156.00 0.03902
1156.10 0.039
1156.20 0.03899
1156.30 0.03898
1156.40 0.03896
1156.50 0.03895
1156.60 0.03894
1156.70 0.03892
1156.80 0.03891
1156.90 0.0389
1157.00 0.03888
1157.10 0.03887
1157.20 0.03886
1157.30 0.03885
1157.40 0.03883
1157.50 0.03882
1157.60 0.03881
1157.70 0.03879
1157.80 0.03878
1157.90 0.03877
1158.00 0.03875
1158.10 0.03874
1158.20 0.03873
1158.30 0.03872
1158.40 0.0387
1158.50 0.03869
1158.60 0.03868
1158.70 0.03866
1158.80 0.03865
1158.90 0.03864
1159.00 0.03862
1159.10 0.03861
1159.20 0.0386
1159.30 0.03858
1159.40 0.03857
1159.50 0.03856
1159.60 0.03855
1159.70 0.03853
1159.80 0.03852
1159.90 0.03851
1160.00 0.03849
1160.10 0.03848
1160.20 0.03847
1160.30 0.03846
1160.40 0.03844
1160.50 0.03843
1160.60 0.03842
1160.70 0.0384
1160.80 0.03839
1160.90 0.03838
1161.00 0.03836
1161.10 0.03835
1161.20 0.03834
1161.30 0.03833
1161.40 0.03831
1161.50 0.0383
1161.60 0.03829
1161.70 0.03827
1161.80 0.03826
1161.90 0.03825
1162.00 0.03824
1162.10 0.03822
1162.20 0.03821
1162.30 0.0382
1162.40 0.03818
1162.50 0.03817
1162.60 0.03816
1162.70 0.03815
1162.80 0.03813
1162.90 0.03812
1163.00 0.03811
1163.10 0.03809
1163.20 0.03808
1163.30 0.03807
1163.40 0.03806
1163.50 0.03804
1163.60 0.03803
1163.70 0.03802
1163.80 0.03801
1163.90 0.03799
1164.00 0.03798
1164.10 0.03797
1164.20 0.03795
1164.30 0.03794
1164.40 0.03793
1164.50 0.03792
1164.60 0.0379
1164.70 0.03789
1164.80 0.03788
1164.90 0.03787
1165.00 0.03785
1165.10 0.03784
1165.20 0.03783
1165.30 0.03781
1165.40 0.0378
1165.50 0.03779
1165.60 0.03778
1165.70 0.03776
1165.80 0.03775
1165.90 0.03774
1166.00 0.03773
1166.10 0.03771
1166.20 0.0377
1166.30 0.03769
1166.40 0.03767
1166.50 0.03766
1166.60 0.03765
1166.70 0.03764
1166.80 0.03762
1166.90 0.03761
1167.00 0.0376
1167.10 0.03759
1167.20 0.03757
1167.30 0.03756
1167.40 0.03755
1167.50 0.03754
1167.60 0.03752
1167.70 0.03751
1167.80 0.0375
1167.90 0.03749
1168.00 0.03747
1168.10 0.03746
1168.20 0.03745
1168.30 0.03744
1168.40 0.03742
1168.50 0.03741
1168.60 0.0374
1168.70 0.03739
1168.80 0.03737
1168.90 0.03736
1169.00 0.03735
1169.10 0.03734
1169.20 0.03732
1169.30 0.03731
1169.40 0.0373
1169.50 0.03729
1169.60 0.03727
1169.70 0.03726
1169.80 0.03725
1169.90 0.03724
1170.00 0.03722
1170.10 0.03721
1170.20 0.0372
1170.30 0.03719
1170.40 0.03717
1170.50 0.03716
1170.60 0.03715
1170.70 0.03714
1170.80 0.03712
1170.90 0.03711
1171.00 0.0371
1171.10 0.03709
1171.20 0.03707
1171.30 0.03706
1171.40 0.03705
1171.50 0.03704
1171.60 0.03703
1171.70 0.03701
1171.80 0.037
1171.90 0.03699
1172.00 0.03698
1172.10 0.03696
1172.20 0.03695
1172.30 0.03694
1172.40 0.03693
1172.50 0.03691
1172.60 0.0369
1172.70 0.03689
1172.80 0.03688
1172.90 0.03687
1173.00 0.03685
1173.10 0.03684
1173.20 0.03683
1173.30 0.03682
1173.40 0.0368
1173.50 0.03679
1173.60 0.03678
1173.70 0.03677
1173.80 0.03675
1173.90 0.03674
1174.00 0.03673
1174.10 0.03672
1174.20 0.03671
1174.30 0.03669
1174.40 0.03668
1174.50 0.03667
1174.60 0.03666
1174.70 0.03664
1174.80 0.03663
1174.90 0.03662
1175.00 0.03661
1175.10 0.0366
1175.20 0.03658
1175.30 0.03657
1175.40 0.03656
1175.50 0.03655
1175.60 0.03654
1175.70 0.03652
1175.80 0.03651
1175.90 0.0365
1176.00 0.03649
1176.10 0.03647
1176.20 0.03646
1176.30 0.03645
1176.40 0.03644
1176.50 0.03643
1176.60 0.03641
1176.70 0.0364
1176.80 0.03639
1176.90 0.03638
1177.00 0.03637
1177.10 0.03635
1177.20 0.03634
1177.30 0.03633
1177.40 0.03632
1177.50 0.03631
1177.60 0.03629
1177.70 0.03628
1177.80 0.03627
1177.90 0.03626
1178.00 0.03624
1178.10 0.03623
1178.20 0.03622
1178.30 0.03621
1178.40 0.0362
1178.50 0.03618
1178.60 0.03617
1178.70 0.03616
1178.80 0.03615
1178.90 0.03614
1179.00 0.03612
1179.10 0.03611
1179.20 0.0361
1179.30 0.03609
1179.40 0.03608
1179.50 0.03607
1179.60 0.03605
1179.70 0.03604
1179.80 0.03603
1179.90 0.03602
1180.00 0.03601
1180.10 0.03599
1180.20 0.03598
1180.30 0.03597
1180.40 0.03596
1180.50 0.03595
1180.60 0.03593
1180.70 0.03592
1180.80 0.03591
1180.90 0.0359
1181.00 0.03589
1181.10 0.03587
1181.20 0.03586
1181.30 0.03585
1181.40 0.03584
1181.50 0.03583
1181.60 0.03581
1181.70 0.0358
1181.80 0.03579
1181.90 0.03578
1182.00 0.03577
1182.10 0.03576
1182.20 0.03574
1182.30 0.03573
1182.40 0.03572
1182.50 0.03571
1182.60 0.0357
1182.70 0.03568
1182.80 0.03567
1182.90 0.03566
1183.00 0.03565
1183.10 0.03564
1183.20 0.03563
1183.30 0.03561
1183.40 0.0356
1183.50 0.03559
1183.60 0.03558
1183.70 0.03557
1183.80 0.03556
1183.90 0.03554
1184.00 0.03553
1184.10 0.03552
1184.20 0.03551
1184.30 0.0355
1184.40 0.03548
1184.50 0.03547
1184.60 0.03546
1184.70 0.03545
1184.80 0.03544
1184.90 0.03543
1185.00 0.03541
1185.10 0.0354
1185.20 0.03539
1185.30 0.03538
1185.40 0.03537
1185.50 0.03536
1185.60 0.03534
1185.70 0.03533
1185.80 0.03532
1185.90 0.03531
1186.00 0.0353
1186.10 0.03529
1186.20 0.03527
1186.30 0.03526
1186.40 0.03525
1186.50 0.03524
1186.60 0.03523
1186.70 0.03522
1186.80 0.0352
1186.90 0.03519
1187.00 0.03518
1187.10 0.03517
1187.20 0.03516
1187.30 0.03515
1187.40 0.03513
1187.50 0.03512
1187.60 0.03511
1187.70 0.0351
1187.80 0.03509
1187.90 0.03508
1188.00 0.03507
1188.10 0.03505
1188.20 0.03504
1188.30 0.03503
1188.40 0.03502
1188.50 0.03501
1188.60 0.035
1188.70 0.03499
1188.80 0.03497
1188.90 0.03496
1189.00 0.03495
1189.10 0.03494
1189.20 0.03493
1189.30 0.03492
1189.40 0.0349
1189.50 0.03489
1189.60 0.03488
1189.70 0.03487
1189.80 0.03486
1189.90 0.03485
1190.00 0.03484
1190.10 0.03482
1190.20 0.03481
1190.30 0.0348
1190.40 0.03479
1190.50 0.03478
1190.60 0.03477
1190.70 0.03476
1190.80 0.03474
1190.90 0.03473
1191.00 0.03472
1191.10 0.03471
1191.20 0.0347
1191.30 0.03469
1191.40 0.03468
1191.50 0.03466
1191.60 0.03465
1191.70 0.03464
1191.80 0.03463
1191.90 0.03462
1192.00 0.03461
1192.10 0.0346
1192.20 0.03458
1192.30 0.03457
1192.40 0.03456
1192.50 0.03455
1192.60 0.03454
1192.70 0.03453
1192.80 0.03452
1192.90 0.03451
1193.00 0.03449
1193.10 0.03448
1193.20 0.03447
1193.30 0.03446
1193.40 0.03445
1193.50 0.03444
1193.60 0.03443
1193.70 0.03441
1193.80 0.0344
1193.90 0.03439
1194.00 0.03438
1194.10 0.03437
1194.20 0.03436
1194.30 0.03435
1194.40 0.03434
1194.50 0.03432
1194.60 0.03431
1194.70 0.0343
1194.80 0.03429
1194.90 0.03428
1195.00 0.03427
1195.10 0.03426
1195.20 0.03425
1195.30 0.03423
1195.40 0.03422
1195.50 0.03421
1195.60 0.0342
1195.70 0.03419
1195.80 0.03418
1195.90 0.03417
1196.00 0.03416
1196.10 0.03415
1196.20 0.03413
1196.30 0.03412
1196.40 0.03411
1196.50 0.0341
1196.60 0.03409
1196.70 0.03408
1196.80 0.03407
1196.90 0.03406
1197.00 0.03404
1197.10 0.03403
1197.20 0.03402
1197.30 0.03401
1197.40 0.034
1197.50 0.03399
1197.60 0.03398
1197.70 0.03397
1197.80 0.03396
1197.90 0.03394
1198.00 0.03393
1198.10 0.03392
1198.20 0.03391
1198.30 0.0339
1198.40 0.03389
1198.50 0.03388
1198.60 0.03387
1198.70 0.03386
1198.80 0.03385
1198.90 0.03383
1199.00 0.03382
1199.10 0.03381
1199.20 0.0338
1199.30 0.03379
1199.40 0.03378
1199.50 0.03377
1199.60 0.03376
1199.70 0.03375
1199.80 0.03374
1199.90 0.03372
1200.00 0
