# Version 2.1 - nm, norm@500 to 1, cut digits, bergeron_2250_75.dat_2250
# Wavelength(nm)  Flambda(ergs/cm^s/s/nm)
300.00 0.03961
300.10 0.03974
300.20 0.03988
300.30 0.04002
300.40 0.04015
300.50 0.04029
300.60 0.04043
300.70 0.04057
300.80 0.04071
300.90 0.04084
301.00 0.04098
301.10 0.04112
301.20 0.04125
301.30 0.04139
301.40 0.04153
301.50 0.04166
301.60 0.0418
301.70 0.04194
301.80 0.04207
301.90 0.04221
302.00 0.04235
302.10 0.04249
302.20 0.04263
302.30 0.04278
302.40 0.04292
302.50 0.04307
302.60 0.04321
302.70 0.04336
302.80 0.0435
302.90 0.04365
303.00 0.04379
303.10 0.04393
303.20 0.04408
303.30 0.04422
303.40 0.04436
303.50 0.04451
303.60 0.04465
303.70 0.04479
303.80 0.04493
303.90 0.04508
304.00 0.04522
304.10 0.04537
304.20 0.04552
304.30 0.04567
304.40 0.04583
304.50 0.04598
304.60 0.04613
304.70 0.04628
304.80 0.04643
304.90 0.04658
305.00 0.04673
305.10 0.04688
305.20 0.04703
305.30 0.04718
305.40 0.04733
305.50 0.04748
305.60 0.04763
305.70 0.04778
305.80 0.04793
305.90 0.04808
306.00 0.04823
306.10 0.04839
306.20 0.04855
306.30 0.04871
306.40 0.04886
306.50 0.04902
306.60 0.04918
306.70 0.04934
306.80 0.0495
306.90 0.04966
307.00 0.04981
307.10 0.04997
307.20 0.05013
307.30 0.05028
307.40 0.05044
307.50 0.0506
307.60 0.05075
307.70 0.05091
307.80 0.05107
307.90 0.05122
308.00 0.05138
308.10 0.05155
308.20 0.05171
308.30 0.05188
308.40 0.05204
308.50 0.05221
308.60 0.05237
308.70 0.05254
308.80 0.0527
308.90 0.05287
309.00 0.05303
309.10 0.0532
309.20 0.05336
309.30 0.05352
309.40 0.05369
309.50 0.05385
309.60 0.05402
309.70 0.05418
309.80 0.05434
309.90 0.0545
310.00 0.05467
310.10 0.05484
310.20 0.05501
310.30 0.05519
310.40 0.05536
310.50 0.05554
310.60 0.05571
310.70 0.05588
310.80 0.05606
310.90 0.05623
311.00 0.0564
311.10 0.05657
311.20 0.05674
311.30 0.05692
311.40 0.05709
311.50 0.05726
311.60 0.05743
311.70 0.0576
311.80 0.05777
311.90 0.05794
312.00 0.05811
312.10 0.05828
312.20 0.05846
312.30 0.05863
312.40 0.05881
312.50 0.05899
312.60 0.05917
312.70 0.05935
312.80 0.05953
312.90 0.05971
313.00 0.05989
313.10 0.06007
313.20 0.06025
313.30 0.06043
313.40 0.06061
313.50 0.06079
313.60 0.06097
313.70 0.06114
313.80 0.06132
313.90 0.0615
314.00 0.06169
314.10 0.06187
314.20 0.06205
314.30 0.06224
314.40 0.06243
314.50 0.06262
314.60 0.06281
314.70 0.06299
314.80 0.06318
314.90 0.06337
315.00 0.06355
315.10 0.06374
315.20 0.06393
315.30 0.06411
315.40 0.0643
315.50 0.06448
315.60 0.06467
315.70 0.06485
315.80 0.06504
315.90 0.06522
316.00 0.06541
316.10 0.0656
316.20 0.0658
316.30 0.06599
316.40 0.06619
316.50 0.06638
316.60 0.06658
316.70 0.06677
316.80 0.06697
316.90 0.06716
317.00 0.06736
317.10 0.06755
317.20 0.06774
317.30 0.06794
317.40 0.06813
317.50 0.06832
317.60 0.06851
317.70 0.06871
317.80 0.0689
317.90 0.06909
318.00 0.06929
318.10 0.06949
318.20 0.06969
318.30 0.06989
318.40 0.0701
318.50 0.0703
318.60 0.0705
318.70 0.0707
318.80 0.07091
318.90 0.07111
319.00 0.07131
319.10 0.07151
319.20 0.07171
319.30 0.07191
319.40 0.07211
319.50 0.07231
319.60 0.07251
319.70 0.07271
319.80 0.07291
319.90 0.07311
320.00 0.07332
320.10 0.07353
320.20 0.07374
320.30 0.07395
320.40 0.07416
320.50 0.07437
320.60 0.07458
320.70 0.07479
320.80 0.075
320.90 0.07521
321.00 0.07542
321.10 0.07563
321.20 0.07584
321.30 0.07604
321.40 0.07625
321.50 0.07646
321.60 0.07667
321.70 0.07688
321.80 0.07708
321.90 0.07729
322.00 0.0775
322.10 0.07772
322.20 0.07794
322.30 0.07815
322.40 0.07837
322.50 0.07859
322.60 0.07881
322.70 0.07903
322.80 0.07925
322.90 0.07946
323.00 0.07968
323.10 0.0799
323.20 0.08011
323.30 0.08033
323.40 0.08055
323.50 0.08076
323.60 0.08098
323.70 0.08119
323.80 0.08141
323.90 0.08163
324.00 0.08184
324.10 0.08207
324.20 0.08229
324.30 0.08252
324.40 0.08275
324.50 0.08297
324.60 0.0832
324.70 0.08343
324.80 0.08365
324.90 0.08388
325.00 0.0841
325.10 0.08433
325.20 0.08455
325.30 0.08478
325.40 0.085
325.50 0.08522
325.60 0.08545
325.70 0.08567
325.80 0.08589
325.90 0.08612
326.00 0.08635
326.10 0.08657
326.20 0.08681
326.30 0.08704
326.40 0.08728
326.50 0.08751
326.60 0.08775
326.70 0.08798
326.80 0.08821
326.90 0.08845
327.00 0.08868
327.10 0.08891
327.20 0.08915
327.30 0.08938
327.40 0.08961
327.50 0.08984
327.60 0.09007
327.70 0.0903
327.80 0.09053
327.90 0.09077
328.00 0.09101
328.10 0.09124
328.20 0.09148
328.30 0.09173
328.40 0.09197
328.50 0.09221
328.60 0.09245
328.70 0.0927
328.80 0.09294
328.90 0.09318
329.00 0.09342
329.10 0.09366
329.20 0.0939
329.30 0.09414
329.40 0.09438
329.50 0.09462
329.60 0.09486
329.70 0.0951
329.80 0.09534
329.90 0.09558
330.00 0.09582
330.10 0.09607
330.20 0.09632
330.30 0.09657
330.40 0.09682
330.50 0.09707
330.60 0.09733
330.70 0.09758
330.80 0.09783
330.90 0.09807
331.00 0.09832
331.10 0.09857
331.20 0.09882
331.30 0.09907
331.40 0.09932
331.50 0.09957
331.60 0.09981
331.70 0.1001
331.80 0.1003
331.90 0.1006
332.00 0.1008
332.10 0.1011
332.20 0.1013
332.30 0.1016
332.40 0.1018
332.50 0.1021
332.60 0.1024
332.70 0.1026
332.80 0.1029
332.90 0.1031
333.00 0.1034
333.10 0.1036
333.20 0.1039
333.30 0.1042
333.40 0.1044
333.50 0.1047
333.60 0.1049
333.70 0.1052
333.80 0.1054
333.90 0.1057
334.00 0.1059
334.10 0.1062
334.20 0.1065
334.30 0.1068
334.40 0.107
334.50 0.1073
334.60 0.1076
334.70 0.1078
334.80 0.1081
334.90 0.1084
335.00 0.1086
335.10 0.1089
335.20 0.1092
335.30 0.1094
335.40 0.1097
335.50 0.1099
335.60 0.1102
335.70 0.1105
335.80 0.1107
335.90 0.111
336.00 0.1113
336.10 0.1115
336.20 0.1118
336.30 0.1121
336.40 0.1124
336.50 0.1126
336.60 0.1129
336.70 0.1132
336.80 0.1135
336.90 0.1137
337.00 0.114
337.10 0.1143
337.20 0.1146
337.30 0.1148
337.40 0.1151
337.50 0.1154
337.60 0.1157
337.70 0.1159
337.80 0.1162
337.90 0.1165
338.00 0.1167
338.10 0.117
338.20 0.1173
338.30 0.1176
338.40 0.1179
338.50 0.1182
338.60 0.1184
338.70 0.1187
338.80 0.119
338.90 0.1193
339.00 0.1196
339.10 0.1199
339.20 0.1201
339.30 0.1204
339.40 0.1207
339.50 0.121
339.60 0.1213
339.70 0.1215
339.80 0.1218
339.90 0.1221
340.00 0.1224
340.10 0.1227
340.20 0.123
340.30 0.1233
340.40 0.1236
340.50 0.1238
340.60 0.1241
340.70 0.1244
340.80 0.1247
340.90 0.125
341.00 0.1253
341.10 0.1256
341.20 0.1259
341.30 0.1262
341.40 0.1265
341.50 0.1268
341.60 0.127
341.70 0.1273
341.80 0.1276
341.90 0.1279
342.00 0.1282
342.10 0.1285
342.20 0.1288
342.30 0.1291
342.40 0.1294
342.50 0.1297
342.60 0.13
342.70 0.1303
342.80 0.1306
342.90 0.1309
343.00 0.1312
343.10 0.1315
343.20 0.1318
343.30 0.1321
343.40 0.1324
343.50 0.1327
343.60 0.133
343.70 0.1333
343.80 0.1336
343.90 0.1339
344.00 0.1342
344.10 0.1345
344.20 0.1348
344.30 0.1351
344.40 0.1354
344.50 0.1357
344.60 0.136
344.70 0.1363
344.80 0.1367
344.90 0.137
345.00 0.1373
345.10 0.1376
345.20 0.1379
345.30 0.1382
345.40 0.1385
345.50 0.1388
345.60 0.1391
345.70 0.1394
345.80 0.1397
345.90 0.14
346.00 0.1403
346.10 0.1406
346.20 0.141
346.30 0.1413
346.40 0.1416
346.50 0.1419
346.60 0.1422
346.70 0.1426
346.80 0.1429
346.90 0.1432
347.00 0.1435
347.10 0.1438
347.20 0.1441
347.30 0.1444
347.40 0.1448
347.50 0.1451
347.60 0.1454
347.70 0.1457
347.80 0.146
347.90 0.1463
348.00 0.1466
348.10 0.147
348.20 0.1473
348.30 0.1476
348.40 0.148
348.50 0.1483
348.60 0.1486
348.70 0.1489
348.80 0.1493
348.90 0.1496
349.00 0.1499
349.10 0.1502
349.20 0.1506
349.30 0.1509
349.40 0.1512
349.50 0.1515
349.60 0.1518
349.70 0.1522
349.80 0.1525
349.90 0.1528
350.00 0.1531
350.10 0.1535
350.20 0.1538
350.30 0.1541
350.40 0.1545
350.50 0.1548
350.60 0.1551
350.70 0.1555
350.80 0.1558
350.90 0.1562
351.00 0.1565
351.10 0.1568
351.20 0.1571
351.30 0.1575
351.40 0.1578
351.50 0.1581
351.60 0.1585
351.70 0.1588
351.80 0.1591
351.90 0.1595
352.00 0.1598
352.10 0.1601
352.20 0.1605
352.30 0.1608
352.40 0.1612
352.50 0.1615
352.60 0.1619
352.70 0.1622
352.80 0.1625
352.90 0.1629
353.00 0.1632
353.10 0.1636
353.20 0.1639
353.30 0.1642
353.40 0.1646
353.50 0.1649
353.60 0.1653
353.70 0.1656
353.80 0.1659
353.90 0.1663
354.00 0.1666
354.10 0.167
354.20 0.1673
354.30 0.1677
354.40 0.168
354.50 0.1684
354.60 0.1687
354.70 0.1691
354.80 0.1694
354.90 0.1698
355.00 0.1701
355.10 0.1705
355.20 0.1708
355.30 0.1712
355.40 0.1715
355.50 0.1719
355.60 0.1722
355.70 0.1726
355.80 0.1729
355.90 0.1733
356.00 0.1736
356.10 0.174
356.20 0.1743
356.30 0.1747
356.40 0.1751
356.50 0.1754
356.60 0.1758
356.70 0.1761
356.80 0.1765
356.90 0.1769
357.00 0.1772
357.10 0.1776
357.20 0.1779
357.30 0.1783
357.40 0.1786
357.50 0.179
357.60 0.1794
357.70 0.1797
357.80 0.1801
357.90 0.1804
358.00 0.1808
358.10 0.1811
358.20 0.1815
358.30 0.1819
358.40 0.1823
358.50 0.1826
358.60 0.183
358.70 0.1834
358.80 0.1837
358.90 0.1841
359.00 0.1845
359.10 0.1848
359.20 0.1852
359.30 0.1856
359.40 0.1859
359.50 0.1863
359.60 0.1867
359.70 0.187
359.80 0.1874
359.90 0.1877
360.00 0.1881
360.10 0.1885
360.20 0.1889
360.30 0.1892
360.40 0.1896
360.50 0.19
360.60 0.1904
360.70 0.1907
360.80 0.1911
360.90 0.1915
361.00 0.1919
361.10 0.1922
361.20 0.1926
361.30 0.193
361.40 0.1934
361.50 0.1937
361.60 0.1941
361.70 0.1945
361.80 0.1949
361.90 0.1952
362.00 0.1956
362.10 0.196
362.20 0.1964
362.30 0.1967
362.40 0.1971
362.50 0.1975
362.60 0.1979
362.70 0.1983
362.80 0.1987
362.90 0.199
363.00 0.1994
363.10 0.1998
363.20 0.2002
363.30 0.2006
363.40 0.201
363.50 0.2014
363.60 0.2017
363.70 0.2021
363.80 0.2025
363.90 0.2029
364.00 0.2033
364.10 0.2037
364.20 0.204
364.30 0.2044
364.40 0.2048
364.50 0.2052
364.60 0.2056
364.70 0.206
364.80 0.2064
364.90 0.2068
365.00 0.2072
365.10 0.2076
365.20 0.208
365.30 0.2084
365.40 0.2087
365.50 0.2091
365.60 0.2095
365.70 0.2099
365.80 0.2103
365.90 0.2107
366.00 0.2111
366.10 0.2115
366.20 0.2119
366.30 0.2123
366.40 0.2127
366.50 0.2131
366.60 0.2135
366.70 0.2139
366.80 0.2143
366.90 0.2147
367.00 0.2151
367.10 0.2155
367.20 0.2159
367.30 0.2163
367.40 0.2167
367.50 0.2171
367.60 0.2175
367.70 0.2179
367.80 0.2183
367.90 0.2187
368.00 0.2191
368.10 0.2195
368.20 0.2199
368.30 0.2203
368.40 0.2207
368.50 0.2211
368.60 0.2216
368.70 0.222
368.80 0.2224
368.90 0.2228
369.00 0.2232
369.10 0.2236
369.20 0.224
369.30 0.2244
369.40 0.2248
369.50 0.2252
369.60 0.2256
369.70 0.226
369.80 0.2264
369.90 0.2268
370.00 0.2272
370.10 0.2277
370.20 0.2281
370.30 0.2285
370.40 0.2289
370.50 0.2293
370.60 0.2298
370.70 0.2302
370.80 0.2306
370.90 0.231
371.00 0.2314
371.10 0.2318
371.20 0.2323
371.30 0.2327
371.40 0.2331
371.50 0.2335
371.60 0.2339
371.70 0.2343
371.80 0.2347
371.90 0.2352
372.00 0.2356
372.10 0.236
372.20 0.2364
372.30 0.2369
372.40 0.2373
372.50 0.2377
372.60 0.2381
372.70 0.2386
372.80 0.239
372.90 0.2394
373.00 0.2398
373.10 0.2403
373.20 0.2407
373.30 0.2411
373.40 0.2415
373.50 0.242
373.60 0.2424
373.70 0.2428
373.80 0.2432
373.90 0.2436
374.00 0.2441
374.10 0.2445
374.20 0.2449
374.30 0.2454
374.40 0.2458
374.50 0.2462
374.60 0.2467
374.70 0.2471
374.80 0.2475
374.90 0.248
375.00 0.2484
375.10 0.2488
375.20 0.2493
375.30 0.2497
375.40 0.2501
375.50 0.2506
375.60 0.251
375.70 0.2514
375.80 0.2518
375.90 0.2523
376.00 0.2527
376.10 0.2531
376.20 0.2536
376.30 0.254
376.40 0.2545
376.50 0.2549
376.60 0.2553
376.70 0.2558
376.80 0.2562
376.90 0.2566
377.00 0.2571
377.10 0.2575
377.20 0.258
377.30 0.2584
377.40 0.2589
377.50 0.2593
377.60 0.2597
377.70 0.2602
377.80 0.2606
377.90 0.2611
378.00 0.2615
378.10 0.2619
378.20 0.2624
378.30 0.2628
378.40 0.2633
378.50 0.2637
378.60 0.2642
378.70 0.2646
378.80 0.2651
378.90 0.2655
379.00 0.266
379.10 0.2664
379.20 0.2669
379.30 0.2673
379.40 0.2678
379.50 0.2682
379.60 0.2687
379.70 0.2691
379.80 0.2696
379.90 0.27
380.00 0.2705
380.10 0.2709
380.20 0.2714
380.30 0.2718
380.40 0.2723
380.50 0.2727
380.60 0.2732
380.70 0.2736
380.80 0.2741
380.90 0.2745
381.00 0.275
381.10 0.2755
381.20 0.2759
381.30 0.2764
381.40 0.2768
381.50 0.2773
381.60 0.2777
381.70 0.2782
381.80 0.2787
381.90 0.2791
382.00 0.2796
382.10 0.28
382.20 0.2805
382.30 0.281
382.40 0.2814
382.50 0.2819
382.60 0.2823
382.70 0.2828
382.80 0.2833
382.90 0.2837
383.00 0.2842
383.10 0.2847
383.20 0.2851
383.30 0.2856
383.40 0.286
383.50 0.2865
383.60 0.287
383.70 0.2874
383.80 0.2879
383.90 0.2884
384.00 0.2888
384.10 0.2893
384.20 0.2898
384.30 0.2902
384.40 0.2907
384.50 0.2912
384.60 0.2917
384.70 0.2921
384.80 0.2926
384.90 0.2931
385.00 0.2935
385.10 0.294
385.20 0.2945
385.30 0.2949
385.40 0.2954
385.50 0.2959
385.60 0.2964
385.70 0.2968
385.80 0.2973
385.90 0.2978
386.00 0.2983
386.10 0.2987
386.20 0.2992
386.30 0.2997
386.40 0.3002
386.50 0.3006
386.60 0.3011
386.70 0.3016
386.80 0.3021
386.90 0.3025
387.00 0.303
387.10 0.3035
387.20 0.304
387.30 0.3045
387.40 0.3049
387.50 0.3054
387.60 0.3059
387.70 0.3064
387.80 0.3069
387.90 0.3073
388.00 0.3078
388.10 0.3083
388.20 0.3088
388.30 0.3093
388.40 0.3098
388.50 0.3102
388.60 0.3107
388.70 0.3112
388.80 0.3117
388.90 0.3122
389.00 0.3127
389.10 0.3132
389.20 0.3136
389.30 0.3141
389.40 0.3146
389.50 0.3151
389.60 0.3156
389.70 0.3161
389.80 0.3166
389.90 0.3171
390.00 0.3175
390.10 0.318
390.20 0.3185
390.30 0.319
390.40 0.3195
390.50 0.32
390.60 0.3205
390.70 0.321
390.80 0.3215
390.90 0.322
391.00 0.3225
391.10 0.323
391.20 0.3234
391.30 0.3239
391.40 0.3244
391.50 0.3249
391.60 0.3254
391.70 0.3259
391.80 0.3264
391.90 0.3269
392.00 0.3274
392.10 0.3279
392.20 0.3284
392.30 0.3289
392.40 0.3294
392.50 0.3299
392.60 0.3304
392.70 0.3309
392.80 0.3314
392.90 0.3319
393.00 0.3324
393.10 0.3329
393.20 0.3334
393.30 0.3339
393.40 0.3344
393.50 0.3349
393.60 0.3354
393.70 0.3359
393.80 0.3364
393.90 0.3369
394.00 0.3374
394.10 0.3379
394.20 0.3384
394.30 0.3389
394.40 0.3394
394.50 0.3399
394.60 0.3404
394.70 0.3409
394.80 0.3415
394.90 0.342
395.00 0.3425
395.10 0.343
395.20 0.3435
395.30 0.344
395.40 0.3445
395.50 0.345
395.60 0.3455
395.70 0.346
395.80 0.3465
395.90 0.3471
396.00 0.3476
396.10 0.3481
396.20 0.3486
396.30 0.3491
396.40 0.3496
396.50 0.3501
396.60 0.3506
396.70 0.3511
396.80 0.3517
396.90 0.3522
397.00 0.3527
397.10 0.3532
397.20 0.3537
397.30 0.3542
397.40 0.3548
397.50 0.3553
397.60 0.3558
397.70 0.3563
397.80 0.3568
397.90 0.3573
398.00 0.3579
398.10 0.3584
398.20 0.3589
398.30 0.3594
398.40 0.3599
398.50 0.3604
398.60 0.361
398.70 0.3615
398.80 0.362
398.90 0.3625
399.00 0.363
399.10 0.3636
399.20 0.3641
399.30 0.3646
399.40 0.3651
399.50 0.3657
399.60 0.3662
399.70 0.3667
399.80 0.3672
399.90 0.3678
400.00 0.3683
400.10 0.3688
400.20 0.3693
400.30 0.3698
400.40 0.3704
400.50 0.3709
400.60 0.3714
400.70 0.372
400.80 0.3725
400.90 0.373
401.00 0.3735
401.10 0.3741
401.20 0.3746
401.30 0.3751
401.40 0.3757
401.50 0.3762
401.60 0.3767
401.70 0.3772
401.80 0.3778
401.90 0.3783
402.00 0.3788
402.10 0.3794
402.20 0.3799
402.30 0.3804
402.40 0.381
402.50 0.3815
402.60 0.382
402.70 0.3826
402.80 0.3831
402.90 0.3836
403.00 0.3842
403.10 0.3847
403.20 0.3852
403.30 0.3858
403.40 0.3863
403.50 0.3868
403.60 0.3874
403.70 0.3879
403.80 0.3884
403.90 0.389
404.00 0.3895
404.10 0.3901
404.20 0.3906
404.30 0.3911
404.40 0.3917
404.50 0.3922
404.60 0.3928
404.70 0.3933
404.80 0.3938
404.90 0.3944
405.00 0.3949
405.10 0.3955
405.20 0.396
405.30 0.3965
405.40 0.3971
405.50 0.3976
405.60 0.3982
405.70 0.3987
405.80 0.3993
405.90 0.3998
406.00 0.4003
406.10 0.4009
406.20 0.4014
406.30 0.402
406.40 0.4025
406.50 0.4031
406.60 0.4036
406.70 0.4042
406.80 0.4047
406.90 0.4052
407.00 0.4058
407.10 0.4063
407.20 0.4069
407.30 0.4074
407.40 0.408
407.50 0.4085
407.60 0.4091
407.70 0.4096
407.80 0.4102
407.90 0.4107
408.00 0.4113
408.10 0.4118
408.20 0.4124
408.30 0.4129
408.40 0.4135
408.50 0.414
408.60 0.4146
408.70 0.4151
408.80 0.4157
408.90 0.4163
409.00 0.4168
409.10 0.4174
409.20 0.4179
409.30 0.4185
409.40 0.419
409.50 0.4196
409.60 0.4201
409.70 0.4207
409.80 0.4212
409.90 0.4218
410.00 0.4224
410.10 0.4229
410.20 0.4235
410.30 0.424
410.40 0.4246
410.50 0.4251
410.60 0.4257
410.70 0.4263
410.80 0.4268
410.90 0.4274
411.00 0.4279
411.10 0.4285
411.20 0.4291
411.30 0.4296
411.40 0.4302
411.50 0.4307
411.60 0.4313
411.70 0.4319
411.80 0.4324
411.90 0.433
412.00 0.4335
412.10 0.4341
412.20 0.4347
412.30 0.4352
412.40 0.4358
412.50 0.4364
412.60 0.4369
412.70 0.4375
412.80 0.4381
412.90 0.4386
413.00 0.4392
413.10 0.4398
413.20 0.4403
413.30 0.4409
413.40 0.4415
413.50 0.442
413.60 0.4426
413.70 0.4432
413.80 0.4437
413.90 0.4443
414.00 0.4449
414.10 0.4454
414.20 0.446
414.30 0.4466
414.40 0.4471
414.50 0.4477
414.60 0.4483
414.70 0.4488
414.80 0.4494
414.90 0.45
415.00 0.4506
415.10 0.4511
415.20 0.4517
415.30 0.4523
415.40 0.4528
415.50 0.4534
415.60 0.454
415.70 0.4546
415.80 0.4551
415.90 0.4557
416.00 0.4563
416.10 0.4568
416.20 0.4574
416.30 0.458
416.40 0.4586
416.50 0.4592
416.60 0.4597
416.70 0.4603
416.80 0.4609
416.90 0.4615
417.00 0.462
417.10 0.4626
417.20 0.4632
417.30 0.4638
417.40 0.4643
417.50 0.4649
417.60 0.4655
417.70 0.4661
417.80 0.4667
417.90 0.4672
418.00 0.4678
418.10 0.4684
418.20 0.469
418.30 0.4696
418.40 0.4701
418.50 0.4707
418.60 0.4713
418.70 0.4719
418.80 0.4725
418.90 0.473
419.00 0.4736
419.10 0.4742
419.20 0.4748
419.30 0.4754
419.40 0.476
419.50 0.4765
419.60 0.4771
419.70 0.4777
419.80 0.4783
419.90 0.4789
420.00 0.4795
420.10 0.48
420.20 0.4806
420.30 0.4812
420.40 0.4818
420.50 0.4824
420.60 0.483
420.70 0.4836
420.80 0.4841
420.90 0.4847
421.00 0.4853
421.10 0.4859
421.20 0.4865
421.30 0.4871
421.40 0.4877
421.50 0.4883
421.60 0.4889
421.70 0.4894
421.80 0.49
421.90 0.4906
422.00 0.4912
422.10 0.4918
422.20 0.4924
422.30 0.493
422.40 0.4936
422.50 0.4942
422.60 0.4948
422.70 0.4954
422.80 0.4959
422.90 0.4965
423.00 0.4971
423.10 0.4977
423.20 0.4983
423.30 0.4989
423.40 0.4995
423.50 0.5001
423.60 0.5007
423.70 0.5013
423.80 0.5019
423.90 0.5025
424.00 0.5031
424.10 0.5037
424.20 0.5043
424.30 0.5049
424.40 0.5055
424.50 0.5061
424.60 0.5067
424.70 0.5072
424.80 0.5078
424.90 0.5084
425.00 0.509
425.10 0.5096
425.20 0.5102
425.30 0.5108
425.40 0.5114
425.50 0.512
425.60 0.5126
425.70 0.5132
425.80 0.5138
425.90 0.5144
426.00 0.515
426.10 0.5156
426.20 0.5162
426.30 0.5168
426.40 0.5174
426.50 0.518
426.60 0.5186
426.70 0.5192
426.80 0.5198
426.90 0.5204
427.00 0.521
427.10 0.5216
427.20 0.5223
427.30 0.5229
427.40 0.5235
427.50 0.5241
427.60 0.5247
427.70 0.5253
427.80 0.5259
427.90 0.5265
428.00 0.5271
428.10 0.5277
428.20 0.5283
428.30 0.5289
428.40 0.5295
428.50 0.5301
428.60 0.5307
428.70 0.5313
428.80 0.5319
428.90 0.5325
429.00 0.5332
429.10 0.5338
429.20 0.5344
429.30 0.535
429.40 0.5356
429.50 0.5362
429.60 0.5368
429.70 0.5374
429.80 0.538
429.90 0.5386
430.00 0.5392
430.10 0.5399
430.20 0.5405
430.30 0.5411
430.40 0.5417
430.50 0.5423
430.60 0.5429
430.70 0.5435
430.80 0.5441
430.90 0.5447
431.00 0.5454
431.10 0.546
431.20 0.5466
431.30 0.5472
431.40 0.5478
431.50 0.5484
431.60 0.549
431.70 0.5496
431.80 0.5503
431.90 0.5509
432.00 0.5515
432.10 0.5521
432.20 0.5527
432.30 0.5533
432.40 0.5539
432.50 0.5546
432.60 0.5552
432.70 0.5558
432.80 0.5564
432.90 0.557
433.00 0.5576
433.10 0.5583
433.20 0.5589
433.30 0.5595
433.40 0.5601
433.50 0.5607
433.60 0.5613
433.70 0.562
433.80 0.5626
433.90 0.5632
434.00 0.5638
434.10 0.5644
434.20 0.5651
434.30 0.5657
434.40 0.5663
434.50 0.5669
434.60 0.5675
434.70 0.5682
434.80 0.5688
434.90 0.5694
435.00 0.57
435.10 0.5706
435.20 0.5713
435.30 0.5719
435.40 0.5725
435.50 0.5731
435.60 0.5737
435.70 0.5744
435.80 0.575
435.90 0.5756
436.00 0.5762
436.10 0.5769
436.20 0.5775
436.30 0.5781
436.40 0.5787
436.50 0.5794
436.60 0.58
436.70 0.5806
436.80 0.5812
436.90 0.5818
437.00 0.5825
437.10 0.5831
437.20 0.5837
437.30 0.5844
437.40 0.585
437.50 0.5856
437.60 0.5862
437.70 0.5869
437.80 0.5875
437.90 0.5881
438.00 0.5887
438.10 0.5894
438.20 0.59
438.30 0.5906
438.40 0.5912
438.50 0.5919
438.60 0.5925
438.70 0.5931
438.80 0.5938
438.90 0.5944
439.00 0.595
439.10 0.5956
439.20 0.5963
439.30 0.5969
439.40 0.5975
439.50 0.5982
439.60 0.5988
439.70 0.5994
439.80 0.6001
439.90 0.6007
440.00 0.6013
440.10 0.6019
440.20 0.6026
440.30 0.6032
440.40 0.6038
440.50 0.6045
440.60 0.6051
440.70 0.6057
440.80 0.6064
440.90 0.607
441.00 0.6076
441.10 0.6083
441.20 0.6089
441.30 0.6095
441.40 0.6102
441.50 0.6108
441.60 0.6114
441.70 0.6121
441.80 0.6127
441.90 0.6133
442.00 0.614
442.10 0.6146
442.20 0.6152
442.30 0.6159
442.40 0.6165
442.50 0.6172
442.60 0.6178
442.70 0.6184
442.80 0.6191
442.90 0.6197
443.00 0.6203
443.10 0.621
443.20 0.6216
443.30 0.6222
443.40 0.6229
443.50 0.6235
443.60 0.6242
443.70 0.6248
443.80 0.6254
443.90 0.6261
444.00 0.6267
444.10 0.6273
444.20 0.628
444.30 0.6286
444.40 0.6293
444.50 0.6299
444.60 0.6305
444.70 0.6312
444.80 0.6318
444.90 0.6325
445.00 0.6331
445.10 0.6337
445.20 0.6344
445.30 0.635
445.40 0.6357
445.50 0.6363
445.60 0.6369
445.70 0.6376
445.80 0.6382
445.90 0.6389
446.00 0.6395
446.10 0.6401
446.20 0.6408
446.30 0.6414
446.40 0.6421
446.50 0.6427
446.60 0.6434
446.70 0.644
446.80 0.6446
446.90 0.6453
447.00 0.6459
447.10 0.6466
447.20 0.6472
447.30 0.6479
447.40 0.6485
447.50 0.6491
447.60 0.6498
447.70 0.6504
447.80 0.6511
447.90 0.6517
448.00 0.6524
448.10 0.653
448.20 0.6537
448.30 0.6543
448.40 0.6549
448.50 0.6556
448.60 0.6562
448.70 0.6569
448.80 0.6575
448.90 0.6582
449.00 0.6588
449.10 0.6595
449.20 0.6601
449.30 0.6608
449.40 0.6614
449.50 0.6621
449.60 0.6627
449.70 0.6634
449.80 0.664
449.90 0.6647
450.00 0.6653
450.10 0.6659
450.20 0.6666
450.30 0.6672
450.40 0.6679
450.50 0.6685
450.60 0.6692
450.70 0.6698
450.80 0.6705
450.90 0.6711
451.00 0.6718
451.10 0.6724
451.20 0.6731
451.30 0.6737
451.40 0.6744
451.50 0.675
451.60 0.6757
451.70 0.6763
451.80 0.677
451.90 0.6776
452.00 0.6783
452.10 0.6789
452.20 0.6796
452.30 0.6802
452.40 0.6809
452.50 0.6816
452.60 0.6822
452.70 0.6829
452.80 0.6835
452.90 0.6842
453.00 0.6848
453.10 0.6855
453.20 0.6861
453.30 0.6868
453.40 0.6874
453.50 0.6881
453.60 0.6887
453.70 0.6894
453.80 0.69
453.90 0.6907
454.00 0.6914
454.10 0.692
454.20 0.6927
454.30 0.6933
454.40 0.694
454.50 0.6946
454.60 0.6953
454.70 0.6959
454.80 0.6966
454.90 0.6972
455.00 0.6979
455.10 0.6985
455.20 0.6992
455.30 0.6999
455.40 0.7005
455.50 0.7012
455.60 0.7018
455.70 0.7025
455.80 0.7031
455.90 0.7038
456.00 0.7044
456.10 0.7051
456.20 0.7058
456.30 0.7064
456.40 0.7071
456.50 0.7077
456.60 0.7084
456.70 0.709
456.80 0.7097
456.90 0.7104
457.00 0.711
457.10 0.7117
457.20 0.7123
457.30 0.713
457.40 0.7136
457.50 0.7143
457.60 0.715
457.70 0.7156
457.80 0.7163
457.90 0.7169
458.00 0.7176
458.10 0.7183
458.20 0.7189
458.30 0.7196
458.40 0.7202
458.50 0.7209
458.60 0.7216
458.70 0.7222
458.80 0.7229
458.90 0.7235
459.00 0.7242
459.10 0.7249
459.20 0.7255
459.30 0.7262
459.40 0.7268
459.50 0.7275
459.60 0.7282
459.70 0.7288
459.80 0.7295
459.90 0.7302
460.00 0.7308
460.10 0.7315
460.20 0.7321
460.30 0.7328
460.40 0.7334
460.50 0.7341
460.60 0.7348
460.70 0.7354
460.80 0.7361
460.90 0.7367
461.00 0.7374
461.10 0.7381
461.20 0.7387
461.30 0.7394
461.40 0.7401
461.50 0.7407
461.60 0.7414
461.70 0.7421
461.80 0.7427
461.90 0.7434
462.00 0.744
462.10 0.7447
462.20 0.7454
462.30 0.746
462.40 0.7467
462.50 0.7474
462.60 0.748
462.70 0.7487
462.80 0.7494
462.90 0.75
463.00 0.7507
463.10 0.7513
463.20 0.752
463.30 0.7527
463.40 0.7533
463.50 0.754
463.60 0.7547
463.70 0.7553
463.80 0.756
463.90 0.7567
464.00 0.7573
464.10 0.758
464.20 0.7586
464.30 0.7593
464.40 0.76
464.50 0.7607
464.60 0.7613
464.70 0.762
464.80 0.7627
464.90 0.7633
465.00 0.764
465.10 0.7647
465.20 0.7653
465.30 0.766
465.40 0.7667
465.50 0.7673
465.60 0.768
465.70 0.7687
465.80 0.7693
465.90 0.77
466.00 0.7707
466.10 0.7713
466.20 0.772
466.30 0.7727
466.40 0.7733
466.50 0.774
466.60 0.7747
466.70 0.7753
466.80 0.776
466.90 0.7767
467.00 0.7773
467.10 0.778
467.20 0.7786
467.30 0.7793
467.40 0.78
467.50 0.7807
467.60 0.7813
467.70 0.782
467.80 0.7827
467.90 0.7834
468.00 0.784
468.10 0.7847
468.20 0.7854
468.30 0.786
468.40 0.7867
468.50 0.7874
468.60 0.788
468.70 0.7887
468.80 0.7894
468.90 0.79
469.00 0.7907
469.10 0.7913
469.20 0.792
469.30 0.7927
469.40 0.7934
469.50 0.794
469.60 0.7947
469.70 0.7954
469.80 0.7961
469.90 0.7967
470.00 0.7974
470.10 0.7981
470.20 0.7988
470.30 0.7994
470.40 0.8001
470.50 0.8008
470.60 0.8015
470.70 0.8021
470.80 0.8028
470.90 0.8035
471.00 0.8041
471.10 0.8048
471.20 0.8055
471.30 0.8061
471.40 0.8068
471.50 0.8075
471.60 0.8082
471.70 0.8088
471.80 0.8095
471.90 0.8102
472.00 0.8109
472.10 0.8115
472.20 0.8122
472.30 0.8129
472.40 0.8135
472.50 0.8142
472.60 0.8149
472.70 0.8156
472.80 0.8162
472.90 0.8169
473.00 0.8176
473.10 0.8183
473.20 0.8189
473.30 0.8196
473.40 0.8203
473.50 0.8209
473.60 0.8216
473.70 0.8223
473.80 0.823
473.90 0.8236
474.00 0.8243
474.10 0.825
474.20 0.8257
474.30 0.8263
474.40 0.827
474.50 0.8277
474.60 0.8284
474.70 0.829
474.80 0.8297
474.90 0.8304
475.00 0.831
475.10 0.8317
475.20 0.8324
475.30 0.8331
475.40 0.8337
475.50 0.8344
475.60 0.8351
475.70 0.8358
475.80 0.8364
475.90 0.8371
476.00 0.8378
476.10 0.8384
476.20 0.8391
476.30 0.8398
476.40 0.8405
476.50 0.8411
476.60 0.8418
476.70 0.8425
476.80 0.8432
476.90 0.8438
477.00 0.8445
477.10 0.8452
477.20 0.8458
477.30 0.8465
477.40 0.8472
477.50 0.8479
477.60 0.8485
477.70 0.8492
477.80 0.8499
477.90 0.8506
478.00 0.8512
478.10 0.8519
478.20 0.8526
478.30 0.8533
478.40 0.8539
478.50 0.8546
478.60 0.8553
478.70 0.856
478.80 0.8566
478.90 0.8573
479.00 0.858
479.10 0.8586
479.20 0.8593
479.30 0.86
479.40 0.8607
479.50 0.8614
479.60 0.862
479.70 0.8627
479.80 0.8634
479.90 0.8641
480.00 0.8647
480.10 0.8654
480.20 0.8661
480.30 0.8668
480.40 0.8674
480.50 0.8681
480.60 0.8688
480.70 0.8695
480.80 0.8702
480.90 0.8708
481.00 0.8715
481.10 0.8722
481.20 0.8729
481.30 0.8735
481.40 0.8742
481.50 0.8749
481.60 0.8756
481.70 0.8763
481.80 0.8769
481.90 0.8776
482.00 0.8783
482.10 0.879
482.20 0.8797
482.30 0.8803
482.40 0.881
482.50 0.8817
482.60 0.8823
482.70 0.883
482.80 0.8837
482.90 0.8844
483.00 0.885
483.10 0.8857
483.20 0.8864
483.30 0.8871
483.40 0.8878
483.50 0.8884
483.60 0.8891
483.70 0.8898
483.80 0.8905
483.90 0.8911
484.00 0.8918
484.10 0.8925
484.20 0.8932
484.30 0.8938
484.40 0.8945
484.50 0.8952
484.60 0.8958
484.70 0.8965
484.80 0.8972
484.90 0.8979
485.00 0.8986
485.10 0.8992
485.20 0.8999
485.30 0.9006
485.40 0.9013
485.50 0.9019
485.60 0.9026
485.70 0.9033
485.80 0.904
485.90 0.9047
486.00 0.9053
486.10 0.906
486.20 0.9067
486.30 0.9074
486.40 0.908
486.50 0.9087
486.60 0.9094
486.70 0.91
486.80 0.9107
486.90 0.9114
487.00 0.9121
487.10 0.9128
487.20 0.9134
487.30 0.9141
487.40 0.9148
487.50 0.9155
487.60 0.9162
487.70 0.9169
487.80 0.9175
487.90 0.9182
488.00 0.9189
488.10 0.9195
488.20 0.9202
488.30 0.9209
488.40 0.9216
488.50 0.9223
488.60 0.9229
488.70 0.9236
488.80 0.9243
488.90 0.925
489.00 0.9257
489.10 0.9263
489.20 0.927
489.30 0.9277
489.40 0.9284
489.50 0.929
489.60 0.9297
489.70 0.9304
489.80 0.931
489.90 0.9317
490.00 0.9324
490.10 0.9331
490.20 0.9337
490.30 0.9344
490.40 0.9351
490.50 0.9358
490.60 0.9365
490.70 0.9371
490.80 0.9378
490.90 0.9385
491.00 0.9392
491.10 0.9398
491.20 0.9405
491.30 0.9412
491.40 0.9419
491.50 0.9426
491.60 0.9432
491.70 0.9439
491.80 0.9446
491.90 0.9453
492.00 0.946
492.10 0.9466
492.20 0.9473
492.30 0.948
492.40 0.9487
492.50 0.9494
492.60 0.95
492.70 0.9507
492.80 0.9514
492.90 0.9521
493.00 0.9527
493.10 0.9534
493.20 0.9541
493.30 0.9548
493.40 0.9554
493.50 0.9561
493.60 0.9568
493.70 0.9575
493.80 0.9582
493.90 0.9588
494.00 0.9595
494.10 0.9602
494.20 0.9609
494.30 0.9615
494.40 0.9622
494.50 0.9629
494.60 0.9635
494.70 0.9642
494.80 0.9649
494.90 0.9656
495.00 0.9662
495.10 0.9669
495.20 0.9676
495.30 0.9683
495.40 0.9689
495.50 0.9696
495.60 0.9703
495.70 0.971
495.80 0.9716
495.90 0.9723
496.00 0.973
496.10 0.9737
496.20 0.9743
496.30 0.975
496.40 0.9757
496.50 0.9764
496.60 0.9771
496.70 0.9777
496.80 0.9784
496.90 0.9791
497.00 0.9798
497.10 0.9804
497.20 0.9811
497.30 0.9818
497.40 0.9825
497.50 0.9831
497.60 0.9838
497.70 0.9845
497.80 0.9852
497.90 0.9859
498.00 0.9865
498.10 0.9872
498.20 0.9879
498.30 0.9886
498.40 0.9892
498.50 0.9899
498.60 0.9906
498.70 0.9913
498.80 0.9919
498.90 0.9926
499.00 0.9933
499.10 0.994
499.20 0.9946
499.30 0.9953
499.40 0.996
499.50 0.9967
499.60 0.9973
499.70 0.998
499.80 0.9987
499.90 0.9993
500.00 1
500.10 1.001
500.20 1.001
500.30 1.002
500.40 1.003
500.50 1.003
500.60 1.004
500.70 1.005
500.80 1.005
500.90 1.006
501.00 1.007
501.10 1.007
501.20 1.008
501.30 1.009
501.40 1.009
501.50 1.01
501.60 1.011
501.70 1.011
501.80 1.012
501.90 1.013
502.00 1.013
502.10 1.014
502.20 1.015
502.30 1.015
502.40 1.016
502.50 1.017
502.60 1.018
502.70 1.018
502.80 1.019
502.90 1.02
503.00 1.02
503.10 1.021
503.20 1.022
503.30 1.022
503.40 1.023
503.50 1.024
503.60 1.024
503.70 1.025
503.80 1.026
503.90 1.026
504.00 1.027
504.10 1.028
504.20 1.028
504.30 1.029
504.40 1.03
504.50 1.03
504.60 1.031
504.70 1.032
504.80 1.032
504.90 1.033
505.00 1.034
505.10 1.034
505.20 1.035
505.30 1.036
505.40 1.036
505.50 1.037
505.60 1.038
505.70 1.038
505.80 1.039
505.90 1.04
506.00 1.04
506.10 1.041
506.20 1.042
506.30 1.042
506.40 1.043
506.50 1.044
506.60 1.044
506.70 1.045
506.80 1.046
506.90 1.046
507.00 1.047
507.10 1.048
507.20 1.048
507.30 1.049
507.40 1.05
507.50 1.05
507.60 1.051
507.70 1.052
507.80 1.052
507.90 1.053
508.00 1.054
508.10 1.054
508.20 1.055
508.30 1.056
508.40 1.056
508.50 1.057
508.60 1.058
508.70 1.058
508.80 1.059
508.90 1.06
509.00 1.06
509.10 1.061
509.20 1.062
509.30 1.062
509.40 1.063
509.50 1.064
509.60 1.064
509.70 1.065
509.80 1.066
509.90 1.066
510.00 1.067
510.10 1.068
510.20 1.069
510.30 1.069
510.40 1.07
510.50 1.071
510.60 1.071
510.70 1.072
510.80 1.073
510.90 1.073
511.00 1.074
511.10 1.074
511.20 1.075
511.30 1.076
511.40 1.077
511.50 1.077
511.60 1.078
511.70 1.079
511.80 1.079
511.90 1.08
512.00 1.081
512.10 1.081
512.20 1.082
512.30 1.083
512.40 1.083
512.50 1.084
512.60 1.084
512.70 1.085
512.80 1.086
512.90 1.086
513.00 1.087
513.10 1.088
513.20 1.088
513.30 1.089
513.40 1.09
513.50 1.09
513.60 1.091
513.70 1.092
513.80 1.092
513.90 1.093
514.00 1.094
514.10 1.094
514.20 1.095
514.30 1.096
514.40 1.096
514.50 1.097
514.60 1.098
514.70 1.098
514.80 1.099
514.90 1.1
515.00 1.1
515.10 1.101
515.20 1.102
515.30 1.102
515.40 1.103
515.50 1.104
515.60 1.104
515.70 1.105
515.80 1.106
515.90 1.106
516.00 1.107
516.10 1.108
516.20 1.108
516.30 1.109
516.40 1.11
516.50 1.11
516.60 1.111
516.70 1.112
516.80 1.112
516.90 1.113
517.00 1.114
517.10 1.114
517.20 1.115
517.30 1.116
517.40 1.116
517.50 1.117
517.60 1.118
517.70 1.118
517.80 1.119
517.90 1.12
518.00 1.12
518.10 1.121
518.20 1.122
518.30 1.122
518.40 1.123
518.50 1.124
518.60 1.124
518.70 1.125
518.80 1.126
518.90 1.126
519.00 1.127
519.10 1.128
519.20 1.128
519.30 1.129
519.40 1.13
519.50 1.13
519.60 1.131
519.70 1.131
519.80 1.132
519.90 1.133
520.00 1.133
520.10 1.134
520.20 1.135
520.30 1.135
520.40 1.136
520.50 1.137
520.60 1.137
520.70 1.138
520.80 1.139
520.90 1.139
521.00 1.14
521.10 1.141
521.20 1.141
521.30 1.142
521.40 1.143
521.50 1.143
521.60 1.144
521.70 1.145
521.80 1.145
521.90 1.146
522.00 1.147
522.10 1.147
522.20 1.148
522.30 1.149
522.40 1.149
522.50 1.15
522.60 1.151
522.70 1.151
522.80 1.152
522.90 1.153
523.00 1.153
523.10 1.154
523.20 1.154
523.30 1.155
523.40 1.156
523.50 1.156
523.60 1.157
523.70 1.158
523.80 1.158
523.90 1.159
524.00 1.16
524.10 1.16
524.20 1.161
524.30 1.162
524.40 1.162
524.50 1.163
524.60 1.164
524.70 1.164
524.80 1.165
524.90 1.166
525.00 1.166
525.10 1.167
525.20 1.167
525.30 1.168
525.40 1.169
525.50 1.169
525.60 1.17
525.70 1.171
525.80 1.171
525.90 1.172
526.00 1.173
526.10 1.173
526.20 1.174
526.30 1.175
526.40 1.175
526.50 1.176
526.60 1.177
526.70 1.177
526.80 1.178
526.90 1.179
527.00 1.179
527.10 1.18
527.20 1.18
527.30 1.181
527.40 1.182
527.50 1.182
527.60 1.183
527.70 1.184
527.80 1.184
527.90 1.185
528.00 1.186
528.10 1.186
528.20 1.187
528.30 1.188
528.40 1.188
528.50 1.189
528.60 1.19
528.70 1.19
528.80 1.191
528.90 1.191
529.00 1.192
529.10 1.193
529.20 1.193
529.30 1.194
529.40 1.195
529.50 1.195
529.60 1.196
529.70 1.197
529.80 1.197
529.90 1.198
530.00 1.199
530.10 1.199
530.20 1.2
530.30 1.2
530.40 1.201
530.50 1.202
530.60 1.202
530.70 1.203
530.80 1.204
530.90 1.204
531.00 1.205
531.10 1.206
531.20 1.206
531.30 1.207
531.40 1.208
531.50 1.208
531.60 1.209
531.70 1.209
531.80 1.21
531.90 1.211
532.00 1.211
532.10 1.212
532.20 1.213
532.30 1.213
532.40 1.214
532.50 1.215
532.60 1.215
532.70 1.216
532.80 1.217
532.90 1.217
533.00 1.218
533.10 1.218
533.20 1.219
533.30 1.22
533.40 1.22
533.50 1.221
533.60 1.222
533.70 1.222
533.80 1.223
533.90 1.223
534.00 1.224
534.10 1.225
534.20 1.225
534.30 1.226
534.40 1.227
534.50 1.227
534.60 1.228
534.70 1.229
534.80 1.229
534.90 1.23
535.00 1.231
535.10 1.231
535.20 1.232
535.30 1.232
535.40 1.233
535.50 1.234
535.60 1.234
535.70 1.235
535.80 1.236
535.90 1.236
536.00 1.237
536.10 1.237
536.20 1.238
536.30 1.239
536.40 1.239
536.50 1.24
536.60 1.241
536.70 1.241
536.80 1.242
536.90 1.243
537.00 1.243
537.10 1.244
537.20 1.244
537.30 1.245
537.40 1.246
537.50 1.246
537.60 1.247
537.70 1.248
537.80 1.248
537.90 1.249
538.00 1.249
538.10 1.25
538.20 1.251
538.30 1.251
538.40 1.252
538.50 1.253
538.60 1.253
538.70 1.254
538.80 1.254
538.90 1.255
539.00 1.256
539.10 1.256
539.20 1.257
539.30 1.258
539.40 1.258
539.50 1.259
539.60 1.259
539.70 1.26
539.80 1.261
539.90 1.261
540.00 1.262
540.10 1.263
540.20 1.263
540.30 1.264
540.40 1.264
540.50 1.265
540.60 1.266
540.70 1.266
540.80 1.267
540.90 1.268
541.00 1.268
541.10 1.269
541.20 1.269
541.30 1.27
541.40 1.271
541.50 1.271
541.60 1.272
541.70 1.273
541.80 1.273
541.90 1.274
542.00 1.274
542.10 1.275
542.20 1.276
542.30 1.276
542.40 1.277
542.50 1.277
542.60 1.278
542.70 1.279
542.80 1.279
542.90 1.28
543.00 1.281
543.10 1.281
543.20 1.282
543.30 1.282
543.40 1.283
543.50 1.284
543.60 1.284
543.70 1.285
543.80 1.285
543.90 1.286
544.00 1.287
544.10 1.287
544.20 1.288
544.30 1.289
544.40 1.289
544.50 1.29
544.60 1.29
544.70 1.291
544.80 1.292
544.90 1.292
545.00 1.293
545.10 1.293
545.20 1.294
545.30 1.295
545.40 1.295
545.50 1.296
545.60 1.297
545.70 1.297
545.80 1.298
545.90 1.298
546.00 1.299
546.10 1.3
546.20 1.3
546.30 1.301
546.40 1.301
546.50 1.302
546.60 1.303
546.70 1.303
546.80 1.304
546.90 1.304
547.00 1.305
547.10 1.306
547.20 1.306
547.30 1.307
547.40 1.307
547.50 1.308
547.60 1.309
547.70 1.309
547.80 1.31
547.90 1.31
548.00 1.311
548.10 1.312
548.20 1.312
548.30 1.313
548.40 1.314
548.50 1.314
548.60 1.315
548.70 1.315
548.80 1.316
548.90 1.317
549.00 1.317
549.10 1.318
549.20 1.318
549.30 1.319
549.40 1.32
549.50 1.32
549.60 1.321
549.70 1.321
549.80 1.322
549.90 1.323
550.00 1.323
550.10 1.324
550.20 1.324
550.30 1.325
550.40 1.326
550.50 1.326
550.60 1.327
550.70 1.327
550.80 1.328
550.90 1.329
551.00 1.329
551.10 1.33
551.20 1.33
551.30 1.331
551.40 1.331
551.50 1.332
551.60 1.333
551.70 1.333
551.80 1.334
551.90 1.334
552.00 1.335
552.10 1.336
552.20 1.336
552.30 1.337
552.40 1.337
552.50 1.338
552.60 1.339
552.70 1.339
552.80 1.34
552.90 1.34
553.00 1.341
553.10 1.342
553.20 1.342
553.30 1.343
553.40 1.343
553.50 1.344
553.60 1.344
553.70 1.345
553.80 1.346
553.90 1.346
554.00 1.347
554.10 1.347
554.20 1.348
554.30 1.349
554.40 1.349
554.50 1.35
554.60 1.35
554.70 1.351
554.80 1.352
554.90 1.352
555.00 1.353
555.10 1.353
555.20 1.354
555.30 1.354
555.40 1.355
555.50 1.356
555.60 1.356
555.70 1.357
555.80 1.357
555.90 1.358
556.00 1.358
556.10 1.359
556.20 1.36
556.30 1.36
556.40 1.361
556.50 1.361
556.60 1.362
556.70 1.363
556.80 1.363
556.90 1.364
557.00 1.364
557.10 1.365
557.20 1.365
557.30 1.366
557.40 1.367
557.50 1.367
557.60 1.368
557.70 1.368
557.80 1.369
557.90 1.369
558.00 1.37
558.10 1.371
558.20 1.371
558.30 1.372
558.40 1.372
558.50 1.373
558.60 1.373
558.70 1.374
558.80 1.375
558.90 1.375
559.00 1.376
559.10 1.376
559.20 1.377
559.30 1.377
559.40 1.378
559.50 1.379
559.60 1.379
559.70 1.38
559.80 1.38
559.90 1.381
560.00 1.381
560.10 1.382
560.20 1.383
560.30 1.383
560.40 1.384
560.50 1.384
560.60 1.385
560.70 1.385
560.80 1.386
560.90 1.387
561.00 1.387
561.10 1.388
561.20 1.388
561.30 1.389
561.40 1.389
561.50 1.39
561.60 1.39
561.70 1.391
561.80 1.392
561.90 1.392
562.00 1.393
562.10 1.393
562.20 1.394
562.30 1.394
562.40 1.395
562.50 1.396
562.60 1.396
562.70 1.397
562.80 1.397
562.90 1.398
563.00 1.398
563.10 1.399
563.20 1.399
563.30 1.4
563.40 1.401
563.50 1.401
563.60 1.402
563.70 1.402
563.80 1.403
563.90 1.403
564.00 1.404
564.10 1.404
564.20 1.405
564.30 1.406
564.40 1.406
564.50 1.407
564.60 1.407
564.70 1.408
564.80 1.408
564.90 1.409
565.00 1.409
565.10 1.41
565.20 1.41
565.30 1.411
565.40 1.412
565.50 1.412
565.60 1.413
565.70 1.413
565.80 1.414
565.90 1.414
566.00 1.415
566.10 1.415
566.20 1.416
566.30 1.416
566.40 1.417
566.50 1.418
566.60 1.418
566.70 1.419
566.80 1.419
566.90 1.42
567.00 1.42
567.10 1.421
567.20 1.421
567.30 1.422
567.40 1.422
567.50 1.423
567.60 1.423
567.70 1.424
567.80 1.425
567.90 1.425
568.00 1.426
568.10 1.426
568.20 1.427
568.30 1.427
568.40 1.428
568.50 1.428
568.60 1.429
568.70 1.429
568.80 1.43
568.90 1.43
569.00 1.431
569.10 1.431
569.20 1.432
569.30 1.433
569.40 1.433
569.50 1.434
569.60 1.434
569.70 1.435
569.80 1.435
569.90 1.436
570.00 1.436
570.10 1.437
570.20 1.437
570.30 1.438
570.40 1.438
570.50 1.439
570.60 1.439
570.70 1.44
570.80 1.44
570.90 1.441
571.00 1.441
571.10 1.442
571.20 1.442
571.30 1.443
571.40 1.444
571.50 1.444
571.60 1.445
571.70 1.445
571.80 1.446
571.90 1.446
572.00 1.447
572.10 1.447
572.20 1.448
572.30 1.448
572.40 1.449
572.50 1.449
572.60 1.45
572.70 1.45
572.80 1.451
572.90 1.451
573.00 1.452
573.10 1.452
573.20 1.453
573.30 1.453
573.40 1.454
573.50 1.454
573.60 1.455
573.70 1.455
573.80 1.456
573.90 1.456
574.00 1.457
574.10 1.457
574.20 1.458
574.30 1.458
574.40 1.459
574.50 1.459
574.60 1.46
574.70 1.46
574.80 1.461
574.90 1.461
575.00 1.462
575.10 1.462
575.20 1.463
575.30 1.463
575.40 1.464
575.50 1.464
575.60 1.465
575.70 1.465
575.80 1.466
575.90 1.466
576.00 1.467
576.10 1.467
576.20 1.468
576.30 1.468
576.40 1.469
576.50 1.469
576.60 1.47
576.70 1.47
576.80 1.471
576.90 1.471
577.00 1.472
577.10 1.472
577.20 1.473
577.30 1.473
577.40 1.474
577.50 1.474
577.60 1.475
577.70 1.475
577.80 1.476
577.90 1.476
578.00 1.477
578.10 1.477
578.20 1.478
578.30 1.478
578.40 1.479
578.50 1.479
578.60 1.48
578.70 1.48
578.80 1.481
578.90 1.481
579.00 1.482
579.10 1.482
579.20 1.483
579.30 1.483
579.40 1.484
579.50 1.484
579.60 1.485
579.70 1.485
579.80 1.486
579.90 1.486
580.00 1.487
580.10 1.487
580.20 1.487
580.30 1.488
580.40 1.488
580.50 1.489
580.60 1.489
580.70 1.49
580.80 1.49
580.90 1.491
581.00 1.491
581.10 1.492
581.20 1.492
581.30 1.493
581.40 1.493
581.50 1.494
581.60 1.494
581.70 1.495
581.80 1.495
581.90 1.496
582.00 1.496
582.10 1.496
582.20 1.497
582.30 1.497
582.40 1.498
582.50 1.498
582.60 1.499
582.70 1.499
582.80 1.5
582.90 1.5
583.00 1.501
583.10 1.501
583.20 1.502
583.30 1.502
583.40 1.502
583.50 1.503
583.60 1.503
583.70 1.504
583.80 1.504
583.90 1.505
584.00 1.505
584.10 1.506
584.20 1.506
584.30 1.507
584.40 1.507
584.50 1.507
584.60 1.508
584.70 1.508
584.80 1.509
584.90 1.509
585.00 1.51
585.10 1.51
585.20 1.511
585.30 1.511
585.40 1.512
585.50 1.512
585.60 1.512
585.70 1.513
585.80 1.513
585.90 1.514
586.00 1.514
586.10 1.515
586.20 1.515
586.30 1.515
586.40 1.516
586.50 1.516
586.60 1.517
586.70 1.517
586.80 1.518
586.90 1.518
587.00 1.518
587.10 1.519
587.20 1.519
587.30 1.52
587.40 1.52
587.50 1.521
587.60 1.521
587.70 1.522
587.80 1.522
587.90 1.522
588.00 1.523
588.10 1.523
588.20 1.524
588.30 1.524
588.40 1.524
588.50 1.525
588.60 1.525
588.70 1.526
588.80 1.526
588.90 1.527
589.00 1.527
589.10 1.527
589.20 1.528
589.30 1.528
589.40 1.529
589.50 1.529
589.60 1.53
589.70 1.53
589.80 1.53
589.90 1.531
590.00 1.531
590.10 1.532
590.20 1.532
590.30 1.532
590.40 1.533
590.50 1.533
590.60 1.534
590.70 1.534
590.80 1.534
590.90 1.535
591.00 1.535
591.10 1.536
591.20 1.536
591.30 1.536
591.40 1.537
591.50 1.537
591.60 1.538
591.70 1.538
591.80 1.538
591.90 1.539
592.00 1.539
592.10 1.54
592.20 1.54
592.30 1.54
592.40 1.541
592.50 1.541
592.60 1.542
592.70 1.542
592.80 1.542
592.90 1.543
593.00 1.543
593.10 1.544
593.20 1.544
593.30 1.544
593.40 1.545
593.50 1.545
593.60 1.546
593.70 1.546
593.80 1.546
593.90 1.547
594.00 1.547
594.10 1.548
594.20 1.548
594.30 1.548
594.40 1.549
594.50 1.549
594.60 1.549
594.70 1.55
594.80 1.55
594.90 1.551
595.00 1.551
595.10 1.551
595.20 1.552
595.30 1.552
595.40 1.552
595.50 1.553
595.60 1.553
595.70 1.554
595.80 1.554
595.90 1.554
596.00 1.555
596.10 1.555
596.20 1.555
596.30 1.556
596.40 1.556
596.50 1.557
596.60 1.557
596.70 1.557
596.80 1.558
596.90 1.558
597.00 1.558
597.10 1.559
597.20 1.559
597.30 1.559
597.40 1.56
597.50 1.56
597.60 1.561
597.70 1.561
597.80 1.561
597.90 1.562
598.00 1.562
598.10 1.562
598.20 1.563
598.30 1.563
598.40 1.563
598.50 1.564
598.60 1.564
598.70 1.564
598.80 1.565
598.90 1.565
599.00 1.565
599.10 1.566
599.20 1.566
599.30 1.566
599.40 1.567
599.50 1.567
599.60 1.568
599.70 1.568
599.80 1.568
599.90 1.569
600.00 1.569
600.10 1.569
600.20 1.57
600.30 1.57
600.40 1.57
600.50 1.571
600.60 1.571
600.70 1.571
600.80 1.572
600.90 1.572
601.00 1.572
601.10 1.573
601.20 1.573
601.30 1.573
601.40 1.574
601.50 1.574
601.60 1.574
601.70 1.574
601.80 1.575
601.90 1.575
602.00 1.575
602.10 1.576
602.20 1.576
602.30 1.576
602.40 1.577
602.50 1.577
602.60 1.577
602.70 1.578
602.80 1.578
602.90 1.578
603.00 1.579
603.10 1.579
603.20 1.579
603.30 1.58
603.40 1.58
603.50 1.58
603.60 1.58
603.70 1.581
603.80 1.581
603.90 1.581
604.00 1.582
604.10 1.582
604.20 1.582
604.30 1.583
604.40 1.583
604.50 1.583
604.60 1.583
604.70 1.584
604.80 1.584
604.90 1.584
605.00 1.585
605.10 1.585
605.20 1.585
605.30 1.585
605.40 1.586
605.50 1.586
605.60 1.586
605.70 1.587
605.80 1.587
605.90 1.587
606.00 1.587
606.10 1.588
606.20 1.588
606.30 1.588
606.40 1.589
606.50 1.589
606.60 1.589
606.70 1.589
606.80 1.59
606.90 1.59
607.00 1.59
607.10 1.591
607.20 1.591
607.30 1.591
607.40 1.591
607.50 1.592
607.60 1.592
607.70 1.592
607.80 1.592
607.90 1.593
608.00 1.593
608.10 1.593
608.20 1.593
608.30 1.594
608.40 1.594
608.50 1.594
608.60 1.594
608.70 1.595
608.80 1.595
608.90 1.595
609.00 1.596
609.10 1.596
609.20 1.596
609.30 1.596
609.40 1.596
609.50 1.597
609.60 1.597
609.70 1.597
609.80 1.597
609.90 1.598
610.00 1.598
610.10 1.598
610.20 1.598
610.30 1.599
610.40 1.599
610.50 1.599
610.60 1.599
610.70 1.6
610.80 1.6
610.90 1.6
611.00 1.6
611.10 1.601
611.20 1.601
611.30 1.601
611.40 1.601
611.50 1.601
611.60 1.602
611.70 1.602
611.80 1.602
611.90 1.602
612.00 1.603
612.10 1.603
612.20 1.603
612.30 1.603
612.40 1.603
612.50 1.604
612.60 1.604
612.70 1.604
612.80 1.604
612.90 1.604
613.00 1.605
613.10 1.605
613.20 1.605
613.30 1.605
613.40 1.606
613.50 1.606
613.60 1.606
613.70 1.606
613.80 1.606
613.90 1.606
614.00 1.607
614.10 1.607
614.20 1.607
614.30 1.607
614.40 1.607
614.50 1.608
614.60 1.608
614.70 1.608
614.80 1.608
614.90 1.608
615.00 1.609
615.10 1.609
615.20 1.609
615.30 1.609
615.40 1.609
615.50 1.609
615.60 1.61
615.70 1.61
615.80 1.61
615.90 1.61
616.00 1.61
616.10 1.61
616.20 1.611
616.30 1.611
616.40 1.611
616.50 1.611
616.60 1.611
616.70 1.611
616.80 1.612
616.90 1.612
617.00 1.612
617.10 1.612
617.20 1.612
617.30 1.612
617.40 1.613
617.50 1.613
617.60 1.613
617.70 1.613
617.80 1.613
617.90 1.613
618.00 1.613
618.10 1.614
618.20 1.614
618.30 1.614
618.40 1.614
618.50 1.614
618.60 1.614
618.70 1.614
618.80 1.615
618.90 1.615
619.00 1.615
619.10 1.615
619.20 1.615
619.30 1.615
619.40 1.615
619.50 1.615
619.60 1.616
619.70 1.616
619.80 1.616
619.90 1.616
620.00 1.616
620.10 1.616
620.20 1.616
620.30 1.616
620.40 1.616
620.50 1.617
620.60 1.617
620.70 1.617
620.80 1.617
620.90 1.617
621.00 1.617
621.10 1.617
621.20 1.617
621.30 1.617
621.40 1.617
621.50 1.618
621.60 1.618
621.70 1.618
621.80 1.618
621.90 1.618
622.00 1.618
622.10 1.618
622.20 1.618
622.30 1.618
622.40 1.618
622.50 1.619
622.60 1.619
622.70 1.619
622.80 1.619
622.90 1.619
623.00 1.619
623.10 1.619
623.20 1.619
623.30 1.619
623.40 1.619
623.50 1.619
623.60 1.619
623.70 1.619
623.80 1.62
623.90 1.62
624.00 1.62
624.10 1.62
624.20 1.62
624.30 1.62
624.40 1.62
624.50 1.62
624.60 1.62
624.70 1.62
624.80 1.62
624.90 1.62
625.00 1.62
625.10 1.62
625.20 1.62
625.30 1.62
625.40 1.62
625.50 1.62
625.60 1.62
625.70 1.621
625.80 1.621
625.90 1.621
626.00 1.621
626.10 1.621
626.20 1.621
626.30 1.621
626.40 1.621
626.50 1.621
626.60 1.621
626.70 1.621
626.80 1.621
626.90 1.621
627.00 1.621
627.10 1.621
627.20 1.621
627.30 1.621
627.40 1.621
627.50 1.621
627.60 1.621
627.70 1.621
627.80 1.621
627.90 1.621
628.00 1.621
628.10 1.621
628.20 1.621
628.30 1.621
628.40 1.621
628.50 1.621
628.60 1.621
628.70 1.621
628.80 1.621
628.90 1.621
629.00 1.621
629.10 1.621
629.20 1.621
629.30 1.621
629.40 1.621
629.50 1.621
629.60 1.621
629.70 1.621
629.80 1.621
629.90 1.621
630.00 1.621
630.10 1.621
630.20 1.621
630.30 1.621
630.40 1.621
630.50 1.621
630.60 1.621
630.70 1.62
630.80 1.62
630.90 1.62
631.00 1.62
631.10 1.62
631.20 1.62
631.30 1.62
631.40 1.62
631.50 1.62
631.60 1.62
631.70 1.62
631.80 1.62
631.90 1.62
632.00 1.62
632.10 1.62
632.20 1.62
632.30 1.62
632.40 1.62
632.50 1.619
632.60 1.619
632.70 1.619
632.80 1.619
632.90 1.619
633.00 1.619
633.10 1.619
633.20 1.619
633.30 1.619
633.40 1.619
633.50 1.619
633.60 1.619
633.70 1.618
633.80 1.618
633.90 1.618
634.00 1.618
634.10 1.618
634.20 1.618
634.30 1.618
634.40 1.618
634.50 1.618
634.60 1.618
634.70 1.617
634.80 1.617
634.90 1.617
635.00 1.617
635.10 1.617
635.20 1.617
635.30 1.617
635.40 1.617
635.50 1.617
635.60 1.616
635.70 1.616
635.80 1.616
635.90 1.616
636.00 1.616
636.10 1.616
636.20 1.616
636.30 1.616
636.40 1.615
636.50 1.615
636.60 1.615
636.70 1.615
636.80 1.615
636.90 1.615
637.00 1.614
637.10 1.614
637.20 1.614
637.30 1.614
637.40 1.614
637.50 1.614
637.60 1.614
637.70 1.613
637.80 1.613
637.90 1.613
638.00 1.613
638.10 1.613
638.20 1.613
638.30 1.612
638.40 1.612
638.50 1.612
638.60 1.612
638.70 1.612
638.80 1.611
638.90 1.611
639.00 1.611
639.10 1.611
639.20 1.611
639.30 1.611
639.40 1.61
639.50 1.61
639.60 1.61
639.70 1.61
639.80 1.61
639.90 1.609
640.00 1.609
640.10 1.609
640.20 1.609
640.30 1.608
640.40 1.608
640.50 1.608
640.60 1.608
640.70 1.608
640.80 1.607
640.90 1.607
641.00 1.607
641.10 1.607
641.20 1.606
641.30 1.606
641.40 1.606
641.50 1.606
641.60 1.605
641.70 1.605
641.80 1.605
641.90 1.605
642.00 1.604
642.10 1.604
642.20 1.604
642.30 1.604
642.40 1.603
642.50 1.603
642.60 1.603
642.70 1.603
642.80 1.602
642.90 1.602
643.00 1.602
643.10 1.601
643.20 1.601
643.30 1.601
643.40 1.601
643.50 1.6
643.60 1.6
643.70 1.6
643.80 1.599
643.90 1.599
644.00 1.599
644.10 1.599
644.20 1.598
644.30 1.598
644.40 1.598
644.50 1.597
644.60 1.597
644.70 1.597
644.80 1.596
644.90 1.596
645.00 1.596
645.10 1.595
645.20 1.595
645.30 1.595
645.40 1.594
645.50 1.594
645.60 1.594
645.70 1.593
645.80 1.593
645.90 1.593
646.00 1.592
646.10 1.592
646.20 1.592
646.30 1.591
646.40 1.591
646.50 1.591
646.60 1.59
646.70 1.59
646.80 1.59
646.90 1.589
647.00 1.589
647.10 1.589
647.20 1.588
647.30 1.588
647.40 1.588
647.50 1.587
647.60 1.587
647.70 1.586
647.80 1.586
647.90 1.586
648.00 1.585
648.10 1.585
648.20 1.584
648.30 1.584
648.40 1.584
648.50 1.583
648.60 1.583
648.70 1.583
648.80 1.582
648.90 1.582
649.00 1.581
649.10 1.581
649.20 1.581
649.30 1.58
649.40 1.58
649.50 1.579
649.60 1.579
649.70 1.578
649.80 1.578
649.90 1.578
650.00 1.577
650.10 1.577
650.20 1.576
650.30 1.576
650.40 1.575
650.50 1.575
650.60 1.574
650.70 1.574
650.80 1.574
650.90 1.573
651.00 1.573
651.10 1.572
651.20 1.572
651.30 1.571
651.40 1.571
651.50 1.57
651.60 1.57
651.70 1.569
651.80 1.569
651.90 1.569
652.00 1.568
652.10 1.568
652.20 1.567
652.30 1.567
652.40 1.566
652.50 1.566
652.60 1.565
652.70 1.565
652.80 1.564
652.90 1.564
653.00 1.563
653.10 1.563
653.20 1.562
653.30 1.562
653.40 1.561
653.50 1.561
653.60 1.56
653.70 1.56
653.80 1.559
653.90 1.559
654.00 1.558
654.10 1.557
654.20 1.557
654.30 1.556
654.40 1.556
654.50 1.555
654.60 1.555
654.70 1.554
654.80 1.554
654.90 1.553
655.00 1.553
655.10 1.552
655.20 1.552
655.30 1.551
655.40 1.55
655.50 1.55
655.60 1.549
655.70 1.549
655.80 1.548
655.90 1.548
656.00 1.547
656.10 1.546
656.20 1.546
656.30 1.545
656.40 1.545
656.50 1.544
656.60 1.544
656.70 1.543
656.80 1.542
656.90 1.542
657.00 1.541
657.10 1.541
657.20 1.54
657.30 1.539
657.40 1.539
657.50 1.538
657.60 1.537
657.70 1.537
657.80 1.536
657.90 1.536
658.00 1.535
658.10 1.534
658.20 1.534
658.30 1.533
658.40 1.532
658.50 1.532
658.60 1.531
658.70 1.531
658.80 1.53
658.90 1.529
659.00 1.529
659.10 1.528
659.20 1.527
659.30 1.527
659.40 1.526
659.50 1.525
659.60 1.525
659.70 1.524
659.80 1.523
659.90 1.523
660.00 1.522
660.10 1.521
660.20 1.521
660.30 1.52
660.40 1.519
660.50 1.519
660.60 1.518
660.70 1.517
660.80 1.517
660.90 1.516
661.00 1.515
661.10 1.514
661.20 1.514
661.30 1.513
661.40 1.512
661.50 1.512
661.60 1.511
661.70 1.51
661.80 1.509
661.90 1.509
662.00 1.508
662.10 1.507
662.20 1.507
662.30 1.506
662.40 1.505
662.50 1.504
662.60 1.504
662.70 1.503
662.80 1.502
662.90 1.501
663.00 1.501
663.10 1.5
663.20 1.499
663.30 1.498
663.40 1.498
663.50 1.497
663.60 1.496
663.70 1.495
663.80 1.494
663.90 1.494
664.00 1.493
664.10 1.492
664.20 1.491
664.30 1.491
664.40 1.49
664.50 1.489
664.60 1.488
664.70 1.487
664.80 1.487
664.90 1.486
665.00 1.485
665.10 1.484
665.20 1.483
665.30 1.483
665.40 1.482
665.50 1.481
665.60 1.48
665.70 1.479
665.80 1.478
665.90 1.478
666.00 1.477
666.10 1.476
666.20 1.475
666.30 1.474
666.40 1.473
666.50 1.472
666.60 1.472
666.70 1.471
666.80 1.47
666.90 1.469
667.00 1.468
667.10 1.467
667.20 1.466
667.30 1.466
667.40 1.465
667.50 1.464
667.60 1.463
667.70 1.462
667.80 1.461
667.90 1.46
668.00 1.459
668.10 1.458
668.20 1.458
668.30 1.457
668.40 1.456
668.50 1.455
668.60 1.454
668.70 1.453
668.80 1.452
668.90 1.451
669.00 1.45
669.10 1.449
669.20 1.448
669.30 1.448
669.40 1.447
669.50 1.446
669.60 1.445
669.70 1.444
669.80 1.443
669.90 1.442
670.00 1.441
670.10 1.44
670.20 1.439
670.30 1.438
670.40 1.437
670.50 1.436
670.60 1.435
670.70 1.434
670.80 1.433
670.90 1.432
671.00 1.431
671.10 1.43
671.20 1.429
671.30 1.428
671.40 1.427
671.50 1.426
671.60 1.425
671.70 1.424
671.80 1.423
671.90 1.422
672.00 1.421
672.10 1.42
672.20 1.419
672.30 1.418
672.40 1.417
672.50 1.416
672.60 1.415
672.70 1.414
672.80 1.413
672.90 1.412
673.00 1.411
673.10 1.41
673.20 1.409
673.30 1.408
673.40 1.407
673.50 1.406
673.60 1.405
673.70 1.404
673.80 1.403
673.90 1.402
674.00 1.401
674.10 1.4
674.20 1.399
674.30 1.398
674.40 1.397
674.50 1.396
674.60 1.394
674.70 1.393
674.80 1.392
674.90 1.391
675.00 1.39
675.10 1.389
675.20 1.388
675.30 1.387
675.40 1.386
675.50 1.385
675.60 1.384
675.70 1.382
675.80 1.381
675.90 1.38
676.00 1.379
676.10 1.378
676.20 1.377
676.30 1.376
676.40 1.375
676.50 1.373
676.60 1.372
676.70 1.371
676.80 1.37
676.90 1.369
677.00 1.368
677.10 1.367
677.20 1.366
677.30 1.364
677.40 1.363
677.50 1.362
677.60 1.361
677.70 1.36
677.80 1.359
677.90 1.357
678.00 1.356
678.10 1.355
678.20 1.354
678.30 1.353
678.40 1.352
678.50 1.35
678.60 1.349
678.70 1.348
678.80 1.347
678.90 1.346
679.00 1.344
679.10 1.343
679.20 1.342
679.30 1.341
679.40 1.34
679.50 1.338
679.60 1.337
679.70 1.336
679.80 1.335
679.90 1.334
680.00 1.332
680.10 1.331
680.20 1.33
680.30 1.329
680.40 1.328
680.50 1.326
680.60 1.325
680.70 1.324
680.80 1.323
680.90 1.321
681.00 1.32
681.10 1.319
681.20 1.318
681.30 1.316
681.40 1.315
681.50 1.314
681.60 1.313
681.70 1.311
681.80 1.31
681.90 1.309
682.00 1.307
682.10 1.306
682.20 1.305
682.30 1.304
682.40 1.302
682.50 1.301
682.60 1.3
682.70 1.298
682.80 1.297
682.90 1.296
683.00 1.295
683.10 1.293
683.20 1.292
683.30 1.291
683.40 1.289
683.50 1.288
683.60 1.287
683.70 1.285
683.80 1.284
683.90 1.283
684.00 1.281
684.10 1.28
684.20 1.279
684.30 1.277
684.40 1.276
684.50 1.275
684.60 1.273
684.70 1.272
684.80 1.271
684.90 1.269
685.00 1.268
685.10 1.267
685.20 1.265
685.30 1.264
685.40 1.263
685.50 1.261
685.60 1.26
685.70 1.258
685.80 1.257
685.90 1.256
686.00 1.254
686.10 1.253
686.20 1.252
686.30 1.25
686.40 1.249
686.50 1.247
686.60 1.246
686.70 1.245
686.80 1.243
686.90 1.242
687.00 1.24
687.10 1.239
687.20 1.238
687.30 1.236
687.40 1.235
687.50 1.233
687.60 1.232
687.70 1.231
687.80 1.229
687.90 1.228
688.00 1.226
688.10 1.225
688.20 1.224
688.30 1.222
688.40 1.221
688.50 1.219
688.60 1.218
688.70 1.216
688.80 1.215
688.90 1.213
689.00 1.212
689.10 1.211
689.20 1.209
689.30 1.208
689.40 1.206
689.50 1.205
689.60 1.203
689.70 1.202
689.80 1.2
689.90 1.199
690.00 1.197
690.10 1.196
690.20 1.194
690.30 1.193
690.40 1.191
690.50 1.189
690.60 1.188
690.70 1.186
690.80 1.185
690.90 1.183
691.00 1.182
691.10 1.18
691.20 1.179
691.30 1.177
691.40 1.176
691.50 1.174
691.60 1.173
691.70 1.171
691.80 1.17
691.90 1.168
692.00 1.167
692.10 1.165
692.20 1.164
692.30 1.162
692.40 1.161
692.50 1.159
692.60 1.158
692.70 1.156
692.80 1.155
692.90 1.153
693.00 1.152
693.10 1.15
693.20 1.149
693.30 1.147
693.40 1.146
693.50 1.144
693.60 1.143
693.70 1.141
693.80 1.14
693.90 1.138
694.00 1.137
694.10 1.135
694.20 1.134
694.30 1.132
694.40 1.131
694.50 1.129
694.60 1.128
694.70 1.127
694.80 1.125
694.90 1.124
695.00 1.122
695.10 1.121
695.20 1.119
695.30 1.117
695.40 1.116
695.50 1.114
695.60 1.113
695.70 1.111
695.80 1.109
695.90 1.108
696.00 1.106
696.10 1.105
696.20 1.103
696.30 1.102
696.40 1.1
696.50 1.098
696.60 1.097
696.70 1.095
696.80 1.094
696.90 1.092
697.00 1.091
697.10 1.089
697.20 1.087
697.30 1.086
697.40 1.084
697.50 1.083
697.60 1.081
697.70 1.08
697.80 1.078
697.90 1.077
698.00 1.075
698.10 1.073
698.20 1.072
698.30 1.07
698.40 1.069
698.50 1.067
698.60 1.066
698.70 1.064
698.80 1.063
698.90 1.061
699.00 1.059
699.10 1.058
699.20 1.056
699.30 1.055
699.40 1.053
699.50 1.052
699.60 1.05
699.70 1.049
699.80 1.047
699.90 1.046
700.00 1.044
700.10 1.042
700.20 1.041
700.30 1.039
700.40 1.038
700.50 1.036
700.60 1.034
700.70 1.033
700.80 1.031
700.90 1.03
701.00 1.028
701.10 1.026
701.20 1.025
701.30 1.023
701.40 1.022
701.50 1.02
701.60 1.018
701.70 1.017
701.80 1.015
701.90 1.014
702.00 1.012
702.10 1.01
702.20 1.009
702.30 1.007
702.40 1.006
702.50 1.004
702.60 1.003
702.70 1.001
702.80 0.9994
702.90 0.9978
703.00 0.9962
703.10 0.9946
703.20 0.9931
703.30 0.9915
703.40 0.9899
703.50 0.9883
703.60 0.9868
703.70 0.9852
703.80 0.9836
703.90 0.982
704.00 0.9805
704.10 0.9789
704.20 0.9773
704.30 0.9758
704.40 0.9742
704.50 0.9726
704.60 0.9711
704.70 0.9695
704.80 0.9679
704.90 0.9664
705.00 0.9648
705.10 0.9632
705.20 0.9617
705.30 0.9601
705.40 0.9585
705.50 0.957
705.60 0.9554
705.70 0.9538
705.80 0.9523
705.90 0.9507
706.00 0.9491
706.10 0.9476
706.20 0.946
706.30 0.9445
706.40 0.9429
706.50 0.9413
706.60 0.9398
706.70 0.9382
706.80 0.9367
706.90 0.9351
707.00 0.9336
707.10 0.932
707.20 0.9305
707.30 0.9289
707.40 0.9274
707.50 0.9258
707.60 0.9243
707.70 0.9227
707.80 0.9212
707.90 0.9196
708.00 0.9181
708.10 0.9165
708.20 0.915
708.30 0.9135
708.40 0.9119
708.50 0.9104
708.60 0.9088
708.70 0.9073
708.80 0.9058
708.90 0.9042
709.00 0.9027
709.10 0.9011
709.20 0.8996
709.30 0.8981
709.40 0.8965
709.50 0.895
709.60 0.8935
709.70 0.8919
709.80 0.8904
709.90 0.8889
710.00 0.8874
710.10 0.8859
710.20 0.8844
710.30 0.8829
710.40 0.8814
710.50 0.8799
710.60 0.8784
710.70 0.8769
710.80 0.8754
710.90 0.8739
711.00 0.8724
711.10 0.8709
711.20 0.8695
711.30 0.868
711.40 0.8665
711.50 0.865
711.60 0.8635
711.70 0.862
711.80 0.8605
711.90 0.8591
712.00 0.8576
712.10 0.8561
712.20 0.8546
712.30 0.8531
712.40 0.8517
712.50 0.8502
712.60 0.8487
712.70 0.8472
712.80 0.8458
712.90 0.8443
713.00 0.8428
713.10 0.8413
713.20 0.8399
713.30 0.8384
713.40 0.8369
713.50 0.8355
713.60 0.834
713.70 0.8325
713.80 0.8311
713.90 0.8296
714.00 0.8281
714.10 0.8267
714.20 0.8252
714.30 0.8237
714.40 0.8223
714.50 0.8208
714.60 0.8193
714.70 0.8179
714.80 0.8164
714.90 0.815
715.00 0.8135
715.10 0.8121
715.20 0.8107
715.30 0.8093
715.40 0.8079
715.50 0.8066
715.60 0.8052
715.70 0.8038
715.80 0.8024
715.90 0.801
716.00 0.7996
716.10 0.7982
716.20 0.7968
716.30 0.7955
716.40 0.7941
716.50 0.7927
716.60 0.7913
716.70 0.7899
716.80 0.7886
716.90 0.7872
717.00 0.7858
717.10 0.7844
717.20 0.783
717.30 0.7817
717.40 0.7803
717.50 0.7789
717.60 0.7775
717.70 0.7762
717.80 0.7748
717.90 0.7734
718.00 0.7721
718.10 0.7707
718.20 0.7693
718.30 0.7679
718.40 0.7666
718.50 0.7652
718.60 0.7638
718.70 0.7625
718.80 0.7611
718.90 0.7597
719.00 0.7584
719.10 0.757
719.20 0.7557
719.30 0.7543
719.40 0.7529
719.50 0.7516
719.60 0.7502
719.70 0.7489
719.80 0.7475
719.90 0.7461
720.00 0.7448
720.10 0.7435
720.20 0.7423
720.30 0.741
720.40 0.7398
720.50 0.7386
720.60 0.7373
720.70 0.7361
720.80 0.7348
720.90 0.7336
721.00 0.7324
721.10 0.7311
721.20 0.7299
721.30 0.7286
721.40 0.7274
721.50 0.7262
721.60 0.7249
721.70 0.7237
721.80 0.7225
721.90 0.7212
722.00 0.72
722.10 0.7188
722.20 0.7175
722.30 0.7163
722.40 0.7151
722.50 0.7138
722.60 0.7126
722.70 0.7114
722.80 0.7101
722.90 0.7089
723.00 0.7077
723.10 0.7065
723.20 0.7052
723.30 0.704
723.40 0.7028
723.50 0.7016
723.60 0.7003
723.70 0.6991
723.80 0.6979
723.90 0.6967
724.00 0.6955
724.10 0.6942
724.20 0.693
724.30 0.6918
724.40 0.6906
724.50 0.6894
724.60 0.6881
724.70 0.6869
724.80 0.6857
724.90 0.6845
725.00 0.6833
725.10 0.6822
725.20 0.6811
725.30 0.68
725.40 0.6789
725.50 0.6779
725.60 0.6768
725.70 0.6757
725.80 0.6746
725.90 0.6735
726.00 0.6724
726.10 0.6714
726.20 0.6703
726.30 0.6692
726.40 0.6681
726.50 0.667
726.60 0.666
726.70 0.6649
726.80 0.6638
726.90 0.6627
727.00 0.6617
727.10 0.6606
727.20 0.6595
727.30 0.6584
727.40 0.6574
727.50 0.6563
727.60 0.6552
727.70 0.6541
727.80 0.6531
727.90 0.652
728.00 0.6509
728.10 0.6499
728.20 0.6488
728.30 0.6477
728.40 0.6466
728.50 0.6456
728.60 0.6445
728.70 0.6434
728.80 0.6424
728.90 0.6413
729.00 0.6402
729.10 0.6392
729.20 0.6381
729.30 0.6371
729.40 0.636
729.50 0.6349
729.60 0.6339
729.70 0.6328
729.80 0.6317
729.90 0.6307
730.00 0.6296
730.10 0.6288
730.20 0.628
730.30 0.6272
730.40 0.6263
730.50 0.6255
730.60 0.6247
730.70 0.6239
730.80 0.6231
730.90 0.6222
731.00 0.6214
731.10 0.6206
731.20 0.6198
731.30 0.619
731.40 0.6182
731.50 0.6173
731.60 0.6165
731.70 0.6157
731.80 0.6149
731.90 0.6141
732.00 0.6133
732.10 0.6124
732.20 0.6116
732.30 0.6108
732.40 0.61
732.50 0.6092
732.60 0.6084
732.70 0.6076
732.80 0.6068
732.90 0.606
733.00 0.6051
733.10 0.6043
733.20 0.6035
733.30 0.6027
733.40 0.6019
733.50 0.6011
733.60 0.6003
733.70 0.5995
733.80 0.5987
733.90 0.5979
734.00 0.5971
734.10 0.5963
734.20 0.5955
734.30 0.5947
734.40 0.5938
734.50 0.593
734.60 0.5922
734.70 0.5914
734.80 0.5906
734.90 0.5898
735.00 0.589
735.10 0.5882
735.20 0.5874
735.30 0.5866
735.40 0.5858
735.50 0.585
735.60 0.5842
735.70 0.5834
735.80 0.5826
735.90 0.5818
736.00 0.581
736.10 0.5802
736.20 0.5794
736.30 0.5786
736.40 0.5779
736.50 0.5771
736.60 0.5763
736.70 0.5755
736.80 0.5747
736.90 0.5739
737.00 0.5731
737.10 0.5723
737.20 0.5715
737.30 0.5707
737.40 0.5699
737.50 0.5691
737.60 0.5683
737.70 0.5675
737.80 0.5668
737.90 0.566
738.00 0.5652
738.10 0.5644
738.20 0.5636
738.30 0.5628
738.40 0.562
738.50 0.5612
738.60 0.5604
738.70 0.5597
738.80 0.5589
738.90 0.5581
739.00 0.5573
739.10 0.5565
739.20 0.5557
739.30 0.5549
739.40 0.5542
739.50 0.5534
739.60 0.5526
739.70 0.5518
739.80 0.551
739.90 0.5503
740.00 0.5495
740.10 0.549
740.20 0.5485
740.30 0.5479
740.40 0.5474
740.50 0.5469
740.60 0.5464
740.70 0.5459
740.80 0.5454
740.90 0.5449
741.00 0.5444
741.10 0.5439
741.20 0.5434
741.30 0.5429
741.40 0.5424
741.50 0.5418
741.60 0.5413
741.70 0.5408
741.80 0.5403
741.90 0.5398
742.00 0.5393
742.10 0.5388
742.20 0.5383
742.30 0.5378
742.40 0.5373
742.50 0.5368
742.60 0.5363
742.70 0.5358
742.80 0.5353
742.90 0.5348
743.00 0.5343
743.10 0.5338
743.20 0.5333
743.30 0.5328
743.40 0.5323
743.50 0.5318
743.60 0.5313
743.70 0.5308
743.80 0.5303
743.90 0.5298
744.00 0.5293
744.10 0.5288
744.20 0.5283
744.30 0.5278
744.40 0.5273
744.50 0.5268
744.60 0.5263
744.70 0.5258
744.80 0.5253
744.90 0.5248
745.00 0.5243
745.10 0.5238
745.20 0.5233
745.30 0.5228
745.40 0.5223
745.50 0.5218
745.60 0.5213
745.70 0.5208
745.80 0.5203
745.90 0.5198
746.00 0.5193
746.10 0.5188
746.20 0.5183
746.30 0.5178
746.40 0.5173
746.50 0.5168
746.60 0.5163
746.70 0.5158
746.80 0.5153
746.90 0.5149
747.00 0.5144
747.10 0.5139
747.20 0.5134
747.30 0.5129
747.40 0.5124
747.50 0.5119
747.60 0.5114
747.70 0.5109
747.80 0.5104
747.90 0.5099
748.00 0.5094
748.10 0.509
748.20 0.5085
748.30 0.508
748.40 0.5075
748.50 0.507
748.60 0.5065
748.70 0.506
748.80 0.5055
748.90 0.505
749.00 0.5046
749.10 0.5041
749.20 0.5036
749.30 0.5031
749.40 0.5026
749.50 0.5021
749.60 0.5016
749.70 0.5011
749.80 0.5007
749.90 0.5002
750.00 0.4997
750.10 0.4994
750.20 0.499
750.30 0.4987
750.40 0.4984
750.50 0.498
750.60 0.4977
750.70 0.4974
750.80 0.497
750.90 0.4967
751.00 0.4964
751.10 0.4961
751.20 0.4957
751.30 0.4954
751.40 0.4951
751.50 0.4947
751.60 0.4944
751.70 0.4941
751.80 0.4938
751.90 0.4934
752.00 0.4931
752.10 0.4928
752.20 0.4925
752.30 0.4921
752.40 0.4918
752.50 0.4915
752.60 0.4911
752.70 0.4908
752.80 0.4905
752.90 0.4902
753.00 0.4898
753.10 0.4895
753.20 0.4892
753.30 0.4889
753.40 0.4885
753.50 0.4882
753.60 0.4879
753.70 0.4876
753.80 0.4872
753.90 0.4869
754.00 0.4866
754.10 0.4863
754.20 0.4859
754.30 0.4856
754.40 0.4853
754.50 0.485
754.60 0.4846
754.70 0.4843
754.80 0.484
754.90 0.4837
755.00 0.4834
755.10 0.483
755.20 0.4827
755.30 0.4824
755.40 0.4821
755.50 0.4817
755.60 0.4814
755.70 0.4811
755.80 0.4808
755.90 0.4805
756.00 0.4801
756.10 0.4798
756.20 0.4795
756.30 0.4792
756.40 0.4788
756.50 0.4785
756.60 0.4782
756.70 0.4779
756.80 0.4776
756.90 0.4772
757.00 0.4769
757.10 0.4766
757.20 0.4763
757.30 0.476
757.40 0.4756
757.50 0.4753
757.60 0.475
757.70 0.4747
757.80 0.4744
757.90 0.4741
758.00 0.4737
758.10 0.4734
758.20 0.4731
758.30 0.4728
758.40 0.4725
758.50 0.4721
758.60 0.4718
758.70 0.4715
758.80 0.4712
758.90 0.4709
759.00 0.4706
759.10 0.4702
759.20 0.4699
759.30 0.4696
759.40 0.4693
759.50 0.469
759.60 0.4687
759.70 0.4683
759.80 0.468
759.90 0.4677
760.00 0.4674
760.10 0.4672
760.20 0.4669
760.30 0.4667
760.40 0.4665
760.50 0.4663
760.60 0.466
760.70 0.4658
760.80 0.4656
760.90 0.4653
761.00 0.4651
761.10 0.4649
761.20 0.4647
761.30 0.4644
761.40 0.4642
761.50 0.464
761.60 0.4637
761.70 0.4635
761.80 0.4633
761.90 0.4631
762.00 0.4628
762.10 0.4626
762.20 0.4624
762.30 0.4621
762.40 0.4619
762.50 0.4617
762.60 0.4615
762.70 0.4612
762.80 0.461
762.90 0.4608
763.00 0.4606
763.10 0.4603
763.20 0.4601
763.30 0.4599
763.40 0.4596
763.50 0.4594
763.60 0.4592
763.70 0.459
763.80 0.4587
763.90 0.4585
764.00 0.4583
764.10 0.4581
764.20 0.4578
764.30 0.4576
764.40 0.4574
764.50 0.4572
764.60 0.4569
764.70 0.4567
764.80 0.4565
764.90 0.4563
765.00 0.456
765.10 0.4558
765.20 0.4556
765.30 0.4554
765.40 0.4551
765.50 0.4549
765.60 0.4547
765.70 0.4545
765.80 0.4542
765.90 0.454
766.00 0.4538
766.10 0.4536
766.20 0.4533
766.30 0.4531
766.40 0.4529
766.50 0.4527
766.60 0.4525
766.70 0.4522
766.80 0.452
766.90 0.4518
767.00 0.4516
767.10 0.4513
767.20 0.4511
767.30 0.4509
767.40 0.4507
767.50 0.4505
767.60 0.4502
767.70 0.45
767.80 0.4498
767.90 0.4496
768.00 0.4493
768.10 0.4491
768.20 0.4489
768.30 0.4487
768.40 0.4485
768.50 0.4482
768.60 0.448
768.70 0.4478
768.80 0.4476
768.90 0.4473
769.00 0.4471
769.10 0.4469
769.20 0.4467
769.30 0.4465
769.40 0.4462
769.50 0.446
769.60 0.4458
769.70 0.4456
769.80 0.4454
769.90 0.4451
770.00 0.4449
770.10 0.4448
770.20 0.4447
770.30 0.4446
770.40 0.4445
770.50 0.4443
770.60 0.4442
770.70 0.4441
770.80 0.444
770.90 0.4439
771.00 0.4438
771.10 0.4436
771.20 0.4435
771.30 0.4434
771.40 0.4433
771.50 0.4432
771.60 0.4431
771.70 0.443
771.80 0.4428
771.90 0.4427
772.00 0.4426
772.10 0.4425
772.20 0.4424
772.30 0.4423
772.40 0.4421
772.50 0.442
772.60 0.4419
772.70 0.4418
772.80 0.4417
772.90 0.4416
773.00 0.4415
773.10 0.4413
773.20 0.4412
773.30 0.4411
773.40 0.441
773.50 0.4409
773.60 0.4408
773.70 0.4406
773.80 0.4405
773.90 0.4404
774.00 0.4403
774.10 0.4402
774.20 0.4401
774.30 0.44
774.40 0.4398
774.50 0.4397
774.60 0.4396
774.70 0.4395
774.80 0.4394
774.90 0.4393
775.00 0.4392
775.10 0.439
775.20 0.4389
775.30 0.4388
775.40 0.4387
775.50 0.4386
775.60 0.4385
775.70 0.4384
775.80 0.4382
775.90 0.4381
776.00 0.438
776.10 0.4379
776.20 0.4378
776.30 0.4377
776.40 0.4376
776.50 0.4374
776.60 0.4373
776.70 0.4372
776.80 0.4371
776.90 0.437
777.00 0.4369
777.10 0.4368
777.20 0.4367
777.30 0.4365
777.40 0.4364
777.50 0.4363
777.60 0.4362
777.70 0.4361
777.80 0.436
777.90 0.4359
778.00 0.4357
778.10 0.4356
778.20 0.4355
778.30 0.4354
778.40 0.4353
778.50 0.4352
778.60 0.4351
778.70 0.435
778.80 0.4348
778.90 0.4347
779.00 0.4346
779.10 0.4345
779.20 0.4344
779.30 0.4343
779.40 0.4342
779.50 0.4341
779.60 0.4339
779.70 0.4338
779.80 0.4337
779.90 0.4336
780.00 0.4335
780.10 0.4335
780.20 0.4335
780.30 0.4336
780.40 0.4336
780.50 0.4336
780.60 0.4336
780.70 0.4336
780.80 0.4337
780.90 0.4337
781.00 0.4337
781.10 0.4337
781.20 0.4337
781.30 0.4338
781.40 0.4338
781.50 0.4338
781.60 0.4338
781.70 0.4338
781.80 0.4339
781.90 0.4339
782.00 0.4339
782.10 0.4339
782.20 0.4339
782.30 0.434
782.40 0.434
782.50 0.434
782.60 0.434
782.70 0.434
782.80 0.4341
782.90 0.4341
783.00 0.4341
783.10 0.4341
783.20 0.4341
783.30 0.4341
783.40 0.4342
783.50 0.4342
783.60 0.4342
783.70 0.4342
783.80 0.4342
783.90 0.4343
784.00 0.4343
784.10 0.4343
784.20 0.4343
784.30 0.4343
784.40 0.4344
784.50 0.4344
784.60 0.4344
784.70 0.4344
784.80 0.4344
784.90 0.4345
785.00 0.4345
785.10 0.4345
785.20 0.4345
785.30 0.4345
785.40 0.4346
785.50 0.4346
785.60 0.4346
785.70 0.4346
785.80 0.4346
785.90 0.4346
786.00 0.4347
786.10 0.4347
786.20 0.4347
786.30 0.4347
786.40 0.4347
786.50 0.4348
786.60 0.4348
786.70 0.4348
786.80 0.4348
786.90 0.4348
787.00 0.4349
787.10 0.4349
787.20 0.4349
787.30 0.4349
787.40 0.4349
787.50 0.4349
787.60 0.435
787.70 0.435
787.80 0.435
787.90 0.435
788.00 0.435
788.10 0.4351
788.20 0.4351
788.30 0.4351
788.40 0.4351
788.50 0.4351
788.60 0.4351
788.70 0.4352
788.80 0.4352
788.90 0.4352
789.00 0.4352
789.10 0.4352
789.20 0.4353
789.30 0.4353
789.40 0.4353
789.50 0.4353
789.60 0.4353
789.70 0.4353
789.80 0.4354
789.90 0.4354
790.00 0.4354
790.10 0.4355
790.20 0.4356
790.30 0.4356
790.40 0.4357
790.50 0.4358
790.60 0.4359
790.70 0.436
790.80 0.436
790.90 0.4361
791.00 0.4362
791.10 0.4363
791.20 0.4364
791.30 0.4364
791.40 0.4365
791.50 0.4366
791.60 0.4367
791.70 0.4367
791.80 0.4368
791.90 0.4369
792.00 0.437
792.10 0.4371
792.20 0.4371
792.30 0.4372
792.40 0.4373
792.50 0.4374
792.60 0.4375
792.70 0.4375
792.80 0.4376
792.90 0.4377
793.00 0.4378
793.10 0.4378
793.20 0.4379
793.30 0.438
793.40 0.4381
793.50 0.4382
793.60 0.4382
793.70 0.4383
793.80 0.4384
793.90 0.4385
794.00 0.4385
794.10 0.4386
794.20 0.4387
794.30 0.4388
794.40 0.4389
794.50 0.4389
794.60 0.439
794.70 0.4391
794.80 0.4392
794.90 0.4392
795.00 0.4393
795.10 0.4394
795.20 0.4395
795.30 0.4395
795.40 0.4396
795.50 0.4397
795.60 0.4398
795.70 0.4399
795.80 0.4399
795.90 0.44
796.00 0.4401
796.10 0.4402
796.20 0.4402
796.30 0.4403
796.40 0.4404
796.50 0.4405
796.60 0.4405
796.70 0.4406
796.80 0.4407
796.90 0.4408
797.00 0.4408
797.10 0.4409
797.20 0.441
797.30 0.4411
797.40 0.4411
797.50 0.4412
797.60 0.4413
797.70 0.4414
797.80 0.4414
797.90 0.4415
798.00 0.4416
798.10 0.4417
798.20 0.4417
798.30 0.4418
798.40 0.4419
798.50 0.442
798.60 0.4421
798.70 0.4421
798.80 0.4422
798.90 0.4423
799.00 0.4424
799.10 0.4424
799.20 0.4425
799.30 0.4426
799.40 0.4426
799.50 0.4427
799.60 0.4428
799.70 0.4429
799.80 0.4429
799.90 0.443
800.00 0.4431
800.10 0.4431
800.20 0.4431
800.30 0.4432
800.40 0.4432
800.50 0.4432
800.60 0.4432
800.70 0.4433
800.80 0.4433
800.90 0.4433
801.00 0.4433
801.10 0.4433
801.20 0.4434
801.30 0.4434
801.40 0.4434
801.50 0.4434
801.60 0.4435
801.70 0.4435
801.80 0.4435
801.90 0.4435
802.00 0.4436
802.10 0.4436
802.20 0.4436
802.30 0.4436
802.40 0.4436
802.50 0.4437
802.60 0.4437
802.70 0.4437
802.80 0.4437
802.90 0.4438
803.00 0.4438
803.10 0.4438
803.20 0.4438
803.30 0.4438
803.40 0.4439
803.50 0.4439
803.60 0.4439
803.70 0.4439
803.80 0.444
803.90 0.444
804.00 0.444
804.10 0.444
804.20 0.444
804.30 0.4441
804.40 0.4441
804.50 0.4441
804.60 0.4441
804.70 0.4442
804.80 0.4442
804.90 0.4442
805.00 0.4442
805.10 0.4442
805.20 0.4443
805.30 0.4443
805.40 0.4443
805.50 0.4443
805.60 0.4443
805.70 0.4444
805.80 0.4444
805.90 0.4444
806.00 0.4444
806.10 0.4445
806.20 0.4445
806.30 0.4445
806.40 0.4445
806.50 0.4445
806.60 0.4446
806.70 0.4446
806.80 0.4446
806.90 0.4446
807.00 0.4447
807.10 0.4447
807.20 0.4447
807.30 0.4447
807.40 0.4447
807.50 0.4448
807.60 0.4448
807.70 0.4448
807.80 0.4448
807.90 0.4448
808.00 0.4449
808.10 0.4449
808.20 0.4449
808.30 0.4449
808.40 0.4449
808.50 0.445
808.60 0.445
808.70 0.445
808.80 0.445
808.90 0.4451
809.00 0.4451
809.10 0.4451
809.20 0.4451
809.30 0.4451
809.40 0.4452
809.50 0.4452
809.60 0.4452
809.70 0.4452
809.80 0.4452
809.90 0.4453
810.00 0.4453
810.10 0.4452
810.20 0.4452
810.30 0.4451
810.40 0.4451
810.50 0.445
810.60 0.445
810.70 0.4449
810.80 0.4449
810.90 0.4448
811.00 0.4448
811.10 0.4447
811.20 0.4447
811.30 0.4446
811.40 0.4446
811.50 0.4445
811.60 0.4445
811.70 0.4444
811.80 0.4444
811.90 0.4443
812.00 0.4443
812.10 0.4442
812.20 0.4442
812.30 0.4442
812.40 0.4441
812.50 0.4441
812.60 0.444
812.70 0.444
812.80 0.4439
812.90 0.4439
813.00 0.4438
813.10 0.4438
813.20 0.4437
813.30 0.4437
813.40 0.4436
813.50 0.4436
813.60 0.4435
813.70 0.4435
813.80 0.4434
813.90 0.4434
814.00 0.4433
814.10 0.4433
814.20 0.4432
814.30 0.4432
814.40 0.4431
814.50 0.4431
814.60 0.443
814.70 0.443
814.80 0.4429
814.90 0.4429
815.00 0.4428
815.10 0.4428
815.20 0.4427
815.30 0.4427
815.40 0.4426
815.50 0.4426
815.60 0.4425
815.70 0.4425
815.80 0.4424
815.90 0.4424
816.00 0.4423
816.10 0.4423
816.20 0.4422
816.30 0.4422
816.40 0.4422
816.50 0.4421
816.60 0.4421
816.70 0.442
816.80 0.442
816.90 0.4419
817.00 0.4419
817.10 0.4418
817.20 0.4418
817.30 0.4417
817.40 0.4417
817.50 0.4416
817.60 0.4416
817.70 0.4415
817.80 0.4415
817.90 0.4414
818.00 0.4414
818.10 0.4413
818.20 0.4413
818.30 0.4412
818.40 0.4412
818.50 0.4411
818.60 0.4411
818.70 0.441
818.80 0.441
818.90 0.4409
819.00 0.4409
819.10 0.4408
819.20 0.4408
819.30 0.4407
819.40 0.4407
819.50 0.4406
819.60 0.4406
819.70 0.4406
819.80 0.4405
819.90 0.4405
820.00 0.4404
820.10 0.4404
820.20 0.4403
820.30 0.4402
820.40 0.4402
820.50 0.4401
820.60 0.4401
820.70 0.44
820.80 0.4399
820.90 0.4399
821.00 0.4398
821.10 0.4397
821.20 0.4397
821.30 0.4396
821.40 0.4396
821.50 0.4395
821.60 0.4394
821.70 0.4394
821.80 0.4393
821.90 0.4393
822.00 0.4392
822.10 0.4391
822.20 0.4391
822.30 0.439
822.40 0.4389
822.50 0.4389
822.60 0.4388
822.70 0.4387
822.80 0.4387
822.90 0.4386
823.00 0.4385
823.10 0.4385
823.20 0.4384
823.30 0.4383
823.40 0.4383
823.50 0.4382
823.60 0.4381
823.70 0.4381
823.80 0.438
823.90 0.438
824.00 0.4379
824.10 0.4378
824.20 0.4378
824.30 0.4377
824.40 0.4376
824.50 0.4376
824.60 0.4375
824.70 0.4374
824.80 0.4374
824.90 0.4373
825.00 0.4372
825.10 0.4372
825.20 0.4371
825.30 0.437
825.40 0.437
825.50 0.4369
825.60 0.4369
825.70 0.4368
825.80 0.4367
825.90 0.4367
826.00 0.4366
826.10 0.4365
826.20 0.4365
826.30 0.4364
826.40 0.4363
826.50 0.4363
826.60 0.4362
826.70 0.4361
826.80 0.4361
826.90 0.436
827.00 0.436
827.10 0.4359
827.20 0.4358
827.30 0.4358
827.40 0.4357
827.50 0.4356
827.60 0.4356
827.70 0.4355
827.80 0.4354
827.90 0.4354
828.00 0.4353
828.10 0.4352
828.20 0.4352
828.30 0.4351
828.40 0.4351
828.50 0.435
828.60 0.4349
828.70 0.4349
828.80 0.4348
828.90 0.4347
829.00 0.4347
829.10 0.4346
829.20 0.4345
829.30 0.4345
829.40 0.4344
829.50 0.4343
829.60 0.4343
829.70 0.4342
829.80 0.4342
829.90 0.4341
830.00 0.434
830.10 0.434
830.20 0.4339
830.30 0.4338
830.40 0.4338
830.50 0.4337
830.60 0.4336
830.70 0.4336
830.80 0.4335
830.90 0.4334
831.00 0.4334
831.10 0.4333
831.20 0.4333
831.30 0.4332
831.40 0.4331
831.50 0.4331
831.60 0.433
831.70 0.4329
831.80 0.4329
831.90 0.4328
832.00 0.4327
832.10 0.4327
832.20 0.4326
832.30 0.4326
832.40 0.4325
832.50 0.4324
832.60 0.4324
832.70 0.4323
832.80 0.4322
832.90 0.4322
833.00 0.4321
833.10 0.432
833.20 0.432
833.30 0.4319
833.40 0.4319
833.50 0.4318
833.60 0.4317
833.70 0.4317
833.80 0.4316
833.90 0.4315
834.00 0.4315
834.10 0.4314
834.20 0.4314
834.30 0.4313
834.40 0.4312
834.50 0.4312
834.60 0.4311
834.70 0.431
834.80 0.431
834.90 0.4309
835.00 0.4309
835.10 0.4308
835.20 0.4307
835.30 0.4307
835.40 0.4306
835.50 0.4305
835.60 0.4305
835.70 0.4304
835.80 0.4303
835.90 0.4303
836.00 0.4302
836.10 0.4302
836.20 0.4301
836.30 0.43
836.40 0.43
836.50 0.4299
836.60 0.4298
836.70 0.4298
836.80 0.4297
836.90 0.4297
837.00 0.4296
837.10 0.4295
837.20 0.4295
837.30 0.4294
837.40 0.4293
837.50 0.4293
837.60 0.4292
837.70 0.4291
837.80 0.4291
837.90 0.429
838.00 0.429
838.10 0.4289
838.20 0.4288
838.30 0.4288
838.40 0.4287
838.50 0.4286
838.60 0.4286
838.70 0.4285
838.80 0.4284
838.90 0.4284
839.00 0.4283
839.10 0.4282
839.20 0.4282
839.30 0.4281
839.40 0.4281
839.50 0.428
839.60 0.4279
839.70 0.4279
839.80 0.4278
839.90 0.4277
840.00 0.4277
840.10 0.4276
840.20 0.4275
840.30 0.4275
840.40 0.4274
840.50 0.4274
840.60 0.4273
840.70 0.4272
840.80 0.4272
840.90 0.4271
841.00 0.427
841.10 0.427
841.20 0.4269
841.30 0.4268
841.40 0.4268
841.50 0.4267
841.60 0.4266
841.70 0.4266
841.80 0.4265
841.90 0.4265
842.00 0.4264
842.10 0.4263
842.20 0.4263
842.30 0.4262
842.40 0.4261
842.50 0.4261
842.60 0.426
842.70 0.4259
842.80 0.4259
842.90 0.4258
843.00 0.4257
843.10 0.4257
843.20 0.4256
843.30 0.4255
843.40 0.4255
843.50 0.4254
843.60 0.4253
843.70 0.4253
843.80 0.4252
843.90 0.4251
844.00 0.4251
844.10 0.425
844.20 0.425
844.30 0.4249
844.40 0.4248
844.50 0.4248
844.60 0.4247
844.70 0.4246
844.80 0.4246
844.90 0.4245
845.00 0.4244
845.10 0.4244
845.20 0.4243
845.30 0.4242
845.40 0.4242
845.50 0.4241
845.60 0.424
845.70 0.424
845.80 0.4239
845.90 0.4238
846.00 0.4238
846.10 0.4237
846.20 0.4237
846.30 0.4236
846.40 0.4235
846.50 0.4235
846.60 0.4234
846.70 0.4233
846.80 0.4233
846.90 0.4232
847.00 0.4231
847.10 0.4231
847.20 0.423
847.30 0.4229
847.40 0.4228
847.50 0.4228
847.60 0.4227
847.70 0.4226
847.80 0.4226
847.90 0.4225
848.00 0.4224
848.10 0.4223
848.20 0.4223
848.30 0.4222
848.40 0.4221
848.50 0.4221
848.60 0.422
848.70 0.4219
848.80 0.4218
848.90 0.4218
849.00 0.4217
849.10 0.4216
849.20 0.4216
849.30 0.4215
849.40 0.4214
849.50 0.4213
849.60 0.4213
849.70 0.4212
849.80 0.4211
849.90 0.4211
850.00 0.421
850.10 0.4209
850.20 0.4209
850.30 0.4208
850.40 0.4207
850.50 0.4206
850.60 0.4206
850.70 0.4205
850.80 0.4204
850.90 0.4204
851.00 0.4203
851.10 0.4202
851.20 0.4201
851.30 0.4201
851.40 0.42
851.50 0.4199
851.60 0.4199
851.70 0.4198
851.80 0.4197
851.90 0.4196
852.00 0.4196
852.10 0.4195
852.20 0.4194
852.30 0.4193
852.40 0.4193
852.50 0.4192
852.60 0.4191
852.70 0.419
852.80 0.419
852.90 0.4189
853.00 0.4188
853.10 0.4187
853.20 0.4186
853.30 0.4186
853.40 0.4185
853.50 0.4184
853.60 0.4183
853.70 0.4183
853.80 0.4182
853.90 0.4181
854.00 0.418
854.10 0.4179
854.20 0.4179
854.30 0.4178
854.40 0.4177
854.50 0.4176
854.60 0.4176
854.70 0.4175
854.80 0.4174
854.90 0.4173
855.00 0.4173
855.10 0.4172
855.20 0.4171
855.30 0.417
855.40 0.4169
855.50 0.4169
855.60 0.4168
855.70 0.4167
855.80 0.4166
855.90 0.4166
856.00 0.4165
856.10 0.4164
856.20 0.4163
856.30 0.4163
856.40 0.4162
856.50 0.4161
856.60 0.416
856.70 0.4159
856.80 0.4159
856.90 0.4158
857.00 0.4157
857.10 0.4156
857.20 0.4155
857.30 0.4155
857.40 0.4154
857.50 0.4153
857.60 0.4152
857.70 0.4151
857.80 0.415
857.90 0.415
858.00 0.4149
858.10 0.4148
858.20 0.4147
858.30 0.4146
858.40 0.4145
858.50 0.4145
858.60 0.4144
858.70 0.4143
858.80 0.4142
858.90 0.4141
859.00 0.4141
859.10 0.414
859.20 0.4139
859.30 0.4138
859.40 0.4137
859.50 0.4136
859.60 0.4136
859.70 0.4135
859.80 0.4134
859.90 0.4133
860.00 0.4132
860.10 0.4131
860.20 0.4131
860.30 0.413
860.40 0.4129
860.50 0.4128
860.60 0.4127
860.70 0.4126
860.80 0.4126
860.90 0.4125
861.00 0.4124
861.10 0.4123
861.20 0.4122
861.30 0.4122
861.40 0.4121
861.50 0.412
861.60 0.4119
861.70 0.4118
861.80 0.4117
861.90 0.4117
862.00 0.4116
862.10 0.4115
862.20 0.4114
862.30 0.4113
862.40 0.4112
862.50 0.4111
862.60 0.411
862.70 0.411
862.80 0.4109
862.90 0.4108
863.00 0.4107
863.10 0.4106
863.20 0.4105
863.30 0.4104
863.40 0.4103
863.50 0.4102
863.60 0.4102
863.70 0.4101
863.80 0.41
863.90 0.4099
864.00 0.4098
864.10 0.4097
864.20 0.4096
864.30 0.4095
864.40 0.4094
864.50 0.4094
864.60 0.4093
864.70 0.4092
864.80 0.4091
864.90 0.409
865.00 0.4089
865.10 0.4088
865.20 0.4087
865.30 0.4087
865.40 0.4086
865.50 0.4085
865.60 0.4084
865.70 0.4083
865.80 0.4082
865.90 0.4081
866.00 0.408
866.10 0.4079
866.20 0.4079
866.30 0.4078
866.40 0.4077
866.50 0.4076
866.60 0.4075
866.70 0.4074
866.80 0.4073
866.90 0.4072
867.00 0.4072
867.10 0.407
867.20 0.4069
867.30 0.4068
867.40 0.4067
867.50 0.4066
867.60 0.4065
867.70 0.4064
867.80 0.4063
867.90 0.4062
868.00 0.4061
868.10 0.406
868.20 0.4059
868.30 0.4058
868.40 0.4057
868.50 0.4055
868.60 0.4054
868.70 0.4053
868.80 0.4052
868.90 0.4051
869.00 0.405
869.10 0.4049
869.20 0.4048
869.30 0.4047
869.40 0.4046
869.50 0.4045
869.60 0.4044
869.70 0.4043
869.80 0.4042
869.90 0.4041
870.00 0.4039
870.10 0.4038
870.20 0.4037
870.30 0.4036
870.40 0.4035
870.50 0.4034
870.60 0.4033
870.70 0.4032
870.80 0.4031
870.90 0.403
871.00 0.4029
871.10 0.4028
871.20 0.4027
871.30 0.4026
871.40 0.4025
871.50 0.4024
871.60 0.4022
871.70 0.4021
871.80 0.402
871.90 0.4019
872.00 0.4018
872.10 0.4017
872.20 0.4016
872.30 0.4015
872.40 0.4013
872.50 0.4012
872.60 0.4011
872.70 0.401
872.80 0.4008
872.90 0.4007
873.00 0.4006
873.10 0.4005
873.20 0.4003
873.30 0.4002
873.40 0.4001
873.50 0.4
873.60 0.3998
873.70 0.3997
873.80 0.3996
873.90 0.3995
874.00 0.3994
874.10 0.3992
874.20 0.3991
874.30 0.399
874.40 0.3989
874.50 0.3987
874.60 0.3986
874.70 0.3985
874.80 0.3984
874.90 0.3982
875.00 0.3981
875.10 0.398
875.20 0.3979
875.30 0.3978
875.40 0.3976
875.50 0.3975
875.60 0.3974
875.70 0.3973
875.80 0.3971
875.90 0.397
876.00 0.3969
876.10 0.3968
876.20 0.3966
876.30 0.3965
876.40 0.3964
876.50 0.3963
876.60 0.3962
876.70 0.396
876.80 0.3959
876.90 0.3958
877.00 0.3957
877.10 0.3955
877.20 0.3954
877.30 0.3952
877.40 0.3951
877.50 0.3949
877.60 0.3948
877.70 0.3946
877.80 0.3945
877.90 0.3943
878.00 0.3942
878.10 0.394
878.20 0.3939
878.30 0.3938
878.40 0.3936
878.50 0.3935
878.60 0.3933
878.70 0.3932
878.80 0.393
878.90 0.3929
879.00 0.3927
879.10 0.3926
879.20 0.3924
879.30 0.3923
879.40 0.3921
879.50 0.392
879.60 0.3918
879.70 0.3917
879.80 0.3915
879.90 0.3914
880.00 0.3913
880.10 0.3911
880.20 0.391
880.30 0.3908
880.40 0.3907
880.50 0.3905
880.60 0.3904
880.70 0.3902
880.80 0.3901
880.90 0.3899
881.00 0.3898
881.10 0.3896
881.20 0.3895
881.30 0.3894
881.40 0.3892
881.50 0.3891
881.60 0.3889
881.70 0.3888
881.80 0.3886
881.90 0.3885
882.00 0.3883
882.10 0.3882
882.20 0.388
882.30 0.3878
882.40 0.3877
882.50 0.3875
882.60 0.3873
882.70 0.3871
882.80 0.387
882.90 0.3868
883.00 0.3866
883.10 0.3865
883.20 0.3863
883.30 0.3861
883.40 0.3859
883.50 0.3858
883.60 0.3856
883.70 0.3854
883.80 0.3853
883.90 0.3851
884.00 0.3849
884.10 0.3848
884.20 0.3846
884.30 0.3844
884.40 0.3842
884.50 0.3841
884.60 0.3839
884.70 0.3837
884.80 0.3836
884.90 0.3834
885.00 0.3832
885.10 0.3831
885.20 0.3829
885.30 0.3827
885.40 0.3826
885.50 0.3824
885.60 0.3822
885.70 0.3821
885.80 0.3819
885.90 0.3817
886.00 0.3815
886.10 0.3814
886.20 0.3812
886.30 0.381
886.40 0.3809
886.50 0.3807
886.60 0.3805
886.70 0.3804
886.80 0.3802
886.90 0.38
887.00 0.3799
887.10 0.3797
887.20 0.3795
887.30 0.3793
887.40 0.3791
887.50 0.3789
887.60 0.3787
887.70 0.3785
887.80 0.3783
887.90 0.3781
888.00 0.378
888.10 0.3778
888.20 0.3776
888.30 0.3774
888.40 0.3772
888.50 0.377
888.60 0.3768
888.70 0.3766
888.80 0.3764
888.90 0.3762
889.00 0.3761
889.10 0.3759
889.20 0.3757
889.30 0.3755
889.40 0.3753
889.50 0.3751
889.60 0.3749
889.70 0.3747
889.80 0.3745
889.90 0.3744
890.00 0.3742
890.10 0.374
890.20 0.3738
890.30 0.3736
890.40 0.3734
890.50 0.3732
890.60 0.373
890.70 0.3728
890.80 0.3727
890.90 0.3725
891.00 0.3723
891.10 0.3721
891.20 0.3719
891.30 0.3717
891.40 0.3715
891.50 0.3713
891.60 0.3712
891.70 0.371
891.80 0.3708
891.90 0.3706
892.00 0.3704
892.10 0.3702
892.20 0.37
892.30 0.3698
892.40 0.3695
892.50 0.3693
892.60 0.3691
892.70 0.3689
892.80 0.3687
892.90 0.3685
893.00 0.3682
893.10 0.368
893.20 0.3678
893.30 0.3676
893.40 0.3674
893.50 0.3672
893.60 0.3669
893.70 0.3667
893.80 0.3665
893.90 0.3663
894.00 0.3661
894.10 0.3659
894.20 0.3657
894.30 0.3654
894.40 0.3652
894.50 0.365
894.60 0.3648
894.70 0.3646
894.80 0.3644
894.90 0.3642
895.00 0.3639
895.10 0.3637
895.20 0.3635
895.30 0.3633
895.40 0.3631
895.50 0.3629
895.60 0.3627
895.70 0.3624
895.80 0.3622
895.90 0.362
896.00 0.3618
896.10 0.3616
896.20 0.3614
896.30 0.3612
896.40 0.3609
896.50 0.3607
896.60 0.3605
896.70 0.3603
896.80 0.3601
896.90 0.3599
897.00 0.3597
897.10 0.3594
897.20 0.3592
897.30 0.359
897.40 0.3588
897.50 0.3585
897.60 0.3583
897.70 0.3581
897.80 0.3579
897.90 0.3576
898.00 0.3574
898.10 0.3572
898.20 0.357
898.30 0.3567
898.40 0.3565
898.50 0.3563
898.60 0.3561
898.70 0.3558
898.80 0.3556
898.90 0.3554
899.00 0.3552
899.10 0.3549
899.20 0.3547
899.30 0.3545
899.40 0.3543
899.50 0.354
899.60 0.3538
899.70 0.3536
899.80 0.3534
899.90 0.3531
900.00 0.3529
900.10 0.3527
900.20 0.3525
900.30 0.3522
900.40 0.352
900.50 0.3518
900.60 0.3516
900.70 0.3514
900.80 0.3511
900.90 0.3509
901.00 0.3507
901.10 0.3505
901.20 0.3502
901.30 0.35
901.40 0.3498
901.50 0.3496
901.60 0.3494
901.70 0.3491
901.80 0.3489
901.90 0.3487
902.00 0.3485
902.10 0.3482
902.20 0.348
902.30 0.3478
902.40 0.3475
902.50 0.3473
902.60 0.3471
902.70 0.3469
902.80 0.3466
902.90 0.3464
903.00 0.3462
903.10 0.3459
903.20 0.3457
903.30 0.3455
903.40 0.3453
903.50 0.345
903.60 0.3448
903.70 0.3446
903.80 0.3444
903.90 0.3441
904.00 0.3439
904.10 0.3437
904.20 0.3434
904.30 0.3432
904.40 0.343
904.50 0.3428
904.60 0.3425
904.70 0.3423
904.80 0.3421
904.90 0.3419
905.00 0.3416
905.10 0.3414
905.20 0.3412
905.30 0.341
905.40 0.3407
905.50 0.3405
905.60 0.3403
905.70 0.3401
905.80 0.3398
905.90 0.3396
906.00 0.3394
906.10 0.3391
906.20 0.3389
906.30 0.3387
906.40 0.3385
906.50 0.3382
906.60 0.338
906.70 0.3378
906.80 0.3376
906.90 0.3373
907.00 0.3371
907.10 0.3369
907.20 0.3366
907.30 0.3364
907.40 0.3361
907.50 0.3359
907.60 0.3356
907.70 0.3353
907.80 0.3351
907.90 0.3348
908.00 0.3346
908.10 0.3343
908.20 0.3341
908.30 0.3338
908.40 0.3336
908.50 0.3333
908.60 0.3331
908.70 0.3328
908.80 0.3326
908.90 0.3323
909.00 0.3321
909.10 0.3318
909.20 0.3316
909.30 0.3313
909.40 0.331
909.50 0.3308
909.60 0.3305
909.70 0.3303
909.80 0.33
909.90 0.3298
910.00 0.3295
910.10 0.3293
910.20 0.329
910.30 0.3288
910.40 0.3285
910.50 0.3283
910.60 0.328
910.70 0.3278
910.80 0.3275
910.90 0.3273
911.00 0.327
911.10 0.3268
911.20 0.3265
911.30 0.3263
911.40 0.326
911.50 0.3258
911.60 0.3255
911.70 0.3253
911.80 0.325
911.90 0.3248
912.00 0.3245
912.10 0.3243
912.20 0.324
912.30 0.3237
912.40 0.3234
912.50 0.3232
912.60 0.3229
912.70 0.3226
912.80 0.3223
912.90 0.3221
913.00 0.3218
913.10 0.3215
913.20 0.3213
913.30 0.321
913.40 0.3207
913.50 0.3204
913.60 0.3202
913.70 0.3199
913.80 0.3196
913.90 0.3194
914.00 0.3191
914.10 0.3188
914.20 0.3185
914.30 0.3183
914.40 0.318
914.50 0.3177
914.60 0.3175
914.70 0.3172
914.80 0.3169
914.90 0.3167
915.00 0.3164
915.10 0.3161
915.20 0.3158
915.30 0.3156
915.40 0.3153
915.50 0.315
915.60 0.3148
915.70 0.3145
915.80 0.3142
915.90 0.314
916.00 0.3137
916.10 0.3134
916.20 0.3132
916.30 0.3129
916.40 0.3126
916.50 0.3123
916.60 0.3121
916.70 0.3118
916.80 0.3115
916.90 0.3113
917.00 0.311
917.10 0.3107
917.20 0.3105
917.30 0.3102
917.40 0.3099
917.50 0.3096
917.60 0.3093
917.70 0.3091
917.80 0.3088
917.90 0.3085
918.00 0.3082
918.10 0.308
918.20 0.3077
918.30 0.3074
918.40 0.3071
918.50 0.3069
918.60 0.3066
918.70 0.3063
918.80 0.306
918.90 0.3057
919.00 0.3055
919.10 0.3052
919.20 0.3049
919.30 0.3046
919.40 0.3044
919.50 0.3041
919.60 0.3038
919.70 0.3035
919.80 0.3033
919.90 0.303
920.00 0.3027
920.10 0.3024
920.20 0.3022
920.30 0.3019
920.40 0.3016
920.50 0.3014
920.60 0.3011
920.70 0.3008
920.80 0.3005
920.90 0.3003
921.00 0.3
921.10 0.2997
921.20 0.2994
921.30 0.2992
921.40 0.2989
921.50 0.2986
921.60 0.2983
921.70 0.2981
921.80 0.2978
921.90 0.2975
922.00 0.2973
922.10 0.297
922.20 0.2967
922.30 0.2964
922.40 0.2961
922.50 0.2958
922.60 0.2956
922.70 0.2953
922.80 0.295
922.90 0.2947
923.00 0.2944
923.10 0.2941
923.20 0.2939
923.30 0.2936
923.40 0.2933
923.50 0.293
923.60 0.2927
923.70 0.2925
923.80 0.2922
923.90 0.2919
924.00 0.2916
924.10 0.2913
924.20 0.291
924.30 0.2908
924.40 0.2905
924.50 0.2902
924.60 0.2899
924.70 0.2896
924.80 0.2894
924.90 0.2891
925.00 0.2888
925.10 0.2885
925.20 0.2882
925.30 0.288
925.40 0.2877
925.50 0.2874
925.60 0.2871
925.70 0.2868
925.80 0.2866
925.90 0.2863
926.00 0.286
926.10 0.2857
926.20 0.2854
926.30 0.2852
926.40 0.2849
926.50 0.2846
926.60 0.2843
926.70 0.2841
926.80 0.2838
926.90 0.2835
927.00 0.2832
927.10 0.2829
927.20 0.2826
927.30 0.2824
927.40 0.2821
927.50 0.2818
927.60 0.2815
927.70 0.2812
927.80 0.2809
927.90 0.2806
928.00 0.2803
928.10 0.2801
928.20 0.2798
928.30 0.2795
928.40 0.2792
928.50 0.2789
928.60 0.2786
928.70 0.2783
928.80 0.2781
928.90 0.2778
929.00 0.2775
929.10 0.2772
929.20 0.2769
929.30 0.2766
929.40 0.2763
929.50 0.2761
929.60 0.2758
929.70 0.2755
929.80 0.2752
929.90 0.2749
930.00 0.2746
930.10 0.2744
930.20 0.2741
930.30 0.2738
930.40 0.2735
930.50 0.2732
930.60 0.2729
930.70 0.2727
930.80 0.2724
930.90 0.2721
931.00 0.2718
931.10 0.2715
931.20 0.2712
931.30 0.271
931.40 0.2707
931.50 0.2704
931.60 0.2701
931.70 0.2698
931.80 0.2695
931.90 0.2693
932.00 0.269
932.10 0.2687
932.20 0.2684
932.30 0.2681
932.40 0.2678
932.50 0.2676
932.60 0.2673
932.70 0.267
932.80 0.2667
932.90 0.2664
933.00 0.2661
933.10 0.2658
933.20 0.2656
933.30 0.2653
933.40 0.265
933.50 0.2647
933.60 0.2644
933.70 0.2641
933.80 0.2639
933.90 0.2636
934.00 0.2633
934.10 0.263
934.20 0.2627
934.30 0.2624
934.40 0.2622
934.50 0.2619
934.60 0.2616
934.70 0.2613
934.80 0.261
934.90 0.2607
935.00 0.2605
935.10 0.2602
935.20 0.2599
935.30 0.2596
935.40 0.2593
935.50 0.259
935.60 0.2588
935.70 0.2585
935.80 0.2582
935.90 0.2579
936.00 0.2576
936.10 0.2573
936.20 0.2571
936.30 0.2568
936.40 0.2565
936.50 0.2562
936.60 0.2559
936.70 0.2556
936.80 0.2554
936.90 0.2551
937.00 0.2548
937.10 0.2545
937.20 0.2542
937.30 0.254
937.40 0.2537
937.50 0.2534
937.60 0.2531
937.70 0.2528
937.80 0.2525
937.90 0.2523
938.00 0.252
938.10 0.2517
938.20 0.2514
938.30 0.2511
938.40 0.2508
938.50 0.2506
938.60 0.2503
938.70 0.25
938.80 0.2497
938.90 0.2494
939.00 0.2491
939.10 0.2488
939.20 0.2486
939.30 0.2483
939.40 0.248
939.50 0.2477
939.60 0.2474
939.70 0.2471
939.80 0.2469
939.90 0.2466
940.00 0.2463
940.10 0.246
940.20 0.2457
940.30 0.2454
940.40 0.2452
940.50 0.2449
940.60 0.2446
940.70 0.2443
940.80 0.244
940.90 0.2438
941.00 0.2435
941.10 0.2432
941.20 0.2429
941.30 0.2426
941.40 0.2424
941.50 0.2421
941.60 0.2418
941.70 0.2415
941.80 0.2412
941.90 0.241
942.00 0.2407
942.10 0.2404
942.20 0.2401
942.30 0.2399
942.40 0.2396
942.50 0.2393
942.60 0.239
942.70 0.2387
942.80 0.2385
942.90 0.2382
943.00 0.2379
943.10 0.2376
943.20 0.2374
943.30 0.2371
943.40 0.2368
943.50 0.2365
943.60 0.2362
943.70 0.236
943.80 0.2357
943.90 0.2354
944.00 0.2351
944.10 0.2349
944.20 0.2346
944.30 0.2343
944.40 0.234
944.50 0.2338
944.60 0.2335
944.70 0.2332
944.80 0.2329
944.90 0.2327
945.00 0.2324
945.10 0.2321
945.20 0.2318
945.30 0.2316
945.40 0.2313
945.50 0.231
945.60 0.2307
945.70 0.2305
945.80 0.2302
945.90 0.2299
946.00 0.2296
946.10 0.2294
946.20 0.2291
946.30 0.2288
946.40 0.2286
946.50 0.2283
946.60 0.228
946.70 0.2277
946.80 0.2275
946.90 0.2272
947.00 0.2269
947.10 0.2266
947.20 0.2264
947.30 0.2261
947.40 0.2258
947.50 0.2255
947.60 0.2253
947.70 0.225
947.80 0.2247
947.90 0.2245
948.00 0.2242
948.10 0.2239
948.20 0.2236
948.30 0.2234
948.40 0.2231
948.50 0.2228
948.60 0.2225
948.70 0.2223
948.80 0.222
948.90 0.2217
949.00 0.2215
949.10 0.2212
949.20 0.2209
949.30 0.2206
949.40 0.2204
949.50 0.2201
949.60 0.2198
949.70 0.2196
949.80 0.2193
949.90 0.219
950.00 0.2188
950.10 0.2185
950.20 0.2182
950.30 0.218
950.40 0.2177
950.50 0.2174
950.60 0.2172
950.70 0.2169
950.80 0.2166
950.90 0.2164
951.00 0.2161
951.10 0.2158
951.20 0.2156
951.30 0.2153
951.40 0.215
951.50 0.2148
951.60 0.2145
951.70 0.2142
951.80 0.214
951.90 0.2137
952.00 0.2134
952.10 0.2132
952.20 0.2129
952.30 0.2126
952.40 0.2124
952.50 0.2121
952.60 0.2119
952.70 0.2116
952.80 0.2113
952.90 0.2111
953.00 0.2108
953.10 0.2105
953.20 0.2103
953.30 0.21
953.40 0.2097
953.50 0.2095
953.60 0.2092
953.70 0.209
953.80 0.2087
953.90 0.2084
954.00 0.2082
954.10 0.2079
954.20 0.2077
954.30 0.2074
954.40 0.2071
954.50 0.2069
954.60 0.2066
954.70 0.2064
954.80 0.2061
954.90 0.2058
955.00 0.2056
955.10 0.2053
955.20 0.2051
955.30 0.2048
955.40 0.2045
955.50 0.2043
955.60 0.204
955.70 0.2038
955.80 0.2035
955.90 0.2032
956.00 0.203
956.10 0.2027
956.20 0.2024
956.30 0.2022
956.40 0.2019
956.50 0.2017
956.60 0.2014
956.70 0.2011
956.80 0.2009
956.90 0.2006
957.00 0.2003
957.10 0.2001
957.20 0.1998
957.30 0.1996
957.40 0.1993
957.50 0.1991
957.60 0.1988
957.70 0.1986
957.80 0.1983
957.90 0.1981
958.00 0.1978
958.10 0.1976
958.20 0.1973
958.30 0.197
958.40 0.1968
958.50 0.1965
958.60 0.1963
958.70 0.196
958.80 0.1958
958.90 0.1955
959.00 0.1953
959.10 0.195
959.20 0.1948
959.30 0.1945
959.40 0.1943
959.50 0.194
959.60 0.1938
959.70 0.1935
959.80 0.1933
959.90 0.193
960.00 0.1928
960.10 0.1925
960.20 0.1923
960.30 0.192
960.40 0.1918
960.50 0.1915
960.60 0.1913
960.70 0.191
960.80 0.1908
960.90 0.1905
961.00 0.1903
961.10 0.19
961.20 0.1898
961.30 0.1895
961.40 0.1893
961.50 0.1891
961.60 0.1888
961.70 0.1886
961.80 0.1883
961.90 0.1881
962.00 0.1878
962.10 0.1876
962.20 0.1873
962.30 0.1871
962.40 0.1869
962.50 0.1866
962.60 0.1864
962.70 0.1861
962.80 0.1859
962.90 0.1856
963.00 0.1854
963.10 0.1852
963.20 0.1849
963.30 0.1847
963.40 0.1844
963.50 0.1842
963.60 0.184
963.70 0.1837
963.80 0.1835
963.90 0.1832
964.00 0.183
964.10 0.1827
964.20 0.1825
964.30 0.1823
964.40 0.182
964.50 0.1818
964.60 0.1815
964.70 0.1813
964.80 0.181
964.90 0.1808
965.00 0.1806
965.10 0.1803
965.20 0.1801
965.30 0.1798
965.40 0.1796
965.50 0.1793
965.60 0.1791
965.70 0.1789
965.80 0.1786
965.90 0.1784
966.00 0.1781
966.10 0.1779
966.20 0.1777
966.30 0.1774
966.40 0.1772
966.50 0.1769
966.60 0.1767
966.70 0.1765
966.80 0.1762
966.90 0.176
967.00 0.1758
967.10 0.1755
967.20 0.1753
967.30 0.1751
967.40 0.1749
967.50 0.1746
967.60 0.1744
967.70 0.1742
967.80 0.1739
967.90 0.1737
968.00 0.1735
968.10 0.1732
968.20 0.173
968.30 0.1728
968.40 0.1726
968.50 0.1723
968.60 0.1721
968.70 0.1719
968.80 0.1716
968.90 0.1714
969.00 0.1712
969.10 0.171
969.20 0.1707
969.30 0.1705
969.40 0.1703
969.50 0.1701
969.60 0.1698
969.70 0.1696
969.80 0.1694
969.90 0.1692
970.00 0.1689
970.10 0.1687
970.20 0.1685
970.30 0.1683
970.40 0.168
970.50 0.1678
970.60 0.1676
970.70 0.1674
970.80 0.1671
970.90 0.1669
971.00 0.1667
971.10 0.1665
971.20 0.1663
971.30 0.166
971.40 0.1658
971.50 0.1656
971.60 0.1654
971.70 0.1652
971.80 0.1649
971.90 0.1647
972.00 0.1645
972.10 0.1643
972.20 0.1641
972.30 0.1639
972.40 0.1636
972.50 0.1634
972.60 0.1632
972.70 0.163
972.80 0.1628
972.90 0.1626
973.00 0.1623
973.10 0.1621
973.20 0.1619
973.30 0.1617
973.40 0.1615
973.50 0.1613
973.60 0.1611
973.70 0.1608
973.80 0.1606
973.90 0.1604
974.00 0.1602
974.10 0.16
974.20 0.1598
974.30 0.1596
974.40 0.1593
974.50 0.1591
974.60 0.1589
974.70 0.1587
974.80 0.1585
974.90 0.1583
975.00 0.1581
975.10 0.1579
975.20 0.1576
975.30 0.1574
975.40 0.1572
975.50 0.157
975.60 0.1568
975.70 0.1566
975.80 0.1564
975.90 0.1562
976.00 0.156
976.10 0.1558
976.20 0.1555
976.30 0.1553
976.40 0.1551
976.50 0.1549
976.60 0.1547
976.70 0.1545
976.80 0.1543
976.90 0.1541
977.00 0.1539
977.10 0.1537
977.20 0.1535
977.30 0.1533
977.40 0.1531
977.50 0.1529
977.60 0.1527
977.70 0.1525
977.80 0.1523
977.90 0.1521
978.00 0.1519
978.10 0.1517
978.20 0.1515
978.30 0.1513
978.40 0.1511
978.50 0.1509
978.60 0.1507
978.70 0.1505
978.80 0.1503
978.90 0.1501
979.00 0.1499
979.10 0.1497
979.20 0.1495
979.30 0.1493
979.40 0.1491
979.50 0.1489
979.60 0.1487
979.70 0.1485
979.80 0.1483
979.90 0.1481
980.00 0.1479
980.10 0.1477
980.20 0.1475
980.30 0.1473
980.40 0.1471
980.50 0.1469
980.60 0.1467
980.70 0.1465
980.80 0.1463
980.90 0.1461
981.00 0.1459
981.10 0.1457
981.20 0.1456
981.30 0.1454
981.40 0.1452
981.50 0.145
981.60 0.1448
981.70 0.1446
981.80 0.1444
981.90 0.1442
982.00 0.144
982.10 0.1438
982.20 0.1436
982.30 0.1434
982.40 0.1432
982.50 0.143
982.60 0.1429
982.70 0.1427
982.80 0.1425
982.90 0.1423
983.00 0.1421
983.10 0.1419
983.20 0.1417
983.30 0.1415
983.40 0.1414
983.50 0.1412
983.60 0.141
983.70 0.1408
983.80 0.1406
983.90 0.1404
984.00 0.1402
984.10 0.1401
984.20 0.1399
984.30 0.1397
984.40 0.1395
984.50 0.1393
984.60 0.1391
984.70 0.1389
984.80 0.1388
984.90 0.1386
985.00 0.1384
985.10 0.1382
985.20 0.1381
985.30 0.1379
985.40 0.1377
985.50 0.1375
985.60 0.1374
985.70 0.1372
985.80 0.137
985.90 0.1369
986.00 0.1367
986.10 0.1365
986.20 0.1363
986.30 0.1362
986.40 0.136
986.50 0.1358
986.60 0.1356
986.70 0.1355
986.80 0.1353
986.90 0.1351
987.00 0.1349
987.10 0.1348
987.20 0.1346
987.30 0.1344
987.40 0.1342
987.50 0.134
987.60 0.1339
987.70 0.1337
987.80 0.1335
987.90 0.1333
988.00 0.1331
988.10 0.133
988.20 0.1328
988.30 0.1326
988.40 0.1324
988.50 0.1322
988.60 0.1321
988.70 0.1319
988.80 0.1317
988.90 0.1315
989.00 0.1313
989.10 0.1312
989.20 0.131
989.30 0.1308
989.40 0.1306
989.50 0.1305
989.60 0.1303
989.70 0.1301
989.80 0.1299
989.90 0.1297
990.00 0.1296
990.10 0.1294
990.20 0.1292
990.30 0.129
990.40 0.1288
990.50 0.1287
990.60 0.1285
990.70 0.1283
990.80 0.1281
990.90 0.128
991.00 0.1278
991.10 0.1276
991.20 0.1274
991.30 0.1273
991.40 0.1271
991.50 0.1269
991.60 0.1267
991.70 0.1265
991.80 0.1264
991.90 0.1262
992.00 0.126
992.10 0.1258
992.20 0.1257
992.30 0.1255
992.40 0.1253
992.50 0.1251
992.60 0.125
992.70 0.1248
992.80 0.1246
992.90 0.1244
993.00 0.1243
993.10 0.1241
993.20 0.1239
993.30 0.1237
993.40 0.1236
993.50 0.1234
993.60 0.1232
993.70 0.123
993.80 0.1229
993.90 0.1227
994.00 0.1225
994.10 0.1223
994.20 0.1222
994.30 0.122
994.40 0.1218
994.50 0.1216
994.60 0.1215
994.70 0.1213
994.80 0.121
994.90 0.1208
995.00 0.1206
995.10 0.1204
995.20 0.1202
995.30 0.12
995.40 0.1198
995.50 0.1195
995.60 0.1193
995.70 0.1192
995.80 0.119
995.90 0.1188
996.00 0.1186
996.10 0.1185
996.20 0.1183
996.30 0.1181
996.40 0.118
996.50 0.1178
996.60 0.1176
996.70 0.1175
996.80 0.1173
996.90 0.1171
997.00 0.117
997.10 0.1168
997.20 0.1166
997.30 0.1165
997.40 0.1163
997.50 0.1161
997.60 0.116
997.70 0.1158
997.80 0.1157
997.90 0.1155
998.00 0.1153
998.10 0.1152
998.20 0.115
998.30 0.1149
998.40 0.1147
998.50 0.1145
998.60 0.1144
998.70 0.1142
998.80 0.1141
998.90 0.1139
999.00 0.1138
999.10 0.1136
999.20 0.1134
999.30 0.1133
999.40 0.1131
999.50 0.113
999.60 0.1128
999.70 0.1126
999.80 0.1125
999.90 0.1123
1000.00 0.1122
1000.10 0.112
1000.20 0.1119
1000.30 0.1117
1000.40 0.1116
1000.50 0.1114
1000.60 0.1113
1000.70 0.1111
1000.80 0.111
1000.90 0.1108
1001.00 0.1107
1001.10 0.1105
1001.20 0.1104
1001.30 0.1102
1001.40 0.1101
1001.50 0.1099
1001.60 0.1098
1001.70 0.1096
1001.80 0.1095
1001.90 0.1093
1002.00 0.1092
1002.10 0.109
1002.20 0.1089
1002.30 0.1087
1002.40 0.1086
1002.50 0.1085
1002.60 0.1083
1002.70 0.1082
1002.80 0.108
1002.90 0.1079
1003.00 0.1077
1003.10 0.1076
1003.20 0.1074
1003.30 0.1073
1003.40 0.1072
1003.50 0.107
1003.60 0.1069
1003.70 0.1067
1003.80 0.1066
1003.90 0.1065
1004.00 0.1063
1004.10 0.1062
1004.20 0.106
1004.30 0.1059
1004.40 0.1058
1004.50 0.1056
1004.60 0.1055
1004.70 0.1054
1004.80 0.1052
1004.90 0.105
1005.00 0.1048
1005.10 0.1047
1005.20 0.1046
1005.30 0.1044
1005.40 0.1043
1005.50 0.1042
1005.60 0.104
1005.70 0.1039
1005.80 0.1038
1005.90 0.1036
1006.00 0.1035
1006.10 0.1034
1006.20 0.1032
1006.30 0.1031
1006.40 0.103
1006.50 0.1028
1006.60 0.1027
1006.70 0.1026
1006.80 0.1024
1006.90 0.1023
1007.00 0.1022
1007.10 0.1021
1007.20 0.1019
1007.30 0.1018
1007.40 0.1017
1007.50 0.1016
1007.60 0.1014
1007.70 0.1013
1007.80 0.1012
1007.90 0.1011
1008.00 0.1009
1008.10 0.1008
1008.20 0.1007
1008.30 0.1006
1008.40 0.1004
1008.50 0.1003
1008.60 0.1002
1008.70 0.1001
1008.80 0.09996
1008.90 0.09984
1009.00 0.09972
1009.10 0.0996
1009.20 0.09947
1009.30 0.09935
1009.40 0.09923
1009.50 0.09911
1009.60 0.09899
1009.70 0.09887
1009.80 0.09876
1009.90 0.09864
1010.00 0.09853
1010.10 0.09841
1010.20 0.0983
1010.30 0.09818
1010.40 0.09807
1010.50 0.09795
1010.60 0.09784
1010.70 0.09772
1010.80 0.09761
1010.90 0.09749
1011.00 0.09738
1011.10 0.09727
1011.20 0.09715
1011.30 0.09704
1011.40 0.09692
1011.50 0.09681
1011.60 0.09669
1011.70 0.09658
1011.80 0.09647
1011.90 0.09636
1012.00 0.09625
1012.10 0.09615
1012.20 0.09604
1012.30 0.09593
1012.40 0.09582
1012.50 0.09572
1012.60 0.09561
1012.70 0.0955
1012.80 0.0954
1012.90 0.09529
1013.00 0.09518
1013.10 0.09508
1013.20 0.09497
1013.30 0.09486
1013.40 0.09476
1013.50 0.09465
1013.60 0.09454
1013.70 0.09444
1013.80 0.09434
1013.90 0.09423
1014.00 0.09413
1014.10 0.09403
1014.20 0.09393
1014.30 0.09382
1014.40 0.09372
1014.50 0.09362
1014.60 0.09352
1014.70 0.09343
1014.80 0.09334
1014.90 0.09325
1015.00 0.09316
1015.10 0.09307
1015.20 0.09298
1015.30 0.0929
1015.40 0.09281
1015.50 0.09272
1015.60 0.09263
1015.70 0.09254
1015.80 0.09246
1015.90 0.09237
1016.00 0.09228
1016.10 0.09219
1016.20 0.0921
1016.30 0.09202
1016.40 0.09193
1016.50 0.09184
1016.60 0.09175
1016.70 0.09166
1016.80 0.09156
1016.90 0.09147
1017.00 0.09137
1017.10 0.09127
1017.20 0.09118
1017.30 0.09108
1017.40 0.09099
1017.50 0.09089
1017.60 0.0908
1017.70 0.09071
1017.80 0.09061
1017.90 0.09052
1018.00 0.09042
1018.10 0.09033
1018.20 0.09023
1018.30 0.09014
1018.40 0.09004
1018.50 0.08995
1018.60 0.08985
1018.70 0.08976
1018.80 0.08967
1018.90 0.08958
1019.00 0.08949
1019.10 0.08939
1019.20 0.0893
1019.30 0.08921
1019.40 0.08912
1019.50 0.08903
1019.60 0.08894
1019.70 0.08884
1019.80 0.08875
1019.90 0.08866
1020.00 0.08857
1020.10 0.08848
1020.20 0.08839
1020.30 0.08829
1020.40 0.0882
1020.50 0.08811
1020.60 0.08802
1020.70 0.08793
1020.80 0.08784
1020.90 0.08775
1021.00 0.08766
1021.10 0.08757
1021.20 0.08748
1021.30 0.08739
1021.40 0.08731
1021.50 0.08722
1021.60 0.08713
1021.70 0.08704
1021.80 0.08695
1021.90 0.08686
1022.00 0.08677
1022.10 0.08668
1022.20 0.0866
1022.30 0.08651
1022.40 0.08642
1022.50 0.08634
1022.60 0.08625
1022.70 0.08617
1022.80 0.08608
1022.90 0.08599
1023.00 0.08591
1023.10 0.08582
1023.20 0.08573
1023.30 0.08565
1023.40 0.08556
1023.50 0.08548
1023.60 0.08539
1023.70 0.0853
1023.80 0.08522
1023.90 0.08513
1024.00 0.08505
1024.10 0.08496
1024.20 0.08487
1024.30 0.08479
1024.40 0.0847
1024.50 0.08462
1024.60 0.08453
1024.70 0.08445
1024.80 0.08436
1024.90 0.08428
1025.00 0.08419
1025.10 0.08411
1025.20 0.08402
1025.30 0.08394
1025.40 0.08385
1025.50 0.08377
1025.60 0.08369
1025.70 0.0836
1025.80 0.08352
1025.90 0.08343
1026.00 0.08335
1026.10 0.08327
1026.20 0.08318
1026.30 0.0831
1026.40 0.08301
1026.50 0.08293
1026.60 0.08285
1026.70 0.08276
1026.80 0.08268
1026.90 0.08259
1027.00 0.08251
1027.10 0.08243
1027.20 0.08236
1027.30 0.08228
1027.40 0.0822
1027.50 0.08212
1027.60 0.08205
1027.70 0.08197
1027.80 0.08189
1027.90 0.08181
1028.00 0.08174
1028.10 0.08166
1028.20 0.08158
1028.30 0.08151
1028.40 0.08143
1028.50 0.08135
1028.60 0.08128
1028.70 0.0812
1028.80 0.08112
1028.90 0.08105
1029.00 0.08097
1029.10 0.08089
1029.20 0.08081
1029.30 0.08074
1029.40 0.08066
1029.50 0.08058
1029.60 0.08051
1029.70 0.08043
1029.80 0.08035
1029.90 0.08028
1030.00 0.0802
1030.10 0.08013
1030.20 0.08005
1030.30 0.07997
1030.40 0.0799
1030.50 0.07982
1030.60 0.07974
1030.70 0.07967
1030.80 0.07959
1030.90 0.07951
1031.00 0.07944
1031.10 0.07936
1031.20 0.07929
1031.30 0.07921
1031.40 0.07913
1031.50 0.07906
1031.60 0.07898
1031.70 0.0789
1031.80 0.07883
1031.90 0.07875
1032.00 0.07868
1032.10 0.07861
1032.20 0.07854
1032.30 0.07847
1032.40 0.0784
1032.50 0.07832
1032.60 0.07825
1032.70 0.07818
1032.80 0.07811
1032.90 0.07804
1033.00 0.07797
1033.10 0.0779
1033.20 0.07783
1033.30 0.07776
1033.40 0.07769
1033.50 0.07762
1033.60 0.07755
1033.70 0.07748
1033.80 0.07741
1033.90 0.07734
1034.00 0.07727
1034.10 0.0772
1034.20 0.07713
1034.30 0.07706
1034.40 0.07699
1034.50 0.07692
1034.60 0.07685
1034.70 0.07678
1034.80 0.07671
1034.90 0.07664
1035.00 0.07657
1035.10 0.0765
1035.20 0.07643
1035.30 0.07636
1035.40 0.07629
1035.50 0.07623
1035.60 0.07616
1035.70 0.07609
1035.80 0.07602
1035.90 0.07595
1036.00 0.07588
1036.10 0.07581
1036.20 0.07574
1036.30 0.07567
1036.40 0.0756
1036.50 0.07553
1036.60 0.07546
1036.70 0.07539
1036.80 0.07532
1036.90 0.07525
1037.00 0.07518
1037.10 0.07512
1037.20 0.07506
1037.30 0.075
1037.40 0.07494
1037.50 0.07487
1037.60 0.07481
1037.70 0.07475
1037.80 0.07469
1037.90 0.07463
1038.00 0.07457
1038.10 0.0745
1038.20 0.07444
1038.30 0.07438
1038.40 0.07432
1038.50 0.07426
1038.60 0.0742
1038.70 0.07413
1038.80 0.07407
1038.90 0.07401
1039.00 0.07395
1039.10 0.07389
1039.20 0.07383
1039.30 0.07376
1039.40 0.0737
1039.50 0.07364
1039.60 0.07358
1039.70 0.07352
1039.80 0.07346
1039.90 0.0734
1040.00 0.07334
1040.10 0.07327
1040.20 0.07321
1040.30 0.07315
1040.40 0.07309
1040.50 0.07303
1040.60 0.07297
1040.70 0.07291
1040.80 0.07285
1040.90 0.07278
1041.00 0.07272
1041.10 0.07266
1041.20 0.0726
1041.30 0.07254
1041.40 0.07248
1041.50 0.07242
1041.60 0.07236
1041.70 0.0723
1041.80 0.07224
1041.90 0.07217
1042.00 0.07211
1042.10 0.07206
1042.20 0.072
1042.30 0.07195
1042.40 0.0719
1042.50 0.07184
1042.60 0.07179
1042.70 0.07173
1042.80 0.07168
1042.90 0.07163
1043.00 0.07157
1043.10 0.07152
1043.20 0.07146
1043.30 0.07141
1043.40 0.07135
1043.50 0.0713
1043.60 0.07125
1043.70 0.07119
1043.80 0.07114
1043.90 0.07108
1044.00 0.07103
1044.10 0.07098
1044.20 0.07092
1044.30 0.07087
1044.40 0.07081
1044.50 0.07076
1044.60 0.07071
1044.70 0.07065
1044.80 0.0706
1044.90 0.07055
1045.00 0.07049
1045.10 0.07044
1045.20 0.07038
1045.30 0.07033
1045.40 0.07028
1045.50 0.07022
1045.60 0.07017
1045.70 0.07012
1045.80 0.07006
1045.90 0.07001
1046.00 0.06995
1046.10 0.0699
1046.20 0.06985
1046.30 0.06979
1046.40 0.06974
1046.50 0.06969
1046.60 0.06963
1046.70 0.06958
1046.80 0.06953
1046.90 0.06947
1047.00 0.06942
1047.10 0.06937
1047.20 0.06933
1047.30 0.06928
1047.40 0.06923
1047.50 0.06918
1047.60 0.06914
1047.70 0.06909
1047.80 0.06904
1047.90 0.069
1048.00 0.06895
1048.10 0.0689
1048.20 0.06885
1048.30 0.06881
1048.40 0.06876
1048.50 0.06871
1048.60 0.06867
1048.70 0.06862
1048.80 0.06857
1048.90 0.06853
1049.00 0.06848
1049.10 0.06843
1049.20 0.06839
1049.30 0.06834
1049.40 0.06829
1049.50 0.06825
1049.60 0.0682
1049.70 0.06815
1049.80 0.06811
1049.90 0.06806
1050.00 0.06801
1050.10 0.06797
1050.20 0.06792
1050.30 0.06787
1050.40 0.06783
1050.50 0.06778
1050.60 0.06773
1050.70 0.06769
1050.80 0.06764
1050.90 0.06759
1051.00 0.06755
1051.10 0.0675
1051.20 0.06745
1051.30 0.06741
1051.40 0.06736
1051.50 0.06731
1051.60 0.06727
1051.70 0.06722
1051.80 0.06717
1051.90 0.06713
1052.00 0.06708
1052.10 0.06704
1052.20 0.067
1052.30 0.06696
1052.40 0.06692
1052.50 0.06687
1052.60 0.06683
1052.70 0.06679
1052.80 0.06675
1052.90 0.06671
1053.00 0.06667
1053.10 0.06663
1053.20 0.06658
1053.30 0.06654
1053.40 0.0665
1053.50 0.06646
1053.60 0.06642
1053.70 0.06638
1053.80 0.06634
1053.90 0.06629
1054.00 0.06625
1054.10 0.06621
1054.20 0.06617
1054.30 0.06613
1054.40 0.06609
1054.50 0.06605
1054.60 0.06601
1054.70 0.06596
1054.80 0.06592
1054.90 0.06588
1055.00 0.06584
1055.10 0.0658
1055.20 0.06576
1055.30 0.06572
1055.40 0.06568
1055.50 0.06564
1055.60 0.06559
1055.70 0.06555
1055.80 0.06551
1055.90 0.06547
1056.00 0.06543
1056.10 0.06539
1056.20 0.06535
1056.30 0.06531
1056.40 0.06527
1056.50 0.06522
1056.60 0.06518
1056.70 0.06514
1056.80 0.0651
1056.90 0.06506
1057.00 0.06502
1057.10 0.06498
1057.20 0.06495
1057.30 0.06491
1057.40 0.06488
1057.50 0.06484
1057.60 0.0648
1057.70 0.06477
1057.80 0.06473
1057.90 0.0647
1058.00 0.06466
1058.10 0.06462
1058.20 0.06459
1058.30 0.06455
1058.40 0.06452
1058.50 0.06448
1058.60 0.06444
1058.70 0.06441
1058.80 0.06437
1058.90 0.06434
1059.00 0.0643
1059.10 0.06426
1059.20 0.06423
1059.30 0.06419
1059.40 0.06416
1059.50 0.06412
1059.60 0.06409
1059.70 0.06405
1059.80 0.06401
1059.90 0.06398
1060.00 0.06394
1060.10 0.06391
1060.20 0.06387
1060.30 0.06384
1060.40 0.0638
1060.50 0.06376
1060.60 0.06373
1060.70 0.06369
1060.80 0.06366
1060.90 0.06362
1061.00 0.06359
1061.10 0.06355
1061.20 0.06351
1061.30 0.06348
1061.40 0.06344
1061.50 0.06341
1061.60 0.06337
1061.70 0.06334
1061.80 0.0633
1061.90 0.06327
1062.00 0.06323
1062.10 0.0632
1062.20 0.06317
1062.30 0.06314
1062.40 0.06311
1062.50 0.06308
1062.60 0.06305
1062.70 0.06301
1062.80 0.06298
1062.90 0.06295
1063.00 0.06292
1063.10 0.06289
1063.20 0.06286
1063.30 0.06283
1063.40 0.0628
1063.50 0.06277
1063.60 0.06274
1063.70 0.06271
1063.80 0.06268
1063.90 0.06265
1064.00 0.06262
1064.10 0.06259
1064.20 0.06255
1064.30 0.06252
1064.40 0.06249
1064.50 0.06246
1064.60 0.06243
1064.70 0.0624
1064.80 0.06237
1064.90 0.06234
1065.00 0.06231
1065.10 0.06228
1065.20 0.06225
1065.30 0.06222
1065.40 0.06219
1065.50 0.06216
1065.60 0.06213
1065.70 0.0621
1065.80 0.06207
1065.90 0.06204
1066.00 0.06201
1066.10 0.06198
1066.20 0.06194
1066.30 0.06191
1066.40 0.06188
1066.50 0.06185
1066.60 0.06182
1066.70 0.06179
1066.80 0.06176
1066.90 0.06173
1067.00 0.0617
1067.10 0.06168
1067.20 0.06165
1067.30 0.06162
1067.40 0.0616
1067.50 0.06157
1067.60 0.06154
1067.70 0.06151
1067.80 0.06149
1067.90 0.06146
1068.00 0.06143
1068.10 0.06141
1068.20 0.06138
1068.30 0.06135
1068.40 0.06133
1068.50 0.0613
1068.60 0.06127
1068.70 0.06125
1068.80 0.06122
1068.90 0.06119
1069.00 0.06117
1069.10 0.06114
1069.20 0.06111
1069.30 0.06109
1069.40 0.06106
1069.50 0.06104
1069.60 0.06101
1069.70 0.06098
1069.80 0.06096
1069.90 0.06093
1070.00 0.0609
1070.10 0.06088
1070.20 0.06085
1070.30 0.06082
1070.40 0.0608
1070.50 0.06077
1070.60 0.06074
1070.70 0.06072
1070.80 0.06069
1070.90 0.06066
1071.00 0.06064
1071.10 0.06061
1071.20 0.06058
1071.30 0.06056
1071.40 0.06053
1071.50 0.06051
1071.60 0.06048
1071.70 0.06045
1071.80 0.06043
1071.90 0.0604
1072.00 0.06037
1072.10 0.06035
1072.20 0.06033
1072.30 0.06031
1072.40 0.06029
1072.50 0.06026
1072.60 0.06024
1072.70 0.06022
1072.80 0.0602
1072.90 0.06018
1073.00 0.06016
1073.10 0.06013
1073.20 0.06011
1073.30 0.06009
1073.40 0.06007
1073.50 0.06005
1073.60 0.06003
1073.70 0.06001
1073.80 0.05999
1073.90 0.05997
1074.00 0.05996
1074.10 0.05994
1074.20 0.05992
1074.30 0.0599
1074.40 0.05988
1074.50 0.05986
1074.60 0.05984
1074.70 0.05982
1074.80 0.05981
1074.90 0.05979
1075.00 0.05977
1075.10 0.05975
1075.20 0.05973
1075.30 0.05971
1075.40 0.05969
1075.50 0.05968
1075.60 0.05966
1075.70 0.05964
1075.80 0.05962
1075.90 0.0596
1076.00 0.05958
1076.10 0.05956
1076.20 0.05955
1076.30 0.05953
1076.40 0.05951
1076.50 0.05949
1076.60 0.05947
1076.70 0.05945
1076.80 0.05944
1076.90 0.05942
1077.00 0.0594
1077.10 0.05938
1077.20 0.05937
1077.30 0.05935
1077.40 0.05933
1077.50 0.05932
1077.60 0.0593
1077.70 0.05929
1077.80 0.05927
1077.90 0.05926
1078.00 0.05924
1078.10 0.05923
1078.20 0.05921
1078.30 0.0592
1078.40 0.05919
1078.50 0.05917
1078.60 0.05916
1078.70 0.05914
1078.80 0.05913
1078.90 0.05911
1079.00 0.0591
1079.10 0.05908
1079.20 0.05907
1079.30 0.05905
1079.40 0.05904
1079.50 0.05902
1079.60 0.05901
1079.70 0.059
1079.80 0.05899
1079.90 0.05898
1080.00 0.05897
1080.10 0.05896
1080.20 0.05895
1080.30 0.05894
1080.40 0.05893
1080.50 0.05892
1080.60 0.0589
1080.70 0.05889
1080.80 0.05888
1080.90 0.05887
1081.00 0.05886
1081.10 0.05885
1081.20 0.05884
1081.30 0.05883
1081.40 0.05882
1081.50 0.05881
1081.60 0.0588
1081.70 0.05878
1081.80 0.05877
1081.90 0.05876
1082.00 0.05875
1082.10 0.05874
1082.20 0.05873
1082.30 0.05872
1082.40 0.05871
1082.50 0.0587
1082.60 0.05869
1082.70 0.05868
1082.80 0.05867
1082.90 0.05866
1083.00 0.05865
1083.10 0.05864
1083.20 0.05863
1083.30 0.05862
1083.40 0.05861
1083.50 0.0586
1083.60 0.05859
1083.70 0.05858
1083.80 0.05858
1083.90 0.05857
1084.00 0.05856
1084.10 0.05855
1084.20 0.05854
1084.30 0.05853
1084.40 0.05852
1084.50 0.05852
1084.60 0.05851
1084.70 0.0585
1084.80 0.05849
1084.90 0.05849
1085.00 0.05848
1085.10 0.05847
1085.20 0.05846
1085.30 0.05846
1085.40 0.05845
1085.50 0.05844
1085.60 0.05844
1085.70 0.05843
1085.80 0.05842
1085.90 0.05841
1086.00 0.05841
1086.10 0.0584
1086.20 0.05839
1086.30 0.05838
1086.40 0.05838
1086.50 0.05837
1086.60 0.05836
1086.70 0.05836
1086.80 0.05835
1086.90 0.05835
1087.00 0.05834
1087.10 0.05834
1087.20 0.05833
1087.30 0.05833
1087.40 0.05832
1087.50 0.05831
1087.60 0.05831
1087.70 0.0583
1087.80 0.0583
1087.90 0.05829
1088.00 0.05829
1088.10 0.05828
1088.20 0.05828
1088.30 0.05827
1088.40 0.05827
1088.50 0.05826
1088.60 0.05826
1088.70 0.05826
1088.80 0.05825
1088.90 0.05825
1089.00 0.05825
1089.10 0.05824
1089.20 0.05824
1089.30 0.05824
1089.40 0.05823
1089.50 0.05823
1089.60 0.05823
1089.70 0.05822
1089.80 0.05822
1089.90 0.05822
1090.00 0.05821
1090.10 0.05821
1090.20 0.05821
1090.30 0.0582
1090.40 0.0582
1090.50 0.0582
1090.60 0.0582
1090.70 0.05819
1090.80 0.05819
1090.90 0.05819
1091.00 0.05819
1091.10 0.05819
1091.20 0.05819
1091.30 0.05818
1091.40 0.05818
1091.50 0.05818
1091.60 0.05818
1091.70 0.05818
1091.80 0.05818
1091.90 0.05817
1092.00 0.05817
1092.10 0.05817
1092.20 0.05817
1092.30 0.05817
1092.40 0.05817
1092.50 0.05817
1092.60 0.05817
1092.70 0.05817
1092.80 0.05819
1092.90 0.05821
1093.00 0.05823
1093.10 0.05824
1093.20 0.05824
1093.30 0.05824
1093.40 0.05824
1093.50 0.05824
1093.60 0.05824
1093.70 0.05825
1093.80 0.05825
1093.90 0.05825
1094.00 0.05825
1094.10 0.05825
1094.20 0.05825
1094.30 0.05825
1094.40 0.05825
1094.50 0.05825
1094.60 0.05825
1094.70 0.05825
1094.80 0.05825
1094.90 0.05825
1095.00 0.05825
1095.10 0.05825
1095.20 0.05826
1095.30 0.05826
1095.40 0.05826
1095.50 0.05826
1095.60 0.05826
1095.70 0.05826
1095.80 0.05826
1095.90 0.05827
1096.00 0.05827
1096.10 0.05827
1096.20 0.05827
1096.30 0.05827
1096.40 0.05827
1096.50 0.05827
1096.60 0.05828
1096.70 0.05828
1096.80 0.05828
1096.90 0.05828
1097.00 0.05828
1097.10 0.05829
1097.20 0.05829
1097.30 0.05829
1097.40 0.05829
1097.50 0.0583
1097.60 0.0583
1097.70 0.0583
1097.80 0.0583
1097.90 0.05831
1098.00 0.05831
1098.10 0.05831
1098.20 0.05831
1098.30 0.05831
1098.40 0.05832
1098.50 0.05832
1098.60 0.05832
1098.70 0.05833
1098.80 0.05833
1098.90 0.05833
1099.00 0.05834
1099.10 0.05834
1099.20 0.05834
1099.30 0.05835
1099.40 0.05835
1099.50 0.05835
1099.60 0.05836
1099.70 0.05836
1099.80 0.05836
1099.90 0.05837
1100.00 0.05837
1100.10 0.05837
1100.20 0.05838
1100.30 0.05838
1100.40 0.05838
1100.50 0.05839
1100.60 0.05839
1100.70 0.05839
1100.80 0.0584
1100.90 0.0584
1101.00 0.05841
1101.10 0.05841
1101.20 0.05842
1101.30 0.05842
1101.40 0.05842
1101.50 0.05843
1101.60 0.05843
1101.70 0.05844
1101.80 0.05844
1101.90 0.05844
1102.00 0.05845
1102.10 0.05845
1102.20 0.05846
1102.30 0.05846
1102.40 0.05847
1102.50 0.05847
1102.60 0.05848
1102.70 0.05848
1102.80 0.05849
1102.90 0.05849
1103.00 0.0585
1103.10 0.0585
1103.20 0.05851
1103.30 0.05851
1103.40 0.05852
1103.50 0.05852
1103.60 0.05853
1103.70 0.05854
1103.80 0.05854
1103.90 0.05855
1104.00 0.05855
1104.10 0.05856
1104.20 0.05857
1104.30 0.05857
1104.40 0.05858
1104.50 0.05858
1104.60 0.05859
1104.70 0.0586
1104.80 0.0586
1104.90 0.05861
1105.00 0.05861
1105.10 0.05862
1105.20 0.05862
1105.30 0.05863
1105.40 0.05864
1105.50 0.05864
1105.60 0.05865
1105.70 0.05866
1105.80 0.05866
1105.90 0.05867
1106.00 0.05868
1106.10 0.05868
1106.20 0.05869
1106.30 0.0587
1106.40 0.0587
1106.50 0.05871
1106.60 0.05872
1106.70 0.05872
1106.80 0.05873
1106.90 0.05874
1107.00 0.05874
1107.10 0.05875
1107.20 0.05876
1107.30 0.05876
1107.40 0.05877
1107.50 0.05878
1107.60 0.05879
1107.70 0.05879
1107.80 0.0588
1107.90 0.05881
1108.00 0.05882
1108.10 0.05883
1108.20 0.05883
1108.30 0.05884
1108.40 0.05885
1108.50 0.05886
1108.60 0.05886
1108.70 0.05887
1108.80 0.05888
1108.90 0.05889
1109.00 0.05889
1109.10 0.0589
1109.20 0.05891
1109.30 0.05892
1109.40 0.05893
1109.50 0.05893
1109.60 0.05894
1109.70 0.05895
1109.80 0.05896
1109.90 0.05897
1110.00 0.05898
1110.10 0.05899
1110.20 0.05899
1110.30 0.059
1110.40 0.05901
1110.50 0.05902
1110.60 0.05903
1110.70 0.05904
1110.80 0.05905
1110.90 0.05906
1111.00 0.05906
1111.10 0.05907
1111.20 0.05908
1111.30 0.05909
1111.40 0.0591
1111.50 0.05911
1111.60 0.05912
1111.70 0.05913
1111.80 0.05913
1111.90 0.05914
1112.00 0.05915
1112.10 0.05916
1112.20 0.05917
1112.30 0.05918
1112.40 0.05919
1112.50 0.0592
1112.60 0.05921
1112.70 0.05922
1112.80 0.05923
1112.90 0.05924
1113.00 0.05925
1113.10 0.05926
1113.20 0.05927
1113.30 0.05928
1113.40 0.05929
1113.50 0.0593
1113.60 0.05931
1113.70 0.05932
1113.80 0.05933
1113.90 0.05934
1114.00 0.05935
1114.10 0.05936
1114.20 0.05937
1114.30 0.05939
1114.40 0.0594
1114.50 0.05941
1114.60 0.05942
1114.70 0.05943
1114.80 0.05944
1114.90 0.05945
1115.00 0.05946
1115.10 0.05947
1115.20 0.05948
1115.30 0.05949
1115.40 0.05951
1115.50 0.05952
1115.60 0.05953
1115.70 0.05954
1115.80 0.05955
1115.90 0.05956
1116.00 0.05957
1116.10 0.05958
1116.20 0.05959
1116.30 0.0596
1116.40 0.05961
1116.50 0.05963
1116.60 0.05964
1116.70 0.05965
1116.80 0.05966
1116.90 0.05967
1117.00 0.05968
1117.10 0.05969
1117.20 0.0597
1117.30 0.05972
1117.40 0.05973
1117.50 0.05974
1117.60 0.05976
1117.70 0.05977
1117.80 0.05978
1117.90 0.05979
1118.00 0.05981
1118.10 0.05982
1118.20 0.05983
1118.30 0.05985
1118.40 0.05986
1118.50 0.05987
1118.60 0.05988
1118.70 0.0599
1118.80 0.05991
1118.90 0.05992
1119.00 0.05993
1119.10 0.05995
1119.20 0.05996
1119.30 0.05997
1119.40 0.05998
1119.50 0.06
1119.60 0.06001
1119.70 0.06002
1119.80 0.06004
1119.90 0.06005
1120.00 0.06006
1120.10 0.06007
1120.20 0.06009
1120.30 0.0601
1120.40 0.06011
1120.50 0.06012
1120.60 0.06014
1120.70 0.06015
1120.80 0.06016
1120.90 0.06017
1121.00 0.06019
1121.10 0.0602
1121.20 0.06021
1121.30 0.06022
1121.40 0.06024
1121.50 0.06025
1121.60 0.06026
1121.70 0.06027
1121.80 0.06029
1121.90 0.0603
1122.00 0.06031
1122.10 0.06033
1122.20 0.06034
1122.30 0.06036
1122.40 0.06038
1122.50 0.06039
1122.60 0.06041
1122.70 0.06042
1122.80 0.06044
1122.90 0.06046
1123.00 0.06047
1123.10 0.06049
1123.20 0.06051
1123.30 0.06052
1123.40 0.06054
1123.50 0.06055
1123.60 0.06057
1123.70 0.06059
1123.80 0.0606
1123.90 0.06062
1124.00 0.06063
1124.10 0.06065
1124.20 0.06067
1124.30 0.06068
1124.40 0.0607
1124.50 0.06071
1124.60 0.06073
1124.70 0.06075
1124.80 0.06076
1124.90 0.06078
1125.00 0.06079
1125.10 0.06081
1125.20 0.06083
1125.30 0.06084
1125.40 0.06086
1125.50 0.06087
1125.60 0.06089
1125.70 0.06091
1125.80 0.06092
1125.90 0.06094
1126.00 0.06095
1126.10 0.06097
1126.20 0.06099
1126.30 0.061
1126.40 0.06102
1126.50 0.06103
1126.60 0.06105
1126.70 0.06106
1126.80 0.06108
1126.90 0.0611
1127.00 0.06111
1127.10 0.06113
1127.20 0.06115
1127.30 0.06117
1127.40 0.06119
1127.50 0.06122
1127.60 0.06124
1127.70 0.06126
1127.80 0.06128
1127.90 0.0613
1128.00 0.06132
1128.10 0.06134
1128.20 0.06136
1128.30 0.06138
1128.40 0.0614
1128.50 0.06142
1128.60 0.06144
1128.70 0.06146
1128.80 0.06148
1128.90 0.0615
1129.00 0.06152
1129.10 0.06154
1129.20 0.06156
1129.30 0.06158
1129.40 0.0616
1129.50 0.06162
1129.60 0.06164
1129.70 0.06166
1129.80 0.06168
1129.90 0.0617
1130.00 0.06173
1130.10 0.06175
1130.20 0.06177
1130.30 0.06179
1130.40 0.06181
1130.50 0.06183
1130.60 0.06185
1130.70 0.06187
1130.80 0.06189
1130.90 0.06191
1131.00 0.06193
1131.10 0.06195
1131.20 0.06197
1131.30 0.06199
1131.40 0.06201
1131.50 0.06203
1131.60 0.06205
1131.70 0.06207
1131.80 0.06209
1131.90 0.06211
1132.00 0.06213
1132.10 0.06215
1132.20 0.06217
1132.30 0.06219
1132.40 0.06221
1132.50 0.06223
1132.60 0.06225
1132.70 0.06227
1132.80 0.06229
1132.90 0.06231
1133.00 0.06233
1133.10 0.06235
1133.20 0.06237
1133.30 0.06239
1133.40 0.06241
1133.50 0.06243
1133.60 0.06245
1133.70 0.06247
1133.80 0.06249
1133.90 0.06251
1134.00 0.06253
1134.10 0.06255
1134.20 0.06257
1134.30 0.06259
1134.40 0.06261
1134.50 0.06263
1134.60 0.06265
1134.70 0.06267
1134.80 0.06269
1134.90 0.06271
1135.00 0.06273
1135.10 0.06275
1135.20 0.06277
1135.30 0.06279
1135.40 0.06281
1135.50 0.06283
1135.60 0.06285
1135.70 0.06287
1135.80 0.06289
1135.90 0.06291
1136.00 0.06293
1136.10 0.06295
1136.20 0.06297
1136.30 0.06299
1136.40 0.06301
1136.50 0.06303
1136.60 0.06305
1136.70 0.06307
1136.80 0.06309
1136.90 0.06311
1137.00 0.06313
1137.10 0.06315
1137.20 0.06317
1137.30 0.06319
1137.40 0.06321
1137.50 0.06323
1137.60 0.06325
1137.70 0.06327
1137.80 0.06329
1137.90 0.06331
1138.00 0.06334
1138.10 0.06336
1138.20 0.06338
1138.30 0.0634
1138.40 0.06342
1138.50 0.06344
1138.60 0.06346
1138.70 0.06348
1138.80 0.0635
1138.90 0.06352
1139.00 0.06354
1139.10 0.06356
1139.20 0.06359
1139.30 0.06361
1139.40 0.06363
1139.50 0.06365
1139.60 0.06367
1139.70 0.06369
1139.80 0.06371
1139.90 0.06373
1140.00 0.06375
1140.10 0.06377
1140.20 0.06379
1140.30 0.06381
1140.40 0.06383
1140.50 0.06385
1140.60 0.06388
1140.70 0.0639
1140.80 0.06392
1140.90 0.06394
1141.00 0.06396
1141.10 0.06398
1141.20 0.064
1141.30 0.06402
1141.40 0.06404
1141.50 0.06406
1141.60 0.06408
1141.70 0.0641
1141.80 0.06412
1141.90 0.06414
1142.00 0.06416
1142.10 0.06419
1142.20 0.06421
1142.30 0.06423
1142.40 0.06426
1142.50 0.06428
1142.60 0.0643
1142.70 0.06432
1142.80 0.06435
1142.90 0.06437
1143.00 0.06439
1143.10 0.06442
1143.20 0.06444
1143.30 0.06446
1143.40 0.06449
1143.50 0.06451
1143.60 0.06453
1143.70 0.06455
1143.80 0.06458
1143.90 0.0646
1144.00 0.06462
1144.10 0.06465
1144.20 0.06467
1144.30 0.06469
1144.40 0.06471
1144.50 0.06474
1144.60 0.06476
1144.70 0.06478
1144.80 0.06481
1144.90 0.06483
1145.00 0.06485
1145.10 0.06487
1145.20 0.0649
1145.30 0.06492
1145.40 0.06494
1145.50 0.06497
1145.60 0.06499
1145.70 0.06501
1145.80 0.06503
1145.90 0.06506
1146.00 0.06508
1146.10 0.0651
1146.20 0.06512
1146.30 0.06515
1146.40 0.06517
1146.50 0.06519
1146.60 0.06522
1146.70 0.06524
1146.80 0.06526
1146.90 0.06528
1147.00 0.06531
1147.10 0.06532
1147.20 0.06534
1147.30 0.06536
1147.40 0.06538
1147.50 0.0654
1147.60 0.06542
1147.70 0.06544
1147.80 0.06546
1147.90 0.06548
1148.00 0.0655
1148.10 0.06552
1148.20 0.06554
1148.30 0.06555
1148.40 0.06557
1148.50 0.06559
1148.60 0.06561
1148.70 0.06563
1148.80 0.06565
1148.90 0.06567
1149.00 0.06569
1149.10 0.06571
1149.20 0.06573
1149.30 0.06574
1149.40 0.06576
1149.50 0.06578
1149.60 0.0658
1149.70 0.06582
1149.80 0.06584
1149.90 0.06586
1150.00 0.06588
1150.10 0.0659
1150.20 0.06592
1150.30 0.06593
1150.40 0.06595
1150.50 0.06597
1150.60 0.06599
1150.70 0.06601
1150.80 0.06603
1150.90 0.06605
1151.00 0.06607
1151.10 0.06609
1151.20 0.0661
1151.30 0.06612
1151.40 0.06614
1151.50 0.06616
1151.60 0.06618
1151.70 0.0662
1151.80 0.06622
1151.90 0.06624
1152.00 0.06626
1152.10 0.06627
1152.20 0.06629
1152.30 0.06631
1152.40 0.06633
1152.50 0.06635
1152.60 0.06637
1152.70 0.06639
1152.80 0.06641
1152.90 0.06643
1153.00 0.06645
1153.10 0.06646
1153.20 0.06648
1153.30 0.0665
1153.40 0.06652
1153.50 0.06654
1153.60 0.06656
1153.70 0.06658
1153.80 0.0666
1153.90 0.06662
1154.00 0.06664
1154.10 0.06665
1154.20 0.06667
1154.30 0.06669
1154.40 0.06671
1154.50 0.06673
1154.60 0.06675
1154.70 0.06677
1154.80 0.06679
1154.90 0.06681
1155.00 0.06682
1155.10 0.06684
1155.20 0.06686
1155.30 0.06688
1155.40 0.0669
1155.50 0.06692
1155.60 0.06694
1155.70 0.06696
1155.80 0.06698
1155.90 0.06699
1156.00 0.06701
1156.10 0.06703
1156.20 0.06705
1156.30 0.06707
1156.40 0.06709
1156.50 0.06711
1156.60 0.06713
1156.70 0.06714
1156.80 0.06716
1156.90 0.06718
1157.00 0.0672
1157.10 0.06721
1157.20 0.06723
1157.30 0.06724
1157.40 0.06726
1157.50 0.06727
1157.60 0.06729
1157.70 0.0673
1157.80 0.06732
1157.90 0.06733
1158.00 0.06734
1158.10 0.06736
1158.20 0.06737
1158.30 0.06739
1158.40 0.0674
1158.50 0.06742
1158.60 0.06743
1158.70 0.06744
1158.80 0.06746
1158.90 0.06747
1159.00 0.06749
1159.10 0.0675
1159.20 0.06752
1159.30 0.06753
1159.40 0.06755
1159.50 0.06756
1159.60 0.06757
1159.70 0.06759
1159.80 0.0676
1159.90 0.06762
1160.00 0.06763
1160.10 0.06765
1160.20 0.06766
1160.30 0.06767
1160.40 0.06769
1160.50 0.0677
1160.60 0.06772
1160.70 0.06773
1160.80 0.06774
1160.90 0.06776
1161.00 0.06777
1161.10 0.06779
1161.20 0.0678
1161.30 0.06782
1161.40 0.06783
1161.50 0.06784
1161.60 0.06786
1161.70 0.06787
1161.80 0.06789
1161.90 0.0679
1162.00 0.06791
1162.10 0.06793
1162.20 0.06794
1162.30 0.06795
1162.40 0.06796
1162.50 0.06797
1162.60 0.06798
1162.70 0.06799
1162.80 0.068
1162.90 0.06801
1163.00 0.06802
1163.10 0.06803
1163.20 0.06805
1163.30 0.06806
1163.40 0.06807
1163.50 0.06808
1163.60 0.06809
1163.70 0.0681
1163.80 0.06811
1163.90 0.06812
1164.00 0.06813
1164.10 0.06814
1164.20 0.06815
1164.30 0.06816
1164.40 0.06818
1164.50 0.06819
1164.60 0.0682
1164.70 0.06821
1164.80 0.06822
1164.90 0.06823
1165.00 0.06824
1165.10 0.06825
1165.20 0.06826
1165.30 0.06827
1165.40 0.06828
1165.50 0.06829
1165.60 0.06831
1165.70 0.06832
1165.80 0.06833
1165.90 0.06834
1166.00 0.06835
1166.10 0.06836
1166.20 0.06837
1166.30 0.06838
1166.40 0.06839
1166.50 0.0684
1166.60 0.06841
1166.70 0.06842
1166.80 0.06843
1166.90 0.06844
1167.00 0.06846
1167.10 0.06846
1167.20 0.06847
1167.30 0.06848
1167.40 0.06849
1167.50 0.0685
1167.60 0.06851
1167.70 0.06852
1167.80 0.06853
1167.90 0.06854
1168.00 0.06855
1168.10 0.06856
1168.20 0.06856
1168.30 0.06857
1168.40 0.06858
1168.50 0.06859
1168.60 0.0686
1168.70 0.06861
1168.80 0.06862
1168.90 0.06863
1169.00 0.06864
1169.10 0.06865
1169.20 0.06865
1169.30 0.06866
1169.40 0.06867
1169.50 0.06868
1169.60 0.06869
1169.70 0.0687
1169.80 0.06871
1169.90 0.06872
1170.00 0.06873
1170.10 0.06874
1170.20 0.06874
1170.30 0.06875
1170.40 0.06876
1170.50 0.06877
1170.60 0.06878
1170.70 0.06879
1170.80 0.0688
1170.90 0.06881
1171.00 0.06882
1171.10 0.06883
1171.20 0.06883
1171.30 0.06884
1171.40 0.06885
1171.50 0.06886
1171.60 0.06887
1171.70 0.06888
1171.80 0.06889
1171.90 0.0689
1172.00 0.06891
1172.10 0.06891
1172.20 0.06891
1172.30 0.06891
1172.40 0.06891
1172.50 0.06892
1172.60 0.06892
1172.70 0.06892
1172.80 0.06892
1172.90 0.06893
1173.00 0.06893
1173.10 0.06893
1173.20 0.06893
1173.30 0.06893
1173.40 0.06894
1173.50 0.06894
1173.60 0.06894
1173.70 0.06894
1173.80 0.06894
1173.90 0.06895
1174.00 0.06895
1174.10 0.06895
1174.20 0.06895
1174.30 0.06896
1174.40 0.06896
1174.50 0.06896
1174.60 0.06896
1174.70 0.06896
1174.80 0.06897
1174.90 0.06897
1175.00 0.06897
1175.10 0.06897
1175.20 0.06897
1175.30 0.06898
1175.40 0.06898
1175.50 0.06898
1175.60 0.06898
1175.70 0.06899
1175.80 0.06899
1175.90 0.06899
1176.00 0.06899
1176.10 0.06899
1176.20 0.069
1176.30 0.069
1176.40 0.069
1176.50 0.069
1176.60 0.069
1176.70 0.06901
1176.80 0.06901
1176.90 0.06901
1177.00 0.06901
1177.10 0.06901
1177.20 0.06901
1177.30 0.069
1177.40 0.069
1177.50 0.069
1177.60 0.06899
1177.70 0.06899
1177.80 0.06899
1177.90 0.06898
1178.00 0.06898
1178.10 0.06898
1178.20 0.06898
1178.30 0.06897
1178.40 0.06897
1178.50 0.06897
1178.60 0.06896
1178.70 0.06896
1178.80 0.06896
1178.90 0.06895
1179.00 0.06895
1179.10 0.06895
1179.20 0.06894
1179.30 0.06894
1179.40 0.06894
1179.50 0.06894
1179.60 0.06893
1179.70 0.06893
1179.80 0.06893
1179.90 0.06892
1180.00 0.06892
1180.10 0.06892
1180.20 0.06891
1180.30 0.06891
1180.40 0.06891
1180.50 0.0689
1180.60 0.0689
1180.70 0.0689
1180.80 0.0689
1180.90 0.06889
1181.00 0.06889
1181.10 0.06889
1181.20 0.06888
1181.30 0.06888
1181.40 0.06888
1181.50 0.06887
1181.60 0.06887
1181.70 0.06887
1181.80 0.06887
1181.90 0.06886
1182.00 0.06886
1182.10 0.06885
1182.20 0.06884
1182.30 0.06883
1182.40 0.06882
1182.50 0.06881
1182.60 0.0688
1182.70 0.06879
1182.80 0.06877
1182.90 0.06876
1183.00 0.06875
1183.10 0.06874
1183.20 0.06873
1183.30 0.06872
1183.40 0.06871
1183.50 0.0687
1183.60 0.06869
1183.70 0.06868
1183.80 0.06867
1183.90 0.06866
1184.00 0.06865
1184.10 0.06864
1184.20 0.06863
1184.30 0.06862
1184.40 0.06861
1184.50 0.0686
1184.60 0.06859
1184.70 0.06857
1184.80 0.06856
1184.90 0.06855
1185.00 0.06854
1185.10 0.06853
1185.20 0.06852
1185.30 0.06851
1185.40 0.0685
1185.50 0.06849
1185.60 0.06848
1185.70 0.06847
1185.80 0.06846
1185.90 0.06845
1186.00 0.06844
1186.10 0.06843
1186.20 0.06842
1186.30 0.06841
1186.40 0.0684
1186.50 0.06839
1186.60 0.06838
1186.70 0.06837
1186.80 0.06836
1186.90 0.06834
1187.00 0.06833
1187.10 0.06833
1187.20 0.06832
1187.30 0.06831
1187.40 0.0683
1187.50 0.06829
1187.60 0.06828
1187.70 0.06827
1187.80 0.06826
1187.90 0.06825
1188.00 0.06824
1188.10 0.06824
1188.20 0.06823
1188.30 0.06822
1188.40 0.06821
1188.50 0.0682
1188.60 0.06819
1188.70 0.06818
1188.80 0.06817
1188.90 0.06816
1189.00 0.06815
1189.10 0.06815
1189.20 0.06814
1189.30 0.06813
1189.40 0.06812
1189.50 0.06811
1189.60 0.0681
1189.70 0.06809
1189.80 0.06808
1189.90 0.06807
1190.00 0.06807
1190.10 0.06806
1190.20 0.06805
1190.30 0.06804
1190.40 0.06803
1190.50 0.06802
1190.60 0.06801
1190.70 0.068
1190.80 0.06799
1190.90 0.06799
1191.00 0.06798
1191.10 0.06797
1191.20 0.06796
1191.30 0.06795
1191.40 0.06794
1191.50 0.06793
1191.60 0.06792
1191.70 0.06791
1191.80 0.0679
1191.90 0.0679
1192.00 0.06789
1192.10 0.06788
1192.20 0.06787
1192.30 0.06786
1192.40 0.06785
1192.50 0.06783
1192.60 0.06782
1192.70 0.06781
1192.80 0.0678
1192.90 0.06779
1193.00 0.06778
1193.10 0.06777
1193.20 0.06776
1193.30 0.06775
1193.40 0.06774
1193.50 0.06773
1193.60 0.06772
1193.70 0.06771
1193.80 0.0677
1193.90 0.06769
1194.00 0.06768
1194.10 0.06767
1194.20 0.06766
1194.30 0.06765
1194.40 0.06764
1194.50 0.06763
1194.60 0.06761
1194.70 0.0676
1194.80 0.06759
1194.90 0.06758
1195.00 0.06757
1195.10 0.06756
1195.20 0.06755
1195.30 0.06754
1195.40 0.06753
1195.50 0.06752
1195.60 0.06751
1195.70 0.0675
1195.80 0.06749
1195.90 0.06748
1196.00 0.06747
1196.10 0.06746
1196.20 0.06745
1196.30 0.06744
1196.40 0.06743
1196.50 0.06742
1196.60 0.06741
1196.70 0.0674
1196.80 0.06739
1196.90 0.06738
1197.00 0.06737
1197.10 0.06735
1197.20 0.06733
1197.30 0.06732
1197.40 0.0673
1197.50 0.06729
1197.60 0.06727
1197.70 0.06726
1197.80 0.06724
1197.90 0.06723
1198.00 0.06721
1198.10 0.0672
1198.20 0.06718
1198.30 0.06717
1198.40 0.06715
1198.50 0.06714
1198.60 0.06712
1198.70 0.06711
1198.80 0.06709
1198.90 0.06708
1199.00 0.06706
1199.10 0.06705
1199.20 0.06703
1199.30 0.06702
1199.40 0.067
1199.50 0.06699
1199.60 0.06697
1199.70 0.06696
1199.80 0.06694
1199.90 0.06693
1200.00 0
