# Version 2.1 - nm, norm@500 to 1, cut digits, bergeron_75000_90.dat_75000
# Wavelength(nm)  Flambda(ergs/cm^s/s/nm)
300.00 6.642
300.10 6.634
300.20 6.626
300.30 6.617
300.40 6.609
300.50 6.601
300.60 6.593
300.70 6.585
300.80 6.577
300.90 6.569
301.00 6.56
301.10 6.552
301.20 6.544
301.30 6.536
301.40 6.528
301.50 6.52
301.60 6.512
301.70 6.504
301.80 6.496
301.90 6.488
302.00 6.48
302.10 6.472
302.20 6.464
302.30 6.456
302.40 6.448
302.50 6.44
302.60 6.432
302.70 6.424
302.80 6.416
302.90 6.409
303.00 6.401
303.10 6.393
303.20 6.385
303.30 6.377
303.40 6.369
303.50 6.361
303.60 6.354
303.70 6.346
303.80 6.338
303.90 6.33
304.00 6.323
304.10 6.315
304.20 6.307
304.30 6.299
304.40 6.292
304.50 6.284
304.60 6.276
304.70 6.269
304.80 6.261
304.90 6.253
305.00 6.246
305.10 6.238
305.20 6.231
305.30 6.223
305.40 6.215
305.50 6.208
305.60 6.2
305.70 6.193
305.80 6.185
305.90 6.178
306.00 6.17
306.10 6.163
306.20 6.155
306.30 6.148
306.40 6.14
306.50 6.133
306.60 6.125
306.70 6.118
306.80 6.11
306.90 6.103
307.00 6.096
307.10 6.088
307.20 6.081
307.30 6.073
307.40 6.066
307.50 6.059
307.60 6.051
307.70 6.044
307.80 6.037
307.90 6.029
308.00 6.022
308.10 6.015
308.20 6.008
308.30 6
308.40 5.993
308.50 5.986
308.60 5.979
308.70 5.971
308.80 5.964
308.90 5.957
309.00 5.95
309.10 5.943
309.20 5.935
309.30 5.928
309.40 5.921
309.50 5.914
309.60 5.907
309.70 5.9
309.80 5.893
309.90 5.886
310.00 5.879
310.10 5.872
310.20 5.864
310.30 5.857
310.40 5.85
310.50 5.843
310.60 5.836
310.70 5.829
310.80 5.822
310.90 5.815
311.00 5.808
311.10 5.801
311.20 5.795
311.30 5.788
311.40 5.781
311.50 5.774
311.60 5.767
311.70 5.76
311.80 5.753
311.90 5.746
312.00 5.739
312.10 5.732
312.20 5.726
312.30 5.719
312.40 5.712
312.50 5.705
312.60 5.698
312.70 5.692
312.80 5.685
312.90 5.678
313.00 5.671
313.10 5.664
313.20 5.658
313.30 5.651
313.40 5.644
313.50 5.638
313.60 5.631
313.70 5.624
313.80 5.618
313.90 5.611
314.00 5.604
314.10 5.598
314.20 5.591
314.30 5.584
314.40 5.578
314.50 5.571
314.60 5.564
314.70 5.558
314.80 5.551
314.90 5.545
315.00 5.538
315.10 5.532
315.20 5.525
315.30 5.518
315.40 5.512
315.50 5.505
315.60 5.499
315.70 5.492
315.80 5.486
315.90 5.479
316.00 5.473
316.10 5.467
316.20 5.46
316.30 5.454
316.40 5.447
316.50 5.441
316.60 5.434
316.70 5.428
316.80 5.422
316.90 5.415
317.00 5.409
317.10 5.402
317.20 5.396
317.30 5.39
317.40 5.383
317.50 5.377
317.60 5.371
317.70 5.364
317.80 5.358
317.90 5.352
318.00 5.346
318.10 5.339
318.20 5.333
318.30 5.327
318.40 5.321
318.50 5.314
318.60 5.308
318.70 5.302
318.80 5.296
318.90 5.289
319.00 5.283
319.10 5.277
319.20 5.271
319.30 5.265
319.40 5.259
319.50 5.253
319.60 5.246
319.70 5.24
319.80 5.234
319.90 5.228
320.00 5.222
320.10 5.216
320.20 5.21
320.30 5.204
320.40 5.198
320.50 5.192
320.60 5.186
320.70 5.18
320.80 5.173
320.90 5.167
321.00 5.161
321.10 5.155
321.20 5.149
321.30 5.143
321.40 5.137
321.50 5.132
321.60 5.126
321.70 5.12
321.80 5.114
321.90 5.108
322.00 5.102
322.10 5.096
322.20 5.09
322.30 5.084
322.40 5.078
322.50 5.072
322.60 5.066
322.70 5.061
322.80 5.055
322.90 5.049
323.00 5.043
323.10 5.037
323.20 5.031
323.30 5.026
323.40 5.02
323.50 5.014
323.60 5.008
323.70 5.002
323.80 4.997
323.90 4.991
324.00 4.985
324.10 4.979
324.20 4.974
324.30 4.968
324.40 4.962
324.50 4.957
324.60 4.951
324.70 4.945
324.80 4.939
324.90 4.934
325.00 4.928
325.10 4.922
325.20 4.917
325.30 4.911
325.40 4.906
325.50 4.9
325.60 4.894
325.70 4.889
325.80 4.883
325.90 4.877
326.00 4.872
326.10 4.866
326.20 4.861
326.30 4.855
326.40 4.85
326.50 4.844
326.60 4.838
326.70 4.833
326.80 4.827
326.90 4.822
327.00 4.816
327.10 4.811
327.20 4.805
327.30 4.8
327.40 4.794
327.50 4.789
327.60 4.783
327.70 4.778
327.80 4.773
327.90 4.767
328.00 4.762
328.10 4.756
328.20 4.751
328.30 4.745
328.40 4.74
328.50 4.735
328.60 4.729
328.70 4.724
328.80 4.719
328.90 4.713
329.00 4.708
329.10 4.702
329.20 4.697
329.30 4.692
329.40 4.686
329.50 4.681
329.60 4.676
329.70 4.671
329.80 4.665
329.90 4.66
330.00 4.655
330.10 4.649
330.20 4.644
330.30 4.639
330.40 4.634
330.50 4.629
330.60 4.623
330.70 4.618
330.80 4.613
330.90 4.608
331.00 4.602
331.10 4.597
331.20 4.592
331.30 4.587
331.40 4.582
331.50 4.577
331.60 4.571
331.70 4.566
331.80 4.561
331.90 4.556
332.00 4.551
332.10 4.546
332.20 4.541
332.30 4.535
332.40 4.53
332.50 4.525
332.60 4.52
332.70 4.515
332.80 4.51
332.90 4.505
333.00 4.5
333.10 4.495
333.20 4.49
333.30 4.485
333.40 4.48
333.50 4.475
333.60 4.47
333.70 4.465
333.80 4.46
333.90 4.455
334.00 4.45
334.10 4.445
334.20 4.44
334.30 4.435
334.40 4.43
334.50 4.425
334.60 4.42
334.70 4.415
334.80 4.41
334.90 4.405
335.00 4.4
335.10 4.395
335.20 4.39
335.30 4.385
335.40 4.381
335.50 4.376
335.60 4.371
335.70 4.366
335.80 4.361
335.90 4.356
336.00 4.351
336.10 4.346
336.20 4.342
336.30 4.337
336.40 4.332
336.50 4.327
336.60 4.322
336.70 4.318
336.80 4.313
336.90 4.308
337.00 4.303
337.10 4.298
337.20 4.294
337.30 4.289
337.40 4.284
337.50 4.279
337.60 4.275
337.70 4.27
337.80 4.265
337.90 4.26
338.00 4.256
338.10 4.251
338.20 4.246
338.30 4.242
338.40 4.237
338.50 4.232
338.60 4.228
338.70 4.223
338.80 4.218
338.90 4.214
339.00 4.209
339.10 4.204
339.20 4.2
339.30 4.195
339.40 4.19
339.50 4.186
339.60 4.181
339.70 4.177
339.80 4.172
339.90 4.167
340.00 4.163
340.10 4.158
340.20 4.154
340.30 4.149
340.40 4.144
340.50 4.14
340.60 4.135
340.70 4.131
340.80 4.126
340.90 4.122
341.00 4.117
341.10 4.113
341.20 4.108
341.30 4.104
341.40 4.099
341.50 4.095
341.60 4.09
341.70 4.086
341.80 4.081
341.90 4.077
342.00 4.072
342.10 4.068
342.20 4.063
342.30 4.059
342.40 4.054
342.50 4.05
342.60 4.046
342.70 4.041
342.80 4.037
342.90 4.032
343.00 4.028
343.10 4.024
343.20 4.019
343.30 4.015
343.40 4.01
343.50 4.006
343.60 4.002
343.70 3.997
343.80 3.993
343.90 3.989
344.00 3.984
344.10 3.98
344.20 3.976
344.30 3.971
344.40 3.967
344.50 3.963
344.60 3.958
344.70 3.954
344.80 3.95
344.90 3.945
345.00 3.941
345.10 3.937
345.20 3.933
345.30 3.928
345.40 3.924
345.50 3.92
345.60 3.916
345.70 3.911
345.80 3.907
345.90 3.903
346.00 3.899
346.10 3.894
346.20 3.89
346.30 3.886
346.40 3.882
346.50 3.878
346.60 3.873
346.70 3.869
346.80 3.865
346.90 3.861
347.00 3.857
347.10 3.853
347.20 3.848
347.30 3.844
347.40 3.84
347.50 3.836
347.60 3.832
347.70 3.828
347.80 3.824
347.90 3.819
348.00 3.815
348.10 3.811
348.20 3.807
348.30 3.803
348.40 3.799
348.50 3.795
348.60 3.791
348.70 3.787
348.80 3.783
348.90 3.779
349.00 3.774
349.10 3.77
349.20 3.766
349.30 3.762
349.40 3.758
349.50 3.754
349.60 3.75
349.70 3.746
349.80 3.742
349.90 3.738
350.00 3.734
350.10 3.73
350.20 3.726
350.30 3.722
350.40 3.718
350.50 3.714
350.60 3.71
350.70 3.706
350.80 3.702
350.90 3.698
351.00 3.694
351.10 3.691
351.20 3.687
351.30 3.683
351.40 3.679
351.50 3.675
351.60 3.671
351.70 3.667
351.80 3.663
351.90 3.659
352.00 3.655
352.10 3.651
352.20 3.647
352.30 3.644
352.40 3.64
352.50 3.636
352.60 3.632
352.70 3.628
352.80 3.624
352.90 3.62
353.00 3.617
353.10 3.613
353.20 3.609
353.30 3.605
353.40 3.601
353.50 3.597
353.60 3.594
353.70 3.59
353.80 3.586
353.90 3.582
354.00 3.578
354.10 3.574
354.20 3.571
354.30 3.567
354.40 3.563
354.50 3.559
354.60 3.556
354.70 3.552
354.80 3.548
354.90 3.544
355.00 3.541
355.10 3.537
355.20 3.533
355.30 3.529
355.40 3.526
355.50 3.522
355.60 3.518
355.70 3.515
355.80 3.511
355.90 3.507
356.00 3.503
356.10 3.5
356.20 3.496
356.30 3.492
356.40 3.489
356.50 3.485
356.60 3.481
356.70 3.478
356.80 3.474
356.90 3.47
357.00 3.467
357.10 3.463
357.20 3.46
357.30 3.456
357.40 3.452
357.50 3.449
357.60 3.445
357.70 3.441
357.80 3.438
357.90 3.434
358.00 3.431
358.10 3.427
358.20 3.423
358.30 3.42
358.40 3.416
358.50 3.413
358.60 3.409
358.70 3.405
358.80 3.402
358.90 3.398
359.00 3.395
359.10 3.391
359.20 3.388
359.30 3.384
359.40 3.381
359.50 3.377
359.60 3.374
359.70 3.37
359.80 3.367
359.90 3.363
360.00 3.359
360.10 3.356
360.20 3.352
360.30 3.349
360.40 3.346
360.50 3.342
360.60 3.339
360.70 3.335
360.80 3.332
360.90 3.328
361.00 3.325
361.10 3.321
361.20 3.318
361.30 3.314
361.40 3.311
361.50 3.307
361.60 3.304
361.70 3.301
361.80 3.297
361.90 3.294
362.00 3.29
362.10 3.287
362.20 3.283
362.30 3.28
362.40 3.277
362.50 3.273
362.60 3.27
362.70 3.267
362.80 3.263
362.90 3.26
363.00 3.256
363.10 3.253
363.20 3.25
363.30 3.246
363.40 3.243
363.50 3.24
363.60 3.236
363.70 3.233
363.80 3.23
363.90 3.226
364.00 3.223
364.10 3.22
364.20 3.216
364.30 3.213
364.40 3.21
364.50 3.206
364.60 3.203
364.70 3.2
364.80 3.196
364.90 3.193
365.00 3.19
365.10 3.187
365.20 3.183
365.30 3.18
365.40 3.177
365.50 3.174
365.60 3.17
365.70 3.167
365.80 3.164
365.90 3.16
366.00 3.157
366.10 3.154
366.20 3.151
366.30 3.147
366.40 3.144
366.50 3.141
366.60 3.138
366.70 3.134
366.80 3.131
366.90 3.128
367.00 3.125
367.10 3.122
367.20 3.118
367.30 3.115
367.40 3.112
367.50 3.109
367.60 3.105
367.70 3.102
367.80 3.099
367.90 3.096
368.00 3.093
368.10 3.089
368.20 3.086
368.30 3.083
368.40 3.08
368.50 3.076
368.60 3.073
368.70 3.07
368.80 3.067
368.90 3.064
369.00 3.06
369.10 3.057
369.20 3.054
369.30 3.051
369.40 3.048
369.50 3.044
369.60 3.041
369.70 3.038
369.80 3.035
369.90 3.032
370.00 3.028
370.10 3.025
370.20 3.022
370.30 3.019
370.40 3.016
370.50 3.013
370.60 3.01
370.70 3.006
370.80 3.003
370.90 3
371.00 2.997
371.10 2.994
371.20 2.991
371.30 2.988
371.40 2.985
371.50 2.981
371.60 2.978
371.70 2.975
371.80 2.972
371.90 2.969
372.00 2.966
372.10 2.963
372.20 2.96
372.30 2.957
372.40 2.954
372.50 2.951
372.60 2.948
372.70 2.945
372.80 2.942
372.90 2.939
373.00 2.936
373.10 2.933
373.20 2.93
373.30 2.928
373.40 2.925
373.50 2.922
373.60 2.919
373.70 2.916
373.80 2.913
373.90 2.91
374.00 2.907
374.10 2.904
374.20 2.901
374.30 2.898
374.40 2.895
374.50 2.892
374.60 2.889
374.70 2.886
374.80 2.883
374.90 2.88
375.00 2.877
375.10 2.874
375.20 2.871
375.30 2.868
375.40 2.865
375.50 2.862
375.60 2.859
375.70 2.856
375.80 2.854
375.90 2.851
376.00 2.848
376.10 2.845
376.20 2.842
376.30 2.839
376.40 2.836
376.50 2.833
376.60 2.83
376.70 2.827
376.80 2.824
376.90 2.821
377.00 2.819
377.10 2.816
377.20 2.813
377.30 2.81
377.40 2.807
377.50 2.804
377.60 2.802
377.70 2.799
377.80 2.796
377.90 2.793
378.00 2.79
378.10 2.787
378.20 2.785
378.30 2.782
378.40 2.779
378.50 2.776
378.60 2.774
378.70 2.771
378.80 2.768
378.90 2.765
379.00 2.762
379.10 2.76
379.20 2.757
379.30 2.754
379.40 2.751
379.50 2.749
379.60 2.746
379.70 2.743
379.80 2.74
379.90 2.738
380.00 2.735
380.10 2.732
380.20 2.729
380.30 2.727
380.40 2.724
380.50 2.721
380.60 2.719
380.70 2.716
380.80 2.713
380.90 2.711
381.00 2.708
381.10 2.705
381.20 2.703
381.30 2.7
381.40 2.697
381.50 2.695
381.60 2.692
381.70 2.689
381.80 2.687
381.90 2.684
382.00 2.681
382.10 2.679
382.20 2.676
382.30 2.674
382.40 2.671
382.50 2.668
382.60 2.666
382.70 2.663
382.80 2.661
382.90 2.658
383.00 2.655
383.10 2.653
383.20 2.65
383.30 2.648
383.40 2.645
383.50 2.643
383.60 2.64
383.70 2.637
383.80 2.635
383.90 2.632
384.00 2.63
384.10 2.627
384.20 2.625
384.30 2.622
384.40 2.62
384.50 2.617
384.60 2.615
384.70 2.612
384.80 2.61
384.90 2.607
385.00 2.605
385.10 2.602
385.20 2.6
385.30 2.598
385.40 2.595
385.50 2.593
385.60 2.59
385.70 2.588
385.80 2.585
385.90 2.583
386.00 2.58
386.10 2.578
386.20 2.575
386.30 2.573
386.40 2.57
386.50 2.568
386.60 2.566
386.70 2.563
386.80 2.561
386.90 2.558
387.00 2.556
387.10 2.553
387.20 2.551
387.30 2.548
387.40 2.546
387.50 2.543
387.60 2.541
387.70 2.539
387.80 2.536
387.90 2.534
388.00 2.531
388.10 2.529
388.20 2.527
388.30 2.524
388.40 2.522
388.50 2.52
388.60 2.517
388.70 2.515
388.80 2.513
388.90 2.51
389.00 2.508
389.10 2.506
389.20 2.503
389.30 2.501
389.40 2.499
389.50 2.497
389.60 2.495
389.70 2.492
389.80 2.49
389.90 2.488
390.00 2.486
390.10 2.484
390.20 2.481
390.30 2.479
390.40 2.477
390.50 2.475
390.60 2.473
390.70 2.47
390.80 2.468
390.90 2.466
391.00 2.464
391.10 2.462
391.20 2.459
391.30 2.457
391.40 2.455
391.50 2.453
391.60 2.451
391.70 2.448
391.80 2.446
391.90 2.444
392.00 2.442
392.10 2.439
392.20 2.437
392.30 2.435
392.40 2.432
392.50 2.43
392.60 2.428
392.70 2.425
392.80 2.423
392.90 2.421
393.00 2.418
393.10 2.416
393.20 2.414
393.30 2.411
393.40 2.409
393.50 2.406
393.60 2.404
393.70 2.402
393.80 2.399
393.90 2.397
394.00 2.394
394.10 2.392
394.20 2.389
394.30 2.387
394.40 2.384
394.50 2.382
394.60 2.379
394.70 2.377
394.80 2.374
394.90 2.372
395.00 2.369
395.10 2.367
395.20 2.364
395.30 2.362
395.40 2.359
395.50 2.357
395.60 2.354
395.70 2.352
395.80 2.349
395.90 2.346
396.00 2.344
396.10 2.341
396.20 2.339
396.30 2.336
396.40 2.334
396.50 2.331
396.60 2.329
396.70 2.327
396.80 2.324
396.90 2.322
397.00 2.32
397.10 2.318
397.20 2.316
397.30 2.315
397.40 2.313
397.50 2.311
397.60 2.31
397.70 2.308
397.80 2.307
397.90 2.305
398.00 2.304
398.10 2.302
398.20 2.301
398.30 2.299
398.40 2.298
398.50 2.296
398.60 2.295
398.70 2.293
398.80 2.292
398.90 2.29
399.00 2.289
399.10 2.287
399.20 2.286
399.30 2.284
399.40 2.283
399.50 2.281
399.60 2.28
399.70 2.278
399.80 2.277
399.90 2.275
400.00 2.273
400.10 2.272
400.20 2.27
400.30 2.268
400.40 2.267
400.50 2.265
400.60 2.263
400.70 2.261
400.80 2.26
400.90 2.258
401.00 2.256
401.10 2.254
401.20 2.252
401.30 2.251
401.40 2.249
401.50 2.247
401.60 2.245
401.70 2.243
401.80 2.241
401.90 2.239
402.00 2.237
402.10 2.235
402.20 2.233
402.30 2.231
402.40 2.229
402.50 2.227
402.60 2.225
402.70 2.223
402.80 2.221
402.90 2.219
403.00 2.216
403.10 2.214
403.20 2.212
403.30 2.21
403.40 2.208
403.50 2.205
403.60 2.203
403.70 2.201
403.80 2.198
403.90 2.196
404.00 2.194
404.10 2.191
404.20 2.189
404.30 2.186
404.40 2.184
404.50 2.181
404.60 2.179
404.70 2.176
404.80 2.174
404.90 2.171
405.00 2.169
405.10 2.166
405.20 2.163
405.30 2.161
405.40 2.158
405.50 2.155
405.60 2.152
405.70 2.149
405.80 2.147
405.90 2.144
406.00 2.141
406.10 2.138
406.20 2.135
406.30 2.132
406.40 2.129
406.50 2.126
406.60 2.123
406.70 2.12
406.80 2.117
406.90 2.114
407.00 2.111
407.10 2.108
407.20 2.104
407.30 2.101
407.40 2.098
407.50 2.095
407.60 2.091
407.70 2.088
407.80 2.085
407.90 2.081
408.00 2.078
408.10 2.075
408.20 2.071
408.30 2.068
408.40 2.065
408.50 2.061
408.60 2.058
408.70 2.054
408.80 2.051
408.90 2.048
409.00 2.045
409.10 2.041
409.20 2.038
409.30 2.035
409.40 2.032
409.50 2.03
409.60 2.027
409.70 2.025
409.80 2.023
409.90 2.021
410.00 2.02
410.10 2.019
410.20 2.018
410.30 2.015
410.40 2.013
410.50 2.011
410.60 2.009
410.70 2.008
410.80 2.007
410.90 2.006
411.00 2.005
411.10 2.005
411.20 2.005
411.30 2.004
411.40 2.004
411.50 2.004
411.60 2.004
411.70 2.003
411.80 2.003
411.90 2.003
412.00 2.003
412.10 2.003
412.20 2.003
412.30 2.003
412.40 2.002
412.50 2.002
412.60 2.002
412.70 2.002
412.80 2.001
412.90 2.001
413.00 2.001
413.10 2.001
413.20 2
413.30 2
413.40 1.999
413.50 1.999
413.60 1.999
413.70 1.998
413.80 1.998
413.90 1.997
414.00 1.997
414.10 1.996
414.20 1.995
414.30 1.995
414.40 1.994
414.50 1.993
414.60 1.993
414.70 1.992
414.80 1.991
414.90 1.99
415.00 1.99
415.10 1.989
415.20 1.988
415.30 1.987
415.40 1.986
415.50 1.985
415.60 1.984
415.70 1.983
415.80 1.982
415.90 1.981
416.00 1.98
416.10 1.979
416.20 1.978
416.30 1.977
416.40 1.976
416.50 1.975
416.60 1.974
416.70 1.973
416.80 1.972
416.90 1.97
417.00 1.969
417.10 1.968
417.20 1.967
417.30 1.966
417.40 1.964
417.50 1.963
417.60 1.962
417.70 1.961
417.80 1.959
417.90 1.958
418.00 1.957
418.10 1.955
418.20 1.954
418.30 1.952
418.40 1.951
418.50 1.95
418.60 1.948
418.70 1.947
418.80 1.945
418.90 1.944
419.00 1.943
419.10 1.941
419.20 1.94
419.30 1.938
419.40 1.937
419.50 1.935
419.60 1.934
419.70 1.932
419.80 1.93
419.90 1.929
420.00 1.927
420.10 1.926
420.20 1.924
420.30 1.923
420.40 1.921
420.50 1.919
420.60 1.918
420.70 1.916
420.80 1.915
420.90 1.913
421.00 1.911
421.10 1.91
421.20 1.908
421.30 1.906
421.40 1.904
421.50 1.903
421.60 1.901
421.70 1.899
421.80 1.898
421.90 1.896
422.00 1.894
422.10 1.892
422.20 1.891
422.30 1.889
422.40 1.887
422.50 1.885
422.60 1.884
422.70 1.882
422.80 1.88
422.90 1.878
423.00 1.876
423.10 1.874
423.20 1.873
423.30 1.871
423.40 1.869
423.50 1.867
423.60 1.865
423.70 1.863
423.80 1.861
423.90 1.859
424.00 1.857
424.10 1.855
424.20 1.853
424.30 1.851
424.40 1.849
424.50 1.847
424.60 1.845
424.70 1.843
424.80 1.841
424.90 1.839
425.00 1.837
425.10 1.835
425.20 1.833
425.30 1.831
425.40 1.829
425.50 1.827
425.60 1.824
425.70 1.822
425.80 1.82
425.90 1.818
426.00 1.816
426.10 1.813
426.20 1.811
426.30 1.809
426.40 1.807
426.50 1.804
426.60 1.802
426.70 1.8
426.80 1.797
426.90 1.795
427.00 1.792
427.10 1.79
427.20 1.788
427.30 1.785
427.40 1.783
427.50 1.78
427.60 1.777
427.70 1.775
427.80 1.772
427.90 1.77
428.00 1.767
428.10 1.764
428.20 1.762
428.30 1.759
428.40 1.756
428.50 1.753
428.60 1.75
428.70 1.747
428.80 1.745
428.90 1.742
429.00 1.739
429.10 1.736
429.20 1.733
429.30 1.729
429.40 1.726
429.50 1.723
429.60 1.72
429.70 1.717
429.80 1.713
429.90 1.71
430.00 1.707
430.10 1.703
430.20 1.7
430.30 1.696
430.40 1.693
430.50 1.689
430.60 1.686
430.70 1.682
430.80 1.678
430.90 1.675
431.00 1.671
431.10 1.667
431.20 1.663
431.30 1.659
431.40 1.655
431.50 1.651
431.60 1.647
431.70 1.643
431.80 1.639
431.90 1.635
432.00 1.631
432.10 1.627
432.20 1.622
432.30 1.618
432.40 1.614
432.50 1.61
432.60 1.605
432.70 1.601
432.80 1.597
432.90 1.593
433.00 1.588
433.10 1.584
433.20 1.58
433.30 1.575
433.40 1.571
433.50 1.566
433.60 1.561
433.70 1.556
433.80 1.55
433.90 1.544
434.00 1.54
434.10 1.539
434.20 1.541
434.30 1.544
434.40 1.547
434.50 1.55
434.60 1.552
434.70 1.554
434.80 1.556
434.90 1.558
435.00 1.56
435.10 1.561
435.20 1.563
435.30 1.565
435.40 1.566
435.50 1.568
435.60 1.569
435.70 1.571
435.80 1.572
435.90 1.574
436.00 1.575
436.10 1.577
436.20 1.578
436.30 1.58
436.40 1.581
436.50 1.582
436.60 1.583
436.70 1.584
436.80 1.586
436.90 1.587
437.00 1.588
437.10 1.589
437.20 1.589
437.30 1.59
437.40 1.591
437.50 1.592
437.60 1.593
437.70 1.593
437.80 1.594
437.90 1.594
438.00 1.595
438.10 1.595
438.20 1.596
438.30 1.596
438.40 1.597
438.50 1.597
438.60 1.597
438.70 1.597
438.80 1.598
438.90 1.598
439.00 1.598
439.10 1.598
439.20 1.598
439.30 1.598
439.40 1.598
439.50 1.598
439.60 1.598
439.70 1.597
439.80 1.597
439.90 1.597
440.00 1.597
440.10 1.596
440.20 1.596
440.30 1.596
440.40 1.595
440.50 1.595
440.60 1.595
440.70 1.594
440.80 1.594
440.90 1.593
441.00 1.593
441.10 1.592
441.20 1.592
441.30 1.591
441.40 1.59
441.50 1.59
441.60 1.589
441.70 1.588
441.80 1.588
441.90 1.587
442.00 1.586
442.10 1.586
442.20 1.585
442.30 1.584
442.40 1.583
442.50 1.582
442.60 1.582
442.70 1.581
442.80 1.58
442.90 1.579
443.00 1.578
443.10 1.577
443.20 1.577
443.30 1.576
443.40 1.575
443.50 1.574
443.60 1.573
443.70 1.572
443.80 1.571
443.90 1.57
444.00 1.569
444.10 1.568
444.20 1.567
444.30 1.566
444.40 1.565
444.50 1.564
444.60 1.563
444.70 1.562
444.80 1.561
444.90 1.56
445.00 1.559
445.10 1.558
445.20 1.557
445.30 1.556
445.40 1.555
445.50 1.553
445.60 1.552
445.70 1.551
445.80 1.55
445.90 1.549
446.00 1.548
446.10 1.547
446.20 1.546
446.30 1.545
446.40 1.543
446.50 1.542
446.60 1.541
446.70 1.54
446.80 1.539
446.90 1.538
447.00 1.537
447.10 1.536
447.20 1.534
447.30 1.533
447.40 1.532
447.50 1.531
447.60 1.53
447.70 1.529
447.80 1.527
447.90 1.526
448.00 1.525
448.10 1.524
448.20 1.523
448.30 1.522
448.40 1.52
448.50 1.519
448.60 1.518
448.70 1.517
448.80 1.516
448.90 1.515
449.00 1.513
449.10 1.512
449.20 1.511
449.30 1.51
449.40 1.509
449.50 1.507
449.60 1.506
449.70 1.505
449.80 1.504
449.90 1.503
450.00 1.501
450.10 1.5
450.20 1.499
450.30 1.498
450.40 1.497
450.50 1.495
450.60 1.494
450.70 1.493
450.80 1.492
450.90 1.491
451.00 1.489
451.10 1.488
451.20 1.487
451.30 1.486
451.40 1.485
451.50 1.483
451.60 1.482
451.70 1.481
451.80 1.48
451.90 1.479
452.00 1.477
452.10 1.476
452.20 1.475
452.30 1.474
452.40 1.473
452.50 1.471
452.60 1.47
452.70 1.469
452.80 1.468
452.90 1.467
453.00 1.465
453.10 1.464
453.20 1.463
453.30 1.462
453.40 1.461
453.50 1.459
453.60 1.458
453.70 1.457
453.80 1.456
453.90 1.455
454.00 1.453
454.10 1.452
454.20 1.451
454.30 1.45
454.40 1.449
454.50 1.447
454.60 1.446
454.70 1.445
454.80 1.444
454.90 1.443
455.00 1.441
455.10 1.44
455.20 1.439
455.30 1.438
455.40 1.437
455.50 1.435
455.60 1.434
455.70 1.433
455.80 1.432
455.90 1.431
456.00 1.429
456.10 1.428
456.20 1.427
456.30 1.426
456.40 1.425
456.50 1.424
456.60 1.422
456.70 1.421
456.80 1.42
456.90 1.419
457.00 1.418
457.10 1.416
457.20 1.415
457.30 1.414
457.40 1.413
457.50 1.412
457.60 1.41
457.70 1.409
457.80 1.408
457.90 1.407
458.00 1.406
458.10 1.405
458.20 1.403
458.30 1.402
458.40 1.401
458.50 1.4
458.60 1.399
458.70 1.398
458.80 1.396
458.90 1.395
459.00 1.394
459.10 1.393
459.20 1.392
459.30 1.391
459.40 1.389
459.50 1.388
459.60 1.387
459.70 1.386
459.80 1.385
459.90 1.384
460.00 1.382
460.10 1.381
460.20 1.38
460.30 1.379
460.40 1.378
460.50 1.377
460.60 1.375
460.70 1.374
460.80 1.373
460.90 1.372
461.00 1.371
461.10 1.37
461.20 1.369
461.30 1.367
461.40 1.366
461.50 1.365
461.60 1.364
461.70 1.363
461.80 1.362
461.90 1.36
462.00 1.359
462.10 1.358
462.20 1.357
462.30 1.356
462.40 1.355
462.50 1.354
462.60 1.352
462.70 1.351
462.80 1.35
462.90 1.349
463.00 1.348
463.10 1.347
463.20 1.346
463.30 1.344
463.40 1.343
463.50 1.342
463.60 1.341
463.70 1.34
463.80 1.339
463.90 1.338
464.00 1.337
464.10 1.335
464.20 1.334
464.30 1.333
464.40 1.332
464.50 1.331
464.60 1.33
464.70 1.329
464.80 1.327
464.90 1.326
465.00 1.325
465.10 1.324
465.20 1.323
465.30 1.322
465.40 1.321
465.50 1.32
465.60 1.318
465.70 1.317
465.80 1.316
465.90 1.315
466.00 1.314
466.10 1.313
466.20 1.312
466.30 1.311
466.40 1.309
466.50 1.308
466.60 1.307
466.70 1.306
466.80 1.305
466.90 1.304
467.00 1.303
467.10 1.302
467.20 1.3
467.30 1.299
467.40 1.298
467.50 1.297
467.60 1.296
467.70 1.295
467.80 1.294
467.90 1.293
468.00 1.291
468.10 1.29
468.20 1.289
468.30 1.288
468.40 1.287
468.50 1.286
468.60 1.285
468.70 1.284
468.80 1.282
468.90 1.281
469.00 1.28
469.10 1.279
469.20 1.278
469.30 1.277
469.40 1.276
469.50 1.275
469.60 1.273
469.70 1.272
469.80 1.271
469.90 1.27
470.00 1.269
470.10 1.268
470.20 1.267
470.30 1.266
470.40 1.264
470.50 1.263
470.60 1.262
470.70 1.261
470.80 1.26
470.90 1.259
471.00 1.258
471.10 1.257
471.20 1.255
471.30 1.254
471.40 1.253
471.50 1.252
471.60 1.251
471.70 1.25
471.80 1.249
471.90 1.247
472.00 1.246
472.10 1.245
472.20 1.244
472.30 1.243
472.40 1.242
472.50 1.24
472.60 1.239
472.70 1.238
472.80 1.237
472.90 1.236
473.00 1.235
473.10 1.234
473.20 1.232
473.30 1.231
473.40 1.23
473.50 1.229
473.60 1.228
473.70 1.226
473.80 1.225
473.90 1.224
474.00 1.223
474.10 1.222
474.20 1.22
474.30 1.219
474.40 1.218
474.50 1.217
474.60 1.216
474.70 1.214
474.80 1.213
474.90 1.212
475.00 1.211
475.10 1.21
475.20 1.208
475.30 1.207
475.40 1.206
475.50 1.204
475.60 1.203
475.70 1.202
475.80 1.201
475.90 1.199
476.00 1.198
476.10 1.197
476.20 1.196
476.30 1.194
476.40 1.193
476.50 1.192
476.60 1.19
476.70 1.189
476.80 1.188
476.90 1.186
477.00 1.185
477.10 1.184
477.20 1.182
477.30 1.181
477.40 1.179
477.50 1.178
477.60 1.176
477.70 1.175
477.80 1.174
477.90 1.172
478.00 1.171
478.10 1.169
478.20 1.168
478.30 1.166
478.40 1.165
478.50 1.163
478.60 1.162
478.70 1.16
478.80 1.159
478.90 1.157
479.00 1.155
479.10 1.154
479.20 1.152
479.30 1.15
479.40 1.149
479.50 1.147
479.60 1.145
479.70 1.144
479.80 1.142
479.90 1.14
480.00 1.138
480.10 1.137
480.20 1.135
480.30 1.133
480.40 1.131
480.50 1.129
480.60 1.127
480.70 1.125
480.80 1.123
480.90 1.121
481.00 1.119
481.10 1.117
481.20 1.115
481.30 1.113
481.40 1.111
481.50 1.108
481.60 1.106
481.70 1.104
481.80 1.102
481.90 1.099
482.00 1.097
482.10 1.095
482.20 1.092
482.30 1.09
482.40 1.087
482.50 1.085
482.60 1.082
482.70 1.079
482.80 1.077
482.90 1.074
483.00 1.071
483.10 1.069
483.20 1.066
483.30 1.063
483.40 1.06
483.50 1.057
483.60 1.054
483.70 1.051
483.80 1.048
483.90 1.045
484.00 1.042
484.10 1.039
484.20 1.035
484.30 1.032
484.40 1.029
484.50 1.025
484.60 1.022
484.70 1.019
484.80 1.015
484.90 1.012
485.00 1.009
485.10 1.005
485.20 1.002
485.30 0.9986
485.40 0.9955
485.50 0.9925
485.60 0.9901
485.70 0.9879
485.80 0.9877
485.90 0.9884
486.00 0.993
486.10 1.002
486.20 0.9985
486.30 0.988
486.40 0.9843
486.50 0.982
486.60 0.9818
486.70 0.9824
486.80 0.9837
486.90 0.9852
487.00 0.9868
487.10 0.9886
487.20 0.9904
487.30 0.9922
487.40 0.9941
487.50 0.9959
487.60 0.9978
487.70 0.9995
487.80 1.001
487.90 1.003
488.00 1.005
488.10 1.006
488.20 1.008
488.30 1.009
488.40 1.011
488.50 1.012
488.60 1.013
488.70 1.015
488.80 1.016
488.90 1.018
489.00 1.019
489.10 1.02
489.20 1.021
489.30 1.022
489.40 1.023
489.50 1.024
489.60 1.025
489.70 1.026
489.80 1.027
489.90 1.028
490.00 1.029
490.10 1.029
490.20 1.03
490.30 1.03
490.40 1.031
490.50 1.031
490.60 1.032
490.70 1.032
490.80 1.033
490.90 1.033
491.00 1.034
491.10 1.034
491.20 1.035
491.30 1.035
491.40 1.035
491.50 1.035
491.60 1.035
491.70 1.035
491.80 1.036
491.90 1.036
492.00 1.036
492.10 1.036
492.20 1.036
492.30 1.036
492.40 1.036
492.50 1.036
492.60 1.036
492.70 1.036
492.80 1.036
492.90 1.035
493.00 1.035
493.10 1.035
493.20 1.035
493.30 1.035
493.40 1.035
493.50 1.034
493.60 1.034
493.70 1.034
493.80 1.033
493.90 1.033
494.00 1.033
494.10 1.033
494.20 1.032
494.30 1.032
494.40 1.032
494.50 1.031
494.60 1.031
494.70 1.03
494.80 1.03
494.90 1.03
495.00 1.029
495.10 1.029
495.20 1.028
495.30 1.028
495.40 1.027
495.50 1.027
495.60 1.026
495.70 1.026
495.80 1.025
495.90 1.025
496.00 1.024
496.10 1.024
496.20 1.023
496.30 1.023
496.40 1.022
496.50 1.022
496.60 1.021
496.70 1.021
496.80 1.02
496.90 1.019
497.00 1.019
497.10 1.018
497.20 1.018
497.30 1.017
497.40 1.017
497.50 1.016
497.60 1.015
497.70 1.015
497.80 1.014
497.90 1.014
498.00 1.013
498.10 1.012
498.20 1.012
498.30 1.011
498.40 1.01
498.50 1.01
498.60 1.009
498.70 1.008
498.80 1.008
498.90 1.007
499.00 1.007
499.10 1.006
499.20 1.005
499.30 1.005
499.40 1.004
499.50 1.003
499.60 1.003
499.70 1.002
499.80 1.001
499.90 1.001
500.00 1
500.10 0.9993
500.20 0.9987
500.30 0.998
500.40 0.9973
500.50 0.9966
500.60 0.996
500.70 0.9953
500.80 0.9946
500.90 0.9939
501.00 0.9932
501.10 0.9926
501.20 0.9919
501.30 0.9912
501.40 0.9905
501.50 0.9898
501.60 0.9891
501.70 0.9884
501.80 0.9878
501.90 0.9871
502.00 0.9864
502.10 0.9857
502.20 0.985
502.30 0.9843
502.40 0.9836
502.50 0.9829
502.60 0.9822
502.70 0.9815
502.80 0.9808
502.90 0.9801
503.00 0.9794
503.10 0.9788
503.20 0.9781
503.30 0.9774
503.40 0.9767
503.50 0.976
503.60 0.9753
503.70 0.9746
503.80 0.9739
503.90 0.9732
504.00 0.9725
504.10 0.9718
504.20 0.9711
504.30 0.9704
504.40 0.9697
504.50 0.969
504.60 0.9683
504.70 0.9676
504.80 0.9669
504.90 0.9662
505.00 0.9655
505.10 0.9648
505.20 0.9641
505.30 0.9634
505.40 0.9627
505.50 0.962
505.60 0.9613
505.70 0.9606
505.80 0.9599
505.90 0.9592
506.00 0.9585
506.10 0.9578
506.20 0.9571
506.30 0.9564
506.40 0.9557
506.50 0.955
506.60 0.9543
506.70 0.9536
506.80 0.9529
506.90 0.9522
507.00 0.9515
507.10 0.9508
507.20 0.9501
507.30 0.9494
507.40 0.9487
507.50 0.948
507.60 0.9473
507.70 0.9466
507.80 0.9459
507.90 0.9452
508.00 0.9445
508.10 0.9438
508.20 0.9431
508.30 0.9424
508.40 0.9417
508.50 0.941
508.60 0.9403
508.70 0.9397
508.80 0.939
508.90 0.9383
509.00 0.9376
509.10 0.9369
509.20 0.9362
509.30 0.9355
509.40 0.9348
509.50 0.9341
509.60 0.9334
509.70 0.9327
509.80 0.9321
509.90 0.9314
510.00 0.9307
510.10 0.93
510.20 0.9293
510.30 0.9286
510.40 0.9279
510.50 0.9272
510.60 0.9266
510.70 0.9259
510.80 0.9252
510.90 0.9245
511.00 0.9238
511.10 0.9231
511.20 0.9225
511.30 0.9218
511.40 0.9211
511.50 0.9204
511.60 0.9197
511.70 0.9191
511.80 0.9184
511.90 0.9177
512.00 0.917
512.10 0.9163
512.20 0.9157
512.30 0.915
512.40 0.9143
512.50 0.9136
512.60 0.9129
512.70 0.9123
512.80 0.9116
512.90 0.9109
513.00 0.9102
513.10 0.9096
513.20 0.9089
513.30 0.9082
513.40 0.9076
513.50 0.9069
513.60 0.9062
513.70 0.9055
513.80 0.9049
513.90 0.9042
514.00 0.9035
514.10 0.9029
514.20 0.9022
514.30 0.9015
514.40 0.9009
514.50 0.9002
514.60 0.8995
514.70 0.8989
514.80 0.8982
514.90 0.8975
515.00 0.8969
515.10 0.8962
515.20 0.8955
515.30 0.8949
515.40 0.8942
515.50 0.8936
515.60 0.8929
515.70 0.8922
515.80 0.8916
515.90 0.8909
516.00 0.8903
516.10 0.8896
516.20 0.8889
516.30 0.8883
516.40 0.8876
516.50 0.887
516.60 0.8863
516.70 0.8857
516.80 0.885
516.90 0.8844
517.00 0.8837
517.10 0.883
517.20 0.8824
517.30 0.8817
517.40 0.8811
517.50 0.8804
517.60 0.8798
517.70 0.8791
517.80 0.8785
517.90 0.8778
518.00 0.8772
518.10 0.8765
518.20 0.8759
518.30 0.8753
518.40 0.8746
518.50 0.874
518.60 0.8733
518.70 0.8727
518.80 0.872
518.90 0.8714
519.00 0.8707
519.10 0.8701
519.20 0.8695
519.30 0.8688
519.40 0.8682
519.50 0.8675
519.60 0.8669
519.70 0.8663
519.80 0.8656
519.90 0.865
520.00 0.8643
520.10 0.8637
520.20 0.8631
520.30 0.8624
520.40 0.8618
520.50 0.8612
520.60 0.8605
520.70 0.8599
520.80 0.8593
520.90 0.8586
521.00 0.858
521.10 0.8574
521.20 0.8567
521.30 0.8561
521.40 0.8555
521.50 0.8549
521.60 0.8542
521.70 0.8536
521.80 0.853
521.90 0.8523
522.00 0.8517
522.10 0.8511
522.20 0.8505
522.30 0.8498
522.40 0.8492
522.50 0.8486
522.60 0.848
522.70 0.8473
522.80 0.8467
522.90 0.8461
523.00 0.8455
523.10 0.8449
523.20 0.8442
523.30 0.8436
523.40 0.843
523.50 0.8424
523.60 0.8418
523.70 0.8412
523.80 0.8405
523.90 0.8399
524.00 0.8393
524.10 0.8387
524.20 0.8381
524.30 0.8375
524.40 0.8368
524.50 0.8362
524.60 0.8356
524.70 0.835
524.80 0.8344
524.90 0.8338
525.00 0.8332
525.10 0.8326
525.20 0.832
525.30 0.8313
525.40 0.8307
525.50 0.8301
525.60 0.8295
525.70 0.8289
525.80 0.8283
525.90 0.8277
526.00 0.8271
526.10 0.8265
526.20 0.8259
526.30 0.8253
526.40 0.8247
526.50 0.8241
526.60 0.8235
526.70 0.8229
526.80 0.8223
526.90 0.8217
527.00 0.8211
527.10 0.8205
527.20 0.8199
527.30 0.8193
527.40 0.8187
527.50 0.8181
527.60 0.8175
527.70 0.8169
527.80 0.8163
527.90 0.8157
528.00 0.8151
528.10 0.8145
528.20 0.8139
528.30 0.8133
528.40 0.8128
528.50 0.8122
528.60 0.8116
528.70 0.811
528.80 0.8104
528.90 0.8098
529.00 0.8092
529.10 0.8086
529.20 0.808
529.30 0.8074
529.40 0.8069
529.50 0.8063
529.60 0.8057
529.70 0.8051
529.80 0.8045
529.90 0.8039
530.00 0.8033
530.10 0.8028
530.20 0.8022
530.30 0.8016
530.40 0.801
530.50 0.8004
530.60 0.7999
530.70 0.7993
530.80 0.7987
530.90 0.7981
531.00 0.7975
531.10 0.797
531.20 0.7964
531.30 0.7958
531.40 0.7952
531.50 0.7947
531.60 0.7941
531.70 0.7935
531.80 0.7929
531.90 0.7924
532.00 0.7918
532.10 0.7912
532.20 0.7906
532.30 0.7901
532.40 0.7895
532.50 0.7889
532.60 0.7884
532.70 0.7878
532.80 0.7872
532.90 0.7866
533.00 0.7861
533.10 0.7855
533.20 0.7849
533.30 0.7844
533.40 0.7838
533.50 0.7832
533.60 0.7827
533.70 0.7821
533.80 0.7815
533.90 0.781
534.00 0.7804
534.10 0.7799
534.20 0.7793
534.30 0.7787
534.40 0.7782
534.50 0.7776
534.60 0.7771
534.70 0.7765
534.80 0.7759
534.90 0.7754
535.00 0.7748
535.10 0.7743
535.20 0.7737
535.30 0.7731
535.40 0.7726
535.50 0.772
535.60 0.7715
535.70 0.7709
535.80 0.7704
535.90 0.7698
536.00 0.7693
536.10 0.7687
536.20 0.7682
536.30 0.7676
536.40 0.7671
536.50 0.7665
536.60 0.766
536.70 0.7654
536.80 0.7649
536.90 0.7643
537.00 0.7638
537.10 0.7632
537.20 0.7627
537.30 0.7621
537.40 0.7616
537.50 0.761
537.60 0.7605
537.70 0.7599
537.80 0.7594
537.90 0.7588
538.00 0.7583
538.10 0.7578
538.20 0.7572
538.30 0.7567
538.40 0.7561
538.50 0.7556
538.60 0.755
538.70 0.7545
538.80 0.754
538.90 0.7534
539.00 0.7529
539.10 0.7523
539.20 0.7518
539.30 0.7513
539.40 0.7507
539.50 0.7502
539.60 0.7497
539.70 0.7491
539.80 0.7486
539.90 0.7481
540.00 0.7475
540.10 0.747
540.20 0.7465
540.30 0.7459
540.40 0.7454
540.50 0.7449
540.60 0.7443
540.70 0.7438
540.80 0.7433
540.90 0.7427
541.00 0.7422
541.10 0.7417
541.20 0.7411
541.30 0.7406
541.40 0.7401
541.50 0.7396
541.60 0.739
541.70 0.7385
541.80 0.738
541.90 0.7375
542.00 0.7369
542.10 0.7364
542.20 0.7359
542.30 0.7354
542.40 0.7348
542.50 0.7343
542.60 0.7338
542.70 0.7333
542.80 0.7328
542.90 0.7322
543.00 0.7317
543.10 0.7312
543.20 0.7307
543.30 0.7302
543.40 0.7296
543.50 0.7291
543.60 0.7286
543.70 0.7281
543.80 0.7276
543.90 0.7271
544.00 0.7265
544.10 0.726
544.20 0.7255
544.30 0.725
544.40 0.7245
544.50 0.724
544.60 0.7235
544.70 0.7229
544.80 0.7224
544.90 0.7219
545.00 0.7214
545.10 0.7209
545.20 0.7204
545.30 0.7199
545.40 0.7194
545.50 0.7189
545.60 0.7184
545.70 0.7178
545.80 0.7173
545.90 0.7168
546.00 0.7163
546.10 0.7158
546.20 0.7153
546.30 0.7148
546.40 0.7143
546.50 0.7138
546.60 0.7133
546.70 0.7128
546.80 0.7123
546.90 0.7118
547.00 0.7113
547.10 0.7108
547.20 0.7103
547.30 0.7098
547.40 0.7093
547.50 0.7088
547.60 0.7083
547.70 0.7078
547.80 0.7073
547.90 0.7068
548.00 0.7063
548.10 0.7058
548.20 0.7053
548.30 0.7048
548.40 0.7043
548.50 0.7038
548.60 0.7033
548.70 0.7028
548.80 0.7023
548.90 0.7018
549.00 0.7013
549.10 0.7008
549.20 0.7003
549.30 0.6999
549.40 0.6994
549.50 0.6989
549.60 0.6984
549.70 0.6979
549.80 0.6974
549.90 0.6969
550.00 0.6964
550.10 0.6959
550.20 0.6954
550.30 0.695
550.40 0.6945
550.50 0.694
550.60 0.6935
550.70 0.693
550.80 0.6925
550.90 0.692
551.00 0.6916
551.10 0.6911
551.20 0.6906
551.30 0.6901
551.40 0.6896
551.50 0.6891
551.60 0.6887
551.70 0.6882
551.80 0.6877
551.90 0.6872
552.00 0.6867
552.10 0.6863
552.20 0.6858
552.30 0.6853
552.40 0.6848
552.50 0.6843
552.60 0.6839
552.70 0.6834
552.80 0.6829
552.90 0.6824
553.00 0.6819
553.10 0.6815
553.20 0.681
553.30 0.6805
553.40 0.68
553.50 0.6796
553.60 0.6791
553.70 0.6786
553.80 0.6782
553.90 0.6777
554.00 0.6772
554.10 0.6767
554.20 0.6763
554.30 0.6758
554.40 0.6753
554.50 0.6749
554.60 0.6744
554.70 0.6739
554.80 0.6734
554.90 0.673
555.00 0.6725
555.10 0.672
555.20 0.6716
555.30 0.6711
555.40 0.6706
555.50 0.6702
555.60 0.6697
555.70 0.6692
555.80 0.6688
555.90 0.6683
556.00 0.6678
556.10 0.6674
556.20 0.6669
556.30 0.6665
556.40 0.666
556.50 0.6655
556.60 0.6651
556.70 0.6646
556.80 0.6641
556.90 0.6637
557.00 0.6632
557.10 0.6628
557.20 0.6623
557.30 0.6618
557.40 0.6614
557.50 0.6609
557.60 0.6605
557.70 0.66
557.80 0.6596
557.90 0.6591
558.00 0.6586
558.10 0.6582
558.20 0.6577
558.30 0.6573
558.40 0.6568
558.50 0.6564
558.60 0.6559
558.70 0.6555
558.80 0.655
558.90 0.6546
559.00 0.6541
559.10 0.6537
559.20 0.6532
559.30 0.6528
559.40 0.6523
559.50 0.6519
559.60 0.6514
559.70 0.651
559.80 0.6505
559.90 0.6501
560.00 0.6496
560.10 0.6492
560.20 0.6487
560.30 0.6483
560.40 0.6478
560.50 0.6474
560.60 0.6469
560.70 0.6465
560.80 0.646
560.90 0.6456
561.00 0.6451
561.10 0.6447
561.20 0.6443
561.30 0.6438
561.40 0.6434
561.50 0.6429
561.60 0.6425
561.70 0.642
561.80 0.6416
561.90 0.6412
562.00 0.6407
562.10 0.6403
562.20 0.6398
562.30 0.6394
562.40 0.639
562.50 0.6385
562.60 0.6381
562.70 0.6376
562.80 0.6372
562.90 0.6368
563.00 0.6363
563.10 0.6359
563.20 0.6355
563.30 0.635
563.40 0.6346
563.50 0.6342
563.60 0.6337
563.70 0.6333
563.80 0.6328
563.90 0.6324
564.00 0.632
564.10 0.6315
564.20 0.6311
564.30 0.6307
564.40 0.6303
564.50 0.6298
564.60 0.6294
564.70 0.629
564.80 0.6285
564.90 0.6281
565.00 0.6277
565.10 0.6272
565.20 0.6268
565.30 0.6264
565.40 0.626
565.50 0.6255
565.60 0.6251
565.70 0.6247
565.80 0.6242
565.90 0.6238
566.00 0.6234
566.10 0.623
566.20 0.6225
566.30 0.6221
566.40 0.6217
566.50 0.6213
566.60 0.6208
566.70 0.6204
566.80 0.62
566.90 0.6196
567.00 0.6192
567.10 0.6187
567.20 0.6183
567.30 0.6179
567.40 0.6175
567.50 0.617
567.60 0.6166
567.70 0.6162
567.80 0.6158
567.90 0.6154
568.00 0.615
568.10 0.6145
568.20 0.6141
568.30 0.6137
568.40 0.6133
568.50 0.6129
568.60 0.6124
568.70 0.612
568.80 0.6116
568.90 0.6112
569.00 0.6108
569.10 0.6104
569.20 0.61
569.30 0.6095
569.40 0.6091
569.50 0.6087
569.60 0.6083
569.70 0.6079
569.80 0.6075
569.90 0.6071
570.00 0.6066
570.10 0.6062
570.20 0.6058
570.30 0.6054
570.40 0.605
570.50 0.6046
570.60 0.6042
570.70 0.6038
570.80 0.6034
570.90 0.603
571.00 0.6026
571.10 0.6021
571.20 0.6017
571.30 0.6013
571.40 0.6009
571.50 0.6005
571.60 0.6001
571.70 0.5997
571.80 0.5993
571.90 0.5989
572.00 0.5985
572.10 0.5981
572.20 0.5977
572.30 0.5973
572.40 0.5969
572.50 0.5965
572.60 0.5961
572.70 0.5957
572.80 0.5953
572.90 0.5949
573.00 0.5945
573.10 0.5941
573.20 0.5937
573.30 0.5933
573.40 0.5929
573.50 0.5925
573.60 0.5921
573.70 0.5917
573.80 0.5913
573.90 0.5909
574.00 0.5905
574.10 0.5901
574.20 0.5897
574.30 0.5893
574.40 0.5889
574.50 0.5885
574.60 0.5881
574.70 0.5877
574.80 0.5873
574.90 0.5869
575.00 0.5865
575.10 0.5861
575.20 0.5857
575.30 0.5853
575.40 0.5849
575.50 0.5845
575.60 0.5841
575.70 0.5837
575.80 0.5834
575.90 0.583
576.00 0.5826
576.10 0.5822
576.20 0.5818
576.30 0.5814
576.40 0.581
576.50 0.5806
576.60 0.5802
576.70 0.5798
576.80 0.5795
576.90 0.5791
577.00 0.5787
577.10 0.5783
577.20 0.5779
577.30 0.5775
577.40 0.5771
577.50 0.5767
577.60 0.5764
577.70 0.576
577.80 0.5756
577.90 0.5752
578.00 0.5748
578.10 0.5744
578.20 0.574
578.30 0.5737
578.40 0.5733
578.50 0.5729
578.60 0.5725
578.70 0.5721
578.80 0.5717
578.90 0.5714
579.00 0.571
579.10 0.5706
579.20 0.5702
579.30 0.5698
579.40 0.5695
579.50 0.5691
579.60 0.5687
579.70 0.5683
579.80 0.5679
579.90 0.5676
580.00 0.5672
580.10 0.5668
580.20 0.5664
580.30 0.566
580.40 0.5657
580.50 0.5653
580.60 0.5649
580.70 0.5645
580.80 0.5642
580.90 0.5638
581.00 0.5634
581.10 0.563
581.20 0.5627
581.30 0.5623
581.40 0.5619
581.50 0.5615
581.60 0.5612
581.70 0.5608
581.80 0.5604
581.90 0.5601
582.00 0.5597
582.10 0.5593
582.20 0.5589
582.30 0.5586
582.40 0.5582
582.50 0.5578
582.60 0.5575
582.70 0.5571
582.80 0.5567
582.90 0.5563
583.00 0.556
583.10 0.5556
583.20 0.5552
583.30 0.5549
583.40 0.5545
583.50 0.5541
583.60 0.5538
583.70 0.5534
583.80 0.553
583.90 0.5527
584.00 0.5523
584.10 0.5519
584.20 0.5516
584.30 0.5512
584.40 0.5508
584.50 0.5505
584.60 0.5501
584.70 0.5497
584.80 0.5494
584.90 0.549
585.00 0.5487
585.10 0.5483
585.20 0.5479
585.30 0.5476
585.40 0.5472
585.50 0.5468
585.60 0.5465
585.70 0.5461
585.80 0.5458
585.90 0.5454
586.00 0.545
586.10 0.5447
586.20 0.5443
586.30 0.544
586.40 0.5436
586.50 0.5432
586.60 0.5429
586.70 0.5425
586.80 0.5422
586.90 0.5418
587.00 0.5415
587.10 0.5411
587.20 0.5407
587.30 0.5404
587.40 0.54
587.50 0.5397
587.60 0.5393
587.70 0.539
587.80 0.5386
587.90 0.5383
588.00 0.5379
588.10 0.5375
588.20 0.5372
588.30 0.5368
588.40 0.5365
588.50 0.5361
588.60 0.5358
588.70 0.5354
588.80 0.5351
588.90 0.5347
589.00 0.5344
589.10 0.534
589.20 0.5337
589.30 0.5333
589.40 0.533
589.50 0.5326
589.60 0.5323
589.70 0.5319
589.80 0.5316
589.90 0.5312
590.00 0.5309
590.10 0.5305
590.20 0.5302
590.30 0.5298
590.40 0.5295
590.50 0.5291
590.60 0.5288
590.70 0.5284
590.80 0.5281
590.90 0.5277
591.00 0.5274
591.10 0.5271
591.20 0.5267
591.30 0.5264
591.40 0.526
591.50 0.5257
591.60 0.5253
591.70 0.525
591.80 0.5246
591.90 0.5243
592.00 0.524
592.10 0.5236
592.20 0.5233
592.30 0.5229
592.40 0.5226
592.50 0.5222
592.60 0.5219
592.70 0.5216
592.80 0.5212
592.90 0.5209
593.00 0.5205
593.10 0.5202
593.20 0.5199
593.30 0.5195
593.40 0.5192
593.50 0.5188
593.60 0.5185
593.70 0.5182
593.80 0.5178
593.90 0.5175
594.00 0.5172
594.10 0.5168
594.20 0.5165
594.30 0.5161
594.40 0.5158
594.50 0.5155
594.60 0.5151
594.70 0.5148
594.80 0.5145
594.90 0.5141
595.00 0.5138
595.10 0.5135
595.20 0.5131
595.30 0.5128
595.40 0.5125
595.50 0.5121
595.60 0.5118
595.70 0.5115
595.80 0.5111
595.90 0.5108
596.00 0.5105
596.10 0.5101
596.20 0.5098
596.30 0.5095
596.40 0.5091
596.50 0.5088
596.60 0.5085
596.70 0.5082
596.80 0.5078
596.90 0.5075
597.00 0.5072
597.10 0.5068
597.20 0.5065
597.30 0.5062
597.40 0.5058
597.50 0.5055
597.60 0.5052
597.70 0.5049
597.80 0.5045
597.90 0.5042
598.00 0.5039
598.10 0.5036
598.20 0.5032
598.30 0.5029
598.40 0.5026
598.50 0.5023
598.60 0.5019
598.70 0.5016
598.80 0.5013
598.90 0.501
599.00 0.5006
599.10 0.5003
599.20 0.5
599.30 0.4997
599.40 0.4993
599.50 0.499
599.60 0.4987
599.70 0.4984
599.80 0.498
599.90 0.4977
600.00 0.4974
600.10 0.4971
600.20 0.4968
600.30 0.4964
600.40 0.4961
600.50 0.4958
600.60 0.4955
600.70 0.4952
600.80 0.4948
600.90 0.4945
601.00 0.4942
601.10 0.4939
601.20 0.4936
601.30 0.4932
601.40 0.4929
601.50 0.4926
601.60 0.4923
601.70 0.492
601.80 0.4917
601.90 0.4913
602.00 0.491
602.10 0.4907
602.20 0.4904
602.30 0.4901
602.40 0.4898
602.50 0.4895
602.60 0.4891
602.70 0.4888
602.80 0.4885
602.90 0.4882
603.00 0.4879
603.10 0.4876
603.20 0.4873
603.30 0.4869
603.40 0.4866
603.50 0.4863
603.60 0.486
603.70 0.4857
603.80 0.4854
603.90 0.4851
604.00 0.4848
604.10 0.4844
604.20 0.4841
604.30 0.4838
604.40 0.4835
604.50 0.4832
604.60 0.4829
604.70 0.4826
604.80 0.4823
604.90 0.482
605.00 0.4817
605.10 0.4813
605.20 0.481
605.30 0.4807
605.40 0.4804
605.50 0.4801
605.60 0.4798
605.70 0.4795
605.80 0.4792
605.90 0.4789
606.00 0.4786
606.10 0.4783
606.20 0.478
606.30 0.4777
606.40 0.4774
606.50 0.477
606.60 0.4767
606.70 0.4764
606.80 0.4761
606.90 0.4758
607.00 0.4755
607.10 0.4752
607.20 0.4749
607.30 0.4746
607.40 0.4743
607.50 0.474
607.60 0.4737
607.70 0.4734
607.80 0.4731
607.90 0.4728
608.00 0.4725
608.10 0.4722
608.20 0.4719
608.30 0.4716
608.40 0.4713
608.50 0.471
608.60 0.4707
608.70 0.4704
608.80 0.4701
608.90 0.4698
609.00 0.4695
609.10 0.4692
609.20 0.4689
609.30 0.4686
609.40 0.4683
609.50 0.468
609.60 0.4677
609.70 0.4674
609.80 0.4671
609.90 0.4668
610.00 0.4665
610.10 0.4662
610.20 0.4659
610.30 0.4656
610.40 0.4653
610.50 0.465
610.60 0.4647
610.70 0.4644
610.80 0.4641
610.90 0.4638
611.00 0.4636
611.10 0.4633
611.20 0.463
611.30 0.4627
611.40 0.4624
611.50 0.4621
611.60 0.4618
611.70 0.4615
611.80 0.4612
611.90 0.4609
612.00 0.4606
612.10 0.4603
612.20 0.46
612.30 0.4597
612.40 0.4594
612.50 0.4592
612.60 0.4589
612.70 0.4586
612.80 0.4583
612.90 0.458
613.00 0.4577
613.10 0.4574
613.20 0.4571
613.30 0.4568
613.40 0.4565
613.50 0.4563
613.60 0.456
613.70 0.4557
613.80 0.4554
613.90 0.4551
614.00 0.4548
614.10 0.4545
614.20 0.4542
614.30 0.4539
614.40 0.4537
614.50 0.4534
614.60 0.4531
614.70 0.4528
614.80 0.4525
614.90 0.4522
615.00 0.4519
615.10 0.4517
615.20 0.4514
615.30 0.4511
615.40 0.4508
615.50 0.4505
615.60 0.4502
615.70 0.4499
615.80 0.4497
615.90 0.4494
616.00 0.4491
616.10 0.4488
616.20 0.4485
616.30 0.4482
616.40 0.448
616.50 0.4477
616.60 0.4474
616.70 0.4471
616.80 0.4468
616.90 0.4466
617.00 0.4463
617.10 0.446
617.20 0.4457
617.30 0.4454
617.40 0.4451
617.50 0.4449
617.60 0.4446
617.70 0.4443
617.80 0.444
617.90 0.4437
618.00 0.4435
618.10 0.4432
618.20 0.4429
618.30 0.4426
618.40 0.4424
618.50 0.4421
618.60 0.4418
618.70 0.4415
618.80 0.4412
618.90 0.441
619.00 0.4407
619.10 0.4404
619.20 0.4401
619.30 0.4399
619.40 0.4396
619.50 0.4393
619.60 0.439
619.70 0.4387
619.80 0.4385
619.90 0.4382
620.00 0.4379
620.10 0.4376
620.20 0.4374
620.30 0.4371
620.40 0.4368
620.50 0.4365
620.60 0.4363
620.70 0.436
620.80 0.4357
620.90 0.4354
621.00 0.4352
621.10 0.4349
621.20 0.4346
621.30 0.4344
621.40 0.4341
621.50 0.4338
621.60 0.4335
621.70 0.4333
621.80 0.433
621.90 0.4327
622.00 0.4325
622.10 0.4322
622.20 0.4319
622.30 0.4316
622.40 0.4314
622.50 0.4311
622.60 0.4308
622.70 0.4306
622.80 0.4303
622.90 0.43
623.00 0.4297
623.10 0.4295
623.20 0.4292
623.30 0.4289
623.40 0.4287
623.50 0.4284
623.60 0.4281
623.70 0.4279
623.80 0.4276
623.90 0.4273
624.00 0.4271
624.10 0.4268
624.20 0.4265
624.30 0.4263
624.40 0.426
624.50 0.4257
624.60 0.4255
624.70 0.4252
624.80 0.4249
624.90 0.4247
625.00 0.4244
625.10 0.4241
625.20 0.4239
625.30 0.4236
625.40 0.4233
625.50 0.4231
625.60 0.4228
625.70 0.4225
625.80 0.4223
625.90 0.422
626.00 0.4217
626.10 0.4215
626.20 0.4212
626.30 0.421
626.40 0.4207
626.50 0.4204
626.60 0.4202
626.70 0.4199
626.80 0.4196
626.90 0.4194
627.00 0.4191
627.10 0.4189
627.20 0.4186
627.30 0.4183
627.40 0.4181
627.50 0.4178
627.60 0.4175
627.70 0.4173
627.80 0.417
627.90 0.4168
628.00 0.4165
628.10 0.4162
628.20 0.416
628.30 0.4157
628.40 0.4155
628.50 0.4152
628.60 0.4149
628.70 0.4147
628.80 0.4144
628.90 0.4142
629.00 0.4139
629.10 0.4136
629.20 0.4134
629.30 0.4131
629.40 0.4129
629.50 0.4126
629.60 0.4124
629.70 0.4121
629.80 0.4118
629.90 0.4116
630.00 0.4113
630.10 0.4111
630.20 0.4108
630.30 0.4106
630.40 0.4103
630.50 0.41
630.60 0.4098
630.70 0.4095
630.80 0.4093
630.90 0.409
631.00 0.4088
631.10 0.4085
631.20 0.4082
631.30 0.408
631.40 0.4077
631.50 0.4075
631.60 0.4072
631.70 0.407
631.80 0.4067
631.90 0.4065
632.00 0.4062
632.10 0.4059
632.20 0.4057
632.30 0.4054
632.40 0.4052
632.50 0.4049
632.60 0.4047
632.70 0.4044
632.80 0.4042
632.90 0.4039
633.00 0.4037
633.10 0.4034
633.20 0.4031
633.30 0.4029
633.40 0.4026
633.50 0.4024
633.60 0.4021
633.70 0.4019
633.80 0.4016
633.90 0.4014
634.00 0.4011
634.10 0.4009
634.20 0.4006
634.30 0.4004
634.40 0.4001
634.50 0.3999
634.60 0.3996
634.70 0.3994
634.80 0.3991
634.90 0.3989
635.00 0.3986
635.10 0.3984
635.20 0.3981
635.30 0.3978
635.40 0.3976
635.50 0.3973
635.60 0.3971
635.70 0.3968
635.80 0.3966
635.90 0.3963
636.00 0.3961
636.10 0.3958
636.20 0.3956
636.30 0.3953
636.40 0.3951
636.50 0.3948
636.60 0.3946
636.70 0.3943
636.80 0.3941
636.90 0.3938
637.00 0.3936
637.10 0.3933
637.20 0.3931
637.30 0.3928
637.40 0.3926
637.50 0.3923
637.60 0.3921
637.70 0.3918
637.80 0.3916
637.90 0.3913
638.00 0.3911
638.10 0.3908
638.20 0.3906
638.30 0.3903
638.40 0.3901
638.50 0.3898
638.60 0.3896
638.70 0.3893
638.80 0.3891
638.90 0.3888
639.00 0.3886
639.10 0.3883
639.20 0.3881
639.30 0.3878
639.40 0.3876
639.50 0.3873
639.60 0.387
639.70 0.3868
639.80 0.3865
639.90 0.3863
640.00 0.386
640.10 0.3858
640.20 0.3855
640.30 0.3853
640.40 0.385
640.50 0.3848
640.60 0.3845
640.70 0.3843
640.80 0.384
640.90 0.3838
641.00 0.3835
641.10 0.3833
641.20 0.383
641.30 0.3827
641.40 0.3825
641.50 0.3822
641.60 0.382
641.70 0.3817
641.80 0.3815
641.90 0.3812
642.00 0.3809
642.10 0.3807
642.20 0.3804
642.30 0.3802
642.40 0.3799
642.50 0.3797
642.60 0.3794
642.70 0.3791
642.80 0.3789
642.90 0.3786
643.00 0.3784
643.10 0.3781
643.20 0.3778
643.30 0.3776
643.40 0.3773
643.50 0.377
643.60 0.3768
643.70 0.3765
643.80 0.3762
643.90 0.376
644.00 0.3757
644.10 0.3754
644.20 0.3752
644.30 0.3749
644.40 0.3746
644.50 0.3744
644.60 0.3741
644.70 0.3738
644.80 0.3735
644.90 0.3733
645.00 0.373
645.10 0.3727
645.20 0.3725
645.30 0.3722
645.40 0.3719
645.50 0.3716
645.60 0.3713
645.70 0.371
645.80 0.3708
645.90 0.3705
646.00 0.3702
646.10 0.3699
646.20 0.3696
646.30 0.3693
646.40 0.369
646.50 0.3687
646.60 0.3684
646.70 0.3681
646.80 0.3678
646.90 0.3675
647.00 0.3672
647.10 0.3669
647.20 0.3666
647.30 0.3663
647.40 0.366
647.50 0.3657
647.60 0.3654
647.70 0.3651
647.80 0.3647
647.90 0.3644
648.00 0.3641
648.10 0.3638
648.20 0.3635
648.30 0.3631
648.40 0.3628
648.50 0.3624
648.60 0.3621
648.70 0.3617
648.80 0.3614
648.90 0.361
649.00 0.3607
649.10 0.3603
649.20 0.36
649.30 0.3596
649.40 0.3592
649.50 0.3588
649.60 0.3585
649.70 0.3581
649.80 0.3577
649.90 0.3573
650.00 0.3569
650.10 0.3565
650.20 0.3561
650.30 0.3557
650.40 0.3553
650.50 0.3548
650.60 0.3544
650.70 0.3539
650.80 0.3535
650.90 0.353
651.00 0.3526
651.10 0.3521
651.20 0.3517
651.30 0.3512
651.40 0.3507
651.50 0.3502
651.60 0.3497
651.70 0.3492
651.80 0.3486
651.90 0.3481
652.00 0.3476
652.10 0.3471
652.20 0.3466
652.30 0.346
652.40 0.3454
652.50 0.3448
652.60 0.3442
652.70 0.3436
652.80 0.343
652.90 0.3424
653.00 0.3418
653.10 0.3411
653.20 0.3405
653.30 0.3399
653.40 0.3392
653.50 0.3385
653.60 0.3377
653.70 0.337
653.80 0.3363
653.90 0.3356
654.00 0.3349
654.10 0.3342
654.20 0.3334
654.30 0.3327
654.40 0.3319
654.50 0.3312
654.60 0.3304
654.70 0.3296
654.80 0.3288
654.90 0.328
655.00 0.3272
655.10 0.3264
655.20 0.3257
655.30 0.3249
655.40 0.3241
655.50 0.3234
655.60 0.3228
655.70 0.3222
655.80 0.3219
655.90 0.3218
656.00 0.3228
656.10 0.3243
656.20 0.334
656.30 0.3461
656.40 0.3283
656.50 0.3227
656.60 0.3213
656.70 0.3201
656.80 0.3201
656.90 0.3201
657.00 0.3204
657.10 0.3207
657.20 0.321
657.30 0.3214
657.40 0.3218
657.50 0.3222
657.60 0.3226
657.70 0.323
657.80 0.3234
657.90 0.3238
658.00 0.3242
658.10 0.3246
658.20 0.325
658.30 0.3254
658.40 0.3257
658.50 0.3261
658.60 0.3264
658.70 0.3267
658.80 0.327
658.90 0.3273
659.00 0.3277
659.10 0.328
659.20 0.3283
659.30 0.3286
659.40 0.3288
659.50 0.329
659.60 0.3292
659.70 0.3294
659.80 0.3296
659.90 0.3298
660.00 0.33
660.10 0.3302
660.20 0.3304
660.30 0.3306
660.40 0.3307
660.50 0.3308
660.60 0.3309
660.70 0.331
660.80 0.3312
660.90 0.3313
661.00 0.3314
661.10 0.3315
661.20 0.3316
661.30 0.3317
661.40 0.3317
661.50 0.3317
661.60 0.3317
661.70 0.3318
661.80 0.3318
661.90 0.3318
662.00 0.3318
662.10 0.3319
662.20 0.3319
662.30 0.3319
662.40 0.3319
662.50 0.3319
662.60 0.3318
662.70 0.3318
662.80 0.3318
662.90 0.3317
663.00 0.3317
663.10 0.3317
663.20 0.3316
663.30 0.3316
663.40 0.3315
663.50 0.3314
663.60 0.3314
663.70 0.3313
663.80 0.3312
663.90 0.3312
664.00 0.3311
664.10 0.331
664.20 0.3309
664.30 0.3309
664.40 0.3308
664.50 0.3306
664.60 0.3305
664.70 0.3304
664.80 0.3303
664.90 0.3302
665.00 0.3301
665.10 0.33
665.20 0.3299
665.30 0.3298
665.40 0.3297
665.50 0.3296
665.60 0.3294
665.70 0.3293
665.80 0.3292
665.90 0.3291
666.00 0.329
666.10 0.3288
666.20 0.3287
666.30 0.3286
666.40 0.3284
666.50 0.3283
666.60 0.3282
666.70 0.328
666.80 0.3279
666.90 0.3277
667.00 0.3276
667.10 0.3275
667.20 0.3273
667.30 0.3272
667.40 0.327
667.50 0.3269
667.60 0.3267
667.70 0.3266
667.80 0.3264
667.90 0.3263
668.00 0.3261
668.10 0.326
668.20 0.3258
668.30 0.3257
668.40 0.3255
668.50 0.3254
668.60 0.3252
668.70 0.3251
668.80 0.3249
668.90 0.3247
669.00 0.3246
669.10 0.3244
669.20 0.3243
669.30 0.3241
669.40 0.324
669.50 0.3238
669.60 0.3236
669.70 0.3235
669.80 0.3233
669.90 0.3231
670.00 0.323
670.10 0.3228
670.20 0.3227
670.30 0.3225
670.40 0.3223
670.50 0.3222
670.60 0.322
670.70 0.3218
670.80 0.3217
670.90 0.3215
671.00 0.3213
671.10 0.3212
671.20 0.321
671.30 0.3208
671.40 0.3207
671.50 0.3205
671.60 0.3203
671.70 0.3201
671.80 0.32
671.90 0.3198
672.00 0.3196
672.10 0.3195
672.20 0.3193
672.30 0.3191
672.40 0.319
672.50 0.3188
672.60 0.3186
672.70 0.3185
672.80 0.3183
672.90 0.3181
673.00 0.3179
673.10 0.3178
673.20 0.3176
673.30 0.3174
673.40 0.3173
673.50 0.3171
673.60 0.3169
673.70 0.3167
673.80 0.3166
673.90 0.3164
674.00 0.3162
674.10 0.3161
674.20 0.3159
674.30 0.3157
674.40 0.3155
674.50 0.3154
674.60 0.3152
674.70 0.315
674.80 0.3149
674.90 0.3147
675.00 0.3145
675.10 0.3143
675.20 0.3142
675.30 0.314
675.40 0.3138
675.50 0.3136
675.60 0.3135
675.70 0.3133
675.80 0.3131
675.90 0.313
676.00 0.3128
676.10 0.3126
676.20 0.3124
676.30 0.3123
676.40 0.3121
676.50 0.3119
676.60 0.3118
676.70 0.3116
676.80 0.3114
676.90 0.3112
677.00 0.3111
677.10 0.3109
677.20 0.3107
677.30 0.3105
677.40 0.3104
677.50 0.3102
677.60 0.31
677.70 0.3099
677.80 0.3097
677.90 0.3095
678.00 0.3093
678.10 0.3092
678.20 0.309
678.30 0.3088
678.40 0.3087
678.50 0.3085
678.60 0.3083
678.70 0.3081
678.80 0.308
678.90 0.3078
679.00 0.3076
679.10 0.3075
679.20 0.3073
679.30 0.3071
679.40 0.3069
679.50 0.3068
679.60 0.3066
679.70 0.3064
679.80 0.3063
679.90 0.3061
680.00 0.3059
680.10 0.3057
680.20 0.3056
680.30 0.3054
680.40 0.3052
680.50 0.3051
680.60 0.3049
680.70 0.3047
680.80 0.3046
680.90 0.3044
681.00 0.3042
681.10 0.304
681.20 0.3039
681.30 0.3037
681.40 0.3035
681.50 0.3034
681.60 0.3032
681.70 0.303
681.80 0.3029
681.90 0.3027
682.00 0.3025
682.10 0.3023
682.20 0.3022
682.30 0.302
682.40 0.3018
682.50 0.3017
682.60 0.3015
682.70 0.3013
682.80 0.3012
682.90 0.301
683.00 0.3008
683.10 0.3007
683.20 0.3005
683.30 0.3003
683.40 0.3002
683.50 0.3
683.60 0.2998
683.70 0.2996
683.80 0.2995
683.90 0.2993
684.00 0.2991
684.10 0.299
684.20 0.2988
684.30 0.2986
684.40 0.2985
684.50 0.2983
684.60 0.2981
684.70 0.298
684.80 0.2978
684.90 0.2976
685.00 0.2975
685.10 0.2973
685.20 0.2971
685.30 0.297
685.40 0.2968
685.50 0.2966
685.60 0.2965
685.70 0.2963
685.80 0.2961
685.90 0.296
686.00 0.2958
686.10 0.2956
686.20 0.2955
686.30 0.2953
686.40 0.2951
686.50 0.295
686.60 0.2948
686.70 0.2947
686.80 0.2945
686.90 0.2943
687.00 0.2942
687.10 0.294
687.20 0.2938
687.30 0.2937
687.40 0.2935
687.50 0.2933
687.60 0.2932
687.70 0.293
687.80 0.2928
687.90 0.2927
688.00 0.2925
688.10 0.2924
688.20 0.2922
688.30 0.292
688.40 0.2919
688.50 0.2917
688.60 0.2915
688.70 0.2914
688.80 0.2912
688.90 0.291
689.00 0.2909
689.10 0.2907
689.20 0.2906
689.30 0.2904
689.40 0.2902
689.50 0.2901
689.60 0.2899
689.70 0.2898
689.80 0.2896
689.90 0.2894
690.00 0.2893
690.10 0.2891
690.20 0.2889
690.30 0.2888
690.40 0.2886
690.50 0.2885
690.60 0.2883
690.70 0.2881
690.80 0.288
690.90 0.2878
691.00 0.2877
691.10 0.2875
691.20 0.2873
691.30 0.2872
691.40 0.287
691.50 0.2869
691.60 0.2867
691.70 0.2865
691.80 0.2864
691.90 0.2862
692.00 0.2861
692.10 0.2859
692.20 0.2857
692.30 0.2856
692.40 0.2854
692.50 0.2853
692.60 0.2851
692.70 0.2849
692.80 0.2848
692.90 0.2846
693.00 0.2845
693.10 0.2843
693.20 0.2841
693.30 0.284
693.40 0.2838
693.50 0.2837
693.60 0.2835
693.70 0.2834
693.80 0.2832
693.90 0.283
694.00 0.2829
694.10 0.2827
694.20 0.2826
694.30 0.2824
694.40 0.2823
694.50 0.2821
694.60 0.2819
694.70 0.2818
694.80 0.2816
694.90 0.2815
695.00 0.2813
695.10 0.2811
695.20 0.281
695.30 0.2808
695.40 0.2807
695.50 0.2805
695.60 0.2804
695.70 0.2802
695.80 0.2801
695.90 0.2799
696.00 0.2797
696.10 0.2796
696.20 0.2794
696.30 0.2793
696.40 0.2791
696.50 0.279
696.60 0.2788
696.70 0.2787
696.80 0.2785
696.90 0.2784
697.00 0.2782
697.10 0.278
697.20 0.2779
697.30 0.2777
697.40 0.2776
697.50 0.2774
697.60 0.2773
697.70 0.2771
697.80 0.277
697.90 0.2768
698.00 0.2767
698.10 0.2765
698.20 0.2764
698.30 0.2762
698.40 0.276
698.50 0.2759
698.60 0.2757
698.70 0.2756
698.80 0.2754
698.90 0.2753
699.00 0.2751
699.10 0.275
699.20 0.2748
699.30 0.2747
699.40 0.2745
699.50 0.2744
699.60 0.2742
699.70 0.2741
699.80 0.2739
699.90 0.2738
700.00 0.2736
700.10 0.2735
700.20 0.2733
700.30 0.2732
700.40 0.273
700.50 0.2729
700.60 0.2727
700.70 0.2726
700.80 0.2724
700.90 0.2723
701.00 0.2721
701.10 0.272
701.20 0.2718
701.30 0.2717
701.40 0.2715
701.50 0.2714
701.60 0.2712
701.70 0.2711
701.80 0.2709
701.90 0.2708
702.00 0.2706
702.10 0.2705
702.20 0.2703
702.30 0.2702
702.40 0.27
702.50 0.2699
702.60 0.2697
702.70 0.2696
702.80 0.2694
702.90 0.2693
703.00 0.2691
703.10 0.269
703.20 0.2688
703.30 0.2687
703.40 0.2685
703.50 0.2684
703.60 0.2682
703.70 0.2681
703.80 0.2679
703.90 0.2678
704.00 0.2676
704.10 0.2675
704.20 0.2673
704.30 0.2672
704.40 0.267
704.50 0.2669
704.60 0.2667
704.70 0.2666
704.80 0.2665
704.90 0.2663
705.00 0.2662
705.10 0.266
705.20 0.2659
705.30 0.2657
705.40 0.2656
705.50 0.2654
705.60 0.2653
705.70 0.2651
705.80 0.265
705.90 0.2649
706.00 0.2647
706.10 0.2646
706.20 0.2644
706.30 0.2643
706.40 0.2641
706.50 0.264
706.60 0.2638
706.70 0.2637
706.80 0.2635
706.90 0.2634
707.00 0.2633
707.10 0.2631
707.20 0.263
707.30 0.2628
707.40 0.2627
707.50 0.2625
707.60 0.2624
707.70 0.2623
707.80 0.2621
707.90 0.262
708.00 0.2618
708.10 0.2617
708.20 0.2615
708.30 0.2614
708.40 0.2612
708.50 0.2611
708.60 0.261
708.70 0.2608
708.80 0.2607
708.90 0.2605
709.00 0.2604
709.10 0.2602
709.20 0.2601
709.30 0.26
709.40 0.2598
709.50 0.2597
709.60 0.2595
709.70 0.2594
709.80 0.2592
709.90 0.2591
710.00 0.259
710.10 0.2588
710.20 0.2587
710.30 0.2585
710.40 0.2584
710.50 0.2583
710.60 0.2581
710.70 0.258
710.80 0.2578
710.90 0.2577
711.00 0.2576
711.10 0.2574
711.20 0.2573
711.30 0.2571
711.40 0.257
711.50 0.2569
711.60 0.2567
711.70 0.2566
711.80 0.2564
711.90 0.2563
712.00 0.2562
712.10 0.256
712.20 0.2559
712.30 0.2557
712.40 0.2556
712.50 0.2555
712.60 0.2553
712.70 0.2552
712.80 0.255
712.90 0.2549
713.00 0.2548
713.10 0.2546
713.20 0.2545
713.30 0.2544
713.40 0.2542
713.50 0.2541
713.60 0.2539
713.70 0.2538
713.80 0.2537
713.90 0.2535
714.00 0.2534
714.10 0.2532
714.20 0.2531
714.30 0.253
714.40 0.2528
714.50 0.2527
714.60 0.2526
714.70 0.2524
714.80 0.2523
714.90 0.2521
715.00 0.252
715.10 0.2519
715.20 0.2517
715.30 0.2516
715.40 0.2515
715.50 0.2513
715.60 0.2512
715.70 0.2511
715.80 0.2509
715.90 0.2508
716.00 0.2506
716.10 0.2505
716.20 0.2504
716.30 0.2502
716.40 0.2501
716.50 0.25
716.60 0.2498
716.70 0.2497
716.80 0.2496
716.90 0.2494
717.00 0.2493
717.10 0.2492
717.20 0.249
717.30 0.2489
717.40 0.2488
717.50 0.2486
717.60 0.2485
717.70 0.2484
717.80 0.2482
717.90 0.2481
718.00 0.2479
718.10 0.2478
718.20 0.2477
718.30 0.2475
718.40 0.2474
718.50 0.2473
718.60 0.2471
718.70 0.247
718.80 0.2469
718.90 0.2467
719.00 0.2466
719.10 0.2465
719.20 0.2463
719.30 0.2462
719.40 0.2461
719.50 0.2459
719.60 0.2458
719.70 0.2457
719.80 0.2455
719.90 0.2454
720.00 0.2453
720.10 0.2451
720.20 0.245
720.30 0.2449
720.40 0.2447
720.50 0.2446
720.60 0.2445
720.70 0.2444
720.80 0.2442
720.90 0.2441
721.00 0.244
721.10 0.2438
721.20 0.2437
721.30 0.2436
721.40 0.2434
721.50 0.2433
721.60 0.2432
721.70 0.243
721.80 0.2429
721.90 0.2428
722.00 0.2427
722.10 0.2425
722.20 0.2424
722.30 0.2423
722.40 0.2421
722.50 0.242
722.60 0.2419
722.70 0.2417
722.80 0.2416
722.90 0.2415
723.00 0.2414
723.10 0.2412
723.20 0.2411
723.30 0.241
723.40 0.2408
723.50 0.2407
723.60 0.2406
723.70 0.2404
723.80 0.2403
723.90 0.2402
724.00 0.2401
724.10 0.2399
724.20 0.2398
724.30 0.2397
724.40 0.2395
724.50 0.2394
724.60 0.2393
724.70 0.2392
724.80 0.239
724.90 0.2389
725.00 0.2388
725.10 0.2386
725.20 0.2385
725.30 0.2384
725.40 0.2383
725.50 0.2381
725.60 0.238
725.70 0.2379
725.80 0.2378
725.90 0.2376
726.00 0.2375
726.10 0.2374
726.20 0.2372
726.30 0.2371
726.40 0.237
726.50 0.2369
726.60 0.2367
726.70 0.2366
726.80 0.2365
726.90 0.2364
727.00 0.2362
727.10 0.2361
727.20 0.236
727.30 0.2359
727.40 0.2357
727.50 0.2356
727.60 0.2355
727.70 0.2354
727.80 0.2352
727.90 0.2351
728.00 0.235
728.10 0.2349
728.20 0.2347
728.30 0.2346
728.40 0.2345
728.50 0.2343
728.60 0.2342
728.70 0.2341
728.80 0.234
728.90 0.2338
729.00 0.2337
729.10 0.2336
729.20 0.2335
729.30 0.2333
729.40 0.2332
729.50 0.2331
729.60 0.233
729.70 0.2329
729.80 0.2327
729.90 0.2326
730.00 0.2325
730.10 0.2324
730.20 0.2322
730.30 0.2321
730.40 0.232
730.50 0.2319
730.60 0.2317
730.70 0.2316
730.80 0.2315
730.90 0.2314
731.00 0.2313
731.10 0.2311
731.20 0.231
731.30 0.2309
731.40 0.2308
731.50 0.2306
731.60 0.2305
731.70 0.2304
731.80 0.2303
731.90 0.2302
732.00 0.23
732.10 0.2299
732.20 0.2298
732.30 0.2297
732.40 0.2296
732.50 0.2294
732.60 0.2293
732.70 0.2292
732.80 0.2291
732.90 0.2289
733.00 0.2288
733.10 0.2287
733.20 0.2286
733.30 0.2285
733.40 0.2283
733.50 0.2282
733.60 0.2281
733.70 0.228
733.80 0.2279
733.90 0.2277
734.00 0.2276
734.10 0.2275
734.20 0.2274
734.30 0.2273
734.40 0.2271
734.50 0.227
734.60 0.2269
734.70 0.2268
734.80 0.2267
734.90 0.2265
735.00 0.2264
735.10 0.2263
735.20 0.2262
735.30 0.2261
735.40 0.2259
735.50 0.2258
735.60 0.2257
735.70 0.2256
735.80 0.2255
735.90 0.2253
736.00 0.2252
736.10 0.2251
736.20 0.225
736.30 0.2249
736.40 0.2247
736.50 0.2246
736.60 0.2245
736.70 0.2244
736.80 0.2243
736.90 0.2242
737.00 0.224
737.10 0.2239
737.20 0.2238
737.30 0.2237
737.40 0.2236
737.50 0.2234
737.60 0.2233
737.70 0.2232
737.80 0.2231
737.90 0.223
738.00 0.2229
738.10 0.2227
738.20 0.2226
738.30 0.2225
738.40 0.2224
738.50 0.2223
738.60 0.2221
738.70 0.222
738.80 0.2219
738.90 0.2218
739.00 0.2217
739.10 0.2216
739.20 0.2214
739.30 0.2213
739.40 0.2212
739.50 0.2211
739.60 0.221
739.70 0.2209
739.80 0.2207
739.90 0.2206
740.00 0.2205
740.10 0.2204
740.20 0.2203
740.30 0.2202
740.40 0.22
740.50 0.2199
740.60 0.2198
740.70 0.2197
740.80 0.2196
740.90 0.2195
741.00 0.2194
741.10 0.2192
741.20 0.2191
741.30 0.219
741.40 0.2189
741.50 0.2188
741.60 0.2187
741.70 0.2186
741.80 0.2184
741.90 0.2183
742.00 0.2182
742.10 0.2181
742.20 0.218
742.30 0.2179
742.40 0.2178
742.50 0.2176
742.60 0.2175
742.70 0.2174
742.80 0.2173
742.90 0.2172
743.00 0.2171
743.10 0.217
743.20 0.2169
743.30 0.2167
743.40 0.2166
743.50 0.2165
743.60 0.2164
743.70 0.2163
743.80 0.2162
743.90 0.2161
744.00 0.216
744.10 0.2158
744.20 0.2157
744.30 0.2156
744.40 0.2155
744.50 0.2154
744.60 0.2153
744.70 0.2152
744.80 0.2151
744.90 0.2149
745.00 0.2148
745.10 0.2147
745.20 0.2146
745.30 0.2145
745.40 0.2144
745.50 0.2143
745.60 0.2142
745.70 0.214
745.80 0.2139
745.90 0.2138
746.00 0.2137
746.10 0.2136
746.20 0.2135
746.30 0.2134
746.40 0.2133
746.50 0.2132
746.60 0.213
746.70 0.2129
746.80 0.2128
746.90 0.2127
747.00 0.2126
747.10 0.2125
747.20 0.2124
747.30 0.2123
747.40 0.2122
747.50 0.212
747.60 0.2119
747.70 0.2118
747.80 0.2117
747.90 0.2116
748.00 0.2115
748.10 0.2114
748.20 0.2113
748.30 0.2112
748.40 0.211
748.50 0.2109
748.60 0.2108
748.70 0.2107
748.80 0.2106
748.90 0.2105
749.00 0.2104
749.10 0.2103
749.20 0.2102
749.30 0.2101
749.40 0.2099
749.50 0.2098
749.60 0.2097
749.70 0.2096
749.80 0.2095
749.90 0.2094
750.00 0.2093
750.10 0.2092
750.20 0.2091
750.30 0.209
750.40 0.2089
750.50 0.2087
750.60 0.2086
750.70 0.2085
750.80 0.2084
750.90 0.2083
751.00 0.2082
751.10 0.2081
751.20 0.208
751.30 0.2079
751.40 0.2078
751.50 0.2077
751.60 0.2076
751.70 0.2075
751.80 0.2074
751.90 0.2073
752.00 0.2071
752.10 0.207
752.20 0.2069
752.30 0.2068
752.40 0.2067
752.50 0.2066
752.60 0.2065
752.70 0.2064
752.80 0.2063
752.90 0.2062
753.00 0.2061
753.10 0.206
753.20 0.2059
753.30 0.2058
753.40 0.2057
753.50 0.2056
753.60 0.2054
753.70 0.2053
753.80 0.2052
753.90 0.2051
754.00 0.205
754.10 0.2049
754.20 0.2048
754.30 0.2047
754.40 0.2046
754.50 0.2045
754.60 0.2044
754.70 0.2043
754.80 0.2042
754.90 0.2041
755.00 0.204
755.10 0.2039
755.20 0.2038
755.30 0.2037
755.40 0.2036
755.50 0.2034
755.60 0.2033
755.70 0.2032
755.80 0.2031
755.90 0.203
756.00 0.2029
756.10 0.2028
756.20 0.2027
756.30 0.2026
756.40 0.2025
756.50 0.2024
756.60 0.2023
756.70 0.2022
756.80 0.2021
756.90 0.202
757.00 0.2019
757.10 0.2018
757.20 0.2017
757.30 0.2016
757.40 0.2015
757.50 0.2014
757.60 0.2013
757.70 0.2012
757.80 0.201
757.90 0.2009
758.00 0.2008
758.10 0.2007
758.20 0.2006
758.30 0.2005
758.40 0.2004
758.50 0.2003
758.60 0.2002
758.70 0.2001
758.80 0.2
758.90 0.1999
759.00 0.1998
759.10 0.1997
759.20 0.1996
759.30 0.1995
759.40 0.1994
759.50 0.1993
759.60 0.1992
759.70 0.1991
759.80 0.199
759.90 0.1989
760.00 0.1988
760.10 0.1987
760.20 0.1986
760.30 0.1985
760.40 0.1984
760.50 0.1983
760.60 0.1982
760.70 0.1981
760.80 0.198
760.90 0.1979
761.00 0.1978
761.10 0.1977
761.20 0.1976
761.30 0.1975
761.40 0.1974
761.50 0.1973
761.60 0.1972
761.70 0.1971
761.80 0.197
761.90 0.1969
762.00 0.1968
762.10 0.1967
762.20 0.1966
762.30 0.1965
762.40 0.1964
762.50 0.1963
762.60 0.1962
762.70 0.1961
762.80 0.196
762.90 0.1959
763.00 0.1958
763.10 0.1957
763.20 0.1956
763.30 0.1955
763.40 0.1954
763.50 0.1953
763.60 0.1952
763.70 0.1951
763.80 0.195
763.90 0.1949
764.00 0.1948
764.10 0.1947
764.20 0.1946
764.30 0.1945
764.40 0.1944
764.50 0.1943
764.60 0.1942
764.70 0.1941
764.80 0.194
764.90 0.1939
765.00 0.1938
765.10 0.1937
765.20 0.1936
765.30 0.1935
765.40 0.1934
765.50 0.1933
765.60 0.1932
765.70 0.1931
765.80 0.193
765.90 0.1929
766.00 0.1928
766.10 0.1927
766.20 0.1926
766.30 0.1925
766.40 0.1924
766.50 0.1923
766.60 0.1922
766.70 0.1921
766.80 0.192
766.90 0.1919
767.00 0.1918
767.10 0.1917
767.20 0.1916
767.30 0.1915
767.40 0.1914
767.50 0.1913
767.60 0.1912
767.70 0.1911
767.80 0.191
767.90 0.191
768.00 0.1909
768.10 0.1908
768.20 0.1907
768.30 0.1906
768.40 0.1905
768.50 0.1904
768.60 0.1903
768.70 0.1902
768.80 0.1901
768.90 0.19
769.00 0.1899
769.10 0.1898
769.20 0.1897
769.30 0.1896
769.40 0.1895
769.50 0.1894
769.60 0.1893
769.70 0.1892
769.80 0.1891
769.90 0.189
770.00 0.1889
770.10 0.1888
770.20 0.1887
770.30 0.1886
770.40 0.1885
770.50 0.1884
770.60 0.1884
770.70 0.1883
770.80 0.1882
770.90 0.1881
771.00 0.188
771.10 0.1879
771.20 0.1878
771.30 0.1877
771.40 0.1876
771.50 0.1875
771.60 0.1874
771.70 0.1873
771.80 0.1872
771.90 0.1871
772.00 0.187
772.10 0.1869
772.20 0.1868
772.30 0.1868
772.40 0.1867
772.50 0.1866
772.60 0.1865
772.70 0.1864
772.80 0.1863
772.90 0.1862
773.00 0.1861
773.10 0.186
773.20 0.1859
773.30 0.1858
773.40 0.1857
773.50 0.1856
773.60 0.1855
773.70 0.1854
773.80 0.1854
773.90 0.1853
774.00 0.1852
774.10 0.1851
774.20 0.185
774.30 0.1849
774.40 0.1848
774.50 0.1847
774.60 0.1846
774.70 0.1845
774.80 0.1844
774.90 0.1843
775.00 0.1842
775.10 0.1841
775.20 0.1841
775.30 0.184
775.40 0.1839
775.50 0.1838
775.60 0.1837
775.70 0.1836
775.80 0.1835
775.90 0.1834
776.00 0.1833
776.10 0.1832
776.20 0.1831
776.30 0.183
776.40 0.1829
776.50 0.1829
776.60 0.1828
776.70 0.1827
776.80 0.1826
776.90 0.1825
777.00 0.1824
777.10 0.1823
777.20 0.1822
777.30 0.1821
777.40 0.182
777.50 0.1819
777.60 0.1818
777.70 0.1818
777.80 0.1817
777.90 0.1816
778.00 0.1815
778.10 0.1814
778.20 0.1813
778.30 0.1812
778.40 0.1811
778.50 0.181
778.60 0.1809
778.70 0.1808
778.80 0.1808
778.90 0.1807
779.00 0.1806
779.10 0.1805
779.20 0.1804
779.30 0.1803
779.40 0.1802
779.50 0.1801
779.60 0.18
779.70 0.1799
779.80 0.1798
779.90 0.1798
780.00 0.1797
780.10 0.1796
780.20 0.1795
780.30 0.1794
780.40 0.1793
780.50 0.1792
780.60 0.1791
780.70 0.179
780.80 0.179
780.90 0.1789
781.00 0.1788
781.10 0.1787
781.20 0.1786
781.30 0.1785
781.40 0.1784
781.50 0.1783
781.60 0.1782
781.70 0.1782
781.80 0.1781
781.90 0.178
782.00 0.1779
782.10 0.1778
782.20 0.1777
782.30 0.1776
782.40 0.1775
782.50 0.1775
782.60 0.1774
782.70 0.1773
782.80 0.1772
782.90 0.1771
783.00 0.177
783.10 0.1769
783.20 0.1768
783.30 0.1768
783.40 0.1767
783.50 0.1766
783.60 0.1765
783.70 0.1764
783.80 0.1763
783.90 0.1762
784.00 0.1761
784.10 0.1761
784.20 0.176
784.30 0.1759
784.40 0.1758
784.50 0.1757
784.60 0.1756
784.70 0.1755
784.80 0.1754
784.90 0.1754
785.00 0.1753
785.10 0.1752
785.20 0.1751
785.30 0.175
785.40 0.1749
785.50 0.1748
785.60 0.1747
785.70 0.1747
785.80 0.1746
785.90 0.1745
786.00 0.1744
786.10 0.1743
786.20 0.1742
786.30 0.1741
786.40 0.1741
786.50 0.174
786.60 0.1739
786.70 0.1738
786.80 0.1737
786.90 0.1736
787.00 0.1735
787.10 0.1735
787.20 0.1734
787.30 0.1733
787.40 0.1732
787.50 0.1731
787.60 0.173
787.70 0.1729
787.80 0.1729
787.90 0.1728
788.00 0.1727
788.10 0.1726
788.20 0.1725
788.30 0.1724
788.40 0.1723
788.50 0.1723
788.60 0.1722
788.70 0.1721
788.80 0.172
788.90 0.1719
789.00 0.1718
789.10 0.1717
789.20 0.1717
789.30 0.1716
789.40 0.1715
789.50 0.1714
789.60 0.1713
789.70 0.1712
789.80 0.1711
789.90 0.1711
790.00 0.171
790.10 0.1709
790.20 0.1708
790.30 0.1707
790.40 0.1706
790.50 0.1706
790.60 0.1705
790.70 0.1704
790.80 0.1703
790.90 0.1702
791.00 0.1701
791.10 0.1701
791.20 0.17
791.30 0.1699
791.40 0.1698
791.50 0.1697
791.60 0.1696
791.70 0.1696
791.80 0.1695
791.90 0.1694
792.00 0.1693
792.10 0.1692
792.20 0.1691
792.30 0.1691
792.40 0.169
792.50 0.1689
792.60 0.1688
792.70 0.1687
792.80 0.1686
792.90 0.1686
793.00 0.1685
793.10 0.1684
793.20 0.1683
793.30 0.1682
793.40 0.1682
793.50 0.1681
793.60 0.168
793.70 0.1679
793.80 0.1678
793.90 0.1677
794.00 0.1677
794.10 0.1676
794.20 0.1675
794.30 0.1674
794.40 0.1673
794.50 0.1672
794.60 0.1672
794.70 0.1671
794.80 0.167
794.90 0.1669
795.00 0.1668
795.10 0.1668
795.20 0.1667
795.30 0.1666
795.40 0.1665
795.50 0.1664
795.60 0.1663
795.70 0.1663
795.80 0.1662
795.90 0.1661
796.00 0.166
796.10 0.1659
796.20 0.1659
796.30 0.1658
796.40 0.1657
796.50 0.1656
796.60 0.1655
796.70 0.1655
796.80 0.1654
796.90 0.1653
797.00 0.1652
797.10 0.1651
797.20 0.165
797.30 0.165
797.40 0.1649
797.50 0.1648
797.60 0.1647
797.70 0.1646
797.80 0.1646
797.90 0.1645
798.00 0.1644
798.10 0.1643
798.20 0.1642
798.30 0.1642
798.40 0.1641
798.50 0.164
798.60 0.1639
798.70 0.1638
798.80 0.1638
798.90 0.1637
799.00 0.1636
799.10 0.1635
799.20 0.1634
799.30 0.1634
799.40 0.1633
799.50 0.1632
799.60 0.1631
799.70 0.163
799.80 0.163
799.90 0.1629
800.00 0.1628
800.10 0.1627
800.20 0.1626
800.30 0.1626
800.40 0.1625
800.50 0.1624
800.60 0.1623
800.70 0.1622
800.80 0.1622
800.90 0.1621
801.00 0.162
801.10 0.1619
801.20 0.1619
801.30 0.1618
801.40 0.1617
801.50 0.1616
801.60 0.1615
801.70 0.1615
801.80 0.1614
801.90 0.1613
802.00 0.1612
802.10 0.1612
802.20 0.1611
802.30 0.161
802.40 0.1609
802.50 0.1608
802.60 0.1608
802.70 0.1607
802.80 0.1606
802.90 0.1605
803.00 0.1605
803.10 0.1604
803.20 0.1603
803.30 0.1602
803.40 0.1601
803.50 0.1601
803.60 0.16
803.70 0.1599
803.80 0.1598
803.90 0.1598
804.00 0.1597
804.10 0.1596
804.20 0.1595
804.30 0.1594
804.40 0.1594
804.50 0.1593
804.60 0.1592
804.70 0.1591
804.80 0.1591
804.90 0.159
805.00 0.1589
805.10 0.1588
805.20 0.1588
805.30 0.1587
805.40 0.1586
805.50 0.1585
805.60 0.1584
805.70 0.1584
805.80 0.1583
805.90 0.1582
806.00 0.1581
806.10 0.1581
806.20 0.158
806.30 0.1579
806.40 0.1578
806.50 0.1578
806.60 0.1577
806.70 0.1576
806.80 0.1575
806.90 0.1575
807.00 0.1574
807.10 0.1573
807.20 0.1572
807.30 0.1572
807.40 0.1571
807.50 0.157
807.60 0.1569
807.70 0.1568
807.80 0.1568
807.90 0.1567
808.00 0.1566
808.10 0.1565
808.20 0.1565
808.30 0.1564
808.40 0.1563
808.50 0.1562
808.60 0.1562
808.70 0.1561
808.80 0.156
808.90 0.1559
809.00 0.1559
809.10 0.1558
809.20 0.1557
809.30 0.1556
809.40 0.1556
809.50 0.1555
809.60 0.1554
809.70 0.1553
809.80 0.1553
809.90 0.1552
810.00 0.1551
810.10 0.155
810.20 0.155
810.30 0.1549
810.40 0.1548
810.50 0.1547
810.60 0.1547
810.70 0.1546
810.80 0.1545
810.90 0.1544
811.00 0.1544
811.10 0.1543
811.20 0.1542
811.30 0.1541
811.40 0.1541
811.50 0.154
811.60 0.1539
811.70 0.1539
811.80 0.1538
811.90 0.1537
812.00 0.1536
812.10 0.1536
812.20 0.1535
812.30 0.1534
812.40 0.1533
812.50 0.1533
812.60 0.1532
812.70 0.1531
812.80 0.153
812.90 0.153
813.00 0.1529
813.10 0.1528
813.20 0.1528
813.30 0.1527
813.40 0.1526
813.50 0.1525
813.60 0.1525
813.70 0.1524
813.80 0.1523
813.90 0.1522
814.00 0.1522
814.10 0.1521
814.20 0.152
814.30 0.152
814.40 0.1519
814.50 0.1518
814.60 0.1517
814.70 0.1517
814.80 0.1516
814.90 0.1515
815.00 0.1514
815.10 0.1514
815.20 0.1513
815.30 0.1512
815.40 0.1512
815.50 0.1511
815.60 0.151
815.70 0.1509
815.80 0.1509
815.90 0.1508
816.00 0.1507
816.10 0.1507
816.20 0.1506
816.30 0.1505
816.40 0.1504
816.50 0.1504
816.60 0.1503
816.70 0.1502
816.80 0.1501
816.90 0.1501
817.00 0.15
817.10 0.1499
817.20 0.1499
817.30 0.1498
817.40 0.1497
817.50 0.1496
817.60 0.1496
817.70 0.1495
817.80 0.1494
817.90 0.1494
818.00 0.1493
818.10 0.1492
818.20 0.1491
818.30 0.1491
818.40 0.149
818.50 0.1489
818.60 0.1489
818.70 0.1488
818.80 0.1487
818.90 0.1486
819.00 0.1486
819.10 0.1485
819.20 0.1484
819.30 0.1484
819.40 0.1483
819.50 0.1482
819.60 0.1482
819.70 0.1481
819.80 0.148
819.90 0.1479
820.00 0.1479
820.10 0.1478
820.20 0.1477
820.30 0.1477
820.40 0.1476
820.50 0.1475
820.60 0.1474
820.70 0.1474
820.80 0.1473
820.90 0.1472
821.00 0.1472
821.10 0.1471
821.20 0.147
821.30 0.147
821.40 0.1469
821.50 0.1468
821.60 0.1467
821.70 0.1467
821.80 0.1466
821.90 0.1465
822.00 0.1465
822.10 0.1464
822.20 0.1463
822.30 0.1463
822.40 0.1462
822.50 0.1461
822.60 0.1461
822.70 0.146
822.80 0.1459
822.90 0.1458
823.00 0.1458
823.10 0.1457
823.20 0.1456
823.30 0.1456
823.40 0.1455
823.50 0.1454
823.60 0.1454
823.70 0.1453
823.80 0.1452
823.90 0.1452
824.00 0.1451
824.10 0.145
824.20 0.145
824.30 0.1449
824.40 0.1448
824.50 0.1447
824.60 0.1447
824.70 0.1446
824.80 0.1445
824.90 0.1445
825.00 0.1444
825.10 0.1443
825.20 0.1443
825.30 0.1442
825.40 0.1441
825.50 0.1441
825.60 0.144
825.70 0.1439
825.80 0.1439
825.90 0.1438
826.00 0.1437
826.10 0.1437
826.20 0.1436
826.30 0.1435
826.40 0.1435
826.50 0.1434
826.60 0.1433
826.70 0.1433
826.80 0.1432
826.90 0.1431
827.00 0.143
827.10 0.143
827.20 0.1429
827.30 0.1428
827.40 0.1428
827.50 0.1427
827.60 0.1426
827.70 0.1426
827.80 0.1425
827.90 0.1424
828.00 0.1424
828.10 0.1423
828.20 0.1422
828.30 0.1422
828.40 0.1421
828.50 0.142
828.60 0.142
828.70 0.1419
828.80 0.1418
828.90 0.1418
829.00 0.1417
829.10 0.1416
829.20 0.1416
829.30 0.1415
829.40 0.1414
829.50 0.1414
829.60 0.1413
829.70 0.1412
829.80 0.1412
829.90 0.1411
830.00 0.141
830.10 0.141
830.20 0.1409
830.30 0.1408
830.40 0.1408
830.50 0.1407
830.60 0.1406
830.70 0.1406
830.80 0.1405
830.90 0.1405
831.00 0.1404
831.10 0.1403
831.20 0.1403
831.30 0.1402
831.40 0.1401
831.50 0.1401
831.60 0.14
831.70 0.1399
831.80 0.1399
831.90 0.1398
832.00 0.1397
832.10 0.1397
832.20 0.1396
832.30 0.1395
832.40 0.1395
832.50 0.1394
832.60 0.1393
832.70 0.1393
832.80 0.1392
832.90 0.1391
833.00 0.1391
833.10 0.139
833.20 0.1389
833.30 0.1389
833.40 0.1388
833.50 0.1388
833.60 0.1387
833.70 0.1386
833.80 0.1386
833.90 0.1385
834.00 0.1384
834.10 0.1384
834.20 0.1383
834.30 0.1382
834.40 0.1382
834.50 0.1381
834.60 0.138
834.70 0.138
834.80 0.1379
834.90 0.1378
835.00 0.1378
835.10 0.1377
835.20 0.1377
835.30 0.1376
835.40 0.1375
835.50 0.1375
835.60 0.1374
835.70 0.1373
835.80 0.1373
835.90 0.1372
836.00 0.1371
836.10 0.1371
836.20 0.137
836.30 0.1369
836.40 0.1369
836.50 0.1368
836.60 0.1368
836.70 0.1367
836.80 0.1366
836.90 0.1366
837.00 0.1365
837.10 0.1364
837.20 0.1364
837.30 0.1363
837.40 0.1362
837.50 0.1362
837.60 0.1361
837.70 0.1361
837.80 0.136
837.90 0.1359
838.00 0.1359
838.10 0.1358
838.20 0.1357
838.30 0.1357
838.40 0.1356
838.50 0.1355
838.60 0.1355
838.70 0.1354
838.80 0.1354
838.90 0.1353
839.00 0.1352
839.10 0.1352
839.20 0.1351
839.30 0.135
839.40 0.135
839.50 0.1349
839.60 0.1349
839.70 0.1348
839.80 0.1347
839.90 0.1347
840.00 0.1346
840.10 0.1345
840.20 0.1345
840.30 0.1344
840.40 0.1344
840.50 0.1343
840.60 0.1342
840.70 0.1342
840.80 0.1341
840.90 0.134
841.00 0.134
841.10 0.1339
841.20 0.1339
841.30 0.1338
841.40 0.1337
841.50 0.1337
841.60 0.1336
841.70 0.1335
841.80 0.1335
841.90 0.1334
842.00 0.1334
842.10 0.1333
842.20 0.1332
842.30 0.1332
842.40 0.1331
842.50 0.1331
842.60 0.133
842.70 0.1329
842.80 0.1329
842.90 0.1328
843.00 0.1327
843.10 0.1327
843.20 0.1326
843.30 0.1326
843.40 0.1325
843.50 0.1324
843.60 0.1324
843.70 0.1323
843.80 0.1323
843.90 0.1322
844.00 0.1321
844.10 0.1321
844.20 0.132
844.30 0.1319
844.40 0.1319
844.50 0.1318
844.60 0.1318
844.70 0.1317
844.80 0.1316
844.90 0.1316
845.00 0.1315
845.10 0.1315
845.20 0.1314
845.30 0.1313
845.40 0.1313
845.50 0.1312
845.60 0.1312
845.70 0.1311
845.80 0.131
845.90 0.131
846.00 0.1309
846.10 0.1309
846.20 0.1308
846.30 0.1307
846.40 0.1307
846.50 0.1306
846.60 0.1305
846.70 0.1305
846.80 0.1304
846.90 0.1304
847.00 0.1303
847.10 0.1302
847.20 0.1302
847.30 0.1301
847.40 0.1301
847.50 0.13
847.60 0.1299
847.70 0.1299
847.80 0.1298
847.90 0.1298
848.00 0.1297
848.10 0.1296
848.20 0.1296
848.30 0.1295
848.40 0.1295
848.50 0.1294
848.60 0.1294
848.70 0.1293
848.80 0.1292
848.90 0.1292
849.00 0.1291
849.10 0.1291
849.20 0.129
849.30 0.1289
849.40 0.1289
849.50 0.1288
849.60 0.1288
849.70 0.1287
849.80 0.1286
849.90 0.1286
850.00 0.1285
850.10 0.1285
850.20 0.1284
850.30 0.1283
850.40 0.1283
850.50 0.1282
850.60 0.1282
850.70 0.1281
850.80 0.128
850.90 0.128
851.00 0.1279
851.10 0.1279
851.20 0.1278
851.30 0.1278
851.40 0.1277
851.50 0.1276
851.60 0.1276
851.70 0.1275
851.80 0.1275
851.90 0.1274
852.00 0.1273
852.10 0.1273
852.20 0.1272
852.30 0.1272
852.40 0.1271
852.50 0.127
852.60 0.127
852.70 0.1269
852.80 0.1269
852.90 0.1268
853.00 0.1268
853.10 0.1267
853.20 0.1266
853.30 0.1266
853.40 0.1265
853.50 0.1265
853.60 0.1264
853.70 0.1264
853.80 0.1263
853.90 0.1262
854.00 0.1262
854.10 0.1261
854.20 0.1261
854.30 0.126
854.40 0.126
854.50 0.1259
854.60 0.1258
854.70 0.1258
854.80 0.1257
854.90 0.1257
855.00 0.1256
855.10 0.1255
855.20 0.1255
855.30 0.1254
855.40 0.1254
855.50 0.1253
855.60 0.1253
855.70 0.1252
855.80 0.1251
855.90 0.1251
856.00 0.125
856.10 0.125
856.20 0.1249
856.30 0.1249
856.40 0.1248
856.50 0.1247
856.60 0.1247
856.70 0.1246
856.80 0.1246
856.90 0.1245
857.00 0.1245
857.10 0.1244
857.20 0.1243
857.30 0.1243
857.40 0.1242
857.50 0.1242
857.60 0.1241
857.70 0.1241
857.80 0.124
857.90 0.124
858.00 0.1239
858.10 0.1238
858.20 0.1238
858.30 0.1237
858.40 0.1237
858.50 0.1236
858.60 0.1236
858.70 0.1235
858.80 0.1235
858.90 0.1234
859.00 0.1233
859.10 0.1233
859.20 0.1232
859.30 0.1232
859.40 0.1231
859.50 0.1231
859.60 0.123
859.70 0.123
859.80 0.1229
859.90 0.1228
860.00 0.1228
860.10 0.1227
860.20 0.1227
860.30 0.1226
860.40 0.1226
860.50 0.1225
860.60 0.1225
860.70 0.1224
860.80 0.1223
860.90 0.1223
861.00 0.1222
861.10 0.1222
861.20 0.1221
861.30 0.1221
861.40 0.122
861.50 0.122
861.60 0.1219
861.70 0.1218
861.80 0.1218
861.90 0.1217
862.00 0.1217
862.10 0.1216
862.20 0.1216
862.30 0.1215
862.40 0.1215
862.50 0.1214
862.60 0.1213
862.70 0.1213
862.80 0.1212
862.90 0.1212
863.00 0.1211
863.10 0.1211
863.20 0.121
863.30 0.121
863.40 0.1209
863.50 0.1209
863.60 0.1208
863.70 0.1207
863.80 0.1207
863.90 0.1206
864.00 0.1206
864.10 0.1205
864.20 0.1205
864.30 0.1204
864.40 0.1204
864.50 0.1203
864.60 0.1203
864.70 0.1202
864.80 0.1201
864.90 0.1201
865.00 0.12
865.10 0.12
865.20 0.1199
865.30 0.1199
865.40 0.1198
865.50 0.1198
865.60 0.1197
865.70 0.1197
865.80 0.1196
865.90 0.1195
866.00 0.1195
866.10 0.1194
866.20 0.1194
866.30 0.1193
866.40 0.1193
866.50 0.1192
866.60 0.1192
866.70 0.1191
866.80 0.1191
866.90 0.119
867.00 0.119
867.10 0.1189
867.20 0.1188
867.30 0.1188
867.40 0.1187
867.50 0.1187
867.60 0.1186
867.70 0.1186
867.80 0.1185
867.90 0.1185
868.00 0.1184
868.10 0.1184
868.20 0.1183
868.30 0.1183
868.40 0.1182
868.50 0.1182
868.60 0.1181
868.70 0.118
868.80 0.118
868.90 0.1179
869.00 0.1179
869.10 0.1178
869.20 0.1178
869.30 0.1177
869.40 0.1177
869.50 0.1176
869.60 0.1176
869.70 0.1175
869.80 0.1175
869.90 0.1174
870.00 0.1174
870.10 0.1173
870.20 0.1173
870.30 0.1172
870.40 0.1171
870.50 0.1171
870.60 0.117
870.70 0.117
870.80 0.1169
870.90 0.1169
871.00 0.1168
871.10 0.1168
871.20 0.1167
871.30 0.1167
871.40 0.1166
871.50 0.1166
871.60 0.1165
871.70 0.1165
871.80 0.1164
871.90 0.1164
872.00 0.1163
872.10 0.1163
872.20 0.1162
872.30 0.1162
872.40 0.1161
872.50 0.116
872.60 0.116
872.70 0.1159
872.80 0.1159
872.90 0.1158
873.00 0.1158
873.10 0.1157
873.20 0.1157
873.30 0.1156
873.40 0.1156
873.50 0.1155
873.60 0.1155
873.70 0.1154
873.80 0.1154
873.90 0.1153
874.00 0.1153
874.10 0.1152
874.20 0.1152
874.30 0.1151
874.40 0.1151
874.50 0.115
874.60 0.115
874.70 0.1149
874.80 0.1149
874.90 0.1148
875.00 0.1148
875.10 0.1147
875.20 0.1147
875.30 0.1146
875.40 0.1146
875.50 0.1145
875.60 0.1145
875.70 0.1144
875.80 0.1143
875.90 0.1143
876.00 0.1142
876.10 0.1142
876.20 0.1141
876.30 0.1141
876.40 0.114
876.50 0.114
876.60 0.1139
876.70 0.1139
876.80 0.1138
876.90 0.1138
877.00 0.1137
877.10 0.1137
877.20 0.1136
877.30 0.1136
877.40 0.1135
877.50 0.1135
877.60 0.1134
877.70 0.1134
877.80 0.1133
877.90 0.1133
878.00 0.1132
878.10 0.1132
878.20 0.1131
878.30 0.1131
878.40 0.113
878.50 0.113
878.60 0.1129
878.70 0.1129
878.80 0.1128
878.90 0.1128
879.00 0.1127
879.10 0.1127
879.20 0.1126
879.30 0.1126
879.40 0.1125
879.50 0.1125
879.60 0.1124
879.70 0.1124
879.80 0.1123
879.90 0.1123
880.00 0.1122
880.10 0.1122
880.20 0.1121
880.30 0.1121
880.40 0.112
880.50 0.112
880.60 0.1119
880.70 0.1119
880.80 0.1118
880.90 0.1118
881.00 0.1117
881.10 0.1117
881.20 0.1116
881.30 0.1116
881.40 0.1115
881.50 0.1115
881.60 0.1114
881.70 0.1114
881.80 0.1113
881.90 0.1113
882.00 0.1112
882.10 0.1112
882.20 0.1111
882.30 0.1111
882.40 0.111
882.50 0.111
882.60 0.1109
882.70 0.1109
882.80 0.1108
882.90 0.1108
883.00 0.1107
883.10 0.1107
883.20 0.1107
883.30 0.1106
883.40 0.1106
883.50 0.1105
883.60 0.1105
883.70 0.1104
883.80 0.1104
883.90 0.1103
884.00 0.1103
884.10 0.1102
884.20 0.1102
884.30 0.1101
884.40 0.1101
884.50 0.11
884.60 0.11
884.70 0.1099
884.80 0.1099
884.90 0.1098
885.00 0.1098
885.10 0.1097
885.20 0.1097
885.30 0.1096
885.40 0.1096
885.50 0.1095
885.60 0.1095
885.70 0.1094
885.80 0.1094
885.90 0.1093
886.00 0.1093
886.10 0.1092
886.20 0.1092
886.30 0.1091
886.40 0.1091
886.50 0.109
886.60 0.109
886.70 0.109
886.80 0.1089
886.90 0.1089
887.00 0.1088
887.10 0.1088
887.20 0.1087
887.30 0.1087
887.40 0.1086
887.50 0.1086
887.60 0.1085
887.70 0.1085
887.80 0.1084
887.90 0.1084
888.00 0.1083
888.10 0.1083
888.20 0.1082
888.30 0.1082
888.40 0.1081
888.50 0.1081
888.60 0.108
888.70 0.108
888.80 0.108
888.90 0.1079
889.00 0.1079
889.10 0.1078
889.20 0.1078
889.30 0.1077
889.40 0.1077
889.50 0.1076
889.60 0.1076
889.70 0.1075
889.80 0.1075
889.90 0.1074
890.00 0.1074
890.10 0.1073
890.20 0.1073
890.30 0.1072
890.40 0.1072
890.50 0.1071
890.60 0.1071
890.70 0.1071
890.80 0.107
890.90 0.107
891.00 0.1069
891.10 0.1069
891.20 0.1068
891.30 0.1068
891.40 0.1067
891.50 0.1067
891.60 0.1066
891.70 0.1066
891.80 0.1065
891.90 0.1065
892.00 0.1064
892.10 0.1064
892.20 0.1064
892.30 0.1063
892.40 0.1063
892.50 0.1062
892.60 0.1062
892.70 0.1061
892.80 0.1061
892.90 0.106
893.00 0.106
893.10 0.1059
893.20 0.1059
893.30 0.1058
893.40 0.1058
893.50 0.1057
893.60 0.1057
893.70 0.1057
893.80 0.1056
893.90 0.1056
894.00 0.1055
894.10 0.1055
894.20 0.1054
894.30 0.1054
894.40 0.1053
894.50 0.1053
894.60 0.1052
894.70 0.1052
894.80 0.1052
894.90 0.1051
895.00 0.1051
895.10 0.105
895.20 0.105
895.30 0.1049
895.40 0.1049
895.50 0.1048
895.60 0.1048
895.70 0.1047
895.80 0.1047
895.90 0.1046
896.00 0.1046
896.10 0.1046
896.20 0.1045
896.30 0.1045
896.40 0.1044
896.50 0.1044
896.60 0.1043
896.70 0.1043
896.80 0.1042
896.90 0.1042
897.00 0.1041
897.10 0.1041
897.20 0.1041
897.30 0.104
897.40 0.104
897.50 0.1039
897.60 0.1039
897.70 0.1038
897.80 0.1038
897.90 0.1037
898.00 0.1037
898.10 0.1037
898.20 0.1036
898.30 0.1036
898.40 0.1035
898.50 0.1035
898.60 0.1034
898.70 0.1034
898.80 0.1033
898.90 0.1033
899.00 0.1032
899.10 0.1032
899.20 0.1032
899.30 0.1031
899.40 0.1031
899.50 0.103
899.60 0.103
899.70 0.1029
899.80 0.1029
899.90 0.1028
900.00 0.1028
900.10 0.1028
900.20 0.1027
900.30 0.1027
900.40 0.1026
900.50 0.1026
900.60 0.1025
900.70 0.1025
900.80 0.1024
900.90 0.1024
901.00 0.1024
901.10 0.1023
901.20 0.1023
901.30 0.1022
901.40 0.1022
901.50 0.1021
901.60 0.1021
901.70 0.102
901.80 0.102
901.90 0.102
902.00 0.1019
902.10 0.1019
902.20 0.1018
902.30 0.1018
902.40 0.1017
902.50 0.1017
902.60 0.1017
902.70 0.1016
902.80 0.1016
902.90 0.1015
903.00 0.1015
903.10 0.1014
903.20 0.1014
903.30 0.1013
903.40 0.1013
903.50 0.1013
903.60 0.1012
903.70 0.1012
903.80 0.1011
903.90 0.1011
904.00 0.101
904.10 0.101
904.20 0.101
904.30 0.1009
904.40 0.1009
904.50 0.1008
904.60 0.1008
904.70 0.1007
904.80 0.1007
904.90 0.1006
905.00 0.1006
905.10 0.1006
905.20 0.1005
905.30 0.1005
905.40 0.1004
905.50 0.1004
905.60 0.1003
905.70 0.1003
905.80 0.1003
905.90 0.1002
906.00 0.1002
906.10 0.1001
906.20 0.1001
906.30 0.1
906.40 0.1
906.50 0.09995
906.60 0.09991
906.70 0.09987
906.80 0.09982
906.90 0.09978
907.00 0.09974
907.10 0.09969
907.20 0.09965
907.30 0.09961
907.40 0.09957
907.50 0.09952
907.60 0.09948
907.70 0.09944
907.80 0.0994
907.90 0.09935
908.00 0.09931
908.10 0.09927
908.20 0.09923
908.30 0.09918
908.40 0.09914
908.50 0.0991
908.60 0.09906
908.70 0.09901
908.80 0.09897
908.90 0.09893
909.00 0.09889
909.10 0.09884
909.20 0.0988
909.30 0.09876
909.40 0.09872
909.50 0.09867
909.60 0.09863
909.70 0.09859
909.80 0.09855
909.90 0.09851
910.00 0.09846
910.10 0.09842
910.20 0.09838
910.30 0.09834
910.40 0.09829
910.50 0.09825
910.60 0.09821
910.70 0.09817
910.80 0.09813
910.90 0.09808
911.00 0.09804
911.10 0.098
911.20 0.09796
911.30 0.09792
911.40 0.09787
911.50 0.09783
911.60 0.09779
911.70 0.09775
911.80 0.09771
911.90 0.09766
912.00 0.09762
912.10 0.09758
912.20 0.09754
912.30 0.0975
912.40 0.09746
912.50 0.09741
912.60 0.09737
912.70 0.09733
912.80 0.09729
912.90 0.09725
913.00 0.09721
913.10 0.09717
913.20 0.09712
913.30 0.09708
913.40 0.09704
913.50 0.097
913.60 0.09696
913.70 0.09692
913.80 0.09688
913.90 0.09684
914.00 0.09679
914.10 0.09675
914.20 0.09671
914.30 0.09667
914.40 0.09663
914.50 0.09659
914.60 0.09655
914.70 0.09651
914.80 0.09647
914.90 0.09642
915.00 0.09638
915.10 0.09634
915.20 0.0963
915.30 0.09626
915.40 0.09622
915.50 0.09618
915.60 0.09614
915.70 0.0961
915.80 0.09606
915.90 0.09601
916.00 0.09597
916.10 0.09593
916.20 0.09589
916.30 0.09585
916.40 0.09581
916.50 0.09577
916.60 0.09573
916.70 0.09569
916.80 0.09565
916.90 0.09561
917.00 0.09556
917.10 0.09552
917.20 0.09548
917.30 0.09544
917.40 0.0954
917.50 0.09536
917.60 0.09532
917.70 0.09528
917.80 0.09524
917.90 0.0952
918.00 0.09516
918.10 0.09512
918.20 0.09508
918.30 0.09504
918.40 0.095
918.50 0.09496
918.60 0.09492
918.70 0.09488
918.80 0.09484
918.90 0.0948
919.00 0.09476
919.10 0.09472
919.20 0.09468
919.30 0.09464
919.40 0.0946
919.50 0.09456
919.60 0.09452
919.70 0.09448
919.80 0.09444
919.90 0.0944
920.00 0.09436
920.10 0.09432
920.20 0.09428
920.30 0.09424
920.40 0.0942
920.50 0.09416
920.60 0.09412
920.70 0.09408
920.80 0.09404
920.90 0.094
921.00 0.09396
921.10 0.09392
921.20 0.09388
921.30 0.09385
921.40 0.09381
921.50 0.09377
921.60 0.09373
921.70 0.09369
921.80 0.09365
921.90 0.09361
922.00 0.09357
922.10 0.09353
922.20 0.09349
922.30 0.09345
922.40 0.09341
922.50 0.09337
922.60 0.09333
922.70 0.09329
922.80 0.09325
922.90 0.09321
923.00 0.09317
923.10 0.09314
923.20 0.0931
923.30 0.09306
923.40 0.09302
923.50 0.09298
923.60 0.09294
923.70 0.0929
923.80 0.09286
923.90 0.09282
924.00 0.09278
924.10 0.09274
924.20 0.0927
924.30 0.09266
924.40 0.09263
924.50 0.09259
924.60 0.09255
924.70 0.09251
924.80 0.09247
924.90 0.09243
925.00 0.09239
925.10 0.09235
925.20 0.09231
925.30 0.09227
925.40 0.09224
925.50 0.0922
925.60 0.09216
925.70 0.09212
925.80 0.09208
925.90 0.09204
926.00 0.092
926.10 0.09196
926.20 0.09192
926.30 0.09189
926.40 0.09185
926.50 0.09181
926.60 0.09177
926.70 0.09173
926.80 0.09169
926.90 0.09165
927.00 0.09161
927.10 0.09158
927.20 0.09154
927.30 0.0915
927.40 0.09146
927.50 0.09142
927.60 0.09138
927.70 0.09135
927.80 0.09131
927.90 0.09127
928.00 0.09123
928.10 0.09119
928.20 0.09116
928.30 0.09112
928.40 0.09108
928.50 0.09104
928.60 0.091
928.70 0.09096
928.80 0.09093
928.90 0.09089
929.00 0.09085
929.10 0.09081
929.20 0.09077
929.30 0.09074
929.40 0.0907
929.50 0.09066
929.60 0.09062
929.70 0.09058
929.80 0.09055
929.90 0.09051
930.00 0.09047
930.10 0.09043
930.20 0.09039
930.30 0.09036
930.40 0.09032
930.50 0.09028
930.60 0.09024
930.70 0.09021
930.80 0.09017
930.90 0.09013
931.00 0.09009
931.10 0.09005
931.20 0.09002
931.30 0.08998
931.40 0.08994
931.50 0.0899
931.60 0.08987
931.70 0.08983
931.80 0.08979
931.90 0.08975
932.00 0.08971
932.10 0.08968
932.20 0.08964
932.30 0.0896
932.40 0.08957
932.50 0.08953
932.60 0.08949
932.70 0.08945
932.80 0.08942
932.90 0.08938
933.00 0.08934
933.10 0.0893
933.20 0.08927
933.30 0.08923
933.40 0.08919
933.50 0.08915
933.60 0.08912
933.70 0.08908
933.80 0.08904
933.90 0.08901
934.00 0.08897
934.10 0.08893
934.20 0.08889
934.30 0.08886
934.40 0.08882
934.50 0.08878
934.60 0.08875
934.70 0.08871
934.80 0.08867
934.90 0.08864
935.00 0.0886
935.10 0.08856
935.20 0.08852
935.30 0.08849
935.40 0.08845
935.50 0.08841
935.60 0.08838
935.70 0.08834
935.80 0.0883
935.90 0.08827
936.00 0.08823
936.10 0.08819
936.20 0.08816
936.30 0.08812
936.40 0.08808
936.50 0.08805
936.60 0.08801
936.70 0.08797
936.80 0.08794
936.90 0.0879
937.00 0.08786
937.10 0.08783
937.20 0.08779
937.30 0.08775
937.40 0.08772
937.50 0.08768
937.60 0.08764
937.70 0.08761
937.80 0.08757
937.90 0.08753
938.00 0.0875
938.10 0.08746
938.20 0.08743
938.30 0.08739
938.40 0.08735
938.50 0.08732
938.60 0.08728
938.70 0.08724
938.80 0.08721
938.90 0.08717
939.00 0.08714
939.10 0.0871
939.20 0.08706
939.30 0.08703
939.40 0.08699
939.50 0.08695
939.60 0.08692
939.70 0.08688
939.80 0.08685
939.90 0.08681
940.00 0.08677
940.10 0.08674
940.20 0.0867
940.30 0.08667
940.40 0.08663
940.50 0.08659
940.60 0.08656
940.70 0.08652
940.80 0.08649
940.90 0.08645
941.00 0.08641
941.10 0.08638
941.20 0.08634
941.30 0.08631
941.40 0.08627
941.50 0.08624
941.60 0.0862
941.70 0.08616
941.80 0.08613
941.90 0.08609
942.00 0.08606
942.10 0.08602
942.20 0.08599
942.30 0.08595
942.40 0.08591
942.50 0.08588
942.60 0.08584
942.70 0.08581
942.80 0.08577
942.90 0.08574
943.00 0.0857
943.10 0.08567
943.20 0.08563
943.30 0.08559
943.40 0.08556
943.50 0.08552
943.60 0.08549
943.70 0.08545
943.80 0.08542
943.90 0.08538
944.00 0.08535
944.10 0.08531
944.20 0.08528
944.30 0.08524
944.40 0.08521
944.50 0.08517
944.60 0.08513
944.70 0.0851
944.80 0.08506
944.90 0.08503
945.00 0.08499
945.10 0.08496
945.20 0.08492
945.30 0.08489
945.40 0.08485
945.50 0.08482
945.60 0.08478
945.70 0.08475
945.80 0.08471
945.90 0.08468
946.00 0.08464
946.10 0.08461
946.20 0.08457
946.30 0.08454
946.40 0.0845
946.50 0.08447
946.60 0.08443
946.70 0.0844
946.80 0.08436
946.90 0.08433
947.00 0.08429
947.10 0.08426
947.20 0.08423
947.30 0.08419
947.40 0.08416
947.50 0.08412
947.60 0.08409
947.70 0.08405
947.80 0.08402
947.90 0.08398
948.00 0.08395
948.10 0.08391
948.20 0.08388
948.30 0.08385
948.40 0.08381
948.50 0.08378
948.60 0.08374
948.70 0.08371
948.80 0.08367
948.90 0.08364
949.00 0.0836
949.10 0.08357
949.20 0.08354
949.30 0.0835
949.40 0.08347
949.50 0.08343
949.60 0.0834
949.70 0.08336
949.80 0.08333
949.90 0.0833
950.00 0.08326
950.10 0.08323
950.20 0.08319
950.30 0.08316
950.40 0.08313
950.50 0.08309
950.60 0.08306
950.70 0.08302
950.80 0.08299
950.90 0.08296
951.00 0.08292
951.10 0.08289
951.20 0.08285
951.30 0.08282
951.40 0.08279
951.50 0.08275
951.60 0.08272
951.70 0.08269
951.80 0.08265
951.90 0.08262
952.00 0.08258
952.10 0.08255
952.20 0.08252
952.30 0.08248
952.40 0.08245
952.50 0.08242
952.60 0.08238
952.70 0.08235
952.80 0.08232
952.90 0.08228
953.00 0.08225
953.10 0.08222
953.20 0.08218
953.30 0.08215
953.40 0.08212
953.50 0.08208
953.60 0.08205
953.70 0.08202
953.80 0.08198
953.90 0.08195
954.00 0.08192
954.10 0.08189
954.20 0.08185
954.30 0.08182
954.40 0.08179
954.50 0.08176
954.60 0.08172
954.70 0.08169
954.80 0.08166
954.90 0.08162
955.00 0.08159
955.10 0.08155
955.20 0.08152
955.30 0.08149
955.40 0.08145
955.50 0.08142
955.60 0.08139
955.70 0.08135
955.80 0.08132
955.90 0.08129
956.00 0.08125
956.10 0.08122
956.20 0.08119
956.30 0.08115
956.40 0.08112
956.50 0.08109
956.60 0.08105
956.70 0.08102
956.80 0.08099
956.90 0.08096
957.00 0.08092
957.10 0.08089
957.20 0.08086
957.30 0.08082
957.40 0.08079
957.50 0.08076
957.60 0.08072
957.70 0.08069
957.80 0.08066
957.90 0.08063
958.00 0.08059
958.10 0.08056
958.20 0.08053
958.30 0.0805
958.40 0.08046
958.50 0.08043
958.60 0.0804
958.70 0.08037
958.80 0.08033
958.90 0.0803
959.00 0.08027
959.10 0.08024
959.20 0.0802
959.30 0.08017
959.40 0.08014
959.50 0.08011
959.60 0.08007
959.70 0.08004
959.80 0.08001
959.90 0.07998
960.00 0.07995
960.10 0.07991
960.20 0.07988
960.30 0.07985
960.40 0.07982
960.50 0.07978
960.60 0.07975
960.70 0.07972
960.80 0.07969
960.90 0.07966
961.00 0.07962
961.10 0.07959
961.20 0.07956
961.30 0.07953
961.40 0.0795
961.50 0.07946
961.60 0.07943
961.70 0.0794
961.80 0.07937
961.90 0.07934
962.00 0.0793
962.10 0.07927
962.20 0.07924
962.30 0.07921
962.40 0.07918
962.50 0.07915
962.60 0.07911
962.70 0.07908
962.80 0.07905
962.90 0.07902
963.00 0.07899
963.10 0.07895
963.20 0.07892
963.30 0.07889
963.40 0.07886
963.50 0.07883
963.60 0.0788
963.70 0.07876
963.80 0.07873
963.90 0.0787
964.00 0.07867
964.10 0.07864
964.20 0.07861
964.30 0.07858
964.40 0.07854
964.50 0.07851
964.60 0.07848
964.70 0.07845
964.80 0.07842
964.90 0.07839
965.00 0.07836
965.10 0.07832
965.20 0.07829
965.30 0.07826
965.40 0.07823
965.50 0.0782
965.60 0.07817
965.70 0.07814
965.80 0.0781
965.90 0.07807
966.00 0.07804
966.10 0.07801
966.20 0.07798
966.30 0.07795
966.40 0.07792
966.50 0.07789
966.60 0.07785
966.70 0.07782
966.80 0.07779
966.90 0.07776
967.00 0.07773
967.10 0.0777
967.20 0.07767
967.30 0.07764
967.40 0.07761
967.50 0.07757
967.60 0.07754
967.70 0.07751
967.80 0.07748
967.90 0.07745
968.00 0.07742
968.10 0.07739
968.20 0.07736
968.30 0.07733
968.40 0.07729
968.50 0.07726
968.60 0.07723
968.70 0.0772
968.80 0.07717
968.90 0.07714
969.00 0.07711
969.10 0.07708
969.20 0.07705
969.30 0.07702
969.40 0.07699
969.50 0.07696
969.60 0.07692
969.70 0.07689
969.80 0.07686
969.90 0.07683
970.00 0.0768
970.10 0.07677
970.20 0.07674
970.30 0.07671
970.40 0.07668
970.50 0.07665
970.60 0.07662
970.70 0.07659
970.80 0.07656
970.90 0.07652
971.00 0.07649
971.10 0.07646
971.20 0.07643
971.30 0.0764
971.40 0.07637
971.50 0.07634
971.60 0.07631
971.70 0.07628
971.80 0.07625
971.90 0.07622
972.00 0.07619
972.10 0.07616
972.20 0.07613
972.30 0.0761
972.40 0.07607
972.50 0.07604
972.60 0.076
972.70 0.07597
972.80 0.07594
972.90 0.07591
973.00 0.07588
973.10 0.07585
973.20 0.07582
973.30 0.07579
973.40 0.07576
973.50 0.07573
973.60 0.0757
973.70 0.07567
973.80 0.07564
973.90 0.07561
974.00 0.07558
974.10 0.07555
974.20 0.07552
974.30 0.07549
974.40 0.07546
974.50 0.07543
974.60 0.0754
974.70 0.07537
974.80 0.07534
974.90 0.07531
975.00 0.07528
975.10 0.07525
975.20 0.07522
975.30 0.07519
975.40 0.07516
975.50 0.07513
975.60 0.0751
975.70 0.07507
975.80 0.07504
975.90 0.07501
976.00 0.07498
976.10 0.07495
976.20 0.07492
976.30 0.07489
976.40 0.07486
976.50 0.07483
976.60 0.0748
976.70 0.07477
976.80 0.07474
976.90 0.07471
977.00 0.07468
977.10 0.07465
977.20 0.07462
977.30 0.07459
977.40 0.07456
977.50 0.07453
977.60 0.0745
977.70 0.07447
977.80 0.07444
977.90 0.07441
978.00 0.07438
978.10 0.07435
978.20 0.07432
978.30 0.07429
978.40 0.07426
978.50 0.07423
978.60 0.0742
978.70 0.07417
978.80 0.07414
978.90 0.07411
979.00 0.07408
979.10 0.07405
979.20 0.07402
979.30 0.07399
979.40 0.07396
979.50 0.07393
979.60 0.0739
979.70 0.07387
979.80 0.07384
979.90 0.07381
980.00 0.07378
980.10 0.07375
980.20 0.07372
980.30 0.07369
980.40 0.07366
980.50 0.07363
980.60 0.0736
980.70 0.07357
980.80 0.07354
980.90 0.07351
981.00 0.07348
981.10 0.07345
981.20 0.07342
981.30 0.07339
981.40 0.07337
981.50 0.07334
981.60 0.07331
981.70 0.07328
981.80 0.07325
981.90 0.07322
982.00 0.07319
982.10 0.07316
982.20 0.07313
982.30 0.0731
982.40 0.07307
982.50 0.07304
982.60 0.07301
982.70 0.07298
982.80 0.07295
982.90 0.07292
983.00 0.07289
983.10 0.07286
983.20 0.07283
983.30 0.07281
983.40 0.07278
983.50 0.07275
983.60 0.07272
983.70 0.07269
983.80 0.07266
983.90 0.07263
984.00 0.0726
984.10 0.07257
984.20 0.07254
984.30 0.07251
984.40 0.07248
984.50 0.07245
984.60 0.07242
984.70 0.0724
984.80 0.07237
984.90 0.07234
985.00 0.07231
985.10 0.07228
985.20 0.07225
985.30 0.07222
985.40 0.07219
985.50 0.07216
985.60 0.07213
985.70 0.0721
985.80 0.07207
985.90 0.07205
986.00 0.07202
986.10 0.07199
986.20 0.07196
986.30 0.07193
986.40 0.0719
986.50 0.07187
986.60 0.07184
986.70 0.07181
986.80 0.07178
986.90 0.07175
987.00 0.07173
987.10 0.0717
987.20 0.07167
987.30 0.07164
987.40 0.07161
987.50 0.07158
987.60 0.07155
987.70 0.07152
987.80 0.07149
987.90 0.07146
988.00 0.07144
988.10 0.07141
988.20 0.07138
988.30 0.07135
988.40 0.07132
988.50 0.07129
988.60 0.07126
988.70 0.07123
988.80 0.0712
988.90 0.07118
989.00 0.07115
989.10 0.07112
989.20 0.07109
989.30 0.07106
989.40 0.07103
989.50 0.071
989.60 0.07097
989.70 0.07094
989.80 0.07092
989.90 0.07089
990.00 0.07086
990.10 0.07083
990.20 0.0708
990.30 0.07077
990.40 0.07074
990.50 0.07072
990.60 0.07069
990.70 0.07066
990.80 0.07063
990.90 0.0706
991.00 0.07057
991.10 0.07054
991.20 0.07051
991.30 0.07049
991.40 0.07046
991.50 0.07043
991.60 0.0704
991.70 0.07037
991.80 0.07034
991.90 0.07031
992.00 0.07029
992.10 0.07026
992.20 0.07023
992.30 0.0702
992.40 0.07017
992.50 0.07014
992.60 0.07011
992.70 0.07009
992.80 0.07006
992.90 0.07003
993.00 0.07
993.10 0.06997
993.20 0.06994
993.30 0.06992
993.40 0.06989
993.50 0.06986
993.60 0.06983
993.70 0.0698
993.80 0.06977
993.90 0.06975
994.00 0.06972
994.10 0.06969
994.20 0.06966
994.30 0.06963
994.40 0.0696
994.50 0.06958
994.60 0.06955
994.70 0.06952
994.80 0.06949
994.90 0.06946
995.00 0.06943
995.10 0.06941
995.20 0.06938
995.30 0.06935
995.40 0.06932
995.50 0.06929
995.60 0.06927
995.70 0.06924
995.80 0.06921
995.90 0.06918
996.00 0.06915
996.10 0.06913
996.20 0.0691
996.30 0.06907
996.40 0.06904
996.50 0.06901
996.60 0.06899
996.70 0.06896
996.80 0.06893
996.90 0.0689
997.00 0.06887
997.10 0.06885
997.20 0.06882
997.30 0.06879
997.40 0.06876
997.50 0.06874
997.60 0.06871
997.70 0.06868
997.80 0.06865
997.90 0.06862
998.00 0.0686
998.10 0.06857
998.20 0.06854
998.30 0.06851
998.40 0.06849
998.50 0.06846
998.60 0.06843
998.70 0.0684
998.80 0.06838
998.90 0.06835
999.00 0.06832
999.10 0.06829
999.20 0.06827
999.30 0.06824
999.40 0.06821
999.50 0.06819
999.60 0.06816
999.70 0.06813
999.80 0.0681
999.90 0.06807
1000.00 0.06804
1000.10 0.06801
1000.20 0.06799
1000.30 0.06796
1000.40 0.06793
1000.50 0.0679
1000.60 0.06787
1000.70 0.06784
1000.80 0.06781
1000.90 0.06778
1001.00 0.06776
1001.10 0.06773
1001.20 0.0677
1001.30 0.06767
1001.40 0.06764
1001.50 0.06761
1001.60 0.06758
1001.70 0.06756
1001.80 0.06753
1001.90 0.06751
1002.00 0.06748
1002.10 0.06745
1002.20 0.06743
1002.30 0.0674
1002.40 0.06738
1002.50 0.06735
1002.60 0.06733
1002.70 0.0673
1002.80 0.06728
1002.90 0.06725
1003.00 0.06722
1003.10 0.0672
1003.20 0.06717
1003.30 0.06715
1003.40 0.06712
1003.50 0.0671
1003.60 0.06708
1003.70 0.06705
1003.80 0.06703
1003.90 0.067
1004.00 0.06698
1004.10 0.06695
1004.20 0.06693
1004.30 0.0669
1004.40 0.06688
1004.50 0.06686
1004.60 0.06683
1004.70 0.0668
1004.80 0.06678
1004.90 0.06675
1005.00 0.06673
1005.10 0.0667
1005.20 0.06667
1005.30 0.06665
1005.40 0.06662
1005.50 0.0666
1005.60 0.06657
1005.70 0.06654
1005.80 0.06651
1005.90 0.06649
1006.00 0.06646
1006.10 0.06643
1006.20 0.06641
1006.30 0.06638
1006.40 0.06635
1006.50 0.06633
1006.60 0.0663
1006.70 0.06627
1006.80 0.06625
1006.90 0.06622
1007.00 0.06619
1007.10 0.06617
1007.20 0.06614
1007.30 0.06612
1007.40 0.06609
1007.50 0.06606
1007.60 0.06604
1007.70 0.06601
1007.80 0.06599
1007.90 0.06596
1008.00 0.06594
1008.10 0.06591
1008.20 0.06589
1008.30 0.06586
1008.40 0.06584
1008.50 0.06581
1008.60 0.06579
1008.70 0.06576
1008.80 0.06574
1008.90 0.06571
1009.00 0.06569
1009.10 0.06566
1009.20 0.06564
1009.30 0.06561
1009.40 0.06559
1009.50 0.06556
1009.60 0.06554
1009.70 0.06551
1009.80 0.06549
1009.90 0.06546
1010.00 0.06544
1010.10 0.06541
1010.20 0.06539
1010.30 0.06536
1010.40 0.06534
1010.50 0.06532
1010.60 0.06529
1010.70 0.06527
1010.80 0.06524
1010.90 0.06522
1011.00 0.06519
1011.10 0.06517
1011.20 0.06515
1011.30 0.06512
1011.40 0.0651
1011.50 0.06507
1011.60 0.06505
1011.70 0.06502
1011.80 0.065
1011.90 0.06498
1012.00 0.06495
1012.10 0.06493
1012.20 0.0649
1012.30 0.06488
1012.40 0.06486
1012.50 0.06483
1012.60 0.06481
1012.70 0.06478
1012.80 0.06476
1012.90 0.06474
1013.00 0.06471
1013.10 0.06469
1013.20 0.06467
1013.30 0.06464
1013.40 0.06462
1013.50 0.06459
1013.60 0.06457
1013.70 0.06455
1013.80 0.06452
1013.90 0.0645
1014.00 0.06448
1014.10 0.06445
1014.20 0.06443
1014.30 0.0644
1014.40 0.06438
1014.50 0.06436
1014.60 0.06433
1014.70 0.06431
1014.80 0.06429
1014.90 0.06426
1015.00 0.06424
1015.10 0.06422
1015.20 0.06419
1015.30 0.06417
1015.40 0.06414
1015.50 0.06412
1015.60 0.0641
1015.70 0.06407
1015.80 0.06405
1015.90 0.06403
1016.00 0.064
1016.10 0.06398
1016.20 0.06396
1016.30 0.06393
1016.40 0.06391
1016.50 0.06389
1016.60 0.06386
1016.70 0.06384
1016.80 0.06382
1016.90 0.06379
1017.00 0.06377
1017.10 0.06375
1017.20 0.06372
1017.30 0.0637
1017.40 0.06368
1017.50 0.06365
1017.60 0.06363
1017.70 0.06361
1017.80 0.06358
1017.90 0.06356
1018.00 0.06354
1018.10 0.06351
1018.20 0.06349
1018.30 0.06347
1018.40 0.06344
1018.50 0.06342
1018.60 0.0634
1018.70 0.06337
1018.80 0.06335
1018.90 0.06333
1019.00 0.0633
1019.10 0.06328
1019.20 0.06326
1019.30 0.06323
1019.40 0.06321
1019.50 0.06319
1019.60 0.06316
1019.70 0.06314
1019.80 0.06312
1019.90 0.06309
1020.00 0.06307
1020.10 0.06305
1020.20 0.06302
1020.30 0.063
1020.40 0.06298
1020.50 0.06295
1020.60 0.06293
1020.70 0.06291
1020.80 0.06288
1020.90 0.06286
1021.00 0.06284
1021.10 0.06281
1021.20 0.06279
1021.30 0.06277
1021.40 0.06275
1021.50 0.06272
1021.60 0.0627
1021.70 0.06268
1021.80 0.06265
1021.90 0.06263
1022.00 0.06261
1022.10 0.06258
1022.20 0.06256
1022.30 0.06254
1022.40 0.06251
1022.50 0.06249
1022.60 0.06247
1022.70 0.06245
1022.80 0.06242
1022.90 0.0624
1023.00 0.06238
1023.10 0.06235
1023.20 0.06233
1023.30 0.06231
1023.40 0.06228
1023.50 0.06226
1023.60 0.06224
1023.70 0.06221
1023.80 0.06219
1023.90 0.06217
1024.00 0.06215
1024.10 0.06212
1024.20 0.0621
1024.30 0.06208
1024.40 0.06205
1024.50 0.06203
1024.60 0.06201
1024.70 0.06199
1024.80 0.06196
1024.90 0.06194
1025.00 0.06192
1025.10 0.06189
1025.20 0.06187
1025.30 0.06185
1025.40 0.06182
1025.50 0.0618
1025.60 0.06178
1025.70 0.06176
1025.80 0.06173
1025.90 0.06171
1026.00 0.06169
1026.10 0.06166
1026.20 0.06164
1026.30 0.06162
1026.40 0.0616
1026.50 0.06157
1026.60 0.06155
1026.70 0.06153
1026.80 0.06151
1026.90 0.06148
1027.00 0.06146
1027.10 0.06144
1027.20 0.06141
1027.30 0.06139
1027.40 0.06137
1027.50 0.06135
1027.60 0.06132
1027.70 0.0613
1027.80 0.06128
1027.90 0.06125
1028.00 0.06123
1028.10 0.06121
1028.20 0.06119
1028.30 0.06116
1028.40 0.06114
1028.50 0.06112
1028.60 0.0611
1028.70 0.06107
1028.80 0.06105
1028.90 0.06103
1029.00 0.061
1029.10 0.06098
1029.20 0.06096
1029.30 0.06094
1029.40 0.06091
1029.50 0.06089
1029.60 0.06087
1029.70 0.06085
1029.80 0.06082
1029.90 0.0608
1030.00 0.06078
1030.10 0.06076
1030.20 0.06073
1030.30 0.06071
1030.40 0.06069
1030.50 0.06067
1030.60 0.06064
1030.70 0.06062
1030.80 0.0606
1030.90 0.06058
1031.00 0.06055
1031.10 0.06053
1031.20 0.06051
1031.30 0.06049
1031.40 0.06046
1031.50 0.06044
1031.60 0.06042
1031.70 0.0604
1031.80 0.06037
1031.90 0.06035
1032.00 0.06033
1032.10 0.06031
1032.20 0.06028
1032.30 0.06026
1032.40 0.06024
1032.50 0.06022
1032.60 0.06019
1032.70 0.06017
1032.80 0.06015
1032.90 0.06013
1033.00 0.0601
1033.10 0.06008
1033.20 0.06006
1033.30 0.06004
1033.40 0.06001
1033.50 0.05999
1033.60 0.05997
1033.70 0.05995
1033.80 0.05993
1033.90 0.0599
1034.00 0.05988
1034.10 0.05986
1034.20 0.05984
1034.30 0.05981
1034.40 0.05979
1034.50 0.05977
1034.60 0.05975
1034.70 0.05972
1034.80 0.0597
1034.90 0.05968
1035.00 0.05966
1035.10 0.05964
1035.20 0.05961
1035.30 0.05959
1035.40 0.05957
1035.50 0.05955
1035.60 0.05952
1035.70 0.0595
1035.80 0.05948
1035.90 0.05946
1036.00 0.05944
1036.10 0.05941
1036.20 0.05939
1036.30 0.05937
1036.40 0.05935
1036.50 0.05933
1036.60 0.0593
1036.70 0.05928
1036.80 0.05926
1036.90 0.05924
1037.00 0.05921
1037.10 0.05919
1037.20 0.05917
1037.30 0.05915
1037.40 0.05913
1037.50 0.0591
1037.60 0.05908
1037.70 0.05906
1037.80 0.05904
1037.90 0.05902
1038.00 0.05899
1038.10 0.05897
1038.20 0.05895
1038.30 0.05893
1038.40 0.05891
1038.50 0.05888
1038.60 0.05886
1038.70 0.05884
1038.80 0.05882
1038.90 0.0588
1039.00 0.05877
1039.10 0.05875
1039.20 0.05873
1039.30 0.05871
1039.40 0.05869
1039.50 0.05866
1039.60 0.05864
1039.70 0.05862
1039.80 0.0586
1039.90 0.05858
1040.00 0.05856
1040.10 0.05853
1040.20 0.05851
1040.30 0.05849
1040.40 0.05847
1040.50 0.05845
1040.60 0.05842
1040.70 0.0584
1040.80 0.05838
1040.90 0.05836
1041.00 0.05834
1041.10 0.05832
1041.20 0.05829
1041.30 0.05827
1041.40 0.05825
1041.50 0.05823
1041.60 0.05821
1041.70 0.05818
1041.80 0.05816
1041.90 0.05814
1042.00 0.05812
1042.10 0.0581
1042.20 0.05808
1042.30 0.05805
1042.40 0.05803
1042.50 0.05801
1042.60 0.05799
1042.70 0.05797
1042.80 0.05795
1042.90 0.05792
1043.00 0.0579
1043.10 0.05788
1043.20 0.05786
1043.30 0.05784
1043.40 0.05782
1043.50 0.05779
1043.60 0.05777
1043.70 0.05775
1043.80 0.05773
1043.90 0.05771
1044.00 0.05769
1044.10 0.05766
1044.20 0.05764
1044.30 0.05762
1044.40 0.0576
1044.50 0.05758
1044.60 0.05756
1044.70 0.05754
1044.80 0.05751
1044.90 0.05749
1045.00 0.05747
1045.10 0.05745
1045.20 0.05743
1045.30 0.05741
1045.40 0.05738
1045.50 0.05736
1045.60 0.05734
1045.70 0.05732
1045.80 0.0573
1045.90 0.05728
1046.00 0.05726
1046.10 0.05723
1046.20 0.05721
1046.30 0.05719
1046.40 0.05717
1046.50 0.05715
1046.60 0.05713
1046.70 0.05711
1046.80 0.05708
1046.90 0.05706
1047.00 0.05704
1047.10 0.05702
1047.20 0.057
1047.30 0.05698
1047.40 0.05696
1047.50 0.05694
1047.60 0.05691
1047.70 0.05689
1047.80 0.05687
1047.90 0.05685
1048.00 0.05683
1048.10 0.05681
1048.20 0.05679
1048.30 0.05676
1048.40 0.05674
1048.50 0.05672
1048.60 0.0567
1048.70 0.05668
1048.80 0.05666
1048.90 0.05664
1049.00 0.05662
1049.10 0.05659
1049.20 0.05657
1049.30 0.05655
1049.40 0.05653
1049.50 0.05651
1049.60 0.05649
1049.70 0.05647
1049.80 0.05645
1049.90 0.05643
1050.00 0.0564
1050.10 0.05638
1050.20 0.05636
1050.30 0.05634
1050.40 0.05632
1050.50 0.0563
1050.60 0.05628
1050.70 0.05626
1050.80 0.05624
1050.90 0.05621
1051.00 0.05619
1051.10 0.05617
1051.20 0.05615
1051.30 0.05613
1051.40 0.05611
1051.50 0.05609
1051.60 0.05607
1051.70 0.05605
1051.80 0.05602
1051.90 0.056
1052.00 0.05598
1052.10 0.05596
1052.20 0.05594
1052.30 0.05592
1052.40 0.0559
1052.50 0.05588
1052.60 0.05586
1052.70 0.05584
1052.80 0.05581
1052.90 0.05579
1053.00 0.05577
1053.10 0.05575
1053.20 0.05573
1053.30 0.05571
1053.40 0.05569
1053.50 0.05567
1053.60 0.05565
1053.70 0.05563
1053.80 0.05561
1053.90 0.05558
1054.00 0.05556
1054.10 0.05554
1054.20 0.05552
1054.30 0.0555
1054.40 0.05548
1054.50 0.05546
1054.60 0.05544
1054.70 0.05542
1054.80 0.0554
1054.90 0.05538
1055.00 0.05536
1055.10 0.05533
1055.20 0.05531
1055.30 0.05529
1055.40 0.05527
1055.50 0.05525
1055.60 0.05523
1055.70 0.05521
1055.80 0.05519
1055.90 0.05517
1056.00 0.05515
1056.10 0.05513
1056.20 0.05511
1056.30 0.05509
1056.40 0.05506
1056.50 0.05504
1056.60 0.05502
1056.70 0.055
1056.80 0.05498
1056.90 0.05496
1057.00 0.05494
1057.10 0.05492
1057.20 0.0549
1057.30 0.05488
1057.40 0.05486
1057.50 0.05484
1057.60 0.05482
1057.70 0.0548
1057.80 0.05477
1057.90 0.05475
1058.00 0.05473
1058.10 0.05471
1058.20 0.05469
1058.30 0.05467
1058.40 0.05465
1058.50 0.05463
1058.60 0.05461
1058.70 0.05459
1058.80 0.05457
1058.90 0.05455
1059.00 0.05453
1059.10 0.05451
1059.20 0.05449
1059.30 0.05447
1059.40 0.05444
1059.50 0.05442
1059.60 0.0544
1059.70 0.05438
1059.80 0.05436
1059.90 0.05434
1060.00 0.05432
1060.10 0.0543
1060.20 0.05428
1060.30 0.05426
1060.40 0.05424
1060.50 0.05422
1060.60 0.0542
1060.70 0.05418
1060.80 0.05416
1060.90 0.05414
1061.00 0.05412
1061.10 0.0541
1061.20 0.05408
1061.30 0.05406
1061.40 0.05403
1061.50 0.05401
1061.60 0.05399
1061.70 0.05397
1061.80 0.05395
1061.90 0.05393
1062.00 0.05391
1062.10 0.05389
1062.20 0.05387
1062.30 0.05385
1062.40 0.05383
1062.50 0.05381
1062.60 0.05379
1062.70 0.05377
1062.80 0.05375
1062.90 0.05373
1063.00 0.05371
1063.10 0.05369
1063.20 0.05367
1063.30 0.05365
1063.40 0.05363
1063.50 0.05361
1063.60 0.05359
1063.70 0.05357
1063.80 0.05355
1063.90 0.05352
1064.00 0.0535
1064.10 0.05348
1064.20 0.05346
1064.30 0.05344
1064.40 0.05342
1064.50 0.0534
1064.60 0.05338
1064.70 0.05336
1064.80 0.05334
1064.90 0.05332
1065.00 0.0533
1065.10 0.05328
1065.20 0.05326
1065.30 0.05324
1065.40 0.05322
1065.50 0.0532
1065.60 0.05318
1065.70 0.05316
1065.80 0.05314
1065.90 0.05312
1066.00 0.0531
1066.10 0.05308
1066.20 0.05306
1066.30 0.05304
1066.40 0.05302
1066.50 0.053
1066.60 0.05298
1066.70 0.05296
1066.80 0.05294
1066.90 0.05292
1067.00 0.0529
1067.10 0.05288
1067.20 0.05286
1067.30 0.05284
1067.40 0.05282
1067.50 0.0528
1067.60 0.05278
1067.70 0.05276
1067.80 0.05273
1067.90 0.05271
1068.00 0.05269
1068.10 0.05267
1068.20 0.05265
1068.30 0.05263
1068.40 0.05261
1068.50 0.05259
1068.60 0.05257
1068.70 0.05255
1068.80 0.05253
1068.90 0.05251
1069.00 0.05249
1069.10 0.05247
1069.20 0.05245
1069.30 0.05243
1069.40 0.05241
1069.50 0.05239
1069.60 0.05237
1069.70 0.05235
1069.80 0.05233
1069.90 0.05231
1070.00 0.05229
1070.10 0.05227
1070.20 0.05225
1070.30 0.05223
1070.40 0.05221
1070.50 0.05219
1070.60 0.05217
1070.70 0.05215
1070.80 0.05213
1070.90 0.05211
1071.00 0.05209
1071.10 0.05207
1071.20 0.05205
1071.30 0.05203
1071.40 0.05201
1071.50 0.05199
1071.60 0.05197
1071.70 0.05195
1071.80 0.05193
1071.90 0.05191
1072.00 0.05189
1072.10 0.05187
1072.20 0.05185
1072.30 0.05183
1072.40 0.05181
1072.50 0.05179
1072.60 0.05177
1072.70 0.05175
1072.80 0.05173
1072.90 0.05171
1073.00 0.05169
1073.10 0.05167
1073.20 0.05165
1073.30 0.05163
1073.40 0.05161
1073.50 0.05159
1073.60 0.05157
1073.70 0.05155
1073.80 0.05153
1073.90 0.05151
1074.00 0.05149
1074.10 0.05147
1074.20 0.05145
1074.30 0.05143
1074.40 0.05141
1074.50 0.05139
1074.60 0.05137
1074.70 0.05135
1074.80 0.05133
1074.90 0.05131
1075.00 0.05129
1075.10 0.05127
1075.20 0.05125
1075.30 0.05123
1075.40 0.05121
1075.50 0.05119
1075.60 0.05117
1075.70 0.05115
1075.80 0.05113
1075.90 0.05111
1076.00 0.05109
1076.10 0.05107
1076.20 0.05105
1076.30 0.05103
1076.40 0.05101
1076.50 0.05099
1076.60 0.05097
1076.70 0.05095
1076.80 0.05093
1076.90 0.05091
1077.00 0.05089
1077.10 0.05087
1077.20 0.05085
1077.30 0.05083
1077.40 0.05081
1077.50 0.05079
1077.60 0.05077
1077.70 0.05075
1077.80 0.05073
1077.90 0.05071
1078.00 0.05069
1078.10 0.05067
1078.20 0.05064
1078.30 0.05062
1078.40 0.0506
1078.50 0.05058
1078.60 0.05056
1078.70 0.05054
1078.80 0.05052
1078.90 0.0505
1079.00 0.05048
1079.10 0.05046
1079.20 0.05044
1079.30 0.05042
1079.40 0.0504
1079.50 0.05038
1079.60 0.05036
1079.70 0.05034
1079.80 0.05032
1079.90 0.0503
1080.00 0.05028
1080.10 0.05026
1080.20 0.05024
1080.30 0.05022
1080.40 0.0502
1080.50 0.05018
1080.60 0.05016
1080.70 0.05014
1080.80 0.05012
1080.90 0.0501
1081.00 0.05008
1081.10 0.05006
1081.20 0.05004
1081.30 0.05002
1081.40 0.05
1081.50 0.04998
1081.60 0.04996
1081.70 0.04994
1081.80 0.04992
1081.90 0.0499
1082.00 0.04988
1082.10 0.04986
1082.20 0.04984
1082.30 0.04982
1082.40 0.0498
1082.50 0.04978
1082.60 0.04976
1082.70 0.04974
1082.80 0.04972
1082.90 0.0497
1083.00 0.04968
1083.10 0.04966
1083.20 0.04964
1083.30 0.04962
1083.40 0.0496
1083.50 0.04958
1083.60 0.04956
1083.70 0.04954
1083.80 0.04952
1083.90 0.0495
1084.00 0.04948
1084.10 0.04946
1084.20 0.04944
1084.30 0.04942
1084.40 0.0494
1084.50 0.04938
1084.60 0.04936
1084.70 0.04934
1084.80 0.04932
1084.90 0.0493
1085.00 0.04928
1085.10 0.04926
1085.20 0.04924
1085.30 0.04922
1085.40 0.04921
1085.50 0.04919
1085.60 0.04917
1085.70 0.04915
1085.80 0.04913
1085.90 0.04911
1086.00 0.04909
1086.10 0.04907
1086.20 0.04905
1086.30 0.04903
1086.40 0.04901
1086.50 0.04899
1086.60 0.04897
1086.70 0.04895
1086.80 0.04893
1086.90 0.04891
1087.00 0.04889
1087.10 0.04887
1087.20 0.04885
1087.30 0.04883
1087.40 0.04881
1087.50 0.04879
1087.60 0.04877
1087.70 0.04875
1087.80 0.04873
1087.90 0.04871
1088.00 0.04869
1088.10 0.04867
1088.20 0.04865
1088.30 0.04863
1088.40 0.04861
1088.50 0.04859
1088.60 0.04857
1088.70 0.04856
1088.80 0.04854
1088.90 0.04852
1089.00 0.0485
1089.10 0.04848
1089.20 0.04846
1089.30 0.04844
1089.40 0.04842
1089.50 0.0484
1089.60 0.04838
1089.70 0.04836
1089.80 0.04834
1089.90 0.04832
1090.00 0.0483
1090.10 0.04828
1090.20 0.04826
1090.30 0.04825
1090.40 0.04823
1090.50 0.04821
1090.60 0.04819
1090.70 0.04817
1090.80 0.04815
1090.90 0.04813
1091.00 0.04811
1091.10 0.04809
1091.20 0.04807
1091.30 0.04805
1091.40 0.04803
1091.50 0.04802
1091.60 0.048
1091.70 0.04798
1091.80 0.04796
1091.90 0.04794
1092.00 0.04792
1092.10 0.0479
1092.20 0.04788
1092.30 0.04786
1092.40 0.04784
1092.50 0.04783
1092.60 0.04781
1092.70 0.04779
1092.80 0.04777
1092.90 0.04775
1093.00 0.04773
1093.10 0.04772
1093.20 0.0477
1093.30 0.04768
1093.40 0.04767
1093.50 0.04766
1093.60 0.04765
1093.70 0.04764
1093.80 0.04762
1093.90 0.04761
1094.00 0.04758
1094.10 0.04756
1094.20 0.04754
1094.30 0.04752
1094.40 0.04751
1094.50 0.04749
1094.60 0.04747
1094.70 0.04746
1094.80 0.04744
1094.90 0.04743
1095.00 0.04741
1095.10 0.0474
1095.20 0.04738
1095.30 0.04737
1095.40 0.04735
1095.50 0.04734
1095.60 0.04732
1095.70 0.04731
1095.80 0.04729
1095.90 0.04728
1096.00 0.04726
1096.10 0.04725
1096.20 0.04723
1096.30 0.04722
1096.40 0.0472
1096.50 0.04719
1096.60 0.04717
1096.70 0.04716
1096.80 0.04714
1096.90 0.04713
1097.00 0.04711
1097.10 0.0471
1097.20 0.04709
1097.30 0.04707
1097.40 0.04706
1097.50 0.04704
1097.60 0.04703
1097.70 0.04701
1097.80 0.047
1097.90 0.04698
1098.00 0.04697
1098.10 0.04695
1098.20 0.04694
1098.30 0.04693
1098.40 0.04691
1098.50 0.0469
1098.60 0.04688
1098.70 0.04687
1098.80 0.04685
1098.90 0.04684
1099.00 0.04682
1099.10 0.04681
1099.20 0.04679
1099.30 0.04678
1099.40 0.04677
1099.50 0.04675
1099.60 0.04674
1099.70 0.04672
1099.80 0.04671
1099.90 0.04669
1100.00 0.04668
1100.10 0.04667
1100.20 0.04665
1100.30 0.04664
1100.40 0.04662
1100.50 0.04661
1100.60 0.04659
1100.70 0.04658
1100.80 0.04656
1100.90 0.04655
1101.00 0.04654
1101.10 0.04652
1101.20 0.04651
1101.30 0.04649
1101.40 0.04648
1101.50 0.04646
1101.60 0.04645
1101.70 0.04644
1101.80 0.04642
1101.90 0.04641
1102.00 0.04639
1102.10 0.04638
1102.20 0.04636
1102.30 0.04635
1102.40 0.04634
1102.50 0.04632
1102.60 0.04631
1102.70 0.04629
1102.80 0.04628
1102.90 0.04626
1103.00 0.04625
1103.10 0.04624
1103.20 0.04622
1103.30 0.04621
1103.40 0.04619
1103.50 0.04618
1103.60 0.04616
1103.70 0.04615
1103.80 0.04614
1103.90 0.04612
1104.00 0.04611
1104.10 0.04609
1104.20 0.04608
1104.30 0.04606
1104.40 0.04605
1104.50 0.04604
1104.60 0.04602
1104.70 0.04601
1104.80 0.04599
1104.90 0.04598
1105.00 0.04596
1105.10 0.04595
1105.20 0.04594
1105.30 0.04592
1105.40 0.04591
1105.50 0.04589
1105.60 0.04588
1105.70 0.04586
1105.80 0.04585
1105.90 0.04584
1106.00 0.04582
1106.10 0.04581
1106.20 0.04579
1106.30 0.04578
1106.40 0.04576
1106.50 0.04575
1106.60 0.04574
1106.70 0.04572
1106.80 0.04571
1106.90 0.04569
1107.00 0.04568
1107.10 0.04566
1107.20 0.04565
1107.30 0.04563
1107.40 0.04562
1107.50 0.04561
1107.60 0.04559
1107.70 0.04558
1107.80 0.04556
1107.90 0.04555
1108.00 0.04553
1108.10 0.04552
1108.20 0.04551
1108.30 0.04549
1108.40 0.04548
1108.50 0.04546
1108.60 0.04545
1108.70 0.04543
1108.80 0.04542
1108.90 0.0454
1109.00 0.04539
1109.10 0.04538
1109.20 0.04536
1109.30 0.04535
1109.40 0.04533
1109.50 0.04532
1109.60 0.0453
1109.70 0.04529
1109.80 0.04527
1109.90 0.04526
1110.00 0.04525
1110.10 0.04523
1110.20 0.04522
1110.30 0.0452
1110.40 0.04519
1110.50 0.04517
1110.60 0.04516
1110.70 0.04514
1110.80 0.04513
1110.90 0.04512
1111.00 0.0451
1111.10 0.04509
1111.20 0.04507
1111.30 0.04506
1111.40 0.04504
1111.50 0.04503
1111.60 0.04501
1111.70 0.045
1111.80 0.04499
1111.90 0.04497
1112.00 0.04496
1112.10 0.04494
1112.20 0.04493
1112.30 0.04491
1112.40 0.0449
1112.50 0.04488
1112.60 0.04487
1112.70 0.04485
1112.80 0.04484
1112.90 0.04483
1113.00 0.04481
1113.10 0.0448
1113.20 0.04478
1113.30 0.04477
1113.40 0.04475
1113.50 0.04474
1113.60 0.04472
1113.70 0.04471
1113.80 0.04469
1113.90 0.04468
1114.00 0.04467
1114.10 0.04465
1114.20 0.04464
1114.30 0.04462
1114.40 0.04461
1114.50 0.04459
1114.60 0.04458
1114.70 0.04456
1114.80 0.04455
1114.90 0.04453
1115.00 0.04452
1115.10 0.0445
1115.20 0.04449
1115.30 0.04448
1115.40 0.04446
1115.50 0.04445
1115.60 0.04443
1115.70 0.04442
1115.80 0.0444
1115.90 0.04439
1116.00 0.04437
1116.10 0.04436
1116.20 0.04434
1116.30 0.04433
1116.40 0.04432
1116.50 0.0443
1116.60 0.04429
1116.70 0.04427
1116.80 0.04426
1116.90 0.04424
1117.00 0.04423
1117.10 0.04421
1117.20 0.0442
1117.30 0.04418
1117.40 0.04417
1117.50 0.04416
1117.60 0.04414
1117.70 0.04413
1117.80 0.04411
1117.90 0.0441
1118.00 0.04408
1118.10 0.04407
1118.20 0.04405
1118.30 0.04404
1118.40 0.04402
1118.50 0.04401
1118.60 0.04399
1118.70 0.04398
1118.80 0.04396
1118.90 0.04395
1119.00 0.04394
1119.10 0.04392
1119.20 0.04391
1119.30 0.04389
1119.40 0.04388
1119.50 0.04386
1119.60 0.04385
1119.70 0.04383
1119.80 0.04382
1119.90 0.0438
1120.00 0.04379
1120.10 0.04378
1120.20 0.04376
1120.30 0.04375
1120.40 0.04373
1120.50 0.04372
1120.60 0.0437
1120.70 0.04369
1120.80 0.04367
1120.90 0.04366
1121.00 0.04364
1121.10 0.04363
1121.20 0.04362
1121.30 0.0436
1121.40 0.04359
1121.50 0.04357
1121.60 0.04356
1121.70 0.04354
1121.80 0.04353
1121.90 0.04351
1122.00 0.0435
1122.10 0.04348
1122.20 0.04347
1122.30 0.04346
1122.40 0.04344
1122.50 0.04343
1122.60 0.04341
1122.70 0.0434
1122.80 0.04338
1122.90 0.04337
1123.00 0.04335
1123.10 0.04334
1123.20 0.04332
1123.30 0.04331
1123.40 0.0433
1123.50 0.04328
1123.60 0.04327
1123.70 0.04325
1123.80 0.04324
1123.90 0.04322
1124.00 0.04321
1124.10 0.04319
1124.20 0.04318
1124.30 0.04316
1124.40 0.04315
1124.50 0.04314
1124.60 0.04312
1124.70 0.04311
1124.80 0.04309
1124.90 0.04308
1125.00 0.04306
1125.10 0.04305
1125.20 0.04303
1125.30 0.04302
1125.40 0.043
1125.50 0.04299
1125.60 0.04298
1125.70 0.04296
1125.80 0.04295
1125.90 0.04293
1126.00 0.04292
1126.10 0.0429
1126.20 0.04289
1126.30 0.04287
1126.40 0.04286
1126.50 0.04285
1126.60 0.04283
1126.70 0.04282
1126.80 0.0428
1126.90 0.04279
1127.00 0.04277
1127.10 0.04276
1127.20 0.04274
1127.30 0.04273
1127.40 0.04272
1127.50 0.0427
1127.60 0.04269
1127.70 0.04267
1127.80 0.04266
1127.90 0.04264
1128.00 0.04263
1128.10 0.04261
1128.20 0.0426
1128.30 0.04259
1128.40 0.04257
1128.50 0.04256
1128.60 0.04254
1128.70 0.04253
1128.80 0.04251
1128.90 0.0425
1129.00 0.04249
1129.10 0.04247
1129.20 0.04246
1129.30 0.04244
1129.40 0.04243
1129.50 0.04241
1129.60 0.0424
1129.70 0.04238
1129.80 0.04237
1129.90 0.04236
1130.00 0.04234
1130.10 0.04233
1130.20 0.04231
1130.30 0.0423
1130.40 0.04228
1130.50 0.04227
1130.60 0.04226
1130.70 0.04224
1130.80 0.04223
1130.90 0.04221
1131.00 0.0422
1131.10 0.04218
1131.20 0.04217
1131.30 0.04216
1131.40 0.04214
1131.50 0.04213
1131.60 0.04211
1131.70 0.0421
1131.80 0.04208
1131.90 0.04207
1132.00 0.04206
1132.10 0.04204
1132.20 0.04203
1132.30 0.04201
1132.40 0.042
1132.50 0.04198
1132.60 0.04197
1132.70 0.04196
1132.80 0.04194
1132.90 0.04193
1133.00 0.04191
1133.10 0.0419
1133.20 0.04188
1133.30 0.04187
1133.40 0.04186
1133.50 0.04184
1133.60 0.04183
1133.70 0.04181
1133.80 0.0418
1133.90 0.04179
1134.00 0.04177
1134.10 0.04176
1134.20 0.04174
1134.30 0.04173
1134.40 0.04171
1134.50 0.0417
1134.60 0.04169
1134.70 0.04167
1134.80 0.04166
1134.90 0.04164
1135.00 0.04163
1135.10 0.04162
1135.20 0.0416
1135.30 0.04159
1135.40 0.04157
1135.50 0.04156
1135.60 0.04154
1135.70 0.04153
1135.80 0.04152
1135.90 0.0415
1136.00 0.04149
1136.10 0.04147
1136.20 0.04146
1136.30 0.04145
1136.40 0.04143
1136.50 0.04142
1136.60 0.0414
1136.70 0.04139
1136.80 0.04138
1136.90 0.04136
1137.00 0.04135
1137.10 0.04133
1137.20 0.04132
1137.30 0.04131
1137.40 0.04129
1137.50 0.04128
1137.60 0.04126
1137.70 0.04125
1137.80 0.04124
1137.90 0.04122
1138.00 0.04121
1138.10 0.04119
1138.20 0.04118
1138.30 0.04117
1138.40 0.04115
1138.50 0.04114
1138.60 0.04112
1138.70 0.04111
1138.80 0.0411
1138.90 0.04108
1139.00 0.04107
1139.10 0.04105
1139.20 0.04104
1139.30 0.04103
1139.40 0.04101
1139.50 0.041
1139.60 0.04098
1139.70 0.04097
1139.80 0.04096
1139.90 0.04094
1140.00 0.04093
1140.10 0.04091
1140.20 0.0409
1140.30 0.04089
1140.40 0.04087
1140.50 0.04086
1140.60 0.04084
1140.70 0.04083
1140.80 0.04082
1140.90 0.0408
1141.00 0.04079
1141.10 0.04078
1141.20 0.04076
1141.30 0.04075
1141.40 0.04073
1141.50 0.04072
1141.60 0.04071
1141.70 0.04069
1141.80 0.04068
1141.90 0.04066
1142.00 0.04065
1142.10 0.04064
1142.20 0.04062
1142.30 0.04061
1142.40 0.0406
1142.50 0.04058
1142.60 0.04057
1142.70 0.04055
1142.80 0.04054
1142.90 0.04053
1143.00 0.04051
1143.10 0.0405
1143.20 0.04049
1143.30 0.04047
1143.40 0.04046
1143.50 0.04044
1143.60 0.04043
1143.70 0.04042
1143.80 0.0404
1143.90 0.04039
1144.00 0.04038
1144.10 0.04036
1144.20 0.04035
1144.30 0.04033
1144.40 0.04032
1144.50 0.04031
1144.60 0.04029
1144.70 0.04028
1144.80 0.04027
1144.90 0.04025
1145.00 0.04024
1145.10 0.04023
1145.20 0.04021
1145.30 0.0402
1145.40 0.04018
1145.50 0.04017
1145.60 0.04016
1145.70 0.04014
1145.80 0.04013
1145.90 0.04012
1146.00 0.0401
1146.10 0.04009
1146.20 0.04008
1146.30 0.04006
1146.40 0.04005
1146.50 0.04003
1146.60 0.04002
1146.70 0.04001
1146.80 0.03999
1146.90 0.03998
1147.00 0.03997
1147.10 0.03995
1147.20 0.03994
1147.30 0.03993
1147.40 0.03991
1147.50 0.0399
1147.60 0.03989
1147.70 0.03987
1147.80 0.03986
1147.90 0.03984
1148.00 0.03983
1148.10 0.03982
1148.20 0.0398
1148.30 0.03979
1148.40 0.03978
1148.50 0.03976
1148.60 0.03975
1148.70 0.03974
1148.80 0.03972
1148.90 0.03971
1149.00 0.0397
1149.10 0.03968
1149.20 0.03967
1149.30 0.03966
1149.40 0.03964
1149.50 0.03963
1149.60 0.03962
1149.70 0.0396
1149.80 0.03959
1149.90 0.03958
1150.00 0.03956
1150.10 0.03955
1150.20 0.03954
1150.30 0.03952
1150.40 0.03951
1150.50 0.03949
1150.60 0.03948
1150.70 0.03947
1150.80 0.03945
1150.90 0.03944
1151.00 0.03943
1151.10 0.03941
1151.20 0.0394
1151.30 0.03939
1151.40 0.03937
1151.50 0.03936
1151.60 0.03935
1151.70 0.03933
1151.80 0.03932
1151.90 0.03931
1152.00 0.03929
1152.10 0.03928
1152.20 0.03927
1152.30 0.03925
1152.40 0.03924
1152.50 0.03923
1152.60 0.03921
1152.70 0.0392
1152.80 0.03919
1152.90 0.03918
1153.00 0.03916
1153.10 0.03915
1153.20 0.03914
1153.30 0.03912
1153.40 0.03911
1153.50 0.0391
1153.60 0.03908
1153.70 0.03907
1153.80 0.03906
1153.90 0.03904
1154.00 0.03903
1154.10 0.03902
1154.20 0.039
1154.30 0.03899
1154.40 0.03898
1154.50 0.03896
1154.60 0.03895
1154.70 0.03894
1154.80 0.03892
1154.90 0.03891
1155.00 0.0389
1155.10 0.03888
1155.20 0.03887
1155.30 0.03886
1155.40 0.03885
1155.50 0.03883
1155.60 0.03882
1155.70 0.03881
1155.80 0.03879
1155.90 0.03878
1156.00 0.03877
1156.10 0.03875
1156.20 0.03874
1156.30 0.03873
1156.40 0.03871
1156.50 0.0387
1156.60 0.03869
1156.70 0.03867
1156.80 0.03866
1156.90 0.03865
1157.00 0.03864
1157.10 0.03862
1157.20 0.03861
1157.30 0.0386
1157.40 0.03858
1157.50 0.03857
1157.60 0.03856
1157.70 0.03854
1157.80 0.03853
1157.90 0.03852
1158.00 0.03851
1158.10 0.03849
1158.20 0.03848
1158.30 0.03847
1158.40 0.03845
1158.50 0.03844
1158.60 0.03843
1158.70 0.03841
1158.80 0.0384
1158.90 0.03839
1159.00 0.03838
1159.10 0.03836
1159.20 0.03835
1159.30 0.03834
1159.40 0.03832
1159.50 0.03831
1159.60 0.0383
1159.70 0.03829
1159.80 0.03827
1159.90 0.03826
1160.00 0.03825
1160.10 0.03823
1160.20 0.03822
1160.30 0.03821
1160.40 0.0382
1160.50 0.03818
1160.60 0.03817
1160.70 0.03816
1160.80 0.03814
1160.90 0.03813
1161.00 0.03812
1161.10 0.03811
1161.20 0.03809
1161.30 0.03808
1161.40 0.03807
1161.50 0.03805
1161.60 0.03804
1161.70 0.03803
1161.80 0.03802
1161.90 0.038
1162.00 0.03799
1162.10 0.03798
1162.20 0.03796
1162.30 0.03795
1162.40 0.03794
1162.50 0.03793
1162.60 0.03791
1162.70 0.0379
1162.80 0.03789
1162.90 0.03787
1163.00 0.03786
1163.10 0.03785
1163.20 0.03784
1163.30 0.03782
1163.40 0.03781
1163.50 0.0378
1163.60 0.03779
1163.70 0.03777
1163.80 0.03776
1163.90 0.03775
1164.00 0.03774
1164.10 0.03772
1164.20 0.03771
1164.30 0.0377
1164.40 0.03768
1164.50 0.03767
1164.60 0.03766
1164.70 0.03765
1164.80 0.03763
1164.90 0.03762
1165.00 0.03761
1165.10 0.0376
1165.20 0.03758
1165.30 0.03757
1165.40 0.03756
1165.50 0.03755
1165.60 0.03753
1165.70 0.03752
1165.80 0.03751
1165.90 0.03749
1166.00 0.03748
1166.10 0.03747
1166.20 0.03746
1166.30 0.03744
1166.40 0.03743
1166.50 0.03742
1166.60 0.03741
1166.70 0.03739
1166.80 0.03738
1166.90 0.03737
1167.00 0.03736
1167.10 0.03734
1167.20 0.03733
1167.30 0.03732
1167.40 0.03731
1167.50 0.03729
1167.60 0.03728
1167.70 0.03727
1167.80 0.03726
1167.90 0.03724
1168.00 0.03723
1168.10 0.03722
1168.20 0.03721
1168.30 0.03719
1168.40 0.03718
1168.50 0.03717
1168.60 0.03716
1168.70 0.03714
1168.80 0.03713
1168.90 0.03712
1169.00 0.03711
1169.10 0.03709
1169.20 0.03708
1169.30 0.03707
1169.40 0.03706
1169.50 0.03704
1169.60 0.03703
1169.70 0.03702
1169.80 0.03701
1169.90 0.037
1170.00 0.03698
1170.10 0.03697
1170.20 0.03696
1170.30 0.03695
1170.40 0.03693
1170.50 0.03692
1170.60 0.03691
1170.70 0.0369
1170.80 0.03688
1170.90 0.03687
1171.00 0.03686
1171.10 0.03685
1171.20 0.03683
1171.30 0.03682
1171.40 0.03681
1171.50 0.0368
1171.60 0.03679
1171.70 0.03677
1171.80 0.03676
1171.90 0.03675
1172.00 0.03674
1172.10 0.03672
1172.20 0.03671
1172.30 0.0367
1172.40 0.03669
1172.50 0.03667
1172.60 0.03666
1172.70 0.03665
1172.80 0.03664
1172.90 0.03663
1173.00 0.03661
1173.10 0.0366
1173.20 0.03659
1173.30 0.03658
1173.40 0.03656
1173.50 0.03655
1173.60 0.03654
1173.70 0.03653
1173.80 0.03652
1173.90 0.0365
1174.00 0.03649
1174.10 0.03648
1174.20 0.03647
1174.30 0.03646
1174.40 0.03644
1174.50 0.03643
1174.60 0.03642
1174.70 0.03641
1174.80 0.03639
1174.90 0.03638
1175.00 0.03637
1175.10 0.03636
1175.20 0.03635
1175.30 0.03633
1175.40 0.03632
1175.50 0.03631
1175.60 0.0363
1175.70 0.03629
1175.80 0.03627
1175.90 0.03626
1176.00 0.03625
1176.10 0.03624
1176.20 0.03622
1176.30 0.03621
1176.40 0.0362
1176.50 0.03619
1176.60 0.03618
1176.70 0.03616
1176.80 0.03615
1176.90 0.03614
1177.00 0.03613
1177.10 0.03612
1177.20 0.0361
1177.30 0.03609
1177.40 0.03608
1177.50 0.03607
1177.60 0.03606
1177.70 0.03604
1177.80 0.03603
1177.90 0.03602
1178.00 0.03601
1178.10 0.036
1178.20 0.03598
1178.30 0.03597
1178.40 0.03596
1178.50 0.03595
1178.60 0.03594
1178.70 0.03592
1178.80 0.03591
1178.90 0.0359
1179.00 0.03589
1179.10 0.03588
1179.20 0.03586
1179.30 0.03585
1179.40 0.03584
1179.50 0.03583
1179.60 0.03582
1179.70 0.03581
1179.80 0.03579
1179.90 0.03578
1180.00 0.03577
1180.10 0.03576
1180.20 0.03575
1180.30 0.03573
1180.40 0.03572
1180.50 0.03571
1180.60 0.0357
1180.70 0.03569
1180.80 0.03567
1180.90 0.03566
1181.00 0.03565
1181.10 0.03564
1181.20 0.03563
1181.30 0.03562
1181.40 0.0356
1181.50 0.03559
1181.60 0.03558
1181.70 0.03557
1181.80 0.03556
1181.90 0.03554
1182.00 0.03553
1182.10 0.03552
1182.20 0.03551
1182.30 0.0355
1182.40 0.03549
1182.50 0.03547
1182.60 0.03546
1182.70 0.03545
1182.80 0.03544
1182.90 0.03543
1183.00 0.03541
1183.10 0.0354
1183.20 0.03539
1183.30 0.03538
1183.40 0.03537
1183.50 0.03536
1183.60 0.03534
1183.70 0.03533
1183.80 0.03532
1183.90 0.03531
1184.00 0.0353
1184.10 0.03529
1184.20 0.03527
1184.30 0.03526
1184.40 0.03525
1184.50 0.03524
1184.60 0.03523
1184.70 0.03522
1184.80 0.0352
1184.90 0.03519
1185.00 0.03518
1185.10 0.03517
1185.20 0.03516
1185.30 0.03515
1185.40 0.03513
1185.50 0.03512
1185.60 0.03511
1185.70 0.0351
1185.80 0.03509
1185.90 0.03508
1186.00 0.03506
1186.10 0.03505
1186.20 0.03504
1186.30 0.03503
1186.40 0.03502
1186.50 0.03501
1186.60 0.03499
1186.70 0.03498
1186.80 0.03497
1186.90 0.03496
1187.00 0.03495
1187.10 0.03494
1187.20 0.03493
1187.30 0.03491
1187.40 0.0349
1187.50 0.03489
1187.60 0.03488
1187.70 0.03487
1187.80 0.03486
1187.90 0.03484
1188.00 0.03483
1188.10 0.03482
1188.20 0.03481
1188.30 0.0348
1188.40 0.03479
1188.50 0.03478
1188.60 0.03476
1188.70 0.03475
1188.80 0.03474
1188.90 0.03473
1189.00 0.03472
1189.10 0.03471
1189.20 0.0347
1189.30 0.03468
1189.40 0.03467
1189.50 0.03466
1189.60 0.03465
1189.70 0.03464
1189.80 0.03463
1189.90 0.03462
1190.00 0.0346
1190.10 0.03459
1190.20 0.03458
1190.30 0.03457
1190.40 0.03456
1190.50 0.03455
1190.60 0.03454
1190.70 0.03452
1190.80 0.03451
1190.90 0.0345
1191.00 0.03449
1191.10 0.03448
1191.20 0.03447
1191.30 0.03446
1191.40 0.03444
1191.50 0.03443
1191.60 0.03442
1191.70 0.03441
1191.80 0.0344
1191.90 0.03439
1192.00 0.03438
1192.10 0.03436
1192.20 0.03435
1192.30 0.03434
1192.40 0.03433
1192.50 0.03432
1192.60 0.03431
1192.70 0.0343
1192.80 0.03429
1192.90 0.03427
1193.00 0.03426
1193.10 0.03425
1193.20 0.03424
1193.30 0.03423
1193.40 0.03422
1193.50 0.03421
1193.60 0.0342
1193.70 0.03418
1193.80 0.03417
1193.90 0.03416
1194.00 0.03415
1194.10 0.03414
1194.20 0.03413
1194.30 0.03412
1194.40 0.03411
1194.50 0.03409
1194.60 0.03408
1194.70 0.03407
1194.80 0.03406
1194.90 0.03405
1195.00 0.03404
1195.10 0.03403
1195.20 0.03402
1195.30 0.034
1195.40 0.03399
1195.50 0.03398
1195.60 0.03397
1195.70 0.03396
1195.80 0.03395
1195.90 0.03394
1196.00 0.03393
1196.10 0.03392
1196.20 0.0339
1196.30 0.03389
1196.40 0.03388
1196.50 0.03387
1196.60 0.03386
1196.70 0.03385
1196.80 0.03384
1196.90 0.03383
1197.00 0.03382
1197.10 0.0338
1197.20 0.03379
1197.30 0.03378
1197.40 0.03377
1197.50 0.03376
1197.60 0.03375
1197.70 0.03374
1197.80 0.03373
1197.90 0.03372
1198.00 0.0337
1198.10 0.03369
1198.20 0.03368
1198.30 0.03367
1198.40 0.03366
1198.50 0.03365
1198.60 0.03364
1198.70 0.03363
1198.80 0.03362
1198.90 0.03361
1199.00 0.03359
1199.10 0.03358
1199.20 0.03357
1199.30 0.03356
1199.40 0.03355
1199.50 0.03354
1199.60 0.03353
1199.70 0.03352
1199.80 0.03351
1199.90 0.0335
1200.00 0
