# Version 2.1 - nm, norm@500 to 1, cut digits, bergeron_60000_75.dat_60000
# Wavelength(nm)  Flambda(ergs/cm^s/s/nm)
300.00 6.395
300.10 6.387
300.20 6.379
300.30 6.371
300.40 6.364
300.50 6.356
300.60 6.348
300.70 6.34
300.80 6.333
300.90 6.325
301.00 6.317
301.10 6.31
301.20 6.302
301.30 6.294
301.40 6.287
301.50 6.279
301.60 6.271
301.70 6.264
301.80 6.256
301.90 6.249
302.00 6.241
302.10 6.233
302.20 6.226
302.30 6.218
302.40 6.211
302.50 6.203
302.60 6.196
302.70 6.188
302.80 6.181
302.90 6.173
303.00 6.166
303.10 6.158
303.20 6.151
303.30 6.143
303.40 6.136
303.50 6.129
303.60 6.121
303.70 6.114
303.80 6.106
303.90 6.099
304.00 6.092
304.10 6.084
304.20 6.077
304.30 6.07
304.40 6.062
304.50 6.055
304.60 6.048
304.70 6.041
304.80 6.033
304.90 6.026
305.00 6.019
305.10 6.012
305.20 6.004
305.30 5.997
305.40 5.99
305.50 5.983
305.60 5.975
305.70 5.968
305.80 5.961
305.90 5.954
306.00 5.947
306.10 5.94
306.20 5.933
306.30 5.926
306.40 5.918
306.50 5.911
306.60 5.904
306.70 5.897
306.80 5.89
306.90 5.883
307.00 5.876
307.10 5.869
307.20 5.862
307.30 5.855
307.40 5.848
307.50 5.841
307.60 5.834
307.70 5.827
307.80 5.82
307.90 5.813
308.00 5.806
308.10 5.799
308.20 5.793
308.30 5.786
308.40 5.779
308.50 5.772
308.60 5.765
308.70 5.758
308.80 5.751
308.90 5.744
309.00 5.738
309.10 5.731
309.20 5.724
309.30 5.717
309.40 5.71
309.50 5.704
309.60 5.697
309.70 5.69
309.80 5.683
309.90 5.677
310.00 5.67
310.10 5.663
310.20 5.657
310.30 5.65
310.40 5.643
310.50 5.637
310.60 5.63
310.70 5.623
310.80 5.617
310.90 5.61
311.00 5.603
311.10 5.597
311.20 5.59
311.30 5.583
311.40 5.577
311.50 5.57
311.60 5.564
311.70 5.557
311.80 5.551
311.90 5.544
312.00 5.538
312.10 5.531
312.20 5.525
312.30 5.518
312.40 5.512
312.50 5.505
312.60 5.499
312.70 5.492
312.80 5.486
312.90 5.479
313.00 5.473
313.10 5.466
313.20 5.46
313.30 5.454
313.40 5.447
313.50 5.441
313.60 5.434
313.70 5.428
313.80 5.422
313.90 5.415
314.00 5.409
314.10 5.403
314.20 5.396
314.30 5.39
314.40 5.384
314.50 5.378
314.60 5.371
314.70 5.365
314.80 5.359
314.90 5.352
315.00 5.346
315.10 5.34
315.20 5.334
315.30 5.328
315.40 5.321
315.50 5.315
315.60 5.309
315.70 5.303
315.80 5.297
315.90 5.29
316.00 5.284
316.10 5.278
316.20 5.272
316.30 5.266
316.40 5.26
316.50 5.254
316.60 5.248
316.70 5.241
316.80 5.235
316.90 5.229
317.00 5.223
317.10 5.217
317.20 5.211
317.30 5.205
317.40 5.199
317.50 5.193
317.60 5.187
317.70 5.181
317.80 5.175
317.90 5.169
318.00 5.163
318.10 5.157
318.20 5.151
318.30 5.145
318.40 5.139
318.50 5.133
318.60 5.127
318.70 5.121
318.80 5.116
318.90 5.11
319.00 5.104
319.10 5.098
319.20 5.092
319.30 5.086
319.40 5.08
319.50 5.074
319.60 5.069
319.70 5.063
319.80 5.057
319.90 5.051
320.00 5.045
320.10 5.039
320.20 5.034
320.30 5.028
320.40 5.022
320.50 5.016
320.60 5.011
320.70 5.005
320.80 4.999
320.90 4.993
321.00 4.988
321.10 4.982
321.20 4.976
321.30 4.971
321.40 4.965
321.50 4.959
321.60 4.954
321.70 4.948
321.80 4.942
321.90 4.937
322.00 4.931
322.10 4.925
322.20 4.92
322.30 4.914
322.40 4.908
322.50 4.903
322.60 4.897
322.70 4.892
322.80 4.886
322.90 4.88
323.00 4.875
323.10 4.869
323.20 4.864
323.30 4.858
323.40 4.853
323.50 4.847
323.60 4.842
323.70 4.836
323.80 4.831
323.90 4.825
324.00 4.82
324.10 4.814
324.20 4.809
324.30 4.803
324.40 4.798
324.50 4.792
324.60 4.787
324.70 4.782
324.80 4.776
324.90 4.771
325.00 4.765
325.10 4.76
325.20 4.755
325.30 4.749
325.40 4.744
325.50 4.738
325.60 4.733
325.70 4.728
325.80 4.722
325.90 4.717
326.00 4.712
326.10 4.706
326.20 4.701
326.30 4.696
326.40 4.69
326.50 4.685
326.60 4.68
326.70 4.675
326.80 4.669
326.90 4.664
327.00 4.659
327.10 4.654
327.20 4.648
327.30 4.643
327.40 4.638
327.50 4.633
327.60 4.627
327.70 4.622
327.80 4.617
327.90 4.612
328.00 4.607
328.10 4.601
328.20 4.596
328.30 4.591
328.40 4.586
328.50 4.581
328.60 4.576
328.70 4.571
328.80 4.565
328.90 4.56
329.00 4.555
329.10 4.55
329.20 4.545
329.30 4.54
329.40 4.535
329.50 4.53
329.60 4.525
329.70 4.52
329.80 4.515
329.90 4.51
330.00 4.505
330.10 4.5
330.20 4.495
330.30 4.49
330.40 4.485
330.50 4.48
330.60 4.475
330.70 4.47
330.80 4.465
330.90 4.46
331.00 4.455
331.10 4.45
331.20 4.445
331.30 4.44
331.40 4.435
331.50 4.43
331.60 4.425
331.70 4.42
331.80 4.415
331.90 4.41
332.00 4.405
332.10 4.4
332.20 4.396
332.30 4.391
332.40 4.386
332.50 4.381
332.60 4.376
332.70 4.371
332.80 4.366
332.90 4.362
333.00 4.357
333.10 4.352
333.20 4.347
333.30 4.342
333.40 4.337
333.50 4.333
333.60 4.328
333.70 4.323
333.80 4.318
333.90 4.314
334.00 4.309
334.10 4.304
334.20 4.299
334.30 4.295
334.40 4.29
334.50 4.285
334.60 4.28
334.70 4.276
334.80 4.271
334.90 4.266
335.00 4.262
335.10 4.257
335.20 4.252
335.30 4.247
335.40 4.243
335.50 4.238
335.60 4.233
335.70 4.229
335.80 4.224
335.90 4.219
336.00 4.215
336.10 4.21
336.20 4.206
336.30 4.201
336.40 4.196
336.50 4.192
336.60 4.187
336.70 4.183
336.80 4.178
336.90 4.173
337.00 4.169
337.10 4.164
337.20 4.16
337.30 4.155
337.40 4.151
337.50 4.146
337.60 4.142
337.70 4.137
337.80 4.132
337.90 4.128
338.00 4.123
338.10 4.119
338.20 4.114
338.30 4.11
338.40 4.106
338.50 4.101
338.60 4.097
338.70 4.092
338.80 4.088
338.90 4.083
339.00 4.079
339.10 4.074
339.20 4.07
339.30 4.065
339.40 4.061
339.50 4.057
339.60 4.052
339.70 4.048
339.80 4.043
339.90 4.039
340.00 4.035
340.10 4.03
340.20 4.026
340.30 4.021
340.40 4.017
340.50 4.013
340.60 4.008
340.70 4.004
340.80 4
340.90 3.995
341.00 3.991
341.10 3.987
341.20 3.982
341.30 3.978
341.40 3.974
341.50 3.97
341.60 3.965
341.70 3.961
341.80 3.957
341.90 3.952
342.00 3.948
342.10 3.944
342.20 3.94
342.30 3.935
342.40 3.931
342.50 3.927
342.60 3.923
342.70 3.918
342.80 3.914
342.90 3.91
343.00 3.906
343.10 3.902
343.20 3.897
343.30 3.893
343.40 3.889
343.50 3.885
343.60 3.881
343.70 3.876
343.80 3.872
343.90 3.868
344.00 3.864
344.10 3.86
344.20 3.856
344.30 3.851
344.40 3.847
344.50 3.843
344.60 3.839
344.70 3.835
344.80 3.831
344.90 3.827
345.00 3.823
345.10 3.819
345.20 3.814
345.30 3.81
345.40 3.806
345.50 3.802
345.60 3.798
345.70 3.794
345.80 3.79
345.90 3.786
346.00 3.782
346.10 3.778
346.20 3.774
346.30 3.77
346.40 3.766
346.50 3.762
346.60 3.758
346.70 3.754
346.80 3.75
346.90 3.746
347.00 3.742
347.10 3.738
347.20 3.734
347.30 3.73
347.40 3.726
347.50 3.722
347.60 3.718
347.70 3.714
347.80 3.71
347.90 3.706
348.00 3.702
348.10 3.698
348.20 3.694
348.30 3.69
348.40 3.686
348.50 3.683
348.60 3.679
348.70 3.675
348.80 3.671
348.90 3.667
349.00 3.663
349.10 3.659
349.20 3.655
349.30 3.651
349.40 3.648
349.50 3.644
349.60 3.64
349.70 3.636
349.80 3.632
349.90 3.628
350.00 3.624
350.10 3.621
350.20 3.617
350.30 3.613
350.40 3.609
350.50 3.605
350.60 3.602
350.70 3.598
350.80 3.594
350.90 3.59
351.00 3.586
351.10 3.583
351.20 3.579
351.30 3.575
351.40 3.571
351.50 3.568
351.60 3.564
351.70 3.56
351.80 3.556
351.90 3.553
352.00 3.549
352.10 3.545
352.20 3.541
352.30 3.538
352.40 3.534
352.50 3.53
352.60 3.527
352.70 3.523
352.80 3.519
352.90 3.515
353.00 3.512
353.10 3.508
353.20 3.504
353.30 3.501
353.40 3.497
353.50 3.493
353.60 3.49
353.70 3.486
353.80 3.482
353.90 3.479
354.00 3.475
354.10 3.472
354.20 3.468
354.30 3.464
354.40 3.461
354.50 3.457
354.60 3.453
354.70 3.45
354.80 3.446
354.90 3.443
355.00 3.439
355.10 3.435
355.20 3.432
355.30 3.428
355.40 3.425
355.50 3.421
355.60 3.418
355.70 3.414
355.80 3.41
355.90 3.407
356.00 3.403
356.10 3.4
356.20 3.396
356.30 3.393
356.40 3.389
356.50 3.386
356.60 3.382
356.70 3.379
356.80 3.375
356.90 3.372
357.00 3.368
357.10 3.365
357.20 3.361
357.30 3.358
357.40 3.354
357.50 3.351
357.60 3.347
357.70 3.344
357.80 3.34
357.90 3.337
358.00 3.333
358.10 3.33
358.20 3.327
358.30 3.323
358.40 3.32
358.50 3.316
358.60 3.313
358.70 3.309
358.80 3.306
358.90 3.303
359.00 3.299
359.10 3.296
359.20 3.292
359.30 3.289
359.40 3.286
359.50 3.282
359.60 3.279
359.70 3.275
359.80 3.272
359.90 3.269
360.00 3.265
360.10 3.262
360.20 3.259
360.30 3.255
360.40 3.252
360.50 3.249
360.60 3.245
360.70 3.242
360.80 3.239
360.90 3.235
361.00 3.232
361.10 3.229
361.20 3.225
361.30 3.222
361.40 3.219
361.50 3.215
361.60 3.212
361.70 3.209
361.80 3.206
361.90 3.202
362.00 3.199
362.10 3.196
362.20 3.192
362.30 3.189
362.40 3.186
362.50 3.183
362.60 3.179
362.70 3.176
362.80 3.173
362.90 3.17
363.00 3.166
363.10 3.163
363.20 3.16
363.30 3.157
363.40 3.153
363.50 3.15
363.60 3.147
363.70 3.144
363.80 3.141
363.90 3.137
364.00 3.134
364.10 3.131
364.20 3.128
364.30 3.125
364.40 3.121
364.50 3.118
364.60 3.115
364.70 3.112
364.80 3.109
364.90 3.106
365.00 3.103
365.10 3.099
365.20 3.096
365.30 3.093
365.40 3.09
365.50 3.087
365.60 3.084
365.70 3.081
365.80 3.077
365.90 3.074
366.00 3.071
366.10 3.068
366.20 3.065
366.30 3.062
366.40 3.058
366.50 3.055
366.60 3.052
366.70 3.049
366.80 3.046
366.90 3.042
367.00 3.039
367.10 3.036
367.20 3.033
367.30 3.03
367.40 3.027
367.50 3.024
367.60 3.02
367.70 3.017
367.80 3.014
367.90 3.011
368.00 3.008
368.10 3.005
368.20 3.002
368.30 2.998
368.40 2.995
368.50 2.992
368.60 2.989
368.70 2.986
368.80 2.983
368.90 2.98
369.00 2.977
369.10 2.974
369.20 2.97
369.30 2.967
369.40 2.964
369.50 2.961
369.60 2.958
369.70 2.955
369.80 2.952
369.90 2.949
370.00 2.946
370.10 2.943
370.20 2.94
370.30 2.937
370.40 2.934
370.50 2.931
370.60 2.928
370.70 2.925
370.80 2.922
370.90 2.919
371.00 2.916
371.10 2.913
371.20 2.91
371.30 2.907
371.40 2.904
371.50 2.901
371.60 2.898
371.70 2.895
371.80 2.892
371.90 2.889
372.00 2.886
372.10 2.883
372.20 2.88
372.30 2.877
372.40 2.874
372.50 2.871
372.60 2.868
372.70 2.865
372.80 2.863
372.90 2.86
373.00 2.857
373.10 2.854
373.20 2.851
373.30 2.848
373.40 2.845
373.50 2.842
373.60 2.839
373.70 2.837
373.80 2.834
373.90 2.831
374.00 2.828
374.10 2.825
374.20 2.822
374.30 2.82
374.40 2.817
374.50 2.814
374.60 2.811
374.70 2.809
374.80 2.806
374.90 2.803
375.00 2.8
375.10 2.797
375.20 2.795
375.30 2.792
375.40 2.789
375.50 2.786
375.60 2.784
375.70 2.781
375.80 2.778
375.90 2.775
376.00 2.773
376.10 2.77
376.20 2.767
376.30 2.765
376.40 2.762
376.50 2.759
376.60 2.757
376.70 2.754
376.80 2.751
376.90 2.749
377.00 2.746
377.10 2.743
377.20 2.741
377.30 2.738
377.40 2.736
377.50 2.734
377.60 2.731
377.70 2.729
377.80 2.726
377.90 2.724
378.00 2.721
378.10 2.718
378.20 2.716
378.30 2.713
378.40 2.711
378.50 2.708
378.60 2.706
378.70 2.703
378.80 2.7
378.90 2.698
379.00 2.695
379.10 2.693
379.20 2.69
379.30 2.688
379.40 2.685
379.50 2.683
379.60 2.68
379.70 2.678
379.80 2.675
379.90 2.673
380.00 2.67
380.10 2.668
380.20 2.666
380.30 2.664
380.40 2.662
380.50 2.66
380.60 2.657
380.70 2.655
380.80 2.653
380.90 2.651
381.00 2.649
381.10 2.647
381.20 2.644
381.30 2.642
381.40 2.639
381.50 2.637
381.60 2.634
381.70 2.632
381.80 2.629
381.90 2.626
382.00 2.624
382.10 2.621
382.20 2.618
382.30 2.615
382.40 2.612
382.50 2.608
382.60 2.605
382.70 2.602
382.80 2.599
382.90 2.596
383.00 2.593
383.10 2.59
383.20 2.586
383.30 2.583
383.40 2.581
383.50 2.578
383.60 2.576
383.70 2.575
383.80 2.573
383.90 2.572
384.00 2.571
384.10 2.57
384.20 2.569
384.30 2.568
384.40 2.567
384.50 2.566
384.60 2.565
384.70 2.563
384.80 2.562
384.90 2.561
385.00 2.559
385.10 2.558
385.20 2.556
385.30 2.554
385.40 2.552
385.50 2.55
385.60 2.548
385.70 2.546
385.80 2.544
385.90 2.541
386.00 2.539
386.10 2.536
386.20 2.533
386.30 2.53
386.40 2.527
386.50 2.524
386.60 2.52
386.70 2.517
386.80 2.513
386.90 2.51
387.00 2.506
387.10 2.502
387.20 2.497
387.30 2.493
387.40 2.489
387.50 2.484
387.60 2.48
387.70 2.475
387.80 2.47
387.90 2.465
388.00 2.46
388.10 2.455
388.20 2.45
388.30 2.445
388.40 2.44
388.50 2.435
388.60 2.43
388.70 2.427
388.80 2.423
388.90 2.421
389.00 2.42
389.10 2.419
389.20 2.419
389.30 2.419
389.40 2.42
389.50 2.421
389.60 2.422
389.70 2.424
389.80 2.425
389.90 2.426
390.00 2.427
390.10 2.428
390.20 2.429
390.30 2.43
390.40 2.431
390.50 2.431
390.60 2.432
390.70 2.432
390.80 2.432
390.90 2.432
391.00 2.432
391.10 2.432
391.20 2.432
391.30 2.432
391.40 2.431
391.50 2.43
391.60 2.43
391.70 2.429
391.80 2.427
391.90 2.426
392.00 2.425
392.10 2.423
392.20 2.422
392.30 2.42
392.40 2.418
392.50 2.416
392.60 2.414
392.70 2.412
392.80 2.409
392.90 2.407
393.00 2.404
393.10 2.401
393.20 2.398
393.30 2.395
393.40 2.392
393.50 2.389
393.60 2.385
393.70 2.381
393.80 2.377
393.90 2.373
394.00 2.369
394.10 2.365
394.20 2.36
394.30 2.355
394.40 2.35
394.50 2.345
394.60 2.34
394.70 2.334
394.80 2.329
394.90 2.323
395.00 2.316
395.10 2.31
395.20 2.303
395.30 2.297
395.40 2.289
395.50 2.282
395.60 2.275
395.70 2.267
395.80 2.259
395.90 2.251
396.00 2.243
396.10 2.234
396.20 2.225
396.30 2.217
396.40 2.208
396.50 2.199
396.60 2.19
396.70 2.182
396.80 2.173
396.90 2.165
397.00 2.158
397.10 2.161
397.20 2.165
397.30 2.17
397.40 2.175
397.50 2.18
397.60 2.185
397.70 2.189
397.80 2.194
397.90 2.199
398.00 2.204
398.10 2.208
398.20 2.213
398.30 2.217
398.40 2.22
398.50 2.224
398.60 2.228
398.70 2.231
398.80 2.234
398.90 2.237
399.00 2.239
399.10 2.242
399.20 2.244
399.30 2.246
399.40 2.248
399.50 2.249
399.60 2.251
399.70 2.252
399.80 2.253
399.90 2.254
400.00 2.255
400.10 2.256
400.20 2.256
400.30 2.257
400.40 2.257
400.50 2.257
400.60 2.257
400.70 2.257
400.80 2.257
400.90 2.256
401.00 2.256
401.10 2.255
401.20 2.255
401.30 2.254
401.40 2.253
401.50 2.252
401.60 2.251
401.70 2.25
401.80 2.249
401.90 2.248
402.00 2.247
402.10 2.246
402.20 2.244
402.30 2.243
402.40 2.241
402.50 2.24
402.60 2.238
402.70 2.237
402.80 2.235
402.90 2.233
403.00 2.231
403.10 2.23
403.20 2.228
403.30 2.226
403.40 2.224
403.50 2.222
403.60 2.22
403.70 2.217
403.80 2.215
403.90 2.213
404.00 2.211
404.10 2.208
404.20 2.206
404.30 2.203
404.40 2.201
404.50 2.198
404.60 2.196
404.70 2.193
404.80 2.19
404.90 2.187
405.00 2.184
405.10 2.182
405.20 2.178
405.30 2.175
405.40 2.172
405.50 2.169
405.60 2.166
405.70 2.162
405.80 2.159
405.90 2.155
406.00 2.151
406.10 2.147
406.20 2.143
406.30 2.139
406.40 2.135
406.50 2.131
406.60 2.126
406.70 2.121
406.80 2.117
406.90 2.112
407.00 2.106
407.10 2.101
407.20 2.096
407.30 2.09
407.40 2.084
407.50 2.078
407.60 2.071
407.70 2.065
407.80 2.058
407.90 2.051
408.00 2.043
408.10 2.036
408.20 2.028
408.30 2.019
408.40 2.011
408.50 2.002
408.60 1.993
408.70 1.983
408.80 1.973
408.90 1.963
409.00 1.952
409.10 1.941
409.20 1.93
409.30 1.919
409.40 1.907
409.50 1.895
409.60 1.883
409.70 1.871
409.80 1.859
409.90 1.847
410.00 1.84
410.10 1.837
410.20 1.839
410.30 1.835
410.40 1.836
410.50 1.843
410.60 1.852
410.70 1.86
410.80 1.869
410.90 1.878
411.00 1.886
411.10 1.895
411.20 1.902
411.30 1.91
411.40 1.917
411.50 1.924
411.60 1.93
411.70 1.936
411.80 1.942
411.90 1.948
412.00 1.953
412.10 1.957
412.20 1.962
412.30 1.966
412.40 1.97
412.50 1.973
412.60 1.976
412.70 1.979
412.80 1.982
412.90 1.985
413.00 1.987
413.10 1.989
413.20 1.991
413.30 1.992
413.40 1.994
413.50 1.995
413.60 1.996
413.70 1.997
413.80 1.998
413.90 1.999
414.00 1.999
414.10 2
414.20 2
414.30 2
414.40 2
414.50 2
414.60 2
414.70 2
414.80 1.999
414.90 1.999
415.00 1.999
415.10 1.998
415.20 1.997
415.30 1.997
415.40 1.996
415.50 1.995
415.60 1.995
415.70 1.994
415.80 1.993
415.90 1.992
416.00 1.991
416.10 1.99
416.20 1.989
416.30 1.988
416.40 1.987
416.50 1.985
416.60 1.984
416.70 1.983
416.80 1.982
416.90 1.981
417.00 1.979
417.10 1.978
417.20 1.977
417.30 1.975
417.40 1.974
417.50 1.973
417.60 1.971
417.70 1.97
417.80 1.968
417.90 1.967
418.00 1.965
418.10 1.964
418.20 1.962
418.30 1.961
418.40 1.959
418.50 1.958
418.60 1.956
418.70 1.955
418.80 1.953
418.90 1.952
419.00 1.95
419.10 1.949
419.20 1.947
419.30 1.946
419.40 1.944
419.50 1.942
419.60 1.941
419.70 1.939
419.80 1.937
419.90 1.936
420.00 1.934
420.10 1.933
420.20 1.931
420.30 1.929
420.40 1.928
420.50 1.926
420.60 1.924
420.70 1.923
420.80 1.921
420.90 1.919
421.00 1.918
421.10 1.916
421.20 1.914
421.30 1.913
421.40 1.911
421.50 1.909
421.60 1.908
421.70 1.906
421.80 1.904
421.90 1.903
422.00 1.901
422.10 1.899
422.20 1.897
422.30 1.896
422.40 1.894
422.50 1.892
422.60 1.891
422.70 1.889
422.80 1.887
422.90 1.885
423.00 1.884
423.10 1.882
423.20 1.88
423.30 1.879
423.40 1.877
423.50 1.875
423.60 1.873
423.70 1.872
423.80 1.87
423.90 1.868
424.00 1.866
424.10 1.865
424.20 1.863
424.30 1.861
424.40 1.859
424.50 1.857
424.60 1.856
424.70 1.854
424.80 1.852
424.90 1.85
425.00 1.848
425.10 1.847
425.20 1.845
425.30 1.843
425.40 1.841
425.50 1.839
425.60 1.837
425.70 1.836
425.80 1.834
425.90 1.832
426.00 1.83
426.10 1.828
426.20 1.826
426.30 1.824
426.40 1.822
426.50 1.82
426.60 1.818
426.70 1.816
426.80 1.814
426.90 1.812
427.00 1.81
427.10 1.808
427.20 1.806
427.30 1.804
427.40 1.802
427.50 1.8
427.60 1.798
427.70 1.796
427.80 1.794
427.90 1.791
428.00 1.789
428.10 1.787
428.20 1.784
428.30 1.782
428.40 1.78
428.50 1.777
428.60 1.775
428.70 1.772
428.80 1.77
428.90 1.767
429.00 1.765
429.10 1.762
429.20 1.759
429.30 1.756
429.40 1.754
429.50 1.751
429.60 1.748
429.70 1.745
429.80 1.741
429.90 1.738
430.00 1.735
430.10 1.731
430.20 1.728
430.30 1.724
430.40 1.72
430.50 1.716
430.60 1.712
430.70 1.708
430.80 1.704
430.90 1.699
431.00 1.694
431.10 1.689
431.20 1.684
431.30 1.679
431.40 1.673
431.50 1.668
431.60 1.662
431.70 1.655
431.80 1.649
431.90 1.642
432.00 1.635
432.10 1.628
432.20 1.62
432.30 1.612
432.40 1.603
432.50 1.595
432.60 1.586
432.70 1.576
432.80 1.566
432.90 1.556
433.00 1.546
433.10 1.535
433.20 1.523
433.30 1.512
433.40 1.5
433.50 1.489
433.60 1.477
433.70 1.466
433.80 1.454
433.90 1.444
434.00 1.435
434.10 1.434
434.20 1.441
434.30 1.449
434.40 1.458
434.50 1.467
434.60 1.476
434.70 1.485
434.80 1.494
434.90 1.503
435.00 1.512
435.10 1.52
435.20 1.528
435.30 1.535
435.40 1.542
435.50 1.549
435.60 1.555
435.70 1.561
435.80 1.566
435.90 1.572
436.00 1.576
436.10 1.581
436.20 1.585
436.30 1.589
436.40 1.592
436.50 1.596
436.60 1.599
436.70 1.601
436.80 1.604
436.90 1.606
437.00 1.608
437.10 1.61
437.20 1.612
437.30 1.613
437.40 1.614
437.50 1.616
437.60 1.616
437.70 1.617
437.80 1.618
437.90 1.619
438.00 1.619
438.10 1.62
438.20 1.62
438.30 1.62
438.40 1.62
438.50 1.62
438.60 1.62
438.70 1.62
438.80 1.62
438.90 1.62
439.00 1.619
439.10 1.619
439.20 1.618
439.30 1.618
439.40 1.617
439.50 1.617
439.60 1.616
439.70 1.616
439.80 1.615
439.90 1.614
440.00 1.614
440.10 1.613
440.20 1.612
440.30 1.611
440.40 1.61
440.50 1.609
440.60 1.608
440.70 1.607
440.80 1.607
440.90 1.606
441.00 1.605
441.10 1.604
441.20 1.603
441.30 1.602
441.40 1.6
441.50 1.599
441.60 1.598
441.70 1.597
441.80 1.596
441.90 1.595
442.00 1.594
442.10 1.593
442.20 1.592
442.30 1.591
442.40 1.589
442.50 1.588
442.60 1.587
442.70 1.586
442.80 1.585
442.90 1.584
443.00 1.582
443.10 1.581
443.20 1.58
443.30 1.579
443.40 1.578
443.50 1.576
443.60 1.575
443.70 1.574
443.80 1.573
443.90 1.572
444.00 1.57
444.10 1.569
444.20 1.568
444.30 1.567
444.40 1.565
444.50 1.564
444.60 1.563
444.70 1.562
444.80 1.56
444.90 1.559
445.00 1.558
445.10 1.557
445.20 1.555
445.30 1.554
445.40 1.553
445.50 1.552
445.60 1.55
445.70 1.549
445.80 1.548
445.90 1.547
446.00 1.545
446.10 1.544
446.20 1.543
446.30 1.542
446.40 1.54
446.50 1.539
446.60 1.538
446.70 1.537
446.80 1.535
446.90 1.534
447.00 1.533
447.10 1.531
447.20 1.53
447.30 1.529
447.40 1.528
447.50 1.526
447.60 1.525
447.70 1.524
447.80 1.523
447.90 1.521
448.00 1.52
448.10 1.519
448.20 1.518
448.30 1.516
448.40 1.515
448.50 1.514
448.60 1.513
448.70 1.511
448.80 1.51
448.90 1.509
449.00 1.508
449.10 1.506
449.20 1.505
449.30 1.504
449.40 1.503
449.50 1.501
449.60 1.5
449.70 1.499
449.80 1.498
449.90 1.496
450.00 1.495
450.10 1.494
450.20 1.493
450.30 1.491
450.40 1.49
450.50 1.489
450.60 1.488
450.70 1.486
450.80 1.485
450.90 1.484
451.00 1.483
451.10 1.481
451.20 1.48
451.30 1.479
451.40 1.478
451.50 1.477
451.60 1.475
451.70 1.474
451.80 1.473
451.90 1.472
452.00 1.47
452.10 1.469
452.20 1.468
452.30 1.467
452.40 1.465
452.50 1.464
452.60 1.463
452.70 1.462
452.80 1.461
452.90 1.459
453.00 1.458
453.10 1.457
453.20 1.456
453.30 1.455
453.40 1.453
453.50 1.452
453.60 1.451
453.70 1.45
453.80 1.448
453.90 1.447
454.00 1.446
454.10 1.445
454.20 1.444
454.30 1.442
454.40 1.441
454.50 1.44
454.60 1.439
454.70 1.438
454.80 1.436
454.90 1.435
455.00 1.434
455.10 1.433
455.20 1.432
455.30 1.43
455.40 1.429
455.50 1.428
455.60 1.427
455.70 1.426
455.80 1.425
455.90 1.423
456.00 1.422
456.10 1.421
456.20 1.42
456.30 1.419
456.40 1.417
456.50 1.416
456.60 1.415
456.70 1.414
456.80 1.413
456.90 1.412
457.00 1.41
457.10 1.409
457.20 1.408
457.30 1.407
457.40 1.406
457.50 1.404
457.60 1.403
457.70 1.402
457.80 1.401
457.90 1.4
458.00 1.399
458.10 1.398
458.20 1.396
458.30 1.395
458.40 1.394
458.50 1.393
458.60 1.392
458.70 1.391
458.80 1.389
458.90 1.388
459.00 1.387
459.10 1.386
459.20 1.385
459.30 1.384
459.40 1.383
459.50 1.381
459.60 1.38
459.70 1.379
459.80 1.378
459.90 1.377
460.00 1.376
460.10 1.375
460.20 1.373
460.30 1.372
460.40 1.371
460.50 1.37
460.60 1.369
460.70 1.368
460.80 1.367
460.90 1.365
461.00 1.364
461.10 1.363
461.20 1.362
461.30 1.361
461.40 1.36
461.50 1.359
461.60 1.358
461.70 1.356
461.80 1.355
461.90 1.354
462.00 1.353
462.10 1.352
462.20 1.351
462.30 1.35
462.40 1.349
462.50 1.347
462.60 1.346
462.70 1.345
462.80 1.344
462.90 1.343
463.00 1.342
463.10 1.341
463.20 1.34
463.30 1.339
463.40 1.337
463.50 1.336
463.60 1.335
463.70 1.334
463.80 1.333
463.90 1.332
464.00 1.331
464.10 1.33
464.20 1.329
464.30 1.328
464.40 1.326
464.50 1.325
464.60 1.324
464.70 1.323
464.80 1.322
464.90 1.321
465.00 1.32
465.10 1.319
465.20 1.318
465.30 1.317
465.40 1.316
465.50 1.314
465.60 1.313
465.70 1.312
465.80 1.311
465.90 1.31
466.00 1.309
466.10 1.308
466.20 1.307
466.30 1.306
466.40 1.305
466.50 1.304
466.60 1.303
466.70 1.302
466.80 1.3
466.90 1.299
467.00 1.298
467.10 1.297
467.20 1.296
467.30 1.295
467.40 1.294
467.50 1.293
467.60 1.292
467.70 1.291
467.80 1.29
467.90 1.289
468.00 1.288
468.10 1.287
468.20 1.285
468.30 1.284
468.40 1.283
468.50 1.282
468.60 1.281
468.70 1.28
468.80 1.279
468.90 1.278
469.00 1.277
469.10 1.276
469.20 1.275
469.30 1.274
469.40 1.273
469.50 1.272
469.60 1.271
469.70 1.27
469.80 1.269
469.90 1.268
470.00 1.266
470.10 1.265
470.20 1.264
470.30 1.263
470.40 1.262
470.50 1.261
470.60 1.26
470.70 1.259
470.80 1.258
470.90 1.257
471.00 1.256
471.10 1.255
471.20 1.254
471.30 1.253
471.40 1.252
471.50 1.251
471.60 1.25
471.70 1.249
471.80 1.248
471.90 1.247
472.00 1.246
472.10 1.245
472.20 1.244
472.30 1.242
472.40 1.241
472.50 1.24
472.60 1.239
472.70 1.238
472.80 1.237
472.90 1.236
473.00 1.235
473.10 1.234
473.20 1.233
473.30 1.232
473.40 1.231
473.50 1.23
473.60 1.229
473.70 1.228
473.80 1.227
473.90 1.226
474.00 1.225
474.10 1.224
474.20 1.223
474.30 1.222
474.40 1.221
474.50 1.22
474.60 1.219
474.70 1.218
474.80 1.216
474.90 1.215
475.00 1.214
475.10 1.213
475.20 1.212
475.30 1.211
475.40 1.21
475.50 1.209
475.60 1.208
475.70 1.207
475.80 1.206
475.90 1.205
476.00 1.204
476.10 1.203
476.20 1.202
476.30 1.201
476.40 1.2
476.50 1.198
476.60 1.197
476.70 1.196
476.80 1.195
476.90 1.194
477.00 1.193
477.10 1.192
477.20 1.191
477.30 1.19
477.40 1.189
477.50 1.188
477.60 1.186
477.70 1.185
477.80 1.184
477.90 1.183
478.00 1.182
478.10 1.181
478.20 1.18
478.30 1.179
478.40 1.177
478.50 1.176
478.60 1.175
478.70 1.174
478.80 1.173
478.90 1.171
479.00 1.17
479.10 1.169
479.20 1.168
479.30 1.167
479.40 1.165
479.50 1.164
479.60 1.163
479.70 1.161
479.80 1.16
479.90 1.159
480.00 1.158
480.10 1.156
480.20 1.155
480.30 1.153
480.40 1.152
480.50 1.15
480.60 1.149
480.70 1.147
480.80 1.146
480.90 1.144
481.00 1.143
481.10 1.142
481.20 1.14
481.30 1.138
481.40 1.136
481.50 1.134
481.60 1.132
481.70 1.131
481.80 1.129
481.90 1.127
482.00 1.125
482.10 1.123
482.20 1.121
482.30 1.119
482.40 1.116
482.50 1.114
482.60 1.111
482.70 1.109
482.80 1.106
482.90 1.104
483.00 1.101
483.10 1.099
483.20 1.095
483.30 1.092
483.40 1.088
483.50 1.084
483.60 1.081
483.70 1.077
483.80 1.073
483.90 1.07
484.00 1.066
484.10 1.063
484.20 1.058
484.30 1.053
484.40 1.048
484.50 1.043
484.60 1.038
484.70 1.032
484.80 1.026
484.90 1.02
485.00 1.014
485.10 1.008
485.20 1.001
485.30 0.9941
485.40 0.987
485.50 0.9797
485.60 0.9722
485.70 0.9646
485.80 0.9567
485.90 0.9485
486.00 0.9406
486.10 0.9455
486.20 0.9392
486.30 0.9408
486.40 0.9476
486.50 0.9542
486.60 0.9606
486.70 0.9667
486.80 0.9726
486.90 0.9783
487.00 0.9838
487.10 0.9891
487.20 0.9939
487.30 0.9984
487.40 1.003
487.50 1.007
487.60 1.012
487.70 1.016
487.80 1.019
487.90 1.022
488.00 1.026
488.10 1.029
488.20 1.031
488.30 1.033
488.40 1.035
488.50 1.037
488.60 1.039
488.70 1.041
488.80 1.043
488.90 1.045
489.00 1.046
489.10 1.048
489.20 1.049
489.30 1.05
489.40 1.051
489.50 1.052
489.60 1.052
489.70 1.053
489.80 1.054
489.90 1.054
490.00 1.055
490.10 1.056
490.20 1.056
490.30 1.056
490.40 1.056
490.50 1.056
490.60 1.056
490.70 1.056
490.80 1.056
490.90 1.056
491.00 1.056
491.10 1.056
491.20 1.056
491.30 1.056
491.40 1.055
491.50 1.055
491.60 1.055
491.70 1.054
491.80 1.054
491.90 1.054
492.00 1.054
492.10 1.053
492.20 1.053
492.30 1.052
492.40 1.052
492.50 1.051
492.60 1.051
492.70 1.05
492.80 1.05
492.90 1.049
493.00 1.049
493.10 1.048
493.20 1.048
493.30 1.047
493.40 1.046
493.50 1.046
493.60 1.045
493.70 1.045
493.80 1.044
493.90 1.043
494.00 1.043
494.10 1.042
494.20 1.042
494.30 1.041
494.40 1.04
494.50 1.04
494.60 1.039
494.70 1.038
494.80 1.038
494.90 1.037
495.00 1.036
495.10 1.036
495.20 1.035
495.30 1.034
495.40 1.033
495.50 1.033
495.60 1.032
495.70 1.031
495.80 1.031
495.90 1.03
496.00 1.029
496.10 1.029
496.20 1.028
496.30 1.027
496.40 1.026
496.50 1.026
496.60 1.025
496.70 1.024
496.80 1.024
496.90 1.023
497.00 1.022
497.10 1.021
497.20 1.021
497.30 1.02
497.40 1.019
497.50 1.018
497.60 1.018
497.70 1.017
497.80 1.016
497.90 1.015
498.00 1.015
498.10 1.014
498.20 1.013
498.30 1.013
498.40 1.012
498.50 1.011
498.60 1.01
498.70 1.01
498.80 1.009
498.90 1.008
499.00 1.007
499.10 1.007
499.20 1.006
499.30 1.005
499.40 1.004
499.50 1.004
499.60 1.003
499.70 1.002
499.80 1.001
499.90 1.001
500.00 1
500.10 0.9993
500.20 0.9985
500.30 0.9978
500.40 0.997
500.50 0.9963
500.60 0.9956
500.70 0.9948
500.80 0.9941
500.90 0.9934
501.00 0.9926
501.10 0.9919
501.20 0.9911
501.30 0.9904
501.40 0.9897
501.50 0.9889
501.60 0.9882
501.70 0.9875
501.80 0.9867
501.90 0.986
502.00 0.9853
502.10 0.9845
502.20 0.9838
502.30 0.9831
502.40 0.9823
502.50 0.9816
502.60 0.9809
502.70 0.9801
502.80 0.9794
502.90 0.9787
503.00 0.9779
503.10 0.9772
503.20 0.9765
503.30 0.9757
503.40 0.975
503.50 0.9743
503.60 0.9736
503.70 0.9728
503.80 0.9721
503.90 0.9714
504.00 0.9706
504.10 0.9699
504.20 0.9692
504.30 0.9685
504.40 0.9677
504.50 0.967
504.60 0.9663
504.70 0.9656
504.80 0.9649
504.90 0.9641
505.00 0.9634
505.10 0.9627
505.20 0.962
505.30 0.9612
505.40 0.9605
505.50 0.9598
505.60 0.9591
505.70 0.9584
505.80 0.9577
505.90 0.9569
506.00 0.9562
506.10 0.9555
506.20 0.9548
506.30 0.9541
506.40 0.9534
506.50 0.9527
506.60 0.9519
506.70 0.9512
506.80 0.9505
506.90 0.9498
507.00 0.9491
507.10 0.9484
507.20 0.9477
507.30 0.947
507.40 0.9463
507.50 0.9456
507.60 0.9448
507.70 0.9441
507.80 0.9434
507.90 0.9427
508.00 0.942
508.10 0.9413
508.20 0.9406
508.30 0.9399
508.40 0.9392
508.50 0.9385
508.60 0.9378
508.70 0.9371
508.80 0.9364
508.90 0.9357
509.00 0.935
509.10 0.9343
509.20 0.9336
509.30 0.9329
509.40 0.9322
509.50 0.9315
509.60 0.9308
509.70 0.9301
509.80 0.9294
509.90 0.9287
510.00 0.9281
510.10 0.9274
510.20 0.9267
510.30 0.926
510.40 0.9253
510.50 0.9246
510.60 0.9239
510.70 0.9232
510.80 0.9225
510.90 0.9218
511.00 0.9212
511.10 0.9205
511.20 0.9198
511.30 0.9191
511.40 0.9184
511.50 0.9177
511.60 0.9171
511.70 0.9164
511.80 0.9157
511.90 0.915
512.00 0.9143
512.10 0.9136
512.20 0.913
512.30 0.9123
512.40 0.9116
512.50 0.9109
512.60 0.9103
512.70 0.9096
512.80 0.9089
512.90 0.9082
513.00 0.9075
513.10 0.9069
513.20 0.9062
513.30 0.9055
513.40 0.9049
513.50 0.9042
513.60 0.9035
513.70 0.9028
513.80 0.9022
513.90 0.9015
514.00 0.9008
514.10 0.9002
514.20 0.8995
514.30 0.8988
514.40 0.8982
514.50 0.8975
514.60 0.8968
514.70 0.8962
514.80 0.8955
514.90 0.8948
515.00 0.8942
515.10 0.8935
515.20 0.8929
515.30 0.8922
515.40 0.8915
515.50 0.8909
515.60 0.8902
515.70 0.8896
515.80 0.8889
515.90 0.8882
516.00 0.8876
516.10 0.8869
516.20 0.8863
516.30 0.8856
516.40 0.885
516.50 0.8843
516.60 0.8837
516.70 0.883
516.80 0.8823
516.90 0.8817
517.00 0.881
517.10 0.8804
517.20 0.8797
517.30 0.8791
517.40 0.8784
517.50 0.8778
517.60 0.8772
517.70 0.8765
517.80 0.8759
517.90 0.8752
518.00 0.8746
518.10 0.8739
518.20 0.8733
518.30 0.8726
518.40 0.872
518.50 0.8714
518.60 0.8707
518.70 0.8701
518.80 0.8694
518.90 0.8688
519.00 0.8681
519.10 0.8675
519.20 0.8669
519.30 0.8662
519.40 0.8656
519.50 0.865
519.60 0.8643
519.70 0.8637
519.80 0.8631
519.90 0.8624
520.00 0.8618
520.10 0.8611
520.20 0.8605
520.30 0.8599
520.40 0.8593
520.50 0.8586
520.60 0.858
520.70 0.8574
520.80 0.8567
520.90 0.8561
521.00 0.8555
521.10 0.8549
521.20 0.8542
521.30 0.8536
521.40 0.853
521.50 0.8524
521.60 0.8517
521.70 0.8511
521.80 0.8505
521.90 0.8499
522.00 0.8492
522.10 0.8486
522.20 0.848
522.30 0.8474
522.40 0.8467
522.50 0.8461
522.60 0.8455
522.70 0.8449
522.80 0.8443
522.90 0.8437
523.00 0.843
523.10 0.8424
523.20 0.8418
523.30 0.8412
523.40 0.8406
523.50 0.84
523.60 0.8394
523.70 0.8387
523.80 0.8381
523.90 0.8375
524.00 0.8369
524.10 0.8363
524.20 0.8357
524.30 0.8351
524.40 0.8345
524.50 0.8339
524.60 0.8333
524.70 0.8326
524.80 0.832
524.90 0.8314
525.00 0.8308
525.10 0.8302
525.20 0.8296
525.30 0.829
525.40 0.8284
525.50 0.8278
525.60 0.8272
525.70 0.8266
525.80 0.826
525.90 0.8254
526.00 0.8248
526.10 0.8242
526.20 0.8236
526.30 0.823
526.40 0.8224
526.50 0.8218
526.60 0.8212
526.70 0.8206
526.80 0.82
526.90 0.8194
527.00 0.8188
527.10 0.8182
527.20 0.8176
527.30 0.817
527.40 0.8165
527.50 0.8159
527.60 0.8153
527.70 0.8147
527.80 0.8141
527.90 0.8135
528.00 0.8129
528.10 0.8123
528.20 0.8117
528.30 0.8111
528.40 0.8106
528.50 0.81
528.60 0.8094
528.70 0.8088
528.80 0.8082
528.90 0.8076
529.00 0.807
529.10 0.8065
529.20 0.8059
529.30 0.8053
529.40 0.8047
529.50 0.8041
529.60 0.8036
529.70 0.803
529.80 0.8024
529.90 0.8018
530.00 0.8012
530.10 0.8007
530.20 0.8001
530.30 0.7995
530.40 0.7989
530.50 0.7983
530.60 0.7978
530.70 0.7972
530.80 0.7966
530.90 0.796
531.00 0.7955
531.10 0.7949
531.20 0.7943
531.30 0.7938
531.40 0.7932
531.50 0.7926
531.60 0.792
531.70 0.7915
531.80 0.7909
531.90 0.7903
532.00 0.7898
532.10 0.7892
532.20 0.7886
532.30 0.7881
532.40 0.7875
532.50 0.7869
532.60 0.7864
532.70 0.7858
532.80 0.7852
532.90 0.7847
533.00 0.7841
533.10 0.7835
533.20 0.783
533.30 0.7824
533.40 0.7819
533.50 0.7813
533.60 0.7807
533.70 0.7802
533.80 0.7796
533.90 0.7791
534.00 0.7785
534.10 0.7779
534.20 0.7774
534.30 0.7768
534.40 0.7763
534.50 0.7757
534.60 0.7752
534.70 0.7746
534.80 0.7741
534.90 0.7735
535.00 0.7729
535.10 0.7724
535.20 0.7718
535.30 0.7713
535.40 0.7707
535.50 0.7702
535.60 0.7696
535.70 0.7691
535.80 0.7685
535.90 0.768
536.00 0.7674
536.10 0.7669
536.20 0.7663
536.30 0.7658
536.40 0.7652
536.50 0.7647
536.60 0.7642
536.70 0.7636
536.80 0.7631
536.90 0.7625
537.00 0.762
537.10 0.7614
537.20 0.7609
537.30 0.7603
537.40 0.7598
537.50 0.7593
537.60 0.7587
537.70 0.7582
537.80 0.7576
537.90 0.7571
538.00 0.7566
538.10 0.756
538.20 0.7555
538.30 0.755
538.40 0.7544
538.50 0.7539
538.60 0.7533
538.70 0.7528
538.80 0.7523
538.90 0.7517
539.00 0.7512
539.10 0.7507
539.20 0.7501
539.30 0.7496
539.40 0.7491
539.50 0.7485
539.60 0.748
539.70 0.7475
539.80 0.7469
539.90 0.7464
540.00 0.7459
540.10 0.7454
540.20 0.7448
540.30 0.7443
540.40 0.7438
540.50 0.7433
540.60 0.7427
540.70 0.7422
540.80 0.7417
540.90 0.7411
541.00 0.7406
541.10 0.7401
541.20 0.7396
541.30 0.7391
541.40 0.7385
541.50 0.738
541.60 0.7375
541.70 0.737
541.80 0.7364
541.90 0.7359
542.00 0.7354
542.10 0.7349
542.20 0.7344
542.30 0.7338
542.40 0.7333
542.50 0.7328
542.60 0.7323
542.70 0.7318
542.80 0.7313
542.90 0.7307
543.00 0.7302
543.10 0.7297
543.20 0.7292
543.30 0.7287
543.40 0.7282
543.50 0.7277
543.60 0.7271
543.70 0.7266
543.80 0.7261
543.90 0.7256
544.00 0.7251
544.10 0.7246
544.20 0.7241
544.30 0.7236
544.40 0.7231
544.50 0.7225
544.60 0.722
544.70 0.7215
544.80 0.721
544.90 0.7205
545.00 0.72
545.10 0.7195
545.20 0.719
545.30 0.7185
545.40 0.718
545.50 0.7175
545.60 0.717
545.70 0.7165
545.80 0.716
545.90 0.7155
546.00 0.715
546.10 0.7145
546.20 0.714
546.30 0.7135
546.40 0.713
546.50 0.7125
546.60 0.712
546.70 0.7115
546.80 0.711
546.90 0.7105
547.00 0.71
547.10 0.7095
547.20 0.709
547.30 0.7085
547.40 0.708
547.50 0.7075
547.60 0.707
547.70 0.7065
547.80 0.706
547.90 0.7055
548.00 0.705
548.10 0.7045
548.20 0.704
548.30 0.7035
548.40 0.7031
548.50 0.7026
548.60 0.7021
548.70 0.7016
548.80 0.7011
548.90 0.7006
549.00 0.7001
549.10 0.6996
549.20 0.6991
549.30 0.6986
549.40 0.6982
549.50 0.6977
549.60 0.6972
549.70 0.6967
549.80 0.6962
549.90 0.6957
550.00 0.6952
550.10 0.6948
550.20 0.6943
550.30 0.6938
550.40 0.6933
550.50 0.6928
550.60 0.6923
550.70 0.6919
550.80 0.6914
550.90 0.6909
551.00 0.6904
551.10 0.6899
551.20 0.6895
551.30 0.689
551.40 0.6885
551.50 0.688
551.60 0.6875
551.70 0.6871
551.80 0.6866
551.90 0.6861
552.00 0.6856
552.10 0.6852
552.20 0.6847
552.30 0.6842
552.40 0.6837
552.50 0.6833
552.60 0.6828
552.70 0.6823
552.80 0.6818
552.90 0.6814
553.00 0.6809
553.10 0.6804
553.20 0.6799
553.30 0.6795
553.40 0.679
553.50 0.6785
553.60 0.6781
553.70 0.6776
553.80 0.6771
553.90 0.6767
554.00 0.6762
554.10 0.6757
554.20 0.6753
554.30 0.6748
554.40 0.6743
554.50 0.6739
554.60 0.6734
554.70 0.6729
554.80 0.6725
554.90 0.672
555.00 0.6715
555.10 0.6711
555.20 0.6706
555.30 0.6701
555.40 0.6697
555.50 0.6692
555.60 0.6688
555.70 0.6683
555.80 0.6678
555.90 0.6674
556.00 0.6669
556.10 0.6665
556.20 0.666
556.30 0.6655
556.40 0.6651
556.50 0.6646
556.60 0.6642
556.70 0.6637
556.80 0.6632
556.90 0.6628
557.00 0.6623
557.10 0.6619
557.20 0.6614
557.30 0.661
557.40 0.6605
557.50 0.6601
557.60 0.6596
557.70 0.6592
557.80 0.6587
557.90 0.6582
558.00 0.6578
558.10 0.6573
558.20 0.6569
558.30 0.6564
558.40 0.656
558.50 0.6555
558.60 0.6551
558.70 0.6546
558.80 0.6542
558.90 0.6537
559.00 0.6533
559.10 0.6528
559.20 0.6524
559.30 0.6519
559.40 0.6515
559.50 0.6511
559.60 0.6506
559.70 0.6502
559.80 0.6497
559.90 0.6493
560.00 0.6488
560.10 0.6484
560.20 0.6479
560.30 0.6475
560.40 0.6471
560.50 0.6466
560.60 0.6462
560.70 0.6457
560.80 0.6453
560.90 0.6448
561.00 0.6444
561.10 0.644
561.20 0.6435
561.30 0.6431
561.40 0.6426
561.50 0.6422
561.60 0.6418
561.70 0.6413
561.80 0.6409
561.90 0.6405
562.00 0.64
562.10 0.6396
562.20 0.6391
562.30 0.6387
562.40 0.6383
562.50 0.6378
562.60 0.6374
562.70 0.637
562.80 0.6365
562.90 0.6361
563.00 0.6357
563.10 0.6352
563.20 0.6348
563.30 0.6344
563.40 0.6339
563.50 0.6335
563.60 0.6331
563.70 0.6326
563.80 0.6322
563.90 0.6318
564.00 0.6313
564.10 0.6309
564.20 0.6305
564.30 0.6301
564.40 0.6296
564.50 0.6292
564.60 0.6288
564.70 0.6284
564.80 0.6279
564.90 0.6275
565.00 0.6271
565.10 0.6266
565.20 0.6262
565.30 0.6258
565.40 0.6254
565.50 0.6249
565.60 0.6245
565.70 0.6241
565.80 0.6237
565.90 0.6233
566.00 0.6228
566.10 0.6224
566.20 0.622
566.30 0.6216
566.40 0.6211
566.50 0.6207
566.60 0.6203
566.70 0.6199
566.80 0.6195
566.90 0.619
567.00 0.6186
567.10 0.6182
567.20 0.6178
567.30 0.6174
567.40 0.617
567.50 0.6165
567.60 0.6161
567.70 0.6157
567.80 0.6153
567.90 0.6149
568.00 0.6145
568.10 0.614
568.20 0.6136
568.30 0.6132
568.40 0.6128
568.50 0.6124
568.60 0.612
568.70 0.6116
568.80 0.6111
568.90 0.6107
569.00 0.6103
569.10 0.6099
569.20 0.6095
569.30 0.6091
569.40 0.6087
569.50 0.6083
569.60 0.6079
569.70 0.6075
569.80 0.607
569.90 0.6066
570.00 0.6062
570.10 0.6058
570.20 0.6054
570.30 0.605
570.40 0.6046
570.50 0.6042
570.60 0.6038
570.70 0.6034
570.80 0.603
570.90 0.6026
571.00 0.6022
571.10 0.6018
571.20 0.6014
571.30 0.6009
571.40 0.6005
571.50 0.6001
571.60 0.5997
571.70 0.5993
571.80 0.5989
571.90 0.5985
572.00 0.5981
572.10 0.5977
572.20 0.5973
572.30 0.5969
572.40 0.5965
572.50 0.5961
572.60 0.5957
572.70 0.5953
572.80 0.5949
572.90 0.5945
573.00 0.5941
573.10 0.5937
573.20 0.5933
573.30 0.5929
573.40 0.5925
573.50 0.5921
573.60 0.5918
573.70 0.5914
573.80 0.591
573.90 0.5906
574.00 0.5902
574.10 0.5898
574.20 0.5894
574.30 0.589
574.40 0.5886
574.50 0.5882
574.60 0.5878
574.70 0.5874
574.80 0.587
574.90 0.5866
575.00 0.5862
575.10 0.5858
575.20 0.5855
575.30 0.5851
575.40 0.5847
575.50 0.5843
575.60 0.5839
575.70 0.5835
575.80 0.5831
575.90 0.5827
576.00 0.5823
576.10 0.582
576.20 0.5816
576.30 0.5812
576.40 0.5808
576.50 0.5804
576.60 0.58
576.70 0.5796
576.80 0.5792
576.90 0.5789
577.00 0.5785
577.10 0.5781
577.20 0.5777
577.30 0.5773
577.40 0.5769
577.50 0.5766
577.60 0.5762
577.70 0.5758
577.80 0.5754
577.90 0.575
578.00 0.5746
578.10 0.5743
578.20 0.5739
578.30 0.5735
578.40 0.5731
578.50 0.5727
578.60 0.5724
578.70 0.572
578.80 0.5716
578.90 0.5712
579.00 0.5708
579.10 0.5705
579.20 0.5701
579.30 0.5697
579.40 0.5693
579.50 0.5689
579.60 0.5686
579.70 0.5682
579.80 0.5678
579.90 0.5674
580.00 0.5671
580.10 0.5667
580.20 0.5663
580.30 0.5659
580.40 0.5656
580.50 0.5652
580.60 0.5648
580.70 0.5644
580.80 0.5641
580.90 0.5637
581.00 0.5633
581.10 0.563
581.20 0.5626
581.30 0.5622
581.40 0.5618
581.50 0.5615
581.60 0.5611
581.70 0.5607
581.80 0.5604
581.90 0.56
582.00 0.5596
582.10 0.5593
582.20 0.5589
582.30 0.5585
582.40 0.5581
582.50 0.5578
582.60 0.5574
582.70 0.557
582.80 0.5567
582.90 0.5563
583.00 0.5559
583.10 0.5556
583.20 0.5552
583.30 0.5548
583.40 0.5545
583.50 0.5541
583.60 0.5538
583.70 0.5534
583.80 0.553
583.90 0.5527
584.00 0.5523
584.10 0.5519
584.20 0.5516
584.30 0.5512
584.40 0.5508
584.50 0.5505
584.60 0.5501
584.70 0.5498
584.80 0.5494
584.90 0.549
585.00 0.5487
585.10 0.5483
585.20 0.548
585.30 0.5476
585.40 0.5472
585.50 0.5469
585.60 0.5465
585.70 0.5462
585.80 0.5458
585.90 0.5454
586.00 0.5451
586.10 0.5447
586.20 0.5444
586.30 0.544
586.40 0.5437
586.50 0.5433
586.60 0.543
586.70 0.5426
586.80 0.5422
586.90 0.5419
587.00 0.5415
587.10 0.5412
587.20 0.5408
587.30 0.5405
587.40 0.5401
587.50 0.5398
587.60 0.5394
587.70 0.5391
587.80 0.5387
587.90 0.5384
588.00 0.538
588.10 0.5376
588.20 0.5373
588.30 0.5369
588.40 0.5366
588.50 0.5362
588.60 0.5359
588.70 0.5355
588.80 0.5352
588.90 0.5348
589.00 0.5345
589.10 0.5341
589.20 0.5338
589.30 0.5335
589.40 0.5331
589.50 0.5328
589.60 0.5324
589.70 0.5321
589.80 0.5317
589.90 0.5314
590.00 0.531
590.10 0.5307
590.20 0.5303
590.30 0.53
590.40 0.5296
590.50 0.5293
590.60 0.529
590.70 0.5286
590.80 0.5283
590.90 0.5279
591.00 0.5276
591.10 0.5272
591.20 0.5269
591.30 0.5266
591.40 0.5262
591.50 0.5259
591.60 0.5255
591.70 0.5252
591.80 0.5248
591.90 0.5245
592.00 0.5242
592.10 0.5238
592.20 0.5235
592.30 0.5231
592.40 0.5228
592.50 0.5225
592.60 0.5221
592.70 0.5218
592.80 0.5215
592.90 0.5211
593.00 0.5208
593.10 0.5204
593.20 0.5201
593.30 0.5198
593.40 0.5194
593.50 0.5191
593.60 0.5188
593.70 0.5184
593.80 0.5181
593.90 0.5177
594.00 0.5174
594.10 0.5171
594.20 0.5167
594.30 0.5164
594.40 0.5161
594.50 0.5157
594.60 0.5154
594.70 0.5151
594.80 0.5147
594.90 0.5144
595.00 0.5141
595.10 0.5137
595.20 0.5134
595.30 0.5131
595.40 0.5128
595.50 0.5124
595.60 0.5121
595.70 0.5118
595.80 0.5114
595.90 0.5111
596.00 0.5108
596.10 0.5104
596.20 0.5101
596.30 0.5098
596.40 0.5095
596.50 0.5091
596.60 0.5088
596.70 0.5085
596.80 0.5081
596.90 0.5078
597.00 0.5075
597.10 0.5072
597.20 0.5068
597.30 0.5065
597.40 0.5062
597.50 0.5059
597.60 0.5055
597.70 0.5052
597.80 0.5049
597.90 0.5046
598.00 0.5042
598.10 0.5039
598.20 0.5036
598.30 0.5033
598.40 0.5029
598.50 0.5026
598.60 0.5023
598.70 0.502
598.80 0.5016
598.90 0.5013
599.00 0.501
599.10 0.5007
599.20 0.5004
599.30 0.5
599.40 0.4997
599.50 0.4994
599.60 0.4991
599.70 0.4988
599.80 0.4984
599.90 0.4981
600.00 0.4978
600.10 0.4975
600.20 0.4972
600.30 0.4968
600.40 0.4965
600.50 0.4962
600.60 0.4959
600.70 0.4956
600.80 0.4953
600.90 0.4949
601.00 0.4946
601.10 0.4943
601.20 0.494
601.30 0.4937
601.40 0.4934
601.50 0.493
601.60 0.4927
601.70 0.4924
601.80 0.4921
601.90 0.4918
602.00 0.4915
602.10 0.4912
602.20 0.4908
602.30 0.4905
602.40 0.4902
602.50 0.4899
602.60 0.4896
602.70 0.4893
602.80 0.489
602.90 0.4887
603.00 0.4883
603.10 0.488
603.20 0.4877
603.30 0.4874
603.40 0.4871
603.50 0.4868
603.60 0.4865
603.70 0.4862
603.80 0.4859
603.90 0.4856
604.00 0.4852
604.10 0.4849
604.20 0.4846
604.30 0.4843
604.40 0.484
604.50 0.4837
604.60 0.4834
604.70 0.4831
604.80 0.4828
604.90 0.4825
605.00 0.4822
605.10 0.4819
605.20 0.4816
605.30 0.4812
605.40 0.4809
605.50 0.4806
605.60 0.4803
605.70 0.48
605.80 0.4797
605.90 0.4794
606.00 0.4791
606.10 0.4788
606.20 0.4785
606.30 0.4782
606.40 0.4779
606.50 0.4776
606.60 0.4773
606.70 0.477
606.80 0.4767
606.90 0.4764
607.00 0.4761
607.10 0.4758
607.20 0.4755
607.30 0.4752
607.40 0.4749
607.50 0.4746
607.60 0.4743
607.70 0.474
607.80 0.4737
607.90 0.4734
608.00 0.4731
608.10 0.4728
608.20 0.4725
608.30 0.4722
608.40 0.4719
608.50 0.4716
608.60 0.4713
608.70 0.471
608.80 0.4707
608.90 0.4704
609.00 0.4701
609.10 0.4698
609.20 0.4695
609.30 0.4692
609.40 0.4689
609.50 0.4686
609.60 0.4683
609.70 0.468
609.80 0.4677
609.90 0.4674
610.00 0.4671
610.10 0.4668
610.20 0.4665
610.30 0.4663
610.40 0.466
610.50 0.4657
610.60 0.4654
610.70 0.4651
610.80 0.4648
610.90 0.4645
611.00 0.4642
611.10 0.4639
611.20 0.4636
611.30 0.4633
611.40 0.463
611.50 0.4627
611.60 0.4625
611.70 0.4622
611.80 0.4619
611.90 0.4616
612.00 0.4613
612.10 0.461
612.20 0.4607
612.30 0.4604
612.40 0.4601
612.50 0.4598
612.60 0.4596
612.70 0.4593
612.80 0.459
612.90 0.4587
613.00 0.4584
613.10 0.4581
613.20 0.4578
613.30 0.4575
613.40 0.4573
613.50 0.457
613.60 0.4567
613.70 0.4564
613.80 0.4561
613.90 0.4558
614.00 0.4555
614.10 0.4552
614.20 0.455
614.30 0.4547
614.40 0.4544
614.50 0.4541
614.60 0.4538
614.70 0.4535
614.80 0.4533
614.90 0.453
615.00 0.4527
615.10 0.4524
615.20 0.4521
615.30 0.4518
615.40 0.4516
615.50 0.4513
615.60 0.451
615.70 0.4507
615.80 0.4504
615.90 0.4501
616.00 0.4499
616.10 0.4496
616.20 0.4493
616.30 0.449
616.40 0.4487
616.50 0.4485
616.60 0.4482
616.70 0.4479
616.80 0.4476
616.90 0.4473
617.00 0.4471
617.10 0.4468
617.20 0.4465
617.30 0.4462
617.40 0.4459
617.50 0.4457
617.60 0.4454
617.70 0.4451
617.80 0.4448
617.90 0.4446
618.00 0.4443
618.10 0.444
618.20 0.4437
618.30 0.4435
618.40 0.4432
618.50 0.4429
618.60 0.4426
618.70 0.4424
618.80 0.4421
618.90 0.4418
619.00 0.4415
619.10 0.4412
619.20 0.441
619.30 0.4407
619.40 0.4404
619.50 0.4402
619.60 0.4399
619.70 0.4396
619.80 0.4393
619.90 0.4391
620.00 0.4388
620.10 0.4385
620.20 0.4382
620.30 0.438
620.40 0.4377
620.50 0.4374
620.60 0.4372
620.70 0.4369
620.80 0.4366
620.90 0.4363
621.00 0.4361
621.10 0.4358
621.20 0.4355
621.30 0.4353
621.40 0.435
621.50 0.4347
621.60 0.4345
621.70 0.4342
621.80 0.4339
621.90 0.4336
622.00 0.4334
622.10 0.4331
622.20 0.4328
622.30 0.4326
622.40 0.4323
622.50 0.432
622.60 0.4318
622.70 0.4315
622.80 0.4312
622.90 0.431
623.00 0.4307
623.10 0.4304
623.20 0.4302
623.30 0.4299
623.40 0.4296
623.50 0.4294
623.60 0.4291
623.70 0.4288
623.80 0.4286
623.90 0.4283
624.00 0.428
624.10 0.4278
624.20 0.4275
624.30 0.4273
624.40 0.427
624.50 0.4267
624.60 0.4265
624.70 0.4262
624.80 0.4259
624.90 0.4257
625.00 0.4254
625.10 0.4251
625.20 0.4249
625.30 0.4246
625.40 0.4244
625.50 0.4241
625.60 0.4238
625.70 0.4236
625.80 0.4233
625.90 0.4231
626.00 0.4228
626.10 0.4225
626.20 0.4223
626.30 0.422
626.40 0.4218
626.50 0.4215
626.60 0.4212
626.70 0.421
626.80 0.4207
626.90 0.4205
627.00 0.4202
627.10 0.4199
627.20 0.4197
627.30 0.4194
627.40 0.4192
627.50 0.4189
627.60 0.4186
627.70 0.4184
627.80 0.4181
627.90 0.4179
628.00 0.4176
628.10 0.4174
628.20 0.4171
628.30 0.4168
628.40 0.4166
628.50 0.4163
628.60 0.4161
628.70 0.4158
628.80 0.4156
628.90 0.4153
629.00 0.4151
629.10 0.4148
629.20 0.4145
629.30 0.4143
629.40 0.414
629.50 0.4138
629.60 0.4135
629.70 0.4133
629.80 0.413
629.90 0.4128
630.00 0.4125
630.10 0.4123
630.20 0.412
630.30 0.4118
630.40 0.4115
630.50 0.4113
630.60 0.411
630.70 0.4108
630.80 0.4105
630.90 0.4102
631.00 0.41
631.10 0.4097
631.20 0.4095
631.30 0.4092
631.40 0.409
631.50 0.4087
631.60 0.4085
631.70 0.4082
631.80 0.408
631.90 0.4077
632.00 0.4075
632.10 0.4072
632.20 0.407
632.30 0.4067
632.40 0.4065
632.50 0.4062
632.60 0.406
632.70 0.4057
632.80 0.4055
632.90 0.4053
633.00 0.405
633.10 0.4048
633.20 0.4045
633.30 0.4043
633.40 0.404
633.50 0.4038
633.60 0.4035
633.70 0.4033
633.80 0.403
633.90 0.4028
634.00 0.4025
634.10 0.4023
634.20 0.402
634.30 0.4018
634.40 0.4015
634.50 0.4013
634.60 0.4011
634.70 0.4008
634.80 0.4006
634.90 0.4003
635.00 0.4001
635.10 0.3998
635.20 0.3996
635.30 0.3993
635.40 0.3991
635.50 0.3989
635.60 0.3986
635.70 0.3984
635.80 0.3981
635.90 0.3979
636.00 0.3976
636.10 0.3974
636.20 0.3972
636.30 0.3969
636.40 0.3967
636.50 0.3964
636.60 0.3962
636.70 0.3959
636.80 0.3957
636.90 0.3955
637.00 0.3952
637.10 0.395
637.20 0.3947
637.30 0.3945
637.40 0.3942
637.50 0.394
637.60 0.3938
637.70 0.3935
637.80 0.3933
637.90 0.393
638.00 0.3928
638.10 0.3926
638.20 0.3923
638.30 0.3921
638.40 0.3918
638.50 0.3916
638.60 0.3914
638.70 0.3911
638.80 0.3909
638.90 0.3906
639.00 0.3904
639.10 0.3902
639.20 0.3899
639.30 0.3897
639.40 0.3894
639.50 0.3892
639.60 0.389
639.70 0.3887
639.80 0.3885
639.90 0.3883
640.00 0.388
640.10 0.3878
640.20 0.3875
640.30 0.3873
640.40 0.3871
640.50 0.3868
640.60 0.3866
640.70 0.3863
640.80 0.3861
640.90 0.3859
641.00 0.3856
641.10 0.3854
641.20 0.3852
641.30 0.3849
641.40 0.3847
641.50 0.3844
641.60 0.3842
641.70 0.384
641.80 0.3837
641.90 0.3835
642.00 0.3833
642.10 0.383
642.20 0.3828
642.30 0.3825
642.40 0.3823
642.50 0.3821
642.60 0.3818
642.70 0.3816
642.80 0.3814
642.90 0.3811
643.00 0.3809
643.10 0.3806
643.20 0.3804
643.30 0.3802
643.40 0.3799
643.50 0.3797
643.60 0.3795
643.70 0.3792
643.80 0.379
643.90 0.3787
644.00 0.3785
644.10 0.3783
644.20 0.378
644.30 0.3778
644.40 0.3775
644.50 0.3773
644.60 0.3771
644.70 0.3768
644.80 0.3766
644.90 0.3763
645.00 0.3761
645.10 0.3759
645.20 0.3756
645.30 0.3754
645.40 0.3751
645.50 0.3749
645.60 0.3747
645.70 0.3744
645.80 0.3742
645.90 0.3739
646.00 0.3737
646.10 0.3735
646.20 0.3732
646.30 0.373
646.40 0.3727
646.50 0.3725
646.60 0.3722
646.70 0.372
646.80 0.3717
646.90 0.3715
647.00 0.3712
647.10 0.371
647.20 0.3707
647.30 0.3705
647.40 0.3702
647.50 0.37
647.60 0.3697
647.70 0.3695
647.80 0.3692
647.90 0.3689
648.00 0.3687
648.10 0.3684
648.20 0.3682
648.30 0.3679
648.40 0.3676
648.50 0.3674
648.60 0.3671
648.70 0.3668
648.80 0.3666
648.90 0.3663
649.00 0.366
649.10 0.3658
649.20 0.3655
649.30 0.3652
649.40 0.3649
649.50 0.3646
649.60 0.3643
649.70 0.364
649.80 0.3637
649.90 0.3634
650.00 0.3631
650.10 0.3628
650.20 0.3625
650.30 0.3622
650.40 0.3619
650.50 0.3616
650.60 0.3612
650.70 0.3609
650.80 0.3605
650.90 0.3602
651.00 0.3599
651.10 0.3595
651.20 0.3592
651.30 0.3588
651.40 0.3584
651.50 0.358
651.60 0.3576
651.70 0.3572
651.80 0.3567
651.90 0.3563
652.00 0.3559
652.10 0.3555
652.20 0.3551
652.30 0.3546
652.40 0.3541
652.50 0.3535
652.60 0.3529
652.70 0.3524
652.80 0.3518
652.90 0.3512
653.00 0.3507
653.10 0.3501
653.20 0.3495
653.30 0.3489
653.40 0.3481
653.50 0.3472
653.60 0.3464
653.70 0.3456
653.80 0.3447
653.90 0.3439
654.00 0.343
654.10 0.3422
654.20 0.3414
654.30 0.3404
654.40 0.3393
654.50 0.3381
654.60 0.3369
654.70 0.3358
654.80 0.3345
654.90 0.3331
655.00 0.3316
655.10 0.3301
655.20 0.3287
655.30 0.3272
655.40 0.3255
655.50 0.3237
655.60 0.3219
655.70 0.3199
655.80 0.3177
655.90 0.3153
656.00 0.312
656.10 0.3084
656.20 0.3075
656.30 0.3199
656.40 0.3056
656.50 0.3091
656.60 0.3121
656.70 0.3148
656.80 0.3167
656.90 0.3184
657.00 0.3199
657.10 0.3214
657.20 0.3227
657.30 0.324
657.40 0.3251
657.50 0.3262
657.60 0.3272
657.70 0.3283
657.80 0.3293
657.90 0.3301
658.00 0.3308
658.10 0.3316
658.20 0.3324
658.30 0.3331
658.40 0.3335
658.50 0.3339
658.60 0.3344
658.70 0.3348
658.80 0.3352
658.90 0.3356
659.00 0.3361
659.10 0.3365
659.20 0.3369
659.30 0.3373
659.40 0.3374
659.50 0.3376
659.60 0.3377
659.70 0.3379
659.80 0.338
659.90 0.3382
660.00 0.3383
660.10 0.3385
660.20 0.3386
660.30 0.3387
660.40 0.3387
660.50 0.3387
660.60 0.3387
660.70 0.3387
660.80 0.3387
660.90 0.3387
661.00 0.3387
661.10 0.3387
661.20 0.3387
661.30 0.3387
661.40 0.3386
661.50 0.3385
661.60 0.3384
661.70 0.3383
661.80 0.3383
661.90 0.3382
662.00 0.3381
662.10 0.338
662.20 0.3379
662.30 0.3378
662.40 0.3377
662.50 0.3376
662.60 0.3375
662.70 0.3373
662.80 0.3372
662.90 0.3371
663.00 0.337
663.10 0.3368
663.20 0.3367
663.30 0.3366
663.40 0.3364
663.50 0.3363
663.60 0.3361
663.70 0.336
663.80 0.3358
663.90 0.3357
664.00 0.3355
664.10 0.3354
664.20 0.3352
664.30 0.3351
664.40 0.3349
664.50 0.3348
664.60 0.3346
664.70 0.3344
664.80 0.3343
664.90 0.3341
665.00 0.334
665.10 0.3338
665.20 0.3336
665.30 0.3335
665.40 0.3333
665.50 0.3331
665.60 0.333
665.70 0.3328
665.80 0.3326
665.90 0.3324
666.00 0.3323
666.10 0.3321
666.20 0.3319
666.30 0.3318
666.40 0.3316
666.50 0.3314
666.60 0.3312
666.70 0.3311
666.80 0.3309
666.90 0.3307
667.00 0.3305
667.10 0.3304
667.20 0.3302
667.30 0.33
667.40 0.3298
667.50 0.3297
667.60 0.3295
667.70 0.3293
667.80 0.3291
667.90 0.3289
668.00 0.3288
668.10 0.3286
668.20 0.3284
668.30 0.3282
668.40 0.328
668.50 0.3279
668.60 0.3277
668.70 0.3275
668.80 0.3273
668.90 0.3271
669.00 0.327
669.10 0.3268
669.20 0.3266
669.30 0.3264
669.40 0.3262
669.50 0.3261
669.60 0.3259
669.70 0.3257
669.80 0.3255
669.90 0.3253
670.00 0.3252
670.10 0.325
670.20 0.3248
670.30 0.3246
670.40 0.3244
670.50 0.3243
670.60 0.3241
670.70 0.3239
670.80 0.3237
670.90 0.3235
671.00 0.3234
671.10 0.3232
671.20 0.323
671.30 0.3228
671.40 0.3226
671.50 0.3225
671.60 0.3223
671.70 0.3221
671.80 0.3219
671.90 0.3217
672.00 0.3216
672.10 0.3214
672.20 0.3212
672.30 0.321
672.40 0.3208
672.50 0.3206
672.60 0.3205
672.70 0.3203
672.80 0.3201
672.90 0.3199
673.00 0.3197
673.10 0.3196
673.20 0.3194
673.30 0.3192
673.40 0.319
673.50 0.3189
673.60 0.3187
673.70 0.3185
673.80 0.3183
673.90 0.3181
674.00 0.318
674.10 0.3178
674.20 0.3176
674.30 0.3174
674.40 0.3172
674.50 0.3171
674.60 0.3169
674.70 0.3167
674.80 0.3165
674.90 0.3163
675.00 0.3162
675.10 0.316
675.20 0.3158
675.30 0.3156
675.40 0.3155
675.50 0.3153
675.60 0.3151
675.70 0.3149
675.80 0.3147
675.90 0.3146
676.00 0.3144
676.10 0.3142
676.20 0.314
676.30 0.3139
676.40 0.3137
676.50 0.3135
676.60 0.3133
676.70 0.3131
676.80 0.313
676.90 0.3128
677.00 0.3126
677.10 0.3124
677.20 0.3123
677.30 0.3121
677.40 0.3119
677.50 0.3117
677.60 0.3116
677.70 0.3114
677.80 0.3112
677.90 0.311
678.00 0.3109
678.10 0.3107
678.20 0.3105
678.30 0.3103
678.40 0.3102
678.50 0.31
678.60 0.3098
678.70 0.3096
678.80 0.3095
678.90 0.3093
679.00 0.3091
679.10 0.3089
679.20 0.3088
679.30 0.3086
679.40 0.3084
679.50 0.3082
679.60 0.3081
679.70 0.3079
679.80 0.3077
679.90 0.3075
680.00 0.3074
680.10 0.3072
680.20 0.307
680.30 0.3068
680.40 0.3067
680.50 0.3065
680.60 0.3063
680.70 0.3062
680.80 0.306
680.90 0.3058
681.00 0.3056
681.10 0.3055
681.20 0.3053
681.30 0.3051
681.40 0.3049
681.50 0.3048
681.60 0.3046
681.70 0.3044
681.80 0.3043
681.90 0.3041
682.00 0.3039
682.10 0.3037
682.20 0.3036
682.30 0.3034
682.40 0.3032
682.50 0.3031
682.60 0.3029
682.70 0.3027
682.80 0.3026
682.90 0.3024
683.00 0.3022
683.10 0.302
683.20 0.3019
683.30 0.3017
683.40 0.3015
683.50 0.3014
683.60 0.3012
683.70 0.301
683.80 0.3009
683.90 0.3007
684.00 0.3005
684.10 0.3003
684.20 0.3002
684.30 0.3
684.40 0.2998
684.50 0.2997
684.60 0.2995
684.70 0.2993
684.80 0.2992
684.90 0.299
685.00 0.2988
685.10 0.2987
685.20 0.2985
685.30 0.2983
685.40 0.2982
685.50 0.298
685.60 0.2978
685.70 0.2977
685.80 0.2975
685.90 0.2973
686.00 0.2972
686.10 0.297
686.20 0.2968
686.30 0.2967
686.40 0.2965
686.50 0.2963
686.60 0.2962
686.70 0.296
686.80 0.2958
686.90 0.2957
687.00 0.2955
687.10 0.2953
687.20 0.2952
687.30 0.295
687.40 0.2948
687.50 0.2947
687.60 0.2945
687.70 0.2943
687.80 0.2942
687.90 0.294
688.00 0.2938
688.10 0.2937
688.20 0.2935
688.30 0.2934
688.40 0.2932
688.50 0.293
688.60 0.2929
688.70 0.2927
688.80 0.2925
688.90 0.2924
689.00 0.2922
689.10 0.292
689.20 0.2919
689.30 0.2917
689.40 0.2916
689.50 0.2914
689.60 0.2912
689.70 0.2911
689.80 0.2909
689.90 0.2908
690.00 0.2906
690.10 0.2904
690.20 0.2903
690.30 0.2901
690.40 0.2899
690.50 0.2898
690.60 0.2896
690.70 0.2895
690.80 0.2893
690.90 0.2891
691.00 0.289
691.10 0.2888
691.20 0.2887
691.30 0.2885
691.40 0.2883
691.50 0.2882
691.60 0.288
691.70 0.2879
691.80 0.2877
691.90 0.2875
692.00 0.2874
692.10 0.2872
692.20 0.2871
692.30 0.2869
692.40 0.2867
692.50 0.2866
692.60 0.2864
692.70 0.2863
692.80 0.2861
692.90 0.2859
693.00 0.2858
693.10 0.2856
693.20 0.2855
693.30 0.2853
693.40 0.2851
693.50 0.285
693.60 0.2848
693.70 0.2847
693.80 0.2845
693.90 0.2843
694.00 0.2842
694.10 0.284
694.20 0.2839
694.30 0.2837
694.40 0.2836
694.50 0.2834
694.60 0.2832
694.70 0.2831
694.80 0.2829
694.90 0.2828
695.00 0.2826
695.10 0.2825
695.20 0.2823
695.30 0.2821
695.40 0.282
695.50 0.2818
695.60 0.2817
695.70 0.2815
695.80 0.2814
695.90 0.2812
696.00 0.2811
696.10 0.2809
696.20 0.2807
696.30 0.2806
696.40 0.2804
696.50 0.2803
696.60 0.2801
696.70 0.28
696.80 0.2798
696.90 0.2797
697.00 0.2795
697.10 0.2793
697.20 0.2792
697.30 0.279
697.40 0.2789
697.50 0.2787
697.60 0.2786
697.70 0.2784
697.80 0.2783
697.90 0.2781
698.00 0.278
698.10 0.2778
698.20 0.2777
698.30 0.2775
698.40 0.2773
698.50 0.2772
698.60 0.277
698.70 0.2769
698.80 0.2767
698.90 0.2766
699.00 0.2764
699.10 0.2763
699.20 0.2761
699.30 0.276
699.40 0.2758
699.50 0.2757
699.60 0.2755
699.70 0.2754
699.80 0.2752
699.90 0.2751
700.00 0.2749
700.10 0.2748
700.20 0.2746
700.30 0.2745
700.40 0.2743
700.50 0.2742
700.60 0.274
700.70 0.2738
700.80 0.2737
700.90 0.2735
701.00 0.2734
701.10 0.2732
701.20 0.2731
701.30 0.2729
701.40 0.2728
701.50 0.2727
701.60 0.2725
701.70 0.2724
701.80 0.2722
701.90 0.2721
702.00 0.2719
702.10 0.2718
702.20 0.2716
702.30 0.2715
702.40 0.2713
702.50 0.2712
702.60 0.271
702.70 0.2709
702.80 0.2707
702.90 0.2706
703.00 0.2704
703.10 0.2703
703.20 0.2701
703.30 0.27
703.40 0.2698
703.50 0.2697
703.60 0.2695
703.70 0.2694
703.80 0.2692
703.90 0.2691
704.00 0.2689
704.10 0.2688
704.20 0.2686
704.30 0.2685
704.40 0.2683
704.50 0.2682
704.60 0.268
704.70 0.2679
704.80 0.2678
704.90 0.2676
705.00 0.2675
705.10 0.2673
705.20 0.2672
705.30 0.267
705.40 0.2669
705.50 0.2667
705.60 0.2666
705.70 0.2664
705.80 0.2663
705.90 0.2661
706.00 0.266
706.10 0.2659
706.20 0.2657
706.30 0.2656
706.40 0.2654
706.50 0.2653
706.60 0.2651
706.70 0.265
706.80 0.2648
706.90 0.2647
707.00 0.2646
707.10 0.2644
707.20 0.2643
707.30 0.2641
707.40 0.264
707.50 0.2638
707.60 0.2637
707.70 0.2635
707.80 0.2634
707.90 0.2633
708.00 0.2631
708.10 0.263
708.20 0.2628
708.30 0.2627
708.40 0.2625
708.50 0.2624
708.60 0.2623
708.70 0.2621
708.80 0.262
708.90 0.2618
709.00 0.2617
709.10 0.2615
709.20 0.2614
709.30 0.2613
709.40 0.2611
709.50 0.261
709.60 0.2608
709.70 0.2607
709.80 0.2605
709.90 0.2604
710.00 0.2603
710.10 0.2601
710.20 0.26
710.30 0.2598
710.40 0.2597
710.50 0.2596
710.60 0.2594
710.70 0.2593
710.80 0.2591
710.90 0.259
711.00 0.2589
711.10 0.2587
711.20 0.2586
711.30 0.2584
711.40 0.2583
711.50 0.2582
711.60 0.258
711.70 0.2579
711.80 0.2577
711.90 0.2576
712.00 0.2575
712.10 0.2573
712.20 0.2572
712.30 0.257
712.40 0.2569
712.50 0.2568
712.60 0.2566
712.70 0.2565
712.80 0.2563
712.90 0.2562
713.00 0.2561
713.10 0.2559
713.20 0.2558
713.30 0.2556
713.40 0.2555
713.50 0.2554
713.60 0.2552
713.70 0.2551
713.80 0.255
713.90 0.2548
714.00 0.2547
714.10 0.2545
714.20 0.2544
714.30 0.2543
714.40 0.2541
714.50 0.254
714.60 0.2539
714.70 0.2537
714.80 0.2536
714.90 0.2534
715.00 0.2533
715.10 0.2532
715.20 0.253
715.30 0.2529
715.40 0.2528
715.50 0.2526
715.60 0.2525
715.70 0.2524
715.80 0.2522
715.90 0.2521
716.00 0.2519
716.10 0.2518
716.20 0.2517
716.30 0.2515
716.40 0.2514
716.50 0.2513
716.60 0.2511
716.70 0.251
716.80 0.2509
716.90 0.2507
717.00 0.2506
717.10 0.2505
717.20 0.2503
717.30 0.2502
717.40 0.2501
717.50 0.2499
717.60 0.2498
717.70 0.2497
717.80 0.2495
717.90 0.2494
718.00 0.2492
718.10 0.2491
718.20 0.249
718.30 0.2488
718.40 0.2487
718.50 0.2486
718.60 0.2484
718.70 0.2483
718.80 0.2482
718.90 0.248
719.00 0.2479
719.10 0.2478
719.20 0.2476
719.30 0.2475
719.40 0.2474
719.50 0.2472
719.60 0.2471
719.70 0.247
719.80 0.2468
719.90 0.2467
720.00 0.2466
720.10 0.2464
720.20 0.2463
720.30 0.2462
720.40 0.2461
720.50 0.2459
720.60 0.2458
720.70 0.2457
720.80 0.2455
720.90 0.2454
721.00 0.2453
721.10 0.2451
721.20 0.245
721.30 0.2449
721.40 0.2447
721.50 0.2446
721.60 0.2445
721.70 0.2443
721.80 0.2442
721.90 0.2441
722.00 0.244
722.10 0.2438
722.20 0.2437
722.30 0.2436
722.40 0.2434
722.50 0.2433
722.60 0.2432
722.70 0.243
722.80 0.2429
722.90 0.2428
723.00 0.2427
723.10 0.2425
723.20 0.2424
723.30 0.2423
723.40 0.2421
723.50 0.242
723.60 0.2419
723.70 0.2417
723.80 0.2416
723.90 0.2415
724.00 0.2414
724.10 0.2412
724.20 0.2411
724.30 0.241
724.40 0.2408
724.50 0.2407
724.60 0.2406
724.70 0.2405
724.80 0.2403
724.90 0.2402
725.00 0.2401
725.10 0.2399
725.20 0.2398
725.30 0.2397
725.40 0.2396
725.50 0.2394
725.60 0.2393
725.70 0.2392
725.80 0.2391
725.90 0.2389
726.00 0.2388
726.10 0.2387
726.20 0.2386
726.30 0.2384
726.40 0.2383
726.50 0.2382
726.60 0.238
726.70 0.2379
726.80 0.2378
726.90 0.2377
727.00 0.2375
727.10 0.2374
727.20 0.2373
727.30 0.2372
727.40 0.237
727.50 0.2369
727.60 0.2368
727.70 0.2367
727.80 0.2365
727.90 0.2364
728.00 0.2363
728.10 0.2362
728.20 0.236
728.30 0.2359
728.40 0.2358
728.50 0.2357
728.60 0.2355
728.70 0.2354
728.80 0.2353
728.90 0.2352
729.00 0.235
729.10 0.2349
729.20 0.2348
729.30 0.2347
729.40 0.2345
729.50 0.2344
729.60 0.2343
729.70 0.2342
729.80 0.234
729.90 0.2339
730.00 0.2338
730.10 0.2337
730.20 0.2335
730.30 0.2334
730.40 0.2333
730.50 0.2332
730.60 0.233
730.70 0.2329
730.80 0.2328
730.90 0.2327
731.00 0.2326
731.10 0.2324
731.20 0.2323
731.30 0.2322
731.40 0.2321
731.50 0.232
731.60 0.2318
731.70 0.2317
731.80 0.2316
731.90 0.2315
732.00 0.2313
732.10 0.2312
732.20 0.2311
732.30 0.231
732.40 0.2309
732.50 0.2307
732.60 0.2306
732.70 0.2305
732.80 0.2304
732.90 0.2303
733.00 0.2301
733.10 0.23
733.20 0.2299
733.30 0.2298
733.40 0.2296
733.50 0.2295
733.60 0.2294
733.70 0.2293
733.80 0.2292
733.90 0.229
734.00 0.2289
734.10 0.2288
734.20 0.2287
734.30 0.2286
734.40 0.2284
734.50 0.2283
734.60 0.2282
734.70 0.2281
734.80 0.228
734.90 0.2278
735.00 0.2277
735.10 0.2276
735.20 0.2275
735.30 0.2274
735.40 0.2272
735.50 0.2271
735.60 0.227
735.70 0.2269
735.80 0.2268
735.90 0.2267
736.00 0.2265
736.10 0.2264
736.20 0.2263
736.30 0.2262
736.40 0.2261
736.50 0.2259
736.60 0.2258
736.70 0.2257
736.80 0.2256
736.90 0.2255
737.00 0.2253
737.10 0.2252
737.20 0.2251
737.30 0.225
737.40 0.2249
737.50 0.2248
737.60 0.2246
737.70 0.2245
737.80 0.2244
737.90 0.2243
738.00 0.2242
738.10 0.224
738.20 0.2239
738.30 0.2238
738.40 0.2237
738.50 0.2236
738.60 0.2235
738.70 0.2233
738.80 0.2232
738.90 0.2231
739.00 0.223
739.10 0.2229
739.20 0.2227
739.30 0.2226
739.40 0.2225
739.50 0.2224
739.60 0.2223
739.70 0.2222
739.80 0.222
739.90 0.2219
740.00 0.2218
740.10 0.2217
740.20 0.2216
740.30 0.2215
740.40 0.2214
740.50 0.2212
740.60 0.2211
740.70 0.221
740.80 0.2209
740.90 0.2208
741.00 0.2207
741.10 0.2206
741.20 0.2204
741.30 0.2203
741.40 0.2202
741.50 0.2201
741.60 0.22
741.70 0.2199
741.80 0.2198
741.90 0.2196
742.00 0.2195
742.10 0.2194
742.20 0.2193
742.30 0.2192
742.40 0.2191
742.50 0.219
742.60 0.2188
742.70 0.2187
742.80 0.2186
742.90 0.2185
743.00 0.2184
743.10 0.2183
743.20 0.2182
743.30 0.2181
743.40 0.2179
743.50 0.2178
743.60 0.2177
743.70 0.2176
743.80 0.2175
743.90 0.2174
744.00 0.2173
744.10 0.2171
744.20 0.217
744.30 0.2169
744.40 0.2168
744.50 0.2167
744.60 0.2166
744.70 0.2165
744.80 0.2164
744.90 0.2162
745.00 0.2161
745.10 0.216
745.20 0.2159
745.30 0.2158
745.40 0.2157
745.50 0.2156
745.60 0.2155
745.70 0.2154
745.80 0.2152
745.90 0.2151
746.00 0.215
746.10 0.2149
746.20 0.2148
746.30 0.2147
746.40 0.2146
746.50 0.2145
746.60 0.2143
746.70 0.2142
746.80 0.2141
746.90 0.214
747.00 0.2139
747.10 0.2138
747.20 0.2137
747.30 0.2136
747.40 0.2135
747.50 0.2133
747.60 0.2132
747.70 0.2131
747.80 0.213
747.90 0.2129
748.00 0.2128
748.10 0.2127
748.20 0.2126
748.30 0.2125
748.40 0.2124
748.50 0.2122
748.60 0.2121
748.70 0.212
748.80 0.2119
748.90 0.2118
749.00 0.2117
749.10 0.2116
749.20 0.2115
749.30 0.2114
749.40 0.2113
749.50 0.2111
749.60 0.211
749.70 0.2109
749.80 0.2108
749.90 0.2107
750.00 0.2106
750.10 0.2105
750.20 0.2104
750.30 0.2103
750.40 0.2102
750.50 0.2101
750.60 0.2099
750.70 0.2098
750.80 0.2097
750.90 0.2096
751.00 0.2095
751.10 0.2094
751.20 0.2093
751.30 0.2092
751.40 0.2091
751.50 0.209
751.60 0.2089
751.70 0.2088
751.80 0.2087
751.90 0.2086
752.00 0.2085
752.10 0.2083
752.20 0.2082
752.30 0.2081
752.40 0.208
752.50 0.2079
752.60 0.2078
752.70 0.2077
752.80 0.2076
752.90 0.2075
753.00 0.2074
753.10 0.2073
753.20 0.2072
753.30 0.2071
753.40 0.207
753.50 0.2069
753.60 0.2068
753.70 0.2066
753.80 0.2065
753.90 0.2064
754.00 0.2063
754.10 0.2062
754.20 0.2061
754.30 0.206
754.40 0.2059
754.50 0.2058
754.60 0.2057
754.70 0.2056
754.80 0.2055
754.90 0.2054
755.00 0.2053
755.10 0.2052
755.20 0.2051
755.30 0.205
755.40 0.2049
755.50 0.2048
755.60 0.2046
755.70 0.2045
755.80 0.2044
755.90 0.2043
756.00 0.2042
756.10 0.2041
756.20 0.204
756.30 0.2039
756.40 0.2038
756.50 0.2037
756.60 0.2036
756.70 0.2035
756.80 0.2034
756.90 0.2033
757.00 0.2032
757.10 0.2031
757.20 0.203
757.30 0.2029
757.40 0.2028
757.50 0.2027
757.60 0.2026
757.70 0.2025
757.80 0.2024
757.90 0.2022
758.00 0.2021
758.10 0.202
758.20 0.2019
758.30 0.2018
758.40 0.2017
758.50 0.2016
758.60 0.2015
758.70 0.2014
758.80 0.2013
758.90 0.2012
759.00 0.2011
759.10 0.201
759.20 0.2009
759.30 0.2008
759.40 0.2007
759.50 0.2006
759.60 0.2005
759.70 0.2004
759.80 0.2003
759.90 0.2002
760.00 0.2001
760.10 0.2
760.20 0.1999
760.30 0.1998
760.40 0.1997
760.50 0.1996
760.60 0.1995
760.70 0.1994
760.80 0.1993
760.90 0.1992
761.00 0.1991
761.10 0.199
761.20 0.1989
761.30 0.1988
761.40 0.1987
761.50 0.1986
761.60 0.1985
761.70 0.1984
761.80 0.1983
761.90 0.1982
762.00 0.1981
762.10 0.198
762.20 0.1979
762.30 0.1978
762.40 0.1977
762.50 0.1976
762.60 0.1975
762.70 0.1974
762.80 0.1973
762.90 0.1972
763.00 0.1971
763.10 0.197
763.20 0.1969
763.30 0.1968
763.40 0.1967
763.50 0.1966
763.60 0.1965
763.70 0.1964
763.80 0.1963
763.90 0.1962
764.00 0.1961
764.10 0.196
764.20 0.1959
764.30 0.1958
764.40 0.1957
764.50 0.1956
764.60 0.1955
764.70 0.1954
764.80 0.1953
764.90 0.1952
765.00 0.1951
765.10 0.195
765.20 0.1949
765.30 0.1948
765.40 0.1947
765.50 0.1946
765.60 0.1945
765.70 0.1944
765.80 0.1943
765.90 0.1942
766.00 0.1941
766.10 0.194
766.20 0.1939
766.30 0.1938
766.40 0.1937
766.50 0.1936
766.60 0.1935
766.70 0.1934
766.80 0.1933
766.90 0.1932
767.00 0.1931
767.10 0.193
767.20 0.1929
767.30 0.1928
767.40 0.1927
767.50 0.1926
767.60 0.1925
767.70 0.1924
767.80 0.1923
767.90 0.1922
768.00 0.1922
768.10 0.1921
768.20 0.192
768.30 0.1919
768.40 0.1918
768.50 0.1917
768.60 0.1916
768.70 0.1915
768.80 0.1914
768.90 0.1913
769.00 0.1912
769.10 0.1911
769.20 0.191
769.30 0.1909
769.40 0.1908
769.50 0.1907
769.60 0.1906
769.70 0.1905
769.80 0.1904
769.90 0.1903
770.00 0.1902
770.10 0.1901
770.20 0.19
770.30 0.1899
770.40 0.1898
770.50 0.1897
770.60 0.1896
770.70 0.1896
770.80 0.1895
770.90 0.1894
771.00 0.1893
771.10 0.1892
771.20 0.1891
771.30 0.189
771.40 0.1889
771.50 0.1888
771.60 0.1887
771.70 0.1886
771.80 0.1885
771.90 0.1884
772.00 0.1883
772.10 0.1882
772.20 0.1881
772.30 0.188
772.40 0.188
772.50 0.1879
772.60 0.1878
772.70 0.1877
772.80 0.1876
772.90 0.1875
773.00 0.1874
773.10 0.1873
773.20 0.1872
773.30 0.1871
773.40 0.187
773.50 0.1869
773.60 0.1868
773.70 0.1867
773.80 0.1866
773.90 0.1866
774.00 0.1865
774.10 0.1864
774.20 0.1863
774.30 0.1862
774.40 0.1861
774.50 0.186
774.60 0.1859
774.70 0.1858
774.80 0.1857
774.90 0.1856
775.00 0.1855
775.10 0.1854
775.20 0.1853
775.30 0.1853
775.40 0.1852
775.50 0.1851
775.60 0.185
775.70 0.1849
775.80 0.1848
775.90 0.1847
776.00 0.1846
776.10 0.1845
776.20 0.1844
776.30 0.1843
776.40 0.1842
776.50 0.1841
776.60 0.1841
776.70 0.184
776.80 0.1839
776.90 0.1838
777.00 0.1837
777.10 0.1836
777.20 0.1835
777.30 0.1834
777.40 0.1833
777.50 0.1832
777.60 0.1831
777.70 0.183
777.80 0.183
777.90 0.1829
778.00 0.1828
778.10 0.1827
778.20 0.1826
778.30 0.1825
778.40 0.1824
778.50 0.1823
778.60 0.1822
778.70 0.1821
778.80 0.182
778.90 0.1819
779.00 0.1819
779.10 0.1818
779.20 0.1817
779.30 0.1816
779.40 0.1815
779.50 0.1814
779.60 0.1813
779.70 0.1812
779.80 0.1811
779.90 0.181
780.00 0.1809
780.10 0.1809
780.20 0.1808
780.30 0.1807
780.40 0.1806
780.50 0.1805
780.60 0.1804
780.70 0.1803
780.80 0.1802
780.90 0.1801
781.00 0.1801
781.10 0.18
781.20 0.1799
781.30 0.1798
781.40 0.1797
781.50 0.1796
781.60 0.1795
781.70 0.1794
781.80 0.1794
781.90 0.1793
782.00 0.1792
782.10 0.1791
782.20 0.179
782.30 0.1789
782.40 0.1788
782.50 0.1787
782.60 0.1786
782.70 0.1786
782.80 0.1785
782.90 0.1784
783.00 0.1783
783.10 0.1782
783.20 0.1781
783.30 0.178
783.40 0.1779
783.50 0.1779
783.60 0.1778
783.70 0.1777
783.80 0.1776
783.90 0.1775
784.00 0.1774
784.10 0.1773
784.20 0.1772
784.30 0.1772
784.40 0.1771
784.50 0.177
784.60 0.1769
784.70 0.1768
784.80 0.1767
784.90 0.1766
785.00 0.1765
785.10 0.1765
785.20 0.1764
785.30 0.1763
785.40 0.1762
785.50 0.1761
785.60 0.176
785.70 0.1759
785.80 0.1759
785.90 0.1758
786.00 0.1757
786.10 0.1756
786.20 0.1755
786.30 0.1754
786.40 0.1753
786.50 0.1752
786.60 0.1752
786.70 0.1751
786.80 0.175
786.90 0.1749
787.00 0.1748
787.10 0.1747
787.20 0.1746
787.30 0.1746
787.40 0.1745
787.50 0.1744
787.60 0.1743
787.70 0.1742
787.80 0.1741
787.90 0.174
788.00 0.174
788.10 0.1739
788.20 0.1738
788.30 0.1737
788.40 0.1736
788.50 0.1735
788.60 0.1734
788.70 0.1734
788.80 0.1733
788.90 0.1732
789.00 0.1731
789.10 0.173
789.20 0.1729
789.30 0.1728
789.40 0.1728
789.50 0.1727
789.60 0.1726
789.70 0.1725
789.80 0.1724
789.90 0.1723
790.00 0.1722
790.10 0.1722
790.20 0.1721
790.30 0.172
790.40 0.1719
790.50 0.1718
790.60 0.1717
790.70 0.1717
790.80 0.1716
790.90 0.1715
791.00 0.1714
791.10 0.1713
791.20 0.1712
791.30 0.1712
791.40 0.1711
791.50 0.171
791.60 0.1709
791.70 0.1708
791.80 0.1707
791.90 0.1707
792.00 0.1706
792.10 0.1705
792.20 0.1704
792.30 0.1703
792.40 0.1702
792.50 0.1702
792.60 0.1701
792.70 0.17
792.80 0.1699
792.90 0.1698
793.00 0.1698
793.10 0.1697
793.20 0.1696
793.30 0.1695
793.40 0.1694
793.50 0.1693
793.60 0.1693
793.70 0.1692
793.80 0.1691
793.90 0.169
794.00 0.1689
794.10 0.1688
794.20 0.1688
794.30 0.1687
794.40 0.1686
794.50 0.1685
794.60 0.1684
794.70 0.1684
794.80 0.1683
794.90 0.1682
795.00 0.1681
795.10 0.168
795.20 0.1679
795.30 0.1679
795.40 0.1678
795.50 0.1677
795.60 0.1676
795.70 0.1675
795.80 0.1675
795.90 0.1674
796.00 0.1673
796.10 0.1672
796.20 0.1671
796.30 0.167
796.40 0.167
796.50 0.1669
796.60 0.1668
796.70 0.1667
796.80 0.1666
796.90 0.1666
797.00 0.1665
797.10 0.1664
797.20 0.1663
797.30 0.1662
797.40 0.1662
797.50 0.1661
797.60 0.166
797.70 0.1659
797.80 0.1658
797.90 0.1657
798.00 0.1657
798.10 0.1656
798.20 0.1655
798.30 0.1654
798.40 0.1653
798.50 0.1653
798.60 0.1652
798.70 0.1651
798.80 0.165
798.90 0.1649
799.00 0.1649
799.10 0.1648
799.20 0.1647
799.30 0.1646
799.40 0.1645
799.50 0.1645
799.60 0.1644
799.70 0.1643
799.80 0.1642
799.90 0.1641
800.00 0.1641
800.10 0.164
800.20 0.1639
800.30 0.1638
800.40 0.1637
800.50 0.1637
800.60 0.1636
800.70 0.1635
800.80 0.1634
800.90 0.1633
801.00 0.1633
801.10 0.1632
801.20 0.1631
801.30 0.163
801.40 0.163
801.50 0.1629
801.60 0.1628
801.70 0.1627
801.80 0.1626
801.90 0.1626
802.00 0.1625
802.10 0.1624
802.20 0.1623
802.30 0.1623
802.40 0.1622
802.50 0.1621
802.60 0.162
802.70 0.1619
802.80 0.1619
802.90 0.1618
803.00 0.1617
803.10 0.1616
803.20 0.1616
803.30 0.1615
803.40 0.1614
803.50 0.1613
803.60 0.1612
803.70 0.1612
803.80 0.1611
803.90 0.161
804.00 0.1609
804.10 0.1609
804.20 0.1608
804.30 0.1607
804.40 0.1606
804.50 0.1605
804.60 0.1605
804.70 0.1604
804.80 0.1603
804.90 0.1602
805.00 0.1602
805.10 0.1601
805.20 0.16
805.30 0.1599
805.40 0.1599
805.50 0.1598
805.60 0.1597
805.70 0.1596
805.80 0.1595
805.90 0.1595
806.00 0.1594
806.10 0.1593
806.20 0.1592
806.30 0.1592
806.40 0.1591
806.50 0.159
806.60 0.1589
806.70 0.1589
806.80 0.1588
806.90 0.1587
807.00 0.1586
807.10 0.1586
807.20 0.1585
807.30 0.1584
807.40 0.1583
807.50 0.1582
807.60 0.1582
807.70 0.1581
807.80 0.158
807.90 0.1579
808.00 0.1579
808.10 0.1578
808.20 0.1577
808.30 0.1576
808.40 0.1576
808.50 0.1575
808.60 0.1574
808.70 0.1573
808.80 0.1573
808.90 0.1572
809.00 0.1571
809.10 0.157
809.20 0.157
809.30 0.1569
809.40 0.1568
809.50 0.1567
809.60 0.1567
809.70 0.1566
809.80 0.1565
809.90 0.1564
810.00 0.1564
810.10 0.1563
810.20 0.1562
810.30 0.1561
810.40 0.1561
810.50 0.156
810.60 0.1559
810.70 0.1558
810.80 0.1558
810.90 0.1557
811.00 0.1556
811.10 0.1555
811.20 0.1555
811.30 0.1554
811.40 0.1553
811.50 0.1552
811.60 0.1552
811.70 0.1551
811.80 0.155
811.90 0.1549
812.00 0.1549
812.10 0.1548
812.20 0.1547
812.30 0.1547
812.40 0.1546
812.50 0.1545
812.60 0.1544
812.70 0.1544
812.80 0.1543
812.90 0.1542
813.00 0.1541
813.10 0.1541
813.20 0.154
813.30 0.1539
813.40 0.1538
813.50 0.1538
813.60 0.1537
813.70 0.1536
813.80 0.1536
813.90 0.1535
814.00 0.1534
814.10 0.1533
814.20 0.1533
814.30 0.1532
814.40 0.1531
814.50 0.153
814.60 0.153
814.70 0.1529
814.80 0.1528
814.90 0.1528
815.00 0.1527
815.10 0.1526
815.20 0.1525
815.30 0.1525
815.40 0.1524
815.50 0.1523
815.60 0.1522
815.70 0.1522
815.80 0.1521
815.90 0.152
816.00 0.152
816.10 0.1519
816.20 0.1518
816.30 0.1517
816.40 0.1517
816.50 0.1516
816.60 0.1515
816.70 0.1515
816.80 0.1514
816.90 0.1513
817.00 0.1512
817.10 0.1512
817.20 0.1511
817.30 0.151
817.40 0.151
817.50 0.1509
817.60 0.1508
817.70 0.1507
817.80 0.1507
817.90 0.1506
818.00 0.1505
818.10 0.1504
818.20 0.1504
818.30 0.1503
818.40 0.1502
818.50 0.1502
818.60 0.1501
818.70 0.15
818.80 0.1499
818.90 0.1499
819.00 0.1498
819.10 0.1497
819.20 0.1497
819.30 0.1496
819.40 0.1495
819.50 0.1494
819.60 0.1494
819.70 0.1493
819.80 0.1492
819.90 0.1492
820.00 0.1491
820.10 0.149
820.20 0.149
820.30 0.1489
820.40 0.1488
820.50 0.1487
820.60 0.1487
820.70 0.1486
820.80 0.1485
820.90 0.1485
821.00 0.1484
821.10 0.1483
821.20 0.1483
821.30 0.1482
821.40 0.1481
821.50 0.148
821.60 0.148
821.70 0.1479
821.80 0.1478
821.90 0.1478
822.00 0.1477
822.10 0.1476
822.20 0.1476
822.30 0.1475
822.40 0.1474
822.50 0.1473
822.60 0.1473
822.70 0.1472
822.80 0.1471
822.90 0.1471
823.00 0.147
823.10 0.1469
823.20 0.1469
823.30 0.1468
823.40 0.1467
823.50 0.1467
823.60 0.1466
823.70 0.1465
823.80 0.1464
823.90 0.1464
824.00 0.1463
824.10 0.1462
824.20 0.1462
824.30 0.1461
824.40 0.146
824.50 0.146
824.60 0.1459
824.70 0.1458
824.80 0.1458
824.90 0.1457
825.00 0.1456
825.10 0.1456
825.20 0.1455
825.30 0.1454
825.40 0.1454
825.50 0.1453
825.60 0.1452
825.70 0.1451
825.80 0.1451
825.90 0.145
826.00 0.1449
826.10 0.1449
826.20 0.1448
826.30 0.1447
826.40 0.1447
826.50 0.1446
826.60 0.1445
826.70 0.1445
826.80 0.1444
826.90 0.1443
827.00 0.1443
827.10 0.1442
827.20 0.1441
827.30 0.1441
827.40 0.144
827.50 0.1439
827.60 0.1439
827.70 0.1438
827.80 0.1437
827.90 0.1437
828.00 0.1436
828.10 0.1435
828.20 0.1435
828.30 0.1434
828.40 0.1433
828.50 0.1433
828.60 0.1432
828.70 0.1431
828.80 0.1431
828.90 0.143
829.00 0.1429
829.10 0.1429
829.20 0.1428
829.30 0.1427
829.40 0.1427
829.50 0.1426
829.60 0.1425
829.70 0.1425
829.80 0.1424
829.90 0.1423
830.00 0.1423
830.10 0.1422
830.20 0.1421
830.30 0.1421
830.40 0.142
830.50 0.1419
830.60 0.1419
830.70 0.1418
830.80 0.1417
830.90 0.1417
831.00 0.1416
831.10 0.1415
831.20 0.1415
831.30 0.1414
831.40 0.1413
831.50 0.1413
831.60 0.1412
831.70 0.1411
831.80 0.1411
831.90 0.141
832.00 0.1409
832.10 0.1409
832.20 0.1408
832.30 0.1407
832.40 0.1407
832.50 0.1406
832.60 0.1405
832.70 0.1405
832.80 0.1404
832.90 0.1403
833.00 0.1403
833.10 0.1402
833.20 0.1401
833.30 0.1401
833.40 0.14
833.50 0.1399
833.60 0.1399
833.70 0.1398
833.80 0.1398
833.90 0.1397
834.00 0.1396
834.10 0.1396
834.20 0.1395
834.30 0.1394
834.40 0.1394
834.50 0.1393
834.60 0.1392
834.70 0.1392
834.80 0.1391
834.90 0.139
835.00 0.139
835.10 0.1389
835.20 0.1388
835.30 0.1388
835.40 0.1387
835.50 0.1386
835.60 0.1386
835.70 0.1385
835.80 0.1385
835.90 0.1384
836.00 0.1383
836.10 0.1383
836.20 0.1382
836.30 0.1381
836.40 0.1381
836.50 0.138
836.60 0.1379
836.70 0.1379
836.80 0.1378
836.90 0.1377
837.00 0.1377
837.10 0.1376
837.20 0.1376
837.30 0.1375
837.40 0.1374
837.50 0.1374
837.60 0.1373
837.70 0.1372
837.80 0.1372
837.90 0.1371
838.00 0.137
838.10 0.137
838.20 0.1369
838.30 0.1369
838.40 0.1368
838.50 0.1367
838.60 0.1367
838.70 0.1366
838.80 0.1365
838.90 0.1365
839.00 0.1364
839.10 0.1363
839.20 0.1363
839.30 0.1362
839.40 0.1362
839.50 0.1361
839.60 0.136
839.70 0.136
839.80 0.1359
839.90 0.1358
840.00 0.1358
840.10 0.1357
840.20 0.1357
840.30 0.1356
840.40 0.1355
840.50 0.1355
840.60 0.1354
840.70 0.1353
840.80 0.1353
840.90 0.1352
841.00 0.1352
841.10 0.1351
841.20 0.135
841.30 0.135
841.40 0.1349
841.50 0.1348
841.60 0.1348
841.70 0.1347
841.80 0.1347
841.90 0.1346
842.00 0.1345
842.10 0.1345
842.20 0.1344
842.30 0.1343
842.40 0.1343
842.50 0.1342
842.60 0.1342
842.70 0.1341
842.80 0.134
842.90 0.134
843.00 0.1339
843.10 0.1338
843.20 0.1338
843.30 0.1337
843.40 0.1337
843.50 0.1336
843.60 0.1335
843.70 0.1335
843.80 0.1334
843.90 0.1334
844.00 0.1333
844.10 0.1332
844.20 0.1332
844.30 0.1331
844.40 0.1331
844.50 0.133
844.60 0.1329
844.70 0.1329
844.80 0.1328
844.90 0.1327
845.00 0.1327
845.10 0.1326
845.20 0.1326
845.30 0.1325
845.40 0.1324
845.50 0.1324
845.60 0.1323
845.70 0.1323
845.80 0.1322
845.90 0.1321
846.00 0.1321
846.10 0.132
846.20 0.132
846.30 0.1319
846.40 0.1318
846.50 0.1318
846.60 0.1317
846.70 0.1316
846.80 0.1316
846.90 0.1315
847.00 0.1315
847.10 0.1314
847.20 0.1313
847.30 0.1313
847.40 0.1312
847.50 0.1312
847.60 0.1311
847.70 0.131
847.80 0.131
847.90 0.1309
848.00 0.1309
848.10 0.1308
848.20 0.1307
848.30 0.1307
848.40 0.1306
848.50 0.1306
848.60 0.1305
848.70 0.1304
848.80 0.1304
848.90 0.1303
849.00 0.1303
849.10 0.1302
849.20 0.1302
849.30 0.1301
849.40 0.13
849.50 0.13
849.60 0.1299
849.70 0.1299
849.80 0.1298
849.90 0.1297
850.00 0.1297
850.10 0.1296
850.20 0.1296
850.30 0.1295
850.40 0.1294
850.50 0.1294
850.60 0.1293
850.70 0.1293
850.80 0.1292
850.90 0.1291
851.00 0.1291
851.10 0.129
851.20 0.129
851.30 0.1289
851.40 0.1288
851.50 0.1288
851.60 0.1287
851.70 0.1287
851.80 0.1286
851.90 0.1286
852.00 0.1285
852.10 0.1284
852.20 0.1284
852.30 0.1283
852.40 0.1283
852.50 0.1282
852.60 0.1281
852.70 0.1281
852.80 0.128
852.90 0.128
853.00 0.1279
853.10 0.1279
853.20 0.1278
853.30 0.1277
853.40 0.1277
853.50 0.1276
853.60 0.1276
853.70 0.1275
853.80 0.1274
853.90 0.1274
854.00 0.1273
854.10 0.1273
854.20 0.1272
854.30 0.1272
854.40 0.1271
854.50 0.127
854.60 0.127
854.70 0.1269
854.80 0.1269
854.90 0.1268
855.00 0.1268
855.10 0.1267
855.20 0.1266
855.30 0.1266
855.40 0.1265
855.50 0.1265
855.60 0.1264
855.70 0.1263
855.80 0.1263
855.90 0.1262
856.00 0.1262
856.10 0.1261
856.20 0.1261
856.30 0.126
856.40 0.1259
856.50 0.1259
856.60 0.1258
856.70 0.1258
856.80 0.1257
856.90 0.1257
857.00 0.1256
857.10 0.1255
857.20 0.1255
857.30 0.1254
857.40 0.1254
857.50 0.1253
857.60 0.1253
857.70 0.1252
857.80 0.1251
857.90 0.1251
858.00 0.125
858.10 0.125
858.20 0.1249
858.30 0.1249
858.40 0.1248
858.50 0.1248
858.60 0.1247
858.70 0.1246
858.80 0.1246
858.90 0.1245
859.00 0.1245
859.10 0.1244
859.20 0.1244
859.30 0.1243
859.40 0.1242
859.50 0.1242
859.60 0.1241
859.70 0.1241
859.80 0.124
859.90 0.124
860.00 0.1239
860.10 0.1239
860.20 0.1238
860.30 0.1237
860.40 0.1237
860.50 0.1236
860.60 0.1236
860.70 0.1235
860.80 0.1235
860.90 0.1234
861.00 0.1234
861.10 0.1233
861.20 0.1232
861.30 0.1232
861.40 0.1231
861.50 0.1231
861.60 0.123
861.70 0.123
861.80 0.1229
861.90 0.1229
862.00 0.1228
862.10 0.1227
862.20 0.1227
862.30 0.1226
862.40 0.1226
862.50 0.1225
862.60 0.1225
862.70 0.1224
862.80 0.1224
862.90 0.1223
863.00 0.1222
863.10 0.1222
863.20 0.1221
863.30 0.1221
863.40 0.122
863.50 0.122
863.60 0.1219
863.70 0.1219
863.80 0.1218
863.90 0.1218
864.00 0.1217
864.10 0.1216
864.20 0.1216
864.30 0.1215
864.40 0.1215
864.50 0.1214
864.60 0.1214
864.70 0.1213
864.80 0.1213
864.90 0.1212
865.00 0.1212
865.10 0.1211
865.20 0.121
865.30 0.121
865.40 0.1209
865.50 0.1209
865.60 0.1208
865.70 0.1208
865.80 0.1207
865.90 0.1207
866.00 0.1206
866.10 0.1206
866.20 0.1205
866.30 0.1205
866.40 0.1204
866.50 0.1203
866.60 0.1203
866.70 0.1202
866.80 0.1202
866.90 0.1201
867.00 0.1201
867.10 0.12
867.20 0.12
867.30 0.1199
867.40 0.1199
867.50 0.1198
867.60 0.1198
867.70 0.1197
867.80 0.1196
867.90 0.1196
868.00 0.1195
868.10 0.1195
868.20 0.1194
868.30 0.1194
868.40 0.1193
868.50 0.1193
868.60 0.1192
868.70 0.1192
868.80 0.1191
868.90 0.1191
869.00 0.119
869.10 0.119
869.20 0.1189
869.30 0.1188
869.40 0.1188
869.50 0.1187
869.60 0.1187
869.70 0.1186
869.80 0.1186
869.90 0.1185
870.00 0.1185
870.10 0.1184
870.20 0.1184
870.30 0.1183
870.40 0.1183
870.50 0.1182
870.60 0.1182
870.70 0.1181
870.80 0.1181
870.90 0.118
871.00 0.1179
871.10 0.1179
871.20 0.1178
871.30 0.1178
871.40 0.1177
871.50 0.1177
871.60 0.1176
871.70 0.1176
871.80 0.1175
871.90 0.1175
872.00 0.1174
872.10 0.1174
872.20 0.1173
872.30 0.1173
872.40 0.1172
872.50 0.1172
872.60 0.1171
872.70 0.1171
872.80 0.117
872.90 0.117
873.00 0.1169
873.10 0.1169
873.20 0.1168
873.30 0.1168
873.40 0.1167
873.50 0.1166
873.60 0.1166
873.70 0.1165
873.80 0.1165
873.90 0.1164
874.00 0.1164
874.10 0.1163
874.20 0.1163
874.30 0.1162
874.40 0.1162
874.50 0.1161
874.60 0.1161
874.70 0.116
874.80 0.116
874.90 0.1159
875.00 0.1159
875.10 0.1158
875.20 0.1158
875.30 0.1157
875.40 0.1157
875.50 0.1156
875.60 0.1156
875.70 0.1155
875.80 0.1155
875.90 0.1154
876.00 0.1154
876.10 0.1153
876.20 0.1153
876.30 0.1152
876.40 0.1152
876.50 0.1151
876.60 0.1151
876.70 0.115
876.80 0.115
876.90 0.1149
877.00 0.1149
877.10 0.1148
877.20 0.1148
877.30 0.1147
877.40 0.1147
877.50 0.1146
877.60 0.1146
877.70 0.1145
877.80 0.1145
877.90 0.1144
878.00 0.1144
878.10 0.1143
878.20 0.1143
878.30 0.1142
878.40 0.1142
878.50 0.1141
878.60 0.114
878.70 0.114
878.80 0.1139
878.90 0.1139
879.00 0.1138
879.10 0.1138
879.20 0.1137
879.30 0.1137
879.40 0.1136
879.50 0.1136
879.60 0.1135
879.70 0.1135
879.80 0.1134
879.90 0.1134
880.00 0.1133
880.10 0.1133
880.20 0.1132
880.30 0.1132
880.40 0.1132
880.50 0.1131
880.60 0.1131
880.70 0.113
880.80 0.113
880.90 0.1129
881.00 0.1129
881.10 0.1128
881.20 0.1128
881.30 0.1127
881.40 0.1127
881.50 0.1126
881.60 0.1126
881.70 0.1125
881.80 0.1125
881.90 0.1124
882.00 0.1124
882.10 0.1123
882.20 0.1123
882.30 0.1122
882.40 0.1122
882.50 0.1121
882.60 0.1121
882.70 0.112
882.80 0.112
882.90 0.1119
883.00 0.1119
883.10 0.1118
883.20 0.1118
883.30 0.1117
883.40 0.1117
883.50 0.1116
883.60 0.1116
883.70 0.1115
883.80 0.1115
883.90 0.1114
884.00 0.1114
884.10 0.1113
884.20 0.1113
884.30 0.1112
884.40 0.1112
884.50 0.1111
884.60 0.1111
884.70 0.111
884.80 0.111
884.90 0.1109
885.00 0.1109
885.10 0.1109
885.20 0.1108
885.30 0.1108
885.40 0.1107
885.50 0.1107
885.60 0.1106
885.70 0.1106
885.80 0.1105
885.90 0.1105
886.00 0.1104
886.10 0.1104
886.20 0.1103
886.30 0.1103
886.40 0.1102
886.50 0.1102
886.60 0.1101
886.70 0.1101
886.80 0.11
886.90 0.11
887.00 0.1099
887.10 0.1099
887.20 0.1098
887.30 0.1098
887.40 0.1097
887.50 0.1097
887.60 0.1097
887.70 0.1096
887.80 0.1096
887.90 0.1095
888.00 0.1095
888.10 0.1094
888.20 0.1094
888.30 0.1093
888.40 0.1093
888.50 0.1092
888.60 0.1092
888.70 0.1091
888.80 0.1091
888.90 0.109
889.00 0.109
889.10 0.1089
889.20 0.1089
889.30 0.1088
889.40 0.1088
889.50 0.1088
889.60 0.1087
889.70 0.1087
889.80 0.1086
889.90 0.1086
890.00 0.1085
890.10 0.1085
890.20 0.1084
890.30 0.1084
890.40 0.1083
890.50 0.1083
890.60 0.1082
890.70 0.1082
890.80 0.1081
890.90 0.1081
891.00 0.108
891.10 0.108
891.20 0.1079
891.30 0.1079
891.40 0.1079
891.50 0.1078
891.60 0.1078
891.70 0.1077
891.80 0.1077
891.90 0.1076
892.00 0.1076
892.10 0.1075
892.20 0.1075
892.30 0.1074
892.40 0.1074
892.50 0.1073
892.60 0.1073
892.70 0.1072
892.80 0.1072
892.90 0.1072
893.00 0.1071
893.10 0.1071
893.20 0.107
893.30 0.107
893.40 0.1069
893.50 0.1069
893.60 0.1068
893.70 0.1068
893.80 0.1067
893.90 0.1067
894.00 0.1066
894.10 0.1066
894.20 0.1066
894.30 0.1065
894.40 0.1065
894.50 0.1064
894.60 0.1064
894.70 0.1063
894.80 0.1063
894.90 0.1062
895.00 0.1062
895.10 0.1061
895.20 0.1061
895.30 0.106
895.40 0.106
895.50 0.106
895.60 0.1059
895.70 0.1059
895.80 0.1058
895.90 0.1058
896.00 0.1057
896.10 0.1057
896.20 0.1056
896.30 0.1056
896.40 0.1055
896.50 0.1055
896.60 0.1054
896.70 0.1054
896.80 0.1054
896.90 0.1053
897.00 0.1053
897.10 0.1052
897.20 0.1052
897.30 0.1051
897.40 0.1051
897.50 0.105
897.60 0.105
897.70 0.1049
897.80 0.1049
897.90 0.1049
898.00 0.1048
898.10 0.1048
898.20 0.1047
898.30 0.1047
898.40 0.1046
898.50 0.1046
898.60 0.1045
898.70 0.1045
898.80 0.1045
898.90 0.1044
899.00 0.1044
899.10 0.1043
899.20 0.1043
899.30 0.1042
899.40 0.1042
899.50 0.1041
899.60 0.1041
899.70 0.1041
899.80 0.104
899.90 0.104
900.00 0.1039
900.10 0.1039
900.20 0.1038
900.30 0.1038
900.40 0.1037
900.50 0.1037
900.60 0.1037
900.70 0.1036
900.80 0.1036
900.90 0.1035
901.00 0.1035
901.10 0.1034
901.20 0.1034
901.30 0.1033
901.40 0.1033
901.50 0.1033
901.60 0.1032
901.70 0.1032
901.80 0.1031
901.90 0.1031
902.00 0.103
902.10 0.103
902.20 0.103
902.30 0.1029
902.40 0.1029
902.50 0.1028
902.60 0.1028
902.70 0.1027
902.80 0.1027
902.90 0.1026
903.00 0.1026
903.10 0.1026
903.20 0.1025
903.30 0.1025
903.40 0.1024
903.50 0.1024
903.60 0.1023
903.70 0.1023
903.80 0.1023
903.90 0.1022
904.00 0.1022
904.10 0.1021
904.20 0.1021
904.30 0.102
904.40 0.102
904.50 0.102
904.60 0.1019
904.70 0.1019
904.80 0.1018
904.90 0.1018
905.00 0.1017
905.10 0.1017
905.20 0.1016
905.30 0.1016
905.40 0.1016
905.50 0.1015
905.60 0.1015
905.70 0.1014
905.80 0.1014
905.90 0.1013
906.00 0.1013
906.10 0.1013
906.20 0.1012
906.30 0.1012
906.40 0.1011
906.50 0.1011
906.60 0.101
906.70 0.101
906.80 0.101
906.90 0.1009
907.00 0.1009
907.10 0.1008
907.20 0.1008
907.30 0.1007
907.40 0.1007
907.50 0.1007
907.60 0.1006
907.70 0.1006
907.80 0.1005
907.90 0.1005
908.00 0.1004
908.10 0.1004
908.20 0.1004
908.30 0.1003
908.40 0.1003
908.50 0.1002
908.60 0.1002
908.70 0.1002
908.80 0.1001
908.90 0.1001
909.00 0.1
909.10 0.09998
909.20 0.09994
909.30 0.0999
909.40 0.09985
909.50 0.09981
909.60 0.09977
909.70 0.09973
909.80 0.09968
909.90 0.09964
910.00 0.0996
910.10 0.09956
910.20 0.09952
910.30 0.09947
910.40 0.09943
910.50 0.09939
910.60 0.09935
910.70 0.0993
910.80 0.09926
910.90 0.09922
911.00 0.09918
911.10 0.09914
911.20 0.09909
911.30 0.09905
911.40 0.09901
911.50 0.09897
911.60 0.09892
911.70 0.09888
911.80 0.09884
911.90 0.0988
912.00 0.09876
912.10 0.09871
912.20 0.09867
912.30 0.09863
912.40 0.09858
912.50 0.09854
912.60 0.0985
912.70 0.09846
912.80 0.09841
912.90 0.09837
913.00 0.09833
913.10 0.09828
913.20 0.09824
913.30 0.0982
913.40 0.09816
913.50 0.09811
913.60 0.09807
913.70 0.09803
913.80 0.09798
913.90 0.09794
914.00 0.0979
914.10 0.09786
914.20 0.09781
914.30 0.09777
914.40 0.09773
914.50 0.09769
914.60 0.09764
914.70 0.0976
914.80 0.09756
914.90 0.09751
915.00 0.09747
915.10 0.09743
915.20 0.09739
915.30 0.09734
915.40 0.0973
915.50 0.09726
915.60 0.09722
915.70 0.09717
915.80 0.09713
915.90 0.09709
916.00 0.09705
916.10 0.09701
916.20 0.09696
916.30 0.09692
916.40 0.09688
916.50 0.09684
916.60 0.09679
916.70 0.09675
916.80 0.09671
916.90 0.09667
917.00 0.09662
917.10 0.09658
917.20 0.09654
917.30 0.0965
917.40 0.09646
917.50 0.09642
917.60 0.09637
917.70 0.09633
917.80 0.09629
917.90 0.09625
918.00 0.09621
918.10 0.09617
918.20 0.09612
918.30 0.09608
918.40 0.09604
918.50 0.096
918.60 0.09596
918.70 0.09592
918.80 0.09587
918.90 0.09583
919.00 0.09579
919.10 0.09575
919.20 0.09571
919.30 0.09567
919.40 0.09563
919.50 0.09558
919.60 0.09554
919.70 0.0955
919.80 0.09546
919.90 0.09542
920.00 0.09538
920.10 0.09534
920.20 0.0953
920.30 0.09525
920.40 0.09521
920.50 0.09517
920.60 0.09513
920.70 0.09509
920.80 0.09505
920.90 0.09501
921.00 0.09497
921.10 0.09492
921.20 0.09488
921.30 0.09484
921.40 0.0948
921.50 0.09476
921.60 0.09472
921.70 0.09468
921.80 0.09464
921.90 0.0946
922.00 0.09456
922.10 0.09452
922.20 0.09448
922.30 0.09444
922.40 0.0944
922.50 0.09436
922.60 0.09433
922.70 0.09429
922.80 0.09425
922.90 0.09421
923.00 0.09417
923.10 0.09413
923.20 0.0941
923.30 0.09406
923.40 0.09402
923.50 0.09398
923.60 0.09394
923.70 0.09391
923.80 0.09387
923.90 0.09383
924.00 0.09379
924.10 0.09375
924.20 0.09371
924.30 0.09368
924.40 0.09364
924.50 0.0936
924.60 0.09356
924.70 0.09352
924.80 0.09349
924.90 0.09345
925.00 0.09341
925.10 0.09337
925.20 0.09334
925.30 0.0933
925.40 0.09326
925.50 0.09322
925.60 0.09318
925.70 0.09315
925.80 0.09311
925.90 0.09307
926.00 0.09303
926.10 0.09299
926.20 0.09296
926.30 0.09292
926.40 0.09288
926.50 0.09284
926.60 0.09281
926.70 0.09277
926.80 0.09273
926.90 0.09269
927.00 0.09266
927.10 0.09262
927.20 0.09258
927.30 0.09255
927.40 0.09251
927.50 0.09247
927.60 0.09244
927.70 0.0924
927.80 0.09237
927.90 0.09233
928.00 0.09229
928.10 0.09226
928.20 0.09222
928.30 0.09219
928.40 0.09215
928.50 0.09211
928.60 0.09208
928.70 0.09204
928.80 0.09201
928.90 0.09197
929.00 0.09193
929.10 0.0919
929.20 0.09186
929.30 0.09183
929.40 0.09179
929.50 0.09175
929.60 0.09172
929.70 0.09168
929.80 0.09165
929.90 0.09161
930.00 0.09158
930.10 0.09154
930.20 0.0915
930.30 0.09147
930.40 0.09143
930.50 0.0914
930.60 0.09136
930.70 0.09133
930.80 0.09129
930.90 0.09125
931.00 0.09122
931.10 0.09118
931.20 0.09115
931.30 0.09111
931.40 0.09108
931.50 0.09104
931.60 0.091
931.70 0.09097
931.80 0.09093
931.90 0.0909
932.00 0.09086
932.10 0.09083
932.20 0.09079
932.30 0.09075
932.40 0.09072
932.50 0.09068
932.60 0.09064
932.70 0.09061
932.80 0.09057
932.90 0.09054
933.00 0.0905
933.10 0.09046
933.20 0.09043
933.30 0.09039
933.40 0.09035
933.50 0.09032
933.60 0.09028
933.70 0.09025
933.80 0.09021
933.90 0.09017
934.00 0.09014
934.10 0.0901
934.20 0.09006
934.30 0.09003
934.40 0.08999
934.50 0.08995
934.60 0.08992
934.70 0.08988
934.80 0.08984
934.90 0.08981
935.00 0.08977
935.10 0.08973
935.20 0.0897
935.30 0.08966
935.40 0.08962
935.50 0.08959
935.60 0.08955
935.70 0.08951
935.80 0.08948
935.90 0.08944
936.00 0.0894
936.10 0.08937
936.20 0.08933
936.30 0.08929
936.40 0.08926
936.50 0.08922
936.60 0.08918
936.70 0.08915
936.80 0.08911
936.90 0.08907
937.00 0.08904
937.10 0.089
937.20 0.08896
937.30 0.08893
937.40 0.08889
937.50 0.08885
937.60 0.08882
937.70 0.08878
937.80 0.08874
937.90 0.0887
938.00 0.08867
938.10 0.08863
938.20 0.08859
938.30 0.08856
938.40 0.08852
938.50 0.08848
938.60 0.08844
938.70 0.08841
938.80 0.08837
938.90 0.08833
939.00 0.08829
939.10 0.08826
939.20 0.08822
939.30 0.08818
939.40 0.08814
939.50 0.08811
939.60 0.08807
939.70 0.08803
939.80 0.088
939.90 0.08796
940.00 0.08792
940.10 0.08788
940.20 0.08785
940.30 0.08781
940.40 0.08777
940.50 0.08773
940.60 0.0877
940.70 0.08766
940.80 0.08762
940.90 0.08758
941.00 0.08754
941.10 0.08751
941.20 0.08747
941.30 0.08743
941.40 0.08739
941.50 0.08735
941.60 0.08732
941.70 0.08728
941.80 0.08724
941.90 0.0872
942.00 0.08717
942.10 0.08713
942.20 0.08709
942.30 0.08705
942.40 0.08701
942.50 0.08697
942.60 0.08694
942.70 0.0869
942.80 0.08686
942.90 0.08682
943.00 0.08678
943.10 0.08674
943.20 0.08671
943.30 0.08667
943.40 0.08663
943.50 0.08659
943.60 0.08655
943.70 0.08651
943.80 0.08647
943.90 0.08644
944.00 0.0864
944.10 0.08636
944.20 0.08632
944.30 0.08628
944.40 0.08624
944.50 0.08621
944.60 0.08617
944.70 0.08613
944.80 0.08609
944.90 0.08605
945.00 0.08601
945.10 0.08597
945.20 0.08593
945.30 0.08589
945.40 0.08586
945.50 0.08582
945.60 0.08578
945.70 0.08574
945.80 0.0857
945.90 0.08566
946.00 0.08562
946.10 0.08558
946.20 0.08554
946.30 0.0855
946.40 0.08546
946.50 0.08542
946.60 0.08538
946.70 0.08534
946.80 0.0853
946.90 0.08526
947.00 0.08523
947.10 0.08519
947.20 0.08515
947.30 0.08511
947.40 0.08507
947.50 0.08503
947.60 0.08499
947.70 0.08495
947.80 0.08491
947.90 0.08487
948.00 0.08483
948.10 0.08479
948.20 0.08475
948.30 0.08471
948.40 0.08467
948.50 0.08463
948.60 0.08459
948.70 0.08455
948.80 0.08451
948.90 0.08447
949.00 0.08443
949.10 0.08439
949.20 0.08435
949.30 0.08431
949.40 0.08427
949.50 0.08423
949.60 0.08419
949.70 0.08415
949.80 0.08411
949.90 0.08407
950.00 0.08403
950.10 0.08399
950.20 0.08395
950.30 0.08391
950.40 0.08387
950.50 0.08383
950.60 0.08379
950.70 0.08375
950.80 0.08371
950.90 0.08367
951.00 0.08363
951.10 0.08359
951.20 0.08355
951.30 0.08351
951.40 0.08347
951.50 0.08343
951.60 0.08339
951.70 0.08335
951.80 0.08331
951.90 0.08327
952.00 0.08324
952.10 0.0832
952.20 0.08316
952.30 0.08312
952.40 0.08308
952.50 0.08305
952.60 0.08301
952.70 0.08297
952.80 0.08293
952.90 0.0829
953.00 0.08286
953.10 0.08282
953.20 0.08279
953.30 0.08275
953.40 0.08272
953.50 0.08268
953.60 0.08265
953.70 0.08261
953.80 0.08258
953.90 0.08255
954.00 0.08252
954.10 0.08249
954.20 0.08246
954.30 0.08243
954.40 0.0824
954.50 0.08237
954.60 0.08234
954.70 0.08231
954.80 0.08227
954.90 0.08223
955.00 0.08219
955.10 0.08215
955.20 0.08212
955.30 0.08209
955.40 0.08206
955.50 0.08202
955.60 0.08199
955.70 0.08196
955.80 0.08192
955.90 0.08189
956.00 0.08186
956.10 0.08183
956.20 0.08181
956.30 0.08178
956.40 0.08175
956.50 0.08172
956.60 0.08169
956.70 0.08166
956.80 0.08163
956.90 0.0816
957.00 0.08157
957.10 0.08154
957.20 0.08152
957.30 0.08149
957.40 0.08146
957.50 0.08143
957.60 0.08141
957.70 0.08138
957.80 0.08135
957.90 0.08133
958.00 0.0813
958.10 0.08127
958.20 0.08125
958.30 0.08122
958.40 0.08119
958.50 0.08117
958.60 0.08114
958.70 0.08111
958.80 0.08109
958.90 0.08106
959.00 0.08103
959.10 0.08101
959.20 0.08098
959.30 0.08095
959.40 0.08092
959.50 0.0809
959.60 0.08087
959.70 0.08084
959.80 0.08082
959.90 0.08079
960.00 0.08076
960.10 0.08074
960.20 0.08071
960.30 0.08068
960.40 0.08066
960.50 0.08063
960.60 0.0806
960.70 0.08058
960.80 0.08055
960.90 0.08052
961.00 0.0805
961.10 0.08047
961.20 0.08044
961.30 0.08042
961.40 0.08039
961.50 0.08036
961.60 0.08034
961.70 0.08031
961.80 0.08028
961.90 0.08025
962.00 0.08023
962.10 0.0802
962.20 0.08017
962.30 0.08014
962.40 0.08012
962.50 0.08009
962.60 0.08006
962.70 0.08003
962.80 0.08001
962.90 0.07998
963.00 0.07995
963.10 0.07992
963.20 0.0799
963.30 0.07987
963.40 0.07984
963.50 0.07981
963.60 0.07979
963.70 0.07976
963.80 0.07973
963.90 0.0797
964.00 0.07967
964.10 0.07965
964.20 0.07962
964.30 0.07959
964.40 0.07956
964.50 0.07953
964.60 0.0795
964.70 0.07948
964.80 0.07945
964.90 0.07942
965.00 0.07939
965.10 0.07936
965.20 0.07933
965.30 0.07931
965.40 0.07928
965.50 0.07925
965.60 0.07922
965.70 0.07919
965.80 0.07916
965.90 0.07913
966.00 0.07911
966.10 0.07908
966.20 0.07905
966.30 0.07902
966.40 0.07899
966.50 0.07896
966.60 0.07894
966.70 0.07891
966.80 0.07888
966.90 0.07885
967.00 0.07882
967.10 0.07879
967.20 0.07876
967.30 0.07873
967.40 0.0787
967.50 0.07867
967.60 0.07865
967.70 0.07862
967.80 0.07859
967.90 0.07856
968.00 0.07853
968.10 0.0785
968.20 0.07847
968.30 0.07844
968.40 0.07841
968.50 0.07838
968.60 0.07835
968.70 0.07832
968.80 0.0783
968.90 0.07827
969.00 0.07824
969.10 0.07821
969.20 0.07818
969.30 0.07815
969.40 0.07812
969.50 0.07809
969.60 0.07806
969.70 0.07803
969.80 0.078
969.90 0.07797
970.00 0.07794
970.10 0.07791
970.20 0.07788
970.30 0.07786
970.40 0.07783
970.50 0.0778
970.60 0.07777
970.70 0.07774
970.80 0.07771
970.90 0.07768
971.00 0.07765
971.10 0.07762
971.20 0.07759
971.30 0.07756
971.40 0.07753
971.50 0.0775
971.60 0.07747
971.70 0.07744
971.80 0.07741
971.90 0.07738
972.00 0.07735
972.10 0.07732
972.20 0.07729
972.30 0.07726
972.40 0.07723
972.50 0.0772
972.60 0.07717
972.70 0.07714
972.80 0.07711
972.90 0.07708
973.00 0.07705
973.10 0.07702
973.20 0.07699
973.30 0.07697
973.40 0.07694
973.50 0.07691
973.60 0.07688
973.70 0.07685
973.80 0.07682
973.90 0.07679
974.00 0.07676
974.10 0.07673
974.20 0.0767
974.30 0.07667
974.40 0.07664
974.50 0.07661
974.60 0.07658
974.70 0.07655
974.80 0.07652
974.90 0.07649
975.00 0.07646
975.10 0.07643
975.20 0.0764
975.30 0.07637
975.40 0.07634
975.50 0.07631
975.60 0.07628
975.70 0.07625
975.80 0.07622
975.90 0.07619
976.00 0.07616
976.10 0.07613
976.20 0.0761
976.30 0.07607
976.40 0.07604
976.50 0.07601
976.60 0.07598
976.70 0.07595
976.80 0.07592
976.90 0.07589
977.00 0.07586
977.10 0.07583
977.20 0.0758
977.30 0.07577
977.40 0.07574
977.50 0.07571
977.60 0.07568
977.70 0.07565
977.80 0.07562
977.90 0.07559
978.00 0.07556
978.10 0.07553
978.20 0.0755
978.30 0.07547
978.40 0.07544
978.50 0.07541
978.60 0.07538
978.70 0.07535
978.80 0.07532
978.90 0.07529
979.00 0.07526
979.10 0.07523
979.20 0.0752
979.30 0.07517
979.40 0.07514
979.50 0.07511
979.60 0.07508
979.70 0.07505
979.80 0.07502
979.90 0.07499
980.00 0.07496
980.10 0.07493
980.20 0.0749
980.30 0.07487
980.40 0.07484
980.50 0.07481
980.60 0.07478
980.70 0.07475
980.80 0.07472
980.90 0.07469
981.00 0.07466
981.10 0.07463
981.20 0.0746
981.30 0.07457
981.40 0.07454
981.50 0.07451
981.60 0.07448
981.70 0.07445
981.80 0.07442
981.90 0.07439
982.00 0.07436
982.10 0.07433
982.20 0.0743
982.30 0.07427
982.40 0.07424
982.50 0.07421
982.60 0.07418
982.70 0.07415
982.80 0.07412
982.90 0.07409
983.00 0.07406
983.10 0.07403
983.20 0.074
983.30 0.07397
983.40 0.07394
983.50 0.07391
983.60 0.07388
983.70 0.07385
983.80 0.07382
983.90 0.07379
984.00 0.07376
984.10 0.07373
984.20 0.0737
984.30 0.07367
984.40 0.07364
984.50 0.07361
984.60 0.07358
984.70 0.07355
984.80 0.07352
984.90 0.07349
985.00 0.07346
985.10 0.07343
985.20 0.0734
985.30 0.07337
985.40 0.07334
985.50 0.07331
985.60 0.07328
985.70 0.07325
985.80 0.07322
985.90 0.07319
986.00 0.07316
986.10 0.07313
986.20 0.0731
986.30 0.07307
986.40 0.07304
986.50 0.07301
986.60 0.07298
986.70 0.07295
986.80 0.07292
986.90 0.07289
987.00 0.07286
987.10 0.07283
987.20 0.0728
987.30 0.07276
987.40 0.07273
987.50 0.0727
987.60 0.07267
987.70 0.07264
987.80 0.07261
987.90 0.07258
988.00 0.07255
988.10 0.07252
988.20 0.07249
988.30 0.07246
988.40 0.07243
988.50 0.0724
988.60 0.07237
988.70 0.07234
988.80 0.07231
988.90 0.07228
989.00 0.07224
989.10 0.07221
989.20 0.07218
989.30 0.07215
989.40 0.07212
989.50 0.07209
989.60 0.07206
989.70 0.07203
989.80 0.072
989.90 0.07197
990.00 0.07193
990.10 0.0719
990.20 0.07187
990.30 0.07184
990.40 0.07181
990.50 0.07178
990.60 0.07175
990.70 0.07172
990.80 0.07169
990.90 0.07165
991.00 0.07162
991.10 0.07159
991.20 0.07156
991.30 0.07153
991.40 0.0715
991.50 0.07147
991.60 0.07143
991.70 0.0714
991.80 0.07137
991.90 0.07134
992.00 0.07131
992.10 0.07128
992.20 0.07124
992.30 0.07121
992.40 0.07118
992.50 0.07115
992.60 0.07112
992.70 0.07108
992.80 0.07105
992.90 0.07102
993.00 0.07099
993.10 0.07095
993.20 0.07092
993.30 0.07089
993.40 0.07085
993.50 0.07082
993.60 0.07079
993.70 0.07076
993.80 0.07072
993.90 0.07069
994.00 0.07066
994.10 0.07063
994.20 0.07059
994.30 0.07056
994.40 0.07053
994.50 0.07049
994.60 0.07046
994.70 0.07043
994.80 0.0704
994.90 0.07036
995.00 0.07033
995.10 0.07029
995.20 0.07026
995.30 0.07023
995.40 0.07019
995.50 0.07016
995.60 0.07013
995.70 0.07009
995.80 0.07006
995.90 0.07002
996.00 0.06999
996.10 0.06995
996.20 0.06992
996.30 0.06988
996.40 0.06985
996.50 0.06981
996.60 0.06978
996.70 0.06974
996.80 0.06971
996.90 0.06968
997.00 0.06964
997.10 0.0696
997.20 0.06957
997.30 0.06953
997.40 0.0695
997.50 0.06946
997.60 0.06943
997.70 0.06939
997.80 0.06935
997.90 0.06932
998.00 0.06928
998.10 0.06924
998.20 0.0692
998.30 0.06917
998.40 0.06913
998.50 0.06909
998.60 0.06906
998.70 0.06902
998.80 0.06898
998.90 0.06895
999.00 0.06891
999.10 0.06887
999.20 0.06884
999.30 0.0688
999.40 0.06876
999.50 0.06872
999.60 0.06869
999.70 0.06865
999.80 0.06861
999.90 0.06857
1000.00 0.06853
1000.10 0.06849
1000.20 0.06845
1000.30 0.06841
1000.40 0.06837
1000.50 0.06833
1000.60 0.06829
1000.70 0.06825
1000.80 0.06821
1000.90 0.06817
1001.00 0.06814
1001.10 0.0681
1001.20 0.06806
1001.30 0.06802
1001.40 0.06798
1001.50 0.06794
1001.60 0.0679
1001.70 0.06786
1001.80 0.06782
1001.90 0.06778
1002.00 0.06774
1002.10 0.06771
1002.20 0.06767
1002.30 0.06763
1002.40 0.0676
1002.50 0.06756
1002.60 0.06753
1002.70 0.06749
1002.80 0.06745
1002.90 0.06742
1003.00 0.06738
1003.10 0.06734
1003.20 0.06731
1003.30 0.06728
1003.40 0.06725
1003.50 0.06722
1003.60 0.0672
1003.70 0.06717
1003.80 0.06714
1003.90 0.06712
1004.00 0.0671
1004.10 0.06708
1004.20 0.06706
1004.30 0.06706
1004.40 0.06705
1004.50 0.06705
1004.60 0.06705
1004.70 0.06705
1004.80 0.06705
1004.90 0.06703
1005.00 0.067
1005.10 0.06696
1005.20 0.06691
1005.30 0.06686
1005.40 0.06681
1005.50 0.06677
1005.60 0.06673
1005.70 0.0667
1005.80 0.06666
1005.90 0.06662
1006.00 0.06659
1006.10 0.06655
1006.20 0.06653
1006.30 0.06651
1006.40 0.06649
1006.50 0.06647
1006.60 0.06645
1006.70 0.06643
1006.80 0.06641
1006.90 0.06639
1007.00 0.06637
1007.10 0.06635
1007.20 0.06634
1007.30 0.06632
1007.40 0.06631
1007.50 0.06629
1007.60 0.06628
1007.70 0.06627
1007.80 0.06625
1007.90 0.06624
1008.00 0.06623
1008.10 0.06621
1008.20 0.0662
1008.30 0.06619
1008.40 0.06617
1008.50 0.06616
1008.60 0.06615
1008.70 0.06613
1008.80 0.06612
1008.90 0.06611
1009.00 0.06609
1009.10 0.06608
1009.20 0.06607
1009.30 0.06605
1009.40 0.06604
1009.50 0.06603
1009.60 0.06601
1009.70 0.066
1009.80 0.06598
1009.90 0.06597
1010.00 0.06595
1010.10 0.06594
1010.20 0.06592
1010.30 0.06591
1010.40 0.06589
1010.50 0.06588
1010.60 0.06586
1010.70 0.06585
1010.80 0.06583
1010.90 0.06582
1011.00 0.0658
1011.10 0.06579
1011.20 0.06577
1011.30 0.06576
1011.40 0.06574
1011.50 0.06573
1011.60 0.06571
1011.70 0.0657
1011.80 0.06568
1011.90 0.06567
1012.00 0.06565
1012.10 0.06563
1012.20 0.06561
1012.30 0.0656
1012.40 0.06558
1012.50 0.06556
1012.60 0.06554
1012.70 0.06553
1012.80 0.06551
1012.90 0.06549
1013.00 0.06548
1013.10 0.06546
1013.20 0.06544
1013.30 0.06542
1013.40 0.06541
1013.50 0.06539
1013.60 0.06537
1013.70 0.06535
1013.80 0.06533
1013.90 0.06531
1014.00 0.0653
1014.10 0.06528
1014.20 0.06526
1014.30 0.06524
1014.40 0.06522
1014.50 0.0652
1014.60 0.06518
1014.70 0.06516
1014.80 0.06514
1014.90 0.06512
1015.00 0.0651
1015.10 0.06508
1015.20 0.06506
1015.30 0.06504
1015.40 0.06502
1015.50 0.065
1015.60 0.06498
1015.70 0.06496
1015.80 0.06494
1015.90 0.06492
1016.00 0.0649
1016.10 0.06488
1016.20 0.06486
1016.30 0.06484
1016.40 0.06482
1016.50 0.0648
1016.60 0.06479
1016.70 0.06476
1016.80 0.06474
1016.90 0.06472
1017.00 0.0647
1017.10 0.06468
1017.20 0.06466
1017.30 0.06464
1017.40 0.06462
1017.50 0.0646
1017.60 0.06457
1017.70 0.06455
1017.80 0.06453
1017.90 0.06451
1018.00 0.06449
1018.10 0.06447
1018.20 0.06445
1018.30 0.06443
1018.40 0.06441
1018.50 0.06438
1018.60 0.06436
1018.70 0.06434
1018.80 0.06432
1018.90 0.0643
1019.00 0.06428
1019.10 0.06425
1019.20 0.06423
1019.30 0.06421
1019.40 0.06419
1019.50 0.06417
1019.60 0.06414
1019.70 0.06412
1019.80 0.0641
1019.90 0.06408
1020.00 0.06406
1020.10 0.06403
1020.20 0.06401
1020.30 0.06399
1020.40 0.06397
1020.50 0.06395
1020.60 0.06393
1020.70 0.0639
1020.80 0.06388
1020.90 0.06386
1021.00 0.06384
1021.10 0.06381
1021.20 0.06379
1021.30 0.06377
1021.40 0.06375
1021.50 0.06372
1021.60 0.0637
1021.70 0.06368
1021.80 0.06366
1021.90 0.06364
1022.00 0.06361
1022.10 0.06359
1022.20 0.06357
1022.30 0.06354
1022.40 0.06352
1022.50 0.0635
1022.60 0.06348
1022.70 0.06345
1022.80 0.06343
1022.90 0.06341
1023.00 0.06339
1023.10 0.06336
1023.20 0.06334
1023.30 0.06332
1023.40 0.0633
1023.50 0.06327
1023.60 0.06325
1023.70 0.06323
1023.80 0.0632
1023.90 0.06318
1024.00 0.06316
1024.10 0.06314
1024.20 0.06311
1024.30 0.06309
1024.40 0.06307
1024.50 0.06305
1024.60 0.06302
1024.70 0.063
1024.80 0.06298
1024.90 0.06296
1025.00 0.06293
1025.10 0.06291
1025.20 0.06289
1025.30 0.06286
1025.40 0.06284
1025.50 0.06282
1025.60 0.0628
1025.70 0.06277
1025.80 0.06275
1025.90 0.06273
1026.00 0.0627
1026.10 0.06268
1026.20 0.06266
1026.30 0.06264
1026.40 0.06261
1026.50 0.06259
1026.60 0.06257
1026.70 0.06254
1026.80 0.06252
1026.90 0.0625
1027.00 0.06248
1027.10 0.06245
1027.20 0.06243
1027.30 0.06241
1027.40 0.06238
1027.50 0.06236
1027.60 0.06234
1027.70 0.06232
1027.80 0.06229
1027.90 0.06227
1028.00 0.06225
1028.10 0.06222
1028.20 0.0622
1028.30 0.06218
1028.40 0.06216
1028.50 0.06213
1028.60 0.06211
1028.70 0.06209
1028.80 0.06206
1028.90 0.06204
1029.00 0.06202
1029.10 0.06199
1029.20 0.06197
1029.30 0.06195
1029.40 0.06193
1029.50 0.0619
1029.60 0.06188
1029.70 0.06186
1029.80 0.06184
1029.90 0.06181
1030.00 0.06179
1030.10 0.06177
1030.20 0.06174
1030.30 0.06172
1030.40 0.0617
1030.50 0.06168
1030.60 0.06165
1030.70 0.06163
1030.80 0.06161
1030.90 0.06158
1031.00 0.06156
1031.10 0.06154
1031.20 0.06152
1031.30 0.06149
1031.40 0.06147
1031.50 0.06145
1031.60 0.06143
1031.70 0.0614
1031.80 0.06138
1031.90 0.06136
1032.00 0.06134
1032.10 0.06131
1032.20 0.06129
1032.30 0.06127
1032.40 0.06124
1032.50 0.06122
1032.60 0.0612
1032.70 0.06118
1032.80 0.06115
1032.90 0.06113
1033.00 0.06111
1033.10 0.06109
1033.20 0.06106
1033.30 0.06104
1033.40 0.06102
1033.50 0.06099
1033.60 0.06097
1033.70 0.06095
1033.80 0.06093
1033.90 0.0609
1034.00 0.06088
1034.10 0.06086
1034.20 0.06084
1034.30 0.06081
1034.40 0.06079
1034.50 0.06077
1034.60 0.06075
1034.70 0.06072
1034.80 0.0607
1034.90 0.06068
1035.00 0.06066
1035.10 0.06063
1035.20 0.06061
1035.30 0.06059
1035.40 0.06057
1035.50 0.06054
1035.60 0.06052
1035.70 0.0605
1035.80 0.06048
1035.90 0.06045
1036.00 0.06043
1036.10 0.06041
1036.20 0.06039
1036.30 0.06036
1036.40 0.06034
1036.50 0.06032
1036.60 0.0603
1036.70 0.06027
1036.80 0.06025
1036.90 0.06023
1037.00 0.06021
1037.10 0.06018
1037.20 0.06016
1037.30 0.06014
1037.40 0.06012
1037.50 0.06009
1037.60 0.06007
1037.70 0.06005
1037.80 0.06003
1037.90 0.06
1038.00 0.05998
1038.10 0.05996
1038.20 0.05994
1038.30 0.05992
1038.40 0.05989
1038.50 0.05987
1038.60 0.05985
1038.70 0.05983
1038.80 0.0598
1038.90 0.05978
1039.00 0.05976
1039.10 0.05974
1039.20 0.05971
1039.30 0.05969
1039.40 0.05967
1039.50 0.05965
1039.60 0.05963
1039.70 0.0596
1039.80 0.05958
1039.90 0.05956
1040.00 0.05954
1040.10 0.05952
1040.20 0.05949
1040.30 0.05947
1040.40 0.05945
1040.50 0.05943
1040.60 0.0594
1040.70 0.05938
1040.80 0.05936
1040.90 0.05934
1041.00 0.05932
1041.10 0.05929
1041.20 0.05927
1041.30 0.05925
1041.40 0.05923
1041.50 0.05921
1041.60 0.05918
1041.70 0.05916
1041.80 0.05914
1041.90 0.05912
1042.00 0.0591
1042.10 0.05907
1042.20 0.05905
1042.30 0.05903
1042.40 0.05901
1042.50 0.05899
1042.60 0.05896
1042.70 0.05894
1042.80 0.05892
1042.90 0.0589
1043.00 0.05888
1043.10 0.05885
1043.20 0.05883
1043.30 0.05881
1043.40 0.05879
1043.50 0.05877
1043.60 0.05874
1043.70 0.05872
1043.80 0.0587
1043.90 0.05868
1044.00 0.05866
1044.10 0.05864
1044.20 0.05861
1044.30 0.05859
1044.40 0.05857
1044.50 0.05855
1044.60 0.05853
1044.70 0.0585
1044.80 0.05848
1044.90 0.05846
1045.00 0.05844
1045.10 0.05842
1045.20 0.0584
1045.30 0.05837
1045.40 0.05835
1045.50 0.05833
1045.60 0.05831
1045.70 0.05829
1045.80 0.05827
1045.90 0.05824
1046.00 0.05822
1046.10 0.0582
1046.20 0.05818
1046.30 0.05816
1046.40 0.05814
1046.50 0.05811
1046.60 0.05809
1046.70 0.05807
1046.80 0.05805
1046.90 0.05803
1047.00 0.05801
1047.10 0.05798
1047.20 0.05796
1047.30 0.05794
1047.40 0.05792
1047.50 0.0579
1047.60 0.05788
1047.70 0.05785
1047.80 0.05783
1047.90 0.05781
1048.00 0.05779
1048.10 0.05777
1048.20 0.05775
1048.30 0.05773
1048.40 0.0577
1048.50 0.05768
1048.60 0.05766
1048.70 0.05764
1048.80 0.05762
1048.90 0.0576
1049.00 0.05758
1049.10 0.05755
1049.20 0.05753
1049.30 0.05751
1049.40 0.05749
1049.50 0.05747
1049.60 0.05745
1049.70 0.05743
1049.80 0.05741
1049.90 0.05738
1050.00 0.05736
1050.10 0.05734
1050.20 0.05732
1050.30 0.0573
1050.40 0.05728
1050.50 0.05726
1050.60 0.05723
1050.70 0.05721
1050.80 0.05719
1050.90 0.05717
1051.00 0.05715
1051.10 0.05713
1051.20 0.05711
1051.30 0.05709
1051.40 0.05706
1051.50 0.05704
1051.60 0.05702
1051.70 0.057
1051.80 0.05698
1051.90 0.05696
1052.00 0.05694
1052.10 0.05692
1052.20 0.0569
1052.30 0.05687
1052.40 0.05685
1052.50 0.05683
1052.60 0.05681
1052.70 0.05679
1052.80 0.05677
1052.90 0.05675
1053.00 0.05673
1053.10 0.05671
1053.20 0.05668
1053.30 0.05666
1053.40 0.05664
1053.50 0.05662
1053.60 0.0566
1053.70 0.05658
1053.80 0.05656
1053.90 0.05654
1054.00 0.05652
1054.10 0.0565
1054.20 0.05647
1054.30 0.05645
1054.40 0.05643
1054.50 0.05641
1054.60 0.05639
1054.70 0.05637
1054.80 0.05635
1054.90 0.05633
1055.00 0.05631
1055.10 0.05629
1055.20 0.05627
1055.30 0.05624
1055.40 0.05622
1055.50 0.0562
1055.60 0.05618
1055.70 0.05616
1055.80 0.05614
1055.90 0.05612
1056.00 0.0561
1056.10 0.05608
1056.20 0.05606
1056.30 0.05604
1056.40 0.05601
1056.50 0.05599
1056.60 0.05597
1056.70 0.05595
1056.80 0.05593
1056.90 0.05591
1057.00 0.05589
1057.10 0.05587
1057.20 0.05585
1057.30 0.05583
1057.40 0.05581
1057.50 0.05579
1057.60 0.05577
1057.70 0.05575
1057.80 0.05572
1057.90 0.0557
1058.00 0.05568
1058.10 0.05566
1058.20 0.05564
1058.30 0.05562
1058.40 0.0556
1058.50 0.05558
1058.60 0.05556
1058.70 0.05554
1058.80 0.05552
1058.90 0.0555
1059.00 0.05548
1059.10 0.05546
1059.20 0.05544
1059.30 0.05542
1059.40 0.05539
1059.50 0.05537
1059.60 0.05535
1059.70 0.05533
1059.80 0.05531
1059.90 0.05529
1060.00 0.05527
1060.10 0.05525
1060.20 0.05523
1060.30 0.05521
1060.40 0.05519
1060.50 0.05517
1060.60 0.05515
1060.70 0.05513
1060.80 0.05511
1060.90 0.05509
1061.00 0.05507
1061.10 0.05505
1061.20 0.05503
1061.30 0.05501
1061.40 0.05498
1061.50 0.05496
1061.60 0.05494
1061.70 0.05492
1061.80 0.0549
1061.90 0.05488
1062.00 0.05486
1062.10 0.05484
1062.20 0.05482
1062.30 0.0548
1062.40 0.05478
1062.50 0.05476
1062.60 0.05474
1062.70 0.05472
1062.80 0.0547
1062.90 0.05468
1063.00 0.05466
1063.10 0.05464
1063.20 0.05462
1063.30 0.0546
1063.40 0.05458
1063.50 0.05456
1063.60 0.05454
1063.70 0.05452
1063.80 0.0545
1063.90 0.05448
1064.00 0.05446
1064.10 0.05443
1064.20 0.05441
1064.30 0.05439
1064.40 0.05437
1064.50 0.05435
1064.60 0.05433
1064.70 0.05431
1064.80 0.05429
1064.90 0.05427
1065.00 0.05425
1065.10 0.05423
1065.20 0.05421
1065.30 0.05419
1065.40 0.05417
1065.50 0.05415
1065.60 0.05413
1065.70 0.05411
1065.80 0.05409
1065.90 0.05407
1066.00 0.05405
1066.10 0.05403
1066.20 0.05401
1066.30 0.05399
1066.40 0.05397
1066.50 0.05395
1066.60 0.05393
1066.70 0.05391
1066.80 0.05389
1066.90 0.05387
1067.00 0.05385
1067.10 0.05383
1067.20 0.05381
1067.30 0.05379
1067.40 0.05377
1067.50 0.05375
1067.60 0.05373
1067.70 0.05371
1067.80 0.05369
1067.90 0.05367
1068.00 0.05365
1068.10 0.05363
1068.20 0.05361
1068.30 0.05359
1068.40 0.05357
1068.50 0.05355
1068.60 0.05353
1068.70 0.05351
1068.80 0.05349
1068.90 0.05347
1069.00 0.05345
1069.10 0.05343
1069.20 0.05341
1069.30 0.05339
1069.40 0.05337
1069.50 0.05335
1069.60 0.05333
1069.70 0.05331
1069.80 0.05329
1069.90 0.05327
1070.00 0.05324
1070.10 0.05322
1070.20 0.0532
1070.30 0.05318
1070.40 0.05316
1070.50 0.05314
1070.60 0.05312
1070.70 0.0531
1070.80 0.05308
1070.90 0.05306
1071.00 0.05304
1071.10 0.05302
1071.20 0.053
1071.30 0.05298
1071.40 0.05296
1071.50 0.05294
1071.60 0.05292
1071.70 0.0529
1071.80 0.05289
1071.90 0.05287
1072.00 0.05285
1072.10 0.05282
1072.20 0.0528
1072.30 0.05278
1072.40 0.05276
1072.50 0.05274
1072.60 0.05272
1072.70 0.0527
1072.80 0.05268
1072.90 0.05266
1073.00 0.05264
1073.10 0.05262
1073.20 0.0526
1073.30 0.05258
1073.40 0.05256
1073.50 0.05254
1073.60 0.05252
1073.70 0.0525
1073.80 0.05248
1073.90 0.05246
1074.00 0.05244
1074.10 0.05242
1074.20 0.0524
1074.30 0.05238
1074.40 0.05236
1074.50 0.05234
1074.60 0.05232
1074.70 0.0523
1074.80 0.05228
1074.90 0.05226
1075.00 0.05224
1075.10 0.05222
1075.20 0.0522
1075.30 0.05218
1075.40 0.05216
1075.50 0.05213
1075.60 0.05211
1075.70 0.05209
1075.80 0.05207
1075.90 0.05205
1076.00 0.05203
1076.10 0.05201
1076.20 0.05199
1076.30 0.05197
1076.40 0.05195
1076.50 0.05193
1076.60 0.05191
1076.70 0.05189
1076.80 0.05187
1076.90 0.05185
1077.00 0.05183
1077.10 0.05181
1077.20 0.05179
1077.30 0.05177
1077.40 0.05175
1077.50 0.05173
1077.60 0.05171
1077.70 0.05168
1077.80 0.05166
1077.90 0.05164
1078.00 0.05162
1078.10 0.0516
1078.20 0.05158
1078.30 0.05156
1078.40 0.05154
1078.50 0.05152
1078.60 0.0515
1078.70 0.05147
1078.80 0.05145
1078.90 0.05143
1079.00 0.05141
1079.10 0.05139
1079.20 0.05137
1079.30 0.05135
1079.40 0.05133
1079.50 0.05131
1079.60 0.05128
1079.70 0.05126
1079.80 0.05124
1079.90 0.05122
1080.00 0.0512
1080.10 0.05118
1080.20 0.05115
1080.30 0.05113
1080.40 0.05111
1080.50 0.05109
1080.60 0.05107
1080.70 0.05104
1080.80 0.05102
1080.90 0.051
1081.00 0.05098
1081.10 0.05096
1081.20 0.05094
1081.30 0.05091
1081.40 0.05089
1081.50 0.05087
1081.60 0.05085
1081.70 0.05083
1081.80 0.0508
1081.90 0.05078
1082.00 0.05076
1082.10 0.05074
1082.20 0.05071
1082.30 0.05069
1082.40 0.05067
1082.50 0.05064
1082.60 0.05062
1082.70 0.0506
1082.80 0.05057
1082.90 0.05055
1083.00 0.05053
1083.10 0.0505
1083.20 0.05048
1083.30 0.05046
1083.40 0.05043
1083.50 0.05041
1083.60 0.05039
1083.70 0.05036
1083.80 0.05034
1083.90 0.05031
1084.00 0.05029
1084.10 0.05026
1084.20 0.05024
1084.30 0.05022
1084.40 0.05019
1084.50 0.05017
1084.60 0.05014
1084.70 0.05011
1084.80 0.05009
1084.90 0.05006
1085.00 0.05004
1085.10 0.05001
1085.20 0.04998
1085.30 0.04996
1085.40 0.04993
1085.50 0.04991
1085.60 0.04988
1085.70 0.04985
1085.80 0.04983
1085.90 0.0498
1086.00 0.04978
1086.10 0.04975
1086.20 0.04973
1086.30 0.0497
1086.40 0.04967
1086.50 0.04965
1086.60 0.04962
1086.70 0.04959
1086.80 0.04956
1086.90 0.04954
1087.00 0.04951
1087.10 0.04948
1087.20 0.04945
1087.30 0.04942
1087.40 0.04939
1087.50 0.04936
1087.60 0.04933
1087.70 0.0493
1087.80 0.04927
1087.90 0.04925
1088.00 0.04922
1088.10 0.04919
1088.20 0.04916
1088.30 0.04913
1088.40 0.0491
1088.50 0.04907
1088.60 0.04904
1088.70 0.04901
1088.80 0.04898
1088.90 0.04894
1089.00 0.04891
1089.10 0.04888
1089.20 0.04885
1089.30 0.04882
1089.40 0.04879
1089.50 0.04876
1089.60 0.04873
1089.70 0.0487
1089.80 0.04866
1089.90 0.04863
1090.00 0.0486
1090.10 0.04857
1090.20 0.04854
1090.30 0.04851
1090.40 0.04848
1090.50 0.04845
1090.60 0.04842
1090.70 0.04839
1090.80 0.04836
1090.90 0.04833
1091.00 0.0483
1091.10 0.04827
1091.20 0.04824
1091.30 0.04821
1091.40 0.04818
1091.50 0.04815
1091.60 0.04812
1091.70 0.0481
1091.80 0.04807
1091.90 0.04804
1092.00 0.04801
1092.10 0.04799
1092.20 0.04797
1092.30 0.04794
1092.40 0.04792
1092.50 0.0479
1092.60 0.04788
1092.70 0.04786
1092.80 0.04784
1092.90 0.04783
1093.00 0.04781
1093.10 0.0478
1093.20 0.04779
1093.30 0.04779
1093.40 0.04778
1093.50 0.04778
1093.60 0.04781
1093.70 0.04784
1093.80 0.04785
1093.90 0.04785
1094.00 0.04779
1094.10 0.04773
1094.20 0.04767
1094.30 0.04762
1094.40 0.0476
1094.50 0.04758
1094.60 0.04756
1094.70 0.04754
1094.80 0.04752
1094.90 0.04749
1095.00 0.04748
1095.10 0.04747
1095.20 0.04746
1095.30 0.04745
1095.40 0.04744
1095.50 0.04744
1095.60 0.04743
1095.70 0.04742
1095.80 0.04741
1095.90 0.0474
1096.00 0.04739
1096.10 0.04739
1096.20 0.04738
1096.30 0.04737
1096.40 0.04736
1096.50 0.04736
1096.60 0.04735
1096.70 0.04735
1096.80 0.04735
1096.90 0.04734
1097.00 0.04734
1097.10 0.04734
1097.20 0.04733
1097.30 0.04733
1097.40 0.04733
1097.50 0.04733
1097.60 0.04732
1097.70 0.04732
1097.80 0.04732
1097.90 0.04731
1098.00 0.04731
1098.10 0.04731
1098.20 0.04731
1098.30 0.0473
1098.40 0.0473
1098.50 0.0473
1098.60 0.04729
1098.70 0.04729
1098.80 0.04728
1098.90 0.04728
1099.00 0.04727
1099.10 0.04727
1099.20 0.04726
1099.30 0.04726
1099.40 0.04725
1099.50 0.04725
1099.60 0.04724
1099.70 0.04724
1099.80 0.04723
1099.90 0.04723
1100.00 0.04722
1100.10 0.04722
1100.20 0.04721
1100.30 0.04721
1100.40 0.0472
1100.50 0.0472
1100.60 0.04719
1100.70 0.04718
1100.80 0.04717
1100.90 0.04717
1101.00 0.04716
1101.10 0.04715
1101.20 0.04714
1101.30 0.04714
1101.40 0.04713
1101.50 0.04712
1101.60 0.04711
1101.70 0.0471
1101.80 0.0471
1101.90 0.04709
1102.00 0.04708
1102.10 0.04707
1102.20 0.04706
1102.30 0.04705
1102.40 0.04704
1102.50 0.04703
1102.60 0.04702
1102.70 0.04701
1102.80 0.047
1102.90 0.04699
1103.00 0.04698
1103.10 0.04697
1103.20 0.04696
1103.30 0.04695
1103.40 0.04694
1103.50 0.04693
1103.60 0.04692
1103.70 0.04691
1103.80 0.0469
1103.90 0.04689
1104.00 0.04687
1104.10 0.04686
1104.20 0.04685
1104.30 0.04684
1104.40 0.04683
1104.50 0.04682
1104.60 0.0468
1104.70 0.04679
1104.80 0.04678
1104.90 0.04677
1105.00 0.04676
1105.10 0.04675
1105.20 0.04673
1105.30 0.04672
1105.40 0.04671
1105.50 0.0467
1105.60 0.04669
1105.70 0.04667
1105.80 0.04666
1105.90 0.04665
1106.00 0.04663
1106.10 0.04662
1106.20 0.04661
1106.30 0.0466
1106.40 0.04658
1106.50 0.04657
1106.60 0.04656
1106.70 0.04654
1106.80 0.04653
1106.90 0.04652
1107.00 0.04651
1107.10 0.04649
1107.20 0.04648
1107.30 0.04646
1107.40 0.04645
1107.50 0.04644
1107.60 0.04642
1107.70 0.04641
1107.80 0.0464
1107.90 0.04638
1108.00 0.04637
1108.10 0.04635
1108.20 0.04634
1108.30 0.04633
1108.40 0.04631
1108.50 0.0463
1108.60 0.04628
1108.70 0.04627
1108.80 0.04626
1108.90 0.04624
1109.00 0.04623
1109.10 0.04621
1109.20 0.0462
1109.30 0.04619
1109.40 0.04617
1109.50 0.04616
1109.60 0.04614
1109.70 0.04613
1109.80 0.04611
1109.90 0.0461
1110.00 0.04608
1110.10 0.04607
1110.20 0.04605
1110.30 0.04604
1110.40 0.04603
1110.50 0.04601
1110.60 0.046
1110.70 0.04598
1110.80 0.04597
1110.90 0.04595
1111.00 0.04594
1111.10 0.04592
1111.20 0.04591
1111.30 0.04589
1111.40 0.04588
1111.50 0.04587
1111.60 0.04585
1111.70 0.04584
1111.80 0.04582
1111.90 0.04581
1112.00 0.04579
1112.10 0.04578
1112.20 0.04576
1112.30 0.04575
1112.40 0.04573
1112.50 0.04572
1112.60 0.0457
1112.70 0.04569
1112.80 0.04567
1112.90 0.04566
1113.00 0.04564
1113.10 0.04563
1113.20 0.04561
1113.30 0.0456
1113.40 0.04558
1113.50 0.04557
1113.60 0.04555
1113.70 0.04554
1113.80 0.04552
1113.90 0.04551
1114.00 0.04549
1114.10 0.04548
1114.20 0.04546
1114.30 0.04545
1114.40 0.04543
1114.50 0.04542
1114.60 0.0454
1114.70 0.04539
1114.80 0.04537
1114.90 0.04536
1115.00 0.04534
1115.10 0.04533
1115.20 0.04531
1115.30 0.0453
1115.40 0.04528
1115.50 0.04527
1115.60 0.04525
1115.70 0.04524
1115.80 0.04522
1115.90 0.04521
1116.00 0.04519
1116.10 0.04518
1116.20 0.04516
1116.30 0.04515
1116.40 0.04513
1116.50 0.04512
1116.60 0.0451
1116.70 0.04509
1116.80 0.04507
1116.90 0.04506
1117.00 0.04504
1117.10 0.04502
1117.20 0.04501
1117.30 0.04499
1117.40 0.04498
1117.50 0.04496
1117.60 0.04495
1117.70 0.04493
1117.80 0.04492
1117.90 0.0449
1118.00 0.04489
1118.10 0.04487
1118.20 0.04486
1118.30 0.04484
1118.40 0.04483
1118.50 0.04481
1118.60 0.0448
1118.70 0.04478
1118.80 0.04477
1118.90 0.04475
1119.00 0.04474
1119.10 0.04472
1119.20 0.04471
1119.30 0.04469
1119.40 0.04467
1119.50 0.04466
1119.60 0.04464
1119.70 0.04463
1119.80 0.04461
1119.90 0.0446
1120.00 0.04458
1120.10 0.04457
1120.20 0.04455
1120.30 0.04454
1120.40 0.04452
1120.50 0.04451
1120.60 0.04449
1120.70 0.04448
1120.80 0.04446
1120.90 0.04445
1121.00 0.04443
1121.10 0.04442
1121.20 0.0444
1121.30 0.04439
1121.40 0.04437
1121.50 0.04436
1121.60 0.04434
1121.70 0.04433
1121.80 0.04431
1121.90 0.0443
1122.00 0.04428
1122.10 0.04427
1122.20 0.04425
1122.30 0.04424
1122.40 0.04422
1122.50 0.04421
1122.60 0.04419
1122.70 0.04418
1122.80 0.04416
1122.90 0.04415
1123.00 0.04413
1123.10 0.04412
1123.20 0.0441
1123.30 0.04409
1123.40 0.04407
1123.50 0.04406
1123.60 0.04404
1123.70 0.04403
1123.80 0.04401
1123.90 0.044
1124.00 0.04398
1124.10 0.04397
1124.20 0.04395
1124.30 0.04394
1124.40 0.04392
1124.50 0.04391
1124.60 0.04389
1124.70 0.04388
1124.80 0.04386
1124.90 0.04385
1125.00 0.04383
1125.10 0.04382
1125.20 0.0438
1125.30 0.04379
1125.40 0.04377
1125.50 0.04376
1125.60 0.04374
1125.70 0.04373
1125.80 0.04371
1125.90 0.0437
1126.00 0.04368
1126.10 0.04367
1126.20 0.04365
1126.30 0.04364
1126.40 0.04362
1126.50 0.04361
1126.60 0.04359
1126.70 0.04358
1126.80 0.04356
1126.90 0.04355
1127.00 0.04353
1127.10 0.04352
1127.20 0.0435
1127.30 0.04349
1127.40 0.04347
1127.50 0.04346
1127.60 0.04344
1127.70 0.04343
1127.80 0.04341
1127.90 0.0434
1128.00 0.04338
1128.10 0.04337
1128.20 0.04335
1128.30 0.04334
1128.40 0.04332
1128.50 0.04331
1128.60 0.04329
1128.70 0.04328
1128.80 0.04326
1128.90 0.04325
1129.00 0.04323
1129.10 0.04322
1129.20 0.0432
1129.30 0.04319
1129.40 0.04317
1129.50 0.04316
1129.60 0.04315
1129.70 0.04313
1129.80 0.04312
1129.90 0.0431
1130.00 0.04309
1130.10 0.04307
1130.20 0.04306
1130.30 0.04304
1130.40 0.04303
1130.50 0.04301
1130.60 0.043
1130.70 0.04298
1130.80 0.04297
1130.90 0.04295
1131.00 0.04294
1131.10 0.04292
1131.20 0.04291
1131.30 0.04289
1131.40 0.04288
1131.50 0.04287
1131.60 0.04285
1131.70 0.04284
1131.80 0.04282
1131.90 0.04281
1132.00 0.04279
1132.10 0.04278
1132.20 0.04276
1132.30 0.04275
1132.40 0.04273
1132.50 0.04272
1132.60 0.0427
1132.70 0.04269
1132.80 0.04267
1132.90 0.04266
1133.00 0.04265
1133.10 0.04263
1133.20 0.04262
1133.30 0.0426
1133.40 0.04259
1133.50 0.04257
1133.60 0.04256
1133.70 0.04254
1133.80 0.04253
1133.90 0.04251
1134.00 0.0425
1134.10 0.04249
1134.20 0.04247
1134.30 0.04246
1134.40 0.04244
1134.50 0.04243
1134.60 0.04241
1134.70 0.0424
1134.80 0.04238
1134.90 0.04237
1135.00 0.04235
1135.10 0.04234
1135.20 0.04233
1135.30 0.04231
1135.40 0.0423
1135.50 0.04228
1135.60 0.04227
1135.70 0.04225
1135.80 0.04224
1135.90 0.04222
1136.00 0.04221
1136.10 0.0422
1136.20 0.04218
1136.30 0.04217
1136.40 0.04215
1136.50 0.04214
1136.60 0.04212
1136.70 0.04211
1136.80 0.04209
1136.90 0.04208
1137.00 0.04207
1137.10 0.04205
1137.20 0.04204
1137.30 0.04202
1137.40 0.04201
1137.50 0.04199
1137.60 0.04198
1137.70 0.04197
1137.80 0.04195
1137.90 0.04194
1138.00 0.04192
1138.10 0.04191
1138.20 0.04189
1138.30 0.04188
1138.40 0.04187
1138.50 0.04185
1138.60 0.04184
1138.70 0.04182
1138.80 0.04181
1138.90 0.04179
1139.00 0.04178
1139.10 0.04177
1139.20 0.04175
1139.30 0.04174
1139.40 0.04172
1139.50 0.04171
1139.60 0.04169
1139.70 0.04168
1139.80 0.04167
1139.90 0.04165
1140.00 0.04164
1140.10 0.04162
1140.20 0.04161
1140.30 0.04159
1140.40 0.04158
1140.50 0.04157
1140.60 0.04155
1140.70 0.04154
1140.80 0.04152
1140.90 0.04151
1141.00 0.0415
1141.10 0.04148
1141.20 0.04147
1141.30 0.04145
1141.40 0.04144
1141.50 0.04142
1141.60 0.04141
1141.70 0.0414
1141.80 0.04138
1141.90 0.04137
1142.00 0.04135
1142.10 0.04134
1142.20 0.04133
1142.30 0.04131
1142.40 0.0413
1142.50 0.04128
1142.60 0.04127
1142.70 0.04126
1142.80 0.04124
1142.90 0.04123
1143.00 0.04121
1143.10 0.0412
1143.20 0.04119
1143.30 0.04117
1143.40 0.04116
1143.50 0.04114
1143.60 0.04113
1143.70 0.04112
1143.80 0.0411
1143.90 0.04109
1144.00 0.04107
1144.10 0.04106
1144.20 0.04105
1144.30 0.04103
1144.40 0.04102
1144.50 0.041
1144.60 0.04099
1144.70 0.04098
1144.80 0.04096
1144.90 0.04095
1145.00 0.04093
1145.10 0.04092
1145.20 0.04091
1145.30 0.04089
1145.40 0.04088
1145.50 0.04086
1145.60 0.04085
1145.70 0.04084
1145.80 0.04082
1145.90 0.04081
1146.00 0.04079
1146.10 0.04078
1146.20 0.04077
1146.30 0.04075
1146.40 0.04074
1146.50 0.04073
1146.60 0.04071
1146.70 0.0407
1146.80 0.04068
1146.90 0.04067
1147.00 0.04066
1147.10 0.04064
1147.20 0.04063
1147.30 0.04061
1147.40 0.0406
1147.50 0.04059
1147.60 0.04057
1147.70 0.04056
1147.80 0.04055
1147.90 0.04053
1148.00 0.04052
1148.10 0.0405
1148.20 0.04049
1148.30 0.04048
1148.40 0.04046
1148.50 0.04045
1148.60 0.04044
1148.70 0.04042
1148.80 0.04041
1148.90 0.04039
1149.00 0.04038
1149.10 0.04037
1149.20 0.04035
1149.30 0.04034
1149.40 0.04033
1149.50 0.04031
1149.60 0.0403
1149.70 0.04029
1149.80 0.04027
1149.90 0.04026
1150.00 0.04024
1150.10 0.04023
1150.20 0.04022
1150.30 0.0402
1150.40 0.04019
1150.50 0.04018
1150.60 0.04016
1150.70 0.04015
1150.80 0.04014
1150.90 0.04012
1151.00 0.04011
1151.10 0.04009
1151.20 0.04008
1151.30 0.04007
1151.40 0.04005
1151.50 0.04004
1151.60 0.04003
1151.70 0.04001
1151.80 0.04
1151.90 0.03999
1152.00 0.03997
1152.10 0.03996
1152.20 0.03995
1152.30 0.03993
1152.40 0.03992
1152.50 0.0399
1152.60 0.03989
1152.70 0.03988
1152.80 0.03986
1152.90 0.03985
1153.00 0.03984
1153.10 0.03982
1153.20 0.03981
1153.30 0.0398
1153.40 0.03978
1153.50 0.03977
1153.60 0.03976
1153.70 0.03974
1153.80 0.03973
1153.90 0.03972
1154.00 0.0397
1154.10 0.03969
1154.20 0.03968
1154.30 0.03966
1154.40 0.03965
1154.50 0.03964
1154.60 0.03962
1154.70 0.03961
1154.80 0.0396
1154.90 0.03958
1155.00 0.03957
1155.10 0.03956
1155.20 0.03954
1155.30 0.03953
1155.40 0.03952
1155.50 0.0395
1155.60 0.03949
1155.70 0.03948
1155.80 0.03946
1155.90 0.03945
1156.00 0.03944
1156.10 0.03942
1156.20 0.03941
1156.30 0.0394
1156.40 0.03938
1156.50 0.03937
1156.60 0.03936
1156.70 0.03934
1156.80 0.03933
1156.90 0.03932
1157.00 0.0393
1157.10 0.03929
1157.20 0.03928
1157.30 0.03926
1157.40 0.03925
1157.50 0.03924
1157.60 0.03922
1157.70 0.03921
1157.80 0.0392
1157.90 0.03918
1158.00 0.03917
1158.10 0.03916
1158.20 0.03914
1158.30 0.03913
1158.40 0.03912
1158.50 0.0391
1158.60 0.03909
1158.70 0.03908
1158.80 0.03907
1158.90 0.03905
1159.00 0.03904
1159.10 0.03903
1159.20 0.03901
1159.30 0.039
1159.40 0.03899
1159.50 0.03897
1159.60 0.03896
1159.70 0.03895
1159.80 0.03893
1159.90 0.03892
1160.00 0.03891
1160.10 0.03889
1160.20 0.03888
1160.30 0.03887
1160.40 0.03886
1160.50 0.03884
1160.60 0.03883
1160.70 0.03882
1160.80 0.0388
1160.90 0.03879
1161.00 0.03878
1161.10 0.03876
1161.20 0.03875
1161.30 0.03874
1161.40 0.03873
1161.50 0.03871
1161.60 0.0387
1161.70 0.03869
1161.80 0.03867
1161.90 0.03866
1162.00 0.03865
1162.10 0.03863
1162.20 0.03862
1162.30 0.03861
1162.40 0.0386
1162.50 0.03858
1162.60 0.03857
1162.70 0.03856
1162.80 0.03854
1162.90 0.03853
1163.00 0.03852
1163.10 0.0385
1163.20 0.03849
1163.30 0.03848
1163.40 0.03847
1163.50 0.03845
1163.60 0.03844
1163.70 0.03843
1163.80 0.03841
1163.90 0.0384
1164.00 0.03839
1164.10 0.03838
1164.20 0.03836
1164.30 0.03835
1164.40 0.03834
1164.50 0.03832
1164.60 0.03831
1164.70 0.0383
1164.80 0.03829
1164.90 0.03827
1165.00 0.03826
1165.10 0.03825
1165.20 0.03823
1165.30 0.03822
1165.40 0.03821
1165.50 0.0382
1165.60 0.03818
1165.70 0.03817
1165.80 0.03816
1165.90 0.03815
1166.00 0.03813
1166.10 0.03812
1166.20 0.03811
1166.30 0.03809
1166.40 0.03808
1166.50 0.03807
1166.60 0.03806
1166.70 0.03804
1166.80 0.03803
1166.90 0.03802
1167.00 0.038
1167.10 0.03799
1167.20 0.03798
1167.30 0.03797
1167.40 0.03795
1167.50 0.03794
1167.60 0.03793
1167.70 0.03792
1167.80 0.0379
1167.90 0.03789
1168.00 0.03788
1168.10 0.03787
1168.20 0.03785
1168.30 0.03784
1168.40 0.03783
1168.50 0.03782
1168.60 0.0378
1168.70 0.03779
1168.80 0.03778
1168.90 0.03776
1169.00 0.03775
1169.10 0.03774
1169.20 0.03773
1169.30 0.03771
1169.40 0.0377
1169.50 0.03769
1169.60 0.03768
1169.70 0.03766
1169.80 0.03765
1169.90 0.03764
1170.00 0.03763
1170.10 0.03761
1170.20 0.0376
1170.30 0.03759
1170.40 0.03758
1170.50 0.03756
1170.60 0.03755
1170.70 0.03754
1170.80 0.03753
1170.90 0.03751
1171.00 0.0375
1171.10 0.03749
1171.20 0.03748
1171.30 0.03746
1171.40 0.03745
1171.50 0.03744
1171.60 0.03743
1171.70 0.03741
1171.80 0.0374
1171.90 0.03739
1172.00 0.03738
1172.10 0.03736
1172.20 0.03735
1172.30 0.03734
1172.40 0.03733
1172.50 0.03731
1172.60 0.0373
1172.70 0.03729
1172.80 0.03728
1172.90 0.03726
1173.00 0.03725
1173.10 0.03724
1173.20 0.03723
1173.30 0.03721
1173.40 0.0372
1173.50 0.03719
1173.60 0.03718
1173.70 0.03717
1173.80 0.03715
1173.90 0.03714
1174.00 0.03713
1174.10 0.03712
1174.20 0.0371
1174.30 0.03709
1174.40 0.03708
1174.50 0.03707
1174.60 0.03705
1174.70 0.03704
1174.80 0.03703
1174.90 0.03702
1175.00 0.037
1175.10 0.03699
1175.20 0.03698
1175.30 0.03697
1175.40 0.03696
1175.50 0.03694
1175.60 0.03693
1175.70 0.03692
1175.80 0.03691
1175.90 0.03689
1176.00 0.03688
1176.10 0.03687
1176.20 0.03686
1176.30 0.03685
1176.40 0.03683
1176.50 0.03682
1176.60 0.03681
1176.70 0.0368
1176.80 0.03678
1176.90 0.03677
1177.00 0.03676
1177.10 0.03675
1177.20 0.03674
1177.30 0.03672
1177.40 0.03671
1177.50 0.0367
1177.60 0.03669
1177.70 0.03667
1177.80 0.03666
1177.90 0.03665
1178.00 0.03664
1178.10 0.03663
1178.20 0.03661
1178.30 0.0366
1178.40 0.03659
1178.50 0.03658
1178.60 0.03657
1178.70 0.03655
1178.80 0.03654
1178.90 0.03653
1179.00 0.03652
1179.10 0.0365
1179.20 0.03649
1179.30 0.03648
1179.40 0.03647
1179.50 0.03646
1179.60 0.03644
1179.70 0.03643
1179.80 0.03642
1179.90 0.03641
1180.00 0.0364
1180.10 0.03638
1180.20 0.03637
1180.30 0.03636
1180.40 0.03635
1180.50 0.03634
1180.60 0.03632
1180.70 0.03631
1180.80 0.0363
1180.90 0.03629
1181.00 0.03628
1181.10 0.03626
1181.20 0.03625
1181.30 0.03624
1181.40 0.03623
1181.50 0.03622
1181.60 0.0362
1181.70 0.03619
1181.80 0.03618
1181.90 0.03617
1182.00 0.03616
1182.10 0.03614
1182.20 0.03613
1182.30 0.03612
1182.40 0.03611
1182.50 0.0361
1182.60 0.03608
1182.70 0.03607
1182.80 0.03606
1182.90 0.03605
1183.00 0.03604
1183.10 0.03603
1183.20 0.03601
1183.30 0.036
1183.40 0.03599
1183.50 0.03598
1183.60 0.03597
1183.70 0.03595
1183.80 0.03594
1183.90 0.03593
1184.00 0.03592
1184.10 0.03591
1184.20 0.03589
1184.30 0.03588
1184.40 0.03587
1184.50 0.03586
1184.60 0.03585
1184.70 0.03584
1184.80 0.03582
1184.90 0.03581
1185.00 0.0358
1185.10 0.03579
1185.20 0.03578
1185.30 0.03576
1185.40 0.03575
1185.50 0.03574
1185.60 0.03573
1185.70 0.03572
1185.80 0.03571
1185.90 0.03569
1186.00 0.03568
1186.10 0.03567
1186.20 0.03566
1186.30 0.03565
1186.40 0.03564
1186.50 0.03562
1186.60 0.03561
1186.70 0.0356
1186.80 0.03559
1186.90 0.03558
1187.00 0.03556
1187.10 0.03555
1187.20 0.03554
1187.30 0.03553
1187.40 0.03552
1187.50 0.03551
1187.60 0.03549
1187.70 0.03548
1187.80 0.03547
1187.90 0.03546
1188.00 0.03545
1188.10 0.03544
1188.20 0.03542
1188.30 0.03541
1188.40 0.0354
1188.50 0.03539
1188.60 0.03538
1188.70 0.03537
1188.80 0.03536
1188.90 0.03534
1189.00 0.03533
1189.10 0.03532
1189.20 0.03531
1189.30 0.0353
1189.40 0.03529
1189.50 0.03527
1189.60 0.03526
1189.70 0.03525
1189.80 0.03524
1189.90 0.03523
1190.00 0.03522
1190.10 0.0352
1190.20 0.03519
1190.30 0.03518
1190.40 0.03517
1190.50 0.03516
1190.60 0.03515
1190.70 0.03514
1190.80 0.03512
1190.90 0.03511
1191.00 0.0351
1191.10 0.03509
1191.20 0.03508
1191.30 0.03507
1191.40 0.03505
1191.50 0.03504
1191.60 0.03503
1191.70 0.03502
1191.80 0.03501
1191.90 0.035
1192.00 0.03499
1192.10 0.03497
1192.20 0.03496
1192.30 0.03495
1192.40 0.03494
1192.50 0.03493
1192.60 0.03492
1192.70 0.03491
1192.80 0.03489
1192.90 0.03488
1193.00 0.03487
1193.10 0.03486
1193.20 0.03485
1193.30 0.03484
1193.40 0.03483
1193.50 0.03481
1193.60 0.0348
1193.70 0.03479
1193.80 0.03478
1193.90 0.03477
1194.00 0.03476
1194.10 0.03475
1194.20 0.03473
1194.30 0.03472
1194.40 0.03471
1194.50 0.0347
1194.60 0.03469
1194.70 0.03468
1194.80 0.03467
1194.90 0.03465
1195.00 0.03464
1195.10 0.03463
1195.20 0.03462
1195.30 0.03461
1195.40 0.0346
1195.50 0.03459
1195.60 0.03458
1195.70 0.03456
1195.80 0.03455
1195.90 0.03454
1196.00 0.03453
1196.10 0.03452
1196.20 0.03451
1196.30 0.0345
1196.40 0.03449
1196.50 0.03447
1196.60 0.03446
1196.70 0.03445
1196.80 0.03444
1196.90 0.03443
1197.00 0.03442
1197.10 0.03441
1197.20 0.0344
1197.30 0.03438
1197.40 0.03437
1197.50 0.03436
1197.60 0.03435
1197.70 0.03434
1197.80 0.03433
1197.90 0.03432
1198.00 0.03431
1198.10 0.03429
1198.20 0.03428
1198.30 0.03427
1198.40 0.03426
1198.50 0.03425
1198.60 0.03424
1198.70 0.03423
1198.80 0.03422
1198.90 0.03421
1199.00 0.03419
1199.10 0.03418
1199.20 0.03417
1199.30 0.03416
1199.40 0.03415
1199.50 0.03414
1199.60 0.03413
1199.70 0.03412
1199.80 0.03411
1199.90 0.03409
1200.00 0
