# Version 2.1 - nm, norm@500 to 1, cut digits, bergeron_120000_90.dat_120000
# Wavelength(nm)  Flambda(ergs/cm^s/s/nm)
300.00 6.976
300.10 6.967
300.20 6.959
300.30 6.95
300.40 6.941
300.50 6.932
300.60 6.924
300.70 6.915
300.80 6.906
300.90 6.897
301.00 6.889
301.10 6.88
301.20 6.871
301.30 6.863
301.40 6.854
301.50 6.845
301.60 6.837
301.70 6.828
301.80 6.819
301.90 6.811
302.00 6.802
302.10 6.794
302.20 6.785
302.30 6.777
302.40 6.768
302.50 6.76
302.60 6.751
302.70 6.743
302.80 6.734
302.90 6.726
303.00 6.717
303.10 6.709
303.20 6.7
303.30 6.692
303.40 6.684
303.50 6.675
303.60 6.667
303.70 6.659
303.80 6.65
303.90 6.642
304.00 6.634
304.10 6.625
304.20 6.617
304.30 6.609
304.40 6.6
304.50 6.592
304.60 6.584
304.70 6.576
304.80 6.568
304.90 6.559
305.00 6.551
305.10 6.543
305.20 6.535
305.30 6.527
305.40 6.519
305.50 6.511
305.60 6.502
305.70 6.494
305.80 6.486
305.90 6.478
306.00 6.47
306.10 6.462
306.20 6.454
306.30 6.446
306.40 6.438
306.50 6.43
306.60 6.422
306.70 6.414
306.80 6.406
306.90 6.398
307.00 6.39
307.10 6.382
307.20 6.374
307.30 6.367
307.40 6.359
307.50 6.351
307.60 6.343
307.70 6.335
307.80 6.327
307.90 6.319
308.00 6.312
308.10 6.304
308.20 6.296
308.30 6.288
308.40 6.281
308.50 6.273
308.60 6.265
308.70 6.257
308.80 6.25
308.90 6.242
309.00 6.234
309.10 6.227
309.20 6.219
309.30 6.211
309.40 6.204
309.50 6.196
309.60 6.188
309.70 6.181
309.80 6.173
309.90 6.166
310.00 6.158
310.10 6.151
310.20 6.143
310.30 6.135
310.40 6.128
310.50 6.12
310.60 6.113
310.70 6.105
310.80 6.098
310.90 6.09
311.00 6.083
311.10 6.076
311.20 6.068
311.30 6.061
311.40 6.053
311.50 6.046
311.60 6.039
311.70 6.031
311.80 6.024
311.90 6.016
312.00 6.009
312.10 6.002
312.20 5.994
312.30 5.987
312.40 5.98
312.50 5.973
312.60 5.965
312.70 5.958
312.80 5.951
312.90 5.944
313.00 5.936
313.10 5.929
313.20 5.922
313.30 5.915
313.40 5.908
313.50 5.9
313.60 5.893
313.70 5.886
313.80 5.879
313.90 5.872
314.00 5.865
314.10 5.858
314.20 5.85
314.30 5.843
314.40 5.836
314.50 5.829
314.60 5.822
314.70 5.815
314.80 5.808
314.90 5.801
315.00 5.794
315.10 5.787
315.20 5.78
315.30 5.773
315.40 5.766
315.50 5.759
315.60 5.752
315.70 5.745
315.80 5.738
315.90 5.731
316.00 5.725
316.10 5.718
316.20 5.711
316.30 5.704
316.40 5.697
316.50 5.69
316.60 5.683
316.70 5.676
316.80 5.67
316.90 5.663
317.00 5.656
317.10 5.649
317.20 5.642
317.30 5.636
317.40 5.629
317.50 5.622
317.60 5.615
317.70 5.609
317.80 5.602
317.90 5.595
318.00 5.589
318.10 5.582
318.20 5.575
318.30 5.569
318.40 5.562
318.50 5.555
318.60 5.549
318.70 5.542
318.80 5.535
318.90 5.529
319.00 5.522
319.10 5.515
319.20 5.509
319.30 5.502
319.40 5.496
319.50 5.489
319.60 5.483
319.70 5.476
319.80 5.47
319.90 5.463
320.00 5.457
320.10 5.45
320.20 5.444
320.30 5.437
320.40 5.431
320.50 5.424
320.60 5.418
320.70 5.411
320.80 5.405
320.90 5.399
321.00 5.392
321.10 5.386
321.20 5.379
321.30 5.373
321.40 5.367
321.50 5.36
321.60 5.354
321.70 5.348
321.80 5.341
321.90 5.335
322.00 5.329
322.10 5.322
322.20 5.316
322.30 5.31
322.40 5.303
322.50 5.297
322.60 5.291
322.70 5.285
322.80 5.278
322.90 5.272
323.00 5.266
323.10 5.26
323.20 5.254
323.30 5.247
323.40 5.241
323.50 5.235
323.60 5.229
323.70 5.223
323.80 5.216
323.90 5.21
324.00 5.204
324.10 5.198
324.20 5.192
324.30 5.186
324.40 5.18
324.50 5.174
324.60 5.168
324.70 5.162
324.80 5.156
324.90 5.149
325.00 5.143
325.10 5.137
325.20 5.131
325.30 5.125
325.40 5.119
325.50 5.113
325.60 5.107
325.70 5.101
325.80 5.095
325.90 5.089
326.00 5.084
326.10 5.078
326.20 5.072
326.30 5.066
326.40 5.06
326.50 5.054
326.60 5.048
326.70 5.042
326.80 5.036
326.90 5.03
327.00 5.024
327.10 5.019
327.20 5.013
327.30 5.007
327.40 5.001
327.50 4.995
327.60 4.989
327.70 4.984
327.80 4.978
327.90 4.972
328.00 4.966
328.10 4.961
328.20 4.955
328.30 4.949
328.40 4.943
328.50 4.938
328.60 4.932
328.70 4.926
328.80 4.92
328.90 4.915
329.00 4.909
329.10 4.903
329.20 4.898
329.30 4.892
329.40 4.886
329.50 4.881
329.60 4.875
329.70 4.869
329.80 4.864
329.90 4.858
330.00 4.852
330.10 4.847
330.20 4.841
330.30 4.836
330.40 4.83
330.50 4.825
330.60 4.819
330.70 4.814
330.80 4.808
330.90 4.802
331.00 4.797
331.10 4.791
331.20 4.786
331.30 4.78
331.40 4.775
331.50 4.769
331.60 4.764
331.70 4.758
331.80 4.753
331.90 4.747
332.00 4.742
332.10 4.736
332.20 4.731
332.30 4.726
332.40 4.72
332.50 4.715
332.60 4.709
332.70 4.704
332.80 4.699
332.90 4.693
333.00 4.688
333.10 4.683
333.20 4.677
333.30 4.672
333.40 4.666
333.50 4.661
333.60 4.656
333.70 4.65
333.80 4.645
333.90 4.64
334.00 4.634
334.10 4.629
334.20 4.624
334.30 4.619
334.40 4.613
334.50 4.608
334.60 4.603
334.70 4.598
334.80 4.592
334.90 4.587
335.00 4.582
335.10 4.577
335.20 4.572
335.30 4.566
335.40 4.561
335.50 4.556
335.60 4.551
335.70 4.546
335.80 4.54
335.90 4.535
336.00 4.53
336.10 4.525
336.20 4.52
336.30 4.515
336.40 4.51
336.50 4.504
336.60 4.499
336.70 4.494
336.80 4.489
336.90 4.484
337.00 4.479
337.10 4.474
337.20 4.469
337.30 4.464
337.40 4.459
337.50 4.454
337.60 4.449
337.70 4.444
337.80 4.439
337.90 4.434
338.00 4.429
338.10 4.424
338.20 4.419
338.30 4.414
338.40 4.409
338.50 4.404
338.60 4.399
338.70 4.394
338.80 4.389
338.90 4.384
339.00 4.379
339.10 4.374
339.20 4.369
339.30 4.364
339.40 4.359
339.50 4.354
339.60 4.349
339.70 4.345
339.80 4.34
339.90 4.335
340.00 4.33
340.10 4.325
340.20 4.32
340.30 4.315
340.40 4.311
340.50 4.306
340.60 4.301
340.70 4.296
340.80 4.291
340.90 4.286
341.00 4.282
341.10 4.277
341.20 4.272
341.30 4.267
341.40 4.263
341.50 4.258
341.60 4.253
341.70 4.248
341.80 4.243
341.90 4.239
342.00 4.234
342.10 4.229
342.20 4.225
342.30 4.22
342.40 4.215
342.50 4.21
342.60 4.206
342.70 4.201
342.80 4.196
342.90 4.192
343.00 4.187
343.10 4.182
343.20 4.178
343.30 4.173
343.40 4.168
343.50 4.164
343.60 4.159
343.70 4.155
343.80 4.15
343.90 4.145
344.00 4.141
344.10 4.136
344.20 4.132
344.30 4.127
344.40 4.122
344.50 4.118
344.60 4.113
344.70 4.109
344.80 4.104
344.90 4.1
345.00 4.095
345.10 4.091
345.20 4.086
345.30 4.082
345.40 4.077
345.50 4.073
345.60 4.068
345.70 4.063
345.80 4.059
345.90 4.054
346.00 4.05
346.10 4.046
346.20 4.041
346.30 4.037
346.40 4.032
346.50 4.028
346.60 4.023
346.70 4.019
346.80 4.015
346.90 4.01
347.00 4.006
347.10 4.001
347.20 3.997
347.30 3.992
347.40 3.988
347.50 3.984
347.60 3.979
347.70 3.975
347.80 3.971
347.90 3.966
348.00 3.962
348.10 3.957
348.20 3.953
348.30 3.949
348.40 3.944
348.50 3.94
348.60 3.936
348.70 3.932
348.80 3.927
348.90 3.923
349.00 3.919
349.10 3.914
349.20 3.91
349.30 3.906
349.40 3.902
349.50 3.897
349.60 3.893
349.70 3.889
349.80 3.884
349.90 3.88
350.00 3.876
350.10 3.872
350.20 3.868
350.30 3.863
350.40 3.859
350.50 3.855
350.60 3.851
350.70 3.847
350.80 3.842
350.90 3.838
351.00 3.834
351.10 3.83
351.20 3.826
351.30 3.821
351.40 3.817
351.50 3.813
351.60 3.809
351.70 3.805
351.80 3.801
351.90 3.797
352.00 3.792
352.10 3.788
352.20 3.784
352.30 3.78
352.40 3.776
352.50 3.772
352.60 3.768
352.70 3.764
352.80 3.76
352.90 3.756
353.00 3.752
353.10 3.748
353.20 3.743
353.30 3.739
353.40 3.735
353.50 3.731
353.60 3.727
353.70 3.723
353.80 3.719
353.90 3.715
354.00 3.711
354.10 3.707
354.20 3.703
354.30 3.699
354.40 3.695
354.50 3.691
354.60 3.687
354.70 3.683
354.80 3.679
354.90 3.675
355.00 3.671
355.10 3.667
355.20 3.664
355.30 3.66
355.40 3.656
355.50 3.652
355.60 3.648
355.70 3.644
355.80 3.64
355.90 3.636
356.00 3.632
356.10 3.628
356.20 3.624
356.30 3.62
356.40 3.617
356.50 3.613
356.60 3.609
356.70 3.605
356.80 3.601
356.90 3.597
357.00 3.593
357.10 3.59
357.20 3.586
357.30 3.582
357.40 3.578
357.50 3.574
357.60 3.57
357.70 3.567
357.80 3.563
357.90 3.559
358.00 3.555
358.10 3.551
358.20 3.548
358.30 3.544
358.40 3.54
358.50 3.536
358.60 3.532
358.70 3.529
358.80 3.525
358.90 3.521
359.00 3.517
359.10 3.514
359.20 3.51
359.30 3.506
359.40 3.502
359.50 3.499
359.60 3.495
359.70 3.491
359.80 3.488
359.90 3.484
360.00 3.48
360.10 3.476
360.20 3.473
360.30 3.469
360.40 3.465
360.50 3.462
360.60 3.458
360.70 3.454
360.80 3.451
360.90 3.447
361.00 3.443
361.10 3.44
361.20 3.436
361.30 3.433
361.40 3.429
361.50 3.425
361.60 3.422
361.70 3.418
361.80 3.414
361.90 3.411
362.00 3.407
362.10 3.404
362.20 3.4
362.30 3.396
362.40 3.393
362.50 3.389
362.60 3.386
362.70 3.382
362.80 3.378
362.90 3.375
363.00 3.371
363.10 3.368
363.20 3.364
363.30 3.361
363.40 3.357
363.50 3.354
363.60 3.35
363.70 3.347
363.80 3.343
363.90 3.34
364.00 3.336
364.10 3.333
364.20 3.329
364.30 3.326
364.40 3.322
364.50 3.319
364.60 3.315
364.70 3.312
364.80 3.308
364.90 3.305
365.00 3.301
365.10 3.298
365.20 3.294
365.30 3.291
365.40 3.287
365.50 3.284
365.60 3.281
365.70 3.277
365.80 3.274
365.90 3.27
366.00 3.267
366.10 3.263
366.20 3.26
366.30 3.257
366.40 3.253
366.50 3.25
366.60 3.246
366.70 3.243
366.80 3.24
366.90 3.236
367.00 3.233
367.10 3.229
367.20 3.226
367.30 3.223
367.40 3.219
367.50 3.216
367.60 3.213
367.70 3.209
367.80 3.206
367.90 3.203
368.00 3.199
368.10 3.196
368.20 3.192
368.30 3.189
368.40 3.186
368.50 3.182
368.60 3.179
368.70 3.176
368.80 3.172
368.90 3.169
369.00 3.166
369.10 3.162
369.20 3.159
369.30 3.156
369.40 3.152
369.50 3.149
369.60 3.146
369.70 3.142
369.80 3.139
369.90 3.136
370.00 3.132
370.10 3.129
370.20 3.126
370.30 3.123
370.40 3.119
370.50 3.116
370.60 3.113
370.70 3.109
370.80 3.106
370.90 3.103
371.00 3.1
371.10 3.096
371.20 3.093
371.30 3.09
371.40 3.087
371.50 3.083
371.60 3.08
371.70 3.077
371.80 3.074
371.90 3.07
372.00 3.067
372.10 3.064
372.20 3.061
372.30 3.058
372.40 3.055
372.50 3.052
372.60 3.049
372.70 3.045
372.80 3.042
372.90 3.039
373.00 3.036
373.10 3.033
373.20 3.03
373.30 3.027
373.40 3.024
373.50 3.021
373.60 3.018
373.70 3.015
373.80 3.011
373.90 3.008
374.00 3.005
374.10 3.002
374.20 2.999
374.30 2.996
374.40 2.993
374.50 2.99
374.60 2.987
374.70 2.984
374.80 2.98
374.90 2.977
375.00 2.974
375.10 2.971
375.20 2.968
375.30 2.965
375.40 2.962
375.50 2.959
375.60 2.956
375.70 2.953
375.80 2.95
375.90 2.947
376.00 2.944
376.10 2.94
376.20 2.937
376.30 2.934
376.40 2.931
376.50 2.928
376.60 2.925
376.70 2.922
376.80 2.919
376.90 2.916
377.00 2.913
377.10 2.91
377.20 2.907
377.30 2.904
377.40 2.901
377.50 2.898
377.60 2.895
377.70 2.892
377.80 2.889
377.90 2.887
378.00 2.884
378.10 2.881
378.20 2.878
378.30 2.875
378.40 2.872
378.50 2.869
378.60 2.866
378.70 2.863
378.80 2.86
378.90 2.857
379.00 2.854
379.10 2.851
379.20 2.849
379.30 2.846
379.40 2.843
379.50 2.84
379.60 2.837
379.70 2.834
379.80 2.831
379.90 2.828
380.00 2.825
380.10 2.823
380.20 2.82
380.30 2.817
380.40 2.814
380.50 2.811
380.60 2.808
380.70 2.805
380.80 2.803
380.90 2.8
381.00 2.797
381.10 2.794
381.20 2.791
381.30 2.789
381.40 2.786
381.50 2.783
381.60 2.78
381.70 2.777
381.80 2.775
381.90 2.772
382.00 2.769
382.10 2.766
382.20 2.763
382.30 2.761
382.40 2.758
382.50 2.755
382.60 2.752
382.70 2.75
382.80 2.747
382.90 2.744
383.00 2.741
383.10 2.739
383.20 2.736
383.30 2.733
383.40 2.731
383.50 2.728
383.60 2.725
383.70 2.722
383.80 2.72
383.90 2.717
384.00 2.714
384.10 2.712
384.20 2.709
384.30 2.706
384.40 2.704
384.50 2.701
384.60 2.698
384.70 2.696
384.80 2.693
384.90 2.69
385.00 2.688
385.10 2.685
385.20 2.682
385.30 2.68
385.40 2.677
385.50 2.674
385.60 2.672
385.70 2.669
385.80 2.666
385.90 2.664
386.00 2.661
386.10 2.659
386.20 2.656
386.30 2.653
386.40 2.651
386.50 2.648
386.60 2.646
386.70 2.643
386.80 2.64
386.90 2.638
387.00 2.635
387.10 2.633
387.20 2.63
387.30 2.628
387.40 2.625
387.50 2.622
387.60 2.62
387.70 2.617
387.80 2.615
387.90 2.612
388.00 2.61
388.10 2.607
388.20 2.605
388.30 2.602
388.40 2.6
388.50 2.597
388.60 2.595
388.70 2.592
388.80 2.59
388.90 2.587
389.00 2.585
389.10 2.582
389.20 2.58
389.30 2.577
389.40 2.575
389.50 2.572
389.60 2.57
389.70 2.567
389.80 2.565
389.90 2.562
390.00 2.56
390.10 2.558
390.20 2.555
390.30 2.553
390.40 2.55
390.50 2.548
390.60 2.545
390.70 2.543
390.80 2.541
390.90 2.538
391.00 2.536
391.10 2.533
391.20 2.531
391.30 2.529
391.40 2.526
391.50 2.524
391.60 2.521
391.70 2.519
391.80 2.516
391.90 2.514
392.00 2.512
392.10 2.509
392.20 2.507
392.30 2.504
392.40 2.502
392.50 2.5
392.60 2.497
392.70 2.495
392.80 2.492
392.90 2.49
393.00 2.487
393.10 2.485
393.20 2.483
393.30 2.48
393.40 2.478
393.50 2.475
393.60 2.473
393.70 2.47
393.80 2.468
393.90 2.466
394.00 2.463
394.10 2.461
394.20 2.458
394.30 2.456
394.40 2.453
394.50 2.451
394.60 2.449
394.70 2.446
394.80 2.444
394.90 2.441
395.00 2.439
395.10 2.436
395.20 2.434
395.30 2.431
395.40 2.429
395.50 2.427
395.60 2.424
395.70 2.422
395.80 2.419
395.90 2.417
396.00 2.415
396.10 2.412
396.20 2.41
396.30 2.407
396.40 2.405
396.50 2.403
396.60 2.4
396.70 2.398
396.80 2.396
396.90 2.394
397.00 2.391
397.10 2.389
397.20 2.387
397.30 2.385
397.40 2.383
397.50 2.381
397.60 2.379
397.70 2.377
397.80 2.375
397.90 2.373
398.00 2.371
398.10 2.369
398.20 2.367
398.30 2.365
398.40 2.363
398.50 2.361
398.60 2.359
398.70 2.357
398.80 2.355
398.90 2.353
399.00 2.351
399.10 2.349
399.20 2.347
399.30 2.345
399.40 2.343
399.50 2.341
399.60 2.339
399.70 2.337
399.80 2.335
399.90 2.333
400.00 2.331
400.10 2.329
400.20 2.326
400.30 2.324
400.40 2.322
400.50 2.32
400.60 2.318
400.70 2.316
400.80 2.314
400.90 2.312
401.00 2.31
401.10 2.308
401.20 2.306
401.30 2.304
401.40 2.302
401.50 2.3
401.60 2.297
401.70 2.295
401.80 2.293
401.90 2.291
402.00 2.289
402.10 2.287
402.20 2.285
402.30 2.282
402.40 2.28
402.50 2.278
402.60 2.276
402.70 2.274
402.80 2.272
402.90 2.269
403.00 2.267
403.10 2.265
403.20 2.263
403.30 2.26
403.40 2.258
403.50 2.256
403.60 2.254
403.70 2.251
403.80 2.249
403.90 2.247
404.00 2.245
404.10 2.242
404.20 2.24
404.30 2.238
404.40 2.235
404.50 2.233
404.60 2.231
404.70 2.228
404.80 2.226
404.90 2.223
405.00 2.221
405.10 2.219
405.20 2.216
405.30 2.214
405.40 2.211
405.50 2.209
405.60 2.206
405.70 2.204
405.80 2.202
405.90 2.199
406.00 2.197
406.10 2.194
406.20 2.192
406.30 2.189
406.40 2.186
406.50 2.184
406.60 2.181
406.70 2.179
406.80 2.176
406.90 2.174
407.00 2.171
407.10 2.169
407.20 2.166
407.30 2.163
407.40 2.161
407.50 2.158
407.60 2.155
407.70 2.153
407.80 2.15
407.90 2.148
408.00 2.145
408.10 2.142
408.20 2.14
408.30 2.137
408.40 2.134
408.50 2.132
408.60 2.129
408.70 2.127
408.80 2.124
408.90 2.122
409.00 2.119
409.10 2.117
409.20 2.114
409.30 2.112
409.40 2.11
409.50 2.107
409.60 2.105
409.70 2.103
409.80 2.102
409.90 2.1
410.00 2.099
410.10 2.097
410.20 2.095
410.30 2.093
410.40 2.091
410.50 2.089
410.60 2.087
410.70 2.085
410.80 2.083
410.90 2.081
411.00 2.08
411.10 2.078
411.20 2.077
411.30 2.076
411.40 2.074
411.50 2.073
411.60 2.072
411.70 2.071
411.80 2.069
411.90 2.068
412.00 2.067
412.10 2.066
412.20 2.065
412.30 2.064
412.40 2.063
412.50 2.061
412.60 2.06
412.70 2.059
412.80 2.058
412.90 2.057
413.00 2.055
413.10 2.054
413.20 2.053
413.30 2.052
413.40 2.051
413.50 2.049
413.60 2.048
413.70 2.047
413.80 2.046
413.90 2.044
414.00 2.043
414.10 2.042
414.20 2.041
414.30 2.039
414.40 2.038
414.50 2.037
414.60 2.035
414.70 2.034
414.80 2.033
414.90 2.031
415.00 2.03
415.10 2.028
415.20 2.027
415.30 2.026
415.40 2.024
415.50 2.023
415.60 2.021
415.70 2.02
415.80 2.019
415.90 2.017
416.00 2.016
416.10 2.014
416.20 2.013
416.30 2.011
416.40 2.01
416.50 2.008
416.60 2.007
416.70 2.005
416.80 2.004
416.90 2.002
417.00 2
417.10 1.999
417.20 1.997
417.30 1.996
417.40 1.994
417.50 1.993
417.60 1.991
417.70 1.99
417.80 1.988
417.90 1.986
418.00 1.985
418.10 1.983
418.20 1.981
418.30 1.98
418.40 1.978
418.50 1.977
418.60 1.975
418.70 1.973
418.80 1.972
418.90 1.97
419.00 1.968
419.10 1.967
419.20 1.965
419.30 1.963
419.40 1.962
419.50 1.96
419.60 1.958
419.70 1.957
419.80 1.955
419.90 1.953
420.00 1.952
420.10 1.95
420.20 1.948
420.30 1.946
420.40 1.945
420.50 1.943
420.60 1.941
420.70 1.94
420.80 1.938
420.90 1.936
421.00 1.934
421.10 1.933
421.20 1.931
421.30 1.929
421.40 1.927
421.50 1.926
421.60 1.924
421.70 1.922
421.80 1.92
421.90 1.918
422.00 1.917
422.10 1.915
422.20 1.913
422.30 1.911
422.40 1.91
422.50 1.908
422.60 1.906
422.70 1.904
422.80 1.902
422.90 1.9
423.00 1.899
423.10 1.897
423.20 1.895
423.30 1.893
423.40 1.891
423.50 1.889
423.60 1.888
423.70 1.886
423.80 1.884
423.90 1.882
424.00 1.88
424.10 1.878
424.20 1.876
424.30 1.875
424.40 1.873
424.50 1.871
424.60 1.869
424.70 1.867
424.80 1.865
424.90 1.863
425.00 1.861
425.10 1.859
425.20 1.857
425.30 1.855
425.40 1.853
425.50 1.851
425.60 1.849
425.70 1.847
425.80 1.845
425.90 1.843
426.00 1.841
426.10 1.839
426.20 1.837
426.30 1.835
426.40 1.833
426.50 1.831
426.60 1.829
426.70 1.827
426.80 1.825
426.90 1.823
427.00 1.821
427.10 1.819
427.20 1.816
427.30 1.814
427.40 1.812
427.50 1.81
427.60 1.808
427.70 1.805
427.80 1.803
427.90 1.801
428.00 1.799
428.10 1.797
428.20 1.794
428.30 1.792
428.40 1.79
428.50 1.787
428.60 1.785
428.70 1.783
428.80 1.78
428.90 1.778
429.00 1.775
429.10 1.773
429.20 1.771
429.30 1.768
429.40 1.766
429.50 1.763
429.60 1.761
429.70 1.758
429.80 1.755
429.90 1.753
430.00 1.75
430.10 1.748
430.20 1.745
430.30 1.742
430.40 1.74
430.50 1.737
430.60 1.734
430.70 1.731
430.80 1.729
430.90 1.726
431.00 1.723
431.10 1.72
431.20 1.717
431.30 1.714
431.40 1.712
431.50 1.709
431.60 1.706
431.70 1.703
431.80 1.7
431.90 1.697
432.00 1.694
432.10 1.691
432.20 1.688
432.30 1.685
432.40 1.682
432.50 1.679
432.60 1.676
432.70 1.673
432.80 1.67
432.90 1.667
433.00 1.664
433.10 1.661
433.20 1.658
433.30 1.654
433.40 1.651
433.50 1.648
433.60 1.644
433.70 1.641
433.80 1.637
433.90 1.633
434.00 1.63
434.10 1.629
434.20 1.629
434.30 1.63
434.40 1.631
434.50 1.632
434.60 1.633
434.70 1.633
434.80 1.634
434.90 1.634
435.00 1.634
435.10 1.635
435.20 1.635
435.30 1.635
435.40 1.635
435.50 1.635
435.60 1.635
435.70 1.635
435.80 1.636
435.90 1.636
436.00 1.636
436.10 1.636
436.20 1.636
436.30 1.636
436.40 1.636
436.50 1.636
436.60 1.636
436.70 1.636
436.80 1.636
436.90 1.636
437.00 1.635
437.10 1.635
437.20 1.635
437.30 1.635
437.40 1.635
437.50 1.634
437.60 1.634
437.70 1.634
437.80 1.634
437.90 1.633
438.00 1.633
438.10 1.633
438.20 1.632
438.30 1.632
438.40 1.631
438.50 1.631
438.60 1.63
438.70 1.63
438.80 1.629
438.90 1.629
439.00 1.628
439.10 1.627
439.20 1.627
439.30 1.626
439.40 1.625
439.50 1.625
439.60 1.624
439.70 1.623
439.80 1.622
439.90 1.622
440.00 1.621
440.10 1.62
440.20 1.619
440.30 1.618
440.40 1.618
440.50 1.617
440.60 1.616
440.70 1.615
440.80 1.614
440.90 1.613
441.00 1.612
441.10 1.611
441.20 1.61
441.30 1.609
441.40 1.608
441.50 1.607
441.60 1.606
441.70 1.605
441.80 1.604
441.90 1.603
442.00 1.602
442.10 1.601
442.20 1.6
442.30 1.599
442.40 1.598
442.50 1.597
442.60 1.596
442.70 1.595
442.80 1.594
442.90 1.593
443.00 1.592
443.10 1.59
443.20 1.589
443.30 1.588
443.40 1.587
443.50 1.586
443.60 1.585
443.70 1.584
443.80 1.582
443.90 1.581
444.00 1.58
444.10 1.579
444.20 1.578
444.30 1.577
444.40 1.575
444.50 1.574
444.60 1.573
444.70 1.572
444.80 1.571
444.90 1.569
445.00 1.568
445.10 1.567
445.20 1.566
445.30 1.565
445.40 1.563
445.50 1.562
445.60 1.561
445.70 1.56
445.80 1.559
445.90 1.557
446.00 1.556
446.10 1.555
446.20 1.554
446.30 1.552
446.40 1.551
446.50 1.55
446.60 1.549
446.70 1.548
446.80 1.546
446.90 1.545
447.00 1.544
447.10 1.543
447.20 1.541
447.30 1.54
447.40 1.539
447.50 1.538
447.60 1.536
447.70 1.535
447.80 1.534
447.90 1.533
448.00 1.531
448.10 1.53
448.20 1.529
448.30 1.528
448.40 1.526
448.50 1.525
448.60 1.524
448.70 1.523
448.80 1.521
448.90 1.52
449.00 1.519
449.10 1.518
449.20 1.516
449.30 1.515
449.40 1.514
449.50 1.513
449.60 1.511
449.70 1.51
449.80 1.509
449.90 1.508
450.00 1.506
450.10 1.505
450.20 1.504
450.30 1.503
450.40 1.501
450.50 1.5
450.60 1.499
450.70 1.498
450.80 1.496
450.90 1.495
451.00 1.494
451.10 1.493
451.20 1.491
451.30 1.49
451.40 1.489
451.50 1.488
451.60 1.486
451.70 1.485
451.80 1.484
451.90 1.483
452.00 1.481
452.10 1.48
452.20 1.479
452.30 1.478
452.40 1.476
452.50 1.475
452.60 1.474
452.70 1.473
452.80 1.471
452.90 1.47
453.00 1.469
453.10 1.468
453.20 1.467
453.30 1.465
453.40 1.464
453.50 1.463
453.60 1.462
453.70 1.46
453.80 1.459
453.90 1.458
454.00 1.457
454.10 1.455
454.20 1.454
454.30 1.453
454.40 1.452
454.50 1.451
454.60 1.449
454.70 1.448
454.80 1.447
454.90 1.446
455.00 1.444
455.10 1.443
455.20 1.442
455.30 1.441
455.40 1.44
455.50 1.438
455.60 1.437
455.70 1.436
455.80 1.435
455.90 1.434
456.00 1.432
456.10 1.431
456.20 1.43
456.30 1.429
456.40 1.427
456.50 1.426
456.60 1.425
456.70 1.424
456.80 1.423
456.90 1.421
457.00 1.42
457.10 1.419
457.20 1.418
457.30 1.417
457.40 1.415
457.50 1.414
457.60 1.413
457.70 1.412
457.80 1.411
457.90 1.409
458.00 1.408
458.10 1.407
458.20 1.406
458.30 1.405
458.40 1.404
458.50 1.402
458.60 1.401
458.70 1.4
458.80 1.399
458.90 1.398
459.00 1.396
459.10 1.395
459.20 1.394
459.30 1.393
459.40 1.392
459.50 1.391
459.60 1.389
459.70 1.388
459.80 1.387
459.90 1.386
460.00 1.385
460.10 1.383
460.20 1.382
460.30 1.381
460.40 1.38
460.50 1.379
460.60 1.378
460.70 1.376
460.80 1.375
460.90 1.374
461.00 1.373
461.10 1.372
461.20 1.371
461.30 1.37
461.40 1.368
461.50 1.367
461.60 1.366
461.70 1.365
461.80 1.364
461.90 1.363
462.00 1.361
462.10 1.36
462.20 1.359
462.30 1.358
462.40 1.357
462.50 1.356
462.60 1.355
462.70 1.353
462.80 1.352
462.90 1.351
463.00 1.35
463.10 1.349
463.20 1.348
463.30 1.347
463.40 1.345
463.50 1.344
463.60 1.343
463.70 1.342
463.80 1.341
463.90 1.34
464.00 1.339
464.10 1.337
464.20 1.336
464.30 1.335
464.40 1.334
464.50 1.333
464.60 1.332
464.70 1.331
464.80 1.329
464.90 1.328
465.00 1.327
465.10 1.326
465.20 1.325
465.30 1.324
465.40 1.323
465.50 1.322
465.60 1.32
465.70 1.319
465.80 1.318
465.90 1.317
466.00 1.316
466.10 1.315
466.20 1.314
466.30 1.313
466.40 1.312
466.50 1.31
466.60 1.309
466.70 1.308
466.80 1.307
466.90 1.306
467.00 1.305
467.10 1.304
467.20 1.303
467.30 1.302
467.40 1.3
467.50 1.299
467.60 1.298
467.70 1.297
467.80 1.296
467.90 1.295
468.00 1.294
468.10 1.293
468.20 1.292
468.30 1.29
468.40 1.289
468.50 1.288
468.60 1.287
468.70 1.286
468.80 1.285
468.90 1.284
469.00 1.283
469.10 1.282
469.20 1.28
469.30 1.279
469.40 1.278
469.50 1.277
469.60 1.276
469.70 1.275
469.80 1.274
469.90 1.273
470.00 1.272
470.10 1.271
470.20 1.269
470.30 1.268
470.40 1.267
470.50 1.266
470.60 1.265
470.70 1.264
470.80 1.263
470.90 1.262
471.00 1.261
471.10 1.26
471.20 1.258
471.30 1.257
471.40 1.256
471.50 1.255
471.60 1.254
471.70 1.253
471.80 1.252
471.90 1.251
472.00 1.25
472.10 1.249
472.20 1.247
472.30 1.246
472.40 1.245
472.50 1.244
472.60 1.243
472.70 1.242
472.80 1.241
472.90 1.24
473.00 1.239
473.10 1.237
473.20 1.236
473.30 1.235
473.40 1.234
473.50 1.233
473.60 1.232
473.70 1.231
473.80 1.23
473.90 1.229
474.00 1.227
474.10 1.226
474.20 1.225
474.30 1.224
474.40 1.223
474.50 1.222
474.60 1.221
474.70 1.22
474.80 1.218
474.90 1.217
475.00 1.216
475.10 1.215
475.20 1.214
475.30 1.213
475.40 1.212
475.50 1.21
475.60 1.209
475.70 1.208
475.80 1.207
475.90 1.206
476.00 1.205
476.10 1.203
476.20 1.202
476.30 1.201
476.40 1.2
476.50 1.199
476.60 1.197
476.70 1.196
476.80 1.195
476.90 1.194
477.00 1.193
477.10 1.191
477.20 1.19
477.30 1.189
477.40 1.188
477.50 1.186
477.60 1.185
477.70 1.184
477.80 1.183
477.90 1.181
478.00 1.18
478.10 1.179
478.20 1.178
478.30 1.176
478.40 1.175
478.50 1.174
478.60 1.172
478.70 1.171
478.80 1.17
478.90 1.168
479.00 1.167
479.10 1.166
479.20 1.164
479.30 1.163
479.40 1.161
479.50 1.16
479.60 1.159
479.70 1.157
479.80 1.156
479.90 1.154
480.00 1.153
480.10 1.151
480.20 1.15
480.30 1.148
480.40 1.147
480.50 1.145
480.60 1.144
480.70 1.142
480.80 1.14
480.90 1.139
481.00 1.137
481.10 1.136
481.20 1.134
481.30 1.132
481.40 1.13
481.50 1.129
481.60 1.127
481.70 1.125
481.80 1.123
481.90 1.121
482.00 1.12
482.10 1.118
482.20 1.116
482.30 1.114
482.40 1.112
482.50 1.11
482.60 1.108
482.70 1.106
482.80 1.104
482.90 1.102
483.00 1.1
483.10 1.098
483.20 1.095
483.30 1.093
483.40 1.091
483.50 1.088
483.60 1.086
483.70 1.084
483.80 1.082
483.90 1.079
484.00 1.077
484.10 1.075
484.20 1.072
484.30 1.07
484.40 1.067
484.50 1.065
484.60 1.062
484.70 1.06
484.80 1.058
484.90 1.055
485.00 1.053
485.10 1.051
485.20 1.048
485.30 1.046
485.40 1.044
485.50 1.043
485.60 1.042
485.70 1.041
485.80 1.042
485.90 1.045
486.00 1.049
486.10 1.053
486.20 1.052
486.30 1.044
486.40 1.04
486.50 1.036
486.60 1.034
486.70 1.033
486.80 1.033
486.90 1.033
487.00 1.033
487.10 1.034
487.20 1.034
487.30 1.035
487.40 1.036
487.50 1.036
487.60 1.037
487.70 1.038
487.80 1.039
487.90 1.039
488.00 1.04
488.10 1.041
488.20 1.042
488.30 1.042
488.40 1.043
488.50 1.043
488.60 1.044
488.70 1.045
488.80 1.045
488.90 1.046
489.00 1.046
489.10 1.047
489.20 1.047
489.30 1.048
489.40 1.048
489.50 1.048
489.60 1.048
489.70 1.049
489.80 1.049
489.90 1.049
490.00 1.049
490.10 1.05
490.20 1.05
490.30 1.05
490.40 1.05
490.50 1.05
490.60 1.05
490.70 1.05
490.80 1.05
490.90 1.05
491.00 1.05
491.10 1.05
491.20 1.05
491.30 1.049
491.40 1.049
491.50 1.049
491.60 1.049
491.70 1.049
491.80 1.048
491.90 1.048
492.00 1.048
492.10 1.048
492.20 1.047
492.30 1.047
492.40 1.047
492.50 1.046
492.60 1.046
492.70 1.045
492.80 1.045
492.90 1.045
493.00 1.044
493.10 1.044
493.20 1.043
493.30 1.043
493.40 1.042
493.50 1.042
493.60 1.041
493.70 1.041
493.80 1.04
493.90 1.04
494.00 1.04
494.10 1.039
494.20 1.038
494.30 1.038
494.40 1.037
494.50 1.037
494.60 1.036
494.70 1.036
494.80 1.035
494.90 1.034
495.00 1.034
495.10 1.033
495.20 1.033
495.30 1.032
495.40 1.031
495.50 1.031
495.60 1.03
495.70 1.03
495.80 1.029
495.90 1.028
496.00 1.028
496.10 1.027
496.20 1.026
496.30 1.026
496.40 1.025
496.50 1.024
496.60 1.024
496.70 1.023
496.80 1.022
496.90 1.022
497.00 1.021
497.10 1.02
497.20 1.02
497.30 1.019
497.40 1.018
497.50 1.018
497.60 1.017
497.70 1.016
497.80 1.016
497.90 1.015
498.00 1.014
498.10 1.014
498.20 1.013
498.30 1.012
498.40 1.011
498.50 1.011
498.60 1.01
498.70 1.009
498.80 1.009
498.90 1.008
499.00 1.007
499.10 1.006
499.20 1.006
499.30 1.005
499.40 1.004
499.50 1.004
499.60 1.003
499.70 1.002
499.80 1.001
499.90 1.001
500.00 1
500.10 0.9993
500.20 0.9986
500.30 0.9978
500.40 0.9971
500.50 0.9964
500.60 0.9957
500.70 0.9949
500.80 0.9942
500.90 0.9935
501.00 0.9928
501.10 0.9921
501.20 0.9913
501.30 0.9906
501.40 0.9899
501.50 0.9891
501.60 0.9884
501.70 0.9877
501.80 0.987
501.90 0.9862
502.00 0.9855
502.10 0.9848
502.20 0.9841
502.30 0.9833
502.40 0.9826
502.50 0.9819
502.60 0.9812
502.70 0.9804
502.80 0.9797
502.90 0.979
503.00 0.9783
503.10 0.9775
503.20 0.9768
503.30 0.9761
503.40 0.9753
503.50 0.9746
503.60 0.9739
503.70 0.9732
503.80 0.9724
503.90 0.9717
504.00 0.971
504.10 0.9703
504.20 0.9696
504.30 0.9688
504.40 0.9681
504.50 0.9674
504.60 0.9667
504.70 0.9659
504.80 0.9652
504.90 0.9645
505.00 0.9638
505.10 0.963
505.20 0.9623
505.30 0.9616
505.40 0.9609
505.50 0.9602
505.60 0.9594
505.70 0.9587
505.80 0.958
505.90 0.9573
506.00 0.9566
506.10 0.9559
506.20 0.9551
506.30 0.9544
506.40 0.9537
506.50 0.953
506.60 0.9523
506.70 0.9515
506.80 0.9508
506.90 0.9501
507.00 0.9494
507.10 0.9487
507.20 0.948
507.30 0.9473
507.40 0.9466
507.50 0.9458
507.60 0.9451
507.70 0.9444
507.80 0.9437
507.90 0.943
508.00 0.9423
508.10 0.9416
508.20 0.9409
508.30 0.9402
508.40 0.9395
508.50 0.9387
508.60 0.938
508.70 0.9373
508.80 0.9366
508.90 0.9359
509.00 0.9352
509.10 0.9345
509.20 0.9338
509.30 0.9331
509.40 0.9324
509.50 0.9317
509.60 0.931
509.70 0.9303
509.80 0.9296
509.90 0.9289
510.00 0.9282
510.10 0.9275
510.20 0.9268
510.30 0.9261
510.40 0.9254
510.50 0.9247
510.60 0.924
510.70 0.9233
510.80 0.9226
510.90 0.9219
511.00 0.9212
511.10 0.9205
511.20 0.9199
511.30 0.9192
511.40 0.9185
511.50 0.9178
511.60 0.9171
511.70 0.9164
511.80 0.9157
511.90 0.915
512.00 0.9143
512.10 0.9136
512.20 0.913
512.30 0.9123
512.40 0.9116
512.50 0.9109
512.60 0.9102
512.70 0.9095
512.80 0.9088
512.90 0.9082
513.00 0.9075
513.10 0.9068
513.20 0.9061
513.30 0.9054
513.40 0.9048
513.50 0.9041
513.60 0.9034
513.70 0.9027
513.80 0.902
513.90 0.9014
514.00 0.9007
514.10 0.9
514.20 0.8993
514.30 0.8987
514.40 0.898
514.50 0.8973
514.60 0.8966
514.70 0.896
514.80 0.8953
514.90 0.8946
515.00 0.894
515.10 0.8933
515.20 0.8926
515.30 0.8919
515.40 0.8913
515.50 0.8906
515.60 0.8899
515.70 0.8893
515.80 0.8886
515.90 0.8879
516.00 0.8873
516.10 0.8866
516.20 0.8859
516.30 0.8853
516.40 0.8846
516.50 0.8839
516.60 0.8833
516.70 0.8826
516.80 0.882
516.90 0.8813
517.00 0.8806
517.10 0.88
517.20 0.8793
517.30 0.8787
517.40 0.878
517.50 0.8774
517.60 0.8767
517.70 0.876
517.80 0.8754
517.90 0.8747
518.00 0.8741
518.10 0.8734
518.20 0.8728
518.30 0.8721
518.40 0.8715
518.50 0.8708
518.60 0.8702
518.70 0.8695
518.80 0.8689
518.90 0.8682
519.00 0.8676
519.10 0.8669
519.20 0.8663
519.30 0.8656
519.40 0.865
519.50 0.8644
519.60 0.8637
519.70 0.8631
519.80 0.8624
519.90 0.8618
520.00 0.8611
520.10 0.8605
520.20 0.8599
520.30 0.8592
520.40 0.8586
520.50 0.8579
520.60 0.8573
520.70 0.8567
520.80 0.856
520.90 0.8554
521.00 0.8547
521.10 0.8541
521.20 0.8535
521.30 0.8528
521.40 0.8522
521.50 0.8516
521.60 0.8509
521.70 0.8503
521.80 0.8497
521.90 0.849
522.00 0.8484
522.10 0.8478
522.20 0.8471
522.30 0.8465
522.40 0.8459
522.50 0.8453
522.60 0.8446
522.70 0.844
522.80 0.8434
522.90 0.8428
523.00 0.8421
523.10 0.8415
523.20 0.8409
523.30 0.8403
523.40 0.8396
523.50 0.839
523.60 0.8384
523.70 0.8378
523.80 0.8372
523.90 0.8365
524.00 0.8359
524.10 0.8353
524.20 0.8347
524.30 0.8341
524.40 0.8334
524.50 0.8328
524.60 0.8322
524.70 0.8316
524.80 0.831
524.90 0.8304
525.00 0.8297
525.10 0.8291
525.20 0.8285
525.30 0.8279
525.40 0.8273
525.50 0.8267
525.60 0.8261
525.70 0.8255
525.80 0.8249
525.90 0.8243
526.00 0.8236
526.10 0.823
526.20 0.8224
526.30 0.8218
526.40 0.8212
526.50 0.8206
526.60 0.82
526.70 0.8194
526.80 0.8188
526.90 0.8182
527.00 0.8176
527.10 0.817
527.20 0.8164
527.30 0.8158
527.40 0.8152
527.50 0.8146
527.60 0.814
527.70 0.8134
527.80 0.8128
527.90 0.8122
528.00 0.8116
528.10 0.811
528.20 0.8104
528.30 0.8098
528.40 0.8092
528.50 0.8086
528.60 0.808
528.70 0.8074
528.80 0.8068
528.90 0.8062
529.00 0.8056
529.10 0.8051
529.20 0.8045
529.30 0.8039
529.40 0.8033
529.50 0.8027
529.60 0.8021
529.70 0.8015
529.80 0.8009
529.90 0.8003
530.00 0.7998
530.10 0.7992
530.20 0.7986
530.30 0.798
530.40 0.7974
530.50 0.7968
530.60 0.7963
530.70 0.7957
530.80 0.7951
530.90 0.7945
531.00 0.7939
531.10 0.7933
531.20 0.7928
531.30 0.7922
531.40 0.7916
531.50 0.791
531.60 0.7904
531.70 0.7899
531.80 0.7893
531.90 0.7887
532.00 0.7881
532.10 0.7876
532.20 0.787
532.30 0.7864
532.40 0.7858
532.50 0.7853
532.60 0.7847
532.70 0.7841
532.80 0.7836
532.90 0.783
533.00 0.7824
533.10 0.7818
533.20 0.7813
533.30 0.7807
533.40 0.7801
533.50 0.7796
533.60 0.779
533.70 0.7784
533.80 0.7779
533.90 0.7773
534.00 0.7767
534.10 0.7762
534.20 0.7756
534.30 0.775
534.40 0.7745
534.50 0.7739
534.60 0.7733
534.70 0.7728
534.80 0.7722
534.90 0.7717
535.00 0.7711
535.10 0.7705
535.20 0.77
535.30 0.7694
535.40 0.7689
535.50 0.7683
535.60 0.7677
535.70 0.7672
535.80 0.7666
535.90 0.7661
536.00 0.7655
536.10 0.765
536.20 0.7644
536.30 0.7639
536.40 0.7633
536.50 0.7628
536.60 0.7622
536.70 0.7616
536.80 0.7611
536.90 0.7605
537.00 0.76
537.10 0.7594
537.20 0.7589
537.30 0.7583
537.40 0.7578
537.50 0.7572
537.60 0.7567
537.70 0.7562
537.80 0.7556
537.90 0.7551
538.00 0.7545
538.10 0.754
538.20 0.7534
538.30 0.7529
538.40 0.7523
538.50 0.7518
538.60 0.7512
538.70 0.7507
538.80 0.7502
538.90 0.7496
539.00 0.7491
539.10 0.7485
539.20 0.748
539.30 0.7475
539.40 0.7469
539.50 0.7464
539.60 0.7459
539.70 0.7453
539.80 0.7448
539.90 0.7442
540.00 0.7437
540.10 0.7432
540.20 0.7426
540.30 0.7421
540.40 0.7416
540.50 0.741
540.60 0.7405
540.70 0.74
540.80 0.7394
540.90 0.7389
541.00 0.7384
541.10 0.7378
541.20 0.7373
541.30 0.7368
541.40 0.7363
541.50 0.7357
541.60 0.7352
541.70 0.7347
541.80 0.7341
541.90 0.7336
542.00 0.7331
542.10 0.7326
542.20 0.732
542.30 0.7315
542.40 0.731
542.50 0.7305
542.60 0.7299
542.70 0.7294
542.80 0.7289
542.90 0.7284
543.00 0.7278
543.10 0.7273
543.20 0.7268
543.30 0.7263
543.40 0.7258
543.50 0.7252
543.60 0.7247
543.70 0.7242
543.80 0.7237
543.90 0.7232
544.00 0.7227
544.10 0.7221
544.20 0.7216
544.30 0.7211
544.40 0.7206
544.50 0.7201
544.60 0.7196
544.70 0.7191
544.80 0.7185
544.90 0.718
545.00 0.7175
545.10 0.717
545.20 0.7165
545.30 0.716
545.40 0.7155
545.50 0.715
545.60 0.7144
545.70 0.7139
545.80 0.7134
545.90 0.7129
546.00 0.7124
546.10 0.7119
546.20 0.7114
546.30 0.7109
546.40 0.7104
546.50 0.7099
546.60 0.7094
546.70 0.7089
546.80 0.7084
546.90 0.7079
547.00 0.7074
547.10 0.7069
547.20 0.7064
547.30 0.7059
547.40 0.7054
547.50 0.7049
547.60 0.7044
547.70 0.7039
547.80 0.7034
547.90 0.7029
548.00 0.7024
548.10 0.7019
548.20 0.7014
548.30 0.7009
548.40 0.7004
548.50 0.6999
548.60 0.6994
548.70 0.6989
548.80 0.6984
548.90 0.6979
549.00 0.6974
549.10 0.6969
549.20 0.6964
549.30 0.6959
549.40 0.6954
549.50 0.6949
549.60 0.6944
549.70 0.6939
549.80 0.6934
549.90 0.6929
550.00 0.6925
550.10 0.692
550.20 0.6915
550.30 0.691
550.40 0.6905
550.50 0.69
550.60 0.6895
550.70 0.689
550.80 0.6886
550.90 0.6881
551.00 0.6876
551.10 0.6871
551.20 0.6866
551.30 0.6861
551.40 0.6856
551.50 0.6852
551.60 0.6847
551.70 0.6842
551.80 0.6837
551.90 0.6832
552.00 0.6827
552.10 0.6823
552.20 0.6818
552.30 0.6813
552.40 0.6808
552.50 0.6803
552.60 0.6799
552.70 0.6794
552.80 0.6789
552.90 0.6784
553.00 0.678
553.10 0.6775
553.20 0.677
553.30 0.6765
553.40 0.6761
553.50 0.6756
553.60 0.6751
553.70 0.6746
553.80 0.6742
553.90 0.6737
554.00 0.6732
554.10 0.6727
554.20 0.6723
554.30 0.6718
554.40 0.6713
554.50 0.6708
554.60 0.6704
554.70 0.6699
554.80 0.6694
554.90 0.669
555.00 0.6685
555.10 0.668
555.20 0.6676
555.30 0.6671
555.40 0.6666
555.50 0.6662
555.60 0.6657
555.70 0.6652
555.80 0.6648
555.90 0.6643
556.00 0.6638
556.10 0.6634
556.20 0.6629
556.30 0.6624
556.40 0.662
556.50 0.6615
556.60 0.661
556.70 0.6606
556.80 0.6601
556.90 0.6597
557.00 0.6592
557.10 0.6587
557.20 0.6583
557.30 0.6578
557.40 0.6574
557.50 0.6569
557.60 0.6564
557.70 0.656
557.80 0.6555
557.90 0.6551
558.00 0.6546
558.10 0.6542
558.20 0.6537
558.30 0.6532
558.40 0.6528
558.50 0.6523
558.60 0.6519
558.70 0.6514
558.80 0.651
558.90 0.6505
559.00 0.6501
559.10 0.6496
559.20 0.6492
559.30 0.6487
559.40 0.6483
559.50 0.6478
559.60 0.6474
559.70 0.6469
559.80 0.6465
559.90 0.646
560.00 0.6456
560.10 0.6451
560.20 0.6447
560.30 0.6442
560.40 0.6438
560.50 0.6433
560.60 0.6429
560.70 0.6424
560.80 0.642
560.90 0.6415
561.00 0.6411
561.10 0.6406
561.20 0.6402
561.30 0.6398
561.40 0.6393
561.50 0.6389
561.60 0.6384
561.70 0.638
561.80 0.6375
561.90 0.6371
562.00 0.6367
562.10 0.6362
562.20 0.6358
562.30 0.6353
562.40 0.6349
562.50 0.6345
562.60 0.634
562.70 0.6336
562.80 0.6331
562.90 0.6327
563.00 0.6323
563.10 0.6318
563.20 0.6314
563.30 0.631
563.40 0.6305
563.50 0.6301
563.60 0.6296
563.70 0.6292
563.80 0.6288
563.90 0.6283
564.00 0.6279
564.10 0.6275
564.20 0.627
564.30 0.6266
564.40 0.6262
564.50 0.6257
564.60 0.6253
564.70 0.6249
564.80 0.6245
564.90 0.624
565.00 0.6236
565.10 0.6232
565.20 0.6227
565.30 0.6223
565.40 0.6219
565.50 0.6214
565.60 0.621
565.70 0.6206
565.80 0.6202
565.90 0.6197
566.00 0.6193
566.10 0.6189
566.20 0.6185
566.30 0.618
566.40 0.6176
566.50 0.6172
566.60 0.6168
566.70 0.6163
566.80 0.6159
566.90 0.6155
567.00 0.6151
567.10 0.6146
567.20 0.6142
567.30 0.6138
567.40 0.6134
567.50 0.613
567.60 0.6125
567.70 0.6121
567.80 0.6117
567.90 0.6113
568.00 0.6109
568.10 0.6104
568.20 0.61
568.30 0.6096
568.40 0.6092
568.50 0.6088
568.60 0.6084
568.70 0.6079
568.80 0.6075
568.90 0.6071
569.00 0.6067
569.10 0.6063
569.20 0.6059
569.30 0.6054
569.40 0.605
569.50 0.6046
569.60 0.6042
569.70 0.6038
569.80 0.6034
569.90 0.603
570.00 0.6026
570.10 0.6021
570.20 0.6017
570.30 0.6013
570.40 0.6009
570.50 0.6005
570.60 0.6001
570.70 0.5997
570.80 0.5993
570.90 0.5989
571.00 0.5985
571.10 0.598
571.20 0.5976
571.30 0.5972
571.40 0.5968
571.50 0.5964
571.60 0.596
571.70 0.5956
571.80 0.5952
571.90 0.5948
572.00 0.5944
572.10 0.594
572.20 0.5936
572.30 0.5932
572.40 0.5928
572.50 0.5924
572.60 0.592
572.70 0.5916
572.80 0.5912
572.90 0.5908
573.00 0.5904
573.10 0.59
573.20 0.5896
573.30 0.5892
573.40 0.5888
573.50 0.5884
573.60 0.588
573.70 0.5876
573.80 0.5872
573.90 0.5868
574.00 0.5864
574.10 0.586
574.20 0.5856
574.30 0.5852
574.40 0.5848
574.50 0.5844
574.60 0.584
574.70 0.5836
574.80 0.5832
574.90 0.5828
575.00 0.5824
575.10 0.582
575.20 0.5816
575.30 0.5812
575.40 0.5808
575.50 0.5804
575.60 0.58
575.70 0.5796
575.80 0.5793
575.90 0.5789
576.00 0.5785
576.10 0.5781
576.20 0.5777
576.30 0.5773
576.40 0.5769
576.50 0.5765
576.60 0.5761
576.70 0.5757
576.80 0.5753
576.90 0.575
577.00 0.5746
577.10 0.5742
577.20 0.5738
577.30 0.5734
577.40 0.573
577.50 0.5726
577.60 0.5722
577.70 0.5719
577.80 0.5715
577.90 0.5711
578.00 0.5707
578.10 0.5703
578.20 0.5699
578.30 0.5696
578.40 0.5692
578.50 0.5688
578.60 0.5684
578.70 0.568
578.80 0.5676
578.90 0.5673
579.00 0.5669
579.10 0.5665
579.20 0.5661
579.30 0.5657
579.40 0.5653
579.50 0.565
579.60 0.5646
579.70 0.5642
579.80 0.5638
579.90 0.5634
580.00 0.5631
580.10 0.5627
580.20 0.5623
580.30 0.5619
580.40 0.5616
580.50 0.5612
580.60 0.5608
580.70 0.5604
580.80 0.5601
580.90 0.5597
581.00 0.5593
581.10 0.5589
581.20 0.5586
581.30 0.5582
581.40 0.5578
581.50 0.5574
581.60 0.5571
581.70 0.5567
581.80 0.5563
581.90 0.5559
582.00 0.5556
582.10 0.5552
582.20 0.5548
582.30 0.5545
582.40 0.5541
582.50 0.5537
582.60 0.5533
582.70 0.553
582.80 0.5526
582.90 0.5522
583.00 0.5519
583.10 0.5515
583.20 0.5511
583.30 0.5508
583.40 0.5504
583.50 0.55
583.60 0.5497
583.70 0.5493
583.80 0.5489
583.90 0.5486
584.00 0.5482
584.10 0.5478
584.20 0.5475
584.30 0.5471
584.40 0.5467
584.50 0.5464
584.60 0.546
584.70 0.5456
584.80 0.5453
584.90 0.5449
585.00 0.5445
585.10 0.5442
585.20 0.5438
585.30 0.5435
585.40 0.5431
585.50 0.5427
585.60 0.5424
585.70 0.542
585.80 0.5417
585.90 0.5413
586.00 0.5409
586.10 0.5406
586.20 0.5402
586.30 0.5399
586.40 0.5395
586.50 0.5391
586.60 0.5388
586.70 0.5384
586.80 0.5381
586.90 0.5377
587.00 0.5374
587.10 0.537
587.20 0.5366
587.30 0.5363
587.40 0.5359
587.50 0.5356
587.60 0.5352
587.70 0.5349
587.80 0.5345
587.90 0.5342
588.00 0.5338
588.10 0.5334
588.20 0.5331
588.30 0.5327
588.40 0.5324
588.50 0.532
588.60 0.5317
588.70 0.5313
588.80 0.531
588.90 0.5306
589.00 0.5303
589.10 0.5299
589.20 0.5296
589.30 0.5292
589.40 0.5289
589.50 0.5285
589.60 0.5282
589.70 0.5278
589.80 0.5275
589.90 0.5271
590.00 0.5268
590.10 0.5264
590.20 0.5261
590.30 0.5257
590.40 0.5254
590.50 0.525
590.60 0.5247
590.70 0.5243
590.80 0.524
590.90 0.5237
591.00 0.5233
591.10 0.523
591.20 0.5226
591.30 0.5223
591.40 0.5219
591.50 0.5216
591.60 0.5212
591.70 0.5209
591.80 0.5206
591.90 0.5202
592.00 0.5199
592.10 0.5195
592.20 0.5192
592.30 0.5188
592.40 0.5185
592.50 0.5182
592.60 0.5178
592.70 0.5175
592.80 0.5171
592.90 0.5168
593.00 0.5165
593.10 0.5161
593.20 0.5158
593.30 0.5154
593.40 0.5151
593.50 0.5148
593.60 0.5144
593.70 0.5141
593.80 0.5138
593.90 0.5134
594.00 0.5131
594.10 0.5127
594.20 0.5124
594.30 0.5121
594.40 0.5117
594.50 0.5114
594.60 0.5111
594.70 0.5107
594.80 0.5104
594.90 0.5101
595.00 0.5097
595.10 0.5094
595.20 0.5091
595.30 0.5087
595.40 0.5084
595.50 0.5081
595.60 0.5077
595.70 0.5074
595.80 0.5071
595.90 0.5067
596.00 0.5064
596.10 0.5061
596.20 0.5057
596.30 0.5054
596.40 0.5051
596.50 0.5047
596.60 0.5044
596.70 0.5041
596.80 0.5038
596.90 0.5034
597.00 0.5031
597.10 0.5028
597.20 0.5024
597.30 0.5021
597.40 0.5018
597.50 0.5015
597.60 0.5011
597.70 0.5008
597.80 0.5005
597.90 0.5002
598.00 0.4998
598.10 0.4995
598.20 0.4992
598.30 0.4988
598.40 0.4985
598.50 0.4982
598.60 0.4979
598.70 0.4976
598.80 0.4972
598.90 0.4969
599.00 0.4966
599.10 0.4963
599.20 0.4959
599.30 0.4956
599.40 0.4953
599.50 0.495
599.60 0.4946
599.70 0.4943
599.80 0.494
599.90 0.4937
600.00 0.4934
600.10 0.493
600.20 0.4927
600.30 0.4924
600.40 0.4921
600.50 0.4918
600.60 0.4914
600.70 0.4911
600.80 0.4908
600.90 0.4905
601.00 0.4902
601.10 0.4898
601.20 0.4895
601.30 0.4892
601.40 0.4889
601.50 0.4886
601.60 0.4883
601.70 0.4879
601.80 0.4876
601.90 0.4873
602.00 0.487
602.10 0.4867
602.20 0.4864
602.30 0.486
602.40 0.4857
602.50 0.4854
602.60 0.4851
602.70 0.4848
602.80 0.4845
602.90 0.4842
603.00 0.4838
603.10 0.4835
603.20 0.4832
603.30 0.4829
603.40 0.4826
603.50 0.4823
603.60 0.482
603.70 0.4817
603.80 0.4814
603.90 0.481
604.00 0.4807
604.10 0.4804
604.20 0.4801
604.30 0.4798
604.40 0.4795
604.50 0.4792
604.60 0.4789
604.70 0.4786
604.80 0.4783
604.90 0.4779
605.00 0.4776
605.10 0.4773
605.20 0.477
605.30 0.4767
605.40 0.4764
605.50 0.4761
605.60 0.4758
605.70 0.4755
605.80 0.4752
605.90 0.4749
606.00 0.4746
606.10 0.4743
606.20 0.474
606.30 0.4737
606.40 0.4733
606.50 0.473
606.60 0.4727
606.70 0.4724
606.80 0.4721
606.90 0.4718
607.00 0.4715
607.10 0.4712
607.20 0.4709
607.30 0.4706
607.40 0.4703
607.50 0.47
607.60 0.4697
607.70 0.4694
607.80 0.4691
607.90 0.4688
608.00 0.4685
608.10 0.4682
608.20 0.4679
608.30 0.4676
608.40 0.4673
608.50 0.467
608.60 0.4667
608.70 0.4664
608.80 0.4661
608.90 0.4658
609.00 0.4655
609.10 0.4652
609.20 0.4649
609.30 0.4646
609.40 0.4643
609.50 0.464
609.60 0.4637
609.70 0.4634
609.80 0.4631
609.90 0.4628
610.00 0.4625
610.10 0.4622
610.20 0.4619
610.30 0.4616
610.40 0.4614
610.50 0.4611
610.60 0.4608
610.70 0.4605
610.80 0.4602
610.90 0.4599
611.00 0.4596
611.10 0.4593
611.20 0.459
611.30 0.4587
611.40 0.4584
611.50 0.4581
611.60 0.4578
611.70 0.4575
611.80 0.4572
611.90 0.457
612.00 0.4567
612.10 0.4564
612.20 0.4561
612.30 0.4558
612.40 0.4555
612.50 0.4552
612.60 0.4549
612.70 0.4546
612.80 0.4543
612.90 0.454
613.00 0.4538
613.10 0.4535
613.20 0.4532
613.30 0.4529
613.40 0.4526
613.50 0.4523
613.60 0.452
613.70 0.4517
613.80 0.4515
613.90 0.4512
614.00 0.4509
614.10 0.4506
614.20 0.4503
614.30 0.45
614.40 0.4497
614.50 0.4494
614.60 0.4492
614.70 0.4489
614.80 0.4486
614.90 0.4483
615.00 0.448
615.10 0.4477
615.20 0.4474
615.30 0.4472
615.40 0.4469
615.50 0.4466
615.60 0.4463
615.70 0.446
615.80 0.4457
615.90 0.4455
616.00 0.4452
616.10 0.4449
616.20 0.4446
616.30 0.4443
616.40 0.4441
616.50 0.4438
616.60 0.4435
616.70 0.4432
616.80 0.4429
616.90 0.4426
617.00 0.4424
617.10 0.4421
617.20 0.4418
617.30 0.4415
617.40 0.4412
617.50 0.441
617.60 0.4407
617.70 0.4404
617.80 0.4401
617.90 0.4399
618.00 0.4396
618.10 0.4393
618.20 0.439
618.30 0.4387
618.40 0.4385
618.50 0.4382
618.60 0.4379
618.70 0.4376
618.80 0.4374
618.90 0.4371
619.00 0.4368
619.10 0.4365
619.20 0.4363
619.30 0.436
619.40 0.4357
619.50 0.4354
619.60 0.4352
619.70 0.4349
619.80 0.4346
619.90 0.4343
620.00 0.4341
620.10 0.4338
620.20 0.4335
620.30 0.4332
620.40 0.433
620.50 0.4327
620.60 0.4324
620.70 0.4321
620.80 0.4319
620.90 0.4316
621.00 0.4313
621.10 0.4311
621.20 0.4308
621.30 0.4305
621.40 0.4302
621.50 0.43
621.60 0.4297
621.70 0.4294
621.80 0.4292
621.90 0.4289
622.00 0.4286
622.10 0.4283
622.20 0.4281
622.30 0.4278
622.40 0.4275
622.50 0.4273
622.60 0.427
622.70 0.4267
622.80 0.4265
622.90 0.4262
623.00 0.4259
623.10 0.4257
623.20 0.4254
623.30 0.4251
623.40 0.4249
623.50 0.4246
623.60 0.4243
623.70 0.4241
623.80 0.4238
623.90 0.4235
624.00 0.4233
624.10 0.423
624.20 0.4227
624.30 0.4225
624.40 0.4222
624.50 0.4219
624.60 0.4217
624.70 0.4214
624.80 0.4211
624.90 0.4209
625.00 0.4206
625.10 0.4203
625.20 0.4201
625.30 0.4198
625.40 0.4196
625.50 0.4193
625.60 0.419
625.70 0.4188
625.80 0.4185
625.90 0.4182
626.00 0.418
626.10 0.4177
626.20 0.4175
626.30 0.4172
626.40 0.4169
626.50 0.4167
626.60 0.4164
626.70 0.4162
626.80 0.4159
626.90 0.4156
627.00 0.4154
627.10 0.4151
627.20 0.4149
627.30 0.4146
627.40 0.4143
627.50 0.4141
627.60 0.4138
627.70 0.4136
627.80 0.4133
627.90 0.413
628.00 0.4128
628.10 0.4125
628.20 0.4123
628.30 0.412
628.40 0.4118
628.50 0.4115
628.60 0.4112
628.70 0.411
628.80 0.4107
628.90 0.4105
629.00 0.4102
629.10 0.41
629.20 0.4097
629.30 0.4094
629.40 0.4092
629.50 0.4089
629.60 0.4087
629.70 0.4084
629.80 0.4082
629.90 0.4079
630.00 0.4077
630.10 0.4074
630.20 0.4071
630.30 0.4069
630.40 0.4066
630.50 0.4064
630.60 0.4061
630.70 0.4059
630.80 0.4056
630.90 0.4054
631.00 0.4051
631.10 0.4049
631.20 0.4046
631.30 0.4044
631.40 0.4041
631.50 0.4039
631.60 0.4036
631.70 0.4033
631.80 0.4031
631.90 0.4028
632.00 0.4026
632.10 0.4023
632.20 0.4021
632.30 0.4018
632.40 0.4016
632.50 0.4013
632.60 0.4011
632.70 0.4008
632.80 0.4006
632.90 0.4003
633.00 0.4001
633.10 0.3998
633.20 0.3996
633.30 0.3993
633.40 0.3991
633.50 0.3988
633.60 0.3986
633.70 0.3983
633.80 0.3981
633.90 0.3978
634.00 0.3976
634.10 0.3973
634.20 0.3971
634.30 0.3968
634.40 0.3966
634.50 0.3964
634.60 0.3961
634.70 0.3959
634.80 0.3956
634.90 0.3954
635.00 0.3951
635.10 0.3949
635.20 0.3946
635.30 0.3944
635.40 0.3941
635.50 0.3939
635.60 0.3936
635.70 0.3934
635.80 0.3931
635.90 0.3929
636.00 0.3926
636.10 0.3924
636.20 0.3922
636.30 0.3919
636.40 0.3917
636.50 0.3914
636.60 0.3912
636.70 0.3909
636.80 0.3907
636.90 0.3904
637.00 0.3902
637.10 0.3899
637.20 0.3897
637.30 0.3895
637.40 0.3892
637.50 0.389
637.60 0.3887
637.70 0.3885
637.80 0.3882
637.90 0.388
638.00 0.3877
638.10 0.3875
638.20 0.3873
638.30 0.387
638.40 0.3868
638.50 0.3865
638.60 0.3863
638.70 0.386
638.80 0.3858
638.90 0.3856
639.00 0.3853
639.10 0.3851
639.20 0.3848
639.30 0.3846
639.40 0.3843
639.50 0.3841
639.60 0.3838
639.70 0.3836
639.80 0.3834
639.90 0.3831
640.00 0.3829
640.10 0.3826
640.20 0.3824
640.30 0.3821
640.40 0.3819
640.50 0.3817
640.60 0.3814
640.70 0.3812
640.80 0.3809
640.90 0.3807
641.00 0.3804
641.10 0.3802
641.20 0.38
641.30 0.3797
641.40 0.3795
641.50 0.3792
641.60 0.379
641.70 0.3787
641.80 0.3785
641.90 0.3782
642.00 0.378
642.10 0.3778
642.20 0.3775
642.30 0.3773
642.40 0.377
642.50 0.3768
642.60 0.3765
642.70 0.3763
642.80 0.376
642.90 0.3758
643.00 0.3755
643.10 0.3753
643.20 0.3751
643.30 0.3748
643.40 0.3746
643.50 0.3743
643.60 0.3741
643.70 0.3738
643.80 0.3736
643.90 0.3733
644.00 0.3731
644.10 0.3728
644.20 0.3726
644.30 0.3723
644.40 0.3721
644.50 0.3718
644.60 0.3716
644.70 0.3713
644.80 0.3711
644.90 0.3708
645.00 0.3706
645.10 0.3703
645.20 0.3701
645.30 0.3698
645.40 0.3696
645.50 0.3693
645.60 0.369
645.70 0.3688
645.80 0.3685
645.90 0.3683
646.00 0.368
646.10 0.3678
646.20 0.3675
646.30 0.3672
646.40 0.367
646.50 0.3667
646.60 0.3664
646.70 0.3662
646.80 0.3659
646.90 0.3657
647.00 0.3654
647.10 0.3651
647.20 0.3649
647.30 0.3646
647.40 0.3643
647.50 0.364
647.60 0.3638
647.70 0.3635
647.80 0.3632
647.90 0.3629
648.00 0.3626
648.10 0.3624
648.20 0.3621
648.30 0.3618
648.40 0.3615
648.50 0.3612
648.60 0.3609
648.70 0.3606
648.80 0.3603
648.90 0.36
649.00 0.3597
649.10 0.3594
649.20 0.3591
649.30 0.3588
649.40 0.3585
649.50 0.3582
649.60 0.3579
649.70 0.3576
649.80 0.3572
649.90 0.3569
650.00 0.3566
650.10 0.3563
650.20 0.3559
650.30 0.3556
650.40 0.3553
650.50 0.3549
650.60 0.3545
650.70 0.3542
650.80 0.3538
650.90 0.3535
651.00 0.3531
651.10 0.3528
651.20 0.3524
651.30 0.352
651.40 0.3516
651.50 0.3512
651.60 0.3508
651.70 0.3504
651.80 0.35
651.90 0.3496
652.00 0.3492
652.10 0.3488
652.20 0.3483
652.30 0.3479
652.40 0.3475
652.50 0.347
652.60 0.3465
652.70 0.346
652.80 0.3456
652.90 0.3451
653.00 0.3446
653.10 0.3441
653.20 0.3437
653.30 0.3432
653.40 0.3426
653.50 0.3421
653.60 0.3416
653.70 0.341
653.80 0.3405
653.90 0.3399
654.00 0.3394
654.10 0.3388
654.20 0.3383
654.30 0.3378
654.40 0.3372
654.50 0.3366
654.60 0.336
654.70 0.3355
654.80 0.3349
654.90 0.3344
655.00 0.3338
655.10 0.3333
655.20 0.3328
655.30 0.3322
655.40 0.3318
655.50 0.3314
655.60 0.3311
655.70 0.331
655.80 0.3311
655.90 0.3317
656.00 0.3336
656.10 0.336
656.20 0.3457
656.30 0.3542
656.40 0.3404
656.50 0.334
656.60 0.3316
656.70 0.3297
656.80 0.3291
656.90 0.3286
657.00 0.3285
657.10 0.3284
657.20 0.3284
657.30 0.3285
657.40 0.3286
657.50 0.3288
657.60 0.3289
657.70 0.3291
657.80 0.3292
657.90 0.3294
658.00 0.3296
658.10 0.3298
658.20 0.33
658.30 0.3301
658.40 0.3303
658.50 0.3304
658.60 0.3305
658.70 0.3307
658.80 0.3308
658.90 0.331
659.00 0.3311
659.10 0.3312
659.20 0.3314
659.30 0.3315
659.40 0.3316
659.50 0.3316
659.60 0.3317
659.70 0.3318
659.80 0.3318
659.90 0.3319
660.00 0.3319
660.10 0.332
660.20 0.3321
660.30 0.3321
660.40 0.3321
660.50 0.3321
660.60 0.3321
660.70 0.3321
660.80 0.3321
660.90 0.3321
661.00 0.3321
661.10 0.3321
661.20 0.3321
661.30 0.3321
661.40 0.332
661.50 0.3319
661.60 0.3319
661.70 0.3318
661.80 0.3318
661.90 0.3317
662.00 0.3316
662.10 0.3316
662.20 0.3315
662.30 0.3315
662.40 0.3314
662.50 0.3313
662.60 0.3312
662.70 0.3311
662.80 0.331
662.90 0.3309
663.00 0.3308
663.10 0.3307
663.20 0.3306
663.30 0.3305
663.40 0.3304
663.50 0.3302
663.60 0.3301
663.70 0.33
663.80 0.3299
663.90 0.3297
664.00 0.3296
664.10 0.3295
664.20 0.3294
664.30 0.3292
664.40 0.3291
664.50 0.329
664.60 0.3288
664.70 0.3287
664.80 0.3285
664.90 0.3284
665.00 0.3283
665.10 0.3281
665.20 0.328
665.30 0.3278
665.40 0.3277
665.50 0.3275
665.60 0.3274
665.70 0.3272
665.80 0.3271
665.90 0.3269
666.00 0.3268
666.10 0.3266
666.20 0.3264
666.30 0.3263
666.40 0.3261
666.50 0.326
666.60 0.3258
666.70 0.3256
666.80 0.3255
666.90 0.3253
667.00 0.3252
667.10 0.325
667.20 0.3248
667.30 0.3247
667.40 0.3245
667.50 0.3243
667.60 0.3242
667.70 0.324
667.80 0.3238
667.90 0.3237
668.00 0.3235
668.10 0.3233
668.20 0.3232
668.30 0.323
668.40 0.3228
668.50 0.3227
668.60 0.3225
668.70 0.3223
668.80 0.3221
668.90 0.322
669.00 0.3218
669.10 0.3216
669.20 0.3215
669.30 0.3213
669.40 0.3211
669.50 0.3209
669.60 0.3208
669.70 0.3206
669.80 0.3204
669.90 0.3202
670.00 0.3201
670.10 0.3199
670.20 0.3197
670.30 0.3195
670.40 0.3194
670.50 0.3192
670.60 0.319
670.70 0.3188
670.80 0.3187
670.90 0.3185
671.00 0.3183
671.10 0.3181
671.20 0.318
671.30 0.3178
671.40 0.3176
671.50 0.3174
671.60 0.3173
671.70 0.3171
671.80 0.3169
671.90 0.3167
672.00 0.3166
672.10 0.3164
672.20 0.3162
672.30 0.316
672.40 0.3159
672.50 0.3157
672.60 0.3155
672.70 0.3153
672.80 0.3152
672.90 0.315
673.00 0.3148
673.10 0.3146
673.20 0.3145
673.30 0.3143
673.40 0.3141
673.50 0.3139
673.60 0.3138
673.70 0.3136
673.80 0.3134
673.90 0.3132
674.00 0.313
674.10 0.3129
674.20 0.3127
674.30 0.3125
674.40 0.3123
674.50 0.3122
674.60 0.312
674.70 0.3118
674.80 0.3116
674.90 0.3115
675.00 0.3113
675.10 0.3111
675.20 0.3109
675.30 0.3108
675.40 0.3106
675.50 0.3104
675.60 0.3102
675.70 0.3101
675.80 0.3099
675.90 0.3097
676.00 0.3095
676.10 0.3094
676.20 0.3092
676.30 0.309
676.40 0.3088
676.50 0.3087
676.60 0.3085
676.70 0.3083
676.80 0.3081
676.90 0.308
677.00 0.3078
677.10 0.3076
677.20 0.3074
677.30 0.3073
677.40 0.3071
677.50 0.3069
677.60 0.3067
677.70 0.3066
677.80 0.3064
677.90 0.3062
678.00 0.306
678.10 0.3059
678.20 0.3057
678.30 0.3055
678.40 0.3054
678.50 0.3052
678.60 0.305
678.70 0.3048
678.80 0.3047
678.90 0.3045
679.00 0.3043
679.10 0.3041
679.20 0.304
679.30 0.3038
679.40 0.3036
679.50 0.3035
679.60 0.3033
679.70 0.3031
679.80 0.3029
679.90 0.3028
680.00 0.3026
680.10 0.3024
680.20 0.3022
680.30 0.3021
680.40 0.3019
680.50 0.3017
680.60 0.3016
680.70 0.3014
680.80 0.3012
680.90 0.3011
681.00 0.3009
681.10 0.3007
681.20 0.3005
681.30 0.3004
681.40 0.3002
681.50 0.3
681.60 0.2999
681.70 0.2997
681.80 0.2995
681.90 0.2993
682.00 0.2992
682.10 0.299
682.20 0.2988
682.30 0.2987
682.40 0.2985
682.50 0.2983
682.60 0.2982
682.70 0.298
682.80 0.2978
682.90 0.2977
683.00 0.2975
683.10 0.2973
683.20 0.2971
683.30 0.297
683.40 0.2968
683.50 0.2966
683.60 0.2965
683.70 0.2963
683.80 0.2961
683.90 0.296
684.00 0.2958
684.10 0.2956
684.20 0.2955
684.30 0.2953
684.40 0.2951
684.50 0.295
684.60 0.2948
684.70 0.2946
684.80 0.2945
684.90 0.2943
685.00 0.2941
685.10 0.294
685.20 0.2938
685.30 0.2936
685.40 0.2935
685.50 0.2933
685.60 0.2931
685.70 0.293
685.80 0.2928
685.90 0.2926
686.00 0.2925
686.10 0.2923
686.20 0.2921
686.30 0.292
686.40 0.2918
686.50 0.2916
686.60 0.2915
686.70 0.2913
686.80 0.2911
686.90 0.291
687.00 0.2908
687.10 0.2906
687.20 0.2905
687.30 0.2903
687.40 0.2902
687.50 0.29
687.60 0.2898
687.70 0.2897
687.80 0.2895
687.90 0.2893
688.00 0.2892
688.10 0.289
688.20 0.2888
688.30 0.2887
688.40 0.2885
688.50 0.2884
688.60 0.2882
688.70 0.288
688.80 0.2879
688.90 0.2877
689.00 0.2875
689.10 0.2874
689.20 0.2872
689.30 0.2871
689.40 0.2869
689.50 0.2867
689.60 0.2866
689.70 0.2864
689.80 0.2863
689.90 0.2861
690.00 0.2859
690.10 0.2858
690.20 0.2856
690.30 0.2854
690.40 0.2853
690.50 0.2851
690.60 0.285
690.70 0.2848
690.80 0.2846
690.90 0.2845
691.00 0.2843
691.10 0.2842
691.20 0.284
691.30 0.2838
691.40 0.2837
691.50 0.2835
691.60 0.2834
691.70 0.2832
691.80 0.283
691.90 0.2829
692.00 0.2827
692.10 0.2826
692.20 0.2824
692.30 0.2823
692.40 0.2821
692.50 0.2819
692.60 0.2818
692.70 0.2816
692.80 0.2815
692.90 0.2813
693.00 0.2811
693.10 0.281
693.20 0.2808
693.30 0.2807
693.40 0.2805
693.50 0.2804
693.60 0.2802
693.70 0.28
693.80 0.2799
693.90 0.2797
694.00 0.2796
694.10 0.2794
694.20 0.2793
694.30 0.2791
694.40 0.2789
694.50 0.2788
694.60 0.2786
694.70 0.2785
694.80 0.2783
694.90 0.2782
695.00 0.278
695.10 0.2778
695.20 0.2777
695.30 0.2775
695.40 0.2774
695.50 0.2772
695.60 0.2771
695.70 0.2769
695.80 0.2768
695.90 0.2766
696.00 0.2764
696.10 0.2763
696.20 0.2761
696.30 0.276
696.40 0.2758
696.50 0.2757
696.60 0.2755
696.70 0.2754
696.80 0.2752
696.90 0.2751
697.00 0.2749
697.10 0.2748
697.20 0.2746
697.30 0.2744
697.40 0.2743
697.50 0.2741
697.60 0.274
697.70 0.2738
697.80 0.2737
697.90 0.2735
698.00 0.2734
698.10 0.2732
698.20 0.2731
698.30 0.2729
698.40 0.2728
698.50 0.2726
698.60 0.2725
698.70 0.2723
698.80 0.2722
698.90 0.272
699.00 0.2718
699.10 0.2717
699.20 0.2715
699.30 0.2714
699.40 0.2712
699.50 0.2711
699.60 0.2709
699.70 0.2708
699.80 0.2706
699.90 0.2705
700.00 0.2703
700.10 0.2702
700.20 0.27
700.30 0.2699
700.40 0.2697
700.50 0.2696
700.60 0.2694
700.70 0.2693
700.80 0.2691
700.90 0.269
701.00 0.2688
701.10 0.2687
701.20 0.2685
701.30 0.2684
701.40 0.2682
701.50 0.2681
701.60 0.2679
701.70 0.2678
701.80 0.2676
701.90 0.2675
702.00 0.2673
702.10 0.2672
702.20 0.267
702.30 0.2669
702.40 0.2668
702.50 0.2666
702.60 0.2665
702.70 0.2663
702.80 0.2662
702.90 0.266
703.00 0.2659
703.10 0.2657
703.20 0.2656
703.30 0.2654
703.40 0.2653
703.50 0.2651
703.60 0.265
703.70 0.2648
703.80 0.2647
703.90 0.2645
704.00 0.2644
704.10 0.2642
704.20 0.2641
704.30 0.2639
704.40 0.2638
704.50 0.2637
704.60 0.2635
704.70 0.2634
704.80 0.2632
704.90 0.2631
705.00 0.2629
705.10 0.2628
705.20 0.2626
705.30 0.2625
705.40 0.2623
705.50 0.2622
705.60 0.2621
705.70 0.2619
705.80 0.2618
705.90 0.2616
706.00 0.2615
706.10 0.2613
706.20 0.2612
706.30 0.261
706.40 0.2609
706.50 0.2608
706.60 0.2606
706.70 0.2605
706.80 0.2603
706.90 0.2602
707.00 0.26
707.10 0.2599
707.20 0.2598
707.30 0.2596
707.40 0.2595
707.50 0.2593
707.60 0.2592
707.70 0.259
707.80 0.2589
707.90 0.2588
708.00 0.2586
708.10 0.2585
708.20 0.2583
708.30 0.2582
708.40 0.258
708.50 0.2579
708.60 0.2578
708.70 0.2576
708.80 0.2575
708.90 0.2573
709.00 0.2572
709.10 0.257
709.20 0.2569
709.30 0.2568
709.40 0.2566
709.50 0.2565
709.60 0.2563
709.70 0.2562
709.80 0.256
709.90 0.2559
710.00 0.2558
710.10 0.2556
710.20 0.2555
710.30 0.2553
710.40 0.2552
710.50 0.2551
710.60 0.2549
710.70 0.2548
710.80 0.2546
710.90 0.2545
711.00 0.2544
711.10 0.2542
711.20 0.2541
711.30 0.254
711.40 0.2538
711.50 0.2537
711.60 0.2535
711.70 0.2534
711.80 0.2533
711.90 0.2531
712.00 0.253
712.10 0.2528
712.20 0.2527
712.30 0.2526
712.40 0.2524
712.50 0.2523
712.60 0.2521
712.70 0.252
712.80 0.2519
712.90 0.2517
713.00 0.2516
713.10 0.2515
713.20 0.2513
713.30 0.2512
713.40 0.251
713.50 0.2509
713.60 0.2508
713.70 0.2506
713.80 0.2505
713.90 0.2504
714.00 0.2502
714.10 0.2501
714.20 0.2499
714.30 0.2498
714.40 0.2497
714.50 0.2495
714.60 0.2494
714.70 0.2493
714.80 0.2491
714.90 0.249
715.00 0.2489
715.10 0.2487
715.20 0.2486
715.30 0.2484
715.40 0.2483
715.50 0.2482
715.60 0.248
715.70 0.2479
715.80 0.2478
715.90 0.2476
716.00 0.2475
716.10 0.2474
716.20 0.2472
716.30 0.2471
716.40 0.247
716.50 0.2468
716.60 0.2467
716.70 0.2466
716.80 0.2464
716.90 0.2463
717.00 0.2462
717.10 0.246
717.20 0.2459
717.30 0.2458
717.40 0.2456
717.50 0.2455
717.60 0.2454
717.70 0.2452
717.80 0.2451
717.90 0.245
718.00 0.2448
718.10 0.2447
718.20 0.2446
718.30 0.2444
718.40 0.2443
718.50 0.2442
718.60 0.244
718.70 0.2439
718.80 0.2438
718.90 0.2436
719.00 0.2435
719.10 0.2434
719.20 0.2432
719.30 0.2431
719.40 0.243
719.50 0.2428
719.60 0.2427
719.70 0.2426
719.80 0.2424
719.90 0.2423
720.00 0.2422
720.10 0.242
720.20 0.2419
720.30 0.2418
720.40 0.2416
720.50 0.2415
720.60 0.2414
720.70 0.2413
720.80 0.2411
720.90 0.241
721.00 0.2409
721.10 0.2407
721.20 0.2406
721.30 0.2405
721.40 0.2403
721.50 0.2402
721.60 0.2401
721.70 0.24
721.80 0.2398
721.90 0.2397
722.00 0.2396
722.10 0.2394
722.20 0.2393
722.30 0.2392
722.40 0.239
722.50 0.2389
722.60 0.2388
722.70 0.2387
722.80 0.2385
722.90 0.2384
723.00 0.2383
723.10 0.2381
723.20 0.238
723.30 0.2379
723.40 0.2378
723.50 0.2376
723.60 0.2375
723.70 0.2374
723.80 0.2372
723.90 0.2371
724.00 0.237
724.10 0.2369
724.20 0.2367
724.30 0.2366
724.40 0.2365
724.50 0.2363
724.60 0.2362
724.70 0.2361
724.80 0.236
724.90 0.2358
725.00 0.2357
725.10 0.2356
725.20 0.2355
725.30 0.2353
725.40 0.2352
725.50 0.2351
725.60 0.2349
725.70 0.2348
725.80 0.2347
725.90 0.2346
726.00 0.2344
726.10 0.2343
726.20 0.2342
726.30 0.2341
726.40 0.2339
726.50 0.2338
726.60 0.2337
726.70 0.2336
726.80 0.2334
726.90 0.2333
727.00 0.2332
727.10 0.2331
727.20 0.2329
727.30 0.2328
727.40 0.2327
727.50 0.2326
727.60 0.2324
727.70 0.2323
727.80 0.2322
727.90 0.2321
728.00 0.2319
728.10 0.2318
728.20 0.2317
728.30 0.2316
728.40 0.2314
728.50 0.2313
728.60 0.2312
728.70 0.2311
728.80 0.2309
728.90 0.2308
729.00 0.2307
729.10 0.2306
729.20 0.2304
729.30 0.2303
729.40 0.2302
729.50 0.2301
729.60 0.23
729.70 0.2298
729.80 0.2297
729.90 0.2296
730.00 0.2295
730.10 0.2293
730.20 0.2292
730.30 0.2291
730.40 0.229
730.50 0.2289
730.60 0.2287
730.70 0.2286
730.80 0.2285
730.90 0.2284
731.00 0.2282
731.10 0.2281
731.20 0.228
731.30 0.2279
731.40 0.2278
731.50 0.2276
731.60 0.2275
731.70 0.2274
731.80 0.2273
731.90 0.2272
732.00 0.227
732.10 0.2269
732.20 0.2268
732.30 0.2267
732.40 0.2266
732.50 0.2264
732.60 0.2263
732.70 0.2262
732.80 0.2261
732.90 0.226
733.00 0.2258
733.10 0.2257
733.20 0.2256
733.30 0.2255
733.40 0.2254
733.50 0.2252
733.60 0.2251
733.70 0.225
733.80 0.2249
733.90 0.2248
734.00 0.2246
734.10 0.2245
734.20 0.2244
734.30 0.2243
734.40 0.2242
734.50 0.224
734.60 0.2239
734.70 0.2238
734.80 0.2237
734.90 0.2236
735.00 0.2234
735.10 0.2233
735.20 0.2232
735.30 0.2231
735.40 0.223
735.50 0.2229
735.60 0.2227
735.70 0.2226
735.80 0.2225
735.90 0.2224
736.00 0.2223
736.10 0.2221
736.20 0.222
736.30 0.2219
736.40 0.2218
736.50 0.2217
736.60 0.2216
736.70 0.2214
736.80 0.2213
736.90 0.2212
737.00 0.2211
737.10 0.221
737.20 0.2208
737.30 0.2207
737.40 0.2206
737.50 0.2205
737.60 0.2204
737.70 0.2203
737.80 0.2201
737.90 0.22
738.00 0.2199
738.10 0.2198
738.20 0.2197
738.30 0.2196
738.40 0.2194
738.50 0.2193
738.60 0.2192
738.70 0.2191
738.80 0.219
738.90 0.2189
739.00 0.2187
739.10 0.2186
739.20 0.2185
739.30 0.2184
739.40 0.2183
739.50 0.2182
739.60 0.218
739.70 0.2179
739.80 0.2178
739.90 0.2177
740.00 0.2176
740.10 0.2175
740.20 0.2173
740.30 0.2172
740.40 0.2171
740.50 0.217
740.60 0.2169
740.70 0.2168
740.80 0.2167
740.90 0.2166
741.00 0.2164
741.10 0.2163
741.20 0.2162
741.30 0.2161
741.40 0.216
741.50 0.2159
741.60 0.2158
741.70 0.2156
741.80 0.2155
741.90 0.2154
742.00 0.2153
742.10 0.2152
742.20 0.2151
742.30 0.215
742.40 0.2149
742.50 0.2147
742.60 0.2146
742.70 0.2145
742.80 0.2144
742.90 0.2143
743.00 0.2142
743.10 0.2141
743.20 0.214
743.30 0.2138
743.40 0.2137
743.50 0.2136
743.60 0.2135
743.70 0.2134
743.80 0.2133
743.90 0.2132
744.00 0.2131
744.10 0.2129
744.20 0.2128
744.30 0.2127
744.40 0.2126
744.50 0.2125
744.60 0.2124
744.70 0.2123
744.80 0.2122
744.90 0.2121
745.00 0.2119
745.10 0.2118
745.20 0.2117
745.30 0.2116
745.40 0.2115
745.50 0.2114
745.60 0.2113
745.70 0.2112
745.80 0.2111
745.90 0.2109
746.00 0.2108
746.10 0.2107
746.20 0.2106
746.30 0.2105
746.40 0.2104
746.50 0.2103
746.60 0.2102
746.70 0.2101
746.80 0.21
746.90 0.2098
747.00 0.2097
747.10 0.2096
747.20 0.2095
747.30 0.2094
747.40 0.2093
747.50 0.2092
747.60 0.2091
747.70 0.209
747.80 0.2089
747.90 0.2087
748.00 0.2086
748.10 0.2085
748.20 0.2084
748.30 0.2083
748.40 0.2082
748.50 0.2081
748.60 0.208
748.70 0.2079
748.80 0.2078
748.90 0.2076
749.00 0.2075
749.10 0.2074
749.20 0.2073
749.30 0.2072
749.40 0.2071
749.50 0.207
749.60 0.2069
749.70 0.2068
749.80 0.2067
749.90 0.2066
750.00 0.2064
750.10 0.2063
750.20 0.2062
750.30 0.2061
750.40 0.206
750.50 0.2059
750.60 0.2058
750.70 0.2057
750.80 0.2056
750.90 0.2055
751.00 0.2054
751.10 0.2053
751.20 0.2052
751.30 0.2051
751.40 0.205
751.50 0.2049
751.60 0.2047
751.70 0.2046
751.80 0.2045
751.90 0.2044
752.00 0.2043
752.10 0.2042
752.20 0.2041
752.30 0.204
752.40 0.2039
752.50 0.2038
752.60 0.2037
752.70 0.2036
752.80 0.2035
752.90 0.2034
753.00 0.2033
753.10 0.2032
753.20 0.2031
753.30 0.203
753.40 0.2029
753.50 0.2027
753.60 0.2026
753.70 0.2025
753.80 0.2024
753.90 0.2023
754.00 0.2022
754.10 0.2021
754.20 0.202
754.30 0.2019
754.40 0.2018
754.50 0.2017
754.60 0.2016
754.70 0.2015
754.80 0.2014
754.90 0.2013
755.00 0.2012
755.10 0.2011
755.20 0.201
755.30 0.2009
755.40 0.2008
755.50 0.2007
755.60 0.2006
755.70 0.2004
755.80 0.2003
755.90 0.2002
756.00 0.2001
756.10 0.2
756.20 0.1999
756.30 0.1998
756.40 0.1997
756.50 0.1996
756.60 0.1995
756.70 0.1994
756.80 0.1993
756.90 0.1992
757.00 0.1991
757.10 0.199
757.20 0.1989
757.30 0.1988
757.40 0.1987
757.50 0.1986
757.60 0.1985
757.70 0.1984
757.80 0.1983
757.90 0.1982
758.00 0.1981
758.10 0.198
758.20 0.1979
758.30 0.1978
758.40 0.1977
758.50 0.1976
758.60 0.1975
758.70 0.1974
758.80 0.1973
758.90 0.1971
759.00 0.197
759.10 0.1969
759.20 0.1968
759.30 0.1967
759.40 0.1966
759.50 0.1965
759.60 0.1964
759.70 0.1963
759.80 0.1962
759.90 0.1961
760.00 0.196
760.10 0.1959
760.20 0.1958
760.30 0.1957
760.40 0.1956
760.50 0.1955
760.60 0.1954
760.70 0.1953
760.80 0.1952
760.90 0.1951
761.00 0.195
761.10 0.1949
761.20 0.1948
761.30 0.1947
761.40 0.1946
761.50 0.1945
761.60 0.1944
761.70 0.1943
761.80 0.1942
761.90 0.1941
762.00 0.194
762.10 0.1939
762.20 0.1938
762.30 0.1937
762.40 0.1936
762.50 0.1935
762.60 0.1934
762.70 0.1933
762.80 0.1932
762.90 0.1931
763.00 0.193
763.10 0.1929
763.20 0.1929
763.30 0.1928
763.40 0.1927
763.50 0.1926
763.60 0.1925
763.70 0.1924
763.80 0.1923
763.90 0.1922
764.00 0.1921
764.10 0.192
764.20 0.1919
764.30 0.1918
764.40 0.1917
764.50 0.1916
764.60 0.1915
764.70 0.1914
764.80 0.1913
764.90 0.1912
765.00 0.1911
765.10 0.191
765.20 0.1909
765.30 0.1908
765.40 0.1907
765.50 0.1906
765.60 0.1905
765.70 0.1904
765.80 0.1903
765.90 0.1902
766.00 0.1901
766.10 0.19
766.20 0.1899
766.30 0.1898
766.40 0.1897
766.50 0.1896
766.60 0.1895
766.70 0.1894
766.80 0.1893
766.90 0.1892
767.00 0.1891
767.10 0.189
767.20 0.1889
767.30 0.1889
767.40 0.1888
767.50 0.1887
767.60 0.1886
767.70 0.1885
767.80 0.1884
767.90 0.1883
768.00 0.1882
768.10 0.1881
768.20 0.188
768.30 0.1879
768.40 0.1878
768.50 0.1877
768.60 0.1876
768.70 0.1875
768.80 0.1874
768.90 0.1873
769.00 0.1872
769.10 0.1871
769.20 0.187
769.30 0.1869
769.40 0.1868
769.50 0.1867
769.60 0.1866
769.70 0.1865
769.80 0.1864
769.90 0.1864
770.00 0.1863
770.10 0.1862
770.20 0.1861
770.30 0.186
770.40 0.1859
770.50 0.1858
770.60 0.1857
770.70 0.1856
770.80 0.1855
770.90 0.1854
771.00 0.1853
771.10 0.1852
771.20 0.1851
771.30 0.185
771.40 0.1849
771.50 0.1849
771.60 0.1848
771.70 0.1847
771.80 0.1846
771.90 0.1845
772.00 0.1844
772.10 0.1843
772.20 0.1842
772.30 0.1841
772.40 0.184
772.50 0.1839
772.60 0.1838
772.70 0.1837
772.80 0.1836
772.90 0.1836
773.00 0.1835
773.10 0.1834
773.20 0.1833
773.30 0.1832
773.40 0.1831
773.50 0.183
773.60 0.1829
773.70 0.1828
773.80 0.1827
773.90 0.1826
774.00 0.1825
774.10 0.1824
774.20 0.1824
774.30 0.1823
774.40 0.1822
774.50 0.1821
774.60 0.182
774.70 0.1819
774.80 0.1818
774.90 0.1817
775.00 0.1816
775.10 0.1815
775.20 0.1814
775.30 0.1813
775.40 0.1813
775.50 0.1812
775.60 0.1811
775.70 0.181
775.80 0.1809
775.90 0.1808
776.00 0.1807
776.10 0.1806
776.20 0.1805
776.30 0.1804
776.40 0.1803
776.50 0.1802
776.60 0.1802
776.70 0.1801
776.80 0.18
776.90 0.1799
777.00 0.1798
777.10 0.1797
777.20 0.1796
777.30 0.1795
777.40 0.1794
777.50 0.1793
777.60 0.1792
777.70 0.1792
777.80 0.1791
777.90 0.179
778.00 0.1789
778.10 0.1788
778.20 0.1787
778.30 0.1786
778.40 0.1785
778.50 0.1784
778.60 0.1783
778.70 0.1783
778.80 0.1782
778.90 0.1781
779.00 0.178
779.10 0.1779
779.20 0.1778
779.30 0.1777
779.40 0.1776
779.50 0.1775
779.60 0.1774
779.70 0.1774
779.80 0.1773
779.90 0.1772
780.00 0.1771
780.10 0.177
780.20 0.1769
780.30 0.1768
780.40 0.1767
780.50 0.1766
780.60 0.1766
780.70 0.1765
780.80 0.1764
780.90 0.1763
781.00 0.1762
781.10 0.1761
781.20 0.176
781.30 0.1759
781.40 0.1759
781.50 0.1758
781.60 0.1757
781.70 0.1756
781.80 0.1755
781.90 0.1754
782.00 0.1753
782.10 0.1752
782.20 0.1752
782.30 0.1751
782.40 0.175
782.50 0.1749
782.60 0.1748
782.70 0.1747
782.80 0.1746
782.90 0.1745
783.00 0.1745
783.10 0.1744
783.20 0.1743
783.30 0.1742
783.40 0.1741
783.50 0.174
783.60 0.1739
783.70 0.1739
783.80 0.1738
783.90 0.1737
784.00 0.1736
784.10 0.1735
784.20 0.1734
784.30 0.1733
784.40 0.1732
784.50 0.1732
784.60 0.1731
784.70 0.173
784.80 0.1729
784.90 0.1728
785.00 0.1727
785.10 0.1726
785.20 0.1726
785.30 0.1725
785.40 0.1724
785.50 0.1723
785.60 0.1722
785.70 0.1721
785.80 0.172
785.90 0.172
786.00 0.1719
786.10 0.1718
786.20 0.1717
786.30 0.1716
786.40 0.1715
786.50 0.1714
786.60 0.1714
786.70 0.1713
786.80 0.1712
786.90 0.1711
787.00 0.171
787.10 0.1709
787.20 0.1708
787.30 0.1708
787.40 0.1707
787.50 0.1706
787.60 0.1705
787.70 0.1704
787.80 0.1703
787.90 0.1703
788.00 0.1702
788.10 0.1701
788.20 0.17
788.30 0.1699
788.40 0.1698
788.50 0.1697
788.60 0.1697
788.70 0.1696
788.80 0.1695
788.90 0.1694
789.00 0.1693
789.10 0.1692
789.20 0.1691
789.30 0.1691
789.40 0.169
789.50 0.1689
789.60 0.1688
789.70 0.1687
789.80 0.1686
789.90 0.1686
790.00 0.1685
790.10 0.1684
790.20 0.1683
790.30 0.1682
790.40 0.1681
790.50 0.1681
790.60 0.168
790.70 0.1679
790.80 0.1678
790.90 0.1677
791.00 0.1676
791.10 0.1676
791.20 0.1675
791.30 0.1674
791.40 0.1673
791.50 0.1672
791.60 0.1672
791.70 0.1671
791.80 0.167
791.90 0.1669
792.00 0.1668
792.10 0.1667
792.20 0.1667
792.30 0.1666
792.40 0.1665
792.50 0.1664
792.60 0.1663
792.70 0.1663
792.80 0.1662
792.90 0.1661
793.00 0.166
793.10 0.1659
793.20 0.1658
793.30 0.1658
793.40 0.1657
793.50 0.1656
793.60 0.1655
793.70 0.1654
793.80 0.1654
793.90 0.1653
794.00 0.1652
794.10 0.1651
794.20 0.165
794.30 0.165
794.40 0.1649
794.50 0.1648
794.60 0.1647
794.70 0.1646
794.80 0.1645
794.90 0.1645
795.00 0.1644
795.10 0.1643
795.20 0.1642
795.30 0.1641
795.40 0.1641
795.50 0.164
795.60 0.1639
795.70 0.1638
795.80 0.1637
795.90 0.1637
796.00 0.1636
796.10 0.1635
796.20 0.1634
796.30 0.1633
796.40 0.1633
796.50 0.1632
796.60 0.1631
796.70 0.163
796.80 0.1629
796.90 0.1629
797.00 0.1628
797.10 0.1627
797.20 0.1626
797.30 0.1625
797.40 0.1625
797.50 0.1624
797.60 0.1623
797.70 0.1622
797.80 0.1621
797.90 0.1621
798.00 0.162
798.10 0.1619
798.20 0.1618
798.30 0.1617
798.40 0.1617
798.50 0.1616
798.60 0.1615
798.70 0.1614
798.80 0.1613
798.90 0.1613
799.00 0.1612
799.10 0.1611
799.20 0.161
799.30 0.1609
799.40 0.1609
799.50 0.1608
799.60 0.1607
799.70 0.1606
799.80 0.1605
799.90 0.1605
800.00 0.1604
800.10 0.1603
800.20 0.1602
800.30 0.1601
800.40 0.1601
800.50 0.16
800.60 0.1599
800.70 0.1598
800.80 0.1598
800.90 0.1597
801.00 0.1596
801.10 0.1595
801.20 0.1595
801.30 0.1594
801.40 0.1593
801.50 0.1592
801.60 0.1591
801.70 0.1591
801.80 0.159
801.90 0.1589
802.00 0.1588
802.10 0.1588
802.20 0.1587
802.30 0.1586
802.40 0.1585
802.50 0.1584
802.60 0.1584
802.70 0.1583
802.80 0.1582
802.90 0.1581
803.00 0.1581
803.10 0.158
803.20 0.1579
803.30 0.1578
803.40 0.1578
803.50 0.1577
803.60 0.1576
803.70 0.1575
803.80 0.1575
803.90 0.1574
804.00 0.1573
804.10 0.1572
804.20 0.1571
804.30 0.1571
804.40 0.157
804.50 0.1569
804.60 0.1568
804.70 0.1568
804.80 0.1567
804.90 0.1566
805.00 0.1565
805.10 0.1565
805.20 0.1564
805.30 0.1563
805.40 0.1562
805.50 0.1562
805.60 0.1561
805.70 0.156
805.80 0.1559
805.90 0.1559
806.00 0.1558
806.10 0.1557
806.20 0.1556
806.30 0.1555
806.40 0.1555
806.50 0.1554
806.60 0.1553
806.70 0.1552
806.80 0.1552
806.90 0.1551
807.00 0.155
807.10 0.1549
807.20 0.1549
807.30 0.1548
807.40 0.1547
807.50 0.1546
807.60 0.1546
807.70 0.1545
807.80 0.1544
807.90 0.1543
808.00 0.1543
808.10 0.1542
808.20 0.1541
808.30 0.154
808.40 0.154
808.50 0.1539
808.60 0.1538
808.70 0.1537
808.80 0.1537
808.90 0.1536
809.00 0.1535
809.10 0.1534
809.20 0.1534
809.30 0.1533
809.40 0.1532
809.50 0.1531
809.60 0.1531
809.70 0.153
809.80 0.1529
809.90 0.1528
810.00 0.1528
810.10 0.1527
810.20 0.1526
810.30 0.1526
810.40 0.1525
810.50 0.1524
810.60 0.1523
810.70 0.1523
810.80 0.1522
810.90 0.1521
811.00 0.152
811.10 0.152
811.20 0.1519
811.30 0.1518
811.40 0.1517
811.50 0.1517
811.60 0.1516
811.70 0.1515
811.80 0.1515
811.90 0.1514
812.00 0.1513
812.10 0.1512
812.20 0.1512
812.30 0.1511
812.40 0.151
812.50 0.1509
812.60 0.1509
812.70 0.1508
812.80 0.1507
812.90 0.1507
813.00 0.1506
813.10 0.1505
813.20 0.1504
813.30 0.1504
813.40 0.1503
813.50 0.1502
813.60 0.1502
813.70 0.1501
813.80 0.15
813.90 0.1499
814.00 0.1499
814.10 0.1498
814.20 0.1497
814.30 0.1497
814.40 0.1496
814.50 0.1495
814.60 0.1494
814.70 0.1494
814.80 0.1493
814.90 0.1492
815.00 0.1491
815.10 0.1491
815.20 0.149
815.30 0.1489
815.40 0.1489
815.50 0.1488
815.60 0.1487
815.70 0.1486
815.80 0.1486
815.90 0.1485
816.00 0.1484
816.10 0.1484
816.20 0.1483
816.30 0.1482
816.40 0.1481
816.50 0.1481
816.60 0.148
816.70 0.1479
816.80 0.1479
816.90 0.1478
817.00 0.1477
817.10 0.1477
817.20 0.1476
817.30 0.1475
817.40 0.1474
817.50 0.1474
817.60 0.1473
817.70 0.1472
817.80 0.1472
817.90 0.1471
818.00 0.147
818.10 0.1469
818.20 0.1469
818.30 0.1468
818.40 0.1467
818.50 0.1467
818.60 0.1466
818.70 0.1465
818.80 0.1464
818.90 0.1464
819.00 0.1463
819.10 0.1462
819.20 0.1462
819.30 0.1461
819.40 0.146
819.50 0.146
819.60 0.1459
819.70 0.1458
819.80 0.1457
819.90 0.1457
820.00 0.1456
820.10 0.1455
820.20 0.1455
820.30 0.1454
820.40 0.1453
820.50 0.1453
820.60 0.1452
820.70 0.1451
820.80 0.1451
820.90 0.145
821.00 0.1449
821.10 0.1448
821.20 0.1448
821.30 0.1447
821.40 0.1446
821.50 0.1446
821.60 0.1445
821.70 0.1444
821.80 0.1444
821.90 0.1443
822.00 0.1442
822.10 0.1442
822.20 0.1441
822.30 0.144
822.40 0.1439
822.50 0.1439
822.60 0.1438
822.70 0.1437
822.80 0.1437
822.90 0.1436
823.00 0.1435
823.10 0.1435
823.20 0.1434
823.30 0.1433
823.40 0.1433
823.50 0.1432
823.60 0.1431
823.70 0.1431
823.80 0.143
823.90 0.1429
824.00 0.1429
824.10 0.1428
824.20 0.1427
824.30 0.1427
824.40 0.1426
824.50 0.1425
824.60 0.1425
824.70 0.1424
824.80 0.1423
824.90 0.1423
825.00 0.1422
825.10 0.1421
825.20 0.142
825.30 0.142
825.40 0.1419
825.50 0.1418
825.60 0.1418
825.70 0.1417
825.80 0.1416
825.90 0.1416
826.00 0.1415
826.10 0.1414
826.20 0.1414
826.30 0.1413
826.40 0.1412
826.50 0.1412
826.60 0.1411
826.70 0.141
826.80 0.141
826.90 0.1409
827.00 0.1408
827.10 0.1408
827.20 0.1407
827.30 0.1406
827.40 0.1406
827.50 0.1405
827.60 0.1404
827.70 0.1404
827.80 0.1403
827.90 0.1402
828.00 0.1402
828.10 0.1401
828.20 0.14
828.30 0.14
828.40 0.1399
828.50 0.1398
828.60 0.1398
828.70 0.1397
828.80 0.1396
828.90 0.1396
829.00 0.1395
829.10 0.1395
829.20 0.1394
829.30 0.1393
829.40 0.1393
829.50 0.1392
829.60 0.1391
829.70 0.1391
829.80 0.139
829.90 0.1389
830.00 0.1389
830.10 0.1388
830.20 0.1387
830.30 0.1387
830.40 0.1386
830.50 0.1385
830.60 0.1385
830.70 0.1384
830.80 0.1383
830.90 0.1383
831.00 0.1382
831.10 0.1381
831.20 0.1381
831.30 0.138
831.40 0.1379
831.50 0.1379
831.60 0.1378
831.70 0.1377
831.80 0.1377
831.90 0.1376
832.00 0.1376
832.10 0.1375
832.20 0.1374
832.30 0.1374
832.40 0.1373
832.50 0.1372
832.60 0.1372
832.70 0.1371
832.80 0.137
832.90 0.137
833.00 0.1369
833.10 0.1368
833.20 0.1368
833.30 0.1367
833.40 0.1367
833.50 0.1366
833.60 0.1365
833.70 0.1365
833.80 0.1364
833.90 0.1363
834.00 0.1363
834.10 0.1362
834.20 0.1361
834.30 0.1361
834.40 0.136
834.50 0.1359
834.60 0.1359
834.70 0.1358
834.80 0.1358
834.90 0.1357
835.00 0.1356
835.10 0.1356
835.20 0.1355
835.30 0.1354
835.40 0.1354
835.50 0.1353
835.60 0.1352
835.70 0.1352
835.80 0.1351
835.90 0.1351
836.00 0.135
836.10 0.1349
836.20 0.1349
836.30 0.1348
836.40 0.1347
836.50 0.1347
836.60 0.1346
836.70 0.1346
836.80 0.1345
836.90 0.1344
837.00 0.1344
837.10 0.1343
837.20 0.1342
837.30 0.1342
837.40 0.1341
837.50 0.134
837.60 0.134
837.70 0.1339
837.80 0.1339
837.90 0.1338
838.00 0.1337
838.10 0.1337
838.20 0.1336
838.30 0.1336
838.40 0.1335
838.50 0.1334
838.60 0.1334
838.70 0.1333
838.80 0.1332
838.90 0.1332
839.00 0.1331
839.10 0.1331
839.20 0.133
839.30 0.1329
839.40 0.1329
839.50 0.1328
839.60 0.1327
839.70 0.1327
839.80 0.1326
839.90 0.1326
840.00 0.1325
840.10 0.1324
840.20 0.1324
840.30 0.1323
840.40 0.1322
840.50 0.1322
840.60 0.1321
840.70 0.1321
840.80 0.132
840.90 0.1319
841.00 0.1319
841.10 0.1318
841.20 0.1318
841.30 0.1317
841.40 0.1316
841.50 0.1316
841.60 0.1315
841.70 0.1314
841.80 0.1314
841.90 0.1313
842.00 0.1313
842.10 0.1312
842.20 0.1311
842.30 0.1311
842.40 0.131
842.50 0.131
842.60 0.1309
842.70 0.1308
842.80 0.1308
842.90 0.1307
843.00 0.1307
843.10 0.1306
843.20 0.1305
843.30 0.1305
843.40 0.1304
843.50 0.1304
843.60 0.1303
843.70 0.1302
843.80 0.1302
843.90 0.1301
844.00 0.1301
844.10 0.13
844.20 0.1299
844.30 0.1299
844.40 0.1298
844.50 0.1297
844.60 0.1297
844.70 0.1296
844.80 0.1296
844.90 0.1295
845.00 0.1294
845.10 0.1294
845.20 0.1293
845.30 0.1293
845.40 0.1292
845.50 0.1291
845.60 0.1291
845.70 0.129
845.80 0.129
845.90 0.1289
846.00 0.1288
846.10 0.1288
846.20 0.1287
846.30 0.1287
846.40 0.1286
846.50 0.1285
846.60 0.1285
846.70 0.1284
846.80 0.1284
846.90 0.1283
847.00 0.1282
847.10 0.1282
847.20 0.1281
847.30 0.1281
847.40 0.128
847.50 0.128
847.60 0.1279
847.70 0.1278
847.80 0.1278
847.90 0.1277
848.00 0.1277
848.10 0.1276
848.20 0.1275
848.30 0.1275
848.40 0.1274
848.50 0.1274
848.60 0.1273
848.70 0.1272
848.80 0.1272
848.90 0.1271
849.00 0.1271
849.10 0.127
849.20 0.127
849.30 0.1269
849.40 0.1268
849.50 0.1268
849.60 0.1267
849.70 0.1267
849.80 0.1266
849.90 0.1265
850.00 0.1265
850.10 0.1264
850.20 0.1264
850.30 0.1263
850.40 0.1263
850.50 0.1262
850.60 0.1261
850.70 0.1261
850.80 0.126
850.90 0.126
851.00 0.1259
851.10 0.1258
851.20 0.1258
851.30 0.1257
851.40 0.1257
851.50 0.1256
851.60 0.1256
851.70 0.1255
851.80 0.1254
851.90 0.1254
852.00 0.1253
852.10 0.1253
852.20 0.1252
852.30 0.1252
852.40 0.1251
852.50 0.125
852.60 0.125
852.70 0.1249
852.80 0.1249
852.90 0.1248
853.00 0.1247
853.10 0.1247
853.20 0.1246
853.30 0.1246
853.40 0.1245
853.50 0.1245
853.60 0.1244
853.70 0.1243
853.80 0.1243
853.90 0.1242
854.00 0.1242
854.10 0.1241
854.20 0.1241
854.30 0.124
854.40 0.124
854.50 0.1239
854.60 0.1238
854.70 0.1238
854.80 0.1237
854.90 0.1237
855.00 0.1236
855.10 0.1236
855.20 0.1235
855.30 0.1234
855.40 0.1234
855.50 0.1233
855.60 0.1233
855.70 0.1232
855.80 0.1232
855.90 0.1231
856.00 0.123
856.10 0.123
856.20 0.1229
856.30 0.1229
856.40 0.1228
856.50 0.1228
856.60 0.1227
856.70 0.1226
856.80 0.1226
856.90 0.1225
857.00 0.1225
857.10 0.1224
857.20 0.1224
857.30 0.1223
857.40 0.1223
857.50 0.1222
857.60 0.1221
857.70 0.1221
857.80 0.122
857.90 0.122
858.00 0.1219
858.10 0.1219
858.20 0.1218
858.30 0.1218
858.40 0.1217
858.50 0.1216
858.60 0.1216
858.70 0.1215
858.80 0.1215
858.90 0.1214
859.00 0.1214
859.10 0.1213
859.20 0.1213
859.30 0.1212
859.40 0.1211
859.50 0.1211
859.60 0.121
859.70 0.121
859.80 0.1209
859.90 0.1209
860.00 0.1208
860.10 0.1208
860.20 0.1207
860.30 0.1207
860.40 0.1206
860.50 0.1205
860.60 0.1205
860.70 0.1204
860.80 0.1204
860.90 0.1203
861.00 0.1203
861.10 0.1202
861.20 0.1202
861.30 0.1201
861.40 0.1201
861.50 0.12
861.60 0.1199
861.70 0.1199
861.80 0.1198
861.90 0.1198
862.00 0.1197
862.10 0.1197
862.20 0.1196
862.30 0.1196
862.40 0.1195
862.50 0.1195
862.60 0.1194
862.70 0.1193
862.80 0.1193
862.90 0.1192
863.00 0.1192
863.10 0.1191
863.20 0.1191
863.30 0.119
863.40 0.119
863.50 0.1189
863.60 0.1189
863.70 0.1188
863.80 0.1188
863.90 0.1187
864.00 0.1186
864.10 0.1186
864.20 0.1185
864.30 0.1185
864.40 0.1184
864.50 0.1184
864.60 0.1183
864.70 0.1183
864.80 0.1182
864.90 0.1182
865.00 0.1181
865.10 0.1181
865.20 0.118
865.30 0.1179
865.40 0.1179
865.50 0.1178
865.60 0.1178
865.70 0.1177
865.80 0.1177
865.90 0.1176
866.00 0.1176
866.10 0.1175
866.20 0.1175
866.30 0.1174
866.40 0.1174
866.50 0.1173
866.60 0.1173
866.70 0.1172
866.80 0.1171
866.90 0.1171
867.00 0.117
867.10 0.117
867.20 0.1169
867.30 0.1169
867.40 0.1168
867.50 0.1168
867.60 0.1167
867.70 0.1167
867.80 0.1166
867.90 0.1166
868.00 0.1165
868.10 0.1165
868.20 0.1164
868.30 0.1164
868.40 0.1163
868.50 0.1162
868.60 0.1162
868.70 0.1161
868.80 0.1161
868.90 0.116
869.00 0.116
869.10 0.1159
869.20 0.1159
869.30 0.1158
869.40 0.1158
869.50 0.1157
869.60 0.1157
869.70 0.1156
869.80 0.1156
869.90 0.1155
870.00 0.1155
870.10 0.1154
870.20 0.1154
870.30 0.1153
870.40 0.1153
870.50 0.1152
870.60 0.1152
870.70 0.1151
870.80 0.115
870.90 0.115
871.00 0.1149
871.10 0.1149
871.20 0.1148
871.30 0.1148
871.40 0.1147
871.50 0.1147
871.60 0.1146
871.70 0.1146
871.80 0.1145
871.90 0.1145
872.00 0.1144
872.10 0.1144
872.20 0.1143
872.30 0.1143
872.40 0.1142
872.50 0.1142
872.60 0.1141
872.70 0.1141
872.80 0.114
872.90 0.114
873.00 0.1139
873.10 0.1139
873.20 0.1138
873.30 0.1138
873.40 0.1137
873.50 0.1137
873.60 0.1136
873.70 0.1136
873.80 0.1135
873.90 0.1135
874.00 0.1134
874.10 0.1134
874.20 0.1133
874.30 0.1133
874.40 0.1132
874.50 0.1132
874.60 0.1131
874.70 0.1131
874.80 0.113
874.90 0.1129
875.00 0.1129
875.10 0.1128
875.20 0.1128
875.30 0.1127
875.40 0.1127
875.50 0.1126
875.60 0.1126
875.70 0.1125
875.80 0.1125
875.90 0.1124
876.00 0.1124
876.10 0.1123
876.20 0.1123
876.30 0.1122
876.40 0.1122
876.50 0.1121
876.60 0.1121
876.70 0.112
876.80 0.112
876.90 0.1119
877.00 0.1119
877.10 0.1118
877.20 0.1118
877.30 0.1117
877.40 0.1117
877.50 0.1116
877.60 0.1116
877.70 0.1115
877.80 0.1115
877.90 0.1114
878.00 0.1114
878.10 0.1113
878.20 0.1113
878.30 0.1112
878.40 0.1112
878.50 0.1111
878.60 0.1111
878.70 0.111
878.80 0.111
878.90 0.1109
879.00 0.1109
879.10 0.1108
879.20 0.1108
879.30 0.1107
879.40 0.1107
879.50 0.1107
879.60 0.1106
879.70 0.1106
879.80 0.1105
879.90 0.1105
880.00 0.1104
880.10 0.1104
880.20 0.1103
880.30 0.1103
880.40 0.1102
880.50 0.1102
880.60 0.1101
880.70 0.1101
880.80 0.11
880.90 0.11
881.00 0.1099
881.10 0.1099
881.20 0.1098
881.30 0.1098
881.40 0.1097
881.50 0.1097
881.60 0.1096
881.70 0.1096
881.80 0.1095
881.90 0.1095
882.00 0.1094
882.10 0.1094
882.20 0.1093
882.30 0.1093
882.40 0.1092
882.50 0.1092
882.60 0.1091
882.70 0.1091
882.80 0.109
882.90 0.109
883.00 0.1089
883.10 0.1089
883.20 0.1088
883.30 0.1088
883.40 0.1087
883.50 0.1087
883.60 0.1087
883.70 0.1086
883.80 0.1086
883.90 0.1085
884.00 0.1085
884.10 0.1084
884.20 0.1084
884.30 0.1083
884.40 0.1083
884.50 0.1082
884.60 0.1082
884.70 0.1081
884.80 0.1081
884.90 0.108
885.00 0.108
885.10 0.1079
885.20 0.1079
885.30 0.1078
885.40 0.1078
885.50 0.1077
885.60 0.1077
885.70 0.1076
885.80 0.1076
885.90 0.1075
886.00 0.1075
886.10 0.1075
886.20 0.1074
886.30 0.1074
886.40 0.1073
886.50 0.1073
886.60 0.1072
886.70 0.1072
886.80 0.1071
886.90 0.1071
887.00 0.107
887.10 0.107
887.20 0.1069
887.30 0.1069
887.40 0.1068
887.50 0.1068
887.60 0.1067
887.70 0.1067
887.80 0.1066
887.90 0.1066
888.00 0.1066
888.10 0.1065
888.20 0.1065
888.30 0.1064
888.40 0.1064
888.50 0.1063
888.60 0.1063
888.70 0.1062
888.80 0.1062
888.90 0.1061
889.00 0.1061
889.10 0.106
889.20 0.106
889.30 0.1059
889.40 0.1059
889.50 0.1059
889.60 0.1058
889.70 0.1058
889.80 0.1057
889.90 0.1057
890.00 0.1056
890.10 0.1056
890.20 0.1055
890.30 0.1055
890.40 0.1054
890.50 0.1054
890.60 0.1053
890.70 0.1053
890.80 0.1052
890.90 0.1052
891.00 0.1052
891.10 0.1051
891.20 0.1051
891.30 0.105
891.40 0.105
891.50 0.1049
891.60 0.1049
891.70 0.1048
891.80 0.1048
891.90 0.1047
892.00 0.1047
892.10 0.1046
892.20 0.1046
892.30 0.1046
892.40 0.1045
892.50 0.1045
892.60 0.1044
892.70 0.1044
892.80 0.1043
892.90 0.1043
893.00 0.1042
893.10 0.1042
893.20 0.1041
893.30 0.1041
893.40 0.1041
893.50 0.104
893.60 0.104
893.70 0.1039
893.80 0.1039
893.90 0.1038
894.00 0.1038
894.10 0.1037
894.20 0.1037
894.30 0.1036
894.40 0.1036
894.50 0.1035
894.60 0.1035
894.70 0.1035
894.80 0.1034
894.90 0.1034
895.00 0.1033
895.10 0.1033
895.20 0.1032
895.30 0.1032
895.40 0.1031
895.50 0.1031
895.60 0.1031
895.70 0.103
895.80 0.103
895.90 0.1029
896.00 0.1029
896.10 0.1028
896.20 0.1028
896.30 0.1027
896.40 0.1027
896.50 0.1026
896.60 0.1026
896.70 0.1026
896.80 0.1025
896.90 0.1025
897.00 0.1024
897.10 0.1024
897.20 0.1023
897.30 0.1023
897.40 0.1022
897.50 0.1022
897.60 0.1022
897.70 0.1021
897.80 0.1021
897.90 0.102
898.00 0.102
898.10 0.1019
898.20 0.1019
898.30 0.1018
898.40 0.1018
898.50 0.1018
898.60 0.1017
898.70 0.1017
898.80 0.1016
898.90 0.1016
899.00 0.1015
899.10 0.1015
899.20 0.1014
899.30 0.1014
899.40 0.1014
899.50 0.1013
899.60 0.1013
899.70 0.1012
899.80 0.1012
899.90 0.1011
900.00 0.1011
900.10 0.101
900.20 0.101
900.30 0.101
900.40 0.1009
900.50 0.1009
900.60 0.1008
900.70 0.1008
900.80 0.1007
900.90 0.1007
901.00 0.1007
901.10 0.1006
901.20 0.1006
901.30 0.1005
901.40 0.1005
901.50 0.1004
901.60 0.1004
901.70 0.1003
901.80 0.1003
901.90 0.1003
902.00 0.1002
902.10 0.1002
902.20 0.1001
902.30 0.1001
902.40 0.1
902.50 0.1
902.60 0.09995
902.70 0.09991
902.80 0.09987
902.90 0.09982
903.00 0.09978
903.10 0.09974
903.20 0.09969
903.30 0.09965
903.40 0.09961
903.50 0.09957
903.60 0.09952
903.70 0.09948
903.80 0.09944
903.90 0.09939
904.00 0.09935
904.10 0.09931
904.20 0.09926
904.30 0.09922
904.40 0.09918
904.50 0.09913
904.60 0.09909
904.70 0.09905
904.80 0.09901
904.90 0.09896
905.00 0.09892
905.10 0.09888
905.20 0.09883
905.30 0.09879
905.40 0.09875
905.50 0.09871
905.60 0.09866
905.70 0.09862
905.80 0.09858
905.90 0.09853
906.00 0.09849
906.10 0.09845
906.20 0.09841
906.30 0.09836
906.40 0.09832
906.50 0.09828
906.60 0.09823
906.70 0.09819
906.80 0.09815
906.90 0.09811
907.00 0.09806
907.10 0.09802
907.20 0.09798
907.30 0.09794
907.40 0.0979
907.50 0.09785
907.60 0.09781
907.70 0.09777
907.80 0.09773
907.90 0.09769
908.00 0.09764
908.10 0.0976
908.20 0.09756
908.30 0.09752
908.40 0.09748
908.50 0.09743
908.60 0.09739
908.70 0.09735
908.80 0.09731
908.90 0.09727
909.00 0.09722
909.10 0.09718
909.20 0.09714
909.30 0.0971
909.40 0.09706
909.50 0.09701
909.60 0.09697
909.70 0.09693
909.80 0.09689
909.90 0.09685
910.00 0.09681
910.10 0.09676
910.20 0.09672
910.30 0.09668
910.40 0.09664
910.50 0.0966
910.60 0.09656
910.70 0.09651
910.80 0.09647
910.90 0.09643
911.00 0.09639
911.10 0.09635
911.20 0.09631
911.30 0.09626
911.40 0.09622
911.50 0.09618
911.60 0.09614
911.70 0.0961
911.80 0.09606
911.90 0.09602
912.00 0.09597
912.10 0.09593
912.20 0.09589
912.30 0.09585
912.40 0.09581
912.50 0.09577
912.60 0.09573
912.70 0.09569
912.80 0.09565
912.90 0.09561
913.00 0.09556
913.10 0.09552
913.20 0.09548
913.30 0.09544
913.40 0.0954
913.50 0.09536
913.60 0.09532
913.70 0.09528
913.80 0.09524
913.90 0.0952
914.00 0.09516
914.10 0.09512
914.20 0.09507
914.30 0.09503
914.40 0.09499
914.50 0.09495
914.60 0.09491
914.70 0.09487
914.80 0.09483
914.90 0.09479
915.00 0.09475
915.10 0.09471
915.20 0.09467
915.30 0.09463
915.40 0.09459
915.50 0.09455
915.60 0.09451
915.70 0.09447
915.80 0.09443
915.90 0.09439
916.00 0.09434
916.10 0.0943
916.20 0.09426
916.30 0.09422
916.40 0.09418
916.50 0.09414
916.60 0.0941
916.70 0.09406
916.80 0.09402
916.90 0.09398
917.00 0.09394
917.10 0.0939
917.20 0.09386
917.30 0.09382
917.40 0.09378
917.50 0.09374
917.60 0.0937
917.70 0.09366
917.80 0.09362
917.90 0.09358
918.00 0.09354
918.10 0.0935
918.20 0.09346
918.30 0.09342
918.40 0.09338
918.50 0.09334
918.60 0.09331
918.70 0.09327
918.80 0.09323
918.90 0.09319
919.00 0.09315
919.10 0.09311
919.20 0.09307
919.30 0.09303
919.40 0.09299
919.50 0.09295
919.60 0.09291
919.70 0.09287
919.80 0.09283
919.90 0.09279
920.00 0.09275
920.10 0.09271
920.20 0.09267
920.30 0.09263
920.40 0.09259
920.50 0.09255
920.60 0.09252
920.70 0.09248
920.80 0.09244
920.90 0.0924
921.00 0.09236
921.10 0.09232
921.20 0.09228
921.30 0.09224
921.40 0.0922
921.50 0.09216
921.60 0.09212
921.70 0.09208
921.80 0.09204
921.90 0.09201
922.00 0.09197
922.10 0.09193
922.20 0.09189
922.30 0.09185
922.40 0.09181
922.50 0.09177
922.60 0.09173
922.70 0.09169
922.80 0.09165
922.90 0.09162
923.00 0.09158
923.10 0.09154
923.20 0.0915
923.30 0.09146
923.40 0.09142
923.50 0.09138
923.60 0.09134
923.70 0.09131
923.80 0.09127
923.90 0.09123
924.00 0.09119
924.10 0.09115
924.20 0.09111
924.30 0.09107
924.40 0.09103
924.50 0.091
924.60 0.09096
924.70 0.09092
924.80 0.09088
924.90 0.09084
925.00 0.0908
925.10 0.09076
925.20 0.09073
925.30 0.09069
925.40 0.09065
925.50 0.09061
925.60 0.09057
925.70 0.09053
925.80 0.09049
925.90 0.09046
926.00 0.09042
926.10 0.09038
926.20 0.09034
926.30 0.0903
926.40 0.09026
926.50 0.09023
926.60 0.09019
926.70 0.09015
926.80 0.09011
926.90 0.09007
927.00 0.09003
927.10 0.09
927.20 0.08996
927.30 0.08992
927.40 0.08988
927.50 0.08985
927.60 0.08981
927.70 0.08977
927.80 0.08973
927.90 0.08969
928.00 0.08966
928.10 0.08962
928.20 0.08958
928.30 0.08954
928.40 0.0895
928.50 0.08947
928.60 0.08943
928.70 0.08939
928.80 0.08935
928.90 0.08932
929.00 0.08928
929.10 0.08924
929.20 0.0892
929.30 0.08917
929.40 0.08913
929.50 0.08909
929.60 0.08905
929.70 0.08901
929.80 0.08898
929.90 0.08894
930.00 0.0889
930.10 0.08886
930.20 0.08883
930.30 0.08879
930.40 0.08875
930.50 0.08871
930.60 0.08868
930.70 0.08864
930.80 0.0886
930.90 0.08857
931.00 0.08853
931.10 0.08849
931.20 0.08845
931.30 0.08842
931.40 0.08838
931.50 0.08834
931.60 0.0883
931.70 0.08827
931.80 0.08823
931.90 0.08819
932.00 0.08815
932.10 0.08812
932.20 0.08808
932.30 0.08804
932.40 0.08801
932.50 0.08797
932.60 0.08793
932.70 0.0879
932.80 0.08786
932.90 0.08782
933.00 0.08778
933.10 0.08775
933.20 0.08771
933.30 0.08767
933.40 0.08764
933.50 0.0876
933.60 0.08756
933.70 0.08753
933.80 0.08749
933.90 0.08745
934.00 0.08742
934.10 0.08738
934.20 0.08734
934.30 0.08731
934.40 0.08727
934.50 0.08723
934.60 0.0872
934.70 0.08716
934.80 0.08712
934.90 0.08709
935.00 0.08705
935.10 0.08701
935.20 0.08698
935.30 0.08694
935.40 0.08691
935.50 0.08687
935.60 0.08683
935.70 0.0868
935.80 0.08676
935.90 0.08672
936.00 0.08669
936.10 0.08665
936.20 0.08662
936.30 0.08658
936.40 0.08654
936.50 0.08651
936.60 0.08647
936.70 0.08643
936.80 0.0864
936.90 0.08636
937.00 0.08633
937.10 0.08629
937.20 0.08625
937.30 0.08622
937.40 0.08618
937.50 0.08615
937.60 0.08611
937.70 0.08607
937.80 0.08604
937.90 0.086
938.00 0.08597
938.10 0.08593
938.20 0.08589
938.30 0.08586
938.40 0.08582
938.50 0.08579
938.60 0.08575
938.70 0.08571
938.80 0.08568
938.90 0.08564
939.00 0.08561
939.10 0.08557
939.20 0.08554
939.30 0.0855
939.40 0.08546
939.50 0.08543
939.60 0.08539
939.70 0.08536
939.80 0.08532
939.90 0.08529
940.00 0.08525
940.10 0.08522
940.20 0.08518
940.30 0.08514
940.40 0.08511
940.50 0.08507
940.60 0.08504
940.70 0.085
940.80 0.08497
940.90 0.08493
941.00 0.0849
941.10 0.08486
941.20 0.08483
941.30 0.08479
941.40 0.08476
941.50 0.08472
941.60 0.08468
941.70 0.08465
941.80 0.08461
941.90 0.08458
942.00 0.08454
942.10 0.08451
942.20 0.08447
942.30 0.08444
942.40 0.0844
942.50 0.08437
942.60 0.08433
942.70 0.0843
942.80 0.08426
942.90 0.08423
943.00 0.08419
943.10 0.08416
943.20 0.08412
943.30 0.08409
943.40 0.08405
943.50 0.08402
943.60 0.08398
943.70 0.08395
943.80 0.08391
943.90 0.08388
944.00 0.08385
944.10 0.08381
944.20 0.08378
944.30 0.08374
944.40 0.08371
944.50 0.08367
944.60 0.08364
944.70 0.0836
944.80 0.08357
944.90 0.08353
945.00 0.0835
945.10 0.08346
945.20 0.08343
945.30 0.0834
945.40 0.08336
945.50 0.08333
945.60 0.08329
945.70 0.08326
945.80 0.08322
945.90 0.08319
946.00 0.08315
946.10 0.08312
946.20 0.08309
946.30 0.08305
946.40 0.08302
946.50 0.08298
946.60 0.08295
946.70 0.08291
946.80 0.08288
946.90 0.08285
947.00 0.08281
947.10 0.08278
947.20 0.08274
947.30 0.08271
947.40 0.08268
947.50 0.08264
947.60 0.08261
947.70 0.08257
947.80 0.08254
947.90 0.08251
948.00 0.08247
948.10 0.08244
948.20 0.0824
948.30 0.08237
948.40 0.08234
948.50 0.0823
948.60 0.08227
948.70 0.08223
948.80 0.0822
948.90 0.08217
949.00 0.08213
949.10 0.0821
949.20 0.08206
949.30 0.08203
949.40 0.082
949.50 0.08196
949.60 0.08193
949.70 0.0819
949.80 0.08186
949.90 0.08183
950.00 0.0818
950.10 0.08176
950.20 0.08173
950.30 0.0817
950.40 0.08166
950.50 0.08163
950.60 0.08159
950.70 0.08156
950.80 0.08153
950.90 0.08149
951.00 0.08146
951.10 0.08143
951.20 0.08139
951.30 0.08136
951.40 0.08133
951.50 0.08129
951.60 0.08126
951.70 0.08123
951.80 0.08119
951.90 0.08116
952.00 0.08113
952.10 0.0811
952.20 0.08106
952.30 0.08103
952.40 0.081
952.50 0.08096
952.60 0.08093
952.70 0.0809
952.80 0.08086
952.90 0.08083
953.00 0.0808
953.10 0.08077
953.20 0.08073
953.30 0.0807
953.40 0.08067
953.50 0.08063
953.60 0.0806
953.70 0.08057
953.80 0.08054
953.90 0.0805
954.00 0.08047
954.10 0.08044
954.20 0.08041
954.30 0.08037
954.40 0.08034
954.50 0.08031
954.60 0.08027
954.70 0.08024
954.80 0.08021
954.90 0.08018
955.00 0.08014
955.10 0.08011
955.20 0.08008
955.30 0.08004
955.40 0.08001
955.50 0.07998
955.60 0.07994
955.70 0.07991
955.80 0.07988
955.90 0.07984
956.00 0.07981
956.10 0.07978
956.20 0.07975
956.30 0.07971
956.40 0.07968
956.50 0.07965
956.60 0.07961
956.70 0.07958
956.80 0.07955
956.90 0.07952
957.00 0.07948
957.10 0.07945
957.20 0.07942
957.30 0.07938
957.40 0.07935
957.50 0.07932
957.60 0.07929
957.70 0.07925
957.80 0.07922
957.90 0.07919
958.00 0.07916
958.10 0.07912
958.20 0.07909
958.30 0.07906
958.40 0.07903
958.50 0.07899
958.60 0.07896
958.70 0.07893
958.80 0.0789
958.90 0.07886
959.00 0.07883
959.10 0.0788
959.20 0.07877
959.30 0.07874
959.40 0.0787
959.50 0.07867
959.60 0.07864
959.70 0.07861
959.80 0.07857
959.90 0.07854
960.00 0.07851
960.10 0.07848
960.20 0.07845
960.30 0.07841
960.40 0.07838
960.50 0.07835
960.60 0.07832
960.70 0.07829
960.80 0.07825
960.90 0.07822
961.00 0.07819
961.10 0.07816
961.20 0.07813
961.30 0.07809
961.40 0.07806
961.50 0.07803
961.60 0.078
961.70 0.07797
961.80 0.07793
961.90 0.0779
962.00 0.07787
962.10 0.07784
962.20 0.07781
962.30 0.07778
962.40 0.07774
962.50 0.07771
962.60 0.07768
962.70 0.07765
962.80 0.07762
962.90 0.07759
963.00 0.07755
963.10 0.07752
963.20 0.07749
963.30 0.07746
963.40 0.07743
963.50 0.0774
963.60 0.07737
963.70 0.07733
963.80 0.0773
963.90 0.07727
964.00 0.07724
964.10 0.07721
964.20 0.07718
964.30 0.07715
964.40 0.07711
964.50 0.07708
964.60 0.07705
964.70 0.07702
964.80 0.07699
964.90 0.07696
965.00 0.07693
965.10 0.0769
965.20 0.07686
965.30 0.07683
965.40 0.0768
965.50 0.07677
965.60 0.07674
965.70 0.07671
965.80 0.07668
965.90 0.07665
966.00 0.07662
966.10 0.07658
966.20 0.07655
966.30 0.07652
966.40 0.07649
966.50 0.07646
966.60 0.07643
966.70 0.0764
966.80 0.07637
966.90 0.07634
967.00 0.0763
967.10 0.07627
967.20 0.07624
967.30 0.07621
967.40 0.07618
967.50 0.07615
967.60 0.07612
967.70 0.07609
967.80 0.07606
967.90 0.07603
968.00 0.076
968.10 0.07597
968.20 0.07593
968.30 0.0759
968.40 0.07587
968.50 0.07584
968.60 0.07581
968.70 0.07578
968.80 0.07575
968.90 0.07572
969.00 0.07569
969.10 0.07566
969.20 0.07563
969.30 0.0756
969.40 0.07557
969.50 0.07554
969.60 0.07551
969.70 0.07548
969.80 0.07545
969.90 0.07541
970.00 0.07538
970.10 0.07535
970.20 0.07532
970.30 0.07529
970.40 0.07526
970.50 0.07523
970.60 0.0752
970.70 0.07517
970.80 0.07514
970.90 0.07511
971.00 0.07508
971.10 0.07505
971.20 0.07502
971.30 0.07499
971.40 0.07496
971.50 0.07493
971.60 0.0749
971.70 0.07487
971.80 0.07484
971.90 0.07481
972.00 0.07478
972.10 0.07475
972.20 0.07472
972.30 0.07469
972.40 0.07466
972.50 0.07463
972.60 0.0746
972.70 0.07457
972.80 0.07454
972.90 0.07451
973.00 0.07448
973.10 0.07445
973.20 0.07442
973.30 0.07439
973.40 0.07436
973.50 0.07433
973.60 0.0743
973.70 0.07427
973.80 0.07424
973.90 0.07421
974.00 0.07418
974.10 0.07415
974.20 0.07412
974.30 0.07409
974.40 0.07406
974.50 0.07403
974.60 0.074
974.70 0.07397
974.80 0.07394
974.90 0.07391
975.00 0.07388
975.10 0.07385
975.20 0.07382
975.30 0.07379
975.40 0.07376
975.50 0.07373
975.60 0.0737
975.70 0.07367
975.80 0.07364
975.90 0.07361
976.00 0.07358
976.10 0.07355
976.20 0.07352
976.30 0.07349
976.40 0.07346
976.50 0.07343
976.60 0.0734
976.70 0.07338
976.80 0.07335
976.90 0.07332
977.00 0.07329
977.10 0.07326
977.20 0.07323
977.30 0.0732
977.40 0.07317
977.50 0.07314
977.60 0.07311
977.70 0.07308
977.80 0.07305
977.90 0.07302
978.00 0.07299
978.10 0.07296
978.20 0.07293
978.30 0.07291
978.40 0.07288
978.50 0.07285
978.60 0.07282
978.70 0.07279
978.80 0.07276
978.90 0.07273
979.00 0.0727
979.10 0.07267
979.20 0.07264
979.30 0.07261
979.40 0.07258
979.50 0.07255
979.60 0.07253
979.70 0.0725
979.80 0.07247
979.90 0.07244
980.00 0.07241
980.10 0.07238
980.20 0.07235
980.30 0.07232
980.40 0.07229
980.50 0.07226
980.60 0.07223
980.70 0.07221
980.80 0.07218
980.90 0.07215
981.00 0.07212
981.10 0.07209
981.20 0.07206
981.30 0.07203
981.40 0.072
981.50 0.07197
981.60 0.07195
981.70 0.07192
981.80 0.07189
981.90 0.07186
982.00 0.07183
982.10 0.0718
982.20 0.07177
982.30 0.07174
982.40 0.07171
982.50 0.07169
982.60 0.07166
982.70 0.07163
982.80 0.0716
982.90 0.07157
983.00 0.07154
983.10 0.07151
983.20 0.07149
983.30 0.07146
983.40 0.07143
983.50 0.0714
983.60 0.07137
983.70 0.07134
983.80 0.07131
983.90 0.07128
984.00 0.07126
984.10 0.07123
984.20 0.0712
984.30 0.07117
984.40 0.07114
984.50 0.07111
984.60 0.07108
984.70 0.07106
984.80 0.07103
984.90 0.071
985.00 0.07097
985.10 0.07094
985.20 0.07091
985.30 0.07089
985.40 0.07086
985.50 0.07083
985.60 0.0708
985.70 0.07077
985.80 0.07074
985.90 0.07072
986.00 0.07069
986.10 0.07066
986.20 0.07063
986.30 0.0706
986.40 0.07057
986.50 0.07055
986.60 0.07052
986.70 0.07049
986.80 0.07046
986.90 0.07043
987.00 0.07041
987.10 0.07038
987.20 0.07035
987.30 0.07032
987.40 0.07029
987.50 0.07026
987.60 0.07024
987.70 0.07021
987.80 0.07018
987.90 0.07015
988.00 0.07012
988.10 0.0701
988.20 0.07007
988.30 0.07004
988.40 0.07001
988.50 0.06998
988.60 0.06996
988.70 0.06993
988.80 0.0699
988.90 0.06987
989.00 0.06985
989.10 0.06982
989.20 0.06979
989.30 0.06976
989.40 0.06973
989.50 0.06971
989.60 0.06968
989.70 0.06965
989.80 0.06962
989.90 0.06959
990.00 0.06957
990.10 0.06954
990.20 0.06951
990.30 0.06948
990.40 0.06946
990.50 0.06943
990.60 0.0694
990.70 0.06937
990.80 0.06935
990.90 0.06932
991.00 0.06929
991.10 0.06926
991.20 0.06923
991.30 0.06921
991.40 0.06918
991.50 0.06915
991.60 0.06912
991.70 0.0691
991.80 0.06907
991.90 0.06904
992.00 0.06901
992.10 0.06899
992.20 0.06896
992.30 0.06893
992.40 0.0689
992.50 0.06888
992.60 0.06885
992.70 0.06882
992.80 0.06879
992.90 0.06877
993.00 0.06874
993.10 0.06871
993.20 0.06869
993.30 0.06866
993.40 0.06863
993.50 0.0686
993.60 0.06858
993.70 0.06855
993.80 0.06852
993.90 0.0685
994.00 0.06847
994.10 0.06844
994.20 0.06841
994.30 0.06839
994.40 0.06836
994.50 0.06833
994.60 0.0683
994.70 0.06828
994.80 0.06825
994.90 0.06822
995.00 0.0682
995.10 0.06817
995.20 0.06814
995.30 0.06812
995.40 0.06809
995.50 0.06806
995.60 0.06803
995.70 0.06801
995.80 0.06798
995.90 0.06795
996.00 0.06793
996.10 0.0679
996.20 0.06787
996.30 0.06785
996.40 0.06782
996.50 0.06779
996.60 0.06777
996.70 0.06774
996.80 0.06771
996.90 0.06769
997.00 0.06766
997.10 0.06763
997.20 0.06761
997.30 0.06758
997.40 0.06755
997.50 0.06753
997.60 0.0675
997.70 0.06747
997.80 0.06745
997.90 0.06742
998.00 0.06739
998.10 0.06737
998.20 0.06734
998.30 0.06732
998.40 0.06729
998.50 0.06726
998.60 0.06724
998.70 0.06721
998.80 0.06718
998.90 0.06716
999.00 0.06713
999.10 0.06711
999.20 0.06708
999.30 0.06705
999.40 0.06703
999.50 0.067
999.60 0.06697
999.70 0.06695
999.80 0.06692
999.90 0.06689
1000.00 0.06686
1000.10 0.06683
1000.20 0.06681
1000.30 0.06678
1000.40 0.06675
1000.50 0.06672
1000.60 0.06669
1000.70 0.06666
1000.80 0.06664
1000.90 0.06661
1001.00 0.06658
1001.10 0.06655
1001.20 0.06652
1001.30 0.0665
1001.40 0.06647
1001.50 0.06644
1001.60 0.06641
1001.70 0.06639
1001.80 0.06636
1001.90 0.06633
1002.00 0.06631
1002.10 0.06628
1002.20 0.06626
1002.30 0.06623
1002.40 0.06621
1002.50 0.06618
1002.60 0.06616
1002.70 0.06613
1002.80 0.06611
1002.90 0.06608
1003.00 0.06606
1003.10 0.06603
1003.20 0.06601
1003.30 0.06598
1003.40 0.06596
1003.50 0.06593
1003.60 0.06591
1003.70 0.06588
1003.80 0.06586
1003.90 0.06584
1004.00 0.06581
1004.10 0.06579
1004.20 0.06576
1004.30 0.06574
1004.40 0.06571
1004.50 0.06569
1004.60 0.06566
1004.70 0.06563
1004.80 0.06561
1004.90 0.06558
1005.00 0.06556
1005.10 0.06553
1005.20 0.06551
1005.30 0.06548
1005.40 0.06546
1005.50 0.06543
1005.60 0.0654
1005.70 0.06538
1005.80 0.06535
1005.90 0.06533
1006.00 0.0653
1006.10 0.06527
1006.20 0.06525
1006.30 0.06522
1006.40 0.06519
1006.50 0.06517
1006.60 0.06514
1006.70 0.06512
1006.80 0.06509
1006.90 0.06506
1007.00 0.06504
1007.10 0.06501
1007.20 0.06499
1007.30 0.06496
1007.40 0.06493
1007.50 0.06491
1007.60 0.06488
1007.70 0.06486
1007.80 0.06483
1007.90 0.0648
1008.00 0.06478
1008.10 0.06475
1008.20 0.06473
1008.30 0.0647
1008.40 0.06468
1008.50 0.06465
1008.60 0.06463
1008.70 0.0646
1008.80 0.06458
1008.90 0.06455
1009.00 0.06452
1009.10 0.0645
1009.20 0.06447
1009.30 0.06445
1009.40 0.06442
1009.50 0.0644
1009.60 0.06437
1009.70 0.06435
1009.80 0.06432
1009.90 0.0643
1010.00 0.06427
1010.10 0.06425
1010.20 0.06422
1010.30 0.0642
1010.40 0.06417
1010.50 0.06415
1010.60 0.06412
1010.70 0.0641
1010.80 0.06407
1010.90 0.06405
1011.00 0.06402
1011.10 0.064
1011.20 0.06397
1011.30 0.06395
1011.40 0.06392
1011.50 0.0639
1011.60 0.06387
1011.70 0.06385
1011.80 0.06382
1011.90 0.0638
1012.00 0.06377
1012.10 0.06375
1012.20 0.06373
1012.30 0.0637
1012.40 0.06368
1012.50 0.06365
1012.60 0.06363
1012.70 0.0636
1012.80 0.06358
1012.90 0.06355
1013.00 0.06353
1013.10 0.06351
1013.20 0.06348
1013.30 0.06346
1013.40 0.06343
1013.50 0.06341
1013.60 0.06338
1013.70 0.06336
1013.80 0.06333
1013.90 0.06331
1014.00 0.06329
1014.10 0.06326
1014.20 0.06324
1014.30 0.06321
1014.40 0.06319
1014.50 0.06317
1014.60 0.06314
1014.70 0.06312
1014.80 0.06309
1014.90 0.06307
1015.00 0.06304
1015.10 0.06302
1015.20 0.063
1015.30 0.06297
1015.40 0.06295
1015.50 0.06292
1015.60 0.0629
1015.70 0.06288
1015.80 0.06285
1015.90 0.06283
1016.00 0.0628
1016.10 0.06278
1016.20 0.06276
1016.30 0.06273
1016.40 0.06271
1016.50 0.06268
1016.60 0.06266
1016.70 0.06264
1016.80 0.06261
1016.90 0.06259
1017.00 0.06257
1017.10 0.06254
1017.20 0.06252
1017.30 0.06249
1017.40 0.06247
1017.50 0.06245
1017.60 0.06242
1017.70 0.0624
1017.80 0.06237
1017.90 0.06235
1018.00 0.06233
1018.10 0.0623
1018.20 0.06228
1018.30 0.06226
1018.40 0.06223
1018.50 0.06221
1018.60 0.06218
1018.70 0.06216
1018.80 0.06214
1018.90 0.06211
1019.00 0.06209
1019.10 0.06207
1019.20 0.06204
1019.30 0.06202
1019.40 0.062
1019.50 0.06197
1019.60 0.06195
1019.70 0.06193
1019.80 0.0619
1019.90 0.06188
1020.00 0.06185
1020.10 0.06183
1020.20 0.06181
1020.30 0.06178
1020.40 0.06176
1020.50 0.06174
1020.60 0.06171
1020.70 0.06169
1020.80 0.06167
1020.90 0.06164
1021.00 0.06162
1021.10 0.0616
1021.20 0.06157
1021.30 0.06155
1021.40 0.06153
1021.50 0.0615
1021.60 0.06148
1021.70 0.06146
1021.80 0.06143
1021.90 0.06141
1022.00 0.06139
1022.10 0.06136
1022.20 0.06134
1022.30 0.06132
1022.40 0.06129
1022.50 0.06127
1022.60 0.06125
1022.70 0.06122
1022.80 0.0612
1022.90 0.06118
1023.00 0.06115
1023.10 0.06113
1023.20 0.06111
1023.30 0.06108
1023.40 0.06106
1023.50 0.06104
1023.60 0.06101
1023.70 0.06099
1023.80 0.06097
1023.90 0.06095
1024.00 0.06092
1024.10 0.0609
1024.20 0.06088
1024.30 0.06085
1024.40 0.06083
1024.50 0.06081
1024.60 0.06078
1024.70 0.06076
1024.80 0.06074
1024.90 0.06071
1025.00 0.06069
1025.10 0.06067
1025.20 0.06065
1025.30 0.06062
1025.40 0.0606
1025.50 0.06058
1025.60 0.06055
1025.70 0.06053
1025.80 0.06051
1025.90 0.06049
1026.00 0.06046
1026.10 0.06044
1026.20 0.06042
1026.30 0.06039
1026.40 0.06037
1026.50 0.06035
1026.60 0.06032
1026.70 0.0603
1026.80 0.06028
1026.90 0.06026
1027.00 0.06023
1027.10 0.06021
1027.20 0.06019
1027.30 0.06017
1027.40 0.06014
1027.50 0.06012
1027.60 0.0601
1027.70 0.06007
1027.80 0.06005
1027.90 0.06003
1028.00 0.06001
1028.10 0.05998
1028.20 0.05996
1028.30 0.05994
1028.40 0.05992
1028.50 0.05989
1028.60 0.05987
1028.70 0.05985
1028.80 0.05983
1028.90 0.0598
1029.00 0.05978
1029.10 0.05976
1029.20 0.05973
1029.30 0.05971
1029.40 0.05969
1029.50 0.05967
1029.60 0.05964
1029.70 0.05962
1029.80 0.0596
1029.90 0.05958
1030.00 0.05955
1030.10 0.05953
1030.20 0.05951
1030.30 0.05949
1030.40 0.05946
1030.50 0.05944
1030.60 0.05942
1030.70 0.0594
1030.80 0.05937
1030.90 0.05935
1031.00 0.05933
1031.10 0.05931
1031.20 0.05928
1031.30 0.05926
1031.40 0.05924
1031.50 0.05922
1031.60 0.05919
1031.70 0.05917
1031.80 0.05915
1031.90 0.05913
1032.00 0.05911
1032.10 0.05908
1032.20 0.05906
1032.30 0.05904
1032.40 0.05902
1032.50 0.05899
1032.60 0.05897
1032.70 0.05895
1032.80 0.05893
1032.90 0.0589
1033.00 0.05888
1033.10 0.05886
1033.20 0.05884
1033.30 0.05882
1033.40 0.05879
1033.50 0.05877
1033.60 0.05875
1033.70 0.05873
1033.80 0.05871
1033.90 0.05868
1034.00 0.05866
1034.10 0.05864
1034.20 0.05862
1034.30 0.05859
1034.40 0.05857
1034.50 0.05855
1034.60 0.05853
1034.70 0.05851
1034.80 0.05848
1034.90 0.05846
1035.00 0.05844
1035.10 0.05842
1035.20 0.0584
1035.30 0.05837
1035.40 0.05835
1035.50 0.05833
1035.60 0.05831
1035.70 0.05829
1035.80 0.05826
1035.90 0.05824
1036.00 0.05822
1036.10 0.0582
1036.20 0.05818
1036.30 0.05815
1036.40 0.05813
1036.50 0.05811
1036.60 0.05809
1036.70 0.05807
1036.80 0.05804
1036.90 0.05802
1037.00 0.058
1037.10 0.05798
1037.20 0.05796
1037.30 0.05793
1037.40 0.05791
1037.50 0.05789
1037.60 0.05787
1037.70 0.05785
1037.80 0.05783
1037.90 0.0578
1038.00 0.05778
1038.10 0.05776
1038.20 0.05774
1038.30 0.05772
1038.40 0.0577
1038.50 0.05767
1038.60 0.05765
1038.70 0.05763
1038.80 0.05761
1038.90 0.05759
1039.00 0.05757
1039.10 0.05754
1039.20 0.05752
1039.30 0.0575
1039.40 0.05748
1039.50 0.05746
1039.60 0.05744
1039.70 0.05741
1039.80 0.05739
1039.90 0.05737
1040.00 0.05735
1040.10 0.05733
1040.20 0.05731
1040.30 0.05728
1040.40 0.05726
1040.50 0.05724
1040.60 0.05722
1040.70 0.0572
1040.80 0.05718
1040.90 0.05715
1041.00 0.05713
1041.10 0.05711
1041.20 0.05709
1041.30 0.05707
1041.40 0.05705
1041.50 0.05703
1041.60 0.057
1041.70 0.05698
1041.80 0.05696
1041.90 0.05694
1042.00 0.05692
1042.10 0.0569
1042.20 0.05688
1042.30 0.05685
1042.40 0.05683
1042.50 0.05681
1042.60 0.05679
1042.70 0.05677
1042.80 0.05675
1042.90 0.05673
1043.00 0.0567
1043.10 0.05668
1043.20 0.05666
1043.30 0.05664
1043.40 0.05662
1043.50 0.0566
1043.60 0.05658
1043.70 0.05656
1043.80 0.05653
1043.90 0.05651
1044.00 0.05649
1044.10 0.05647
1044.20 0.05645
1044.30 0.05643
1044.40 0.05641
1044.50 0.05639
1044.60 0.05637
1044.70 0.05634
1044.80 0.05632
1044.90 0.0563
1045.00 0.05628
1045.10 0.05626
1045.20 0.05624
1045.30 0.05622
1045.40 0.0562
1045.50 0.05618
1045.60 0.05615
1045.70 0.05613
1045.80 0.05611
1045.90 0.05609
1046.00 0.05607
1046.10 0.05605
1046.20 0.05603
1046.30 0.05601
1046.40 0.05599
1046.50 0.05596
1046.60 0.05594
1046.70 0.05592
1046.80 0.0559
1046.90 0.05588
1047.00 0.05586
1047.10 0.05584
1047.20 0.05582
1047.30 0.0558
1047.40 0.05578
1047.50 0.05575
1047.60 0.05573
1047.70 0.05571
1047.80 0.05569
1047.90 0.05567
1048.00 0.05565
1048.10 0.05563
1048.20 0.05561
1048.30 0.05559
1048.40 0.05557
1048.50 0.05555
1048.60 0.05553
1048.70 0.0555
1048.80 0.05548
1048.90 0.05546
1049.00 0.05544
1049.10 0.05542
1049.20 0.0554
1049.30 0.05538
1049.40 0.05536
1049.50 0.05534
1049.60 0.05532
1049.70 0.0553
1049.80 0.05528
1049.90 0.05526
1050.00 0.05524
1050.10 0.05521
1050.20 0.05519
1050.30 0.05517
1050.40 0.05515
1050.50 0.05513
1050.60 0.05511
1050.70 0.05509
1050.80 0.05507
1050.90 0.05505
1051.00 0.05503
1051.10 0.05501
1051.20 0.05499
1051.30 0.05497
1051.40 0.05495
1051.50 0.05493
1051.60 0.0549
1051.70 0.05488
1051.80 0.05486
1051.90 0.05484
1052.00 0.05482
1052.10 0.0548
1052.20 0.05478
1052.30 0.05476
1052.40 0.05474
1052.50 0.05472
1052.60 0.0547
1052.70 0.05468
1052.80 0.05466
1052.90 0.05464
1053.00 0.05462
1053.10 0.0546
1053.20 0.05458
1053.30 0.05456
1053.40 0.05454
1053.50 0.05452
1053.60 0.0545
1053.70 0.05447
1053.80 0.05445
1053.90 0.05443
1054.00 0.05441
1054.10 0.05439
1054.20 0.05437
1054.30 0.05435
1054.40 0.05433
1054.50 0.05431
1054.60 0.05429
1054.70 0.05427
1054.80 0.05425
1054.90 0.05423
1055.00 0.05421
1055.10 0.05419
1055.20 0.05417
1055.30 0.05415
1055.40 0.05413
1055.50 0.05411
1055.60 0.05409
1055.70 0.05407
1055.80 0.05405
1055.90 0.05403
1056.00 0.05401
1056.10 0.05399
1056.20 0.05397
1056.30 0.05395
1056.40 0.05393
1056.50 0.05391
1056.60 0.05389
1056.70 0.05387
1056.80 0.05385
1056.90 0.05383
1057.00 0.05381
1057.10 0.05379
1057.20 0.05377
1057.30 0.05375
1057.40 0.05373
1057.50 0.05371
1057.60 0.05369
1057.70 0.05367
1057.80 0.05365
1057.90 0.05363
1058.00 0.05361
1058.10 0.05359
1058.20 0.05357
1058.30 0.05355
1058.40 0.05353
1058.50 0.05351
1058.60 0.05349
1058.70 0.05347
1058.80 0.05345
1058.90 0.05343
1059.00 0.05341
1059.10 0.05339
1059.20 0.05337
1059.30 0.05335
1059.40 0.05333
1059.50 0.05331
1059.60 0.05329
1059.70 0.05327
1059.80 0.05325
1059.90 0.05323
1060.00 0.05321
1060.10 0.05319
1060.20 0.05317
1060.30 0.05315
1060.40 0.05313
1060.50 0.05311
1060.60 0.05309
1060.70 0.05307
1060.80 0.05305
1060.90 0.05303
1061.00 0.05301
1061.10 0.05299
1061.20 0.05297
1061.30 0.05295
1061.40 0.05293
1061.50 0.05291
1061.60 0.05289
1061.70 0.05287
1061.80 0.05285
1061.90 0.05283
1062.00 0.05281
1062.10 0.05279
1062.20 0.05277
1062.30 0.05275
1062.40 0.05273
1062.50 0.05271
1062.60 0.05269
1062.70 0.05267
1062.80 0.05265
1062.90 0.05263
1063.00 0.05261
1063.10 0.05259
1063.20 0.05257
1063.30 0.05255
1063.40 0.05253
1063.50 0.05252
1063.60 0.0525
1063.70 0.05248
1063.80 0.05246
1063.90 0.05244
1064.00 0.05242
1064.10 0.0524
1064.20 0.05238
1064.30 0.05236
1064.40 0.05234
1064.50 0.05232
1064.60 0.0523
1064.70 0.05228
1064.80 0.05226
1064.90 0.05224
1065.00 0.05222
1065.10 0.0522
1065.20 0.05218
1065.30 0.05216
1065.40 0.05214
1065.50 0.05212
1065.60 0.0521
1065.70 0.05209
1065.80 0.05207
1065.90 0.05205
1066.00 0.05203
1066.10 0.05201
1066.20 0.05199
1066.30 0.05197
1066.40 0.05195
1066.50 0.05193
1066.60 0.05191
1066.70 0.05189
1066.80 0.05187
1066.90 0.05185
1067.00 0.05183
1067.10 0.05181
1067.20 0.05179
1067.30 0.05177
1067.40 0.05176
1067.50 0.05174
1067.60 0.05172
1067.70 0.0517
1067.80 0.05168
1067.90 0.05166
1068.00 0.05164
1068.10 0.05162
1068.20 0.0516
1068.30 0.05158
1068.40 0.05156
1068.50 0.05154
1068.60 0.05152
1068.70 0.0515
1068.80 0.05149
1068.90 0.05147
1069.00 0.05145
1069.10 0.05143
1069.20 0.05141
1069.30 0.05139
1069.40 0.05137
1069.50 0.05135
1069.60 0.05133
1069.70 0.05131
1069.80 0.05129
1069.90 0.05127
1070.00 0.05125
1070.10 0.05124
1070.20 0.05122
1070.30 0.0512
1070.40 0.05118
1070.50 0.05116
1070.60 0.05114
1070.70 0.05112
1070.80 0.0511
1070.90 0.05108
1071.00 0.05106
1071.10 0.05104
1071.20 0.05103
1071.30 0.05101
1071.40 0.05099
1071.50 0.05097
1071.60 0.05095
1071.70 0.05093
1071.80 0.05091
1071.90 0.05089
1072.00 0.05087
1072.10 0.05085
1072.20 0.05083
1072.30 0.05082
1072.40 0.0508
1072.50 0.05078
1072.60 0.05076
1072.70 0.05074
1072.80 0.05072
1072.90 0.0507
1073.00 0.05068
1073.10 0.05066
1073.20 0.05064
1073.30 0.05063
1073.40 0.05061
1073.50 0.05059
1073.60 0.05057
1073.70 0.05055
1073.80 0.05053
1073.90 0.05051
1074.00 0.05049
1074.10 0.05047
1074.20 0.05046
1074.30 0.05044
1074.40 0.05042
1074.50 0.0504
1074.60 0.05038
1074.70 0.05036
1074.80 0.05034
1074.90 0.05032
1075.00 0.0503
1075.10 0.05029
1075.20 0.05027
1075.30 0.05025
1075.40 0.05023
1075.50 0.05021
1075.60 0.05019
1075.70 0.05017
1075.80 0.05015
1075.90 0.05013
1076.00 0.05012
1076.10 0.0501
1076.20 0.05008
1076.30 0.05006
1076.40 0.05004
1076.50 0.05002
1076.60 0.05
1076.70 0.04998
1076.80 0.04997
1076.90 0.04995
1077.00 0.04993
1077.10 0.04991
1077.20 0.04989
1077.30 0.04987
1077.40 0.04985
1077.50 0.04984
1077.60 0.04982
1077.70 0.0498
1077.80 0.04978
1077.90 0.04976
1078.00 0.04974
1078.10 0.04972
1078.20 0.0497
1078.30 0.04969
1078.40 0.04967
1078.50 0.04965
1078.60 0.04963
1078.70 0.04961
1078.80 0.04959
1078.90 0.04957
1079.00 0.04956
1079.10 0.04954
1079.20 0.04952
1079.30 0.0495
1079.40 0.04948
1079.50 0.04946
1079.60 0.04944
1079.70 0.04943
1079.80 0.04941
1079.90 0.04939
1080.00 0.04937
1080.10 0.04935
1080.20 0.04933
1080.30 0.04932
1080.40 0.0493
1080.50 0.04928
1080.60 0.04926
1080.70 0.04924
1080.80 0.04922
1080.90 0.0492
1081.00 0.04919
1081.10 0.04917
1081.20 0.04915
1081.30 0.04913
1081.40 0.04911
1081.50 0.04909
1081.60 0.04908
1081.70 0.04906
1081.80 0.04904
1081.90 0.04902
1082.00 0.049
1082.10 0.04898
1082.20 0.04897
1082.30 0.04895
1082.40 0.04893
1082.50 0.04891
1082.60 0.04889
1082.70 0.04887
1082.80 0.04886
1082.90 0.04884
1083.00 0.04882
1083.10 0.0488
1083.20 0.04878
1083.30 0.04877
1083.40 0.04875
1083.50 0.04873
1083.60 0.04871
1083.70 0.04869
1083.80 0.04867
1083.90 0.04866
1084.00 0.04864
1084.10 0.04862
1084.20 0.0486
1084.30 0.04858
1084.40 0.04857
1084.50 0.04855
1084.60 0.04853
1084.70 0.04851
1084.80 0.04849
1084.90 0.04848
1085.00 0.04846
1085.10 0.04844
1085.20 0.04842
1085.30 0.0484
1085.40 0.04839
1085.50 0.04837
1085.60 0.04835
1085.70 0.04833
1085.80 0.04831
1085.90 0.0483
1086.00 0.04828
1086.10 0.04826
1086.20 0.04824
1086.30 0.04823
1086.40 0.04821
1086.50 0.04819
1086.60 0.04817
1086.70 0.04815
1086.80 0.04814
1086.90 0.04812
1087.00 0.0481
1087.10 0.04808
1087.20 0.04807
1087.30 0.04805
1087.40 0.04803
1087.50 0.04801
1087.60 0.048
1087.70 0.04798
1087.80 0.04796
1087.90 0.04794
1088.00 0.04793
1088.10 0.04791
1088.20 0.04789
1088.30 0.04787
1088.40 0.04786
1088.50 0.04784
1088.60 0.04782
1088.70 0.0478
1088.80 0.04779
1088.90 0.04777
1089.00 0.04775
1089.10 0.04774
1089.20 0.04772
1089.30 0.0477
1089.40 0.04768
1089.50 0.04767
1089.60 0.04765
1089.70 0.04763
1089.80 0.04762
1089.90 0.0476
1090.00 0.04758
1090.10 0.04756
1090.20 0.04755
1090.30 0.04753
1090.40 0.04751
1090.50 0.0475
1090.60 0.04748
1090.70 0.04746
1090.80 0.04745
1090.90 0.04743
1091.00 0.04741
1091.10 0.0474
1091.20 0.04738
1091.30 0.04736
1091.40 0.04735
1091.50 0.04733
1091.60 0.04731
1091.70 0.0473
1091.80 0.04728
1091.90 0.04726
1092.00 0.04725
1092.10 0.04723
1092.20 0.04722
1092.30 0.0472
1092.40 0.04718
1092.50 0.04717
1092.60 0.04715
1092.70 0.04714
1092.80 0.04712
1092.90 0.04711
1093.00 0.04709
1093.10 0.04708
1093.20 0.04706
1093.30 0.04705
1093.40 0.04704
1093.50 0.04703
1093.60 0.04702
1093.70 0.04701
1093.80 0.04699
1093.90 0.04697
1094.00 0.04695
1094.10 0.04693
1094.20 0.04691
1094.30 0.04689
1094.40 0.04687
1094.50 0.04685
1094.60 0.04683
1094.70 0.04681
1094.80 0.04679
1094.90 0.04677
1095.00 0.04675
1095.10 0.04674
1095.20 0.04672
1095.30 0.0467
1095.40 0.04668
1095.50 0.04667
1095.60 0.04665
1095.70 0.04663
1095.80 0.04661
1095.90 0.0466
1096.00 0.04658
1096.10 0.04656
1096.20 0.04655
1096.30 0.04653
1096.40 0.04651
1096.50 0.04649
1096.60 0.04648
1096.70 0.04646
1096.80 0.04644
1096.90 0.04643
1097.00 0.04641
1097.10 0.04639
1097.20 0.04638
1097.30 0.04636
1097.40 0.04634
1097.50 0.04633
1097.60 0.04631
1097.70 0.04629
1097.80 0.04628
1097.90 0.04626
1098.00 0.04624
1098.10 0.04623
1098.20 0.04621
1098.30 0.04619
1098.40 0.04618
1098.50 0.04616
1098.60 0.04615
1098.70 0.04613
1098.80 0.04611
1098.90 0.0461
1099.00 0.04608
1099.10 0.04606
1099.20 0.04605
1099.30 0.04603
1099.40 0.04602
1099.50 0.046
1099.60 0.04598
1099.70 0.04597
1099.80 0.04595
1099.90 0.04593
1100.00 0.04592
1100.10 0.0459
1100.20 0.04589
1100.30 0.04587
1100.40 0.04585
1100.50 0.04584
1100.60 0.04582
1100.70 0.04581
1100.80 0.04579
1100.90 0.04577
1101.00 0.04576
1101.10 0.04574
1101.20 0.04573
1101.30 0.04571
1101.40 0.04569
1101.50 0.04568
1101.60 0.04566
1101.70 0.04565
1101.80 0.04563
1101.90 0.04562
1102.00 0.0456
1102.10 0.04558
1102.20 0.04557
1102.30 0.04555
1102.40 0.04554
1102.50 0.04552
1102.60 0.04551
1102.70 0.04549
1102.80 0.04547
1102.90 0.04546
1103.00 0.04544
1103.10 0.04543
1103.20 0.04541
1103.30 0.0454
1103.40 0.04538
1103.50 0.04536
1103.60 0.04535
1103.70 0.04533
1103.80 0.04532
1103.90 0.0453
1104.00 0.04529
1104.10 0.04527
1104.20 0.04526
1104.30 0.04524
1104.40 0.04522
1104.50 0.04521
1104.60 0.04519
1104.70 0.04518
1104.80 0.04516
1104.90 0.04515
1105.00 0.04513
1105.10 0.04512
1105.20 0.0451
1105.30 0.04508
1105.40 0.04507
1105.50 0.04505
1105.60 0.04504
1105.70 0.04502
1105.80 0.04501
1105.90 0.04499
1106.00 0.04498
1106.10 0.04496
1106.20 0.04495
1106.30 0.04493
1106.40 0.04491
1106.50 0.0449
1106.60 0.04488
1106.70 0.04487
1106.80 0.04485
1106.90 0.04484
1107.00 0.04482
1107.10 0.04481
1107.20 0.04479
1107.30 0.04478
1107.40 0.04476
1107.50 0.04475
1107.60 0.04473
1107.70 0.04472
1107.80 0.0447
1107.90 0.04468
1108.00 0.04467
1108.10 0.04465
1108.20 0.04464
1108.30 0.04462
1108.40 0.04461
1108.50 0.04459
1108.60 0.04458
1108.70 0.04456
1108.80 0.04455
1108.90 0.04453
1109.00 0.04452
1109.10 0.0445
1109.20 0.04449
1109.30 0.04447
1109.40 0.04446
1109.50 0.04444
1109.60 0.04443
1109.70 0.04441
1109.80 0.04439
1109.90 0.04438
1110.00 0.04436
1110.10 0.04435
1110.20 0.04433
1110.30 0.04432
1110.40 0.0443
1110.50 0.04429
1110.60 0.04427
1110.70 0.04426
1110.80 0.04424
1110.90 0.04423
1111.00 0.04421
1111.10 0.0442
1111.20 0.04418
1111.30 0.04417
1111.40 0.04415
1111.50 0.04414
1111.60 0.04412
1111.70 0.04411
1111.80 0.04409
1111.90 0.04408
1112.00 0.04406
1112.10 0.04405
1112.20 0.04403
1112.30 0.04402
1112.40 0.044
1112.50 0.04399
1112.60 0.04397
1112.70 0.04396
1112.80 0.04394
1112.90 0.04393
1113.00 0.04391
1113.10 0.0439
1113.20 0.04388
1113.30 0.04387
1113.40 0.04385
1113.50 0.04384
1113.60 0.04382
1113.70 0.04381
1113.80 0.04379
1113.90 0.04378
1114.00 0.04376
1114.10 0.04375
1114.20 0.04373
1114.30 0.04372
1114.40 0.0437
1114.50 0.04369
1114.60 0.04367
1114.70 0.04366
1114.80 0.04364
1114.90 0.04363
1115.00 0.04361
1115.10 0.0436
1115.20 0.04358
1115.30 0.04357
1115.40 0.04355
1115.50 0.04354
1115.60 0.04352
1115.70 0.04351
1115.80 0.04349
1115.90 0.04348
1116.00 0.04346
1116.10 0.04345
1116.20 0.04343
1116.30 0.04342
1116.40 0.0434
1116.50 0.04339
1116.60 0.04337
1116.70 0.04336
1116.80 0.04334
1116.90 0.04333
1117.00 0.04331
1117.10 0.0433
1117.20 0.04328
1117.30 0.04327
1117.40 0.04325
1117.50 0.04324
1117.60 0.04322
1117.70 0.04321
1117.80 0.04319
1117.90 0.04318
1118.00 0.04316
1118.10 0.04315
1118.20 0.04313
1118.30 0.04312
1118.40 0.0431
1118.50 0.04309
1118.60 0.04307
1118.70 0.04306
1118.80 0.04304
1118.90 0.04303
1119.00 0.04301
1119.10 0.043
1119.20 0.04298
1119.30 0.04297
1119.40 0.04296
1119.50 0.04294
1119.60 0.04293
1119.70 0.04291
1119.80 0.0429
1119.90 0.04288
1120.00 0.04287
1120.10 0.04285
1120.20 0.04284
1120.30 0.04282
1120.40 0.04281
1120.50 0.04279
1120.60 0.04278
1120.70 0.04276
1120.80 0.04275
1120.90 0.04273
1121.00 0.04272
1121.10 0.0427
1121.20 0.04269
1121.30 0.04268
1121.40 0.04266
1121.50 0.04265
1121.60 0.04263
1121.70 0.04262
1121.80 0.0426
1121.90 0.04259
1122.00 0.04257
1122.10 0.04256
1122.20 0.04254
1122.30 0.04253
1122.40 0.04251
1122.50 0.0425
1122.60 0.04248
1122.70 0.04247
1122.80 0.04246
1122.90 0.04244
1123.00 0.04243
1123.10 0.04241
1123.20 0.0424
1123.30 0.04238
1123.40 0.04237
1123.50 0.04235
1123.60 0.04234
1123.70 0.04232
1123.80 0.04231
1123.90 0.04229
1124.00 0.04228
1124.10 0.04227
1124.20 0.04225
1124.30 0.04224
1124.40 0.04222
1124.50 0.04221
1124.60 0.04219
1124.70 0.04218
1124.80 0.04216
1124.90 0.04215
1125.00 0.04213
1125.10 0.04212
1125.20 0.04211
1125.30 0.04209
1125.40 0.04208
1125.50 0.04206
1125.60 0.04205
1125.70 0.04203
1125.80 0.04202
1125.90 0.042
1126.00 0.04199
1126.10 0.04198
1126.20 0.04196
1126.30 0.04195
1126.40 0.04193
1126.50 0.04192
1126.60 0.0419
1126.70 0.04189
1126.80 0.04187
1126.90 0.04186
1127.00 0.04185
1127.10 0.04183
1127.20 0.04182
1127.30 0.0418
1127.40 0.04179
1127.50 0.04177
1127.60 0.04176
1127.70 0.04174
1127.80 0.04173
1127.90 0.04172
1128.00 0.0417
1128.10 0.04169
1128.20 0.04167
1128.30 0.04166
1128.40 0.04164
1128.50 0.04163
1128.60 0.04162
1128.70 0.0416
1128.80 0.04159
1128.90 0.04157
1129.00 0.04156
1129.10 0.04154
1129.20 0.04153
1129.30 0.04152
1129.40 0.0415
1129.50 0.04149
1129.60 0.04147
1129.70 0.04146
1129.80 0.04144
1129.90 0.04143
1130.00 0.04142
1130.10 0.0414
1130.20 0.04139
1130.30 0.04137
1130.40 0.04136
1130.50 0.04134
1130.60 0.04133
1130.70 0.04132
1130.80 0.0413
1130.90 0.04129
1131.00 0.04127
1131.10 0.04126
1131.20 0.04124
1131.30 0.04123
1131.40 0.04122
1131.50 0.0412
1131.60 0.04119
1131.70 0.04117
1131.80 0.04116
1131.90 0.04114
1132.00 0.04113
1132.10 0.04112
1132.20 0.0411
1132.30 0.04109
1132.40 0.04107
1132.50 0.04106
1132.60 0.04105
1132.70 0.04103
1132.80 0.04102
1132.90 0.041
1133.00 0.04099
1133.10 0.04098
1133.20 0.04096
1133.30 0.04095
1133.40 0.04093
1133.50 0.04092
1133.60 0.04091
1133.70 0.04089
1133.80 0.04088
1133.90 0.04086
1134.00 0.04085
1134.10 0.04083
1134.20 0.04082
1134.30 0.04081
1134.40 0.04079
1134.50 0.04078
1134.60 0.04076
1134.70 0.04075
1134.80 0.04074
1134.90 0.04072
1135.00 0.04071
1135.10 0.04069
1135.20 0.04068
1135.30 0.04067
1135.40 0.04065
1135.50 0.04064
1135.60 0.04062
1135.70 0.04061
1135.80 0.0406
1135.90 0.04058
1136.00 0.04057
1136.10 0.04056
1136.20 0.04054
1136.30 0.04053
1136.40 0.04051
1136.50 0.0405
1136.60 0.04049
1136.70 0.04047
1136.80 0.04046
1136.90 0.04044
1137.00 0.04043
1137.10 0.04042
1137.20 0.0404
1137.30 0.04039
1137.40 0.04037
1137.50 0.04036
1137.60 0.04035
1137.70 0.04033
1137.80 0.04032
1137.90 0.04031
1138.00 0.04029
1138.10 0.04028
1138.20 0.04026
1138.30 0.04025
1138.40 0.04024
1138.50 0.04022
1138.60 0.04021
1138.70 0.04019
1138.80 0.04018
1138.90 0.04017
1139.00 0.04015
1139.10 0.04014
1139.20 0.04013
1139.30 0.04011
1139.40 0.0401
1139.50 0.04008
1139.60 0.04007
1139.70 0.04006
1139.80 0.04004
1139.90 0.04003
1140.00 0.04002
1140.10 0.04
1140.20 0.03999
1140.30 0.03997
1140.40 0.03996
1140.50 0.03995
1140.60 0.03993
1140.70 0.03992
1140.80 0.03991
1140.90 0.03989
1141.00 0.03988
1141.10 0.03986
1141.20 0.03985
1141.30 0.03984
1141.40 0.03982
1141.50 0.03981
1141.60 0.0398
1141.70 0.03978
1141.80 0.03977
1141.90 0.03976
1142.00 0.03974
1142.10 0.03973
1142.20 0.03971
1142.30 0.0397
1142.40 0.03969
1142.50 0.03967
1142.60 0.03966
1142.70 0.03965
1142.80 0.03963
1142.90 0.03962
1143.00 0.03961
1143.10 0.03959
1143.20 0.03958
1143.30 0.03957
1143.40 0.03955
1143.50 0.03954
1143.60 0.03953
1143.70 0.03951
1143.80 0.0395
1143.90 0.03948
1144.00 0.03947
1144.10 0.03946
1144.20 0.03944
1144.30 0.03943
1144.40 0.03942
1144.50 0.0394
1144.60 0.03939
1144.70 0.03938
1144.80 0.03936
1144.90 0.03935
1145.00 0.03934
1145.10 0.03932
1145.20 0.03931
1145.30 0.0393
1145.40 0.03928
1145.50 0.03927
1145.60 0.03926
1145.70 0.03924
1145.80 0.03923
1145.90 0.03922
1146.00 0.0392
1146.10 0.03919
1146.20 0.03918
1146.30 0.03916
1146.40 0.03915
1146.50 0.03913
1146.60 0.03912
1146.70 0.03911
1146.80 0.03909
1146.90 0.03908
1147.00 0.03907
1147.10 0.03905
1147.20 0.03904
1147.30 0.03903
1147.40 0.03901
1147.50 0.039
1147.60 0.03899
1147.70 0.03897
1147.80 0.03896
1147.90 0.03895
1148.00 0.03894
1148.10 0.03892
1148.20 0.03891
1148.30 0.0389
1148.40 0.03888
1148.50 0.03887
1148.60 0.03886
1148.70 0.03884
1148.80 0.03883
1148.90 0.03882
1149.00 0.0388
1149.10 0.03879
1149.20 0.03878
1149.30 0.03876
1149.40 0.03875
1149.50 0.03874
1149.60 0.03872
1149.70 0.03871
1149.80 0.0387
1149.90 0.03868
1150.00 0.03867
1150.10 0.03866
1150.20 0.03864
1150.30 0.03863
1150.40 0.03862
1150.50 0.0386
1150.60 0.03859
1150.70 0.03858
1150.80 0.03857
1150.90 0.03855
1151.00 0.03854
1151.10 0.03853
1151.20 0.03851
1151.30 0.0385
1151.40 0.03849
1151.50 0.03847
1151.60 0.03846
1151.70 0.03845
1151.80 0.03843
1151.90 0.03842
1152.00 0.03841
1152.10 0.03839
1152.20 0.03838
1152.30 0.03837
1152.40 0.03836
1152.50 0.03834
1152.60 0.03833
1152.70 0.03832
1152.80 0.0383
1152.90 0.03829
1153.00 0.03828
1153.10 0.03826
1153.20 0.03825
1153.30 0.03824
1153.40 0.03823
1153.50 0.03821
1153.60 0.0382
1153.70 0.03819
1153.80 0.03817
1153.90 0.03816
1154.00 0.03815
1154.10 0.03813
1154.20 0.03812
1154.30 0.03811
1154.40 0.0381
1154.50 0.03808
1154.60 0.03807
1154.70 0.03806
1154.80 0.03804
1154.90 0.03803
1155.00 0.03802
1155.10 0.03801
1155.20 0.03799
1155.30 0.03798
1155.40 0.03797
1155.50 0.03795
1155.60 0.03794
1155.70 0.03793
1155.80 0.03792
1155.90 0.0379
1156.00 0.03789
1156.10 0.03788
1156.20 0.03786
1156.30 0.03785
1156.40 0.03784
1156.50 0.03782
1156.60 0.03781
1156.70 0.0378
1156.80 0.03779
1156.90 0.03777
1157.00 0.03776
1157.10 0.03775
1157.20 0.03774
1157.30 0.03772
1157.40 0.03771
1157.50 0.0377
1157.60 0.03768
1157.70 0.03767
1157.80 0.03766
1157.90 0.03765
1158.00 0.03763
1158.10 0.03762
1158.20 0.03761
1158.30 0.0376
1158.40 0.03758
1158.50 0.03757
1158.60 0.03756
1158.70 0.03754
1158.80 0.03753
1158.90 0.03752
1159.00 0.03751
1159.10 0.03749
1159.20 0.03748
1159.30 0.03747
1159.40 0.03746
1159.50 0.03744
1159.60 0.03743
1159.70 0.03742
1159.80 0.0374
1159.90 0.03739
1160.00 0.03738
1160.10 0.03737
1160.20 0.03735
1160.30 0.03734
1160.40 0.03733
1160.50 0.03732
1160.60 0.0373
1160.70 0.03729
1160.80 0.03728
1160.90 0.03727
1161.00 0.03725
1161.10 0.03724
1161.20 0.03723
1161.30 0.03722
1161.40 0.0372
1161.50 0.03719
1161.60 0.03718
1161.70 0.03716
1161.80 0.03715
1161.90 0.03714
1162.00 0.03713
1162.10 0.03711
1162.20 0.0371
1162.30 0.03709
1162.40 0.03708
1162.50 0.03706
1162.60 0.03705
1162.70 0.03704
1162.80 0.03703
1162.90 0.03701
1163.00 0.037
1163.10 0.03699
1163.20 0.03698
1163.30 0.03696
1163.40 0.03695
1163.50 0.03694
1163.60 0.03693
1163.70 0.03692
1163.80 0.0369
1163.90 0.03689
1164.00 0.03688
1164.10 0.03687
1164.20 0.03685
1164.30 0.03684
1164.40 0.03683
1164.50 0.03682
1164.60 0.0368
1164.70 0.03679
1164.80 0.03678
1164.90 0.03677
1165.00 0.03675
1165.10 0.03674
1165.20 0.03673
1165.30 0.03672
1165.40 0.0367
1165.50 0.03669
1165.60 0.03668
1165.70 0.03667
1165.80 0.03665
1165.90 0.03664
1166.00 0.03663
1166.10 0.03662
1166.20 0.03661
1166.30 0.03659
1166.40 0.03658
1166.50 0.03657
1166.60 0.03656
1166.70 0.03654
1166.80 0.03653
1166.90 0.03652
1167.00 0.03651
1167.10 0.03649
1167.20 0.03648
1167.30 0.03647
1167.40 0.03646
1167.50 0.03645
1167.60 0.03643
1167.70 0.03642
1167.80 0.03641
1167.90 0.0364
1168.00 0.03638
1168.10 0.03637
1168.20 0.03636
1168.30 0.03635
1168.40 0.03634
1168.50 0.03632
1168.60 0.03631
1168.70 0.0363
1168.80 0.03629
1168.90 0.03627
1169.00 0.03626
1169.10 0.03625
1169.20 0.03624
1169.30 0.03623
1169.40 0.03621
1169.50 0.0362
1169.60 0.03619
1169.70 0.03618
1169.80 0.03616
1169.90 0.03615
1170.00 0.03614
1170.10 0.03613
1170.20 0.03612
1170.30 0.0361
1170.40 0.03609
1170.50 0.03608
1170.60 0.03607
1170.70 0.03606
1170.80 0.03604
1170.90 0.03603
1171.00 0.03602
1171.10 0.03601
1171.20 0.036
1171.30 0.03598
1171.40 0.03597
1171.50 0.03596
1171.60 0.03595
1171.70 0.03593
1171.80 0.03592
1171.90 0.03591
1172.00 0.0359
1172.10 0.03589
1172.20 0.03587
1172.30 0.03586
1172.40 0.03585
1172.50 0.03584
1172.60 0.03583
1172.70 0.03581
1172.80 0.0358
1172.90 0.03579
1173.00 0.03578
1173.10 0.03577
1173.20 0.03575
1173.30 0.03574
1173.40 0.03573
1173.50 0.03572
1173.60 0.03571
1173.70 0.03569
1173.80 0.03568
1173.90 0.03567
1174.00 0.03566
1174.10 0.03565
1174.20 0.03564
1174.30 0.03562
1174.40 0.03561
1174.50 0.0356
1174.60 0.03559
1174.70 0.03558
1174.80 0.03556
1174.90 0.03555
1175.00 0.03554
1175.10 0.03553
1175.20 0.03552
1175.30 0.0355
1175.40 0.03549
1175.50 0.03548
1175.60 0.03547
1175.70 0.03546
1175.80 0.03544
1175.90 0.03543
1176.00 0.03542
1176.10 0.03541
1176.20 0.0354
1176.30 0.03539
1176.40 0.03537
1176.50 0.03536
1176.60 0.03535
1176.70 0.03534
1176.80 0.03533
1176.90 0.03531
1177.00 0.0353
1177.10 0.03529
1177.20 0.03528
1177.30 0.03527
1177.40 0.03526
1177.50 0.03524
1177.60 0.03523
1177.70 0.03522
1177.80 0.03521
1177.90 0.0352
1178.00 0.03519
1178.10 0.03517
1178.20 0.03516
1178.30 0.03515
1178.40 0.03514
1178.50 0.03513
1178.60 0.03512
1178.70 0.0351
1178.80 0.03509
1178.90 0.03508
1179.00 0.03507
1179.10 0.03506
1179.20 0.03505
1179.30 0.03503
1179.40 0.03502
1179.50 0.03501
1179.60 0.035
1179.70 0.03499
1179.80 0.03498
1179.90 0.03496
1180.00 0.03495
1180.10 0.03494
1180.20 0.03493
1180.30 0.03492
1180.40 0.03491
1180.50 0.03489
1180.60 0.03488
1180.70 0.03487
1180.80 0.03486
1180.90 0.03485
1181.00 0.03484
1181.10 0.03482
1181.20 0.03481
1181.30 0.0348
1181.40 0.03479
1181.50 0.03478
1181.60 0.03477
1181.70 0.03475
1181.80 0.03474
1181.90 0.03473
1182.00 0.03472
1182.10 0.03471
1182.20 0.0347
1182.30 0.03469
1182.40 0.03467
1182.50 0.03466
1182.60 0.03465
1182.70 0.03464
1182.80 0.03463
1182.90 0.03462
1183.00 0.0346
1183.10 0.03459
1183.20 0.03458
1183.30 0.03457
1183.40 0.03456
1183.50 0.03455
1183.60 0.03454
1183.70 0.03452
1183.80 0.03451
1183.90 0.0345
1184.00 0.03449
1184.10 0.03448
1184.20 0.03447
1184.30 0.03446
1184.40 0.03444
1184.50 0.03443
1184.60 0.03442
1184.70 0.03441
1184.80 0.0344
1184.90 0.03439
1185.00 0.03438
1185.10 0.03436
1185.20 0.03435
1185.30 0.03434
1185.40 0.03433
1185.50 0.03432
1185.60 0.03431
1185.70 0.0343
1185.80 0.03428
1185.90 0.03427
1186.00 0.03426
1186.10 0.03425
1186.20 0.03424
1186.30 0.03423
1186.40 0.03422
1186.50 0.03421
1186.60 0.03419
1186.70 0.03418
1186.80 0.03417
1186.90 0.03416
1187.00 0.03415
1187.10 0.03414
1187.20 0.03413
1187.30 0.03411
1187.40 0.0341
1187.50 0.03409
1187.60 0.03408
1187.70 0.03407
1187.80 0.03406
1187.90 0.03405
1188.00 0.03404
1188.10 0.03402
1188.20 0.03401
1188.30 0.034
1188.40 0.03399
1188.50 0.03398
1188.60 0.03397
1188.70 0.03396
1188.80 0.03395
1188.90 0.03393
1189.00 0.03392
1189.10 0.03391
1189.20 0.0339
1189.30 0.03389
1189.40 0.03388
1189.50 0.03387
1189.60 0.03386
1189.70 0.03384
1189.80 0.03383
1189.90 0.03382
1190.00 0.03381
1190.10 0.0338
1190.20 0.03379
1190.30 0.03378
1190.40 0.03377
1190.50 0.03376
1190.60 0.03374
1190.70 0.03373
1190.80 0.03372
1190.90 0.03371
1191.00 0.0337
1191.10 0.03369
1191.20 0.03368
1191.30 0.03367
1191.40 0.03366
1191.50 0.03364
1191.60 0.03363
1191.70 0.03362
1191.80 0.03361
1191.90 0.0336
1192.00 0.03359
1192.10 0.03358
1192.20 0.03357
1192.30 0.03356
1192.40 0.03354
1192.50 0.03353
1192.60 0.03352
1192.70 0.03351
1192.80 0.0335
1192.90 0.03349
1193.00 0.03348
1193.10 0.03347
1193.20 0.03346
1193.30 0.03345
1193.40 0.03343
1193.50 0.03342
1193.60 0.03341
1193.70 0.0334
1193.80 0.03339
1193.90 0.03338
1194.00 0.03337
1194.10 0.03336
1194.20 0.03335
1194.30 0.03334
1194.40 0.03332
1194.50 0.03331
1194.60 0.0333
1194.70 0.03329
1194.80 0.03328
1194.90 0.03327
1195.00 0.03326
1195.10 0.03325
1195.20 0.03324
1195.30 0.03323
1195.40 0.03321
1195.50 0.0332
1195.60 0.03319
1195.70 0.03318
1195.80 0.03317
1195.90 0.03316
1196.00 0.03315
1196.10 0.03314
1196.20 0.03313
1196.30 0.03312
1196.40 0.03311
1196.50 0.03309
1196.60 0.03308
1196.70 0.03307
1196.80 0.03306
1196.90 0.03305
1197.00 0.03304
1197.10 0.03303
1197.20 0.03302
1197.30 0.03301
1197.40 0.033
1197.50 0.03299
1197.60 0.03298
1197.70 0.03296
1197.80 0.03295
1197.90 0.03294
1198.00 0.03293
1198.10 0.03292
1198.20 0.03291
1198.30 0.0329
1198.40 0.03289
1198.50 0.03288
1198.60 0.03287
1198.70 0.03286
1198.80 0.03285
1198.90 0.03283
1199.00 0.03282
1199.10 0.03281
1199.20 0.0328
1199.30 0.03279
1199.40 0.03278
1199.50 0.03277
1199.60 0.03276
1199.70 0.03275
1199.80 0.03274
1199.90 0.03273
1200.00 0
