# Version 2.1 - nm, norm@500 to 1, cut digits, bergeron_65000_80.dat_65000
# Wavelength(nm)  Flambda(ergs/cm^s/s/nm)
300.00 6.483
300.10 6.475
300.20 6.467
300.30 6.459
300.40 6.451
300.50 6.443
300.60 6.435
300.70 6.427
300.80 6.42
300.90 6.412
301.00 6.404
301.10 6.396
301.20 6.388
301.30 6.38
301.40 6.373
301.50 6.365
301.60 6.357
301.70 6.349
301.80 6.341
301.90 6.334
302.00 6.326
302.10 6.318
302.20 6.311
302.30 6.303
302.40 6.295
302.50 6.288
302.60 6.28
302.70 6.272
302.80 6.265
302.90 6.257
303.00 6.249
303.10 6.242
303.20 6.234
303.30 6.227
303.40 6.219
303.50 6.211
303.60 6.204
303.70 6.196
303.80 6.189
303.90 6.181
304.00 6.174
304.10 6.166
304.20 6.159
304.30 6.151
304.40 6.144
304.50 6.137
304.60 6.129
304.70 6.122
304.80 6.114
304.90 6.107
305.00 6.1
305.10 6.092
305.20 6.085
305.30 6.077
305.40 6.07
305.50 6.063
305.60 6.055
305.70 6.048
305.80 6.041
305.90 6.034
306.00 6.026
306.10 6.019
306.20 6.012
306.30 6.005
306.40 5.997
306.50 5.99
306.60 5.983
306.70 5.976
306.80 5.969
306.90 5.961
307.00 5.954
307.10 5.947
307.20 5.94
307.30 5.933
307.40 5.926
307.50 5.919
307.60 5.911
307.70 5.904
307.80 5.897
307.90 5.89
308.00 5.883
308.10 5.876
308.20 5.869
308.30 5.862
308.40 5.855
308.50 5.848
308.60 5.841
308.70 5.834
308.80 5.827
308.90 5.82
309.00 5.813
309.10 5.806
309.20 5.799
309.30 5.792
309.40 5.785
309.50 5.779
309.60 5.772
309.70 5.765
309.80 5.758
309.90 5.751
310.00 5.744
310.10 5.737
310.20 5.731
310.30 5.724
310.40 5.717
310.50 5.71
310.60 5.703
310.70 5.697
310.80 5.69
310.90 5.683
311.00 5.676
311.10 5.67
311.20 5.663
311.30 5.656
311.40 5.649
311.50 5.643
311.60 5.636
311.70 5.629
311.80 5.623
311.90 5.616
312.00 5.609
312.10 5.603
312.20 5.596
312.30 5.59
312.40 5.583
312.50 5.576
312.60 5.57
312.70 5.563
312.80 5.557
312.90 5.55
313.00 5.543
313.10 5.537
313.20 5.53
313.30 5.524
313.40 5.517
313.50 5.511
313.60 5.504
313.70 5.498
313.80 5.491
313.90 5.485
314.00 5.478
314.10 5.472
314.20 5.466
314.30 5.459
314.40 5.453
314.50 5.446
314.60 5.44
314.70 5.434
314.80 5.427
314.90 5.421
315.00 5.414
315.10 5.408
315.20 5.402
315.30 5.395
315.40 5.389
315.50 5.383
315.60 5.377
315.70 5.37
315.80 5.364
315.90 5.358
316.00 5.351
316.10 5.345
316.20 5.339
316.30 5.333
316.40 5.326
316.50 5.32
316.60 5.314
316.70 5.308
316.80 5.302
316.90 5.295
317.00 5.289
317.10 5.283
317.20 5.277
317.30 5.271
317.40 5.265
317.50 5.259
317.60 5.252
317.70 5.246
317.80 5.24
317.90 5.234
318.00 5.228
318.10 5.222
318.20 5.216
318.30 5.21
318.40 5.204
318.50 5.198
318.60 5.192
318.70 5.186
318.80 5.18
318.90 5.174
319.00 5.168
319.10 5.162
319.20 5.156
319.30 5.15
319.40 5.144
319.50 5.138
319.60 5.132
319.70 5.126
319.80 5.12
319.90 5.114
320.00 5.108
320.10 5.102
320.20 5.096
320.30 5.09
320.40 5.085
320.50 5.079
320.60 5.073
320.70 5.067
320.80 5.061
320.90 5.055
321.00 5.049
321.10 5.044
321.20 5.038
321.30 5.032
321.40 5.026
321.50 5.02
321.60 5.015
321.70 5.009
321.80 5.003
321.90 4.997
322.00 4.992
322.10 4.986
322.20 4.98
322.30 4.974
322.40 4.969
322.50 4.963
322.60 4.957
322.70 4.952
322.80 4.946
322.90 4.94
323.00 4.935
323.10 4.929
323.20 4.923
323.30 4.918
323.40 4.912
323.50 4.907
323.60 4.901
323.70 4.895
323.80 4.89
323.90 4.884
324.00 4.879
324.10 4.873
324.20 4.867
324.30 4.862
324.40 4.856
324.50 4.851
324.60 4.845
324.70 4.84
324.80 4.834
324.90 4.829
325.00 4.823
325.10 4.818
325.20 4.812
325.30 4.807
325.40 4.801
325.50 4.796
325.60 4.79
325.70 4.785
325.80 4.779
325.90 4.774
326.00 4.769
326.10 4.763
326.20 4.758
326.30 4.752
326.40 4.747
326.50 4.742
326.60 4.736
326.70 4.731
326.80 4.726
326.90 4.72
327.00 4.715
327.10 4.709
327.20 4.704
327.30 4.699
327.40 4.694
327.50 4.688
327.60 4.683
327.70 4.678
327.80 4.672
327.90 4.667
328.00 4.662
328.10 4.657
328.20 4.651
328.30 4.646
328.40 4.641
328.50 4.636
328.60 4.63
328.70 4.625
328.80 4.62
328.90 4.615
329.00 4.609
329.10 4.604
329.20 4.599
329.30 4.594
329.40 4.589
329.50 4.584
329.60 4.578
329.70 4.573
329.80 4.568
329.90 4.563
330.00 4.558
330.10 4.553
330.20 4.548
330.30 4.543
330.40 4.538
330.50 4.532
330.60 4.527
330.70 4.522
330.80 4.517
330.90 4.512
331.00 4.507
331.10 4.502
331.20 4.497
331.30 4.492
331.40 4.487
331.50 4.482
331.60 4.477
331.70 4.472
331.80 4.467
331.90 4.462
332.00 4.457
332.10 4.452
332.20 4.447
332.30 4.442
332.40 4.437
332.50 4.432
332.60 4.427
332.70 4.422
332.80 4.417
332.90 4.413
333.00 4.408
333.10 4.403
333.20 4.398
333.30 4.393
333.40 4.388
333.50 4.383
333.60 4.378
333.70 4.373
333.80 4.369
333.90 4.364
334.00 4.359
334.10 4.354
334.20 4.349
334.30 4.344
334.40 4.34
334.50 4.335
334.60 4.33
334.70 4.325
334.80 4.32
334.90 4.316
335.00 4.311
335.10 4.306
335.20 4.301
335.30 4.296
335.40 4.292
335.50 4.287
335.60 4.282
335.70 4.277
335.80 4.273
335.90 4.268
336.00 4.263
336.10 4.259
336.20 4.254
336.30 4.249
336.40 4.245
336.50 4.24
336.60 4.235
336.70 4.231
336.80 4.226
336.90 4.221
337.00 4.217
337.10 4.212
337.20 4.207
337.30 4.203
337.40 4.198
337.50 4.193
337.60 4.189
337.70 4.184
337.80 4.18
337.90 4.175
338.00 4.17
338.10 4.166
338.20 4.161
338.30 4.157
338.40 4.152
338.50 4.148
338.60 4.143
338.70 4.139
338.80 4.134
338.90 4.13
339.00 4.125
339.10 4.121
339.20 4.116
339.30 4.111
339.40 4.107
339.50 4.102
339.60 4.098
339.70 4.094
339.80 4.089
339.90 4.085
340.00 4.08
340.10 4.076
340.20 4.071
340.30 4.067
340.40 4.062
340.50 4.058
340.60 4.054
340.70 4.049
340.80 4.045
340.90 4.04
341.00 4.036
341.10 4.031
341.20 4.027
341.30 4.023
341.40 4.018
341.50 4.014
341.60 4.01
341.70 4.005
341.80 4.001
341.90 3.997
342.00 3.992
342.10 3.988
342.20 3.984
342.30 3.979
342.40 3.975
342.50 3.971
342.60 3.966
342.70 3.962
342.80 3.958
342.90 3.953
343.00 3.949
343.10 3.945
343.20 3.941
343.30 3.936
343.40 3.932
343.50 3.928
343.60 3.924
343.70 3.919
343.80 3.915
343.90 3.911
344.00 3.907
344.10 3.902
344.20 3.898
344.30 3.894
344.40 3.89
344.50 3.886
344.60 3.881
344.70 3.877
344.80 3.873
344.90 3.869
345.00 3.865
345.10 3.861
345.20 3.856
345.30 3.852
345.40 3.848
345.50 3.844
345.60 3.84
345.70 3.836
345.80 3.832
345.90 3.827
346.00 3.823
346.10 3.819
346.20 3.815
346.30 3.811
346.40 3.807
346.50 3.803
346.60 3.799
346.70 3.795
346.80 3.791
346.90 3.787
347.00 3.783
347.10 3.779
347.20 3.775
347.30 3.771
347.40 3.766
347.50 3.762
347.60 3.758
347.70 3.754
347.80 3.75
347.90 3.746
348.00 3.742
348.10 3.738
348.20 3.734
348.30 3.73
348.40 3.726
348.50 3.722
348.60 3.718
348.70 3.715
348.80 3.711
348.90 3.707
349.00 3.703
349.10 3.699
349.20 3.695
349.30 3.691
349.40 3.687
349.50 3.683
349.60 3.679
349.70 3.675
349.80 3.671
349.90 3.667
350.00 3.663
350.10 3.66
350.20 3.656
350.30 3.652
350.40 3.648
350.50 3.644
350.60 3.64
350.70 3.636
350.80 3.633
350.90 3.629
351.00 3.625
351.10 3.621
351.20 3.617
351.30 3.613
351.40 3.609
351.50 3.606
351.60 3.602
351.70 3.598
351.80 3.594
351.90 3.59
352.00 3.587
352.10 3.583
352.20 3.579
352.30 3.575
352.40 3.572
352.50 3.568
352.60 3.564
352.70 3.56
352.80 3.556
352.90 3.553
353.00 3.549
353.10 3.545
353.20 3.542
353.30 3.538
353.40 3.534
353.50 3.53
353.60 3.527
353.70 3.523
353.80 3.519
353.90 3.515
354.00 3.512
354.10 3.508
354.20 3.504
354.30 3.501
354.40 3.497
354.50 3.493
354.60 3.49
354.70 3.486
354.80 3.482
354.90 3.479
355.00 3.475
355.10 3.472
355.20 3.468
355.30 3.464
355.40 3.461
355.50 3.457
355.60 3.453
355.70 3.45
355.80 3.446
355.90 3.443
356.00 3.439
356.10 3.435
356.20 3.432
356.30 3.428
356.40 3.425
356.50 3.421
356.60 3.417
356.70 3.414
356.80 3.41
356.90 3.407
357.00 3.403
357.10 3.4
357.20 3.396
357.30 3.393
357.40 3.389
357.50 3.386
357.60 3.382
357.70 3.378
357.80 3.375
357.90 3.371
358.00 3.368
358.10 3.364
358.20 3.361
358.30 3.357
358.40 3.354
358.50 3.35
358.60 3.347
358.70 3.344
358.80 3.34
358.90 3.337
359.00 3.333
359.10 3.33
359.20 3.326
359.30 3.323
359.40 3.319
359.50 3.316
359.60 3.312
359.70 3.309
359.80 3.306
359.90 3.302
360.00 3.299
360.10 3.295
360.20 3.292
360.30 3.289
360.40 3.285
360.50 3.282
360.60 3.278
360.70 3.275
360.80 3.272
360.90 3.268
361.00 3.265
361.10 3.262
361.20 3.258
361.30 3.255
361.40 3.251
361.50 3.248
361.60 3.245
361.70 3.241
361.80 3.238
361.90 3.235
362.00 3.231
362.10 3.228
362.20 3.225
362.30 3.221
362.40 3.218
362.50 3.215
362.60 3.212
362.70 3.208
362.80 3.205
362.90 3.202
363.00 3.198
363.10 3.195
363.20 3.192
363.30 3.189
363.40 3.185
363.50 3.182
363.60 3.179
363.70 3.175
363.80 3.172
363.90 3.169
364.00 3.166
364.10 3.162
364.20 3.159
364.30 3.156
364.40 3.153
364.50 3.15
364.60 3.146
364.70 3.143
364.80 3.14
364.90 3.137
365.00 3.134
365.10 3.13
365.20 3.127
365.30 3.124
365.40 3.121
365.50 3.118
365.60 3.114
365.70 3.111
365.80 3.108
365.90 3.105
366.00 3.102
366.10 3.098
366.20 3.095
366.30 3.092
366.40 3.089
366.50 3.086
366.60 3.082
366.70 3.079
366.80 3.076
366.90 3.073
367.00 3.07
367.10 3.066
367.20 3.063
367.30 3.06
367.40 3.057
367.50 3.054
367.60 3.051
367.70 3.047
367.80 3.044
367.90 3.041
368.00 3.038
368.10 3.035
368.20 3.032
368.30 3.028
368.40 3.025
368.50 3.022
368.60 3.019
368.70 3.016
368.80 3.013
368.90 3.01
369.00 3.006
369.10 3.003
369.20 3
369.30 2.997
369.40 2.994
369.50 2.991
369.60 2.988
369.70 2.985
369.80 2.981
369.90 2.978
370.00 2.975
370.10 2.972
370.20 2.969
370.30 2.966
370.40 2.963
370.50 2.96
370.60 2.957
370.70 2.954
370.80 2.951
370.90 2.948
371.00 2.945
371.10 2.942
371.20 2.939
371.30 2.936
371.40 2.933
371.50 2.929
371.60 2.926
371.70 2.923
371.80 2.92
371.90 2.917
372.00 2.914
372.10 2.911
372.20 2.909
372.30 2.906
372.40 2.903
372.50 2.9
372.60 2.897
372.70 2.894
372.80 2.891
372.90 2.888
373.00 2.885
373.10 2.882
373.20 2.879
373.30 2.876
373.40 2.873
373.50 2.87
373.60 2.867
373.70 2.865
373.80 2.862
373.90 2.859
374.00 2.856
374.10 2.853
374.20 2.85
374.30 2.847
374.40 2.844
374.50 2.841
374.60 2.839
374.70 2.836
374.80 2.833
374.90 2.83
375.00 2.827
375.10 2.824
375.20 2.821
375.30 2.819
375.40 2.816
375.50 2.813
375.60 2.81
375.70 2.807
375.80 2.804
375.90 2.801
376.00 2.799
376.10 2.796
376.20 2.793
376.30 2.79
376.40 2.788
376.50 2.785
376.60 2.782
376.70 2.779
376.80 2.776
376.90 2.774
377.00 2.771
377.10 2.768
377.20 2.766
377.30 2.763
377.40 2.76
377.50 2.757
377.60 2.755
377.70 2.752
377.80 2.749
377.90 2.747
378.00 2.744
378.10 2.741
378.20 2.739
378.30 2.736
378.40 2.733
378.50 2.731
378.60 2.728
378.70 2.726
378.80 2.723
378.90 2.72
379.00 2.718
379.10 2.715
379.20 2.712
379.30 2.71
379.40 2.707
379.50 2.705
379.60 2.702
379.70 2.7
379.80 2.697
379.90 2.695
380.00 2.692
380.10 2.69
380.20 2.687
380.30 2.685
380.40 2.682
380.50 2.68
380.60 2.677
380.70 2.675
380.80 2.672
380.90 2.67
381.00 2.667
381.10 2.665
381.20 2.663
381.30 2.66
381.40 2.658
381.50 2.655
381.60 2.653
381.70 2.65
381.80 2.648
381.90 2.645
382.00 2.642
382.10 2.64
382.20 2.637
382.30 2.635
382.40 2.632
382.50 2.629
382.60 2.627
382.70 2.624
382.80 2.622
382.90 2.619
383.00 2.616
383.10 2.614
383.20 2.611
383.30 2.609
383.40 2.606
383.50 2.604
383.60 2.602
383.70 2.6
383.80 2.597
383.90 2.595
384.00 2.593
384.10 2.591
384.20 2.589
384.30 2.587
384.40 2.585
384.50 2.583
384.60 2.581
384.70 2.579
384.80 2.577
384.90 2.575
385.00 2.573
385.10 2.571
385.20 2.569
385.30 2.566
385.40 2.564
385.50 2.562
385.60 2.56
385.70 2.557
385.80 2.555
385.90 2.552
386.00 2.55
386.10 2.547
386.20 2.545
386.30 2.542
386.40 2.539
386.50 2.537
386.60 2.534
386.70 2.531
386.80 2.528
386.90 2.526
387.00 2.523
387.10 2.52
387.20 2.517
387.30 2.514
387.40 2.511
387.50 2.507
387.60 2.504
387.70 2.501
387.80 2.498
387.90 2.495
388.00 2.492
388.10 2.489
388.20 2.485
388.30 2.482
388.40 2.479
388.50 2.477
388.60 2.474
388.70 2.471
388.80 2.469
388.90 2.467
389.00 2.465
389.10 2.463
389.20 2.461
389.30 2.46
389.40 2.459
389.50 2.458
389.60 2.457
389.70 2.456
389.80 2.455
389.90 2.454
390.00 2.453
390.10 2.452
390.20 2.451
390.30 2.45
390.40 2.449
390.50 2.448
390.60 2.447
390.70 2.446
390.80 2.445
390.90 2.443
391.00 2.442
391.10 2.441
391.20 2.439
391.30 2.438
391.40 2.436
391.50 2.434
391.60 2.433
391.70 2.431
391.80 2.429
391.90 2.427
392.00 2.425
392.10 2.423
392.20 2.421
392.30 2.419
392.40 2.417
392.50 2.414
392.60 2.412
392.70 2.41
392.80 2.407
392.90 2.404
393.00 2.402
393.10 2.399
393.20 2.396
393.30 2.393
393.40 2.39
393.50 2.387
393.60 2.384
393.70 2.381
393.80 2.377
393.90 2.374
394.00 2.37
394.10 2.367
394.20 2.363
394.30 2.359
394.40 2.355
394.50 2.351
394.60 2.347
394.70 2.343
394.80 2.339
394.90 2.335
395.00 2.33
395.10 2.326
395.20 2.321
395.30 2.316
395.40 2.312
395.50 2.307
395.60 2.302
395.70 2.297
395.80 2.292
395.90 2.287
396.00 2.282
396.10 2.276
396.20 2.271
396.30 2.266
396.40 2.261
396.50 2.256
396.60 2.251
396.70 2.246
396.80 2.241
396.90 2.237
397.00 2.233
397.10 2.233
397.20 2.233
397.30 2.234
397.40 2.235
397.50 2.237
397.60 2.238
397.70 2.239
397.80 2.241
397.90 2.242
398.00 2.243
398.10 2.245
398.20 2.246
398.30 2.247
398.40 2.248
398.50 2.249
398.60 2.25
398.70 2.251
398.80 2.252
398.90 2.253
399.00 2.254
399.10 2.254
399.20 2.255
399.30 2.255
399.40 2.256
399.50 2.256
399.60 2.256
399.70 2.256
399.80 2.257
399.90 2.256
400.00 2.256
400.10 2.256
400.20 2.256
400.30 2.256
400.40 2.255
400.50 2.255
400.60 2.254
400.70 2.254
400.80 2.253
400.90 2.252
401.00 2.251
401.10 2.25
401.20 2.25
401.30 2.249
401.40 2.247
401.50 2.246
401.60 2.245
401.70 2.244
401.80 2.243
401.90 2.241
402.00 2.24
402.10 2.238
402.20 2.237
402.30 2.235
402.40 2.234
402.50 2.232
402.60 2.23
402.70 2.229
402.80 2.227
402.90 2.225
403.00 2.223
403.10 2.221
403.20 2.219
403.30 2.217
403.40 2.215
403.50 2.213
403.60 2.211
403.70 2.208
403.80 2.206
403.90 2.204
404.00 2.201
404.10 2.199
404.20 2.196
404.30 2.194
404.40 2.191
404.50 2.189
404.60 2.186
404.70 2.183
404.80 2.18
404.90 2.177
405.00 2.174
405.10 2.171
405.20 2.168
405.30 2.165
405.40 2.162
405.50 2.158
405.60 2.155
405.70 2.151
405.80 2.148
405.90 2.144
406.00 2.141
406.10 2.137
406.20 2.133
406.30 2.129
406.40 2.125
406.50 2.12
406.60 2.116
406.70 2.112
406.80 2.107
406.90 2.103
407.00 2.098
407.10 2.093
407.20 2.088
407.30 2.083
407.40 2.077
407.50 2.072
407.60 2.067
407.70 2.061
407.80 2.055
407.90 2.049
408.00 2.043
408.10 2.037
408.20 2.03
408.30 2.024
408.40 2.017
408.50 2.01
408.60 2.003
408.70 1.996
408.80 1.989
408.90 1.981
409.00 1.974
409.10 1.966
409.20 1.958
409.30 1.95
409.40 1.943
409.50 1.935
409.60 1.927
409.70 1.92
409.80 1.914
409.90 1.909
410.00 1.907
410.10 1.906
410.20 1.907
410.30 1.902
410.40 1.9
410.50 1.9
410.60 1.903
410.70 1.907
410.80 1.911
410.90 1.915
411.00 1.919
411.10 1.924
411.20 1.928
411.30 1.932
411.40 1.936
411.50 1.94
411.60 1.944
411.70 1.948
411.80 1.951
411.90 1.955
412.00 1.958
412.10 1.961
412.20 1.964
412.30 1.966
412.40 1.969
412.50 1.971
412.60 1.974
412.70 1.976
412.80 1.978
412.90 1.979
413.00 1.981
413.10 1.983
413.20 1.984
413.30 1.985
413.40 1.986
413.50 1.987
413.60 1.988
413.70 1.989
413.80 1.99
413.90 1.99
414.00 1.991
414.10 1.991
414.20 1.992
414.30 1.992
414.40 1.992
414.50 1.992
414.60 1.992
414.70 1.992
414.80 1.992
414.90 1.992
415.00 1.991
415.10 1.991
415.20 1.99
415.30 1.99
415.40 1.989
415.50 1.989
415.60 1.988
415.70 1.988
415.80 1.987
415.90 1.986
416.00 1.985
416.10 1.984
416.20 1.984
416.30 1.983
416.40 1.982
416.50 1.981
416.60 1.98
416.70 1.979
416.80 1.978
416.90 1.977
417.00 1.975
417.10 1.974
417.20 1.973
417.30 1.972
417.40 1.971
417.50 1.969
417.60 1.968
417.70 1.967
417.80 1.965
417.90 1.964
418.00 1.963
418.10 1.961
418.20 1.96
418.30 1.959
418.40 1.957
418.50 1.956
418.60 1.954
418.70 1.953
418.80 1.952
418.90 1.95
419.00 1.949
419.10 1.947
419.20 1.946
419.30 1.944
419.40 1.943
419.50 1.941
419.60 1.94
419.70 1.938
419.80 1.936
419.90 1.935
420.00 1.933
420.10 1.932
420.20 1.93
420.30 1.929
420.40 1.927
420.50 1.925
420.60 1.924
420.70 1.922
420.80 1.92
420.90 1.919
421.00 1.917
421.10 1.916
421.20 1.914
421.30 1.912
421.40 1.911
421.50 1.909
421.60 1.907
421.70 1.905
421.80 1.904
421.90 1.902
422.00 1.9
422.10 1.899
422.20 1.897
422.30 1.895
422.40 1.894
422.50 1.892
422.60 1.89
422.70 1.888
422.80 1.887
422.90 1.885
423.00 1.883
423.10 1.881
423.20 1.88
423.30 1.878
423.40 1.876
423.50 1.874
423.60 1.872
423.70 1.871
423.80 1.869
423.90 1.867
424.00 1.865
424.10 1.863
424.20 1.862
424.30 1.86
424.40 1.858
424.50 1.856
424.60 1.854
424.70 1.852
424.80 1.85
424.90 1.849
425.00 1.847
425.10 1.845
425.20 1.843
425.30 1.841
425.40 1.839
425.50 1.837
425.60 1.835
425.70 1.833
425.80 1.831
425.90 1.829
426.00 1.827
426.10 1.825
426.20 1.823
426.30 1.821
426.40 1.819
426.50 1.817
426.60 1.815
426.70 1.813
426.80 1.81
426.90 1.808
427.00 1.806
427.10 1.804
427.20 1.802
427.30 1.799
427.40 1.797
427.50 1.795
427.60 1.792
427.70 1.79
427.80 1.788
427.90 1.785
428.00 1.783
428.10 1.78
428.20 1.778
428.30 1.775
428.40 1.772
428.50 1.77
428.60 1.767
428.70 1.764
428.80 1.761
428.90 1.759
429.00 1.756
429.10 1.753
429.20 1.75
429.30 1.746
429.40 1.743
429.50 1.74
429.60 1.737
429.70 1.733
429.80 1.73
429.90 1.726
430.00 1.723
430.10 1.719
430.20 1.715
430.30 1.711
430.40 1.707
430.50 1.703
430.60 1.699
430.70 1.694
430.80 1.69
430.90 1.685
431.00 1.68
431.10 1.675
431.20 1.67
431.30 1.665
431.40 1.659
431.50 1.654
431.60 1.648
431.70 1.642
431.80 1.636
431.90 1.63
432.00 1.624
432.10 1.617
432.20 1.61
432.30 1.603
432.40 1.596
432.50 1.589
432.60 1.581
432.70 1.574
432.80 1.566
432.90 1.558
433.00 1.55
433.10 1.541
433.20 1.533
433.30 1.525
433.40 1.517
433.50 1.509
433.60 1.501
433.70 1.494
433.80 1.487
433.90 1.479
434.00 1.473
434.10 1.472
434.20 1.476
434.30 1.481
434.40 1.486
434.50 1.491
434.60 1.496
434.70 1.501
434.80 1.507
434.90 1.513
435.00 1.518
435.10 1.524
435.20 1.529
435.30 1.534
435.40 1.539
435.50 1.544
435.60 1.549
435.70 1.554
435.80 1.558
435.90 1.562
436.00 1.566
436.10 1.57
436.20 1.573
436.30 1.577
436.40 1.58
436.50 1.583
436.60 1.585
436.70 1.588
436.80 1.59
436.90 1.593
437.00 1.595
437.10 1.597
437.20 1.599
437.30 1.6
437.40 1.602
437.50 1.603
437.60 1.604
437.70 1.605
437.80 1.607
437.90 1.607
438.00 1.608
438.10 1.609
438.20 1.61
438.30 1.61
438.40 1.611
438.50 1.611
438.60 1.611
438.70 1.611
438.80 1.611
438.90 1.612
439.00 1.612
439.10 1.611
439.20 1.611
439.30 1.611
439.40 1.611
439.50 1.611
439.60 1.61
439.70 1.61
439.80 1.609
439.90 1.609
440.00 1.608
440.10 1.608
440.20 1.607
440.30 1.607
440.40 1.606
440.50 1.605
440.60 1.605
440.70 1.604
440.80 1.603
440.90 1.602
441.00 1.602
441.10 1.601
441.20 1.6
441.30 1.599
441.40 1.598
441.50 1.597
441.60 1.596
441.70 1.595
441.80 1.595
441.90 1.594
442.00 1.593
442.10 1.592
442.20 1.591
442.30 1.59
442.40 1.588
442.50 1.587
442.60 1.586
442.70 1.585
442.80 1.584
442.90 1.583
443.00 1.582
443.10 1.581
443.20 1.58
443.30 1.579
443.40 1.578
443.50 1.576
443.60 1.575
443.70 1.574
443.80 1.573
443.90 1.572
444.00 1.571
444.10 1.57
444.20 1.568
444.30 1.567
444.40 1.566
444.50 1.565
444.60 1.564
444.70 1.562
444.80 1.561
444.90 1.56
445.00 1.559
445.10 1.558
445.20 1.556
445.30 1.555
445.40 1.554
445.50 1.553
445.60 1.552
445.70 1.55
445.80 1.549
445.90 1.548
446.00 1.547
446.10 1.545
446.20 1.544
446.30 1.543
446.40 1.542
446.50 1.541
446.60 1.539
446.70 1.538
446.80 1.537
446.90 1.536
447.00 1.534
447.10 1.533
447.20 1.532
447.30 1.531
447.40 1.529
447.50 1.528
447.60 1.527
447.70 1.526
447.80 1.524
447.90 1.523
448.00 1.522
448.10 1.521
448.20 1.52
448.30 1.518
448.40 1.517
448.50 1.516
448.60 1.515
448.70 1.513
448.80 1.512
448.90 1.511
449.00 1.51
449.10 1.508
449.20 1.507
449.30 1.506
449.40 1.505
449.50 1.503
449.60 1.502
449.70 1.501
449.80 1.5
449.90 1.498
450.00 1.497
450.10 1.496
450.20 1.495
450.30 1.493
450.40 1.492
450.50 1.491
450.60 1.49
450.70 1.489
450.80 1.487
450.90 1.486
451.00 1.485
451.10 1.484
451.20 1.482
451.30 1.481
451.40 1.48
451.50 1.479
451.60 1.477
451.70 1.476
451.80 1.475
451.90 1.474
452.00 1.473
452.10 1.471
452.20 1.47
452.30 1.469
452.40 1.468
452.50 1.466
452.60 1.465
452.70 1.464
452.80 1.463
452.90 1.462
453.00 1.46
453.10 1.459
453.20 1.458
453.30 1.457
453.40 1.455
453.50 1.454
453.60 1.453
453.70 1.452
453.80 1.451
453.90 1.449
454.00 1.448
454.10 1.447
454.20 1.446
454.30 1.445
454.40 1.443
454.50 1.442
454.60 1.441
454.70 1.44
454.80 1.439
454.90 1.437
455.00 1.436
455.10 1.435
455.20 1.434
455.30 1.433
455.40 1.431
455.50 1.43
455.60 1.429
455.70 1.428
455.80 1.427
455.90 1.425
456.00 1.424
456.10 1.423
456.20 1.422
456.30 1.421
456.40 1.42
456.50 1.418
456.60 1.417
456.70 1.416
456.80 1.415
456.90 1.414
457.00 1.412
457.10 1.411
457.20 1.41
457.30 1.409
457.40 1.408
457.50 1.407
457.60 1.405
457.70 1.404
457.80 1.403
457.90 1.402
458.00 1.401
458.10 1.4
458.20 1.398
458.30 1.397
458.40 1.396
458.50 1.395
458.60 1.394
458.70 1.393
458.80 1.391
458.90 1.39
459.00 1.389
459.10 1.388
459.20 1.387
459.30 1.386
459.40 1.384
459.50 1.383
459.60 1.382
459.70 1.381
459.80 1.38
459.90 1.379
460.00 1.378
460.10 1.376
460.20 1.375
460.30 1.374
460.40 1.373
460.50 1.372
460.60 1.371
460.70 1.37
460.80 1.368
460.90 1.367
461.00 1.366
461.10 1.365
461.20 1.364
461.30 1.363
461.40 1.362
461.50 1.36
461.60 1.359
461.70 1.358
461.80 1.357
461.90 1.356
462.00 1.355
462.10 1.354
462.20 1.353
462.30 1.351
462.40 1.35
462.50 1.349
462.60 1.348
462.70 1.347
462.80 1.346
462.90 1.345
463.00 1.344
463.10 1.342
463.20 1.341
463.30 1.34
463.40 1.339
463.50 1.338
463.60 1.337
463.70 1.336
463.80 1.335
463.90 1.334
464.00 1.332
464.10 1.331
464.20 1.33
464.30 1.329
464.40 1.328
464.50 1.327
464.60 1.326
464.70 1.325
464.80 1.324
464.90 1.323
465.00 1.321
465.10 1.32
465.20 1.319
465.30 1.318
465.40 1.317
465.50 1.316
465.60 1.315
465.70 1.314
465.80 1.313
465.90 1.312
466.00 1.31
466.10 1.309
466.20 1.308
466.30 1.307
466.40 1.306
466.50 1.305
466.60 1.304
466.70 1.303
466.80 1.302
466.90 1.301
467.00 1.3
467.10 1.299
467.20 1.297
467.30 1.296
467.40 1.295
467.50 1.294
467.60 1.293
467.70 1.292
467.80 1.291
467.90 1.29
468.00 1.289
468.10 1.288
468.20 1.287
468.30 1.286
468.40 1.285
468.50 1.283
468.60 1.282
468.70 1.281
468.80 1.28
468.90 1.279
469.00 1.278
469.10 1.277
469.20 1.276
469.30 1.275
469.40 1.274
469.50 1.273
469.60 1.272
469.70 1.271
469.80 1.27
469.90 1.268
470.00 1.267
470.10 1.266
470.20 1.265
470.30 1.264
470.40 1.263
470.50 1.262
470.60 1.261
470.70 1.26
470.80 1.259
470.90 1.258
471.00 1.257
471.10 1.256
471.20 1.255
471.30 1.254
471.40 1.252
471.50 1.251
471.60 1.25
471.70 1.249
471.80 1.248
471.90 1.247
472.00 1.246
472.10 1.245
472.20 1.244
472.30 1.243
472.40 1.242
472.50 1.241
472.60 1.24
472.70 1.239
472.80 1.238
472.90 1.237
473.00 1.235
473.10 1.234
473.20 1.233
473.30 1.232
473.40 1.231
473.50 1.23
473.60 1.229
473.70 1.228
473.80 1.227
473.90 1.226
474.00 1.225
474.10 1.224
474.20 1.223
474.30 1.222
474.40 1.22
474.50 1.219
474.60 1.218
474.70 1.217
474.80 1.216
474.90 1.215
475.00 1.214
475.10 1.213
475.20 1.212
475.30 1.211
475.40 1.21
475.50 1.208
475.60 1.207
475.70 1.206
475.80 1.205
475.90 1.204
476.00 1.203
476.10 1.202
476.20 1.201
476.30 1.199
476.40 1.198
476.50 1.197
476.60 1.196
476.70 1.195
476.80 1.194
476.90 1.193
477.00 1.192
477.10 1.19
477.20 1.189
477.30 1.188
477.40 1.187
477.50 1.186
477.60 1.184
477.70 1.183
477.80 1.182
477.90 1.181
478.00 1.18
478.10 1.178
478.20 1.177
478.30 1.176
478.40 1.175
478.50 1.173
478.60 1.172
478.70 1.171
478.80 1.169
478.90 1.168
479.00 1.167
479.10 1.166
479.20 1.164
479.30 1.163
479.40 1.161
479.50 1.16
479.60 1.158
479.70 1.157
479.80 1.156
479.90 1.154
480.00 1.153
480.10 1.151
480.20 1.15
480.30 1.148
480.40 1.146
480.50 1.145
480.60 1.143
480.70 1.141
480.80 1.14
480.90 1.138
481.00 1.136
481.10 1.135
481.20 1.133
481.30 1.131
481.40 1.129
481.50 1.126
481.60 1.124
481.70 1.122
481.80 1.12
481.90 1.118
482.00 1.116
482.10 1.114
482.20 1.112
482.30 1.109
482.40 1.106
482.50 1.104
482.60 1.101
482.70 1.098
482.80 1.096
482.90 1.093
483.00 1.09
483.10 1.088
483.20 1.084
483.30 1.081
483.40 1.077
483.50 1.073
483.60 1.07
483.70 1.066
483.80 1.063
483.90 1.059
484.00 1.055
484.10 1.052
484.20 1.048
484.30 1.043
484.40 1.039
484.50 1.034
484.60 1.03
484.70 1.025
484.80 1.019
484.90 1.014
485.00 1.009
485.10 1.004
485.20 0.9988
485.30 0.9934
485.40 0.9879
485.50 0.9825
485.60 0.9772
485.70 0.972
485.80 0.9676
485.90 0.9634
486.00 0.9622
486.10 0.9737
486.20 0.9671
486.30 0.9593
486.40 0.9611
486.50 0.9637
486.60 0.9671
486.70 0.9708
486.80 0.9747
486.90 0.9786
487.00 0.9825
487.10 0.9864
487.20 0.99
487.30 0.9936
487.40 0.9971
487.50 1.001
487.60 1.004
487.70 1.007
487.80 1.01
487.90 1.013
488.00 1.016
488.10 1.019
488.20 1.021
488.30 1.023
488.40 1.025
488.50 1.027
488.60 1.028
488.70 1.03
488.80 1.032
488.90 1.034
489.00 1.036
489.10 1.038
489.20 1.039
489.30 1.04
489.40 1.041
489.50 1.042
489.60 1.043
489.70 1.044
489.80 1.045
489.90 1.045
490.00 1.046
490.10 1.047
490.20 1.048
490.30 1.048
490.40 1.048
490.50 1.048
490.60 1.049
490.70 1.049
490.80 1.049
490.90 1.049
491.00 1.05
491.10 1.05
491.20 1.05
491.30 1.05
491.40 1.05
491.50 1.05
491.60 1.049
491.70 1.049
491.80 1.049
491.90 1.049
492.00 1.049
492.10 1.049
492.20 1.048
492.30 1.048
492.40 1.048
492.50 1.047
492.60 1.047
492.70 1.047
492.80 1.046
492.90 1.046
493.00 1.045
493.10 1.045
493.20 1.045
493.30 1.044
493.40 1.044
493.50 1.043
493.60 1.043
493.70 1.042
493.80 1.042
493.90 1.041
494.00 1.041
494.10 1.04
494.20 1.039
494.30 1.039
494.40 1.038
494.50 1.038
494.60 1.037
494.70 1.036
494.80 1.036
494.90 1.035
495.00 1.035
495.10 1.034
495.20 1.033
495.30 1.033
495.40 1.032
495.50 1.031
495.60 1.031
495.70 1.03
495.80 1.03
495.90 1.029
496.00 1.028
496.10 1.028
496.20 1.027
496.30 1.026
496.40 1.026
496.50 1.025
496.60 1.024
496.70 1.023
496.80 1.023
496.90 1.022
497.00 1.021
497.10 1.021
497.20 1.02
497.30 1.019
497.40 1.019
497.50 1.018
497.60 1.017
497.70 1.017
497.80 1.016
497.90 1.015
498.00 1.014
498.10 1.014
498.20 1.013
498.30 1.012
498.40 1.012
498.50 1.011
498.60 1.01
498.70 1.009
498.80 1.009
498.90 1.008
499.00 1.007
499.10 1.007
499.20 1.006
499.30 1.005
499.40 1.004
499.50 1.004
499.60 1.003
499.70 1.002
499.80 1.001
499.90 1.001
500.00 1
500.10 0.9993
500.20 0.9986
500.30 0.9978
500.40 0.9971
500.50 0.9964
500.60 0.9956
500.70 0.9949
500.80 0.9942
500.90 0.9935
501.00 0.9927
501.10 0.992
501.20 0.9913
501.30 0.9905
501.40 0.9898
501.50 0.9891
501.60 0.9884
501.70 0.9876
501.80 0.9869
501.90 0.9862
502.00 0.9855
502.10 0.9847
502.20 0.984
502.30 0.9833
502.40 0.9825
502.50 0.9818
502.60 0.9811
502.70 0.9804
502.80 0.9796
502.90 0.9789
503.00 0.9782
503.10 0.9775
503.20 0.9767
503.30 0.976
503.40 0.9753
503.50 0.9746
503.60 0.9738
503.70 0.9731
503.80 0.9724
503.90 0.9717
504.00 0.971
504.10 0.9702
504.20 0.9695
504.30 0.9688
504.40 0.9681
504.50 0.9673
504.60 0.9666
504.70 0.9659
504.80 0.9652
504.90 0.9645
505.00 0.9637
505.10 0.963
505.20 0.9623
505.30 0.9616
505.40 0.9609
505.50 0.9602
505.60 0.9594
505.70 0.9587
505.80 0.958
505.90 0.9573
506.00 0.9566
506.10 0.9559
506.20 0.9552
506.30 0.9545
506.40 0.9537
506.50 0.953
506.60 0.9523
506.70 0.9516
506.80 0.9509
506.90 0.9502
507.00 0.9495
507.10 0.9488
507.20 0.9481
507.30 0.9474
507.40 0.9466
507.50 0.9459
507.60 0.9452
507.70 0.9445
507.80 0.9438
507.90 0.9431
508.00 0.9424
508.10 0.9417
508.20 0.941
508.30 0.9403
508.40 0.9396
508.50 0.9389
508.60 0.9382
508.70 0.9375
508.80 0.9368
508.90 0.9361
509.00 0.9354
509.10 0.9347
509.20 0.934
509.30 0.9333
509.40 0.9326
509.50 0.9319
509.60 0.9312
509.70 0.9305
509.80 0.9298
509.90 0.9291
510.00 0.9285
510.10 0.9278
510.20 0.9271
510.30 0.9264
510.40 0.9257
510.50 0.925
510.60 0.9243
510.70 0.9236
510.80 0.9229
510.90 0.9222
511.00 0.9216
511.10 0.9209
511.20 0.9202
511.30 0.9195
511.40 0.9188
511.50 0.9181
511.60 0.9174
511.70 0.9168
511.80 0.9161
511.90 0.9154
512.00 0.9147
512.10 0.914
512.20 0.9134
512.30 0.9127
512.40 0.912
512.50 0.9113
512.60 0.9106
512.70 0.91
512.80 0.9093
512.90 0.9086
513.00 0.9079
513.10 0.9073
513.20 0.9066
513.30 0.9059
513.40 0.9052
513.50 0.9046
513.60 0.9039
513.70 0.9032
513.80 0.9025
513.90 0.9019
514.00 0.9012
514.10 0.9005
514.20 0.8999
514.30 0.8992
514.40 0.8985
514.50 0.8979
514.60 0.8972
514.70 0.8965
514.80 0.8959
514.90 0.8952
515.00 0.8945
515.10 0.8939
515.20 0.8932
515.30 0.8926
515.40 0.8919
515.50 0.8912
515.60 0.8906
515.70 0.8899
515.80 0.8893
515.90 0.8886
516.00 0.8879
516.10 0.8873
516.20 0.8866
516.30 0.886
516.40 0.8853
516.50 0.8847
516.60 0.884
516.70 0.8833
516.80 0.8827
516.90 0.882
517.00 0.8814
517.10 0.8807
517.20 0.8801
517.30 0.8794
517.40 0.8788
517.50 0.8781
517.60 0.8775
517.70 0.8768
517.80 0.8762
517.90 0.8755
518.00 0.8749
518.10 0.8742
518.20 0.8736
518.30 0.873
518.40 0.8723
518.50 0.8717
518.60 0.871
518.70 0.8704
518.80 0.8697
518.90 0.8691
519.00 0.8685
519.10 0.8678
519.20 0.8672
519.30 0.8665
519.40 0.8659
519.50 0.8653
519.60 0.8646
519.70 0.864
519.80 0.8634
519.90 0.8627
520.00 0.8621
520.10 0.8614
520.20 0.8608
520.30 0.8602
520.40 0.8595
520.50 0.8589
520.60 0.8583
520.70 0.8577
520.80 0.857
520.90 0.8564
521.00 0.8558
521.10 0.8551
521.20 0.8545
521.30 0.8539
521.40 0.8533
521.50 0.8526
521.60 0.852
521.70 0.8514
521.80 0.8508
521.90 0.8501
522.00 0.8495
522.10 0.8489
522.20 0.8483
522.30 0.8476
522.40 0.847
522.50 0.8464
522.60 0.8458
522.70 0.8452
522.80 0.8445
522.90 0.8439
523.00 0.8433
523.10 0.8427
523.20 0.8421
523.30 0.8414
523.40 0.8408
523.50 0.8402
523.60 0.8396
523.70 0.839
523.80 0.8384
523.90 0.8378
524.00 0.8371
524.10 0.8365
524.20 0.8359
524.30 0.8353
524.40 0.8347
524.50 0.8341
524.60 0.8335
524.70 0.8329
524.80 0.8323
524.90 0.8317
525.00 0.831
525.10 0.8304
525.20 0.8298
525.30 0.8292
525.40 0.8286
525.50 0.828
525.60 0.8274
525.70 0.8268
525.80 0.8262
525.90 0.8256
526.00 0.825
526.10 0.8244
526.20 0.8238
526.30 0.8232
526.40 0.8226
526.50 0.822
526.60 0.8214
526.70 0.8208
526.80 0.8202
526.90 0.8196
527.00 0.819
527.10 0.8184
527.20 0.8178
527.30 0.8172
527.40 0.8166
527.50 0.816
527.60 0.8155
527.70 0.8149
527.80 0.8143
527.90 0.8137
528.00 0.8131
528.10 0.8125
528.20 0.8119
528.30 0.8113
528.40 0.8107
528.50 0.8101
528.60 0.8096
528.70 0.809
528.80 0.8084
528.90 0.8078
529.00 0.8072
529.10 0.8066
529.20 0.806
529.30 0.8055
529.40 0.8049
529.50 0.8043
529.60 0.8037
529.70 0.8031
529.80 0.8025
529.90 0.802
530.00 0.8014
530.10 0.8008
530.20 0.8002
530.30 0.7996
530.40 0.7991
530.50 0.7985
530.60 0.7979
530.70 0.7973
530.80 0.7968
530.90 0.7962
531.00 0.7956
531.10 0.795
531.20 0.7945
531.30 0.7939
531.40 0.7933
531.50 0.7927
531.60 0.7922
531.70 0.7916
531.80 0.791
531.90 0.7905
532.00 0.7899
532.10 0.7893
532.20 0.7887
532.30 0.7882
532.40 0.7876
532.50 0.787
532.60 0.7865
532.70 0.7859
532.80 0.7853
532.90 0.7848
533.00 0.7842
533.10 0.7836
533.20 0.7831
533.30 0.7825
533.40 0.782
533.50 0.7814
533.60 0.7808
533.70 0.7803
533.80 0.7797
533.90 0.7791
534.00 0.7786
534.10 0.778
534.20 0.7775
534.30 0.7769
534.40 0.7764
534.50 0.7758
534.60 0.7752
534.70 0.7747
534.80 0.7741
534.90 0.7736
535.00 0.773
535.10 0.7725
535.20 0.7719
535.30 0.7714
535.40 0.7708
535.50 0.7702
535.60 0.7697
535.70 0.7691
535.80 0.7686
535.90 0.768
536.00 0.7675
536.10 0.7669
536.20 0.7664
536.30 0.7658
536.40 0.7653
536.50 0.7648
536.60 0.7642
536.70 0.7637
536.80 0.7631
536.90 0.7626
537.00 0.762
537.10 0.7615
537.20 0.7609
537.30 0.7604
537.40 0.7598
537.50 0.7593
537.60 0.7588
537.70 0.7582
537.80 0.7577
537.90 0.7571
538.00 0.7566
538.10 0.7561
538.20 0.7555
538.30 0.755
538.40 0.7544
538.50 0.7539
538.60 0.7534
538.70 0.7528
538.80 0.7523
538.90 0.7518
539.00 0.7512
539.10 0.7507
539.20 0.7501
539.30 0.7496
539.40 0.7491
539.50 0.7485
539.60 0.748
539.70 0.7475
539.80 0.747
539.90 0.7464
540.00 0.7459
540.10 0.7454
540.20 0.7448
540.30 0.7443
540.40 0.7438
540.50 0.7432
540.60 0.7427
540.70 0.7422
540.80 0.7417
540.90 0.7411
541.00 0.7406
541.10 0.7401
541.20 0.7396
541.30 0.739
541.40 0.7385
541.50 0.738
541.60 0.7375
541.70 0.7369
541.80 0.7364
541.90 0.7359
542.00 0.7354
542.10 0.7349
542.20 0.7343
542.30 0.7338
542.40 0.7333
542.50 0.7328
542.60 0.7323
542.70 0.7317
542.80 0.7312
542.90 0.7307
543.00 0.7302
543.10 0.7297
543.20 0.7292
543.30 0.7286
543.40 0.7281
543.50 0.7276
543.60 0.7271
543.70 0.7266
543.80 0.7261
543.90 0.7256
544.00 0.725
544.10 0.7245
544.20 0.724
544.30 0.7235
544.40 0.723
544.50 0.7225
544.60 0.722
544.70 0.7215
544.80 0.721
544.90 0.7205
545.00 0.7199
545.10 0.7194
545.20 0.7189
545.30 0.7184
545.40 0.7179
545.50 0.7174
545.60 0.7169
545.70 0.7164
545.80 0.7159
545.90 0.7154
546.00 0.7149
546.10 0.7144
546.20 0.7139
546.30 0.7134
546.40 0.7129
546.50 0.7124
546.60 0.7119
546.70 0.7114
546.80 0.7109
546.90 0.7104
547.00 0.7099
547.10 0.7094
547.20 0.7089
547.30 0.7084
547.40 0.7079
547.50 0.7074
547.60 0.7069
547.70 0.7064
547.80 0.7059
547.90 0.7054
548.00 0.7049
548.10 0.7044
548.20 0.7039
548.30 0.7034
548.40 0.7029
548.50 0.7025
548.60 0.702
548.70 0.7015
548.80 0.701
548.90 0.7005
549.00 0.7
549.10 0.6995
549.20 0.699
549.30 0.6985
549.40 0.698
549.50 0.6976
549.60 0.6971
549.70 0.6966
549.80 0.6961
549.90 0.6956
550.00 0.6951
550.10 0.6946
550.20 0.6941
550.30 0.6937
550.40 0.6932
550.50 0.6927
550.60 0.6922
550.70 0.6917
550.80 0.6912
550.90 0.6908
551.00 0.6903
551.10 0.6898
551.20 0.6893
551.30 0.6888
551.40 0.6884
551.50 0.6879
551.60 0.6874
551.70 0.6869
551.80 0.6864
551.90 0.686
552.00 0.6855
552.10 0.685
552.20 0.6845
552.30 0.6841
552.40 0.6836
552.50 0.6831
552.60 0.6826
552.70 0.6822
552.80 0.6817
552.90 0.6812
553.00 0.6807
553.10 0.6803
553.20 0.6798
553.30 0.6793
553.40 0.6788
553.50 0.6784
553.60 0.6779
553.70 0.6774
553.80 0.677
553.90 0.6765
554.00 0.676
554.10 0.6755
554.20 0.6751
554.30 0.6746
554.40 0.6741
554.50 0.6737
554.60 0.6732
554.70 0.6727
554.80 0.6723
554.90 0.6718
555.00 0.6713
555.10 0.6709
555.20 0.6704
555.30 0.67
555.40 0.6695
555.50 0.669
555.60 0.6686
555.70 0.6681
555.80 0.6676
555.90 0.6672
556.00 0.6667
556.10 0.6663
556.20 0.6658
556.30 0.6653
556.40 0.6649
556.50 0.6644
556.60 0.664
556.70 0.6635
556.80 0.663
556.90 0.6626
557.00 0.6621
557.10 0.6617
557.20 0.6612
557.30 0.6608
557.40 0.6603
557.50 0.6598
557.60 0.6594
557.70 0.6589
557.80 0.6585
557.90 0.658
558.00 0.6576
558.10 0.6571
558.20 0.6567
558.30 0.6562
558.40 0.6558
558.50 0.6553
558.60 0.6549
558.70 0.6544
558.80 0.654
558.90 0.6535
559.00 0.6531
559.10 0.6526
559.20 0.6522
559.30 0.6517
559.40 0.6513
559.50 0.6508
559.60 0.6504
559.70 0.6499
559.80 0.6495
559.90 0.649
560.00 0.6486
560.10 0.6481
560.20 0.6477
560.30 0.6473
560.40 0.6468
560.50 0.6464
560.60 0.6459
560.70 0.6455
560.80 0.645
560.90 0.6446
561.00 0.6442
561.10 0.6437
561.20 0.6433
561.30 0.6428
561.40 0.6424
561.50 0.642
561.60 0.6415
561.70 0.6411
561.80 0.6406
561.90 0.6402
562.00 0.6398
562.10 0.6393
562.20 0.6389
562.30 0.6384
562.40 0.638
562.50 0.6376
562.60 0.6371
562.70 0.6367
562.80 0.6363
562.90 0.6358
563.00 0.6354
563.10 0.635
563.20 0.6345
563.30 0.6341
563.40 0.6337
563.50 0.6332
563.60 0.6328
563.70 0.6324
563.80 0.6319
563.90 0.6315
564.00 0.6311
564.10 0.6306
564.20 0.6302
564.30 0.6298
564.40 0.6294
564.50 0.6289
564.60 0.6285
564.70 0.6281
564.80 0.6276
564.90 0.6272
565.00 0.6268
565.10 0.6264
565.20 0.6259
565.30 0.6255
565.40 0.6251
565.50 0.6247
565.60 0.6242
565.70 0.6238
565.80 0.6234
565.90 0.623
566.00 0.6225
566.10 0.6221
566.20 0.6217
566.30 0.6213
566.40 0.6208
566.50 0.6204
566.60 0.62
566.70 0.6196
566.80 0.6192
566.90 0.6187
567.00 0.6183
567.10 0.6179
567.20 0.6175
567.30 0.6171
567.40 0.6166
567.50 0.6162
567.60 0.6158
567.70 0.6154
567.80 0.615
567.90 0.6146
568.00 0.6141
568.10 0.6137
568.20 0.6133
568.30 0.6129
568.40 0.6125
568.50 0.6121
568.60 0.6117
568.70 0.6112
568.80 0.6108
568.90 0.6104
569.00 0.61
569.10 0.6096
569.20 0.6092
569.30 0.6088
569.40 0.6084
569.50 0.6079
569.60 0.6075
569.70 0.6071
569.80 0.6067
569.90 0.6063
570.00 0.6059
570.10 0.6055
570.20 0.6051
570.30 0.6047
570.40 0.6043
570.50 0.6039
570.60 0.6034
570.70 0.603
570.80 0.6026
570.90 0.6022
571.00 0.6018
571.10 0.6014
571.20 0.601
571.30 0.6006
571.40 0.6002
571.50 0.5998
571.60 0.5994
571.70 0.599
571.80 0.5986
571.90 0.5982
572.00 0.5978
572.10 0.5974
572.20 0.597
572.30 0.5966
572.40 0.5962
572.50 0.5958
572.60 0.5954
572.70 0.595
572.80 0.5946
572.90 0.5942
573.00 0.5938
573.10 0.5934
573.20 0.593
573.30 0.5926
573.40 0.5922
573.50 0.5918
573.60 0.5914
573.70 0.591
573.80 0.5906
573.90 0.5902
574.00 0.5898
574.10 0.5894
574.20 0.589
574.30 0.5886
574.40 0.5882
574.50 0.5878
574.60 0.5874
574.70 0.587
574.80 0.5867
574.90 0.5863
575.00 0.5859
575.10 0.5855
575.20 0.5851
575.30 0.5847
575.40 0.5843
575.50 0.5839
575.60 0.5835
575.70 0.5831
575.80 0.5827
575.90 0.5823
576.00 0.582
576.10 0.5816
576.20 0.5812
576.30 0.5808
576.40 0.5804
576.50 0.58
576.60 0.5796
576.70 0.5792
576.80 0.5789
576.90 0.5785
577.00 0.5781
577.10 0.5777
577.20 0.5773
577.30 0.5769
577.40 0.5765
577.50 0.5762
577.60 0.5758
577.70 0.5754
577.80 0.575
577.90 0.5746
578.00 0.5742
578.10 0.5739
578.20 0.5735
578.30 0.5731
578.40 0.5727
578.50 0.5723
578.60 0.572
578.70 0.5716
578.80 0.5712
578.90 0.5708
579.00 0.5704
579.10 0.5701
579.20 0.5697
579.30 0.5693
579.40 0.5689
579.50 0.5685
579.60 0.5682
579.70 0.5678
579.80 0.5674
579.90 0.567
580.00 0.5667
580.10 0.5663
580.20 0.5659
580.30 0.5655
580.40 0.5652
580.50 0.5648
580.60 0.5644
580.70 0.564
580.80 0.5637
580.90 0.5633
581.00 0.5629
581.10 0.5625
581.20 0.5622
581.30 0.5618
581.40 0.5614
581.50 0.5611
581.60 0.5607
581.70 0.5603
581.80 0.5599
581.90 0.5596
582.00 0.5592
582.10 0.5588
582.20 0.5585
582.30 0.5581
582.40 0.5577
582.50 0.5574
582.60 0.557
582.70 0.5566
582.80 0.5562
582.90 0.5559
583.00 0.5555
583.10 0.5551
583.20 0.5548
583.30 0.5544
583.40 0.554
583.50 0.5537
583.60 0.5533
583.70 0.553
583.80 0.5526
583.90 0.5522
584.00 0.5519
584.10 0.5515
584.20 0.5511
584.30 0.5508
584.40 0.5504
584.50 0.55
584.60 0.5497
584.70 0.5493
584.80 0.549
584.90 0.5486
585.00 0.5482
585.10 0.5479
585.20 0.5475
585.30 0.5472
585.40 0.5468
585.50 0.5464
585.60 0.5461
585.70 0.5457
585.80 0.5454
585.90 0.545
586.00 0.5446
586.10 0.5443
586.20 0.5439
586.30 0.5436
586.40 0.5432
586.50 0.5429
586.60 0.5425
586.70 0.5421
586.80 0.5418
586.90 0.5414
587.00 0.5411
587.10 0.5407
587.20 0.5404
587.30 0.54
587.40 0.5397
587.50 0.5393
587.60 0.5389
587.70 0.5386
587.80 0.5382
587.90 0.5379
588.00 0.5375
588.10 0.5372
588.20 0.5368
588.30 0.5365
588.40 0.5361
588.50 0.5358
588.60 0.5354
588.70 0.5351
588.80 0.5347
588.90 0.5344
589.00 0.534
589.10 0.5337
589.20 0.5333
589.30 0.533
589.40 0.5326
589.50 0.5323
589.60 0.5319
589.70 0.5316
589.80 0.5312
589.90 0.5309
590.00 0.5305
590.10 0.5302
590.20 0.5299
590.30 0.5295
590.40 0.5292
590.50 0.5288
590.60 0.5285
590.70 0.5281
590.80 0.5278
590.90 0.5274
591.00 0.5271
591.10 0.5268
591.20 0.5264
591.30 0.5261
591.40 0.5257
591.50 0.5254
591.60 0.525
591.70 0.5247
591.80 0.5244
591.90 0.524
592.00 0.5237
592.10 0.5233
592.20 0.523
592.30 0.5227
592.40 0.5223
592.50 0.522
592.60 0.5216
592.70 0.5213
592.80 0.521
592.90 0.5206
593.00 0.5203
593.10 0.5199
593.20 0.5196
593.30 0.5193
593.40 0.5189
593.50 0.5186
593.60 0.5183
593.70 0.5179
593.80 0.5176
593.90 0.5173
594.00 0.5169
594.10 0.5166
594.20 0.5162
594.30 0.5159
594.40 0.5156
594.50 0.5152
594.60 0.5149
594.70 0.5146
594.80 0.5142
594.90 0.5139
595.00 0.5136
595.10 0.5132
595.20 0.5129
595.30 0.5126
595.40 0.5122
595.50 0.5119
595.60 0.5116
595.70 0.5113
595.80 0.5109
595.90 0.5106
596.00 0.5103
596.10 0.5099
596.20 0.5096
596.30 0.5093
596.40 0.5089
596.50 0.5086
596.60 0.5083
596.70 0.508
596.80 0.5076
596.90 0.5073
597.00 0.507
597.10 0.5066
597.20 0.5063
597.30 0.506
597.40 0.5057
597.50 0.5053
597.60 0.505
597.70 0.5047
597.80 0.5044
597.90 0.504
598.00 0.5037
598.10 0.5034
598.20 0.5031
598.30 0.5027
598.40 0.5024
598.50 0.5021
598.60 0.5018
598.70 0.5014
598.80 0.5011
598.90 0.5008
599.00 0.5005
599.10 0.5002
599.20 0.4998
599.30 0.4995
599.40 0.4992
599.50 0.4989
599.60 0.4986
599.70 0.4982
599.80 0.4979
599.90 0.4976
600.00 0.4973
600.10 0.497
600.20 0.4966
600.30 0.4963
600.40 0.496
600.50 0.4957
600.60 0.4954
600.70 0.495
600.80 0.4947
600.90 0.4944
601.00 0.4941
601.10 0.4938
601.20 0.4935
601.30 0.4931
601.40 0.4928
601.50 0.4925
601.60 0.4922
601.70 0.4919
601.80 0.4916
601.90 0.4912
602.00 0.4909
602.10 0.4906
602.20 0.4903
602.30 0.49
602.40 0.4897
602.50 0.4894
602.60 0.4891
602.70 0.4887
602.80 0.4884
602.90 0.4881
603.00 0.4878
603.10 0.4875
603.20 0.4872
603.30 0.4869
603.40 0.4866
603.50 0.4862
603.60 0.4859
603.70 0.4856
603.80 0.4853
603.90 0.485
604.00 0.4847
604.10 0.4844
604.20 0.4841
604.30 0.4838
604.40 0.4835
604.50 0.4831
604.60 0.4828
604.70 0.4825
604.80 0.4822
604.90 0.4819
605.00 0.4816
605.10 0.4813
605.20 0.481
605.30 0.4807
605.40 0.4804
605.50 0.4801
605.60 0.4798
605.70 0.4795
605.80 0.4792
605.90 0.4789
606.00 0.4786
606.10 0.4782
606.20 0.4779
606.30 0.4776
606.40 0.4773
606.50 0.477
606.60 0.4767
606.70 0.4764
606.80 0.4761
606.90 0.4758
607.00 0.4755
607.10 0.4752
607.20 0.4749
607.30 0.4746
607.40 0.4743
607.50 0.474
607.60 0.4737
607.70 0.4734
607.80 0.4731
607.90 0.4728
608.00 0.4725
608.10 0.4722
608.20 0.4719
608.30 0.4716
608.40 0.4713
608.50 0.471
608.60 0.4707
608.70 0.4704
608.80 0.4701
608.90 0.4698
609.00 0.4695
609.10 0.4692
609.20 0.4689
609.30 0.4686
609.40 0.4683
609.50 0.468
609.60 0.4677
609.70 0.4674
609.80 0.4671
609.90 0.4669
610.00 0.4666
610.10 0.4663
610.20 0.466
610.30 0.4657
610.40 0.4654
610.50 0.4651
610.60 0.4648
610.70 0.4645
610.80 0.4642
610.90 0.4639
611.00 0.4636
611.10 0.4633
611.20 0.463
611.30 0.4627
611.40 0.4624
611.50 0.4622
611.60 0.4619
611.70 0.4616
611.80 0.4613
611.90 0.461
612.00 0.4607
612.10 0.4604
612.20 0.4601
612.30 0.4598
612.40 0.4595
612.50 0.4592
612.60 0.459
612.70 0.4587
612.80 0.4584
612.90 0.4581
613.00 0.4578
613.10 0.4575
613.20 0.4572
613.30 0.4569
613.40 0.4567
613.50 0.4564
613.60 0.4561
613.70 0.4558
613.80 0.4555
613.90 0.4552
614.00 0.4549
614.10 0.4546
614.20 0.4544
614.30 0.4541
614.40 0.4538
614.50 0.4535
614.60 0.4532
614.70 0.4529
614.80 0.4526
614.90 0.4524
615.00 0.4521
615.10 0.4518
615.20 0.4515
615.30 0.4512
615.40 0.4509
615.50 0.4507
615.60 0.4504
615.70 0.4501
615.80 0.4498
615.90 0.4495
616.00 0.4493
616.10 0.449
616.20 0.4487
616.30 0.4484
616.40 0.4481
616.50 0.4478
616.60 0.4476
616.70 0.4473
616.80 0.447
616.90 0.4467
617.00 0.4464
617.10 0.4462
617.20 0.4459
617.30 0.4456
617.40 0.4453
617.50 0.4451
617.60 0.4448
617.70 0.4445
617.80 0.4442
617.90 0.4439
618.00 0.4437
618.10 0.4434
618.20 0.4431
618.30 0.4428
618.40 0.4426
618.50 0.4423
618.60 0.442
618.70 0.4417
618.80 0.4415
618.90 0.4412
619.00 0.4409
619.10 0.4406
619.20 0.4403
619.30 0.4401
619.40 0.4398
619.50 0.4395
619.60 0.4393
619.70 0.439
619.80 0.4387
619.90 0.4384
620.00 0.4382
620.10 0.4379
620.20 0.4376
620.30 0.4373
620.40 0.4371
620.50 0.4368
620.60 0.4365
620.70 0.4362
620.80 0.436
620.90 0.4357
621.00 0.4354
621.10 0.4352
621.20 0.4349
621.30 0.4346
621.40 0.4344
621.50 0.4341
621.60 0.4338
621.70 0.4335
621.80 0.4333
621.90 0.433
622.00 0.4327
622.10 0.4325
622.20 0.4322
622.30 0.4319
622.40 0.4317
622.50 0.4314
622.60 0.4311
622.70 0.4309
622.80 0.4306
622.90 0.4303
623.00 0.4301
623.10 0.4298
623.20 0.4295
623.30 0.4293
623.40 0.429
623.50 0.4287
623.60 0.4285
623.70 0.4282
623.80 0.4279
623.90 0.4277
624.00 0.4274
624.10 0.4271
624.20 0.4269
624.30 0.4266
624.40 0.4263
624.50 0.4261
624.60 0.4258
624.70 0.4255
624.80 0.4253
624.90 0.425
625.00 0.4247
625.10 0.4245
625.20 0.4242
625.30 0.424
625.40 0.4237
625.50 0.4234
625.60 0.4232
625.70 0.4229
625.80 0.4227
625.90 0.4224
626.00 0.4221
626.10 0.4219
626.20 0.4216
626.30 0.4213
626.40 0.4211
626.50 0.4208
626.60 0.4206
626.70 0.4203
626.80 0.42
626.90 0.4198
627.00 0.4195
627.10 0.4193
627.20 0.419
627.30 0.4187
627.40 0.4185
627.50 0.4182
627.60 0.418
627.70 0.4177
627.80 0.4175
627.90 0.4172
628.00 0.4169
628.10 0.4167
628.20 0.4164
628.30 0.4162
628.40 0.4159
628.50 0.4157
628.60 0.4154
628.70 0.4151
628.80 0.4149
628.90 0.4146
629.00 0.4144
629.10 0.4141
629.20 0.4139
629.30 0.4136
629.40 0.4134
629.50 0.4131
629.60 0.4128
629.70 0.4126
629.80 0.4123
629.90 0.4121
630.00 0.4118
630.10 0.4116
630.20 0.4113
630.30 0.4111
630.40 0.4108
630.50 0.4106
630.60 0.4103
630.70 0.4101
630.80 0.4098
630.90 0.4095
631.00 0.4093
631.10 0.409
631.20 0.4088
631.30 0.4085
631.40 0.4083
631.50 0.408
631.60 0.4078
631.70 0.4075
631.80 0.4073
631.90 0.407
632.00 0.4068
632.10 0.4065
632.20 0.4063
632.30 0.406
632.40 0.4058
632.50 0.4055
632.60 0.4053
632.70 0.405
632.80 0.4048
632.90 0.4045
633.00 0.4043
633.10 0.404
633.20 0.4038
633.30 0.4035
633.40 0.4033
633.50 0.403
633.60 0.4028
633.70 0.4025
633.80 0.4023
633.90 0.402
634.00 0.4018
634.10 0.4016
634.20 0.4013
634.30 0.4011
634.40 0.4008
634.50 0.4006
634.60 0.4003
634.70 0.4001
634.80 0.3998
634.90 0.3996
635.00 0.3993
635.10 0.3991
635.20 0.3988
635.30 0.3986
635.40 0.3983
635.50 0.3981
635.60 0.3979
635.70 0.3976
635.80 0.3974
635.90 0.3971
636.00 0.3969
636.10 0.3966
636.20 0.3964
636.30 0.3961
636.40 0.3959
636.50 0.3957
636.60 0.3954
636.70 0.3952
636.80 0.3949
636.90 0.3947
637.00 0.3944
637.10 0.3942
637.20 0.3939
637.30 0.3937
637.40 0.3935
637.50 0.3932
637.60 0.393
637.70 0.3927
637.80 0.3925
637.90 0.3922
638.00 0.392
638.10 0.3918
638.20 0.3915
638.30 0.3913
638.40 0.391
638.50 0.3908
638.60 0.3906
638.70 0.3903
638.80 0.3901
638.90 0.3898
639.00 0.3896
639.10 0.3893
639.20 0.3891
639.30 0.3889
639.40 0.3886
639.50 0.3884
639.60 0.3881
639.70 0.3879
639.80 0.3877
639.90 0.3874
640.00 0.3872
640.10 0.3869
640.20 0.3867
640.30 0.3864
640.40 0.3862
640.50 0.386
640.60 0.3857
640.70 0.3855
640.80 0.3852
640.90 0.385
641.00 0.3848
641.10 0.3845
641.20 0.3843
641.30 0.384
641.40 0.3838
641.50 0.3836
641.60 0.3833
641.70 0.3831
641.80 0.3828
641.90 0.3826
642.00 0.3823
642.10 0.3821
642.20 0.3819
642.30 0.3816
642.40 0.3814
642.50 0.3811
642.60 0.3809
642.70 0.3807
642.80 0.3804
642.90 0.3802
643.00 0.3799
643.10 0.3797
643.20 0.3794
643.30 0.3792
643.40 0.379
643.50 0.3787
643.60 0.3785
643.70 0.3782
643.80 0.378
643.90 0.3777
644.00 0.3775
644.10 0.3772
644.20 0.377
644.30 0.3768
644.40 0.3765
644.50 0.3763
644.60 0.376
644.70 0.3758
644.80 0.3755
644.90 0.3753
645.00 0.375
645.10 0.3748
645.20 0.3745
645.30 0.3743
645.40 0.374
645.50 0.3738
645.60 0.3735
645.70 0.3733
645.80 0.373
645.90 0.3728
646.00 0.3725
646.10 0.3723
646.20 0.372
646.30 0.3718
646.40 0.3715
646.50 0.3712
646.60 0.371
646.70 0.3707
646.80 0.3705
646.90 0.3702
647.00 0.3699
647.10 0.3697
647.20 0.3694
647.30 0.3692
647.40 0.3689
647.50 0.3686
647.60 0.3683
647.70 0.3681
647.80 0.3678
647.90 0.3675
648.00 0.3673
648.10 0.367
648.20 0.3667
648.30 0.3664
648.40 0.3661
648.50 0.3658
648.60 0.3656
648.70 0.3653
648.80 0.365
648.90 0.3647
649.00 0.3644
649.10 0.3641
649.20 0.3638
649.30 0.3635
649.40 0.3632
649.50 0.3629
649.60 0.3625
649.70 0.3622
649.80 0.3619
649.90 0.3616
650.00 0.3612
650.10 0.3609
650.20 0.3606
650.30 0.3602
650.40 0.3599
650.50 0.3595
650.60 0.3591
650.70 0.3587
650.80 0.3584
650.90 0.358
651.00 0.3576
651.10 0.3572
651.20 0.3569
651.30 0.3565
651.40 0.356
651.50 0.3555
651.60 0.3551
651.70 0.3546
651.80 0.3541
651.90 0.3537
652.00 0.3532
652.10 0.3528
652.20 0.3523
652.30 0.3518
652.40 0.3512
652.50 0.3506
652.60 0.35
652.70 0.3494
652.80 0.3488
652.90 0.3482
653.00 0.3476
653.10 0.347
653.20 0.3464
653.30 0.3457
653.40 0.3449
653.50 0.344
653.60 0.3432
653.70 0.3424
653.80 0.3416
653.90 0.3407
654.00 0.3399
654.10 0.3391
654.20 0.3382
654.30 0.3374
654.40 0.3363
654.50 0.3353
654.60 0.3342
654.70 0.3332
654.80 0.3321
654.90 0.3309
655.00 0.3297
655.10 0.3285
655.20 0.3273
655.30 0.326
655.40 0.3247
655.50 0.3234
655.60 0.3221
655.70 0.3207
655.80 0.3194
655.90 0.318
656.00 0.3167
656.10 0.3155
656.20 0.3219
656.30 0.3361
656.40 0.3168
656.50 0.3151
656.60 0.316
656.70 0.317
656.80 0.318
656.90 0.319
657.00 0.32
657.10 0.3209
657.20 0.3219
657.30 0.3228
657.40 0.3236
657.50 0.3244
657.60 0.3252
657.70 0.326
657.80 0.3268
657.90 0.3275
658.00 0.3281
658.10 0.3288
658.20 0.3294
658.30 0.33
658.40 0.3305
658.50 0.3309
658.60 0.3313
658.70 0.3317
658.80 0.3322
658.90 0.3326
659.00 0.333
659.10 0.3334
659.20 0.3338
659.30 0.3342
659.40 0.3344
659.50 0.3346
659.60 0.3348
659.70 0.335
659.80 0.3352
659.90 0.3353
660.00 0.3355
660.10 0.3357
660.20 0.3359
660.30 0.3361
660.40 0.3361
660.50 0.3362
660.60 0.3362
660.70 0.3362
660.80 0.3363
660.90 0.3363
661.00 0.3364
661.10 0.3364
661.20 0.3364
661.30 0.3365
661.40 0.3364
661.50 0.3364
661.60 0.3363
661.70 0.3363
661.80 0.3362
661.90 0.3362
662.00 0.3362
662.10 0.3361
662.20 0.3361
662.30 0.336
662.40 0.3359
662.50 0.3358
662.60 0.3357
662.70 0.3356
662.80 0.3355
662.90 0.3354
663.00 0.3353
663.10 0.3352
663.20 0.3351
663.30 0.335
663.40 0.3349
663.50 0.3348
663.60 0.3347
663.70 0.3345
663.80 0.3344
663.90 0.3343
664.00 0.3341
664.10 0.334
664.20 0.3339
664.30 0.3338
664.40 0.3336
664.50 0.3335
664.60 0.3333
664.70 0.3332
664.80 0.333
664.90 0.3329
665.00 0.3327
665.10 0.3326
665.20 0.3324
665.30 0.3323
665.40 0.3321
665.50 0.332
665.60 0.3318
665.70 0.3316
665.80 0.3315
665.90 0.3313
666.00 0.3312
666.10 0.331
666.20 0.3308
666.30 0.3307
666.40 0.3305
666.50 0.3303
666.60 0.3302
666.70 0.33
666.80 0.3298
666.90 0.3297
667.00 0.3295
667.10 0.3293
667.20 0.3292
667.30 0.329
667.40 0.3288
667.50 0.3287
667.60 0.3285
667.70 0.3283
667.80 0.3281
667.90 0.328
668.00 0.3278
668.10 0.3276
668.20 0.3275
668.30 0.3273
668.40 0.3271
668.50 0.3269
668.60 0.3268
668.70 0.3266
668.80 0.3264
668.90 0.3262
669.00 0.3261
669.10 0.3259
669.20 0.3257
669.30 0.3255
669.40 0.3254
669.50 0.3252
669.60 0.325
669.70 0.3248
669.80 0.3246
669.90 0.3245
670.00 0.3243
670.10 0.3241
670.20 0.3239
670.30 0.3238
670.40 0.3236
670.50 0.3234
670.60 0.3232
670.70 0.323
670.80 0.3229
670.90 0.3227
671.00 0.3225
671.10 0.3223
671.20 0.3222
671.30 0.322
671.40 0.3218
671.50 0.3216
671.60 0.3214
671.70 0.3213
671.80 0.3211
671.90 0.3209
672.00 0.3207
672.10 0.3206
672.20 0.3204
672.30 0.3202
672.40 0.32
672.50 0.3198
672.60 0.3197
672.70 0.3195
672.80 0.3193
672.90 0.3191
673.00 0.319
673.10 0.3188
673.20 0.3186
673.30 0.3184
673.40 0.3182
673.50 0.3181
673.60 0.3179
673.70 0.3177
673.80 0.3175
673.90 0.3174
674.00 0.3172
674.10 0.317
674.20 0.3168
674.30 0.3166
674.40 0.3165
674.50 0.3163
674.60 0.3161
674.70 0.3159
674.80 0.3158
674.90 0.3156
675.00 0.3154
675.10 0.3152
675.20 0.315
675.30 0.3149
675.40 0.3147
675.50 0.3145
675.60 0.3143
675.70 0.3142
675.80 0.314
675.90 0.3138
676.00 0.3136
676.10 0.3135
676.20 0.3133
676.30 0.3131
676.40 0.3129
676.50 0.3128
676.60 0.3126
676.70 0.3124
676.80 0.3122
676.90 0.312
677.00 0.3119
677.10 0.3117
677.20 0.3115
677.30 0.3113
677.40 0.3112
677.50 0.311
677.60 0.3108
677.70 0.3106
677.80 0.3105
677.90 0.3103
678.00 0.3101
678.10 0.3099
678.20 0.3098
678.30 0.3096
678.40 0.3094
678.50 0.3092
678.60 0.3091
678.70 0.3089
678.80 0.3087
678.90 0.3086
679.00 0.3084
679.10 0.3082
679.20 0.308
679.30 0.3079
679.40 0.3077
679.50 0.3075
679.60 0.3073
679.70 0.3072
679.80 0.307
679.90 0.3068
680.00 0.3066
680.10 0.3065
680.20 0.3063
680.30 0.3061
680.40 0.306
680.50 0.3058
680.60 0.3056
680.70 0.3054
680.80 0.3053
680.90 0.3051
681.00 0.3049
681.10 0.3047
681.20 0.3046
681.30 0.3044
681.40 0.3042
681.50 0.3041
681.60 0.3039
681.70 0.3037
681.80 0.3035
681.90 0.3034
682.00 0.3032
682.10 0.303
682.20 0.3029
682.30 0.3027
682.40 0.3025
682.50 0.3024
682.60 0.3022
682.70 0.302
682.80 0.3018
682.90 0.3017
683.00 0.3015
683.10 0.3013
683.20 0.3012
683.30 0.301
683.40 0.3008
683.50 0.3007
683.60 0.3005
683.70 0.3003
683.80 0.3002
683.90 0.3
684.00 0.2998
684.10 0.2996
684.20 0.2995
684.30 0.2993
684.40 0.2991
684.50 0.299
684.60 0.2988
684.70 0.2986
684.80 0.2985
684.90 0.2983
685.00 0.2981
685.10 0.298
685.20 0.2978
685.30 0.2976
685.40 0.2975
685.50 0.2973
685.60 0.2971
685.70 0.297
685.80 0.2968
685.90 0.2966
686.00 0.2965
686.10 0.2963
686.20 0.2961
686.30 0.296
686.40 0.2958
686.50 0.2956
686.60 0.2955
686.70 0.2953
686.80 0.2951
686.90 0.295
687.00 0.2948
687.10 0.2946
687.20 0.2945
687.30 0.2943
687.40 0.2941
687.50 0.294
687.60 0.2938
687.70 0.2936
687.80 0.2935
687.90 0.2933
688.00 0.2932
688.10 0.293
688.20 0.2928
688.30 0.2927
688.40 0.2925
688.50 0.2923
688.60 0.2922
688.70 0.292
688.80 0.2918
688.90 0.2917
689.00 0.2915
689.10 0.2914
689.20 0.2912
689.30 0.291
689.40 0.2909
689.50 0.2907
689.60 0.2905
689.70 0.2904
689.80 0.2902
689.90 0.2901
690.00 0.2899
690.10 0.2897
690.20 0.2896
690.30 0.2894
690.40 0.2893
690.50 0.2891
690.60 0.2889
690.70 0.2888
690.80 0.2886
690.90 0.2884
691.00 0.2883
691.10 0.2881
691.20 0.288
691.30 0.2878
691.40 0.2876
691.50 0.2875
691.60 0.2873
691.70 0.2872
691.80 0.287
691.90 0.2868
692.00 0.2867
692.10 0.2865
692.20 0.2864
692.30 0.2862
692.40 0.286
692.50 0.2859
692.60 0.2857
692.70 0.2856
692.80 0.2854
692.90 0.2852
693.00 0.2851
693.10 0.2849
693.20 0.2848
693.30 0.2846
693.40 0.2845
693.50 0.2843
693.60 0.2841
693.70 0.284
693.80 0.2838
693.90 0.2837
694.00 0.2835
694.10 0.2833
694.20 0.2832
694.30 0.283
694.40 0.2829
694.50 0.2827
694.60 0.2826
694.70 0.2824
694.80 0.2822
694.90 0.2821
695.00 0.2819
695.10 0.2818
695.20 0.2816
695.30 0.2815
695.40 0.2813
695.50 0.2811
695.60 0.281
695.70 0.2808
695.80 0.2807
695.90 0.2805
696.00 0.2804
696.10 0.2802
696.20 0.2801
696.30 0.2799
696.40 0.2797
696.50 0.2796
696.60 0.2794
696.70 0.2793
696.80 0.2791
696.90 0.279
697.00 0.2788
697.10 0.2787
697.20 0.2785
697.30 0.2784
697.40 0.2782
697.50 0.278
697.60 0.2779
697.70 0.2777
697.80 0.2776
697.90 0.2774
698.00 0.2773
698.10 0.2771
698.20 0.277
698.30 0.2768
698.40 0.2767
698.50 0.2765
698.60 0.2764
698.70 0.2762
698.80 0.2761
698.90 0.2759
699.00 0.2757
699.10 0.2756
699.20 0.2754
699.30 0.2753
699.40 0.2751
699.50 0.275
699.60 0.2748
699.70 0.2747
699.80 0.2745
699.90 0.2744
700.00 0.2742
700.10 0.2741
700.20 0.2739
700.30 0.2738
700.40 0.2736
700.50 0.2735
700.60 0.2733
700.70 0.2732
700.80 0.273
700.90 0.2729
701.00 0.2727
701.10 0.2726
701.20 0.2724
701.30 0.2723
701.40 0.2721
701.50 0.272
701.60 0.2718
701.70 0.2717
701.80 0.2715
701.90 0.2714
702.00 0.2712
702.10 0.2711
702.20 0.2709
702.30 0.2708
702.40 0.2706
702.50 0.2705
702.60 0.2703
702.70 0.2702
702.80 0.27
702.90 0.2699
703.00 0.2697
703.10 0.2696
703.20 0.2694
703.30 0.2693
703.40 0.2691
703.50 0.269
703.60 0.2688
703.70 0.2687
703.80 0.2686
703.90 0.2684
704.00 0.2683
704.10 0.2681
704.20 0.268
704.30 0.2678
704.40 0.2677
704.50 0.2675
704.60 0.2674
704.70 0.2672
704.80 0.2671
704.90 0.2669
705.00 0.2668
705.10 0.2666
705.20 0.2665
705.30 0.2663
705.40 0.2662
705.50 0.2661
705.60 0.2659
705.70 0.2658
705.80 0.2656
705.90 0.2655
706.00 0.2653
706.10 0.2652
706.20 0.265
706.30 0.2649
706.40 0.2647
706.50 0.2646
706.60 0.2645
706.70 0.2643
706.80 0.2642
706.90 0.264
707.00 0.2639
707.10 0.2637
707.20 0.2636
707.30 0.2635
707.40 0.2633
707.50 0.2632
707.60 0.263
707.70 0.2629
707.80 0.2627
707.90 0.2626
708.00 0.2624
708.10 0.2623
708.20 0.2622
708.30 0.262
708.40 0.2619
708.50 0.2617
708.60 0.2616
708.70 0.2614
708.80 0.2613
708.90 0.2612
709.00 0.261
709.10 0.2609
709.20 0.2607
709.30 0.2606
709.40 0.2604
709.50 0.2603
709.60 0.2602
709.70 0.26
709.80 0.2599
709.90 0.2597
710.00 0.2596
710.10 0.2594
710.20 0.2593
710.30 0.2592
710.40 0.259
710.50 0.2589
710.60 0.2587
710.70 0.2586
710.80 0.2585
710.90 0.2583
711.00 0.2582
711.10 0.258
711.20 0.2579
711.30 0.2578
711.40 0.2576
711.50 0.2575
711.60 0.2573
711.70 0.2572
711.80 0.2571
711.90 0.2569
712.00 0.2568
712.10 0.2566
712.20 0.2565
712.30 0.2564
712.40 0.2562
712.50 0.2561
712.60 0.256
712.70 0.2558
712.80 0.2557
712.90 0.2555
713.00 0.2554
713.10 0.2553
713.20 0.2551
713.30 0.255
713.40 0.2548
713.50 0.2547
713.60 0.2546
713.70 0.2544
713.80 0.2543
713.90 0.2542
714.00 0.254
714.10 0.2539
714.20 0.2537
714.30 0.2536
714.40 0.2535
714.50 0.2533
714.60 0.2532
714.70 0.253
714.80 0.2529
714.90 0.2528
715.00 0.2526
715.10 0.2525
715.20 0.2524
715.30 0.2522
715.40 0.2521
715.50 0.252
715.60 0.2518
715.70 0.2517
715.80 0.2515
715.90 0.2514
716.00 0.2513
716.10 0.2511
716.20 0.251
716.30 0.2509
716.40 0.2507
716.50 0.2506
716.60 0.2505
716.70 0.2503
716.80 0.2502
716.90 0.2501
717.00 0.2499
717.10 0.2498
717.20 0.2497
717.30 0.2495
717.40 0.2494
717.50 0.2493
717.60 0.2491
717.70 0.249
717.80 0.2489
717.90 0.2487
718.00 0.2486
718.10 0.2484
718.20 0.2483
718.30 0.2482
718.40 0.248
718.50 0.2479
718.60 0.2478
718.70 0.2476
718.80 0.2475
718.90 0.2474
719.00 0.2472
719.10 0.2471
719.20 0.247
719.30 0.2468
719.40 0.2467
719.50 0.2466
719.60 0.2464
719.70 0.2463
719.80 0.2462
719.90 0.246
720.00 0.2459
720.10 0.2458
720.20 0.2457
720.30 0.2455
720.40 0.2454
720.50 0.2453
720.60 0.2451
720.70 0.245
720.80 0.2449
720.90 0.2447
721.00 0.2446
721.10 0.2445
721.20 0.2443
721.30 0.2442
721.40 0.2441
721.50 0.2439
721.60 0.2438
721.70 0.2437
721.80 0.2436
721.90 0.2434
722.00 0.2433
722.10 0.2432
722.20 0.243
722.30 0.2429
722.40 0.2428
722.50 0.2426
722.60 0.2425
722.70 0.2424
722.80 0.2423
722.90 0.2421
723.00 0.242
723.10 0.2419
723.20 0.2417
723.30 0.2416
723.40 0.2415
723.50 0.2413
723.60 0.2412
723.70 0.2411
723.80 0.241
723.90 0.2408
724.00 0.2407
724.10 0.2406
724.20 0.2404
724.30 0.2403
724.40 0.2402
724.50 0.2401
724.60 0.2399
724.70 0.2398
724.80 0.2397
724.90 0.2395
725.00 0.2394
725.10 0.2393
725.20 0.2392
725.30 0.239
725.40 0.2389
725.50 0.2388
725.60 0.2387
725.70 0.2385
725.80 0.2384
725.90 0.2383
726.00 0.2381
726.10 0.238
726.20 0.2379
726.30 0.2378
726.40 0.2376
726.50 0.2375
726.60 0.2374
726.70 0.2373
726.80 0.2371
726.90 0.237
727.00 0.2369
727.10 0.2368
727.20 0.2366
727.30 0.2365
727.40 0.2364
727.50 0.2363
727.60 0.2361
727.70 0.236
727.80 0.2359
727.90 0.2358
728.00 0.2356
728.10 0.2355
728.20 0.2354
728.30 0.2352
728.40 0.2351
728.50 0.235
728.60 0.2349
728.70 0.2347
728.80 0.2346
728.90 0.2345
729.00 0.2344
729.10 0.2342
729.20 0.2341
729.30 0.234
729.40 0.2339
729.50 0.2338
729.60 0.2336
729.70 0.2335
729.80 0.2334
729.90 0.2333
730.00 0.2331
730.10 0.233
730.20 0.2329
730.30 0.2328
730.40 0.2326
730.50 0.2325
730.60 0.2324
730.70 0.2323
730.80 0.2321
730.90 0.232
731.00 0.2319
731.10 0.2318
731.20 0.2317
731.30 0.2315
731.40 0.2314
731.50 0.2313
731.60 0.2312
731.70 0.2311
731.80 0.2309
731.90 0.2308
732.00 0.2307
732.10 0.2306
732.20 0.2304
732.30 0.2303
732.40 0.2302
732.50 0.2301
732.60 0.23
732.70 0.2298
732.80 0.2297
732.90 0.2296
733.00 0.2295
733.10 0.2294
733.20 0.2292
733.30 0.2291
733.40 0.229
733.50 0.2289
733.60 0.2288
733.70 0.2286
733.80 0.2285
733.90 0.2284
734.00 0.2283
734.10 0.2282
734.20 0.228
734.30 0.2279
734.40 0.2278
734.50 0.2277
734.60 0.2276
734.70 0.2274
734.80 0.2273
734.90 0.2272
735.00 0.2271
735.10 0.227
735.20 0.2268
735.30 0.2267
735.40 0.2266
735.50 0.2265
735.60 0.2264
735.70 0.2262
735.80 0.2261
735.90 0.226
736.00 0.2259
736.10 0.2258
736.20 0.2256
736.30 0.2255
736.40 0.2254
736.50 0.2253
736.60 0.2252
736.70 0.225
736.80 0.2249
736.90 0.2248
737.00 0.2247
737.10 0.2246
737.20 0.2245
737.30 0.2243
737.40 0.2242
737.50 0.2241
737.60 0.224
737.70 0.2239
737.80 0.2237
737.90 0.2236
738.00 0.2235
738.10 0.2234
738.20 0.2233
738.30 0.2232
738.40 0.223
738.50 0.2229
738.60 0.2228
738.70 0.2227
738.80 0.2226
738.90 0.2225
739.00 0.2223
739.10 0.2222
739.20 0.2221
739.30 0.222
739.40 0.2219
739.50 0.2217
739.60 0.2216
739.70 0.2215
739.80 0.2214
739.90 0.2213
740.00 0.2212
740.10 0.221
740.20 0.2209
740.30 0.2208
740.40 0.2207
740.50 0.2206
740.60 0.2205
740.70 0.2204
740.80 0.2202
740.90 0.2201
741.00 0.22
741.10 0.2199
741.20 0.2198
741.30 0.2197
741.40 0.2196
741.50 0.2194
741.60 0.2193
741.70 0.2192
741.80 0.2191
741.90 0.219
742.00 0.2189
742.10 0.2188
742.20 0.2187
742.30 0.2185
742.40 0.2184
742.50 0.2183
742.60 0.2182
742.70 0.2181
742.80 0.218
742.90 0.2179
743.00 0.2177
743.10 0.2176
743.20 0.2175
743.30 0.2174
743.40 0.2173
743.50 0.2172
743.60 0.2171
743.70 0.217
743.80 0.2168
743.90 0.2167
744.00 0.2166
744.10 0.2165
744.20 0.2164
744.30 0.2163
744.40 0.2162
744.50 0.2161
744.60 0.2159
744.70 0.2158
744.80 0.2157
744.90 0.2156
745.00 0.2155
745.10 0.2154
745.20 0.2153
745.30 0.2152
745.40 0.215
745.50 0.2149
745.60 0.2148
745.70 0.2147
745.80 0.2146
745.90 0.2145
746.00 0.2144
746.10 0.2143
746.20 0.2142
746.30 0.214
746.40 0.2139
746.50 0.2138
746.60 0.2137
746.70 0.2136
746.80 0.2135
746.90 0.2134
747.00 0.2133
747.10 0.2132
747.20 0.213
747.30 0.2129
747.40 0.2128
747.50 0.2127
747.60 0.2126
747.70 0.2125
747.80 0.2124
747.90 0.2123
748.00 0.2122
748.10 0.212
748.20 0.2119
748.30 0.2118
748.40 0.2117
748.50 0.2116
748.60 0.2115
748.70 0.2114
748.80 0.2113
748.90 0.2112
749.00 0.2111
749.10 0.2109
749.20 0.2108
749.30 0.2107
749.40 0.2106
749.50 0.2105
749.60 0.2104
749.70 0.2103
749.80 0.2102
749.90 0.2101
750.00 0.21
750.10 0.2098
750.20 0.2097
750.30 0.2096
750.40 0.2095
750.50 0.2094
750.60 0.2093
750.70 0.2092
750.80 0.2091
750.90 0.209
751.00 0.2089
751.10 0.2088
751.20 0.2087
751.30 0.2086
751.40 0.2085
751.50 0.2084
751.60 0.2082
751.70 0.2081
751.80 0.208
751.90 0.2079
752.00 0.2078
752.10 0.2077
752.20 0.2076
752.30 0.2075
752.40 0.2074
752.50 0.2073
752.60 0.2072
752.70 0.2071
752.80 0.207
752.90 0.2069
753.00 0.2068
753.10 0.2066
753.20 0.2065
753.30 0.2064
753.40 0.2063
753.50 0.2062
753.60 0.2061
753.70 0.206
753.80 0.2059
753.90 0.2058
754.00 0.2057
754.10 0.2056
754.20 0.2055
754.30 0.2054
754.40 0.2053
754.50 0.2052
754.60 0.2051
754.70 0.205
754.80 0.2049
754.90 0.2047
755.00 0.2046
755.10 0.2045
755.20 0.2044
755.30 0.2043
755.40 0.2042
755.50 0.2041
755.60 0.204
755.70 0.2039
755.80 0.2038
755.90 0.2037
756.00 0.2036
756.10 0.2035
756.20 0.2034
756.30 0.2033
756.40 0.2032
756.50 0.2031
756.60 0.203
756.70 0.2029
756.80 0.2028
756.90 0.2027
757.00 0.2026
757.10 0.2024
757.20 0.2023
757.30 0.2022
757.40 0.2021
757.50 0.202
757.60 0.2019
757.70 0.2018
757.80 0.2017
757.90 0.2016
758.00 0.2015
758.10 0.2014
758.20 0.2013
758.30 0.2012
758.40 0.2011
758.50 0.201
758.60 0.2009
758.70 0.2008
758.80 0.2007
758.90 0.2006
759.00 0.2005
759.10 0.2004
759.20 0.2003
759.30 0.2002
759.40 0.2001
759.50 0.2
759.60 0.1999
759.70 0.1998
759.80 0.1997
759.90 0.1996
760.00 0.1995
760.10 0.1994
760.20 0.1993
760.30 0.1992
760.40 0.199
760.50 0.1989
760.60 0.1988
760.70 0.1987
760.80 0.1986
760.90 0.1985
761.00 0.1984
761.10 0.1983
761.20 0.1982
761.30 0.1981
761.40 0.198
761.50 0.1979
761.60 0.1978
761.70 0.1977
761.80 0.1976
761.90 0.1975
762.00 0.1974
762.10 0.1973
762.20 0.1972
762.30 0.1971
762.40 0.197
762.50 0.1969
762.60 0.1968
762.70 0.1967
762.80 0.1966
762.90 0.1965
763.00 0.1964
763.10 0.1963
763.20 0.1963
763.30 0.1962
763.40 0.1961
763.50 0.196
763.60 0.1959
763.70 0.1958
763.80 0.1957
763.90 0.1956
764.00 0.1955
764.10 0.1954
764.20 0.1953
764.30 0.1952
764.40 0.1951
764.50 0.195
764.60 0.1949
764.70 0.1948
764.80 0.1947
764.90 0.1946
765.00 0.1945
765.10 0.1944
765.20 0.1943
765.30 0.1942
765.40 0.1941
765.50 0.194
765.60 0.1939
765.70 0.1938
765.80 0.1937
765.90 0.1936
766.00 0.1935
766.10 0.1934
766.20 0.1933
766.30 0.1932
766.40 0.1931
766.50 0.193
766.60 0.1929
766.70 0.1928
766.80 0.1927
766.90 0.1926
767.00 0.1925
767.10 0.1924
767.20 0.1923
767.30 0.1922
767.40 0.1921
767.50 0.192
767.60 0.1919
767.70 0.1918
767.80 0.1917
767.90 0.1916
768.00 0.1915
768.10 0.1914
768.20 0.1913
768.30 0.1912
768.40 0.1911
768.50 0.191
768.60 0.191
768.70 0.1909
768.80 0.1908
768.90 0.1907
769.00 0.1906
769.10 0.1905
769.20 0.1904
769.30 0.1903
769.40 0.1902
769.50 0.1901
769.60 0.19
769.70 0.1899
769.80 0.1898
769.90 0.1897
770.00 0.1896
770.10 0.1895
770.20 0.1894
770.30 0.1893
770.40 0.1892
770.50 0.1891
770.60 0.189
770.70 0.1889
770.80 0.1888
770.90 0.1887
771.00 0.1887
771.10 0.1886
771.20 0.1885
771.30 0.1884
771.40 0.1883
771.50 0.1882
771.60 0.1881
771.70 0.188
771.80 0.1879
771.90 0.1878
772.00 0.1877
772.10 0.1876
772.20 0.1875
772.30 0.1874
772.40 0.1873
772.50 0.1872
772.60 0.1872
772.70 0.1871
772.80 0.187
772.90 0.1869
773.00 0.1868
773.10 0.1867
773.20 0.1866
773.30 0.1865
773.40 0.1864
773.50 0.1863
773.60 0.1862
773.70 0.1861
773.80 0.186
773.90 0.1859
774.00 0.1858
774.10 0.1858
774.20 0.1857
774.30 0.1856
774.40 0.1855
774.50 0.1854
774.60 0.1853
774.70 0.1852
774.80 0.1851
774.90 0.185
775.00 0.1849
775.10 0.1848
775.20 0.1847
775.30 0.1846
775.40 0.1845
775.50 0.1845
775.60 0.1844
775.70 0.1843
775.80 0.1842
775.90 0.1841
776.00 0.184
776.10 0.1839
776.20 0.1838
776.30 0.1837
776.40 0.1836
776.50 0.1835
776.60 0.1834
776.70 0.1834
776.80 0.1833
776.90 0.1832
777.00 0.1831
777.10 0.183
777.20 0.1829
777.30 0.1828
777.40 0.1827
777.50 0.1826
777.60 0.1825
777.70 0.1824
777.80 0.1823
777.90 0.1823
778.00 0.1822
778.10 0.1821
778.20 0.182
778.30 0.1819
778.40 0.1818
778.50 0.1817
778.60 0.1816
778.70 0.1815
778.80 0.1814
778.90 0.1813
779.00 0.1813
779.10 0.1812
779.20 0.1811
779.30 0.181
779.40 0.1809
779.50 0.1808
779.60 0.1807
779.70 0.1806
779.80 0.1805
779.90 0.1804
780.00 0.1803
780.10 0.1803
780.20 0.1802
780.30 0.1801
780.40 0.18
780.50 0.1799
780.60 0.1798
780.70 0.1797
780.80 0.1796
780.90 0.1795
781.00 0.1795
781.10 0.1794
781.20 0.1793
781.30 0.1792
781.40 0.1791
781.50 0.179
781.60 0.1789
781.70 0.1788
781.80 0.1788
781.90 0.1787
782.00 0.1786
782.10 0.1785
782.20 0.1784
782.30 0.1783
782.40 0.1782
782.50 0.1781
782.60 0.178
782.70 0.178
782.80 0.1779
782.90 0.1778
783.00 0.1777
783.10 0.1776
783.20 0.1775
783.30 0.1774
783.40 0.1773
783.50 0.1773
783.60 0.1772
783.70 0.1771
783.80 0.177
783.90 0.1769
784.00 0.1768
784.10 0.1767
784.20 0.1766
784.30 0.1766
784.40 0.1765
784.50 0.1764
784.60 0.1763
784.70 0.1762
784.80 0.1761
784.90 0.176
785.00 0.1759
785.10 0.1759
785.20 0.1758
785.30 0.1757
785.40 0.1756
785.50 0.1755
785.60 0.1754
785.70 0.1753
785.80 0.1753
785.90 0.1752
786.00 0.1751
786.10 0.175
786.20 0.1749
786.30 0.1748
786.40 0.1747
786.50 0.1747
786.60 0.1746
786.70 0.1745
786.80 0.1744
786.90 0.1743
787.00 0.1742
787.10 0.1741
787.20 0.174
787.30 0.174
787.40 0.1739
787.50 0.1738
787.60 0.1737
787.70 0.1736
787.80 0.1735
787.90 0.1734
788.00 0.1734
788.10 0.1733
788.20 0.1732
788.30 0.1731
788.40 0.173
788.50 0.1729
788.60 0.1728
788.70 0.1728
788.80 0.1727
788.90 0.1726
789.00 0.1725
789.10 0.1724
789.20 0.1723
789.30 0.1722
789.40 0.1722
789.50 0.1721
789.60 0.172
789.70 0.1719
789.80 0.1718
789.90 0.1717
790.00 0.1717
790.10 0.1716
790.20 0.1715
790.30 0.1714
790.40 0.1713
790.50 0.1712
790.60 0.1712
790.70 0.1711
790.80 0.171
790.90 0.1709
791.00 0.1708
791.10 0.1707
791.20 0.1707
791.30 0.1706
791.40 0.1705
791.50 0.1704
791.60 0.1703
791.70 0.1702
791.80 0.1702
791.90 0.1701
792.00 0.17
792.10 0.1699
792.20 0.1698
792.30 0.1697
792.40 0.1697
792.50 0.1696
792.60 0.1695
792.70 0.1694
792.80 0.1693
792.90 0.1692
793.00 0.1692
793.10 0.1691
793.20 0.169
793.30 0.1689
793.40 0.1688
793.50 0.1687
793.60 0.1687
793.70 0.1686
793.80 0.1685
793.90 0.1684
794.00 0.1683
794.10 0.1683
794.20 0.1682
794.30 0.1681
794.40 0.168
794.50 0.1679
794.60 0.1678
794.70 0.1678
794.80 0.1677
794.90 0.1676
795.00 0.1675
795.10 0.1674
795.20 0.1674
795.30 0.1673
795.40 0.1672
795.50 0.1671
795.60 0.167
795.70 0.1669
795.80 0.1669
795.90 0.1668
796.00 0.1667
796.10 0.1666
796.20 0.1665
796.30 0.1665
796.40 0.1664
796.50 0.1663
796.60 0.1662
796.70 0.1661
796.80 0.1661
796.90 0.166
797.00 0.1659
797.10 0.1658
797.20 0.1657
797.30 0.1656
797.40 0.1656
797.50 0.1655
797.60 0.1654
797.70 0.1653
797.80 0.1652
797.90 0.1652
798.00 0.1651
798.10 0.165
798.20 0.1649
798.30 0.1648
798.40 0.1648
798.50 0.1647
798.60 0.1646
798.70 0.1645
798.80 0.1644
798.90 0.1644
799.00 0.1643
799.10 0.1642
799.20 0.1641
799.30 0.164
799.40 0.164
799.50 0.1639
799.60 0.1638
799.70 0.1637
799.80 0.1636
799.90 0.1636
800.00 0.1635
800.10 0.1634
800.20 0.1633
800.30 0.1632
800.40 0.1632
800.50 0.1631
800.60 0.163
800.70 0.1629
800.80 0.1628
800.90 0.1628
801.00 0.1627
801.10 0.1626
801.20 0.1625
801.30 0.1625
801.40 0.1624
801.50 0.1623
801.60 0.1622
801.70 0.1621
801.80 0.1621
801.90 0.162
802.00 0.1619
802.10 0.1618
802.20 0.1618
802.30 0.1617
802.40 0.1616
802.50 0.1615
802.60 0.1614
802.70 0.1614
802.80 0.1613
802.90 0.1612
803.00 0.1611
803.10 0.1611
803.20 0.161
803.30 0.1609
803.40 0.1608
803.50 0.1607
803.60 0.1607
803.70 0.1606
803.80 0.1605
803.90 0.1604
804.00 0.1604
804.10 0.1603
804.20 0.1602
804.30 0.1601
804.40 0.16
804.50 0.16
804.60 0.1599
804.70 0.1598
804.80 0.1597
804.90 0.1597
805.00 0.1596
805.10 0.1595
805.20 0.1594
805.30 0.1594
805.40 0.1593
805.50 0.1592
805.60 0.1591
805.70 0.159
805.80 0.159
805.90 0.1589
806.00 0.1588
806.10 0.1587
806.20 0.1587
806.30 0.1586
806.40 0.1585
806.50 0.1584
806.60 0.1584
806.70 0.1583
806.80 0.1582
806.90 0.1581
807.00 0.1581
807.10 0.158
807.20 0.1579
807.30 0.1578
807.40 0.1577
807.50 0.1577
807.60 0.1576
807.70 0.1575
807.80 0.1574
807.90 0.1574
808.00 0.1573
808.10 0.1572
808.20 0.1571
808.30 0.1571
808.40 0.157
808.50 0.1569
808.60 0.1568
808.70 0.1568
808.80 0.1567
808.90 0.1566
809.00 0.1565
809.10 0.1565
809.20 0.1564
809.30 0.1563
809.40 0.1562
809.50 0.1562
809.60 0.1561
809.70 0.156
809.80 0.1559
809.90 0.1559
810.00 0.1558
810.10 0.1557
810.20 0.1556
810.30 0.1556
810.40 0.1555
810.50 0.1554
810.60 0.1553
810.70 0.1553
810.80 0.1552
810.90 0.1551
811.00 0.155
811.10 0.155
811.20 0.1549
811.30 0.1548
811.40 0.1547
811.50 0.1547
811.60 0.1546
811.70 0.1545
811.80 0.1545
811.90 0.1544
812.00 0.1543
812.10 0.1542
812.20 0.1542
812.30 0.1541
812.40 0.154
812.50 0.1539
812.60 0.1539
812.70 0.1538
812.80 0.1537
812.90 0.1536
813.00 0.1536
813.10 0.1535
813.20 0.1534
813.30 0.1534
813.40 0.1533
813.50 0.1532
813.60 0.1531
813.70 0.1531
813.80 0.153
813.90 0.1529
814.00 0.1528
814.10 0.1528
814.20 0.1527
814.30 0.1526
814.40 0.1526
814.50 0.1525
814.60 0.1524
814.70 0.1523
814.80 0.1523
814.90 0.1522
815.00 0.1521
815.10 0.152
815.20 0.152
815.30 0.1519
815.40 0.1518
815.50 0.1518
815.60 0.1517
815.70 0.1516
815.80 0.1515
815.90 0.1515
816.00 0.1514
816.10 0.1513
816.20 0.1513
816.30 0.1512
816.40 0.1511
816.50 0.151
816.60 0.151
816.70 0.1509
816.80 0.1508
816.90 0.1507
817.00 0.1507
817.10 0.1506
817.20 0.1505
817.30 0.1505
817.40 0.1504
817.50 0.1503
817.60 0.1502
817.70 0.1502
817.80 0.1501
817.90 0.15
818.00 0.15
818.10 0.1499
818.20 0.1498
818.30 0.1497
818.40 0.1497
818.50 0.1496
818.60 0.1495
818.70 0.1495
818.80 0.1494
818.90 0.1493
819.00 0.1492
819.10 0.1492
819.20 0.1491
819.30 0.149
819.40 0.149
819.50 0.1489
819.60 0.1488
819.70 0.1487
819.80 0.1487
819.90 0.1486
820.00 0.1485
820.10 0.1485
820.20 0.1484
820.30 0.1483
820.40 0.1483
820.50 0.1482
820.60 0.1481
820.70 0.148
820.80 0.148
820.90 0.1479
821.00 0.1478
821.10 0.1478
821.20 0.1477
821.30 0.1476
821.40 0.1476
821.50 0.1475
821.60 0.1474
821.70 0.1473
821.80 0.1473
821.90 0.1472
822.00 0.1471
822.10 0.1471
822.20 0.147
822.30 0.1469
822.40 0.1469
822.50 0.1468
822.60 0.1467
822.70 0.1467
822.80 0.1466
822.90 0.1465
823.00 0.1464
823.10 0.1464
823.20 0.1463
823.30 0.1462
823.40 0.1462
823.50 0.1461
823.60 0.146
823.70 0.146
823.80 0.1459
823.90 0.1458
824.00 0.1458
824.10 0.1457
824.20 0.1456
824.30 0.1456
824.40 0.1455
824.50 0.1454
824.60 0.1453
824.70 0.1453
824.80 0.1452
824.90 0.1451
825.00 0.1451
825.10 0.145
825.20 0.1449
825.30 0.1449
825.40 0.1448
825.50 0.1447
825.60 0.1447
825.70 0.1446
825.80 0.1445
825.90 0.1445
826.00 0.1444
826.10 0.1443
826.20 0.1443
826.30 0.1442
826.40 0.1441
826.50 0.1441
826.60 0.144
826.70 0.1439
826.80 0.1438
826.90 0.1438
827.00 0.1437
827.10 0.1436
827.20 0.1436
827.30 0.1435
827.40 0.1434
827.50 0.1434
827.60 0.1433
827.70 0.1432
827.80 0.1432
827.90 0.1431
828.00 0.143
828.10 0.143
828.20 0.1429
828.30 0.1428
828.40 0.1428
828.50 0.1427
828.60 0.1426
828.70 0.1426
828.80 0.1425
828.90 0.1424
829.00 0.1424
829.10 0.1423
829.20 0.1422
829.30 0.1422
829.40 0.1421
829.50 0.142
829.60 0.142
829.70 0.1419
829.80 0.1418
829.90 0.1418
830.00 0.1417
830.10 0.1416
830.20 0.1416
830.30 0.1415
830.40 0.1414
830.50 0.1414
830.60 0.1413
830.70 0.1412
830.80 0.1412
830.90 0.1411
831.00 0.141
831.10 0.141
831.20 0.1409
831.30 0.1408
831.40 0.1408
831.50 0.1407
831.60 0.1407
831.70 0.1406
831.80 0.1405
831.90 0.1405
832.00 0.1404
832.10 0.1403
832.20 0.1403
832.30 0.1402
832.40 0.1401
832.50 0.1401
832.60 0.14
832.70 0.1399
832.80 0.1399
832.90 0.1398
833.00 0.1397
833.10 0.1397
833.20 0.1396
833.30 0.1395
833.40 0.1395
833.50 0.1394
833.60 0.1393
833.70 0.1393
833.80 0.1392
833.90 0.1391
834.00 0.1391
834.10 0.139
834.20 0.139
834.30 0.1389
834.40 0.1388
834.50 0.1388
834.60 0.1387
834.70 0.1386
834.80 0.1386
834.90 0.1385
835.00 0.1384
835.10 0.1384
835.20 0.1383
835.30 0.1382
835.40 0.1382
835.50 0.1381
835.60 0.138
835.70 0.138
835.80 0.1379
835.90 0.1379
836.00 0.1378
836.10 0.1377
836.20 0.1377
836.30 0.1376
836.40 0.1375
836.50 0.1375
836.60 0.1374
836.70 0.1373
836.80 0.1373
836.90 0.1372
837.00 0.1372
837.10 0.1371
837.20 0.137
837.30 0.137
837.40 0.1369
837.50 0.1368
837.60 0.1368
837.70 0.1367
837.80 0.1366
837.90 0.1366
838.00 0.1365
838.10 0.1365
838.20 0.1364
838.30 0.1363
838.40 0.1363
838.50 0.1362
838.60 0.1361
838.70 0.1361
838.80 0.136
838.90 0.1359
839.00 0.1359
839.10 0.1358
839.20 0.1358
839.30 0.1357
839.40 0.1356
839.50 0.1356
839.60 0.1355
839.70 0.1354
839.80 0.1354
839.90 0.1353
840.00 0.1353
840.10 0.1352
840.20 0.1351
840.30 0.1351
840.40 0.135
840.50 0.1349
840.60 0.1349
840.70 0.1348
840.80 0.1348
840.90 0.1347
841.00 0.1346
841.10 0.1346
841.20 0.1345
841.30 0.1344
841.40 0.1344
841.50 0.1343
841.60 0.1343
841.70 0.1342
841.80 0.1341
841.90 0.1341
842.00 0.134
842.10 0.1339
842.20 0.1339
842.30 0.1338
842.40 0.1338
842.50 0.1337
842.60 0.1336
842.70 0.1336
842.80 0.1335
842.90 0.1335
843.00 0.1334
843.10 0.1333
843.20 0.1333
843.30 0.1332
843.40 0.1331
843.50 0.1331
843.60 0.133
843.70 0.133
843.80 0.1329
843.90 0.1328
844.00 0.1328
844.10 0.1327
844.20 0.1327
844.30 0.1326
844.40 0.1325
844.50 0.1325
844.60 0.1324
844.70 0.1323
844.80 0.1323
844.90 0.1322
845.00 0.1322
845.10 0.1321
845.20 0.132
845.30 0.132
845.40 0.1319
845.50 0.1319
845.60 0.1318
845.70 0.1317
845.80 0.1317
845.90 0.1316
846.00 0.1316
846.10 0.1315
846.20 0.1314
846.30 0.1314
846.40 0.1313
846.50 0.1313
846.60 0.1312
846.70 0.1311
846.80 0.1311
846.90 0.131
847.00 0.1309
847.10 0.1309
847.20 0.1308
847.30 0.1308
847.40 0.1307
847.50 0.1306
847.60 0.1306
847.70 0.1305
847.80 0.1305
847.90 0.1304
848.00 0.1304
848.10 0.1303
848.20 0.1302
848.30 0.1302
848.40 0.1301
848.50 0.1301
848.60 0.13
848.70 0.1299
848.80 0.1299
848.90 0.1298
849.00 0.1298
849.10 0.1297
849.20 0.1296
849.30 0.1296
849.40 0.1295
849.50 0.1295
849.60 0.1294
849.70 0.1293
849.80 0.1293
849.90 0.1292
850.00 0.1292
850.10 0.1291
850.20 0.129
850.30 0.129
850.40 0.1289
850.50 0.1289
850.60 0.1288
850.70 0.1287
850.80 0.1287
850.90 0.1286
851.00 0.1286
851.10 0.1285
851.20 0.1285
851.30 0.1284
851.40 0.1283
851.50 0.1283
851.60 0.1282
851.70 0.1282
851.80 0.1281
851.90 0.128
852.00 0.128
852.10 0.1279
852.20 0.1279
852.30 0.1278
852.40 0.1277
852.50 0.1277
852.60 0.1276
852.70 0.1276
852.80 0.1275
852.90 0.1275
853.00 0.1274
853.10 0.1273
853.20 0.1273
853.30 0.1272
853.40 0.1272
853.50 0.1271
853.60 0.1271
853.70 0.127
853.80 0.1269
853.90 0.1269
854.00 0.1268
854.10 0.1268
854.20 0.1267
854.30 0.1266
854.40 0.1266
854.50 0.1265
854.60 0.1265
854.70 0.1264
854.80 0.1264
854.90 0.1263
855.00 0.1262
855.10 0.1262
855.20 0.1261
855.30 0.1261
855.40 0.126
855.50 0.126
855.60 0.1259
855.70 0.1258
855.80 0.1258
855.90 0.1257
856.00 0.1257
856.10 0.1256
856.20 0.1256
856.30 0.1255
856.40 0.1254
856.50 0.1254
856.60 0.1253
856.70 0.1253
856.80 0.1252
856.90 0.1252
857.00 0.1251
857.10 0.125
857.20 0.125
857.30 0.1249
857.40 0.1249
857.50 0.1248
857.60 0.1248
857.70 0.1247
857.80 0.1246
857.90 0.1246
858.00 0.1245
858.10 0.1245
858.20 0.1244
858.30 0.1244
858.40 0.1243
858.50 0.1243
858.60 0.1242
858.70 0.1241
858.80 0.1241
858.90 0.124
859.00 0.124
859.10 0.1239
859.20 0.1239
859.30 0.1238
859.40 0.1237
859.50 0.1237
859.60 0.1236
859.70 0.1236
859.80 0.1235
859.90 0.1235
860.00 0.1234
860.10 0.1234
860.20 0.1233
860.30 0.1232
860.40 0.1232
860.50 0.1231
860.60 0.1231
860.70 0.123
860.80 0.123
860.90 0.1229
861.00 0.1229
861.10 0.1228
861.20 0.1227
861.30 0.1227
861.40 0.1226
861.50 0.1226
861.60 0.1225
861.70 0.1225
861.80 0.1224
861.90 0.1224
862.00 0.1223
862.10 0.1222
862.20 0.1222
862.30 0.1221
862.40 0.1221
862.50 0.122
862.60 0.122
862.70 0.1219
862.80 0.1219
862.90 0.1218
863.00 0.1218
863.10 0.1217
863.20 0.1216
863.30 0.1216
863.40 0.1215
863.50 0.1215
863.60 0.1214
863.70 0.1214
863.80 0.1213
863.90 0.1213
864.00 0.1212
864.10 0.1211
864.20 0.1211
864.30 0.121
864.40 0.121
864.50 0.1209
864.60 0.1209
864.70 0.1208
864.80 0.1208
864.90 0.1207
865.00 0.1207
865.10 0.1206
865.20 0.1206
865.30 0.1205
865.40 0.1204
865.50 0.1204
865.60 0.1203
865.70 0.1203
865.80 0.1202
865.90 0.1202
866.00 0.1201
866.10 0.1201
866.20 0.12
866.30 0.12
866.40 0.1199
866.50 0.1198
866.60 0.1198
866.70 0.1197
866.80 0.1197
866.90 0.1196
867.00 0.1196
867.10 0.1195
867.20 0.1195
867.30 0.1194
867.40 0.1194
867.50 0.1193
867.60 0.1193
867.70 0.1192
867.80 0.1191
867.90 0.1191
868.00 0.119
868.10 0.119
868.20 0.1189
868.30 0.1189
868.40 0.1188
868.50 0.1188
868.60 0.1187
868.70 0.1187
868.80 0.1186
868.90 0.1186
869.00 0.1185
869.10 0.1185
869.20 0.1184
869.30 0.1184
869.40 0.1183
869.50 0.1182
869.60 0.1182
869.70 0.1181
869.80 0.1181
869.90 0.118
870.00 0.118
870.10 0.1179
870.20 0.1179
870.30 0.1178
870.40 0.1178
870.50 0.1177
870.60 0.1177
870.70 0.1176
870.80 0.1176
870.90 0.1175
871.00 0.1175
871.10 0.1174
871.20 0.1173
871.30 0.1173
871.40 0.1172
871.50 0.1172
871.60 0.1171
871.70 0.1171
871.80 0.117
871.90 0.117
872.00 0.1169
872.10 0.1169
872.20 0.1168
872.30 0.1168
872.40 0.1167
872.50 0.1167
872.60 0.1166
872.70 0.1166
872.80 0.1165
872.90 0.1165
873.00 0.1164
873.10 0.1164
873.20 0.1163
873.30 0.1163
873.40 0.1162
873.50 0.1162
873.60 0.1161
873.70 0.116
873.80 0.116
873.90 0.1159
874.00 0.1159
874.10 0.1158
874.20 0.1158
874.30 0.1157
874.40 0.1157
874.50 0.1156
874.60 0.1156
874.70 0.1155
874.80 0.1155
874.90 0.1154
875.00 0.1154
875.10 0.1153
875.20 0.1153
875.30 0.1152
875.40 0.1152
875.50 0.1151
875.60 0.1151
875.70 0.115
875.80 0.115
875.90 0.1149
876.00 0.1149
876.10 0.1148
876.20 0.1148
876.30 0.1147
876.40 0.1147
876.50 0.1146
876.60 0.1146
876.70 0.1145
876.80 0.1145
876.90 0.1144
877.00 0.1144
877.10 0.1143
877.20 0.1143
877.30 0.1142
877.40 0.1142
877.50 0.1141
877.60 0.1141
877.70 0.114
877.80 0.114
877.90 0.1139
878.00 0.1139
878.10 0.1138
878.20 0.1138
878.30 0.1137
878.40 0.1137
878.50 0.1136
878.60 0.1136
878.70 0.1135
878.80 0.1135
878.90 0.1134
879.00 0.1134
879.10 0.1133
879.20 0.1133
879.30 0.1132
879.40 0.1132
879.50 0.1131
879.60 0.1131
879.70 0.113
879.80 0.113
879.90 0.1129
880.00 0.1129
880.10 0.1128
880.20 0.1128
880.30 0.1127
880.40 0.1127
880.50 0.1126
880.60 0.1126
880.70 0.1125
880.80 0.1125
880.90 0.1124
881.00 0.1124
881.10 0.1123
881.20 0.1123
881.30 0.1122
881.40 0.1122
881.50 0.1121
881.60 0.1121
881.70 0.112
881.80 0.112
881.90 0.1119
882.00 0.1119
882.10 0.1118
882.20 0.1118
882.30 0.1117
882.40 0.1117
882.50 0.1116
882.60 0.1116
882.70 0.1115
882.80 0.1115
882.90 0.1114
883.00 0.1114
883.10 0.1113
883.20 0.1113
883.30 0.1112
883.40 0.1112
883.50 0.1111
883.60 0.1111
883.70 0.111
883.80 0.111
883.90 0.1109
884.00 0.1109
884.10 0.1108
884.20 0.1108
884.30 0.1107
884.40 0.1107
884.50 0.1106
884.60 0.1106
884.70 0.1105
884.80 0.1105
884.90 0.1104
885.00 0.1104
885.10 0.1104
885.20 0.1103
885.30 0.1103
885.40 0.1102
885.50 0.1102
885.60 0.1101
885.70 0.1101
885.80 0.11
885.90 0.11
886.00 0.1099
886.10 0.1099
886.20 0.1098
886.30 0.1098
886.40 0.1097
886.50 0.1097
886.60 0.1096
886.70 0.1096
886.80 0.1095
886.90 0.1095
887.00 0.1094
887.10 0.1094
887.20 0.1093
887.30 0.1093
887.40 0.1092
887.50 0.1092
887.60 0.1092
887.70 0.1091
887.80 0.1091
887.90 0.109
888.00 0.109
888.10 0.1089
888.20 0.1089
888.30 0.1088
888.40 0.1088
888.50 0.1087
888.60 0.1087
888.70 0.1086
888.80 0.1086
888.90 0.1085
889.00 0.1085
889.10 0.1084
889.20 0.1084
889.30 0.1083
889.40 0.1083
889.50 0.1082
889.60 0.1082
889.70 0.1082
889.80 0.1081
889.90 0.1081
890.00 0.108
890.10 0.108
890.20 0.1079
890.30 0.1079
890.40 0.1078
890.50 0.1078
890.60 0.1077
890.70 0.1077
890.80 0.1076
890.90 0.1076
891.00 0.1075
891.10 0.1075
891.20 0.1074
891.30 0.1074
891.40 0.1074
891.50 0.1073
891.60 0.1073
891.70 0.1072
891.80 0.1072
891.90 0.1071
892.00 0.1071
892.10 0.107
892.20 0.107
892.30 0.1069
892.40 0.1069
892.50 0.1068
892.60 0.1068
892.70 0.1067
892.80 0.1067
892.90 0.1067
893.00 0.1066
893.10 0.1066
893.20 0.1065
893.30 0.1065
893.40 0.1064
893.50 0.1064
893.60 0.1063
893.70 0.1063
893.80 0.1062
893.90 0.1062
894.00 0.1061
894.10 0.1061
894.20 0.1061
894.30 0.106
894.40 0.106
894.50 0.1059
894.60 0.1059
894.70 0.1058
894.80 0.1058
894.90 0.1057
895.00 0.1057
895.10 0.1056
895.20 0.1056
895.30 0.1056
895.40 0.1055
895.50 0.1055
895.60 0.1054
895.70 0.1054
895.80 0.1053
895.90 0.1053
896.00 0.1052
896.10 0.1052
896.20 0.1051
896.30 0.1051
896.40 0.105
896.50 0.105
896.60 0.105
896.70 0.1049
896.80 0.1049
896.90 0.1048
897.00 0.1048
897.10 0.1047
897.20 0.1047
897.30 0.1046
897.40 0.1046
897.50 0.1046
897.60 0.1045
897.70 0.1045
897.80 0.1044
897.90 0.1044
898.00 0.1043
898.10 0.1043
898.20 0.1042
898.30 0.1042
898.40 0.1042
898.50 0.1041
898.60 0.1041
898.70 0.104
898.80 0.104
898.90 0.1039
899.00 0.1039
899.10 0.1038
899.20 0.1038
899.30 0.1038
899.40 0.1037
899.50 0.1037
899.60 0.1036
899.70 0.1036
899.80 0.1035
899.90 0.1035
900.00 0.1034
900.10 0.1034
900.20 0.1034
900.30 0.1033
900.40 0.1033
900.50 0.1032
900.60 0.1032
900.70 0.1031
900.80 0.1031
900.90 0.103
901.00 0.103
901.10 0.103
901.20 0.1029
901.30 0.1029
901.40 0.1028
901.50 0.1028
901.60 0.1027
901.70 0.1027
901.80 0.1026
901.90 0.1026
902.00 0.1026
902.10 0.1025
902.20 0.1025
902.30 0.1024
902.40 0.1024
902.50 0.1023
902.60 0.1023
902.70 0.1022
902.80 0.1022
902.90 0.1022
903.00 0.1021
903.10 0.1021
903.20 0.102
903.30 0.102
903.40 0.1019
903.50 0.1019
903.60 0.1019
903.70 0.1018
903.80 0.1018
903.90 0.1017
904.00 0.1017
904.10 0.1016
904.20 0.1016
904.30 0.1015
904.40 0.1015
904.50 0.1015
904.60 0.1014
904.70 0.1014
904.80 0.1013
904.90 0.1013
905.00 0.1012
905.10 0.1012
905.20 0.1012
905.30 0.1011
905.40 0.1011
905.50 0.101
905.60 0.101
905.70 0.1009
905.80 0.1009
905.90 0.1009
906.00 0.1008
906.10 0.1008
906.20 0.1007
906.30 0.1007
906.40 0.1006
906.50 0.1006
906.60 0.1006
906.70 0.1005
906.80 0.1005
906.90 0.1004
907.00 0.1004
907.10 0.1003
907.20 0.1003
907.30 0.1003
907.40 0.1002
907.50 0.1002
907.60 0.1001
907.70 0.1001
907.80 0.1
907.90 0.09999
908.00 0.09995
908.10 0.09991
908.20 0.09987
908.30 0.09982
908.40 0.09978
908.50 0.09974
908.60 0.0997
908.70 0.09965
908.80 0.09961
908.90 0.09957
909.00 0.09953
909.10 0.09948
909.20 0.09944
909.30 0.0994
909.40 0.09936
909.50 0.09931
909.60 0.09927
909.70 0.09923
909.80 0.09919
909.90 0.09914
910.00 0.0991
910.10 0.09906
910.20 0.09902
910.30 0.09898
910.40 0.09893
910.50 0.09889
910.60 0.09885
910.70 0.09881
910.80 0.09876
910.90 0.09872
911.00 0.09868
911.10 0.09864
911.20 0.0986
911.30 0.09855
911.40 0.09851
911.50 0.09847
911.60 0.09843
911.70 0.09839
911.80 0.09834
911.90 0.0983
912.00 0.09826
912.10 0.09822
912.20 0.09818
912.30 0.09813
912.40 0.09809
912.50 0.09805
912.60 0.09801
912.70 0.09797
912.80 0.09793
912.90 0.09788
913.00 0.09784
913.10 0.0978
913.20 0.09776
913.30 0.09772
913.40 0.09767
913.50 0.09763
913.60 0.09759
913.70 0.09755
913.80 0.09751
913.90 0.09747
914.00 0.09743
914.10 0.09738
914.20 0.09734
914.30 0.0973
914.40 0.09726
914.50 0.09722
914.60 0.09718
914.70 0.09713
914.80 0.09709
914.90 0.09705
915.00 0.09701
915.10 0.09697
915.20 0.09693
915.30 0.09689
915.40 0.09684
915.50 0.0968
915.60 0.09676
915.70 0.09672
915.80 0.09668
915.90 0.09664
916.00 0.0966
916.10 0.09656
916.20 0.09651
916.30 0.09647
916.40 0.09643
916.50 0.09639
916.60 0.09635
916.70 0.09631
916.80 0.09627
916.90 0.09623
917.00 0.09618
917.10 0.09614
917.20 0.0961
917.30 0.09606
917.40 0.09602
917.50 0.09598
917.60 0.09594
917.70 0.0959
917.80 0.09586
917.90 0.09582
918.00 0.09578
918.10 0.09574
918.20 0.0957
918.30 0.09566
918.40 0.09562
918.50 0.09558
918.60 0.09554
918.70 0.0955
918.80 0.09546
918.90 0.09542
919.00 0.09538
919.10 0.09534
919.20 0.0953
919.30 0.09526
919.40 0.09522
919.50 0.09518
919.60 0.09514
919.70 0.0951
919.80 0.09506
919.90 0.09502
920.00 0.09498
920.10 0.09494
920.20 0.0949
920.30 0.09486
920.40 0.09482
920.50 0.09478
920.60 0.09474
920.70 0.0947
920.80 0.09466
920.90 0.09462
921.00 0.09458
921.10 0.09454
921.20 0.0945
921.30 0.09446
921.40 0.09442
921.50 0.09438
921.60 0.09434
921.70 0.0943
921.80 0.09426
921.90 0.09422
922.00 0.09418
922.10 0.09414
922.20 0.09411
922.30 0.09407
922.40 0.09403
922.50 0.09399
922.60 0.09395
922.70 0.09391
922.80 0.09387
922.90 0.09383
923.00 0.09379
923.10 0.09375
923.20 0.09371
923.30 0.09367
923.40 0.09364
923.50 0.0936
923.60 0.09356
923.70 0.09352
923.80 0.09348
923.90 0.09344
924.00 0.0934
924.10 0.09336
924.20 0.09332
924.30 0.09328
924.40 0.09325
924.50 0.09321
924.60 0.09317
924.70 0.09313
924.80 0.09309
924.90 0.09305
925.00 0.09301
925.10 0.09297
925.20 0.09293
925.30 0.0929
925.40 0.09286
925.50 0.09282
925.60 0.09278
925.70 0.09274
925.80 0.0927
925.90 0.09266
926.00 0.09262
926.10 0.09259
926.20 0.09255
926.30 0.09251
926.40 0.09247
926.50 0.09243
926.60 0.09239
926.70 0.09235
926.80 0.09232
926.90 0.09228
927.00 0.09224
927.10 0.0922
927.20 0.09216
927.30 0.09213
927.40 0.09209
927.50 0.09205
927.60 0.09201
927.70 0.09197
927.80 0.09194
927.90 0.0919
928.00 0.09186
928.10 0.09182
928.20 0.09179
928.30 0.09175
928.40 0.09171
928.50 0.09167
928.60 0.09164
928.70 0.0916
928.80 0.09156
928.90 0.09152
929.00 0.09149
929.10 0.09145
929.20 0.09141
929.30 0.09137
929.40 0.09134
929.50 0.0913
929.60 0.09126
929.70 0.09122
929.80 0.09119
929.90 0.09115
930.00 0.09111
930.10 0.09107
930.20 0.09104
930.30 0.091
930.40 0.09096
930.50 0.09092
930.60 0.09089
930.70 0.09085
930.80 0.09081
930.90 0.09078
931.00 0.09074
931.10 0.0907
931.20 0.09066
931.30 0.09063
931.40 0.09059
931.50 0.09055
931.60 0.09051
931.70 0.09048
931.80 0.09044
931.90 0.0904
932.00 0.09037
932.10 0.09033
932.20 0.09029
932.30 0.09025
932.40 0.09022
932.50 0.09018
932.60 0.09014
932.70 0.09011
932.80 0.09007
932.90 0.09003
933.00 0.08999
933.10 0.08996
933.20 0.08992
933.30 0.08988
933.40 0.08985
933.50 0.08981
933.60 0.08977
933.70 0.08974
933.80 0.0897
933.90 0.08966
934.00 0.08962
934.10 0.08959
934.20 0.08955
934.30 0.08951
934.40 0.08948
934.50 0.08944
934.60 0.0894
934.70 0.08937
934.80 0.08933
934.90 0.08929
935.00 0.08925
935.10 0.08922
935.20 0.08918
935.30 0.08914
935.40 0.08911
935.50 0.08907
935.60 0.08903
935.70 0.089
935.80 0.08896
935.90 0.08892
936.00 0.08888
936.10 0.08885
936.20 0.08881
936.30 0.08877
936.40 0.08874
936.50 0.0887
936.60 0.08866
936.70 0.08863
936.80 0.08859
936.90 0.08855
937.00 0.08852
937.10 0.08848
937.20 0.08844
937.30 0.08841
937.40 0.08837
937.50 0.08833
937.60 0.08829
937.70 0.08826
937.80 0.08822
937.90 0.08818
938.00 0.08815
938.10 0.08811
938.20 0.08807
938.30 0.08804
938.40 0.088
938.50 0.08796
938.60 0.08792
938.70 0.08789
938.80 0.08785
938.90 0.08781
939.00 0.08778
939.10 0.08774
939.20 0.0877
939.30 0.08767
939.40 0.08763
939.50 0.08759
939.60 0.08756
939.70 0.08752
939.80 0.08748
939.90 0.08745
940.00 0.08741
940.10 0.08737
940.20 0.08733
940.30 0.0873
940.40 0.08726
940.50 0.08722
940.60 0.08719
940.70 0.08715
940.80 0.08711
940.90 0.08708
941.00 0.08704
941.10 0.087
941.20 0.08697
941.30 0.08693
941.40 0.08689
941.50 0.08685
941.60 0.08682
941.70 0.08678
941.80 0.08674
941.90 0.08671
942.00 0.08667
942.10 0.08663
942.20 0.0866
942.30 0.08656
942.40 0.08652
942.50 0.08649
942.60 0.08645
942.70 0.08641
942.80 0.08638
942.90 0.08634
943.00 0.0863
943.10 0.08626
943.20 0.08623
943.30 0.08619
943.40 0.08615
943.50 0.08612
943.60 0.08608
943.70 0.08604
943.80 0.08601
943.90 0.08597
944.00 0.08593
944.10 0.0859
944.20 0.08586
944.30 0.08582
944.40 0.08579
944.50 0.08575
944.60 0.08571
944.70 0.08568
944.80 0.08564
944.90 0.0856
945.00 0.08557
945.10 0.08553
945.20 0.08549
945.30 0.08545
945.40 0.08542
945.50 0.08538
945.60 0.08534
945.70 0.08531
945.80 0.08527
945.90 0.08523
946.00 0.0852
946.10 0.08516
946.20 0.08512
946.30 0.08509
946.40 0.08505
946.50 0.08501
946.60 0.08498
946.70 0.08494
946.80 0.0849
946.90 0.08487
947.00 0.08483
947.10 0.08479
947.20 0.08476
947.30 0.08472
947.40 0.08468
947.50 0.08465
947.60 0.08461
947.70 0.08457
947.80 0.08454
947.90 0.0845
948.00 0.08446
948.10 0.08443
948.20 0.08439
948.30 0.08435
948.40 0.08432
948.50 0.08428
948.60 0.08424
948.70 0.08421
948.80 0.08417
948.90 0.08413
949.00 0.0841
949.10 0.08406
949.20 0.08403
949.30 0.08399
949.40 0.08395
949.50 0.08392
949.60 0.08388
949.70 0.08384
949.80 0.08381
949.90 0.08377
950.00 0.08374
950.10 0.0837
950.20 0.08367
950.30 0.08363
950.40 0.08359
950.50 0.08356
950.60 0.08352
950.70 0.08349
950.80 0.08345
950.90 0.08341
951.00 0.08338
951.10 0.08334
951.20 0.08331
951.30 0.08327
951.40 0.08324
951.50 0.0832
951.60 0.08317
951.70 0.08313
951.80 0.08309
951.90 0.08306
952.00 0.08302
952.10 0.08299
952.20 0.08296
952.30 0.08292
952.40 0.08289
952.50 0.08285
952.60 0.08282
952.70 0.08278
952.80 0.08275
952.90 0.08272
953.00 0.08268
953.10 0.08265
953.20 0.08262
953.30 0.08258
953.40 0.08255
953.50 0.08252
953.60 0.08248
953.70 0.08245
953.80 0.08242
953.90 0.08239
954.00 0.08236
954.10 0.08232
954.20 0.08229
954.30 0.08226
954.40 0.08223
954.50 0.0822
954.60 0.08217
954.70 0.08214
954.80 0.0821
954.90 0.08206
955.00 0.08203
955.10 0.08199
955.20 0.08196
955.30 0.08192
955.40 0.08189
955.50 0.08186
955.60 0.08182
955.70 0.08179
955.80 0.08175
955.90 0.08172
956.00 0.08169
956.10 0.08166
956.20 0.08162
956.30 0.08159
956.40 0.08156
956.50 0.08153
956.60 0.0815
956.70 0.08146
956.80 0.08143
956.90 0.0814
957.00 0.08137
957.10 0.08133
957.20 0.0813
957.30 0.08127
957.40 0.08124
957.50 0.08121
957.60 0.08118
957.70 0.08115
957.80 0.08112
957.90 0.08109
958.00 0.08106
958.10 0.08103
958.20 0.08099
958.30 0.08096
958.40 0.08093
958.50 0.0809
958.60 0.08087
958.70 0.08084
958.80 0.08081
958.90 0.08078
959.00 0.08075
959.10 0.08072
959.20 0.08069
959.30 0.08066
959.40 0.08063
959.50 0.0806
959.60 0.08057
959.70 0.08054
959.80 0.08051
959.90 0.08048
960.00 0.08045
960.10 0.08042
960.20 0.08039
960.30 0.08036
960.40 0.08033
960.50 0.0803
960.60 0.08027
960.70 0.08024
960.80 0.08021
960.90 0.08018
961.00 0.08015
961.10 0.08012
961.20 0.08009
961.30 0.08006
961.40 0.08003
961.50 0.08
961.60 0.07997
961.70 0.07994
961.80 0.07991
961.90 0.07988
962.00 0.07985
962.10 0.07982
962.20 0.07979
962.30 0.07976
962.40 0.07973
962.50 0.0797
962.60 0.07967
962.70 0.07964
962.80 0.07961
962.90 0.07958
963.00 0.07955
963.10 0.07952
963.20 0.07949
963.30 0.07946
963.40 0.07943
963.50 0.0794
963.60 0.07937
963.70 0.07934
963.80 0.07931
963.90 0.07928
964.00 0.07925
964.10 0.07922
964.20 0.07919
964.30 0.07916
964.40 0.07913
964.50 0.0791
964.60 0.07907
964.70 0.07904
964.80 0.07901
964.90 0.07898
965.00 0.07895
965.10 0.07892
965.20 0.07889
965.30 0.07886
965.40 0.07883
965.50 0.0788
965.60 0.07877
965.70 0.07874
965.80 0.07871
965.90 0.07868
966.00 0.07865
966.10 0.07862
966.20 0.07859
966.30 0.07856
966.40 0.07853
966.50 0.0785
966.60 0.07847
966.70 0.07844
966.80 0.07841
966.90 0.07838
967.00 0.07835
967.10 0.07832
967.20 0.07829
967.30 0.07826
967.40 0.07823
967.50 0.0782
967.60 0.07817
967.70 0.07814
967.80 0.07811
967.90 0.07808
968.00 0.07805
968.10 0.07802
968.20 0.078
968.30 0.07797
968.40 0.07794
968.50 0.07791
968.60 0.07788
968.70 0.07785
968.80 0.07782
968.90 0.07779
969.00 0.07776
969.10 0.07773
969.20 0.0777
969.30 0.07767
969.40 0.07764
969.50 0.07761
969.60 0.07758
969.70 0.07755
969.80 0.07752
969.90 0.07749
970.00 0.07746
970.10 0.07743
970.20 0.0774
970.30 0.07737
970.40 0.07734
970.50 0.07731
970.60 0.07728
970.70 0.07725
970.80 0.07722
970.90 0.07719
971.00 0.07716
971.10 0.07713
971.20 0.0771
971.30 0.07707
971.40 0.07704
971.50 0.07701
971.60 0.07698
971.70 0.07695
971.80 0.07692
971.90 0.07689
972.00 0.07686
972.10 0.07683
972.20 0.0768
972.30 0.07677
972.40 0.07674
972.50 0.07671
972.60 0.07668
972.70 0.07665
972.80 0.07662
972.90 0.07659
973.00 0.07656
973.10 0.07653
973.20 0.0765
973.30 0.07647
973.40 0.07644
973.50 0.07641
973.60 0.07638
973.70 0.07635
973.80 0.07632
973.90 0.07629
974.00 0.07626
974.10 0.07623
974.20 0.0762
974.30 0.07617
974.40 0.07614
974.50 0.07611
974.60 0.07608
974.70 0.07605
974.80 0.07602
974.90 0.07599
975.00 0.07596
975.10 0.07593
975.20 0.0759
975.30 0.07587
975.40 0.07584
975.50 0.07581
975.60 0.07578
975.70 0.07575
975.80 0.07572
975.90 0.07569
976.00 0.07566
976.10 0.07563
976.20 0.0756
976.30 0.07557
976.40 0.07554
976.50 0.07551
976.60 0.07548
976.70 0.07545
976.80 0.07542
976.90 0.07539
977.00 0.07536
977.10 0.07533
977.20 0.0753
977.30 0.07527
977.40 0.07524
977.50 0.07521
977.60 0.07518
977.70 0.07515
977.80 0.07512
977.90 0.07509
978.00 0.07506
978.10 0.07503
978.20 0.075
978.30 0.07497
978.40 0.07494
978.50 0.07491
978.60 0.07488
978.70 0.07485
978.80 0.07482
978.90 0.07479
979.00 0.07476
979.10 0.07473
979.20 0.0747
979.30 0.07467
979.40 0.07464
979.50 0.07461
979.60 0.07458
979.70 0.07455
979.80 0.07452
979.90 0.07449
980.00 0.07446
980.10 0.07443
980.20 0.0744
980.30 0.07437
980.40 0.07434
980.50 0.07431
980.60 0.07428
980.70 0.07425
980.80 0.07422
980.90 0.07419
981.00 0.07416
981.10 0.07413
981.20 0.0741
981.30 0.07407
981.40 0.07404
981.50 0.07401
981.60 0.07398
981.70 0.07395
981.80 0.07392
981.90 0.07389
982.00 0.07386
982.10 0.07383
982.20 0.0738
982.30 0.07377
982.40 0.07374
982.50 0.07371
982.60 0.07368
982.70 0.07365
982.80 0.07362
982.90 0.07359
983.00 0.07356
983.10 0.07353
983.20 0.0735
983.30 0.07347
983.40 0.07344
983.50 0.07341
983.60 0.07338
983.70 0.07335
983.80 0.07332
983.90 0.07329
984.00 0.07326
984.10 0.07323
984.20 0.0732
984.30 0.07317
984.40 0.07314
984.50 0.07311
984.60 0.07308
984.70 0.07305
984.80 0.07302
984.90 0.07299
985.00 0.07296
985.10 0.07293
985.20 0.0729
985.30 0.07287
985.40 0.07284
985.50 0.07281
985.60 0.07278
985.70 0.07275
985.80 0.07272
985.90 0.07269
986.00 0.07266
986.10 0.07263
986.20 0.0726
986.30 0.07257
986.40 0.07254
986.50 0.07251
986.60 0.07248
986.70 0.07245
986.80 0.07242
986.90 0.07239
987.00 0.07236
987.10 0.07233
987.20 0.0723
987.30 0.07227
987.40 0.07224
987.50 0.07221
987.60 0.07218
987.70 0.07215
987.80 0.07212
987.90 0.07209
988.00 0.07206
988.10 0.07203
988.20 0.072
988.30 0.07197
988.40 0.07194
988.50 0.07191
988.60 0.07188
988.70 0.07185
988.80 0.07181
988.90 0.07178
989.00 0.07175
989.10 0.07172
989.20 0.07169
989.30 0.07166
989.40 0.07163
989.50 0.0716
989.60 0.07157
989.70 0.07154
989.80 0.07151
989.90 0.07148
990.00 0.07145
990.10 0.07142
990.20 0.07139
990.30 0.07136
990.40 0.07133
990.50 0.0713
990.60 0.07127
990.70 0.07124
990.80 0.0712
990.90 0.07117
991.00 0.07114
991.10 0.07111
991.20 0.07108
991.30 0.07105
991.40 0.07102
991.50 0.07099
991.60 0.07096
991.70 0.07093
991.80 0.0709
991.90 0.07087
992.00 0.07084
992.10 0.0708
992.20 0.07077
992.30 0.07074
992.40 0.07071
992.50 0.07068
992.60 0.07065
992.70 0.07062
992.80 0.07059
992.90 0.07056
993.00 0.07053
993.10 0.07049
993.20 0.07046
993.30 0.07043
993.40 0.0704
993.50 0.07037
993.60 0.07034
993.70 0.07031
993.80 0.07028
993.90 0.07024
994.00 0.07021
994.10 0.07018
994.20 0.07015
994.30 0.07012
994.40 0.07009
994.50 0.07006
994.60 0.07003
994.70 0.06999
994.80 0.06996
994.90 0.06993
995.00 0.0699
995.10 0.06987
995.20 0.06984
995.30 0.0698
995.40 0.06977
995.50 0.06974
995.60 0.06971
995.70 0.06968
995.80 0.06965
995.90 0.06961
996.00 0.06958
996.10 0.06955
996.20 0.06952
996.30 0.06949
996.40 0.06945
996.50 0.06942
996.60 0.06939
996.70 0.06936
996.80 0.06933
996.90 0.0693
997.00 0.06926
997.10 0.06923
997.20 0.0692
997.30 0.06917
997.40 0.06914
997.50 0.0691
997.60 0.06907
997.70 0.06904
997.80 0.06901
997.90 0.06897
998.00 0.06894
998.10 0.06891
998.20 0.06888
998.30 0.06884
998.40 0.06881
998.50 0.06878
998.60 0.06875
998.70 0.06872
998.80 0.06868
998.90 0.06865
999.00 0.06862
999.10 0.06859
999.20 0.06855
999.30 0.06852
999.40 0.06849
999.50 0.06846
999.60 0.06843
999.70 0.06839
999.80 0.06836
999.90 0.06833
1000.00 0.06829
1000.10 0.06826
1000.20 0.06823
1000.30 0.06819
1000.40 0.06816
1000.50 0.06813
1000.60 0.06809
1000.70 0.06806
1000.80 0.06803
1000.90 0.068
1001.00 0.06796
1001.10 0.06793
1001.20 0.0679
1001.30 0.06786
1001.40 0.06783
1001.50 0.0678
1001.60 0.06776
1001.70 0.06773
1001.80 0.0677
1001.90 0.06767
1002.00 0.06764
1002.10 0.06761
1002.20 0.06759
1002.30 0.06756
1002.40 0.06753
1002.50 0.0675
1002.60 0.06747
1002.70 0.06744
1002.80 0.06741
1002.90 0.06739
1003.00 0.06736
1003.10 0.06733
1003.20 0.0673
1003.30 0.06728
1003.40 0.06726
1003.50 0.06723
1003.60 0.06721
1003.70 0.06719
1003.80 0.06716
1003.90 0.06714
1004.00 0.06712
1004.10 0.06711
1004.20 0.06709
1004.30 0.06707
1004.40 0.06706
1004.50 0.06704
1004.60 0.06703
1004.70 0.06701
1004.80 0.06699
1004.90 0.06697
1005.00 0.06694
1005.10 0.06691
1005.20 0.06687
1005.30 0.06684
1005.40 0.06681
1005.50 0.06677
1005.60 0.06674
1005.70 0.06671
1005.80 0.06667
1005.90 0.06664
1006.00 0.06661
1006.10 0.06657
1006.20 0.06654
1006.30 0.06652
1006.40 0.06649
1006.50 0.06646
1006.60 0.06644
1006.70 0.06641
1006.80 0.06638
1006.90 0.06636
1007.00 0.06633
1007.10 0.06631
1007.20 0.06629
1007.30 0.06626
1007.40 0.06624
1007.50 0.06622
1007.60 0.06619
1007.70 0.06617
1007.80 0.06615
1007.90 0.06613
1008.00 0.06611
1008.10 0.06609
1008.20 0.06607
1008.30 0.06605
1008.40 0.06603
1008.50 0.06601
1008.60 0.06599
1008.70 0.06597
1008.80 0.06595
1008.90 0.06593
1009.00 0.06591
1009.10 0.06589
1009.20 0.06587
1009.30 0.06585
1009.40 0.06583
1009.50 0.06581
1009.60 0.06579
1009.70 0.06577
1009.80 0.06575
1009.90 0.06573
1010.00 0.06571
1010.10 0.06569
1010.20 0.06567
1010.30 0.06565
1010.40 0.06563
1010.50 0.06561
1010.60 0.06559
1010.70 0.06557
1010.80 0.06555
1010.90 0.06553
1011.00 0.06551
1011.10 0.06549
1011.20 0.06547
1011.30 0.06545
1011.40 0.06543
1011.50 0.06541
1011.60 0.06539
1011.70 0.06537
1011.80 0.06535
1011.90 0.06533
1012.00 0.06531
1012.10 0.06529
1012.20 0.06527
1012.30 0.06525
1012.40 0.06523
1012.50 0.06521
1012.60 0.06519
1012.70 0.06517
1012.80 0.06515
1012.90 0.06513
1013.00 0.06511
1013.10 0.06509
1013.20 0.06507
1013.30 0.06505
1013.40 0.06503
1013.50 0.06501
1013.60 0.06499
1013.70 0.06497
1013.80 0.06495
1013.90 0.06493
1014.00 0.06491
1014.10 0.06489
1014.20 0.06487
1014.30 0.06485
1014.40 0.06482
1014.50 0.0648
1014.60 0.06478
1014.70 0.06476
1014.80 0.06474
1014.90 0.06472
1015.00 0.0647
1015.10 0.06468
1015.20 0.06466
1015.30 0.06464
1015.40 0.06461
1015.50 0.06459
1015.60 0.06457
1015.70 0.06455
1015.80 0.06453
1015.90 0.06451
1016.00 0.06449
1016.10 0.06447
1016.20 0.06445
1016.30 0.06443
1016.40 0.0644
1016.50 0.06438
1016.60 0.06436
1016.70 0.06434
1016.80 0.06432
1016.90 0.0643
1017.00 0.06428
1017.10 0.06426
1017.20 0.06423
1017.30 0.06421
1017.40 0.06419
1017.50 0.06417
1017.60 0.06415
1017.70 0.06413
1017.80 0.0641
1017.90 0.06408
1018.00 0.06406
1018.10 0.06404
1018.20 0.06402
1018.30 0.064
1018.40 0.06397
1018.50 0.06395
1018.60 0.06393
1018.70 0.06391
1018.80 0.06389
1018.90 0.06386
1019.00 0.06384
1019.10 0.06382
1019.20 0.0638
1019.30 0.06378
1019.40 0.06375
1019.50 0.06373
1019.60 0.06371
1019.70 0.06369
1019.80 0.06367
1019.90 0.06364
1020.00 0.06362
1020.10 0.0636
1020.20 0.06358
1020.30 0.06356
1020.40 0.06353
1020.50 0.06351
1020.60 0.06349
1020.70 0.06347
1020.80 0.06345
1020.90 0.06342
1021.00 0.0634
1021.10 0.06338
1021.20 0.06336
1021.30 0.06334
1021.40 0.06331
1021.50 0.06329
1021.60 0.06327
1021.70 0.06325
1021.80 0.06322
1021.90 0.0632
1022.00 0.06318
1022.10 0.06316
1022.20 0.06313
1022.30 0.06311
1022.40 0.06309
1022.50 0.06307
1022.60 0.06304
1022.70 0.06302
1022.80 0.063
1022.90 0.06298
1023.00 0.06295
1023.10 0.06293
1023.20 0.06291
1023.30 0.06289
1023.40 0.06286
1023.50 0.06284
1023.60 0.06282
1023.70 0.0628
1023.80 0.06278
1023.90 0.06275
1024.00 0.06273
1024.10 0.06271
1024.20 0.06269
1024.30 0.06266
1024.40 0.06264
1024.50 0.06262
1024.60 0.0626
1024.70 0.06257
1024.80 0.06255
1024.90 0.06253
1025.00 0.06251
1025.10 0.06248
1025.20 0.06246
1025.30 0.06244
1025.40 0.06242
1025.50 0.06239
1025.60 0.06237
1025.70 0.06235
1025.80 0.06233
1025.90 0.0623
1026.00 0.06228
1026.10 0.06226
1026.20 0.06223
1026.30 0.06221
1026.40 0.06219
1026.50 0.06217
1026.60 0.06214
1026.70 0.06212
1026.80 0.0621
1026.90 0.06208
1027.00 0.06205
1027.10 0.06203
1027.20 0.06201
1027.30 0.06199
1027.40 0.06196
1027.50 0.06194
1027.60 0.06192
1027.70 0.0619
1027.80 0.06187
1027.90 0.06185
1028.00 0.06183
1028.10 0.06181
1028.20 0.06178
1028.30 0.06176
1028.40 0.06174
1028.50 0.06171
1028.60 0.06169
1028.70 0.06167
1028.80 0.06165
1028.90 0.06162
1029.00 0.0616
1029.10 0.06158
1029.20 0.06156
1029.30 0.06153
1029.40 0.06151
1029.50 0.06149
1029.60 0.06147
1029.70 0.06144
1029.80 0.06142
1029.90 0.0614
1030.00 0.06138
1030.10 0.06135
1030.20 0.06133
1030.30 0.06131
1030.40 0.06129
1030.50 0.06126
1030.60 0.06124
1030.70 0.06122
1030.80 0.0612
1030.90 0.06117
1031.00 0.06115
1031.10 0.06113
1031.20 0.06111
1031.30 0.06108
1031.40 0.06106
1031.50 0.06104
1031.60 0.06102
1031.70 0.06099
1031.80 0.06097
1031.90 0.06095
1032.00 0.06093
1032.10 0.0609
1032.20 0.06088
1032.30 0.06086
1032.40 0.06084
1032.50 0.06081
1032.60 0.06079
1032.70 0.06077
1032.80 0.06075
1032.90 0.06072
1033.00 0.0607
1033.10 0.06068
1033.20 0.06066
1033.30 0.06063
1033.40 0.06061
1033.50 0.06059
1033.60 0.06057
1033.70 0.06054
1033.80 0.06052
1033.90 0.0605
1034.00 0.06048
1034.10 0.06046
1034.20 0.06043
1034.30 0.06041
1034.40 0.06039
1034.50 0.06037
1034.60 0.06034
1034.70 0.06032
1034.80 0.0603
1034.90 0.06028
1035.00 0.06025
1035.10 0.06023
1035.20 0.06021
1035.30 0.06019
1035.40 0.06016
1035.50 0.06014
1035.60 0.06012
1035.70 0.0601
1035.80 0.06008
1035.90 0.06005
1036.00 0.06003
1036.10 0.06001
1036.20 0.05999
1036.30 0.05996
1036.40 0.05994
1036.50 0.05992
1036.60 0.0599
1036.70 0.05988
1036.80 0.05985
1036.90 0.05983
1037.00 0.05981
1037.10 0.05979
1037.20 0.05976
1037.30 0.05974
1037.40 0.05972
1037.50 0.0597
1037.60 0.05968
1037.70 0.05965
1037.80 0.05963
1037.90 0.05961
1038.00 0.05959
1038.10 0.05956
1038.20 0.05954
1038.30 0.05952
1038.40 0.0595
1038.50 0.05948
1038.60 0.05945
1038.70 0.05943
1038.80 0.05941
1038.90 0.05939
1039.00 0.05937
1039.10 0.05934
1039.20 0.05932
1039.30 0.0593
1039.40 0.05928
1039.50 0.05926
1039.60 0.05923
1039.70 0.05921
1039.80 0.05919
1039.90 0.05917
1040.00 0.05915
1040.10 0.05912
1040.20 0.0591
1040.30 0.05908
1040.40 0.05906
1040.50 0.05904
1040.60 0.05901
1040.70 0.05899
1040.80 0.05897
1040.90 0.05895
1041.00 0.05893
1041.10 0.0589
1041.20 0.05888
1041.30 0.05886
1041.40 0.05884
1041.50 0.05882
1041.60 0.05879
1041.70 0.05877
1041.80 0.05875
1041.90 0.05873
1042.00 0.05871
1042.10 0.05869
1042.20 0.05866
1042.30 0.05864
1042.40 0.05862
1042.50 0.0586
1042.60 0.05858
1042.70 0.05855
1042.80 0.05853
1042.90 0.05851
1043.00 0.05849
1043.10 0.05847
1043.20 0.05845
1043.30 0.05842
1043.40 0.0584
1043.50 0.05838
1043.60 0.05836
1043.70 0.05834
1043.80 0.05832
1043.90 0.05829
1044.00 0.05827
1044.10 0.05825
1044.20 0.05823
1044.30 0.05821
1044.40 0.05818
1044.50 0.05816
1044.60 0.05814
1044.70 0.05812
1044.80 0.0581
1044.90 0.05808
1045.00 0.05806
1045.10 0.05803
1045.20 0.05801
1045.30 0.05799
1045.40 0.05797
1045.50 0.05795
1045.60 0.05793
1045.70 0.0579
1045.80 0.05788
1045.90 0.05786
1046.00 0.05784
1046.10 0.05782
1046.20 0.0578
1046.30 0.05777
1046.40 0.05775
1046.50 0.05773
1046.60 0.05771
1046.70 0.05769
1046.80 0.05767
1046.90 0.05765
1047.00 0.05762
1047.10 0.0576
1047.20 0.05758
1047.30 0.05756
1047.40 0.05754
1047.50 0.05752
1047.60 0.0575
1047.70 0.05747
1047.80 0.05745
1047.90 0.05743
1048.00 0.05741
1048.10 0.05739
1048.20 0.05737
1048.30 0.05735
1048.40 0.05732
1048.50 0.0573
1048.60 0.05728
1048.70 0.05726
1048.80 0.05724
1048.90 0.05722
1049.00 0.0572
1049.10 0.05718
1049.20 0.05715
1049.30 0.05713
1049.40 0.05711
1049.50 0.05709
1049.60 0.05707
1049.70 0.05705
1049.80 0.05703
1049.90 0.05701
1050.00 0.05698
1050.10 0.05696
1050.20 0.05694
1050.30 0.05692
1050.40 0.0569
1050.50 0.05688
1050.60 0.05686
1050.70 0.05684
1050.80 0.05681
1050.90 0.05679
1051.00 0.05677
1051.10 0.05675
1051.20 0.05673
1051.30 0.05671
1051.40 0.05669
1051.50 0.05667
1051.60 0.05665
1051.70 0.05662
1051.80 0.0566
1051.90 0.05658
1052.00 0.05656
1052.10 0.05654
1052.20 0.05652
1052.30 0.0565
1052.40 0.05648
1052.50 0.05646
1052.60 0.05643
1052.70 0.05641
1052.80 0.05639
1052.90 0.05637
1053.00 0.05635
1053.10 0.05633
1053.20 0.05631
1053.30 0.05629
1053.40 0.05627
1053.50 0.05625
1053.60 0.05622
1053.70 0.0562
1053.80 0.05618
1053.90 0.05616
1054.00 0.05614
1054.10 0.05612
1054.20 0.0561
1054.30 0.05608
1054.40 0.05606
1054.50 0.05604
1054.60 0.05602
1054.70 0.05599
1054.80 0.05597
1054.90 0.05595
1055.00 0.05593
1055.10 0.05591
1055.20 0.05589
1055.30 0.05587
1055.40 0.05585
1055.50 0.05583
1055.60 0.05581
1055.70 0.05579
1055.80 0.05577
1055.90 0.05574
1056.00 0.05572
1056.10 0.0557
1056.20 0.05568
1056.30 0.05566
1056.40 0.05564
1056.50 0.05562
1056.60 0.0556
1056.70 0.05558
1056.80 0.05556
1056.90 0.05554
1057.00 0.05552
1057.10 0.0555
1057.20 0.05547
1057.30 0.05545
1057.40 0.05543
1057.50 0.05541
1057.60 0.05539
1057.70 0.05537
1057.80 0.05535
1057.90 0.05533
1058.00 0.05531
1058.10 0.05529
1058.20 0.05527
1058.30 0.05525
1058.40 0.05523
1058.50 0.05521
1058.60 0.05519
1058.70 0.05517
1058.80 0.05514
1058.90 0.05512
1059.00 0.0551
1059.10 0.05508
1059.20 0.05506
1059.30 0.05504
1059.40 0.05502
1059.50 0.055
1059.60 0.05498
1059.70 0.05496
1059.80 0.05494
1059.90 0.05492
1060.00 0.0549
1060.10 0.05488
1060.20 0.05486
1060.30 0.05484
1060.40 0.05482
1060.50 0.0548
1060.60 0.05477
1060.70 0.05475
1060.80 0.05473
1060.90 0.05471
1061.00 0.05469
1061.10 0.05467
1061.20 0.05465
1061.30 0.05463
1061.40 0.05461
1061.50 0.05459
1061.60 0.05457
1061.70 0.05455
1061.80 0.05453
1061.90 0.05451
1062.00 0.05449
1062.10 0.05447
1062.20 0.05445
1062.30 0.05443
1062.40 0.05441
1062.50 0.05439
1062.60 0.05437
1062.70 0.05435
1062.80 0.05433
1062.90 0.0543
1063.00 0.05428
1063.10 0.05426
1063.20 0.05424
1063.30 0.05422
1063.40 0.0542
1063.50 0.05418
1063.60 0.05416
1063.70 0.05414
1063.80 0.05412
1063.90 0.0541
1064.00 0.05408
1064.10 0.05406
1064.20 0.05404
1064.30 0.05402
1064.40 0.054
1064.50 0.05398
1064.60 0.05396
1064.70 0.05394
1064.80 0.05392
1064.90 0.0539
1065.00 0.05388
1065.10 0.05386
1065.20 0.05384
1065.30 0.05382
1065.40 0.0538
1065.50 0.05378
1065.60 0.05376
1065.70 0.05374
1065.80 0.05372
1065.90 0.0537
1066.00 0.05368
1066.10 0.05365
1066.20 0.05363
1066.30 0.05361
1066.40 0.05359
1066.50 0.05357
1066.60 0.05355
1066.70 0.05353
1066.80 0.05351
1066.90 0.05349
1067.00 0.05347
1067.10 0.05345
1067.20 0.05343
1067.30 0.05341
1067.40 0.05339
1067.50 0.05337
1067.60 0.05335
1067.70 0.05333
1067.80 0.05331
1067.90 0.05329
1068.00 0.05327
1068.10 0.05325
1068.20 0.05323
1068.30 0.05321
1068.40 0.05319
1068.50 0.05317
1068.60 0.05315
1068.70 0.05313
1068.80 0.05311
1068.90 0.05309
1069.00 0.05307
1069.10 0.05305
1069.20 0.05303
1069.30 0.05301
1069.40 0.05299
1069.50 0.05297
1069.60 0.05295
1069.70 0.05293
1069.80 0.0529
1069.90 0.05288
1070.00 0.05286
1070.10 0.05284
1070.20 0.05282
1070.30 0.0528
1070.40 0.05278
1070.50 0.05276
1070.60 0.05274
1070.70 0.05272
1070.80 0.0527
1070.90 0.05268
1071.00 0.05266
1071.10 0.05264
1071.20 0.05262
1071.30 0.0526
1071.40 0.05258
1071.50 0.05256
1071.60 0.05254
1071.70 0.05252
1071.80 0.0525
1071.90 0.05248
1072.00 0.05246
1072.10 0.05244
1072.20 0.05242
1072.30 0.0524
1072.40 0.05238
1072.50 0.05236
1072.60 0.05234
1072.70 0.05232
1072.80 0.0523
1072.90 0.05228
1073.00 0.05226
1073.10 0.05224
1073.20 0.05222
1073.30 0.0522
1073.40 0.05218
1073.50 0.05216
1073.60 0.05214
1073.70 0.05212
1073.80 0.05209
1073.90 0.05207
1074.00 0.05205
1074.10 0.05203
1074.20 0.05201
1074.30 0.05199
1074.40 0.05197
1074.50 0.05195
1074.60 0.05193
1074.70 0.05191
1074.80 0.05189
1074.90 0.05187
1075.00 0.05185
1075.10 0.05183
1075.20 0.05181
1075.30 0.05178
1075.40 0.05176
1075.50 0.05174
1075.60 0.05172
1075.70 0.0517
1075.80 0.05168
1075.90 0.05166
1076.00 0.05164
1076.10 0.05162
1076.20 0.0516
1076.30 0.05158
1076.40 0.05156
1076.50 0.05154
1076.60 0.05152
1076.70 0.0515
1076.80 0.05148
1076.90 0.05146
1077.00 0.05144
1077.10 0.05141
1077.20 0.05139
1077.30 0.05137
1077.40 0.05135
1077.50 0.05133
1077.60 0.05131
1077.70 0.05129
1077.80 0.05127
1077.90 0.05125
1078.00 0.05123
1078.10 0.0512
1078.20 0.05118
1078.30 0.05116
1078.40 0.05114
1078.50 0.05112
1078.60 0.0511
1078.70 0.05108
1078.80 0.05106
1078.90 0.05103
1079.00 0.05101
1079.10 0.05099
1079.20 0.05097
1079.30 0.05095
1079.40 0.05093
1079.50 0.05091
1079.60 0.05089
1079.70 0.05086
1079.80 0.05084
1079.90 0.05082
1080.00 0.0508
1080.10 0.05078
1080.20 0.05075
1080.30 0.05073
1080.40 0.05071
1080.50 0.05069
1080.60 0.05067
1080.70 0.05065
1080.80 0.05062
1080.90 0.0506
1081.00 0.05058
1081.10 0.05056
1081.20 0.05054
1081.30 0.05052
1081.40 0.05049
1081.50 0.05047
1081.60 0.05045
1081.70 0.05043
1081.80 0.05041
1081.90 0.05038
1082.00 0.05036
1082.10 0.05034
1082.20 0.05032
1082.30 0.05029
1082.40 0.05027
1082.50 0.05025
1082.60 0.05022
1082.70 0.0502
1082.80 0.05018
1082.90 0.05016
1083.00 0.05013
1083.10 0.05011
1083.20 0.05009
1083.30 0.05007
1083.40 0.05004
1083.50 0.05002
1083.60 0.05
1083.70 0.04997
1083.80 0.04995
1083.90 0.04993
1084.00 0.0499
1084.10 0.04988
1084.20 0.04986
1084.30 0.04983
1084.40 0.04981
1084.50 0.04979
1084.60 0.04976
1084.70 0.04974
1084.80 0.04971
1084.90 0.04969
1085.00 0.04967
1085.10 0.04964
1085.20 0.04962
1085.30 0.04959
1085.40 0.04957
1085.50 0.04955
1085.60 0.04952
1085.70 0.0495
1085.80 0.04947
1085.90 0.04945
1086.00 0.04943
1086.10 0.0494
1086.20 0.04938
1086.30 0.04935
1086.40 0.04933
1086.50 0.04931
1086.60 0.04928
1086.70 0.04926
1086.80 0.04923
1086.90 0.04921
1087.00 0.04918
1087.10 0.04916
1087.20 0.04913
1087.30 0.04911
1087.40 0.04908
1087.50 0.04906
1087.60 0.04903
1087.70 0.04901
1087.80 0.04898
1087.90 0.04896
1088.00 0.04893
1088.10 0.04891
1088.20 0.04888
1088.30 0.04886
1088.40 0.04883
1088.50 0.04881
1088.60 0.04878
1088.70 0.04876
1088.80 0.04873
1088.90 0.04871
1089.00 0.04868
1089.10 0.04866
1089.20 0.04863
1089.30 0.04861
1089.40 0.04859
1089.50 0.04856
1089.60 0.04854
1089.70 0.04851
1089.80 0.04849
1089.90 0.04846
1090.00 0.04844
1090.10 0.04841
1090.20 0.04839
1090.30 0.04836
1090.40 0.04834
1090.50 0.04831
1090.60 0.04829
1090.70 0.04827
1090.80 0.04825
1090.90 0.04822
1091.00 0.0482
1091.10 0.04818
1091.20 0.04816
1091.30 0.04814
1091.40 0.04811
1091.50 0.04809
1091.60 0.04807
1091.70 0.04805
1091.80 0.04802
1091.90 0.048
1092.00 0.04798
1092.10 0.04796
1092.20 0.04794
1092.30 0.04792
1092.40 0.0479
1092.50 0.04788
1092.60 0.04786
1092.70 0.04784
1092.80 0.04783
1092.90 0.04781
1093.00 0.04779
1093.10 0.04777
1093.20 0.04776
1093.30 0.04774
1093.40 0.04773
1093.50 0.04773
1093.60 0.04774
1093.70 0.04774
1093.80 0.04775
1093.90 0.04773
1094.00 0.04769
1094.10 0.04765
1094.20 0.04761
1094.30 0.04758
1094.40 0.04756
1094.50 0.04754
1094.60 0.04753
1094.70 0.04751
1094.80 0.04749
1094.90 0.04748
1095.00 0.04746
1095.10 0.04745
1095.20 0.04744
1095.30 0.04742
1095.40 0.04741
1095.50 0.0474
1095.60 0.04738
1095.70 0.04737
1095.80 0.04736
1095.90 0.04735
1096.00 0.04733
1096.10 0.04732
1096.20 0.04731
1096.30 0.04729
1096.40 0.04728
1096.50 0.04727
1096.60 0.04726
1096.70 0.04725
1096.80 0.04724
1096.90 0.04723
1097.00 0.04722
1097.10 0.04721
1097.20 0.0472
1097.30 0.04719
1097.40 0.04718
1097.50 0.04717
1097.60 0.04716
1097.70 0.04715
1097.80 0.04714
1097.90 0.04713
1098.00 0.04712
1098.10 0.04711
1098.20 0.0471
1098.30 0.04709
1098.40 0.04708
1098.50 0.04707
1098.60 0.04706
1098.70 0.04705
1098.80 0.04704
1098.90 0.04704
1099.00 0.04703
1099.10 0.04702
1099.20 0.04701
1099.30 0.047
1099.40 0.04699
1099.50 0.04698
1099.60 0.04697
1099.70 0.04696
1099.80 0.04695
1099.90 0.04694
1100.00 0.04693
1100.10 0.04692
1100.20 0.04692
1100.30 0.04691
1100.40 0.0469
1100.50 0.04689
1100.60 0.04688
1100.70 0.04687
1100.80 0.04686
1100.90 0.04685
1101.00 0.04684
1101.10 0.04683
1101.20 0.04682
1101.30 0.04681
1101.40 0.0468
1101.50 0.04679
1101.60 0.04678
1101.70 0.04677
1101.80 0.04676
1101.90 0.04675
1102.00 0.04674
1102.10 0.04673
1102.20 0.04672
1102.30 0.04671
1102.40 0.04669
1102.50 0.04668
1102.60 0.04667
1102.70 0.04666
1102.80 0.04665
1102.90 0.04664
1103.00 0.04663
1103.10 0.04662
1103.20 0.04661
1103.30 0.0466
1103.40 0.04658
1103.50 0.04657
1103.60 0.04656
1103.70 0.04655
1103.80 0.04654
1103.90 0.04652
1104.00 0.04651
1104.10 0.0465
1104.20 0.04649
1104.30 0.04648
1104.40 0.04647
1104.50 0.04645
1104.60 0.04644
1104.70 0.04643
1104.80 0.04642
1104.90 0.04641
1105.00 0.04639
1105.10 0.04638
1105.20 0.04637
1105.30 0.04636
1105.40 0.04635
1105.50 0.04633
1105.60 0.04632
1105.70 0.04631
1105.80 0.0463
1105.90 0.04628
1106.00 0.04627
1106.10 0.04626
1106.20 0.04624
1106.30 0.04623
1106.40 0.04622
1106.50 0.04621
1106.60 0.04619
1106.70 0.04618
1106.80 0.04617
1106.90 0.04615
1107.00 0.04614
1107.10 0.04613
1107.20 0.04612
1107.30 0.0461
1107.40 0.04609
1107.50 0.04608
1107.60 0.04606
1107.70 0.04605
1107.80 0.04603
1107.90 0.04602
1108.00 0.04601
1108.10 0.04599
1108.20 0.04598
1108.30 0.04597
1108.40 0.04595
1108.50 0.04594
1108.60 0.04593
1108.70 0.04591
1108.80 0.0459
1108.90 0.04588
1109.00 0.04587
1109.10 0.04586
1109.20 0.04584
1109.30 0.04583
1109.40 0.04582
1109.50 0.0458
1109.60 0.04579
1109.70 0.04577
1109.80 0.04576
1109.90 0.04575
1110.00 0.04573
1110.10 0.04572
1110.20 0.0457
1110.30 0.04569
1110.40 0.04567
1110.50 0.04566
1110.60 0.04565
1110.70 0.04563
1110.80 0.04562
1110.90 0.0456
1111.00 0.04559
1111.10 0.04558
1111.20 0.04556
1111.30 0.04555
1111.40 0.04553
1111.50 0.04552
1111.60 0.0455
1111.70 0.04549
1111.80 0.04548
1111.90 0.04546
1112.00 0.04545
1112.10 0.04543
1112.20 0.04542
1112.30 0.0454
1112.40 0.04539
1112.50 0.04538
1112.60 0.04536
1112.70 0.04535
1112.80 0.04533
1112.90 0.04532
1113.00 0.0453
1113.10 0.04529
1113.20 0.04527
1113.30 0.04526
1113.40 0.04525
1113.50 0.04523
1113.60 0.04522
1113.70 0.0452
1113.80 0.04519
1113.90 0.04517
1114.00 0.04516
1114.10 0.04514
1114.20 0.04513
1114.30 0.04511
1114.40 0.0451
1114.50 0.04508
1114.60 0.04507
1114.70 0.04505
1114.80 0.04504
1114.90 0.04502
1115.00 0.04501
1115.10 0.04499
1115.20 0.04498
1115.30 0.04496
1115.40 0.04495
1115.50 0.04494
1115.60 0.04492
1115.70 0.04491
1115.80 0.04489
1115.90 0.04488
1116.00 0.04486
1116.10 0.04485
1116.20 0.04483
1116.30 0.04482
1116.40 0.0448
1116.50 0.04479
1116.60 0.04477
1116.70 0.04476
1116.80 0.04474
1116.90 0.04473
1117.00 0.04472
1117.10 0.0447
1117.20 0.04469
1117.30 0.04467
1117.40 0.04466
1117.50 0.04464
1117.60 0.04463
1117.70 0.04461
1117.80 0.0446
1117.90 0.04458
1118.00 0.04457
1118.10 0.04455
1118.20 0.04454
1118.30 0.04452
1118.40 0.04451
1118.50 0.04449
1118.60 0.04448
1118.70 0.04446
1118.80 0.04445
1118.90 0.04443
1119.00 0.04442
1119.10 0.0444
1119.20 0.04439
1119.30 0.04437
1119.40 0.04436
1119.50 0.04434
1119.60 0.04433
1119.70 0.04431
1119.80 0.0443
1119.90 0.04428
1120.00 0.04427
1120.10 0.04425
1120.20 0.04424
1120.30 0.04422
1120.40 0.04421
1120.50 0.04419
1120.60 0.04418
1120.70 0.04416
1120.80 0.04415
1120.90 0.04413
1121.00 0.04412
1121.10 0.0441
1121.20 0.04409
1121.30 0.04407
1121.40 0.04406
1121.50 0.04404
1121.60 0.04403
1121.70 0.04402
1121.80 0.044
1121.90 0.04399
1122.00 0.04397
1122.10 0.04396
1122.20 0.04394
1122.30 0.04393
1122.40 0.04391
1122.50 0.0439
1122.60 0.04388
1122.70 0.04387
1122.80 0.04385
1122.90 0.04384
1123.00 0.04382
1123.10 0.04381
1123.20 0.04379
1123.30 0.04378
1123.40 0.04376
1123.50 0.04375
1123.60 0.04373
1123.70 0.04372
1123.80 0.0437
1123.90 0.04369
1124.00 0.04367
1124.10 0.04366
1124.20 0.04364
1124.30 0.04363
1124.40 0.04361
1124.50 0.0436
1124.60 0.04358
1124.70 0.04357
1124.80 0.04355
1124.90 0.04354
1125.00 0.04353
1125.10 0.04351
1125.20 0.0435
1125.30 0.04348
1125.40 0.04347
1125.50 0.04345
1125.60 0.04344
1125.70 0.04342
1125.80 0.04341
1125.90 0.04339
1126.00 0.04338
1126.10 0.04336
1126.20 0.04335
1126.30 0.04333
1126.40 0.04332
1126.50 0.0433
1126.60 0.04329
1126.70 0.04327
1126.80 0.04326
1126.90 0.04324
1127.00 0.04323
1127.10 0.04322
1127.20 0.0432
1127.30 0.04319
1127.40 0.04317
1127.50 0.04316
1127.60 0.04314
1127.70 0.04313
1127.80 0.04311
1127.90 0.0431
1128.00 0.04308
1128.10 0.04307
1128.20 0.04305
1128.30 0.04304
1128.40 0.04302
1128.50 0.04301
1128.60 0.04299
1128.70 0.04298
1128.80 0.04297
1128.90 0.04295
1129.00 0.04294
1129.10 0.04292
1129.20 0.04291
1129.30 0.04289
1129.40 0.04288
1129.50 0.04286
1129.60 0.04285
1129.70 0.04283
1129.80 0.04282
1129.90 0.0428
1130.00 0.04279
1130.10 0.04278
1130.20 0.04276
1130.30 0.04275
1130.40 0.04273
1130.50 0.04272
1130.60 0.0427
1130.70 0.04269
1130.80 0.04267
1130.90 0.04266
1131.00 0.04264
1131.10 0.04263
1131.20 0.04261
1131.30 0.0426
1131.40 0.04259
1131.50 0.04257
1131.60 0.04256
1131.70 0.04254
1131.80 0.04253
1131.90 0.04251
1132.00 0.0425
1132.10 0.04248
1132.20 0.04247
1132.30 0.04245
1132.40 0.04244
1132.50 0.04243
1132.60 0.04241
1132.70 0.0424
1132.80 0.04238
1132.90 0.04237
1133.00 0.04235
1133.10 0.04234
1133.20 0.04232
1133.30 0.04231
1133.40 0.0423
1133.50 0.04228
1133.60 0.04227
1133.70 0.04225
1133.80 0.04224
1133.90 0.04222
1134.00 0.04221
1134.10 0.04219
1134.20 0.04218
1134.30 0.04217
1134.40 0.04215
1134.50 0.04214
1134.60 0.04212
1134.70 0.04211
1134.80 0.04209
1134.90 0.04208
1135.00 0.04206
1135.10 0.04205
1135.20 0.04204
1135.30 0.04202
1135.40 0.04201
1135.50 0.04199
1135.60 0.04198
1135.70 0.04196
1135.80 0.04195
1135.90 0.04194
1136.00 0.04192
1136.10 0.04191
1136.20 0.04189
1136.30 0.04188
1136.40 0.04186
1136.50 0.04185
1136.60 0.04184
1136.70 0.04182
1136.80 0.04181
1136.90 0.04179
1137.00 0.04178
1137.10 0.04176
1137.20 0.04175
1137.30 0.04174
1137.40 0.04172
1137.50 0.04171
1137.60 0.04169
1137.70 0.04168
1137.80 0.04166
1137.90 0.04165
1138.00 0.04164
1138.10 0.04162
1138.20 0.04161
1138.30 0.04159
1138.40 0.04158
1138.50 0.04157
1138.60 0.04155
1138.70 0.04154
1138.80 0.04152
1138.90 0.04151
1139.00 0.04149
1139.10 0.04148
1139.20 0.04147
1139.30 0.04145
1139.40 0.04144
1139.50 0.04142
1139.60 0.04141
1139.70 0.0414
1139.80 0.04138
1139.90 0.04137
1140.00 0.04135
1140.10 0.04134
1140.20 0.04132
1140.30 0.04131
1140.40 0.0413
1140.50 0.04128
1140.60 0.04127
1140.70 0.04125
1140.80 0.04124
1140.90 0.04123
1141.00 0.04121
1141.10 0.0412
1141.20 0.04118
1141.30 0.04117
1141.40 0.04116
1141.50 0.04114
1141.60 0.04113
1141.70 0.04111
1141.80 0.0411
1141.90 0.04109
1142.00 0.04107
1142.10 0.04106
1142.20 0.04104
1142.30 0.04103
1142.40 0.04102
1142.50 0.041
1142.60 0.04099
1142.70 0.04097
1142.80 0.04096
1142.90 0.04095
1143.00 0.04093
1143.10 0.04092
1143.20 0.0409
1143.30 0.04089
1143.40 0.04088
1143.50 0.04086
1143.60 0.04085
1143.70 0.04083
1143.80 0.04082
1143.90 0.04081
1144.00 0.04079
1144.10 0.04078
1144.20 0.04077
1144.30 0.04075
1144.40 0.04074
1144.50 0.04072
1144.60 0.04071
1144.70 0.0407
1144.80 0.04068
1144.90 0.04067
1145.00 0.04065
1145.10 0.04064
1145.20 0.04063
1145.30 0.04061
1145.40 0.0406
1145.50 0.04059
1145.60 0.04057
1145.70 0.04056
1145.80 0.04054
1145.90 0.04053
1146.00 0.04052
1146.10 0.0405
1146.20 0.04049
1146.30 0.04047
1146.40 0.04046
1146.50 0.04045
1146.60 0.04043
1146.70 0.04042
1146.80 0.04041
1146.90 0.04039
1147.00 0.04038
1147.10 0.04036
1147.20 0.04035
1147.30 0.04034
1147.40 0.04032
1147.50 0.04031
1147.60 0.0403
1147.70 0.04028
1147.80 0.04027
1147.90 0.04026
1148.00 0.04024
1148.10 0.04023
1148.20 0.04021
1148.30 0.0402
1148.40 0.04019
1148.50 0.04017
1148.60 0.04016
1148.70 0.04015
1148.80 0.04013
1148.90 0.04012
1149.00 0.04011
1149.10 0.04009
1149.20 0.04008
1149.30 0.04006
1149.40 0.04005
1149.50 0.04004
1149.60 0.04002
1149.70 0.04001
1149.80 0.04
1149.90 0.03998
1150.00 0.03997
1150.10 0.03996
1150.20 0.03994
1150.30 0.03993
1150.40 0.03992
1150.50 0.0399
1150.60 0.03989
1150.70 0.03988
1150.80 0.03986
1150.90 0.03985
1151.00 0.03983
1151.10 0.03982
1151.20 0.03981
1151.30 0.03979
1151.40 0.03978
1151.50 0.03977
1151.60 0.03975
1151.70 0.03974
1151.80 0.03973
1151.90 0.03971
1152.00 0.0397
1152.10 0.03969
1152.20 0.03967
1152.30 0.03966
1152.40 0.03965
1152.50 0.03963
1152.60 0.03962
1152.70 0.03961
1152.80 0.03959
1152.90 0.03958
1153.00 0.03957
1153.10 0.03955
1153.20 0.03954
1153.30 0.03953
1153.40 0.03951
1153.50 0.0395
1153.60 0.03949
1153.70 0.03947
1153.80 0.03946
1153.90 0.03945
1154.00 0.03943
1154.10 0.03942
1154.20 0.03941
1154.30 0.03939
1154.40 0.03938
1154.50 0.03937
1154.60 0.03935
1154.70 0.03934
1154.80 0.03933
1154.90 0.03931
1155.00 0.0393
1155.10 0.03929
1155.20 0.03927
1155.30 0.03926
1155.40 0.03925
1155.50 0.03923
1155.60 0.03922
1155.70 0.03921
1155.80 0.03919
1155.90 0.03918
1156.00 0.03917
1156.10 0.03915
1156.20 0.03914
1156.30 0.03913
1156.40 0.03911
1156.50 0.0391
1156.60 0.03909
1156.70 0.03907
1156.80 0.03906
1156.90 0.03905
1157.00 0.03903
1157.10 0.03902
1157.20 0.03901
1157.30 0.03899
1157.40 0.03898
1157.50 0.03897
1157.60 0.03896
1157.70 0.03894
1157.80 0.03893
1157.90 0.03892
1158.00 0.0389
1158.10 0.03889
1158.20 0.03888
1158.30 0.03886
1158.40 0.03885
1158.50 0.03884
1158.60 0.03882
1158.70 0.03881
1158.80 0.0388
1158.90 0.03878
1159.00 0.03877
1159.10 0.03876
1159.20 0.03875
1159.30 0.03873
1159.40 0.03872
1159.50 0.03871
1159.60 0.03869
1159.70 0.03868
1159.80 0.03867
1159.90 0.03865
1160.00 0.03864
1160.10 0.03863
1160.20 0.03862
1160.30 0.0386
1160.40 0.03859
1160.50 0.03858
1160.60 0.03856
1160.70 0.03855
1160.80 0.03854
1160.90 0.03852
1161.00 0.03851
1161.10 0.0385
1161.20 0.03849
1161.30 0.03847
1161.40 0.03846
1161.50 0.03845
1161.60 0.03843
1161.70 0.03842
1161.80 0.03841
1161.90 0.03839
1162.00 0.03838
1162.10 0.03837
1162.20 0.03836
1162.30 0.03834
1162.40 0.03833
1162.50 0.03832
1162.60 0.0383
1162.70 0.03829
1162.80 0.03828
1162.90 0.03827
1163.00 0.03825
1163.10 0.03824
1163.20 0.03823
1163.30 0.03822
1163.40 0.0382
1163.50 0.03819
1163.60 0.03818
1163.70 0.03816
1163.80 0.03815
1163.90 0.03814
1164.00 0.03813
1164.10 0.03811
1164.20 0.0381
1164.30 0.03809
1164.40 0.03807
1164.50 0.03806
1164.60 0.03805
1164.70 0.03804
1164.80 0.03802
1164.90 0.03801
1165.00 0.038
1165.10 0.03798
1165.20 0.03797
1165.30 0.03796
1165.40 0.03795
1165.50 0.03793
1165.60 0.03792
1165.70 0.03791
1165.80 0.0379
1165.90 0.03788
1166.00 0.03787
1166.10 0.03786
1166.20 0.03784
1166.30 0.03783
1166.40 0.03782
1166.50 0.03781
1166.60 0.03779
1166.70 0.03778
1166.80 0.03777
1166.90 0.03776
1167.00 0.03774
1167.10 0.03773
1167.20 0.03772
1167.30 0.03771
1167.40 0.03769
1167.50 0.03768
1167.60 0.03767
1167.70 0.03766
1167.80 0.03764
1167.90 0.03763
1168.00 0.03762
1168.10 0.03761
1168.20 0.03759
1168.30 0.03758
1168.40 0.03757
1168.50 0.03755
1168.60 0.03754
1168.70 0.03753
1168.80 0.03752
1168.90 0.0375
1169.00 0.03749
1169.10 0.03748
1169.20 0.03747
1169.30 0.03745
1169.40 0.03744
1169.50 0.03743
1169.60 0.03742
1169.70 0.0374
1169.80 0.03739
1169.90 0.03738
1170.00 0.03737
1170.10 0.03735
1170.20 0.03734
1170.30 0.03733
1170.40 0.03732
1170.50 0.0373
1170.60 0.03729
1170.70 0.03728
1170.80 0.03727
1170.90 0.03725
1171.00 0.03724
1171.10 0.03723
1171.20 0.03722
1171.30 0.0372
1171.40 0.03719
1171.50 0.03718
1171.60 0.03717
1171.70 0.03716
1171.80 0.03714
1171.90 0.03713
1172.00 0.03712
1172.10 0.03711
1172.20 0.03709
1172.30 0.03708
1172.40 0.03707
1172.50 0.03706
1172.60 0.03704
1172.70 0.03703
1172.80 0.03702
1172.90 0.03701
1173.00 0.03699
1173.10 0.03698
1173.20 0.03697
1173.30 0.03696
1173.40 0.03695
1173.50 0.03693
1173.60 0.03692
1173.70 0.03691
1173.80 0.0369
1173.90 0.03688
1174.00 0.03687
1174.10 0.03686
1174.20 0.03685
1174.30 0.03683
1174.40 0.03682
1174.50 0.03681
1174.60 0.0368
1174.70 0.03679
1174.80 0.03677
1174.90 0.03676
1175.00 0.03675
1175.10 0.03674
1175.20 0.03672
1175.30 0.03671
1175.40 0.0367
1175.50 0.03669
1175.60 0.03668
1175.70 0.03666
1175.80 0.03665
1175.90 0.03664
1176.00 0.03663
1176.10 0.03661
1176.20 0.0366
1176.30 0.03659
1176.40 0.03658
1176.50 0.03657
1176.60 0.03655
1176.70 0.03654
1176.80 0.03653
1176.90 0.03652
1177.00 0.03651
1177.10 0.03649
1177.20 0.03648
1177.30 0.03647
1177.40 0.03646
1177.50 0.03644
1177.60 0.03643
1177.70 0.03642
1177.80 0.03641
1177.90 0.0364
1178.00 0.03638
1178.10 0.03637
1178.20 0.03636
1178.30 0.03635
1178.40 0.03634
1178.50 0.03632
1178.60 0.03631
1178.70 0.0363
1178.80 0.03629
1178.90 0.03628
1179.00 0.03626
1179.10 0.03625
1179.20 0.03624
1179.30 0.03623
1179.40 0.03622
1179.50 0.0362
1179.60 0.03619
1179.70 0.03618
1179.80 0.03617
1179.90 0.03616
1180.00 0.03614
1180.10 0.03613
1180.20 0.03612
1180.30 0.03611
1180.40 0.0361
1180.50 0.03608
1180.60 0.03607
1180.70 0.03606
1180.80 0.03605
1180.90 0.03604
1181.00 0.03602
1181.10 0.03601
1181.20 0.036
1181.30 0.03599
1181.40 0.03598
1181.50 0.03596
1181.60 0.03595
1181.70 0.03594
1181.80 0.03593
1181.90 0.03592
1182.00 0.0359
1182.10 0.03589
1182.20 0.03588
1182.30 0.03587
1182.40 0.03586
1182.50 0.03585
1182.60 0.03583
1182.70 0.03582
1182.80 0.03581
1182.90 0.0358
1183.00 0.03579
1183.10 0.03577
1183.20 0.03576
1183.30 0.03575
1183.40 0.03574
1183.50 0.03573
1183.60 0.03572
1183.70 0.0357
1183.80 0.03569
1183.90 0.03568
1184.00 0.03567
1184.10 0.03566
1184.20 0.03565
1184.30 0.03563
1184.40 0.03562
1184.50 0.03561
1184.60 0.0356
1184.70 0.03559
1184.80 0.03557
1184.90 0.03556
1185.00 0.03555
1185.10 0.03554
1185.20 0.03553
1185.30 0.03552
1185.40 0.0355
1185.50 0.03549
1185.60 0.03548
1185.70 0.03547
1185.80 0.03546
1185.90 0.03545
1186.00 0.03543
1186.10 0.03542
1186.20 0.03541
1186.30 0.0354
1186.40 0.03539
1186.50 0.03538
1186.60 0.03536
1186.70 0.03535
1186.80 0.03534
1186.90 0.03533
1187.00 0.03532
1187.10 0.03531
1187.20 0.03529
1187.30 0.03528
1187.40 0.03527
1187.50 0.03526
1187.60 0.03525
1187.70 0.03524
1187.80 0.03522
1187.90 0.03521
1188.00 0.0352
1188.10 0.03519
1188.20 0.03518
1188.30 0.03517
1188.40 0.03515
1188.50 0.03514
1188.60 0.03513
1188.70 0.03512
1188.80 0.03511
1188.90 0.0351
1189.00 0.03509
1189.10 0.03507
1189.20 0.03506
1189.30 0.03505
1189.40 0.03504
1189.50 0.03503
1189.60 0.03502
1189.70 0.035
1189.80 0.03499
1189.90 0.03498
1190.00 0.03497
1190.10 0.03496
1190.20 0.03495
1190.30 0.03494
1190.40 0.03492
1190.50 0.03491
1190.60 0.0349
1190.70 0.03489
1190.80 0.03488
1190.90 0.03487
1191.00 0.03486
1191.10 0.03484
1191.20 0.03483
1191.30 0.03482
1191.40 0.03481
1191.50 0.0348
1191.60 0.03479
1191.70 0.03478
1191.80 0.03476
1191.90 0.03475
1192.00 0.03474
1192.10 0.03473
1192.20 0.03472
1192.30 0.03471
1192.40 0.0347
1192.50 0.03468
1192.60 0.03467
1192.70 0.03466
1192.80 0.03465
1192.90 0.03464
1193.00 0.03463
1193.10 0.03462
1193.20 0.0346
1193.30 0.03459
1193.40 0.03458
1193.50 0.03457
1193.60 0.03456
1193.70 0.03455
1193.80 0.03454
1193.90 0.03453
1194.00 0.03451
1194.10 0.0345
1194.20 0.03449
1194.30 0.03448
1194.40 0.03447
1194.50 0.03446
1194.60 0.03445
1194.70 0.03443
1194.80 0.03442
1194.90 0.03441
1195.00 0.0344
1195.10 0.03439
1195.20 0.03438
1195.30 0.03437
1195.40 0.03436
1195.50 0.03434
1195.60 0.03433
1195.70 0.03432
1195.80 0.03431
1195.90 0.0343
1196.00 0.03429
1196.10 0.03428
1196.20 0.03427
1196.30 0.03425
1196.40 0.03424
1196.50 0.03423
1196.60 0.03422
1196.70 0.03421
1196.80 0.0342
1196.90 0.03419
1197.00 0.03418
1197.10 0.03416
1197.20 0.03415
1197.30 0.03414
1197.40 0.03413
1197.50 0.03412
1197.60 0.03411
1197.70 0.0341
1197.80 0.03409
1197.90 0.03408
1198.00 0.03406
1198.10 0.03405
1198.20 0.03404
1198.30 0.03403
1198.40 0.03402
1198.50 0.03401
1198.60 0.034
1198.70 0.03399
1198.80 0.03398
1198.90 0.03396
1199.00 0.03395
1199.10 0.03394
1199.20 0.03393
1199.30 0.03392
1199.40 0.03391
1199.50 0.0339
1199.60 0.03389
1199.70 0.03388
1199.80 0.03387
1199.90 0.03385
1200.00 0
