# Version 2.1 - nm, norm@500 to 1, cut digits, bergeron_20000_65.dat_20000
# Wavelength(nm)  Flambda(ergs/cm^s/s/nm)
300.00 3.155
300.10 3.152
300.20 3.149
300.30 3.146
300.40 3.144
300.50 3.141
300.60 3.138
300.70 3.135
300.80 3.132
300.90 3.129
301.00 3.126
301.10 3.123
301.20 3.12
301.30 3.117
301.40 3.114
301.50 3.111
301.60 3.109
301.70 3.106
301.80 3.103
301.90 3.1
302.00 3.097
302.10 3.094
302.20 3.091
302.30 3.088
302.40 3.085
302.50 3.083
302.60 3.08
302.70 3.077
302.80 3.074
302.90 3.071
303.00 3.068
303.10 3.065
303.20 3.063
303.30 3.06
303.40 3.057
303.50 3.054
303.60 3.051
303.70 3.048
303.80 3.046
303.90 3.043
304.00 3.04
304.10 3.037
304.20 3.034
304.30 3.032
304.40 3.029
304.50 3.026
304.60 3.023
304.70 3.02
304.80 3.018
304.90 3.015
305.00 3.012
305.10 3.009
305.20 3.007
305.30 3.004
305.40 3.001
305.50 2.998
305.60 2.995
305.70 2.993
305.80 2.99
305.90 2.987
306.00 2.984
306.10 2.982
306.20 2.979
306.30 2.976
306.40 2.974
306.50 2.971
306.60 2.968
306.70 2.965
306.80 2.963
306.90 2.96
307.00 2.957
307.10 2.954
307.20 2.952
307.30 2.949
307.40 2.946
307.50 2.944
307.60 2.941
307.70 2.938
307.80 2.936
307.90 2.933
308.00 2.93
308.10 2.928
308.20 2.925
308.30 2.922
308.40 2.92
308.50 2.917
308.60 2.914
308.70 2.912
308.80 2.909
308.90 2.906
309.00 2.904
309.10 2.901
309.20 2.898
309.30 2.896
309.40 2.893
309.50 2.89
309.60 2.888
309.70 2.885
309.80 2.882
309.90 2.88
310.00 2.877
310.10 2.875
310.20 2.872
310.30 2.869
310.40 2.867
310.50 2.864
310.60 2.862
310.70 2.859
310.80 2.856
310.90 2.854
311.00 2.851
311.10 2.849
311.20 2.846
311.30 2.843
311.40 2.841
311.50 2.838
311.60 2.836
311.70 2.833
311.80 2.831
311.90 2.828
312.00 2.825
312.10 2.823
312.20 2.82
312.30 2.818
312.40 2.815
312.50 2.813
312.60 2.81
312.70 2.808
312.80 2.805
312.90 2.803
313.00 2.8
313.10 2.798
313.20 2.795
313.30 2.793
313.40 2.79
313.50 2.787
313.60 2.785
313.70 2.782
313.80 2.78
313.90 2.777
314.00 2.775
314.10 2.772
314.20 2.77
314.30 2.767
314.40 2.765
314.50 2.763
314.60 2.76
314.70 2.758
314.80 2.755
314.90 2.753
315.00 2.75
315.10 2.748
315.20 2.745
315.30 2.743
315.40 2.74
315.50 2.738
315.60 2.735
315.70 2.733
315.80 2.731
315.90 2.728
316.00 2.726
316.10 2.723
316.20 2.721
316.30 2.718
316.40 2.716
316.50 2.713
316.60 2.711
316.70 2.709
316.80 2.706
316.90 2.704
317.00 2.701
317.10 2.699
317.20 2.697
317.30 2.694
317.40 2.692
317.50 2.689
317.60 2.687
317.70 2.685
317.80 2.682
317.90 2.68
318.00 2.677
318.10 2.675
318.20 2.673
318.30 2.67
318.40 2.668
318.50 2.666
318.60 2.663
318.70 2.661
318.80 2.658
318.90 2.656
319.00 2.654
319.10 2.651
319.20 2.649
319.30 2.647
319.40 2.644
319.50 2.642
319.60 2.64
319.70 2.637
319.80 2.635
319.90 2.633
320.00 2.63
320.10 2.628
320.20 2.626
320.30 2.623
320.40 2.621
320.50 2.619
320.60 2.616
320.70 2.614
320.80 2.612
320.90 2.609
321.00 2.607
321.10 2.605
321.20 2.603
321.30 2.6
321.40 2.598
321.50 2.596
321.60 2.593
321.70 2.591
321.80 2.589
321.90 2.587
322.00 2.584
322.10 2.582
322.20 2.58
322.30 2.577
322.40 2.575
322.50 2.573
322.60 2.571
322.70 2.568
322.80 2.566
322.90 2.564
323.00 2.562
323.10 2.559
323.20 2.557
323.30 2.555
323.40 2.553
323.50 2.55
323.60 2.548
323.70 2.546
323.80 2.544
323.90 2.542
324.00 2.539
324.10 2.537
324.20 2.535
324.30 2.533
324.40 2.53
324.50 2.528
324.60 2.526
324.70 2.524
324.80 2.522
324.90 2.519
325.00 2.517
325.10 2.515
325.20 2.513
325.30 2.511
325.40 2.508
325.50 2.506
325.60 2.504
325.70 2.502
325.80 2.5
325.90 2.497
326.00 2.495
326.10 2.493
326.20 2.491
326.30 2.489
326.40 2.487
326.50 2.484
326.60 2.482
326.70 2.48
326.80 2.478
326.90 2.476
327.00 2.474
327.10 2.472
327.20 2.469
327.30 2.467
327.40 2.465
327.50 2.463
327.60 2.461
327.70 2.459
327.80 2.457
327.90 2.454
328.00 2.452
328.10 2.45
328.20 2.448
328.30 2.446
328.40 2.444
328.50 2.442
328.60 2.44
328.70 2.438
328.80 2.435
328.90 2.433
329.00 2.431
329.10 2.429
329.20 2.427
329.30 2.425
329.40 2.423
329.50 2.421
329.60 2.419
329.70 2.417
329.80 2.414
329.90 2.412
330.00 2.41
330.10 2.408
330.20 2.406
330.30 2.404
330.40 2.402
330.50 2.4
330.60 2.398
330.70 2.396
330.80 2.394
330.90 2.392
331.00 2.39
331.10 2.388
331.20 2.386
331.30 2.384
331.40 2.381
331.50 2.379
331.60 2.377
331.70 2.375
331.80 2.373
331.90 2.371
332.00 2.369
332.10 2.367
332.20 2.365
332.30 2.363
332.40 2.361
332.50 2.359
332.60 2.357
332.70 2.355
332.80 2.353
332.90 2.351
333.00 2.349
333.10 2.347
333.20 2.345
333.30 2.343
333.40 2.341
333.50 2.339
333.60 2.337
333.70 2.335
333.80 2.333
333.90 2.331
334.00 2.329
334.10 2.327
334.20 2.325
334.30 2.323
334.40 2.321
334.50 2.319
334.60 2.317
334.70 2.315
334.80 2.313
334.90 2.311
335.00 2.309
335.10 2.307
335.20 2.305
335.30 2.303
335.40 2.301
335.50 2.299
335.60 2.298
335.70 2.296
335.80 2.294
335.90 2.292
336.00 2.29
336.10 2.288
336.20 2.286
336.30 2.284
336.40 2.282
336.50 2.28
336.60 2.278
336.70 2.276
336.80 2.274
336.90 2.272
337.00 2.27
337.10 2.268
337.20 2.267
337.30 2.265
337.40 2.263
337.50 2.261
337.60 2.259
337.70 2.257
337.80 2.255
337.90 2.253
338.00 2.251
338.10 2.249
338.20 2.247
338.30 2.246
338.40 2.244
338.50 2.242
338.60 2.24
338.70 2.238
338.80 2.236
338.90 2.234
339.00 2.232
339.10 2.23
339.20 2.229
339.30 2.227
339.40 2.225
339.50 2.223
339.60 2.221
339.70 2.219
339.80 2.217
339.90 2.216
340.00 2.214
340.10 2.212
340.20 2.21
340.30 2.208
340.40 2.206
340.50 2.204
340.60 2.203
340.70 2.201
340.80 2.199
340.90 2.197
341.00 2.195
341.10 2.193
341.20 2.191
341.30 2.19
341.40 2.188
341.50 2.186
341.60 2.184
341.70 2.182
341.80 2.18
341.90 2.179
342.00 2.177
342.10 2.175
342.20 2.173
342.30 2.171
342.40 2.17
342.50 2.168
342.60 2.166
342.70 2.164
342.80 2.162
342.90 2.161
343.00 2.159
343.10 2.157
343.20 2.155
343.30 2.153
343.40 2.152
343.50 2.15
343.60 2.148
343.70 2.146
343.80 2.144
343.90 2.143
344.00 2.141
344.10 2.139
344.20 2.137
344.30 2.135
344.40 2.134
344.50 2.132
344.60 2.13
344.70 2.128
344.80 2.127
344.90 2.125
345.00 2.123
345.10 2.121
345.20 2.12
345.30 2.118
345.40 2.116
345.50 2.114
345.60 2.113
345.70 2.111
345.80 2.109
345.90 2.107
346.00 2.106
346.10 2.104
346.20 2.102
346.30 2.1
346.40 2.099
346.50 2.097
346.60 2.095
346.70 2.093
346.80 2.092
346.90 2.09
347.00 2.088
347.10 2.087
347.20 2.085
347.30 2.083
347.40 2.081
347.50 2.08
347.60 2.078
347.70 2.076
347.80 2.074
347.90 2.073
348.00 2.071
348.10 2.069
348.20 2.068
348.30 2.066
348.40 2.064
348.50 2.063
348.60 2.061
348.70 2.059
348.80 2.057
348.90 2.056
349.00 2.054
349.10 2.052
349.20 2.051
349.30 2.049
349.40 2.047
349.50 2.046
349.60 2.044
349.70 2.042
349.80 2.041
349.90 2.039
350.00 2.037
350.10 2.036
350.20 2.034
350.30 2.032
350.40 2.031
350.50 2.029
350.60 2.027
350.70 2.026
350.80 2.024
350.90 2.022
351.00 2.021
351.10 2.019
351.20 2.017
351.30 2.016
351.40 2.014
351.50 2.012
351.60 2.011
351.70 2.009
351.80 2.007
351.90 2.006
352.00 2.004
352.10 2.003
352.20 2.001
352.30 1.999
352.40 1.998
352.50 1.996
352.60 1.994
352.70 1.993
352.80 1.991
352.90 1.99
353.00 1.988
353.10 1.986
353.20 1.985
353.30 1.983
353.40 1.981
353.50 1.98
353.60 1.978
353.70 1.977
353.80 1.975
353.90 1.973
354.00 1.972
354.10 1.97
354.20 1.969
354.30 1.967
354.40 1.965
354.50 1.964
354.60 1.962
354.70 1.961
354.80 1.959
354.90 1.958
355.00 1.956
355.10 1.954
355.20 1.953
355.30 1.951
355.40 1.95
355.50 1.948
355.60 1.946
355.70 1.945
355.80 1.943
355.90 1.942
356.00 1.94
356.10 1.939
356.20 1.937
356.30 1.935
356.40 1.934
356.50 1.932
356.60 1.931
356.70 1.929
356.80 1.928
356.90 1.926
357.00 1.925
357.10 1.923
357.20 1.921
357.30 1.92
357.40 1.918
357.50 1.917
357.60 1.915
357.70 1.914
357.80 1.912
357.90 1.911
358.00 1.909
358.10 1.908
358.20 1.906
358.30 1.904
358.40 1.903
358.50 1.901
358.60 1.9
358.70 1.898
358.80 1.897
358.90 1.895
359.00 1.894
359.10 1.892
359.20 1.891
359.30 1.889
359.40 1.888
359.50 1.886
359.60 1.885
359.70 1.883
359.80 1.882
359.90 1.88
360.00 1.879
360.10 1.877
360.20 1.876
360.30 1.874
360.40 1.873
360.50 1.871
360.60 1.87
360.70 1.868
360.80 1.867
360.90 1.865
361.00 1.864
361.10 1.862
361.20 1.861
361.30 1.859
361.40 1.858
361.50 1.856
361.60 1.855
361.70 1.853
361.80 1.852
361.90 1.85
362.00 1.849
362.10 1.847
362.20 1.846
362.30 1.844
362.40 1.843
362.50 1.842
362.60 1.84
362.70 1.839
362.80 1.837
362.90 1.836
363.00 1.834
363.10 1.833
363.20 1.831
363.30 1.83
363.40 1.828
363.50 1.827
363.60 1.826
363.70 1.824
363.80 1.823
363.90 1.821
364.00 1.82
364.10 1.818
364.20 1.817
364.30 1.815
364.40 1.814
364.50 1.813
364.60 1.811
364.70 1.81
364.80 1.808
364.90 1.807
365.00 1.805
365.10 1.804
365.20 1.802
365.30 1.801
365.40 1.8
365.50 1.798
365.60 1.797
365.70 1.795
365.80 1.794
365.90 1.792
366.00 1.791
366.10 1.789
366.20 1.787
366.30 1.785
366.40 1.784
366.50 1.782
366.60 1.78
366.70 1.778
366.80 1.776
366.90 1.774
367.00 1.772
367.10 1.771
367.20 1.769
367.30 1.767
367.40 1.765
367.50 1.763
367.60 1.761
367.70 1.759
367.80 1.758
367.90 1.756
368.00 1.754
368.10 1.752
368.20 1.751
368.30 1.749
368.40 1.747
368.50 1.746
368.60 1.744
368.70 1.743
368.80 1.741
368.90 1.739
369.00 1.738
369.10 1.736
369.20 1.735
369.30 1.733
369.40 1.731
369.50 1.73
369.60 1.728
369.70 1.727
369.80 1.725
369.90 1.723
370.00 1.722
370.10 1.721
370.20 1.72
370.30 1.719
370.40 1.718
370.50 1.716
370.60 1.715
370.70 1.714
370.80 1.713
370.90 1.712
371.00 1.711
371.10 1.71
371.20 1.709
371.30 1.708
371.40 1.707
371.50 1.706
371.60 1.705
371.70 1.703
371.80 1.702
371.90 1.701
372.00 1.7
372.10 1.7
372.20 1.7
372.30 1.701
372.40 1.701
372.50 1.701
372.60 1.701
372.70 1.701
372.80 1.701
372.90 1.701
373.00 1.701
373.10 1.702
373.20 1.702
373.30 1.702
373.40 1.702
373.50 1.702
373.60 1.702
373.70 1.702
373.80 1.702
373.90 1.703
374.00 1.703
374.10 1.703
374.20 1.703
374.30 1.704
374.40 1.704
374.50 1.704
374.60 1.705
374.70 1.705
374.80 1.705
374.90 1.706
375.00 1.706
375.10 1.707
375.20 1.707
375.30 1.707
375.40 1.708
375.50 1.708
375.60 1.708
375.70 1.709
375.80 1.709
375.90 1.709
376.00 1.71
376.10 1.695
376.20 1.681
376.30 1.667
376.40 1.653
376.50 1.639
376.60 1.624
376.70 1.61
376.80 1.596
376.90 1.582
377.00 1.568
377.10 1.584
377.20 1.6
377.30 1.616
377.40 1.632
377.50 1.649
377.60 1.665
377.70 1.681
377.80 1.697
377.90 1.713
378.00 1.729
378.10 1.722
378.20 1.714
378.30 1.707
378.40 1.7
378.50 1.693
378.60 1.685
378.70 1.678
378.80 1.671
378.90 1.664
379.00 1.657
379.10 1.638
379.20 1.62
379.30 1.602
379.40 1.583
379.50 1.565
379.60 1.547
379.70 1.529
379.80 1.51
379.90 1.492
380.00 1.474
380.10 1.504
380.20 1.533
380.30 1.563
380.40 1.592
380.50 1.622
380.60 1.651
380.70 1.68
380.80 1.71
380.90 1.739
381.00 1.768
381.10 1.778
381.20 1.787
381.30 1.797
381.40 1.807
381.50 1.816
381.60 1.816
381.70 1.814
381.80 1.807
381.90 1.798
382.00 1.785
382.10 1.768
382.20 1.749
382.30 1.712
382.40 1.674
382.50 1.637
382.60 1.6
382.70 1.563
382.80 1.526
382.90 1.489
383.00 1.452
383.10 1.415
383.20 1.378
383.30 1.327
383.40 1.275
383.50 1.222
383.60 1.234
383.70 1.286
383.80 1.336
383.90 1.386
384.00 1.433
384.10 1.48
384.20 1.524
384.30 1.566
384.40 1.606
384.50 1.644
384.60 1.68
384.70 1.713
384.80 1.744
384.90 1.772
385.00 1.798
385.10 1.821
385.20 1.842
385.30 1.862
385.40 1.878
385.50 1.893
385.60 1.905
385.70 1.915
385.80 1.923
385.90 1.929
386.00 1.932
386.10 1.934
386.20 1.933
386.30 1.93
386.40 1.925
386.50 1.919
386.60 1.909
386.70 1.897
386.80 1.884
386.90 1.867
387.00 1.849
387.10 1.828
387.20 1.804
387.30 1.779
387.40 1.751
387.50 1.72
387.60 1.686
387.70 1.651
387.80 1.612
387.90 1.571
388.00 1.529
388.10 1.483
388.20 1.435
388.30 1.386
388.40 1.333
388.50 1.28
388.60 1.225
388.70 1.166
388.80 1.106
388.90 1.044
389.00 1.101
389.10 1.158
389.20 1.215
389.30 1.269
389.40 1.321
389.50 1.372
389.60 1.42
389.70 1.466
389.80 1.511
389.90 1.553
390.00 1.593
390.10 1.631
390.20 1.666
390.30 1.699
390.40 1.731
390.50 1.76
390.60 1.788
390.70 1.814
390.80 1.837
390.90 1.859
391.00 1.88
391.10 1.898
391.20 1.915
391.30 1.931
391.40 1.945
391.50 1.959
391.60 1.971
391.70 1.981
391.80 1.991
391.90 1.999
392.00 2.006
392.10 2.013
392.20 2.018
392.30 2.023
392.40 2.026
392.50 2.029
392.60 2.031
392.70 2.031
392.80 2.032
392.90 2.031
393.00 2.029
393.10 2.027
393.20 2.024
393.30 2.019
393.40 2.015
393.50 2.009
393.60 2.002
393.70 1.995
393.80 1.986
393.90 1.977
394.00 1.966
394.10 1.955
394.20 1.942
394.30 1.929
394.40 1.913
394.50 1.897
394.60 1.88
394.70 1.861
394.80 1.841
394.90 1.819
395.00 1.795
395.10 1.77
395.20 1.744
395.30 1.715
395.40 1.685
395.50 1.653
395.60 1.618
395.70 1.582
395.80 1.545
395.90 1.504
396.00 1.462
396.10 1.419
396.20 1.373
396.30 1.325
396.40 1.276
396.50 1.224
396.60 1.171
396.70 1.117
396.80 1.057
396.90 0.9853
397.00 0.9022
397.10 0.9782
397.20 1.046
397.30 1.105
397.40 1.159
397.50 1.21
397.60 1.26
397.70 1.308
397.80 1.354
397.90 1.398
398.00 1.439
398.10 1.479
398.20 1.518
398.30 1.553
398.40 1.587
398.50 1.62
398.60 1.649
398.70 1.678
398.80 1.705
398.90 1.729
399.00 1.752
399.10 1.774
399.20 1.793
399.30 1.812
399.40 1.83
399.50 1.845
399.60 1.86
399.70 1.874
399.80 1.887
399.90 1.898
400.00 1.909
400.10 1.919
400.20 1.928
400.30 1.937
400.40 1.944
400.50 1.952
400.60 1.958
400.70 1.964
400.80 1.969
400.90 1.974
401.00 1.979
401.10 1.983
401.20 1.987
401.30 1.99
401.40 1.993
401.50 1.995
401.60 1.998
401.70 2
401.80 2.001
401.90 2.003
402.00 2.004
402.10 2.005
402.20 2.006
402.30 2.006
402.40 2.007
402.50 2.007
402.60 2.007
402.70 2.007
402.80 2.006
402.90 2.006
403.00 2.005
403.10 2.005
403.20 2.004
403.30 2.003
403.40 2.001
403.50 2
403.60 1.999
403.70 1.997
403.80 1.995
403.90 1.993
404.00 1.991
404.10 1.989
404.20 1.987
404.30 1.984
404.40 1.981
404.50 1.979
404.60 1.976
404.70 1.972
404.80 1.969
404.90 1.966
405.00 1.962
405.10 1.958
405.20 1.954
405.30 1.949
405.40 1.945
405.50 1.94
405.60 1.935
405.70 1.929
405.80 1.923
405.90 1.917
406.00 1.911
406.10 1.904
406.20 1.897
406.30 1.889
406.40 1.881
406.50 1.872
406.60 1.863
406.70 1.854
406.80 1.843
406.90 1.833
407.00 1.821
407.10 1.809
407.20 1.796
407.30 1.782
407.40 1.768
407.50 1.752
407.60 1.736
407.70 1.718
407.80 1.7
407.90 1.681
408.00 1.66
408.10 1.639
408.20 1.615
408.30 1.591
408.40 1.566
408.50 1.538
408.60 1.509
408.70 1.48
408.80 1.447
408.90 1.414
409.00 1.379
409.10 1.343
409.20 1.304
409.30 1.265
409.40 1.223
409.50 1.18
409.60 1.136
409.70 1.09
409.80 1.041
409.90 0.9906
410.00 0.9312
410.10 0.8674
410.20 0.7993
410.30 0.8895
410.40 0.9613
410.50 1.015
410.60 1.062
410.70 1.108
410.80 1.152
410.90 1.193
411.00 1.233
411.10 1.272
411.20 1.309
411.30 1.344
411.40 1.378
411.50 1.409
411.60 1.439
411.70 1.467
411.80 1.494
411.90 1.519
412.00 1.542
412.10 1.564
412.20 1.585
412.30 1.605
412.40 1.623
412.50 1.64
412.60 1.656
412.70 1.67
412.80 1.684
412.90 1.697
413.00 1.709
413.10 1.72
413.20 1.73
413.30 1.739
413.40 1.748
413.50 1.756
413.60 1.764
413.70 1.771
413.80 1.777
413.90 1.783
414.00 1.788
414.10 1.793
414.20 1.798
414.30 1.802
414.40 1.806
414.50 1.809
414.60 1.812
414.70 1.815
414.80 1.818
414.90 1.82
415.00 1.822
415.10 1.824
415.20 1.826
415.30 1.827
415.40 1.828
415.50 1.83
415.60 1.831
415.70 1.831
415.80 1.832
415.90 1.833
416.00 1.833
416.10 1.834
416.20 1.834
416.30 1.834
416.40 1.834
416.50 1.834
416.60 1.834
416.70 1.834
416.80 1.834
416.90 1.833
417.00 1.833
417.10 1.833
417.20 1.832
417.30 1.832
417.40 1.831
417.50 1.831
417.60 1.83
417.70 1.829
417.80 1.829
417.90 1.828
418.00 1.827
418.10 1.826
418.20 1.825
418.30 1.825
418.40 1.824
418.50 1.823
418.60 1.822
418.70 1.821
418.80 1.82
418.90 1.819
419.00 1.818
419.10 1.817
419.20 1.816
419.30 1.815
419.40 1.814
419.50 1.812
419.60 1.811
419.70 1.81
419.80 1.809
419.90 1.808
420.00 1.807
420.10 1.805
420.20 1.804
420.30 1.803
420.40 1.802
420.50 1.8
420.60 1.799
420.70 1.798
420.80 1.796
420.90 1.795
421.00 1.794
421.10 1.793
421.20 1.791
421.30 1.79
421.40 1.788
421.50 1.787
421.60 1.786
421.70 1.784
421.80 1.783
421.90 1.782
422.00 1.78
422.10 1.779
422.20 1.777
422.30 1.776
422.40 1.774
422.50 1.773
422.60 1.771
422.70 1.77
422.80 1.768
422.90 1.767
423.00 1.765
423.10 1.764
423.20 1.762
423.30 1.761
423.40 1.759
423.50 1.758
423.60 1.756
423.70 1.754
423.80 1.753
423.90 1.751
424.00 1.75
424.10 1.748
424.20 1.746
424.30 1.745
424.40 1.743
424.50 1.741
424.60 1.739
424.70 1.738
424.80 1.736
424.90 1.734
425.00 1.732
425.10 1.731
425.20 1.729
425.30 1.727
425.40 1.725
425.50 1.723
425.60 1.721
425.70 1.719
425.80 1.717
425.90 1.716
426.00 1.714
426.10 1.711
426.20 1.709
426.30 1.707
426.40 1.705
426.50 1.703
426.60 1.701
426.70 1.699
426.80 1.696
426.90 1.694
427.00 1.692
427.10 1.689
427.20 1.687
427.30 1.684
427.40 1.682
427.50 1.679
427.60 1.676
427.70 1.674
427.80 1.671
427.90 1.668
428.00 1.665
428.10 1.662
428.20 1.659
428.30 1.656
428.40 1.652
428.50 1.649
428.60 1.645
428.70 1.642
428.80 1.638
428.90 1.634
429.00 1.63
429.10 1.626
429.20 1.621
429.30 1.617
429.40 1.612
429.50 1.607
429.60 1.602
429.70 1.597
429.80 1.591
429.90 1.586
430.00 1.58
430.10 1.573
430.20 1.566
430.30 1.56
430.40 1.552
430.50 1.544
430.60 1.536
430.70 1.528
430.80 1.519
430.90 1.51
431.00 1.499
431.10 1.489
431.20 1.478
431.30 1.466
431.40 1.454
431.50 1.441
431.60 1.427
431.70 1.412
431.80 1.397
431.90 1.38
432.00 1.363
432.10 1.345
432.20 1.325
432.30 1.304
432.40 1.283
432.50 1.26
432.60 1.236
432.70 1.211
432.80 1.184
432.90 1.157
433.00 1.128
433.10 1.097
433.20 1.066
433.30 1.033
433.40 0.998
433.50 0.962
433.60 0.9249
433.70 0.8847
433.80 0.8404
433.90 0.7921
434.00 0.6801
434.10 0.6812
434.20 0.7952
434.30 0.8416
434.40 0.8842
434.50 0.9231
434.60 0.9588
434.70 0.9932
434.80 1.026
434.90 1.057
435.00 1.087
435.10 1.116
435.20 1.143
435.30 1.169
435.40 1.193
435.50 1.216
435.60 1.238
435.70 1.258
435.80 1.277
435.90 1.295
436.00 1.313
436.10 1.328
436.20 1.343
436.30 1.357
436.40 1.37
436.50 1.382
436.60 1.393
436.70 1.404
436.80 1.413
436.90 1.422
437.00 1.431
437.10 1.438
437.20 1.446
437.30 1.452
437.40 1.459
437.50 1.464
437.60 1.47
437.70 1.475
437.80 1.479
437.90 1.483
438.00 1.487
438.10 1.491
438.20 1.494
438.30 1.497
438.40 1.5
438.50 1.503
438.60 1.505
438.70 1.507
438.80 1.509
438.90 1.511
439.00 1.512
439.10 1.514
439.20 1.515
439.30 1.516
439.40 1.517
439.50 1.518
439.60 1.519
439.70 1.52
439.80 1.52
439.90 1.521
440.00 1.521
440.10 1.522
440.20 1.522
440.30 1.522
440.40 1.522
440.50 1.523
440.60 1.523
440.70 1.522
440.80 1.522
440.90 1.522
441.00 1.522
441.10 1.522
441.20 1.522
441.30 1.521
441.40 1.521
441.50 1.52
441.60 1.52
441.70 1.52
441.80 1.519
441.90 1.519
442.00 1.518
442.10 1.517
442.20 1.517
442.30 1.516
442.40 1.516
442.50 1.515
442.60 1.514
442.70 1.513
442.80 1.513
442.90 1.512
443.00 1.511
443.10 1.51
443.20 1.51
443.30 1.509
443.40 1.508
443.50 1.507
443.60 1.506
443.70 1.506
443.80 1.505
443.90 1.504
444.00 1.503
444.10 1.502
444.20 1.501
444.30 1.5
444.40 1.499
444.50 1.498
444.60 1.498
444.70 1.497
444.80 1.496
444.90 1.495
445.00 1.494
445.10 1.493
445.20 1.492
445.30 1.491
445.40 1.49
445.50 1.489
445.60 1.488
445.70 1.487
445.80 1.486
445.90 1.485
446.00 1.484
446.10 1.483
446.20 1.482
446.30 1.481
446.40 1.48
446.50 1.479
446.60 1.478
446.70 1.477
446.80 1.476
446.90 1.475
447.00 1.474
447.10 1.473
447.20 1.472
447.30 1.471
447.40 1.47
447.50 1.469
447.60 1.468
447.70 1.467
447.80 1.466
447.90 1.465
448.00 1.463
448.10 1.462
448.20 1.461
448.30 1.46
448.40 1.459
448.50 1.458
448.60 1.457
448.70 1.456
448.80 1.455
448.90 1.454
449.00 1.453
449.10 1.452
449.20 1.451
449.30 1.45
449.40 1.449
449.50 1.448
449.60 1.447
449.70 1.446
449.80 1.445
449.90 1.443
450.00 1.442
450.10 1.441
450.20 1.44
450.30 1.439
450.40 1.438
450.50 1.437
450.60 1.436
450.70 1.435
450.80 1.434
450.90 1.433
451.00 1.432
451.10 1.431
451.20 1.43
451.30 1.429
451.40 1.428
451.50 1.427
451.60 1.426
451.70 1.424
451.80 1.423
451.90 1.422
452.00 1.421
452.10 1.42
452.20 1.419
452.30 1.418
452.40 1.417
452.50 1.416
452.60 1.415
452.70 1.414
452.80 1.413
452.90 1.412
453.00 1.411
453.10 1.41
453.20 1.409
453.30 1.408
453.40 1.407
453.50 1.405
453.60 1.404
453.70 1.403
453.80 1.402
453.90 1.401
454.00 1.4
454.10 1.399
454.20 1.398
454.30 1.397
454.40 1.396
454.50 1.395
454.60 1.394
454.70 1.393
454.80 1.392
454.90 1.391
455.00 1.39
455.10 1.389
455.20 1.388
455.30 1.387
455.40 1.386
455.50 1.385
455.60 1.384
455.70 1.382
455.80 1.381
455.90 1.38
456.00 1.379
456.10 1.378
456.20 1.377
456.30 1.376
456.40 1.375
456.50 1.374
456.60 1.373
456.70 1.372
456.80 1.371
456.90 1.37
457.00 1.369
457.10 1.368
457.20 1.367
457.30 1.366
457.40 1.365
457.50 1.364
457.60 1.363
457.70 1.362
457.80 1.361
457.90 1.36
458.00 1.359
458.10 1.358
458.20 1.357
458.30 1.356
458.40 1.355
458.50 1.354
458.60 1.353
458.70 1.352
458.80 1.351
458.90 1.35
459.00 1.349
459.10 1.348
459.20 1.347
459.30 1.346
459.40 1.344
459.50 1.343
459.60 1.342
459.70 1.341
459.80 1.34
459.90 1.339
460.00 1.338
460.10 1.337
460.20 1.336
460.30 1.335
460.40 1.334
460.50 1.333
460.60 1.332
460.70 1.331
460.80 1.33
460.90 1.329
461.00 1.328
461.10 1.327
461.20 1.326
461.30 1.325
461.40 1.324
461.50 1.323
461.60 1.322
461.70 1.321
461.80 1.32
461.90 1.319
462.00 1.318
462.10 1.317
462.20 1.316
462.30 1.315
462.40 1.314
462.50 1.313
462.60 1.312
462.70 1.311
462.80 1.31
462.90 1.309
463.00 1.308
463.10 1.307
463.20 1.306
463.30 1.305
463.40 1.304
463.50 1.303
463.60 1.302
463.70 1.302
463.80 1.301
463.90 1.3
464.00 1.299
464.10 1.298
464.20 1.297
464.30 1.296
464.40 1.295
464.50 1.294
464.60 1.293
464.70 1.292
464.80 1.291
464.90 1.29
465.00 1.289
465.10 1.288
465.20 1.287
465.30 1.286
465.40 1.285
465.50 1.284
465.60 1.283
465.70 1.282
465.80 1.281
465.90 1.28
466.00 1.279
466.10 1.278
466.20 1.277
466.30 1.276
466.40 1.275
466.50 1.274
466.60 1.273
466.70 1.272
466.80 1.271
466.90 1.27
467.00 1.269
467.10 1.268
467.20 1.267
467.30 1.266
467.40 1.265
467.50 1.264
467.60 1.263
467.70 1.262
467.80 1.261
467.90 1.26
468.00 1.259
468.10 1.259
468.20 1.258
468.30 1.257
468.40 1.256
468.50 1.255
468.60 1.254
468.70 1.253
468.80 1.252
468.90 1.251
469.00 1.25
469.10 1.249
469.20 1.248
469.30 1.247
469.40 1.246
469.50 1.245
469.60 1.244
469.70 1.243
469.80 1.242
469.90 1.241
470.00 1.24
470.10 1.239
470.20 1.238
470.30 1.237
470.40 1.236
470.50 1.235
470.60 1.234
470.70 1.233
470.80 1.232
470.90 1.231
471.00 1.23
471.10 1.229
471.20 1.228
471.30 1.227
471.40 1.226
471.50 1.225
471.60 1.224
471.70 1.223
471.80 1.222
471.90 1.222
472.00 1.221
472.10 1.22
472.20 1.219
472.30 1.218
472.40 1.217
472.50 1.216
472.60 1.215
472.70 1.214
472.80 1.213
472.90 1.212
473.00 1.211
473.10 1.21
473.20 1.209
473.30 1.208
473.40 1.207
473.50 1.206
473.60 1.205
473.70 1.204
473.80 1.202
473.90 1.201
474.00 1.2
474.10 1.199
474.20 1.198
474.30 1.197
474.40 1.196
474.50 1.195
474.60 1.194
474.70 1.193
474.80 1.192
474.90 1.191
475.00 1.19
475.10 1.189
475.20 1.188
475.30 1.187
475.40 1.186
475.50 1.185
475.60 1.183
475.70 1.182
475.80 1.181
475.90 1.18
476.00 1.179
476.10 1.178
476.20 1.177
476.30 1.176
476.40 1.174
476.50 1.173
476.60 1.172
476.70 1.171
476.80 1.17
476.90 1.169
477.00 1.167
477.10 1.166
477.20 1.165
477.30 1.164
477.40 1.162
477.50 1.161
477.60 1.16
477.70 1.158
477.80 1.157
477.90 1.156
478.00 1.155
478.10 1.153
478.20 1.152
478.30 1.15
478.40 1.149
478.50 1.147
478.60 1.146
478.70 1.144
478.80 1.143
478.90 1.141
479.00 1.14
479.10 1.138
479.20 1.137
479.30 1.135
479.40 1.133
479.50 1.131
479.60 1.129
479.70 1.127
479.80 1.126
479.90 1.124
480.00 1.122
480.10 1.12
480.20 1.118
480.30 1.116
480.40 1.113
480.50 1.111
480.60 1.108
480.70 1.106
480.80 1.104
480.90 1.101
481.00 1.099
481.10 1.096
481.20 1.093
481.30 1.09
481.40 1.086
481.50 1.083
481.60 1.08
481.70 1.076
481.80 1.073
481.90 1.069
482.00 1.066
482.10 1.063
482.20 1.058
482.30 1.053
482.40 1.047
482.50 1.042
482.60 1.037
482.70 1.032
482.80 1.026
482.90 1.021
483.00 1.016
483.10 1.01
483.20 1.003
483.30 0.9943
483.40 0.9857
483.50 0.9771
483.60 0.9685
483.70 0.9599
483.80 0.9513
483.90 0.9427
484.00 0.9341
484.10 0.9256
484.20 0.9144
484.30 0.902
484.40 0.8896
484.50 0.8773
484.60 0.8649
484.70 0.8503
484.80 0.8347
484.90 0.8192
485.00 0.8036
485.10 0.788
485.20 0.7707
485.30 0.7525
485.40 0.7333
485.50 0.7135
485.60 0.6924
485.70 0.6706
485.80 0.6459
485.90 0.6197
486.00 0.5861
486.10 0.4853
486.20 0.5425
486.30 0.5989
486.40 0.6267
486.50 0.6522
486.60 0.6747
486.70 0.6957
486.80 0.7152
486.90 0.734
487.00 0.7516
487.10 0.7686
487.20 0.7839
487.30 0.7983
487.40 0.8127
487.50 0.8271
487.60 0.8415
487.70 0.8535
487.80 0.8645
487.90 0.8754
488.00 0.8864
488.10 0.8973
488.20 0.9056
488.30 0.9126
488.40 0.9197
488.50 0.9267
488.60 0.9337
488.70 0.9407
488.80 0.9477
488.90 0.9547
489.00 0.9617
489.10 0.9687
489.20 0.9734
489.30 0.977
489.40 0.9806
489.50 0.9842
489.60 0.9878
489.70 0.9913
489.80 0.9949
489.90 0.9985
490.00 1.002
490.10 1.006
490.20 1.008
490.30 1.01
490.40 1.011
490.50 1.013
490.60 1.015
490.70 1.016
490.80 1.018
490.90 1.02
491.00 1.022
491.10 1.023
491.20 1.024
491.30 1.025
491.40 1.026
491.50 1.026
491.60 1.027
491.70 1.028
491.80 1.029
491.90 1.029
492.00 1.03
492.10 1.031
492.20 1.031
492.30 1.031
492.40 1.031
492.50 1.031
492.60 1.032
492.70 1.032
492.80 1.032
492.90 1.032
493.00 1.032
493.10 1.032
493.20 1.032
493.30 1.032
493.40 1.032
493.50 1.032
493.60 1.032
493.70 1.031
493.80 1.031
493.90 1.031
494.00 1.031
494.10 1.031
494.20 1.03
494.30 1.03
494.40 1.03
494.50 1.029
494.60 1.029
494.70 1.029
494.80 1.028
494.90 1.028
495.00 1.028
495.10 1.027
495.20 1.027
495.30 1.026
495.40 1.026
495.50 1.025
495.60 1.025
495.70 1.025
495.80 1.024
495.90 1.024
496.00 1.023
496.10 1.023
496.20 1.022
496.30 1.022
496.40 1.021
496.50 1.021
496.60 1.02
496.70 1.02
496.80 1.019
496.90 1.018
497.00 1.018
497.10 1.017
497.20 1.017
497.30 1.016
497.40 1.016
497.50 1.015
497.60 1.015
497.70 1.014
497.80 1.013
497.90 1.013
498.00 1.012
498.10 1.012
498.20 1.011
498.30 1.01
498.40 1.01
498.50 1.009
498.60 1.009
498.70 1.008
498.80 1.007
498.90 1.007
499.00 1.006
499.10 1.006
499.20 1.005
499.30 1.004
499.40 1.004
499.50 1.003
499.60 1.002
499.70 1.002
499.80 1.001
499.90 1.001
500.00 1
500.10 0.9994
500.20 0.9987
500.30 0.9981
500.40 0.9975
500.50 0.9968
500.60 0.9962
500.70 0.9956
500.80 0.9949
500.90 0.9943
501.00 0.9937
501.10 0.993
501.20 0.9924
501.30 0.9917
501.40 0.9911
501.50 0.9905
501.60 0.9898
501.70 0.9892
501.80 0.9885
501.90 0.9879
502.00 0.9873
502.10 0.9866
502.20 0.986
502.30 0.9853
502.40 0.9847
502.50 0.984
502.60 0.9834
502.70 0.9827
502.80 0.9821
502.90 0.9814
503.00 0.9808
503.10 0.9802
503.20 0.9795
503.30 0.9789
503.40 0.9782
503.50 0.9776
503.60 0.9769
503.70 0.9763
503.80 0.9756
503.90 0.975
504.00 0.9743
504.10 0.9737
504.20 0.973
504.30 0.9724
504.40 0.9717
504.50 0.9711
504.60 0.9705
504.70 0.9698
504.80 0.9692
504.90 0.9685
505.00 0.9679
505.10 0.9672
505.20 0.9666
505.30 0.9659
505.40 0.9653
505.50 0.9646
505.60 0.964
505.70 0.9633
505.80 0.9627
505.90 0.9621
506.00 0.9614
506.10 0.9608
506.20 0.9601
506.30 0.9595
506.40 0.9588
506.50 0.9582
506.60 0.9576
506.70 0.9569
506.80 0.9563
506.90 0.9556
507.00 0.955
507.10 0.9543
507.20 0.9537
507.30 0.9531
507.40 0.9524
507.50 0.9518
507.60 0.9511
507.70 0.9505
507.80 0.9499
507.90 0.9492
508.00 0.9486
508.10 0.9479
508.20 0.9473
508.30 0.9467
508.40 0.946
508.50 0.9454
508.60 0.9447
508.70 0.9441
508.80 0.9435
508.90 0.9428
509.00 0.9422
509.10 0.9416
509.20 0.9409
509.30 0.9403
509.40 0.9397
509.50 0.939
509.60 0.9384
509.70 0.9378
509.80 0.9371
509.90 0.9365
510.00 0.9359
510.10 0.9352
510.20 0.9346
510.30 0.934
510.40 0.9333
510.50 0.9327
510.60 0.9321
510.70 0.9315
510.80 0.9308
510.90 0.9302
511.00 0.9296
511.10 0.9289
511.20 0.9283
511.30 0.9277
511.40 0.9271
511.50 0.9264
511.60 0.9258
511.70 0.9252
511.80 0.9246
511.90 0.9239
512.00 0.9233
512.10 0.9227
512.20 0.9221
512.30 0.9214
512.40 0.9208
512.50 0.9202
512.60 0.9196
512.70 0.919
512.80 0.9183
512.90 0.9177
513.00 0.9171
513.10 0.9165
513.20 0.9159
513.30 0.9153
513.40 0.9146
513.50 0.914
513.60 0.9134
513.70 0.9128
513.80 0.9122
513.90 0.9116
514.00 0.9109
514.10 0.9103
514.20 0.9097
514.30 0.9091
514.40 0.9085
514.50 0.9079
514.60 0.9073
514.70 0.9067
514.80 0.906
514.90 0.9054
515.00 0.9048
515.10 0.9042
515.20 0.9036
515.30 0.903
515.40 0.9024
515.50 0.9018
515.60 0.9012
515.70 0.9006
515.80 0.9
515.90 0.8994
516.00 0.8988
516.10 0.8981
516.20 0.8975
516.30 0.8969
516.40 0.8963
516.50 0.8957
516.60 0.8951
516.70 0.8945
516.80 0.8939
516.90 0.8933
517.00 0.8927
517.10 0.8921
517.20 0.8915
517.30 0.8909
517.40 0.8903
517.50 0.8897
517.60 0.8891
517.70 0.8885
517.80 0.8879
517.90 0.8873
518.00 0.8867
518.10 0.8861
518.20 0.8856
518.30 0.885
518.40 0.8844
518.50 0.8838
518.60 0.8832
518.70 0.8826
518.80 0.882
518.90 0.8814
519.00 0.8808
519.10 0.8802
519.20 0.8796
519.30 0.879
519.40 0.8784
519.50 0.8779
519.60 0.8773
519.70 0.8767
519.80 0.8761
519.90 0.8755
520.00 0.8749
520.10 0.8743
520.20 0.8738
520.30 0.8732
520.40 0.8726
520.50 0.872
520.60 0.8714
520.70 0.8708
520.80 0.8702
520.90 0.8697
521.00 0.8691
521.10 0.8685
521.20 0.8679
521.30 0.8673
521.40 0.8668
521.50 0.8662
521.60 0.8656
521.70 0.865
521.80 0.8644
521.90 0.8639
522.00 0.8633
522.10 0.8627
522.20 0.8621
522.30 0.8616
522.40 0.861
522.50 0.8604
522.60 0.8598
522.70 0.8593
522.80 0.8587
522.90 0.8581
523.00 0.8575
523.10 0.857
523.20 0.8564
523.30 0.8558
523.40 0.8553
523.50 0.8547
523.60 0.8541
523.70 0.8536
523.80 0.853
523.90 0.8524
524.00 0.8518
524.10 0.8513
524.20 0.8507
524.30 0.8501
524.40 0.8496
524.50 0.849
524.60 0.8484
524.70 0.8479
524.80 0.8473
524.90 0.8468
525.00 0.8462
525.10 0.8456
525.20 0.8451
525.30 0.8445
525.40 0.8439
525.50 0.8434
525.60 0.8428
525.70 0.8423
525.80 0.8417
525.90 0.8411
526.00 0.8406
526.10 0.84
526.20 0.8395
526.30 0.8389
526.40 0.8384
526.50 0.8378
526.60 0.8372
526.70 0.8367
526.80 0.8361
526.90 0.8356
527.00 0.835
527.10 0.8345
527.20 0.8339
527.30 0.8334
527.40 0.8328
527.50 0.8323
527.60 0.8317
527.70 0.8312
527.80 0.8306
527.90 0.8301
528.00 0.8295
528.10 0.829
528.20 0.8284
528.30 0.8279
528.40 0.8273
528.50 0.8268
528.60 0.8262
528.70 0.8257
528.80 0.8251
528.90 0.8246
529.00 0.824
529.10 0.8235
529.20 0.823
529.30 0.8224
529.40 0.8219
529.50 0.8213
529.60 0.8208
529.70 0.8202
529.80 0.8197
529.90 0.8192
530.00 0.8186
530.10 0.8181
530.20 0.8175
530.30 0.817
530.40 0.8165
530.50 0.8159
530.60 0.8154
530.70 0.8148
530.80 0.8143
530.90 0.8138
531.00 0.8132
531.10 0.8127
531.20 0.8122
531.30 0.8116
531.40 0.8111
531.50 0.8106
531.60 0.81
531.70 0.8095
531.80 0.809
531.90 0.8084
532.00 0.8079
532.10 0.8074
532.20 0.8068
532.30 0.8063
532.40 0.8058
532.50 0.8052
532.60 0.8047
532.70 0.8042
532.80 0.8037
532.90 0.8031
533.00 0.8026
533.10 0.8021
533.20 0.8015
533.30 0.801
533.40 0.8005
533.50 0.8
533.60 0.7994
533.70 0.7989
533.80 0.7984
533.90 0.7979
534.00 0.7973
534.10 0.7968
534.20 0.7963
534.30 0.7958
534.40 0.7953
534.50 0.7947
534.60 0.7942
534.70 0.7937
534.80 0.7932
534.90 0.7927
535.00 0.7921
535.10 0.7916
535.20 0.7911
535.30 0.7906
535.40 0.7901
535.50 0.7895
535.60 0.789
535.70 0.7885
535.80 0.788
535.90 0.7875
536.00 0.787
536.10 0.7865
536.20 0.7859
536.30 0.7854
536.40 0.7849
536.50 0.7844
536.60 0.7839
536.70 0.7834
536.80 0.7829
536.90 0.7824
537.00 0.7818
537.10 0.7813
537.20 0.7808
537.30 0.7803
537.40 0.7798
537.50 0.7793
537.60 0.7788
537.70 0.7783
537.80 0.7778
537.90 0.7773
538.00 0.7768
538.10 0.7763
538.20 0.7757
538.30 0.7752
538.40 0.7747
538.50 0.7742
538.60 0.7737
538.70 0.7732
538.80 0.7727
538.90 0.7722
539.00 0.7717
539.10 0.7712
539.20 0.7707
539.30 0.7702
539.40 0.7697
539.50 0.7692
539.60 0.7687
539.70 0.7682
539.80 0.7677
539.90 0.7672
540.00 0.7667
540.10 0.7662
540.20 0.7657
540.30 0.7652
540.40 0.7647
540.50 0.7642
540.60 0.7637
540.70 0.7632
540.80 0.7627
540.90 0.7623
541.00 0.7618
541.10 0.7613
541.20 0.7608
541.30 0.7603
541.40 0.7598
541.50 0.7593
541.60 0.7588
541.70 0.7583
541.80 0.7578
541.90 0.7573
542.00 0.7568
542.10 0.7563
542.20 0.7559
542.30 0.7554
542.40 0.7549
542.50 0.7544
542.60 0.7539
542.70 0.7534
542.80 0.7529
542.90 0.7524
543.00 0.752
543.10 0.7515
543.20 0.751
543.30 0.7505
543.40 0.75
543.50 0.7495
543.60 0.749
543.70 0.7486
543.80 0.7481
543.90 0.7476
544.00 0.7471
544.10 0.7466
544.20 0.7462
544.30 0.7457
544.40 0.7452
544.50 0.7447
544.60 0.7442
544.70 0.7437
544.80 0.7433
544.90 0.7428
545.00 0.7423
545.10 0.7418
545.20 0.7414
545.30 0.7409
545.40 0.7404
545.50 0.7399
545.60 0.7395
545.70 0.739
545.80 0.7385
545.90 0.738
546.00 0.7376
546.10 0.7371
546.20 0.7366
546.30 0.7361
546.40 0.7357
546.50 0.7352
546.60 0.7347
546.70 0.7342
546.80 0.7338
546.90 0.7333
547.00 0.7328
547.10 0.7324
547.20 0.7319
547.30 0.7314
547.40 0.7309
547.50 0.7305
547.60 0.73
547.70 0.7295
547.80 0.7291
547.90 0.7286
548.00 0.7281
548.10 0.7277
548.20 0.7272
548.30 0.7267
548.40 0.7263
548.50 0.7258
548.60 0.7253
548.70 0.7249
548.80 0.7244
548.90 0.724
549.00 0.7235
549.10 0.723
549.20 0.7226
549.30 0.7221
549.40 0.7216
549.50 0.7212
549.60 0.7207
549.70 0.7203
549.80 0.7198
549.90 0.7193
550.00 0.7189
550.10 0.7184
550.20 0.718
550.30 0.7175
550.40 0.717
550.50 0.7166
550.60 0.7161
550.70 0.7157
550.80 0.7152
550.90 0.7148
551.00 0.7143
551.10 0.7138
551.20 0.7134
551.30 0.7129
551.40 0.7125
551.50 0.712
551.60 0.7116
551.70 0.7111
551.80 0.7107
551.90 0.7102
552.00 0.7098
552.10 0.7093
552.20 0.7089
552.30 0.7084
552.40 0.708
552.50 0.7075
552.60 0.7071
552.70 0.7066
552.80 0.7062
552.90 0.7057
553.00 0.7053
553.10 0.7048
553.20 0.7044
553.30 0.7039
553.40 0.7035
553.50 0.703
553.60 0.7026
553.70 0.7021
553.80 0.7017
553.90 0.7012
554.00 0.7008
554.10 0.7003
554.20 0.6999
554.30 0.6995
554.40 0.699
554.50 0.6986
554.60 0.6981
554.70 0.6977
554.80 0.6972
554.90 0.6968
555.00 0.6964
555.10 0.6959
555.20 0.6955
555.30 0.695
555.40 0.6946
555.50 0.6942
555.60 0.6937
555.70 0.6933
555.80 0.6928
555.90 0.6924
556.00 0.692
556.10 0.6915
556.20 0.6911
556.30 0.6907
556.40 0.6902
556.50 0.6898
556.60 0.6893
556.70 0.6889
556.80 0.6885
556.90 0.688
557.00 0.6876
557.10 0.6872
557.20 0.6867
557.30 0.6863
557.40 0.6859
557.50 0.6854
557.60 0.685
557.70 0.6846
557.80 0.6841
557.90 0.6837
558.00 0.6833
558.10 0.6828
558.20 0.6824
558.30 0.682
558.40 0.6816
558.50 0.6811
558.60 0.6807
558.70 0.6803
558.80 0.6798
558.90 0.6794
559.00 0.679
559.10 0.6786
559.20 0.6781
559.30 0.6777
559.40 0.6773
559.50 0.6768
559.60 0.6764
559.70 0.676
559.80 0.6756
559.90 0.6751
560.00 0.6747
560.10 0.6743
560.20 0.6739
560.30 0.6735
560.40 0.673
560.50 0.6726
560.60 0.6722
560.70 0.6718
560.80 0.6713
560.90 0.6709
561.00 0.6705
561.10 0.6701
561.20 0.6697
561.30 0.6692
561.40 0.6688
561.50 0.6684
561.60 0.668
561.70 0.6676
561.80 0.6671
561.90 0.6667
562.00 0.6663
562.10 0.6659
562.20 0.6655
562.30 0.6651
562.40 0.6646
562.50 0.6642
562.60 0.6638
562.70 0.6634
562.80 0.663
562.90 0.6626
563.00 0.6621
563.10 0.6617
563.20 0.6613
563.30 0.6609
563.40 0.6605
563.50 0.6601
563.60 0.6597
563.70 0.6593
563.80 0.6588
563.90 0.6584
564.00 0.658
564.10 0.6576
564.20 0.6572
564.30 0.6568
564.40 0.6564
564.50 0.656
564.60 0.6556
564.70 0.6552
564.80 0.6547
564.90 0.6543
565.00 0.6539
565.10 0.6535
565.20 0.6531
565.30 0.6527
565.40 0.6523
565.50 0.6519
565.60 0.6515
565.70 0.6511
565.80 0.6507
565.90 0.6503
566.00 0.6499
566.10 0.6495
566.20 0.6491
566.30 0.6486
566.40 0.6482
566.50 0.6478
566.60 0.6474
566.70 0.647
566.80 0.6466
566.90 0.6462
567.00 0.6458
567.10 0.6454
567.20 0.645
567.30 0.6446
567.40 0.6442
567.50 0.6438
567.60 0.6434
567.70 0.643
567.80 0.6426
567.90 0.6422
568.00 0.6418
568.10 0.6414
568.20 0.641
568.30 0.6406
568.40 0.6402
568.50 0.6398
568.60 0.6394
568.70 0.6391
568.80 0.6387
568.90 0.6383
569.00 0.6379
569.10 0.6375
569.20 0.6371
569.30 0.6367
569.40 0.6363
569.50 0.6359
569.60 0.6355
569.70 0.6351
569.80 0.6347
569.90 0.6343
570.00 0.6339
570.10 0.6335
570.20 0.6331
570.30 0.6328
570.40 0.6324
570.50 0.632
570.60 0.6316
570.70 0.6312
570.80 0.6308
570.90 0.6304
571.00 0.63
571.10 0.6296
571.20 0.6292
571.30 0.6289
571.40 0.6285
571.50 0.6281
571.60 0.6277
571.70 0.6273
571.80 0.6269
571.90 0.6265
572.00 0.6261
572.10 0.6258
572.20 0.6254
572.30 0.625
572.40 0.6246
572.50 0.6242
572.60 0.6238
572.70 0.6234
572.80 0.6231
572.90 0.6227
573.00 0.6223
573.10 0.6219
573.20 0.6215
573.30 0.6211
573.40 0.6208
573.50 0.6204
573.60 0.62
573.70 0.6196
573.80 0.6192
573.90 0.6189
574.00 0.6185
574.10 0.6181
574.20 0.6177
574.30 0.6173
574.40 0.617
574.50 0.6166
574.60 0.6162
574.70 0.6158
574.80 0.6154
574.90 0.6151
575.00 0.6147
575.10 0.6143
575.20 0.6139
575.30 0.6136
575.40 0.6132
575.50 0.6128
575.60 0.6124
575.70 0.6121
575.80 0.6117
575.90 0.6113
576.00 0.6109
576.10 0.6106
576.20 0.6102
576.30 0.6098
576.40 0.6094
576.50 0.6091
576.60 0.6087
576.70 0.6083
576.80 0.6079
576.90 0.6076
577.00 0.6072
577.10 0.6068
577.20 0.6065
577.30 0.6061
577.40 0.6057
577.50 0.6053
577.60 0.605
577.70 0.6046
577.80 0.6042
577.90 0.6039
578.00 0.6035
578.10 0.6031
578.20 0.6028
578.30 0.6024
578.40 0.602
578.50 0.6017
578.60 0.6013
578.70 0.6009
578.80 0.6006
578.90 0.6002
579.00 0.5998
579.10 0.5995
579.20 0.5991
579.30 0.5987
579.40 0.5984
579.50 0.598
579.60 0.5976
579.70 0.5973
579.80 0.5969
579.90 0.5965
580.00 0.5962
580.10 0.5958
580.20 0.5955
580.30 0.5951
580.40 0.5947
580.50 0.5944
580.60 0.594
580.70 0.5936
580.80 0.5933
580.90 0.5929
581.00 0.5926
581.10 0.5922
581.20 0.5918
581.30 0.5915
581.40 0.5911
581.50 0.5908
581.60 0.5904
581.70 0.59
581.80 0.5897
581.90 0.5893
582.00 0.589
582.10 0.5886
582.20 0.5883
582.30 0.5879
582.40 0.5875
582.50 0.5872
582.60 0.5868
582.70 0.5865
582.80 0.5861
582.90 0.5858
583.00 0.5854
583.10 0.5851
583.20 0.5847
583.30 0.5843
583.40 0.584
583.50 0.5836
583.60 0.5833
583.70 0.5829
583.80 0.5826
583.90 0.5822
584.00 0.5819
584.10 0.5815
584.20 0.5812
584.30 0.5808
584.40 0.5805
584.50 0.5801
584.60 0.5798
584.70 0.5794
584.80 0.5791
584.90 0.5787
585.00 0.5784
585.10 0.578
585.20 0.5777
585.30 0.5773
585.40 0.577
585.50 0.5766
585.60 0.5763
585.70 0.5759
585.80 0.5756
585.90 0.5752
586.00 0.5749
586.10 0.5745
586.20 0.5742
586.30 0.5738
586.40 0.5735
586.50 0.5732
586.60 0.5728
586.70 0.5725
586.80 0.5721
586.90 0.5718
587.00 0.5714
587.10 0.5711
587.20 0.5707
587.30 0.5704
587.40 0.5701
587.50 0.5697
587.60 0.5694
587.70 0.569
587.80 0.5687
587.90 0.5683
588.00 0.568
588.10 0.5677
588.20 0.5673
588.30 0.567
588.40 0.5666
588.50 0.5663
588.60 0.566
588.70 0.5656
588.80 0.5653
588.90 0.5649
589.00 0.5646
589.10 0.5643
589.20 0.5639
589.30 0.5636
589.40 0.5632
589.50 0.5629
589.60 0.5626
589.70 0.5622
589.80 0.5619
589.90 0.5616
590.00 0.5612
590.10 0.5609
590.20 0.5605
590.30 0.5602
590.40 0.5599
590.50 0.5595
590.60 0.5592
590.70 0.5589
590.80 0.5585
590.90 0.5582
591.00 0.5579
591.10 0.5575
591.20 0.5572
591.30 0.5569
591.40 0.5565
591.50 0.5562
591.60 0.5559
591.70 0.5555
591.80 0.5552
591.90 0.5549
592.00 0.5545
592.10 0.5542
592.20 0.5539
592.30 0.5535
592.40 0.5532
592.50 0.5529
592.60 0.5525
592.70 0.5522
592.80 0.5519
592.90 0.5516
593.00 0.5512
593.10 0.5509
593.20 0.5506
593.30 0.5502
593.40 0.5499
593.50 0.5496
593.60 0.5493
593.70 0.5489
593.80 0.5486
593.90 0.5483
594.00 0.548
594.10 0.5476
594.20 0.5473
594.30 0.547
594.40 0.5466
594.50 0.5463
594.60 0.546
594.70 0.5457
594.80 0.5453
594.90 0.545
595.00 0.5447
595.10 0.5444
595.20 0.544
595.30 0.5437
595.40 0.5434
595.50 0.5431
595.60 0.5428
595.70 0.5424
595.80 0.5421
595.90 0.5418
596.00 0.5415
596.10 0.5411
596.20 0.5408
596.30 0.5405
596.40 0.5402
596.50 0.5399
596.60 0.5395
596.70 0.5392
596.80 0.5389
596.90 0.5386
597.00 0.5383
597.10 0.5379
597.20 0.5376
597.30 0.5373
597.40 0.537
597.50 0.5367
597.60 0.5363
597.70 0.536
597.80 0.5357
597.90 0.5354
598.00 0.5351
598.10 0.5348
598.20 0.5344
598.30 0.5341
598.40 0.5338
598.50 0.5335
598.60 0.5332
598.70 0.5329
598.80 0.5326
598.90 0.5322
599.00 0.5319
599.10 0.5316
599.20 0.5313
599.30 0.531
599.40 0.5307
599.50 0.5303
599.60 0.53
599.70 0.5297
599.80 0.5294
599.90 0.5291
600.00 0.5288
600.10 0.5285
600.20 0.5282
600.30 0.5278
600.40 0.5275
600.50 0.5272
600.60 0.5269
600.70 0.5266
600.80 0.5263
600.90 0.526
601.00 0.5257
601.10 0.5254
601.20 0.5251
601.30 0.5247
601.40 0.5244
601.50 0.5241
601.60 0.5238
601.70 0.5235
601.80 0.5232
601.90 0.5229
602.00 0.5226
602.10 0.5223
602.20 0.522
602.30 0.5217
602.40 0.5214
602.50 0.521
602.60 0.5207
602.70 0.5204
602.80 0.5201
602.90 0.5198
603.00 0.5195
603.10 0.5192
603.20 0.5189
603.30 0.5186
603.40 0.5183
603.50 0.518
603.60 0.5177
603.70 0.5174
603.80 0.5171
603.90 0.5168
604.00 0.5165
604.10 0.5162
604.20 0.5159
604.30 0.5156
604.40 0.5153
604.50 0.515
604.60 0.5147
604.70 0.5144
604.80 0.514
604.90 0.5137
605.00 0.5134
605.10 0.5131
605.20 0.5128
605.30 0.5125
605.40 0.5122
605.50 0.5119
605.60 0.5116
605.70 0.5113
605.80 0.511
605.90 0.5107
606.00 0.5104
606.10 0.5101
606.20 0.5098
606.30 0.5095
606.40 0.5093
606.50 0.509
606.60 0.5087
606.70 0.5084
606.80 0.5081
606.90 0.5078
607.00 0.5075
607.10 0.5072
607.20 0.5069
607.30 0.5066
607.40 0.5063
607.50 0.506
607.60 0.5057
607.70 0.5054
607.80 0.5051
607.90 0.5048
608.00 0.5045
608.10 0.5042
608.20 0.5039
608.30 0.5036
608.40 0.5033
608.50 0.503
608.60 0.5027
608.70 0.5025
608.80 0.5022
608.90 0.5019
609.00 0.5016
609.10 0.5013
609.20 0.501
609.30 0.5007
609.40 0.5004
609.50 0.5001
609.60 0.4998
609.70 0.4995
609.80 0.4992
609.90 0.4989
610.00 0.4987
610.10 0.4984
610.20 0.4981
610.30 0.4978
610.40 0.4975
610.50 0.4972
610.60 0.4969
610.70 0.4966
610.80 0.4963
610.90 0.4961
611.00 0.4958
611.10 0.4955
611.20 0.4952
611.30 0.4949
611.40 0.4946
611.50 0.4943
611.60 0.494
611.70 0.4938
611.80 0.4935
611.90 0.4932
612.00 0.4929
612.10 0.4926
612.20 0.4923
612.30 0.492
612.40 0.4917
612.50 0.4915
612.60 0.4912
612.70 0.4909
612.80 0.4906
612.90 0.4903
613.00 0.49
613.10 0.4898
613.20 0.4895
613.30 0.4892
613.40 0.4889
613.50 0.4886
613.60 0.4883
613.70 0.4881
613.80 0.4878
613.90 0.4875
614.00 0.4872
614.10 0.4869
614.20 0.4866
614.30 0.4864
614.40 0.4861
614.50 0.4858
614.60 0.4855
614.70 0.4852
614.80 0.4849
614.90 0.4847
615.00 0.4844
615.10 0.4841
615.20 0.4838
615.30 0.4835
615.40 0.4833
615.50 0.483
615.60 0.4827
615.70 0.4824
615.80 0.4822
615.90 0.4819
616.00 0.4816
616.10 0.4813
616.20 0.481
616.30 0.4808
616.40 0.4805
616.50 0.4802
616.60 0.4799
616.70 0.4797
616.80 0.4794
616.90 0.4791
617.00 0.4788
617.10 0.4785
617.20 0.4783
617.30 0.478
617.40 0.4777
617.50 0.4774
617.60 0.4772
617.70 0.4769
617.80 0.4766
617.90 0.4763
618.00 0.4761
618.10 0.4758
618.20 0.4755
618.30 0.4752
618.40 0.475
618.50 0.4747
618.60 0.4744
618.70 0.4742
618.80 0.4739
618.90 0.4736
619.00 0.4733
619.10 0.4731
619.20 0.4728
619.30 0.4725
619.40 0.4722
619.50 0.472
619.60 0.4717
619.70 0.4714
619.80 0.4712
619.90 0.4709
620.00 0.4706
620.10 0.4703
620.20 0.4701
620.30 0.4698
620.40 0.4695
620.50 0.4693
620.60 0.469
620.70 0.4687
620.80 0.4685
620.90 0.4682
621.00 0.4679
621.10 0.4677
621.20 0.4674
621.30 0.4671
621.40 0.4668
621.50 0.4666
621.60 0.4663
621.70 0.466
621.80 0.4658
621.90 0.4655
622.00 0.4652
622.10 0.465
622.20 0.4647
622.30 0.4644
622.40 0.4642
622.50 0.4639
622.60 0.4636
622.70 0.4634
622.80 0.4631
622.90 0.4628
623.00 0.4626
623.10 0.4623
623.20 0.462
623.30 0.4618
623.40 0.4615
623.50 0.4613
623.60 0.461
623.70 0.4607
623.80 0.4605
623.90 0.4602
624.00 0.4599
624.10 0.4597
624.20 0.4594
624.30 0.4591
624.40 0.4589
624.50 0.4586
624.60 0.4584
624.70 0.4581
624.80 0.4578
624.90 0.4576
625.00 0.4573
625.10 0.457
625.20 0.4568
625.30 0.4565
625.40 0.4563
625.50 0.456
625.60 0.4557
625.70 0.4555
625.80 0.4552
625.90 0.455
626.00 0.4547
626.10 0.4544
626.20 0.4542
626.30 0.4539
626.40 0.4537
626.50 0.4534
626.60 0.4531
626.70 0.4529
626.80 0.4526
626.90 0.4524
627.00 0.4521
627.10 0.4518
627.20 0.4516
627.30 0.4513
627.40 0.4511
627.50 0.4508
627.60 0.4505
627.70 0.4503
627.80 0.45
627.90 0.4498
628.00 0.4495
628.10 0.4493
628.20 0.449
628.30 0.4487
628.40 0.4485
628.50 0.4482
628.60 0.448
628.70 0.4477
628.80 0.4475
628.90 0.4472
629.00 0.447
629.10 0.4467
629.20 0.4464
629.30 0.4462
629.40 0.4459
629.50 0.4457
629.60 0.4454
629.70 0.4452
629.80 0.4449
629.90 0.4447
630.00 0.4444
630.10 0.4441
630.20 0.4439
630.30 0.4436
630.40 0.4434
630.50 0.4431
630.60 0.4429
630.70 0.4426
630.80 0.4424
630.90 0.4421
631.00 0.4419
631.10 0.4416
631.20 0.4414
631.30 0.4411
631.40 0.4409
631.50 0.4406
631.60 0.4404
631.70 0.4401
631.80 0.4398
631.90 0.4396
632.00 0.4393
632.10 0.4391
632.20 0.4388
632.30 0.4386
632.40 0.4383
632.50 0.4381
632.60 0.4378
632.70 0.4376
632.80 0.4373
632.90 0.4371
633.00 0.4368
633.10 0.4366
633.20 0.4363
633.30 0.4361
633.40 0.4358
633.50 0.4356
633.60 0.4353
633.70 0.4351
633.80 0.4348
633.90 0.4346
634.00 0.4343
634.10 0.4341
634.20 0.4338
634.30 0.4336
634.40 0.4333
634.50 0.4331
634.60 0.4328
634.70 0.4326
634.80 0.4323
634.90 0.4321
635.00 0.4318
635.10 0.4316
635.20 0.4313
635.30 0.4311
635.40 0.4308
635.50 0.4306
635.60 0.4304
635.70 0.4301
635.80 0.4299
635.90 0.4296
636.00 0.4294
636.10 0.4291
636.20 0.4289
636.30 0.4286
636.40 0.4284
636.50 0.4281
636.60 0.4279
636.70 0.4276
636.80 0.4274
636.90 0.4271
637.00 0.4269
637.10 0.4266
637.20 0.4264
637.30 0.4261
637.40 0.4259
637.50 0.4256
637.60 0.4254
637.70 0.4251
637.80 0.4249
637.90 0.4247
638.00 0.4244
638.10 0.4242
638.20 0.4239
638.30 0.4237
638.40 0.4234
638.50 0.4232
638.60 0.4229
638.70 0.4227
638.80 0.4224
638.90 0.4222
639.00 0.4219
639.10 0.4217
639.20 0.4214
639.30 0.4212
639.40 0.4209
639.50 0.4207
639.60 0.4204
639.70 0.4202
639.80 0.4199
639.90 0.4197
640.00 0.4194
640.10 0.4192
640.20 0.4189
640.30 0.4187
640.40 0.4184
640.50 0.4182
640.60 0.4179
640.70 0.4177
640.80 0.4174
640.90 0.4172
641.00 0.4169
641.10 0.4167
641.20 0.4164
641.30 0.4162
641.40 0.4159
641.50 0.4157
641.60 0.4154
641.70 0.4152
641.80 0.4149
641.90 0.4147
642.00 0.4144
642.10 0.4142
642.20 0.4139
642.30 0.4137
642.40 0.4134
642.50 0.4131
642.60 0.4129
642.70 0.4126
642.80 0.4124
642.90 0.4121
643.00 0.4119
643.10 0.4116
643.20 0.4113
643.30 0.4111
643.40 0.4108
643.50 0.4106
643.60 0.4103
643.70 0.41
643.80 0.4098
643.90 0.4095
644.00 0.4092
644.10 0.409
644.20 0.4087
644.30 0.4085
644.40 0.4082
644.50 0.4079
644.60 0.4076
644.70 0.4074
644.80 0.4071
644.90 0.4068
645.00 0.4065
645.10 0.4063
645.20 0.406
645.30 0.4057
645.40 0.4054
645.50 0.4051
645.60 0.4049
645.70 0.4046
645.80 0.4043
645.90 0.404
646.00 0.4037
646.10 0.4034
646.20 0.4031
646.30 0.4029
646.40 0.4026
646.50 0.4022
646.60 0.4019
646.70 0.4016
646.80 0.4013
646.90 0.401
647.00 0.4007
647.10 0.4004
647.20 0.4001
647.30 0.3998
647.40 0.3994
647.50 0.3991
647.60 0.3988
647.70 0.3984
647.80 0.3981
647.90 0.3978
648.00 0.3974
648.10 0.3971
648.20 0.3967
648.30 0.3964
648.40 0.396
648.50 0.3956
648.60 0.3952
648.70 0.3948
648.80 0.3944
648.90 0.3941
649.00 0.3937
649.10 0.3933
649.20 0.3929
649.30 0.3925
649.40 0.392
649.50 0.3915
649.60 0.3911
649.70 0.3906
649.80 0.3901
649.90 0.3896
650.00 0.3892
650.10 0.3887
650.20 0.3882
650.30 0.3877
650.40 0.3871
650.50 0.3865
650.60 0.3859
650.70 0.3853
650.80 0.3847
650.90 0.3841
651.00 0.3834
651.10 0.3828
651.20 0.3822
651.30 0.3816
651.40 0.3807
651.50 0.3798
651.60 0.379
651.70 0.3781
651.80 0.3773
651.90 0.3764
652.00 0.3756
652.10 0.3747
652.20 0.3738
652.30 0.3729
652.40 0.3716
652.50 0.3703
652.60 0.369
652.70 0.3677
652.80 0.3664
652.90 0.3651
653.00 0.3638
653.10 0.3625
653.20 0.3612
653.30 0.3597
653.40 0.3576
653.50 0.3555
653.60 0.3534
653.70 0.3513
653.80 0.3492
653.90 0.3472
654.00 0.3451
654.10 0.343
654.20 0.3409
654.30 0.3386
654.40 0.3356
654.50 0.3326
654.60 0.3296
654.70 0.3266
654.80 0.3235
654.90 0.3197
655.00 0.3159
655.10 0.3121
655.20 0.3083
655.30 0.3044
655.40 0.2999
655.50 0.2953
655.60 0.2903
655.70 0.2851
655.80 0.2794
655.90 0.2733
656.00 0.2656
656.10 0.2573
656.20 0.2338
656.30 0.1481
656.40 0.2467
656.50 0.2601
656.60 0.2677
656.70 0.2748
656.80 0.2803
656.90 0.2856
657.00 0.2902
657.10 0.2948
657.20 0.299
657.30 0.303
657.40 0.3065
657.50 0.3099
657.60 0.3134
657.70 0.3168
657.80 0.3201
657.90 0.3227
658.00 0.3253
658.10 0.328
658.20 0.3306
658.30 0.333
658.40 0.3347
658.50 0.3364
658.60 0.338
658.70 0.3397
658.80 0.3414
658.90 0.3431
659.00 0.3447
659.10 0.3464
659.20 0.3481
659.30 0.3496
659.40 0.3505
659.50 0.3513
659.60 0.3522
659.70 0.3531
659.80 0.3539
659.90 0.3548
660.00 0.3557
660.10 0.3565
660.20 0.3574
660.30 0.3582
660.40 0.3586
660.50 0.359
660.60 0.3595
660.70 0.3599
660.80 0.3603
660.90 0.3607
661.00 0.3611
661.10 0.3615
661.20 0.362
661.30 0.3623
661.40 0.3625
661.50 0.3627
661.60 0.3629
661.70 0.363
661.80 0.3632
661.90 0.3634
662.00 0.3635
662.10 0.3637
662.20 0.3639
662.30 0.364
662.40 0.3641
662.50 0.3641
662.60 0.3641
662.70 0.3642
662.80 0.3642
662.90 0.3642
663.00 0.3643
663.10 0.3643
663.20 0.3644
663.30 0.3644
663.40 0.3643
663.50 0.3643
663.60 0.3642
663.70 0.3642
663.80 0.3642
663.90 0.3641
664.00 0.3641
664.10 0.364
664.20 0.364
664.30 0.3639
664.40 0.3638
664.50 0.3637
664.60 0.3636
664.70 0.3636
664.80 0.3635
664.90 0.3634
665.00 0.3633
665.10 0.3632
665.20 0.3631
665.30 0.363
665.40 0.3629
665.50 0.3627
665.60 0.3626
665.70 0.3625
665.80 0.3624
665.90 0.3623
666.00 0.3621
666.10 0.362
666.20 0.3619
666.30 0.3618
666.40 0.3616
666.50 0.3615
666.60 0.3613
666.70 0.3612
666.80 0.3611
666.90 0.3609
667.00 0.3608
667.10 0.3606
667.20 0.3605
667.30 0.3604
667.40 0.3602
667.50 0.36
667.60 0.3599
667.70 0.3597
667.80 0.3596
667.90 0.3594
668.00 0.3593
668.10 0.3591
668.20 0.359
668.30 0.3588
668.40 0.3586
668.50 0.3585
668.60 0.3583
668.70 0.3582
668.80 0.358
668.90 0.3578
669.00 0.3577
669.10 0.3575
669.20 0.3574
669.30 0.3572
669.40 0.357
669.50 0.3569
669.60 0.3567
669.70 0.3565
669.80 0.3563
669.90 0.3562
670.00 0.356
670.10 0.3558
670.20 0.3557
670.30 0.3555
670.40 0.3553
670.50 0.3552
670.60 0.355
670.70 0.3548
670.80 0.3546
670.90 0.3545
671.00 0.3543
671.10 0.3541
671.20 0.354
671.30 0.3538
671.40 0.3536
671.50 0.3534
671.60 0.3533
671.70 0.3531
671.80 0.3529
671.90 0.3527
672.00 0.3526
672.10 0.3524
672.20 0.3522
672.30 0.3521
672.40 0.3519
672.50 0.3517
672.60 0.3515
672.70 0.3513
672.80 0.3512
672.90 0.351
673.00 0.3508
673.10 0.3506
673.20 0.3505
673.30 0.3503
673.40 0.3501
673.50 0.3499
673.60 0.3498
673.70 0.3496
673.80 0.3494
673.90 0.3492
674.00 0.3491
674.10 0.3489
674.20 0.3487
674.30 0.3485
674.40 0.3484
674.50 0.3482
674.60 0.348
674.70 0.3478
674.80 0.3476
674.90 0.3475
675.00 0.3473
675.10 0.3471
675.20 0.3469
675.30 0.3468
675.40 0.3466
675.50 0.3464
675.60 0.3462
675.70 0.3461
675.80 0.3459
675.90 0.3457
676.00 0.3455
676.10 0.3453
676.20 0.3452
676.30 0.345
676.40 0.3448
676.50 0.3446
676.60 0.3445
676.70 0.3443
676.80 0.3441
676.90 0.3439
677.00 0.3438
677.10 0.3436
677.20 0.3434
677.30 0.3432
677.40 0.343
677.50 0.3429
677.60 0.3427
677.70 0.3425
677.80 0.3423
677.90 0.3422
678.00 0.342
678.10 0.3418
678.20 0.3416
678.30 0.3415
678.40 0.3413
678.50 0.3411
678.60 0.3409
678.70 0.3408
678.80 0.3406
678.90 0.3404
679.00 0.3402
679.10 0.3401
679.20 0.3399
679.30 0.3397
679.40 0.3395
679.50 0.3394
679.60 0.3392
679.70 0.339
679.80 0.3388
679.90 0.3387
680.00 0.3385
680.10 0.3383
680.20 0.3381
680.30 0.338
680.40 0.3378
680.50 0.3376
680.60 0.3374
680.70 0.3373
680.80 0.3371
680.90 0.3369
681.00 0.3367
681.10 0.3366
681.20 0.3364
681.30 0.3362
681.40 0.336
681.50 0.3359
681.60 0.3357
681.70 0.3355
681.80 0.3353
681.90 0.3352
682.00 0.335
682.10 0.3348
682.20 0.3346
682.30 0.3345
682.40 0.3343
682.50 0.3341
682.60 0.334
682.70 0.3338
682.80 0.3336
682.90 0.3334
683.00 0.3333
683.10 0.3331
683.20 0.3329
683.30 0.3327
683.40 0.3326
683.50 0.3324
683.60 0.3322
683.70 0.3321
683.80 0.3319
683.90 0.3317
684.00 0.3315
684.10 0.3314
684.20 0.3312
684.30 0.331
684.40 0.3309
684.50 0.3307
684.60 0.3305
684.70 0.3303
684.80 0.3302
684.90 0.33
685.00 0.3298
685.10 0.3297
685.20 0.3295
685.30 0.3293
685.40 0.3291
685.50 0.329
685.60 0.3288
685.70 0.3286
685.80 0.3285
685.90 0.3283
686.00 0.3281
686.10 0.328
686.20 0.3278
686.30 0.3276
686.40 0.3274
686.50 0.3273
686.60 0.3271
686.70 0.3269
686.80 0.3268
686.90 0.3266
687.00 0.3264
687.10 0.3263
687.20 0.3261
687.30 0.3259
687.40 0.3258
687.50 0.3256
687.60 0.3254
687.70 0.3252
687.80 0.3251
687.90 0.3249
688.00 0.3247
688.10 0.3246
688.20 0.3244
688.30 0.3242
688.40 0.3241
688.50 0.3239
688.60 0.3237
688.70 0.3236
688.80 0.3234
688.90 0.3232
689.00 0.3231
689.10 0.3229
689.20 0.3227
689.30 0.3226
689.40 0.3224
689.50 0.3222
689.60 0.3221
689.70 0.3219
689.80 0.3217
689.90 0.3216
690.00 0.3214
690.10 0.3212
690.20 0.3211
690.30 0.3209
690.40 0.3207
690.50 0.3206
690.60 0.3204
690.70 0.3202
690.80 0.3201
690.90 0.3199
691.00 0.3198
691.10 0.3196
691.20 0.3194
691.30 0.3193
691.40 0.3191
691.50 0.3189
691.60 0.3188
691.70 0.3186
691.80 0.3184
691.90 0.3183
692.00 0.3181
692.10 0.3179
692.20 0.3178
692.30 0.3176
692.40 0.3175
692.50 0.3173
692.60 0.3171
692.70 0.317
692.80 0.3168
692.90 0.3166
693.00 0.3165
693.10 0.3163
693.20 0.3161
693.30 0.316
693.40 0.3158
693.50 0.3157
693.60 0.3155
693.70 0.3153
693.80 0.3152
693.90 0.315
694.00 0.3148
694.10 0.3147
694.20 0.3145
694.30 0.3144
694.40 0.3142
694.50 0.314
694.60 0.3139
694.70 0.3137
694.80 0.3136
694.90 0.3134
695.00 0.3132
695.10 0.3131
695.20 0.3129
695.30 0.3127
695.40 0.3126
695.50 0.3124
695.60 0.3123
695.70 0.3121
695.80 0.3119
695.90 0.3118
696.00 0.3116
696.10 0.3115
696.20 0.3113
696.30 0.3111
696.40 0.311
696.50 0.3108
696.60 0.3107
696.70 0.3105
696.80 0.3104
696.90 0.3102
697.00 0.31
697.10 0.3099
697.20 0.3097
697.30 0.3096
697.40 0.3094
697.50 0.3092
697.60 0.3091
697.70 0.3089
697.80 0.3088
697.90 0.3086
698.00 0.3084
698.10 0.3083
698.20 0.3081
698.30 0.308
698.40 0.3078
698.50 0.3077
698.60 0.3075
698.70 0.3073
698.80 0.3072
698.90 0.307
699.00 0.3069
699.10 0.3067
699.20 0.3066
699.30 0.3064
699.40 0.3062
699.50 0.3061
699.60 0.3059
699.70 0.3058
699.80 0.3056
699.90 0.3055
700.00 0.3053
700.10 0.3051
700.20 0.305
700.30 0.3048
700.40 0.3047
700.50 0.3045
700.60 0.3044
700.70 0.3042
700.80 0.3041
700.90 0.3039
701.00 0.3037
701.10 0.3036
701.20 0.3034
701.30 0.3033
701.40 0.3031
701.50 0.303
701.60 0.3028
701.70 0.3027
701.80 0.3025
701.90 0.3024
702.00 0.3022
702.10 0.3021
702.20 0.3019
702.30 0.3017
702.40 0.3016
702.50 0.3014
702.60 0.3013
702.70 0.3011
702.80 0.301
702.90 0.3008
703.00 0.3007
703.10 0.3005
703.20 0.3004
703.30 0.3002
703.40 0.3001
703.50 0.2999
703.60 0.2998
703.70 0.2996
703.80 0.2994
703.90 0.2993
704.00 0.2991
704.10 0.299
704.20 0.2988
704.30 0.2987
704.40 0.2985
704.50 0.2984
704.60 0.2982
704.70 0.2981
704.80 0.2979
704.90 0.2978
705.00 0.2976
705.10 0.2975
705.20 0.2973
705.30 0.2972
705.40 0.297
705.50 0.2969
705.60 0.2967
705.70 0.2966
705.80 0.2964
705.90 0.2963
706.00 0.2961
706.10 0.296
706.20 0.2958
706.30 0.2957
706.40 0.2955
706.50 0.2954
706.60 0.2952
706.70 0.2951
706.80 0.2949
706.90 0.2948
707.00 0.2946
707.10 0.2945
707.20 0.2943
707.30 0.2942
707.40 0.294
707.50 0.2939
707.60 0.2937
707.70 0.2936
707.80 0.2934
707.90 0.2933
708.00 0.2931
708.10 0.293
708.20 0.2928
708.30 0.2927
708.40 0.2925
708.50 0.2924
708.60 0.2922
708.70 0.2921
708.80 0.2919
708.90 0.2918
709.00 0.2917
709.10 0.2915
709.20 0.2914
709.30 0.2912
709.40 0.2911
709.50 0.2909
709.60 0.2908
709.70 0.2906
709.80 0.2905
709.90 0.2903
710.00 0.2902
710.10 0.29
710.20 0.2899
710.30 0.2897
710.40 0.2896
710.50 0.2894
710.60 0.2893
710.70 0.2892
710.80 0.289
710.90 0.2889
711.00 0.2887
711.10 0.2886
711.20 0.2884
711.30 0.2883
711.40 0.2881
711.50 0.288
711.60 0.2878
711.70 0.2877
711.80 0.2876
711.90 0.2874
712.00 0.2873
712.10 0.2871
712.20 0.287
712.30 0.2868
712.40 0.2867
712.50 0.2865
712.60 0.2864
712.70 0.2863
712.80 0.2861
712.90 0.286
713.00 0.2858
713.10 0.2857
713.20 0.2855
713.30 0.2854
713.40 0.2853
713.50 0.2851
713.60 0.285
713.70 0.2848
713.80 0.2847
713.90 0.2845
714.00 0.2844
714.10 0.2842
714.20 0.2841
714.30 0.284
714.40 0.2838
714.50 0.2837
714.60 0.2835
714.70 0.2834
714.80 0.2832
714.90 0.2831
715.00 0.283
715.10 0.2828
715.20 0.2827
715.30 0.2825
715.40 0.2824
715.50 0.2823
715.60 0.2821
715.70 0.282
715.80 0.2818
715.90 0.2817
716.00 0.2816
716.10 0.2814
716.20 0.2813
716.30 0.2811
716.40 0.281
716.50 0.2808
716.60 0.2807
716.70 0.2806
716.80 0.2804
716.90 0.2803
717.00 0.2801
717.10 0.28
717.20 0.2799
717.30 0.2797
717.40 0.2796
717.50 0.2794
717.60 0.2793
717.70 0.2792
717.80 0.279
717.90 0.2789
718.00 0.2787
718.10 0.2786
718.20 0.2785
718.30 0.2783
718.40 0.2782
718.50 0.2781
718.60 0.2779
718.70 0.2778
718.80 0.2776
718.90 0.2775
719.00 0.2774
719.10 0.2772
719.20 0.2771
719.30 0.2769
719.40 0.2768
719.50 0.2767
719.60 0.2765
719.70 0.2764
719.80 0.2763
719.90 0.2761
720.00 0.276
720.10 0.2758
720.20 0.2757
720.30 0.2756
720.40 0.2754
720.50 0.2753
720.60 0.2752
720.70 0.275
720.80 0.2749
720.90 0.2747
721.00 0.2746
721.10 0.2745
721.20 0.2743
721.30 0.2742
721.40 0.2741
721.50 0.2739
721.60 0.2738
721.70 0.2737
721.80 0.2735
721.90 0.2734
722.00 0.2732
722.10 0.2731
722.20 0.273
722.30 0.2728
722.40 0.2727
722.50 0.2726
722.60 0.2724
722.70 0.2723
722.80 0.2722
722.90 0.272
723.00 0.2719
723.10 0.2718
723.20 0.2716
723.30 0.2715
723.40 0.2713
723.50 0.2712
723.60 0.2711
723.70 0.2709
723.80 0.2708
723.90 0.2707
724.00 0.2705
724.10 0.2704
724.20 0.2703
724.30 0.2701
724.40 0.27
724.50 0.2699
724.60 0.2697
724.70 0.2696
724.80 0.2695
724.90 0.2693
725.00 0.2692
725.10 0.2691
725.20 0.2689
725.30 0.2688
725.40 0.2687
725.50 0.2685
725.60 0.2684
725.70 0.2683
725.80 0.2681
725.90 0.268
726.00 0.2679
726.10 0.2677
726.20 0.2676
726.30 0.2675
726.40 0.2673
726.50 0.2672
726.60 0.2671
726.70 0.2669
726.80 0.2668
726.90 0.2667
727.00 0.2666
727.10 0.2664
727.20 0.2663
727.30 0.2662
727.40 0.266
727.50 0.2659
727.60 0.2658
727.70 0.2656
727.80 0.2655
727.90 0.2654
728.00 0.2652
728.10 0.2651
728.20 0.265
728.30 0.2648
728.40 0.2647
728.50 0.2646
728.60 0.2645
728.70 0.2643
728.80 0.2642
728.90 0.2641
729.00 0.2639
729.10 0.2638
729.20 0.2637
729.30 0.2635
729.40 0.2634
729.50 0.2633
729.60 0.2631
729.70 0.263
729.80 0.2629
729.90 0.2628
730.00 0.2626
730.10 0.2625
730.20 0.2624
730.30 0.2622
730.40 0.2621
730.50 0.262
730.60 0.2619
730.70 0.2617
730.80 0.2616
730.90 0.2615
731.00 0.2613
731.10 0.2612
731.20 0.2611
731.30 0.261
731.40 0.2608
731.50 0.2607
731.60 0.2606
731.70 0.2605
731.80 0.2603
731.90 0.2602
732.00 0.2601
732.10 0.2599
732.20 0.2598
732.30 0.2597
732.40 0.2596
732.50 0.2594
732.60 0.2593
732.70 0.2592
732.80 0.2591
732.90 0.2589
733.00 0.2588
733.10 0.2587
733.20 0.2586
733.30 0.2584
733.40 0.2583
733.50 0.2582
733.60 0.258
733.70 0.2579
733.80 0.2578
733.90 0.2577
734.00 0.2575
734.10 0.2574
734.20 0.2573
734.30 0.2572
734.40 0.257
734.50 0.2569
734.60 0.2568
734.70 0.2567
734.80 0.2565
734.90 0.2564
735.00 0.2563
735.10 0.2562
735.20 0.256
735.30 0.2559
735.40 0.2558
735.50 0.2557
735.60 0.2555
735.70 0.2554
735.80 0.2553
735.90 0.2552
736.00 0.255
736.10 0.2549
736.20 0.2548
736.30 0.2547
736.40 0.2545
736.50 0.2544
736.60 0.2543
736.70 0.2542
736.80 0.254
736.90 0.2539
737.00 0.2538
737.10 0.2537
737.20 0.2535
737.30 0.2534
737.40 0.2533
737.50 0.2532
737.60 0.253
737.70 0.2529
737.80 0.2528
737.90 0.2527
738.00 0.2525
738.10 0.2524
738.20 0.2523
738.30 0.2522
738.40 0.2521
738.50 0.2519
738.60 0.2518
738.70 0.2517
738.80 0.2516
738.90 0.2514
739.00 0.2513
739.10 0.2512
739.20 0.2511
739.30 0.2509
739.40 0.2508
739.50 0.2507
739.60 0.2506
739.70 0.2505
739.80 0.2503
739.90 0.2502
740.00 0.2501
740.10 0.25
740.20 0.2498
740.30 0.2497
740.40 0.2496
740.50 0.2495
740.60 0.2494
740.70 0.2492
740.80 0.2491
740.90 0.249
741.00 0.2489
741.10 0.2488
741.20 0.2486
741.30 0.2485
741.40 0.2484
741.50 0.2483
741.60 0.2482
741.70 0.248
741.80 0.2479
741.90 0.2478
742.00 0.2477
742.10 0.2476
742.20 0.2474
742.30 0.2473
742.40 0.2472
742.50 0.2471
742.60 0.247
742.70 0.2468
742.80 0.2467
742.90 0.2466
743.00 0.2465
743.10 0.2464
743.20 0.2462
743.30 0.2461
743.40 0.246
743.50 0.2459
743.60 0.2458
743.70 0.2457
743.80 0.2455
743.90 0.2454
744.00 0.2453
744.10 0.2452
744.20 0.2451
744.30 0.2449
744.40 0.2448
744.50 0.2447
744.60 0.2446
744.70 0.2445
744.80 0.2444
744.90 0.2442
745.00 0.2441
745.10 0.244
745.20 0.2439
745.30 0.2438
745.40 0.2436
745.50 0.2435
745.60 0.2434
745.70 0.2433
745.80 0.2432
745.90 0.2431
746.00 0.2429
746.10 0.2428
746.20 0.2427
746.30 0.2426
746.40 0.2425
746.50 0.2424
746.60 0.2422
746.70 0.2421
746.80 0.242
746.90 0.2419
747.00 0.2418
747.10 0.2417
747.20 0.2415
747.30 0.2414
747.40 0.2413
747.50 0.2412
747.60 0.2411
747.70 0.241
747.80 0.2408
747.90 0.2407
748.00 0.2406
748.10 0.2405
748.20 0.2404
748.30 0.2403
748.40 0.2401
748.50 0.24
748.60 0.2399
748.70 0.2398
748.80 0.2397
748.90 0.2396
749.00 0.2394
749.10 0.2393
749.20 0.2392
749.30 0.2391
749.40 0.239
749.50 0.2389
749.60 0.2387
749.70 0.2386
749.80 0.2385
749.90 0.2384
750.00 0.2383
750.10 0.2382
750.20 0.2381
750.30 0.2379
750.40 0.2378
750.50 0.2377
750.60 0.2376
750.70 0.2375
750.80 0.2374
750.90 0.2373
751.00 0.2372
751.10 0.237
751.20 0.2369
751.30 0.2368
751.40 0.2367
751.50 0.2366
751.60 0.2365
751.70 0.2364
751.80 0.2362
751.90 0.2361
752.00 0.236
752.10 0.2359
752.20 0.2358
752.30 0.2357
752.40 0.2356
752.50 0.2355
752.60 0.2353
752.70 0.2352
752.80 0.2351
752.90 0.235
753.00 0.2349
753.10 0.2348
753.20 0.2347
753.30 0.2346
753.40 0.2345
753.50 0.2343
753.60 0.2342
753.70 0.2341
753.80 0.234
753.90 0.2339
754.00 0.2338
754.10 0.2337
754.20 0.2336
754.30 0.2334
754.40 0.2333
754.50 0.2332
754.60 0.2331
754.70 0.233
754.80 0.2329
754.90 0.2328
755.00 0.2327
755.10 0.2326
755.20 0.2324
755.30 0.2323
755.40 0.2322
755.50 0.2321
755.60 0.232
755.70 0.2319
755.80 0.2318
755.90 0.2317
756.00 0.2316
756.10 0.2314
756.20 0.2313
756.30 0.2312
756.40 0.2311
756.50 0.231
756.60 0.2309
756.70 0.2308
756.80 0.2307
756.90 0.2306
757.00 0.2305
757.10 0.2303
757.20 0.2302
757.30 0.2301
757.40 0.23
757.50 0.2299
757.60 0.2298
757.70 0.2297
757.80 0.2296
757.90 0.2295
758.00 0.2294
758.10 0.2292
758.20 0.2291
758.30 0.229
758.40 0.2289
758.50 0.2288
758.60 0.2287
758.70 0.2286
758.80 0.2285
758.90 0.2284
759.00 0.2283
759.10 0.2282
759.20 0.228
759.30 0.2279
759.40 0.2278
759.50 0.2277
759.60 0.2276
759.70 0.2275
759.80 0.2274
759.90 0.2273
760.00 0.2272
760.10 0.2271
760.20 0.227
760.30 0.2269
760.40 0.2267
760.50 0.2266
760.60 0.2265
760.70 0.2264
760.80 0.2263
760.90 0.2262
761.00 0.2261
761.10 0.226
761.20 0.2259
761.30 0.2258
761.40 0.2257
761.50 0.2256
761.60 0.2255
761.70 0.2254
761.80 0.2253
761.90 0.2251
762.00 0.225
762.10 0.2249
762.20 0.2248
762.30 0.2247
762.40 0.2246
762.50 0.2245
762.60 0.2244
762.70 0.2243
762.80 0.2242
762.90 0.2241
763.00 0.224
763.10 0.2239
763.20 0.2238
763.30 0.2237
763.40 0.2236
763.50 0.2235
763.60 0.2234
763.70 0.2232
763.80 0.2231
763.90 0.223
764.00 0.2229
764.10 0.2228
764.20 0.2227
764.30 0.2226
764.40 0.2225
764.50 0.2224
764.60 0.2223
764.70 0.2222
764.80 0.2221
764.90 0.222
765.00 0.2219
765.10 0.2218
765.20 0.2217
765.30 0.2216
765.40 0.2215
765.50 0.2214
765.60 0.2213
765.70 0.2212
765.80 0.221
765.90 0.2209
766.00 0.2208
766.10 0.2207
766.20 0.2206
766.30 0.2205
766.40 0.2204
766.50 0.2203
766.60 0.2202
766.70 0.2201
766.80 0.22
766.90 0.2199
767.00 0.2198
767.10 0.2197
767.20 0.2196
767.30 0.2195
767.40 0.2194
767.50 0.2193
767.60 0.2192
767.70 0.2191
767.80 0.219
767.90 0.2189
768.00 0.2188
768.10 0.2187
768.20 0.2186
768.30 0.2185
768.40 0.2184
768.50 0.2182
768.60 0.2181
768.70 0.218
768.80 0.2179
768.90 0.2178
769.00 0.2177
769.10 0.2176
769.20 0.2175
769.30 0.2174
769.40 0.2173
769.50 0.2172
769.60 0.2171
769.70 0.217
769.80 0.2169
769.90 0.2168
770.00 0.2167
770.10 0.2166
770.20 0.2165
770.30 0.2164
770.40 0.2163
770.50 0.2162
770.60 0.2161
770.70 0.216
770.80 0.2159
770.90 0.2158
771.00 0.2157
771.10 0.2156
771.20 0.2155
771.30 0.2154
771.40 0.2153
771.50 0.2152
771.60 0.2151
771.70 0.215
771.80 0.2149
771.90 0.2148
772.00 0.2147
772.10 0.2146
772.20 0.2145
772.30 0.2144
772.40 0.2143
772.50 0.2142
772.60 0.2141
772.70 0.214
772.80 0.2139
772.90 0.2138
773.00 0.2137
773.10 0.2136
773.20 0.2135
773.30 0.2134
773.40 0.2133
773.50 0.2132
773.60 0.2131
773.70 0.213
773.80 0.2129
773.90 0.2128
774.00 0.2127
774.10 0.2126
774.20 0.2125
774.30 0.2124
774.40 0.2123
774.50 0.2122
774.60 0.2121
774.70 0.212
774.80 0.2119
774.90 0.2118
775.00 0.2117
775.10 0.2116
775.20 0.2115
775.30 0.2114
775.40 0.2113
775.50 0.2112
775.60 0.2111
775.70 0.211
775.80 0.2109
775.90 0.2108
776.00 0.2107
776.10 0.2106
776.20 0.2105
776.30 0.2104
776.40 0.2103
776.50 0.2102
776.60 0.2101
776.70 0.21
776.80 0.21
776.90 0.2099
777.00 0.2098
777.10 0.2097
777.20 0.2096
777.30 0.2095
777.40 0.2094
777.50 0.2093
777.60 0.2092
777.70 0.2091
777.80 0.209
777.90 0.2089
778.00 0.2088
778.10 0.2087
778.20 0.2086
778.30 0.2085
778.40 0.2084
778.50 0.2083
778.60 0.2082
778.70 0.2081
778.80 0.208
778.90 0.2079
779.00 0.2078
779.10 0.2077
779.20 0.2076
779.30 0.2075
779.40 0.2074
779.50 0.2073
779.60 0.2072
779.70 0.2071
779.80 0.207
779.90 0.2069
780.00 0.2068
780.10 0.2067
780.20 0.2067
780.30 0.2066
780.40 0.2065
780.50 0.2064
780.60 0.2063
780.70 0.2062
780.80 0.2061
780.90 0.206
781.00 0.2059
781.10 0.2058
781.20 0.2057
781.30 0.2056
781.40 0.2055
781.50 0.2054
781.60 0.2053
781.70 0.2052
781.80 0.2051
781.90 0.205
782.00 0.2049
782.10 0.2049
782.20 0.2048
782.30 0.2047
782.40 0.2046
782.50 0.2045
782.60 0.2044
782.70 0.2043
782.80 0.2042
782.90 0.2041
783.00 0.204
783.10 0.2039
783.20 0.2038
783.30 0.2037
783.40 0.2036
783.50 0.2035
783.60 0.2034
783.70 0.2033
783.80 0.2033
783.90 0.2032
784.00 0.2031
784.10 0.203
784.20 0.2029
784.30 0.2028
784.40 0.2027
784.50 0.2026
784.60 0.2025
784.70 0.2024
784.80 0.2023
784.90 0.2022
785.00 0.2021
785.10 0.202
785.20 0.2019
785.30 0.2019
785.40 0.2018
785.50 0.2017
785.60 0.2016
785.70 0.2015
785.80 0.2014
785.90 0.2013
786.00 0.2012
786.10 0.2011
786.20 0.201
786.30 0.2009
786.40 0.2008
786.50 0.2007
786.60 0.2007
786.70 0.2006
786.80 0.2005
786.90 0.2004
787.00 0.2003
787.10 0.2002
787.20 0.2001
787.30 0.2
787.40 0.1999
787.50 0.1998
787.60 0.1997
787.70 0.1996
787.80 0.1995
787.90 0.1995
788.00 0.1994
788.10 0.1993
788.20 0.1992
788.30 0.1991
788.40 0.199
788.50 0.1989
788.60 0.1988
788.70 0.1987
788.80 0.1986
788.90 0.1985
789.00 0.1984
789.10 0.1984
789.20 0.1983
789.30 0.1982
789.40 0.1981
789.50 0.198
789.60 0.1979
789.70 0.1978
789.80 0.1977
789.90 0.1976
790.00 0.1975
790.10 0.1974
790.20 0.1974
790.30 0.1973
790.40 0.1972
790.50 0.1971
790.60 0.197
790.70 0.1969
790.80 0.1968
790.90 0.1967
791.00 0.1966
791.10 0.1965
791.20 0.1965
791.30 0.1964
791.40 0.1963
791.50 0.1962
791.60 0.1961
791.70 0.196
791.80 0.1959
791.90 0.1958
792.00 0.1957
792.10 0.1957
792.20 0.1956
792.30 0.1955
792.40 0.1954
792.50 0.1953
792.60 0.1952
792.70 0.1951
792.80 0.195
792.90 0.1949
793.00 0.1949
793.10 0.1948
793.20 0.1947
793.30 0.1946
793.40 0.1945
793.50 0.1944
793.60 0.1943
793.70 0.1942
793.80 0.1941
793.90 0.1941
794.00 0.194
794.10 0.1939
794.20 0.1938
794.30 0.1937
794.40 0.1936
794.50 0.1935
794.60 0.1934
794.70 0.1934
794.80 0.1933
794.90 0.1932
795.00 0.1931
795.10 0.193
795.20 0.1929
795.30 0.1928
795.40 0.1927
795.50 0.1926
795.60 0.1926
795.70 0.1925
795.80 0.1924
795.90 0.1923
796.00 0.1922
796.10 0.1921
796.20 0.192
796.30 0.1919
796.40 0.1919
796.50 0.1918
796.60 0.1917
796.70 0.1916
796.80 0.1915
796.90 0.1914
797.00 0.1913
797.10 0.1913
797.20 0.1912
797.30 0.1911
797.40 0.191
797.50 0.1909
797.60 0.1908
797.70 0.1907
797.80 0.1906
797.90 0.1906
798.00 0.1905
798.10 0.1904
798.20 0.1903
798.30 0.1902
798.40 0.1901
798.50 0.19
798.60 0.1899
798.70 0.1899
798.80 0.1898
798.90 0.1897
799.00 0.1896
799.10 0.1895
799.20 0.1894
799.30 0.1893
799.40 0.1893
799.50 0.1892
799.60 0.1891
799.70 0.189
799.80 0.1889
799.90 0.1888
800.00 0.1887
800.10 0.1887
800.20 0.1886
800.30 0.1885
800.40 0.1884
800.50 0.1883
800.60 0.1882
800.70 0.1881
800.80 0.1881
800.90 0.188
801.00 0.1879
801.10 0.1878
801.20 0.1877
801.30 0.1876
801.40 0.1876
801.50 0.1875
801.60 0.1874
801.70 0.1873
801.80 0.1872
801.90 0.1871
802.00 0.1871
802.10 0.187
802.20 0.1869
802.30 0.1868
802.40 0.1867
802.50 0.1866
802.60 0.1865
802.70 0.1865
802.80 0.1864
802.90 0.1863
803.00 0.1862
803.10 0.1861
803.20 0.186
803.30 0.186
803.40 0.1859
803.50 0.1858
803.60 0.1857
803.70 0.1856
803.80 0.1855
803.90 0.1855
804.00 0.1854
804.10 0.1853
804.20 0.1852
804.30 0.1851
804.40 0.185
804.50 0.185
804.60 0.1849
804.70 0.1848
804.80 0.1847
804.90 0.1846
805.00 0.1845
805.10 0.1845
805.20 0.1844
805.30 0.1843
805.40 0.1842
805.50 0.1841
805.60 0.184
805.70 0.184
805.80 0.1839
805.90 0.1838
806.00 0.1837
806.10 0.1836
806.20 0.1836
806.30 0.1835
806.40 0.1834
806.50 0.1833
806.60 0.1832
806.70 0.1831
806.80 0.1831
806.90 0.183
807.00 0.1829
807.10 0.1828
807.20 0.1827
807.30 0.1826
807.40 0.1826
807.50 0.1825
807.60 0.1824
807.70 0.1823
807.80 0.1822
807.90 0.1822
808.00 0.1821
808.10 0.182
808.20 0.1819
808.30 0.1818
808.40 0.1817
808.50 0.1817
808.60 0.1816
808.70 0.1815
808.80 0.1814
808.90 0.1813
809.00 0.1813
809.10 0.1812
809.20 0.1811
809.30 0.181
809.40 0.1809
809.50 0.1808
809.60 0.1808
809.70 0.1807
809.80 0.1806
809.90 0.1805
810.00 0.1804
810.10 0.1804
810.20 0.1803
810.30 0.1802
810.40 0.1801
810.50 0.18
810.60 0.18
810.70 0.1799
810.80 0.1798
810.90 0.1797
811.00 0.1796
811.10 0.1796
811.20 0.1795
811.30 0.1794
811.40 0.1793
811.50 0.1792
811.60 0.1792
811.70 0.1791
811.80 0.179
811.90 0.1789
812.00 0.1788
812.10 0.1788
812.20 0.1787
812.30 0.1786
812.40 0.1785
812.50 0.1784
812.60 0.1784
812.70 0.1783
812.80 0.1782
812.90 0.1781
813.00 0.178
813.10 0.178
813.20 0.1779
813.30 0.1778
813.40 0.1777
813.50 0.1777
813.60 0.1776
813.70 0.1775
813.80 0.1774
813.90 0.1773
814.00 0.1773
814.10 0.1772
814.20 0.1771
814.30 0.177
814.40 0.1769
814.50 0.1769
814.60 0.1768
814.70 0.1767
814.80 0.1766
814.90 0.1766
815.00 0.1765
815.10 0.1764
815.20 0.1763
815.30 0.1762
815.40 0.1762
815.50 0.1761
815.60 0.176
815.70 0.1759
815.80 0.1758
815.90 0.1758
816.00 0.1757
816.10 0.1756
816.20 0.1755
816.30 0.1755
816.40 0.1754
816.50 0.1753
816.60 0.1752
816.70 0.1751
816.80 0.1751
816.90 0.175
817.00 0.1749
817.10 0.1748
817.20 0.1748
817.30 0.1747
817.40 0.1746
817.50 0.1745
817.60 0.1744
817.70 0.1744
817.80 0.1743
817.90 0.1742
818.00 0.1741
818.10 0.1741
818.20 0.174
818.30 0.1739
818.40 0.1738
818.50 0.1737
818.60 0.1737
818.70 0.1736
818.80 0.1735
818.90 0.1734
819.00 0.1734
819.10 0.1733
819.20 0.1732
819.30 0.1731
819.40 0.1731
819.50 0.173
819.60 0.1729
819.70 0.1728
819.80 0.1727
819.90 0.1727
820.00 0.1726
820.10 0.1725
820.20 0.1724
820.30 0.1724
820.40 0.1723
820.50 0.1722
820.60 0.1721
820.70 0.1721
820.80 0.172
820.90 0.1719
821.00 0.1718
821.10 0.1718
821.20 0.1717
821.30 0.1716
821.40 0.1715
821.50 0.1715
821.60 0.1714
821.70 0.1713
821.80 0.1712
821.90 0.1711
822.00 0.1711
822.10 0.171
822.20 0.1709
822.30 0.1708
822.40 0.1708
822.50 0.1707
822.60 0.1706
822.70 0.1705
822.80 0.1705
822.90 0.1704
823.00 0.1703
823.10 0.1702
823.20 0.1702
823.30 0.1701
823.40 0.17
823.50 0.1699
823.60 0.1699
823.70 0.1698
823.80 0.1697
823.90 0.1696
824.00 0.1696
824.10 0.1695
824.20 0.1694
824.30 0.1693
824.40 0.1693
824.50 0.1692
824.60 0.1691
824.70 0.169
824.80 0.169
824.90 0.1689
825.00 0.1688
825.10 0.1688
825.20 0.1687
825.30 0.1686
825.40 0.1685
825.50 0.1685
825.60 0.1684
825.70 0.1683
825.80 0.1682
825.90 0.1682
826.00 0.1681
826.10 0.168
826.20 0.1679
826.30 0.1679
826.40 0.1678
826.50 0.1677
826.60 0.1676
826.70 0.1676
826.80 0.1675
826.90 0.1674
827.00 0.1673
827.10 0.1673
827.20 0.1672
827.30 0.1671
827.40 0.167
827.50 0.167
827.60 0.1669
827.70 0.1668
827.80 0.1667
827.90 0.1667
828.00 0.1666
828.10 0.1665
828.20 0.1664
828.30 0.1664
828.40 0.1663
828.50 0.1662
828.60 0.1662
828.70 0.1661
828.80 0.166
828.90 0.1659
829.00 0.1659
829.10 0.1658
829.20 0.1657
829.30 0.1656
829.40 0.1656
829.50 0.1655
829.60 0.1654
829.70 0.1653
829.80 0.1653
829.90 0.1652
830.00 0.1651
830.10 0.165
830.20 0.165
830.30 0.1649
830.40 0.1648
830.50 0.1647
830.60 0.1647
830.70 0.1646
830.80 0.1645
830.90 0.1645
831.00 0.1644
831.10 0.1643
831.20 0.1642
831.30 0.1642
831.40 0.1641
831.50 0.164
831.60 0.1639
831.70 0.1639
831.80 0.1638
831.90 0.1637
832.00 0.1636
832.10 0.1636
832.20 0.1635
832.30 0.1634
832.40 0.1633
832.50 0.1633
832.60 0.1632
832.70 0.1631
832.80 0.163
832.90 0.163
833.00 0.1629
833.10 0.1628
833.20 0.1628
833.30 0.1627
833.40 0.1626
833.50 0.1625
833.60 0.1625
833.70 0.1624
833.80 0.1623
833.90 0.1622
834.00 0.1622
834.10 0.1621
834.20 0.162
834.30 0.1619
834.40 0.1619
834.50 0.1618
834.60 0.1617
834.70 0.1616
834.80 0.1616
834.90 0.1615
835.00 0.1614
835.10 0.1614
835.20 0.1613
835.30 0.1612
835.40 0.1611
835.50 0.1611
835.60 0.161
835.70 0.1609
835.80 0.1608
835.90 0.1608
836.00 0.1607
836.10 0.1606
836.20 0.1605
836.30 0.1605
836.40 0.1604
836.50 0.1603
836.60 0.1603
836.70 0.1602
836.80 0.1601
836.90 0.16
837.00 0.16
837.10 0.1599
837.20 0.1598
837.30 0.1597
837.40 0.1597
837.50 0.1596
837.60 0.1595
837.70 0.1595
837.80 0.1594
837.90 0.1593
838.00 0.1593
838.10 0.1592
838.20 0.1591
838.30 0.159
838.40 0.159
838.50 0.1589
838.60 0.1588
838.70 0.1588
838.80 0.1587
838.90 0.1586
839.00 0.1585
839.10 0.1585
839.20 0.1584
839.30 0.1583
839.40 0.1583
839.50 0.1582
839.60 0.1581
839.70 0.1581
839.80 0.158
839.90 0.1579
840.00 0.1578
840.10 0.1578
840.20 0.1577
840.30 0.1576
840.40 0.1576
840.50 0.1575
840.60 0.1574
840.70 0.1574
840.80 0.1573
840.90 0.1572
841.00 0.1571
841.10 0.1571
841.20 0.157
841.30 0.1569
841.40 0.1569
841.50 0.1568
841.60 0.1567
841.70 0.1567
841.80 0.1566
841.90 0.1565
842.00 0.1565
842.10 0.1564
842.20 0.1563
842.30 0.1562
842.40 0.1562
842.50 0.1561
842.60 0.156
842.70 0.156
842.80 0.1559
842.90 0.1558
843.00 0.1558
843.10 0.1557
843.20 0.1556
843.30 0.1556
843.40 0.1555
843.50 0.1554
843.60 0.1554
843.70 0.1553
843.80 0.1552
843.90 0.1552
844.00 0.1551
844.10 0.155
844.20 0.155
844.30 0.1549
844.40 0.1548
844.50 0.1548
844.60 0.1547
844.70 0.1546
844.80 0.1546
844.90 0.1545
845.00 0.1544
845.10 0.1543
845.20 0.1543
845.30 0.1542
845.40 0.1541
845.50 0.1541
845.60 0.154
845.70 0.1539
845.80 0.1539
845.90 0.1538
846.00 0.1537
846.10 0.1537
846.20 0.1536
846.30 0.1535
846.40 0.1535
846.50 0.1534
846.60 0.1533
846.70 0.1533
846.80 0.1532
846.90 0.1531
847.00 0.1531
847.10 0.153
847.20 0.1529
847.30 0.1529
847.40 0.1528
847.50 0.1528
847.60 0.1527
847.70 0.1526
847.80 0.1526
847.90 0.1525
848.00 0.1524
848.10 0.1524
848.20 0.1523
848.30 0.1522
848.40 0.1522
848.50 0.1521
848.60 0.152
848.70 0.152
848.80 0.1519
848.90 0.1519
849.00 0.1518
849.10 0.1517
849.20 0.1517
849.30 0.1516
849.40 0.1515
849.50 0.1515
849.60 0.1514
849.70 0.1514
849.80 0.1513
849.90 0.1512
850.00 0.1512
850.10 0.1511
850.20 0.151
850.30 0.151
850.40 0.1509
850.50 0.1508
850.60 0.1508
850.70 0.1507
850.80 0.1507
850.90 0.1506
851.00 0.1505
851.10 0.1505
851.20 0.1504
851.30 0.1503
851.40 0.1503
851.50 0.1502
851.60 0.1501
851.70 0.1501
851.80 0.15
851.90 0.15
852.00 0.1499
852.10 0.1498
852.20 0.1498
852.30 0.1497
852.40 0.1497
852.50 0.1496
852.60 0.1495
852.70 0.1495
852.80 0.1494
852.90 0.1494
853.00 0.1493
853.10 0.1492
853.20 0.1492
853.30 0.1491
853.40 0.1491
853.50 0.149
853.60 0.1489
853.70 0.1489
853.80 0.1488
853.90 0.1488
854.00 0.1487
854.10 0.1486
854.20 0.1486
854.30 0.1485
854.40 0.1485
854.50 0.1484
854.60 0.1483
854.70 0.1483
854.80 0.1482
854.90 0.1482
855.00 0.1481
855.10 0.148
855.20 0.148
855.30 0.1479
855.40 0.1479
855.50 0.1478
855.60 0.1477
855.70 0.1477
855.80 0.1476
855.90 0.1476
856.00 0.1475
856.10 0.1474
856.20 0.1474
856.30 0.1473
856.40 0.1473
856.50 0.1472
856.60 0.1471
856.70 0.1471
856.80 0.147
856.90 0.147
857.00 0.1469
857.10 0.1468
857.20 0.1468
857.30 0.1467
857.40 0.1467
857.50 0.1466
857.60 0.1466
857.70 0.1465
857.80 0.1465
857.90 0.1464
858.00 0.1463
858.10 0.1463
858.20 0.1462
858.30 0.1462
858.40 0.1461
858.50 0.1461
858.60 0.146
858.70 0.1459
858.80 0.1459
858.90 0.1458
859.00 0.1458
859.10 0.1457
859.20 0.1457
859.30 0.1456
859.40 0.1455
859.50 0.1455
859.60 0.1454
859.70 0.1454
859.80 0.1453
859.90 0.1453
860.00 0.1452
860.10 0.1451
860.20 0.1451
860.30 0.145
860.40 0.145
860.50 0.1449
860.60 0.1449
860.70 0.1448
860.80 0.1448
860.90 0.1447
861.00 0.1446
861.10 0.1446
861.20 0.1445
861.30 0.1445
861.40 0.1444
861.50 0.1444
861.60 0.1443
861.70 0.1442
861.80 0.1442
861.90 0.1441
862.00 0.1441
862.10 0.144
862.20 0.144
862.30 0.1439
862.40 0.1438
862.50 0.1438
862.60 0.1437
862.70 0.1436
862.80 0.1436
862.90 0.1435
863.00 0.1434
863.10 0.1434
863.20 0.1433
863.30 0.1433
863.40 0.1432
863.50 0.1431
863.60 0.1431
863.70 0.143
863.80 0.1429
863.90 0.1429
864.00 0.1428
864.10 0.1427
864.20 0.1427
864.30 0.1426
864.40 0.1426
864.50 0.1425
864.60 0.1424
864.70 0.1424
864.80 0.1423
864.90 0.1422
865.00 0.1422
865.10 0.1421
865.20 0.1421
865.30 0.142
865.40 0.1419
865.50 0.1419
865.60 0.1418
865.70 0.1417
865.80 0.1417
865.90 0.1416
866.00 0.1415
866.10 0.1415
866.20 0.1414
866.30 0.1414
866.40 0.1413
866.50 0.1412
866.60 0.1412
866.70 0.1411
866.80 0.141
866.90 0.141
867.00 0.1409
867.10 0.1409
867.20 0.1408
867.30 0.1408
867.40 0.1407
867.50 0.1407
867.60 0.1406
867.70 0.1406
867.80 0.1405
867.90 0.1405
868.00 0.1404
868.10 0.1404
868.20 0.1403
868.30 0.1403
868.40 0.1402
868.50 0.1402
868.60 0.1401
868.70 0.1401
868.80 0.14
868.90 0.14
869.00 0.1399
869.10 0.1399
869.20 0.1398
869.30 0.1398
869.40 0.1398
869.50 0.1397
869.60 0.1397
869.70 0.1396
869.80 0.1396
869.90 0.1395
870.00 0.1395
870.10 0.1394
870.20 0.1394
870.30 0.1393
870.40 0.1393
870.50 0.1392
870.60 0.1392
870.70 0.1391
870.80 0.1391
870.90 0.139
871.00 0.139
871.10 0.1389
871.20 0.1389
871.30 0.1388
871.40 0.1388
871.50 0.1387
871.60 0.1387
871.70 0.1386
871.80 0.1386
871.90 0.1385
872.00 0.1385
872.10 0.1384
872.20 0.1384
872.30 0.1383
872.40 0.1383
872.50 0.1382
872.60 0.1382
872.70 0.1381
872.80 0.138
872.90 0.138
873.00 0.1379
873.10 0.1379
873.20 0.1378
873.30 0.1378
873.40 0.1377
873.50 0.1376
873.60 0.1376
873.70 0.1375
873.80 0.1375
873.90 0.1374
874.00 0.1374
874.10 0.1373
874.20 0.1373
874.30 0.1372
874.40 0.1371
874.50 0.1371
874.60 0.137
874.70 0.137
874.80 0.1369
874.90 0.1369
875.00 0.1368
875.10 0.1367
875.20 0.1367
875.30 0.1366
875.40 0.1366
875.50 0.1365
875.60 0.1365
875.70 0.1364
875.80 0.1364
875.90 0.1363
876.00 0.1362
876.10 0.1362
876.20 0.1361
876.30 0.1361
876.40 0.136
876.50 0.136
876.60 0.1359
876.70 0.1359
876.80 0.1358
876.90 0.1357
877.00 0.1357
877.10 0.1356
877.20 0.1356
877.30 0.1356
877.40 0.1355
877.50 0.1355
877.60 0.1354
877.70 0.1354
877.80 0.1353
877.90 0.1353
878.00 0.1352
878.10 0.1352
878.20 0.1351
878.30 0.1351
878.40 0.135
878.50 0.135
878.60 0.1349
878.70 0.1349
878.80 0.1349
878.90 0.1348
879.00 0.1348
879.10 0.1347
879.20 0.1347
879.30 0.1346
879.40 0.1346
879.50 0.1345
879.60 0.1345
879.70 0.1344
879.80 0.1344
879.90 0.1343
880.00 0.1343
880.10 0.1343
880.20 0.1342
880.30 0.1342
880.40 0.1341
880.50 0.1341
880.60 0.134
880.70 0.134
880.80 0.1339
880.90 0.1339
881.00 0.1338
881.10 0.1338
881.20 0.1338
881.30 0.1337
881.40 0.1337
881.50 0.1336
881.60 0.1336
881.70 0.1335
881.80 0.1335
881.90 0.1334
882.00 0.1334
882.10 0.1333
882.20 0.1332
882.30 0.1331
882.40 0.133
882.50 0.1329
882.60 0.1328
882.70 0.1327
882.80 0.1326
882.90 0.1325
883.00 0.1324
883.10 0.1323
883.20 0.1321
883.30 0.132
883.40 0.1319
883.50 0.1318
883.60 0.1317
883.70 0.1316
883.80 0.1315
883.90 0.1314
884.00 0.1313
884.10 0.1312
884.20 0.1311
884.30 0.131
884.40 0.1309
884.50 0.1308
884.60 0.1307
884.70 0.1306
884.80 0.1305
884.90 0.1304
885.00 0.1303
885.10 0.1302
885.20 0.1301
885.30 0.13
885.40 0.1299
885.50 0.1298
885.60 0.1297
885.70 0.1296
885.80 0.1295
885.90 0.1294
886.00 0.1293
886.10 0.1292
886.20 0.1291
886.30 0.129
886.40 0.1289
886.50 0.1288
886.60 0.1287
886.70 0.1286
886.80 0.1285
886.90 0.1284
887.00 0.1283
887.10 0.1283
887.20 0.1283
887.30 0.1283
887.40 0.1284
887.50 0.1284
887.60 0.1284
887.70 0.1285
887.80 0.1285
887.90 0.1285
888.00 0.1285
888.10 0.1286
888.20 0.1286
888.30 0.1286
888.40 0.1286
888.50 0.1287
888.60 0.1287
888.70 0.1287
888.80 0.1287
888.90 0.1288
889.00 0.1288
889.10 0.1288
889.20 0.1289
889.30 0.1289
889.40 0.1289
889.50 0.1289
889.60 0.129
889.70 0.129
889.80 0.129
889.90 0.129
890.00 0.1291
890.10 0.1291
890.20 0.1291
890.30 0.1291
890.40 0.1292
890.50 0.1292
890.60 0.1292
890.70 0.1293
890.80 0.1293
890.90 0.1293
891.00 0.1293
891.10 0.1294
891.20 0.1294
891.30 0.1294
891.40 0.1294
891.50 0.1295
891.60 0.1295
891.70 0.1295
891.80 0.1295
891.90 0.1296
892.00 0.1296
892.10 0.1295
892.20 0.1294
892.30 0.1293
892.40 0.1293
892.50 0.1292
892.60 0.1291
892.70 0.129
892.80 0.1289
892.90 0.1289
893.00 0.1288
893.10 0.1287
893.20 0.1286
893.30 0.1285
893.40 0.1284
893.50 0.1284
893.60 0.1283
893.70 0.1282
893.80 0.1281
893.90 0.128
894.00 0.128
894.10 0.1279
894.20 0.1278
894.30 0.1277
894.40 0.1276
894.50 0.1275
894.60 0.1275
894.70 0.1274
894.80 0.1273
894.90 0.1272
895.00 0.1271
895.10 0.1271
895.20 0.127
895.30 0.1269
895.40 0.1268
895.50 0.1267
895.60 0.1267
895.70 0.1266
895.80 0.1265
895.90 0.1264
896.00 0.1263
896.10 0.1263
896.20 0.1262
896.30 0.1261
896.40 0.126
896.50 0.1259
896.60 0.1258
896.70 0.1258
896.80 0.1257
896.90 0.1256
897.00 0.1255
897.10 0.1254
897.20 0.1252
897.30 0.125
897.40 0.1248
897.50 0.1247
897.60 0.1245
897.70 0.1243
897.80 0.1241
897.90 0.124
898.00 0.1238
898.10 0.1236
898.20 0.1234
898.30 0.1233
898.40 0.1231
898.50 0.1229
898.60 0.1227
898.70 0.1226
898.80 0.1224
898.90 0.1222
899.00 0.1221
899.10 0.1219
899.20 0.1217
899.30 0.1215
899.40 0.1214
899.50 0.1212
899.60 0.121
899.70 0.1209
899.80 0.1207
899.90 0.1205
900.00 0.1203
900.10 0.1202
900.20 0.12
900.30 0.1198
900.40 0.1197
900.50 0.1195
900.60 0.1193
900.70 0.1191
900.80 0.119
900.90 0.1188
901.00 0.1186
901.10 0.1185
901.20 0.1183
901.30 0.1181
901.40 0.1179
901.50 0.1178
901.60 0.1176
901.70 0.1174
901.80 0.1173
901.90 0.1171
902.00 0.1169
902.10 0.117
902.20 0.1171
902.30 0.1172
902.40 0.1174
902.50 0.1175
902.60 0.1176
902.70 0.1177
902.80 0.1178
902.90 0.1179
903.00 0.118
903.10 0.1181
903.20 0.1182
903.30 0.1183
903.40 0.1184
903.50 0.1186
903.60 0.1187
903.70 0.1188
903.80 0.1189
903.90 0.119
904.00 0.1191
904.10 0.1192
904.20 0.1193
904.30 0.1194
904.40 0.1195
904.50 0.1196
904.60 0.1197
904.70 0.1199
904.80 0.12
904.90 0.1201
905.00 0.1202
905.10 0.1203
905.20 0.1204
905.30 0.1205
905.40 0.1206
905.50 0.1207
905.60 0.1208
905.70 0.1209
905.80 0.121
905.90 0.1211
906.00 0.1213
906.10 0.1214
906.20 0.1215
906.30 0.1216
906.40 0.1217
906.50 0.1218
906.60 0.1219
906.70 0.122
906.80 0.1221
906.90 0.1222
907.00 0.1223
907.10 0.1223
907.20 0.1223
907.30 0.1223
907.40 0.1223
907.50 0.1223
907.60 0.1223
907.70 0.1223
907.80 0.1222
907.90 0.1222
908.00 0.1222
908.10 0.1222
908.20 0.1222
908.30 0.1222
908.40 0.1222
908.50 0.1222
908.60 0.1222
908.70 0.1222
908.80 0.1222
908.90 0.1221
909.00 0.1221
909.10 0.1221
909.20 0.1221
909.30 0.1221
909.40 0.1221
909.50 0.1221
909.60 0.1221
909.70 0.1221
909.80 0.1221
909.90 0.122
910.00 0.122
910.10 0.122
910.20 0.122
910.30 0.122
910.40 0.122
910.50 0.122
910.60 0.122
910.70 0.122
910.80 0.122
910.90 0.1219
911.00 0.1219
911.10 0.1219
911.20 0.1219
911.30 0.1219
911.40 0.1219
911.50 0.1219
911.60 0.1219
911.70 0.1219
911.80 0.1219
911.90 0.1219
912.00 0.1218
912.10 0.1217
912.20 0.1216
912.30 0.1216
912.40 0.1215
912.50 0.1214
912.60 0.1213
912.70 0.1212
912.80 0.1211
912.90 0.121
913.00 0.1209
913.10 0.1208
913.20 0.1207
913.30 0.1206
913.40 0.1205
913.50 0.1204
913.60 0.1203
913.70 0.1202
913.80 0.1201
913.90 0.12
914.00 0.1199
914.10 0.1198
914.20 0.1197
914.30 0.1196
914.40 0.1195
914.50 0.1194
914.60 0.1193
914.70 0.1192
914.80 0.1191
914.90 0.119
915.00 0.1189
915.10 0.1189
915.20 0.1188
915.30 0.1187
915.40 0.1186
915.50 0.1185
915.60 0.1184
915.70 0.1183
915.80 0.1182
915.90 0.1181
916.00 0.118
916.10 0.1179
916.20 0.1178
916.30 0.1177
916.40 0.1176
916.50 0.1175
916.60 0.1174
916.70 0.1173
916.80 0.1172
916.90 0.1171
917.00 0.117
917.10 0.1168
917.20 0.1165
917.30 0.1163
917.40 0.116
917.50 0.1158
917.60 0.1155
917.70 0.1153
917.80 0.115
917.90 0.1148
918.00 0.1145
918.10 0.1143
918.20 0.114
918.30 0.1138
918.40 0.1135
918.50 0.1133
918.60 0.113
918.70 0.1128
918.80 0.1125
918.90 0.1123
919.00 0.1121
919.10 0.1118
919.20 0.1116
919.30 0.1113
919.40 0.1111
919.50 0.1108
919.60 0.1106
919.70 0.1103
919.80 0.1101
919.90 0.1098
920.00 0.1096
920.10 0.1093
920.20 0.1091
920.30 0.1088
920.40 0.1086
920.50 0.1083
920.60 0.1081
920.70 0.1078
920.80 0.1076
920.90 0.1074
921.00 0.1071
921.10 0.1069
921.20 0.1066
921.30 0.1064
921.40 0.1061
921.50 0.1059
921.60 0.1056
921.70 0.1054
921.80 0.1051
921.90 0.1049
922.00 0.1047
922.10 0.1048
922.20 0.1049
922.30 0.105
922.40 0.1051
922.50 0.1052
922.60 0.1054
922.70 0.1055
922.80 0.1056
922.90 0.1057
923.00 0.1058
923.10 0.1059
923.20 0.1061
923.30 0.1062
923.40 0.1063
923.50 0.1064
923.60 0.1065
923.70 0.1066
923.80 0.1067
923.90 0.1069
924.00 0.107
924.10 0.1071
924.20 0.1072
924.30 0.1073
924.40 0.1074
924.50 0.1076
924.60 0.1077
924.70 0.1078
924.80 0.1079
924.90 0.108
925.00 0.1081
925.10 0.1083
925.20 0.1084
925.30 0.1085
925.40 0.1086
925.50 0.1087
925.60 0.1088
925.70 0.1089
925.80 0.1091
925.90 0.1092
926.00 0.1093
926.10 0.1094
926.20 0.1095
926.30 0.1096
926.40 0.1097
926.50 0.1099
926.60 0.11
926.70 0.1101
926.80 0.1102
926.90 0.1103
927.00 0.1104
927.10 0.1105
927.20 0.1105
927.30 0.1106
927.40 0.1107
927.50 0.1107
927.60 0.1108
927.70 0.1108
927.80 0.1109
927.90 0.1109
928.00 0.111
928.10 0.111
928.20 0.1111
928.30 0.1112
928.40 0.1112
928.50 0.1113
928.60 0.1113
928.70 0.1114
928.80 0.1114
928.90 0.1115
929.00 0.1115
929.10 0.1116
929.20 0.1116
929.30 0.1117
929.40 0.1118
929.50 0.1118
929.60 0.1119
929.70 0.1119
929.80 0.112
929.90 0.112
930.00 0.1121
930.10 0.1121
930.20 0.1122
930.30 0.1122
930.40 0.1123
930.50 0.1124
930.60 0.1124
930.70 0.1125
930.80 0.1125
930.90 0.1126
931.00 0.1126
931.10 0.1127
931.20 0.1127
931.30 0.1128
931.40 0.1128
931.50 0.1129
931.60 0.113
931.70 0.113
931.80 0.1131
931.90 0.1131
932.00 0.1132
932.10 0.1132
932.20 0.1132
932.30 0.1131
932.40 0.1131
932.50 0.1131
932.60 0.1131
932.70 0.1131
932.80 0.1131
932.90 0.1131
933.00 0.1131
933.10 0.1131
933.20 0.1131
933.30 0.1131
933.40 0.113
933.50 0.113
933.60 0.113
933.70 0.113
933.80 0.113
933.90 0.113
934.00 0.113
934.10 0.113
934.20 0.113
934.30 0.113
934.40 0.1129
934.50 0.1129
934.60 0.1129
934.70 0.1129
934.80 0.1128
934.90 0.1128
935.00 0.1128
935.10 0.1127
935.20 0.1127
935.30 0.1127
935.40 0.1127
935.50 0.1126
935.60 0.1126
935.70 0.1126
935.80 0.1125
935.90 0.1125
936.00 0.1125
936.10 0.1124
936.20 0.1124
936.30 0.1124
936.40 0.1124
936.50 0.1123
936.60 0.1123
936.70 0.1123
936.80 0.1122
936.90 0.1122
937.00 0.1122
937.10 0.1122
937.20 0.1121
937.30 0.1121
937.40 0.112
937.50 0.112
937.60 0.112
937.70 0.1119
937.80 0.1119
937.90 0.1118
938.00 0.1118
938.10 0.1118
938.20 0.1117
938.30 0.1117
938.40 0.1116
938.50 0.1116
938.60 0.1115
938.70 0.1115
938.80 0.1114
938.90 0.1114
939.00 0.1113
939.10 0.1113
939.20 0.1112
939.30 0.1112
939.40 0.1111
939.50 0.1111
939.60 0.1111
939.70 0.111
939.80 0.111
939.90 0.1109
940.00 0.1109
940.10 0.1108
940.20 0.1108
940.30 0.1107
940.40 0.1107
940.50 0.1106
940.60 0.1105
940.70 0.1105
940.80 0.1104
940.90 0.1104
941.00 0.1103
941.10 0.1103
941.20 0.1102
941.30 0.1101
941.40 0.1101
941.50 0.11
941.60 0.11
941.70 0.1099
941.80 0.1099
941.90 0.1098
942.00 0.1097
942.10 0.1097
942.20 0.1096
942.30 0.1096
942.40 0.1095
942.50 0.1094
942.60 0.1093
942.70 0.1093
942.80 0.1092
942.90 0.1091
943.00 0.109
943.10 0.109
943.20 0.1089
943.30 0.1088
943.40 0.1088
943.50 0.1087
943.60 0.1086
943.70 0.1085
943.80 0.1085
943.90 0.1084
944.00 0.1083
944.10 0.1083
944.20 0.1082
944.30 0.1081
944.40 0.108
944.50 0.1079
944.60 0.1078
944.70 0.1078
944.80 0.1077
944.90 0.1076
945.00 0.1075
945.10 0.1074
945.20 0.1073
945.30 0.1072
945.40 0.1071
945.50 0.107
945.60 0.1069
945.70 0.1068
945.80 0.1067
945.90 0.1066
946.00 0.1065
946.10 0.1064
946.20 0.1063
946.30 0.1062
946.40 0.1061
946.50 0.1059
946.60 0.1058
946.70 0.1057
946.80 0.1056
946.90 0.1055
947.00 0.1054
947.10 0.1053
947.20 0.1052
947.30 0.105
947.40 0.1049
947.50 0.1047
947.60 0.1046
947.70 0.1044
947.80 0.1042
947.90 0.1041
948.00 0.1039
948.10 0.1038
948.20 0.1036
948.30 0.1035
948.40 0.1033
948.50 0.1032
948.60 0.103
948.70 0.1028
948.80 0.1027
948.90 0.1025
949.00 0.1024
949.10 0.1022
949.20 0.1021
949.30 0.1019
949.40 0.1017
949.50 0.1014
949.60 0.1012
949.70 0.101
949.80 0.1008
949.90 0.1005
950.00 0.1003
950.10 0.1001
950.20 0.09984
950.30 0.09962
950.40 0.09939
950.50 0.09916
950.60 0.09893
950.70 0.0987
950.80 0.09847
950.90 0.09824
951.00 0.09802
951.10 0.09779
951.20 0.09756
951.30 0.09733
951.40 0.09704
951.50 0.09674
951.60 0.09645
951.70 0.09615
951.80 0.09586
951.90 0.09556
952.00 0.09527
952.10 0.09493
952.20 0.09459
952.30 0.09425
952.40 0.09391
952.50 0.09357
952.60 0.09323
952.70 0.0929
952.80 0.09256
952.90 0.09217
953.00 0.09178
953.10 0.09139
953.20 0.091
953.30 0.09062
953.40 0.09023
953.50 0.08984
953.60 0.08941
953.70 0.08898
953.80 0.08855
953.90 0.08812
954.00 0.08766
954.10 0.0872
954.20 0.08672
954.30 0.08623
954.40 0.08573
954.50 0.08533
954.60 0.08529
954.70 0.08526
954.80 0.08568
954.90 0.08611
955.00 0.08654
955.10 0.08696
955.20 0.08733
955.30 0.0877
955.40 0.08807
955.50 0.08844
955.60 0.08881
955.70 0.08918
955.80 0.08955
955.90 0.08984
956.00 0.09013
956.10 0.09043
956.20 0.09072
956.30 0.09101
956.40 0.09131
956.50 0.0916
956.60 0.09189
956.70 0.09218
956.80 0.09248
956.90 0.09277
957.00 0.09306
957.10 0.0933
957.20 0.09355
957.30 0.09379
957.40 0.09397
957.50 0.09415
957.60 0.09433
957.70 0.0945
957.80 0.09468
957.90 0.09486
958.00 0.09504
958.10 0.09522
958.20 0.0954
958.30 0.09558
958.40 0.09575
958.50 0.09593
958.60 0.09611
958.70 0.09629
958.80 0.09647
958.90 0.09664
959.00 0.09682
959.10 0.097
959.20 0.09718
959.30 0.09735
959.40 0.09745
959.50 0.09754
959.60 0.09763
959.70 0.09773
959.80 0.09782
959.90 0.09791
960.00 0.09801
960.10 0.0981
960.20 0.09819
960.30 0.09829
960.40 0.09838
960.50 0.09847
960.60 0.09856
960.70 0.09866
960.80 0.09875
960.90 0.09884
961.00 0.09893
961.10 0.09903
961.20 0.09912
961.30 0.09921
961.40 0.09927
961.50 0.09932
961.60 0.09937
961.70 0.09942
961.80 0.09948
961.90 0.09953
962.00 0.09958
962.10 0.09962
962.20 0.09965
962.30 0.09968
962.40 0.09971
962.50 0.09974
962.60 0.09978
962.70 0.09981
962.80 0.09984
962.90 0.09987
963.00 0.0999
963.10 0.09994
963.20 0.09997
963.30 0.1
963.40 0.1
963.50 0.1
963.60 0.1
963.70 0.1001
963.80 0.1001
963.90 0.1001
964.00 0.1001
964.10 0.1001
964.20 0.1001
964.30 0.1001
964.40 0.1001
964.50 0.1001
964.60 0.1001
964.70 0.1001
964.80 0.1001
964.90 0.1001
965.00 0.1001
965.10 0.1001
965.20 0.1001
965.30 0.1001
965.40 0.1001
965.50 0.1001
965.60 0.1001
965.70 0.1001
965.80 0.1001
965.90 0.1001
966.00 0.1001
966.10 0.1001
966.20 0.1001
966.30 0.1001
966.40 0.1001
966.50 0.1001
966.60 0.1
966.70 0.1
966.80 0.1
966.90 0.1
967.00 0.09999
967.10 0.09998
967.20 0.09996
967.30 0.09994
967.40 0.09992
967.50 0.0999
967.60 0.09989
967.70 0.09987
967.80 0.09985
967.90 0.09983
968.00 0.09981
968.10 0.09979
968.20 0.09978
968.30 0.09976
968.40 0.09973
968.50 0.09971
968.60 0.09968
968.70 0.09966
968.80 0.09964
968.90 0.09961
969.00 0.09959
969.10 0.09956
969.20 0.09954
969.30 0.09951
969.40 0.09949
969.50 0.09947
969.60 0.09944
969.70 0.09942
969.80 0.09939
969.90 0.09937
970.00 0.09934
970.10 0.09932
970.20 0.09929
970.30 0.09927
970.40 0.09924
970.50 0.09921
970.60 0.09918
970.70 0.09915
970.80 0.09913
970.90 0.0991
971.00 0.09907
971.10 0.09904
971.20 0.09901
971.30 0.09898
971.40 0.09895
971.50 0.09892
971.60 0.09889
971.70 0.09886
971.80 0.09884
971.90 0.09881
972.00 0.09878
972.10 0.09875
972.20 0.09871
972.30 0.09868
972.40 0.09865
972.50 0.09862
972.60 0.09859
972.70 0.09855
972.80 0.09852
972.90 0.09849
973.00 0.09846
973.10 0.09843
973.20 0.09839
973.30 0.09836
973.40 0.09833
973.50 0.0983
973.60 0.09827
973.70 0.09823
973.80 0.0982
973.90 0.09817
974.00 0.09814
974.10 0.09811
974.20 0.09807
974.30 0.09804
974.40 0.09801
974.50 0.09797
974.60 0.09794
974.70 0.0979
974.80 0.09787
974.90 0.09783
975.00 0.0978
975.10 0.09777
975.20 0.09773
975.30 0.0977
975.40 0.09766
975.50 0.09763
975.60 0.09759
975.70 0.09756
975.80 0.09752
975.90 0.09749
976.00 0.09746
976.10 0.09742
976.20 0.09739
976.30 0.09735
976.40 0.09732
976.50 0.09728
976.60 0.09725
976.70 0.09722
976.80 0.09718
976.90 0.09715
977.00 0.09711
977.10 0.09708
977.20 0.09704
977.30 0.097
977.40 0.09697
977.50 0.09693
977.60 0.09689
977.70 0.09685
977.80 0.09682
977.90 0.09678
978.00 0.09674
978.10 0.09671
978.20 0.09667
978.30 0.09663
978.40 0.0966
978.50 0.09656
978.60 0.09652
978.70 0.09649
978.80 0.09645
978.90 0.09641
979.00 0.09638
979.10 0.09634
979.20 0.0963
979.30 0.09627
979.40 0.09623
979.50 0.09619
979.60 0.09616
979.70 0.09612
979.80 0.09608
979.90 0.09605
980.00 0.09601
980.10 0.09597
980.20 0.09594
980.30 0.0959
980.40 0.09586
980.50 0.09583
980.60 0.09579
980.70 0.09575
980.80 0.09572
980.90 0.09568
981.00 0.09564
981.10 0.09561
981.20 0.09557
981.30 0.09553
981.40 0.0955
981.50 0.09546
981.60 0.09542
981.70 0.09539
981.80 0.09535
981.90 0.09532
982.00 0.09528
982.10 0.09524
982.20 0.0952
982.30 0.09516
982.40 0.09512
982.50 0.09508
982.60 0.09505
982.70 0.09501
982.80 0.09497
982.90 0.09493
983.00 0.09489
983.10 0.09485
983.20 0.09481
983.30 0.09477
983.40 0.09474
983.50 0.0947
983.60 0.09466
983.70 0.09462
983.80 0.09458
983.90 0.09454
984.00 0.0945
984.10 0.09446
984.20 0.09443
984.30 0.09439
984.40 0.09435
984.50 0.09431
984.60 0.09427
984.70 0.09423
984.80 0.09419
984.90 0.09415
985.00 0.09411
985.10 0.09407
985.20 0.09403
985.30 0.09399
985.40 0.09395
985.50 0.0939
985.60 0.09386
985.70 0.09382
985.80 0.09378
985.90 0.09374
986.00 0.0937
986.10 0.09366
986.20 0.09362
986.30 0.09358
986.40 0.09354
986.50 0.0935
986.60 0.09346
986.70 0.09342
986.80 0.09338
986.90 0.09334
987.00 0.09329
987.10 0.09325
987.20 0.09321
987.30 0.09317
987.40 0.09312
987.50 0.09308
987.60 0.09304
987.70 0.09299
987.80 0.09295
987.90 0.09291
988.00 0.09286
988.10 0.09282
988.20 0.09278
988.30 0.09273
988.40 0.09269
988.50 0.09265
988.60 0.09261
988.70 0.09256
988.80 0.09251
988.90 0.09247
989.00 0.09242
989.10 0.09237
989.20 0.09233
989.30 0.09228
989.40 0.09223
989.50 0.09219
989.60 0.09214
989.70 0.09209
989.80 0.09205
989.90 0.092
990.00 0.09196
990.10 0.09191
990.20 0.09186
990.30 0.09182
990.40 0.09177
990.50 0.09172
990.60 0.09168
990.70 0.09163
990.80 0.09158
990.90 0.09153
991.00 0.09147
991.10 0.09142
991.20 0.09137
991.30 0.09132
991.40 0.09127
991.50 0.09122
991.60 0.09117
991.70 0.09112
991.80 0.09106
991.90 0.09101
992.00 0.09096
992.10 0.09091
992.20 0.09085
992.30 0.0908
992.40 0.09074
992.50 0.09069
992.60 0.09063
992.70 0.09057
992.80 0.09051
992.90 0.09045
993.00 0.09038
993.10 0.09032
993.20 0.09026
993.30 0.09019
993.40 0.09013
993.50 0.09007
993.60 0.09001
993.70 0.08994
993.80 0.08988
993.90 0.08982
994.00 0.08976
994.10 0.08969
994.20 0.08963
994.30 0.08957
994.40 0.08951
994.50 0.08945
994.60 0.08938
994.70 0.08931
994.80 0.08924
994.90 0.08916
995.00 0.08909
995.10 0.08901
995.20 0.08894
995.30 0.08886
995.40 0.08879
995.50 0.08871
995.60 0.08864
995.70 0.08855
995.80 0.08847
995.90 0.08838
996.00 0.08829
996.10 0.0882
996.20 0.08811
996.30 0.08802
996.40 0.08793
996.50 0.08784
996.60 0.08775
996.70 0.08766
996.80 0.08758
996.90 0.08749
997.00 0.0874
997.10 0.08729
997.20 0.08719
997.30 0.08708
997.40 0.08698
997.50 0.08687
997.60 0.08677
997.70 0.08664
997.80 0.0865
997.90 0.08636
998.00 0.08623
998.10 0.08609
998.20 0.08596
998.30 0.08582
998.40 0.08568
998.50 0.08555
998.60 0.08541
998.70 0.08528
998.80 0.08514
998.90 0.085
999.00 0.08487
999.10 0.08473
999.20 0.0846
999.30 0.08446
999.40 0.08433
999.50 0.08419
999.60 0.08405
999.70 0.08386
999.80 0.08366
999.90 0.08345
1000.00 0.08324
1000.10 0.08303
1000.20 0.08283
1000.30 0.08262
1000.40 0.08241
1000.50 0.08221
1000.60 0.082
1000.70 0.08179
1000.80 0.08159
1000.90 0.08138
1001.00 0.08117
1001.10 0.08097
1001.20 0.08076
1001.30 0.08055
1001.40 0.08035
1001.50 0.08014
1001.60 0.07994
1001.70 0.07969
1001.80 0.07942
1001.90 0.07916
1002.00 0.07889
1002.10 0.07858
1002.20 0.07827
1002.30 0.07795
1002.40 0.07764
1002.50 0.07733
1002.60 0.07701
1002.70 0.0767
1002.80 0.07639
1002.90 0.07608
1003.00 0.07577
1003.10 0.07545
1003.20 0.07509
1003.30 0.0747
1003.40 0.07432
1003.50 0.07394
1003.60 0.07355
1003.70 0.07317
1003.80 0.07279
1003.90 0.07235
1004.00 0.0719
1004.10 0.07144
1004.20 0.07099
1004.30 0.07048
1004.40 0.06996
1004.50 0.06941
1004.60 0.06882
1004.70 0.06821
1004.80 0.06773
1004.90 0.06762
1005.00 0.06752
1005.10 0.06788
1005.20 0.06839
1005.30 0.06889
1005.40 0.06939
1005.50 0.06984
1005.60 0.07026
1005.70 0.07068
1005.80 0.0711
1005.90 0.07151
1006.00 0.07193
1006.10 0.07235
1006.20 0.07269
1006.30 0.07301
1006.40 0.07332
1006.50 0.07363
1006.60 0.07395
1006.70 0.07426
1006.80 0.07457
1006.90 0.07489
1007.00 0.0752
1007.10 0.07545
1007.20 0.07571
1007.30 0.07596
1007.40 0.07621
1007.50 0.07647
1007.60 0.07672
1007.70 0.07691
1007.80 0.07709
1007.90 0.07726
1008.00 0.07744
1008.10 0.07761
1008.20 0.07779
1008.30 0.07796
1008.40 0.07813
1008.50 0.07831
1008.60 0.07848
1008.70 0.07866
1008.80 0.07883
1008.90 0.079
1009.00 0.07918
1009.10 0.07935
1009.20 0.07953
1009.30 0.0797
1009.40 0.07987
1009.50 0.08005
1009.60 0.08022
1009.70 0.08033
1009.80 0.08042
1009.90 0.08051
1010.00 0.0806
1010.10 0.08068
1010.20 0.08077
1010.30 0.08086
1010.40 0.08095
1010.50 0.08104
1010.60 0.08113
1010.70 0.08121
1010.80 0.0813
1010.90 0.08139
1011.00 0.08148
1011.10 0.08157
1011.20 0.08166
1011.30 0.08174
1011.40 0.08183
1011.50 0.08192
1011.60 0.08201
1011.70 0.08207
1011.80 0.08212
1011.90 0.08218
1012.00 0.08223
1012.10 0.08226
1012.20 0.0823
1012.30 0.08233
1012.40 0.08237
1012.50 0.0824
1012.60 0.08243
1012.70 0.08247
1012.80 0.0825
1012.90 0.08253
1013.00 0.08257
1013.10 0.0826
1013.20 0.08264
1013.30 0.08267
1013.40 0.0827
1013.50 0.08274
1013.60 0.08277
1013.70 0.08279
1013.80 0.0828
1013.90 0.08282
1014.00 0.08283
1014.10 0.08284
1014.20 0.08286
1014.30 0.08287
1014.40 0.08289
1014.50 0.0829
1014.60 0.08291
1014.70 0.08292
1014.80 0.08292
1014.90 0.08292
1015.00 0.08292
1015.10 0.08292
1015.20 0.08292
1015.30 0.08292
1015.40 0.08292
1015.50 0.08292
1015.60 0.08292
1015.70 0.08292
1015.80 0.08292
1015.90 0.08292
1016.00 0.08292
1016.10 0.08292
1016.20 0.08292
1016.30 0.08292
1016.40 0.08292
1016.50 0.08292
1016.60 0.08292
1016.70 0.08291
1016.80 0.0829
1016.90 0.08289
1017.00 0.08288
1017.10 0.08287
1017.20 0.08286
1017.30 0.08285
1017.40 0.08283
1017.50 0.08282
1017.60 0.08281
1017.70 0.0828
1017.80 0.08278
1017.90 0.08277
1018.00 0.08276
1018.10 0.08275
1018.20 0.08273
1018.30 0.08272
1018.40 0.08271
1018.50 0.0827
1018.60 0.08268
1018.70 0.08267
1018.80 0.08265
1018.90 0.08263
1019.00 0.08261
1019.10 0.08259
1019.20 0.08257
1019.30 0.08256
1019.40 0.08254
1019.50 0.08252
1019.60 0.0825
1019.70 0.08248
1019.80 0.08246
1019.90 0.08244
1020.00 0.08243
1020.10 0.08241
1020.20 0.08239
1020.30 0.08237
1020.40 0.08235
1020.50 0.08233
1020.60 0.08232
1020.70 0.0823
1020.80 0.08227
1020.90 0.08225
1021.00 0.08223
1021.10 0.08221
1021.20 0.08219
1021.30 0.08217
1021.40 0.08214
1021.50 0.08212
1021.60 0.0821
1021.70 0.08208
1021.80 0.08206
1021.90 0.08203
1022.00 0.08201
1022.10 0.08199
1022.20 0.08196
1022.30 0.08194
1022.40 0.08192
1022.50 0.08189
1022.60 0.08187
1022.70 0.08184
1022.80 0.08182
1022.90 0.0818
1023.00 0.08177
1023.10 0.08175
1023.20 0.08172
1023.30 0.0817
1023.40 0.08167
1023.50 0.08165
1023.60 0.08163
1023.70 0.0816
1023.80 0.08158
1023.90 0.08155
1024.00 0.08153
1024.10 0.08151
1024.20 0.08148
1024.30 0.08146
1024.40 0.08143
1024.50 0.08141
1024.60 0.08139
1024.70 0.08136
1024.80 0.08133
1024.90 0.08131
1025.00 0.08128
1025.10 0.08126
1025.20 0.08123
1025.30 0.0812
1025.40 0.08118
1025.50 0.08115
1025.60 0.08113
1025.70 0.0811
1025.80 0.08108
1025.90 0.08105
1026.00 0.08102
1026.10 0.081
1026.20 0.08097
1026.30 0.08095
1026.40 0.08092
1026.50 0.08089
1026.60 0.08087
1026.70 0.08084
1026.80 0.08082
1026.90 0.08079
1027.00 0.08077
1027.10 0.08074
1027.20 0.08071
1027.30 0.08068
1027.40 0.08066
1027.50 0.08063
1027.60 0.0806
1027.70 0.08057
1027.80 0.08055
1027.90 0.08052
1028.00 0.08049
1028.10 0.08047
1028.20 0.08044
1028.30 0.08041
1028.40 0.08038
1028.50 0.08036
1028.60 0.08033
1028.70 0.0803
1028.80 0.08028
1028.90 0.08025
1029.00 0.08022
1029.10 0.0802
1029.20 0.08017
1029.30 0.08014
1029.40 0.08011
1029.50 0.08009
1029.60 0.08006
1029.70 0.08003
1029.80 0.08001
1029.90 0.07998
1030.00 0.07995
1030.10 0.07993
1030.20 0.0799
1030.30 0.07987
1030.40 0.07984
1030.50 0.07982
1030.60 0.07979
1030.70 0.07976
1030.80 0.07974
1030.90 0.07971
1031.00 0.07968
1031.10 0.07966
1031.20 0.07963
1031.30 0.0796
1031.40 0.07958
1031.50 0.07955
1031.60 0.07952
1031.70 0.07949
1031.80 0.07947
1031.90 0.07944
1032.00 0.07941
1032.10 0.07939
1032.20 0.07936
1032.30 0.07933
1032.40 0.0793
1032.50 0.07928
1032.60 0.07925
1032.70 0.07922
1032.80 0.07919
1032.90 0.07917
1033.00 0.07914
1033.10 0.07911
1033.20 0.07908
1033.30 0.07905
1033.40 0.07903
1033.50 0.079
1033.60 0.07897
1033.70 0.07894
1033.80 0.07892
1033.90 0.07889
1034.00 0.07886
1034.10 0.07883
1034.20 0.07881
1034.30 0.07878
1034.40 0.07875
1034.50 0.07872
1034.60 0.0787
1034.70 0.07867
1034.80 0.07864
1034.90 0.07861
1035.00 0.07859
1035.10 0.07856
1035.20 0.07853
1035.30 0.0785
1035.40 0.07848
1035.50 0.07845
1035.60 0.07842
1035.70 0.07839
1035.80 0.07837
1035.90 0.07834
1036.00 0.07831
1036.10 0.07829
1036.20 0.07826
1036.30 0.07823
1036.40 0.0782
1036.50 0.07818
1036.60 0.07815
1036.70 0.07812
1036.80 0.07809
1036.90 0.07807
1037.00 0.07804
1037.10 0.07801
1037.20 0.07798
1037.30 0.07796
1037.40 0.07793
1037.50 0.0779
1037.60 0.07787
1037.70 0.07785
1037.80 0.07782
1037.90 0.07779
1038.00 0.07776
1038.10 0.07774
1038.20 0.07771
1038.30 0.07768
1038.40 0.07765
1038.50 0.07763
1038.60 0.0776
1038.70 0.07757
1038.80 0.07754
1038.90 0.07752
1039.00 0.07749
1039.10 0.07746
1039.20 0.07743
1039.30 0.07741
1039.40 0.07738
1039.50 0.07735
1039.60 0.07732
1039.70 0.0773
1039.80 0.07727
1039.90 0.07724
1040.00 0.07721
1040.10 0.07719
1040.20 0.07716
1040.30 0.07713
1040.40 0.07711
1040.50 0.07708
1040.60 0.07705
1040.70 0.07702
1040.80 0.077
1040.90 0.07697
1041.00 0.07694
1041.10 0.07691
1041.20 0.07689
1041.30 0.07686
1041.40 0.07683
1041.50 0.07681
1041.60 0.07678
1041.70 0.07675
1041.80 0.07672
1041.90 0.0767
1042.00 0.07667
1042.10 0.07664
1042.20 0.07661
1042.30 0.07659
1042.40 0.07656
1042.50 0.07653
1042.60 0.07651
1042.70 0.07648
1042.80 0.07645
1042.90 0.07642
1043.00 0.0764
1043.10 0.07637
1043.20 0.07634
1043.30 0.07632
1043.40 0.07629
1043.50 0.07626
1043.60 0.07623
1043.70 0.07621
1043.80 0.07618
1043.90 0.07615
1044.00 0.07612
1044.10 0.0761
1044.20 0.07607
1044.30 0.07604
1044.40 0.07602
1044.50 0.07599
1044.60 0.07596
1044.70 0.07594
1044.80 0.07591
1044.90 0.07588
1045.00 0.07585
1045.10 0.07583
1045.20 0.0758
1045.30 0.07577
1045.40 0.07575
1045.50 0.07572
1045.60 0.07569
1045.70 0.07566
1045.80 0.07564
1045.90 0.07561
1046.00 0.07558
1046.10 0.07556
1046.20 0.07553
1046.30 0.0755
1046.40 0.07548
1046.50 0.07545
1046.60 0.07542
1046.70 0.0754
1046.80 0.07537
1046.90 0.07534
1047.00 0.07531
1047.10 0.07529
1047.20 0.07526
1047.30 0.07523
1047.40 0.07521
1047.50 0.07518
1047.60 0.07515
1047.70 0.07513
1047.80 0.0751
1047.90 0.07507
1048.00 0.07505
1048.10 0.07502
1048.20 0.07499
1048.30 0.07497
1048.40 0.07494
1048.50 0.07491
1048.60 0.07488
1048.70 0.07486
1048.80 0.07483
1048.90 0.0748
1049.00 0.07478
1049.10 0.07475
1049.20 0.07472
1049.30 0.0747
1049.40 0.07467
1049.50 0.07464
1049.60 0.07462
1049.70 0.07459
1049.80 0.07456
1049.90 0.07454
1050.00 0.07451
1050.10 0.07448
1050.20 0.07446
1050.30 0.07443
1050.40 0.0744
1050.50 0.07438
1050.60 0.07435
1050.70 0.07432
1050.80 0.0743
1050.90 0.07427
1051.00 0.07424
1051.10 0.07422
1051.20 0.07419
1051.30 0.07416
1051.40 0.07414
1051.50 0.07411
1051.60 0.07408
1051.70 0.07406
1051.80 0.07403
1051.90 0.074
1052.00 0.07398
1052.10 0.07395
1052.20 0.07393
1052.30 0.0739
1052.40 0.07387
1052.50 0.07385
1052.60 0.07382
1052.70 0.07379
1052.80 0.07377
1052.90 0.07374
1053.00 0.07371
1053.10 0.07369
1053.20 0.07366
1053.30 0.07363
1053.40 0.07361
1053.50 0.07358
1053.60 0.07355
1053.70 0.07353
1053.80 0.0735
1053.90 0.07347
1054.00 0.07345
1054.10 0.07342
1054.20 0.0734
1054.30 0.07337
1054.40 0.07334
1054.50 0.07332
1054.60 0.07329
1054.70 0.07326
1054.80 0.07324
1054.90 0.07321
1055.00 0.07318
1055.10 0.07316
1055.20 0.07313
1055.30 0.07311
1055.40 0.07308
1055.50 0.07305
1055.60 0.07303
1055.70 0.073
1055.80 0.07297
1055.90 0.07295
1056.00 0.07292
1056.10 0.0729
1056.20 0.07287
1056.30 0.07284
1056.40 0.07282
1056.50 0.07279
1056.60 0.07276
1056.70 0.07274
1056.80 0.07271
1056.90 0.07269
1057.00 0.07266
1057.10 0.07263
1057.20 0.07261
1057.30 0.07258
1057.40 0.07256
1057.50 0.07253
1057.60 0.0725
1057.70 0.07248
1057.80 0.07245
1057.90 0.07242
1058.00 0.0724
1058.10 0.07237
1058.20 0.07235
1058.30 0.07232
1058.40 0.07229
1058.50 0.07227
1058.60 0.07224
1058.70 0.07221
1058.80 0.07219
1058.90 0.07216
1059.00 0.07214
1059.10 0.07211
1059.20 0.07208
1059.30 0.07206
1059.40 0.07203
1059.50 0.07201
1059.60 0.07198
1059.70 0.07195
1059.80 0.07193
1059.90 0.0719
1060.00 0.07188
1060.10 0.07185
1060.20 0.07182
1060.30 0.0718
1060.40 0.07177
1060.50 0.07175
1060.60 0.07172
1060.70 0.07169
1060.80 0.07167
1060.90 0.07164
1061.00 0.07162
1061.10 0.07159
1061.20 0.07156
1061.30 0.07154
1061.40 0.07151
1061.50 0.07149
1061.60 0.07146
1061.70 0.07143
1061.80 0.07141
1061.90 0.07138
1062.00 0.07136
1062.10 0.07133
1062.20 0.0713
1062.30 0.07128
1062.40 0.07125
1062.50 0.07123
1062.60 0.0712
1062.70 0.07117
1062.80 0.07115
1062.90 0.07112
1063.00 0.07109
1063.10 0.07107
1063.20 0.07104
1063.30 0.07102
1063.40 0.07099
1063.50 0.07096
1063.60 0.07094
1063.70 0.07091
1063.80 0.07089
1063.90 0.07086
1064.00 0.07083
1064.10 0.07081
1064.20 0.07078
1064.30 0.07076
1064.40 0.07073
1064.50 0.0707
1064.60 0.07068
1064.70 0.07065
1064.80 0.07063
1064.90 0.0706
1065.00 0.07057
1065.10 0.07055
1065.20 0.07052
1065.30 0.0705
1065.40 0.07047
1065.50 0.07044
1065.60 0.07042
1065.70 0.07039
1065.80 0.07037
1065.90 0.07034
1066.00 0.07031
1066.10 0.07029
1066.20 0.07026
1066.30 0.07024
1066.40 0.07021
1066.50 0.07018
1066.60 0.07016
1066.70 0.07013
1066.80 0.07011
1066.90 0.07008
1067.00 0.07006
1067.10 0.07003
1067.20 0.07
1067.30 0.06997
1067.40 0.06995
1067.50 0.06992
1067.60 0.0699
1067.70 0.06987
1067.80 0.06984
1067.90 0.06982
1068.00 0.06979
1068.10 0.06976
1068.20 0.06974
1068.30 0.06971
1068.40 0.06968
1068.50 0.06966
1068.60 0.06963
1068.70 0.0696
1068.80 0.06958
1068.90 0.06955
1069.00 0.06952
1069.10 0.0695
1069.20 0.06947
1069.30 0.06944
1069.40 0.06942
1069.50 0.06939
1069.60 0.06936
1069.70 0.06934
1069.80 0.06931
1069.90 0.06928
1070.00 0.06926
1070.10 0.06923
1070.20 0.06921
1070.30 0.06918
1070.40 0.06915
1070.50 0.06913
1070.60 0.0691
1070.70 0.06907
1070.80 0.06905
1070.90 0.06902
1071.00 0.06899
1071.10 0.06897
1071.20 0.06894
1071.30 0.06892
1071.40 0.06889
1071.50 0.06886
1071.60 0.06884
1071.70 0.06881
1071.80 0.06878
1071.90 0.06876
1072.00 0.06873
1072.10 0.0687
1072.20 0.06868
1072.30 0.06865
1072.40 0.06862
1072.50 0.06859
1072.60 0.06857
1072.70 0.06854
1072.80 0.06851
1072.90 0.06849
1073.00 0.06846
1073.10 0.06843
1073.20 0.0684
1073.30 0.06838
1073.40 0.06835
1073.50 0.06832
1073.60 0.06829
1073.70 0.06826
1073.80 0.06823
1073.90 0.06821
1074.00 0.06818
1074.10 0.06815
1074.20 0.06812
1074.30 0.06809
1074.40 0.06806
1074.50 0.06803
1074.60 0.068
1074.70 0.06797
1074.80 0.06795
1074.90 0.06792
1075.00 0.06789
1075.10 0.06786
1075.20 0.06783
1075.30 0.0678
1075.40 0.06777
1075.50 0.06774
1075.60 0.06772
1075.70 0.06769
1075.80 0.06766
1075.90 0.06763
1076.00 0.0676
1076.10 0.06757
1076.20 0.06754
1076.30 0.06752
1076.40 0.06749
1076.50 0.06746
1076.60 0.06743
1076.70 0.0674
1076.80 0.06737
1076.90 0.06734
1077.00 0.06731
1077.10 0.06728
1077.20 0.06725
1077.30 0.06722
1077.40 0.06719
1077.50 0.06716
1077.60 0.06713
1077.70 0.0671
1077.80 0.06706
1077.90 0.06703
1078.00 0.067
1078.10 0.06697
1078.20 0.06694
1078.30 0.0669
1078.40 0.06687
1078.50 0.06684
1078.60 0.06681
1078.70 0.06677
1078.80 0.06674
1078.90 0.06671
1079.00 0.06668
1079.10 0.06664
1079.20 0.06661
1079.30 0.06658
1079.40 0.06655
1079.50 0.06651
1079.60 0.06648
1079.70 0.06644
1079.80 0.0664
1079.90 0.06637
1080.00 0.06633
1080.10 0.06629
1080.20 0.06626
1080.30 0.06622
1080.40 0.06618
1080.50 0.06615
1080.60 0.06611
1080.70 0.06608
1080.80 0.06604
1080.90 0.066
1081.00 0.06597
1081.10 0.06593
1081.20 0.06589
1081.30 0.06586
1081.40 0.06582
1081.50 0.06578
1081.60 0.06574
1081.70 0.0657
1081.80 0.06566
1081.90 0.06562
1082.00 0.06558
1082.10 0.06553
1082.20 0.06549
1082.30 0.06544
1082.40 0.0654
1082.50 0.06535
1082.60 0.06531
1082.70 0.06526
1082.80 0.06522
1082.90 0.06517
1083.00 0.06513
1083.10 0.06508
1083.20 0.06504
1083.30 0.06499
1083.40 0.06495
1083.50 0.0649
1083.60 0.06485
1083.70 0.0648
1083.80 0.06475
1083.90 0.06469
1084.00 0.06464
1084.10 0.06459
1084.20 0.06454
1084.30 0.06448
1084.40 0.06443
1084.50 0.06437
1084.60 0.06431
1084.70 0.06424
1084.80 0.06418
1084.90 0.06411
1085.00 0.06404
1085.10 0.06398
1085.20 0.06391
1085.30 0.06385
1085.40 0.06378
1085.50 0.06371
1085.60 0.06365
1085.70 0.06358
1085.80 0.06351
1085.90 0.06345
1086.00 0.06338
1086.10 0.06332
1086.20 0.06325
1086.30 0.06319
1086.40 0.06312
1086.50 0.06305
1086.60 0.06297
1086.70 0.06288
1086.80 0.0628
1086.90 0.06272
1087.00 0.06264
1087.10 0.06254
1087.20 0.06244
1087.30 0.06233
1087.40 0.06223
1087.50 0.06213
1087.60 0.06203
1087.70 0.06193
1087.80 0.06183
1087.90 0.06173
1088.00 0.06163
1088.10 0.06153
1088.20 0.06143
1088.30 0.06133
1088.40 0.06123
1088.50 0.06111
1088.60 0.06097
1088.70 0.06082
1088.80 0.06067
1088.90 0.06053
1089.00 0.06038
1089.10 0.06024
1089.20 0.06009
1089.30 0.05994
1089.40 0.0598
1089.50 0.05965
1089.60 0.05951
1089.70 0.05936
1089.80 0.05922
1089.90 0.05907
1090.00 0.05892
1090.10 0.05878
1090.20 0.05863
1090.30 0.05849
1090.40 0.05834
1090.50 0.05817
1090.60 0.05796
1090.70 0.05774
1090.80 0.05753
1090.90 0.05732
1091.00 0.0571
1091.10 0.05689
1091.20 0.05667
1091.30 0.05646
1091.40 0.05624
1091.50 0.05603
1091.60 0.05582
1091.70 0.0556
1091.80 0.05539
1091.90 0.05518
1092.00 0.05495
1092.10 0.05467
1092.20 0.05438
1092.30 0.0541
1092.40 0.05382
1092.50 0.05354
1092.60 0.05326
1092.70 0.05295
1092.80 0.05261
1092.90 0.05226
1093.00 0.05191
1093.10 0.05154
1093.20 0.05111
1093.30 0.05068
1093.40 0.05018
1093.50 0.04962
1093.60 0.04896
1093.70 0.04851
1093.80 0.04827
1093.90 0.04828
1094.00 0.04884
1094.10 0.04939
1094.20 0.04995
1094.30 0.05044
1094.40 0.05079
1094.50 0.05114
1094.60 0.05148
1094.70 0.05183
1094.80 0.05218
1094.90 0.05252
1095.00 0.05283
1095.10 0.05304
1095.20 0.05326
1095.30 0.05347
1095.40 0.05369
1095.50 0.0539
1095.60 0.05412
1095.70 0.05433
1095.80 0.05455
1095.90 0.05476
1096.00 0.05498
1096.10 0.05519
1096.20 0.05541
1096.30 0.05562
1096.40 0.05584
1096.50 0.05603
1096.60 0.05619
1096.70 0.05635
1096.80 0.0565
1096.90 0.05666
1097.00 0.05682
1097.10 0.05693
1097.20 0.05705
1097.30 0.05717
1097.40 0.05728
1097.50 0.0574
1097.60 0.05752
1097.70 0.05763
1097.80 0.05775
1097.90 0.05787
1098.00 0.05798
1098.10 0.0581
1098.20 0.05821
1098.30 0.05833
1098.40 0.05845
1098.50 0.05855
1098.60 0.05861
1098.70 0.05868
1098.80 0.05874
1098.90 0.05881
1099.00 0.05888
1099.10 0.05894
1099.20 0.05901
1099.30 0.05907
1099.40 0.05914
1099.50 0.0592
1099.60 0.05927
1099.70 0.05933
1099.80 0.0594
1099.90 0.05947
1100.00 0.05953
1100.10 0.0596
1100.20 0.05966
1100.30 0.05973
1100.40 0.05979
1100.50 0.05985
1100.60 0.05988
1100.70 0.05991
1100.80 0.05994
1100.90 0.05997
1101.00 0.06001
1101.10 0.06004
1101.20 0.06007
1101.30 0.0601
1101.40 0.06013
1101.50 0.06017
1101.60 0.0602
1101.70 0.06023
1101.80 0.06026
1101.90 0.06029
1102.00 0.06033
1102.10 0.06034
1102.20 0.06036
1102.30 0.06038
1102.40 0.0604
1102.50 0.06042
1102.60 0.06043
1102.70 0.06044
1102.80 0.06045
1102.90 0.06047
1103.00 0.06048
1103.10 0.06049
1103.20 0.0605
1103.30 0.06052
1103.40 0.06053
1103.50 0.06054
1103.60 0.06054
1103.70 0.06054
1103.80 0.06054
1103.90 0.06054
1104.00 0.06055
1104.10 0.06055
1104.20 0.06055
1104.30 0.06055
1104.40 0.06055
1104.50 0.06055
1104.60 0.06056
1104.70 0.06056
1104.80 0.06056
1104.90 0.06056
1105.00 0.06056
1105.10 0.06057
1105.20 0.06057
1105.30 0.06057
1105.40 0.06057
1105.50 0.06057
1105.60 0.06056
1105.70 0.06056
1105.80 0.06055
1105.90 0.06055
1106.00 0.06054
1106.10 0.06053
1106.20 0.06053
1106.30 0.06052
1106.40 0.06052
1106.50 0.06051
1106.60 0.0605
1106.70 0.0605
1106.80 0.06049
1106.90 0.06049
1107.00 0.06048
1107.10 0.06047
1107.20 0.06046
1107.30 0.06045
1107.40 0.06044
1107.50 0.06043
1107.60 0.06042
1107.70 0.06041
1107.80 0.0604
1107.90 0.06039
1108.00 0.06038
1108.10 0.06036
1108.20 0.06035
1108.30 0.06034
1108.40 0.06033
1108.50 0.06032
1108.60 0.06031
1108.70 0.06029
1108.80 0.06028
1108.90 0.06027
1109.00 0.06026
1109.10 0.06025
1109.20 0.06024
1109.30 0.06022
1109.40 0.06021
1109.50 0.0602
1109.60 0.06019
1109.70 0.06017
1109.80 0.06016
1109.90 0.06014
1110.00 0.06013
1110.10 0.06011
1110.20 0.0601
1110.30 0.06008
1110.40 0.06007
1110.50 0.06005
1110.60 0.06004
1110.70 0.06002
1110.80 0.06001
1110.90 0.05999
1111.00 0.05998
1111.10 0.05997
1111.20 0.05995
1111.30 0.05994
1111.40 0.05992
1111.50 0.05991
1111.60 0.05989
1111.70 0.05988
1111.80 0.05986
1111.90 0.05985
1112.00 0.05983
1112.10 0.05982
1112.20 0.0598
1112.30 0.05978
1112.40 0.05977
1112.50 0.05975
1112.60 0.05973
1112.70 0.05972
1112.80 0.0597
1112.90 0.05969
1113.00 0.05967
1113.10 0.05965
1113.20 0.05964
1113.30 0.05962
1113.40 0.0596
1113.50 0.05959
1113.60 0.05957
1113.70 0.05955
1113.80 0.05953
1113.90 0.05952
1114.00 0.0595
1114.10 0.05948
1114.20 0.05946
1114.30 0.05945
1114.40 0.05943
1114.50 0.05941
1114.60 0.05939
1114.70 0.05938
1114.80 0.05936
1114.90 0.05934
1115.00 0.05932
1115.10 0.05931
1115.20 0.05929
1115.30 0.05927
1115.40 0.05925
1115.50 0.05924
1115.60 0.05922
1115.70 0.0592
1115.80 0.05918
1115.90 0.05917
1116.00 0.05915
1116.10 0.05913
1116.20 0.05912
1116.30 0.0591
1116.40 0.05908
1116.50 0.05906
1116.60 0.05905
1116.70 0.05903
1116.80 0.05901
1116.90 0.05899
1117.00 0.05898
1117.10 0.05896
1117.20 0.05894
1117.30 0.05892
1117.40 0.0589
1117.50 0.05888
1117.60 0.05887
1117.70 0.05885
1117.80 0.05883
1117.90 0.05881
1118.00 0.05879
1118.10 0.05877
1118.20 0.05875
1118.30 0.05874
1118.40 0.05872
1118.50 0.0587
1118.60 0.05868
1118.70 0.05866
1118.80 0.05864
1118.90 0.05863
1119.00 0.05861
1119.10 0.05859
1119.20 0.05857
1119.30 0.05855
1119.40 0.05853
1119.50 0.05852
1119.60 0.0585
1119.70 0.05848
1119.80 0.05846
1119.90 0.05844
1120.00 0.05842
1120.10 0.05841
1120.20 0.05839
1120.30 0.05837
1120.40 0.05835
1120.50 0.05833
1120.60 0.05831
1120.70 0.0583
1120.80 0.05828
1120.90 0.05826
1121.00 0.05824
1121.10 0.05822
1121.20 0.05821
1121.30 0.05819
1121.40 0.05817
1121.50 0.05815
1121.60 0.05813
1121.70 0.05811
1121.80 0.0581
1121.90 0.05808
1122.00 0.05806
1122.10 0.05804
1122.20 0.05802
1122.30 0.058
1122.40 0.05799
1122.50 0.05797
1122.60 0.05795
1122.70 0.05793
1122.80 0.05791
1122.90 0.05789
1123.00 0.05787
1123.10 0.05785
1123.20 0.05784
1123.30 0.05782
1123.40 0.0578
1123.50 0.05778
1123.60 0.05776
1123.70 0.05774
1123.80 0.05772
1123.90 0.05771
1124.00 0.05769
1124.10 0.05767
1124.20 0.05765
1124.30 0.05763
1124.40 0.05761
1124.50 0.05759
1124.60 0.05757
1124.70 0.05756
1124.80 0.05754
1124.90 0.05752
1125.00 0.0575
1125.10 0.05748
1125.20 0.05746
1125.30 0.05745
1125.40 0.05743
1125.50 0.05741
1125.60 0.05739
1125.70 0.05737
1125.80 0.05735
1125.90 0.05733
1126.00 0.05732
1126.10 0.0573
1126.20 0.05728
1126.30 0.05726
1126.40 0.05724
1126.50 0.05722
1126.60 0.0572
1126.70 0.05719
1126.80 0.05717
1126.90 0.05715
1127.00 0.05713
1127.10 0.05711
1127.20 0.05709
1127.30 0.05707
1127.40 0.05706
1127.50 0.05704
1127.60 0.05702
1127.70 0.057
1127.80 0.05698
1127.90 0.05696
1128.00 0.05694
1128.10 0.05693
1128.20 0.05691
1128.30 0.05689
1128.40 0.05687
1128.50 0.05685
1128.60 0.05683
1128.70 0.05682
1128.80 0.0568
1128.90 0.05678
1129.00 0.05676
1129.10 0.05674
1129.20 0.05672
1129.30 0.0567
1129.40 0.05669
1129.50 0.05667
1129.60 0.05665
1129.70 0.05663
1129.80 0.05661
1129.90 0.05659
1130.00 0.05657
1130.10 0.05656
1130.20 0.05654
1130.30 0.05652
1130.40 0.0565
1130.50 0.05648
1130.60 0.05646
1130.70 0.05645
1130.80 0.05643
1130.90 0.05641
1131.00 0.05639
1131.10 0.05637
1131.20 0.05635
1131.30 0.05634
1131.40 0.05632
1131.50 0.0563
1131.60 0.05628
1131.70 0.05626
1131.80 0.05624
1131.90 0.05623
1132.00 0.05621
1132.10 0.05619
1132.20 0.05617
1132.30 0.05615
1132.40 0.05613
1132.50 0.05611
1132.60 0.0561
1132.70 0.05608
1132.80 0.05606
1132.90 0.05604
1133.00 0.05602
1133.10 0.056
1133.20 0.05599
1133.30 0.05597
1133.40 0.05595
1133.50 0.05593
1133.60 0.05591
1133.70 0.05589
1133.80 0.05588
1133.90 0.05586
1134.00 0.05584
1134.10 0.05582
1134.20 0.0558
1134.30 0.05578
1134.40 0.05577
1134.50 0.05575
1134.60 0.05573
1134.70 0.05571
1134.80 0.05569
1134.90 0.05568
1135.00 0.05566
1135.10 0.05564
1135.20 0.05562
1135.30 0.0556
1135.40 0.05558
1135.50 0.05557
1135.60 0.05555
1135.70 0.05553
1135.80 0.05551
1135.90 0.05549
1136.00 0.05547
1136.10 0.05546
1136.20 0.05544
1136.30 0.05542
1136.40 0.0554
1136.50 0.05538
1136.60 0.05537
1136.70 0.05535
1136.80 0.05533
1136.90 0.05531
1137.00 0.05529
1137.10 0.05528
1137.20 0.05526
1137.30 0.05524
1137.40 0.05522
1137.50 0.0552
1137.60 0.05518
1137.70 0.05517
1137.80 0.05515
1137.90 0.05513
1138.00 0.05511
1138.10 0.05509
1138.20 0.05508
1138.30 0.05506
1138.40 0.05504
1138.50 0.05502
1138.60 0.055
1138.70 0.05499
1138.80 0.05497
1138.90 0.05495
1139.00 0.05493
1139.10 0.05491
1139.20 0.0549
1139.30 0.05488
1139.40 0.05486
1139.50 0.05484
1139.60 0.05482
1139.70 0.05481
1139.80 0.05479
1139.90 0.05477
1140.00 0.05475
1140.10 0.05473
1140.20 0.05472
1140.30 0.0547
1140.40 0.05468
1140.50 0.05466
1140.60 0.05464
1140.70 0.05463
1140.80 0.05461
1140.90 0.05459
1141.00 0.05457
1141.10 0.05456
1141.20 0.05454
1141.30 0.05452
1141.40 0.0545
1141.50 0.05448
1141.60 0.05447
1141.70 0.05445
1141.80 0.05443
1141.90 0.05441
1142.00 0.05439
1142.10 0.05438
1142.20 0.05436
1142.30 0.05434
1142.40 0.05432
1142.50 0.05431
1142.60 0.05429
1142.70 0.05427
1142.80 0.05425
1142.90 0.05423
1143.00 0.05422
1143.10 0.0542
1143.20 0.05418
1143.30 0.05416
1143.40 0.05415
1143.50 0.05413
1143.60 0.05411
1143.70 0.05409
1143.80 0.05408
1143.90 0.05406
1144.00 0.05404
1144.10 0.05402
1144.20 0.054
1144.30 0.05399
1144.40 0.05397
1144.50 0.05395
1144.60 0.05393
1144.70 0.05392
1144.80 0.0539
1144.90 0.05388
1145.00 0.05386
1145.10 0.05385
1145.20 0.05383
1145.30 0.05381
1145.40 0.05379
1145.50 0.05378
1145.60 0.05376
1145.70 0.05374
1145.80 0.05372
1145.90 0.0537
1146.00 0.05369
1146.10 0.05367
1146.20 0.05365
1146.30 0.05363
1146.40 0.05362
1146.50 0.0536
1146.60 0.05358
1146.70 0.05356
1146.80 0.05355
1146.90 0.05353
1147.00 0.05351
1147.10 0.05349
1147.20 0.05348
1147.30 0.05346
1147.40 0.05344
1147.50 0.05342
1147.60 0.05341
1147.70 0.05339
1147.80 0.05337
1147.90 0.05335
1148.00 0.05334
1148.10 0.05332
1148.20 0.0533
1148.30 0.05329
1148.40 0.05327
1148.50 0.05325
1148.60 0.05323
1148.70 0.05322
1148.80 0.0532
1148.90 0.05318
1149.00 0.05316
1149.10 0.05315
1149.20 0.05313
1149.30 0.05311
1149.40 0.05309
1149.50 0.05308
1149.60 0.05306
1149.70 0.05304
1149.80 0.05302
1149.90 0.05301
1150.00 0.05299
1150.10 0.05297
1150.20 0.05296
1150.30 0.05294
1150.40 0.05292
1150.50 0.0529
1150.60 0.05289
1150.70 0.05287
1150.80 0.05285
1150.90 0.05283
1151.00 0.05282
1151.10 0.0528
1151.20 0.05278
1151.30 0.05277
1151.40 0.05275
1151.50 0.05273
1151.60 0.05271
1151.70 0.0527
1151.80 0.05268
1151.90 0.05266
1152.00 0.05265
1152.10 0.05263
1152.20 0.05261
1152.30 0.05259
1152.40 0.05258
1152.50 0.05256
1152.60 0.05254
1152.70 0.05253
1152.80 0.05251
1152.90 0.05249
1153.00 0.05247
1153.10 0.05246
1153.20 0.05244
1153.30 0.05242
1153.40 0.05241
1153.50 0.05239
1153.60 0.05237
1153.70 0.05235
1153.80 0.05234
1153.90 0.05232
1154.00 0.0523
1154.10 0.05229
1154.20 0.05227
1154.30 0.05225
1154.40 0.05224
1154.50 0.05222
1154.60 0.0522
1154.70 0.05218
1154.80 0.05217
1154.90 0.05215
1155.00 0.05213
1155.10 0.05212
1155.20 0.0521
1155.30 0.05208
1155.40 0.05207
1155.50 0.05205
1155.60 0.05203
1155.70 0.05201
1155.80 0.052
1155.90 0.05198
1156.00 0.05196
1156.10 0.05195
1156.20 0.05193
1156.30 0.05191
1156.40 0.0519
1156.50 0.05188
1156.60 0.05186
1156.70 0.05185
1156.80 0.05183
1156.90 0.05181
1157.00 0.05179
1157.10 0.05178
1157.20 0.05176
1157.30 0.05174
1157.40 0.05173
1157.50 0.05171
1157.60 0.05169
1157.70 0.05168
1157.80 0.05166
1157.90 0.05164
1158.00 0.05163
1158.10 0.05161
1158.20 0.05159
1158.30 0.05158
1158.40 0.05156
1158.50 0.05154
1158.60 0.05153
1158.70 0.05151
1158.80 0.05149
1158.90 0.05148
1159.00 0.05146
1159.10 0.05144
1159.20 0.05143
1159.30 0.05141
1159.40 0.05139
1159.50 0.05138
1159.60 0.05136
1159.70 0.05134
1159.80 0.05133
1159.90 0.05131
1160.00 0.05129
1160.10 0.05128
1160.20 0.05126
1160.30 0.05124
1160.40 0.05123
1160.50 0.05121
1160.60 0.05119
1160.70 0.05118
1160.80 0.05116
1160.90 0.05114
1161.00 0.05113
1161.10 0.05111
1161.20 0.05109
1161.30 0.05108
1161.40 0.05106
1161.50 0.05104
1161.60 0.05103
1161.70 0.05101
1161.80 0.05099
1161.90 0.05098
1162.00 0.05096
1162.10 0.05094
1162.20 0.05093
1162.30 0.05091
1162.40 0.0509
1162.50 0.05088
1162.60 0.05086
1162.70 0.05085
1162.80 0.05083
1162.90 0.05081
1163.00 0.0508
1163.10 0.05078
1163.20 0.05076
1163.30 0.05075
1163.40 0.05073
1163.50 0.05071
1163.60 0.0507
1163.70 0.05068
1163.80 0.05067
1163.90 0.05065
1164.00 0.05063
1164.10 0.05062
1164.20 0.0506
1164.30 0.05058
1164.40 0.05057
1164.50 0.05055
1164.60 0.05053
1164.70 0.05052
1164.80 0.0505
1164.90 0.05049
1165.00 0.05047
1165.10 0.05045
1165.20 0.05044
1165.30 0.05042
1165.40 0.0504
1165.50 0.05039
1165.60 0.05037
1165.70 0.05035
1165.80 0.05034
1165.90 0.05032
1166.00 0.05031
1166.10 0.05029
1166.20 0.05027
1166.30 0.05026
1166.40 0.05024
1166.50 0.05022
1166.60 0.05021
1166.70 0.05019
1166.80 0.05018
1166.90 0.05016
1167.00 0.05014
1167.10 0.05013
1167.20 0.05011
1167.30 0.0501
1167.40 0.05008
1167.50 0.05006
1167.60 0.05005
1167.70 0.05003
1167.80 0.05001
1167.90 0.05
1168.00 0.04998
1168.10 0.04997
1168.20 0.04995
1168.30 0.04993
1168.40 0.04992
1168.50 0.0499
1168.60 0.04989
1168.70 0.04987
1168.80 0.04985
1168.90 0.04984
1169.00 0.04982
1169.10 0.04981
1169.20 0.04979
1169.30 0.04977
1169.40 0.04976
1169.50 0.04974
1169.60 0.04973
1169.70 0.04971
1169.80 0.04969
1169.90 0.04968
1170.00 0.04966
1170.10 0.04965
1170.20 0.04963
1170.30 0.04961
1170.40 0.0496
1170.50 0.04958
1170.60 0.04957
1170.70 0.04955
1170.80 0.04953
1170.90 0.04952
1171.00 0.0495
1171.10 0.04949
1171.20 0.04947
1171.30 0.04945
1171.40 0.04944
1171.50 0.04942
1171.60 0.04941
1171.70 0.04939
1171.80 0.04937
1171.90 0.04936
1172.00 0.04934
1172.10 0.04933
1172.20 0.04931
1172.30 0.04929
1172.40 0.04928
1172.50 0.04926
1172.60 0.04925
1172.70 0.04923
1172.80 0.04922
1172.90 0.0492
1173.00 0.04918
1173.10 0.04917
1173.20 0.04915
1173.30 0.04914
1173.40 0.04912
1173.50 0.04911
1173.60 0.04909
1173.70 0.04907
1173.80 0.04906
1173.90 0.04904
1174.00 0.04903
1174.10 0.04901
1174.20 0.04899
1174.30 0.04898
1174.40 0.04896
1174.50 0.04895
1174.60 0.04893
1174.70 0.04892
1174.80 0.0489
1174.90 0.04888
1175.00 0.04887
1175.10 0.04885
1175.20 0.04884
1175.30 0.04882
1175.40 0.04881
1175.50 0.04879
1175.60 0.04878
1175.70 0.04876
1175.80 0.04874
1175.90 0.04873
1176.00 0.04871
1176.10 0.0487
1176.20 0.04868
1176.30 0.04867
1176.40 0.04865
1176.50 0.04863
1176.60 0.04862
1176.70 0.0486
1176.80 0.04859
1176.90 0.04857
1177.00 0.04856
1177.10 0.04854
1177.20 0.04853
1177.30 0.04851
1177.40 0.04849
1177.50 0.04848
1177.60 0.04846
1177.70 0.04845
1177.80 0.04843
1177.90 0.04842
1178.00 0.0484
1178.10 0.04839
1178.20 0.04837
1178.30 0.04835
1178.40 0.04834
1178.50 0.04832
1178.60 0.04831
1178.70 0.04829
1178.80 0.04828
1178.90 0.04826
1179.00 0.04825
1179.10 0.04823
1179.20 0.04822
1179.30 0.0482
1179.40 0.04818
1179.50 0.04817
1179.60 0.04815
1179.70 0.04814
1179.80 0.04812
1179.90 0.04811
1180.00 0.04809
1180.10 0.04808
1180.20 0.04806
1180.30 0.04805
1180.40 0.04803
1180.50 0.04802
1180.60 0.048
1180.70 0.04799
1180.80 0.04797
1180.90 0.04795
1181.00 0.04794
1181.10 0.04792
1181.20 0.04791
1181.30 0.04789
1181.40 0.04788
1181.50 0.04786
1181.60 0.04785
1181.70 0.04783
1181.80 0.04782
1181.90 0.0478
1182.00 0.04779
1182.10 0.04777
1182.20 0.04776
1182.30 0.04774
1182.40 0.04773
1182.50 0.04771
1182.60 0.04769
1182.70 0.04768
1182.80 0.04766
1182.90 0.04765
1183.00 0.04763
1183.10 0.04762
1183.20 0.0476
1183.30 0.04759
1183.40 0.04757
1183.50 0.04756
1183.60 0.04754
1183.70 0.04753
1183.80 0.04751
1183.90 0.0475
1184.00 0.04748
1184.10 0.04747
1184.20 0.04745
1184.30 0.04744
1184.40 0.04742
1184.50 0.04741
1184.60 0.04739
1184.70 0.04738
1184.80 0.04736
1184.90 0.04735
1185.00 0.04733
1185.10 0.04732
1185.20 0.0473
1185.30 0.04729
1185.40 0.04727
1185.50 0.04726
1185.60 0.04724
1185.70 0.04723
1185.80 0.04721
1185.90 0.0472
1186.00 0.04718
1186.10 0.04717
1186.20 0.04715
1186.30 0.04714
1186.40 0.04712
1186.50 0.04711
1186.60 0.04709
1186.70 0.04708
1186.80 0.04706
1186.90 0.04705
1187.00 0.04703
1187.10 0.04702
1187.20 0.047
1187.30 0.04699
1187.40 0.04697
1187.50 0.04696
1187.60 0.04694
1187.70 0.04693
1187.80 0.04691
1187.90 0.0469
1188.00 0.04688
1188.10 0.04687
1188.20 0.04685
1188.30 0.04684
1188.40 0.04682
1188.50 0.04681
1188.60 0.04679
1188.70 0.04678
1188.80 0.04676
1188.90 0.04675
1189.00 0.04673
1189.10 0.04672
1189.20 0.0467
1189.30 0.04669
1189.40 0.04667
1189.50 0.04666
1189.60 0.04664
1189.70 0.04663
1189.80 0.04661
1189.90 0.0466
1190.00 0.04658
1190.10 0.04657
1190.20 0.04655
1190.30 0.04654
1190.40 0.04653
1190.50 0.04651
1190.60 0.0465
1190.70 0.04648
1190.80 0.04647
1190.90 0.04645
1191.00 0.04644
1191.10 0.04642
1191.20 0.04641
1191.30 0.04639
1191.40 0.04638
1191.50 0.04636
1191.60 0.04635
1191.70 0.04633
1191.80 0.04632
1191.90 0.0463
1192.00 0.04629
1192.10 0.04627
1192.20 0.04626
1192.30 0.04625
1192.40 0.04623
1192.50 0.04622
1192.60 0.0462
1192.70 0.04619
1192.80 0.04617
1192.90 0.04616
1193.00 0.04614
1193.10 0.04613
1193.20 0.04611
1193.30 0.0461
1193.40 0.04608
1193.50 0.04607
1193.60 0.04606
1193.70 0.04604
1193.80 0.04603
1193.90 0.04601
1194.00 0.046
1194.10 0.04598
1194.20 0.04597
1194.30 0.04595
1194.40 0.04594
1194.50 0.04592
1194.60 0.04591
1194.70 0.0459
1194.80 0.04588
1194.90 0.04587
1195.00 0.04585
1195.10 0.04584
1195.20 0.04582
1195.30 0.04581
1195.40 0.04579
1195.50 0.04578
1195.60 0.04577
1195.70 0.04575
1195.80 0.04574
1195.90 0.04572
1196.00 0.04571
1196.10 0.04569
1196.20 0.04568
1196.30 0.04566
1196.40 0.04565
1196.50 0.04564
1196.60 0.04562
1196.70 0.04561
1196.80 0.04559
1196.90 0.04558
1197.00 0.04556
1197.10 0.04555
1197.20 0.04553
1197.30 0.04552
1197.40 0.04551
1197.50 0.04549
1197.60 0.04548
1197.70 0.04546
1197.80 0.04545
1197.90 0.04543
1198.00 0.04542
1198.10 0.04541
1198.20 0.04539
1198.30 0.04538
1198.40 0.04536
1198.50 0.04535
1198.60 0.04533
1198.70 0.04532
1198.80 0.04531
1198.90 0.04529
1199.00 0.04528
1199.10 0.04526
1199.20 0.04525
1199.30 0.04523
1199.40 0.04522
1199.50 0.04521
1199.60 0.04519
1199.70 0.04518
1199.80 0.04516
1199.90 0.04515
1200.00 0
