# Version 2.1 - nm, norm@500 to 1, cut digits, bergeron_55000_90.dat_55000
# Wavelength(nm)  Flambda(ergs/cm^s/s/nm)
300.00 6.348
300.10 6.341
300.20 6.333
300.30 6.325
300.40 6.318
300.50 6.31
300.60 6.302
300.70 6.295
300.80 6.287
300.90 6.279
301.00 6.272
301.10 6.264
301.20 6.257
301.30 6.249
301.40 6.241
301.50 6.234
301.60 6.226
301.70 6.219
301.80 6.211
301.90 6.204
302.00 6.196
302.10 6.189
302.20 6.181
302.30 6.174
302.40 6.166
302.50 6.159
302.60 6.151
302.70 6.144
302.80 6.137
302.90 6.129
303.00 6.122
303.10 6.114
303.20 6.107
303.30 6.1
303.40 6.092
303.50 6.085
303.60 6.078
303.70 6.07
303.80 6.063
303.90 6.056
304.00 6.048
304.10 6.041
304.20 6.034
304.30 6.027
304.40 6.019
304.50 6.012
304.60 6.005
304.70 5.998
304.80 5.991
304.90 5.983
305.00 5.976
305.10 5.969
305.20 5.962
305.30 5.955
305.40 5.948
305.50 5.941
305.60 5.933
305.70 5.926
305.80 5.919
305.90 5.912
306.00 5.905
306.10 5.898
306.20 5.891
306.30 5.884
306.40 5.877
306.50 5.87
306.60 5.863
306.70 5.856
306.80 5.849
306.90 5.842
307.00 5.835
307.10 5.828
307.20 5.821
307.30 5.814
307.40 5.807
307.50 5.8
307.60 5.794
307.70 5.787
307.80 5.78
307.90 5.773
308.00 5.766
308.10 5.759
308.20 5.752
308.30 5.746
308.40 5.739
308.50 5.732
308.60 5.725
308.70 5.718
308.80 5.712
308.90 5.705
309.00 5.698
309.10 5.691
309.20 5.685
309.30 5.678
309.40 5.671
309.50 5.664
309.60 5.658
309.70 5.651
309.80 5.644
309.90 5.638
310.00 5.631
310.10 5.624
310.20 5.618
310.30 5.611
310.40 5.604
310.50 5.598
310.60 5.591
310.70 5.585
310.80 5.578
310.90 5.572
311.00 5.565
311.10 5.558
311.20 5.552
311.30 5.545
311.40 5.539
311.50 5.532
311.60 5.526
311.70 5.519
311.80 5.513
311.90 5.506
312.00 5.5
312.10 5.493
312.20 5.487
312.30 5.481
312.40 5.474
312.50 5.468
312.60 5.461
312.70 5.455
312.80 5.449
312.90 5.442
313.00 5.436
313.10 5.429
313.20 5.423
313.30 5.417
313.40 5.41
313.50 5.404
313.60 5.398
313.70 5.392
313.80 5.385
313.90 5.379
314.00 5.373
314.10 5.366
314.20 5.36
314.30 5.354
314.40 5.348
314.50 5.341
314.60 5.335
314.70 5.329
314.80 5.323
314.90 5.317
315.00 5.31
315.10 5.304
315.20 5.298
315.30 5.292
315.40 5.286
315.50 5.28
315.60 5.273
315.70 5.267
315.80 5.261
315.90 5.255
316.00 5.249
316.10 5.243
316.20 5.237
316.30 5.231
316.40 5.225
316.50 5.219
316.60 5.213
316.70 5.207
316.80 5.201
316.90 5.195
317.00 5.189
317.10 5.183
317.20 5.177
317.30 5.171
317.40 5.165
317.50 5.159
317.60 5.153
317.70 5.147
317.80 5.141
317.90 5.135
318.00 5.129
318.10 5.123
318.20 5.117
318.30 5.111
318.40 5.105
318.50 5.1
318.60 5.094
318.70 5.088
318.80 5.082
318.90 5.076
319.00 5.07
319.10 5.064
319.20 5.059
319.30 5.053
319.40 5.047
319.50 5.041
319.60 5.035
319.70 5.03
319.80 5.024
319.90 5.018
320.00 5.012
320.10 5.007
320.20 5.001
320.30 4.995
320.40 4.989
320.50 4.984
320.60 4.978
320.70 4.972
320.80 4.967
320.90 4.961
321.00 4.955
321.10 4.95
321.20 4.944
321.30 4.938
321.40 4.933
321.50 4.927
321.60 4.921
321.70 4.916
321.80 4.91
321.90 4.905
322.00 4.899
322.10 4.893
322.20 4.888
322.30 4.882
322.40 4.877
322.50 4.871
322.60 4.866
322.70 4.86
322.80 4.855
322.90 4.849
323.00 4.844
323.10 4.838
323.20 4.833
323.30 4.827
323.40 4.822
323.50 4.816
323.60 4.811
323.70 4.805
323.80 4.8
323.90 4.794
324.00 4.789
324.10 4.784
324.20 4.778
324.30 4.773
324.40 4.767
324.50 4.762
324.60 4.756
324.70 4.751
324.80 4.746
324.90 4.74
325.00 4.735
325.10 4.73
325.20 4.724
325.30 4.719
325.40 4.714
325.50 4.708
325.60 4.703
325.70 4.698
325.80 4.692
325.90 4.687
326.00 4.682
326.10 4.677
326.20 4.671
326.30 4.666
326.40 4.661
326.50 4.656
326.60 4.65
326.70 4.645
326.80 4.64
326.90 4.635
327.00 4.629
327.10 4.624
327.20 4.619
327.30 4.614
327.40 4.609
327.50 4.604
327.60 4.598
327.70 4.593
327.80 4.588
327.90 4.583
328.00 4.578
328.10 4.573
328.20 4.568
328.30 4.562
328.40 4.557
328.50 4.552
328.60 4.547
328.70 4.542
328.80 4.537
328.90 4.532
329.00 4.527
329.10 4.522
329.20 4.517
329.30 4.512
329.40 4.507
329.50 4.502
329.60 4.497
329.70 4.492
329.80 4.487
329.90 4.482
330.00 4.477
330.10 4.472
330.20 4.467
330.30 4.462
330.40 4.457
330.50 4.452
330.60 4.447
330.70 4.442
330.80 4.437
330.90 4.432
331.00 4.427
331.10 4.422
331.20 4.417
331.30 4.413
331.40 4.408
331.50 4.403
331.60 4.398
331.70 4.393
331.80 4.388
331.90 4.383
332.00 4.378
332.10 4.373
332.20 4.369
332.30 4.364
332.40 4.359
332.50 4.354
332.60 4.349
332.70 4.345
332.80 4.34
332.90 4.335
333.00 4.33
333.10 4.325
333.20 4.321
333.30 4.316
333.40 4.311
333.50 4.306
333.60 4.302
333.70 4.297
333.80 4.292
333.90 4.287
334.00 4.283
334.10 4.278
334.20 4.273
334.30 4.269
334.40 4.264
334.50 4.259
334.60 4.255
334.70 4.25
334.80 4.245
334.90 4.241
335.00 4.236
335.10 4.231
335.20 4.227
335.30 4.222
335.40 4.217
335.50 4.213
335.60 4.208
335.70 4.203
335.80 4.199
335.90 4.194
336.00 4.19
336.10 4.185
336.20 4.18
336.30 4.176
336.40 4.171
336.50 4.167
336.60 4.162
336.70 4.158
336.80 4.153
336.90 4.149
337.00 4.144
337.10 4.14
337.20 4.135
337.30 4.13
337.40 4.126
337.50 4.121
337.60 4.117
337.70 4.112
337.80 4.108
337.90 4.103
338.00 4.099
338.10 4.095
338.20 4.09
338.30 4.086
338.40 4.081
338.50 4.077
338.60 4.072
338.70 4.068
338.80 4.064
338.90 4.059
339.00 4.055
339.10 4.05
339.20 4.046
339.30 4.042
339.40 4.037
339.50 4.033
339.60 4.028
339.70 4.024
339.80 4.02
339.90 4.015
340.00 4.011
340.10 4.007
340.20 4.002
340.30 3.998
340.40 3.994
340.50 3.989
340.60 3.985
340.70 3.981
340.80 3.976
340.90 3.972
341.00 3.968
341.10 3.964
341.20 3.959
341.30 3.955
341.40 3.951
341.50 3.946
341.60 3.942
341.70 3.938
341.80 3.934
341.90 3.929
342.00 3.925
342.10 3.921
342.20 3.917
342.30 3.913
342.40 3.908
342.50 3.904
342.60 3.9
342.70 3.896
342.80 3.892
342.90 3.887
343.00 3.883
343.10 3.879
343.20 3.875
343.30 3.871
343.40 3.867
343.50 3.862
343.60 3.858
343.70 3.854
343.80 3.85
343.90 3.846
344.00 3.842
344.10 3.838
344.20 3.833
344.30 3.829
344.40 3.825
344.50 3.821
344.60 3.817
344.70 3.813
344.80 3.809
344.90 3.805
345.00 3.801
345.10 3.797
345.20 3.793
345.30 3.789
345.40 3.785
345.50 3.781
345.60 3.777
345.70 3.773
345.80 3.768
345.90 3.764
346.00 3.76
346.10 3.756
346.20 3.752
346.30 3.748
346.40 3.744
346.50 3.741
346.60 3.737
346.70 3.733
346.80 3.729
346.90 3.725
347.00 3.721
347.10 3.717
347.20 3.713
347.30 3.709
347.40 3.705
347.50 3.701
347.60 3.697
347.70 3.693
347.80 3.689
347.90 3.685
348.00 3.681
348.10 3.677
348.20 3.674
348.30 3.67
348.40 3.666
348.50 3.662
348.60 3.658
348.70 3.654
348.80 3.65
348.90 3.646
349.00 3.643
349.10 3.639
349.20 3.635
349.30 3.631
349.40 3.627
349.50 3.623
349.60 3.62
349.70 3.616
349.80 3.612
349.90 3.608
350.00 3.604
350.10 3.601
350.20 3.597
350.30 3.593
350.40 3.589
350.50 3.585
350.60 3.582
350.70 3.578
350.80 3.574
350.90 3.57
351.00 3.567
351.10 3.563
351.20 3.559
351.30 3.555
351.40 3.552
351.50 3.548
351.60 3.544
351.70 3.54
351.80 3.537
351.90 3.533
352.00 3.529
352.10 3.526
352.20 3.522
352.30 3.518
352.40 3.515
352.50 3.511
352.60 3.507
352.70 3.504
352.80 3.5
352.90 3.496
353.00 3.493
353.10 3.489
353.20 3.485
353.30 3.482
353.40 3.478
353.50 3.474
353.60 3.471
353.70 3.467
353.80 3.463
353.90 3.46
354.00 3.456
354.10 3.453
354.20 3.449
354.30 3.445
354.40 3.442
354.50 3.438
354.60 3.435
354.70 3.431
354.80 3.428
354.90 3.424
355.00 3.42
355.10 3.417
355.20 3.413
355.30 3.41
355.40 3.406
355.50 3.403
355.60 3.399
355.70 3.396
355.80 3.392
355.90 3.389
356.00 3.385
356.10 3.382
356.20 3.378
356.30 3.375
356.40 3.371
356.50 3.368
356.60 3.364
356.70 3.361
356.80 3.357
356.90 3.354
357.00 3.35
357.10 3.347
357.20 3.343
357.30 3.34
357.40 3.336
357.50 3.333
357.60 3.329
357.70 3.326
357.80 3.323
357.90 3.319
358.00 3.316
358.10 3.312
358.20 3.309
358.30 3.305
358.40 3.302
358.50 3.299
358.60 3.295
358.70 3.292
358.80 3.289
358.90 3.285
359.00 3.282
359.10 3.278
359.20 3.275
359.30 3.272
359.40 3.268
359.50 3.265
359.60 3.262
359.70 3.258
359.80 3.255
359.90 3.251
360.00 3.248
360.10 3.245
360.20 3.241
360.30 3.238
360.40 3.235
360.50 3.232
360.60 3.228
360.70 3.225
360.80 3.222
360.90 3.218
361.00 3.215
361.10 3.212
361.20 3.208
361.30 3.205
361.40 3.202
361.50 3.199
361.60 3.195
361.70 3.192
361.80 3.189
361.90 3.186
362.00 3.182
362.10 3.179
362.20 3.176
362.30 3.173
362.40 3.169
362.50 3.166
362.60 3.163
362.70 3.16
362.80 3.156
362.90 3.153
363.00 3.15
363.10 3.147
363.20 3.144
363.30 3.14
363.40 3.137
363.50 3.134
363.60 3.131
363.70 3.128
363.80 3.124
363.90 3.121
364.00 3.118
364.10 3.115
364.20 3.112
364.30 3.109
364.40 3.105
364.50 3.102
364.60 3.099
364.70 3.096
364.80 3.093
364.90 3.09
365.00 3.087
365.10 3.083
365.20 3.08
365.30 3.077
365.40 3.074
365.50 3.071
365.60 3.068
365.70 3.065
365.80 3.062
365.90 3.059
366.00 3.056
366.10 3.052
366.20 3.049
366.30 3.046
366.40 3.043
366.50 3.04
366.60 3.037
366.70 3.034
366.80 3.031
366.90 3.028
367.00 3.024
367.10 3.021
367.20 3.018
367.30 3.015
367.40 3.012
367.50 3.009
367.60 3.006
367.70 3.003
367.80 3
367.90 2.997
368.00 2.994
368.10 2.99
368.20 2.987
368.30 2.984
368.40 2.981
368.50 2.978
368.60 2.975
368.70 2.972
368.80 2.969
368.90 2.966
369.00 2.962
369.10 2.959
369.20 2.956
369.30 2.953
369.40 2.95
369.50 2.947
369.60 2.944
369.70 2.941
369.80 2.938
369.90 2.935
370.00 2.931
370.10 2.928
370.20 2.925
370.30 2.922
370.40 2.919
370.50 2.916
370.60 2.913
370.70 2.91
370.80 2.907
370.90 2.904
371.00 2.901
371.10 2.898
371.20 2.895
371.30 2.892
371.40 2.889
371.50 2.886
371.60 2.883
371.70 2.88
371.80 2.877
371.90 2.874
372.00 2.871
372.10 2.868
372.20 2.866
372.30 2.863
372.40 2.86
372.50 2.857
372.60 2.854
372.70 2.851
372.80 2.849
372.90 2.846
373.00 2.843
373.10 2.84
373.20 2.837
373.30 2.835
373.40 2.832
373.50 2.829
373.60 2.826
373.70 2.823
373.80 2.821
373.90 2.818
374.00 2.815
374.10 2.812
374.20 2.809
374.30 2.806
374.40 2.804
374.50 2.801
374.60 2.798
374.70 2.795
374.80 2.792
374.90 2.789
375.00 2.786
375.10 2.783
375.20 2.781
375.30 2.778
375.40 2.775
375.50 2.772
375.60 2.769
375.70 2.766
375.80 2.763
375.90 2.761
376.00 2.758
376.10 2.755
376.20 2.752
376.30 2.749
376.40 2.747
376.50 2.744
376.60 2.741
376.70 2.738
376.80 2.735
376.90 2.733
377.00 2.73
377.10 2.727
377.20 2.724
377.30 2.722
377.40 2.719
377.50 2.716
377.60 2.714
377.70 2.711
377.80 2.708
377.90 2.705
378.00 2.703
378.10 2.7
378.20 2.697
378.30 2.695
378.40 2.692
378.50 2.689
378.60 2.687
378.70 2.684
378.80 2.681
378.90 2.679
379.00 2.676
379.10 2.674
379.20 2.671
379.30 2.668
379.40 2.666
379.50 2.663
379.60 2.66
379.70 2.658
379.80 2.655
379.90 2.653
380.00 2.65
380.10 2.647
380.20 2.645
380.30 2.642
380.40 2.64
380.50 2.637
380.60 2.635
380.70 2.632
380.80 2.63
380.90 2.627
381.00 2.624
381.10 2.622
381.20 2.619
381.30 2.617
381.40 2.614
381.50 2.612
381.60 2.609
381.70 2.607
381.80 2.604
381.90 2.602
382.00 2.599
382.10 2.597
382.20 2.594
382.30 2.592
382.40 2.589
382.50 2.587
382.60 2.584
382.70 2.582
382.80 2.58
382.90 2.577
383.00 2.575
383.10 2.572
383.20 2.57
383.30 2.567
383.40 2.565
383.50 2.563
383.60 2.56
383.70 2.558
383.80 2.555
383.90 2.553
384.00 2.551
384.10 2.548
384.20 2.546
384.30 2.544
384.40 2.541
384.50 2.539
384.60 2.537
384.70 2.535
384.80 2.532
384.90 2.53
385.00 2.528
385.10 2.525
385.20 2.523
385.30 2.521
385.40 2.519
385.50 2.516
385.60 2.514
385.70 2.512
385.80 2.509
385.90 2.507
386.00 2.505
386.10 2.502
386.20 2.5
386.30 2.498
386.40 2.495
386.50 2.493
386.60 2.491
386.70 2.488
386.80 2.486
386.90 2.484
387.00 2.481
387.10 2.479
387.20 2.477
387.30 2.474
387.40 2.472
387.50 2.47
387.60 2.467
387.70 2.465
387.80 2.462
387.90 2.46
388.00 2.458
388.10 2.455
388.20 2.453
388.30 2.451
388.40 2.449
388.50 2.446
388.60 2.444
388.70 2.442
388.80 2.44
388.90 2.438
389.00 2.436
389.10 2.434
389.20 2.432
389.30 2.43
389.40 2.428
389.50 2.426
389.60 2.424
389.70 2.422
389.80 2.42
389.90 2.418
390.00 2.416
390.10 2.414
390.20 2.412
390.30 2.41
390.40 2.409
390.50 2.407
390.60 2.405
390.70 2.403
390.80 2.401
390.90 2.399
391.00 2.397
391.10 2.395
391.20 2.393
391.30 2.391
391.40 2.389
391.50 2.387
391.60 2.385
391.70 2.383
391.80 2.381
391.90 2.378
392.00 2.376
392.10 2.374
392.20 2.372
392.30 2.37
392.40 2.368
392.50 2.365
392.60 2.363
392.70 2.361
392.80 2.359
392.90 2.356
393.00 2.354
393.10 2.352
393.20 2.349
393.30 2.347
393.40 2.344
393.50 2.342
393.60 2.34
393.70 2.337
393.80 2.335
393.90 2.332
394.00 2.329
394.10 2.327
394.20 2.324
394.30 2.322
394.40 2.319
394.50 2.316
394.60 2.314
394.70 2.311
394.80 2.308
394.90 2.306
395.00 2.303
395.10 2.3
395.20 2.297
395.30 2.295
395.40 2.292
395.50 2.289
395.60 2.286
395.70 2.283
395.80 2.28
395.90 2.278
396.00 2.275
396.10 2.272
396.20 2.269
396.30 2.266
396.40 2.264
396.50 2.261
396.60 2.258
396.70 2.256
396.80 2.253
396.90 2.251
397.00 2.248
397.10 2.247
397.20 2.246
397.30 2.245
397.40 2.244
397.50 2.243
397.60 2.242
397.70 2.241
397.80 2.24
397.90 2.239
398.00 2.238
398.10 2.238
398.20 2.237
398.30 2.236
398.40 2.235
398.50 2.234
398.60 2.233
398.70 2.233
398.80 2.232
398.90 2.231
399.00 2.23
399.10 2.229
399.20 2.228
399.30 2.227
399.40 2.226
399.50 2.225
399.60 2.224
399.70 2.223
399.80 2.222
399.90 2.221
400.00 2.219
400.10 2.218
400.20 2.217
400.30 2.216
400.40 2.214
400.50 2.213
400.60 2.212
400.70 2.21
400.80 2.209
400.90 2.208
401.00 2.206
401.10 2.205
401.20 2.203
401.30 2.202
401.40 2.2
401.50 2.198
401.60 2.197
401.70 2.195
401.80 2.193
401.90 2.192
402.00 2.19
402.10 2.188
402.20 2.186
402.30 2.184
402.40 2.182
402.50 2.18
402.60 2.179
402.70 2.177
402.80 2.174
402.90 2.172
403.00 2.17
403.10 2.168
403.20 2.166
403.30 2.164
403.40 2.161
403.50 2.159
403.60 2.157
403.70 2.155
403.80 2.152
403.90 2.15
404.00 2.147
404.10 2.145
404.20 2.142
404.30 2.14
404.40 2.137
404.50 2.134
404.60 2.132
404.70 2.129
404.80 2.126
404.90 2.123
405.00 2.12
405.10 2.117
405.20 2.114
405.30 2.111
405.40 2.108
405.50 2.105
405.60 2.102
405.70 2.099
405.80 2.096
405.90 2.092
406.00 2.089
406.10 2.086
406.20 2.082
406.30 2.079
406.40 2.075
406.50 2.072
406.60 2.068
406.70 2.065
406.80 2.061
406.90 2.057
407.00 2.053
407.10 2.05
407.20 2.046
407.30 2.042
407.40 2.038
407.50 2.034
407.60 2.03
407.70 2.026
407.80 2.021
407.90 2.017
408.00 2.013
408.10 2.009
408.20 2.004
408.30 2
408.40 1.996
408.50 1.991
408.60 1.987
408.70 1.983
408.80 1.978
408.90 1.974
409.00 1.97
409.10 1.966
409.20 1.962
409.30 1.957
409.40 1.954
409.50 1.95
409.60 1.947
409.70 1.944
409.80 1.941
409.90 1.939
410.00 1.938
410.10 1.937
410.20 1.936
410.30 1.934
410.40 1.931
410.50 1.93
410.60 1.929
410.70 1.928
410.80 1.928
410.90 1.929
411.00 1.929
411.10 1.93
411.20 1.931
411.30 1.932
411.40 1.933
411.50 1.934
411.60 1.935
411.70 1.936
411.80 1.937
411.90 1.938
412.00 1.939
412.10 1.94
412.20 1.941
412.30 1.942
412.40 1.943
412.50 1.944
412.60 1.945
412.70 1.946
412.80 1.946
412.90 1.947
413.00 1.948
413.10 1.949
413.20 1.949
413.30 1.95
413.40 1.95
413.50 1.951
413.60 1.951
413.70 1.951
413.80 1.952
413.90 1.952
414.00 1.952
414.10 1.952
414.20 1.953
414.30 1.953
414.40 1.953
414.50 1.953
414.60 1.953
414.70 1.953
414.80 1.952
414.90 1.952
415.00 1.952
415.10 1.952
415.20 1.952
415.30 1.951
415.40 1.951
415.50 1.951
415.60 1.95
415.70 1.95
415.80 1.949
415.90 1.949
416.00 1.948
416.10 1.948
416.20 1.947
416.30 1.946
416.40 1.946
416.50 1.945
416.60 1.944
416.70 1.943
416.80 1.943
416.90 1.942
417.00 1.941
417.10 1.94
417.20 1.939
417.30 1.938
417.40 1.937
417.50 1.937
417.60 1.936
417.70 1.935
417.80 1.934
417.90 1.932
418.00 1.931
418.10 1.93
418.20 1.929
418.30 1.928
418.40 1.927
418.50 1.926
418.60 1.925
418.70 1.923
418.80 1.922
418.90 1.921
419.00 1.92
419.10 1.918
419.20 1.917
419.30 1.916
419.40 1.914
419.50 1.913
419.60 1.912
419.70 1.91
419.80 1.909
419.90 1.908
420.00 1.906
420.10 1.905
420.20 1.903
420.30 1.902
420.40 1.9
420.50 1.899
420.60 1.897
420.70 1.896
420.80 1.894
420.90 1.893
421.00 1.891
421.10 1.889
421.20 1.888
421.30 1.886
421.40 1.885
421.50 1.883
421.60 1.881
421.70 1.88
421.80 1.878
421.90 1.876
422.00 1.875
422.10 1.873
422.20 1.871
422.30 1.869
422.40 1.868
422.50 1.866
422.60 1.864
422.70 1.862
422.80 1.86
422.90 1.859
423.00 1.857
423.10 1.855
423.20 1.853
423.30 1.851
423.40 1.849
423.50 1.847
423.60 1.845
423.70 1.843
423.80 1.841
423.90 1.839
424.00 1.837
424.10 1.835
424.20 1.833
424.30 1.831
424.40 1.829
424.50 1.827
424.60 1.825
424.70 1.823
424.80 1.821
424.90 1.818
425.00 1.816
425.10 1.814
425.20 1.812
425.30 1.809
425.40 1.807
425.50 1.805
425.60 1.803
425.70 1.8
425.80 1.798
425.90 1.795
426.00 1.793
426.10 1.791
426.20 1.788
426.30 1.786
426.40 1.783
426.50 1.781
426.60 1.778
426.70 1.775
426.80 1.773
426.90 1.77
427.00 1.767
427.10 1.765
427.20 1.762
427.30 1.759
427.40 1.756
427.50 1.753
427.60 1.75
427.70 1.747
427.80 1.744
427.90 1.741
428.00 1.738
428.10 1.735
428.20 1.732
428.30 1.729
428.40 1.726
428.50 1.722
428.60 1.719
428.70 1.716
428.80 1.712
428.90 1.709
429.00 1.705
429.10 1.702
429.20 1.698
429.30 1.694
429.40 1.691
429.50 1.687
429.60 1.683
429.70 1.679
429.80 1.675
429.90 1.671
430.00 1.667
430.10 1.663
430.20 1.659
430.30 1.654
430.40 1.65
430.50 1.646
430.60 1.641
430.70 1.637
430.80 1.632
430.90 1.627
431.00 1.623
431.10 1.618
431.20 1.613
431.30 1.608
431.40 1.603
431.50 1.598
431.60 1.593
431.70 1.588
431.80 1.583
431.90 1.577
432.00 1.572
432.10 1.566
432.20 1.561
432.30 1.555
432.40 1.55
432.50 1.544
432.60 1.539
432.70 1.533
432.80 1.527
432.90 1.522
433.00 1.516
433.10 1.51
433.20 1.505
433.30 1.499
433.40 1.493
433.50 1.487
433.60 1.481
433.70 1.474
433.80 1.466
433.90 1.458
434.00 1.451
434.10 1.45
434.20 1.455
434.30 1.461
434.40 1.466
434.50 1.471
434.60 1.474
434.70 1.478
434.80 1.481
434.90 1.485
435.00 1.488
435.10 1.491
435.20 1.494
435.30 1.498
435.40 1.501
435.50 1.504
435.60 1.507
435.70 1.51
435.80 1.513
435.90 1.516
436.00 1.519
436.10 1.521
436.20 1.524
436.30 1.527
436.40 1.529
436.50 1.532
436.60 1.534
436.70 1.536
436.80 1.539
436.90 1.541
437.00 1.543
437.10 1.545
437.20 1.547
437.30 1.549
437.40 1.551
437.50 1.552
437.60 1.554
437.70 1.556
437.80 1.557
437.90 1.559
438.00 1.56
438.10 1.561
438.20 1.562
438.30 1.564
438.40 1.565
438.50 1.566
438.60 1.567
438.70 1.568
438.80 1.569
438.90 1.569
439.00 1.57
439.10 1.571
439.20 1.571
439.30 1.572
439.40 1.573
439.50 1.573
439.60 1.573
439.70 1.574
439.80 1.574
439.90 1.574
440.00 1.575
440.10 1.575
440.20 1.575
440.30 1.575
440.40 1.575
440.50 1.575
440.60 1.575
440.70 1.575
440.80 1.575
440.90 1.575
441.00 1.575
441.10 1.575
441.20 1.575
441.30 1.574
441.40 1.574
441.50 1.574
441.60 1.574
441.70 1.573
441.80 1.573
441.90 1.572
442.00 1.572
442.10 1.572
442.20 1.571
442.30 1.571
442.40 1.57
442.50 1.57
442.60 1.569
442.70 1.568
442.80 1.568
442.90 1.567
443.00 1.567
443.10 1.566
443.20 1.565
443.30 1.565
443.40 1.564
443.50 1.563
443.60 1.562
443.70 1.562
443.80 1.561
443.90 1.56
444.00 1.559
444.10 1.558
444.20 1.558
444.30 1.557
444.40 1.556
444.50 1.555
444.60 1.554
444.70 1.553
444.80 1.553
444.90 1.552
445.00 1.551
445.10 1.55
445.20 1.549
445.30 1.548
445.40 1.547
445.50 1.546
445.60 1.545
445.70 1.544
445.80 1.543
445.90 1.542
446.00 1.541
446.10 1.54
446.20 1.539
446.30 1.538
446.40 1.537
446.50 1.536
446.60 1.535
446.70 1.534
446.80 1.533
446.90 1.532
447.00 1.531
447.10 1.53
447.20 1.529
447.30 1.528
447.40 1.527
447.50 1.526
447.60 1.524
447.70 1.523
447.80 1.522
447.90 1.521
448.00 1.52
448.10 1.519
448.20 1.518
448.30 1.517
448.40 1.516
448.50 1.515
448.60 1.513
448.70 1.512
448.80 1.511
448.90 1.51
449.00 1.509
449.10 1.508
449.20 1.507
449.30 1.506
449.40 1.504
449.50 1.503
449.60 1.502
449.70 1.501
449.80 1.5
449.90 1.499
450.00 1.498
450.10 1.496
450.20 1.495
450.30 1.494
450.40 1.493
450.50 1.492
450.60 1.491
450.70 1.49
450.80 1.488
450.90 1.487
451.00 1.486
451.10 1.485
451.20 1.484
451.30 1.483
451.40 1.481
451.50 1.48
451.60 1.479
451.70 1.478
451.80 1.477
451.90 1.476
452.00 1.474
452.10 1.473
452.20 1.472
452.30 1.471
452.40 1.47
452.50 1.469
452.60 1.467
452.70 1.466
452.80 1.465
452.90 1.464
453.00 1.463
453.10 1.462
453.20 1.46
453.30 1.459
453.40 1.458
453.50 1.457
453.60 1.456
453.70 1.455
453.80 1.453
453.90 1.452
454.00 1.451
454.10 1.45
454.20 1.449
454.30 1.447
454.40 1.446
454.50 1.445
454.60 1.444
454.70 1.443
454.80 1.442
454.90 1.44
455.00 1.439
455.10 1.438
455.20 1.437
455.30 1.436
455.40 1.435
455.50 1.433
455.60 1.432
455.70 1.431
455.80 1.43
455.90 1.429
456.00 1.428
456.10 1.426
456.20 1.425
456.30 1.424
456.40 1.423
456.50 1.422
456.60 1.421
456.70 1.419
456.80 1.418
456.90 1.417
457.00 1.416
457.10 1.415
457.20 1.414
457.30 1.412
457.40 1.411
457.50 1.41
457.60 1.409
457.70 1.408
457.80 1.407
457.90 1.405
458.00 1.404
458.10 1.403
458.20 1.402
458.30 1.401
458.40 1.4
458.50 1.398
458.60 1.397
458.70 1.396
458.80 1.395
458.90 1.394
459.00 1.393
459.10 1.391
459.20 1.39
459.30 1.389
459.40 1.388
459.50 1.387
459.60 1.386
459.70 1.384
459.80 1.383
459.90 1.382
460.00 1.381
460.10 1.38
460.20 1.379
460.30 1.378
460.40 1.376
460.50 1.375
460.60 1.374
460.70 1.373
460.80 1.372
460.90 1.371
461.00 1.37
461.10 1.368
461.20 1.367
461.30 1.366
461.40 1.365
461.50 1.364
461.60 1.363
461.70 1.361
461.80 1.36
461.90 1.359
462.00 1.358
462.10 1.357
462.20 1.356
462.30 1.355
462.40 1.353
462.50 1.352
462.60 1.351
462.70 1.35
462.80 1.349
462.90 1.348
463.00 1.347
463.10 1.345
463.20 1.344
463.30 1.343
463.40 1.342
463.50 1.341
463.60 1.34
463.70 1.339
463.80 1.338
463.90 1.336
464.00 1.335
464.10 1.334
464.20 1.333
464.30 1.332
464.40 1.331
464.50 1.33
464.60 1.328
464.70 1.327
464.80 1.326
464.90 1.325
465.00 1.324
465.10 1.323
465.20 1.322
465.30 1.32
465.40 1.319
465.50 1.318
465.60 1.317
465.70 1.316
465.80 1.315
465.90 1.314
466.00 1.313
466.10 1.311
466.20 1.31
466.30 1.309
466.40 1.308
466.50 1.307
466.60 1.306
466.70 1.305
466.80 1.303
466.90 1.302
467.00 1.301
467.10 1.3
467.20 1.299
467.30 1.298
467.40 1.297
467.50 1.295
467.60 1.294
467.70 1.293
467.80 1.292
467.90 1.291
468.00 1.29
468.10 1.289
468.20 1.287
468.30 1.286
468.40 1.285
468.50 1.284
468.60 1.283
468.70 1.282
468.80 1.281
468.90 1.279
469.00 1.278
469.10 1.277
469.20 1.276
469.30 1.275
469.40 1.274
469.50 1.273
469.60 1.271
469.70 1.27
469.80 1.269
469.90 1.268
470.00 1.267
470.10 1.266
470.20 1.265
470.30 1.263
470.40 1.262
470.50 1.261
470.60 1.26
470.70 1.259
470.80 1.258
470.90 1.256
471.00 1.255
471.10 1.254
471.20 1.253
471.30 1.252
471.40 1.25
471.50 1.249
471.60 1.248
471.70 1.247
471.80 1.246
471.90 1.245
472.00 1.243
472.10 1.242
472.20 1.241
472.30 1.24
472.40 1.239
472.50 1.237
472.60 1.236
472.70 1.235
472.80 1.234
472.90 1.232
473.00 1.231
473.10 1.23
473.20 1.229
473.30 1.228
473.40 1.226
473.50 1.225
473.60 1.224
473.70 1.223
473.80 1.221
473.90 1.22
474.00 1.219
474.10 1.218
474.20 1.216
474.30 1.215
474.40 1.214
474.50 1.212
474.60 1.211
474.70 1.21
474.80 1.208
474.90 1.207
475.00 1.206
475.10 1.205
475.20 1.203
475.30 1.202
475.40 1.2
475.50 1.199
475.60 1.198
475.70 1.196
475.80 1.195
475.90 1.194
476.00 1.192
476.10 1.191
476.20 1.189
476.30 1.188
476.40 1.187
476.50 1.185
476.60 1.184
476.70 1.182
476.80 1.181
476.90 1.179
477.00 1.178
477.10 1.176
477.20 1.175
477.30 1.173
477.40 1.172
477.50 1.17
477.60 1.168
477.70 1.167
477.80 1.165
477.90 1.164
478.00 1.162
478.10 1.16
478.20 1.159
478.30 1.157
478.40 1.155
478.50 1.153
478.60 1.152
478.70 1.15
478.80 1.148
478.90 1.146
479.00 1.145
479.10 1.143
479.20 1.141
479.30 1.139
479.40 1.137
479.50 1.135
479.60 1.133
479.70 1.131
479.80 1.129
479.90 1.127
480.00 1.125
480.10 1.123
480.20 1.121
480.30 1.119
480.40 1.116
480.50 1.114
480.60 1.112
480.70 1.109
480.80 1.107
480.90 1.105
481.00 1.103
481.10 1.1
481.20 1.098
481.30 1.095
481.40 1.092
481.50 1.09
481.60 1.087
481.70 1.084
481.80 1.082
481.90 1.079
482.00 1.076
482.10 1.074
482.20 1.071
482.30 1.068
482.40 1.064
482.50 1.061
482.60 1.058
482.70 1.055
482.80 1.052
482.90 1.049
483.00 1.045
483.10 1.042
483.20 1.039
483.30 1.035
483.40 1.031
483.50 1.028
483.60 1.024
483.70 1.02
483.80 1.016
483.90 1.013
484.00 1.009
484.10 1.005
484.20 1.001
484.30 0.997
484.40 0.9928
484.50 0.9887
484.60 0.9845
484.70 0.9801
484.80 0.9757
484.90 0.9713
485.00 0.9669
485.10 0.9625
485.20 0.9581
485.30 0.9536
485.40 0.9493
485.50 0.945
485.60 0.941
485.70 0.9372
485.80 0.935
485.90 0.9335
486.00 0.9364
486.10 0.9487
486.20 0.9432
486.30 0.932
486.40 0.9305
486.50 0.9305
486.60 0.9321
486.70 0.9345
486.80 0.9373
486.90 0.9402
487.00 0.9431
487.10 0.9462
487.20 0.9491
487.30 0.9521
487.40 0.955
487.50 0.9579
487.60 0.9608
487.70 0.9636
487.80 0.9662
487.90 0.9689
488.00 0.9715
488.10 0.9741
488.20 0.9764
488.30 0.9785
488.40 0.9807
488.50 0.9828
488.60 0.9849
488.70 0.987
488.80 0.9891
488.90 0.9913
489.00 0.9934
489.10 0.9955
489.20 0.9972
489.30 0.9986
489.40 1
489.50 1.002
489.60 1.003
489.70 1.005
489.80 1.006
489.90 1.007
490.00 1.009
490.10 1.01
490.20 1.011
490.30 1.012
490.40 1.013
490.50 1.014
490.60 1.015
490.70 1.016
490.80 1.017
490.90 1.018
491.00 1.019
491.10 1.02
491.20 1.02
491.30 1.021
491.40 1.022
491.50 1.022
491.60 1.023
491.70 1.023
491.80 1.024
491.90 1.024
492.00 1.025
492.10 1.025
492.20 1.025
492.30 1.026
492.40 1.026
492.50 1.026
492.60 1.026
492.70 1.026
492.80 1.026
492.90 1.027
493.00 1.027
493.10 1.027
493.20 1.027
493.30 1.027
493.40 1.027
493.50 1.027
493.60 1.027
493.70 1.027
493.80 1.027
493.90 1.027
494.00 1.027
494.10 1.027
494.20 1.026
494.30 1.026
494.40 1.026
494.50 1.026
494.60 1.026
494.70 1.025
494.80 1.025
494.90 1.025
495.00 1.025
495.10 1.024
495.20 1.024
495.30 1.024
495.40 1.023
495.50 1.023
495.60 1.023
495.70 1.022
495.80 1.022
495.90 1.022
496.00 1.021
496.10 1.021
496.20 1.02
496.30 1.02
496.40 1.019
496.50 1.019
496.60 1.019
496.70 1.018
496.80 1.018
496.90 1.017
497.00 1.017
497.10 1.016
497.20 1.016
497.30 1.015
497.40 1.015
497.50 1.014
497.60 1.014
497.70 1.013
497.80 1.013
497.90 1.012
498.00 1.012
498.10 1.011
498.20 1.011
498.30 1.01
498.40 1.009
498.50 1.009
498.60 1.008
498.70 1.008
498.80 1.007
498.90 1.007
499.00 1.006
499.10 1.005
499.20 1.005
499.30 1.004
499.40 1.004
499.50 1.003
499.60 1.002
499.70 1.002
499.80 1.001
499.90 1.001
500.00 1
500.10 0.9994
500.20 0.9988
500.30 0.9981
500.40 0.9975
500.50 0.9969
500.60 0.9962
500.70 0.9956
500.80 0.995
500.90 0.9943
501.00 0.9937
501.10 0.9931
501.20 0.9924
501.30 0.9918
501.40 0.9911
501.50 0.9905
501.60 0.9898
501.70 0.9892
501.80 0.9885
501.90 0.9879
502.00 0.9872
502.10 0.9866
502.20 0.9859
502.30 0.9852
502.40 0.9846
502.50 0.9839
502.60 0.9833
502.70 0.9826
502.80 0.9819
502.90 0.9813
503.00 0.9806
503.10 0.9799
503.20 0.9793
503.30 0.9786
503.40 0.9779
503.50 0.9772
503.60 0.9766
503.70 0.9759
503.80 0.9752
503.90 0.9746
504.00 0.9739
504.10 0.9732
504.20 0.9725
504.30 0.9719
504.40 0.9712
504.50 0.9705
504.60 0.9698
504.70 0.9691
504.80 0.9685
504.90 0.9678
505.00 0.9671
505.10 0.9664
505.20 0.9658
505.30 0.9651
505.40 0.9644
505.50 0.9637
505.60 0.963
505.70 0.9624
505.80 0.9617
505.90 0.961
506.00 0.9603
506.10 0.9596
506.20 0.9589
506.30 0.9583
506.40 0.9576
506.50 0.9569
506.60 0.9562
506.70 0.9555
506.80 0.9549
506.90 0.9542
507.00 0.9535
507.10 0.9528
507.20 0.9521
507.30 0.9514
507.40 0.9508
507.50 0.9501
507.60 0.9494
507.70 0.9487
507.80 0.948
507.90 0.9474
508.00 0.9467
508.10 0.946
508.20 0.9453
508.30 0.9446
508.40 0.9439
508.50 0.9433
508.60 0.9426
508.70 0.9419
508.80 0.9412
508.90 0.9405
509.00 0.9399
509.10 0.9392
509.20 0.9385
509.30 0.9378
509.40 0.9371
509.50 0.9365
509.60 0.9358
509.70 0.9351
509.80 0.9344
509.90 0.9338
510.00 0.9331
510.10 0.9324
510.20 0.9317
510.30 0.9311
510.40 0.9304
510.50 0.9297
510.60 0.929
510.70 0.9283
510.80 0.9277
510.90 0.927
511.00 0.9263
511.10 0.9257
511.20 0.925
511.30 0.9243
511.40 0.9236
511.50 0.923
511.60 0.9223
511.70 0.9216
511.80 0.9209
511.90 0.9203
512.00 0.9196
512.10 0.9189
512.20 0.9183
512.30 0.9176
512.40 0.9169
512.50 0.9163
512.60 0.9156
512.70 0.9149
512.80 0.9143
512.90 0.9136
513.00 0.9129
513.10 0.9123
513.20 0.9116
513.30 0.9109
513.40 0.9103
513.50 0.9096
513.60 0.9089
513.70 0.9083
513.80 0.9076
513.90 0.9069
514.00 0.9063
514.10 0.9056
514.20 0.905
514.30 0.9043
514.40 0.9036
514.50 0.903
514.60 0.9023
514.70 0.9017
514.80 0.901
514.90 0.9003
515.00 0.8997
515.10 0.899
515.20 0.8984
515.30 0.8977
515.40 0.897
515.50 0.8964
515.60 0.8957
515.70 0.8951
515.80 0.8944
515.90 0.8938
516.00 0.8931
516.10 0.8925
516.20 0.8918
516.30 0.8912
516.40 0.8905
516.50 0.8899
516.60 0.8892
516.70 0.8886
516.80 0.8879
516.90 0.8873
517.00 0.8866
517.10 0.886
517.20 0.8853
517.30 0.8847
517.40 0.884
517.50 0.8834
517.60 0.8827
517.70 0.8821
517.80 0.8815
517.90 0.8808
518.00 0.8802
518.10 0.8795
518.20 0.8789
518.30 0.8782
518.40 0.8776
518.50 0.877
518.60 0.8763
518.70 0.8757
518.80 0.875
518.90 0.8744
519.00 0.8738
519.10 0.8731
519.20 0.8725
519.30 0.8718
519.40 0.8712
519.50 0.8706
519.60 0.8699
519.70 0.8693
519.80 0.8687
519.90 0.868
520.00 0.8674
520.10 0.8668
520.20 0.8661
520.30 0.8655
520.40 0.8649
520.50 0.8642
520.60 0.8636
520.70 0.863
520.80 0.8624
520.90 0.8617
521.00 0.8611
521.10 0.8605
521.20 0.8598
521.30 0.8592
521.40 0.8586
521.50 0.858
521.60 0.8573
521.70 0.8567
521.80 0.8561
521.90 0.8555
522.00 0.8548
522.10 0.8542
522.20 0.8536
522.30 0.853
522.40 0.8524
522.50 0.8517
522.60 0.8511
522.70 0.8505
522.80 0.8499
522.90 0.8493
523.00 0.8486
523.10 0.848
523.20 0.8474
523.30 0.8468
523.40 0.8462
523.50 0.8456
523.60 0.845
523.70 0.8443
523.80 0.8437
523.90 0.8431
524.00 0.8425
524.10 0.8419
524.20 0.8413
524.30 0.8407
524.40 0.8401
524.50 0.8394
524.60 0.8388
524.70 0.8382
524.80 0.8376
524.90 0.837
525.00 0.8364
525.10 0.8358
525.20 0.8352
525.30 0.8346
525.40 0.834
525.50 0.8334
525.60 0.8328
525.70 0.8322
525.80 0.8316
525.90 0.831
526.00 0.8304
526.10 0.8298
526.20 0.8292
526.30 0.8286
526.40 0.828
526.50 0.8274
526.60 0.8268
526.70 0.8262
526.80 0.8256
526.90 0.825
527.00 0.8244
527.10 0.8238
527.20 0.8232
527.30 0.8226
527.40 0.822
527.50 0.8214
527.60 0.8208
527.70 0.8202
527.80 0.8196
527.90 0.819
528.00 0.8184
528.10 0.8178
528.20 0.8172
528.30 0.8167
528.40 0.8161
528.50 0.8155
528.60 0.8149
528.70 0.8143
528.80 0.8137
528.90 0.8131
529.00 0.8125
529.10 0.812
529.20 0.8114
529.30 0.8108
529.40 0.8102
529.50 0.8096
529.60 0.809
529.70 0.8084
529.80 0.8079
529.90 0.8073
530.00 0.8067
530.10 0.8061
530.20 0.8055
530.30 0.805
530.40 0.8044
530.50 0.8038
530.60 0.8032
530.70 0.8026
530.80 0.8021
530.90 0.8015
531.00 0.8009
531.10 0.8003
531.20 0.7998
531.30 0.7992
531.40 0.7986
531.50 0.798
531.60 0.7975
531.70 0.7969
531.80 0.7963
531.90 0.7957
532.00 0.7952
532.10 0.7946
532.20 0.794
532.30 0.7935
532.40 0.7929
532.50 0.7923
532.60 0.7918
532.70 0.7912
532.80 0.7906
532.90 0.7901
533.00 0.7895
533.10 0.7889
533.20 0.7884
533.30 0.7878
533.40 0.7872
533.50 0.7867
533.60 0.7861
533.70 0.7855
533.80 0.785
533.90 0.7844
534.00 0.7838
534.10 0.7833
534.20 0.7827
534.30 0.7822
534.40 0.7816
534.50 0.781
534.60 0.7805
534.70 0.7799
534.80 0.7794
534.90 0.7788
535.00 0.7783
535.10 0.7777
535.20 0.7771
535.30 0.7766
535.40 0.776
535.50 0.7755
535.60 0.7749
535.70 0.7744
535.80 0.7738
535.90 0.7733
536.00 0.7727
536.10 0.7722
536.20 0.7716
536.30 0.7711
536.40 0.7705
536.50 0.77
536.60 0.7694
536.70 0.7689
536.80 0.7683
536.90 0.7678
537.00 0.7672
537.10 0.7667
537.20 0.7661
537.30 0.7656
537.40 0.765
537.50 0.7645
537.60 0.764
537.70 0.7634
537.80 0.7629
537.90 0.7623
538.00 0.7618
538.10 0.7612
538.20 0.7607
538.30 0.7602
538.40 0.7596
538.50 0.7591
538.60 0.7585
538.70 0.758
538.80 0.7575
538.90 0.7569
539.00 0.7564
539.10 0.7558
539.20 0.7553
539.30 0.7548
539.40 0.7542
539.50 0.7537
539.60 0.7532
539.70 0.7526
539.80 0.7521
539.90 0.7516
540.00 0.751
540.10 0.7505
540.20 0.75
540.30 0.7494
540.40 0.7489
540.50 0.7484
540.60 0.7478
540.70 0.7473
540.80 0.7468
540.90 0.7463
541.00 0.7457
541.10 0.7452
541.20 0.7447
541.30 0.7441
541.40 0.7436
541.50 0.7431
541.60 0.7426
541.70 0.742
541.80 0.7415
541.90 0.741
542.00 0.7405
542.10 0.7399
542.20 0.7394
542.30 0.7389
542.40 0.7384
542.50 0.7379
542.60 0.7373
542.70 0.7368
542.80 0.7363
542.90 0.7358
543.00 0.7353
543.10 0.7347
543.20 0.7342
543.30 0.7337
543.40 0.7332
543.50 0.7327
543.60 0.7322
543.70 0.7316
543.80 0.7311
543.90 0.7306
544.00 0.7301
544.10 0.7296
544.20 0.7291
544.30 0.7286
544.40 0.728
544.50 0.7275
544.60 0.727
544.70 0.7265
544.80 0.726
544.90 0.7255
545.00 0.725
545.10 0.7245
545.20 0.724
545.30 0.7234
545.40 0.7229
545.50 0.7224
545.60 0.7219
545.70 0.7214
545.80 0.7209
545.90 0.7204
546.00 0.7199
546.10 0.7194
546.20 0.7189
546.30 0.7184
546.40 0.7179
546.50 0.7174
546.60 0.7169
546.70 0.7164
546.80 0.7159
546.90 0.7154
547.00 0.7149
547.10 0.7144
547.20 0.7139
547.30 0.7134
547.40 0.7129
547.50 0.7124
547.60 0.7119
547.70 0.7114
547.80 0.7109
547.90 0.7104
548.00 0.7099
548.10 0.7094
548.20 0.7089
548.30 0.7084
548.40 0.7079
548.50 0.7074
548.60 0.7069
548.70 0.7064
548.80 0.7059
548.90 0.7054
549.00 0.7049
549.10 0.7044
549.20 0.7039
549.30 0.7035
549.40 0.703
549.50 0.7025
549.60 0.702
549.70 0.7015
549.80 0.701
549.90 0.7005
550.00 0.7
550.10 0.6995
550.20 0.6991
550.30 0.6986
550.40 0.6981
550.50 0.6976
550.60 0.6971
550.70 0.6966
550.80 0.6961
550.90 0.6957
551.00 0.6952
551.10 0.6947
551.20 0.6942
551.30 0.6937
551.40 0.6932
551.50 0.6928
551.60 0.6923
551.70 0.6918
551.80 0.6913
551.90 0.6908
552.00 0.6903
552.10 0.6899
552.20 0.6894
552.30 0.6889
552.40 0.6884
552.50 0.688
552.60 0.6875
552.70 0.687
552.80 0.6865
552.90 0.686
553.00 0.6856
553.10 0.6851
553.20 0.6846
553.30 0.6841
553.40 0.6837
553.50 0.6832
553.60 0.6827
553.70 0.6822
553.80 0.6818
553.90 0.6813
554.00 0.6808
554.10 0.6804
554.20 0.6799
554.30 0.6794
554.40 0.6789
554.50 0.6785
554.60 0.678
554.70 0.6775
554.80 0.6771
554.90 0.6766
555.00 0.6761
555.10 0.6757
555.20 0.6752
555.30 0.6747
555.40 0.6743
555.50 0.6738
555.60 0.6733
555.70 0.6729
555.80 0.6724
555.90 0.6719
556.00 0.6715
556.10 0.671
556.20 0.6706
556.30 0.6701
556.40 0.6696
556.50 0.6692
556.60 0.6687
556.70 0.6682
556.80 0.6678
556.90 0.6673
557.00 0.6669
557.10 0.6664
557.20 0.6659
557.30 0.6655
557.40 0.665
557.50 0.6646
557.60 0.6641
557.70 0.6637
557.80 0.6632
557.90 0.6627
558.00 0.6623
558.10 0.6618
558.20 0.6614
558.30 0.6609
558.40 0.6605
558.50 0.66
558.60 0.6596
558.70 0.6591
558.80 0.6587
558.90 0.6582
559.00 0.6578
559.10 0.6573
559.20 0.6568
559.30 0.6564
559.40 0.6559
559.50 0.6555
559.60 0.655
559.70 0.6546
559.80 0.6541
559.90 0.6537
560.00 0.6533
560.10 0.6528
560.20 0.6524
560.30 0.6519
560.40 0.6515
560.50 0.651
560.60 0.6506
560.70 0.6501
560.80 0.6497
560.90 0.6492
561.00 0.6488
561.10 0.6483
561.20 0.6479
561.30 0.6475
561.40 0.647
561.50 0.6466
561.60 0.6461
561.70 0.6457
561.80 0.6453
561.90 0.6448
562.00 0.6444
562.10 0.6439
562.20 0.6435
562.30 0.643
562.40 0.6426
562.50 0.6422
562.60 0.6417
562.70 0.6413
562.80 0.6409
562.90 0.6404
563.00 0.64
563.10 0.6395
563.20 0.6391
563.30 0.6387
563.40 0.6382
563.50 0.6378
563.60 0.6374
563.70 0.6369
563.80 0.6365
563.90 0.6361
564.00 0.6356
564.10 0.6352
564.20 0.6348
564.30 0.6343
564.40 0.6339
564.50 0.6335
564.60 0.633
564.70 0.6326
564.80 0.6322
564.90 0.6318
565.00 0.6313
565.10 0.6309
565.20 0.6305
565.30 0.63
565.40 0.6296
565.50 0.6292
565.60 0.6288
565.70 0.6283
565.80 0.6279
565.90 0.6275
566.00 0.6271
566.10 0.6266
566.20 0.6262
566.30 0.6258
566.40 0.6254
566.50 0.6249
566.60 0.6245
566.70 0.6241
566.80 0.6237
566.90 0.6232
567.00 0.6228
567.10 0.6224
567.20 0.622
567.30 0.6215
567.40 0.6211
567.50 0.6207
567.60 0.6203
567.70 0.6199
567.80 0.6194
567.90 0.619
568.00 0.6186
568.10 0.6182
568.20 0.6178
568.30 0.6174
568.40 0.6169
568.50 0.6165
568.60 0.6161
568.70 0.6157
568.80 0.6153
568.90 0.6149
569.00 0.6144
569.10 0.614
569.20 0.6136
569.30 0.6132
569.40 0.6128
569.50 0.6124
569.60 0.612
569.70 0.6115
569.80 0.6111
569.90 0.6107
570.00 0.6103
570.10 0.6099
570.20 0.6095
570.30 0.6091
570.40 0.6087
570.50 0.6083
570.60 0.6078
570.70 0.6074
570.80 0.607
570.90 0.6066
571.00 0.6062
571.10 0.6058
571.20 0.6054
571.30 0.605
571.40 0.6046
571.50 0.6042
571.60 0.6038
571.70 0.6034
571.80 0.603
571.90 0.6025
572.00 0.6021
572.10 0.6017
572.20 0.6013
572.30 0.6009
572.40 0.6005
572.50 0.6001
572.60 0.5997
572.70 0.5993
572.80 0.5989
572.90 0.5985
573.00 0.5981
573.10 0.5977
573.20 0.5973
573.30 0.5969
573.40 0.5965
573.50 0.5961
573.60 0.5957
573.70 0.5953
573.80 0.5949
573.90 0.5945
574.00 0.5941
574.10 0.5937
574.20 0.5933
574.30 0.5929
574.40 0.5925
574.50 0.5921
574.60 0.5917
574.70 0.5913
574.80 0.5909
574.90 0.5905
575.00 0.5902
575.10 0.5898
575.20 0.5894
575.30 0.589
575.40 0.5886
575.50 0.5882
575.60 0.5878
575.70 0.5874
575.80 0.587
575.90 0.5866
576.00 0.5862
576.10 0.5858
576.20 0.5854
576.30 0.585
576.40 0.5847
576.50 0.5843
576.60 0.5839
576.70 0.5835
576.80 0.5831
576.90 0.5827
577.00 0.5823
577.10 0.5819
577.20 0.5815
577.30 0.5812
577.40 0.5808
577.50 0.5804
577.60 0.58
577.70 0.5796
577.80 0.5792
577.90 0.5788
578.00 0.5785
578.10 0.5781
578.20 0.5777
578.30 0.5773
578.40 0.5769
578.50 0.5765
578.60 0.5762
578.70 0.5758
578.80 0.5754
578.90 0.575
579.00 0.5746
579.10 0.5742
579.20 0.5739
579.30 0.5735
579.40 0.5731
579.50 0.5727
579.60 0.5723
579.70 0.572
579.80 0.5716
579.90 0.5712
580.00 0.5708
580.10 0.5704
580.20 0.5701
580.30 0.5697
580.40 0.5693
580.50 0.5689
580.60 0.5686
580.70 0.5682
580.80 0.5678
580.90 0.5674
581.00 0.5671
581.10 0.5667
581.20 0.5663
581.30 0.5659
581.40 0.5656
581.50 0.5652
581.60 0.5648
581.70 0.5644
581.80 0.5641
581.90 0.5637
582.00 0.5633
582.10 0.5629
582.20 0.5626
582.30 0.5622
582.40 0.5618
582.50 0.5615
582.60 0.5611
582.70 0.5607
582.80 0.5603
582.90 0.56
583.00 0.5596
583.10 0.5592
583.20 0.5589
583.30 0.5585
583.40 0.5581
583.50 0.5578
583.60 0.5574
583.70 0.557
583.80 0.5567
583.90 0.5563
584.00 0.5559
584.10 0.5556
584.20 0.5552
584.30 0.5548
584.40 0.5545
584.50 0.5541
584.60 0.5537
584.70 0.5534
584.80 0.553
584.90 0.5526
585.00 0.5523
585.10 0.5519
585.20 0.5515
585.30 0.5512
585.40 0.5508
585.50 0.5505
585.60 0.5501
585.70 0.5497
585.80 0.5494
585.90 0.549
586.00 0.5487
586.10 0.5483
586.20 0.5479
586.30 0.5476
586.40 0.5472
586.50 0.5469
586.60 0.5465
586.70 0.5461
586.80 0.5458
586.90 0.5454
587.00 0.5451
587.10 0.5447
587.20 0.5444
587.30 0.544
587.40 0.5436
587.50 0.5433
587.60 0.5429
587.70 0.5426
587.80 0.5422
587.90 0.5419
588.00 0.5415
588.10 0.5411
588.20 0.5408
588.30 0.5404
588.40 0.5401
588.50 0.5397
588.60 0.5394
588.70 0.539
588.80 0.5387
588.90 0.5383
589.00 0.538
589.10 0.5376
589.20 0.5373
589.30 0.5369
589.40 0.5366
589.50 0.5362
589.60 0.5359
589.70 0.5355
589.80 0.5352
589.90 0.5348
590.00 0.5345
590.10 0.5341
590.20 0.5338
590.30 0.5334
590.40 0.5331
590.50 0.5327
590.60 0.5324
590.70 0.532
590.80 0.5317
590.90 0.5313
591.00 0.531
591.10 0.5306
591.20 0.5303
591.30 0.53
591.40 0.5296
591.50 0.5293
591.60 0.5289
591.70 0.5286
591.80 0.5282
591.90 0.5279
592.00 0.5275
592.10 0.5272
592.20 0.5269
592.30 0.5265
592.40 0.5262
592.50 0.5258
592.60 0.5255
592.70 0.5251
592.80 0.5248
592.90 0.5245
593.00 0.5241
593.10 0.5238
593.20 0.5234
593.30 0.5231
593.40 0.5228
593.50 0.5224
593.60 0.5221
593.70 0.5217
593.80 0.5214
593.90 0.5211
594.00 0.5207
594.10 0.5204
594.20 0.5201
594.30 0.5197
594.40 0.5194
594.50 0.519
594.60 0.5187
594.70 0.5184
594.80 0.518
594.90 0.5177
595.00 0.5174
595.10 0.517
595.20 0.5167
595.30 0.5164
595.40 0.516
595.50 0.5157
595.60 0.5154
595.70 0.515
595.80 0.5147
595.90 0.5144
596.00 0.514
596.10 0.5137
596.20 0.5134
596.30 0.513
596.40 0.5127
596.50 0.5124
596.60 0.512
596.70 0.5117
596.80 0.5114
596.90 0.5111
597.00 0.5107
597.10 0.5104
597.20 0.5101
597.30 0.5097
597.40 0.5094
597.50 0.5091
597.60 0.5087
597.70 0.5084
597.80 0.5081
597.90 0.5078
598.00 0.5074
598.10 0.5071
598.20 0.5068
598.30 0.5065
598.40 0.5061
598.50 0.5058
598.60 0.5055
598.70 0.5051
598.80 0.5048
598.90 0.5045
599.00 0.5042
599.10 0.5038
599.20 0.5035
599.30 0.5032
599.40 0.5029
599.50 0.5026
599.60 0.5022
599.70 0.5019
599.80 0.5016
599.90 0.5013
600.00 0.5009
600.10 0.5006
600.20 0.5003
600.30 0.5
600.40 0.4997
600.50 0.4993
600.60 0.499
600.70 0.4987
600.80 0.4984
600.90 0.4981
601.00 0.4977
601.10 0.4974
601.20 0.4971
601.30 0.4968
601.40 0.4965
601.50 0.4961
601.60 0.4958
601.70 0.4955
601.80 0.4952
601.90 0.4949
602.00 0.4946
602.10 0.4942
602.20 0.4939
602.30 0.4936
602.40 0.4933
602.50 0.493
602.60 0.4927
602.70 0.4923
602.80 0.492
602.90 0.4917
603.00 0.4914
603.10 0.4911
603.20 0.4908
603.30 0.4904
603.40 0.4901
603.50 0.4898
603.60 0.4895
603.70 0.4892
603.80 0.4889
603.90 0.4886
604.00 0.4883
604.10 0.4879
604.20 0.4876
604.30 0.4873
604.40 0.487
604.50 0.4867
604.60 0.4864
604.70 0.4861
604.80 0.4858
604.90 0.4855
605.00 0.4851
605.10 0.4848
605.20 0.4845
605.30 0.4842
605.40 0.4839
605.50 0.4836
605.60 0.4833
605.70 0.483
605.80 0.4827
605.90 0.4824
606.00 0.4821
606.10 0.4818
606.20 0.4815
606.30 0.4811
606.40 0.4808
606.50 0.4805
606.60 0.4802
606.70 0.4799
606.80 0.4796
606.90 0.4793
607.00 0.479
607.10 0.4787
607.20 0.4784
607.30 0.4781
607.40 0.4778
607.50 0.4775
607.60 0.4772
607.70 0.4769
607.80 0.4766
607.90 0.4763
608.00 0.476
608.10 0.4757
608.20 0.4754
608.30 0.4751
608.40 0.4748
608.50 0.4745
608.60 0.4742
608.70 0.4739
608.80 0.4736
608.90 0.4733
609.00 0.473
609.10 0.4727
609.20 0.4724
609.30 0.4721
609.40 0.4718
609.50 0.4715
609.60 0.4712
609.70 0.4709
609.80 0.4706
609.90 0.4703
610.00 0.47
610.10 0.4697
610.20 0.4694
610.30 0.4691
610.40 0.4688
610.50 0.4685
610.60 0.4682
610.70 0.4679
610.80 0.4676
610.90 0.4673
611.00 0.467
611.10 0.4667
611.20 0.4664
611.30 0.4661
611.40 0.4658
611.50 0.4655
611.60 0.4652
611.70 0.4649
611.80 0.4646
611.90 0.4643
612.00 0.464
612.10 0.4638
612.20 0.4635
612.30 0.4632
612.40 0.4629
612.50 0.4626
612.60 0.4623
612.70 0.462
612.80 0.4617
612.90 0.4614
613.00 0.4611
613.10 0.4608
613.20 0.4605
613.30 0.4602
613.40 0.46
613.50 0.4597
613.60 0.4594
613.70 0.4591
613.80 0.4588
613.90 0.4585
614.00 0.4582
614.10 0.4579
614.20 0.4576
614.30 0.4574
614.40 0.4571
614.50 0.4568
614.60 0.4565
614.70 0.4562
614.80 0.4559
614.90 0.4556
615.00 0.4553
615.10 0.4551
615.20 0.4548
615.30 0.4545
615.40 0.4542
615.50 0.4539
615.60 0.4536
615.70 0.4533
615.80 0.4531
615.90 0.4528
616.00 0.4525
616.10 0.4522
616.20 0.4519
616.30 0.4516
616.40 0.4513
616.50 0.4511
616.60 0.4508
616.70 0.4505
616.80 0.4502
616.90 0.4499
617.00 0.4496
617.10 0.4494
617.20 0.4491
617.30 0.4488
617.40 0.4485
617.50 0.4482
617.60 0.4479
617.70 0.4477
617.80 0.4474
617.90 0.4471
618.00 0.4468
618.10 0.4465
618.20 0.4463
618.30 0.446
618.40 0.4457
618.50 0.4454
618.60 0.4451
618.70 0.4449
618.80 0.4446
618.90 0.4443
619.00 0.444
619.10 0.4437
619.20 0.4435
619.30 0.4432
619.40 0.4429
619.50 0.4426
619.60 0.4424
619.70 0.4421
619.80 0.4418
619.90 0.4415
620.00 0.4412
620.10 0.441
620.20 0.4407
620.30 0.4404
620.40 0.4401
620.50 0.4399
620.60 0.4396
620.70 0.4393
620.80 0.439
620.90 0.4388
621.00 0.4385
621.10 0.4382
621.20 0.4379
621.30 0.4377
621.40 0.4374
621.50 0.4371
621.60 0.4368
621.70 0.4366
621.80 0.4363
621.90 0.436
622.00 0.4357
622.10 0.4355
622.20 0.4352
622.30 0.4349
622.40 0.4347
622.50 0.4344
622.60 0.4341
622.70 0.4338
622.80 0.4336
622.90 0.4333
623.00 0.433
623.10 0.4328
623.20 0.4325
623.30 0.4322
623.40 0.4319
623.50 0.4317
623.60 0.4314
623.70 0.4311
623.80 0.4309
623.90 0.4306
624.00 0.4303
624.10 0.4301
624.20 0.4298
624.30 0.4295
624.40 0.4292
624.50 0.429
624.60 0.4287
624.70 0.4284
624.80 0.4282
624.90 0.4279
625.00 0.4276
625.10 0.4274
625.20 0.4271
625.30 0.4268
625.40 0.4266
625.50 0.4263
625.60 0.426
625.70 0.4258
625.80 0.4255
625.90 0.4252
626.00 0.425
626.10 0.4247
626.20 0.4244
626.30 0.4242
626.40 0.4239
626.50 0.4236
626.60 0.4234
626.70 0.4231
626.80 0.4228
626.90 0.4226
627.00 0.4223
627.10 0.422
627.20 0.4218
627.30 0.4215
627.40 0.4213
627.50 0.421
627.60 0.4207
627.70 0.4205
627.80 0.4202
627.90 0.4199
628.00 0.4197
628.10 0.4194
628.20 0.4191
628.30 0.4189
628.40 0.4186
628.50 0.4184
628.60 0.4181
628.70 0.4178
628.80 0.4176
628.90 0.4173
629.00 0.417
629.10 0.4168
629.20 0.4165
629.30 0.4163
629.40 0.416
629.50 0.4157
629.60 0.4155
629.70 0.4152
629.80 0.415
629.90 0.4147
630.00 0.4144
630.10 0.4142
630.20 0.4139
630.30 0.4137
630.40 0.4134
630.50 0.4131
630.60 0.4129
630.70 0.4126
630.80 0.4124
630.90 0.4121
631.00 0.4118
631.10 0.4116
631.20 0.4113
631.30 0.4111
631.40 0.4108
631.50 0.4105
631.60 0.4103
631.70 0.41
631.80 0.4098
631.90 0.4095
632.00 0.4092
632.10 0.409
632.20 0.4087
632.30 0.4085
632.40 0.4082
632.50 0.408
632.60 0.4077
632.70 0.4074
632.80 0.4072
632.90 0.4069
633.00 0.4067
633.10 0.4064
633.20 0.4061
633.30 0.4059
633.40 0.4056
633.50 0.4054
633.60 0.4051
633.70 0.4049
633.80 0.4046
633.90 0.4043
634.00 0.4041
634.10 0.4038
634.20 0.4036
634.30 0.4033
634.40 0.4031
634.50 0.4028
634.60 0.4025
634.70 0.4023
634.80 0.402
634.90 0.4018
635.00 0.4015
635.10 0.4013
635.20 0.401
635.30 0.4008
635.40 0.4005
635.50 0.4002
635.60 0.4
635.70 0.3997
635.80 0.3995
635.90 0.3992
636.00 0.399
636.10 0.3987
636.20 0.3984
636.30 0.3982
636.40 0.3979
636.50 0.3977
636.60 0.3974
636.70 0.3972
636.80 0.3969
636.90 0.3966
637.00 0.3964
637.10 0.3961
637.20 0.3959
637.30 0.3956
637.40 0.3954
637.50 0.3951
637.60 0.3948
637.70 0.3946
637.80 0.3943
637.90 0.3941
638.00 0.3938
638.10 0.3935
638.20 0.3933
638.30 0.393
638.40 0.3928
638.50 0.3925
638.60 0.3923
638.70 0.392
638.80 0.3917
638.90 0.3915
639.00 0.3912
639.10 0.391
639.20 0.3907
639.30 0.3904
639.40 0.3902
639.50 0.3899
639.60 0.3896
639.70 0.3894
639.80 0.3891
639.90 0.3889
640.00 0.3886
640.10 0.3883
640.20 0.3881
640.30 0.3878
640.40 0.3876
640.50 0.3873
640.60 0.387
640.70 0.3868
640.80 0.3865
640.90 0.3862
641.00 0.386
641.10 0.3857
641.20 0.3854
641.30 0.3852
641.40 0.3849
641.50 0.3846
641.60 0.3844
641.70 0.3841
641.80 0.3838
641.90 0.3835
642.00 0.3833
642.10 0.383
642.20 0.3827
642.30 0.3825
642.40 0.3822
642.50 0.3819
642.60 0.3816
642.70 0.3814
642.80 0.3811
642.90 0.3808
643.00 0.3805
643.10 0.3803
643.20 0.38
643.30 0.3797
643.40 0.3794
643.50 0.3791
643.60 0.3789
643.70 0.3786
643.80 0.3783
643.90 0.378
644.00 0.3777
644.10 0.3774
644.20 0.3771
644.30 0.3769
644.40 0.3766
644.50 0.3763
644.60 0.376
644.70 0.3757
644.80 0.3754
644.90 0.3751
645.00 0.3748
645.10 0.3745
645.20 0.3742
645.30 0.3739
645.40 0.3736
645.50 0.3733
645.60 0.373
645.70 0.3726
645.80 0.3723
645.90 0.372
646.00 0.3717
646.10 0.3714
646.20 0.3711
646.30 0.3708
646.40 0.3704
646.50 0.3701
646.60 0.3698
646.70 0.3694
646.80 0.3691
646.90 0.3688
647.00 0.3684
647.10 0.3681
647.20 0.3678
647.30 0.3674
647.40 0.3671
647.50 0.3667
647.60 0.3663
647.70 0.366
647.80 0.3656
647.90 0.3652
648.00 0.3649
648.10 0.3645
648.20 0.3641
648.30 0.3638
648.40 0.3634
648.50 0.363
648.60 0.3626
648.70 0.3622
648.80 0.3618
648.90 0.3613
649.00 0.3609
649.10 0.3605
649.20 0.3601
649.30 0.3597
649.40 0.3593
649.50 0.3588
649.60 0.3583
649.70 0.3579
649.80 0.3574
649.90 0.357
650.00 0.3565
650.10 0.3561
650.20 0.3556
650.30 0.3551
650.40 0.3546
650.50 0.3541
650.60 0.3535
650.70 0.353
650.80 0.3525
650.90 0.3519
651.00 0.3514
651.10 0.3509
651.20 0.3504
651.30 0.3498
651.40 0.3492
651.50 0.3486
651.60 0.3479
651.70 0.3473
651.80 0.3467
651.90 0.3461
652.00 0.3454
652.10 0.3448
652.20 0.3442
652.30 0.3435
652.40 0.3428
652.50 0.342
652.60 0.3413
652.70 0.3405
652.80 0.3398
652.90 0.339
653.00 0.3383
653.10 0.3375
653.20 0.3368
653.30 0.336
653.40 0.3351
653.50 0.3342
653.60 0.3333
653.70 0.3324
653.80 0.3316
653.90 0.3307
654.00 0.3298
654.10 0.3289
654.20 0.328
654.30 0.3271
654.40 0.3261
654.50 0.3251
654.60 0.3241
654.70 0.3231
654.80 0.3221
654.90 0.321
655.00 0.32
655.10 0.3189
655.20 0.3179
655.30 0.3168
655.40 0.3158
655.50 0.3147
655.60 0.3137
655.70 0.3127
655.80 0.3119
655.90 0.3112
656.00 0.3112
656.10 0.3115
656.20 0.3188
656.30 0.3316
656.40 0.314
656.50 0.3105
656.60 0.3101
656.70 0.3099
656.80 0.3104
656.90 0.3109
657.00 0.3116
657.10 0.3122
657.20 0.3129
657.30 0.3136
657.40 0.3143
657.50 0.315
657.60 0.3156
657.70 0.3163
657.80 0.317
657.90 0.3176
658.00 0.3182
658.10 0.3189
658.20 0.3195
658.30 0.3201
658.40 0.3206
658.50 0.3211
658.60 0.3216
658.70 0.3221
658.80 0.3226
658.90 0.3231
659.00 0.3236
659.10 0.3241
659.20 0.3246
659.30 0.3251
659.40 0.3254
659.50 0.3258
659.60 0.3261
659.70 0.3265
659.80 0.3268
659.90 0.3272
660.00 0.3275
660.10 0.3278
660.20 0.3282
660.30 0.3285
660.40 0.3287
660.50 0.3289
660.60 0.3291
660.70 0.3294
660.80 0.3296
660.90 0.3298
661.00 0.33
661.10 0.3302
661.20 0.3304
661.30 0.3306
661.40 0.3307
661.50 0.3308
661.60 0.3309
661.70 0.331
661.80 0.3312
661.90 0.3313
662.00 0.3314
662.10 0.3315
662.20 0.3316
662.30 0.3317
662.40 0.3317
662.50 0.3318
662.60 0.3318
662.70 0.3318
662.80 0.3319
662.90 0.3319
663.00 0.3319
663.10 0.332
663.20 0.332
663.30 0.332
663.40 0.332
663.50 0.332
663.60 0.332
663.70 0.3319
663.80 0.3319
663.90 0.3319
664.00 0.3319
664.10 0.3318
664.20 0.3318
664.30 0.3318
664.40 0.3317
664.50 0.3317
664.60 0.3316
664.70 0.3315
664.80 0.3315
664.90 0.3314
665.00 0.3314
665.10 0.3313
665.20 0.3312
665.30 0.3312
665.40 0.3311
665.50 0.331
665.60 0.3309
665.70 0.3308
665.80 0.3307
665.90 0.3306
666.00 0.3305
666.10 0.3304
666.20 0.3303
666.30 0.3302
666.40 0.3301
666.50 0.33
666.60 0.3299
666.70 0.3298
666.80 0.3296
666.90 0.3295
667.00 0.3294
667.10 0.3293
667.20 0.3292
667.30 0.3291
667.40 0.3289
667.50 0.3288
667.60 0.3287
667.70 0.3285
667.80 0.3284
667.90 0.3283
668.00 0.3282
668.10 0.328
668.20 0.3279
668.30 0.3278
668.40 0.3276
668.50 0.3275
668.60 0.3273
668.70 0.3272
668.80 0.3271
668.90 0.3269
669.00 0.3268
669.10 0.3266
669.20 0.3265
669.30 0.3263
669.40 0.3262
669.50 0.326
669.60 0.3259
669.70 0.3257
669.80 0.3256
669.90 0.3254
670.00 0.3253
670.10 0.3251
670.20 0.325
670.30 0.3248
670.40 0.3247
670.50 0.3245
670.60 0.3244
670.70 0.3242
670.80 0.3241
670.90 0.3239
671.00 0.3237
671.10 0.3236
671.20 0.3234
671.30 0.3233
671.40 0.3231
671.50 0.3229
671.60 0.3228
671.70 0.3226
671.80 0.3225
671.90 0.3223
672.00 0.3221
672.10 0.322
672.20 0.3218
672.30 0.3217
672.40 0.3215
672.50 0.3213
672.60 0.3212
672.70 0.321
672.80 0.3208
672.90 0.3207
673.00 0.3205
673.10 0.3203
673.20 0.3202
673.30 0.32
673.40 0.3199
673.50 0.3197
673.60 0.3195
673.70 0.3194
673.80 0.3192
673.90 0.319
674.00 0.3189
674.10 0.3187
674.20 0.3185
674.30 0.3184
674.40 0.3182
674.50 0.318
674.60 0.3178
674.70 0.3177
674.80 0.3175
674.90 0.3173
675.00 0.3172
675.10 0.317
675.20 0.3168
675.30 0.3167
675.40 0.3165
675.50 0.3163
675.60 0.3162
675.70 0.316
675.80 0.3158
675.90 0.3157
676.00 0.3155
676.10 0.3153
676.20 0.3152
676.30 0.315
676.40 0.3148
676.50 0.3146
676.60 0.3145
676.70 0.3143
676.80 0.3141
676.90 0.314
677.00 0.3138
677.10 0.3136
677.20 0.3135
677.30 0.3133
677.40 0.3131
677.50 0.3129
677.60 0.3128
677.70 0.3126
677.80 0.3124
677.90 0.3123
678.00 0.3121
678.10 0.3119
678.20 0.3118
678.30 0.3116
678.40 0.3114
678.50 0.3112
678.60 0.3111
678.70 0.3109
678.80 0.3107
678.90 0.3106
679.00 0.3104
679.10 0.3102
679.20 0.3101
679.30 0.3099
679.40 0.3097
679.50 0.3096
679.60 0.3094
679.70 0.3092
679.80 0.309
679.90 0.3089
680.00 0.3087
680.10 0.3085
680.20 0.3084
680.30 0.3082
680.40 0.308
680.50 0.3079
680.60 0.3077
680.70 0.3075
680.80 0.3074
680.90 0.3072
681.00 0.307
681.10 0.3068
681.20 0.3067
681.30 0.3065
681.40 0.3063
681.50 0.3062
681.60 0.306
681.70 0.3058
681.80 0.3057
681.90 0.3055
682.00 0.3053
682.10 0.3052
682.20 0.305
682.30 0.3048
682.40 0.3047
682.50 0.3045
682.60 0.3043
682.70 0.3041
682.80 0.304
682.90 0.3038
683.00 0.3036
683.10 0.3035
683.20 0.3033
683.30 0.3031
683.40 0.303
683.50 0.3028
683.60 0.3026
683.70 0.3025
683.80 0.3023
683.90 0.3021
684.00 0.302
684.10 0.3018
684.20 0.3016
684.30 0.3015
684.40 0.3013
684.50 0.3011
684.60 0.301
684.70 0.3008
684.80 0.3006
684.90 0.3005
685.00 0.3003
685.10 0.3001
685.20 0.3
685.30 0.2998
685.40 0.2996
685.50 0.2995
685.60 0.2993
685.70 0.2991
685.80 0.299
685.90 0.2988
686.00 0.2986
686.10 0.2985
686.20 0.2983
686.30 0.2981
686.40 0.298
686.50 0.2978
686.60 0.2976
686.70 0.2975
686.80 0.2973
686.90 0.2972
687.00 0.297
687.10 0.2968
687.20 0.2967
687.30 0.2965
687.40 0.2963
687.50 0.2962
687.60 0.296
687.70 0.2958
687.80 0.2957
687.90 0.2955
688.00 0.2953
688.10 0.2952
688.20 0.295
688.30 0.2949
688.40 0.2947
688.50 0.2945
688.60 0.2944
688.70 0.2942
688.80 0.294
688.90 0.2939
689.00 0.2937
689.10 0.2935
689.20 0.2934
689.30 0.2932
689.40 0.2931
689.50 0.2929
689.60 0.2927
689.70 0.2926
689.80 0.2924
689.90 0.2923
690.00 0.2921
690.10 0.2919
690.20 0.2918
690.30 0.2916
690.40 0.2914
690.50 0.2913
690.60 0.2911
690.70 0.291
690.80 0.2908
690.90 0.2906
691.00 0.2905
691.10 0.2903
691.20 0.2902
691.30 0.29
691.40 0.2898
691.50 0.2897
691.60 0.2895
691.70 0.2894
691.80 0.2892
691.90 0.289
692.00 0.2889
692.10 0.2887
692.20 0.2886
692.30 0.2884
692.40 0.2882
692.50 0.2881
692.60 0.2879
692.70 0.2878
692.80 0.2876
692.90 0.2874
693.00 0.2873
693.10 0.2871
693.20 0.287
693.30 0.2868
693.40 0.2866
693.50 0.2865
693.60 0.2863
693.70 0.2862
693.80 0.286
693.90 0.2859
694.00 0.2857
694.10 0.2855
694.20 0.2854
694.30 0.2852
694.40 0.2851
694.50 0.2849
694.60 0.2847
694.70 0.2846
694.80 0.2844
694.90 0.2843
695.00 0.2841
695.10 0.284
695.20 0.2838
695.30 0.2836
695.40 0.2835
695.50 0.2833
695.60 0.2832
695.70 0.283
695.80 0.2829
695.90 0.2827
696.00 0.2826
696.10 0.2824
696.20 0.2822
696.30 0.2821
696.40 0.2819
696.50 0.2818
696.60 0.2816
696.70 0.2815
696.80 0.2813
696.90 0.2812
697.00 0.281
697.10 0.2808
697.20 0.2807
697.30 0.2805
697.40 0.2804
697.50 0.2802
697.60 0.2801
697.70 0.2799
697.80 0.2798
697.90 0.2796
698.00 0.2795
698.10 0.2793
698.20 0.2791
698.30 0.279
698.40 0.2788
698.50 0.2787
698.60 0.2785
698.70 0.2784
698.80 0.2782
698.90 0.2781
699.00 0.2779
699.10 0.2778
699.20 0.2776
699.30 0.2775
699.40 0.2773
699.50 0.2771
699.60 0.277
699.70 0.2768
699.80 0.2767
699.90 0.2765
700.00 0.2764
700.10 0.2762
700.20 0.2761
700.30 0.2759
700.40 0.2758
700.50 0.2756
700.60 0.2755
700.70 0.2753
700.80 0.2752
700.90 0.275
701.00 0.2749
701.10 0.2747
701.20 0.2746
701.30 0.2744
701.40 0.2743
701.50 0.2741
701.60 0.274
701.70 0.2738
701.80 0.2737
701.90 0.2735
702.00 0.2734
702.10 0.2732
702.20 0.2731
702.30 0.2729
702.40 0.2728
702.50 0.2726
702.60 0.2725
702.70 0.2723
702.80 0.2722
702.90 0.272
703.00 0.2719
703.10 0.2717
703.20 0.2716
703.30 0.2714
703.40 0.2713
703.50 0.2711
703.60 0.271
703.70 0.2708
703.80 0.2707
703.90 0.2705
704.00 0.2704
704.10 0.2702
704.20 0.2701
704.30 0.2699
704.40 0.2698
704.50 0.2696
704.60 0.2695
704.70 0.2694
704.80 0.2692
704.90 0.2691
705.00 0.2689
705.10 0.2688
705.20 0.2686
705.30 0.2685
705.40 0.2683
705.50 0.2682
705.60 0.268
705.70 0.2679
705.80 0.2677
705.90 0.2676
706.00 0.2674
706.10 0.2673
706.20 0.2672
706.30 0.267
706.40 0.2669
706.50 0.2667
706.60 0.2666
706.70 0.2664
706.80 0.2663
706.90 0.2661
707.00 0.266
707.10 0.2658
707.20 0.2657
707.30 0.2656
707.40 0.2654
707.50 0.2653
707.60 0.2651
707.70 0.265
707.80 0.2648
707.90 0.2647
708.00 0.2645
708.10 0.2644
708.20 0.2643
708.30 0.2641
708.40 0.264
708.50 0.2638
708.60 0.2637
708.70 0.2635
708.80 0.2634
708.90 0.2632
709.00 0.2631
709.10 0.263
709.20 0.2628
709.30 0.2627
709.40 0.2625
709.50 0.2624
709.60 0.2622
709.70 0.2621
709.80 0.262
709.90 0.2618
710.00 0.2617
710.10 0.2615
710.20 0.2614
710.30 0.2612
710.40 0.2611
710.50 0.261
710.60 0.2608
710.70 0.2607
710.80 0.2605
710.90 0.2604
711.00 0.2603
711.10 0.2601
711.20 0.26
711.30 0.2598
711.40 0.2597
711.50 0.2596
711.60 0.2594
711.70 0.2593
711.80 0.2591
711.90 0.259
712.00 0.2589
712.10 0.2587
712.20 0.2586
712.30 0.2584
712.40 0.2583
712.50 0.2582
712.60 0.258
712.70 0.2579
712.80 0.2577
712.90 0.2576
713.00 0.2575
713.10 0.2573
713.20 0.2572
713.30 0.257
713.40 0.2569
713.50 0.2568
713.60 0.2566
713.70 0.2565
713.80 0.2563
713.90 0.2562
714.00 0.2561
714.10 0.2559
714.20 0.2558
714.30 0.2556
714.40 0.2555
714.50 0.2554
714.60 0.2552
714.70 0.2551
714.80 0.255
714.90 0.2548
715.00 0.2547
715.10 0.2545
715.20 0.2544
715.30 0.2543
715.40 0.2541
715.50 0.254
715.60 0.2539
715.70 0.2537
715.80 0.2536
715.90 0.2534
716.00 0.2533
716.10 0.2532
716.20 0.253
716.30 0.2529
716.40 0.2528
716.50 0.2526
716.60 0.2525
716.70 0.2524
716.80 0.2522
716.90 0.2521
717.00 0.2519
717.10 0.2518
717.20 0.2517
717.30 0.2515
717.40 0.2514
717.50 0.2513
717.60 0.2511
717.70 0.251
717.80 0.2509
717.90 0.2507
718.00 0.2506
718.10 0.2505
718.20 0.2503
718.30 0.2502
718.40 0.2501
718.50 0.2499
718.60 0.2498
718.70 0.2497
718.80 0.2495
718.90 0.2494
719.00 0.2492
719.10 0.2491
719.20 0.249
719.30 0.2488
719.40 0.2487
719.50 0.2486
719.60 0.2484
719.70 0.2483
719.80 0.2482
719.90 0.248
720.00 0.2479
720.10 0.2478
720.20 0.2476
720.30 0.2475
720.40 0.2474
720.50 0.2472
720.60 0.2471
720.70 0.247
720.80 0.2468
720.90 0.2467
721.00 0.2466
721.10 0.2465
721.20 0.2463
721.30 0.2462
721.40 0.2461
721.50 0.2459
721.60 0.2458
721.70 0.2457
721.80 0.2455
721.90 0.2454
722.00 0.2453
722.10 0.2451
722.20 0.245
722.30 0.2449
722.40 0.2447
722.50 0.2446
722.60 0.2445
722.70 0.2444
722.80 0.2442
722.90 0.2441
723.00 0.244
723.10 0.2438
723.20 0.2437
723.30 0.2436
723.40 0.2434
723.50 0.2433
723.60 0.2432
723.70 0.243
723.80 0.2429
723.90 0.2428
724.00 0.2427
724.10 0.2425
724.20 0.2424
724.30 0.2423
724.40 0.2421
724.50 0.242
724.60 0.2419
724.70 0.2418
724.80 0.2416
724.90 0.2415
725.00 0.2414
725.10 0.2412
725.20 0.2411
725.30 0.241
725.40 0.2408
725.50 0.2407
725.60 0.2406
725.70 0.2405
725.80 0.2403
725.90 0.2402
726.00 0.2401
726.10 0.24
726.20 0.2398
726.30 0.2397
726.40 0.2396
726.50 0.2394
726.60 0.2393
726.70 0.2392
726.80 0.2391
726.90 0.2389
727.00 0.2388
727.10 0.2387
727.20 0.2386
727.30 0.2384
727.40 0.2383
727.50 0.2382
727.60 0.2381
727.70 0.2379
727.80 0.2378
727.90 0.2377
728.00 0.2375
728.10 0.2374
728.20 0.2373
728.30 0.2372
728.40 0.237
728.50 0.2369
728.60 0.2368
728.70 0.2367
728.80 0.2365
728.90 0.2364
729.00 0.2363
729.10 0.2362
729.20 0.236
729.30 0.2359
729.40 0.2358
729.50 0.2357
729.60 0.2355
729.70 0.2354
729.80 0.2353
729.90 0.2352
730.00 0.235
730.10 0.2349
730.20 0.2348
730.30 0.2347
730.40 0.2345
730.50 0.2344
730.60 0.2343
730.70 0.2342
730.80 0.234
730.90 0.2339
731.00 0.2338
731.10 0.2337
731.20 0.2336
731.30 0.2334
731.40 0.2333
731.50 0.2332
731.60 0.2331
731.70 0.2329
731.80 0.2328
731.90 0.2327
732.00 0.2326
732.10 0.2325
732.20 0.2323
732.30 0.2322
732.40 0.2321
732.50 0.232
732.60 0.2318
732.70 0.2317
732.80 0.2316
732.90 0.2315
733.00 0.2314
733.10 0.2312
733.20 0.2311
733.30 0.231
733.40 0.2309
733.50 0.2307
733.60 0.2306
733.70 0.2305
733.80 0.2304
733.90 0.2303
734.00 0.2301
734.10 0.23
734.20 0.2299
734.30 0.2298
734.40 0.2297
734.50 0.2295
734.60 0.2294
734.70 0.2293
734.80 0.2292
734.90 0.2291
735.00 0.2289
735.10 0.2288
735.20 0.2287
735.30 0.2286
735.40 0.2284
735.50 0.2283
735.60 0.2282
735.70 0.2281
735.80 0.228
735.90 0.2278
736.00 0.2277
736.10 0.2276
736.20 0.2275
736.30 0.2274
736.40 0.2272
736.50 0.2271
736.60 0.227
736.70 0.2269
736.80 0.2268
736.90 0.2267
737.00 0.2265
737.10 0.2264
737.20 0.2263
737.30 0.2262
737.40 0.2261
737.50 0.2259
737.60 0.2258
737.70 0.2257
737.80 0.2256
737.90 0.2255
738.00 0.2253
738.10 0.2252
738.20 0.2251
738.30 0.225
738.40 0.2249
738.50 0.2247
738.60 0.2246
738.70 0.2245
738.80 0.2244
738.90 0.2243
739.00 0.2242
739.10 0.224
739.20 0.2239
739.30 0.2238
739.40 0.2237
739.50 0.2236
739.60 0.2234
739.70 0.2233
739.80 0.2232
739.90 0.2231
740.00 0.223
740.10 0.2229
740.20 0.2227
740.30 0.2226
740.40 0.2225
740.50 0.2224
740.60 0.2223
740.70 0.2222
740.80 0.2221
740.90 0.2219
741.00 0.2218
741.10 0.2217
741.20 0.2216
741.30 0.2215
741.40 0.2214
741.50 0.2212
741.60 0.2211
741.70 0.221
741.80 0.2209
741.90 0.2208
742.00 0.2207
742.10 0.2206
742.20 0.2204
742.30 0.2203
742.40 0.2202
742.50 0.2201
742.60 0.22
742.70 0.2199
742.80 0.2198
742.90 0.2196
743.00 0.2195
743.10 0.2194
743.20 0.2193
743.30 0.2192
743.40 0.2191
743.50 0.219
743.60 0.2188
743.70 0.2187
743.80 0.2186
743.90 0.2185
744.00 0.2184
744.10 0.2183
744.20 0.2182
744.30 0.2181
744.40 0.2179
744.50 0.2178
744.60 0.2177
744.70 0.2176
744.80 0.2175
744.90 0.2174
745.00 0.2173
745.10 0.2171
745.20 0.217
745.30 0.2169
745.40 0.2168
745.50 0.2167
745.60 0.2166
745.70 0.2165
745.80 0.2164
745.90 0.2162
746.00 0.2161
746.10 0.216
746.20 0.2159
746.30 0.2158
746.40 0.2157
746.50 0.2156
746.60 0.2155
746.70 0.2153
746.80 0.2152
746.90 0.2151
747.00 0.215
747.10 0.2149
747.20 0.2148
747.30 0.2147
747.40 0.2146
747.50 0.2145
747.60 0.2143
747.70 0.2142
747.80 0.2141
747.90 0.214
748.00 0.2139
748.10 0.2138
748.20 0.2137
748.30 0.2136
748.40 0.2135
748.50 0.2133
748.60 0.2132
748.70 0.2131
748.80 0.213
748.90 0.2129
749.00 0.2128
749.10 0.2127
749.20 0.2126
749.30 0.2125
749.40 0.2123
749.50 0.2122
749.60 0.2121
749.70 0.212
749.80 0.2119
749.90 0.2118
750.00 0.2117
750.10 0.2116
750.20 0.2115
750.30 0.2114
750.40 0.2112
750.50 0.2111
750.60 0.211
750.70 0.2109
750.80 0.2108
750.90 0.2107
751.00 0.2106
751.10 0.2105
751.20 0.2104
751.30 0.2103
751.40 0.2102
751.50 0.2101
751.60 0.21
751.70 0.2098
751.80 0.2097
751.90 0.2096
752.00 0.2095
752.10 0.2094
752.20 0.2093
752.30 0.2092
752.40 0.2091
752.50 0.209
752.60 0.2089
752.70 0.2088
752.80 0.2087
752.90 0.2086
753.00 0.2085
753.10 0.2083
753.20 0.2082
753.30 0.2081
753.40 0.208
753.50 0.2079
753.60 0.2078
753.70 0.2077
753.80 0.2076
753.90 0.2075
754.00 0.2074
754.10 0.2073
754.20 0.2072
754.30 0.2071
754.40 0.207
754.50 0.2069
754.60 0.2068
754.70 0.2066
754.80 0.2065
754.90 0.2064
755.00 0.2063
755.10 0.2062
755.20 0.2061
755.30 0.206
755.40 0.2059
755.50 0.2058
755.60 0.2057
755.70 0.2056
755.80 0.2055
755.90 0.2054
756.00 0.2053
756.10 0.2052
756.20 0.2051
756.30 0.205
756.40 0.2048
756.50 0.2047
756.60 0.2046
756.70 0.2045
756.80 0.2044
756.90 0.2043
757.00 0.2042
757.10 0.2041
757.20 0.204
757.30 0.2039
757.40 0.2038
757.50 0.2037
757.60 0.2036
757.70 0.2035
757.80 0.2034
757.90 0.2033
758.00 0.2032
758.10 0.2031
758.20 0.203
758.30 0.2029
758.40 0.2028
758.50 0.2027
758.60 0.2025
758.70 0.2024
758.80 0.2023
758.90 0.2022
759.00 0.2021
759.10 0.202
759.20 0.2019
759.30 0.2018
759.40 0.2017
759.50 0.2016
759.60 0.2015
759.70 0.2014
759.80 0.2013
759.90 0.2012
760.00 0.2011
760.10 0.201
760.20 0.2009
760.30 0.2008
760.40 0.2007
760.50 0.2006
760.60 0.2005
760.70 0.2004
760.80 0.2003
760.90 0.2002
761.00 0.2001
761.10 0.2
761.20 0.1999
761.30 0.1998
761.40 0.1997
761.50 0.1996
761.60 0.1995
761.70 0.1994
761.80 0.1993
761.90 0.1992
762.00 0.1991
762.10 0.199
762.20 0.1989
762.30 0.1988
762.40 0.1987
762.50 0.1986
762.60 0.1985
762.70 0.1984
762.80 0.1983
762.90 0.1982
763.00 0.1981
763.10 0.198
763.20 0.1979
763.30 0.1978
763.40 0.1977
763.50 0.1976
763.60 0.1975
763.70 0.1974
763.80 0.1973
763.90 0.1972
764.00 0.1971
764.10 0.197
764.20 0.1969
764.30 0.1968
764.40 0.1967
764.50 0.1966
764.60 0.1965
764.70 0.1964
764.80 0.1963
764.90 0.1962
765.00 0.1961
765.10 0.196
765.20 0.1959
765.30 0.1958
765.40 0.1957
765.50 0.1956
765.60 0.1955
765.70 0.1954
765.80 0.1953
765.90 0.1952
766.00 0.1951
766.10 0.195
766.20 0.1949
766.30 0.1948
766.40 0.1947
766.50 0.1946
766.60 0.1945
766.70 0.1944
766.80 0.1943
766.90 0.1942
767.00 0.1941
767.10 0.194
767.20 0.1939
767.30 0.1938
767.40 0.1937
767.50 0.1936
767.60 0.1935
767.70 0.1934
767.80 0.1933
767.90 0.1932
768.00 0.1931
768.10 0.193
768.20 0.1929
768.30 0.1928
768.40 0.1927
768.50 0.1926
768.60 0.1925
768.70 0.1924
768.80 0.1923
768.90 0.1922
769.00 0.1921
769.10 0.192
769.20 0.1919
769.30 0.1918
769.40 0.1917
769.50 0.1916
769.60 0.1915
769.70 0.1915
769.80 0.1914
769.90 0.1913
770.00 0.1912
770.10 0.1911
770.20 0.191
770.30 0.1909
770.40 0.1908
770.50 0.1907
770.60 0.1906
770.70 0.1905
770.80 0.1904
770.90 0.1903
771.00 0.1902
771.10 0.1901
771.20 0.19
771.30 0.1899
771.40 0.1898
771.50 0.1897
771.60 0.1896
771.70 0.1895
771.80 0.1894
771.90 0.1894
772.00 0.1893
772.10 0.1892
772.20 0.1891
772.30 0.189
772.40 0.1889
772.50 0.1888
772.60 0.1887
772.70 0.1886
772.80 0.1885
772.90 0.1884
773.00 0.1883
773.10 0.1882
773.20 0.1881
773.30 0.188
773.40 0.1879
773.50 0.1878
773.60 0.1878
773.70 0.1877
773.80 0.1876
773.90 0.1875
774.00 0.1874
774.10 0.1873
774.20 0.1872
774.30 0.1871
774.40 0.187
774.50 0.1869
774.60 0.1868
774.70 0.1867
774.80 0.1866
774.90 0.1865
775.00 0.1864
775.10 0.1863
775.20 0.1863
775.30 0.1862
775.40 0.1861
775.50 0.186
775.60 0.1859
775.70 0.1858
775.80 0.1857
775.90 0.1856
776.00 0.1855
776.10 0.1854
776.20 0.1853
776.30 0.1852
776.40 0.1851
776.50 0.185
776.60 0.185
776.70 0.1849
776.80 0.1848
776.90 0.1847
777.00 0.1846
777.10 0.1845
777.20 0.1844
777.30 0.1843
777.40 0.1842
777.50 0.1841
777.60 0.184
777.70 0.1839
777.80 0.1838
777.90 0.1838
778.00 0.1837
778.10 0.1836
778.20 0.1835
778.30 0.1834
778.40 0.1833
778.50 0.1832
778.60 0.1831
778.70 0.183
778.80 0.1829
778.90 0.1828
779.00 0.1827
779.10 0.1827
779.20 0.1826
779.30 0.1825
779.40 0.1824
779.50 0.1823
779.60 0.1822
779.70 0.1821
779.80 0.182
779.90 0.1819
780.00 0.1818
780.10 0.1817
780.20 0.1817
780.30 0.1816
780.40 0.1815
780.50 0.1814
780.60 0.1813
780.70 0.1812
780.80 0.1811
780.90 0.181
781.00 0.1809
781.10 0.1808
781.20 0.1808
781.30 0.1807
781.40 0.1806
781.50 0.1805
781.60 0.1804
781.70 0.1803
781.80 0.1802
781.90 0.1801
782.00 0.18
782.10 0.18
782.20 0.1799
782.30 0.1798
782.40 0.1797
782.50 0.1796
782.60 0.1795
782.70 0.1794
782.80 0.1793
782.90 0.1792
783.00 0.1792
783.10 0.1791
783.20 0.179
783.30 0.1789
783.40 0.1788
783.50 0.1787
783.60 0.1786
783.70 0.1785
783.80 0.1785
783.90 0.1784
784.00 0.1783
784.10 0.1782
784.20 0.1781
784.30 0.178
784.40 0.1779
784.50 0.1778
784.60 0.1778
784.70 0.1777
784.80 0.1776
784.90 0.1775
785.00 0.1774
785.10 0.1773
785.20 0.1772
785.30 0.1771
785.40 0.177
785.50 0.177
785.60 0.1769
785.70 0.1768
785.80 0.1767
785.90 0.1766
786.00 0.1765
786.10 0.1764
786.20 0.1764
786.30 0.1763
786.40 0.1762
786.50 0.1761
786.60 0.176
786.70 0.1759
786.80 0.1758
786.90 0.1757
787.00 0.1757
787.10 0.1756
787.20 0.1755
787.30 0.1754
787.40 0.1753
787.50 0.1752
787.60 0.1751
787.70 0.175
787.80 0.175
787.90 0.1749
788.00 0.1748
788.10 0.1747
788.20 0.1746
788.30 0.1745
788.40 0.1744
788.50 0.1744
788.60 0.1743
788.70 0.1742
788.80 0.1741
788.90 0.174
789.00 0.1739
789.10 0.1738
789.20 0.1738
789.30 0.1737
789.40 0.1736
789.50 0.1735
789.60 0.1734
789.70 0.1733
789.80 0.1732
789.90 0.1732
790.00 0.1731
790.10 0.173
790.20 0.1729
790.30 0.1728
790.40 0.1727
790.50 0.1726
790.60 0.1726
790.70 0.1725
790.80 0.1724
790.90 0.1723
791.00 0.1722
791.10 0.1721
791.20 0.1721
791.30 0.172
791.40 0.1719
791.50 0.1718
791.60 0.1717
791.70 0.1716
791.80 0.1716
791.90 0.1715
792.00 0.1714
792.10 0.1713
792.20 0.1712
792.30 0.1711
792.40 0.1711
792.50 0.171
792.60 0.1709
792.70 0.1708
792.80 0.1707
792.90 0.1706
793.00 0.1706
793.10 0.1705
793.20 0.1704
793.30 0.1703
793.40 0.1702
793.50 0.1701
793.60 0.1701
793.70 0.17
793.80 0.1699
793.90 0.1698
794.00 0.1697
794.10 0.1696
794.20 0.1696
794.30 0.1695
794.40 0.1694
794.50 0.1693
794.60 0.1692
794.70 0.1691
794.80 0.1691
794.90 0.169
795.00 0.1689
795.10 0.1688
795.20 0.1687
795.30 0.1687
795.40 0.1686
795.50 0.1685
795.60 0.1684
795.70 0.1683
795.80 0.1682
795.90 0.1682
796.00 0.1681
796.10 0.168
796.20 0.1679
796.30 0.1678
796.40 0.1677
796.50 0.1677
796.60 0.1676
796.70 0.1675
796.80 0.1674
796.90 0.1673
797.00 0.1673
797.10 0.1672
797.20 0.1671
797.30 0.167
797.40 0.1669
797.50 0.1668
797.60 0.1668
797.70 0.1667
797.80 0.1666
797.90 0.1665
798.00 0.1664
798.10 0.1664
798.20 0.1663
798.30 0.1662
798.40 0.1661
798.50 0.166
798.60 0.166
798.70 0.1659
798.80 0.1658
798.90 0.1657
799.00 0.1656
799.10 0.1656
799.20 0.1655
799.30 0.1654
799.40 0.1653
799.50 0.1652
799.60 0.1651
799.70 0.1651
799.80 0.165
799.90 0.1649
800.00 0.1648
800.10 0.1647
800.20 0.1647
800.30 0.1646
800.40 0.1645
800.50 0.1644
800.60 0.1643
800.70 0.1643
800.80 0.1642
800.90 0.1641
801.00 0.164
801.10 0.164
801.20 0.1639
801.30 0.1638
801.40 0.1637
801.50 0.1636
801.60 0.1636
801.70 0.1635
801.80 0.1634
801.90 0.1633
802.00 0.1632
802.10 0.1632
802.20 0.1631
802.30 0.163
802.40 0.1629
802.50 0.1629
802.60 0.1628
802.70 0.1627
802.80 0.1626
802.90 0.1625
803.00 0.1625
803.10 0.1624
803.20 0.1623
803.30 0.1622
803.40 0.1621
803.50 0.1621
803.60 0.162
803.70 0.1619
803.80 0.1618
803.90 0.1618
804.00 0.1617
804.10 0.1616
804.20 0.1615
804.30 0.1614
804.40 0.1614
804.50 0.1613
804.60 0.1612
804.70 0.1611
804.80 0.1611
804.90 0.161
805.00 0.1609
805.10 0.1608
805.20 0.1607
805.30 0.1607
805.40 0.1606
805.50 0.1605
805.60 0.1604
805.70 0.1604
805.80 0.1603
805.90 0.1602
806.00 0.1601
806.10 0.1601
806.20 0.16
806.30 0.1599
806.40 0.1598
806.50 0.1597
806.60 0.1597
806.70 0.1596
806.80 0.1595
806.90 0.1594
807.00 0.1594
807.10 0.1593
807.20 0.1592
807.30 0.1591
807.40 0.159
807.50 0.159
807.60 0.1589
807.70 0.1588
807.80 0.1587
807.90 0.1587
808.00 0.1586
808.10 0.1585
808.20 0.1584
808.30 0.1584
808.40 0.1583
808.50 0.1582
808.60 0.1581
808.70 0.1581
808.80 0.158
808.90 0.1579
809.00 0.1578
809.10 0.1577
809.20 0.1577
809.30 0.1576
809.40 0.1575
809.50 0.1574
809.60 0.1574
809.70 0.1573
809.80 0.1572
809.90 0.1571
810.00 0.1571
810.10 0.157
810.20 0.1569
810.30 0.1568
810.40 0.1568
810.50 0.1567
810.60 0.1566
810.70 0.1565
810.80 0.1565
810.90 0.1564
811.00 0.1563
811.10 0.1562
811.20 0.1562
811.30 0.1561
811.40 0.156
811.50 0.1559
811.60 0.1559
811.70 0.1558
811.80 0.1557
811.90 0.1557
812.00 0.1556
812.10 0.1555
812.20 0.1554
812.30 0.1554
812.40 0.1553
812.50 0.1552
812.60 0.1551
812.70 0.1551
812.80 0.155
812.90 0.1549
813.00 0.1548
813.10 0.1548
813.20 0.1547
813.30 0.1546
813.40 0.1545
813.50 0.1545
813.60 0.1544
813.70 0.1543
813.80 0.1543
813.90 0.1542
814.00 0.1541
814.10 0.154
814.20 0.154
814.30 0.1539
814.40 0.1538
814.50 0.1537
814.60 0.1537
814.70 0.1536
814.80 0.1535
814.90 0.1534
815.00 0.1534
815.10 0.1533
815.20 0.1532
815.30 0.1532
815.40 0.1531
815.50 0.153
815.60 0.1529
815.70 0.1529
815.80 0.1528
815.90 0.1527
816.00 0.1526
816.10 0.1526
816.20 0.1525
816.30 0.1524
816.40 0.1524
816.50 0.1523
816.60 0.1522
816.70 0.1521
816.80 0.1521
816.90 0.152
817.00 0.1519
817.10 0.1518
817.20 0.1518
817.30 0.1517
817.40 0.1516
817.50 0.1516
817.60 0.1515
817.70 0.1514
817.80 0.1513
817.90 0.1513
818.00 0.1512
818.10 0.1511
818.20 0.1511
818.30 0.151
818.40 0.1509
818.50 0.1508
818.60 0.1508
818.70 0.1507
818.80 0.1506
818.90 0.1505
819.00 0.1505
819.10 0.1504
819.20 0.1503
819.30 0.1503
819.40 0.1502
819.50 0.1501
819.60 0.15
819.70 0.15
819.80 0.1499
819.90 0.1498
820.00 0.1498
820.10 0.1497
820.20 0.1496
820.30 0.1495
820.40 0.1495
820.50 0.1494
820.60 0.1493
820.70 0.1493
820.80 0.1492
820.90 0.1491
821.00 0.1491
821.10 0.149
821.20 0.1489
821.30 0.1488
821.40 0.1488
821.50 0.1487
821.60 0.1486
821.70 0.1486
821.80 0.1485
821.90 0.1484
822.00 0.1483
822.10 0.1483
822.20 0.1482
822.30 0.1481
822.40 0.1481
822.50 0.148
822.60 0.1479
822.70 0.1479
822.80 0.1478
822.90 0.1477
823.00 0.1477
823.10 0.1476
823.20 0.1475
823.30 0.1474
823.40 0.1474
823.50 0.1473
823.60 0.1472
823.70 0.1472
823.80 0.1471
823.90 0.147
824.00 0.147
824.10 0.1469
824.20 0.1468
824.30 0.1468
824.40 0.1467
824.50 0.1466
824.60 0.1465
824.70 0.1465
824.80 0.1464
824.90 0.1463
825.00 0.1463
825.10 0.1462
825.20 0.1461
825.30 0.1461
825.40 0.146
825.50 0.1459
825.60 0.1459
825.70 0.1458
825.80 0.1457
825.90 0.1456
826.00 0.1456
826.10 0.1455
826.20 0.1454
826.30 0.1454
826.40 0.1453
826.50 0.1452
826.60 0.1452
826.70 0.1451
826.80 0.145
826.90 0.145
827.00 0.1449
827.10 0.1448
827.20 0.1448
827.30 0.1447
827.40 0.1446
827.50 0.1446
827.60 0.1445
827.70 0.1444
827.80 0.1444
827.90 0.1443
828.00 0.1442
828.10 0.1442
828.20 0.1441
828.30 0.144
828.40 0.144
828.50 0.1439
828.60 0.1438
828.70 0.1437
828.80 0.1437
828.90 0.1436
829.00 0.1435
829.10 0.1435
829.20 0.1434
829.30 0.1433
829.40 0.1433
829.50 0.1432
829.60 0.1431
829.70 0.1431
829.80 0.143
829.90 0.1429
830.00 0.1429
830.10 0.1428
830.20 0.1427
830.30 0.1427
830.40 0.1426
830.50 0.1425
830.60 0.1425
830.70 0.1424
830.80 0.1423
830.90 0.1423
831.00 0.1422
831.10 0.1421
831.20 0.1421
831.30 0.142
831.40 0.1419
831.50 0.1419
831.60 0.1418
831.70 0.1417
831.80 0.1417
831.90 0.1416
832.00 0.1415
832.10 0.1415
832.20 0.1414
832.30 0.1413
832.40 0.1413
832.50 0.1412
832.60 0.1411
832.70 0.1411
832.80 0.141
832.90 0.141
833.00 0.1409
833.10 0.1408
833.20 0.1408
833.30 0.1407
833.40 0.1406
833.50 0.1406
833.60 0.1405
833.70 0.1404
833.80 0.1404
833.90 0.1403
834.00 0.1402
834.10 0.1402
834.20 0.1401
834.30 0.14
834.40 0.14
834.50 0.1399
834.60 0.1398
834.70 0.1398
834.80 0.1397
834.90 0.1396
835.00 0.1396
835.10 0.1395
835.20 0.1394
835.30 0.1394
835.40 0.1393
835.50 0.1393
835.60 0.1392
835.70 0.1391
835.80 0.1391
835.90 0.139
836.00 0.1389
836.10 0.1389
836.20 0.1388
836.30 0.1387
836.40 0.1387
836.50 0.1386
836.60 0.1385
836.70 0.1385
836.80 0.1384
836.90 0.1383
837.00 0.1383
837.10 0.1382
837.20 0.1382
837.30 0.1381
837.40 0.138
837.50 0.138
837.60 0.1379
837.70 0.1378
837.80 0.1378
837.90 0.1377
838.00 0.1376
838.10 0.1376
838.20 0.1375
838.30 0.1374
838.40 0.1374
838.50 0.1373
838.60 0.1373
838.70 0.1372
838.80 0.1371
838.90 0.1371
839.00 0.137
839.10 0.1369
839.20 0.1369
839.30 0.1368
839.40 0.1367
839.50 0.1367
839.60 0.1366
839.70 0.1366
839.80 0.1365
839.90 0.1364
840.00 0.1364
840.10 0.1363
840.20 0.1362
840.30 0.1362
840.40 0.1361
840.50 0.1361
840.60 0.136
840.70 0.1359
840.80 0.1359
840.90 0.1358
841.00 0.1357
841.10 0.1357
841.20 0.1356
841.30 0.1355
841.40 0.1355
841.50 0.1354
841.60 0.1354
841.70 0.1353
841.80 0.1352
841.90 0.1352
842.00 0.1351
842.10 0.135
842.20 0.135
842.30 0.1349
842.40 0.1349
842.50 0.1348
842.60 0.1347
842.70 0.1347
842.80 0.1346
842.90 0.1345
843.00 0.1345
843.10 0.1344
843.20 0.1344
843.30 0.1343
843.40 0.1342
843.50 0.1342
843.60 0.1341
843.70 0.1341
843.80 0.134
843.90 0.1339
844.00 0.1339
844.10 0.1338
844.20 0.1337
844.30 0.1337
844.40 0.1336
844.50 0.1336
844.60 0.1335
844.70 0.1334
844.80 0.1334
844.90 0.1333
845.00 0.1332
845.10 0.1332
845.20 0.1331
845.30 0.1331
845.40 0.133
845.50 0.1329
845.60 0.1329
845.70 0.1328
845.80 0.1328
845.90 0.1327
846.00 0.1326
846.10 0.1326
846.20 0.1325
846.30 0.1324
846.40 0.1324
846.50 0.1323
846.60 0.1323
846.70 0.1322
846.80 0.1321
846.90 0.1321
847.00 0.132
847.10 0.132
847.20 0.1319
847.30 0.1318
847.40 0.1318
847.50 0.1317
847.60 0.1317
847.70 0.1316
847.80 0.1315
847.90 0.1315
848.00 0.1314
848.10 0.1314
848.20 0.1313
848.30 0.1312
848.40 0.1312
848.50 0.1311
848.60 0.1311
848.70 0.131
848.80 0.1309
848.90 0.1309
849.00 0.1308
849.10 0.1308
849.20 0.1307
849.30 0.1306
849.40 0.1306
849.50 0.1305
849.60 0.1305
849.70 0.1304
849.80 0.1303
849.90 0.1303
850.00 0.1302
850.10 0.1302
850.20 0.1301
850.30 0.13
850.40 0.13
850.50 0.1299
850.60 0.1299
850.70 0.1298
850.80 0.1297
850.90 0.1297
851.00 0.1296
851.10 0.1296
851.20 0.1295
851.30 0.1294
851.40 0.1294
851.50 0.1293
851.60 0.1293
851.70 0.1292
851.80 0.1291
851.90 0.1291
852.00 0.129
852.10 0.129
852.20 0.1289
852.30 0.1288
852.40 0.1288
852.50 0.1287
852.60 0.1287
852.70 0.1286
852.80 0.1285
852.90 0.1285
853.00 0.1284
853.10 0.1284
853.20 0.1283
853.30 0.1283
853.40 0.1282
853.50 0.1281
853.60 0.1281
853.70 0.128
853.80 0.128
853.90 0.1279
854.00 0.1278
854.10 0.1278
854.20 0.1277
854.30 0.1277
854.40 0.1276
854.50 0.1276
854.60 0.1275
854.70 0.1274
854.80 0.1274
854.90 0.1273
855.00 0.1273
855.10 0.1272
855.20 0.1271
855.30 0.1271
855.40 0.127
855.50 0.127
855.60 0.1269
855.70 0.1269
855.80 0.1268
855.90 0.1267
856.00 0.1267
856.10 0.1266
856.20 0.1266
856.30 0.1265
856.40 0.1264
856.50 0.1264
856.60 0.1263
856.70 0.1263
856.80 0.1262
856.90 0.1262
857.00 0.1261
857.10 0.126
857.20 0.126
857.30 0.1259
857.40 0.1259
857.50 0.1258
857.60 0.1258
857.70 0.1257
857.80 0.1257
857.90 0.1256
858.00 0.1255
858.10 0.1255
858.20 0.1254
858.30 0.1254
858.40 0.1253
858.50 0.1253
858.60 0.1252
858.70 0.1251
858.80 0.1251
858.90 0.125
859.00 0.125
859.10 0.1249
859.20 0.1249
859.30 0.1248
859.40 0.1248
859.50 0.1247
859.60 0.1246
859.70 0.1246
859.80 0.1245
859.90 0.1245
860.00 0.1244
860.10 0.1244
860.20 0.1243
860.30 0.1242
860.40 0.1242
860.50 0.1241
860.60 0.1241
860.70 0.124
860.80 0.124
860.90 0.1239
861.00 0.1239
861.10 0.1238
861.20 0.1237
861.30 0.1237
861.40 0.1236
861.50 0.1236
861.60 0.1235
861.70 0.1235
861.80 0.1234
861.90 0.1234
862.00 0.1233
862.10 0.1232
862.20 0.1232
862.30 0.1231
862.40 0.1231
862.50 0.123
862.60 0.123
862.70 0.1229
862.80 0.1229
862.90 0.1228
863.00 0.1227
863.10 0.1227
863.20 0.1226
863.30 0.1226
863.40 0.1225
863.50 0.1225
863.60 0.1224
863.70 0.1224
863.80 0.1223
863.90 0.1222
864.00 0.1222
864.10 0.1221
864.20 0.1221
864.30 0.122
864.40 0.122
864.50 0.1219
864.60 0.1219
864.70 0.1218
864.80 0.1217
864.90 0.1217
865.00 0.1216
865.10 0.1216
865.20 0.1215
865.30 0.1215
865.40 0.1214
865.50 0.1214
865.60 0.1213
865.70 0.1213
865.80 0.1212
865.90 0.1211
866.00 0.1211
866.10 0.121
866.20 0.121
866.30 0.1209
866.40 0.1209
866.50 0.1208
866.60 0.1208
866.70 0.1207
866.80 0.1206
866.90 0.1206
867.00 0.1205
867.10 0.1205
867.20 0.1204
867.30 0.1204
867.40 0.1203
867.50 0.1203
867.60 0.1202
867.70 0.1202
867.80 0.1201
867.90 0.1201
868.00 0.12
868.10 0.1199
868.20 0.1199
868.30 0.1198
868.40 0.1198
868.50 0.1197
868.60 0.1197
868.70 0.1196
868.80 0.1196
868.90 0.1195
869.00 0.1195
869.10 0.1194
869.20 0.1194
869.30 0.1193
869.40 0.1193
869.50 0.1192
869.60 0.1191
869.70 0.1191
869.80 0.119
869.90 0.119
870.00 0.1189
870.10 0.1189
870.20 0.1188
870.30 0.1188
870.40 0.1187
870.50 0.1187
870.60 0.1186
870.70 0.1186
870.80 0.1185
870.90 0.1185
871.00 0.1184
871.10 0.1183
871.20 0.1183
871.30 0.1182
871.40 0.1182
871.50 0.1181
871.60 0.1181
871.70 0.118
871.80 0.118
871.90 0.1179
872.00 0.1179
872.10 0.1178
872.20 0.1178
872.30 0.1177
872.40 0.1177
872.50 0.1176
872.60 0.1176
872.70 0.1175
872.80 0.1174
872.90 0.1174
873.00 0.1173
873.10 0.1173
873.20 0.1172
873.30 0.1172
873.40 0.1171
873.50 0.1171
873.60 0.117
873.70 0.117
873.80 0.1169
873.90 0.1169
874.00 0.1168
874.10 0.1168
874.20 0.1167
874.30 0.1167
874.40 0.1166
874.50 0.1166
874.60 0.1165
874.70 0.1165
874.80 0.1164
874.90 0.1164
875.00 0.1163
875.10 0.1162
875.20 0.1162
875.30 0.1161
875.40 0.1161
875.50 0.116
875.60 0.116
875.70 0.1159
875.80 0.1159
875.90 0.1158
876.00 0.1158
876.10 0.1157
876.20 0.1157
876.30 0.1156
876.40 0.1156
876.50 0.1155
876.60 0.1155
876.70 0.1154
876.80 0.1154
876.90 0.1153
877.00 0.1153
877.10 0.1152
877.20 0.1152
877.30 0.1151
877.40 0.1151
877.50 0.115
877.60 0.115
877.70 0.1149
877.80 0.1149
877.90 0.1148
878.00 0.1148
878.10 0.1147
878.20 0.1147
878.30 0.1146
878.40 0.1146
878.50 0.1145
878.60 0.1145
878.70 0.1144
878.80 0.1144
878.90 0.1143
879.00 0.1142
879.10 0.1142
879.20 0.1141
879.30 0.1141
879.40 0.114
879.50 0.114
879.60 0.1139
879.70 0.1139
879.80 0.1138
879.90 0.1138
880.00 0.1137
880.10 0.1137
880.20 0.1136
880.30 0.1136
880.40 0.1135
880.50 0.1135
880.60 0.1134
880.70 0.1134
880.80 0.1133
880.90 0.1133
881.00 0.1132
881.10 0.1132
881.20 0.1131
881.30 0.1131
881.40 0.113
881.50 0.113
881.60 0.1129
881.70 0.1129
881.80 0.1128
881.90 0.1128
882.00 0.1127
882.10 0.1127
882.20 0.1126
882.30 0.1126
882.40 0.1125
882.50 0.1125
882.60 0.1124
882.70 0.1124
882.80 0.1123
882.90 0.1123
883.00 0.1122
883.10 0.1122
883.20 0.1121
883.30 0.1121
883.40 0.112
883.50 0.112
883.60 0.1119
883.70 0.1119
883.80 0.1119
883.90 0.1118
884.00 0.1118
884.10 0.1117
884.20 0.1117
884.30 0.1116
884.40 0.1116
884.50 0.1115
884.60 0.1115
884.70 0.1114
884.80 0.1114
884.90 0.1113
885.00 0.1113
885.10 0.1112
885.20 0.1112
885.30 0.1111
885.40 0.1111
885.50 0.111
885.60 0.111
885.70 0.1109
885.80 0.1109
885.90 0.1108
886.00 0.1108
886.10 0.1107
886.20 0.1107
886.30 0.1106
886.40 0.1106
886.50 0.1105
886.60 0.1105
886.70 0.1104
886.80 0.1104
886.90 0.1103
887.00 0.1103
887.10 0.1102
887.20 0.1102
887.30 0.1101
887.40 0.1101
887.50 0.11
887.60 0.11
887.70 0.1099
887.80 0.1099
887.90 0.1098
888.00 0.1098
888.10 0.1098
888.20 0.1097
888.30 0.1097
888.40 0.1096
888.50 0.1096
888.60 0.1095
888.70 0.1095
888.80 0.1094
888.90 0.1094
889.00 0.1093
889.10 0.1093
889.20 0.1092
889.30 0.1092
889.40 0.1091
889.50 0.1091
889.60 0.109
889.70 0.109
889.80 0.1089
889.90 0.1089
890.00 0.1088
890.10 0.1088
890.20 0.1087
890.30 0.1087
890.40 0.1087
890.50 0.1086
890.60 0.1086
890.70 0.1085
890.80 0.1085
890.90 0.1084
891.00 0.1084
891.10 0.1083
891.20 0.1083
891.30 0.1082
891.40 0.1082
891.50 0.1081
891.60 0.1081
891.70 0.108
891.80 0.108
891.90 0.1079
892.00 0.1079
892.10 0.1078
892.20 0.1078
892.30 0.1078
892.40 0.1077
892.50 0.1077
892.60 0.1076
892.70 0.1076
892.80 0.1075
892.90 0.1075
893.00 0.1074
893.10 0.1074
893.20 0.1073
893.30 0.1073
893.40 0.1072
893.50 0.1072
893.60 0.1071
893.70 0.1071
893.80 0.1071
893.90 0.107
894.00 0.107
894.10 0.1069
894.20 0.1069
894.30 0.1068
894.40 0.1068
894.50 0.1067
894.60 0.1067
894.70 0.1066
894.80 0.1066
894.90 0.1065
895.00 0.1065
895.10 0.1065
895.20 0.1064
895.30 0.1064
895.40 0.1063
895.50 0.1063
895.60 0.1062
895.70 0.1062
895.80 0.1061
895.90 0.1061
896.00 0.106
896.10 0.106
896.20 0.1059
896.30 0.1059
896.40 0.1059
896.50 0.1058
896.60 0.1058
896.70 0.1057
896.80 0.1057
896.90 0.1056
897.00 0.1056
897.10 0.1055
897.20 0.1055
897.30 0.1054
897.40 0.1054
897.50 0.1053
897.60 0.1053
897.70 0.1053
897.80 0.1052
897.90 0.1052
898.00 0.1051
898.10 0.1051
898.20 0.105
898.30 0.105
898.40 0.1049
898.50 0.1049
898.60 0.1048
898.70 0.1048
898.80 0.1048
898.90 0.1047
899.00 0.1047
899.10 0.1046
899.20 0.1046
899.30 0.1045
899.40 0.1045
899.50 0.1044
899.60 0.1044
899.70 0.1044
899.80 0.1043
899.90 0.1043
900.00 0.1042
900.10 0.1042
900.20 0.1041
900.30 0.1041
900.40 0.104
900.50 0.104
900.60 0.1039
900.70 0.1039
900.80 0.1039
900.90 0.1038
901.00 0.1038
901.10 0.1037
901.20 0.1037
901.30 0.1036
901.40 0.1036
901.50 0.1035
901.60 0.1035
901.70 0.1035
901.80 0.1034
901.90 0.1034
902.00 0.1033
902.10 0.1033
902.20 0.1032
902.30 0.1032
902.40 0.1031
902.50 0.1031
902.60 0.1031
902.70 0.103
902.80 0.103
902.90 0.1029
903.00 0.1029
903.10 0.1028
903.20 0.1028
903.30 0.1027
903.40 0.1027
903.50 0.1027
903.60 0.1026
903.70 0.1026
903.80 0.1025
903.90 0.1025
904.00 0.1024
904.10 0.1024
904.20 0.1023
904.30 0.1023
904.40 0.1023
904.50 0.1022
904.60 0.1022
904.70 0.1021
904.80 0.1021
904.90 0.102
905.00 0.102
905.10 0.102
905.20 0.1019
905.30 0.1019
905.40 0.1018
905.50 0.1018
905.60 0.1017
905.70 0.1017
905.80 0.1016
905.90 0.1016
906.00 0.1016
906.10 0.1015
906.20 0.1015
906.30 0.1014
906.40 0.1014
906.50 0.1013
906.60 0.1013
906.70 0.1013
906.80 0.1012
906.90 0.1012
907.00 0.1011
907.10 0.1011
907.20 0.101
907.30 0.101
907.40 0.101
907.50 0.1009
907.60 0.1009
907.70 0.1008
907.80 0.1008
907.90 0.1007
908.00 0.1007
908.10 0.1007
908.20 0.1006
908.30 0.1006
908.40 0.1005
908.50 0.1005
908.60 0.1004
908.70 0.1004
908.80 0.1004
908.90 0.1003
909.00 0.1003
909.10 0.1002
909.20 0.1002
909.30 0.1001
909.40 0.1001
909.50 0.1001
909.60 0.1
909.70 0.09997
909.80 0.09992
909.90 0.09988
910.00 0.09984
910.10 0.0998
910.20 0.09975
910.30 0.09971
910.40 0.09967
910.50 0.09963
910.60 0.09958
910.70 0.09954
910.80 0.0995
910.90 0.09946
911.00 0.09941
911.10 0.09937
911.20 0.09933
911.30 0.09929
911.40 0.09924
911.50 0.0992
911.60 0.09916
911.70 0.09912
911.80 0.09907
911.90 0.09903
912.00 0.09899
912.10 0.09895
912.20 0.09891
912.30 0.09886
912.40 0.09882
912.50 0.09878
912.60 0.09874
912.70 0.0987
912.80 0.09865
912.90 0.09861
913.00 0.09857
913.10 0.09853
913.20 0.09849
913.30 0.09845
913.40 0.0984
913.50 0.09836
913.60 0.09832
913.70 0.09828
913.80 0.09824
913.90 0.0982
914.00 0.09815
914.10 0.09811
914.20 0.09807
914.30 0.09803
914.40 0.09799
914.50 0.09795
914.60 0.0979
914.70 0.09786
914.80 0.09782
914.90 0.09778
915.00 0.09774
915.10 0.0977
915.20 0.09766
915.30 0.09761
915.40 0.09757
915.50 0.09753
915.60 0.09749
915.70 0.09745
915.80 0.09741
915.90 0.09737
916.00 0.09732
916.10 0.09728
916.20 0.09724
916.30 0.0972
916.40 0.09716
916.50 0.09712
916.60 0.09708
916.70 0.09704
916.80 0.09699
916.90 0.09695
917.00 0.09691
917.10 0.09687
917.20 0.09683
917.30 0.09679
917.40 0.09675
917.50 0.09671
917.60 0.09667
917.70 0.09663
917.80 0.09659
917.90 0.09655
918.00 0.09651
918.10 0.09646
918.20 0.09642
918.30 0.09638
918.40 0.09634
918.50 0.0963
918.60 0.09626
918.70 0.09622
918.80 0.09618
918.90 0.09614
919.00 0.0961
919.10 0.09606
919.20 0.09602
919.30 0.09598
919.40 0.09594
919.50 0.0959
919.60 0.09586
919.70 0.09582
919.80 0.09578
919.90 0.09574
920.00 0.0957
920.10 0.09566
920.20 0.09562
920.30 0.09558
920.40 0.09554
920.50 0.0955
920.60 0.09546
920.70 0.09542
920.80 0.09538
920.90 0.09534
921.00 0.0953
921.10 0.09526
921.20 0.09521
921.30 0.09517
921.40 0.09513
921.50 0.09509
921.60 0.09505
921.70 0.09501
921.80 0.09497
921.90 0.09493
922.00 0.09489
922.10 0.09486
922.20 0.09482
922.30 0.09478
922.40 0.09474
922.50 0.0947
922.60 0.09466
922.70 0.09462
922.80 0.09458
922.90 0.09454
923.00 0.0945
923.10 0.09446
923.20 0.09442
923.30 0.09438
923.40 0.09434
923.50 0.0943
923.60 0.09426
923.70 0.09422
923.80 0.09418
923.90 0.09414
924.00 0.0941
924.10 0.09406
924.20 0.09403
924.30 0.09399
924.40 0.09395
924.50 0.09391
924.60 0.09387
924.70 0.09383
924.80 0.09379
924.90 0.09375
925.00 0.09371
925.10 0.09367
925.20 0.09363
925.30 0.09359
925.40 0.09355
925.50 0.09351
925.60 0.09348
925.70 0.09344
925.80 0.0934
925.90 0.09336
926.00 0.09332
926.10 0.09328
926.20 0.09324
926.30 0.0932
926.40 0.09316
926.50 0.09312
926.60 0.09308
926.70 0.09305
926.80 0.09301
926.90 0.09297
927.00 0.09293
927.10 0.09289
927.20 0.09285
927.30 0.09281
927.40 0.09277
927.50 0.09274
927.60 0.0927
927.70 0.09266
927.80 0.09262
927.90 0.09258
928.00 0.09254
928.10 0.09251
928.20 0.09247
928.30 0.09243
928.40 0.09239
928.50 0.09235
928.60 0.09231
928.70 0.09228
928.80 0.09224
928.90 0.0922
929.00 0.09216
929.10 0.09212
929.20 0.09208
929.30 0.09205
929.40 0.09201
929.50 0.09197
929.60 0.09193
929.70 0.09189
929.80 0.09185
929.90 0.09182
930.00 0.09178
930.10 0.09174
930.20 0.0917
930.30 0.09166
930.40 0.09163
930.50 0.09159
930.60 0.09155
930.70 0.09151
930.80 0.09147
930.90 0.09143
931.00 0.0914
931.10 0.09136
931.20 0.09132
931.30 0.09128
931.40 0.09124
931.50 0.09121
931.60 0.09117
931.70 0.09113
931.80 0.09109
931.90 0.09106
932.00 0.09102
932.10 0.09098
932.20 0.09094
932.30 0.0909
932.40 0.09087
932.50 0.09083
932.60 0.09079
932.70 0.09075
932.80 0.09072
932.90 0.09068
933.00 0.09064
933.10 0.0906
933.20 0.09057
933.30 0.09053
933.40 0.09049
933.50 0.09045
933.60 0.09042
933.70 0.09038
933.80 0.09034
933.90 0.0903
934.00 0.09027
934.10 0.09023
934.20 0.09019
934.30 0.09015
934.40 0.09012
934.50 0.09008
934.60 0.09004
934.70 0.09
934.80 0.08997
934.90 0.08993
935.00 0.08989
935.10 0.08985
935.20 0.08982
935.30 0.08978
935.40 0.08974
935.50 0.08971
935.60 0.08967
935.70 0.08963
935.80 0.08959
935.90 0.08956
936.00 0.08952
936.10 0.08948
936.20 0.08945
936.30 0.08941
936.40 0.08937
936.50 0.08933
936.60 0.0893
936.70 0.08926
936.80 0.08922
936.90 0.08919
937.00 0.08915
937.10 0.08911
937.20 0.08908
937.30 0.08904
937.40 0.089
937.50 0.08896
937.60 0.08893
937.70 0.08889
937.80 0.08885
937.90 0.08882
938.00 0.08878
938.10 0.08874
938.20 0.08871
938.30 0.08867
938.40 0.08863
938.50 0.0886
938.60 0.08856
938.70 0.08852
938.80 0.08849
938.90 0.08845
939.00 0.08841
939.10 0.08838
939.20 0.08834
939.30 0.0883
939.40 0.08827
939.50 0.08823
939.60 0.08819
939.70 0.08816
939.80 0.08812
939.90 0.08808
940.00 0.08805
940.10 0.08801
940.20 0.08797
940.30 0.08794
940.40 0.0879
940.50 0.08786
940.60 0.08783
940.70 0.08779
940.80 0.08775
940.90 0.08772
941.00 0.08768
941.10 0.08765
941.20 0.08761
941.30 0.08757
941.40 0.08754
941.50 0.0875
941.60 0.08746
941.70 0.08743
941.80 0.08739
941.90 0.08735
942.00 0.08732
942.10 0.08728
942.20 0.08725
942.30 0.08721
942.40 0.08717
942.50 0.08714
942.60 0.0871
942.70 0.08707
942.80 0.08703
942.90 0.08699
943.00 0.08696
943.10 0.08692
943.20 0.08689
943.30 0.08685
943.40 0.08681
943.50 0.08678
943.60 0.08674
943.70 0.08671
943.80 0.08667
943.90 0.08663
944.00 0.0866
944.10 0.08656
944.20 0.08653
944.30 0.08649
944.40 0.08645
944.50 0.08642
944.60 0.08638
944.70 0.08635
944.80 0.08631
944.90 0.08627
945.00 0.08624
945.10 0.0862
945.20 0.08617
945.30 0.08613
945.40 0.0861
945.50 0.08606
945.60 0.08602
945.70 0.08599
945.80 0.08595
945.90 0.08592
946.00 0.08588
946.10 0.08585
946.20 0.08581
946.30 0.08578
946.40 0.08574
946.50 0.0857
946.60 0.08567
946.70 0.08563
946.80 0.0856
946.90 0.08556
947.00 0.08553
947.10 0.08549
947.20 0.08546
947.30 0.08542
947.40 0.08538
947.50 0.08535
947.60 0.08531
947.70 0.08528
947.80 0.08524
947.90 0.08521
948.00 0.08517
948.10 0.08514
948.20 0.0851
948.30 0.08507
948.40 0.08503
948.50 0.085
948.60 0.08496
948.70 0.08493
948.80 0.08489
948.90 0.08486
949.00 0.08482
949.10 0.08479
949.20 0.08475
949.30 0.08472
949.40 0.08468
949.50 0.08465
949.60 0.08461
949.70 0.08458
949.80 0.08454
949.90 0.08451
950.00 0.08447
950.10 0.08444
950.20 0.0844
950.30 0.08437
950.40 0.08433
950.50 0.0843
950.60 0.08426
950.70 0.08423
950.80 0.08419
950.90 0.08416
951.00 0.08413
951.10 0.08409
951.20 0.08406
951.30 0.08402
951.40 0.08399
951.50 0.08395
951.60 0.08392
951.70 0.08388
951.80 0.08385
951.90 0.08382
952.00 0.08378
952.10 0.08375
952.20 0.08371
952.30 0.08368
952.40 0.08365
952.50 0.08361
952.60 0.08358
952.70 0.08354
952.80 0.08351
952.90 0.08348
953.00 0.08344
953.10 0.08341
953.20 0.08337
953.30 0.08334
953.40 0.08331
953.50 0.08327
953.60 0.08324
953.70 0.08321
953.80 0.08317
953.90 0.08314
954.00 0.08311
954.10 0.08307
954.20 0.08304
954.30 0.08301
954.40 0.08297
954.50 0.08294
954.60 0.08291
954.70 0.08287
954.80 0.08284
954.90 0.08281
955.00 0.08277
955.10 0.08274
955.20 0.08271
955.30 0.08267
955.40 0.08264
955.50 0.0826
955.60 0.08257
955.70 0.08254
955.80 0.0825
955.90 0.08247
956.00 0.08244
956.10 0.08241
956.20 0.08237
956.30 0.08234
956.40 0.08231
956.50 0.08227
956.60 0.08224
956.70 0.08221
956.80 0.08217
956.90 0.08214
957.00 0.08211
957.10 0.08208
957.20 0.08204
957.30 0.08201
957.40 0.08198
957.50 0.08195
957.60 0.08191
957.70 0.08188
957.80 0.08185
957.90 0.08182
958.00 0.08178
958.10 0.08175
958.20 0.08172
958.30 0.08169
958.40 0.08165
958.50 0.08162
958.60 0.08159
958.70 0.08156
958.80 0.08152
958.90 0.08149
959.00 0.08146
959.10 0.08143
959.20 0.0814
959.30 0.08136
959.40 0.08133
959.50 0.0813
959.60 0.08127
959.70 0.08123
959.80 0.0812
959.90 0.08117
960.00 0.08114
960.10 0.08111
960.20 0.08107
960.30 0.08104
960.40 0.08101
960.50 0.08098
960.60 0.08095
960.70 0.08092
960.80 0.08088
960.90 0.08085
961.00 0.08082
961.10 0.08079
961.20 0.08076
961.30 0.08072
961.40 0.08069
961.50 0.08066
961.60 0.08063
961.70 0.0806
961.80 0.08057
961.90 0.08053
962.00 0.0805
962.10 0.08047
962.20 0.08044
962.30 0.08041
962.40 0.08038
962.50 0.08034
962.60 0.08031
962.70 0.08028
962.80 0.08025
962.90 0.08022
963.00 0.08019
963.10 0.08015
963.20 0.08012
963.30 0.08009
963.40 0.08006
963.50 0.08003
963.60 0.08
963.70 0.07997
963.80 0.07993
963.90 0.0799
964.00 0.07987
964.10 0.07984
964.20 0.07981
964.30 0.07978
964.40 0.07975
964.50 0.07971
964.60 0.07968
964.70 0.07965
964.80 0.07962
964.90 0.07959
965.00 0.07956
965.10 0.07953
965.20 0.07949
965.30 0.07946
965.40 0.07943
965.50 0.0794
965.60 0.07937
965.70 0.07934
965.80 0.07931
965.90 0.07928
966.00 0.07924
966.10 0.07921
966.20 0.07918
966.30 0.07915
966.40 0.07912
966.50 0.07909
966.60 0.07906
966.70 0.07903
966.80 0.07899
966.90 0.07896
967.00 0.07893
967.10 0.0789
967.20 0.07887
967.30 0.07884
967.40 0.07881
967.50 0.07878
967.60 0.07875
967.70 0.07871
967.80 0.07868
967.90 0.07865
968.00 0.07862
968.10 0.07859
968.20 0.07856
968.30 0.07853
968.40 0.0785
968.50 0.07847
968.60 0.07844
968.70 0.0784
968.80 0.07837
968.90 0.07834
969.00 0.07831
969.10 0.07828
969.20 0.07825
969.30 0.07822
969.40 0.07819
969.50 0.07816
969.60 0.07813
969.70 0.07809
969.80 0.07806
969.90 0.07803
970.00 0.078
970.10 0.07797
970.20 0.07794
970.30 0.07791
970.40 0.07788
970.50 0.07785
970.60 0.07782
970.70 0.07779
970.80 0.07775
970.90 0.07772
971.00 0.07769
971.10 0.07766
971.20 0.07763
971.30 0.0776
971.40 0.07757
971.50 0.07754
971.60 0.07751
971.70 0.07748
971.80 0.07745
971.90 0.07742
972.00 0.07738
972.10 0.07735
972.20 0.07732
972.30 0.07729
972.40 0.07726
972.50 0.07723
972.60 0.0772
972.70 0.07717
972.80 0.07714
972.90 0.07711
973.00 0.07708
973.10 0.07705
973.20 0.07702
973.30 0.07699
973.40 0.07695
973.50 0.07692
973.60 0.07689
973.70 0.07686
973.80 0.07683
973.90 0.0768
974.00 0.07677
974.10 0.07674
974.20 0.07671
974.30 0.07668
974.40 0.07665
974.50 0.07662
974.60 0.07659
974.70 0.07656
974.80 0.07653
974.90 0.0765
975.00 0.07646
975.10 0.07643
975.20 0.0764
975.30 0.07637
975.40 0.07634
975.50 0.07631
975.60 0.07628
975.70 0.07625
975.80 0.07622
975.90 0.07619
976.00 0.07616
976.10 0.07613
976.20 0.0761
976.30 0.07607
976.40 0.07604
976.50 0.07601
976.60 0.07598
976.70 0.07595
976.80 0.07592
976.90 0.07589
977.00 0.07586
977.10 0.07582
977.20 0.07579
977.30 0.07576
977.40 0.07573
977.50 0.0757
977.60 0.07567
977.70 0.07564
977.80 0.07561
977.90 0.07558
978.00 0.07555
978.10 0.07552
978.20 0.07549
978.30 0.07546
978.40 0.07543
978.50 0.0754
978.60 0.07537
978.70 0.07534
978.80 0.07531
978.90 0.07528
979.00 0.07525
979.10 0.07521
979.20 0.07518
979.30 0.07515
979.40 0.07512
979.50 0.07509
979.60 0.07506
979.70 0.07503
979.80 0.075
979.90 0.07497
980.00 0.07494
980.10 0.07491
980.20 0.07488
980.30 0.07485
980.40 0.07482
980.50 0.07479
980.60 0.07476
980.70 0.07473
980.80 0.0747
980.90 0.07467
981.00 0.07464
981.10 0.07461
981.20 0.07458
981.30 0.07455
981.40 0.07452
981.50 0.07449
981.60 0.07446
981.70 0.07443
981.80 0.0744
981.90 0.07437
982.00 0.07434
982.10 0.07431
982.20 0.07428
982.30 0.07425
982.40 0.07422
982.50 0.07419
982.60 0.07416
982.70 0.07413
982.80 0.0741
982.90 0.07407
983.00 0.07404
983.10 0.07401
983.20 0.07398
983.30 0.07395
983.40 0.07392
983.50 0.07389
983.60 0.07386
983.70 0.07382
983.80 0.07379
983.90 0.07376
984.00 0.07373
984.10 0.0737
984.20 0.07367
984.30 0.07364
984.40 0.07361
984.50 0.07358
984.60 0.07355
984.70 0.07352
984.80 0.07349
984.90 0.07346
985.00 0.07343
985.10 0.0734
985.20 0.07337
985.30 0.07334
985.40 0.07331
985.50 0.07328
985.60 0.07325
985.70 0.07322
985.80 0.07319
985.90 0.07316
986.00 0.07313
986.10 0.0731
986.20 0.07307
986.30 0.07304
986.40 0.07301
986.50 0.07298
986.60 0.07295
986.70 0.07292
986.80 0.07289
986.90 0.07286
987.00 0.07283
987.10 0.0728
987.20 0.07277
987.30 0.07274
987.40 0.07271
987.50 0.07268
987.60 0.07265
987.70 0.07262
987.80 0.07259
987.90 0.07256
988.00 0.07253
988.10 0.0725
988.20 0.07247
988.30 0.07244
988.40 0.07241
988.50 0.07238
988.60 0.07235
988.70 0.07232
988.80 0.07229
988.90 0.07226
989.00 0.07223
989.10 0.0722
989.20 0.07217
989.30 0.07214
989.40 0.07211
989.50 0.07208
989.60 0.07205
989.70 0.07202
989.80 0.07199
989.90 0.07196
990.00 0.07193
990.10 0.0719
990.20 0.07187
990.30 0.07184
990.40 0.07181
990.50 0.07178
990.60 0.07175
990.70 0.07172
990.80 0.07169
990.90 0.07166
991.00 0.07163
991.10 0.0716
991.20 0.07157
991.30 0.07154
991.40 0.07151
991.50 0.07148
991.60 0.07145
991.70 0.07142
991.80 0.07139
991.90 0.07136
992.00 0.07133
992.10 0.0713
992.20 0.07127
992.30 0.07124
992.40 0.07122
992.50 0.07119
992.60 0.07116
992.70 0.07113
992.80 0.0711
992.90 0.07107
993.00 0.07104
993.10 0.07101
993.20 0.07098
993.30 0.07095
993.40 0.07092
993.50 0.07089
993.60 0.07086
993.70 0.07083
993.80 0.0708
993.90 0.07077
994.00 0.07074
994.10 0.07071
994.20 0.07068
994.30 0.07065
994.40 0.07062
994.50 0.07059
994.60 0.07056
994.70 0.07053
994.80 0.0705
994.90 0.07047
995.00 0.07044
995.10 0.07041
995.20 0.07038
995.30 0.07035
995.40 0.07032
995.50 0.07029
995.60 0.07026
995.70 0.07023
995.80 0.0702
995.90 0.07017
996.00 0.07014
996.10 0.07011
996.20 0.07008
996.30 0.07005
996.40 0.07003
996.50 0.07
996.60 0.06997
996.70 0.06994
996.80 0.06991
996.90 0.06988
997.00 0.06985
997.10 0.06982
997.20 0.06979
997.30 0.06976
997.40 0.06973
997.50 0.0697
997.60 0.06967
997.70 0.06964
997.80 0.06961
997.90 0.06958
998.00 0.06955
998.10 0.06953
998.20 0.0695
998.30 0.06947
998.40 0.06944
998.50 0.06941
998.60 0.06938
998.70 0.06935
998.80 0.06932
998.90 0.06929
999.00 0.06926
999.10 0.06923
999.20 0.06921
999.30 0.06918
999.40 0.06915
999.50 0.06912
999.60 0.06909
999.70 0.06906
999.80 0.06903
999.90 0.069
1000.00 0.06897
1000.10 0.06894
1000.20 0.06891
1000.30 0.06888
1000.40 0.06885
1000.50 0.06882
1000.60 0.06879
1000.70 0.06876
1000.80 0.06873
1000.90 0.0687
1001.00 0.06867
1001.10 0.06864
1001.20 0.06861
1001.30 0.06858
1001.40 0.06855
1001.50 0.06852
1001.60 0.06849
1001.70 0.06847
1001.80 0.06844
1001.90 0.06841
1002.00 0.06838
1002.10 0.06836
1002.20 0.06833
1002.30 0.06831
1002.40 0.06828
1002.50 0.06825
1002.60 0.06823
1002.70 0.0682
1002.80 0.06817
1002.90 0.06815
1003.00 0.06812
1003.10 0.06809
1003.20 0.06807
1003.30 0.06804
1003.40 0.06802
1003.50 0.06799
1003.60 0.06797
1003.70 0.06794
1003.80 0.06792
1003.90 0.06789
1004.00 0.06787
1004.10 0.06785
1004.20 0.06782
1004.30 0.0678
1004.40 0.06777
1004.50 0.06775
1004.60 0.06773
1004.70 0.0677
1004.80 0.06768
1004.90 0.06765
1005.00 0.06763
1005.10 0.0676
1005.20 0.06757
1005.30 0.06754
1005.40 0.06752
1005.50 0.06749
1005.60 0.06746
1005.70 0.06743
1005.80 0.06741
1005.90 0.06738
1006.00 0.06735
1006.10 0.06732
1006.20 0.0673
1006.30 0.06727
1006.40 0.06724
1006.50 0.06722
1006.60 0.06719
1006.70 0.06716
1006.80 0.06714
1006.90 0.06711
1007.00 0.06709
1007.10 0.06706
1007.20 0.06703
1007.30 0.06701
1007.40 0.06698
1007.50 0.06696
1007.60 0.06693
1007.70 0.06691
1007.80 0.06689
1007.90 0.06686
1008.00 0.06684
1008.10 0.06681
1008.20 0.06679
1008.30 0.06676
1008.40 0.06674
1008.50 0.06672
1008.60 0.06669
1008.70 0.06667
1008.80 0.06664
1008.90 0.06662
1009.00 0.0666
1009.10 0.06657
1009.20 0.06655
1009.30 0.06652
1009.40 0.0665
1009.50 0.06648
1009.60 0.06645
1009.70 0.06643
1009.80 0.06641
1009.90 0.06638
1010.00 0.06636
1010.10 0.06634
1010.20 0.06631
1010.30 0.06629
1010.40 0.06627
1010.50 0.06624
1010.60 0.06622
1010.70 0.0662
1010.80 0.06618
1010.90 0.06615
1011.00 0.06613
1011.10 0.06611
1011.20 0.06608
1011.30 0.06606
1011.40 0.06604
1011.50 0.06601
1011.60 0.06599
1011.70 0.06597
1011.80 0.06595
1011.90 0.06592
1012.00 0.0659
1012.10 0.06588
1012.20 0.06585
1012.30 0.06583
1012.40 0.06581
1012.50 0.06579
1012.60 0.06576
1012.70 0.06574
1012.80 0.06572
1012.90 0.0657
1013.00 0.06567
1013.10 0.06565
1013.20 0.06563
1013.30 0.06561
1013.40 0.06558
1013.50 0.06556
1013.60 0.06554
1013.70 0.06552
1013.80 0.06549
1013.90 0.06547
1014.00 0.06545
1014.10 0.06542
1014.20 0.0654
1014.30 0.06538
1014.40 0.06536
1014.50 0.06533
1014.60 0.06531
1014.70 0.06529
1014.80 0.06527
1014.90 0.06524
1015.00 0.06522
1015.10 0.0652
1015.20 0.06518
1015.30 0.06515
1015.40 0.06513
1015.50 0.06511
1015.60 0.06509
1015.70 0.06506
1015.80 0.06504
1015.90 0.06502
1016.00 0.065
1016.10 0.06497
1016.20 0.06495
1016.30 0.06493
1016.40 0.06491
1016.50 0.06488
1016.60 0.06486
1016.70 0.06484
1016.80 0.06482
1016.90 0.06479
1017.00 0.06477
1017.10 0.06475
1017.20 0.06473
1017.30 0.0647
1017.40 0.06468
1017.50 0.06466
1017.60 0.06464
1017.70 0.06461
1017.80 0.06459
1017.90 0.06457
1018.00 0.06455
1018.10 0.06452
1018.20 0.0645
1018.30 0.06448
1018.40 0.06445
1018.50 0.06443
1018.60 0.06441
1018.70 0.06439
1018.80 0.06436
1018.90 0.06434
1019.00 0.06432
1019.10 0.0643
1019.20 0.06427
1019.30 0.06425
1019.40 0.06423
1019.50 0.06421
1019.60 0.06418
1019.70 0.06416
1019.80 0.06414
1019.90 0.06412
1020.00 0.06409
1020.10 0.06407
1020.20 0.06405
1020.30 0.06403
1020.40 0.064
1020.50 0.06398
1020.60 0.06396
1020.70 0.06394
1020.80 0.06391
1020.90 0.06389
1021.00 0.06387
1021.10 0.06385
1021.20 0.06382
1021.30 0.0638
1021.40 0.06378
1021.50 0.06376
1021.60 0.06373
1021.70 0.06371
1021.80 0.06369
1021.90 0.06367
1022.00 0.06364
1022.10 0.06362
1022.20 0.0636
1022.30 0.06357
1022.40 0.06355
1022.50 0.06353
1022.60 0.06351
1022.70 0.06348
1022.80 0.06346
1022.90 0.06344
1023.00 0.06342
1023.10 0.06339
1023.20 0.06337
1023.30 0.06335
1023.40 0.06333
1023.50 0.0633
1023.60 0.06328
1023.70 0.06326
1023.80 0.06324
1023.90 0.06321
1024.00 0.06319
1024.10 0.06317
1024.20 0.06315
1024.30 0.06312
1024.40 0.0631
1024.50 0.06308
1024.60 0.06306
1024.70 0.06303
1024.80 0.06301
1024.90 0.06299
1025.00 0.06297
1025.10 0.06294
1025.20 0.06292
1025.30 0.0629
1025.40 0.06287
1025.50 0.06285
1025.60 0.06283
1025.70 0.06281
1025.80 0.06278
1025.90 0.06276
1026.00 0.06274
1026.10 0.06272
1026.20 0.06269
1026.30 0.06267
1026.40 0.06265
1026.50 0.06263
1026.60 0.0626
1026.70 0.06258
1026.80 0.06256
1026.90 0.06254
1027.00 0.06251
1027.10 0.06249
1027.20 0.06247
1027.30 0.06245
1027.40 0.06242
1027.50 0.0624
1027.60 0.06238
1027.70 0.06236
1027.80 0.06233
1027.90 0.06231
1028.00 0.06229
1028.10 0.06227
1028.20 0.06224
1028.30 0.06222
1028.40 0.0622
1028.50 0.06217
1028.60 0.06215
1028.70 0.06213
1028.80 0.06211
1028.90 0.06208
1029.00 0.06206
1029.10 0.06204
1029.20 0.06202
1029.30 0.06199
1029.40 0.06197
1029.50 0.06195
1029.60 0.06193
1029.70 0.0619
1029.80 0.06188
1029.90 0.06186
1030.00 0.06184
1030.10 0.06181
1030.20 0.06179
1030.30 0.06177
1030.40 0.06175
1030.50 0.06173
1030.60 0.0617
1030.70 0.06168
1030.80 0.06166
1030.90 0.06164
1031.00 0.06161
1031.10 0.06159
1031.20 0.06157
1031.30 0.06155
1031.40 0.06152
1031.50 0.0615
1031.60 0.06148
1031.70 0.06146
1031.80 0.06143
1031.90 0.06141
1032.00 0.06139
1032.10 0.06137
1032.20 0.06134
1032.30 0.06132
1032.40 0.0613
1032.50 0.06128
1032.60 0.06125
1032.70 0.06123
1032.80 0.06121
1032.90 0.06119
1033.00 0.06116
1033.10 0.06114
1033.20 0.06112
1033.30 0.0611
1033.40 0.06108
1033.50 0.06105
1033.60 0.06103
1033.70 0.06101
1033.80 0.06099
1033.90 0.06096
1034.00 0.06094
1034.10 0.06092
1034.20 0.0609
1034.30 0.06087
1034.40 0.06085
1034.50 0.06083
1034.60 0.06081
1034.70 0.06078
1034.80 0.06076
1034.90 0.06074
1035.00 0.06072
1035.10 0.0607
1035.20 0.06067
1035.30 0.06065
1035.40 0.06063
1035.50 0.06061
1035.60 0.06058
1035.70 0.06056
1035.80 0.06054
1035.90 0.06052
1036.00 0.06049
1036.10 0.06047
1036.20 0.06045
1036.30 0.06043
1036.40 0.06041
1036.50 0.06038
1036.60 0.06036
1036.70 0.06034
1036.80 0.06032
1036.90 0.0603
1037.00 0.06027
1037.10 0.06025
1037.20 0.06023
1037.30 0.06021
1037.40 0.06018
1037.50 0.06016
1037.60 0.06014
1037.70 0.06012
1037.80 0.0601
1037.90 0.06007
1038.00 0.06005
1038.10 0.06003
1038.20 0.06001
1038.30 0.05998
1038.40 0.05996
1038.50 0.05994
1038.60 0.05992
1038.70 0.0599
1038.80 0.05987
1038.90 0.05985
1039.00 0.05983
1039.10 0.05981
1039.20 0.05978
1039.30 0.05976
1039.40 0.05974
1039.50 0.05972
1039.60 0.0597
1039.70 0.05967
1039.80 0.05965
1039.90 0.05963
1040.00 0.05961
1040.10 0.05959
1040.20 0.05956
1040.30 0.05954
1040.40 0.05952
1040.50 0.0595
1040.60 0.05948
1040.70 0.05945
1040.80 0.05943
1040.90 0.05941
1041.00 0.05939
1041.10 0.05937
1041.20 0.05934
1041.30 0.05932
1041.40 0.0593
1041.50 0.05928
1041.60 0.05926
1041.70 0.05923
1041.80 0.05921
1041.90 0.05919
1042.00 0.05917
1042.10 0.05915
1042.20 0.05912
1042.30 0.0591
1042.40 0.05908
1042.50 0.05906
1042.60 0.05904
1042.70 0.05901
1042.80 0.05899
1042.90 0.05897
1043.00 0.05895
1043.10 0.05893
1043.20 0.0589
1043.30 0.05888
1043.40 0.05886
1043.50 0.05884
1043.60 0.05882
1043.70 0.05879
1043.80 0.05877
1043.90 0.05875
1044.00 0.05873
1044.10 0.05871
1044.20 0.05869
1044.30 0.05866
1044.40 0.05864
1044.50 0.05862
1044.60 0.0586
1044.70 0.05858
1044.80 0.05855
1044.90 0.05853
1045.00 0.05851
1045.10 0.05849
1045.20 0.05847
1045.30 0.05844
1045.40 0.05842
1045.50 0.0584
1045.60 0.05838
1045.70 0.05836
1045.80 0.05834
1045.90 0.05831
1046.00 0.05829
1046.10 0.05827
1046.20 0.05825
1046.30 0.05823
1046.40 0.05821
1046.50 0.05818
1046.60 0.05816
1046.70 0.05814
1046.80 0.05812
1046.90 0.0581
1047.00 0.05808
1047.10 0.05805
1047.20 0.05803
1047.30 0.05801
1047.40 0.05799
1047.50 0.05797
1047.60 0.05794
1047.70 0.05792
1047.80 0.0579
1047.90 0.05788
1048.00 0.05786
1048.10 0.05784
1048.20 0.05781
1048.30 0.05779
1048.40 0.05777
1048.50 0.05775
1048.60 0.05773
1048.70 0.05771
1048.80 0.05768
1048.90 0.05766
1049.00 0.05764
1049.10 0.05762
1049.20 0.0576
1049.30 0.05758
1049.40 0.05755
1049.50 0.05753
1049.60 0.05751
1049.70 0.05749
1049.80 0.05747
1049.90 0.05745
1050.00 0.05743
1050.10 0.0574
1050.20 0.05738
1050.30 0.05736
1050.40 0.05734
1050.50 0.05732
1050.60 0.0573
1050.70 0.05727
1050.80 0.05725
1050.90 0.05723
1051.00 0.05721
1051.10 0.05719
1051.20 0.05717
1051.30 0.05715
1051.40 0.05712
1051.50 0.0571
1051.60 0.05708
1051.70 0.05706
1051.80 0.05704
1051.90 0.05702
1052.00 0.057
1052.10 0.05697
1052.20 0.05695
1052.30 0.05693
1052.40 0.05691
1052.50 0.05689
1052.60 0.05687
1052.70 0.05684
1052.80 0.05682
1052.90 0.0568
1053.00 0.05678
1053.10 0.05676
1053.20 0.05674
1053.30 0.05672
1053.40 0.05669
1053.50 0.05667
1053.60 0.05665
1053.70 0.05663
1053.80 0.05661
1053.90 0.05659
1054.00 0.05657
1054.10 0.05654
1054.20 0.05652
1054.30 0.0565
1054.40 0.05648
1054.50 0.05646
1054.60 0.05644
1054.70 0.05642
1054.80 0.05639
1054.90 0.05637
1055.00 0.05635
1055.10 0.05633
1055.20 0.05631
1055.30 0.05629
1055.40 0.05627
1055.50 0.05625
1055.60 0.05622
1055.70 0.0562
1055.80 0.05618
1055.90 0.05616
1056.00 0.05614
1056.10 0.05612
1056.20 0.0561
1056.30 0.05608
1056.40 0.05605
1056.50 0.05603
1056.60 0.05601
1056.70 0.05599
1056.80 0.05597
1056.90 0.05595
1057.00 0.05593
1057.10 0.05591
1057.20 0.05588
1057.30 0.05586
1057.40 0.05584
1057.50 0.05582
1057.60 0.0558
1057.70 0.05578
1057.80 0.05576
1057.90 0.05573
1058.00 0.05571
1058.10 0.05569
1058.20 0.05567
1058.30 0.05565
1058.40 0.05563
1058.50 0.05561
1058.60 0.05559
1058.70 0.05556
1058.80 0.05554
1058.90 0.05552
1059.00 0.0555
1059.10 0.05548
1059.20 0.05546
1059.30 0.05544
1059.40 0.05542
1059.50 0.05539
1059.60 0.05537
1059.70 0.05535
1059.80 0.05533
1059.90 0.05531
1060.00 0.05529
1060.10 0.05527
1060.20 0.05525
1060.30 0.05523
1060.40 0.0552
1060.50 0.05518
1060.60 0.05516
1060.70 0.05514
1060.80 0.05512
1060.90 0.0551
1061.00 0.05508
1061.10 0.05506
1061.20 0.05504
1061.30 0.05501
1061.40 0.05499
1061.50 0.05497
1061.60 0.05495
1061.70 0.05493
1061.80 0.05491
1061.90 0.05489
1062.00 0.05487
1062.10 0.05485
1062.20 0.05482
1062.30 0.0548
1062.40 0.05478
1062.50 0.05476
1062.60 0.05474
1062.70 0.05472
1062.80 0.0547
1062.90 0.05468
1063.00 0.05465
1063.10 0.05463
1063.20 0.05461
1063.30 0.05459
1063.40 0.05457
1063.50 0.05455
1063.60 0.05453
1063.70 0.05451
1063.80 0.05448
1063.90 0.05446
1064.00 0.05444
1064.10 0.05442
1064.20 0.0544
1064.30 0.05438
1064.40 0.05436
1064.50 0.05434
1064.60 0.05432
1064.70 0.05429
1064.80 0.05427
1064.90 0.05425
1065.00 0.05423
1065.10 0.05421
1065.20 0.05419
1065.30 0.05417
1065.40 0.05415
1065.50 0.05413
1065.60 0.0541
1065.70 0.05408
1065.80 0.05406
1065.90 0.05404
1066.00 0.05402
1066.10 0.054
1066.20 0.05398
1066.30 0.05396
1066.40 0.05394
1066.50 0.05391
1066.60 0.05389
1066.70 0.05387
1066.80 0.05385
1066.90 0.05383
1067.00 0.05381
1067.10 0.05379
1067.20 0.05377
1067.30 0.05375
1067.40 0.05372
1067.50 0.0537
1067.60 0.05368
1067.70 0.05366
1067.80 0.05364
1067.90 0.05362
1068.00 0.0536
1068.10 0.05357
1068.20 0.05355
1068.30 0.05353
1068.40 0.05351
1068.50 0.05349
1068.60 0.05347
1068.70 0.05345
1068.80 0.05343
1068.90 0.0534
1069.00 0.05338
1069.10 0.05336
1069.20 0.05334
1069.30 0.05332
1069.40 0.0533
1069.50 0.05328
1069.60 0.05326
1069.70 0.05323
1069.80 0.05321
1069.90 0.05319
1070.00 0.05317
1070.10 0.05315
1070.20 0.05313
1070.30 0.05311
1070.40 0.05309
1070.50 0.05307
1070.60 0.05304
1070.70 0.05302
1070.80 0.053
1070.90 0.05298
1071.00 0.05296
1071.10 0.05294
1071.20 0.05292
1071.30 0.0529
1071.40 0.05287
1071.50 0.05285
1071.60 0.05283
1071.70 0.05281
1071.80 0.05279
1071.90 0.05277
1072.00 0.05275
1072.10 0.05273
1072.20 0.05271
1072.30 0.05268
1072.40 0.05266
1072.50 0.05264
1072.60 0.05262
1072.70 0.0526
1072.80 0.05258
1072.90 0.05256
1073.00 0.05253
1073.10 0.05251
1073.20 0.05249
1073.30 0.05247
1073.40 0.05245
1073.50 0.05243
1073.60 0.05241
1073.70 0.05238
1073.80 0.05236
1073.90 0.05234
1074.00 0.05232
1074.10 0.0523
1074.20 0.05228
1074.30 0.05225
1074.40 0.05223
1074.50 0.05221
1074.60 0.05219
1074.70 0.05217
1074.80 0.05215
1074.90 0.05212
1075.00 0.0521
1075.10 0.05208
1075.20 0.05206
1075.30 0.05204
1075.40 0.05202
1075.50 0.052
1075.60 0.05197
1075.70 0.05195
1075.80 0.05193
1075.90 0.05191
1076.00 0.05189
1076.10 0.05187
1076.20 0.05185
1076.30 0.05182
1076.40 0.0518
1076.50 0.05178
1076.60 0.05176
1076.70 0.05174
1076.80 0.05172
1076.90 0.05169
1077.00 0.05167
1077.10 0.05165
1077.20 0.05163
1077.30 0.05161
1077.40 0.05159
1077.50 0.05156
1077.60 0.05154
1077.70 0.05152
1077.80 0.0515
1077.90 0.05148
1078.00 0.05146
1078.10 0.05143
1078.20 0.05141
1078.30 0.05139
1078.40 0.05137
1078.50 0.05135
1078.60 0.05132
1078.70 0.0513
1078.80 0.05128
1078.90 0.05126
1079.00 0.05124
1079.10 0.05122
1079.20 0.05119
1079.30 0.05117
1079.40 0.05115
1079.50 0.05113
1079.60 0.05111
1079.70 0.05108
1079.80 0.05106
1079.90 0.05104
1080.00 0.05102
1080.10 0.051
1080.20 0.05097
1080.30 0.05095
1080.40 0.05093
1080.50 0.05091
1080.60 0.05088
1080.70 0.05086
1080.80 0.05084
1080.90 0.05082
1081.00 0.0508
1081.10 0.05077
1081.20 0.05075
1081.30 0.05073
1081.40 0.05071
1081.50 0.05069
1081.60 0.05066
1081.70 0.05064
1081.80 0.05062
1081.90 0.0506
1082.00 0.05058
1082.10 0.05055
1082.20 0.05053
1082.30 0.05051
1082.40 0.05049
1082.50 0.05046
1082.60 0.05044
1082.70 0.05042
1082.80 0.0504
1082.90 0.05038
1083.00 0.05035
1083.10 0.05033
1083.20 0.05031
1083.30 0.05029
1083.40 0.05026
1083.50 0.05024
1083.60 0.05022
1083.70 0.0502
1083.80 0.05017
1083.90 0.05015
1084.00 0.05013
1084.10 0.05011
1084.20 0.05009
1084.30 0.05006
1084.40 0.05004
1084.50 0.05002
1084.60 0.05
1084.70 0.04997
1084.80 0.04995
1084.90 0.04993
1085.00 0.04991
1085.10 0.04988
1085.20 0.04986
1085.30 0.04984
1085.40 0.04982
1085.50 0.04979
1085.60 0.04977
1085.70 0.04975
1085.80 0.04973
1085.90 0.0497
1086.00 0.04968
1086.10 0.04966
1086.20 0.04964
1086.30 0.04961
1086.40 0.04959
1086.50 0.04957
1086.60 0.04955
1086.70 0.04952
1086.80 0.0495
1086.90 0.04948
1087.00 0.04946
1087.10 0.04943
1087.20 0.04941
1087.30 0.04939
1087.40 0.04937
1087.50 0.04934
1087.60 0.04932
1087.70 0.0493
1087.80 0.04928
1087.90 0.04925
1088.00 0.04923
1088.10 0.04921
1088.20 0.04919
1088.30 0.04916
1088.40 0.04914
1088.50 0.04912
1088.60 0.0491
1088.70 0.04907
1088.80 0.04905
1088.90 0.04903
1089.00 0.04901
1089.10 0.04898
1089.20 0.04896
1089.30 0.04894
1089.40 0.04892
1089.50 0.04889
1089.60 0.04887
1089.70 0.04885
1089.80 0.04883
1089.90 0.0488
1090.00 0.04878
1090.10 0.04876
1090.20 0.04874
1090.30 0.04871
1090.40 0.04869
1090.50 0.04867
1090.60 0.04864
1090.70 0.04862
1090.80 0.0486
1090.90 0.04858
1091.00 0.04855
1091.10 0.04853
1091.20 0.04851
1091.30 0.04848
1091.40 0.04846
1091.50 0.04844
1091.60 0.04842
1091.70 0.04839
1091.80 0.04837
1091.90 0.04835
1092.00 0.04832
1092.10 0.0483
1092.20 0.04828
1092.30 0.04825
1092.40 0.04823
1092.50 0.04821
1092.60 0.04818
1092.70 0.04816
1092.80 0.04814
1092.90 0.04811
1093.00 0.04809
1093.10 0.04807
1093.20 0.04805
1093.30 0.04802
1093.40 0.048
1093.50 0.04799
1093.60 0.04797
1093.70 0.04796
1093.80 0.04795
1093.90 0.04793
1094.00 0.04791
1094.10 0.0479
1094.20 0.04788
1094.30 0.04787
1094.40 0.04786
1094.50 0.04784
1094.60 0.04783
1094.70 0.04782
1094.80 0.04781
1094.90 0.0478
1095.00 0.04779
1095.10 0.04778
1095.20 0.04777
1095.30 0.04776
1095.40 0.04775
1095.50 0.04774
1095.60 0.04773
1095.70 0.04772
1095.80 0.0477
1095.90 0.04769
1096.00 0.04768
1096.10 0.04767
1096.20 0.04766
1096.30 0.04765
1096.40 0.04764
1096.50 0.04763
1096.60 0.04762
1096.70 0.04761
1096.80 0.0476
1096.90 0.04759
1097.00 0.04757
1097.10 0.04756
1097.20 0.04755
1097.30 0.04754
1097.40 0.04753
1097.50 0.04752
1097.60 0.04751
1097.70 0.04749
1097.80 0.04748
1097.90 0.04747
1098.00 0.04746
1098.10 0.04745
1098.20 0.04744
1098.30 0.04743
1098.40 0.04741
1098.50 0.0474
1098.60 0.04739
1098.70 0.04738
1098.80 0.04737
1098.90 0.04736
1099.00 0.04734
1099.10 0.04733
1099.20 0.04732
1099.30 0.04731
1099.40 0.0473
1099.50 0.04728
1099.60 0.04727
1099.70 0.04726
1099.80 0.04725
1099.90 0.04724
1100.00 0.04723
1100.10 0.04721
1100.20 0.0472
1100.30 0.04719
1100.40 0.04718
1100.50 0.04717
1100.60 0.04716
1100.70 0.04714
1100.80 0.04713
1100.90 0.04712
1101.00 0.04711
1101.10 0.0471
1101.20 0.04708
1101.30 0.04707
1101.40 0.04706
1101.50 0.04705
1101.60 0.04704
1101.70 0.04702
1101.80 0.04701
1101.90 0.047
1102.00 0.04699
1102.10 0.04698
1102.20 0.04696
1102.30 0.04695
1102.40 0.04694
1102.50 0.04693
1102.60 0.04692
1102.70 0.0469
1102.80 0.04689
1102.90 0.04688
1103.00 0.04687
1103.10 0.04685
1103.20 0.04684
1103.30 0.04683
1103.40 0.04682
1103.50 0.04681
1103.60 0.04679
1103.70 0.04678
1103.80 0.04677
1103.90 0.04676
1104.00 0.04674
1104.10 0.04673
1104.20 0.04672
1104.30 0.04671
1104.40 0.04669
1104.50 0.04668
1104.60 0.04667
1104.70 0.04666
1104.80 0.04664
1104.90 0.04663
1105.00 0.04662
1105.10 0.04661
1105.20 0.04659
1105.30 0.04658
1105.40 0.04657
1105.50 0.04656
1105.60 0.04654
1105.70 0.04653
1105.80 0.04652
1105.90 0.04651
1106.00 0.04649
1106.10 0.04648
1106.20 0.04647
1106.30 0.04646
1106.40 0.04644
1106.50 0.04643
1106.60 0.04642
1106.70 0.0464
1106.80 0.04639
1106.90 0.04638
1107.00 0.04637
1107.10 0.04635
1107.20 0.04634
1107.30 0.04633
1107.40 0.04632
1107.50 0.0463
1107.60 0.04629
1107.70 0.04628
1107.80 0.04626
1107.90 0.04625
1108.00 0.04624
1108.10 0.04622
1108.20 0.04621
1108.30 0.0462
1108.40 0.04618
1108.50 0.04617
1108.60 0.04616
1108.70 0.04615
1108.80 0.04613
1108.90 0.04612
1109.00 0.04611
1109.10 0.04609
1109.20 0.04608
1109.30 0.04607
1109.40 0.04605
1109.50 0.04604
1109.60 0.04603
1109.70 0.04601
1109.80 0.046
1109.90 0.04599
1110.00 0.04597
1110.10 0.04596
1110.20 0.04595
1110.30 0.04593
1110.40 0.04592
1110.50 0.04591
1110.60 0.04589
1110.70 0.04588
1110.80 0.04587
1110.90 0.04585
1111.00 0.04584
1111.10 0.04583
1111.20 0.04581
1111.30 0.0458
1111.40 0.04579
1111.50 0.04577
1111.60 0.04576
1111.70 0.04575
1111.80 0.04573
1111.90 0.04572
1112.00 0.04571
1112.10 0.04569
1112.20 0.04568
1112.30 0.04566
1112.40 0.04565
1112.50 0.04564
1112.60 0.04562
1112.70 0.04561
1112.80 0.0456
1112.90 0.04558
1113.00 0.04557
1113.10 0.04555
1113.20 0.04554
1113.30 0.04553
1113.40 0.04551
1113.50 0.0455
1113.60 0.04549
1113.70 0.04547
1113.80 0.04546
1113.90 0.04544
1114.00 0.04543
1114.10 0.04542
1114.20 0.0454
1114.30 0.04539
1114.40 0.04537
1114.50 0.04536
1114.60 0.04535
1114.70 0.04533
1114.80 0.04532
1114.90 0.0453
1115.00 0.04529
1115.10 0.04528
1115.20 0.04526
1115.30 0.04525
1115.40 0.04523
1115.50 0.04522
1115.60 0.04521
1115.70 0.04519
1115.80 0.04518
1115.90 0.04516
1116.00 0.04515
1116.10 0.04514
1116.20 0.04512
1116.30 0.04511
1116.40 0.0451
1116.50 0.04508
1116.60 0.04507
1116.70 0.04505
1116.80 0.04504
1116.90 0.04503
1117.00 0.04501
1117.10 0.045
1117.20 0.04498
1117.30 0.04497
1117.40 0.04495
1117.50 0.04494
1117.60 0.04493
1117.70 0.04491
1117.80 0.0449
1117.90 0.04488
1118.00 0.04487
1118.10 0.04485
1118.20 0.04484
1118.30 0.04483
1118.40 0.04481
1118.50 0.0448
1118.60 0.04478
1118.70 0.04477
1118.80 0.04475
1118.90 0.04474
1119.00 0.04473
1119.10 0.04471
1119.20 0.0447
1119.30 0.04468
1119.40 0.04467
1119.50 0.04466
1119.60 0.04464
1119.70 0.04463
1119.80 0.04461
1119.90 0.0446
1120.00 0.04458
1120.10 0.04457
1120.20 0.04456
1120.30 0.04454
1120.40 0.04453
1120.50 0.04451
1120.60 0.0445
1120.70 0.04448
1120.80 0.04447
1120.90 0.04446
1121.00 0.04444
1121.10 0.04443
1121.20 0.04441
1121.30 0.0444
1121.40 0.04439
1121.50 0.04437
1121.60 0.04436
1121.70 0.04434
1121.80 0.04433
1121.90 0.04432
1122.00 0.0443
1122.10 0.04429
1122.20 0.04427
1122.30 0.04426
1122.40 0.04424
1122.50 0.04423
1122.60 0.04421
1122.70 0.0442
1122.80 0.04419
1122.90 0.04417
1123.00 0.04416
1123.10 0.04414
1123.20 0.04413
1123.30 0.04411
1123.40 0.0441
1123.50 0.04408
1123.60 0.04407
1123.70 0.04406
1123.80 0.04404
1123.90 0.04403
1124.00 0.04401
1124.10 0.044
1124.20 0.04398
1124.30 0.04397
1124.40 0.04396
1124.50 0.04394
1124.60 0.04393
1124.70 0.04391
1124.80 0.0439
1124.90 0.04388
1125.00 0.04387
1125.10 0.04385
1125.20 0.04384
1125.30 0.04383
1125.40 0.04381
1125.50 0.0438
1125.60 0.04378
1125.70 0.04377
1125.80 0.04375
1125.90 0.04374
1126.00 0.04373
1126.10 0.04371
1126.20 0.0437
1126.30 0.04368
1126.40 0.04367
1126.50 0.04365
1126.60 0.04364
1126.70 0.04363
1126.80 0.04361
1126.90 0.0436
1127.00 0.04358
1127.10 0.04357
1127.20 0.04355
1127.30 0.04354
1127.40 0.04353
1127.50 0.04351
1127.60 0.0435
1127.70 0.04348
1127.80 0.04347
1127.90 0.04345
1128.00 0.04344
1128.10 0.04342
1128.20 0.04341
1128.30 0.0434
1128.40 0.04338
1128.50 0.04337
1128.60 0.04335
1128.70 0.04334
1128.80 0.04332
1128.90 0.04331
1129.00 0.04329
1129.10 0.04328
1129.20 0.04327
1129.30 0.04325
1129.40 0.04324
1129.50 0.04322
1129.60 0.04321
1129.70 0.04319
1129.80 0.04318
1129.90 0.04317
1130.00 0.04315
1130.10 0.04314
1130.20 0.04312
1130.30 0.04311
1130.40 0.04309
1130.50 0.04308
1130.60 0.04307
1130.70 0.04305
1130.80 0.04304
1130.90 0.04302
1131.00 0.04301
1131.10 0.04299
1131.20 0.04298
1131.30 0.04297
1131.40 0.04295
1131.50 0.04294
1131.60 0.04292
1131.70 0.04291
1131.80 0.04289
1131.90 0.04288
1132.00 0.04287
1132.10 0.04285
1132.20 0.04284
1132.30 0.04282
1132.40 0.04281
1132.50 0.04279
1132.60 0.04278
1132.70 0.04277
1132.80 0.04275
1132.90 0.04274
1133.00 0.04272
1133.10 0.04271
1133.20 0.04269
1133.30 0.04268
1133.40 0.04267
1133.50 0.04265
1133.60 0.04264
1133.70 0.04262
1133.80 0.04261
1133.90 0.04259
1134.00 0.04258
1134.10 0.04257
1134.20 0.04255
1134.30 0.04254
1134.40 0.04252
1134.50 0.04251
1134.60 0.04249
1134.70 0.04248
1134.80 0.04247
1134.90 0.04245
1135.00 0.04244
1135.10 0.04242
1135.20 0.04241
1135.30 0.04239
1135.40 0.04238
1135.50 0.04237
1135.60 0.04235
1135.70 0.04234
1135.80 0.04232
1135.90 0.04231
1136.00 0.0423
1136.10 0.04228
1136.20 0.04227
1136.30 0.04225
1136.40 0.04224
1136.50 0.04222
1136.60 0.04221
1136.70 0.0422
1136.80 0.04218
1136.90 0.04217
1137.00 0.04215
1137.10 0.04214
1137.20 0.04213
1137.30 0.04211
1137.40 0.0421
1137.50 0.04208
1137.60 0.04207
1137.70 0.04205
1137.80 0.04204
1137.90 0.04203
1138.00 0.04201
1138.10 0.042
1138.20 0.04198
1138.30 0.04197
1138.40 0.04196
1138.50 0.04194
1138.60 0.04193
1138.70 0.04191
1138.80 0.0419
1138.90 0.04189
1139.00 0.04187
1139.10 0.04186
1139.20 0.04184
1139.30 0.04183
1139.40 0.04181
1139.50 0.0418
1139.60 0.04179
1139.70 0.04177
1139.80 0.04176
1139.90 0.04174
1140.00 0.04173
1140.10 0.04172
1140.20 0.0417
1140.30 0.04169
1140.40 0.04167
1140.50 0.04166
1140.60 0.04165
1140.70 0.04163
1140.80 0.04162
1140.90 0.0416
1141.00 0.04159
1141.10 0.04158
1141.20 0.04156
1141.30 0.04155
1141.40 0.04153
1141.50 0.04152
1141.60 0.04151
1141.70 0.04149
1141.80 0.04148
1141.90 0.04146
1142.00 0.04145
1142.10 0.04144
1142.20 0.04142
1142.30 0.04141
1142.40 0.04139
1142.50 0.04138
1142.60 0.04137
1142.70 0.04135
1142.80 0.04134
1142.90 0.04132
1143.00 0.04131
1143.10 0.0413
1143.20 0.04128
1143.30 0.04127
1143.40 0.04126
1143.50 0.04124
1143.60 0.04123
1143.70 0.04121
1143.80 0.0412
1143.90 0.04119
1144.00 0.04117
1144.10 0.04116
1144.20 0.04114
1144.30 0.04113
1144.40 0.04112
1144.50 0.0411
1144.60 0.04109
1144.70 0.04108
1144.80 0.04106
1144.90 0.04105
1145.00 0.04103
1145.10 0.04102
1145.20 0.04101
1145.30 0.04099
1145.40 0.04098
1145.50 0.04096
1145.60 0.04095
1145.70 0.04094
1145.80 0.04092
1145.90 0.04091
1146.00 0.0409
1146.10 0.04088
1146.20 0.04087
1146.30 0.04085
1146.40 0.04084
1146.50 0.04083
1146.60 0.04081
1146.70 0.0408
1146.80 0.04079
1146.90 0.04077
1147.00 0.04076
1147.10 0.04074
1147.20 0.04073
1147.30 0.04072
1147.40 0.0407
1147.50 0.04069
1147.60 0.04068
1147.70 0.04066
1147.80 0.04065
1147.90 0.04063
1148.00 0.04062
1148.10 0.04061
1148.20 0.04059
1148.30 0.04058
1148.40 0.04057
1148.50 0.04055
1148.60 0.04054
1148.70 0.04053
1148.80 0.04051
1148.90 0.0405
1149.00 0.04048
1149.10 0.04047
1149.20 0.04046
1149.30 0.04044
1149.40 0.04043
1149.50 0.04042
1149.60 0.0404
1149.70 0.04039
1149.80 0.04038
1149.90 0.04036
1150.00 0.04035
1150.10 0.04033
1150.20 0.04032
1150.30 0.04031
1150.40 0.04029
1150.50 0.04028
1150.60 0.04027
1150.70 0.04025
1150.80 0.04024
1150.90 0.04023
1151.00 0.04021
1151.10 0.0402
1151.20 0.04018
1151.30 0.04017
1151.40 0.04016
1151.50 0.04014
1151.60 0.04013
1151.70 0.04012
1151.80 0.0401
1151.90 0.04009
1152.00 0.04008
1152.10 0.04006
1152.20 0.04005
1152.30 0.04004
1152.40 0.04002
1152.50 0.04001
1152.60 0.04
1152.70 0.03998
1152.80 0.03997
1152.90 0.03996
1153.00 0.03994
1153.10 0.03993
1153.20 0.03991
1153.30 0.0399
1153.40 0.03989
1153.50 0.03987
1153.60 0.03986
1153.70 0.03985
1153.80 0.03983
1153.90 0.03982
1154.00 0.03981
1154.10 0.03979
1154.20 0.03978
1154.30 0.03977
1154.40 0.03975
1154.50 0.03974
1154.60 0.03973
1154.70 0.03971
1154.80 0.0397
1154.90 0.03969
1155.00 0.03967
1155.10 0.03966
1155.20 0.03965
1155.30 0.03963
1155.40 0.03962
1155.50 0.03961
1155.60 0.03959
1155.70 0.03958
1155.80 0.03957
1155.90 0.03955
1156.00 0.03954
1156.10 0.03953
1156.20 0.03951
1156.30 0.0395
1156.40 0.03949
1156.50 0.03947
1156.60 0.03946
1156.70 0.03945
1156.80 0.03943
1156.90 0.03942
1157.00 0.03941
1157.10 0.03939
1157.20 0.03938
1157.30 0.03937
1157.40 0.03935
1157.50 0.03934
1157.60 0.03933
1157.70 0.03931
1157.80 0.0393
1157.90 0.03929
1158.00 0.03928
1158.10 0.03926
1158.20 0.03925
1158.30 0.03924
1158.40 0.03922
1158.50 0.03921
1158.60 0.0392
1158.70 0.03918
1158.80 0.03917
1158.90 0.03916
1159.00 0.03914
1159.10 0.03913
1159.20 0.03912
1159.30 0.0391
1159.40 0.03909
1159.50 0.03908
1159.60 0.03906
1159.70 0.03905
1159.80 0.03904
1159.90 0.03903
1160.00 0.03901
1160.10 0.039
1160.20 0.03899
1160.30 0.03897
1160.40 0.03896
1160.50 0.03895
1160.60 0.03893
1160.70 0.03892
1160.80 0.03891
1160.90 0.03889
1161.00 0.03888
1161.10 0.03887
1161.20 0.03886
1161.30 0.03884
1161.40 0.03883
1161.50 0.03882
1161.60 0.0388
1161.70 0.03879
1161.80 0.03878
1161.90 0.03876
1162.00 0.03875
1162.10 0.03874
1162.20 0.03872
1162.30 0.03871
1162.40 0.0387
1162.50 0.03869
1162.60 0.03867
1162.70 0.03866
1162.80 0.03865
1162.90 0.03863
1163.00 0.03862
1163.10 0.03861
1163.20 0.0386
1163.30 0.03858
1163.40 0.03857
1163.50 0.03856
1163.60 0.03854
1163.70 0.03853
1163.80 0.03852
1163.90 0.0385
1164.00 0.03849
1164.10 0.03848
1164.20 0.03847
1164.30 0.03845
1164.40 0.03844
1164.50 0.03843
1164.60 0.03841
1164.70 0.0384
1164.80 0.03839
1164.90 0.03838
1165.00 0.03836
1165.10 0.03835
1165.20 0.03834
1165.30 0.03832
1165.40 0.03831
1165.50 0.0383
1165.60 0.03829
1165.70 0.03827
1165.80 0.03826
1165.90 0.03825
1166.00 0.03823
1166.10 0.03822
1166.20 0.03821
1166.30 0.0382
1166.40 0.03818
1166.50 0.03817
1166.60 0.03816
1166.70 0.03814
1166.80 0.03813
1166.90 0.03812
1167.00 0.03811
1167.10 0.03809
1167.20 0.03808
1167.30 0.03807
1167.40 0.03806
1167.50 0.03804
1167.60 0.03803
1167.70 0.03802
1167.80 0.038
1167.90 0.03799
1168.00 0.03798
1168.10 0.03797
1168.20 0.03795
1168.30 0.03794
1168.40 0.03793
1168.50 0.03792
1168.60 0.0379
1168.70 0.03789
1168.80 0.03788
1168.90 0.03787
1169.00 0.03785
1169.10 0.03784
1169.20 0.03783
1169.30 0.03781
1169.40 0.0378
1169.50 0.03779
1169.60 0.03778
1169.70 0.03776
1169.80 0.03775
1169.90 0.03774
1170.00 0.03773
1170.10 0.03771
1170.20 0.0377
1170.30 0.03769
1170.40 0.03768
1170.50 0.03766
1170.60 0.03765
1170.70 0.03764
1170.80 0.03763
1170.90 0.03761
1171.00 0.0376
1171.10 0.03759
1171.20 0.03758
1171.30 0.03756
1171.40 0.03755
1171.50 0.03754
1171.60 0.03753
1171.70 0.03751
1171.80 0.0375
1171.90 0.03749
1172.00 0.03748
1172.10 0.03746
1172.20 0.03745
1172.30 0.03744
1172.40 0.03743
1172.50 0.03741
1172.60 0.0374
1172.70 0.03739
1172.80 0.03738
1172.90 0.03736
1173.00 0.03735
1173.10 0.03734
1173.20 0.03733
1173.30 0.03731
1173.40 0.0373
1173.50 0.03729
1173.60 0.03728
1173.70 0.03726
1173.80 0.03725
1173.90 0.03724
1174.00 0.03723
1174.10 0.03721
1174.20 0.0372
1174.30 0.03719
1174.40 0.03718
1174.50 0.03716
1174.60 0.03715
1174.70 0.03714
1174.80 0.03713
1174.90 0.03711
1175.00 0.0371
1175.10 0.03709
1175.20 0.03708
1175.30 0.03707
1175.40 0.03705
1175.50 0.03704
1175.60 0.03703
1175.70 0.03702
1175.80 0.037
1175.90 0.03699
1176.00 0.03698
1176.10 0.03697
1176.20 0.03695
1176.30 0.03694
1176.40 0.03693
1176.50 0.03692
1176.60 0.0369
1176.70 0.03689
1176.80 0.03688
1176.90 0.03687
1177.00 0.03686
1177.10 0.03684
1177.20 0.03683
1177.30 0.03682
1177.40 0.03681
1177.50 0.03679
1177.60 0.03678
1177.70 0.03677
1177.80 0.03676
1177.90 0.03675
1178.00 0.03673
1178.10 0.03672
1178.20 0.03671
1178.30 0.0367
1178.40 0.03668
1178.50 0.03667
1178.60 0.03666
1178.70 0.03665
1178.80 0.03664
1178.90 0.03662
1179.00 0.03661
1179.10 0.0366
1179.20 0.03659
1179.30 0.03658
1179.40 0.03656
1179.50 0.03655
1179.60 0.03654
1179.70 0.03653
1179.80 0.03651
1179.90 0.0365
1180.00 0.03649
1180.10 0.03648
1180.20 0.03647
1180.30 0.03645
1180.40 0.03644
1180.50 0.03643
1180.60 0.03642
1180.70 0.03641
1180.80 0.03639
1180.90 0.03638
1181.00 0.03637
1181.10 0.03636
1181.20 0.03635
1181.30 0.03633
1181.40 0.03632
1181.50 0.03631
1181.60 0.0363
1181.70 0.03628
1181.80 0.03627
1181.90 0.03626
1182.00 0.03625
1182.10 0.03624
1182.20 0.03622
1182.30 0.03621
1182.40 0.0362
1182.50 0.03619
1182.60 0.03618
1182.70 0.03616
1182.80 0.03615
1182.90 0.03614
1183.00 0.03613
1183.10 0.03612
1183.20 0.0361
1183.30 0.03609
1183.40 0.03608
1183.50 0.03607
1183.60 0.03606
1183.70 0.03605
1183.80 0.03603
1183.90 0.03602
1184.00 0.03601
1184.10 0.036
1184.20 0.03599
1184.30 0.03597
1184.40 0.03596
1184.50 0.03595
1184.60 0.03594
1184.70 0.03593
1184.80 0.03591
1184.90 0.0359
1185.00 0.03589
1185.10 0.03588
1185.20 0.03587
1185.30 0.03585
1185.40 0.03584
1185.50 0.03583
1185.60 0.03582
1185.70 0.03581
1185.80 0.0358
1185.90 0.03578
1186.00 0.03577
1186.10 0.03576
1186.20 0.03575
1186.30 0.03574
1186.40 0.03572
1186.50 0.03571
1186.60 0.0357
1186.70 0.03569
1186.80 0.03568
1186.90 0.03566
1187.00 0.03565
1187.10 0.03564
1187.20 0.03563
1187.30 0.03562
1187.40 0.03561
1187.50 0.03559
1187.60 0.03558
1187.70 0.03557
1187.80 0.03556
1187.90 0.03555
1188.00 0.03554
1188.10 0.03552
1188.20 0.03551
1188.30 0.0355
1188.40 0.03549
1188.50 0.03548
1188.60 0.03547
1188.70 0.03545
1188.80 0.03544
1188.90 0.03543
1189.00 0.03542
1189.10 0.03541
1189.20 0.0354
1189.30 0.03538
1189.40 0.03537
1189.50 0.03536
1189.60 0.03535
1189.70 0.03534
1189.80 0.03533
1189.90 0.03531
1190.00 0.0353
1190.10 0.03529
1190.20 0.03528
1190.30 0.03527
1190.40 0.03526
1190.50 0.03524
1190.60 0.03523
1190.70 0.03522
1190.80 0.03521
1190.90 0.0352
1191.00 0.03519
1191.10 0.03517
1191.20 0.03516
1191.30 0.03515
1191.40 0.03514
1191.50 0.03513
1191.60 0.03512
1191.70 0.0351
1191.80 0.03509
1191.90 0.03508
1192.00 0.03507
1192.10 0.03506
1192.20 0.03505
1192.30 0.03503
1192.40 0.03502
1192.50 0.03501
1192.60 0.035
1192.70 0.03499
1192.80 0.03498
1192.90 0.03497
1193.00 0.03495
1193.10 0.03494
1193.20 0.03493
1193.30 0.03492
1193.40 0.03491
1193.50 0.0349
1193.60 0.03489
1193.70 0.03487
1193.80 0.03486
1193.90 0.03485
1194.00 0.03484
1194.10 0.03483
1194.20 0.03482
1194.30 0.03481
1194.40 0.03479
1194.50 0.03478
1194.60 0.03477
1194.70 0.03476
1194.80 0.03475
1194.90 0.03474
1195.00 0.03473
1195.10 0.03471
1195.20 0.0347
1195.30 0.03469
1195.40 0.03468
1195.50 0.03467
1195.60 0.03466
1195.70 0.03465
1195.80 0.03463
1195.90 0.03462
1196.00 0.03461
1196.10 0.0346
1196.20 0.03459
1196.30 0.03458
1196.40 0.03457
1196.50 0.03455
1196.60 0.03454
1196.70 0.03453
1196.80 0.03452
1196.90 0.03451
1197.00 0.0345
1197.10 0.03449
1197.20 0.03447
1197.30 0.03446
1197.40 0.03445
1197.50 0.03444
1197.60 0.03443
1197.70 0.03442
1197.80 0.03441
1197.90 0.0344
1198.00 0.03438
1198.10 0.03437
1198.20 0.03436
1198.30 0.03435
1198.40 0.03434
1198.50 0.03433
1198.60 0.03432
1198.70 0.03431
1198.80 0.03429
1198.90 0.03428
1199.00 0.03427
1199.10 0.03426
1199.20 0.03425
1199.30 0.03424
1199.40 0.03423
1199.50 0.03422
1199.60 0.0342
1199.70 0.03419
1199.80 0.03418
1199.90 0.03417
1200.00 0
