# Version 2.1 - nm, norm@500 to 1, cut digits, bergeron_12000_70.dat_12000
# Wavelength(nm)  Flambda(ergs/cm^s/s/nm)
300.00 1.539
300.10 1.538
300.20 1.537
300.30 1.536
300.40 1.535
300.50 1.534
300.60 1.533
300.70 1.532
300.80 1.531
300.90 1.53
301.00 1.529
301.10 1.529
301.20 1.528
301.30 1.527
301.40 1.526
301.50 1.525
301.60 1.524
301.70 1.523
301.80 1.522
301.90 1.521
302.00 1.52
302.10 1.519
302.20 1.518
302.30 1.518
302.40 1.517
302.50 1.516
302.60 1.515
302.70 1.514
302.80 1.513
302.90 1.512
303.00 1.511
303.10 1.51
303.20 1.509
303.30 1.508
303.40 1.508
303.50 1.507
303.60 1.506
303.70 1.505
303.80 1.504
303.90 1.503
304.00 1.502
304.10 1.501
304.20 1.5
304.30 1.499
304.40 1.498
304.50 1.498
304.60 1.497
304.70 1.496
304.80 1.495
304.90 1.494
305.00 1.493
305.10 1.492
305.20 1.491
305.30 1.49
305.40 1.49
305.50 1.489
305.60 1.488
305.70 1.487
305.80 1.486
305.90 1.485
306.00 1.484
306.10 1.483
306.20 1.482
306.30 1.482
306.40 1.481
306.50 1.48
306.60 1.479
306.70 1.478
306.80 1.477
306.90 1.476
307.00 1.475
307.10 1.474
307.20 1.474
307.30 1.473
307.40 1.472
307.50 1.471
307.60 1.47
307.70 1.469
307.80 1.468
307.90 1.468
308.00 1.467
308.10 1.466
308.20 1.465
308.30 1.464
308.40 1.463
308.50 1.462
308.60 1.461
308.70 1.461
308.80 1.46
308.90 1.459
309.00 1.458
309.10 1.457
309.20 1.456
309.30 1.455
309.40 1.455
309.50 1.454
309.60 1.453
309.70 1.452
309.80 1.451
309.90 1.45
310.00 1.449
310.10 1.448
310.20 1.448
310.30 1.447
310.40 1.446
310.50 1.445
310.60 1.444
310.70 1.443
310.80 1.443
310.90 1.442
311.00 1.441
311.10 1.44
311.20 1.439
311.30 1.438
311.40 1.437
311.50 1.437
311.60 1.436
311.70 1.435
311.80 1.434
311.90 1.433
312.00 1.432
312.10 1.432
312.20 1.431
312.30 1.43
312.40 1.429
312.50 1.428
312.60 1.427
312.70 1.426
312.80 1.426
312.90 1.425
313.00 1.424
313.10 1.423
313.20 1.422
313.30 1.421
313.40 1.421
313.50 1.42
313.60 1.419
313.70 1.418
313.80 1.417
313.90 1.416
314.00 1.416
314.10 1.415
314.20 1.414
314.30 1.413
314.40 1.412
314.50 1.411
314.60 1.411
314.70 1.41
314.80 1.409
314.90 1.408
315.00 1.407
315.10 1.407
315.20 1.406
315.30 1.405
315.40 1.404
315.50 1.403
315.60 1.402
315.70 1.402
315.80 1.401
315.90 1.4
316.00 1.399
316.10 1.398
316.20 1.398
316.30 1.397
316.40 1.396
316.50 1.395
316.60 1.394
316.70 1.393
316.80 1.393
316.90 1.392
317.00 1.391
317.10 1.39
317.20 1.389
317.30 1.389
317.40 1.388
317.50 1.387
317.60 1.386
317.70 1.385
317.80 1.385
317.90 1.384
318.00 1.383
318.10 1.382
318.20 1.381
318.30 1.381
318.40 1.38
318.50 1.379
318.60 1.378
318.70 1.377
318.80 1.377
318.90 1.376
319.00 1.375
319.10 1.374
319.20 1.373
319.30 1.373
319.40 1.372
319.50 1.371
319.60 1.37
319.70 1.369
319.80 1.369
319.90 1.368
320.00 1.367
320.10 1.366
320.20 1.365
320.30 1.365
320.40 1.364
320.50 1.363
320.60 1.362
320.70 1.362
320.80 1.361
320.90 1.36
321.00 1.359
321.10 1.358
321.20 1.358
321.30 1.357
321.40 1.356
321.50 1.355
321.60 1.355
321.70 1.354
321.80 1.353
321.90 1.352
322.00 1.351
322.10 1.351
322.20 1.35
322.30 1.349
322.40 1.348
322.50 1.348
322.60 1.347
322.70 1.346
322.80 1.345
322.90 1.344
323.00 1.344
323.10 1.343
323.20 1.342
323.30 1.341
323.40 1.341
323.50 1.34
323.60 1.339
323.70 1.338
323.80 1.338
323.90 1.337
324.00 1.336
324.10 1.335
324.20 1.334
324.30 1.334
324.40 1.333
324.50 1.332
324.60 1.331
324.70 1.331
324.80 1.33
324.90 1.329
325.00 1.328
325.10 1.328
325.20 1.327
325.30 1.326
325.40 1.325
325.50 1.325
325.60 1.324
325.70 1.323
325.80 1.322
325.90 1.322
326.00 1.321
326.10 1.32
326.20 1.319
326.30 1.319
326.40 1.318
326.50 1.317
326.60 1.316
326.70 1.316
326.80 1.315
326.90 1.314
327.00 1.313
327.10 1.313
327.20 1.312
327.30 1.311
327.40 1.31
327.50 1.31
327.60 1.309
327.70 1.308
327.80 1.307
327.90 1.307
328.00 1.306
328.10 1.305
328.20 1.304
328.30 1.304
328.40 1.303
328.50 1.302
328.60 1.301
328.70 1.301
328.80 1.3
328.90 1.299
329.00 1.298
329.10 1.298
329.20 1.297
329.30 1.296
329.40 1.296
329.50 1.295
329.60 1.294
329.70 1.293
329.80 1.293
329.90 1.292
330.00 1.291
330.10 1.29
330.20 1.29
330.30 1.289
330.40 1.288
330.50 1.287
330.60 1.287
330.70 1.286
330.80 1.285
330.90 1.285
331.00 1.284
331.10 1.283
331.20 1.282
331.30 1.282
331.40 1.281
331.50 1.28
331.60 1.28
331.70 1.279
331.80 1.278
331.90 1.277
332.00 1.277
332.10 1.276
332.20 1.275
332.30 1.274
332.40 1.274
332.50 1.273
332.60 1.272
332.70 1.272
332.80 1.271
332.90 1.27
333.00 1.269
333.10 1.269
333.20 1.268
333.30 1.267
333.40 1.267
333.50 1.266
333.60 1.265
333.70 1.264
333.80 1.264
333.90 1.263
334.00 1.262
334.10 1.262
334.20 1.261
334.30 1.26
334.40 1.26
334.50 1.259
334.60 1.258
334.70 1.257
334.80 1.257
334.90 1.256
335.00 1.255
335.10 1.255
335.20 1.254
335.30 1.253
335.40 1.253
335.50 1.252
335.60 1.251
335.70 1.25
335.80 1.25
335.90 1.249
336.00 1.248
336.10 1.248
336.20 1.247
336.30 1.246
336.40 1.246
336.50 1.245
336.60 1.244
336.70 1.243
336.80 1.243
336.90 1.242
337.00 1.241
337.10 1.241
337.20 1.24
337.30 1.239
337.40 1.239
337.50 1.238
337.60 1.237
337.70 1.237
337.80 1.236
337.90 1.235
338.00 1.234
338.10 1.234
338.20 1.233
338.30 1.232
338.40 1.232
338.50 1.231
338.60 1.23
338.70 1.23
338.80 1.229
338.90 1.228
339.00 1.228
339.10 1.227
339.20 1.226
339.30 1.226
339.40 1.225
339.50 1.224
339.60 1.224
339.70 1.223
339.80 1.222
339.90 1.221
340.00 1.221
340.10 1.22
340.20 1.219
340.30 1.219
340.40 1.218
340.50 1.217
340.60 1.217
340.70 1.216
340.80 1.215
340.90 1.215
341.00 1.214
341.10 1.213
341.20 1.213
341.30 1.212
341.40 1.211
341.50 1.211
341.60 1.21
341.70 1.209
341.80 1.209
341.90 1.208
342.00 1.207
342.10 1.207
342.20 1.206
342.30 1.205
342.40 1.205
342.50 1.204
342.60 1.203
342.70 1.203
342.80 1.202
342.90 1.201
343.00 1.201
343.10 1.2
343.20 1.199
343.30 1.199
343.40 1.198
343.50 1.197
343.60 1.197
343.70 1.196
343.80 1.195
343.90 1.195
344.00 1.194
344.10 1.193
344.20 1.193
344.30 1.192
344.40 1.192
344.50 1.191
344.60 1.19
344.70 1.19
344.80 1.189
344.90 1.188
345.00 1.188
345.10 1.187
345.20 1.186
345.30 1.186
345.40 1.185
345.50 1.184
345.60 1.184
345.70 1.183
345.80 1.182
345.90 1.182
346.00 1.181
346.10 1.18
346.20 1.18
346.30 1.179
346.40 1.179
346.50 1.178
346.60 1.177
346.70 1.177
346.80 1.176
346.90 1.175
347.00 1.175
347.10 1.174
347.20 1.173
347.30 1.173
347.40 1.172
347.50 1.171
347.60 1.171
347.70 1.17
347.80 1.17
347.90 1.169
348.00 1.168
348.10 1.168
348.20 1.167
348.30 1.166
348.40 1.166
348.50 1.165
348.60 1.164
348.70 1.164
348.80 1.163
348.90 1.163
349.00 1.162
349.10 1.161
349.20 1.161
349.30 1.16
349.40 1.159
349.50 1.159
349.60 1.158
349.70 1.157
349.80 1.157
349.90 1.156
350.00 1.156
350.10 1.155
350.20 1.154
350.30 1.154
350.40 1.153
350.50 1.152
350.60 1.152
350.70 1.151
350.80 1.151
350.90 1.15
351.00 1.149
351.10 1.149
351.20 1.148
351.30 1.147
351.40 1.147
351.50 1.146
351.60 1.146
351.70 1.145
351.80 1.144
351.90 1.144
352.00 1.143
352.10 1.142
352.20 1.142
352.30 1.141
352.40 1.141
352.50 1.14
352.60 1.139
352.70 1.139
352.80 1.138
352.90 1.138
353.00 1.137
353.10 1.136
353.20 1.136
353.30 1.135
353.40 1.134
353.50 1.134
353.60 1.133
353.70 1.133
353.80 1.132
353.90 1.131
354.00 1.131
354.10 1.13
354.20 1.13
354.30 1.129
354.40 1.128
354.50 1.128
354.60 1.127
354.70 1.126
354.80 1.126
354.90 1.125
355.00 1.125
355.10 1.124
355.20 1.123
355.30 1.123
355.40 1.122
355.50 1.122
355.60 1.121
355.70 1.12
355.80 1.12
355.90 1.119
356.00 1.119
356.10 1.118
356.20 1.117
356.30 1.117
356.40 1.116
356.50 1.116
356.60 1.115
356.70 1.114
356.80 1.114
356.90 1.113
357.00 1.113
357.10 1.112
357.20 1.111
357.30 1.111
357.40 1.11
357.50 1.11
357.60 1.109
357.70 1.108
357.80 1.108
357.90 1.107
358.00 1.107
358.10 1.106
358.20 1.105
358.30 1.105
358.40 1.104
358.50 1.104
358.60 1.103
358.70 1.102
358.80 1.102
358.90 1.101
359.00 1.101
359.10 1.1
359.20 1.1
359.30 1.099
359.40 1.098
359.50 1.098
359.60 1.097
359.70 1.097
359.80 1.096
359.90 1.095
360.00 1.095
360.10 1.094
360.20 1.094
360.30 1.093
360.40 1.092
360.50 1.092
360.60 1.091
360.70 1.091
360.80 1.09
360.90 1.09
361.00 1.089
361.10 1.088
361.20 1.088
361.30 1.087
361.40 1.087
361.50 1.086
361.60 1.085
361.70 1.085
361.80 1.084
361.90 1.084
362.00 1.083
362.10 1.083
362.20 1.082
362.30 1.081
362.40 1.081
362.50 1.08
362.60 1.08
362.70 1.079
362.80 1.079
362.90 1.078
363.00 1.077
363.10 1.077
363.20 1.076
363.30 1.076
363.40 1.075
363.50 1.074
363.60 1.074
363.70 1.073
363.80 1.073
363.90 1.072
364.00 1.071
364.10 1.071
364.20 1.07
364.30 1.07
364.40 1.069
364.50 1.068
364.60 1.068
364.70 1.067
364.80 1.067
364.90 1.066
365.00 1.066
365.10 1.065
365.20 1.064
365.30 1.064
365.40 1.063
365.50 1.063
365.60 1.062
365.70 1.062
365.80 1.061
365.90 1.061
366.00 1.06
366.10 1.059
366.20 1.059
366.30 1.058
366.40 1.058
366.50 1.057
366.60 1.057
366.70 1.056
366.80 1.056
366.90 1.055
367.00 1.055
367.10 1.054
367.20 1.054
367.30 1.053
367.40 1.053
367.50 1.052
367.60 1.052
367.70 1.051
367.80 1.051
367.90 1.05
368.00 1.05
368.10 1.05
368.20 1.051
368.30 1.051
368.40 1.051
368.50 1.052
368.60 1.052
368.70 1.052
368.80 1.053
368.90 1.053
369.00 1.053
369.10 1.054
369.20 1.054
369.30 1.054
369.40 1.055
369.50 1.055
369.60 1.055
369.70 1.056
369.80 1.056
369.90 1.056
370.00 1.057
370.10 1.059
370.20 1.061
370.30 1.063
370.40 1.065
370.50 1.067
370.60 1.069
370.70 1.071
370.80 1.073
370.90 1.075
371.00 1.077
371.10 1.079
371.20 1.081
371.30 1.083
371.40 1.084
371.50 1.086
371.60 1.088
371.70 1.09
371.80 1.092
371.90 1.094
372.00 1.096
372.10 1.1
372.20 1.103
372.30 1.107
372.40 1.11
372.50 1.114
372.60 1.117
372.70 1.12
372.80 1.124
372.90 1.127
373.00 1.131
373.10 1.134
373.20 1.138
373.30 1.141
373.40 1.144
373.50 1.148
373.60 1.151
373.70 1.155
373.80 1.158
373.90 1.161
374.00 1.165
374.10 1.168
374.20 1.172
374.30 1.176
374.40 1.179
374.50 1.183
374.60 1.186
374.70 1.19
374.80 1.194
374.90 1.197
375.00 1.201
375.10 1.204
375.20 1.208
375.30 1.211
375.40 1.215
375.50 1.219
375.60 1.222
375.70 1.226
375.80 1.229
375.90 1.233
376.00 1.236
376.10 1.238
376.20 1.24
376.30 1.242
376.40 1.243
376.50 1.245
376.60 1.247
376.70 1.249
376.80 1.251
376.90 1.252
377.00 1.254
377.10 1.251
377.20 1.248
377.30 1.245
377.40 1.242
377.50 1.24
377.60 1.237
377.70 1.234
377.80 1.231
377.90 1.228
378.00 1.225
378.10 1.208
378.20 1.191
378.30 1.173
378.40 1.156
378.50 1.139
378.60 1.122
378.70 1.105
378.80 1.087
378.90 1.07
379.00 1.053
379.10 1.038
379.20 1.023
379.30 1.007
379.40 0.9919
379.50 0.9766
379.60 0.9614
379.70 0.9461
379.80 0.9309
379.90 0.9157
380.00 0.9005
380.10 0.9243
380.20 0.9482
380.30 0.972
380.40 0.9957
380.50 1.019
380.60 1.043
380.70 1.067
380.80 1.091
380.90 1.114
381.00 1.138
381.10 1.147
381.20 1.156
381.30 1.165
381.40 1.174
381.50 1.183
381.60 1.183
381.70 1.181
381.80 1.177
381.90 1.169
382.00 1.159
382.10 1.146
382.20 1.13
382.30 1.099
382.40 1.069
382.50 1.038
382.60 1.008
382.70 0.9773
382.80 0.947
382.90 0.9166
383.00 0.8863
383.10 0.8561
383.20 0.8259
383.30 0.7924
383.40 0.7558
383.50 0.7164
383.60 0.7252
383.70 0.7636
383.80 0.7998
383.90 0.8328
384.00 0.8663
384.10 0.9021
384.20 0.9384
384.30 0.9744
384.40 1.01
384.50 1.045
384.60 1.078
384.70 1.107
384.80 1.134
384.90 1.158
385.00 1.18
385.10 1.198
385.20 1.214
385.30 1.228
385.40 1.24
385.50 1.25
385.60 1.259
385.70 1.265
385.80 1.27
385.90 1.274
386.00 1.276
386.10 1.276
386.20 1.275
386.30 1.272
386.40 1.268
386.50 1.263
386.60 1.255
386.70 1.247
386.80 1.237
386.90 1.225
387.00 1.211
387.10 1.197
387.20 1.18
387.30 1.161
387.40 1.141
387.50 1.117
387.60 1.092
387.70 1.064
387.80 1.033
387.90 0.9995
388.00 0.9639
388.10 0.9253
388.20 0.8861
388.30 0.8462
388.40 0.8066
388.50 0.768
388.60 0.7306
388.70 0.691
388.80 0.6485
388.90 0.6031
389.00 0.6454
389.10 0.6863
389.20 0.7258
389.30 0.7628
389.40 0.8009
389.50 0.8401
389.60 0.8798
389.70 0.9191
389.80 0.958
389.90 0.9945
390.00 1.029
390.10 1.062
390.20 1.091
390.30 1.119
390.40 1.145
390.50 1.168
390.60 1.19
390.70 1.211
390.80 1.23
390.90 1.248
391.00 1.265
391.10 1.281
391.20 1.296
391.30 1.311
391.40 1.324
391.50 1.337
391.60 1.348
391.70 1.359
391.80 1.369
391.90 1.378
392.00 1.386
392.10 1.393
392.20 1.399
392.30 1.405
392.40 1.409
392.50 1.413
392.60 1.415
392.70 1.417
392.80 1.418
392.90 1.417
393.00 1.416
393.10 1.414
393.20 1.411
393.30 1.407
393.40 1.402
393.50 1.395
393.60 1.388
393.70 1.381
393.80 1.371
393.90 1.362
394.00 1.351
394.10 1.339
394.20 1.326
394.30 1.313
394.40 1.298
394.50 1.283
394.60 1.267
394.70 1.249
394.80 1.231
394.90 1.213
395.00 1.193
395.10 1.173
395.20 1.152
395.30 1.129
395.40 1.106
395.50 1.081
395.60 1.055
395.70 1.028
395.80 0.9993
395.90 0.9684
396.00 0.9363
396.10 0.9029
396.20 0.867
396.30 0.8301
396.40 0.7922
396.50 0.7538
396.60 0.7161
396.70 0.6789
396.80 0.6384
396.90 0.5864
397.00 0.5231
397.10 0.5818
397.20 0.6317
397.30 0.6727
397.40 0.7093
397.50 0.7465
397.60 0.7842
397.70 0.8215
397.80 0.8579
397.90 0.8932
398.00 0.9262
398.10 0.9578
398.20 0.9883
398.30 1.016
398.40 1.043
398.50 1.069
398.60 1.093
398.70 1.117
398.80 1.139
398.90 1.16
399.00 1.181
399.10 1.201
399.20 1.22
399.30 1.239
399.40 1.257
399.50 1.275
399.60 1.292
399.70 1.309
399.80 1.324
399.90 1.34
400.00 1.355
400.10 1.369
400.20 1.383
400.30 1.396
400.40 1.409
400.50 1.421
400.60 1.433
400.70 1.444
400.80 1.454
400.90 1.464
401.00 1.474
401.10 1.483
401.20 1.492
401.30 1.5
401.40 1.507
401.50 1.515
401.60 1.521
401.70 1.528
401.80 1.534
401.90 1.539
402.00 1.544
402.10 1.549
402.20 1.553
402.30 1.557
402.40 1.561
402.50 1.564
402.60 1.566
402.70 1.569
402.80 1.571
402.90 1.572
403.00 1.574
403.10 1.574
403.20 1.575
403.30 1.575
403.40 1.575
403.50 1.574
403.60 1.573
403.70 1.572
403.80 1.57
403.90 1.569
404.00 1.566
404.10 1.563
404.20 1.561
404.30 1.557
404.40 1.553
404.50 1.549
404.60 1.545
404.70 1.54
404.80 1.535
404.90 1.529
405.00 1.523
405.10 1.516
405.20 1.509
405.30 1.502
405.40 1.495
405.50 1.486
405.60 1.478
405.70 1.469
405.80 1.46
405.90 1.45
406.00 1.44
406.10 1.429
406.20 1.418
406.30 1.406
406.40 1.394
406.50 1.382
406.60 1.369
406.70 1.355
406.80 1.341
406.90 1.327
407.00 1.312
407.10 1.297
407.20 1.281
407.30 1.264
407.40 1.247
407.50 1.229
407.60 1.211
407.70 1.192
407.80 1.173
407.90 1.153
408.00 1.133
408.10 1.113
408.20 1.092
408.30 1.07
408.40 1.048
408.50 1.026
408.60 1.003
408.70 0.9794
408.80 0.955
408.90 0.9301
409.00 0.9046
409.10 0.8777
409.20 0.8499
409.30 0.8212
409.40 0.7905
409.50 0.7588
409.60 0.726
409.70 0.6923
409.80 0.6585
409.90 0.6246
410.00 0.5821
410.10 0.5329
410.20 0.4769
410.30 0.5499
410.40 0.605
410.50 0.642
410.60 0.6752
410.70 0.7082
410.80 0.7411
410.90 0.7725
411.00 0.8027
411.10 0.8319
411.20 0.859
411.30 0.8852
411.40 0.9107
411.50 0.9347
411.60 0.9582
411.70 0.9811
411.80 1.003
411.90 1.025
412.00 1.046
412.10 1.066
412.20 1.086
412.30 1.106
412.40 1.125
412.50 1.143
412.60 1.162
412.70 1.179
412.80 1.196
412.90 1.213
413.00 1.229
413.10 1.245
413.20 1.26
413.30 1.275
413.40 1.289
413.50 1.302
413.60 1.316
413.70 1.328
413.80 1.341
413.90 1.352
414.00 1.364
414.10 1.375
414.20 1.386
414.30 1.396
414.40 1.406
414.50 1.415
414.60 1.425
414.70 1.434
414.80 1.442
414.90 1.451
415.00 1.459
415.10 1.466
415.20 1.474
415.30 1.481
415.40 1.487
415.50 1.494
415.60 1.5
415.70 1.506
415.80 1.512
415.90 1.517
416.00 1.523
416.10 1.528
416.20 1.533
416.30 1.537
416.40 1.542
416.50 1.546
416.60 1.55
416.70 1.554
416.80 1.557
416.90 1.561
417.00 1.564
417.10 1.567
417.20 1.57
417.30 1.573
417.40 1.576
417.50 1.578
417.60 1.581
417.70 1.583
417.80 1.585
417.90 1.587
418.00 1.589
418.10 1.591
418.20 1.593
418.30 1.594
418.40 1.596
418.50 1.597
418.60 1.598
418.70 1.6
418.80 1.601
418.90 1.602
419.00 1.603
419.10 1.603
419.20 1.604
419.30 1.605
419.40 1.605
419.50 1.606
419.60 1.606
419.70 1.607
419.80 1.607
419.90 1.607
420.00 1.607
420.10 1.607
420.20 1.607
420.30 1.607
420.40 1.607
420.50 1.607
420.60 1.607
420.70 1.606
420.80 1.606
420.90 1.606
421.00 1.605
421.10 1.605
421.20 1.604
421.30 1.604
421.40 1.603
421.50 1.602
421.60 1.601
421.70 1.6
421.80 1.6
421.90 1.599
422.00 1.598
422.10 1.597
422.20 1.595
422.30 1.594
422.40 1.593
422.50 1.592
422.60 1.591
422.70 1.589
422.80 1.588
422.90 1.586
423.00 1.585
423.10 1.583
423.20 1.582
423.30 1.58
423.40 1.578
423.50 1.576
423.60 1.574
423.70 1.573
423.80 1.571
423.90 1.569
424.00 1.566
424.10 1.564
424.20 1.562
424.30 1.56
424.40 1.557
424.50 1.555
424.60 1.553
424.70 1.55
424.80 1.547
424.90 1.545
425.00 1.542
425.10 1.539
425.20 1.536
425.30 1.533
425.40 1.53
425.50 1.527
425.60 1.524
425.70 1.52
425.80 1.517
425.90 1.513
426.00 1.51
426.10 1.506
426.20 1.501
426.30 1.497
426.40 1.493
426.50 1.489
426.60 1.484
426.70 1.48
426.80 1.475
426.90 1.471
427.00 1.466
427.10 1.461
427.20 1.456
427.30 1.451
427.40 1.446
427.50 1.44
427.60 1.435
427.70 1.429
427.80 1.423
427.90 1.417
428.00 1.411
428.10 1.405
428.20 1.398
428.30 1.391
428.40 1.384
428.50 1.377
428.60 1.37
428.70 1.363
428.80 1.355
428.90 1.347
429.00 1.339
429.10 1.331
429.20 1.322
429.30 1.313
429.40 1.304
429.50 1.295
429.60 1.285
429.70 1.276
429.80 1.266
429.90 1.255
430.00 1.245
430.10 1.234
430.20 1.223
430.30 1.212
430.40 1.2
430.50 1.188
430.60 1.176
430.70 1.164
430.80 1.151
430.90 1.139
431.00 1.126
431.10 1.112
431.20 1.099
431.30 1.085
431.40 1.071
431.50 1.057
431.60 1.042
431.70 1.027
431.80 1.012
431.90 0.9953
432.00 0.9784
432.10 0.961
432.20 0.9424
432.30 0.9231
432.40 0.9032
432.50 0.8816
432.60 0.8592
432.70 0.8362
432.80 0.8127
432.90 0.7895
433.00 0.7666
433.10 0.7448
433.20 0.7227
433.30 0.7002
433.40 0.6754
433.50 0.6495
433.60 0.6225
433.70 0.594
433.80 0.5622
433.90 0.527
434.00 0.4365
434.10 0.4375
434.20 0.5301
434.30 0.5641
434.40 0.5951
434.50 0.623
434.60 0.6493
434.70 0.6745
434.80 0.6985
434.90 0.7202
435.00 0.7416
435.10 0.7626
435.20 0.7847
435.30 0.807
435.40 0.8295
435.50 0.8514
435.60 0.8726
435.70 0.893
435.80 0.9117
435.90 0.9297
436.00 0.9469
436.10 0.9629
436.20 0.9785
436.30 0.9935
436.40 1.008
436.50 1.021
436.60 1.035
436.70 1.047
436.80 1.06
436.90 1.072
437.00 1.084
437.10 1.095
437.20 1.107
437.30 1.118
437.40 1.129
437.50 1.139
437.60 1.15
437.70 1.16
437.80 1.169
437.90 1.179
438.00 1.188
438.10 1.197
438.20 1.205
438.30 1.214
438.40 1.222
438.50 1.23
438.60 1.237
438.70 1.245
438.80 1.252
438.90 1.258
439.00 1.265
439.10 1.271
439.20 1.277
439.30 1.283
439.40 1.289
439.50 1.294
439.60 1.3
439.70 1.305
439.80 1.31
439.90 1.314
440.00 1.319
440.10 1.323
440.20 1.327
440.30 1.331
440.40 1.335
440.50 1.339
440.60 1.342
440.70 1.346
440.80 1.349
440.90 1.352
441.00 1.355
441.10 1.358
441.20 1.361
441.30 1.364
441.40 1.366
441.50 1.369
441.60 1.371
441.70 1.373
441.80 1.375
441.90 1.377
442.00 1.379
442.10 1.381
442.20 1.383
442.30 1.384
442.40 1.386
442.50 1.387
442.60 1.389
442.70 1.39
442.80 1.391
442.90 1.392
443.00 1.394
443.10 1.395
443.20 1.396
443.30 1.397
443.40 1.397
443.50 1.398
443.60 1.399
443.70 1.4
443.80 1.4
443.90 1.401
444.00 1.402
444.10 1.402
444.20 1.403
444.30 1.403
444.40 1.403
444.50 1.404
444.60 1.404
444.70 1.404
444.80 1.405
444.90 1.405
445.00 1.405
445.10 1.405
445.20 1.405
445.30 1.405
445.40 1.405
445.50 1.405
445.60 1.405
445.70 1.405
445.80 1.405
445.90 1.405
446.00 1.405
446.10 1.405
446.20 1.405
446.30 1.405
446.40 1.404
446.50 1.404
446.60 1.404
446.70 1.404
446.80 1.403
446.90 1.403
447.00 1.403
447.10 1.402
447.20 1.402
447.30 1.402
447.40 1.401
447.50 1.401
447.60 1.4
447.70 1.4
447.80 1.4
447.90 1.399
448.00 1.399
448.10 1.398
448.20 1.398
448.30 1.397
448.40 1.397
448.50 1.396
448.60 1.396
448.70 1.395
448.80 1.395
448.90 1.394
449.00 1.394
449.10 1.393
449.20 1.393
449.30 1.392
449.40 1.391
449.50 1.391
449.60 1.39
449.70 1.39
449.80 1.389
449.90 1.388
450.00 1.388
450.10 1.387
450.20 1.386
450.30 1.386
450.40 1.385
450.50 1.384
450.60 1.384
450.70 1.383
450.80 1.382
450.90 1.382
451.00 1.381
451.10 1.38
451.20 1.38
451.30 1.379
451.40 1.378
451.50 1.377
451.60 1.377
451.70 1.376
451.80 1.375
451.90 1.374
452.00 1.374
452.10 1.373
452.20 1.372
452.30 1.371
452.40 1.371
452.50 1.37
452.60 1.369
452.70 1.368
452.80 1.368
452.90 1.367
453.00 1.366
453.10 1.365
453.20 1.364
453.30 1.364
453.40 1.363
453.50 1.362
453.60 1.361
453.70 1.361
453.80 1.36
453.90 1.359
454.00 1.358
454.10 1.357
454.20 1.357
454.30 1.356
454.40 1.355
454.50 1.354
454.60 1.353
454.70 1.352
454.80 1.352
454.90 1.351
455.00 1.35
455.10 1.349
455.20 1.348
455.30 1.348
455.40 1.347
455.50 1.346
455.60 1.345
455.70 1.344
455.80 1.343
455.90 1.343
456.00 1.342
456.10 1.341
456.20 1.34
456.30 1.339
456.40 1.338
456.50 1.338
456.60 1.337
456.70 1.336
456.80 1.335
456.90 1.334
457.00 1.333
457.10 1.333
457.20 1.332
457.30 1.331
457.40 1.33
457.50 1.329
457.60 1.328
457.70 1.328
457.80 1.327
457.90 1.326
458.00 1.325
458.10 1.324
458.20 1.323
458.30 1.322
458.40 1.322
458.50 1.321
458.60 1.32
458.70 1.319
458.80 1.318
458.90 1.317
459.00 1.316
459.10 1.315
459.20 1.315
459.30 1.314
459.40 1.313
459.50 1.312
459.60 1.311
459.70 1.31
459.80 1.309
459.90 1.308
460.00 1.307
460.10 1.307
460.20 1.306
460.30 1.305
460.40 1.304
460.50 1.303
460.60 1.302
460.70 1.301
460.80 1.3
460.90 1.299
461.00 1.299
461.10 1.298
461.20 1.297
461.30 1.296
461.40 1.295
461.50 1.294
461.60 1.293
461.70 1.292
461.80 1.291
461.90 1.29
462.00 1.29
462.10 1.289
462.20 1.288
462.30 1.287
462.40 1.286
462.50 1.285
462.60 1.284
462.70 1.283
462.80 1.282
462.90 1.281
463.00 1.28
463.10 1.279
463.20 1.279
463.30 1.278
463.40 1.277
463.50 1.276
463.60 1.275
463.70 1.274
463.80 1.273
463.90 1.272
464.00 1.271
464.10 1.27
464.20 1.269
464.30 1.268
464.40 1.267
464.50 1.266
464.60 1.265
464.70 1.264
464.80 1.264
464.90 1.263
465.00 1.262
465.10 1.261
465.20 1.26
465.30 1.259
465.40 1.258
465.50 1.257
465.60 1.256
465.70 1.255
465.80 1.254
465.90 1.253
466.00 1.252
466.10 1.251
466.20 1.25
466.30 1.249
466.40 1.248
466.50 1.247
466.60 1.246
466.70 1.245
466.80 1.244
466.90 1.243
467.00 1.242
467.10 1.241
467.20 1.24
467.30 1.239
467.40 1.238
467.50 1.237
467.60 1.236
467.70 1.235
467.80 1.234
467.90 1.233
468.00 1.232
468.10 1.231
468.20 1.23
468.30 1.229
468.40 1.228
468.50 1.227
468.60 1.226
468.70 1.225
468.80 1.224
468.90 1.222
469.00 1.221
469.10 1.22
469.20 1.219
469.30 1.218
469.40 1.217
469.50 1.216
469.60 1.215
469.70 1.214
469.80 1.213
469.90 1.211
470.00 1.21
470.10 1.209
470.20 1.208
470.30 1.207
470.40 1.206
470.50 1.205
470.60 1.204
470.70 1.202
470.80 1.201
470.90 1.2
471.00 1.199
471.10 1.198
471.20 1.197
471.30 1.195
471.40 1.194
471.50 1.193
471.60 1.192
471.70 1.19
471.80 1.189
471.90 1.188
472.00 1.187
472.10 1.185
472.20 1.184
472.30 1.183
472.40 1.181
472.50 1.18
472.60 1.179
472.70 1.177
472.80 1.176
472.90 1.175
473.00 1.173
473.10 1.172
473.20 1.17
473.30 1.169
473.40 1.167
473.50 1.166
473.60 1.164
473.70 1.163
473.80 1.161
473.90 1.16
474.00 1.158
474.10 1.157
474.20 1.155
474.30 1.154
474.40 1.152
474.50 1.15
474.60 1.149
474.70 1.147
474.80 1.145
474.90 1.144
475.00 1.142
475.10 1.14
475.20 1.138
475.30 1.137
475.40 1.135
475.50 1.133
475.60 1.131
475.70 1.129
475.80 1.127
475.90 1.125
476.00 1.123
476.10 1.121
476.20 1.119
476.30 1.117
476.40 1.115
476.50 1.112
476.60 1.11
476.70 1.108
476.80 1.106
476.90 1.103
477.00 1.101
477.10 1.099
477.20 1.097
477.30 1.094
477.40 1.091
477.50 1.089
477.60 1.086
477.70 1.083
477.80 1.081
477.90 1.078
478.00 1.075
478.10 1.073
478.20 1.07
478.30 1.066
478.40 1.063
478.50 1.06
478.60 1.057
478.70 1.053
478.80 1.05
478.90 1.047
479.00 1.044
479.10 1.04
479.20 1.037
479.30 1.033
479.40 1.029
479.50 1.025
479.60 1.021
479.70 1.017
479.80 1.013
479.90 1.009
480.00 1.005
480.10 1.001
480.20 0.996
480.30 0.991
480.40 0.986
480.50 0.981
480.60 0.9761
480.70 0.9711
480.80 0.9661
480.90 0.9611
481.00 0.9562
481.10 0.9512
481.20 0.9453
481.30 0.939
481.40 0.9327
481.50 0.9264
481.60 0.9201
481.70 0.9139
481.80 0.9076
481.90 0.9013
482.00 0.895
482.10 0.8888
482.20 0.8814
482.30 0.8734
482.40 0.8655
482.50 0.8576
482.60 0.8497
482.70 0.8418
482.80 0.8339
482.90 0.826
483.00 0.8181
483.10 0.8103
483.20 0.8009
483.30 0.791
483.40 0.781
483.50 0.771
483.60 0.761
483.70 0.7511
483.80 0.7411
483.90 0.7312
484.00 0.7212
484.10 0.7113
484.20 0.7003
484.30 0.6887
484.40 0.6771
484.50 0.6656
484.60 0.654
484.70 0.6416
484.80 0.6289
484.90 0.6161
485.00 0.6034
485.10 0.5907
485.20 0.5774
485.30 0.5639
485.40 0.5495
485.50 0.5348
485.60 0.5188
485.70 0.5023
485.80 0.483
485.90 0.4623
486.00 0.4341
486.10 0.3396
486.20 0.3905
486.30 0.4454
486.40 0.4683
486.50 0.4888
486.60 0.5063
486.70 0.5224
486.80 0.5372
486.90 0.5515
487.00 0.5649
487.10 0.5779
487.20 0.5903
487.30 0.6024
487.40 0.6145
487.50 0.6265
487.60 0.6386
487.70 0.6498
487.80 0.6606
487.90 0.6714
488.00 0.6821
488.10 0.6929
488.20 0.7025
488.30 0.7115
488.40 0.7205
488.50 0.7295
488.60 0.7384
488.70 0.7474
488.80 0.7564
488.90 0.7653
489.00 0.7743
489.10 0.7832
489.20 0.7907
489.30 0.7974
489.40 0.8041
489.50 0.8109
489.60 0.8176
489.70 0.8243
489.80 0.831
489.90 0.8377
490.00 0.8444
490.10 0.851
490.20 0.8566
490.30 0.8615
490.40 0.8664
490.50 0.8714
490.60 0.8763
490.70 0.8813
490.80 0.8862
490.90 0.8911
491.00 0.896
491.10 0.901
491.20 0.9049
491.30 0.9085
491.40 0.912
491.50 0.9155
491.60 0.9191
491.70 0.9226
491.80 0.9261
491.90 0.9296
492.00 0.9331
492.10 0.9366
492.20 0.9394
492.30 0.9419
492.40 0.9444
492.50 0.9469
492.60 0.9493
492.70 0.9518
492.80 0.9543
492.90 0.9567
493.00 0.9592
493.10 0.9616
493.20 0.9636
493.30 0.9653
493.40 0.967
493.50 0.9687
493.60 0.9704
493.70 0.9721
493.80 0.9738
493.90 0.9755
494.00 0.9772
494.10 0.9789
494.20 0.9802
494.30 0.9813
494.40 0.9824
494.50 0.9835
494.60 0.9846
494.70 0.9857
494.80 0.9868
494.90 0.9878
495.00 0.9889
495.10 0.99
495.20 0.9908
495.30 0.9915
495.40 0.9921
495.50 0.9928
495.60 0.9935
495.70 0.9941
495.80 0.9948
495.90 0.9955
496.00 0.9961
496.10 0.9968
496.20 0.9972
496.30 0.9976
496.40 0.9979
496.50 0.9983
496.60 0.9987
496.70 0.999
496.80 0.9994
496.90 0.9997
497.00 1
497.10 1
497.20 1.001
497.30 1.001
497.40 1.001
497.50 1.001
497.60 1.001
497.70 1.001
497.80 1.001
497.90 1.002
498.00 1.002
498.10 1.002
498.20 1.002
498.30 1.002
498.40 1.002
498.50 1.002
498.60 1.002
498.70 1.002
498.80 1.002
498.90 1.002
499.00 1.001
499.10 1.001
499.20 1.001
499.30 1.001
499.40 1.001
499.50 1.001
499.60 1.001
499.70 1
499.80 1
499.90 1
500.00 1
500.10 0.9998
500.20 0.9996
500.30 0.9993
500.40 0.9991
500.50 0.9988
500.60 0.9986
500.70 0.9983
500.80 0.9981
500.90 0.9978
501.00 0.9975
501.10 0.9973
501.20 0.997
501.30 0.9967
501.40 0.9963
501.50 0.996
501.60 0.9957
501.70 0.9953
501.80 0.995
501.90 0.9947
502.00 0.9944
502.10 0.994
502.20 0.9937
502.30 0.9933
502.40 0.9929
502.50 0.9925
502.60 0.9922
502.70 0.9918
502.80 0.9914
502.90 0.991
503.00 0.9907
503.10 0.9903
503.20 0.9899
503.30 0.9895
503.40 0.989
503.50 0.9886
503.60 0.9882
503.70 0.9878
503.80 0.9874
503.90 0.987
504.00 0.9865
504.10 0.9861
504.20 0.9857
504.30 0.9852
504.40 0.9848
504.50 0.9843
504.60 0.9839
504.70 0.9834
504.80 0.983
504.90 0.9825
505.00 0.9821
505.10 0.9817
505.20 0.9812
505.30 0.9807
505.40 0.9802
505.50 0.9798
505.60 0.9793
505.70 0.9788
505.80 0.9784
505.90 0.9779
506.00 0.9774
506.10 0.9769
506.20 0.9765
506.30 0.976
506.40 0.9755
506.50 0.975
506.60 0.9745
506.70 0.974
506.80 0.9735
506.90 0.973
507.00 0.9726
507.10 0.9721
507.20 0.9716
507.30 0.9711
507.40 0.9706
507.50 0.9701
507.60 0.9696
507.70 0.969
507.80 0.9685
507.90 0.968
508.00 0.9675
508.10 0.967
508.20 0.9665
508.30 0.966
508.40 0.9655
508.50 0.965
508.60 0.9645
508.70 0.964
508.80 0.9634
508.90 0.9629
509.00 0.9624
509.10 0.9619
509.20 0.9614
509.30 0.9609
509.40 0.9603
509.50 0.9598
509.60 0.9593
509.70 0.9588
509.80 0.9583
509.90 0.9577
510.00 0.9572
510.10 0.9567
510.20 0.9562
510.30 0.9557
510.40 0.9551
510.50 0.9546
510.60 0.9541
510.70 0.9535
510.80 0.953
510.90 0.9525
511.00 0.952
511.10 0.9514
511.20 0.9509
511.30 0.9504
511.40 0.9499
511.50 0.9493
511.60 0.9488
511.70 0.9483
511.80 0.9477
511.90 0.9472
512.00 0.9467
512.10 0.9461
512.20 0.9456
512.30 0.9451
512.40 0.9445
512.50 0.944
512.60 0.9435
512.70 0.943
512.80 0.9424
512.90 0.9419
513.00 0.9414
513.10 0.9408
513.20 0.9403
513.30 0.9398
513.40 0.9392
513.50 0.9387
513.60 0.9382
513.70 0.9376
513.80 0.9371
513.90 0.9366
514.00 0.936
514.10 0.9355
514.20 0.935
514.30 0.9344
514.40 0.9339
514.50 0.9334
514.60 0.9328
514.70 0.9323
514.80 0.9318
514.90 0.9312
515.00 0.9307
515.10 0.9302
515.20 0.9296
515.30 0.9291
515.40 0.9286
515.50 0.928
515.60 0.9275
515.70 0.9269
515.80 0.9264
515.90 0.9259
516.00 0.9253
516.10 0.9248
516.20 0.9243
516.30 0.9237
516.40 0.9232
516.50 0.9227
516.60 0.9221
516.70 0.9216
516.80 0.9211
516.90 0.9205
517.00 0.92
517.10 0.9195
517.20 0.919
517.30 0.9184
517.40 0.9179
517.50 0.9174
517.60 0.9168
517.70 0.9163
517.80 0.9158
517.90 0.9152
518.00 0.9147
518.10 0.9142
518.20 0.9136
518.30 0.9131
518.40 0.9126
518.50 0.9121
518.60 0.9115
518.70 0.911
518.80 0.9105
518.90 0.9099
519.00 0.9094
519.10 0.9089
519.20 0.9084
519.30 0.9078
519.40 0.9073
519.50 0.9068
519.60 0.9062
519.70 0.9057
519.80 0.9052
519.90 0.9047
520.00 0.9041
520.10 0.9036
520.20 0.9031
520.30 0.9025
520.40 0.902
520.50 0.9015
520.60 0.901
520.70 0.9004
520.80 0.8999
520.90 0.8994
521.00 0.8989
521.10 0.8983
521.20 0.8978
521.30 0.8973
521.40 0.8968
521.50 0.8962
521.60 0.8957
521.70 0.8952
521.80 0.8947
521.90 0.8942
522.00 0.8936
522.10 0.8931
522.20 0.8926
522.30 0.8921
522.40 0.8915
522.50 0.891
522.60 0.8905
522.70 0.89
522.80 0.8895
522.90 0.8889
523.00 0.8884
523.10 0.8879
523.20 0.8874
523.30 0.8869
523.40 0.8863
523.50 0.8858
523.60 0.8853
523.70 0.8848
523.80 0.8843
523.90 0.8838
524.00 0.8832
524.10 0.8827
524.20 0.8822
524.30 0.8817
524.40 0.8812
524.50 0.8807
524.60 0.8801
524.70 0.8796
524.80 0.8791
524.90 0.8786
525.00 0.8781
525.10 0.8776
525.20 0.877
525.30 0.8765
525.40 0.876
525.50 0.8755
525.60 0.875
525.70 0.8745
525.80 0.874
525.90 0.8735
526.00 0.8729
526.10 0.8724
526.20 0.8719
526.30 0.8714
526.40 0.8709
526.50 0.8704
526.60 0.8699
526.70 0.8694
526.80 0.8689
526.90 0.8684
527.00 0.8678
527.10 0.8673
527.20 0.8668
527.30 0.8663
527.40 0.8658
527.50 0.8653
527.60 0.8648
527.70 0.8643
527.80 0.8638
527.90 0.8633
528.00 0.8628
528.10 0.8623
528.20 0.8618
528.30 0.8613
528.40 0.8608
528.50 0.8602
528.60 0.8597
528.70 0.8592
528.80 0.8587
528.90 0.8582
529.00 0.8577
529.10 0.8572
529.20 0.8567
529.30 0.8562
529.40 0.8557
529.50 0.8552
529.60 0.8547
529.70 0.8542
529.80 0.8537
529.90 0.8532
530.00 0.8527
530.10 0.8522
530.20 0.8517
530.30 0.8512
530.40 0.8507
530.50 0.8502
530.60 0.8497
530.70 0.8492
530.80 0.8487
530.90 0.8482
531.00 0.8477
531.10 0.8472
531.20 0.8468
531.30 0.8463
531.40 0.8458
531.50 0.8453
531.60 0.8448
531.70 0.8443
531.80 0.8438
531.90 0.8433
532.00 0.8428
532.10 0.8423
532.20 0.8418
532.30 0.8413
532.40 0.8408
532.50 0.8403
532.60 0.8398
532.70 0.8394
532.80 0.8389
532.90 0.8384
533.00 0.8379
533.10 0.8374
533.20 0.8369
533.30 0.8364
533.40 0.8359
533.50 0.8354
533.60 0.835
533.70 0.8345
533.80 0.834
533.90 0.8335
534.00 0.833
534.10 0.8325
534.20 0.832
534.30 0.8315
534.40 0.8311
534.50 0.8306
534.60 0.8301
534.70 0.8296
534.80 0.8291
534.90 0.8286
535.00 0.8282
535.10 0.8277
535.20 0.8272
535.30 0.8267
535.40 0.8262
535.50 0.8257
535.60 0.8253
535.70 0.8248
535.80 0.8243
535.90 0.8238
536.00 0.8233
536.10 0.8229
536.20 0.8224
536.30 0.8219
536.40 0.8214
536.50 0.8209
536.60 0.8205
536.70 0.82
536.80 0.8195
536.90 0.819
537.00 0.8186
537.10 0.8181
537.20 0.8176
537.30 0.8171
537.40 0.8167
537.50 0.8162
537.60 0.8157
537.70 0.8152
537.80 0.8148
537.90 0.8143
538.00 0.8138
538.10 0.8133
538.20 0.8129
538.30 0.8124
538.40 0.8119
538.50 0.8115
538.60 0.811
538.70 0.8105
538.80 0.81
538.90 0.8096
539.00 0.8091
539.10 0.8086
539.20 0.8082
539.30 0.8077
539.40 0.8072
539.50 0.8067
539.60 0.8063
539.70 0.8058
539.80 0.8053
539.90 0.8049
540.00 0.8044
540.10 0.8039
540.20 0.8035
540.30 0.803
540.40 0.8025
540.50 0.8021
540.60 0.8016
540.70 0.8011
540.80 0.8007
540.90 0.8002
541.00 0.7998
541.10 0.7993
541.20 0.7988
541.30 0.7984
541.40 0.7979
541.50 0.7974
541.60 0.797
541.70 0.7965
541.80 0.7961
541.90 0.7956
542.00 0.7951
542.10 0.7947
542.20 0.7942
542.30 0.7938
542.40 0.7933
542.50 0.7928
542.60 0.7924
542.70 0.7919
542.80 0.7915
542.90 0.791
543.00 0.7906
543.10 0.7901
543.20 0.7896
543.30 0.7892
543.40 0.7887
543.50 0.7883
543.60 0.7878
543.70 0.7874
543.80 0.7869
543.90 0.7865
544.00 0.786
544.10 0.7855
544.20 0.7851
544.30 0.7846
544.40 0.7842
544.50 0.7837
544.60 0.7833
544.70 0.7828
544.80 0.7824
544.90 0.7819
545.00 0.7815
545.10 0.781
545.20 0.7806
545.30 0.7801
545.40 0.7797
545.50 0.7792
545.60 0.7788
545.70 0.7783
545.80 0.7779
545.90 0.7774
546.00 0.777
546.10 0.7765
546.20 0.7761
546.30 0.7757
546.40 0.7753
546.50 0.7749
546.60 0.7744
546.70 0.774
546.80 0.7736
546.90 0.7732
547.00 0.7728
547.10 0.7724
547.20 0.7719
547.30 0.7715
547.40 0.771
547.50 0.7706
547.60 0.7702
547.70 0.7697
547.80 0.7693
547.90 0.7688
548.00 0.7684
548.10 0.7679
548.20 0.7675
548.30 0.7671
548.40 0.7666
548.50 0.7662
548.60 0.7657
548.70 0.7653
548.80 0.7649
548.90 0.7644
549.00 0.764
549.10 0.7635
549.20 0.7631
549.30 0.7627
549.40 0.7622
549.50 0.7618
549.60 0.7613
549.70 0.7609
549.80 0.7605
549.90 0.76
550.00 0.7596
550.10 0.7592
550.20 0.7587
550.30 0.7583
550.40 0.7579
550.50 0.7574
550.60 0.757
550.70 0.7565
550.80 0.7561
550.90 0.7557
551.00 0.7552
551.10 0.7548
551.20 0.7544
551.30 0.7539
551.40 0.7535
551.50 0.7531
551.60 0.7527
551.70 0.7522
551.80 0.7518
551.90 0.7514
552.00 0.7509
552.10 0.7505
552.20 0.7501
552.30 0.7496
552.40 0.7492
552.50 0.7488
552.60 0.7484
552.70 0.7479
552.80 0.7475
552.90 0.7471
553.00 0.7466
553.10 0.7462
553.20 0.7458
553.30 0.7454
553.40 0.7449
553.50 0.7445
553.60 0.7441
553.70 0.7437
553.80 0.7432
553.90 0.7428
554.00 0.7424
554.10 0.742
554.20 0.7415
554.30 0.7411
554.40 0.7407
554.50 0.7403
554.60 0.7398
554.70 0.7394
554.80 0.739
554.90 0.7386
555.00 0.7382
555.10 0.7377
555.20 0.7373
555.30 0.7369
555.40 0.7365
555.50 0.7361
555.60 0.7356
555.70 0.7352
555.80 0.7348
555.90 0.7344
556.00 0.734
556.10 0.7335
556.20 0.7331
556.30 0.7327
556.40 0.7323
556.50 0.7319
556.60 0.7315
556.70 0.731
556.80 0.7306
556.90 0.7302
557.00 0.7298
557.10 0.7294
557.20 0.729
557.30 0.7286
557.40 0.7281
557.50 0.7277
557.60 0.7273
557.70 0.7269
557.80 0.7265
557.90 0.7261
558.00 0.7257
558.10 0.7252
558.20 0.7248
558.30 0.7244
558.40 0.724
558.50 0.7236
558.60 0.7232
558.70 0.7228
558.80 0.7224
558.90 0.722
559.00 0.7216
559.10 0.7212
559.20 0.7207
559.30 0.7203
559.40 0.7199
559.50 0.7195
559.60 0.7191
559.70 0.7187
559.80 0.7183
559.90 0.7179
560.00 0.7175
560.10 0.7171
560.20 0.7167
560.30 0.7163
560.40 0.7159
560.50 0.7155
560.60 0.715
560.70 0.7146
560.80 0.7142
560.90 0.7138
561.00 0.7134
561.10 0.713
561.20 0.7126
561.30 0.7122
561.40 0.7118
561.50 0.7114
561.60 0.711
561.70 0.7106
561.80 0.7102
561.90 0.7098
562.00 0.7094
562.10 0.709
562.20 0.7086
562.30 0.7082
562.40 0.7078
562.50 0.7074
562.60 0.707
562.70 0.7066
562.80 0.7062
562.90 0.7058
563.00 0.7054
563.10 0.705
563.20 0.7046
563.30 0.7042
563.40 0.7038
563.50 0.7034
563.60 0.703
563.70 0.7027
563.80 0.7023
563.90 0.7019
564.00 0.7015
564.10 0.7011
564.20 0.7007
564.30 0.7003
564.40 0.6999
564.50 0.6995
564.60 0.6991
564.70 0.6987
564.80 0.6983
564.90 0.6979
565.00 0.6975
565.10 0.6971
565.20 0.6967
565.30 0.6964
565.40 0.696
565.50 0.6956
565.60 0.6952
565.70 0.6948
565.80 0.6944
565.90 0.694
566.00 0.6936
566.10 0.6932
566.20 0.6928
566.30 0.6925
566.40 0.6921
566.50 0.6917
566.60 0.6913
566.70 0.6909
566.80 0.6905
566.90 0.6901
567.00 0.6897
567.10 0.6894
567.20 0.689
567.30 0.6886
567.40 0.6882
567.50 0.6878
567.60 0.6874
567.70 0.687
567.80 0.6867
567.90 0.6863
568.00 0.6859
568.10 0.6855
568.20 0.6851
568.30 0.6847
568.40 0.6844
568.50 0.684
568.60 0.6836
568.70 0.6832
568.80 0.6828
568.90 0.6825
569.00 0.6821
569.10 0.6817
569.20 0.6813
569.30 0.6809
569.40 0.6806
569.50 0.6802
569.60 0.6798
569.70 0.6794
569.80 0.679
569.90 0.6787
570.00 0.6783
570.10 0.6779
570.20 0.6775
570.30 0.6771
570.40 0.6768
570.50 0.6764
570.60 0.676
570.70 0.6756
570.80 0.6753
570.90 0.6749
571.00 0.6745
571.10 0.6741
571.20 0.6737
571.30 0.6734
571.40 0.673
571.50 0.6726
571.60 0.6723
571.70 0.6719
571.80 0.6715
571.90 0.6711
572.00 0.6708
572.10 0.6704
572.20 0.67
572.30 0.6696
572.40 0.6693
572.50 0.6689
572.60 0.6685
572.70 0.6682
572.80 0.6678
572.90 0.6674
573.00 0.667
573.10 0.6667
573.20 0.6663
573.30 0.6659
573.40 0.6656
573.50 0.6652
573.60 0.6648
573.70 0.6645
573.80 0.6641
573.90 0.6637
574.00 0.6634
574.10 0.663
574.20 0.6626
574.30 0.6622
574.40 0.6619
574.50 0.6615
574.60 0.6611
574.70 0.6608
574.80 0.6604
574.90 0.66
575.00 0.6597
575.10 0.6593
575.20 0.659
575.30 0.6586
575.40 0.6582
575.50 0.6579
575.60 0.6575
575.70 0.6571
575.80 0.6568
575.90 0.6564
576.00 0.656
576.10 0.6557
576.20 0.6553
576.30 0.655
576.40 0.6546
576.50 0.6542
576.60 0.6539
576.70 0.6535
576.80 0.6532
576.90 0.6528
577.00 0.6524
577.10 0.6521
577.20 0.6517
577.30 0.6513
577.40 0.651
577.50 0.6506
577.60 0.6503
577.70 0.6499
577.80 0.6496
577.90 0.6492
578.00 0.6488
578.10 0.6485
578.20 0.6481
578.30 0.6478
578.40 0.6474
578.50 0.647
578.60 0.6467
578.70 0.6463
578.80 0.646
578.90 0.6456
579.00 0.6453
579.10 0.6449
579.20 0.6446
579.30 0.6442
579.40 0.6439
579.50 0.6435
579.60 0.6431
579.70 0.6428
579.80 0.6424
579.90 0.6421
580.00 0.6417
580.10 0.6414
580.20 0.641
580.30 0.6407
580.40 0.6403
580.50 0.64
580.60 0.6396
580.70 0.6393
580.80 0.6389
580.90 0.6386
581.00 0.6382
581.10 0.6379
581.20 0.6375
581.30 0.6372
581.40 0.6368
581.50 0.6365
581.60 0.6361
581.70 0.6358
581.80 0.6354
581.90 0.6351
582.00 0.6347
582.10 0.6344
582.20 0.634
582.30 0.6337
582.40 0.6333
582.50 0.633
582.60 0.6326
582.70 0.6323
582.80 0.6319
582.90 0.6316
583.00 0.6313
583.10 0.6309
583.20 0.6306
583.30 0.6302
583.40 0.6299
583.50 0.6295
583.60 0.6292
583.70 0.6288
583.80 0.6285
583.90 0.6282
584.00 0.6278
584.10 0.6275
584.20 0.6271
584.30 0.6268
584.40 0.6264
584.50 0.6261
584.60 0.6258
584.70 0.6254
584.80 0.6251
584.90 0.6247
585.00 0.6244
585.10 0.6241
585.20 0.6237
585.30 0.6234
585.40 0.623
585.50 0.6227
585.60 0.6224
585.70 0.622
585.80 0.6217
585.90 0.6213
586.00 0.621
586.10 0.6207
586.20 0.6203
586.30 0.62
586.40 0.6196
586.50 0.6193
586.60 0.619
586.70 0.6186
586.80 0.6183
586.90 0.618
587.00 0.6176
587.10 0.6173
587.20 0.617
587.30 0.6166
587.40 0.6163
587.50 0.6159
587.60 0.6156
587.70 0.6153
587.80 0.6149
587.90 0.6146
588.00 0.6143
588.10 0.6139
588.20 0.6136
588.30 0.6133
588.40 0.6129
588.50 0.6126
588.60 0.6123
588.70 0.6119
588.80 0.6116
588.90 0.6113
589.00 0.611
589.10 0.6106
589.20 0.6103
589.30 0.61
589.40 0.6096
589.50 0.6093
589.60 0.609
589.70 0.6086
589.80 0.6083
589.90 0.608
590.00 0.6076
590.10 0.6073
590.20 0.607
590.30 0.6067
590.40 0.6063
590.50 0.606
590.60 0.6057
590.70 0.6053
590.80 0.605
590.90 0.6047
591.00 0.6044
591.10 0.604
591.20 0.6037
591.30 0.6034
591.40 0.6031
591.50 0.6027
591.60 0.6024
591.70 0.6021
591.80 0.6017
591.90 0.6014
592.00 0.6011
592.10 0.6008
592.20 0.6004
592.30 0.6001
592.40 0.5998
592.50 0.5995
592.60 0.5992
592.70 0.5988
592.80 0.5985
592.90 0.5982
593.00 0.5979
593.10 0.5975
593.20 0.5972
593.30 0.5969
593.40 0.5966
593.50 0.5963
593.60 0.5959
593.70 0.5956
593.80 0.5953
593.90 0.595
594.00 0.5947
594.10 0.5943
594.20 0.594
594.30 0.5937
594.40 0.5934
594.50 0.593
594.60 0.5927
594.70 0.5924
594.80 0.5921
594.90 0.5918
595.00 0.5915
595.10 0.5911
595.20 0.5908
595.30 0.5905
595.40 0.5902
595.50 0.5899
595.60 0.5895
595.70 0.5892
595.80 0.5889
595.90 0.5886
596.00 0.5883
596.10 0.588
596.20 0.5876
596.30 0.5872
596.40 0.5869
596.50 0.5865
596.60 0.5861
596.70 0.5857
596.80 0.5854
596.90 0.585
597.00 0.5846
597.10 0.5842
597.20 0.5839
597.30 0.5836
597.40 0.5833
597.50 0.583
597.60 0.5826
597.70 0.5823
597.80 0.582
597.90 0.5817
598.00 0.5814
598.10 0.5811
598.20 0.5808
598.30 0.5804
598.40 0.5801
598.50 0.5798
598.60 0.5795
598.70 0.5792
598.80 0.5789
598.90 0.5786
599.00 0.5783
599.10 0.578
599.20 0.5776
599.30 0.5773
599.40 0.577
599.50 0.5767
599.60 0.5764
599.70 0.5761
599.80 0.5758
599.90 0.5755
600.00 0.5752
600.10 0.5748
600.20 0.5745
600.30 0.5742
600.40 0.5739
600.50 0.5736
600.60 0.5733
600.70 0.573
600.80 0.5727
600.90 0.5724
601.00 0.5721
601.10 0.5718
601.20 0.5715
601.30 0.5711
601.40 0.5708
601.50 0.5705
601.60 0.5702
601.70 0.5699
601.80 0.5696
601.90 0.5693
602.00 0.569
602.10 0.5687
602.20 0.5684
602.30 0.5681
602.40 0.5678
602.50 0.5675
602.60 0.5672
602.70 0.5669
602.80 0.5666
602.90 0.5663
603.00 0.566
603.10 0.5657
603.20 0.5654
603.30 0.565
603.40 0.5647
603.50 0.5644
603.60 0.5641
603.70 0.5638
603.80 0.5635
603.90 0.5632
604.00 0.5629
604.10 0.5626
604.20 0.5623
604.30 0.562
604.40 0.5617
604.50 0.5614
604.60 0.5611
604.70 0.5608
604.80 0.5605
604.90 0.5602
605.00 0.5599
605.10 0.5596
605.20 0.5593
605.30 0.559
605.40 0.5587
605.50 0.5584
605.60 0.5581
605.70 0.5578
605.80 0.5575
605.90 0.5572
606.00 0.5569
606.10 0.5566
606.20 0.5563
606.30 0.556
606.40 0.5557
606.50 0.5554
606.60 0.5551
606.70 0.5548
606.80 0.5545
606.90 0.5542
607.00 0.5539
607.10 0.5536
607.20 0.5534
607.30 0.5531
607.40 0.5528
607.50 0.5525
607.60 0.5522
607.70 0.5519
607.80 0.5516
607.90 0.5513
608.00 0.551
608.10 0.5507
608.20 0.5504
608.30 0.5501
608.40 0.5498
608.50 0.5495
608.60 0.5492
608.70 0.5489
608.80 0.5486
608.90 0.5483
609.00 0.548
609.10 0.5478
609.20 0.5475
609.30 0.5472
609.40 0.5469
609.50 0.5466
609.60 0.5463
609.70 0.546
609.80 0.5457
609.90 0.5454
610.00 0.5451
610.10 0.5448
610.20 0.5445
610.30 0.5443
610.40 0.544
610.50 0.5437
610.60 0.5434
610.70 0.5431
610.80 0.5428
610.90 0.5425
611.00 0.5422
611.10 0.5419
611.20 0.5416
611.30 0.5414
611.40 0.5411
611.50 0.5408
611.60 0.5405
611.70 0.5402
611.80 0.5399
611.90 0.5396
612.00 0.5393
612.10 0.539
612.20 0.5388
612.30 0.5385
612.40 0.5382
612.50 0.5379
612.60 0.5376
612.70 0.5373
612.80 0.537
612.90 0.5368
613.00 0.5365
613.10 0.5362
613.20 0.5359
613.30 0.5356
613.40 0.5353
613.50 0.535
613.60 0.5347
613.70 0.5345
613.80 0.5342
613.90 0.5339
614.00 0.5336
614.10 0.5333
614.20 0.533
614.30 0.5327
614.40 0.5325
614.50 0.5322
614.60 0.5319
614.70 0.5316
614.80 0.5313
614.90 0.531
615.00 0.5308
615.10 0.5305
615.20 0.5302
615.30 0.5299
615.40 0.5296
615.50 0.5293
615.60 0.5291
615.70 0.5288
615.80 0.5285
615.90 0.5282
616.00 0.5279
616.10 0.5276
616.20 0.5274
616.30 0.5271
616.40 0.5268
616.50 0.5265
616.60 0.5262
616.70 0.526
616.80 0.5257
616.90 0.5254
617.00 0.5251
617.10 0.5248
617.20 0.5246
617.30 0.5243
617.40 0.524
617.50 0.5237
617.60 0.5234
617.70 0.5231
617.80 0.5229
617.90 0.5226
618.00 0.5223
618.10 0.522
618.20 0.5217
618.30 0.5215
618.40 0.5212
618.50 0.5209
618.60 0.5206
618.70 0.5203
618.80 0.5201
618.90 0.5198
619.00 0.5195
619.10 0.5192
619.20 0.519
619.30 0.5187
619.40 0.5184
619.50 0.5181
619.60 0.5178
619.70 0.5176
619.80 0.5173
619.90 0.517
620.00 0.5167
620.10 0.5165
620.20 0.5162
620.30 0.5159
620.40 0.5156
620.50 0.5153
620.60 0.5151
620.70 0.5148
620.80 0.5145
620.90 0.5142
621.00 0.514
621.10 0.5137
621.20 0.5134
621.30 0.5131
621.40 0.5128
621.50 0.5126
621.60 0.5123
621.70 0.512
621.80 0.5117
621.90 0.5115
622.00 0.5112
622.10 0.5109
622.20 0.5106
622.30 0.5104
622.40 0.5101
622.50 0.5098
622.60 0.5095
622.70 0.5093
622.80 0.509
622.90 0.5087
623.00 0.5084
623.10 0.5082
623.20 0.5079
623.30 0.5076
623.40 0.5073
623.50 0.5071
623.60 0.5068
623.70 0.5065
623.80 0.5062
623.90 0.506
624.00 0.5057
624.10 0.5054
624.20 0.5051
624.30 0.5049
624.40 0.5046
624.50 0.5043
624.60 0.504
624.70 0.5038
624.80 0.5035
624.90 0.5032
625.00 0.5029
625.10 0.5027
625.20 0.5024
625.30 0.5021
625.40 0.5018
625.50 0.5016
625.60 0.5013
625.70 0.501
625.80 0.5007
625.90 0.5005
626.00 0.5002
626.10 0.4999
626.20 0.4997
626.30 0.4994
626.40 0.4991
626.50 0.4988
626.60 0.4986
626.70 0.4983
626.80 0.498
626.90 0.4977
627.00 0.4975
627.10 0.4972
627.20 0.4969
627.30 0.4966
627.40 0.4964
627.50 0.4961
627.60 0.4958
627.70 0.4956
627.80 0.4953
627.90 0.495
628.00 0.4947
628.10 0.4945
628.20 0.4942
628.30 0.4939
628.40 0.4936
628.50 0.4934
628.60 0.4931
628.70 0.4928
628.80 0.4925
628.90 0.4923
629.00 0.492
629.10 0.4917
629.20 0.4914
629.30 0.4912
629.40 0.4909
629.50 0.4906
629.60 0.4903
629.70 0.4901
629.80 0.4898
629.90 0.4895
630.00 0.4892
630.10 0.489
630.20 0.4887
630.30 0.4884
630.40 0.4881
630.50 0.4879
630.60 0.4876
630.70 0.4873
630.80 0.487
630.90 0.4868
631.00 0.4865
631.10 0.4862
631.20 0.4859
631.30 0.4857
631.40 0.4854
631.50 0.4851
631.60 0.4848
631.70 0.4846
631.80 0.4843
631.90 0.484
632.00 0.4837
632.10 0.4835
632.20 0.4832
632.30 0.4829
632.40 0.4826
632.50 0.4823
632.60 0.4821
632.70 0.4818
632.80 0.4815
632.90 0.4812
633.00 0.4809
633.10 0.4807
633.20 0.4804
633.30 0.4801
633.40 0.4798
633.50 0.4795
633.60 0.4792
633.70 0.479
633.80 0.4787
633.90 0.4784
634.00 0.4781
634.10 0.4778
634.20 0.4775
634.30 0.4773
634.40 0.477
634.50 0.4767
634.60 0.4764
634.70 0.4761
634.80 0.4758
634.90 0.4755
635.00 0.4753
635.10 0.475
635.20 0.4747
635.30 0.4744
635.40 0.4741
635.50 0.4738
635.60 0.4735
635.70 0.4732
635.80 0.4729
635.90 0.4726
636.00 0.4723
636.10 0.4721
636.20 0.4718
636.30 0.4715
636.40 0.4712
636.50 0.4709
636.60 0.4706
636.70 0.4703
636.80 0.47
636.90 0.4697
637.00 0.4694
637.10 0.4691
637.20 0.4688
637.30 0.4685
637.40 0.4682
637.50 0.4679
637.60 0.4675
637.70 0.4672
637.80 0.4669
637.90 0.4666
638.00 0.4663
638.10 0.466
638.20 0.4657
638.30 0.4654
638.40 0.4651
638.50 0.4648
638.60 0.4644
638.70 0.4641
638.80 0.4638
638.90 0.4635
639.00 0.4632
639.10 0.4628
639.20 0.4625
639.30 0.4622
639.40 0.4619
639.50 0.4615
639.60 0.4612
639.70 0.4609
639.80 0.4605
639.90 0.4602
640.00 0.4599
640.10 0.4595
640.20 0.4592
640.30 0.4589
640.40 0.4585
640.50 0.4582
640.60 0.4578
640.70 0.4575
640.80 0.4571
640.90 0.4568
641.00 0.4564
641.10 0.4561
641.20 0.4557
641.30 0.4554
641.40 0.455
641.50 0.4546
641.60 0.4543
641.70 0.4539
641.80 0.4535
641.90 0.4532
642.00 0.4528
642.10 0.4524
642.20 0.4521
642.30 0.4517
642.40 0.4513
642.50 0.4509
642.60 0.4505
642.70 0.4501
642.80 0.4497
642.90 0.4493
643.00 0.4489
643.10 0.4485
643.20 0.4481
643.30 0.4477
643.40 0.4472
643.50 0.4468
643.60 0.4464
643.70 0.4459
643.80 0.4455
643.90 0.445
644.00 0.4446
644.10 0.4442
644.20 0.4437
644.30 0.4433
644.40 0.4428
644.50 0.4423
644.60 0.4418
644.70 0.4413
644.80 0.4409
644.90 0.4404
645.00 0.4399
645.10 0.4394
645.20 0.4389
645.30 0.4384
645.40 0.4379
645.50 0.4373
645.60 0.4368
645.70 0.4362
645.80 0.4357
645.90 0.4351
646.00 0.4346
646.10 0.434
646.20 0.4335
646.30 0.4329
646.40 0.4323
646.50 0.4317
646.60 0.431
646.70 0.4304
646.80 0.4298
646.90 0.4291
647.00 0.4285
647.10 0.4279
647.20 0.4272
647.30 0.4266
647.40 0.4258
647.50 0.4251
647.60 0.4244
647.70 0.4236
647.80 0.4229
647.90 0.4221
648.00 0.4214
648.10 0.4207
648.20 0.4199
648.30 0.4191
648.40 0.4182
648.50 0.4174
648.60 0.4165
648.70 0.4156
648.80 0.4147
648.90 0.4138
649.00 0.4129
649.10 0.412
649.20 0.4111
649.30 0.4102
649.40 0.4091
649.50 0.408
649.60 0.4069
649.70 0.4058
649.80 0.4048
649.90 0.4037
650.00 0.4026
650.10 0.4015
650.20 0.4004
650.30 0.3993
650.40 0.3979
650.50 0.3966
650.60 0.3953
650.70 0.3939
650.80 0.3926
650.90 0.3912
651.00 0.3899
651.10 0.3886
651.20 0.3872
651.30 0.3858
651.40 0.3841
651.50 0.3824
651.60 0.3807
651.70 0.3791
651.80 0.3774
651.90 0.3757
652.00 0.374
652.10 0.3723
652.20 0.3706
652.30 0.3688
652.40 0.3667
652.50 0.3646
652.60 0.3625
652.70 0.3603
652.80 0.3582
652.90 0.3561
653.00 0.3539
653.10 0.3518
653.20 0.3497
653.30 0.3475
653.40 0.3448
653.50 0.3421
653.60 0.3394
653.70 0.3367
653.80 0.334
653.90 0.3313
654.00 0.3287
654.10 0.326
654.20 0.3233
654.30 0.3205
654.40 0.3173
654.50 0.3141
654.60 0.311
654.70 0.3078
654.80 0.3045
654.90 0.3007
655.00 0.297
655.10 0.2933
655.20 0.2895
655.30 0.2857
655.40 0.2816
655.50 0.2774
655.60 0.2728
655.70 0.268
655.80 0.2626
655.90 0.2566
656.00 0.2487
656.10 0.24
656.20 0.2103
656.30 0.1828
656.40 0.2289
656.50 0.2434
656.60 0.2511
656.70 0.2584
656.80 0.2636
656.90 0.2687
657.00 0.2731
657.10 0.2774
657.20 0.2812
657.30 0.285
657.40 0.2885
657.50 0.292
657.60 0.2955
657.70 0.2989
657.80 0.3023
657.90 0.3052
658.00 0.3081
658.10 0.311
658.20 0.3139
658.30 0.3167
658.40 0.319
658.50 0.3214
658.60 0.3237
658.70 0.3261
658.80 0.3284
658.90 0.3308
659.00 0.3331
659.10 0.3355
659.20 0.3378
659.30 0.34
659.40 0.3418
659.50 0.3435
659.60 0.3453
659.70 0.347
659.80 0.3488
659.90 0.3505
660.00 0.3523
660.10 0.354
660.20 0.3558
660.30 0.3574
660.40 0.3587
660.50 0.36
660.60 0.3613
660.70 0.3625
660.80 0.3638
660.90 0.3651
661.00 0.3664
661.10 0.3676
661.20 0.3689
661.30 0.3701
661.40 0.371
661.50 0.3719
661.60 0.3728
661.70 0.3738
661.80 0.3747
661.90 0.3756
662.00 0.3765
662.10 0.3774
662.20 0.3783
662.30 0.3791
662.40 0.3798
662.50 0.3804
662.60 0.3811
662.70 0.3817
662.80 0.3823
662.90 0.383
663.00 0.3836
663.10 0.3843
663.20 0.3849
663.30 0.3855
663.40 0.3859
663.50 0.3864
663.60 0.3868
663.70 0.3872
663.80 0.3877
663.90 0.3881
664.00 0.3886
664.10 0.389
664.20 0.3894
664.30 0.3898
664.40 0.3901
664.50 0.3904
664.60 0.3907
664.70 0.391
664.80 0.3913
664.90 0.3916
665.00 0.3918
665.10 0.3921
665.20 0.3924
665.30 0.3927
665.40 0.3928
665.50 0.393
665.60 0.3932
665.70 0.3934
665.80 0.3935
665.90 0.3937
666.00 0.3939
666.10 0.3941
666.20 0.3942
666.30 0.3944
666.40 0.3945
666.50 0.3946
666.60 0.3947
666.70 0.3947
666.80 0.3948
666.90 0.3949
667.00 0.395
667.10 0.3951
667.20 0.3952
667.30 0.3953
667.40 0.3953
667.50 0.3953
667.60 0.3954
667.70 0.3954
667.80 0.3954
667.90 0.3955
668.00 0.3955
668.10 0.3955
668.20 0.3955
668.30 0.3956
668.40 0.3955
668.50 0.3955
668.60 0.3955
668.70 0.3955
668.80 0.3955
668.90 0.3955
669.00 0.3954
669.10 0.3954
669.20 0.3954
669.30 0.3954
669.40 0.3953
669.50 0.3953
669.60 0.3952
669.70 0.3952
669.80 0.3951
669.90 0.3951
670.00 0.395
670.10 0.395
670.20 0.3949
670.30 0.3948
670.40 0.3948
670.50 0.3947
670.60 0.3946
670.70 0.3945
670.80 0.3944
670.90 0.3944
671.00 0.3943
671.10 0.3942
671.20 0.3941
671.30 0.394
671.40 0.3939
671.50 0.3938
671.60 0.3937
671.70 0.3936
671.80 0.3935
671.90 0.3934
672.00 0.3933
672.10 0.3932
672.20 0.3931
672.30 0.393
672.40 0.3929
672.50 0.3928
672.60 0.3927
672.70 0.3926
672.80 0.3925
672.90 0.3923
673.00 0.3922
673.10 0.3921
673.20 0.392
673.30 0.3919
673.40 0.3917
673.50 0.3916
673.60 0.3915
673.70 0.3914
673.80 0.3912
673.90 0.3911
674.00 0.391
674.10 0.3909
674.20 0.3907
674.30 0.3906
674.40 0.3905
674.50 0.3903
674.60 0.3902
674.70 0.39
674.80 0.3899
674.90 0.3898
675.00 0.3896
675.10 0.3895
675.20 0.3894
675.30 0.3892
675.40 0.3891
675.50 0.3889
675.60 0.3888
675.70 0.3886
675.80 0.3885
675.90 0.3884
676.00 0.3882
676.10 0.3881
676.20 0.3879
676.30 0.3878
676.40 0.3876
676.50 0.3875
676.60 0.3873
676.70 0.3872
676.80 0.387
676.90 0.3869
677.00 0.3867
677.10 0.3866
677.20 0.3864
677.30 0.3863
677.40 0.3861
677.50 0.386
677.60 0.3858
677.70 0.3856
677.80 0.3855
677.90 0.3853
678.00 0.3852
678.10 0.385
678.20 0.3849
678.30 0.3847
678.40 0.3846
678.50 0.3844
678.60 0.3842
678.70 0.3841
678.80 0.3839
678.90 0.3838
679.00 0.3836
679.10 0.3834
679.20 0.3833
679.30 0.3831
679.40 0.383
679.50 0.3828
679.60 0.3826
679.70 0.3825
679.80 0.3823
679.90 0.3822
680.00 0.382
680.10 0.3818
680.20 0.3817
680.30 0.3815
680.40 0.3813
680.50 0.3812
680.60 0.381
680.70 0.3809
680.80 0.3807
680.90 0.3805
681.00 0.3804
681.10 0.3802
681.20 0.38
681.30 0.3799
681.40 0.3797
681.50 0.3795
681.60 0.3794
681.70 0.3792
681.80 0.379
681.90 0.3789
682.00 0.3787
682.10 0.3785
682.20 0.3784
682.30 0.3782
682.40 0.3781
682.50 0.3779
682.60 0.3777
682.70 0.3776
682.80 0.3774
682.90 0.3772
683.00 0.3771
683.10 0.3769
683.20 0.3767
683.30 0.3766
683.40 0.3764
683.50 0.3762
683.60 0.3761
683.70 0.3759
683.80 0.3757
683.90 0.3755
684.00 0.3754
684.10 0.3752
684.20 0.375
684.30 0.3749
684.40 0.3747
684.50 0.3745
684.60 0.3744
684.70 0.3742
684.80 0.374
684.90 0.3739
685.00 0.3737
685.10 0.3735
685.20 0.3734
685.30 0.3732
685.40 0.373
685.50 0.3729
685.60 0.3727
685.70 0.3725
685.80 0.3724
685.90 0.3722
686.00 0.372
686.10 0.3719
686.20 0.3717
686.30 0.3715
686.40 0.3714
686.50 0.3712
686.60 0.371
686.70 0.3709
686.80 0.3707
686.90 0.3705
687.00 0.3704
687.10 0.3702
687.20 0.37
687.30 0.3699
687.40 0.3697
687.50 0.3695
687.60 0.3693
687.70 0.3692
687.80 0.369
687.90 0.3688
688.00 0.3687
688.10 0.3685
688.20 0.3683
688.30 0.3682
688.40 0.368
688.50 0.3678
688.60 0.3677
688.70 0.3675
688.80 0.3673
688.90 0.3672
689.00 0.367
689.10 0.3668
689.20 0.3667
689.30 0.3665
689.40 0.3663
689.50 0.3662
689.60 0.366
689.70 0.3658
689.80 0.3657
689.90 0.3655
690.00 0.3653
690.10 0.3651
690.20 0.365
690.30 0.3648
690.40 0.3646
690.50 0.3645
690.60 0.3643
690.70 0.3641
690.80 0.364
690.90 0.3638
691.00 0.3636
691.10 0.3635
691.20 0.3633
691.30 0.3631
691.40 0.363
691.50 0.3628
691.60 0.3626
691.70 0.3625
691.80 0.3623
691.90 0.3621
692.00 0.362
692.10 0.3618
692.20 0.3616
692.30 0.3615
692.40 0.3613
692.50 0.3611
692.60 0.361
692.70 0.3608
692.80 0.3606
692.90 0.3605
693.00 0.3603
693.10 0.3601
693.20 0.36
693.30 0.3598
693.40 0.3596
693.50 0.3595
693.60 0.3593
693.70 0.3591
693.80 0.359
693.90 0.3588
694.00 0.3586
694.10 0.3585
694.20 0.3583
694.30 0.3581
694.40 0.358
694.50 0.3578
694.60 0.3576
694.70 0.3575
694.80 0.3573
694.90 0.3572
695.00 0.357
695.10 0.3568
695.20 0.3567
695.30 0.3565
695.40 0.3563
695.50 0.3562
695.60 0.356
695.70 0.3558
695.80 0.3557
695.90 0.3555
696.00 0.3553
696.10 0.3552
696.20 0.355
696.30 0.3549
696.40 0.3547
696.50 0.3545
696.60 0.3544
696.70 0.3542
696.80 0.354
696.90 0.3539
697.00 0.3537
697.10 0.3536
697.20 0.3534
697.30 0.3532
697.40 0.3531
697.50 0.3529
697.60 0.3527
697.70 0.3526
697.80 0.3524
697.90 0.3522
698.00 0.3521
698.10 0.3519
698.20 0.3518
698.30 0.3516
698.40 0.3514
698.50 0.3513
698.60 0.3511
698.70 0.351
698.80 0.3508
698.90 0.3506
699.00 0.3505
699.10 0.3503
699.20 0.3501
699.30 0.35
699.40 0.3498
699.50 0.3497
699.60 0.3495
699.70 0.3493
699.80 0.3492
699.90 0.349
700.00 0.3489
700.10 0.3487
700.20 0.3486
700.30 0.3484
700.40 0.3483
700.50 0.3481
700.60 0.348
700.70 0.3479
700.80 0.3477
700.90 0.3476
701.00 0.3474
701.10 0.3473
701.20 0.3471
701.30 0.347
701.40 0.3469
701.50 0.3467
701.60 0.3466
701.70 0.3464
701.80 0.3463
701.90 0.3462
702.00 0.346
702.10 0.3459
702.20 0.3457
702.30 0.3456
702.40 0.3454
702.50 0.3453
702.60 0.3452
702.70 0.345
702.80 0.3449
702.90 0.3447
703.00 0.3446
703.10 0.3445
703.20 0.3443
703.30 0.3442
703.40 0.344
703.50 0.3439
703.60 0.3438
703.70 0.3436
703.80 0.3435
703.90 0.3433
704.00 0.3432
704.10 0.343
704.20 0.3429
704.30 0.3428
704.40 0.3426
704.50 0.3425
704.60 0.3423
704.70 0.3422
704.80 0.3421
704.90 0.3419
705.00 0.3418
705.10 0.3416
705.20 0.3415
705.30 0.3413
705.40 0.3412
705.50 0.341
705.60 0.3408
705.70 0.3407
705.80 0.3405
705.90 0.3404
706.00 0.3402
706.10 0.3401
706.20 0.3399
706.30 0.3397
706.40 0.3396
706.50 0.3394
706.60 0.3393
706.70 0.3391
706.80 0.339
706.90 0.3388
707.00 0.3386
707.10 0.3385
707.20 0.3383
707.30 0.3382
707.40 0.338
707.50 0.3379
707.60 0.3377
707.70 0.3375
707.80 0.3374
707.90 0.3372
708.00 0.3371
708.10 0.3369
708.20 0.3368
708.30 0.3366
708.40 0.3365
708.50 0.3363
708.60 0.3361
708.70 0.336
708.80 0.3358
708.90 0.3357
709.00 0.3355
709.10 0.3354
709.20 0.3352
709.30 0.3351
709.40 0.3349
709.50 0.3348
709.60 0.3346
709.70 0.3344
709.80 0.3343
709.90 0.3341
710.00 0.334
710.10 0.3338
710.20 0.3337
710.30 0.3335
710.40 0.3334
710.50 0.3332
710.60 0.3331
710.70 0.3329
710.80 0.3328
710.90 0.3326
711.00 0.3324
711.10 0.3323
711.20 0.3321
711.30 0.332
711.40 0.3318
711.50 0.3317
711.60 0.3315
711.70 0.3314
711.80 0.3312
711.90 0.3311
712.00 0.3309
712.10 0.3308
712.20 0.3306
712.30 0.3305
712.40 0.3303
712.50 0.3302
712.60 0.33
712.70 0.3299
712.80 0.3297
712.90 0.3296
713.00 0.3294
713.10 0.3293
713.20 0.3291
713.30 0.3289
713.40 0.3288
713.50 0.3286
713.60 0.3285
713.70 0.3283
713.80 0.3282
713.90 0.328
714.00 0.3279
714.10 0.3277
714.20 0.3276
714.30 0.3274
714.40 0.3273
714.50 0.3271
714.60 0.327
714.70 0.3268
714.80 0.3267
714.90 0.3265
715.00 0.3264
715.10 0.3262
715.20 0.3261
715.30 0.3259
715.40 0.3258
715.50 0.3257
715.60 0.3255
715.70 0.3254
715.80 0.3252
715.90 0.3251
716.00 0.3249
716.10 0.3248
716.20 0.3246
716.30 0.3245
716.40 0.3243
716.50 0.3242
716.60 0.324
716.70 0.3239
716.80 0.3237
716.90 0.3236
717.00 0.3235
717.10 0.3233
717.20 0.3232
717.30 0.323
717.40 0.3229
717.50 0.3227
717.60 0.3226
717.70 0.3224
717.80 0.3223
717.90 0.3221
718.00 0.322
718.10 0.3219
718.20 0.3217
718.30 0.3216
718.40 0.3214
718.50 0.3213
718.60 0.3211
718.70 0.321
718.80 0.3208
718.90 0.3207
719.00 0.3206
719.10 0.3204
719.20 0.3203
719.30 0.3201
719.40 0.32
719.50 0.3198
719.60 0.3197
719.70 0.3195
719.80 0.3194
719.90 0.3193
720.00 0.3191
720.10 0.319
720.20 0.3188
720.30 0.3187
720.40 0.3185
720.50 0.3184
720.60 0.3182
720.70 0.3181
720.80 0.3179
720.90 0.3178
721.00 0.3177
721.10 0.3175
721.20 0.3174
721.30 0.3172
721.40 0.3171
721.50 0.3169
721.60 0.3168
721.70 0.3166
721.80 0.3165
721.90 0.3163
722.00 0.3162
722.10 0.3161
722.20 0.3159
722.30 0.3158
722.40 0.3156
722.50 0.3155
722.60 0.3153
722.70 0.3152
722.80 0.315
722.90 0.3149
723.00 0.3148
723.10 0.3146
723.20 0.3145
723.30 0.3143
723.40 0.3142
723.50 0.314
723.60 0.3139
723.70 0.3138
723.80 0.3136
723.90 0.3135
724.00 0.3133
724.10 0.3132
724.20 0.313
724.30 0.3129
724.40 0.3127
724.50 0.3126
724.60 0.3125
724.70 0.3123
724.80 0.3122
724.90 0.312
725.00 0.3119
725.10 0.3118
725.20 0.3116
725.30 0.3115
725.40 0.3113
725.50 0.3112
725.60 0.311
725.70 0.3109
725.80 0.3108
725.90 0.3106
726.00 0.3105
726.10 0.3103
726.20 0.3102
726.30 0.3101
726.40 0.3099
726.50 0.3098
726.60 0.3096
726.70 0.3095
726.80 0.3094
726.90 0.3092
727.00 0.3091
727.10 0.3089
727.20 0.3088
727.30 0.3087
727.40 0.3085
727.50 0.3084
727.60 0.3082
727.70 0.3081
727.80 0.308
727.90 0.3078
728.00 0.3077
728.10 0.3075
728.20 0.3074
728.30 0.3073
728.40 0.3071
728.50 0.307
728.60 0.3068
728.70 0.3067
728.80 0.3066
728.90 0.3064
729.00 0.3063
729.10 0.3061
729.20 0.306
729.30 0.3059
729.40 0.3057
729.50 0.3056
729.60 0.3054
729.70 0.3053
729.80 0.3052
729.90 0.305
730.00 0.3049
730.10 0.3048
730.20 0.3046
730.30 0.3045
730.40 0.3043
730.50 0.3042
730.60 0.3041
730.70 0.3039
730.80 0.3038
730.90 0.3037
731.00 0.3035
731.10 0.3034
731.20 0.3032
731.30 0.3031
731.40 0.303
731.50 0.3028
731.60 0.3027
731.70 0.3026
731.80 0.3024
731.90 0.3023
732.00 0.3022
732.10 0.302
732.20 0.3019
732.30 0.3017
732.40 0.3016
732.50 0.3015
732.60 0.3013
732.70 0.3012
732.80 0.3011
732.90 0.3009
733.00 0.3008
733.10 0.3007
733.20 0.3005
733.30 0.3004
733.40 0.3002
733.50 0.3001
733.60 0.3
733.70 0.2998
733.80 0.2997
733.90 0.2996
734.00 0.2994
734.10 0.2993
734.20 0.2992
734.30 0.299
734.40 0.2989
734.50 0.2988
734.60 0.2986
734.70 0.2985
734.80 0.2984
734.90 0.2982
735.00 0.2981
735.10 0.298
735.20 0.2978
735.30 0.2977
735.40 0.2976
735.50 0.2974
735.60 0.2973
735.70 0.2972
735.80 0.297
735.90 0.2969
736.00 0.2967
736.10 0.2966
736.20 0.2965
736.30 0.2963
736.40 0.2962
736.50 0.2961
736.60 0.2959
736.70 0.2958
736.80 0.2957
736.90 0.2955
737.00 0.2954
737.10 0.2953
737.20 0.2951
737.30 0.295
737.40 0.2949
737.50 0.2948
737.60 0.2946
737.70 0.2945
737.80 0.2944
737.90 0.2942
738.00 0.2941
738.10 0.294
738.20 0.2938
738.30 0.2937
738.40 0.2936
738.50 0.2934
738.60 0.2933
738.70 0.2932
738.80 0.293
738.90 0.2929
739.00 0.2928
739.10 0.2926
739.20 0.2925
739.30 0.2924
739.40 0.2922
739.50 0.2921
739.60 0.292
739.70 0.2918
739.80 0.2917
739.90 0.2916
740.00 0.2914
740.10 0.2913
740.20 0.2912
740.30 0.2911
740.40 0.2909
740.50 0.2908
740.60 0.2907
740.70 0.2905
740.80 0.2904
740.90 0.2903
741.00 0.2902
741.10 0.29
741.20 0.2899
741.30 0.2898
741.40 0.2896
741.50 0.2895
741.60 0.2894
741.70 0.2892
741.80 0.2891
741.90 0.289
742.00 0.2889
742.10 0.2887
742.20 0.2886
742.30 0.2885
742.40 0.2883
742.50 0.2882
742.60 0.2881
742.70 0.288
742.80 0.2878
742.90 0.2877
743.00 0.2876
743.10 0.2874
743.20 0.2873
743.30 0.2872
743.40 0.2871
743.50 0.2869
743.60 0.2868
743.70 0.2867
743.80 0.2866
743.90 0.2864
744.00 0.2863
744.10 0.2862
744.20 0.286
744.30 0.2859
744.40 0.2858
744.50 0.2857
744.60 0.2855
744.70 0.2854
744.80 0.2853
744.90 0.2852
745.00 0.285
745.10 0.2849
745.20 0.2848
745.30 0.2846
745.40 0.2845
745.50 0.2844
745.60 0.2843
745.70 0.2841
745.80 0.284
745.90 0.2839
746.00 0.2838
746.10 0.2836
746.20 0.2835
746.30 0.2834
746.40 0.2833
746.50 0.2831
746.60 0.283
746.70 0.2829
746.80 0.2828
746.90 0.2826
747.00 0.2825
747.10 0.2824
747.20 0.2822
747.30 0.2821
747.40 0.282
747.50 0.2819
747.60 0.2817
747.70 0.2816
747.80 0.2815
747.90 0.2814
748.00 0.2812
748.10 0.2811
748.20 0.281
748.30 0.2809
748.40 0.2807
748.50 0.2806
748.60 0.2805
748.70 0.2804
748.80 0.2802
748.90 0.2801
749.00 0.28
749.10 0.2799
749.20 0.2797
749.30 0.2796
749.40 0.2795
749.50 0.2794
749.60 0.2792
749.70 0.2791
749.80 0.279
749.90 0.2789
750.00 0.2788
750.10 0.2786
750.20 0.2785
750.30 0.2784
750.40 0.2783
750.50 0.2781
750.60 0.278
750.70 0.2779
750.80 0.2778
750.90 0.2776
751.00 0.2775
751.10 0.2774
751.20 0.2773
751.30 0.2772
751.40 0.277
751.50 0.2769
751.60 0.2768
751.70 0.2767
751.80 0.2765
751.90 0.2764
752.00 0.2763
752.10 0.2762
752.20 0.2761
752.30 0.2759
752.40 0.2758
752.50 0.2757
752.60 0.2756
752.70 0.2755
752.80 0.2753
752.90 0.2752
753.00 0.2751
753.10 0.275
753.20 0.2748
753.30 0.2747
753.40 0.2746
753.50 0.2745
753.60 0.2744
753.70 0.2742
753.80 0.2741
753.90 0.274
754.00 0.2739
754.10 0.2738
754.20 0.2736
754.30 0.2735
754.40 0.2734
754.50 0.2733
754.60 0.2732
754.70 0.273
754.80 0.2729
754.90 0.2728
755.00 0.2727
755.10 0.2726
755.20 0.2724
755.30 0.2723
755.40 0.2722
755.50 0.2721
755.60 0.272
755.70 0.2718
755.80 0.2717
755.90 0.2716
756.00 0.2715
756.10 0.2714
756.20 0.2712
756.30 0.2711
756.40 0.271
756.50 0.2709
756.60 0.2708
756.70 0.2706
756.80 0.2705
756.90 0.2704
757.00 0.2703
757.10 0.2702
757.20 0.2701
757.30 0.2699
757.40 0.2698
757.50 0.2697
757.60 0.2696
757.70 0.2695
757.80 0.2693
757.90 0.2692
758.00 0.2691
758.10 0.269
758.20 0.2689
758.30 0.2687
758.40 0.2686
758.50 0.2685
758.60 0.2684
758.70 0.2683
758.80 0.2682
758.90 0.268
759.00 0.2679
759.10 0.2678
759.20 0.2677
759.30 0.2676
759.40 0.2674
759.50 0.2673
759.60 0.2672
759.70 0.2671
759.80 0.267
759.90 0.2669
760.00 0.2667
760.10 0.2666
760.20 0.2665
760.30 0.2664
760.40 0.2663
760.50 0.2662
760.60 0.266
760.70 0.2659
760.80 0.2658
760.90 0.2657
761.00 0.2656
761.10 0.2655
761.20 0.2654
761.30 0.2652
761.40 0.2651
761.50 0.265
761.60 0.2649
761.70 0.2648
761.80 0.2647
761.90 0.2645
762.00 0.2644
762.10 0.2643
762.20 0.2642
762.30 0.2641
762.40 0.264
762.50 0.2639
762.60 0.2637
762.70 0.2636
762.80 0.2635
762.90 0.2634
763.00 0.2633
763.10 0.2632
763.20 0.2631
763.30 0.2629
763.40 0.2628
763.50 0.2627
763.60 0.2626
763.70 0.2625
763.80 0.2624
763.90 0.2623
764.00 0.2621
764.10 0.262
764.20 0.2619
764.30 0.2618
764.40 0.2617
764.50 0.2616
764.60 0.2615
764.70 0.2613
764.80 0.2612
764.90 0.2611
765.00 0.261
765.10 0.2609
765.20 0.2608
765.30 0.2607
765.40 0.2605
765.50 0.2604
765.60 0.2603
765.70 0.2602
765.80 0.2601
765.90 0.26
766.00 0.2599
766.10 0.2597
766.20 0.2596
766.30 0.2595
766.40 0.2594
766.50 0.2593
766.60 0.2592
766.70 0.2591
766.80 0.259
766.90 0.2588
767.00 0.2587
767.10 0.2586
767.20 0.2585
767.30 0.2584
767.40 0.2583
767.50 0.2582
767.60 0.2581
767.70 0.2579
767.80 0.2578
767.90 0.2577
768.00 0.2576
768.10 0.2575
768.20 0.2574
768.30 0.2573
768.40 0.2572
768.50 0.257
768.60 0.2569
768.70 0.2568
768.80 0.2567
768.90 0.2566
769.00 0.2565
769.10 0.2564
769.20 0.2563
769.30 0.2562
769.40 0.256
769.50 0.2559
769.60 0.2558
769.70 0.2557
769.80 0.2556
769.90 0.2555
770.00 0.2554
770.10 0.2553
770.20 0.2552
770.30 0.255
770.40 0.2549
770.50 0.2548
770.60 0.2547
770.70 0.2546
770.80 0.2545
770.90 0.2544
771.00 0.2543
771.10 0.2542
771.20 0.2541
771.30 0.254
771.40 0.2538
771.50 0.2537
771.60 0.2536
771.70 0.2535
771.80 0.2534
771.90 0.2533
772.00 0.2532
772.10 0.2531
772.20 0.253
772.30 0.2529
772.40 0.2528
772.50 0.2526
772.60 0.2525
772.70 0.2524
772.80 0.2523
772.90 0.2522
773.00 0.2521
773.10 0.252
773.20 0.2519
773.30 0.2518
773.40 0.2517
773.50 0.2516
773.60 0.2514
773.70 0.2513
773.80 0.2512
773.90 0.2511
774.00 0.251
774.10 0.2509
774.20 0.2508
774.30 0.2507
774.40 0.2506
774.50 0.2505
774.60 0.2504
774.70 0.2503
774.80 0.2502
774.90 0.25
775.00 0.2499
775.10 0.2498
775.20 0.2497
775.30 0.2496
775.40 0.2495
775.50 0.2494
775.60 0.2493
775.70 0.2492
775.80 0.2491
775.90 0.249
776.00 0.2489
776.10 0.2488
776.20 0.2486
776.30 0.2485
776.40 0.2484
776.50 0.2483
776.60 0.2482
776.70 0.2481
776.80 0.248
776.90 0.2479
777.00 0.2478
777.10 0.2477
777.20 0.2476
777.30 0.2475
777.40 0.2474
777.50 0.2473
777.60 0.2472
777.70 0.247
777.80 0.2469
777.90 0.2468
778.00 0.2467
778.10 0.2466
778.20 0.2465
778.30 0.2464
778.40 0.2463
778.50 0.2462
778.60 0.2461
778.70 0.246
778.80 0.2459
778.90 0.2458
779.00 0.2457
779.10 0.2456
779.20 0.2455
779.30 0.2454
779.40 0.2452
779.50 0.2451
779.60 0.245
779.70 0.2449
779.80 0.2448
779.90 0.2447
780.00 0.2446
780.10 0.2445
780.20 0.2444
780.30 0.2443
780.40 0.2442
780.50 0.2441
780.60 0.244
780.70 0.2439
780.80 0.2438
780.90 0.2437
781.00 0.2436
781.10 0.2435
781.20 0.2434
781.30 0.2433
781.40 0.2432
781.50 0.2431
781.60 0.243
781.70 0.2428
781.80 0.2427
781.90 0.2426
782.00 0.2425
782.10 0.2424
782.20 0.2423
782.30 0.2422
782.40 0.2421
782.50 0.242
782.60 0.2419
782.70 0.2418
782.80 0.2417
782.90 0.2416
783.00 0.2415
783.10 0.2414
783.20 0.2413
783.30 0.2412
783.40 0.2411
783.50 0.241
783.60 0.2409
783.70 0.2408
783.80 0.2407
783.90 0.2406
784.00 0.2405
784.10 0.2404
784.20 0.2403
784.30 0.2402
784.40 0.2401
784.50 0.24
784.60 0.2399
784.70 0.2398
784.80 0.2397
784.90 0.2396
785.00 0.2395
785.10 0.2394
785.20 0.2393
785.30 0.2392
785.40 0.239
785.50 0.2389
785.60 0.2388
785.70 0.2387
785.80 0.2386
785.90 0.2385
786.00 0.2384
786.10 0.2383
786.20 0.2382
786.30 0.2381
786.40 0.238
786.50 0.2379
786.60 0.2378
786.70 0.2377
786.80 0.2376
786.90 0.2375
787.00 0.2374
787.10 0.2373
787.20 0.2372
787.30 0.2371
787.40 0.237
787.50 0.2369
787.60 0.2368
787.70 0.2367
787.80 0.2366
787.90 0.2365
788.00 0.2364
788.10 0.2363
788.20 0.2362
788.30 0.2361
788.40 0.236
788.50 0.2359
788.60 0.2358
788.70 0.2357
788.80 0.2356
788.90 0.2355
789.00 0.2354
789.10 0.2353
789.20 0.2352
789.30 0.2351
789.40 0.235
789.50 0.2349
789.60 0.2348
789.70 0.2347
789.80 0.2346
789.90 0.2345
790.00 0.2344
790.10 0.2343
790.20 0.2342
790.30 0.2341
790.40 0.234
790.50 0.2339
790.60 0.2338
790.70 0.2337
790.80 0.2336
790.90 0.2335
791.00 0.2334
791.10 0.2333
791.20 0.2332
791.30 0.2331
791.40 0.233
791.50 0.2329
791.60 0.2328
791.70 0.2327
791.80 0.2326
791.90 0.2325
792.00 0.2324
792.10 0.2323
792.20 0.2322
792.30 0.2321
792.40 0.2321
792.50 0.232
792.60 0.2319
792.70 0.2318
792.80 0.2317
792.90 0.2316
793.00 0.2315
793.10 0.2314
793.20 0.2313
793.30 0.2312
793.40 0.2311
793.50 0.231
793.60 0.2309
793.70 0.2308
793.80 0.2307
793.90 0.2306
794.00 0.2305
794.10 0.2304
794.20 0.2303
794.30 0.2302
794.40 0.2301
794.50 0.23
794.60 0.2299
794.70 0.2298
794.80 0.2297
794.90 0.2296
795.00 0.2295
795.10 0.2294
795.20 0.2293
795.30 0.2292
795.40 0.2291
795.50 0.229
795.60 0.2289
795.70 0.2288
795.80 0.2288
795.90 0.2287
796.00 0.2286
796.10 0.2285
796.20 0.2284
796.30 0.2283
796.40 0.2282
796.50 0.2281
796.60 0.228
796.70 0.2279
796.80 0.2278
796.90 0.2277
797.00 0.2276
797.10 0.2275
797.20 0.2274
797.30 0.2273
797.40 0.2272
797.50 0.2271
797.60 0.227
797.70 0.2269
797.80 0.2268
797.90 0.2267
798.00 0.2266
798.10 0.2265
798.20 0.2265
798.30 0.2264
798.40 0.2263
798.50 0.2262
798.60 0.2261
798.70 0.226
798.80 0.2259
798.90 0.2258
799.00 0.2257
799.10 0.2256
799.20 0.2255
799.30 0.2254
799.40 0.2253
799.50 0.2252
799.60 0.2251
799.70 0.225
799.80 0.2249
799.90 0.2248
800.00 0.2247
800.10 0.2246
800.20 0.2246
800.30 0.2245
800.40 0.2244
800.50 0.2243
800.60 0.2242
800.70 0.2241
800.80 0.224
800.90 0.2239
801.00 0.2238
801.10 0.2237
801.20 0.2236
801.30 0.2235
801.40 0.2234
801.50 0.2233
801.60 0.2232
801.70 0.2232
801.80 0.2231
801.90 0.223
802.00 0.2229
802.10 0.2228
802.20 0.2227
802.30 0.2226
802.40 0.2225
802.50 0.2224
802.60 0.2223
802.70 0.2222
802.80 0.2221
802.90 0.222
803.00 0.2219
803.10 0.2219
803.20 0.2218
803.30 0.2217
803.40 0.2216
803.50 0.2215
803.60 0.2214
803.70 0.2213
803.80 0.2212
803.90 0.2211
804.00 0.221
804.10 0.2209
804.20 0.2208
804.30 0.2207
804.40 0.2207
804.50 0.2206
804.60 0.2205
804.70 0.2204
804.80 0.2203
804.90 0.2202
805.00 0.2201
805.10 0.22
805.20 0.2199
805.30 0.2198
805.40 0.2197
805.50 0.2196
805.60 0.2196
805.70 0.2195
805.80 0.2194
805.90 0.2193
806.00 0.2192
806.10 0.2191
806.20 0.219
806.30 0.2189
806.40 0.2188
806.50 0.2187
806.60 0.2186
806.70 0.2186
806.80 0.2185
806.90 0.2184
807.00 0.2183
807.10 0.2182
807.20 0.2181
807.30 0.218
807.40 0.2179
807.50 0.2178
807.60 0.2177
807.70 0.2176
807.80 0.2176
807.90 0.2175
808.00 0.2174
808.10 0.2173
808.20 0.2172
808.30 0.2171
808.40 0.217
808.50 0.2169
808.60 0.2168
808.70 0.2167
808.80 0.2166
808.90 0.2166
809.00 0.2165
809.10 0.2164
809.20 0.2163
809.30 0.2162
809.40 0.2161
809.50 0.216
809.60 0.2159
809.70 0.2158
809.80 0.2157
809.90 0.2157
810.00 0.2156
810.10 0.2155
810.20 0.2154
810.30 0.2153
810.40 0.2152
810.50 0.2151
810.60 0.215
810.70 0.2149
810.80 0.2149
810.90 0.2148
811.00 0.2147
811.10 0.2146
811.20 0.2145
811.30 0.2144
811.40 0.2143
811.50 0.2142
811.60 0.2141
811.70 0.2141
811.80 0.214
811.90 0.2139
812.00 0.2138
812.10 0.2137
812.20 0.2136
812.30 0.2135
812.40 0.2134
812.50 0.2134
812.60 0.2133
812.70 0.2132
812.80 0.2131
812.90 0.213
813.00 0.2129
813.10 0.2128
813.20 0.2127
813.30 0.2127
813.40 0.2126
813.50 0.2125
813.60 0.2124
813.70 0.2123
813.80 0.2122
813.90 0.2121
814.00 0.212
814.10 0.212
814.20 0.2119
814.30 0.2118
814.40 0.2117
814.50 0.2116
814.60 0.2115
814.70 0.2114
814.80 0.2113
814.90 0.2113
815.00 0.2112
815.10 0.2111
815.20 0.211
815.30 0.2109
815.40 0.2108
815.50 0.2107
815.60 0.2106
815.70 0.2106
815.80 0.2105
815.90 0.2104
816.00 0.2103
816.10 0.2102
816.20 0.2101
816.30 0.21
816.40 0.21
816.50 0.2099
816.60 0.2098
816.70 0.2097
816.80 0.2096
816.90 0.2095
817.00 0.2094
817.10 0.2093
817.20 0.2093
817.30 0.2092
817.40 0.2091
817.50 0.209
817.60 0.2089
817.70 0.2088
817.80 0.2087
817.90 0.2087
818.00 0.2086
818.10 0.2085
818.20 0.2084
818.30 0.2083
818.40 0.2082
818.50 0.2081
818.60 0.2081
818.70 0.208
818.80 0.2079
818.90 0.2078
819.00 0.2077
819.10 0.2076
819.20 0.2075
819.30 0.2075
819.40 0.2074
819.50 0.2073
819.60 0.2072
819.70 0.2071
819.80 0.207
819.90 0.2069
820.00 0.2069
820.10 0.2068
820.20 0.2067
820.30 0.2066
820.40 0.2065
820.50 0.2064
820.60 0.2064
820.70 0.2063
820.80 0.2062
820.90 0.2061
821.00 0.206
821.10 0.2059
821.20 0.2058
821.30 0.2058
821.40 0.2057
821.50 0.2056
821.60 0.2055
821.70 0.2054
821.80 0.2053
821.90 0.2053
822.00 0.2052
822.10 0.2051
822.20 0.205
822.30 0.2049
822.40 0.2048
822.50 0.2048
822.60 0.2047
822.70 0.2046
822.80 0.2045
822.90 0.2044
823.00 0.2043
823.10 0.2043
823.20 0.2042
823.30 0.2041
823.40 0.204
823.50 0.2039
823.60 0.2038
823.70 0.2038
823.80 0.2037
823.90 0.2036
824.00 0.2035
824.10 0.2034
824.20 0.2033
824.30 0.2033
824.40 0.2032
824.50 0.2031
824.60 0.203
824.70 0.2029
824.80 0.2028
824.90 0.2028
825.00 0.2027
825.10 0.2026
825.20 0.2025
825.30 0.2024
825.40 0.2023
825.50 0.2023
825.60 0.2022
825.70 0.2021
825.80 0.202
825.90 0.2019
826.00 0.2018
826.10 0.2018
826.20 0.2017
826.30 0.2016
826.40 0.2015
826.50 0.2014
826.60 0.2014
826.70 0.2013
826.80 0.2012
826.90 0.2011
827.00 0.201
827.10 0.2009
827.20 0.2009
827.30 0.2008
827.40 0.2007
827.50 0.2006
827.60 0.2005
827.70 0.2005
827.80 0.2004
827.90 0.2003
828.00 0.2002
828.10 0.2001
828.20 0.2
828.30 0.2
828.40 0.1999
828.50 0.1998
828.60 0.1997
828.70 0.1996
828.80 0.1996
828.90 0.1995
829.00 0.1994
829.10 0.1993
829.20 0.1992
829.30 0.1992
829.40 0.1991
829.50 0.199
829.60 0.1989
829.70 0.1988
829.80 0.1988
829.90 0.1987
830.00 0.1986
830.10 0.1985
830.20 0.1984
830.30 0.1983
830.40 0.1983
830.50 0.1982
830.60 0.1981
830.70 0.198
830.80 0.1979
830.90 0.1979
831.00 0.1978
831.10 0.1977
831.20 0.1976
831.30 0.1975
831.40 0.1975
831.50 0.1974
831.60 0.1973
831.70 0.1972
831.80 0.1971
831.90 0.1971
832.00 0.197
832.10 0.1969
832.20 0.1968
832.30 0.1967
832.40 0.1967
832.50 0.1966
832.60 0.1965
832.70 0.1964
832.80 0.1963
832.90 0.1963
833.00 0.1962
833.10 0.1961
833.20 0.196
833.30 0.196
833.40 0.1959
833.50 0.1958
833.60 0.1957
833.70 0.1956
833.80 0.1956
833.90 0.1955
834.00 0.1954
834.10 0.1953
834.20 0.1952
834.30 0.1952
834.40 0.1951
834.50 0.195
834.60 0.1949
834.70 0.1948
834.80 0.1948
834.90 0.1947
835.00 0.1946
835.10 0.1945
835.20 0.1945
835.30 0.1944
835.40 0.1943
835.50 0.1942
835.60 0.1941
835.70 0.1941
835.80 0.194
835.90 0.1939
836.00 0.1938
836.10 0.1937
836.20 0.1937
836.30 0.1936
836.40 0.1935
836.50 0.1934
836.60 0.1934
836.70 0.1933
836.80 0.1932
836.90 0.1931
837.00 0.193
837.10 0.193
837.20 0.1929
837.30 0.1928
837.40 0.1927
837.50 0.1927
837.60 0.1926
837.70 0.1925
837.80 0.1924
837.90 0.1923
838.00 0.1923
838.10 0.1922
838.20 0.1921
838.30 0.192
838.40 0.192
838.50 0.1919
838.60 0.1918
838.70 0.1917
838.80 0.1917
838.90 0.1916
839.00 0.1915
839.10 0.1914
839.20 0.1913
839.30 0.1913
839.40 0.1912
839.50 0.1911
839.60 0.191
839.70 0.191
839.80 0.1909
839.90 0.1908
840.00 0.1907
840.10 0.1906
840.20 0.1906
840.30 0.1905
840.40 0.1904
840.50 0.1903
840.60 0.1903
840.70 0.1902
840.80 0.1901
840.90 0.19
841.00 0.19
841.10 0.1899
841.20 0.1898
841.30 0.1897
841.40 0.1897
841.50 0.1896
841.60 0.1895
841.70 0.1894
841.80 0.1893
841.90 0.1893
842.00 0.1892
842.10 0.1891
842.20 0.189
842.30 0.189
842.40 0.1889
842.50 0.1888
842.60 0.1887
842.70 0.1887
842.80 0.1886
842.90 0.1885
843.00 0.1884
843.10 0.1884
843.20 0.1883
843.30 0.1882
843.40 0.1881
843.50 0.188
843.60 0.188
843.70 0.1879
843.80 0.1878
843.90 0.1877
844.00 0.1877
844.10 0.1876
844.20 0.1875
844.30 0.1874
844.40 0.1874
844.50 0.1873
844.60 0.1872
844.70 0.1871
844.80 0.1871
844.90 0.187
845.00 0.1869
845.10 0.1868
845.20 0.1868
845.30 0.1867
845.40 0.1866
845.50 0.1865
845.60 0.1864
845.70 0.1864
845.80 0.1863
845.90 0.1862
846.00 0.1861
846.10 0.1861
846.20 0.186
846.30 0.1859
846.40 0.1858
846.50 0.1858
846.60 0.1857
846.70 0.1856
846.80 0.1855
846.90 0.1855
847.00 0.1854
847.10 0.1853
847.20 0.1853
847.30 0.1853
847.40 0.1852
847.50 0.1852
847.60 0.1851
847.70 0.1851
847.80 0.185
847.90 0.185
848.00 0.1849
848.10 0.1849
848.20 0.1849
848.30 0.1848
848.40 0.1848
848.50 0.1847
848.60 0.1847
848.70 0.1846
848.80 0.1846
848.90 0.1845
849.00 0.1845
849.10 0.1845
849.20 0.1844
849.30 0.1844
849.40 0.1843
849.50 0.1843
849.60 0.1842
849.70 0.1842
849.80 0.1842
849.90 0.1841
850.00 0.1841
850.10 0.184
850.20 0.184
850.30 0.1839
850.40 0.1839
850.50 0.1838
850.60 0.1838
850.70 0.1838
850.80 0.1837
850.90 0.1837
851.00 0.1836
851.10 0.1836
851.20 0.1835
851.30 0.1835
851.40 0.1835
851.50 0.1834
851.60 0.1834
851.70 0.1833
851.80 0.1833
851.90 0.1832
852.00 0.1832
852.10 0.1831
852.20 0.1831
852.30 0.183
852.40 0.183
852.50 0.1829
852.60 0.1829
852.70 0.1828
852.80 0.1828
852.90 0.1827
853.00 0.1827
853.10 0.1826
853.20 0.1826
853.30 0.1825
853.40 0.1825
853.50 0.1824
853.60 0.1824
853.70 0.1823
853.80 0.1823
853.90 0.1822
854.00 0.1822
854.10 0.1821
854.20 0.1821
854.30 0.182
854.40 0.182
854.50 0.1819
854.60 0.1819
854.70 0.1818
854.80 0.1818
854.90 0.1817
855.00 0.1817
855.10 0.1816
855.20 0.1816
855.30 0.1815
855.40 0.1815
855.50 0.1814
855.60 0.1814
855.70 0.1813
855.80 0.1813
855.90 0.1812
856.00 0.1812
856.10 0.1811
856.20 0.1811
856.30 0.181
856.40 0.181
856.50 0.1809
856.60 0.1809
856.70 0.1808
856.80 0.1808
856.90 0.1807
857.00 0.1807
857.10 0.1806
857.20 0.1806
857.30 0.1805
857.40 0.1805
857.50 0.1804
857.60 0.1804
857.70 0.1803
857.80 0.1803
857.90 0.1803
858.00 0.1802
858.10 0.1802
858.20 0.1801
858.30 0.1801
858.40 0.18
858.50 0.18
858.60 0.1799
858.70 0.1799
858.80 0.1798
858.90 0.1798
859.00 0.1798
859.10 0.1797
859.20 0.1797
859.30 0.1796
859.40 0.1796
859.50 0.1795
859.60 0.1795
859.70 0.1794
859.80 0.1794
859.90 0.1793
860.00 0.1793
860.10 0.1793
860.20 0.1792
860.30 0.1792
860.40 0.1791
860.50 0.1791
860.60 0.179
860.70 0.179
860.80 0.1789
860.90 0.1789
861.00 0.1788
861.10 0.1788
861.20 0.1788
861.30 0.1787
861.40 0.1787
861.50 0.1786
861.60 0.1786
861.70 0.1785
861.80 0.1785
861.90 0.1784
862.00 0.1784
862.10 0.1783
862.20 0.1782
862.30 0.1781
862.40 0.1781
862.50 0.178
862.60 0.1779
862.70 0.1778
862.80 0.1777
862.90 0.1776
863.00 0.1776
863.10 0.1775
863.20 0.1774
863.30 0.1773
863.40 0.1772
863.50 0.1772
863.60 0.1771
863.70 0.177
863.80 0.1769
863.90 0.1768
864.00 0.1767
864.10 0.1767
864.20 0.1766
864.30 0.1765
864.40 0.1764
864.50 0.1763
864.60 0.1762
864.70 0.1762
864.80 0.1761
864.90 0.176
865.00 0.1759
865.10 0.1758
865.20 0.1758
865.30 0.1757
865.40 0.1756
865.50 0.1755
865.60 0.1754
865.70 0.1753
865.80 0.1753
865.90 0.1752
866.00 0.1751
866.10 0.175
866.20 0.1749
866.30 0.1749
866.40 0.1748
866.50 0.1747
866.60 0.1746
866.70 0.1745
866.80 0.1745
866.90 0.1744
867.00 0.1743
867.10 0.1743
867.20 0.1743
867.30 0.1743
867.40 0.1743
867.50 0.1743
867.60 0.1743
867.70 0.1743
867.80 0.1743
867.90 0.1743
868.00 0.1743
868.10 0.1743
868.20 0.1743
868.30 0.1743
868.40 0.1743
868.50 0.1743
868.60 0.1743
868.70 0.1743
868.80 0.1743
868.90 0.1743
869.00 0.1743
869.10 0.1743
869.20 0.1743
869.30 0.1743
869.40 0.1743
869.50 0.1743
869.60 0.1743
869.70 0.1743
869.80 0.1743
869.90 0.1743
870.00 0.1743
870.10 0.1743
870.20 0.1743
870.30 0.1743
870.40 0.1743
870.50 0.1743
870.60 0.1743
870.70 0.1743
870.80 0.1743
870.90 0.1743
871.00 0.1743
871.10 0.1743
871.20 0.1743
871.30 0.1743
871.40 0.1743
871.50 0.1743
871.60 0.1743
871.70 0.1743
871.80 0.1743
871.90 0.1743
872.00 0.1743
872.10 0.1742
872.20 0.1741
872.30 0.1741
872.40 0.174
872.50 0.1739
872.60 0.1738
872.70 0.1737
872.80 0.1736
872.90 0.1735
873.00 0.1734
873.10 0.1733
873.20 0.1733
873.30 0.1732
873.40 0.1731
873.50 0.173
873.60 0.1729
873.70 0.1728
873.80 0.1727
873.90 0.1726
874.00 0.1726
874.10 0.1725
874.20 0.1724
874.30 0.1723
874.40 0.1722
874.50 0.1721
874.60 0.172
874.70 0.1719
874.80 0.1719
874.90 0.1718
875.00 0.1717
875.10 0.1716
875.20 0.1715
875.30 0.1714
875.40 0.1713
875.50 0.1712
875.60 0.1712
875.70 0.1711
875.80 0.171
875.90 0.1709
876.00 0.1708
876.10 0.1707
876.20 0.1706
876.30 0.1706
876.40 0.1705
876.50 0.1704
876.60 0.1703
876.70 0.1702
876.80 0.1701
876.90 0.17
877.00 0.1699
877.10 0.1699
877.20 0.17
877.30 0.17
877.40 0.17
877.50 0.17
877.60 0.17
877.70 0.17
877.80 0.17
877.90 0.17
878.00 0.17
878.10 0.17
878.20 0.17
878.30 0.17
878.40 0.17
878.50 0.17
878.60 0.17
878.70 0.17
878.80 0.17
878.90 0.17
879.00 0.17
879.10 0.17
879.20 0.17
879.30 0.17
879.40 0.1701
879.50 0.1701
879.60 0.1701
879.70 0.1701
879.80 0.1701
879.90 0.1701
880.00 0.1701
880.10 0.1701
880.20 0.1701
880.30 0.1701
880.40 0.1701
880.50 0.1701
880.60 0.1701
880.70 0.1701
880.80 0.1701
880.90 0.1701
881.00 0.1701
881.10 0.1701
881.20 0.1701
881.30 0.1701
881.40 0.1701
881.50 0.1701
881.60 0.1701
881.70 0.1702
881.80 0.1702
881.90 0.1702
882.00 0.1702
882.10 0.1698
882.20 0.1695
882.30 0.1691
882.40 0.1687
882.50 0.1684
882.60 0.168
882.70 0.1677
882.80 0.1673
882.90 0.167
883.00 0.1666
883.10 0.1662
883.20 0.1659
883.30 0.1655
883.40 0.1652
883.50 0.1648
883.60 0.1645
883.70 0.1641
883.80 0.1638
883.90 0.1634
884.00 0.163
884.10 0.1627
884.20 0.1623
884.30 0.162
884.40 0.1616
884.50 0.1613
884.60 0.1609
884.70 0.1606
884.80 0.1602
884.90 0.1599
885.00 0.1595
885.10 0.1592
885.20 0.1588
885.30 0.1584
885.40 0.1581
885.50 0.1577
885.60 0.1574
885.70 0.157
885.80 0.1567
885.90 0.1563
886.00 0.156
886.10 0.1556
886.20 0.1553
886.30 0.1549
886.40 0.1546
886.50 0.1542
886.60 0.1539
886.70 0.1535
886.80 0.1532
886.90 0.1528
887.00 0.1525
887.10 0.1527
887.20 0.1529
887.30 0.1532
887.40 0.1534
887.50 0.1536
887.60 0.1539
887.70 0.1541
887.80 0.1543
887.90 0.1546
888.00 0.1548
888.10 0.155
888.20 0.1552
888.30 0.1555
888.40 0.1557
888.50 0.1559
888.60 0.1562
888.70 0.1564
888.80 0.1566
888.90 0.1569
889.00 0.1571
889.10 0.1573
889.20 0.1575
889.30 0.1578
889.40 0.158
889.50 0.1582
889.60 0.1585
889.70 0.1587
889.80 0.1589
889.90 0.1591
890.00 0.1594
890.10 0.1596
890.20 0.1598
890.30 0.1601
890.40 0.1603
890.50 0.1605
890.60 0.1607
890.70 0.161
890.80 0.1612
890.90 0.1614
891.00 0.1616
891.10 0.1619
891.20 0.1621
891.30 0.1623
891.40 0.1626
891.50 0.1628
891.60 0.163
891.70 0.1632
891.80 0.1635
891.90 0.1637
892.00 0.1639
892.10 0.1638
892.20 0.1637
892.30 0.1635
892.40 0.1634
892.50 0.1633
892.60 0.1632
892.70 0.1631
892.80 0.163
892.90 0.1628
893.00 0.1627
893.10 0.1626
893.20 0.1625
893.30 0.1624
893.40 0.1622
893.50 0.1621
893.60 0.162
893.70 0.1619
893.80 0.1618
893.90 0.1616
894.00 0.1615
894.10 0.1614
894.20 0.1613
894.30 0.1612
894.40 0.161
894.50 0.1609
894.60 0.1608
894.70 0.1607
894.80 0.1606
894.90 0.1605
895.00 0.1603
895.10 0.1602
895.20 0.1601
895.30 0.16
895.40 0.1599
895.50 0.1597
895.60 0.1596
895.70 0.1595
895.80 0.1594
895.90 0.1593
896.00 0.1592
896.10 0.159
896.20 0.1589
896.30 0.1588
896.40 0.1587
896.50 0.1586
896.60 0.1584
896.70 0.1583
896.80 0.1582
896.90 0.1581
897.00 0.158
897.10 0.1575
897.20 0.157
897.30 0.1566
897.40 0.1561
897.50 0.1557
897.60 0.1552
897.70 0.1547
897.80 0.1543
897.90 0.1538
898.00 0.1533
898.10 0.1529
898.20 0.1524
898.30 0.152
898.40 0.1515
898.50 0.151
898.60 0.1506
898.70 0.1501
898.80 0.1497
898.90 0.1492
899.00 0.1487
899.10 0.1483
899.20 0.1478
899.30 0.1474
899.40 0.1469
899.50 0.1464
899.60 0.146
899.70 0.1455
899.80 0.1451
899.90 0.1446
900.00 0.1441
900.10 0.1437
900.20 0.1432
900.30 0.1428
900.40 0.1423
900.50 0.1418
900.60 0.1414
900.70 0.1409
900.80 0.1405
900.90 0.14
901.00 0.1396
901.10 0.1391
901.20 0.1387
901.30 0.1382
901.40 0.1377
901.50 0.1373
901.60 0.1368
901.70 0.1364
901.80 0.1359
901.90 0.1355
902.00 0.135
902.10 0.1354
902.20 0.1357
902.30 0.1361
902.40 0.1365
902.50 0.1368
902.60 0.1372
902.70 0.1375
902.80 0.1379
902.90 0.1383
903.00 0.1386
903.10 0.139
903.20 0.1393
903.30 0.1397
903.40 0.1401
903.50 0.1404
903.60 0.1408
903.70 0.1411
903.80 0.1415
903.90 0.1418
904.00 0.1422
904.10 0.1426
904.20 0.1429
904.30 0.1433
904.40 0.1436
904.50 0.144
904.60 0.1444
904.70 0.1447
904.80 0.1451
904.90 0.1454
905.00 0.1458
905.10 0.1461
905.20 0.1465
905.30 0.1468
905.40 0.1472
905.50 0.1476
905.60 0.1479
905.70 0.1483
905.80 0.1486
905.90 0.149
906.00 0.1493
906.10 0.1497
906.20 0.15
906.30 0.1504
906.40 0.1507
906.50 0.1511
906.60 0.1515
906.70 0.1518
906.80 0.1522
906.90 0.1525
907.00 0.1529
907.10 0.1529
907.20 0.153
907.30 0.153
907.40 0.1531
907.50 0.1531
907.60 0.1532
907.70 0.1532
907.80 0.1533
907.90 0.1533
908.00 0.1534
908.10 0.1534
908.20 0.1535
908.30 0.1535
908.40 0.1536
908.50 0.1536
908.60 0.1536
908.70 0.1537
908.80 0.1537
908.90 0.1538
909.00 0.1538
909.10 0.1539
909.20 0.1539
909.30 0.154
909.40 0.154
909.50 0.1541
909.60 0.1541
909.70 0.1542
909.80 0.1542
909.90 0.1543
910.00 0.1543
910.10 0.1544
910.20 0.1544
910.30 0.1545
910.40 0.1545
910.50 0.1546
910.60 0.1546
910.70 0.1547
910.80 0.1547
910.90 0.1548
911.00 0.1548
911.10 0.1548
911.20 0.1549
911.30 0.1549
911.40 0.155
911.50 0.155
911.60 0.1551
911.70 0.1551
911.80 0.1552
911.90 0.1552
912.00 0.1553
912.10 0.1551
912.20 0.1549
912.30 0.1547
912.40 0.1545
912.50 0.1543
912.60 0.1541
912.70 0.1539
912.80 0.1537
912.90 0.1535
913.00 0.1533
913.10 0.1531
913.20 0.1529
913.30 0.1527
913.40 0.1525
913.50 0.1523
913.60 0.1521
913.70 0.1519
913.80 0.1517
913.90 0.1515
914.00 0.1513
914.10 0.1511
914.20 0.151
914.30 0.1508
914.40 0.1506
914.50 0.1504
914.60 0.1502
914.70 0.15
914.80 0.1498
914.90 0.1496
915.00 0.1494
915.10 0.1492
915.20 0.149
915.30 0.1488
915.40 0.1486
915.50 0.1484
915.60 0.1482
915.70 0.148
915.80 0.1478
915.90 0.1476
916.00 0.1474
916.10 0.1472
916.20 0.1471
916.30 0.1469
916.40 0.1467
916.50 0.1465
916.60 0.1463
916.70 0.1461
916.80 0.1459
916.90 0.1457
917.00 0.1455
917.10 0.1449
917.20 0.1443
917.30 0.1437
917.40 0.1432
917.50 0.1426
917.60 0.142
917.70 0.1414
917.80 0.1408
917.90 0.1402
918.00 0.1396
918.10 0.139
918.20 0.1385
918.30 0.1379
918.40 0.1373
918.50 0.1367
918.60 0.1361
918.70 0.1355
918.80 0.1349
918.90 0.1344
919.00 0.1338
919.10 0.1332
919.20 0.1326
919.30 0.132
919.40 0.1314
919.50 0.1309
919.60 0.1303
919.70 0.1297
919.80 0.1291
919.90 0.1285
920.00 0.1279
920.10 0.1274
920.20 0.1268
920.30 0.1262
920.40 0.1256
920.50 0.125
920.60 0.1245
920.70 0.1239
920.80 0.1233
920.90 0.1227
921.00 0.1221
921.10 0.1216
921.20 0.121
921.30 0.1204
921.40 0.1198
921.50 0.1193
921.60 0.1187
921.70 0.1181
921.80 0.1175
921.90 0.1169
922.00 0.1164
922.10 0.1166
922.20 0.1169
922.30 0.1172
922.40 0.1175
922.50 0.1177
922.60 0.118
922.70 0.1183
922.80 0.1186
922.90 0.1189
923.00 0.1191
923.10 0.1194
923.20 0.1197
923.30 0.12
923.40 0.1202
923.50 0.1205
923.60 0.1208
923.70 0.1211
923.80 0.1213
923.90 0.1216
924.00 0.1219
924.10 0.1222
924.20 0.1224
924.30 0.1227
924.40 0.123
924.50 0.1232
924.60 0.1235
924.70 0.1238
924.80 0.1241
924.90 0.1243
925.00 0.1246
925.10 0.1249
925.20 0.1252
925.30 0.1254
925.40 0.1257
925.50 0.126
925.60 0.1263
925.70 0.1265
925.80 0.1268
925.90 0.1271
926.00 0.1273
926.10 0.1276
926.20 0.1279
926.30 0.1282
926.40 0.1284
926.50 0.1287
926.60 0.129
926.70 0.1292
926.80 0.1295
926.90 0.1298
927.00 0.1301
927.10 0.1303
927.20 0.1305
927.30 0.1307
927.40 0.1309
927.50 0.1311
927.60 0.1313
927.70 0.1315
927.80 0.1317
927.90 0.1319
928.00 0.1321
928.10 0.1323
928.20 0.1325
928.30 0.1327
928.40 0.1329
928.50 0.1331
928.60 0.1333
928.70 0.1335
928.80 0.1337
928.90 0.1339
929.00 0.1342
929.10 0.1344
929.20 0.1346
929.30 0.1348
929.40 0.135
929.50 0.1352
929.60 0.1354
929.70 0.1356
929.80 0.1358
929.90 0.136
930.00 0.1362
930.10 0.1364
930.20 0.1366
930.30 0.1368
930.40 0.137
930.50 0.1372
930.60 0.1374
930.70 0.1376
930.80 0.1378
930.90 0.138
931.00 0.1382
931.10 0.1384
931.20 0.1386
931.30 0.1388
931.40 0.139
931.50 0.1392
931.60 0.1394
931.70 0.1396
931.80 0.1398
931.90 0.14
932.00 0.1402
932.10 0.1403
932.20 0.1404
932.30 0.1404
932.40 0.1405
932.50 0.1405
932.60 0.1406
932.70 0.1407
932.80 0.1407
932.90 0.1408
933.00 0.1408
933.10 0.1409
933.20 0.141
933.30 0.141
933.40 0.1411
933.50 0.1412
933.60 0.1412
933.70 0.1413
933.80 0.1413
933.90 0.1414
934.00 0.1415
934.10 0.1415
934.20 0.1416
934.30 0.1416
934.40 0.1416
934.50 0.1417
934.60 0.1417
934.70 0.1417
934.80 0.1417
934.90 0.1417
935.00 0.1417
935.10 0.1417
935.20 0.1417
935.30 0.1417
935.40 0.1417
935.50 0.1417
935.60 0.1417
935.70 0.1417
935.80 0.1417
935.90 0.1417
936.00 0.1417
936.10 0.1417
936.20 0.1417
936.30 0.1417
936.40 0.1417
936.50 0.1417
936.60 0.1417
936.70 0.1417
936.80 0.1417
936.90 0.1417
937.00 0.1417
937.10 0.1417
937.20 0.1416
937.30 0.1416
937.40 0.1416
937.50 0.1415
937.60 0.1415
937.70 0.1414
937.80 0.1414
937.90 0.1414
938.00 0.1413
938.10 0.1413
938.20 0.1413
938.30 0.1412
938.40 0.1412
938.50 0.1411
938.60 0.141
938.70 0.141
938.80 0.1409
938.90 0.1408
939.00 0.1408
939.10 0.1407
939.20 0.1406
939.30 0.1406
939.40 0.1405
939.50 0.1404
939.60 0.1403
939.70 0.1403
939.80 0.1402
939.90 0.1401
940.00 0.1401
940.10 0.14
940.20 0.1399
940.30 0.1399
940.40 0.1398
940.50 0.1397
940.60 0.1396
940.70 0.1395
940.80 0.1394
940.90 0.1392
941.00 0.1391
941.10 0.139
941.20 0.1389
941.30 0.1388
941.40 0.1387
941.50 0.1386
941.60 0.1385
941.70 0.1384
941.80 0.1383
941.90 0.1382
942.00 0.1381
942.10 0.138
942.20 0.1378
942.30 0.1377
942.40 0.1376
942.50 0.1374
942.60 0.1373
942.70 0.1371
942.80 0.1369
942.90 0.1368
943.00 0.1366
943.10 0.1365
943.20 0.1363
943.30 0.1362
943.40 0.136
943.50 0.1358
943.60 0.1357
943.70 0.1355
943.80 0.1354
943.90 0.1352
944.00 0.1351
944.10 0.1349
944.20 0.1348
944.30 0.1346
944.40 0.1344
944.50 0.1342
944.60 0.134
944.70 0.1338
944.80 0.1336
944.90 0.1334
945.00 0.1332
945.10 0.133
945.20 0.1328
945.30 0.1326
945.40 0.1323
945.50 0.1321
945.60 0.1318
945.70 0.1316
945.80 0.1314
945.90 0.1311
946.00 0.1309
946.10 0.1306
946.20 0.1304
946.30 0.1301
946.40 0.1299
946.50 0.1296
946.60 0.1294
946.70 0.1291
946.80 0.1289
946.90 0.1286
947.00 0.1284
947.10 0.1281
947.20 0.1278
947.30 0.1275
947.40 0.1272
947.50 0.1268
947.60 0.1265
947.70 0.1261
947.80 0.1258
947.90 0.1255
948.00 0.1251
948.10 0.1248
948.20 0.1244
948.30 0.1241
948.40 0.1238
948.50 0.1234
948.60 0.1231
948.70 0.1227
948.80 0.1224
948.90 0.122
949.00 0.1217
949.10 0.1214
949.20 0.121
949.30 0.1207
949.40 0.1202
949.50 0.1198
949.60 0.1193
949.70 0.1189
949.80 0.1184
949.90 0.118
950.00 0.1175
950.10 0.1171
950.20 0.1166
950.30 0.1162
950.40 0.1157
950.50 0.1153
950.60 0.1148
950.70 0.1144
950.80 0.1139
950.90 0.1135
951.00 0.113
951.10 0.1126
951.20 0.1121
951.30 0.1117
951.40 0.1112
951.50 0.1106
951.60 0.1101
951.70 0.1096
951.80 0.109
951.90 0.1085
952.00 0.108
952.10 0.1074
952.20 0.1068
952.30 0.1062
952.40 0.1057
952.50 0.1051
952.60 0.1045
952.70 0.104
952.80 0.1034
952.90 0.1028
953.00 0.1022
953.10 0.1017
953.20 0.1011
953.30 0.1005
953.40 0.09992
953.50 0.09934
953.60 0.09886
953.70 0.09838
953.80 0.0979
953.90 0.09743
954.00 0.09731
954.10 0.09719
954.20 0.09779
954.30 0.09939
954.40 0.09769
954.50 0.09706
954.60 0.09712
954.70 0.09718
954.80 0.0976
954.90 0.09801
955.00 0.09843
955.10 0.09884
955.20 0.09935
955.30 0.09986
955.40 0.1004
955.50 0.1009
955.60 0.1014
955.70 0.1019
955.80 0.1024
955.90 0.1029
956.00 0.1034
956.10 0.1039
956.20 0.1043
956.30 0.1048
956.40 0.1053
956.50 0.1058
956.60 0.1063
956.70 0.1067
956.80 0.1072
956.90 0.1077
957.00 0.1082
957.10 0.1086
957.20 0.109
957.30 0.1095
957.40 0.1098
957.50 0.1102
957.60 0.1106
957.70 0.1109
957.80 0.1113
957.90 0.1116
958.00 0.112
958.10 0.1123
958.20 0.1127
958.30 0.1131
958.40 0.1134
958.50 0.1138
958.60 0.1141
958.70 0.1145
958.80 0.1148
958.90 0.1152
959.00 0.1156
959.10 0.1159
959.20 0.1163
959.30 0.1166
959.40 0.1169
959.50 0.1171
959.60 0.1173
959.70 0.1176
959.80 0.1178
959.90 0.1181
960.00 0.1183
960.10 0.1186
960.20 0.1188
960.30 0.119
960.40 0.1193
960.50 0.1195
960.60 0.1198
960.70 0.12
960.80 0.1202
960.90 0.1205
961.00 0.1207
961.10 0.121
961.20 0.1212
961.30 0.1214
961.40 0.1216
961.50 0.1218
961.60 0.122
961.70 0.1222
961.80 0.1223
961.90 0.1225
962.00 0.1227
962.10 0.1229
962.20 0.123
962.30 0.1231
962.40 0.1233
962.50 0.1234
962.60 0.1236
962.70 0.1237
962.80 0.1238
962.90 0.124
963.00 0.1241
963.10 0.1243
963.20 0.1244
963.30 0.1246
963.40 0.1247
963.50 0.1248
963.60 0.1249
963.70 0.125
963.80 0.1251
963.90 0.1252
964.00 0.1253
964.10 0.1254
964.20 0.1255
964.30 0.1256
964.40 0.1257
964.50 0.1258
964.60 0.1258
964.70 0.1259
964.80 0.126
964.90 0.126
965.00 0.1261
965.10 0.1262
965.20 0.1263
965.30 0.1263
965.40 0.1264
965.50 0.1265
965.60 0.1265
965.70 0.1266
965.80 0.1267
965.90 0.1267
966.00 0.1268
966.10 0.1269
966.20 0.127
966.30 0.127
966.40 0.1271
966.50 0.1271
966.60 0.1272
966.70 0.1272
966.80 0.1272
966.90 0.1273
967.00 0.1273
967.10 0.1274
967.20 0.1274
967.30 0.1274
967.40 0.1274
967.50 0.1275
967.60 0.1275
967.70 0.1275
967.80 0.1276
967.90 0.1276
968.00 0.1276
968.10 0.1277
968.20 0.1277
968.30 0.1277
968.40 0.1277
968.50 0.1277
968.60 0.1277
968.70 0.1277
968.80 0.1278
968.90 0.1278
969.00 0.1278
969.10 0.1278
969.20 0.1278
969.30 0.1278
969.40 0.1278
969.50 0.1278
969.60 0.1278
969.70 0.1278
969.80 0.1279
969.90 0.1279
970.00 0.1279
970.10 0.1279
970.20 0.1279
970.30 0.1279
970.40 0.1279
970.50 0.1279
970.60 0.1279
970.70 0.1279
970.80 0.1279
970.90 0.1279
971.00 0.1278
971.10 0.1278
971.20 0.1278
971.30 0.1278
971.40 0.1278
971.50 0.1278
971.60 0.1278
971.70 0.1278
971.80 0.1278
971.90 0.1278
972.00 0.1278
972.10 0.1277
972.20 0.1277
972.30 0.1277
972.40 0.1277
972.50 0.1277
972.60 0.1276
972.70 0.1276
972.80 0.1276
972.90 0.1276
973.00 0.1276
973.10 0.1276
973.20 0.1275
973.30 0.1275
973.40 0.1275
973.50 0.1275
973.60 0.1275
973.70 0.1274
973.80 0.1274
973.90 0.1274
974.00 0.1274
974.10 0.1274
974.20 0.1273
974.30 0.1273
974.40 0.1273
974.50 0.1272
974.60 0.1272
974.70 0.1272
974.80 0.1272
974.90 0.1271
975.00 0.1271
975.10 0.1271
975.20 0.127
975.30 0.127
975.40 0.127
975.50 0.1269
975.60 0.1269
975.70 0.1269
975.80 0.1268
975.90 0.1268
976.00 0.1268
976.10 0.1267
976.20 0.1267
976.30 0.1267
976.40 0.1266
976.50 0.1266
976.60 0.1266
976.70 0.1265
976.80 0.1265
976.90 0.1265
977.00 0.1264
977.10 0.1264
977.20 0.1263
977.30 0.1263
977.40 0.1263
977.50 0.1262
977.60 0.1262
977.70 0.1261
977.80 0.1261
977.90 0.126
978.00 0.126
978.10 0.1259
978.20 0.1259
978.30 0.1258
978.40 0.1258
978.50 0.1257
978.60 0.1257
978.70 0.1257
978.80 0.1256
978.90 0.1256
979.00 0.1255
979.10 0.1255
979.20 0.1254
979.30 0.1254
979.40 0.1253
979.50 0.1253
979.60 0.1252
979.70 0.1252
979.80 0.1252
979.90 0.1251
980.00 0.1251
980.10 0.125
980.20 0.125
980.30 0.1249
980.40 0.1249
980.50 0.1248
980.60 0.1248
980.70 0.1247
980.80 0.1247
980.90 0.1247
981.00 0.1246
981.10 0.1246
981.20 0.1245
981.30 0.1245
981.40 0.1244
981.50 0.1244
981.60 0.1243
981.70 0.1243
981.80 0.1242
981.90 0.1242
982.00 0.1242
982.10 0.1241
982.20 0.124
982.30 0.124
982.40 0.1239
982.50 0.1239
982.60 0.1238
982.70 0.1237
982.80 0.1237
982.90 0.1236
983.00 0.1236
983.10 0.1235
983.20 0.1234
983.30 0.1234
983.40 0.1233
983.50 0.1233
983.60 0.1232
983.70 0.1232
983.80 0.1231
983.90 0.123
984.00 0.123
984.10 0.1229
984.20 0.1229
984.30 0.1228
984.40 0.1227
984.50 0.1227
984.60 0.1226
984.70 0.1226
984.80 0.1225
984.90 0.1224
985.00 0.1223
985.10 0.1223
985.20 0.1222
985.30 0.1221
985.40 0.1221
985.50 0.122
985.60 0.1219
985.70 0.1218
985.80 0.1218
985.90 0.1217
986.00 0.1216
986.10 0.1216
986.20 0.1215
986.30 0.1214
986.40 0.1213
986.50 0.1213
986.60 0.1212
986.70 0.1211
986.80 0.1211
986.90 0.121
987.00 0.1209
987.10 0.1208
987.20 0.1207
987.30 0.1207
987.40 0.1206
987.50 0.1205
987.60 0.1204
987.70 0.1203
987.80 0.1202
987.90 0.1202
988.00 0.1201
988.10 0.12
988.20 0.1199
988.30 0.1198
988.40 0.1198
988.50 0.1197
988.60 0.1196
988.70 0.1195
988.80 0.1194
988.90 0.1193
989.00 0.1192
989.10 0.1191
989.20 0.119
989.30 0.1189
989.40 0.1188
989.50 0.1187
989.60 0.1186
989.70 0.1185
989.80 0.1184
989.90 0.1183
990.00 0.1182
990.10 0.1181
990.20 0.118
990.30 0.1179
990.40 0.1178
990.50 0.1177
990.60 0.1176
990.70 0.1175
990.80 0.1174
990.90 0.1173
991.00 0.1171
991.10 0.117
991.20 0.1169
991.30 0.1168
991.40 0.1167
991.50 0.1166
991.60 0.1165
991.70 0.1163
991.80 0.1162
991.90 0.1161
992.00 0.116
992.10 0.1159
992.20 0.1157
992.30 0.1156
992.40 0.1155
992.50 0.1153
992.60 0.1152
992.70 0.115
992.80 0.1149
992.90 0.1147
993.00 0.1146
993.10 0.1144
993.20 0.1143
993.30 0.1141
993.40 0.114
993.50 0.1138
993.60 0.1137
993.70 0.1135
993.80 0.1134
993.90 0.1132
994.00 0.113
994.10 0.1129
994.20 0.1127
994.30 0.1126
994.40 0.1124
994.50 0.1123
994.60 0.1121
994.70 0.112
994.80 0.1118
994.90 0.1116
995.00 0.1114
995.10 0.1112
995.20 0.111
995.30 0.1109
995.40 0.1107
995.50 0.1105
995.60 0.1103
995.70 0.1101
995.80 0.1099
995.90 0.1097
996.00 0.1095
996.10 0.1093
996.20 0.109
996.30 0.1088
996.40 0.1086
996.50 0.1084
996.60 0.1082
996.70 0.108
996.80 0.1078
996.90 0.1076
997.00 0.1073
997.10 0.1071
997.20 0.1069
997.30 0.1066
997.40 0.1064
997.50 0.1062
997.60 0.1059
997.70 0.1056
997.80 0.1053
997.90 0.1051
998.00 0.1048
998.10 0.1045
998.20 0.1042
998.30 0.1039
998.40 0.1036
998.50 0.1033
998.60 0.103
998.70 0.1028
998.80 0.1025
998.90 0.1022
999.00 0.1019
999.10 0.1016
999.20 0.1013
999.30 0.101
999.40 0.1008
999.50 0.1005
999.60 0.1002
999.70 0.09983
999.80 0.09945
999.90 0.09908
1000.00 0.09871
1000.10 0.09834
1000.20 0.09796
1000.30 0.09759
1000.40 0.09722
1000.50 0.09685
1000.60 0.09648
1000.70 0.09611
1000.80 0.09573
1000.90 0.09536
1001.00 0.09499
1001.10 0.09462
1001.20 0.09425
1001.30 0.09388
1001.40 0.09351
1001.50 0.09314
1001.60 0.09277
1001.70 0.09235
1001.80 0.09192
1001.90 0.09149
1002.00 0.09106
1002.10 0.09059
1002.20 0.09011
1002.30 0.08964
1002.40 0.08917
1002.50 0.08869
1002.60 0.08822
1002.70 0.08775
1002.80 0.08727
1002.90 0.0868
1003.00 0.08633
1003.10 0.08586
1003.20 0.08533
1003.30 0.08478
1003.40 0.08424
1003.50 0.08369
1003.60 0.08315
1003.70 0.0826
1003.80 0.08206
1003.90 0.08145
1004.00 0.08082
1004.10 0.0802
1004.20 0.07957
1004.30 0.07891
1004.40 0.07824
1004.50 0.07766
1004.60 0.07804
1004.70 0.07753
1004.80 0.07784
1004.90 0.07846
1005.00 0.07909
1005.10 0.07967
1005.20 0.08025
1005.30 0.08082
1005.40 0.08139
1005.50 0.0819
1005.60 0.08239
1005.70 0.08288
1005.80 0.08337
1005.90 0.08386
1006.00 0.08435
1006.10 0.08484
1006.20 0.08527
1006.30 0.08569
1006.40 0.08611
1006.50 0.08653
1006.60 0.08695
1006.70 0.08736
1006.80 0.08778
1006.90 0.0882
1007.00 0.08862
1007.10 0.08899
1007.20 0.08936
1007.30 0.08973
1007.40 0.0901
1007.50 0.09047
1007.60 0.09084
1007.70 0.09116
1007.80 0.09146
1007.90 0.09176
1008.00 0.09206
1008.10 0.09236
1008.20 0.09266
1008.30 0.09295
1008.40 0.09325
1008.50 0.09355
1008.60 0.09385
1008.70 0.09415
1008.80 0.09445
1008.90 0.09475
1009.00 0.09505
1009.10 0.09534
1009.20 0.09564
1009.30 0.09594
1009.40 0.09624
1009.50 0.09654
1009.60 0.09683
1009.70 0.09707
1009.80 0.09727
1009.90 0.09748
1010.00 0.09769
1010.10 0.0979
1010.20 0.09811
1010.30 0.09832
1010.40 0.09853
1010.50 0.09874
1010.60 0.09894
1010.70 0.09915
1010.80 0.09936
1010.90 0.09957
1011.00 0.09978
1011.10 0.09999
1011.20 0.1002
1011.30 0.1004
1011.40 0.1006
1011.50 0.1008
1011.60 0.101
1011.70 0.1012
1011.80 0.1014
1011.90 0.1015
1012.00 0.1017
1012.10 0.1018
1012.20 0.1019
1012.30 0.1021
1012.40 0.1022
1012.50 0.1023
1012.60 0.1025
1012.70 0.1026
1012.80 0.1028
1012.90 0.1029
1013.00 0.103
1013.10 0.1032
1013.20 0.1033
1013.30 0.1034
1013.40 0.1036
1013.50 0.1037
1013.60 0.1038
1013.70 0.1039
1013.80 0.104
1013.90 0.1041
1014.00 0.1042
1014.10 0.1043
1014.20 0.1044
1014.30 0.1045
1014.40 0.1046
1014.50 0.1047
1014.60 0.1048
1014.70 0.1049
1014.80 0.105
1014.90 0.105
1015.00 0.1051
1015.10 0.1052
1015.20 0.1053
1015.30 0.1053
1015.40 0.1054
1015.50 0.1055
1015.60 0.1055
1015.70 0.1056
1015.80 0.1057
1015.90 0.1057
1016.00 0.1058
1016.10 0.1059
1016.20 0.106
1016.30 0.106
1016.40 0.1061
1016.50 0.1062
1016.60 0.1062
1016.70 0.1063
1016.80 0.1063
1016.90 0.1064
1017.00 0.1064
1017.10 0.1065
1017.20 0.1065
1017.30 0.1065
1017.40 0.1066
1017.50 0.1066
1017.60 0.1066
1017.70 0.1067
1017.80 0.1067
1017.90 0.1068
1018.00 0.1068
1018.10 0.1068
1018.20 0.1069
1018.30 0.1069
1018.40 0.1069
1018.50 0.107
1018.60 0.107
1018.70 0.107
1018.80 0.1071
1018.90 0.1071
1019.00 0.1071
1019.10 0.1071
1019.20 0.1071
1019.30 0.1072
1019.40 0.1072
1019.50 0.1072
1019.60 0.1072
1019.70 0.1072
1019.80 0.1072
1019.90 0.1073
1020.00 0.1073
1020.10 0.1073
1020.20 0.1073
1020.30 0.1073
1020.40 0.1073
1020.50 0.1074
1020.60 0.1074
1020.70 0.1074
1020.80 0.1074
1020.90 0.1074
1021.00 0.1074
1021.10 0.1074
1021.20 0.1074
1021.30 0.1074
1021.40 0.1074
1021.50 0.1074
1021.60 0.1074
1021.70 0.1074
1021.80 0.1074
1021.90 0.1074
1022.00 0.1074
1022.10 0.1074
1022.20 0.1074
1022.30 0.1074
1022.40 0.1074
1022.50 0.1074
1022.60 0.1074
1022.70 0.1074
1022.80 0.1074
1022.90 0.1074
1023.00 0.1074
1023.10 0.1074
1023.20 0.1074
1023.30 0.1073
1023.40 0.1073
1023.50 0.1073
1023.60 0.1073
1023.70 0.1073
1023.80 0.1073
1023.90 0.1073
1024.00 0.1073
1024.10 0.1073
1024.20 0.1073
1024.30 0.1073
1024.40 0.1073
1024.50 0.1073
1024.60 0.1073
1024.70 0.1072
1024.80 0.1072
1024.90 0.1072
1025.00 0.1072
1025.10 0.1072
1025.20 0.1072
1025.30 0.1071
1025.40 0.1071
1025.50 0.1071
1025.60 0.1071
1025.70 0.1071
1025.80 0.1071
1025.90 0.107
1026.00 0.107
1026.10 0.107
1026.20 0.107
1026.30 0.107
1026.40 0.107
1026.50 0.1069
1026.60 0.1069
1026.70 0.1069
1026.80 0.1069
1026.90 0.1069
1027.00 0.1069
1027.10 0.1068
1027.20 0.1068
1027.30 0.1068
1027.40 0.1068
1027.50 0.1067
1027.60 0.1067
1027.70 0.1067
1027.80 0.1067
1027.90 0.1066
1028.00 0.1066
1028.10 0.1066
1028.20 0.1066
1028.30 0.1065
1028.40 0.1065
1028.50 0.1065
1028.60 0.1065
1028.70 0.1064
1028.80 0.1064
1028.90 0.1064
1029.00 0.1064
1029.10 0.1063
1029.20 0.1063
1029.30 0.1063
1029.40 0.1063
1029.50 0.1062
1029.60 0.1062
1029.70 0.1062
1029.80 0.1062
1029.90 0.1061
1030.00 0.1061
1030.10 0.1061
1030.20 0.1061
1030.30 0.1061
1030.40 0.106
1030.50 0.106
1030.60 0.106
1030.70 0.106
1030.80 0.1059
1030.90 0.1059
1031.00 0.1059
1031.10 0.1059
1031.20 0.1058
1031.30 0.1058
1031.40 0.1058
1031.50 0.1058
1031.60 0.1057
1031.70 0.1057
1031.80 0.1057
1031.90 0.1057
1032.00 0.1056
1032.10 0.1056
1032.20 0.1056
1032.30 0.1055
1032.40 0.1055
1032.50 0.1055
1032.60 0.1055
1032.70 0.1054
1032.80 0.1054
1032.90 0.1054
1033.00 0.1053
1033.10 0.1053
1033.20 0.1053
1033.30 0.1052
1033.40 0.1052
1033.50 0.1052
1033.60 0.1052
1033.70 0.1051
1033.80 0.1051
1033.90 0.1051
1034.00 0.105
1034.10 0.105
1034.20 0.105
1034.30 0.1049
1034.40 0.1049
1034.50 0.1049
1034.60 0.1049
1034.70 0.1048
1034.80 0.1048
1034.90 0.1048
1035.00 0.1047
1035.10 0.1047
1035.20 0.1047
1035.30 0.1047
1035.40 0.1046
1035.50 0.1046
1035.60 0.1046
1035.70 0.1045
1035.80 0.1045
1035.90 0.1045
1036.00 0.1044
1036.10 0.1044
1036.20 0.1044
1036.30 0.1044
1036.40 0.1043
1036.50 0.1043
1036.60 0.1043
1036.70 0.1042
1036.80 0.1042
1036.90 0.1042
1037.00 0.1041
1037.10 0.1041
1037.20 0.1041
1037.30 0.104
1037.40 0.104
1037.50 0.104
1037.60 0.1039
1037.70 0.1039
1037.80 0.1039
1037.90 0.1039
1038.00 0.1038
1038.10 0.1038
1038.20 0.1038
1038.30 0.1037
1038.40 0.1037
1038.50 0.1037
1038.60 0.1036
1038.70 0.1036
1038.80 0.1036
1038.90 0.1035
1039.00 0.1035
1039.10 0.1035
1039.20 0.1034
1039.30 0.1034
1039.40 0.1034
1039.50 0.1033
1039.60 0.1033
1039.70 0.1033
1039.80 0.1032
1039.90 0.1032
1040.00 0.1032
1040.10 0.1031
1040.20 0.1031
1040.30 0.1031
1040.40 0.103
1040.50 0.103
1040.60 0.103
1040.70 0.1029
1040.80 0.1029
1040.90 0.1029
1041.00 0.1028
1041.10 0.1028
1041.20 0.1028
1041.30 0.1027
1041.40 0.1027
1041.50 0.1027
1041.60 0.1026
1041.70 0.1026
1041.80 0.1026
1041.90 0.1026
1042.00 0.1025
1042.10 0.1025
1042.20 0.1025
1042.30 0.1024
1042.40 0.1024
1042.50 0.1024
1042.60 0.1023
1042.70 0.1023
1042.80 0.1023
1042.90 0.1022
1043.00 0.1022
1043.10 0.1022
1043.20 0.1021
1043.30 0.1021
1043.40 0.102
1043.50 0.102
1043.60 0.102
1043.70 0.1019
1043.80 0.1019
1043.90 0.1019
1044.00 0.1018
1044.10 0.1018
1044.20 0.1018
1044.30 0.1017
1044.40 0.1017
1044.50 0.1017
1044.60 0.1016
1044.70 0.1016
1044.80 0.1016
1044.90 0.1015
1045.00 0.1015
1045.10 0.1015
1045.20 0.1014
1045.30 0.1014
1045.40 0.1014
1045.50 0.1013
1045.60 0.1013
1045.70 0.1013
1045.80 0.1012
1045.90 0.1012
1046.00 0.1012
1046.10 0.1011
1046.20 0.1011
1046.30 0.1011
1046.40 0.101
1046.50 0.101
1046.60 0.101
1046.70 0.1009
1046.80 0.1009
1046.90 0.1009
1047.00 0.1009
1047.10 0.1008
1047.20 0.1008
1047.30 0.1007
1047.40 0.1007
1047.50 0.1007
1047.60 0.1006
1047.70 0.1006
1047.80 0.1006
1047.90 0.1005
1048.00 0.1005
1048.10 0.1005
1048.20 0.1004
1048.30 0.1004
1048.40 0.1004
1048.50 0.1003
1048.60 0.1003
1048.70 0.1003
1048.80 0.1002
1048.90 0.1002
1049.00 0.1002
1049.10 0.1001
1049.20 0.1001
1049.30 0.1001
1049.40 0.1
1049.50 0.09999
1049.60 0.09996
1049.70 0.09993
1049.80 0.09989
1049.90 0.09986
1050.00 0.09982
1050.10 0.09979
1050.20 0.09976
1050.30 0.09972
1050.40 0.09969
1050.50 0.09965
1050.60 0.09962
1050.70 0.09959
1050.80 0.09955
1050.90 0.09952
1051.00 0.09949
1051.10 0.09945
1051.20 0.09942
1051.30 0.09938
1051.40 0.09935
1051.50 0.09932
1051.60 0.09928
1051.70 0.09925
1051.80 0.09921
1051.90 0.09918
1052.00 0.09915
1052.10 0.09911
1052.20 0.09908
1052.30 0.09904
1052.40 0.09901
1052.50 0.09897
1052.60 0.09894
1052.70 0.0989
1052.80 0.09887
1052.90 0.09883
1053.00 0.0988
1053.10 0.09876
1053.20 0.09873
1053.30 0.09869
1053.40 0.09866
1053.50 0.09863
1053.60 0.09859
1053.70 0.09856
1053.80 0.09852
1053.90 0.09849
1054.00 0.09845
1054.10 0.09842
1054.20 0.09838
1054.30 0.09835
1054.40 0.09831
1054.50 0.09828
1054.60 0.09824
1054.70 0.09821
1054.80 0.09818
1054.90 0.09814
1055.00 0.09811
1055.10 0.09807
1055.20 0.09804
1055.30 0.098
1055.40 0.09797
1055.50 0.09793
1055.60 0.0979
1055.70 0.09787
1055.80 0.09783
1055.90 0.0978
1056.00 0.09776
1056.10 0.09773
1056.20 0.09769
1056.30 0.09766
1056.40 0.09762
1056.50 0.09759
1056.60 0.09756
1056.70 0.09752
1056.80 0.09749
1056.90 0.09745
1057.00 0.09742
1057.10 0.09738
1057.20 0.09735
1057.30 0.09731
1057.40 0.09728
1057.50 0.09724
1057.60 0.0972
1057.70 0.09717
1057.80 0.09713
1057.90 0.0971
1058.00 0.09706
1058.10 0.09703
1058.20 0.09699
1058.30 0.09695
1058.40 0.09692
1058.50 0.09688
1058.60 0.09685
1058.70 0.09681
1058.80 0.09678
1058.90 0.09674
1059.00 0.0967
1059.10 0.09667
1059.20 0.09663
1059.30 0.0966
1059.40 0.09656
1059.50 0.09653
1059.60 0.09649
1059.70 0.09646
1059.80 0.09642
1059.90 0.09638
1060.00 0.09635
1060.10 0.09631
1060.20 0.09628
1060.30 0.09624
1060.40 0.09621
1060.50 0.09617
1060.60 0.09614
1060.70 0.0961
1060.80 0.09607
1060.90 0.09603
1061.00 0.09599
1061.10 0.09596
1061.20 0.09592
1061.30 0.09589
1061.40 0.09585
1061.50 0.09582
1061.60 0.09578
1061.70 0.09575
1061.80 0.09571
1061.90 0.09568
1062.00 0.09564
1062.10 0.0956
1062.20 0.09557
1062.30 0.09553
1062.40 0.09549
1062.50 0.09545
1062.60 0.09541
1062.70 0.09538
1062.80 0.09534
1062.90 0.0953
1063.00 0.09526
1063.10 0.09522
1063.20 0.09519
1063.30 0.09515
1063.40 0.09511
1063.50 0.09507
1063.60 0.09504
1063.70 0.095
1063.80 0.09496
1063.90 0.09492
1064.00 0.09488
1064.10 0.09485
1064.20 0.09481
1064.30 0.09477
1064.40 0.09473
1064.50 0.0947
1064.60 0.09466
1064.70 0.09462
1064.80 0.09458
1064.90 0.09455
1065.00 0.09451
1065.10 0.09447
1065.20 0.09443
1065.30 0.09439
1065.40 0.09436
1065.50 0.09432
1065.60 0.09428
1065.70 0.09424
1065.80 0.09421
1065.90 0.09417
1066.00 0.09413
1066.10 0.09409
1066.20 0.09406
1066.30 0.09402
1066.40 0.09398
1066.50 0.09394
1066.60 0.09391
1066.70 0.09387
1066.80 0.09383
1066.90 0.0938
1067.00 0.09376
1067.10 0.09372
1067.20 0.09367
1067.30 0.09363
1067.40 0.09359
1067.50 0.09354
1067.60 0.0935
1067.70 0.09346
1067.80 0.09342
1067.90 0.09337
1068.00 0.09333
1068.10 0.09329
1068.20 0.09324
1068.30 0.0932
1068.40 0.09316
1068.50 0.09312
1068.60 0.09307
1068.70 0.09303
1068.80 0.09299
1068.90 0.09295
1069.00 0.0929
1069.10 0.09286
1069.20 0.09282
1069.30 0.09278
1069.40 0.09273
1069.50 0.09269
1069.60 0.09265
1069.70 0.0926
1069.80 0.09256
1069.90 0.09252
1070.00 0.09248
1070.10 0.09243
1070.20 0.09239
1070.30 0.09235
1070.40 0.09231
1070.50 0.09227
1070.60 0.09222
1070.70 0.09218
1070.80 0.09214
1070.90 0.0921
1071.00 0.09205
1071.10 0.09201
1071.20 0.09197
1071.30 0.09193
1071.40 0.09188
1071.50 0.09184
1071.60 0.0918
1071.70 0.09176
1071.80 0.09172
1071.90 0.09167
1072.00 0.09163
1072.10 0.09158
1072.20 0.09154
1072.30 0.09149
1072.40 0.09144
1072.50 0.09139
1072.60 0.09135
1072.70 0.0913
1072.80 0.09125
1072.90 0.0912
1073.00 0.09116
1073.10 0.09111
1073.20 0.09106
1073.30 0.09102
1073.40 0.09097
1073.50 0.09092
1073.60 0.09086
1073.70 0.09081
1073.80 0.09075
1073.90 0.09069
1074.00 0.09064
1074.10 0.09058
1074.20 0.09053
1074.30 0.09047
1074.40 0.09041
1074.50 0.09036
1074.60 0.0903
1074.70 0.09024
1074.80 0.09019
1074.90 0.09013
1075.00 0.09008
1075.10 0.09002
1075.20 0.08997
1075.30 0.08991
1075.40 0.08985
1075.50 0.0898
1075.60 0.08974
1075.70 0.08969
1075.80 0.08963
1075.90 0.08957
1076.00 0.08952
1076.10 0.08946
1076.20 0.08941
1076.30 0.08935
1076.40 0.0893
1076.50 0.08924
1076.60 0.08918
1076.70 0.08913
1076.80 0.08907
1076.90 0.08902
1077.00 0.08896
1077.10 0.0889
1077.20 0.08884
1077.30 0.08878
1077.40 0.08871
1077.50 0.08865
1077.60 0.08858
1077.70 0.0885
1077.80 0.08843
1077.90 0.08836
1078.00 0.08829
1078.10 0.08822
1078.20 0.08814
1078.30 0.08807
1078.40 0.088
1078.50 0.08793
1078.60 0.08786
1078.70 0.08779
1078.80 0.08771
1078.90 0.08764
1079.00 0.08757
1079.10 0.0875
1079.20 0.08743
1079.30 0.08736
1079.40 0.08728
1079.50 0.08721
1079.60 0.08712
1079.70 0.08703
1079.80 0.08695
1079.90 0.08686
1080.00 0.08678
1080.10 0.08669
1080.20 0.0866
1080.30 0.08652
1080.40 0.08643
1080.50 0.08634
1080.60 0.08626
1080.70 0.08617
1080.80 0.08608
1080.90 0.086
1081.00 0.08591
1081.10 0.08583
1081.20 0.08574
1081.30 0.08565
1081.40 0.08557
1081.50 0.08548
1081.60 0.08538
1081.70 0.08529
1081.80 0.08519
1081.90 0.08509
1082.00 0.085
1082.10 0.08489
1082.20 0.08478
1082.30 0.08467
1082.40 0.08457
1082.50 0.08446
1082.60 0.08435
1082.70 0.08425
1082.80 0.08414
1082.90 0.08403
1083.00 0.08393
1083.10 0.08382
1083.20 0.08371
1083.30 0.08361
1083.40 0.0835
1083.50 0.08338
1083.60 0.08326
1083.70 0.08313
1083.80 0.083
1083.90 0.08287
1084.00 0.08274
1084.10 0.08261
1084.20 0.08248
1084.30 0.08235
1084.40 0.08222
1084.50 0.08208
1084.60 0.08193
1084.70 0.08178
1084.80 0.08162
1084.90 0.08147
1085.00 0.08132
1085.10 0.08116
1085.20 0.08101
1085.30 0.08085
1085.40 0.0807
1085.50 0.08055
1085.60 0.08039
1085.70 0.08024
1085.80 0.08009
1085.90 0.07993
1086.00 0.07978
1086.10 0.07963
1086.20 0.07947
1086.30 0.07932
1086.40 0.07917
1086.50 0.07901
1086.60 0.07883
1086.70 0.07865
1086.80 0.07848
1086.90 0.0783
1087.00 0.07813
1087.10 0.07792
1087.20 0.07771
1087.30 0.07751
1087.40 0.0773
1087.50 0.0771
1087.60 0.07689
1087.70 0.07669
1087.80 0.07648
1087.90 0.07628
1088.00 0.07607
1088.10 0.07587
1088.20 0.07566
1088.30 0.07546
1088.40 0.07525
1088.50 0.07503
1088.60 0.07477
1088.70 0.07452
1088.80 0.07426
1088.90 0.074
1089.00 0.07374
1089.10 0.07348
1089.20 0.07322
1089.30 0.07297
1089.40 0.07271
1089.50 0.07245
1089.60 0.07219
1089.70 0.07194
1089.80 0.07168
1089.90 0.07142
1090.00 0.07116
1090.10 0.07091
1090.20 0.07065
1090.30 0.07039
1090.40 0.07014
1090.50 0.06986
1090.60 0.06953
1090.70 0.06921
1090.80 0.06888
1090.90 0.06855
1091.00 0.06823
1091.10 0.0679
1091.20 0.06757
1091.30 0.06725
1091.40 0.06692
1091.50 0.0666
1091.60 0.06627
1091.70 0.06595
1091.80 0.06562
1091.90 0.0653
1092.00 0.06496
1092.10 0.06454
1092.20 0.06413
1092.30 0.06372
1092.40 0.0633
1092.50 0.06289
1092.60 0.06248
1092.70 0.06201
1092.80 0.06145
1092.90 0.06089
1093.00 0.06032
1093.10 0.05967
1093.20 0.05881
1093.30 0.05794
1093.40 0.05697
1093.50 0.05686
1093.60 0.05752
1093.70 0.05843
1093.80 0.05925
1093.90 0.05997
1094.00 0.0605
1094.10 0.06103
1094.20 0.06155
1094.30 0.06203
1094.40 0.0624
1094.50 0.06277
1094.60 0.06314
1094.70 0.06351
1094.80 0.06389
1094.90 0.06426
1095.00 0.0646
1095.10 0.06488
1095.20 0.06516
1095.30 0.06544
1095.40 0.06572
1095.50 0.066
1095.60 0.06628
1095.70 0.06657
1095.80 0.06685
1095.90 0.06713
1096.00 0.06741
1096.10 0.06769
1096.20 0.06797
1096.30 0.06825
1096.40 0.06853
1096.50 0.06879
1096.60 0.06903
1096.70 0.06926
1096.80 0.06949
1096.90 0.06973
1097.00 0.06996
1097.10 0.07016
1097.20 0.07036
1097.30 0.07055
1097.40 0.07075
1097.50 0.07095
1097.60 0.07115
1097.70 0.07134
1097.80 0.07154
1097.90 0.07174
1098.00 0.07193
1098.10 0.07213
1098.20 0.07233
1098.30 0.07252
1098.40 0.07272
1098.50 0.0729
1098.60 0.07304
1098.70 0.07319
1098.80 0.07333
1098.90 0.07347
1099.00 0.07361
1099.10 0.07376
1099.20 0.0739
1099.30 0.07404
1099.40 0.07418
1099.50 0.07432
1099.60 0.07447
1099.70 0.07461
1099.80 0.07475
1099.90 0.07489
1100.00 0.07503
1100.10 0.07518
1100.20 0.07532
1100.30 0.07546
1100.40 0.0756
1100.50 0.07573
1100.60 0.07583
1100.70 0.07593
1100.80 0.07603
1100.90 0.07613
1101.00 0.07623
1101.10 0.07633
1101.20 0.07643
1101.30 0.07653
1101.40 0.07663
1101.50 0.07673
1101.60 0.07682
1101.70 0.07692
1101.80 0.07702
1101.90 0.07712
1102.00 0.07722
1102.10 0.07731
1102.20 0.07739
1102.30 0.07748
1102.40 0.07756
1102.50 0.07764
1102.60 0.0777
1102.70 0.07777
1102.80 0.07784
1102.90 0.0779
1103.00 0.07797
1103.10 0.07803
1103.20 0.0781
1103.30 0.07817
1103.40 0.07823
1103.50 0.07829
1103.60 0.07834
1103.70 0.07839
1103.80 0.07844
1103.90 0.07848
1104.00 0.07853
1104.10 0.07858
1104.20 0.07863
1104.30 0.07867
1104.40 0.07872
1104.50 0.07877
1104.60 0.07881
1104.70 0.07886
1104.80 0.07891
1104.90 0.07896
1105.00 0.079
1105.10 0.07905
1105.20 0.0791
1105.30 0.07915
1105.40 0.07919
1105.50 0.07923
1105.60 0.07926
1105.70 0.07929
1105.80 0.07932
1105.90 0.07935
1106.00 0.07938
1106.10 0.07941
1106.20 0.07944
1106.30 0.07947
1106.40 0.0795
1106.50 0.07953
1106.60 0.07956
1106.70 0.07959
1106.80 0.07962
1106.90 0.07965
1107.00 0.07968
1107.10 0.07969
1107.20 0.07971
1107.30 0.07973
1107.40 0.07975
1107.50 0.07977
1107.60 0.07978
1107.70 0.07979
1107.80 0.0798
1107.90 0.07982
1108.00 0.07983
1108.10 0.07984
1108.20 0.07985
1108.30 0.07987
1108.40 0.07988
1108.50 0.07989
1108.60 0.07991
1108.70 0.07992
1108.80 0.07993
1108.90 0.07994
1109.00 0.07996
1109.10 0.07997
1109.20 0.07998
1109.30 0.07999
1109.40 0.08001
1109.50 0.08001
1109.60 0.08001
1109.70 0.08001
1109.80 0.08001
1109.90 0.08001
1110.00 0.08001
1110.10 0.08001
1110.20 0.08001
1110.30 0.08001
1110.40 0.08001
1110.50 0.08001
1110.60 0.08001
1110.70 0.08001
1110.80 0.08001
1110.90 0.08001
1111.00 0.08
1111.10 0.08
1111.20 0.08
1111.30 0.08
1111.40 0.08
1111.50 0.08
1111.60 0.08
1111.70 0.08
1111.80 0.08
1111.90 0.08
1112.00 0.08
1112.10 0.07999
1112.20 0.07999
1112.30 0.07998
1112.40 0.07998
1112.50 0.07997
1112.60 0.07997
1112.70 0.07996
1112.80 0.07996
1112.90 0.07995
1113.00 0.07995
1113.10 0.07994
1113.20 0.07994
1113.30 0.07993
1113.40 0.07993
1113.50 0.07992
1113.60 0.07991
1113.70 0.07989
1113.80 0.07988
1113.90 0.07987
1114.00 0.07985
1114.10 0.07984
1114.20 0.07983
1114.30 0.07982
1114.40 0.0798
1114.50 0.07979
1114.60 0.07978
1114.70 0.07976
1114.80 0.07975
1114.90 0.07974
1115.00 0.07972
1115.10 0.07971
1115.20 0.0797
1115.30 0.07969
1115.40 0.07967
1115.50 0.07966
1115.60 0.07965
1115.70 0.07963
1115.80 0.07962
1115.90 0.07961
1116.00 0.0796
1116.10 0.07958
1116.20 0.07957
1116.30 0.07956
1116.40 0.07954
1116.50 0.07953
1116.60 0.07952
1116.70 0.07951
1116.80 0.07949
1116.90 0.07948
1117.00 0.07947
1117.10 0.07945
1117.20 0.07943
1117.30 0.07941
1117.40 0.0794
1117.50 0.07938
1117.60 0.07936
1117.70 0.07934
1117.80 0.07932
1117.90 0.07931
1118.00 0.07929
1118.10 0.07927
1118.20 0.07925
1118.30 0.07923
1118.40 0.07922
1118.50 0.0792
1118.60 0.07918
1118.70 0.07916
1118.80 0.07914
1118.90 0.07913
1119.00 0.07911
1119.10 0.07909
1119.20 0.07907
1119.30 0.07905
1119.40 0.07904
1119.50 0.07902
1119.60 0.079
1119.70 0.07898
1119.80 0.07897
1119.90 0.07895
1120.00 0.07893
1120.10 0.07891
1120.20 0.07889
1120.30 0.07888
1120.40 0.07886
1120.50 0.07884
1120.60 0.07882
1120.70 0.0788
1120.80 0.07879
1120.90 0.07877
1121.00 0.07875
1121.10 0.07873
1121.20 0.07872
1121.30 0.0787
1121.40 0.07868
1121.50 0.07866
1121.60 0.07864
1121.70 0.07863
1121.80 0.07861
1121.90 0.07859
1122.00 0.07857
1122.10 0.07855
1122.20 0.07853
1122.30 0.07851
1122.40 0.07849
1122.50 0.07847
1122.60 0.07845
1122.70 0.07843
1122.80 0.07841
1122.90 0.07838
1123.00 0.07836
1123.10 0.07834
1123.20 0.07832
1123.30 0.0783
1123.40 0.07828
1123.50 0.07826
1123.60 0.07824
1123.70 0.07822
1123.80 0.07819
1123.90 0.07817
1124.00 0.07815
1124.10 0.07813
1124.20 0.07811
1124.30 0.07809
1124.40 0.07807
1124.50 0.07805
1124.60 0.07803
1124.70 0.07801
1124.80 0.07799
1124.90 0.07796
1125.00 0.07794
1125.10 0.07792
1125.20 0.0779
1125.30 0.07788
1125.40 0.07786
1125.50 0.07784
1125.60 0.07782
1125.70 0.0778
1125.80 0.07778
1125.90 0.07776
1126.00 0.07773
1126.10 0.07771
1126.20 0.07769
1126.30 0.07767
1126.40 0.07765
1126.50 0.07763
1126.60 0.07761
1126.70 0.07759
1126.80 0.07757
1126.90 0.07755
1127.00 0.07753
1127.10 0.0775
1127.20 0.07748
1127.30 0.07746
1127.40 0.07744
1127.50 0.07741
1127.60 0.07739
1127.70 0.07737
1127.80 0.07735
1127.90 0.07732
1128.00 0.0773
1128.10 0.07728
1128.20 0.07726
1128.30 0.07724
1128.40 0.07721
1128.50 0.07719
1128.60 0.07717
1128.70 0.07715
1128.80 0.07712
1128.90 0.0771
1129.00 0.07708
1129.10 0.07706
1129.20 0.07704
1129.30 0.07701
1129.40 0.07699
1129.50 0.07697
1129.60 0.07695
1129.70 0.07692
1129.80 0.0769
1129.90 0.07688
1130.00 0.07686
1130.10 0.07684
1130.20 0.07681
1130.30 0.07679
1130.40 0.07677
1130.50 0.07675
1130.60 0.07672
1130.70 0.0767
1130.80 0.07668
1130.90 0.07666
1131.00 0.07664
1131.10 0.07661
1131.20 0.07659
1131.30 0.07657
1131.40 0.07655
1131.50 0.07653
1131.60 0.0765
1131.70 0.07648
1131.80 0.07646
1131.90 0.07644
1132.00 0.07642
1132.10 0.07639
1132.20 0.07637
1132.30 0.07635
1132.40 0.07632
1132.50 0.0763
1132.60 0.07628
1132.70 0.07626
1132.80 0.07623
1132.90 0.07621
1133.00 0.07619
1133.10 0.07616
1133.20 0.07614
1133.30 0.07612
1133.40 0.0761
1133.50 0.07607
1133.60 0.07605
1133.70 0.07603
1133.80 0.07601
1133.90 0.07598
1134.00 0.07596
1134.10 0.07594
1134.20 0.07591
1134.30 0.07589
1134.40 0.07587
1134.50 0.07585
1134.60 0.07582
1134.70 0.0758
1134.80 0.07578
1134.90 0.07576
1135.00 0.07573
1135.10 0.07571
1135.20 0.07569
1135.30 0.07567
1135.40 0.07564
1135.50 0.07562
1135.60 0.0756
1135.70 0.07558
1135.80 0.07555
1135.90 0.07553
1136.00 0.07551
1136.10 0.07548
1136.20 0.07546
1136.30 0.07544
1136.40 0.07542
1136.50 0.07539
1136.60 0.07537
1136.70 0.07535
1136.80 0.07533
1136.90 0.0753
1137.00 0.07528
1137.10 0.07526
1137.20 0.07524
1137.30 0.07521
1137.40 0.07519
1137.50 0.07517
1137.60 0.07515
1137.70 0.07512
1137.80 0.0751
1137.90 0.07508
1138.00 0.07505
1138.10 0.07503
1138.20 0.07501
1138.30 0.07499
1138.40 0.07496
1138.50 0.07494
1138.60 0.07492
1138.70 0.07489
1138.80 0.07487
1138.90 0.07485
1139.00 0.07483
1139.10 0.0748
1139.20 0.07478
1139.30 0.07476
1139.40 0.07474
1139.50 0.07471
1139.60 0.07469
1139.70 0.07467
1139.80 0.07464
1139.90 0.07462
1140.00 0.0746
1140.10 0.07458
1140.20 0.07455
1140.30 0.07453
1140.40 0.07451
1140.50 0.07449
1140.60 0.07446
1140.70 0.07444
1140.80 0.07442
1140.90 0.0744
1141.00 0.07437
1141.10 0.07435
1141.20 0.07433
1141.30 0.07431
1141.40 0.07428
1141.50 0.07426
1141.60 0.07424
1141.70 0.07422
1141.80 0.07419
1141.90 0.07417
1142.00 0.07415
1142.10 0.07413
1142.20 0.0741
1142.30 0.07408
1142.40 0.07406
1142.50 0.07403
1142.60 0.07401
1142.70 0.07399
1142.80 0.07397
1142.90 0.07394
1143.00 0.07392
1143.10 0.0739
1143.20 0.07388
1143.30 0.07385
1143.40 0.07383
1143.50 0.07381
1143.60 0.07379
1143.70 0.07376
1143.80 0.07374
1143.90 0.07372
1144.00 0.0737
1144.10 0.07367
1144.20 0.07365
1144.30 0.07363
1144.40 0.07361
1144.50 0.07358
1144.60 0.07356
1144.70 0.07354
1144.80 0.07351
1144.90 0.07349
1145.00 0.07347
1145.10 0.07345
1145.20 0.07342
1145.30 0.0734
1145.40 0.07338
1145.50 0.07336
1145.60 0.07333
1145.70 0.07331
1145.80 0.07329
1145.90 0.07327
1146.00 0.07325
1146.10 0.07322
1146.20 0.0732
1146.30 0.07318
1146.40 0.07316
1146.50 0.07313
1146.60 0.07311
1146.70 0.07309
1146.80 0.07307
1146.90 0.07304
1147.00 0.07302
1147.10 0.073
1147.20 0.07298
1147.30 0.07295
1147.40 0.07293
1147.50 0.07291
1147.60 0.07289
1147.70 0.07286
1147.80 0.07284
1147.90 0.07282
1148.00 0.0728
1148.10 0.07277
1148.20 0.07275
1148.30 0.07273
1148.40 0.07271
1148.50 0.07269
1148.60 0.07266
1148.70 0.07264
1148.80 0.07262
1148.90 0.0726
1149.00 0.07257
1149.10 0.07255
1149.20 0.07253
1149.30 0.07251
1149.40 0.07248
1149.50 0.07246
1149.60 0.07244
1149.70 0.07242
1149.80 0.0724
1149.90 0.07237
1150.00 0.07235
1150.10 0.07233
1150.20 0.07231
1150.30 0.07228
1150.40 0.07226
1150.50 0.07224
1150.60 0.07222
1150.70 0.0722
1150.80 0.07217
1150.90 0.07215
1151.00 0.07213
1151.10 0.07211
1151.20 0.07209
1151.30 0.07206
1151.40 0.07204
1151.50 0.07202
1151.60 0.072
1151.70 0.07197
1151.80 0.07195
1151.90 0.07193
1152.00 0.07191
1152.10 0.07189
1152.20 0.07186
1152.30 0.07184
1152.40 0.07182
1152.50 0.0718
1152.60 0.07178
1152.70 0.07175
1152.80 0.07173
1152.90 0.07171
1153.00 0.07169
1153.10 0.07166
1153.20 0.07164
1153.30 0.07162
1153.40 0.0716
1153.50 0.07158
1153.60 0.07155
1153.70 0.07153
1153.80 0.07151
1153.90 0.07149
1154.00 0.07147
1154.10 0.07144
1154.20 0.07142
1154.30 0.0714
1154.40 0.07138
1154.50 0.07136
1154.60 0.07133
1154.70 0.07131
1154.80 0.07129
1154.90 0.07127
1155.00 0.07125
1155.10 0.07122
1155.20 0.0712
1155.30 0.07118
1155.40 0.07116
1155.50 0.07114
1155.60 0.07111
1155.70 0.07109
1155.80 0.07107
1155.90 0.07105
1156.00 0.07103
1156.10 0.071
1156.20 0.07098
1156.30 0.07096
1156.40 0.07094
1156.50 0.07092
1156.60 0.07089
1156.70 0.07087
1156.80 0.07085
1156.90 0.07083
1157.00 0.07081
1157.10 0.07079
1157.20 0.07076
1157.30 0.07074
1157.40 0.07072
1157.50 0.0707
1157.60 0.07068
1157.70 0.07065
1157.80 0.07063
1157.90 0.07061
1158.00 0.07059
1158.10 0.07057
1158.20 0.07055
1158.30 0.07052
1158.40 0.0705
1158.50 0.07048
1158.60 0.07046
1158.70 0.07044
1158.80 0.07042
1158.90 0.07039
1159.00 0.07037
1159.10 0.07035
1159.20 0.07033
1159.30 0.07031
1159.40 0.07029
1159.50 0.07026
1159.60 0.07024
1159.70 0.07022
1159.80 0.0702
1159.90 0.07018
1160.00 0.07016
1160.10 0.07013
1160.20 0.07011
1160.30 0.07009
1160.40 0.07007
1160.50 0.07005
1160.60 0.07003
1160.70 0.07
1160.80 0.06998
1160.90 0.06996
1161.00 0.06994
1161.10 0.06992
1161.20 0.0699
1161.30 0.06988
1161.40 0.06985
1161.50 0.06983
1161.60 0.06981
1161.70 0.06979
1161.80 0.06977
1161.90 0.06975
1162.00 0.06973
1162.10 0.0697
1162.20 0.06968
1162.30 0.06966
1162.40 0.06964
1162.50 0.06962
1162.60 0.0696
1162.70 0.06957
1162.80 0.06955
1162.90 0.06953
1163.00 0.06951
1163.10 0.06949
1163.20 0.06947
1163.30 0.06945
1163.40 0.06942
1163.50 0.0694
1163.60 0.06938
1163.70 0.06936
1163.80 0.06934
1163.90 0.06932
1164.00 0.0693
1164.10 0.06928
1164.20 0.06925
1164.30 0.06923
1164.40 0.06921
1164.50 0.06919
1164.60 0.06917
1164.70 0.06915
1164.80 0.06913
1164.90 0.0691
1165.00 0.06908
1165.10 0.06906
1165.20 0.06904
1165.30 0.06902
1165.40 0.069
1165.50 0.06898
1165.60 0.06896
1165.70 0.06893
1165.80 0.06891
1165.90 0.06889
1166.00 0.06887
1166.10 0.06885
1166.20 0.06883
1166.30 0.06881
1166.40 0.06879
1166.50 0.06876
1166.60 0.06874
1166.70 0.06872
1166.80 0.0687
1166.90 0.06868
1167.00 0.06866
1167.10 0.06864
1167.20 0.06862
1167.30 0.0686
1167.40 0.06857
1167.50 0.06855
1167.60 0.06853
1167.70 0.06851
1167.80 0.06849
1167.90 0.06847
1168.00 0.06845
1168.10 0.06843
1168.20 0.06841
1168.30 0.06838
1168.40 0.06836
1168.50 0.06834
1168.60 0.06832
1168.70 0.0683
1168.80 0.06828
1168.90 0.06826
1169.00 0.06824
1169.10 0.06822
1169.20 0.0682
1169.30 0.06817
1169.40 0.06815
1169.50 0.06813
1169.60 0.06811
1169.70 0.06809
1169.80 0.06807
1169.90 0.06805
1170.00 0.06803
1170.10 0.06801
1170.20 0.06799
1170.30 0.06796
1170.40 0.06794
1170.50 0.06792
1170.60 0.0679
1170.70 0.06788
1170.80 0.06786
1170.90 0.06784
1171.00 0.06782
1171.10 0.0678
1171.20 0.06778
1171.30 0.06776
1171.40 0.06774
1171.50 0.06771
1171.60 0.06769
1171.70 0.06767
1171.80 0.06765
1171.90 0.06763
1172.00 0.06761
1172.10 0.06759
1172.20 0.06757
1172.30 0.06755
1172.40 0.06753
1172.50 0.06751
1172.60 0.06749
1172.70 0.06747
1172.80 0.06744
1172.90 0.06742
1173.00 0.0674
1173.10 0.06738
1173.20 0.06736
1173.30 0.06734
1173.40 0.06732
1173.50 0.0673
1173.60 0.06728
1173.70 0.06726
1173.80 0.06724
1173.90 0.06722
1174.00 0.0672
1174.10 0.06718
1174.20 0.06716
1174.30 0.06714
1174.40 0.06711
1174.50 0.06709
1174.60 0.06707
1174.70 0.06705
1174.80 0.06703
1174.90 0.06701
1175.00 0.06699
1175.10 0.06697
1175.20 0.06695
1175.30 0.06693
1175.40 0.06691
1175.50 0.06689
1175.60 0.06687
1175.70 0.06685
1175.80 0.06683
1175.90 0.06681
1176.00 0.06679
1176.10 0.06677
1176.20 0.06675
1176.30 0.06672
1176.40 0.0667
1176.50 0.06668
1176.60 0.06666
1176.70 0.06664
1176.80 0.06662
1176.90 0.0666
1177.00 0.06658
1177.10 0.06656
1177.20 0.06654
1177.30 0.06652
1177.40 0.0665
1177.50 0.06648
1177.60 0.06646
1177.70 0.06644
1177.80 0.06642
1177.90 0.0664
1178.00 0.06638
1178.10 0.06636
1178.20 0.06634
1178.30 0.06632
1178.40 0.0663
1178.50 0.06628
1178.60 0.06626
1178.70 0.06624
1178.80 0.06621
1178.90 0.06619
1179.00 0.06617
1179.10 0.06615
1179.20 0.06613
1179.30 0.06611
1179.40 0.06609
1179.50 0.06607
1179.60 0.06605
1179.70 0.06603
1179.80 0.06601
1179.90 0.06599
1180.00 0.06597
1180.10 0.06595
1180.20 0.06593
1180.30 0.06591
1180.40 0.06589
1180.50 0.06587
1180.60 0.06585
1180.70 0.06583
1180.80 0.06581
1180.90 0.06579
1181.00 0.06577
1181.10 0.06575
1181.20 0.06573
1181.30 0.06571
1181.40 0.06569
1181.50 0.06567
1181.60 0.06565
1181.70 0.06563
1181.80 0.06561
1181.90 0.06559
1182.00 0.06557
1182.10 0.06555
1182.20 0.06553
1182.30 0.06551
1182.40 0.06549
1182.50 0.06547
1182.60 0.06545
1182.70 0.06543
1182.80 0.06541
1182.90 0.06539
1183.00 0.06537
1183.10 0.06535
1183.20 0.06533
1183.30 0.06531
1183.40 0.06529
1183.50 0.06527
1183.60 0.06525
1183.70 0.06523
1183.80 0.06521
1183.90 0.06519
1184.00 0.06517
1184.10 0.06515
1184.20 0.06513
1184.30 0.06511
1184.40 0.06509
1184.50 0.06507
1184.60 0.06505
1184.70 0.06503
1184.80 0.06501
1184.90 0.06499
1185.00 0.06497
1185.10 0.06495
1185.20 0.06493
1185.30 0.06491
1185.40 0.06489
1185.50 0.06487
1185.60 0.06485
1185.70 0.06483
1185.80 0.06481
1185.90 0.06479
1186.00 0.06477
1186.10 0.06475
1186.20 0.06473
1186.30 0.06471
1186.40 0.06469
1186.50 0.06467
1186.60 0.06465
1186.70 0.06463
1186.80 0.06461
1186.90 0.06459
1187.00 0.06457
1187.10 0.06455
1187.20 0.06453
1187.30 0.06451
1187.40 0.06449
1187.50 0.06448
1187.60 0.06446
1187.70 0.06444
1187.80 0.06442
1187.90 0.0644
1188.00 0.06438
1188.10 0.06436
1188.20 0.06434
1188.30 0.06432
1188.40 0.0643
1188.50 0.06428
1188.60 0.06426
1188.70 0.06424
1188.80 0.06422
1188.90 0.0642
1189.00 0.06418
1189.10 0.06416
1189.20 0.06414
1189.30 0.06412
1189.40 0.0641
1189.50 0.06408
1189.60 0.06406
1189.70 0.06404
1189.80 0.06402
1189.90 0.064
1190.00 0.06399
1190.10 0.06397
1190.20 0.06395
1190.30 0.06393
1190.40 0.06391
1190.50 0.06389
1190.60 0.06387
1190.70 0.06385
1190.80 0.06383
1190.90 0.06381
1191.00 0.06379
1191.10 0.06377
1191.20 0.06375
1191.30 0.06373
1191.40 0.06371
1191.50 0.06369
1191.60 0.06367
1191.70 0.06365
1191.80 0.06363
1191.90 0.06362
1192.00 0.0636
1192.10 0.06358
1192.20 0.06356
1192.30 0.06354
1192.40 0.06352
1192.50 0.0635
1192.60 0.06348
1192.70 0.06346
1192.80 0.06344
1192.90 0.06342
1193.00 0.0634
1193.10 0.06338
1193.20 0.06336
1193.30 0.06334
1193.40 0.06333
1193.50 0.06331
1193.60 0.06329
1193.70 0.06327
1193.80 0.06325
1193.90 0.06323
1194.00 0.06321
1194.10 0.06319
1194.20 0.06317
1194.30 0.06315
1194.40 0.06313
1194.50 0.06311
1194.60 0.06309
1194.70 0.06307
1194.80 0.06306
1194.90 0.06304
1195.00 0.06302
1195.10 0.063
1195.20 0.06298
1195.30 0.06296
1195.40 0.06294
1195.50 0.06292
1195.60 0.0629
1195.70 0.06288
1195.80 0.06286
1195.90 0.06284
1196.00 0.06283
1196.10 0.06281
1196.20 0.06279
1196.30 0.06277
1196.40 0.06275
1196.50 0.06273
1196.60 0.06271
1196.70 0.06269
1196.80 0.06267
1196.90 0.06265
1197.00 0.06263
1197.10 0.06262
1197.20 0.0626
1197.30 0.06258
1197.40 0.06256
1197.50 0.06254
1197.60 0.06252
1197.70 0.0625
1197.80 0.06248
1197.90 0.06246
1198.00 0.06244
1198.10 0.06243
1198.20 0.06241
1198.30 0.06239
1198.40 0.06237
1198.50 0.06235
1198.60 0.06233
1198.70 0.06231
1198.80 0.06229
1198.90 0.06227
1199.00 0.06225
1199.10 0.06224
1199.20 0.06222
1199.30 0.0622
1199.40 0.06218
1199.50 0.06216
1199.60 0.06214
1199.70 0.06212
1199.80 0.0621
1199.90 0.06208
1200.00 0
