# Version 2.1 - nm, norm@500 to 1, cut digits, bergeron_12500_90.dat_12500
# Wavelength(nm)  Flambda(ergs/cm^s/s/nm)
300.00 2.261
300.10 2.26
300.20 2.258
300.30 2.257
300.40 2.256
300.50 2.254
300.60 2.253
300.70 2.251
300.80 2.25
300.90 2.249
301.00 2.247
301.10 2.246
301.20 2.244
301.30 2.243
301.40 2.242
301.50 2.24
301.60 2.239
301.70 2.238
301.80 2.236
301.90 2.235
302.00 2.233
302.10 2.232
302.20 2.231
302.30 2.229
302.40 2.228
302.50 2.226
302.60 2.225
302.70 2.224
302.80 2.222
302.90 2.221
303.00 2.22
303.10 2.218
303.20 2.217
303.30 2.215
303.40 2.214
303.50 2.213
303.60 2.211
303.70 2.21
303.80 2.209
303.90 2.207
304.00 2.206
304.10 2.205
304.20 2.203
304.30 2.202
304.40 2.2
304.50 2.199
304.60 2.198
304.70 2.196
304.80 2.195
304.90 2.194
305.00 2.192
305.10 2.191
305.20 2.19
305.30 2.188
305.40 2.187
305.50 2.185
305.60 2.184
305.70 2.183
305.80 2.181
305.90 2.18
306.00 2.179
306.10 2.177
306.20 2.176
306.30 2.175
306.40 2.173
306.50 2.172
306.60 2.171
306.70 2.169
306.80 2.168
306.90 2.167
307.00 2.165
307.10 2.164
307.20 2.163
307.30 2.161
307.40 2.16
307.50 2.159
307.60 2.157
307.70 2.156
307.80 2.155
307.90 2.153
308.00 2.152
308.10 2.151
308.20 2.149
308.30 2.148
308.40 2.147
308.50 2.145
308.60 2.144
308.70 2.143
308.80 2.141
308.90 2.14
309.00 2.139
309.10 2.137
309.20 2.136
309.30 2.135
309.40 2.133
309.50 2.132
309.60 2.131
309.70 2.129
309.80 2.128
309.90 2.127
310.00 2.125
310.10 2.124
310.20 2.123
310.30 2.121
310.40 2.12
310.50 2.119
310.60 2.117
310.70 2.116
310.80 2.115
310.90 2.114
311.00 2.112
311.10 2.111
311.20 2.11
311.30 2.108
311.40 2.107
311.50 2.106
311.60 2.104
311.70 2.103
311.80 2.102
311.90 2.1
312.00 2.099
312.10 2.098
312.20 2.097
312.30 2.095
312.40 2.094
312.50 2.093
312.60 2.091
312.70 2.09
312.80 2.089
312.90 2.087
313.00 2.086
313.10 2.085
313.20 2.084
313.30 2.082
313.40 2.081
313.50 2.08
313.60 2.078
313.70 2.077
313.80 2.076
313.90 2.075
314.00 2.073
314.10 2.072
314.20 2.071
314.30 2.069
314.40 2.068
314.50 2.067
314.60 2.066
314.70 2.064
314.80 2.063
314.90 2.062
315.00 2.06
315.10 2.059
315.20 2.058
315.30 2.057
315.40 2.055
315.50 2.054
315.60 2.053
315.70 2.052
315.80 2.05
315.90 2.049
316.00 2.048
316.10 2.046
316.20 2.045
316.30 2.044
316.40 2.043
316.50 2.041
316.60 2.04
316.70 2.039
316.80 2.038
316.90 2.036
317.00 2.035
317.10 2.034
317.20 2.033
317.30 2.031
317.40 2.03
317.50 2.029
317.60 2.028
317.70 2.026
317.80 2.025
317.90 2.024
318.00 2.023
318.10 2.021
318.20 2.02
318.30 2.019
318.40 2.018
318.50 2.016
318.60 2.015
318.70 2.014
318.80 2.013
318.90 2.011
319.00 2.01
319.10 2.009
319.20 2.008
319.30 2.006
319.40 2.005
319.50 2.004
319.60 2.003
319.70 2.001
319.80 2
319.90 1.999
320.00 1.998
320.10 1.996
320.20 1.995
320.30 1.994
320.40 1.993
320.50 1.991
320.60 1.99
320.70 1.989
320.80 1.988
320.90 1.987
321.00 1.985
321.10 1.984
321.20 1.983
321.30 1.982
321.40 1.98
321.50 1.979
321.60 1.978
321.70 1.977
321.80 1.976
321.90 1.974
322.00 1.973
322.10 1.972
322.20 1.971
322.30 1.969
322.40 1.968
322.50 1.967
322.60 1.966
322.70 1.965
322.80 1.963
322.90 1.962
323.00 1.961
323.10 1.96
323.20 1.958
323.30 1.957
323.40 1.956
323.50 1.955
323.60 1.954
323.70 1.952
323.80 1.951
323.90 1.95
324.00 1.949
324.10 1.948
324.20 1.946
324.30 1.945
324.40 1.944
324.50 1.943
324.60 1.942
324.70 1.94
324.80 1.939
324.90 1.938
325.00 1.937
325.10 1.936
325.20 1.934
325.30 1.933
325.40 1.932
325.50 1.931
325.60 1.93
325.70 1.928
325.80 1.927
325.90 1.926
326.00 1.925
326.10 1.924
326.20 1.922
326.30 1.921
326.40 1.92
326.50 1.919
326.60 1.918
326.70 1.917
326.80 1.915
326.90 1.914
327.00 1.913
327.10 1.912
327.20 1.911
327.30 1.909
327.40 1.908
327.50 1.907
327.60 1.906
327.70 1.905
327.80 1.904
327.90 1.902
328.00 1.901
328.10 1.9
328.20 1.899
328.30 1.898
328.40 1.897
328.50 1.895
328.60 1.894
328.70 1.893
328.80 1.892
328.90 1.891
329.00 1.889
329.10 1.888
329.20 1.887
329.30 1.886
329.40 1.885
329.50 1.884
329.60 1.882
329.70 1.881
329.80 1.88
329.90 1.879
330.00 1.878
330.10 1.877
330.20 1.876
330.30 1.874
330.40 1.873
330.50 1.872
330.60 1.871
330.70 1.87
330.80 1.869
330.90 1.867
331.00 1.866
331.10 1.865
331.20 1.864
331.30 1.863
331.40 1.862
331.50 1.861
331.60 1.859
331.70 1.858
331.80 1.857
331.90 1.856
332.00 1.855
332.10 1.854
332.20 1.853
332.30 1.851
332.40 1.85
332.50 1.849
332.60 1.848
332.70 1.847
332.80 1.846
332.90 1.845
333.00 1.843
333.10 1.842
333.20 1.841
333.30 1.84
333.40 1.839
333.50 1.838
333.60 1.837
333.70 1.835
333.80 1.834
333.90 1.833
334.00 1.832
334.10 1.831
334.20 1.83
334.30 1.829
334.40 1.828
334.50 1.826
334.60 1.825
334.70 1.824
334.80 1.823
334.90 1.822
335.00 1.821
335.10 1.82
335.20 1.819
335.30 1.817
335.40 1.816
335.50 1.815
335.60 1.814
335.70 1.813
335.80 1.812
335.90 1.811
336.00 1.81
336.10 1.809
336.20 1.807
336.30 1.806
336.40 1.805
336.50 1.804
336.60 1.803
336.70 1.802
336.80 1.801
336.90 1.8
337.00 1.799
337.10 1.797
337.20 1.796
337.30 1.795
337.40 1.794
337.50 1.793
337.60 1.792
337.70 1.791
337.80 1.79
337.90 1.789
338.00 1.788
338.10 1.786
338.20 1.785
338.30 1.784
338.40 1.783
338.50 1.782
338.60 1.781
338.70 1.78
338.80 1.779
338.90 1.778
339.00 1.777
339.10 1.775
339.20 1.774
339.30 1.773
339.40 1.772
339.50 1.771
339.60 1.77
339.70 1.769
339.80 1.768
339.90 1.767
340.00 1.766
340.10 1.765
340.20 1.763
340.30 1.762
340.40 1.761
340.50 1.76
340.60 1.759
340.70 1.758
340.80 1.757
340.90 1.756
341.00 1.755
341.10 1.754
341.20 1.753
341.30 1.752
341.40 1.751
341.50 1.749
341.60 1.748
341.70 1.747
341.80 1.746
341.90 1.745
342.00 1.744
342.10 1.743
342.20 1.742
342.30 1.741
342.40 1.74
342.50 1.739
342.60 1.738
342.70 1.737
342.80 1.736
342.90 1.734
343.00 1.733
343.10 1.732
343.20 1.731
343.30 1.73
343.40 1.729
343.50 1.728
343.60 1.727
343.70 1.726
343.80 1.725
343.90 1.724
344.00 1.723
344.10 1.722
344.20 1.721
344.30 1.72
344.40 1.719
344.50 1.718
344.60 1.716
344.70 1.715
344.80 1.714
344.90 1.713
345.00 1.712
345.10 1.711
345.20 1.71
345.30 1.709
345.40 1.708
345.50 1.707
345.60 1.706
345.70 1.705
345.80 1.704
345.90 1.703
346.00 1.702
346.10 1.701
346.20 1.7
346.30 1.699
346.40 1.698
346.50 1.697
346.60 1.696
346.70 1.695
346.80 1.694
346.90 1.692
347.00 1.691
347.10 1.69
347.20 1.689
347.30 1.688
347.40 1.687
347.50 1.686
347.60 1.685
347.70 1.684
347.80 1.683
347.90 1.682
348.00 1.681
348.10 1.68
348.20 1.679
348.30 1.678
348.40 1.677
348.50 1.676
348.60 1.675
348.70 1.674
348.80 1.673
348.90 1.672
349.00 1.671
349.10 1.67
349.20 1.669
349.30 1.668
349.40 1.667
349.50 1.666
349.60 1.665
349.70 1.664
349.80 1.663
349.90 1.662
350.00 1.661
350.10 1.66
350.20 1.659
350.30 1.658
350.40 1.657
350.50 1.656
350.60 1.655
350.70 1.654
350.80 1.653
350.90 1.652
351.00 1.651
351.10 1.65
351.20 1.649
351.30 1.648
351.40 1.647
351.50 1.646
351.60 1.645
351.70 1.644
351.80 1.643
351.90 1.642
352.00 1.641
352.10 1.64
352.20 1.639
352.30 1.638
352.40 1.637
352.50 1.636
352.60 1.635
352.70 1.634
352.80 1.633
352.90 1.632
353.00 1.631
353.10 1.63
353.20 1.629
353.30 1.628
353.40 1.627
353.50 1.626
353.60 1.625
353.70 1.624
353.80 1.623
353.90 1.622
354.00 1.621
354.10 1.62
354.20 1.619
354.30 1.618
354.40 1.617
354.50 1.616
354.60 1.615
354.70 1.614
354.80 1.613
354.90 1.612
355.00 1.611
355.10 1.61
355.20 1.609
355.30 1.608
355.40 1.607
355.50 1.606
355.60 1.605
355.70 1.604
355.80 1.603
355.90 1.602
356.00 1.601
356.10 1.6
356.20 1.599
356.30 1.598
356.40 1.597
356.50 1.596
356.60 1.595
356.70 1.594
356.80 1.593
356.90 1.592
357.00 1.591
357.10 1.59
357.20 1.589
357.30 1.588
357.40 1.587
357.50 1.586
357.60 1.586
357.70 1.585
357.80 1.584
357.90 1.583
358.00 1.582
358.10 1.581
358.20 1.58
358.30 1.579
358.40 1.578
358.50 1.577
358.60 1.576
358.70 1.575
358.80 1.574
358.90 1.573
359.00 1.572
359.10 1.571
359.20 1.57
359.30 1.569
359.40 1.568
359.50 1.567
359.60 1.566
359.70 1.565
359.80 1.564
359.90 1.564
360.00 1.563
360.10 1.562
360.20 1.561
360.30 1.56
360.40 1.559
360.50 1.558
360.60 1.557
360.70 1.556
360.80 1.555
360.90 1.554
361.00 1.553
361.10 1.552
361.20 1.551
361.30 1.55
361.40 1.549
361.50 1.548
361.60 1.547
361.70 1.547
361.80 1.546
361.90 1.545
362.00 1.544
362.10 1.543
362.20 1.542
362.30 1.541
362.40 1.54
362.50 1.539
362.60 1.538
362.70 1.537
362.80 1.536
362.90 1.535
363.00 1.534
363.10 1.533
363.20 1.532
363.30 1.531
363.40 1.53
363.50 1.529
363.60 1.528
363.70 1.527
363.80 1.526
363.90 1.525
364.00 1.524
364.10 1.522
364.20 1.521
364.30 1.52
364.40 1.519
364.50 1.518
364.60 1.517
364.70 1.516
364.80 1.515
364.90 1.514
365.00 1.512
365.10 1.511
365.20 1.51
365.30 1.509
365.40 1.508
365.50 1.507
365.60 1.506
365.70 1.505
365.80 1.504
365.90 1.502
366.00 1.501
366.10 1.5
366.20 1.499
366.30 1.498
366.40 1.497
366.50 1.496
366.60 1.496
366.70 1.495
366.80 1.494
366.90 1.493
367.00 1.492
367.10 1.491
367.20 1.49
367.30 1.489
367.40 1.488
367.50 1.487
367.60 1.486
367.70 1.485
367.80 1.484
367.90 1.483
368.00 1.482
368.10 1.481
368.20 1.48
368.30 1.479
368.40 1.478
368.50 1.477
368.60 1.476
368.70 1.475
368.80 1.475
368.90 1.474
369.00 1.473
369.10 1.472
369.20 1.471
369.30 1.47
369.40 1.469
369.50 1.468
369.60 1.467
369.70 1.466
369.80 1.465
369.90 1.464
370.00 1.463
370.10 1.462
370.20 1.462
370.30 1.461
370.40 1.46
370.50 1.459
370.60 1.458
370.70 1.457
370.80 1.457
370.90 1.456
371.00 1.455
371.10 1.454
371.20 1.453
371.30 1.453
371.40 1.452
371.50 1.451
371.60 1.45
371.70 1.449
371.80 1.448
371.90 1.448
372.00 1.447
372.10 1.446
372.20 1.446
372.30 1.445
372.40 1.445
372.50 1.444
372.60 1.443
372.70 1.443
372.80 1.442
372.90 1.442
373.00 1.441
373.10 1.441
373.20 1.44
373.30 1.44
373.40 1.439
373.50 1.438
373.60 1.438
373.70 1.437
373.80 1.437
373.90 1.436
374.00 1.436
374.10 1.435
374.20 1.435
374.30 1.435
374.40 1.434
374.50 1.434
374.60 1.434
374.70 1.433
374.80 1.433
374.90 1.432
375.00 1.432
375.10 1.432
375.20 1.431
375.30 1.431
375.40 1.431
375.50 1.43
375.60 1.43
375.70 1.43
375.80 1.429
375.90 1.429
376.00 1.429
376.10 1.428
376.20 1.428
376.30 1.427
376.40 1.427
376.50 1.427
376.60 1.426
376.70 1.426
376.80 1.425
376.90 1.425
377.00 1.425
377.10 1.424
377.20 1.423
377.30 1.422
377.40 1.422
377.50 1.421
377.60 1.42
377.70 1.419
377.80 1.419
377.90 1.418
378.00 1.417
378.10 1.415
378.20 1.413
378.30 1.411
378.40 1.409
378.50 1.407
378.60 1.406
378.70 1.404
378.80 1.402
378.90 1.4
379.00 1.398
379.10 1.397
379.20 1.395
379.30 1.394
379.40 1.393
379.50 1.391
379.60 1.39
379.70 1.389
379.80 1.388
379.90 1.386
380.00 1.385
380.10 1.386
380.20 1.387
380.30 1.388
380.40 1.389
380.50 1.391
380.60 1.392
380.70 1.393
380.80 1.394
380.90 1.395
381.00 1.396
381.10 1.396
381.20 1.396
381.30 1.396
381.40 1.396
381.50 1.397
381.60 1.396
381.70 1.395
381.80 1.394
381.90 1.392
382.00 1.39
382.10 1.388
382.20 1.386
382.30 1.381
382.40 1.377
382.50 1.372
382.60 1.368
382.70 1.364
382.80 1.359
382.90 1.355
383.00 1.351
383.10 1.346
383.20 1.342
383.30 1.339
383.40 1.336
383.50 1.333
383.60 1.333
383.70 1.337
383.80 1.34
383.90 1.343
384.00 1.347
384.10 1.352
384.20 1.357
384.30 1.363
384.40 1.368
384.50 1.372
384.60 1.377
384.70 1.38
384.80 1.383
384.90 1.386
385.00 1.388
385.10 1.39
385.20 1.392
385.30 1.393
385.40 1.394
385.50 1.394
385.60 1.394
385.70 1.394
385.80 1.394
385.90 1.393
386.00 1.393
386.10 1.391
386.20 1.39
386.30 1.388
386.40 1.386
386.50 1.384
386.60 1.381
386.70 1.379
386.80 1.375
386.90 1.372
387.00 1.368
387.10 1.364
387.20 1.359
387.30 1.354
387.40 1.349
387.50 1.343
387.60 1.337
387.70 1.331
387.80 1.323
387.90 1.315
388.00 1.306
388.10 1.296
388.20 1.285
388.30 1.273
388.40 1.261
388.50 1.249
388.60 1.239
388.70 1.233
388.80 1.227
388.90 1.223
389.00 1.227
389.10 1.232
389.20 1.239
389.30 1.249
389.40 1.26
389.50 1.273
389.60 1.285
389.70 1.296
389.80 1.307
389.90 1.316
390.00 1.325
390.10 1.333
390.20 1.34
390.30 1.346
390.40 1.353
390.50 1.358
390.60 1.364
390.70 1.369
390.80 1.373
390.90 1.378
391.00 1.382
391.10 1.385
391.20 1.389
391.30 1.392
391.40 1.395
391.50 1.397
391.60 1.399
391.70 1.401
391.80 1.403
391.90 1.404
392.00 1.405
392.10 1.406
392.20 1.406
392.30 1.407
392.40 1.406
392.50 1.406
392.60 1.405
392.70 1.404
392.80 1.403
392.90 1.401
393.00 1.399
393.10 1.397
393.20 1.394
393.30 1.391
393.40 1.388
393.50 1.385
393.60 1.381
393.70 1.376
393.80 1.372
393.90 1.367
394.00 1.362
394.10 1.356
394.20 1.35
394.30 1.344
394.40 1.337
394.50 1.33
394.60 1.322
394.70 1.314
394.80 1.306
394.90 1.297
395.00 1.288
395.10 1.278
395.20 1.268
395.30 1.258
395.40 1.247
395.50 1.235
395.60 1.223
395.70 1.21
395.80 1.197
395.90 1.183
396.00 1.169
396.10 1.154
396.20 1.137
396.30 1.118
396.40 1.099
396.50 1.075
396.60 1.051
396.70 1.026
396.80 1.008
396.90 0.9906
397.00 0.9738
397.10 0.9892
397.20 1.005
397.30 1.022
397.40 1.047
397.50 1.071
397.60 1.094
397.70 1.114
397.80 1.132
397.90 1.149
398.00 1.164
398.10 1.178
398.20 1.192
398.30 1.206
398.40 1.218
398.50 1.231
398.60 1.242
398.70 1.254
398.80 1.264
398.90 1.275
399.00 1.285
399.10 1.294
399.20 1.303
399.30 1.312
399.40 1.321
399.50 1.329
399.60 1.337
399.70 1.344
399.80 1.351
399.90 1.358
400.00 1.365
400.10 1.371
400.20 1.377
400.30 1.383
400.40 1.389
400.50 1.394
400.60 1.399
400.70 1.403
400.80 1.408
400.90 1.412
401.00 1.416
401.10 1.419
401.20 1.423
401.30 1.426
401.40 1.429
401.50 1.432
401.60 1.434
401.70 1.437
401.80 1.439
401.90 1.441
402.00 1.442
402.10 1.444
402.20 1.445
402.30 1.446
402.40 1.447
402.50 1.448
402.60 1.448
402.70 1.449
402.80 1.449
402.90 1.449
403.00 1.448
403.10 1.448
403.20 1.447
403.30 1.446
403.40 1.445
403.50 1.444
403.60 1.443
403.70 1.441
403.80 1.439
403.90 1.437
404.00 1.435
404.10 1.433
404.20 1.43
404.30 1.427
404.40 1.424
404.50 1.421
404.60 1.417
404.70 1.414
404.80 1.41
404.90 1.406
405.00 1.401
405.10 1.397
405.20 1.392
405.30 1.387
405.40 1.382
405.50 1.377
405.60 1.371
405.70 1.365
405.80 1.359
405.90 1.352
406.00 1.346
406.10 1.339
406.20 1.331
406.30 1.324
406.40 1.316
406.50 1.308
406.60 1.3
406.70 1.291
406.80 1.282
406.90 1.273
407.00 1.263
407.10 1.253
407.20 1.243
407.30 1.232
407.40 1.221
407.50 1.21
407.60 1.198
407.70 1.186
407.80 1.174
407.90 1.16
408.00 1.147
408.10 1.133
408.20 1.119
408.30 1.104
408.40 1.089
408.50 1.073
408.60 1.057
408.70 1.04
408.80 1.023
408.90 1.005
409.00 0.987
409.10 0.9683
409.20 0.9492
409.30 0.9297
409.40 0.9089
409.50 0.8871
409.60 0.8643
409.70 0.8379
409.80 0.8099
409.90 0.7803
410.00 0.7566
410.10 0.7398
410.20 0.7299
410.30 0.7467
410.40 0.7682
410.50 0.7945
410.60 0.8228
410.70 0.8491
410.80 0.8733
410.90 0.8945
411.00 0.9148
411.10 0.9342
411.20 0.9526
411.30 0.9706
411.40 0.9881
411.50 1.005
411.60 1.022
411.70 1.038
411.80 1.053
411.90 1.068
412.00 1.083
412.10 1.097
412.20 1.111
412.30 1.124
412.40 1.137
412.50 1.149
412.60 1.161
412.70 1.172
412.80 1.183
412.90 1.194
413.00 1.204
413.10 1.214
413.20 1.224
413.30 1.233
413.40 1.243
413.50 1.251
413.60 1.26
413.70 1.268
413.80 1.276
413.90 1.284
414.00 1.292
414.10 1.299
414.20 1.306
414.30 1.313
414.40 1.32
414.50 1.326
414.60 1.332
414.70 1.338
414.80 1.344
414.90 1.35
415.00 1.355
415.10 1.361
415.20 1.366
415.30 1.371
415.40 1.376
415.50 1.38
415.60 1.385
415.70 1.389
415.80 1.394
415.90 1.398
416.00 1.402
416.10 1.406
416.20 1.409
416.30 1.413
416.40 1.416
416.50 1.42
416.60 1.423
416.70 1.426
416.80 1.429
416.90 1.432
417.00 1.435
417.10 1.438
417.20 1.44
417.30 1.443
417.40 1.445
417.50 1.448
417.60 1.45
417.70 1.452
417.80 1.454
417.90 1.456
418.00 1.458
418.10 1.46
418.20 1.461
418.30 1.463
418.40 1.464
418.50 1.466
418.60 1.467
418.70 1.468
418.80 1.47
418.90 1.471
419.00 1.472
419.10 1.473
419.20 1.474
419.30 1.475
419.40 1.475
419.50 1.476
419.60 1.477
419.70 1.477
419.80 1.478
419.90 1.478
420.00 1.479
420.10 1.479
420.20 1.479
420.30 1.479
420.40 1.48
420.50 1.48
420.60 1.48
420.70 1.479
420.80 1.479
420.90 1.479
421.00 1.479
421.10 1.478
421.20 1.478
421.30 1.478
421.40 1.477
421.50 1.477
421.60 1.476
421.70 1.475
421.80 1.475
421.90 1.474
422.00 1.473
422.10 1.472
422.20 1.471
422.30 1.47
422.40 1.469
422.50 1.468
422.60 1.467
422.70 1.465
422.80 1.464
422.90 1.463
423.00 1.461
423.10 1.46
423.20 1.458
423.30 1.456
423.40 1.455
423.50 1.453
423.60 1.451
423.70 1.449
423.80 1.447
423.90 1.445
424.00 1.443
424.10 1.441
424.20 1.439
424.30 1.437
424.40 1.434
424.50 1.432
424.60 1.429
424.70 1.427
424.80 1.424
424.90 1.422
425.00 1.419
425.10 1.416
425.20 1.413
425.30 1.41
425.40 1.407
425.50 1.404
425.60 1.401
425.70 1.398
425.80 1.394
425.90 1.391
426.00 1.387
426.10 1.384
426.20 1.379
426.30 1.375
426.40 1.372
426.50 1.368
426.60 1.364
426.70 1.36
426.80 1.355
426.90 1.351
427.00 1.347
427.10 1.342
427.20 1.338
427.30 1.333
427.40 1.328
427.50 1.324
427.60 1.319
427.70 1.314
427.80 1.309
427.90 1.303
428.00 1.298
428.10 1.292
428.20 1.287
428.30 1.281
428.40 1.275
428.50 1.269
428.60 1.263
428.70 1.257
428.80 1.25
428.90 1.244
429.00 1.237
429.10 1.231
429.20 1.224
429.30 1.216
429.40 1.209
429.50 1.202
429.60 1.194
429.70 1.186
429.80 1.179
429.90 1.17
430.00 1.162
430.10 1.154
430.20 1.145
430.30 1.136
430.40 1.127
430.50 1.118
430.60 1.109
430.70 1.099
430.80 1.089
430.90 1.079
431.00 1.069
431.10 1.058
431.20 1.047
431.30 1.036
431.40 1.025
431.50 1.013
431.60 1.001
431.70 0.9885
431.80 0.9758
431.90 0.9624
432.00 0.9488
432.10 0.9348
432.20 0.92
432.30 0.9049
432.40 0.8893
432.50 0.8728
432.60 0.8559
432.70 0.8384
432.80 0.8202
432.90 0.8019
433.00 0.7834
433.10 0.7652
433.20 0.7472
433.30 0.7294
433.40 0.7116
433.50 0.6929
433.60 0.6733
433.70 0.6484
433.80 0.6193
433.90 0.586
434.00 0.5458
434.10 0.5466
434.20 0.5883
434.30 0.6207
434.40 0.6489
434.50 0.6729
434.60 0.6917
434.70 0.7097
434.80 0.7269
434.90 0.7439
435.00 0.7612
435.10 0.7787
435.20 0.7963
435.30 0.8138
435.40 0.831
435.50 0.8475
435.60 0.8634
435.70 0.8788
435.80 0.8933
435.90 0.9074
436.00 0.921
436.10 0.9339
436.20 0.9463
436.30 0.9585
436.40 0.97
436.50 0.9812
436.60 0.9922
436.70 1.003
436.80 1.013
436.90 1.023
437.00 1.032
437.10 1.042
437.20 1.051
437.30 1.059
437.40 1.068
437.50 1.076
437.60 1.084
437.70 1.092
437.80 1.1
437.90 1.107
438.00 1.114
438.10 1.121
438.20 1.128
438.30 1.135
438.40 1.142
438.50 1.148
438.60 1.154
438.70 1.16
438.80 1.166
438.90 1.172
439.00 1.177
439.10 1.182
439.20 1.188
439.30 1.193
439.40 1.198
439.50 1.203
439.60 1.207
439.70 1.212
439.80 1.216
439.90 1.221
440.00 1.225
440.10 1.229
440.20 1.233
440.30 1.237
440.40 1.241
440.50 1.245
440.60 1.248
440.70 1.252
440.80 1.255
440.90 1.258
441.00 1.262
441.10 1.265
441.20 1.268
441.30 1.271
441.40 1.274
441.50 1.276
441.60 1.279
441.70 1.282
441.80 1.284
441.90 1.287
442.00 1.289
442.10 1.292
442.20 1.294
442.30 1.296
442.40 1.299
442.50 1.301
442.60 1.303
442.70 1.305
442.80 1.307
442.90 1.308
443.00 1.31
443.10 1.312
443.20 1.314
443.30 1.315
443.40 1.317
443.50 1.319
443.60 1.32
443.70 1.322
443.80 1.323
443.90 1.325
444.00 1.326
444.10 1.327
444.20 1.328
444.30 1.33
444.40 1.331
444.50 1.332
444.60 1.333
444.70 1.334
444.80 1.335
444.90 1.336
445.00 1.337
445.10 1.338
445.20 1.339
445.30 1.34
445.40 1.34
445.50 1.341
445.60 1.342
445.70 1.343
445.80 1.343
445.90 1.344
446.00 1.345
446.10 1.345
446.20 1.346
446.30 1.346
446.40 1.347
446.50 1.348
446.60 1.348
446.70 1.348
446.80 1.349
446.90 1.349
447.00 1.35
447.10 1.35
447.20 1.35
447.30 1.351
447.40 1.351
447.50 1.351
447.60 1.351
447.70 1.352
447.80 1.352
447.90 1.352
448.00 1.352
448.10 1.352
448.20 1.352
448.30 1.352
448.40 1.353
448.50 1.353
448.60 1.353
448.70 1.353
448.80 1.353
448.90 1.353
449.00 1.353
449.10 1.353
449.20 1.353
449.30 1.353
449.40 1.353
449.50 1.353
449.60 1.353
449.70 1.352
449.80 1.352
449.90 1.352
450.00 1.352
450.10 1.352
450.20 1.352
450.30 1.351
450.40 1.351
450.50 1.351
450.60 1.351
450.70 1.351
450.80 1.35
450.90 1.35
451.00 1.35
451.10 1.35
451.20 1.349
451.30 1.349
451.40 1.349
451.50 1.348
451.60 1.348
451.70 1.348
451.80 1.347
451.90 1.347
452.00 1.347
452.10 1.346
452.20 1.346
452.30 1.346
452.40 1.345
452.50 1.345
452.60 1.344
452.70 1.344
452.80 1.343
452.90 1.343
453.00 1.343
453.10 1.342
453.20 1.342
453.30 1.341
453.40 1.341
453.50 1.34
453.60 1.34
453.70 1.339
453.80 1.339
453.90 1.338
454.00 1.338
454.10 1.337
454.20 1.337
454.30 1.336
454.40 1.336
454.50 1.335
454.60 1.335
454.70 1.334
454.80 1.333
454.90 1.333
455.00 1.332
455.10 1.332
455.20 1.331
455.30 1.33
455.40 1.33
455.50 1.329
455.60 1.329
455.70 1.328
455.80 1.327
455.90 1.327
456.00 1.326
456.10 1.325
456.20 1.325
456.30 1.324
456.40 1.324
456.50 1.323
456.60 1.322
456.70 1.322
456.80 1.321
456.90 1.32
457.00 1.32
457.10 1.319
457.20 1.319
457.30 1.318
457.40 1.317
457.50 1.317
457.60 1.316
457.70 1.315
457.80 1.314
457.90 1.314
458.00 1.313
458.10 1.312
458.20 1.312
458.30 1.311
458.40 1.31
458.50 1.309
458.60 1.309
458.70 1.308
458.80 1.307
458.90 1.306
459.00 1.305
459.10 1.305
459.20 1.304
459.30 1.303
459.40 1.302
459.50 1.302
459.60 1.301
459.70 1.3
459.80 1.299
459.90 1.298
460.00 1.298
460.10 1.297
460.20 1.296
460.30 1.295
460.40 1.294
460.50 1.293
460.60 1.293
460.70 1.292
460.80 1.291
460.90 1.29
461.00 1.289
461.10 1.288
461.20 1.287
461.30 1.287
461.40 1.286
461.50 1.285
461.60 1.284
461.70 1.283
461.80 1.282
461.90 1.281
462.00 1.28
462.10 1.279
462.20 1.279
462.30 1.278
462.40 1.277
462.50 1.276
462.60 1.275
462.70 1.274
462.80 1.273
462.90 1.272
463.00 1.271
463.10 1.27
463.20 1.269
463.30 1.268
463.40 1.267
463.50 1.266
463.60 1.265
463.70 1.264
463.80 1.263
463.90 1.262
464.00 1.261
464.10 1.261
464.20 1.26
464.30 1.258
464.40 1.257
464.50 1.256
464.60 1.255
464.70 1.254
464.80 1.253
464.90 1.252
465.00 1.251
465.10 1.25
465.20 1.249
465.30 1.248
465.40 1.247
465.50 1.246
465.60 1.245
465.70 1.244
465.80 1.243
465.90 1.242
466.00 1.241
466.10 1.24
466.20 1.238
466.30 1.237
466.40 1.236
466.50 1.235
466.60 1.234
466.70 1.233
466.80 1.232
466.90 1.231
467.00 1.229
467.10 1.228
467.20 1.227
467.30 1.226
467.40 1.225
467.50 1.223
467.60 1.222
467.70 1.221
467.80 1.22
467.90 1.219
468.00 1.217
468.10 1.216
468.20 1.215
468.30 1.214
468.40 1.212
468.50 1.211
468.60 1.21
468.70 1.209
468.80 1.207
468.90 1.206
469.00 1.205
469.10 1.204
469.20 1.202
469.30 1.201
469.40 1.199
469.50 1.198
469.60 1.197
469.70 1.195
469.80 1.194
469.90 1.193
470.00 1.191
470.10 1.19
470.20 1.188
470.30 1.187
470.40 1.186
470.50 1.184
470.60 1.183
470.70 1.181
470.80 1.18
470.90 1.179
471.00 1.177
471.10 1.176
471.20 1.174
471.30 1.173
471.40 1.171
471.50 1.169
471.60 1.168
471.70 1.166
471.80 1.165
471.90 1.163
472.00 1.161
472.10 1.16
472.20 1.158
472.30 1.156
472.40 1.155
472.50 1.153
472.60 1.151
472.70 1.15
472.80 1.148
472.90 1.146
473.00 1.144
473.10 1.143
473.20 1.141
473.30 1.139
473.40 1.137
473.50 1.135
473.60 1.133
473.70 1.131
473.80 1.129
473.90 1.128
474.00 1.126
474.10 1.124
474.20 1.122
474.30 1.12
474.40 1.118
474.50 1.115
474.60 1.113
474.70 1.111
474.80 1.109
474.90 1.107
475.00 1.105
475.10 1.103
475.20 1.101
475.30 1.098
475.40 1.096
475.50 1.094
475.60 1.091
475.70 1.089
475.80 1.087
475.90 1.084
476.00 1.082
476.10 1.08
476.20 1.077
476.30 1.074
476.40 1.072
476.50 1.069
476.60 1.067
476.70 1.064
476.80 1.061
476.90 1.059
477.00 1.056
477.10 1.054
477.20 1.051
477.30 1.048
477.40 1.045
477.50 1.042
477.60 1.039
477.70 1.036
477.80 1.033
477.90 1.03
478.00 1.027
478.10 1.024
478.20 1.021
478.30 1.018
478.40 1.014
478.50 1.011
478.60 1.008
478.70 1.004
478.80 1.001
478.90 0.9975
479.00 0.9942
479.10 0.9909
479.20 0.9872
479.30 0.9833
479.40 0.9794
479.50 0.9755
479.60 0.9717
479.70 0.9678
479.80 0.9639
479.90 0.9601
480.00 0.9562
480.10 0.9524
480.20 0.9481
480.30 0.9435
480.40 0.939
480.50 0.9345
480.60 0.93
480.70 0.9254
480.80 0.9209
480.90 0.9164
481.00 0.9119
481.10 0.9074
481.20 0.9023
481.30 0.897
481.40 0.8916
481.50 0.8863
481.60 0.8809
481.70 0.8756
481.80 0.8702
481.90 0.8649
482.00 0.8596
482.10 0.8543
482.20 0.8481
482.30 0.8416
482.40 0.8351
482.50 0.8285
482.60 0.822
482.70 0.8155
482.80 0.809
482.90 0.8025
483.00 0.796
483.10 0.7895
483.20 0.7816
483.30 0.773
483.40 0.7644
483.50 0.7558
483.60 0.7472
483.70 0.7386
483.80 0.73
483.90 0.7214
484.00 0.7128
484.10 0.7043
484.20 0.694
484.30 0.683
484.40 0.672
484.50 0.661
484.60 0.65
484.70 0.638
484.80 0.6255
484.90 0.613
485.00 0.6006
485.10 0.5881
485.20 0.5759
485.30 0.5638
485.40 0.5518
485.50 0.5399
485.60 0.5274
485.70 0.5146
485.80 0.4976
485.90 0.4786
486.00 0.4491
486.10 0.3954
486.20 0.4139
486.30 0.4614
486.40 0.4838
486.50 0.5027
486.60 0.5172
486.70 0.5295
486.80 0.5412
486.90 0.5526
487.00 0.5642
487.10 0.5758
487.20 0.5875
487.30 0.5993
487.40 0.6111
487.50 0.6229
487.60 0.6347
487.70 0.6455
487.80 0.6557
487.90 0.666
488.00 0.6762
488.10 0.6865
488.20 0.695
488.30 0.7028
488.40 0.7105
488.50 0.7182
488.60 0.7259
488.70 0.7337
488.80 0.7414
488.90 0.7491
489.00 0.7568
489.10 0.7644
489.20 0.7707
489.30 0.7762
489.40 0.7817
489.50 0.7872
489.60 0.7928
489.70 0.7983
489.80 0.8038
489.90 0.8093
490.00 0.8148
490.10 0.8203
490.20 0.8249
490.30 0.8292
490.40 0.8334
490.50 0.8377
490.60 0.842
490.70 0.8462
490.80 0.8505
490.90 0.8547
491.00 0.8589
491.10 0.8632
491.20 0.8668
491.30 0.8702
491.40 0.8735
491.50 0.8769
491.60 0.8802
491.70 0.8836
491.80 0.8869
491.90 0.8902
492.00 0.8936
492.10 0.8969
492.20 0.8998
492.30 0.9024
492.40 0.9051
492.50 0.9077
492.60 0.9103
492.70 0.913
492.80 0.9156
492.90 0.9182
493.00 0.9209
493.10 0.9235
493.20 0.9258
493.30 0.9279
493.40 0.93
493.50 0.9321
493.60 0.9342
493.70 0.9362
493.80 0.9383
493.90 0.9404
494.00 0.9425
494.10 0.9446
494.20 0.9464
494.30 0.948
494.40 0.9497
494.50 0.9513
494.60 0.953
494.70 0.9546
494.80 0.9563
494.90 0.9579
495.00 0.9596
495.10 0.9612
495.20 0.9626
495.30 0.9639
495.40 0.9652
495.50 0.9664
495.60 0.9677
495.70 0.969
495.80 0.9703
495.90 0.9715
496.00 0.9728
496.10 0.9741
496.20 0.9752
496.30 0.9762
496.40 0.9771
496.50 0.9781
496.60 0.9791
496.70 0.9801
496.80 0.9811
496.90 0.9821
497.00 0.983
497.10 0.984
497.20 0.9848
497.30 0.9856
497.40 0.9863
497.50 0.987
497.60 0.9878
497.70 0.9885
497.80 0.9892
497.90 0.99
498.00 0.9907
498.10 0.9914
498.20 0.992
498.30 0.9925
498.40 0.9931
498.50 0.9936
498.60 0.9941
498.70 0.9946
498.80 0.9952
498.90 0.9957
499.00 0.9962
499.10 0.9967
499.20 0.9972
499.30 0.9975
499.40 0.9979
499.50 0.9982
499.60 0.9986
499.70 0.9989
499.80 0.9993
499.90 0.9996
500.00 1
500.10 1
500.20 1.001
500.30 1.001
500.40 1.001
500.50 1.001
500.60 1.002
500.70 1.002
500.80 1.002
500.90 1.002
501.00 1.002
501.10 1.003
501.20 1.003
501.30 1.003
501.40 1.003
501.50 1.003
501.60 1.003
501.70 1.003
501.80 1.003
501.90 1.004
502.00 1.004
502.10 1.004
502.20 1.004
502.30 1.004
502.40 1.004
502.50 1.004
502.60 1.004
502.70 1.004
502.80 1.004
502.90 1.004
503.00 1.004
503.10 1.004
503.20 1.004
503.30 1.004
503.40 1.004
503.50 1.004
503.60 1.004
503.70 1.003
503.80 1.003
503.90 1.003
504.00 1.003
504.10 1.003
504.20 1.003
504.30 1.003
504.40 1.003
504.50 1.003
504.60 1.003
504.70 1.002
504.80 1.002
504.90 1.002
505.00 1.002
505.10 1.002
505.20 1.002
505.30 1.001
505.40 1.001
505.50 1.001
505.60 1.001
505.70 1.001
505.80 1.001
505.90 1
506.00 1
506.10 0.9999
506.20 0.9997
506.30 0.9994
506.40 0.9992
506.50 0.999
506.60 0.9987
506.70 0.9985
506.80 0.9982
506.90 0.998
507.00 0.9977
507.10 0.9975
507.20 0.9972
507.30 0.9969
507.40 0.9967
507.50 0.9964
507.60 0.9961
507.70 0.9958
507.80 0.9955
507.90 0.9952
508.00 0.995
508.10 0.9947
508.20 0.9944
508.30 0.9941
508.40 0.9937
508.50 0.9934
508.60 0.9931
508.70 0.9928
508.80 0.9925
508.90 0.9922
509.00 0.9918
509.10 0.9915
509.20 0.9912
509.30 0.9908
509.40 0.9905
509.50 0.9901
509.60 0.9898
509.70 0.9895
509.80 0.9891
509.90 0.9888
510.00 0.9884
510.10 0.9881
510.20 0.9877
510.30 0.9873
510.40 0.987
510.50 0.9866
510.60 0.9862
510.70 0.9859
510.80 0.9855
510.90 0.9851
511.00 0.9848
511.10 0.9844
511.20 0.984
511.30 0.9836
511.40 0.9832
511.50 0.9828
511.60 0.9824
511.70 0.982
511.80 0.9817
511.90 0.9813
512.00 0.9809
512.10 0.9805
512.20 0.9801
512.30 0.9797
512.40 0.9793
512.50 0.9789
512.60 0.9785
512.70 0.9781
512.80 0.9776
512.90 0.9772
513.00 0.9768
513.10 0.9764
513.20 0.976
513.30 0.9756
513.40 0.9752
513.50 0.9748
513.60 0.9743
513.70 0.9739
513.80 0.9735
513.90 0.9731
514.00 0.9727
514.10 0.9722
514.20 0.9718
514.30 0.9714
514.40 0.9709
514.50 0.9705
514.60 0.9701
514.70 0.9696
514.80 0.9692
514.90 0.9688
515.00 0.9683
515.10 0.9679
515.20 0.9675
515.30 0.967
515.40 0.9666
515.50 0.9662
515.60 0.9657
515.70 0.9653
515.80 0.9648
515.90 0.9644
516.00 0.964
516.10 0.9635
516.20 0.9631
516.30 0.9626
516.40 0.9622
516.50 0.9617
516.60 0.9613
516.70 0.9608
516.80 0.9604
516.90 0.9599
517.00 0.9595
517.10 0.959
517.20 0.9586
517.30 0.9581
517.40 0.9577
517.50 0.9572
517.60 0.9568
517.70 0.9563
517.80 0.9559
517.90 0.9554
518.00 0.9549
518.10 0.9545
518.20 0.954
518.30 0.9536
518.40 0.9531
518.50 0.9527
518.60 0.9522
518.70 0.9517
518.80 0.9513
518.90 0.9508
519.00 0.9504
519.10 0.9499
519.20 0.9494
519.30 0.949
519.40 0.9485
519.50 0.948
519.60 0.9476
519.70 0.9471
519.80 0.9466
519.90 0.9462
520.00 0.9457
520.10 0.9453
520.20 0.9448
520.30 0.9443
520.40 0.9439
520.50 0.9434
520.60 0.9429
520.70 0.9425
520.80 0.942
520.90 0.9415
521.00 0.9411
521.10 0.9406
521.20 0.9401
521.30 0.9396
521.40 0.9392
521.50 0.9387
521.60 0.9382
521.70 0.9378
521.80 0.9373
521.90 0.9368
522.00 0.9363
522.10 0.9359
522.20 0.9354
522.30 0.9349
522.40 0.9345
522.50 0.934
522.60 0.9335
522.70 0.933
522.80 0.9326
522.90 0.9321
523.00 0.9316
523.10 0.9312
523.20 0.9307
523.30 0.9302
523.40 0.9297
523.50 0.9293
523.60 0.9288
523.70 0.9283
523.80 0.9278
523.90 0.9274
524.00 0.9269
524.10 0.9264
524.20 0.9259
524.30 0.9255
524.40 0.925
524.50 0.9245
524.60 0.924
524.70 0.9236
524.80 0.9231
524.90 0.9226
525.00 0.9221
525.10 0.9217
525.20 0.9212
525.30 0.9207
525.40 0.9202
525.50 0.9198
525.60 0.9193
525.70 0.9188
525.80 0.9183
525.90 0.9179
526.00 0.9174
526.10 0.9169
526.20 0.9164
526.30 0.916
526.40 0.9155
526.50 0.915
526.60 0.9145
526.70 0.914
526.80 0.9136
526.90 0.9131
527.00 0.9126
527.10 0.9121
527.20 0.9117
527.30 0.9112
527.40 0.9107
527.50 0.9102
527.60 0.9098
527.70 0.9093
527.80 0.9088
527.90 0.9083
528.00 0.9079
528.10 0.9074
528.20 0.9069
528.30 0.9064
528.40 0.906
528.50 0.9055
528.60 0.905
528.70 0.9045
528.80 0.9041
528.90 0.9036
529.00 0.9031
529.10 0.9026
529.20 0.9022
529.30 0.9017
529.40 0.9012
529.50 0.9007
529.60 0.9003
529.70 0.8998
529.80 0.8993
529.90 0.8988
530.00 0.8984
530.10 0.8979
530.20 0.8974
530.30 0.8969
530.40 0.8965
530.50 0.896
530.60 0.8955
530.70 0.895
530.80 0.8946
530.90 0.8941
531.00 0.8936
531.10 0.8932
531.20 0.8927
531.30 0.8922
531.40 0.8917
531.50 0.8913
531.60 0.8908
531.70 0.8903
531.80 0.8898
531.90 0.8894
532.00 0.8889
532.10 0.8884
532.20 0.888
532.30 0.8875
532.40 0.887
532.50 0.8865
532.60 0.8861
532.70 0.8856
532.80 0.8851
532.90 0.8847
533.00 0.8842
533.10 0.8837
533.20 0.8833
533.30 0.8828
533.40 0.8823
533.50 0.8818
533.60 0.8814
533.70 0.8809
533.80 0.8804
533.90 0.88
534.00 0.8795
534.10 0.879
534.20 0.8786
534.30 0.8781
534.40 0.8776
534.50 0.8772
534.60 0.8767
534.70 0.8762
534.80 0.8758
534.90 0.8753
535.00 0.8748
535.10 0.8744
535.20 0.8739
535.30 0.8734
535.40 0.873
535.50 0.8725
535.60 0.872
535.70 0.8716
535.80 0.8711
535.90 0.8706
536.00 0.8702
536.10 0.8697
536.20 0.8692
536.30 0.8688
536.40 0.8683
536.50 0.8678
536.60 0.8674
536.70 0.8669
536.80 0.8665
536.90 0.866
537.00 0.8655
537.10 0.8651
537.20 0.8646
537.30 0.8641
537.40 0.8637
537.50 0.8632
537.60 0.8628
537.70 0.8623
537.80 0.8618
537.90 0.8614
538.00 0.8609
538.10 0.8604
538.20 0.86
538.30 0.8595
538.40 0.8591
538.50 0.8586
538.60 0.8581
538.70 0.8577
538.80 0.8572
538.90 0.8568
539.00 0.8563
539.10 0.8559
539.20 0.8554
539.30 0.8549
539.40 0.8545
539.50 0.854
539.60 0.8536
539.70 0.8531
539.80 0.8527
539.90 0.8522
540.00 0.8517
540.10 0.8513
540.20 0.8508
540.30 0.8504
540.40 0.8499
540.50 0.8495
540.60 0.849
540.70 0.8485
540.80 0.8481
540.90 0.8476
541.00 0.8472
541.10 0.8467
541.20 0.8463
541.30 0.8458
541.40 0.8454
541.50 0.8449
541.60 0.8445
541.70 0.844
541.80 0.8436
541.90 0.8431
542.00 0.8427
542.10 0.8422
542.20 0.8418
542.30 0.8413
542.40 0.8409
542.50 0.8404
542.60 0.84
542.70 0.8395
542.80 0.839
542.90 0.8386
543.00 0.8381
543.10 0.8377
543.20 0.8373
543.30 0.8368
543.40 0.8364
543.50 0.8359
543.60 0.8355
543.70 0.835
543.80 0.8346
543.90 0.8341
544.00 0.8337
544.10 0.8332
544.20 0.8328
544.30 0.8323
544.40 0.8319
544.50 0.8314
544.60 0.831
544.70 0.8305
544.80 0.8301
544.90 0.8297
545.00 0.8292
545.10 0.8288
545.20 0.8283
545.30 0.8279
545.40 0.8274
545.50 0.827
545.60 0.8265
545.70 0.8261
545.80 0.8257
545.90 0.8252
546.00 0.8248
546.10 0.8243
546.20 0.824
546.30 0.8237
546.40 0.8234
546.50 0.8231
546.60 0.8227
546.70 0.8224
546.80 0.8221
546.90 0.8218
547.00 0.8215
547.10 0.8212
547.20 0.8208
547.30 0.8204
547.40 0.8199
547.50 0.8195
547.60 0.819
547.70 0.8186
547.80 0.8181
547.90 0.8177
548.00 0.8173
548.10 0.8168
548.20 0.8164
548.30 0.8159
548.40 0.8155
548.50 0.815
548.60 0.8146
548.70 0.8141
548.80 0.8137
548.90 0.8133
549.00 0.8128
549.10 0.8124
549.20 0.8119
549.30 0.8115
549.40 0.8111
549.50 0.8106
549.60 0.8102
549.70 0.8097
549.80 0.8093
549.90 0.8089
550.00 0.8084
550.10 0.808
550.20 0.8076
550.30 0.8071
550.40 0.8067
550.50 0.8062
550.60 0.8058
550.70 0.8054
550.80 0.8049
550.90 0.8045
551.00 0.8041
551.10 0.8036
551.20 0.8032
551.30 0.8027
551.40 0.8023
551.50 0.8019
551.60 0.8014
551.70 0.801
551.80 0.8006
551.90 0.8001
552.00 0.7997
552.10 0.7993
552.20 0.7988
552.30 0.7984
552.40 0.798
552.50 0.7975
552.60 0.7971
552.70 0.7967
552.80 0.7963
552.90 0.7958
553.00 0.7954
553.10 0.795
553.20 0.7945
553.30 0.7941
553.40 0.7937
553.50 0.7933
553.60 0.7928
553.70 0.7924
553.80 0.792
553.90 0.7915
554.00 0.7911
554.10 0.7907
554.20 0.7903
554.30 0.7898
554.40 0.7894
554.50 0.789
554.60 0.7886
554.70 0.7881
554.80 0.7877
554.90 0.7873
555.00 0.7869
555.10 0.7864
555.20 0.786
555.30 0.7856
555.40 0.7852
555.50 0.7847
555.60 0.7843
555.70 0.7839
555.80 0.7835
555.90 0.783
556.00 0.7826
556.10 0.7822
556.20 0.7818
556.30 0.7814
556.40 0.7809
556.50 0.7805
556.60 0.7801
556.70 0.7797
556.80 0.7792
556.90 0.7788
557.00 0.7784
557.10 0.778
557.20 0.7776
557.30 0.7772
557.40 0.7767
557.50 0.7763
557.60 0.7759
557.70 0.7755
557.80 0.7751
557.90 0.7747
558.00 0.7742
558.10 0.7738
558.20 0.7734
558.30 0.773
558.40 0.7726
558.50 0.7722
558.60 0.7717
558.70 0.7713
558.80 0.7709
558.90 0.7705
559.00 0.7701
559.10 0.7697
559.20 0.7693
559.30 0.7688
559.40 0.7684
559.50 0.768
559.60 0.7676
559.70 0.7672
559.80 0.7668
559.90 0.7664
560.00 0.766
560.10 0.7656
560.20 0.7651
560.30 0.7647
560.40 0.7643
560.50 0.7639
560.60 0.7635
560.70 0.7631
560.80 0.7627
560.90 0.7623
561.00 0.7619
561.10 0.7615
561.20 0.761
561.30 0.7606
561.40 0.7602
561.50 0.7598
561.60 0.7594
561.70 0.759
561.80 0.7586
561.90 0.7582
562.00 0.7578
562.10 0.7574
562.20 0.757
562.30 0.7566
562.40 0.7562
562.50 0.7558
562.60 0.7554
562.70 0.755
562.80 0.7546
562.90 0.7541
563.00 0.7537
563.10 0.7533
563.20 0.7529
563.30 0.7525
563.40 0.7521
563.50 0.7517
563.60 0.7513
563.70 0.7509
563.80 0.7505
563.90 0.7501
564.00 0.7497
564.10 0.7493
564.20 0.7489
564.30 0.7485
564.40 0.7481
564.50 0.7477
564.60 0.7473
564.70 0.7469
564.80 0.7465
564.90 0.7461
565.00 0.7457
565.10 0.7453
565.20 0.7449
565.30 0.7445
565.40 0.7441
565.50 0.7437
565.60 0.7433
565.70 0.743
565.80 0.7426
565.90 0.7422
566.00 0.7418
566.10 0.7414
566.20 0.741
566.30 0.7406
566.40 0.7402
566.50 0.7398
566.60 0.7394
566.70 0.739
566.80 0.7386
566.90 0.7382
567.00 0.7378
567.10 0.7374
567.20 0.737
567.30 0.7366
567.40 0.7363
567.50 0.7359
567.60 0.7355
567.70 0.7351
567.80 0.7347
567.90 0.7343
568.00 0.7339
568.10 0.7335
568.20 0.7331
568.30 0.7327
568.40 0.7323
568.50 0.732
568.60 0.7316
568.70 0.7312
568.80 0.7308
568.90 0.7304
569.00 0.73
569.10 0.7296
569.20 0.7292
569.30 0.7288
569.40 0.7285
569.50 0.7281
569.60 0.7277
569.70 0.7273
569.80 0.7269
569.90 0.7265
570.00 0.7261
570.10 0.7258
570.20 0.7254
570.30 0.725
570.40 0.7246
570.50 0.7242
570.60 0.7238
570.70 0.7235
570.80 0.7231
570.90 0.7227
571.00 0.7223
571.10 0.7219
571.20 0.7215
571.30 0.7212
571.40 0.7208
571.50 0.7204
571.60 0.72
571.70 0.7196
571.80 0.7192
571.90 0.7189
572.00 0.7185
572.10 0.7181
572.20 0.7177
572.30 0.7173
572.40 0.717
572.50 0.7166
572.60 0.7162
572.70 0.7158
572.80 0.7154
572.90 0.7151
573.00 0.7147
573.10 0.7143
573.20 0.7139
573.30 0.7136
573.40 0.7132
573.50 0.7128
573.60 0.7124
573.70 0.712
573.80 0.7117
573.90 0.7113
574.00 0.7109
574.10 0.7105
574.20 0.7102
574.30 0.7098
574.40 0.7094
574.50 0.709
574.60 0.7087
574.70 0.7083
574.80 0.7079
574.90 0.7075
575.00 0.7072
575.10 0.7068
575.20 0.7064
575.30 0.7061
575.40 0.7057
575.50 0.7053
575.60 0.7049
575.70 0.7046
575.80 0.7042
575.90 0.7038
576.00 0.7035
576.10 0.7031
576.20 0.7027
576.30 0.7023
576.40 0.702
576.50 0.7016
576.60 0.7012
576.70 0.7009
576.80 0.7005
576.90 0.7001
577.00 0.6998
577.10 0.6994
577.20 0.699
577.30 0.6986
577.40 0.6983
577.50 0.6979
577.60 0.6975
577.70 0.6972
577.80 0.6968
577.90 0.6964
578.00 0.6961
578.10 0.6957
578.20 0.6953
578.30 0.695
578.40 0.6946
578.50 0.6942
578.60 0.6939
578.70 0.6935
578.80 0.6932
578.90 0.6928
579.00 0.6924
579.10 0.6921
579.20 0.6917
579.30 0.6913
579.40 0.691
579.50 0.6906
579.60 0.6902
579.70 0.6899
579.80 0.6895
579.90 0.6892
580.00 0.6888
580.10 0.6884
580.20 0.6881
580.30 0.6877
580.40 0.6874
580.50 0.687
580.60 0.6866
580.70 0.6863
580.80 0.6859
580.90 0.6855
581.00 0.6852
581.10 0.6848
581.20 0.6845
581.30 0.6841
581.40 0.6838
581.50 0.6834
581.60 0.683
581.70 0.6827
581.80 0.6823
581.90 0.682
582.00 0.6816
582.10 0.6812
582.20 0.6809
582.30 0.6805
582.40 0.6802
582.50 0.6798
582.60 0.6795
582.70 0.6791
582.80 0.6788
582.90 0.6784
583.00 0.678
583.10 0.6777
583.20 0.6773
583.30 0.677
583.40 0.6766
583.50 0.6763
583.60 0.6759
583.70 0.6756
583.80 0.6752
583.90 0.6749
584.00 0.6745
584.10 0.6742
584.20 0.6738
584.30 0.6735
584.40 0.6731
584.50 0.6727
584.60 0.6724
584.70 0.672
584.80 0.6717
584.90 0.6713
585.00 0.671
585.10 0.6706
585.20 0.6703
585.30 0.6699
585.40 0.6696
585.50 0.6692
585.60 0.6689
585.70 0.6685
585.80 0.6682
585.90 0.6678
586.00 0.6675
586.10 0.6672
586.20 0.6668
586.30 0.6665
586.40 0.6661
586.50 0.6658
586.60 0.6654
586.70 0.6651
586.80 0.6647
586.90 0.6644
587.00 0.664
587.10 0.6637
587.20 0.6633
587.30 0.663
587.40 0.6626
587.50 0.6623
587.60 0.662
587.70 0.6616
587.80 0.6613
587.90 0.6609
588.00 0.6606
588.10 0.6602
588.20 0.6599
588.30 0.6595
588.40 0.6592
588.50 0.6589
588.60 0.6585
588.70 0.6582
588.80 0.6578
588.90 0.6575
589.00 0.6572
589.10 0.6568
589.20 0.6565
589.30 0.6561
589.40 0.6558
589.50 0.6554
589.60 0.6551
589.70 0.6548
589.80 0.6544
589.90 0.6541
590.00 0.6537
590.10 0.6534
590.20 0.6531
590.30 0.6527
590.40 0.6524
590.50 0.652
590.60 0.6517
590.70 0.6514
590.80 0.651
590.90 0.6507
591.00 0.6504
591.10 0.65
591.20 0.6497
591.30 0.6493
591.40 0.649
591.50 0.6487
591.60 0.6483
591.70 0.648
591.80 0.6477
591.90 0.6473
592.00 0.647
592.10 0.6467
592.20 0.6463
592.30 0.646
592.40 0.6457
592.50 0.6453
592.60 0.645
592.70 0.6446
592.80 0.6443
592.90 0.644
593.00 0.6436
593.10 0.6433
593.20 0.643
593.30 0.6426
593.40 0.6423
593.50 0.642
593.60 0.6417
593.70 0.6413
593.80 0.641
593.90 0.6407
594.00 0.6403
594.10 0.64
594.20 0.6397
594.30 0.6393
594.40 0.639
594.50 0.6387
594.60 0.6383
594.70 0.638
594.80 0.6377
594.90 0.6374
595.00 0.637
595.10 0.6367
595.20 0.6364
595.30 0.636
595.40 0.6357
595.50 0.6354
595.60 0.6351
595.70 0.6347
595.80 0.6344
595.90 0.6341
596.00 0.6337
596.10 0.6334
596.20 0.6329
596.30 0.6323
596.40 0.6317
596.50 0.6311
596.60 0.6305
596.70 0.6299
596.80 0.6294
596.90 0.6288
597.00 0.6282
597.10 0.6276
597.20 0.6272
597.30 0.6268
597.40 0.6265
597.50 0.6262
597.60 0.6258
597.70 0.6255
597.80 0.6252
597.90 0.6249
598.00 0.6245
598.10 0.6242
598.20 0.6239
598.30 0.6235
598.40 0.6232
598.50 0.6229
598.60 0.6225
598.70 0.6222
598.80 0.6219
598.90 0.6215
599.00 0.6212
599.10 0.6209
599.20 0.6206
599.30 0.6202
599.40 0.6199
599.50 0.6196
599.60 0.6192
599.70 0.6189
599.80 0.6186
599.90 0.6183
600.00 0.6179
600.10 0.6176
600.20 0.6173
600.30 0.617
600.40 0.6166
600.50 0.6163
600.60 0.616
600.70 0.6156
600.80 0.6153
600.90 0.615
601.00 0.6147
601.10 0.6143
601.20 0.614
601.30 0.6137
601.40 0.6134
601.50 0.613
601.60 0.6127
601.70 0.6124
601.80 0.6121
601.90 0.6117
602.00 0.6114
602.10 0.6111
602.20 0.6108
602.30 0.6104
602.40 0.6101
602.50 0.6098
602.60 0.6095
602.70 0.6091
602.80 0.6088
602.90 0.6085
603.00 0.6082
603.10 0.6078
603.20 0.6075
603.30 0.6072
603.40 0.6069
603.50 0.6065
603.60 0.6062
603.70 0.6059
603.80 0.6056
603.90 0.6052
604.00 0.6049
604.10 0.6046
604.20 0.6043
604.30 0.604
604.40 0.6036
604.50 0.6033
604.60 0.603
604.70 0.6027
604.80 0.6024
604.90 0.602
605.00 0.6017
605.10 0.6014
605.20 0.6011
605.30 0.6007
605.40 0.6004
605.50 0.6001
605.60 0.5998
605.70 0.5995
605.80 0.5991
605.90 0.5988
606.00 0.5985
606.10 0.5982
606.20 0.5979
606.30 0.5976
606.40 0.5972
606.50 0.5969
606.60 0.5966
606.70 0.5963
606.80 0.596
606.90 0.5956
607.00 0.5953
607.10 0.595
607.20 0.5947
607.30 0.5944
607.40 0.594
607.50 0.5937
607.60 0.5934
607.70 0.5931
607.80 0.5928
607.90 0.5925
608.00 0.5921
608.10 0.5918
608.20 0.5915
608.30 0.5912
608.40 0.5909
608.50 0.5905
608.60 0.5902
608.70 0.5899
608.80 0.5896
608.90 0.5893
609.00 0.589
609.10 0.5886
609.20 0.5883
609.30 0.588
609.40 0.5877
609.50 0.5874
609.60 0.5871
609.70 0.5867
609.80 0.5864
609.90 0.5861
610.00 0.5858
610.10 0.5855
610.20 0.5852
610.30 0.5849
610.40 0.5845
610.50 0.5842
610.60 0.5839
610.70 0.5836
610.80 0.5833
610.90 0.583
611.00 0.5826
611.10 0.5823
611.20 0.582
611.30 0.5817
611.40 0.5814
611.50 0.5811
611.60 0.5808
611.70 0.5804
611.80 0.5801
611.90 0.5798
612.00 0.5795
612.10 0.5792
612.20 0.5789
612.30 0.5785
612.40 0.5782
612.50 0.5779
612.60 0.5776
612.70 0.5773
612.80 0.577
612.90 0.5767
613.00 0.5764
613.10 0.576
613.20 0.5757
613.30 0.5754
613.40 0.5751
613.50 0.5748
613.60 0.5745
613.70 0.5742
613.80 0.5738
613.90 0.5735
614.00 0.5732
614.10 0.5729
614.20 0.5726
614.30 0.5723
614.40 0.572
614.50 0.5716
614.60 0.5713
614.70 0.571
614.80 0.5707
614.90 0.5704
615.00 0.5701
615.10 0.5698
615.20 0.5694
615.30 0.5691
615.40 0.5688
615.50 0.5685
615.60 0.5682
615.70 0.5679
615.80 0.5676
615.90 0.5673
616.00 0.5669
616.10 0.5666
616.20 0.5663
616.30 0.566
616.40 0.5657
616.50 0.5654
616.60 0.5651
616.70 0.5647
616.80 0.5644
616.90 0.5641
617.00 0.5638
617.10 0.5635
617.20 0.5632
617.30 0.5629
617.40 0.5625
617.50 0.5622
617.60 0.5619
617.70 0.5616
617.80 0.5613
617.90 0.561
618.00 0.5607
618.10 0.5603
618.20 0.56
618.30 0.5597
618.40 0.5594
618.50 0.5591
618.60 0.5588
618.70 0.5585
618.80 0.5581
618.90 0.5578
619.00 0.5575
619.10 0.5572
619.20 0.5569
619.30 0.5566
619.40 0.5563
619.50 0.5559
619.60 0.5556
619.70 0.5553
619.80 0.555
619.90 0.5547
620.00 0.5544
620.10 0.554
620.20 0.5537
620.30 0.5534
620.40 0.5531
620.50 0.5528
620.60 0.5525
620.70 0.5521
620.80 0.5518
620.90 0.5515
621.00 0.5512
621.10 0.5509
621.20 0.5506
621.30 0.5502
621.40 0.5499
621.50 0.5496
621.60 0.5493
621.70 0.549
621.80 0.5487
621.90 0.5483
622.00 0.548
622.10 0.5477
622.20 0.5474
622.30 0.5471
622.40 0.5467
622.50 0.5464
622.60 0.5461
622.70 0.5458
622.80 0.5455
622.90 0.5452
623.00 0.5448
623.10 0.5445
623.20 0.5442
623.30 0.5439
623.40 0.5435
623.50 0.5432
623.60 0.5429
623.70 0.5426
623.80 0.5423
623.90 0.5419
624.00 0.5416
624.10 0.5413
624.20 0.541
624.30 0.5406
624.40 0.5403
624.50 0.54
624.60 0.5397
624.70 0.5394
624.80 0.539
624.90 0.5387
625.00 0.5384
625.10 0.5381
625.20 0.5377
625.30 0.5374
625.40 0.5371
625.50 0.5368
625.60 0.5364
625.70 0.5361
625.80 0.5358
625.90 0.5354
626.00 0.5351
626.10 0.5348
626.20 0.5345
626.30 0.5341
626.40 0.5338
626.50 0.5335
626.60 0.5331
626.70 0.5328
626.80 0.5325
626.90 0.5322
627.00 0.5318
627.10 0.5315
627.20 0.5312
627.30 0.5308
627.40 0.5305
627.50 0.5302
627.60 0.5298
627.70 0.5295
627.80 0.5292
627.90 0.5288
628.00 0.5285
628.10 0.5282
628.20 0.5278
628.30 0.5275
628.40 0.5272
628.50 0.5268
628.60 0.5265
628.70 0.5261
628.80 0.5258
628.90 0.5255
629.00 0.5251
629.10 0.5248
629.20 0.5245
629.30 0.5241
629.40 0.5238
629.50 0.5234
629.60 0.5231
629.70 0.5227
629.80 0.5224
629.90 0.522
630.00 0.5217
630.10 0.5214
630.20 0.521
630.30 0.5207
630.40 0.5203
630.50 0.52
630.60 0.5196
630.70 0.5193
630.80 0.5189
630.90 0.5186
631.00 0.5182
631.10 0.5179
631.20 0.5175
631.30 0.5172
631.40 0.5168
631.50 0.5164
631.60 0.5161
631.70 0.5157
631.80 0.5154
631.90 0.515
632.00 0.5146
632.10 0.5143
632.20 0.5139
632.30 0.5136
632.40 0.5132
632.50 0.5128
632.60 0.5124
632.70 0.5121
632.80 0.5117
632.90 0.5113
633.00 0.511
633.10 0.5106
633.20 0.5102
633.30 0.5099
633.40 0.5095
633.50 0.5091
633.60 0.5087
633.70 0.5083
633.80 0.508
633.90 0.5076
634.00 0.5072
634.10 0.5068
634.20 0.5064
634.30 0.5061
634.40 0.5057
634.50 0.5053
634.60 0.5049
634.70 0.5045
634.80 0.5041
634.90 0.5037
635.00 0.5033
635.10 0.5029
635.20 0.5025
635.30 0.5021
635.40 0.5017
635.50 0.5013
635.60 0.5009
635.70 0.5005
635.80 0.5001
635.90 0.4997
636.00 0.4993
636.10 0.4989
636.20 0.4985
636.30 0.4981
636.40 0.4976
636.50 0.4972
636.60 0.4968
636.70 0.4964
636.80 0.4959
636.90 0.4955
637.00 0.4951
637.10 0.4947
637.20 0.4942
637.30 0.4938
637.40 0.4934
637.50 0.4929
637.60 0.4925
637.70 0.492
637.80 0.4916
637.90 0.4912
638.00 0.4907
638.10 0.4903
638.20 0.4898
638.30 0.4894
638.40 0.4889
638.50 0.4884
638.60 0.488
638.70 0.4875
638.80 0.487
638.90 0.4866
639.00 0.4861
639.10 0.4856
639.20 0.4852
639.30 0.4847
639.40 0.4842
639.50 0.4837
639.60 0.4832
639.70 0.4827
639.80 0.4822
639.90 0.4817
640.00 0.4812
640.10 0.4807
640.20 0.4802
640.30 0.4797
640.40 0.4792
640.50 0.4787
640.60 0.4782
640.70 0.4776
640.80 0.4771
640.90 0.4766
641.00 0.476
641.10 0.4755
641.20 0.475
641.30 0.4745
641.40 0.4739
641.50 0.4733
641.60 0.4728
641.70 0.4722
641.80 0.4716
641.90 0.4711
642.00 0.4705
642.10 0.4699
642.20 0.4694
642.30 0.4688
642.40 0.4682
642.50 0.4676
642.60 0.467
642.70 0.4664
642.80 0.4658
642.90 0.4652
643.00 0.4646
643.10 0.464
643.20 0.4634
643.30 0.4628
643.40 0.4621
643.50 0.4614
643.60 0.4608
643.70 0.4601
643.80 0.4595
643.90 0.4588
644.00 0.4582
644.10 0.4575
644.20 0.4569
644.30 0.4562
644.40 0.4555
644.50 0.4548
644.60 0.4541
644.70 0.4534
644.80 0.4527
644.90 0.452
645.00 0.4513
645.10 0.4506
645.20 0.4499
645.30 0.4492
645.40 0.4484
645.50 0.4476
645.60 0.4468
645.70 0.446
645.80 0.4453
645.90 0.4445
646.00 0.4437
646.10 0.4429
646.20 0.4421
646.30 0.4413
646.40 0.4405
646.50 0.4396
646.60 0.4388
646.70 0.4379
646.80 0.4371
646.90 0.4362
647.00 0.4354
647.10 0.4345
647.20 0.4337
647.30 0.4328
647.40 0.4318
647.50 0.4308
647.60 0.4298
647.70 0.4289
647.80 0.4279
647.90 0.4269
648.00 0.4259
648.10 0.4249
648.20 0.424
648.30 0.423
648.40 0.4218
648.50 0.4207
648.60 0.4196
648.70 0.4185
648.80 0.4174
648.90 0.4163
649.00 0.4152
649.10 0.4141
649.20 0.413
649.30 0.4118
649.40 0.4105
649.50 0.4092
649.60 0.4079
649.70 0.4066
649.80 0.4053
649.90 0.404
650.00 0.4027
650.10 0.4014
650.20 0.4001
650.30 0.3987
650.40 0.3972
650.50 0.3957
650.60 0.3941
650.70 0.3926
650.80 0.3911
650.90 0.3896
651.00 0.388
651.10 0.3865
651.20 0.385
651.30 0.3834
651.40 0.3816
651.50 0.3798
651.60 0.378
651.70 0.3761
651.80 0.3743
651.90 0.3725
652.00 0.3707
652.10 0.3689
652.20 0.3671
652.30 0.3652
652.40 0.363
652.50 0.3608
652.60 0.3586
652.70 0.3564
652.80 0.3542
652.90 0.352
653.00 0.3498
653.10 0.3476
653.20 0.3454
653.30 0.3431
653.40 0.3403
653.50 0.3375
653.60 0.3347
653.70 0.3319
653.80 0.3291
653.90 0.3263
654.00 0.3235
654.10 0.3207
654.20 0.3179
654.30 0.315
654.40 0.3118
654.50 0.3086
654.60 0.3054
654.70 0.3022
654.80 0.299
654.90 0.2957
655.00 0.2924
655.10 0.2891
655.20 0.2859
655.30 0.2825
655.40 0.2791
655.50 0.2756
655.60 0.2718
655.70 0.2677
655.80 0.2629
655.90 0.2573
656.00 0.2486
656.10 0.2388
656.20 0.2157
656.30 0.2002
656.40 0.2267
656.50 0.2428
656.60 0.2513
656.70 0.2591
656.80 0.2637
656.90 0.2681
657.00 0.2718
657.10 0.2753
657.20 0.2785
657.30 0.2816
657.40 0.2847
657.50 0.2877
657.60 0.2907
657.70 0.2938
657.80 0.2968
657.90 0.2997
658.00 0.3026
658.10 0.3055
658.20 0.3084
658.30 0.3112
658.40 0.3137
658.50 0.3162
658.60 0.3187
658.70 0.3212
658.80 0.3236
658.90 0.3261
659.00 0.3286
659.10 0.3311
659.20 0.3335
659.30 0.3359
659.40 0.3377
659.50 0.3396
659.60 0.3414
659.70 0.3432
659.80 0.3451
659.90 0.3469
660.00 0.3488
660.10 0.3506
660.20 0.3524
660.30 0.3542
660.40 0.3556
660.50 0.357
660.60 0.3585
660.70 0.3599
660.80 0.3613
660.90 0.3627
661.00 0.3642
661.10 0.3656
661.20 0.367
661.30 0.3684
661.40 0.3695
661.50 0.3706
661.60 0.3717
661.70 0.3728
661.80 0.374
661.90 0.3751
662.00 0.3762
662.10 0.3773
662.20 0.3784
662.30 0.3795
662.40 0.3804
662.50 0.3813
662.60 0.3822
662.70 0.383
662.80 0.3839
662.90 0.3848
663.00 0.3857
663.10 0.3866
663.20 0.3875
663.30 0.3883
663.40 0.389
663.50 0.3896
663.60 0.3903
663.70 0.391
663.80 0.3917
663.90 0.3923
664.00 0.393
664.10 0.3937
664.20 0.3944
664.30 0.395
664.40 0.3956
664.50 0.3961
664.60 0.3966
664.70 0.3972
664.80 0.3977
664.90 0.3982
665.00 0.3988
665.10 0.3993
665.20 0.3998
665.30 0.4003
665.40 0.4007
665.50 0.4011
665.60 0.4015
665.70 0.4019
665.80 0.4023
665.90 0.4027
666.00 0.4031
666.10 0.4035
666.20 0.4039
666.30 0.4043
666.40 0.4047
666.50 0.405
666.60 0.4053
666.70 0.4056
666.80 0.406
666.90 0.4063
667.00 0.4066
667.10 0.4069
667.20 0.4072
667.30 0.4075
667.40 0.4078
667.50 0.408
667.60 0.4083
667.70 0.4085
667.80 0.4088
667.90 0.409
668.00 0.4092
668.10 0.4095
668.20 0.4097
668.30 0.4099
668.40 0.4101
668.50 0.4103
668.60 0.4105
668.70 0.4107
668.80 0.4109
668.90 0.411
669.00 0.4112
669.10 0.4114
669.20 0.4116
669.30 0.4118
669.40 0.4119
669.50 0.412
669.60 0.4121
669.70 0.4123
669.80 0.4124
669.90 0.4125
670.00 0.4127
670.10 0.4128
670.20 0.4129
670.30 0.413
670.40 0.4131
670.50 0.4132
670.60 0.4133
670.70 0.4134
670.80 0.4135
670.90 0.4136
671.00 0.4137
671.10 0.4138
671.20 0.4139
671.30 0.4139
671.40 0.414
671.50 0.414
671.60 0.4141
671.70 0.4141
671.80 0.4142
671.90 0.4142
672.00 0.4143
672.10 0.4143
672.20 0.4144
672.30 0.4144
672.40 0.4144
672.50 0.4145
672.60 0.4145
672.70 0.4145
672.80 0.4145
672.90 0.4145
673.00 0.4145
673.10 0.4146
673.20 0.4146
673.30 0.4146
673.40 0.4146
673.50 0.4146
673.60 0.4146
673.70 0.4145
673.80 0.4145
673.90 0.4145
674.00 0.4145
674.10 0.4145
674.20 0.4145
674.30 0.4145
674.40 0.4144
674.50 0.4144
674.60 0.4144
674.70 0.4143
674.80 0.4143
674.90 0.4142
675.00 0.4142
675.10 0.4142
675.20 0.4141
675.30 0.4141
675.40 0.414
675.50 0.414
675.60 0.4139
675.70 0.4139
675.80 0.4138
675.90 0.4138
676.00 0.4137
676.10 0.4137
676.20 0.4136
676.30 0.4135
676.40 0.4135
676.50 0.4134
676.60 0.4133
676.70 0.4132
676.80 0.4132
676.90 0.4131
677.00 0.413
677.10 0.413
677.20 0.4129
677.30 0.4128
677.40 0.4127
677.50 0.4126
677.60 0.4125
677.70 0.4125
677.80 0.4124
677.90 0.4123
678.00 0.4122
678.10 0.4121
678.20 0.412
678.30 0.4119
678.40 0.4118
678.50 0.4117
678.60 0.4116
678.70 0.4115
678.80 0.4114
678.90 0.4113
679.00 0.4112
679.10 0.4111
679.20 0.411
679.30 0.4109
679.40 0.4108
679.50 0.4107
679.60 0.4106
679.70 0.4105
679.80 0.4104
679.90 0.4103
680.00 0.4102
680.10 0.4101
680.20 0.4099
680.30 0.4098
680.40 0.4097
680.50 0.4096
680.60 0.4095
680.70 0.4094
680.80 0.4092
680.90 0.4091
681.00 0.409
681.10 0.4089
681.20 0.4088
681.30 0.4086
681.40 0.4085
681.50 0.4084
681.60 0.4083
681.70 0.4081
681.80 0.408
681.90 0.4079
682.00 0.4078
682.10 0.4076
682.20 0.4075
682.30 0.4074
682.40 0.4072
682.50 0.4071
682.60 0.407
682.70 0.4068
682.80 0.4067
682.90 0.4066
683.00 0.4064
683.10 0.4063
683.20 0.4062
683.30 0.406
683.40 0.4059
683.50 0.4058
683.60 0.4056
683.70 0.4055
683.80 0.4053
683.90 0.4052
684.00 0.4051
684.10 0.4049
684.20 0.4048
684.30 0.4047
684.40 0.4045
684.50 0.4044
684.60 0.4042
684.70 0.4041
684.80 0.4039
684.90 0.4038
685.00 0.4036
685.10 0.4035
685.20 0.4034
685.30 0.4032
685.40 0.4031
685.50 0.4029
685.60 0.4028
685.70 0.4026
685.80 0.4025
685.90 0.4023
686.00 0.4022
686.10 0.402
686.20 0.4019
686.30 0.4018
686.40 0.4016
686.50 0.4014
686.60 0.4013
686.70 0.4011
686.80 0.401
686.90 0.4008
687.00 0.4007
687.10 0.4005
687.20 0.4004
687.30 0.4002
687.40 0.4001
687.50 0.3999
687.60 0.3998
687.70 0.3996
687.80 0.3995
687.90 0.3993
688.00 0.3992
688.10 0.399
688.20 0.3989
688.30 0.3987
688.40 0.3986
688.50 0.3984
688.60 0.3983
688.70 0.3981
688.80 0.3979
688.90 0.3978
689.00 0.3976
689.10 0.3975
689.20 0.3973
689.30 0.3972
689.40 0.397
689.50 0.3968
689.60 0.3967
689.70 0.3965
689.80 0.3963
689.90 0.3962
690.00 0.396
690.10 0.3958
690.20 0.3957
690.30 0.3955
690.40 0.3953
690.50 0.3952
690.60 0.395
690.70 0.3948
690.80 0.3947
690.90 0.3945
691.00 0.3943
691.10 0.3942
691.20 0.394
691.30 0.3939
691.40 0.3937
691.50 0.3935
691.60 0.3934
691.70 0.3932
691.80 0.393
691.90 0.3929
692.00 0.3927
692.10 0.3925
692.20 0.3924
692.30 0.3922
692.40 0.392
692.50 0.3919
692.60 0.3917
692.70 0.3916
692.80 0.3914
692.90 0.3912
693.00 0.3911
693.10 0.3909
693.20 0.3907
693.30 0.3906
693.40 0.3904
693.50 0.3902
693.60 0.3901
693.70 0.3899
693.80 0.3898
693.90 0.3896
694.00 0.3894
694.10 0.3893
694.20 0.3891
694.30 0.3889
694.40 0.3888
694.50 0.3886
694.60 0.3885
694.70 0.3883
694.80 0.3881
694.90 0.388
695.00 0.3878
695.10 0.3876
695.20 0.3875
695.30 0.3873
695.40 0.3872
695.50 0.387
695.60 0.3868
695.70 0.3867
695.80 0.3865
695.90 0.3864
696.00 0.3862
696.10 0.386
696.20 0.3859
696.30 0.3857
696.40 0.3855
696.50 0.3854
696.60 0.3852
696.70 0.3851
696.80 0.3849
696.90 0.3847
697.00 0.3846
697.10 0.3844
697.20 0.3843
697.30 0.3841
697.40 0.3839
697.50 0.3838
697.60 0.3836
697.70 0.3835
697.80 0.3833
697.90 0.3831
698.00 0.383
698.10 0.3828
698.20 0.3827
698.30 0.3825
698.40 0.3823
698.50 0.3822
698.60 0.382
698.70 0.3819
698.80 0.3817
698.90 0.3815
699.00 0.3814
699.10 0.3812
699.20 0.3811
699.30 0.3809
699.40 0.3808
699.50 0.3806
699.60 0.3804
699.70 0.3803
699.80 0.3801
699.90 0.38
700.00 0.3798
700.10 0.3797
700.20 0.3795
700.30 0.3794
700.40 0.3792
700.50 0.3791
700.60 0.3789
700.70 0.3788
700.80 0.3786
700.90 0.3785
701.00 0.3783
701.10 0.3782
701.20 0.378
701.30 0.3779
701.40 0.3777
701.50 0.3776
701.60 0.3775
701.70 0.3773
701.80 0.3772
701.90 0.377
702.00 0.3769
702.10 0.3767
702.20 0.3766
702.30 0.3764
702.40 0.3763
702.50 0.3761
702.60 0.376
702.70 0.3758
702.80 0.3757
702.90 0.3756
703.00 0.3754
703.10 0.3753
703.20 0.3751
703.30 0.375
703.40 0.3748
703.50 0.3747
703.60 0.3745
703.70 0.3744
703.80 0.3742
703.90 0.3741
704.00 0.374
704.10 0.3738
704.20 0.3737
704.30 0.3735
704.40 0.3734
704.50 0.3732
704.60 0.3731
704.70 0.3729
704.80 0.3728
704.90 0.3727
705.00 0.3725
705.10 0.3723
705.20 0.3722
705.30 0.372
705.40 0.3718
705.50 0.3717
705.60 0.3715
705.70 0.3714
705.80 0.3712
705.90 0.371
706.00 0.3709
706.10 0.3707
706.20 0.3705
706.30 0.3704
706.40 0.3702
706.50 0.37
706.60 0.3699
706.70 0.3697
706.80 0.3696
706.90 0.3694
707.00 0.3692
707.10 0.3691
707.20 0.3689
707.30 0.3687
707.40 0.3686
707.50 0.3684
707.60 0.3683
707.70 0.3681
707.80 0.3679
707.90 0.3678
708.00 0.3676
708.10 0.3674
708.20 0.3673
708.30 0.3671
708.40 0.367
708.50 0.3668
708.60 0.3666
708.70 0.3665
708.80 0.3663
708.90 0.3661
709.00 0.366
709.10 0.3658
709.20 0.3657
709.30 0.3655
709.40 0.3653
709.50 0.3652
709.60 0.365
709.70 0.3649
709.80 0.3647
709.90 0.3645
710.00 0.3644
710.10 0.3642
710.20 0.364
710.30 0.3639
710.40 0.3637
710.50 0.3636
710.60 0.3634
710.70 0.3632
710.80 0.3631
710.90 0.3629
711.00 0.3628
711.10 0.3626
711.20 0.3624
711.30 0.3623
711.40 0.3621
711.50 0.362
711.60 0.3618
711.70 0.3616
711.80 0.3615
711.90 0.3613
712.00 0.3612
712.10 0.361
712.20 0.3608
712.30 0.3607
712.40 0.3605
712.50 0.3604
712.60 0.3602
712.70 0.36
712.80 0.3599
712.90 0.3597
713.00 0.3596
713.10 0.3594
713.20 0.3592
713.30 0.3591
713.40 0.3589
713.50 0.3588
713.60 0.3586
713.70 0.3584
713.80 0.3583
713.90 0.3581
714.00 0.358
714.10 0.3578
714.20 0.3576
714.30 0.3575
714.40 0.3573
714.50 0.3572
714.60 0.357
714.70 0.3568
714.80 0.3567
714.90 0.3565
715.00 0.3564
715.10 0.3562
715.20 0.3561
715.30 0.3559
715.40 0.3558
715.50 0.3556
715.60 0.3555
715.70 0.3553
715.80 0.3552
715.90 0.3551
716.00 0.3549
716.10 0.3548
716.20 0.3546
716.30 0.3545
716.40 0.3543
716.50 0.3542
716.60 0.354
716.70 0.3539
716.80 0.3537
716.90 0.3536
717.00 0.3534
717.10 0.3533
717.20 0.3532
717.30 0.353
717.40 0.3529
717.50 0.3527
717.60 0.3526
717.70 0.3524
717.80 0.3523
717.90 0.3521
718.00 0.352
718.10 0.3519
718.20 0.3517
718.30 0.3516
718.40 0.3514
718.50 0.3513
718.60 0.3511
718.70 0.351
718.80 0.3508
718.90 0.3507
719.00 0.3506
719.10 0.3504
719.20 0.3503
719.30 0.3501
719.40 0.35
719.50 0.3498
719.60 0.3497
719.70 0.3495
719.80 0.3494
719.90 0.3493
720.00 0.3491
720.10 0.349
720.20 0.3488
720.30 0.3486
720.40 0.3485
720.50 0.3483
720.60 0.3482
720.70 0.348
720.80 0.3479
720.90 0.3477
721.00 0.3475
721.10 0.3474
721.20 0.3472
721.30 0.3471
721.40 0.3469
721.50 0.3468
721.60 0.3466
721.70 0.3464
721.80 0.3463
721.90 0.3461
722.00 0.346
722.10 0.3458
722.20 0.3457
722.30 0.3455
722.40 0.3454
722.50 0.3452
722.60 0.345
722.70 0.3449
722.80 0.3447
722.90 0.3446
723.00 0.3444
723.10 0.3443
723.20 0.3441
723.30 0.344
723.40 0.3438
723.50 0.3436
723.60 0.3435
723.70 0.3433
723.80 0.3432
723.90 0.343
724.00 0.3429
724.10 0.3427
724.20 0.3426
724.30 0.3424
724.40 0.3423
724.50 0.3421
724.60 0.3419
724.70 0.3418
724.80 0.3416
724.90 0.3415
725.00 0.3413
725.10 0.3412
725.20 0.341
725.30 0.3409
725.40 0.3407
725.50 0.3406
725.60 0.3404
725.70 0.3403
725.80 0.3401
725.90 0.34
726.00 0.3398
726.10 0.3397
726.20 0.3395
726.30 0.3394
726.40 0.3392
726.50 0.339
726.60 0.3389
726.70 0.3387
726.80 0.3386
726.90 0.3384
727.00 0.3383
727.10 0.3381
727.20 0.338
727.30 0.3378
727.40 0.3377
727.50 0.3375
727.60 0.3374
727.70 0.3372
727.80 0.3371
727.90 0.3369
728.00 0.3368
728.10 0.3366
728.20 0.3365
728.30 0.3363
728.40 0.3362
728.50 0.336
728.60 0.3359
728.70 0.3357
728.80 0.3356
728.90 0.3354
729.00 0.3353
729.10 0.3351
729.20 0.335
729.30 0.3348
729.40 0.3347
729.50 0.3345
729.60 0.3344
729.70 0.3342
729.80 0.3341
729.90 0.3339
730.00 0.3338
730.10 0.3336
730.20 0.3335
730.30 0.3333
730.40 0.3332
730.50 0.333
730.60 0.3329
730.70 0.3327
730.80 0.3326
730.90 0.3324
731.00 0.3323
731.10 0.3321
731.20 0.332
731.30 0.3318
731.40 0.3317
731.50 0.3316
731.60 0.3314
731.70 0.3313
731.80 0.3311
731.90 0.331
732.00 0.3308
732.10 0.3307
732.20 0.3305
732.30 0.3304
732.40 0.3302
732.50 0.3301
732.60 0.3299
732.70 0.3298
732.80 0.3296
732.90 0.3295
733.00 0.3293
733.10 0.3292
733.20 0.3291
733.30 0.3289
733.40 0.3288
733.50 0.3286
733.60 0.3285
733.70 0.3283
733.80 0.3282
733.90 0.328
734.00 0.3279
734.10 0.3277
734.20 0.3276
734.30 0.3274
734.40 0.3273
734.50 0.3272
734.60 0.327
734.70 0.3269
734.80 0.3267
734.90 0.3266
735.00 0.3264
735.10 0.3263
735.20 0.3261
735.30 0.326
735.40 0.3258
735.50 0.3257
735.60 0.3256
735.70 0.3254
735.80 0.3253
735.90 0.3251
736.00 0.325
736.10 0.3248
736.20 0.3247
736.30 0.3245
736.40 0.3244
736.50 0.3243
736.60 0.3241
736.70 0.324
736.80 0.3238
736.90 0.3237
737.00 0.3235
737.10 0.3234
737.20 0.3233
737.30 0.3231
737.40 0.323
737.50 0.3228
737.60 0.3227
737.70 0.3225
737.80 0.3224
737.90 0.3222
738.00 0.3221
738.10 0.322
738.20 0.3218
738.30 0.3217
738.40 0.3215
738.50 0.3214
738.60 0.3212
738.70 0.3211
738.80 0.321
738.90 0.3208
739.00 0.3207
739.10 0.3205
739.20 0.3204
739.30 0.3202
739.40 0.3201
739.50 0.32
739.60 0.3198
739.70 0.3197
739.80 0.3195
739.90 0.3194
740.00 0.3193
740.10 0.3191
740.20 0.319
740.30 0.3188
740.40 0.3187
740.50 0.3186
740.60 0.3184
740.70 0.3183
740.80 0.3181
740.90 0.318
741.00 0.3179
741.10 0.3177
741.20 0.3176
741.30 0.3174
741.40 0.3173
741.50 0.3172
741.60 0.317
741.70 0.3169
741.80 0.3167
741.90 0.3166
742.00 0.3165
742.10 0.3163
742.20 0.3162
742.30 0.316
742.40 0.3159
742.50 0.3158
742.60 0.3156
742.70 0.3155
742.80 0.3153
742.90 0.3152
743.00 0.3151
743.10 0.3149
743.20 0.3148
743.30 0.3146
743.40 0.3145
743.50 0.3144
743.60 0.3142
743.70 0.3141
743.80 0.314
743.90 0.3138
744.00 0.3137
744.10 0.3135
744.20 0.3134
744.30 0.3133
744.40 0.3131
744.50 0.313
744.60 0.3129
744.70 0.3127
744.80 0.3126
744.90 0.3124
745.00 0.3123
745.10 0.3122
745.20 0.312
745.30 0.3119
745.40 0.3118
745.50 0.3116
745.60 0.3115
745.70 0.3113
745.80 0.3112
745.90 0.3111
746.00 0.3109
746.10 0.3108
746.20 0.3107
746.30 0.3105
746.40 0.3104
746.50 0.3102
746.60 0.3101
746.70 0.31
746.80 0.3098
746.90 0.3097
747.00 0.3096
747.10 0.3094
747.20 0.3093
747.30 0.3092
747.40 0.309
747.50 0.3089
747.60 0.3087
747.70 0.3086
747.80 0.3085
747.90 0.3083
748.00 0.3082
748.10 0.3081
748.20 0.3079
748.30 0.3078
748.40 0.3077
748.50 0.3075
748.60 0.3074
748.70 0.3073
748.80 0.3071
748.90 0.307
749.00 0.3069
749.10 0.3067
749.20 0.3066
749.30 0.3064
749.40 0.3063
749.50 0.3062
749.60 0.306
749.70 0.3059
749.80 0.3058
749.90 0.3056
750.00 0.3055
750.10 0.3054
750.20 0.3052
750.30 0.3051
750.40 0.305
750.50 0.3048
750.60 0.3047
750.70 0.3046
750.80 0.3044
750.90 0.3043
751.00 0.3042
751.10 0.304
751.20 0.3039
751.30 0.3038
751.40 0.3036
751.50 0.3035
751.60 0.3034
751.70 0.3033
751.80 0.3031
751.90 0.303
752.00 0.3029
752.10 0.3027
752.20 0.3026
752.30 0.3025
752.40 0.3023
752.50 0.3022
752.60 0.3021
752.70 0.3019
752.80 0.3018
752.90 0.3017
753.00 0.3015
753.10 0.3014
753.20 0.3013
753.30 0.3011
753.40 0.301
753.50 0.3009
753.60 0.3008
753.70 0.3006
753.80 0.3005
753.90 0.3004
754.00 0.3002
754.10 0.3001
754.20 0.3
754.30 0.2998
754.40 0.2997
754.50 0.2996
754.60 0.2994
754.70 0.2993
754.80 0.2992
754.90 0.2991
755.00 0.2989
755.10 0.2988
755.20 0.2987
755.30 0.2985
755.40 0.2984
755.50 0.2983
755.60 0.2981
755.70 0.298
755.80 0.2979
755.90 0.2978
756.00 0.2976
756.10 0.2975
756.20 0.2974
756.30 0.2972
756.40 0.2971
756.50 0.297
756.60 0.2968
756.70 0.2967
756.80 0.2966
756.90 0.2965
757.00 0.2963
757.10 0.2962
757.20 0.2961
757.30 0.2959
757.40 0.2958
757.50 0.2957
757.60 0.2956
757.70 0.2954
757.80 0.2953
757.90 0.2952
758.00 0.295
758.10 0.2949
758.20 0.2948
758.30 0.2947
758.40 0.2945
758.50 0.2944
758.60 0.2943
758.70 0.2941
758.80 0.294
758.90 0.2939
759.00 0.2938
759.10 0.2936
759.20 0.2935
759.30 0.2934
759.40 0.2932
759.50 0.2931
759.60 0.293
759.70 0.2929
759.80 0.2927
759.90 0.2926
760.00 0.2925
760.10 0.2924
760.20 0.2922
760.30 0.2921
760.40 0.292
760.50 0.2919
760.60 0.2917
760.70 0.2916
760.80 0.2915
760.90 0.2913
761.00 0.2912
761.10 0.2911
761.20 0.291
761.30 0.2908
761.40 0.2907
761.50 0.2906
761.60 0.2905
761.70 0.2903
761.80 0.2902
761.90 0.2901
762.00 0.29
762.10 0.2898
762.20 0.2897
762.30 0.2896
762.40 0.2895
762.50 0.2893
762.60 0.2892
762.70 0.2891
762.80 0.289
762.90 0.2888
763.00 0.2887
763.10 0.2886
763.20 0.2885
763.30 0.2883
763.40 0.2882
763.50 0.2881
763.60 0.288
763.70 0.2878
763.80 0.2877
763.90 0.2876
764.00 0.2875
764.10 0.2874
764.20 0.2872
764.30 0.2871
764.40 0.287
764.50 0.2869
764.60 0.2867
764.70 0.2866
764.80 0.2865
764.90 0.2864
765.00 0.2862
765.10 0.2861
765.20 0.286
765.30 0.2859
765.40 0.2857
765.50 0.2856
765.60 0.2855
765.70 0.2854
765.80 0.2853
765.90 0.2851
766.00 0.285
766.10 0.2849
766.20 0.2848
766.30 0.2846
766.40 0.2845
766.50 0.2844
766.60 0.2843
766.70 0.2841
766.80 0.284
766.90 0.2839
767.00 0.2838
767.10 0.2837
767.20 0.2835
767.30 0.2834
767.40 0.2833
767.50 0.2832
767.60 0.283
767.70 0.2829
767.80 0.2828
767.90 0.2827
768.00 0.2826
768.10 0.2824
768.20 0.2823
768.30 0.2822
768.40 0.2821
768.50 0.282
768.60 0.2818
768.70 0.2817
768.80 0.2816
768.90 0.2815
769.00 0.2813
769.10 0.2812
769.20 0.2811
769.30 0.281
769.40 0.2809
769.50 0.2807
769.60 0.2806
769.70 0.2805
769.80 0.2804
769.90 0.2803
770.00 0.2801
770.10 0.28
770.20 0.2799
770.30 0.2798
770.40 0.2797
770.50 0.2795
770.60 0.2794
770.70 0.2793
770.80 0.2792
770.90 0.2791
771.00 0.2789
771.10 0.2788
771.20 0.2787
771.30 0.2786
771.40 0.2785
771.50 0.2783
771.60 0.2782
771.70 0.2781
771.80 0.278
771.90 0.2779
772.00 0.2777
772.10 0.2776
772.20 0.2775
772.30 0.2774
772.40 0.2773
772.50 0.2772
772.60 0.277
772.70 0.2769
772.80 0.2768
772.90 0.2767
773.00 0.2766
773.10 0.2764
773.20 0.2763
773.30 0.2762
773.40 0.2761
773.50 0.276
773.60 0.2759
773.70 0.2757
773.80 0.2756
773.90 0.2755
774.00 0.2754
774.10 0.2753
774.20 0.2751
774.30 0.275
774.40 0.2749
774.50 0.2748
774.60 0.2747
774.70 0.2746
774.80 0.2744
774.90 0.2743
775.00 0.2742
775.10 0.2741
775.20 0.274
775.30 0.2739
775.40 0.2737
775.50 0.2736
775.60 0.2735
775.70 0.2734
775.80 0.2733
775.90 0.2732
776.00 0.273
776.10 0.2729
776.20 0.2728
776.30 0.2727
776.40 0.2726
776.50 0.2725
776.60 0.2723
776.70 0.2722
776.80 0.2721
776.90 0.272
777.00 0.2719
777.10 0.2718
777.20 0.2716
777.30 0.2715
777.40 0.2714
777.50 0.2713
777.60 0.2712
777.70 0.2711
777.80 0.271
777.90 0.2708
778.00 0.2707
778.10 0.2706
778.20 0.2705
778.30 0.2704
778.40 0.2703
778.50 0.2701
778.60 0.27
778.70 0.2699
778.80 0.2698
778.90 0.2697
779.00 0.2696
779.10 0.2695
779.20 0.2693
779.30 0.2692
779.40 0.2691
779.50 0.269
779.60 0.2689
779.70 0.2688
779.80 0.2686
779.90 0.2685
780.00 0.2684
780.10 0.2683
780.20 0.2682
780.30 0.2681
780.40 0.268
780.50 0.2679
780.60 0.2677
780.70 0.2676
780.80 0.2675
780.90 0.2674
781.00 0.2673
781.10 0.2672
781.20 0.2671
781.30 0.2669
781.40 0.2668
781.50 0.2667
781.60 0.2666
781.70 0.2665
781.80 0.2664
781.90 0.2663
782.00 0.2662
782.10 0.266
782.20 0.2659
782.30 0.2658
782.40 0.2657
782.50 0.2656
782.60 0.2655
782.70 0.2654
782.80 0.2653
782.90 0.2651
783.00 0.265
783.10 0.2649
783.20 0.2648
783.30 0.2647
783.40 0.2646
783.50 0.2645
783.60 0.2644
783.70 0.2642
783.80 0.2641
783.90 0.264
784.00 0.2639
784.10 0.2638
784.20 0.2637
784.30 0.2636
784.40 0.2635
784.50 0.2634
784.60 0.2632
784.70 0.2631
784.80 0.263
784.90 0.2629
785.00 0.2628
785.10 0.2627
785.20 0.2626
785.30 0.2625
785.40 0.2624
785.50 0.2622
785.60 0.2621
785.70 0.262
785.80 0.2619
785.90 0.2618
786.00 0.2617
786.10 0.2616
786.20 0.2615
786.30 0.2614
786.40 0.2613
786.50 0.2611
786.60 0.261
786.70 0.2609
786.80 0.2608
786.90 0.2607
787.00 0.2606
787.10 0.2605
787.20 0.2604
787.30 0.2603
787.40 0.2601
787.50 0.26
787.60 0.2599
787.70 0.2598
787.80 0.2597
787.90 0.2596
788.00 0.2595
788.10 0.2594
788.20 0.2593
788.30 0.2592
788.40 0.2591
788.50 0.2589
788.60 0.2588
788.70 0.2587
788.80 0.2586
788.90 0.2585
789.00 0.2584
789.10 0.2583
789.20 0.2582
789.30 0.2581
789.40 0.258
789.50 0.2578
789.60 0.2577
789.70 0.2576
789.80 0.2575
789.90 0.2574
790.00 0.2573
790.10 0.2572
790.20 0.2571
790.30 0.257
790.40 0.2569
790.50 0.2568
790.60 0.2567
790.70 0.2566
790.80 0.2564
790.90 0.2563
791.00 0.2562
791.10 0.2561
791.20 0.256
791.30 0.2559
791.40 0.2558
791.50 0.2557
791.60 0.2556
791.70 0.2555
791.80 0.2554
791.90 0.2553
792.00 0.2552
792.10 0.2551
792.20 0.2549
792.30 0.2548
792.40 0.2547
792.50 0.2546
792.60 0.2545
792.70 0.2544
792.80 0.2543
792.90 0.2542
793.00 0.2541
793.10 0.254
793.20 0.2539
793.30 0.2538
793.40 0.2537
793.50 0.2536
793.60 0.2535
793.70 0.2533
793.80 0.2532
793.90 0.2531
794.00 0.253
794.10 0.2529
794.20 0.2528
794.30 0.2527
794.40 0.2526
794.50 0.2525
794.60 0.2524
794.70 0.2523
794.80 0.2522
794.90 0.2521
795.00 0.252
795.10 0.2519
795.20 0.2518
795.30 0.2517
795.40 0.2516
795.50 0.2514
795.60 0.2513
795.70 0.2512
795.80 0.2511
795.90 0.251
796.00 0.2509
796.10 0.2508
796.20 0.2507
796.30 0.2506
796.40 0.2505
796.50 0.2504
796.60 0.2503
796.70 0.2502
796.80 0.2501
796.90 0.25
797.00 0.2499
797.10 0.2498
797.20 0.2497
797.30 0.2496
797.40 0.2495
797.50 0.2493
797.60 0.2492
797.70 0.2491
797.80 0.249
797.90 0.2489
798.00 0.2488
798.10 0.2487
798.20 0.2486
798.30 0.2485
798.40 0.2484
798.50 0.2483
798.60 0.2482
798.70 0.2481
798.80 0.248
798.90 0.2479
799.00 0.2478
799.10 0.2477
799.20 0.2476
799.30 0.2475
799.40 0.2474
799.50 0.2473
799.60 0.2472
799.70 0.2471
799.80 0.247
799.90 0.2469
800.00 0.2468
800.10 0.2466
800.20 0.2465
800.30 0.2464
800.40 0.2463
800.50 0.2462
800.60 0.2461
800.70 0.246
800.80 0.2459
800.90 0.2458
801.00 0.2457
801.10 0.2456
801.20 0.2455
801.30 0.2454
801.40 0.2453
801.50 0.2452
801.60 0.2451
801.70 0.245
801.80 0.2449
801.90 0.2448
802.00 0.2447
802.10 0.2446
802.20 0.2445
802.30 0.2444
802.40 0.2443
802.50 0.2442
802.60 0.2441
802.70 0.244
802.80 0.2439
802.90 0.2438
803.00 0.2437
803.10 0.2436
803.20 0.2435
803.30 0.2434
803.40 0.2433
803.50 0.2432
803.60 0.2431
803.70 0.243
803.80 0.2429
803.90 0.2428
804.00 0.2427
804.10 0.2426
804.20 0.2425
804.30 0.2424
804.40 0.2423
804.50 0.2422
804.60 0.2421
804.70 0.242
804.80 0.2419
804.90 0.2418
805.00 0.2417
805.10 0.2416
805.20 0.2415
805.30 0.2414
805.40 0.2413
805.50 0.2412
805.60 0.2411
805.70 0.241
805.80 0.2409
805.90 0.2408
806.00 0.2407
806.10 0.2406
806.20 0.2405
806.30 0.2404
806.40 0.2403
806.50 0.2402
806.60 0.2401
806.70 0.24
806.80 0.2399
806.90 0.2398
807.00 0.2397
807.10 0.2396
807.20 0.2395
807.30 0.2394
807.40 0.2393
807.50 0.2392
807.60 0.2391
807.70 0.239
807.80 0.2389
807.90 0.2388
808.00 0.2387
808.10 0.2386
808.20 0.2385
808.30 0.2384
808.40 0.2383
808.50 0.2382
808.60 0.2381
808.70 0.238
808.80 0.2379
808.90 0.2378
809.00 0.2377
809.10 0.2376
809.20 0.2375
809.30 0.2374
809.40 0.2373
809.50 0.2372
809.60 0.2371
809.70 0.237
809.80 0.2369
809.90 0.2368
810.00 0.2367
810.10 0.2366
810.20 0.2365
810.30 0.2364
810.40 0.2363
810.50 0.2362
810.60 0.2361
810.70 0.236
810.80 0.236
810.90 0.2359
811.00 0.2358
811.10 0.2357
811.20 0.2356
811.30 0.2355
811.40 0.2354
811.50 0.2353
811.60 0.2352
811.70 0.2351
811.80 0.235
811.90 0.2349
812.00 0.2348
812.10 0.2347
812.20 0.2346
812.30 0.2345
812.40 0.2344
812.50 0.2343
812.60 0.2342
812.70 0.2341
812.80 0.234
812.90 0.2339
813.00 0.2338
813.10 0.2337
813.20 0.2336
813.30 0.2335
813.40 0.2334
813.50 0.2333
813.60 0.2333
813.70 0.2332
813.80 0.2331
813.90 0.233
814.00 0.2329
814.10 0.2328
814.20 0.2327
814.30 0.2326
814.40 0.2325
814.50 0.2324
814.60 0.2323
814.70 0.2322
814.80 0.2321
814.90 0.232
815.00 0.2319
815.10 0.2318
815.20 0.2317
815.30 0.2316
815.40 0.2315
815.50 0.2314
815.60 0.2313
815.70 0.2312
815.80 0.2312
815.90 0.2311
816.00 0.231
816.10 0.2309
816.20 0.2308
816.30 0.2307
816.40 0.2306
816.50 0.2305
816.60 0.2304
816.70 0.2303
816.80 0.2302
816.90 0.2301
817.00 0.23
817.10 0.2299
817.20 0.2298
817.30 0.2297
817.40 0.2296
817.50 0.2295
817.60 0.2294
817.70 0.2294
817.80 0.2293
817.90 0.2292
818.00 0.2291
818.10 0.229
818.20 0.2289
818.30 0.2288
818.40 0.2287
818.50 0.2286
818.60 0.2285
818.70 0.2284
818.80 0.2283
818.90 0.2282
819.00 0.2281
819.10 0.228
819.20 0.2279
819.30 0.2279
819.40 0.2278
819.50 0.2277
819.60 0.2276
819.70 0.2275
819.80 0.2274
819.90 0.2273
820.00 0.2272
820.10 0.2271
820.20 0.227
820.30 0.2269
820.40 0.2269
820.50 0.2268
820.60 0.2267
820.70 0.2266
820.80 0.2265
820.90 0.2264
821.00 0.2263
821.10 0.2262
821.20 0.2261
821.30 0.226
821.40 0.2259
821.50 0.2258
821.60 0.2257
821.70 0.2256
821.80 0.2256
821.90 0.2255
822.00 0.2254
822.10 0.2253
822.20 0.2252
822.30 0.2251
822.40 0.225
822.50 0.2249
822.60 0.2248
822.70 0.2247
822.80 0.2246
822.90 0.2245
823.00 0.2245
823.10 0.2244
823.20 0.2243
823.30 0.2242
823.40 0.2241
823.50 0.224
823.60 0.2239
823.70 0.2238
823.80 0.2237
823.90 0.2236
824.00 0.2235
824.10 0.2235
824.20 0.2234
824.30 0.2233
824.40 0.2232
824.50 0.2231
824.60 0.223
824.70 0.2229
824.80 0.2228
824.90 0.2227
825.00 0.2226
825.10 0.2225
825.20 0.2225
825.30 0.2224
825.40 0.2223
825.50 0.2222
825.60 0.2221
825.70 0.222
825.80 0.2219
825.90 0.2218
826.00 0.2217
826.10 0.2216
826.20 0.2216
826.30 0.2215
826.40 0.2214
826.50 0.2213
826.60 0.2212
826.70 0.2211
826.80 0.221
826.90 0.2209
827.00 0.2208
827.10 0.2207
827.20 0.2207
827.30 0.2206
827.40 0.2205
827.50 0.2204
827.60 0.2203
827.70 0.2202
827.80 0.2201
827.90 0.22
828.00 0.2199
828.10 0.2198
828.20 0.2198
828.30 0.2197
828.40 0.2196
828.50 0.2195
828.60 0.2194
828.70 0.2193
828.80 0.2192
828.90 0.2191
829.00 0.219
829.10 0.219
829.20 0.2189
829.30 0.2188
829.40 0.2187
829.50 0.2186
829.60 0.2185
829.70 0.2184
829.80 0.2183
829.90 0.2183
830.00 0.2182
830.10 0.2181
830.20 0.218
830.30 0.2179
830.40 0.2178
830.50 0.2177
830.60 0.2176
830.70 0.2175
830.80 0.2175
830.90 0.2174
831.00 0.2173
831.10 0.2172
831.20 0.2171
831.30 0.217
831.40 0.2169
831.50 0.2168
831.60 0.2168
831.70 0.2167
831.80 0.2166
831.90 0.2165
832.00 0.2164
832.10 0.2163
832.20 0.2162
832.30 0.2161
832.40 0.2161
832.50 0.216
832.60 0.2159
832.70 0.2158
832.80 0.2157
832.90 0.2156
833.00 0.2155
833.10 0.2154
833.20 0.2154
833.30 0.2153
833.40 0.2152
833.50 0.2151
833.60 0.215
833.70 0.2149
833.80 0.2148
833.90 0.2148
834.00 0.2147
834.10 0.2146
834.20 0.2145
834.30 0.2144
834.40 0.2143
834.50 0.2142
834.60 0.2141
834.70 0.2141
834.80 0.214
834.90 0.2139
835.00 0.2138
835.10 0.2137
835.20 0.2136
835.30 0.2135
835.40 0.2135
835.50 0.2134
835.60 0.2133
835.70 0.2132
835.80 0.2131
835.90 0.213
836.00 0.2129
836.10 0.2129
836.20 0.2128
836.30 0.2127
836.40 0.2126
836.50 0.2125
836.60 0.2124
836.70 0.2123
836.80 0.2123
836.90 0.2122
837.00 0.2121
837.10 0.212
837.20 0.2119
837.30 0.2118
837.40 0.2117
837.50 0.2117
837.60 0.2116
837.70 0.2115
837.80 0.2114
837.90 0.2113
838.00 0.2112
838.10 0.2111
838.20 0.2111
838.30 0.211
838.40 0.2109
838.50 0.2108
838.60 0.2107
838.70 0.2106
838.80 0.2106
838.90 0.2105
839.00 0.2104
839.10 0.2103
839.20 0.2102
839.30 0.2101
839.40 0.2101
839.50 0.21
839.60 0.2099
839.70 0.2098
839.80 0.2097
839.90 0.2096
840.00 0.2095
840.10 0.2095
840.20 0.2094
840.30 0.2093
840.40 0.2092
840.50 0.2091
840.60 0.209
840.70 0.209
840.80 0.2089
840.90 0.2088
841.00 0.2087
841.10 0.2086
841.20 0.2085
841.30 0.2085
841.40 0.2084
841.50 0.2083
841.60 0.2082
841.70 0.2081
841.80 0.208
841.90 0.208
842.00 0.2079
842.10 0.2078
842.20 0.2077
842.30 0.2076
842.40 0.2075
842.50 0.2075
842.60 0.2074
842.70 0.2073
842.80 0.2072
842.90 0.2071
843.00 0.207
843.10 0.207
843.20 0.2069
843.30 0.2068
843.40 0.2067
843.50 0.2066
843.60 0.2065
843.70 0.2065
843.80 0.2064
843.90 0.2063
844.00 0.2062
844.10 0.2061
844.20 0.2061
844.30 0.206
844.40 0.2059
844.50 0.2058
844.60 0.2057
844.70 0.2056
844.80 0.2056
844.90 0.2055
845.00 0.2054
845.10 0.2053
845.20 0.2052
845.30 0.2051
845.40 0.2051
845.50 0.205
845.60 0.2049
845.70 0.2048
845.80 0.2047
845.90 0.2047
846.00 0.2046
846.10 0.2045
846.20 0.2044
846.30 0.2043
846.40 0.2042
846.50 0.2042
846.60 0.2041
846.70 0.204
846.80 0.2039
846.90 0.2038
847.00 0.2038
847.10 0.2037
847.20 0.2036
847.30 0.2035
847.40 0.2034
847.50 0.2034
847.60 0.2033
847.70 0.2032
847.80 0.2031
847.90 0.203
848.00 0.203
848.10 0.2029
848.20 0.2028
848.30 0.2027
848.40 0.2026
848.50 0.2026
848.60 0.2025
848.70 0.2024
848.80 0.2023
848.90 0.2022
849.00 0.2022
849.10 0.2021
849.20 0.202
849.30 0.2019
849.40 0.2018
849.50 0.2018
849.60 0.2017
849.70 0.2016
849.80 0.2015
849.90 0.2015
850.00 0.2014
850.10 0.2013
850.20 0.2012
850.30 0.2011
850.40 0.2011
850.50 0.201
850.60 0.2009
850.70 0.2008
850.80 0.2007
850.90 0.2007
851.00 0.2006
851.10 0.2005
851.20 0.2004
851.30 0.2003
851.40 0.2003
851.50 0.2002
851.60 0.2001
851.70 0.2
851.80 0.2
851.90 0.1999
852.00 0.1998
852.10 0.1997
852.20 0.1996
852.30 0.1996
852.40 0.1995
852.50 0.1994
852.60 0.1993
852.70 0.1993
852.80 0.1992
852.90 0.1991
853.00 0.199
853.10 0.1989
853.20 0.1989
853.30 0.1988
853.40 0.1987
853.50 0.1986
853.60 0.1986
853.70 0.1985
853.80 0.1984
853.90 0.1983
854.00 0.1983
854.10 0.1982
854.20 0.1981
854.30 0.198
854.40 0.1979
854.50 0.1979
854.60 0.1978
854.70 0.1977
854.80 0.1976
854.90 0.1976
855.00 0.1975
855.10 0.1974
855.20 0.1973
855.30 0.1973
855.40 0.1972
855.50 0.1971
855.60 0.197
855.70 0.1969
855.80 0.1969
855.90 0.1968
856.00 0.1967
856.10 0.1966
856.20 0.1966
856.30 0.1965
856.40 0.1964
856.50 0.1963
856.60 0.1963
856.70 0.1962
856.80 0.1961
856.90 0.196
857.00 0.196
857.10 0.1959
857.20 0.1958
857.30 0.1957
857.40 0.1957
857.50 0.1956
857.60 0.1955
857.70 0.1954
857.80 0.1954
857.90 0.1953
858.00 0.1952
858.10 0.1951
858.20 0.1951
858.30 0.195
858.40 0.1949
858.50 0.1948
858.60 0.1948
858.70 0.1947
858.80 0.1946
858.90 0.1945
859.00 0.1945
859.10 0.1944
859.20 0.1943
859.30 0.1942
859.40 0.1942
859.50 0.1941
859.60 0.194
859.70 0.1939
859.80 0.1939
859.90 0.1938
860.00 0.1937
860.10 0.1936
860.20 0.1936
860.30 0.1935
860.40 0.1934
860.50 0.1933
860.60 0.1933
860.70 0.1932
860.80 0.1931
860.90 0.193
861.00 0.193
861.10 0.1929
861.20 0.1928
861.30 0.1928
861.40 0.1927
861.50 0.1926
861.60 0.1925
861.70 0.1925
861.80 0.1924
861.90 0.1923
862.00 0.1922
862.10 0.1922
862.20 0.1921
862.30 0.192
862.40 0.1919
862.50 0.1919
862.60 0.1918
862.70 0.1917
862.80 0.1917
862.90 0.1916
863.00 0.1915
863.10 0.1914
863.20 0.1914
863.30 0.1913
863.40 0.1912
863.50 0.1911
863.60 0.1911
863.70 0.191
863.80 0.1909
863.90 0.1909
864.00 0.1908
864.10 0.1907
864.20 0.1906
864.30 0.1906
864.40 0.1905
864.50 0.1904
864.60 0.1903
864.70 0.1903
864.80 0.1902
864.90 0.1901
865.00 0.1901
865.10 0.19
865.20 0.1899
865.30 0.1898
865.40 0.1898
865.50 0.1897
865.60 0.1896
865.70 0.1896
865.80 0.1895
865.90 0.1894
866.00 0.1893
866.10 0.1893
866.20 0.1892
866.30 0.1891
866.40 0.1891
866.50 0.189
866.60 0.1889
866.70 0.1888
866.80 0.1888
866.90 0.1887
867.00 0.1886
867.10 0.1886
867.20 0.1885
867.30 0.1884
867.40 0.1883
867.50 0.1883
867.60 0.1882
867.70 0.1881
867.80 0.1881
867.90 0.188
868.00 0.1879
868.10 0.1879
868.20 0.1878
868.30 0.1877
868.40 0.1877
868.50 0.1876
868.60 0.1875
868.70 0.1875
868.80 0.1874
868.90 0.1873
869.00 0.1873
869.10 0.1872
869.20 0.1871
869.30 0.1871
869.40 0.187
869.50 0.1869
869.60 0.1869
869.70 0.1868
869.80 0.1867
869.90 0.1866
870.00 0.1866
870.10 0.1865
870.20 0.1864
870.30 0.1864
870.40 0.1863
870.50 0.1862
870.60 0.1862
870.70 0.1861
870.80 0.186
870.90 0.186
871.00 0.1859
871.10 0.1858
871.20 0.1858
871.30 0.1857
871.40 0.1856
871.50 0.1856
871.60 0.1855
871.70 0.1854
871.80 0.1854
871.90 0.1853
872.00 0.1852
872.10 0.1852
872.20 0.1851
872.30 0.185
872.40 0.185
872.50 0.1849
872.60 0.1848
872.70 0.1848
872.80 0.1847
872.90 0.1846
873.00 0.1846
873.10 0.1845
873.20 0.1844
873.30 0.1844
873.40 0.1843
873.50 0.1842
873.60 0.1842
873.70 0.1841
873.80 0.184
873.90 0.184
874.00 0.1839
874.10 0.1838
874.20 0.1838
874.30 0.1837
874.40 0.1836
874.50 0.1836
874.60 0.1835
874.70 0.1834
874.80 0.1834
874.90 0.1833
875.00 0.1832
875.10 0.1832
875.20 0.1831
875.30 0.183
875.40 0.183
875.50 0.1829
875.60 0.1828
875.70 0.1828
875.80 0.1827
875.90 0.1826
876.00 0.1826
876.10 0.1825
876.20 0.1824
876.30 0.1824
876.40 0.1823
876.50 0.1822
876.60 0.1822
876.70 0.1821
876.80 0.182
876.90 0.182
877.00 0.1819
877.10 0.1818
877.20 0.1818
877.30 0.1817
877.40 0.1816
877.50 0.1816
877.60 0.1815
877.70 0.1815
877.80 0.1814
877.90 0.1813
878.00 0.1813
878.10 0.1812
878.20 0.1811
878.30 0.1811
878.40 0.181
878.50 0.181
878.60 0.1809
878.70 0.1808
878.80 0.1808
878.90 0.1807
879.00 0.1807
879.10 0.1806
879.20 0.1805
879.30 0.1805
879.40 0.1804
879.50 0.1803
879.60 0.1803
879.70 0.1802
879.80 0.1802
879.90 0.1801
880.00 0.18
880.10 0.18
880.20 0.1799
880.30 0.1798
880.40 0.1798
880.50 0.1797
880.60 0.1797
880.70 0.1796
880.80 0.1795
880.90 0.1795
881.00 0.1794
881.10 0.1794
881.20 0.1793
881.30 0.1792
881.40 0.1792
881.50 0.1791
881.60 0.179
881.70 0.179
881.80 0.1789
881.90 0.1789
882.00 0.1788
882.10 0.1787
882.20 0.1787
882.30 0.1786
882.40 0.1785
882.50 0.1785
882.60 0.1784
882.70 0.1783
882.80 0.1783
882.90 0.1782
883.00 0.1781
883.10 0.178
883.20 0.178
883.30 0.1779
883.40 0.1778
883.50 0.1778
883.60 0.1777
883.70 0.1776
883.80 0.1776
883.90 0.1775
884.00 0.1774
884.10 0.1774
884.20 0.1773
884.30 0.1772
884.40 0.1772
884.50 0.1771
884.60 0.177
884.70 0.1769
884.80 0.1769
884.90 0.1768
885.00 0.1767
885.10 0.1767
885.20 0.1766
885.30 0.1765
885.40 0.1765
885.50 0.1764
885.60 0.1763
885.70 0.1763
885.80 0.1762
885.90 0.1761
886.00 0.1761
886.10 0.176
886.20 0.1759
886.30 0.1759
886.40 0.1758
886.50 0.1757
886.60 0.1757
886.70 0.1756
886.80 0.1755
886.90 0.1755
887.00 0.1754
887.10 0.1753
887.20 0.1753
887.30 0.1752
887.40 0.1752
887.50 0.1751
887.60 0.1751
887.70 0.175
887.80 0.175
887.90 0.1749
888.00 0.1749
888.10 0.1748
888.20 0.1748
888.30 0.1747
888.40 0.1747
888.50 0.1746
888.60 0.1746
888.70 0.1745
888.80 0.1745
888.90 0.1744
889.00 0.1744
889.10 0.1743
889.20 0.1743
889.30 0.1742
889.40 0.1742
889.50 0.1741
889.60 0.1741
889.70 0.174
889.80 0.174
889.90 0.1739
890.00 0.1739
890.10 0.1738
890.20 0.1738
890.30 0.1737
890.40 0.1737
890.50 0.1736
890.60 0.1736
890.70 0.1735
890.80 0.1734
890.90 0.1734
891.00 0.1733
891.10 0.1733
891.20 0.1732
891.30 0.1732
891.40 0.1731
891.50 0.1731
891.60 0.173
891.70 0.173
891.80 0.1729
891.90 0.1729
892.00 0.1728
892.10 0.1728
892.20 0.1727
892.30 0.1727
892.40 0.1726
892.50 0.1726
892.60 0.1725
892.70 0.1724
892.80 0.1724
892.90 0.1723
893.00 0.1723
893.10 0.1722
893.20 0.1721
893.30 0.1721
893.40 0.172
893.50 0.172
893.60 0.1719
893.70 0.1719
893.80 0.1718
893.90 0.1717
894.00 0.1717
894.10 0.1716
894.20 0.1716
894.30 0.1715
894.40 0.1714
894.50 0.1714
894.60 0.1713
894.70 0.1713
894.80 0.1712
894.90 0.1712
895.00 0.1711
895.10 0.171
895.20 0.171
895.30 0.1709
895.40 0.1709
895.50 0.1708
895.60 0.1708
895.70 0.1707
895.80 0.1706
895.90 0.1706
896.00 0.1705
896.10 0.1705
896.20 0.1704
896.30 0.1704
896.40 0.1703
896.50 0.1702
896.60 0.1702
896.70 0.1701
896.80 0.1701
896.90 0.17
897.00 0.17
897.10 0.1699
897.20 0.1698
897.30 0.1697
897.40 0.1696
897.50 0.1695
897.60 0.1695
897.70 0.1694
897.80 0.1693
897.90 0.1692
898.00 0.1691
898.10 0.169
898.20 0.169
898.30 0.1689
898.40 0.1688
898.50 0.1687
898.60 0.1686
898.70 0.1685
898.80 0.1685
898.90 0.1684
899.00 0.1683
899.10 0.1682
899.20 0.1681
899.30 0.168
899.40 0.168
899.50 0.1679
899.60 0.1678
899.70 0.1677
899.80 0.1676
899.90 0.1675
900.00 0.1675
900.10 0.1674
900.20 0.1673
900.30 0.1672
900.40 0.1671
900.50 0.1671
900.60 0.167
900.70 0.1669
900.80 0.1668
900.90 0.1667
901.00 0.1666
901.10 0.1666
901.20 0.1665
901.30 0.1664
901.40 0.1663
901.50 0.1662
901.60 0.1662
901.70 0.1661
901.80 0.166
901.90 0.1659
902.00 0.1658
902.10 0.1658
902.20 0.1658
902.30 0.1657
902.40 0.1657
902.50 0.1657
902.60 0.1656
902.70 0.1656
902.80 0.1656
902.90 0.1655
903.00 0.1655
903.10 0.1655
903.20 0.1654
903.30 0.1654
903.40 0.1654
903.50 0.1653
903.60 0.1653
903.70 0.1653
903.80 0.1652
903.90 0.1652
904.00 0.1652
904.10 0.1651
904.20 0.1651
904.30 0.1651
904.40 0.165
904.50 0.165
904.60 0.165
904.70 0.1649
904.80 0.1649
904.90 0.1649
905.00 0.1648
905.10 0.1648
905.20 0.1648
905.30 0.1647
905.40 0.1647
905.50 0.1647
905.60 0.1646
905.70 0.1646
905.80 0.1646
905.90 0.1645
906.00 0.1645
906.10 0.1645
906.20 0.1644
906.30 0.1644
906.40 0.1644
906.50 0.1643
906.60 0.1643
906.70 0.1643
906.80 0.1642
906.90 0.1642
907.00 0.1642
907.10 0.1641
907.20 0.1641
907.30 0.164
907.40 0.164
907.50 0.1639
907.60 0.1639
907.70 0.1638
907.80 0.1638
907.90 0.1638
908.00 0.1637
908.10 0.1637
908.20 0.1636
908.30 0.1636
908.40 0.1635
908.50 0.1635
908.60 0.1634
908.70 0.1634
908.80 0.1634
908.90 0.1633
909.00 0.1633
909.10 0.1632
909.20 0.1632
909.30 0.1631
909.40 0.1631
909.50 0.163
909.60 0.163
909.70 0.1629
909.80 0.1629
909.90 0.1629
910.00 0.1628
910.10 0.1628
910.20 0.1627
910.30 0.1627
910.40 0.1626
910.50 0.1626
910.60 0.1625
910.70 0.1625
910.80 0.1625
910.90 0.1624
911.00 0.1624
911.10 0.1623
911.20 0.1623
911.30 0.1622
911.40 0.1622
911.50 0.1621
911.60 0.1621
911.70 0.162
911.80 0.162
911.90 0.162
912.00 0.1619
912.10 0.1619
912.20 0.1618
912.30 0.1617
912.40 0.1617
912.50 0.1616
912.60 0.1615
912.70 0.1615
912.80 0.1614
912.90 0.1614
913.00 0.1613
913.10 0.1612
913.20 0.1612
913.30 0.1611
913.40 0.161
913.50 0.161
913.60 0.1609
913.70 0.1609
913.80 0.1608
913.90 0.1607
914.00 0.1607
914.10 0.1606
914.20 0.1605
914.30 0.1605
914.40 0.1604
914.50 0.1604
914.60 0.1603
914.70 0.1602
914.80 0.1602
914.90 0.1601
915.00 0.16
915.10 0.16
915.20 0.1599
915.30 0.1599
915.40 0.1598
915.50 0.1597
915.60 0.1597
915.70 0.1596
915.80 0.1596
915.90 0.1595
916.00 0.1594
916.10 0.1594
916.20 0.1593
916.30 0.1592
916.40 0.1592
916.50 0.1591
916.60 0.1591
916.70 0.159
916.80 0.1589
916.90 0.1589
917.00 0.1588
917.10 0.1587
917.20 0.1586
917.30 0.1585
917.40 0.1585
917.50 0.1584
917.60 0.1583
917.70 0.1582
917.80 0.1581
917.90 0.158
918.00 0.1579
918.10 0.1578
918.20 0.1578
918.30 0.1577
918.40 0.1576
918.50 0.1575
918.60 0.1574
918.70 0.1573
918.80 0.1572
918.90 0.1571
919.00 0.1571
919.10 0.157
919.20 0.1569
919.30 0.1568
919.40 0.1567
919.50 0.1566
919.60 0.1565
919.70 0.1564
919.80 0.1564
919.90 0.1563
920.00 0.1562
920.10 0.1561
920.20 0.156
920.30 0.1559
920.40 0.1558
920.50 0.1557
920.60 0.1557
920.70 0.1556
920.80 0.1555
920.90 0.1554
921.00 0.1553
921.10 0.1552
921.20 0.1551
921.30 0.155
921.40 0.155
921.50 0.1549
921.60 0.1548
921.70 0.1547
921.80 0.1546
921.90 0.1545
922.00 0.1544
922.10 0.1544
922.20 0.1543
922.30 0.1542
922.40 0.1541
922.50 0.154
922.60 0.1539
922.70 0.1539
922.80 0.1538
922.90 0.1537
923.00 0.1536
923.10 0.1535
923.20 0.1535
923.30 0.1534
923.40 0.1533
923.50 0.1532
923.60 0.1531
923.70 0.153
923.80 0.153
923.90 0.1529
924.00 0.1528
924.10 0.1527
924.20 0.1526
924.30 0.1526
924.40 0.1525
924.50 0.1524
924.60 0.1523
924.70 0.1522
924.80 0.1521
924.90 0.1521
925.00 0.152
925.10 0.1519
925.20 0.1518
925.30 0.1517
925.40 0.1517
925.50 0.1516
925.60 0.1515
925.70 0.1514
925.80 0.1513
925.90 0.1513
926.00 0.1512
926.10 0.1511
926.20 0.151
926.30 0.1509
926.40 0.1508
926.50 0.1508
926.60 0.1507
926.70 0.1506
926.80 0.1505
926.90 0.1504
927.00 0.1504
927.10 0.1504
927.20 0.1504
927.30 0.1504
927.40 0.1504
927.50 0.1504
927.60 0.1504
927.70 0.1504
927.80 0.1504
927.90 0.1504
928.00 0.1504
928.10 0.1504
928.20 0.1504
928.30 0.1504
928.40 0.1504
928.50 0.1504
928.60 0.1504
928.70 0.1504
928.80 0.1504
928.90 0.1504
929.00 0.1504
929.10 0.1504
929.20 0.1504
929.30 0.1504
929.40 0.1504
929.50 0.1504
929.60 0.1504
929.70 0.1504
929.80 0.1504
929.90 0.1504
930.00 0.1504
930.10 0.1504
930.20 0.1504
930.30 0.1504
930.40 0.1505
930.50 0.1505
930.60 0.1505
930.70 0.1505
930.80 0.1505
930.90 0.1505
931.00 0.1505
931.10 0.1505
931.20 0.1505
931.30 0.1505
931.40 0.1505
931.50 0.1505
931.60 0.1505
931.70 0.1505
931.80 0.1505
931.90 0.1505
932.00 0.1505
932.10 0.1505
932.20 0.1504
932.30 0.1504
932.40 0.1504
932.50 0.1504
932.60 0.1504
932.70 0.1503
932.80 0.1503
932.90 0.1503
933.00 0.1503
933.10 0.1502
933.20 0.1502
933.30 0.1502
933.40 0.1502
933.50 0.1501
933.60 0.1501
933.70 0.1501
933.80 0.1501
933.90 0.15
934.00 0.15
934.10 0.15
934.20 0.15
934.30 0.1499
934.40 0.1499
934.50 0.1499
934.60 0.1498
934.70 0.1498
934.80 0.1498
934.90 0.1497
935.00 0.1497
935.10 0.1497
935.20 0.1496
935.30 0.1496
935.40 0.1495
935.50 0.1495
935.60 0.1495
935.70 0.1494
935.80 0.1494
935.90 0.1494
936.00 0.1493
936.10 0.1493
936.20 0.1493
936.30 0.1492
936.40 0.1492
936.50 0.1491
936.60 0.1491
936.70 0.1491
936.80 0.149
936.90 0.149
937.00 0.149
937.10 0.1489
937.20 0.1489
937.30 0.1488
937.40 0.1488
937.50 0.1487
937.60 0.1487
937.70 0.1487
937.80 0.1486
937.90 0.1486
938.00 0.1485
938.10 0.1485
938.20 0.1484
938.30 0.1484
938.40 0.1483
938.50 0.1483
938.60 0.1482
938.70 0.1482
938.80 0.1481
938.90 0.1481
939.00 0.148
939.10 0.148
939.20 0.1479
939.30 0.1479
939.40 0.1478
939.50 0.1478
939.60 0.1477
939.70 0.1477
939.80 0.1476
939.90 0.1476
940.00 0.1475
940.10 0.1475
940.20 0.1474
940.30 0.1474
940.40 0.1473
940.50 0.1472
940.60 0.1472
940.70 0.1471
940.80 0.147
940.90 0.147
941.00 0.1469
941.10 0.1469
941.20 0.1468
941.30 0.1467
941.40 0.1467
941.50 0.1466
941.60 0.1466
941.70 0.1465
941.80 0.1464
941.90 0.1464
942.00 0.1463
942.10 0.1463
942.20 0.1462
942.30 0.1461
942.40 0.146
942.50 0.146
942.60 0.1459
942.70 0.1458
942.80 0.1457
942.90 0.1457
943.00 0.1456
943.10 0.1455
943.20 0.1454
943.30 0.1453
943.40 0.1453
943.50 0.1452
943.60 0.1451
943.70 0.145
943.80 0.145
943.90 0.1449
944.00 0.1448
944.10 0.1447
944.20 0.1447
944.30 0.1446
944.40 0.1445
944.50 0.1444
944.60 0.1443
944.70 0.1442
944.80 0.1441
944.90 0.144
945.00 0.1439
945.10 0.1438
945.20 0.1437
945.30 0.1437
945.40 0.1435
945.50 0.1434
945.60 0.1433
945.70 0.1432
945.80 0.1431
945.90 0.143
946.00 0.1429
946.10 0.1428
946.20 0.1426
946.30 0.1425
946.40 0.1424
946.50 0.1423
946.60 0.1422
946.70 0.1421
946.80 0.142
946.90 0.1419
947.00 0.1417
947.10 0.1416
947.20 0.1415
947.30 0.1414
947.40 0.1412
947.50 0.1411
947.60 0.1409
947.70 0.1408
947.80 0.1406
947.90 0.1405
948.00 0.1403
948.10 0.1402
948.20 0.14
948.30 0.1399
948.40 0.1397
948.50 0.1396
948.60 0.1394
948.70 0.1393
948.80 0.1391
948.90 0.139
949.00 0.1388
949.10 0.1387
949.20 0.1385
949.30 0.1384
949.40 0.1382
949.50 0.1381
949.60 0.1379
949.70 0.1377
949.80 0.1376
949.90 0.1374
950.00 0.1372
950.10 0.1371
950.20 0.1369
950.30 0.1367
950.40 0.1366
950.50 0.1364
950.60 0.1363
950.70 0.1361
950.80 0.1359
950.90 0.1358
951.00 0.1356
951.10 0.1354
951.20 0.1353
951.30 0.1351
951.40 0.135
951.50 0.1348
951.60 0.1347
951.70 0.1345
951.80 0.1344
951.90 0.1343
952.00 0.1341
952.10 0.134
952.20 0.1339
952.30 0.1338
952.40 0.1337
952.50 0.1336
952.60 0.1335
952.70 0.1334
952.80 0.1333
952.90 0.1333
953.00 0.1333
953.10 0.1333
953.20 0.1333
953.30 0.1333
953.40 0.1332
953.50 0.1332
953.60 0.1335
953.70 0.1338
953.80 0.1342
953.90 0.1345
954.00 0.1349
954.10 0.1353
954.20 0.1356
954.30 0.1345
954.40 0.1332
954.50 0.1328
954.60 0.1323
954.70 0.1319
954.80 0.1315
954.90 0.1311
955.00 0.1308
955.10 0.1304
955.20 0.1302
955.30 0.13
955.40 0.1298
955.50 0.1296
955.60 0.1294
955.70 0.1292
955.80 0.1291
955.90 0.1291
956.00 0.1291
956.10 0.1291
956.20 0.1291
956.30 0.1291
956.40 0.1291
956.50 0.1291
956.60 0.1291
956.70 0.1291
956.80 0.1291
956.90 0.1291
957.00 0.1291
957.10 0.1291
957.20 0.1292
957.30 0.1292
957.40 0.1293
957.50 0.1293
957.60 0.1294
957.70 0.1295
957.80 0.1295
957.90 0.1296
958.00 0.1296
958.10 0.1297
958.20 0.1298
958.30 0.1298
958.40 0.1299
958.50 0.13
958.60 0.13
958.70 0.1301
958.80 0.1302
958.90 0.1302
959.00 0.1303
959.10 0.1303
959.20 0.1304
959.30 0.1305
959.40 0.1305
959.50 0.1306
959.60 0.1307
959.70 0.1307
959.80 0.1308
959.90 0.1308
960.00 0.1309
960.10 0.131
960.20 0.131
960.30 0.1311
960.40 0.1312
960.50 0.1312
960.60 0.1313
960.70 0.1314
960.80 0.1314
960.90 0.1315
961.00 0.1315
961.10 0.1316
961.20 0.1317
961.30 0.1317
961.40 0.1318
961.50 0.1318
961.60 0.1319
961.70 0.1319
961.80 0.132
961.90 0.132
962.00 0.1321
962.10 0.1321
962.20 0.1322
962.30 0.1322
962.40 0.1322
962.50 0.1323
962.60 0.1323
962.70 0.1324
962.80 0.1324
962.90 0.1324
963.00 0.1325
963.10 0.1325
963.20 0.1326
963.30 0.1326
963.40 0.1326
963.50 0.1327
963.60 0.1327
963.70 0.1327
963.80 0.1327
963.90 0.1328
964.00 0.1328
964.10 0.1328
964.20 0.1328
964.30 0.1329
964.40 0.1329
964.50 0.1329
964.60 0.1329
964.70 0.1329
964.80 0.1329
964.90 0.133
965.00 0.133
965.10 0.133
965.20 0.133
965.30 0.133
965.40 0.133
965.50 0.133
965.60 0.1331
965.70 0.1331
965.80 0.1331
965.90 0.1331
966.00 0.1331
966.10 0.1331
966.20 0.1331
966.30 0.1332
966.40 0.1332
966.50 0.1332
966.60 0.1332
966.70 0.1332
966.80 0.1332
966.90 0.1332
967.00 0.1332
967.10 0.1332
967.20 0.1332
967.30 0.1332
967.40 0.1332
967.50 0.1332
967.60 0.1331
967.70 0.1331
967.80 0.1331
967.90 0.1331
968.00 0.1331
968.10 0.1331
968.20 0.1331
968.30 0.1331
968.40 0.1331
968.50 0.1331
968.60 0.1331
968.70 0.1331
968.80 0.1331
968.90 0.133
969.00 0.133
969.10 0.133
969.20 0.133
969.30 0.133
969.40 0.133
969.50 0.133
969.60 0.1329
969.70 0.1329
969.80 0.1329
969.90 0.1329
970.00 0.1329
970.10 0.1329
970.20 0.1329
970.30 0.1328
970.40 0.1328
970.50 0.1328
970.60 0.1328
970.70 0.1328
970.80 0.1327
970.90 0.1327
971.00 0.1327
971.10 0.1327
971.20 0.1327
971.30 0.1326
971.40 0.1326
971.50 0.1326
971.60 0.1326
971.70 0.1325
971.80 0.1325
971.90 0.1325
972.00 0.1325
972.10 0.1324
972.20 0.1324
972.30 0.1324
972.40 0.1324
972.50 0.1323
972.60 0.1323
972.70 0.1323
972.80 0.1322
972.90 0.1322
973.00 0.1322
973.10 0.1322
973.20 0.1321
973.30 0.1321
973.40 0.1321
973.50 0.132
973.60 0.132
973.70 0.132
973.80 0.132
973.90 0.1319
974.00 0.1319
974.10 0.1319
974.20 0.1318
974.30 0.1318
974.40 0.1318
974.50 0.1317
974.60 0.1317
974.70 0.1317
974.80 0.1316
974.90 0.1316
975.00 0.1316
975.10 0.1315
975.20 0.1315
975.30 0.1314
975.40 0.1314
975.50 0.1314
975.60 0.1313
975.70 0.1313
975.80 0.1313
975.90 0.1312
976.00 0.1312
976.10 0.1312
976.20 0.1311
976.30 0.1311
976.40 0.1311
976.50 0.131
976.60 0.131
976.70 0.1309
976.80 0.1309
976.90 0.1309
977.00 0.1308
977.10 0.1308
977.20 0.1307
977.30 0.1307
977.40 0.1307
977.50 0.1306
977.60 0.1306
977.70 0.1305
977.80 0.1305
977.90 0.1304
978.00 0.1304
978.10 0.1303
978.20 0.1303
978.30 0.1303
978.40 0.1302
978.50 0.1302
978.60 0.1301
978.70 0.1301
978.80 0.13
978.90 0.13
979.00 0.1299
979.10 0.1299
979.20 0.1298
979.30 0.1298
979.40 0.1298
979.50 0.1297
979.60 0.1297
979.70 0.1296
979.80 0.1296
979.90 0.1295
980.00 0.1295
980.10 0.1294
980.20 0.1294
980.30 0.1294
980.40 0.1293
980.50 0.1293
980.60 0.1292
980.70 0.1292
980.80 0.1291
980.90 0.1291
981.00 0.129
981.10 0.129
981.20 0.129
981.30 0.1289
981.40 0.1289
981.50 0.1288
981.60 0.1288
981.70 0.1287
981.80 0.1287
981.90 0.1286
982.00 0.1286
982.10 0.1285
982.20 0.1285
982.30 0.1284
982.40 0.1284
982.50 0.1283
982.60 0.1283
982.70 0.1282
982.80 0.1282
982.90 0.1281
983.00 0.128
983.10 0.128
983.20 0.1279
983.30 0.1279
983.40 0.1278
983.50 0.1278
983.60 0.1277
983.70 0.1277
983.80 0.1276
983.90 0.1275
984.00 0.1275
984.10 0.1274
984.20 0.1274
984.30 0.1273
984.40 0.1273
984.50 0.1272
984.60 0.1272
984.70 0.1271
984.80 0.127
984.90 0.127
985.00 0.1269
985.10 0.1268
985.20 0.1268
985.30 0.1267
985.40 0.1266
985.50 0.1266
985.60 0.1265
985.70 0.1265
985.80 0.1264
985.90 0.1263
986.00 0.1263
986.10 0.1262
986.20 0.1261
986.30 0.1261
986.40 0.126
986.50 0.1259
986.60 0.1259
986.70 0.1258
986.80 0.1257
986.90 0.1257
987.00 0.1256
987.10 0.1255
987.20 0.1255
987.30 0.1254
987.40 0.1253
987.50 0.1252
987.60 0.1252
987.70 0.1251
987.80 0.125
987.90 0.1249
988.00 0.1248
988.10 0.1248
988.20 0.1247
988.30 0.1246
988.40 0.1245
988.50 0.1245
988.60 0.1244
988.70 0.1243
988.80 0.1242
988.90 0.1241
989.00 0.124
989.10 0.1239
989.20 0.1239
989.30 0.1238
989.40 0.1237
989.50 0.1236
989.60 0.1235
989.70 0.1234
989.80 0.1233
989.90 0.1232
990.00 0.1231
990.10 0.123
990.20 0.1229
990.30 0.1229
990.40 0.1228
990.50 0.1227
990.60 0.1226
990.70 0.1225
990.80 0.1224
990.90 0.1223
991.00 0.1222
991.10 0.1221
991.20 0.1219
991.30 0.1218
991.40 0.1217
991.50 0.1216
991.60 0.1215
991.70 0.1214
991.80 0.1213
991.90 0.1212
992.00 0.1211
992.10 0.121
992.20 0.1208
992.30 0.1207
992.40 0.1206
992.50 0.1205
992.60 0.1204
992.70 0.1202
992.80 0.1201
992.90 0.1199
993.00 0.1198
993.10 0.1197
993.20 0.1195
993.30 0.1194
993.40 0.1193
993.50 0.1191
993.60 0.119
993.70 0.1188
993.80 0.1187
993.90 0.1186
994.00 0.1184
994.10 0.1183
994.20 0.1181
994.30 0.118
994.40 0.1179
994.50 0.1177
994.60 0.1176
994.70 0.1174
994.80 0.1173
994.90 0.1171
995.00 0.1169
995.10 0.1168
995.20 0.1166
995.30 0.1164
995.40 0.1163
995.50 0.1161
995.60 0.116
995.70 0.1158
995.80 0.1156
995.90 0.1154
996.00 0.1152
996.10 0.115
996.20 0.1149
996.30 0.1147
996.40 0.1145
996.50 0.1143
996.60 0.1141
996.70 0.1139
996.80 0.1138
996.90 0.1136
997.00 0.1134
997.10 0.1132
997.20 0.113
997.30 0.1128
997.40 0.1126
997.50 0.1124
997.60 0.1122
997.70 0.112
997.80 0.1118
997.90 0.1115
998.00 0.1113
998.10 0.1111
998.20 0.1109
998.30 0.1107
998.40 0.1104
998.50 0.1102
998.60 0.11
998.70 0.1098
998.80 0.1096
998.90 0.1094
999.00 0.1091
999.10 0.1089
999.20 0.1087
999.30 0.1085
999.40 0.1083
999.50 0.1081
999.60 0.1078
999.70 0.1076
999.80 0.1074
999.90 0.1072
1000.00 0.107
1000.10 0.1067
1000.20 0.1065
1000.30 0.1063
1000.40 0.1061
1000.50 0.1059
1000.60 0.1056
1000.70 0.1054
1000.80 0.1052
1000.90 0.105
1001.00 0.1048
1001.10 0.1046
1001.20 0.1043
1001.30 0.1041
1001.40 0.1039
1001.50 0.1037
1001.60 0.1035
1001.70 0.1033
1001.80 0.1031
1001.90 0.1029
1002.00 0.1027
1002.10 0.1026
1002.20 0.1024
1002.30 0.1023
1002.40 0.1021
1002.50 0.102
1002.60 0.1019
1002.70 0.1017
1002.80 0.1016
1002.90 0.1015
1003.00 0.1013
1003.10 0.1012
1003.20 0.1013
1003.30 0.1014
1003.40 0.1015
1003.50 0.1016
1003.60 0.1017
1003.70 0.1019
1003.80 0.102
1003.90 0.1023
1004.00 0.1026
1004.10 0.103
1004.20 0.1033
1004.30 0.1038
1004.40 0.1043
1004.50 0.1047
1004.60 0.1051
1004.70 0.1017
1004.80 0.1013
1004.90 0.1008
1005.00 0.1004
1005.10 0.09997
1005.20 0.09962
1005.30 0.09927
1005.40 0.09893
1005.50 0.09873
1005.60 0.09859
1005.70 0.09845
1005.80 0.09831
1005.90 0.09817
1006.00 0.09803
1006.10 0.09789
1006.20 0.09787
1006.30 0.09789
1006.40 0.0979
1006.50 0.09792
1006.60 0.09793
1006.70 0.09795
1006.80 0.09796
1006.90 0.09798
1007.00 0.09799
1007.10 0.09805
1007.20 0.09811
1007.30 0.09817
1007.40 0.09822
1007.50 0.09828
1007.60 0.09834
1007.70 0.09843
1007.80 0.09854
1007.90 0.09864
1008.00 0.09875
1008.10 0.09886
1008.20 0.09896
1008.30 0.09907
1008.40 0.09917
1008.50 0.09928
1008.60 0.09939
1008.70 0.09949
1008.80 0.0996
1008.90 0.0997
1009.00 0.09981
1009.10 0.09992
1009.20 0.1
1009.30 0.1001
1009.40 0.1002
1009.50 0.1003
1009.60 0.1004
1009.70 0.1006
1009.80 0.1007
1009.90 0.1008
1010.00 0.1009
1010.10 0.101
1010.20 0.1011
1010.30 0.1012
1010.40 0.1013
1010.50 0.1014
1010.60 0.1015
1010.70 0.1016
1010.80 0.1017
1010.90 0.1018
1011.00 0.1019
1011.10 0.102
1011.20 0.1021
1011.30 0.1022
1011.40 0.1023
1011.50 0.1024
1011.60 0.1026
1011.70 0.1026
1011.80 0.1027
1011.90 0.1028
1012.00 0.1029
1012.10 0.103
1012.20 0.1031
1012.30 0.1032
1012.40 0.1033
1012.50 0.1033
1012.60 0.1034
1012.70 0.1035
1012.80 0.1036
1012.90 0.1037
1013.00 0.1038
1013.10 0.1038
1013.20 0.1039
1013.30 0.104
1013.40 0.1041
1013.50 0.1042
1013.60 0.1042
1013.70 0.1043
1013.80 0.1044
1013.90 0.1045
1014.00 0.1045
1014.10 0.1046
1014.20 0.1047
1014.30 0.1047
1014.40 0.1048
1014.50 0.1049
1014.60 0.1049
1014.70 0.105
1014.80 0.105
1014.90 0.1051
1015.00 0.1051
1015.10 0.1052
1015.20 0.1053
1015.30 0.1053
1015.40 0.1054
1015.50 0.1054
1015.60 0.1055
1015.70 0.1055
1015.80 0.1056
1015.90 0.1056
1016.00 0.1057
1016.10 0.1057
1016.20 0.1058
1016.30 0.1059
1016.40 0.1059
1016.50 0.106
1016.60 0.106
1016.70 0.1061
1016.80 0.1061
1016.90 0.1061
1017.00 0.1062
1017.10 0.1062
1017.20 0.1063
1017.30 0.1063
1017.40 0.1063
1017.50 0.1064
1017.60 0.1064
1017.70 0.1065
1017.80 0.1065
1017.90 0.1065
1018.00 0.1066
1018.10 0.1066
1018.20 0.1066
1018.30 0.1067
1018.40 0.1067
1018.50 0.1067
1018.60 0.1068
1018.70 0.1068
1018.80 0.1068
1018.90 0.1069
1019.00 0.1069
1019.10 0.1069
1019.20 0.1069
1019.30 0.107
1019.40 0.107
1019.50 0.107
1019.60 0.107
1019.70 0.1071
1019.80 0.1071
1019.90 0.1071
1020.00 0.1071
1020.10 0.1072
1020.20 0.1072
1020.30 0.1072
1020.40 0.1072
1020.50 0.1073
1020.60 0.1073
1020.70 0.1073
1020.80 0.1073
1020.90 0.1074
1021.00 0.1074
1021.10 0.1074
1021.20 0.1074
1021.30 0.1074
1021.40 0.1074
1021.50 0.1075
1021.60 0.1075
1021.70 0.1075
1021.80 0.1075
1021.90 0.1075
1022.00 0.1075
1022.10 0.1075
1022.20 0.1075
1022.30 0.1076
1022.40 0.1076
1022.50 0.1076
1022.60 0.1076
1022.70 0.1076
1022.80 0.1076
1022.90 0.1076
1023.00 0.1076
1023.10 0.1076
1023.20 0.1076
1023.30 0.1076
1023.40 0.1076
1023.50 0.1077
1023.60 0.1077
1023.70 0.1077
1023.80 0.1077
1023.90 0.1077
1024.00 0.1077
1024.10 0.1077
1024.20 0.1077
1024.30 0.1077
1024.40 0.1077
1024.50 0.1077
1024.60 0.1077
1024.70 0.1077
1024.80 0.1077
1024.90 0.1077
1025.00 0.1077
1025.10 0.1077
1025.20 0.1077
1025.30 0.1077
1025.40 0.1077
1025.50 0.1077
1025.60 0.1077
1025.70 0.1077
1025.80 0.1077
1025.90 0.1077
1026.00 0.1077
1026.10 0.1077
1026.20 0.1077
1026.30 0.1077
1026.40 0.1077
1026.50 0.1077
1026.60 0.1077
1026.70 0.1077
1026.80 0.1077
1026.90 0.1077
1027.00 0.1077
1027.10 0.1077
1027.20 0.1077
1027.30 0.1077
1027.40 0.1077
1027.50 0.1077
1027.60 0.1077
1027.70 0.1076
1027.80 0.1076
1027.90 0.1076
1028.00 0.1076
1028.10 0.1076
1028.20 0.1076
1028.30 0.1076
1028.40 0.1076
1028.50 0.1076
1028.60 0.1075
1028.70 0.1075
1028.80 0.1075
1028.90 0.1075
1029.00 0.1075
1029.10 0.1075
1029.20 0.1075
1029.30 0.1075
1029.40 0.1075
1029.50 0.1074
1029.60 0.1074
1029.70 0.1074
1029.80 0.1074
1029.90 0.1074
1030.00 0.1074
1030.10 0.1074
1030.20 0.1074
1030.30 0.1074
1030.40 0.1073
1030.50 0.1073
1030.60 0.1073
1030.70 0.1073
1030.80 0.1073
1030.90 0.1073
1031.00 0.1073
1031.10 0.1073
1031.20 0.1073
1031.30 0.1072
1031.40 0.1072
1031.50 0.1072
1031.60 0.1072
1031.70 0.1072
1031.80 0.1072
1031.90 0.1072
1032.00 0.1072
1032.10 0.1072
1032.20 0.1071
1032.30 0.1071
1032.40 0.1071
1032.50 0.1071
1032.60 0.107
1032.70 0.107
1032.80 0.107
1032.90 0.107
1033.00 0.107
1033.10 0.1069
1033.20 0.1069
1033.30 0.1069
1033.40 0.1069
1033.50 0.1069
1033.60 0.1068
1033.70 0.1068
1033.80 0.1068
1033.90 0.1068
1034.00 0.1068
1034.10 0.1067
1034.20 0.1067
1034.30 0.1067
1034.40 0.1067
1034.50 0.1067
1034.60 0.1066
1034.70 0.1066
1034.80 0.1066
1034.90 0.1066
1035.00 0.1066
1035.10 0.1065
1035.20 0.1065
1035.30 0.1065
1035.40 0.1065
1035.50 0.1065
1035.60 0.1064
1035.70 0.1064
1035.80 0.1064
1035.90 0.1064
1036.00 0.1064
1036.10 0.1063
1036.20 0.1063
1036.30 0.1063
1036.40 0.1063
1036.50 0.1063
1036.60 0.1062
1036.70 0.1062
1036.80 0.1062
1036.90 0.1062
1037.00 0.1062
1037.10 0.1061
1037.20 0.1061
1037.30 0.1061
1037.40 0.1061
1037.50 0.106
1037.60 0.106
1037.70 0.106
1037.80 0.1059
1037.90 0.1059
1038.00 0.1059
1038.10 0.1059
1038.20 0.1058
1038.30 0.1058
1038.40 0.1058
1038.50 0.1058
1038.60 0.1057
1038.70 0.1057
1038.80 0.1057
1038.90 0.1057
1039.00 0.1056
1039.10 0.1056
1039.20 0.1056
1039.30 0.1055
1039.40 0.1055
1039.50 0.1055
1039.60 0.1055
1039.70 0.1054
1039.80 0.1054
1039.90 0.1054
1040.00 0.1054
1040.10 0.1053
1040.20 0.1053
1040.30 0.1053
1040.40 0.1053
1040.50 0.1052
1040.60 0.1052
1040.70 0.1052
1040.80 0.1051
1040.90 0.1051
1041.00 0.1051
1041.10 0.1051
1041.20 0.105
1041.30 0.105
1041.40 0.105
1041.50 0.105
1041.60 0.1049
1041.70 0.1049
1041.80 0.1049
1041.90 0.1049
1042.00 0.1048
1042.10 0.1048
1042.20 0.1048
1042.30 0.1047
1042.40 0.1047
1042.50 0.1047
1042.60 0.1046
1042.70 0.1046
1042.80 0.1046
1042.90 0.1045
1043.00 0.1045
1043.10 0.1045
1043.20 0.1045
1043.30 0.1044
1043.40 0.1044
1043.50 0.1044
1043.60 0.1043
1043.70 0.1043
1043.80 0.1043
1043.90 0.1042
1044.00 0.1042
1044.10 0.1042
1044.20 0.1041
1044.30 0.1041
1044.40 0.1041
1044.50 0.104
1044.60 0.104
1044.70 0.104
1044.80 0.1039
1044.90 0.1039
1045.00 0.1039
1045.10 0.1039
1045.20 0.1038
1045.30 0.1038
1045.40 0.1038
1045.50 0.1037
1045.60 0.1037
1045.70 0.1037
1045.80 0.1036
1045.90 0.1036
1046.00 0.1036
1046.10 0.1035
1046.20 0.1035
1046.30 0.1035
1046.40 0.1034
1046.50 0.1034
1046.60 0.1034
1046.70 0.1034
1046.80 0.1033
1046.90 0.1033
1047.00 0.1033
1047.10 0.1032
1047.20 0.1032
1047.30 0.1032
1047.40 0.1031
1047.50 0.1031
1047.60 0.103
1047.70 0.103
1047.80 0.103
1047.90 0.1029
1048.00 0.1029
1048.10 0.1029
1048.20 0.1028
1048.30 0.1028
1048.40 0.1028
1048.50 0.1027
1048.60 0.1027
1048.70 0.1027
1048.80 0.1026
1048.90 0.1026
1049.00 0.1026
1049.10 0.1025
1049.20 0.1025
1049.30 0.1024
1049.40 0.1024
1049.50 0.1024
1049.60 0.1023
1049.70 0.1023
1049.80 0.1023
1049.90 0.1022
1050.00 0.1022
1050.10 0.1022
1050.20 0.1021
1050.30 0.1021
1050.40 0.1021
1050.50 0.102
1050.60 0.102
1050.70 0.102
1050.80 0.1019
1050.90 0.1019
1051.00 0.1018
1051.10 0.1018
1051.20 0.1018
1051.30 0.1017
1051.40 0.1017
1051.50 0.1017
1051.60 0.1016
1051.70 0.1016
1051.80 0.1016
1051.90 0.1015
1052.00 0.1015
1052.10 0.1015
1052.20 0.1014
1052.30 0.1014
1052.40 0.1013
1052.50 0.1013
1052.60 0.1013
1052.70 0.1012
1052.80 0.1012
1052.90 0.1011
1053.00 0.1011
1053.10 0.1011
1053.20 0.101
1053.30 0.101
1053.40 0.1009
1053.50 0.1009
1053.60 0.1009
1053.70 0.1008
1053.80 0.1008
1053.90 0.1007
1054.00 0.1007
1054.10 0.1007
1054.20 0.1006
1054.30 0.1006
1054.40 0.1005
1054.50 0.1005
1054.60 0.1005
1054.70 0.1004
1054.80 0.1004
1054.90 0.1004
1055.00 0.1003
1055.10 0.1003
1055.20 0.1002
1055.30 0.1002
1055.40 0.1002
1055.50 0.1001
1055.60 0.1001
1055.70 0.1
1055.80 0.1
1055.90 0.09996
1056.00 0.09992
1056.10 0.09988
1056.20 0.09984
1056.30 0.0998
1056.40 0.09976
1056.50 0.09972
1056.60 0.09968
1056.70 0.09964
1056.80 0.0996
1056.90 0.09956
1057.00 0.09953
1057.10 0.09948
1057.20 0.09944
1057.30 0.09939
1057.40 0.09935
1057.50 0.0993
1057.60 0.09926
1057.70 0.09921
1057.80 0.09917
1057.90 0.09913
1058.00 0.09908
1058.10 0.09904
1058.20 0.09899
1058.30 0.09895
1058.40 0.0989
1058.50 0.09886
1058.60 0.09882
1058.70 0.09877
1058.80 0.09873
1058.90 0.09868
1059.00 0.09864
1059.10 0.09859
1059.20 0.09855
1059.30 0.09851
1059.40 0.09846
1059.50 0.09842
1059.60 0.09837
1059.70 0.09833
1059.80 0.09829
1059.90 0.09824
1060.00 0.0982
1060.10 0.09815
1060.20 0.09811
1060.30 0.09807
1060.40 0.09802
1060.50 0.09798
1060.60 0.09793
1060.70 0.09789
1060.80 0.09785
1060.90 0.0978
1061.00 0.09776
1061.10 0.09771
1061.20 0.09767
1061.30 0.09763
1061.40 0.09758
1061.50 0.09754
1061.60 0.0975
1061.70 0.09745
1061.80 0.09741
1061.90 0.09736
1062.00 0.09732
1062.10 0.09727
1062.20 0.09722
1062.30 0.09717
1062.40 0.09712
1062.50 0.09706
1062.60 0.09701
1062.70 0.09696
1062.80 0.09691
1062.90 0.09686
1063.00 0.09681
1063.10 0.09676
1063.20 0.09671
1063.30 0.09665
1063.40 0.0966
1063.50 0.09655
1063.60 0.0965
1063.70 0.09645
1063.80 0.0964
1063.90 0.09635
1064.00 0.0963
1064.10 0.09625
1064.20 0.09619
1064.30 0.09614
1064.40 0.09609
1064.50 0.09604
1064.60 0.09599
1064.70 0.09594
1064.80 0.09589
1064.90 0.09584
1065.00 0.09579
1065.10 0.09574
1065.20 0.09569
1065.30 0.09563
1065.40 0.09558
1065.50 0.09553
1065.60 0.09548
1065.70 0.09543
1065.80 0.09538
1065.90 0.09533
1066.00 0.09528
1066.10 0.09523
1066.20 0.09518
1066.30 0.09513
1066.40 0.09508
1066.50 0.09503
1066.60 0.09498
1066.70 0.09493
1066.80 0.09487
1066.90 0.09482
1067.00 0.09477
1067.10 0.09471
1067.20 0.09465
1067.30 0.09459
1067.40 0.09453
1067.50 0.09447
1067.60 0.09441
1067.70 0.09435
1067.80 0.09429
1067.90 0.09423
1068.00 0.09417
1068.10 0.09411
1068.20 0.09405
1068.30 0.09398
1068.40 0.09392
1068.50 0.09386
1068.60 0.0938
1068.70 0.09374
1068.80 0.09368
1068.90 0.09362
1069.00 0.09356
1069.10 0.0935
1069.20 0.09344
1069.30 0.09338
1069.40 0.09332
1069.50 0.09326
1069.60 0.0932
1069.70 0.09314
1069.80 0.09308
1069.90 0.09302
1070.00 0.09296
1070.10 0.0929
1070.20 0.09284
1070.30 0.09278
1070.40 0.09272
1070.50 0.09266
1070.60 0.0926
1070.70 0.09254
1070.80 0.09248
1070.90 0.09242
1071.00 0.09236
1071.10 0.0923
1071.20 0.09224
1071.30 0.09218
1071.40 0.09212
1071.50 0.09206
1071.60 0.092
1071.70 0.09194
1071.80 0.09188
1071.90 0.09182
1072.00 0.09176
1072.10 0.09169
1072.20 0.09162
1072.30 0.09155
1072.40 0.09148
1072.50 0.09141
1072.60 0.09134
1072.70 0.09127
1072.80 0.0912
1072.90 0.09114
1073.00 0.09107
1073.10 0.091
1073.20 0.09093
1073.30 0.09086
1073.40 0.09079
1073.50 0.09072
1073.60 0.09064
1073.70 0.09056
1073.80 0.09049
1073.90 0.09041
1074.00 0.09033
1074.10 0.09025
1074.20 0.09018
1074.30 0.0901
1074.40 0.09002
1074.50 0.08995
1074.60 0.08987
1074.70 0.08979
1074.80 0.08971
1074.90 0.08964
1075.00 0.08956
1075.10 0.08948
1075.20 0.0894
1075.30 0.08933
1075.40 0.08925
1075.50 0.08917
1075.60 0.0891
1075.70 0.08902
1075.80 0.08894
1075.90 0.08887
1076.00 0.08879
1076.10 0.08871
1076.20 0.08863
1076.30 0.08856
1076.40 0.08848
1076.50 0.0884
1076.60 0.08833
1076.70 0.08825
1076.80 0.08817
1076.90 0.0881
1077.00 0.08802
1077.10 0.08794
1077.20 0.08785
1077.30 0.08777
1077.40 0.08768
1077.50 0.08759
1077.60 0.0875
1077.70 0.08741
1077.80 0.08732
1077.90 0.08723
1078.00 0.08714
1078.10 0.08705
1078.20 0.08695
1078.30 0.08686
1078.40 0.08677
1078.50 0.08668
1078.60 0.08659
1078.70 0.0865
1078.80 0.08641
1078.90 0.08632
1079.00 0.08622
1079.10 0.08613
1079.20 0.08604
1079.30 0.08595
1079.40 0.08586
1079.50 0.08577
1079.60 0.08566
1079.70 0.08556
1079.80 0.08546
1079.90 0.08535
1080.00 0.08525
1080.10 0.08515
1080.20 0.08505
1080.30 0.08494
1080.40 0.08484
1080.50 0.08474
1080.60 0.08464
1080.70 0.08453
1080.80 0.08443
1080.90 0.08433
1081.00 0.08423
1081.10 0.08412
1081.20 0.08402
1081.30 0.08392
1081.40 0.08382
1081.50 0.08371
1081.60 0.0836
1081.70 0.08349
1081.80 0.08338
1081.90 0.08326
1082.00 0.08315
1082.10 0.08303
1082.20 0.08291
1082.30 0.0828
1082.40 0.08268
1082.50 0.08256
1082.60 0.08244
1082.70 0.08232
1082.80 0.0822
1082.90 0.08208
1083.00 0.08196
1083.10 0.08184
1083.20 0.08172
1083.30 0.0816
1083.40 0.08149
1083.50 0.08136
1083.60 0.08123
1083.70 0.0811
1083.80 0.08097
1083.90 0.08084
1084.00 0.08071
1084.10 0.08058
1084.20 0.08045
1084.30 0.08032
1084.40 0.0802
1084.50 0.08006
1084.60 0.07991
1084.70 0.07977
1084.80 0.07962
1084.90 0.07948
1085.00 0.07933
1085.10 0.07919
1085.20 0.07904
1085.30 0.0789
1085.40 0.07875
1085.50 0.07861
1085.60 0.07846
1085.70 0.07832
1085.80 0.07817
1085.90 0.07803
1086.00 0.07788
1086.10 0.07774
1086.20 0.07759
1086.30 0.07745
1086.40 0.0773
1086.50 0.07715
1086.60 0.07699
1086.70 0.07683
1086.80 0.07667
1086.90 0.07651
1087.00 0.07635
1087.10 0.07618
1087.20 0.07601
1087.30 0.07584
1087.40 0.07567
1087.50 0.0755
1087.60 0.07533
1087.70 0.07516
1087.80 0.07499
1087.90 0.07483
1088.00 0.07466
1088.10 0.07449
1088.20 0.07432
1088.30 0.07415
1088.40 0.07398
1088.50 0.0738
1088.60 0.07362
1088.70 0.07344
1088.80 0.07326
1088.90 0.07308
1089.00 0.0729
1089.10 0.07272
1089.20 0.07254
1089.30 0.07236
1089.40 0.07218
1089.50 0.072
1089.60 0.07182
1089.70 0.07164
1089.80 0.07146
1089.90 0.07128
1090.00 0.0711
1090.10 0.07092
1090.20 0.07074
1090.30 0.07056
1090.40 0.07039
1090.50 0.07021
1090.60 0.07006
1090.70 0.06991
1090.80 0.06975
1090.90 0.0696
1091.00 0.06944
1091.10 0.06929
1091.20 0.06914
1091.30 0.06898
1091.40 0.06883
1091.50 0.06868
1091.60 0.06852
1091.70 0.06837
1091.80 0.06822
1091.90 0.06806
1092.00 0.06792
1092.10 0.06783
1092.20 0.06774
1092.30 0.06765
1092.40 0.06756
1092.50 0.06747
1092.60 0.06738
1092.70 0.06735
1092.80 0.06744
1092.90 0.06753
1093.00 0.06762
1093.10 0.06776
1093.20 0.06803
1093.30 0.06831
1093.40 0.06866
1093.50 0.06877
1093.60 0.06837
1093.70 0.06804
1093.80 0.06773
1093.90 0.06748
1094.00 0.06736
1094.10 0.06723
1094.20 0.0671
1094.30 0.06703
1094.40 0.06708
1094.50 0.06713
1094.60 0.06718
1094.70 0.06724
1094.80 0.06729
1094.90 0.06734
1095.00 0.06741
1095.10 0.06752
1095.20 0.06763
1095.30 0.06774
1095.40 0.06785
1095.50 0.06796
1095.60 0.06807
1095.70 0.06818
1095.80 0.06829
1095.90 0.0684
1096.00 0.06851
1096.10 0.06862
1096.20 0.06873
1096.30 0.06884
1096.40 0.06895
1096.50 0.06907
1096.60 0.0692
1096.70 0.06933
1096.80 0.06947
1096.90 0.0696
1097.00 0.06973
1097.10 0.06987
1097.20 0.07
1097.30 0.07013
1097.40 0.07026
1097.50 0.07039
1097.60 0.07052
1097.70 0.07065
1097.80 0.07079
1097.90 0.07092
1098.00 0.07105
1098.10 0.07118
1098.20 0.07131
1098.30 0.07144
1098.40 0.07157
1098.50 0.0717
1098.60 0.07181
1098.70 0.07193
1098.80 0.07204
1098.90 0.07216
1099.00 0.07227
1099.10 0.07239
1099.20 0.0725
1099.30 0.07262
1099.40 0.07273
1099.50 0.07285
1099.60 0.07296
1099.70 0.07308
1099.80 0.07319
1099.90 0.07331
1100.00 0.07342
1100.10 0.07354
1100.20 0.07365
1100.30 0.07377
1100.40 0.07388
1100.50 0.07399
1100.60 0.07408
1100.70 0.07418
1100.80 0.07427
1100.90 0.07436
1101.00 0.07446
1101.10 0.07455
1101.20 0.07464
1101.30 0.07474
1101.40 0.07483
1101.50 0.07492
1101.60 0.07502
1101.70 0.07511
1101.80 0.0752
1101.90 0.0753
1102.00 0.07539
1102.10 0.07547
1102.20 0.07555
1102.30 0.07564
1102.40 0.07572
1102.50 0.0758
1102.60 0.07587
1102.70 0.07594
1102.80 0.07602
1102.90 0.07609
1103.00 0.07617
1103.10 0.07624
1103.20 0.07631
1103.30 0.07639
1103.40 0.07646
1103.50 0.07653
1103.60 0.07659
1103.70 0.07665
1103.80 0.07671
1103.90 0.07677
1104.00 0.07683
1104.10 0.07689
1104.20 0.07695
1104.30 0.07701
1104.40 0.07707
1104.50 0.07713
1104.60 0.07719
1104.70 0.07725
1104.80 0.07731
1104.90 0.07737
1105.00 0.07743
1105.10 0.07749
1105.20 0.07755
1105.30 0.07761
1105.40 0.07767
1105.50 0.07773
1105.60 0.07777
1105.70 0.07782
1105.80 0.07786
1105.90 0.07791
1106.00 0.07796
1106.10 0.078
1106.20 0.07805
1106.30 0.0781
1106.40 0.07814
1106.50 0.07819
1106.60 0.07824
1106.70 0.07828
1106.80 0.07833
1106.90 0.07838
1107.00 0.07842
1107.10 0.07846
1107.20 0.0785
1107.30 0.07854
1107.40 0.07858
1107.50 0.07862
1107.60 0.07865
1107.70 0.07869
1107.80 0.07872
1107.90 0.07875
1108.00 0.07878
1108.10 0.07882
1108.20 0.07885
1108.30 0.07888
1108.40 0.07891
1108.50 0.07895
1108.60 0.07898
1108.70 0.07901
1108.80 0.07904
1108.90 0.07908
1109.00 0.07911
1109.10 0.07914
1109.20 0.07918
1109.30 0.07921
1109.40 0.07924
1109.50 0.07927
1109.60 0.07929
1109.70 0.07931
1109.80 0.07934
1109.90 0.07936
1110.00 0.07938
1110.10 0.0794
1110.20 0.07942
1110.30 0.07945
1110.40 0.07947
1110.50 0.07949
1110.60 0.07951
1110.70 0.07953
1110.80 0.07956
1110.90 0.07958
1111.00 0.0796
1111.10 0.07962
1111.20 0.07964
1111.30 0.07967
1111.40 0.07969
1111.50 0.07971
1111.60 0.07973
1111.70 0.07975
1111.80 0.07978
1111.90 0.0798
1112.00 0.07982
1112.10 0.07983
1112.20 0.07985
1112.30 0.07986
1112.40 0.07988
1112.50 0.07989
1112.60 0.07991
1112.70 0.07992
1112.80 0.07993
1112.90 0.07995
1113.00 0.07996
1113.10 0.07998
1113.20 0.07999
1113.30 0.08001
1113.40 0.08002
1113.50 0.08003
1113.60 0.08004
1113.70 0.08005
1113.80 0.08005
1113.90 0.08006
1114.00 0.08007
1114.10 0.08007
1114.20 0.08008
1114.30 0.08009
1114.40 0.08009
1114.50 0.0801
1114.60 0.08011
1114.70 0.08011
1114.80 0.08012
1114.90 0.08013
1115.00 0.08013
1115.10 0.08014
1115.20 0.08015
1115.30 0.08016
1115.40 0.08016
1115.50 0.08017
1115.60 0.08018
1115.70 0.08018
1115.80 0.08019
1115.90 0.0802
1116.00 0.0802
1116.10 0.08021
1116.20 0.08022
1116.30 0.08022
1116.40 0.08023
1116.50 0.08024
1116.60 0.08024
1116.70 0.08025
1116.80 0.08026
1116.90 0.08026
1117.00 0.08027
1117.10 0.08027
1117.20 0.08027
1117.30 0.08026
1117.40 0.08026
1117.50 0.08026
1117.60 0.08025
1117.70 0.08025
1117.80 0.08025
1117.90 0.08025
1118.00 0.08024
1118.10 0.08024
1118.20 0.08024
1118.30 0.08024
1118.40 0.08023
1118.50 0.08023
1118.60 0.08023
1118.70 0.08022
1118.80 0.08022
1118.90 0.08022
1119.00 0.08022
1119.10 0.08021
1119.20 0.08021
1119.30 0.08021
1119.40 0.08021
1119.50 0.0802
1119.60 0.0802
1119.70 0.0802
1119.80 0.0802
1119.90 0.08019
1120.00 0.08019
1120.10 0.08019
1120.20 0.08018
1120.30 0.08018
1120.40 0.08018
1120.50 0.08018
1120.60 0.08017
1120.70 0.08017
1120.80 0.08017
1120.90 0.08017
1121.00 0.08016
1121.10 0.08016
1121.20 0.08016
1121.30 0.08015
1121.40 0.08015
1121.50 0.08015
1121.60 0.08015
1121.70 0.08014
1121.80 0.08014
1121.90 0.08014
1122.00 0.08014
1122.10 0.08013
1122.20 0.08012
1122.30 0.08011
1122.40 0.0801
1122.50 0.08009
1122.60 0.08008
1122.70 0.08007
1122.80 0.08006
1122.90 0.08005
1123.00 0.08004
1123.10 0.08003
1123.20 0.08002
1123.30 0.08001
1123.40 0.08
1123.50 0.07999
1123.60 0.07998
1123.70 0.07997
1123.80 0.07996
1123.90 0.07995
1124.00 0.07994
1124.10 0.07993
1124.20 0.07992
1124.30 0.07991
1124.40 0.0799
1124.50 0.07989
1124.60 0.07988
1124.70 0.07987
1124.80 0.07986
1124.90 0.07985
1125.00 0.07984
1125.10 0.07983
1125.20 0.07982
1125.30 0.07981
1125.40 0.0798
1125.50 0.07979
1125.60 0.07978
1125.70 0.07977
1125.80 0.07976
1125.90 0.07975
1126.00 0.07974
1126.10 0.07973
1126.20 0.07972
1126.30 0.07971
1126.40 0.0797
1126.50 0.07969
1126.60 0.07968
1126.70 0.07967
1126.80 0.07966
1126.90 0.07965
1127.00 0.07964
1127.10 0.07963
1127.20 0.07961
1127.30 0.0796
1127.40 0.07958
1127.50 0.07957
1127.60 0.07955
1127.70 0.07954
1127.80 0.07952
1127.90 0.07951
1128.00 0.0795
1128.10 0.07948
1128.20 0.07947
1128.30 0.07945
1128.40 0.07944
1128.50 0.07942
1128.60 0.07941
1128.70 0.07939
1128.80 0.07938
1128.90 0.07936
1129.00 0.07935
1129.10 0.07933
1129.20 0.07932
1129.30 0.07931
1129.40 0.07929
1129.50 0.07928
1129.60 0.07926
1129.70 0.07925
1129.80 0.07923
1129.90 0.07922
1130.00 0.0792
1130.10 0.07919
1130.20 0.07917
1130.30 0.07916
1130.40 0.07915
1130.50 0.07913
1130.60 0.07912
1130.70 0.0791
1130.80 0.07909
1130.90 0.07907
1131.00 0.07906
1131.10 0.07904
1131.20 0.07903
1131.30 0.07901
1131.40 0.079
1131.50 0.07899
1131.60 0.07897
1131.70 0.07896
1131.80 0.07894
1131.90 0.07893
1132.00 0.07891
1132.10 0.0789
1132.20 0.07888
1132.30 0.07886
1132.40 0.07884
1132.50 0.07883
1132.60 0.07881
1132.70 0.07879
1132.80 0.07877
1132.90 0.07876
1133.00 0.07874
1133.10 0.07872
1133.20 0.0787
1133.30 0.07869
1133.40 0.07867
1133.50 0.07865
1133.60 0.07864
1133.70 0.07862
1133.80 0.0786
1133.90 0.07858
1134.00 0.07857
1134.10 0.07855
1134.20 0.07853
1134.30 0.07851
1134.40 0.0785
1134.50 0.07848
1134.60 0.07846
1134.70 0.07844
1134.80 0.07843
1134.90 0.07841
1135.00 0.07839
1135.10 0.07838
1135.20 0.07836
1135.30 0.07834
1135.40 0.07832
1135.50 0.07831
1135.60 0.07829
1135.70 0.07827
1135.80 0.07826
1135.90 0.07824
1136.00 0.07822
1136.10 0.0782
1136.20 0.07819
1136.30 0.07817
1136.40 0.07815
1136.50 0.07813
1136.60 0.07812
1136.70 0.0781
1136.80 0.07808
1136.90 0.07807
1137.00 0.07805
1137.10 0.07803
1137.20 0.07801
1137.30 0.07799
1137.40 0.07797
1137.50 0.07795
1137.60 0.07793
1137.70 0.07791
1137.80 0.07789
1137.90 0.07787
1138.00 0.07786
1138.10 0.07784
1138.20 0.07782
1138.30 0.0778
1138.40 0.07778
1138.50 0.07776
1138.60 0.07774
1138.70 0.07772
1138.80 0.0777
1138.90 0.07768
1139.00 0.07766
1139.10 0.07764
1139.20 0.07762
1139.30 0.0776
1139.40 0.07759
1139.50 0.07757
1139.60 0.07755
1139.70 0.07753
1139.80 0.07751
1139.90 0.07749
1140.00 0.07747
1140.10 0.07745
1140.20 0.07743
1140.30 0.07741
1140.40 0.07739
1140.50 0.07737
1140.60 0.07736
1140.70 0.07734
1140.80 0.07732
1140.90 0.0773
1141.00 0.07728
1141.10 0.07726
1141.20 0.07724
1141.30 0.07722
1141.40 0.0772
1141.50 0.07718
1141.60 0.07716
1141.70 0.07714
1141.80 0.07713
1141.90 0.07711
1142.00 0.07709
1142.10 0.07707
1142.20 0.07705
1142.30 0.07703
1142.40 0.07701
1142.50 0.07699
1142.60 0.07696
1142.70 0.07694
1142.80 0.07692
1142.90 0.0769
1143.00 0.07688
1143.10 0.07686
1143.20 0.07684
1143.30 0.07682
1143.40 0.0768
1143.50 0.07678
1143.60 0.07676
1143.70 0.07674
1143.80 0.07672
1143.90 0.0767
1144.00 0.07668
1144.10 0.07666
1144.20 0.07664
1144.30 0.07662
1144.40 0.0766
1144.50 0.07658
1144.60 0.07656
1144.70 0.07654
1144.80 0.07652
1144.90 0.0765
1145.00 0.07648
1145.10 0.07646
1145.20 0.07644
1145.30 0.07642
1145.40 0.0764
1145.50 0.07638
1145.60 0.07636
1145.70 0.07634
1145.80 0.07632
1145.90 0.0763
1146.00 0.07627
1146.10 0.07625
1146.20 0.07623
1146.30 0.07621
1146.40 0.07619
1146.50 0.07617
1146.60 0.07615
1146.70 0.07613
1146.80 0.07611
1146.90 0.07609
1147.00 0.07607
1147.10 0.07605
1147.20 0.07603
1147.30 0.07601
1147.40 0.07599
1147.50 0.07597
1147.60 0.07595
1147.70 0.07593
1147.80 0.07591
1147.90 0.07589
1148.00 0.07586
1148.10 0.07584
1148.20 0.07582
1148.30 0.0758
1148.40 0.07578
1148.50 0.07576
1148.60 0.07574
1148.70 0.07572
1148.80 0.0757
1148.90 0.07568
1149.00 0.07566
1149.10 0.07563
1149.20 0.07561
1149.30 0.07559
1149.40 0.07557
1149.50 0.07555
1149.60 0.07553
1149.70 0.07551
1149.80 0.07549
1149.90 0.07547
1150.00 0.07545
1150.10 0.07543
1150.20 0.07541
1150.30 0.07539
1150.40 0.07536
1150.50 0.07534
1150.60 0.07532
1150.70 0.0753
1150.80 0.07528
1150.90 0.07526
1151.00 0.07524
1151.10 0.07522
1151.20 0.0752
1151.30 0.07518
1151.40 0.07516
1151.50 0.07514
1151.60 0.07512
1151.70 0.0751
1151.80 0.07508
1151.90 0.07505
1152.00 0.07503
1152.10 0.07501
1152.20 0.07499
1152.30 0.07497
1152.40 0.07495
1152.50 0.07493
1152.60 0.07491
1152.70 0.07488
1152.80 0.07486
1152.90 0.07484
1153.00 0.07482
1153.10 0.0748
1153.20 0.07478
1153.30 0.07476
1153.40 0.07474
1153.50 0.07471
1153.60 0.07469
1153.70 0.07467
1153.80 0.07465
1153.90 0.07463
1154.00 0.07461
1154.10 0.07459
1154.20 0.07457
1154.30 0.07454
1154.40 0.07452
1154.50 0.0745
1154.60 0.07448
1154.70 0.07446
1154.80 0.07444
1154.90 0.07442
1155.00 0.0744
1155.10 0.07437
1155.20 0.07435
1155.30 0.07433
1155.40 0.07431
1155.50 0.07429
1155.60 0.07427
1155.70 0.07425
1155.80 0.07423
1155.90 0.07421
1156.00 0.07418
1156.10 0.07416
1156.20 0.07414
1156.30 0.07412
1156.40 0.0741
1156.50 0.07408
1156.60 0.07406
1156.70 0.07404
1156.80 0.07402
1156.90 0.07399
1157.00 0.07397
1157.10 0.07395
1157.20 0.07393
1157.30 0.07391
1157.40 0.07389
1157.50 0.07387
1157.60 0.07384
1157.70 0.07382
1157.80 0.0738
1157.90 0.07378
1158.00 0.07376
1158.10 0.07374
1158.20 0.07372
1158.30 0.07369
1158.40 0.07367
1158.50 0.07365
1158.60 0.07363
1158.70 0.07361
1158.80 0.07359
1158.90 0.07357
1159.00 0.07355
1159.10 0.07352
1159.20 0.0735
1159.30 0.07348
1159.40 0.07346
1159.50 0.07344
1159.60 0.07342
1159.70 0.0734
1159.80 0.07337
1159.90 0.07335
1160.00 0.07333
1160.10 0.07331
1160.20 0.07329
1160.30 0.07327
1160.40 0.07325
1160.50 0.07323
1160.60 0.0732
1160.70 0.07318
1160.80 0.07316
1160.90 0.07314
1161.00 0.07312
1161.10 0.0731
1161.20 0.07308
1161.30 0.07306
1161.40 0.07303
1161.50 0.07301
1161.60 0.07299
1161.70 0.07297
1161.80 0.07295
1161.90 0.07293
1162.00 0.07291
1162.10 0.07289
1162.20 0.07287
1162.30 0.07284
1162.40 0.07282
1162.50 0.0728
1162.60 0.07278
1162.70 0.07276
1162.80 0.07274
1162.90 0.07272
1163.00 0.07269
1163.10 0.07267
1163.20 0.07265
1163.30 0.07263
1163.40 0.07261
1163.50 0.07259
1163.60 0.07257
1163.70 0.07254
1163.80 0.07252
1163.90 0.0725
1164.00 0.07248
1164.10 0.07246
1164.20 0.07244
1164.30 0.07242
1164.40 0.0724
1164.50 0.07237
1164.60 0.07235
1164.70 0.07233
1164.80 0.07231
1164.90 0.07229
1165.00 0.07227
1165.10 0.07225
1165.20 0.07223
1165.30 0.0722
1165.40 0.07218
1165.50 0.07216
1165.60 0.07214
1165.70 0.07212
1165.80 0.0721
1165.90 0.07208
1166.00 0.07206
1166.10 0.07204
1166.20 0.07201
1166.30 0.07199
1166.40 0.07197
1166.50 0.07195
1166.60 0.07193
1166.70 0.07191
1166.80 0.07189
1166.90 0.07187
1167.00 0.07185
1167.10 0.07182
1167.20 0.0718
1167.30 0.07178
1167.40 0.07176
1167.50 0.07174
1167.60 0.07172
1167.70 0.0717
1167.80 0.07167
1167.90 0.07165
1168.00 0.07163
1168.10 0.07161
1168.20 0.07159
1168.30 0.07157
1168.40 0.07155
1168.50 0.07153
1168.60 0.0715
1168.70 0.07148
1168.80 0.07146
1168.90 0.07144
1169.00 0.07142
1169.10 0.0714
1169.20 0.07138
1169.30 0.07136
1169.40 0.07133
1169.50 0.07131
1169.60 0.07129
1169.70 0.07127
1169.80 0.07125
1169.90 0.07123
1170.00 0.07121
1170.10 0.07119
1170.20 0.07116
1170.30 0.07114
1170.40 0.07112
1170.50 0.0711
1170.60 0.07108
1170.70 0.07106
1170.80 0.07104
1170.90 0.07102
1171.00 0.07099
1171.10 0.07097
1171.20 0.07095
1171.30 0.07093
1171.40 0.07091
1171.50 0.07089
1171.60 0.07087
1171.70 0.07085
1171.80 0.07083
1171.90 0.0708
1172.00 0.07078
1172.10 0.07076
1172.20 0.07074
1172.30 0.07072
1172.40 0.0707
1172.50 0.07068
1172.60 0.07066
1172.70 0.07064
1172.80 0.07061
1172.90 0.07059
1173.00 0.07057
1173.10 0.07055
1173.20 0.07053
1173.30 0.07051
1173.40 0.07049
1173.50 0.07047
1173.60 0.07045
1173.70 0.07042
1173.80 0.0704
1173.90 0.07038
1174.00 0.07036
1174.10 0.07034
1174.20 0.07032
1174.30 0.0703
1174.40 0.07028
1174.50 0.07026
1174.60 0.07023
1174.70 0.07021
1174.80 0.07019
1174.90 0.07017
1175.00 0.07015
1175.10 0.07013
1175.20 0.07011
1175.30 0.07009
1175.40 0.07007
1175.50 0.07005
1175.60 0.07002
1175.70 0.07
1175.80 0.06998
1175.90 0.06996
1176.00 0.06994
1176.10 0.06992
1176.20 0.0699
1176.30 0.06988
1176.40 0.06986
1176.50 0.06984
1176.60 0.06981
1176.70 0.06979
1176.80 0.06977
1176.90 0.06975
1177.00 0.06973
1177.10 0.06971
1177.20 0.06969
1177.30 0.06967
1177.40 0.06965
1177.50 0.06963
1177.60 0.0696
1177.70 0.06958
1177.80 0.06956
1177.90 0.06954
1178.00 0.06952
1178.10 0.0695
1178.20 0.06948
1178.30 0.06946
1178.40 0.06944
1178.50 0.06942
1178.60 0.0694
1178.70 0.06937
1178.80 0.06935
1178.90 0.06933
1179.00 0.06931
1179.10 0.06929
1179.20 0.06927
1179.30 0.06925
1179.40 0.06923
1179.50 0.06921
1179.60 0.06919
1179.70 0.06917
1179.80 0.06914
1179.90 0.06912
1180.00 0.0691
1180.10 0.06908
1180.20 0.06906
1180.30 0.06904
1180.40 0.06902
1180.50 0.069
1180.60 0.06898
1180.70 0.06896
1180.80 0.06894
1180.90 0.06892
1181.00 0.06889
1181.10 0.06887
1181.20 0.06885
1181.30 0.06883
1181.40 0.06881
1181.50 0.06879
1181.60 0.06877
1181.70 0.06875
1181.80 0.06873
1181.90 0.06871
1182.00 0.06869
1182.10 0.06867
1182.20 0.06865
1182.30 0.06862
1182.40 0.0686
1182.50 0.06858
1182.60 0.06856
1182.70 0.06854
1182.80 0.06852
1182.90 0.0685
1183.00 0.06848
1183.10 0.06846
1183.20 0.06844
1183.30 0.06842
1183.40 0.0684
1183.50 0.06838
1183.60 0.06835
1183.70 0.06833
1183.80 0.06831
1183.90 0.06829
1184.00 0.06827
1184.10 0.06825
1184.20 0.06823
1184.30 0.06821
1184.40 0.06819
1184.50 0.06817
1184.60 0.06815
1184.70 0.06813
1184.80 0.06811
1184.90 0.06809
1185.00 0.06807
1185.10 0.06804
1185.20 0.06802
1185.30 0.068
1185.40 0.06798
1185.50 0.06796
1185.60 0.06794
1185.70 0.06792
1185.80 0.0679
1185.90 0.06788
1186.00 0.06786
1186.10 0.06784
1186.20 0.06782
1186.30 0.0678
1186.40 0.06778
1186.50 0.06776
1186.60 0.06774
1186.70 0.06772
1186.80 0.0677
1186.90 0.06767
1187.00 0.06765
1187.10 0.06763
1187.20 0.06761
1187.30 0.06759
1187.40 0.06757
1187.50 0.06755
1187.60 0.06753
1187.70 0.06751
1187.80 0.06749
1187.90 0.06747
1188.00 0.06745
1188.10 0.06743
1188.20 0.06741
1188.30 0.06739
1188.40 0.06737
1188.50 0.06735
1188.60 0.06732
1188.70 0.0673
1188.80 0.06728
1188.90 0.06726
1189.00 0.06724
1189.10 0.06722
1189.20 0.0672
1189.30 0.06718
1189.40 0.06716
1189.50 0.06714
1189.60 0.06712
1189.70 0.0671
1189.80 0.06708
1189.90 0.06706
1190.00 0.06704
1190.10 0.06702
1190.20 0.067
1190.30 0.06698
1190.40 0.06696
1190.50 0.06694
1190.60 0.06692
1190.70 0.06689
1190.80 0.06687
1190.90 0.06685
1191.00 0.06683
1191.10 0.06681
1191.20 0.06679
1191.30 0.06677
1191.40 0.06675
1191.50 0.06673
1191.60 0.06671
1191.70 0.06669
1191.80 0.06667
1191.90 0.06665
1192.00 0.06663
1192.10 0.06661
1192.20 0.06659
1192.30 0.06657
1192.40 0.06655
1192.50 0.06653
1192.60 0.06651
1192.70 0.06649
1192.80 0.06647
1192.90 0.06645
1193.00 0.06643
1193.10 0.06641
1193.20 0.06639
1193.30 0.06636
1193.40 0.06634
1193.50 0.06632
1193.60 0.0663
1193.70 0.06628
1193.80 0.06626
1193.90 0.06624
1194.00 0.06622
1194.10 0.0662
1194.20 0.06618
1194.30 0.06616
1194.40 0.06614
1194.50 0.06612
1194.60 0.0661
1194.70 0.06608
1194.80 0.06606
1194.90 0.06604
1195.00 0.06602
1195.10 0.066
1195.20 0.06598
1195.30 0.06596
1195.40 0.06594
1195.50 0.06592
1195.60 0.0659
1195.70 0.06588
1195.80 0.06586
1195.90 0.06584
1196.00 0.06582
1196.10 0.0658
1196.20 0.06578
1196.30 0.06576
1196.40 0.06574
1196.50 0.06572
1196.60 0.0657
1196.70 0.06568
1196.80 0.06565
1196.90 0.06563
1197.00 0.06561
1197.10 0.06559
1197.20 0.06557
1197.30 0.06555
1197.40 0.06553
1197.50 0.06551
1197.60 0.06549
1197.70 0.06547
1197.80 0.06545
1197.90 0.06543
1198.00 0.06541
1198.10 0.06539
1198.20 0.06537
1198.30 0.06535
1198.40 0.06533
1198.50 0.06531
1198.60 0.06529
1198.70 0.06527
1198.80 0.06525
1198.90 0.06523
1199.00 0.06521
1199.10 0.06519
1199.20 0.06517
1199.30 0.06515
1199.40 0.06513
1199.50 0.06511
1199.60 0.06509
1199.70 0.06507
1199.80 0.06505
1199.90 0.06503
1200.00 0
