# Version 2.1 - nm, norm@500 to 1, cut digits, bergeron_120000_70.dat_120000
# Wavelength(nm)  Flambda(ergs/cm^s/s/nm)
300.00 6.949
300.10 6.941
300.20 6.932
300.30 6.923
300.40 6.914
300.50 6.906
300.60 6.897
300.70 6.888
300.80 6.879
300.90 6.871
301.00 6.862
301.10 6.853
301.20 6.845
301.30 6.836
301.40 6.828
301.50 6.819
301.60 6.81
301.70 6.802
301.80 6.793
301.90 6.785
302.00 6.776
302.10 6.768
302.20 6.759
302.30 6.751
302.40 6.742
302.50 6.734
302.60 6.725
302.70 6.717
302.80 6.709
302.90 6.7
303.00 6.692
303.10 6.683
303.20 6.675
303.30 6.667
303.40 6.658
303.50 6.65
303.60 6.642
303.70 6.633
303.80 6.625
303.90 6.617
304.00 6.609
304.10 6.6
304.20 6.592
304.30 6.584
304.40 6.576
304.50 6.567
304.60 6.559
304.70 6.551
304.80 6.543
304.90 6.535
305.00 6.527
305.10 6.518
305.20 6.51
305.30 6.502
305.40 6.494
305.50 6.486
305.60 6.478
305.70 6.47
305.80 6.462
305.90 6.454
306.00 6.446
306.10 6.438
306.20 6.43
306.30 6.422
306.40 6.414
306.50 6.406
306.60 6.398
306.70 6.39
306.80 6.382
306.90 6.374
307.00 6.367
307.10 6.359
307.20 6.351
307.30 6.343
307.40 6.335
307.50 6.327
307.60 6.319
307.70 6.312
307.80 6.304
307.90 6.296
308.00 6.288
308.10 6.281
308.20 6.273
308.30 6.265
308.40 6.257
308.50 6.25
308.60 6.242
308.70 6.234
308.80 6.227
308.90 6.219
309.00 6.211
309.10 6.204
309.20 6.196
309.30 6.188
309.40 6.181
309.50 6.173
309.60 6.166
309.70 6.158
309.80 6.151
309.90 6.143
310.00 6.136
310.10 6.128
310.20 6.121
310.30 6.113
310.40 6.106
310.50 6.098
310.60 6.091
310.70 6.083
310.80 6.076
310.90 6.068
311.00 6.061
311.10 6.053
311.20 6.046
311.30 6.039
311.40 6.031
311.50 6.024
311.60 6.017
311.70 6.009
311.80 6.002
311.90 5.995
312.00 5.987
312.10 5.98
312.20 5.973
312.30 5.966
312.40 5.958
312.50 5.951
312.60 5.944
312.70 5.937
312.80 5.929
312.90 5.922
313.00 5.915
313.10 5.908
313.20 5.901
313.30 5.893
313.40 5.886
313.50 5.879
313.60 5.872
313.70 5.865
313.80 5.858
313.90 5.851
314.00 5.844
314.10 5.837
314.20 5.829
314.30 5.822
314.40 5.815
314.50 5.808
314.60 5.801
314.70 5.794
314.80 5.787
314.90 5.78
315.00 5.773
315.10 5.766
315.20 5.759
315.30 5.752
315.40 5.746
315.50 5.739
315.60 5.732
315.70 5.725
315.80 5.718
315.90 5.711
316.00 5.704
316.10 5.697
316.20 5.69
316.30 5.684
316.40 5.677
316.50 5.67
316.60 5.663
316.70 5.656
316.80 5.65
316.90 5.643
317.00 5.636
317.10 5.629
317.20 5.623
317.30 5.616
317.40 5.609
317.50 5.602
317.60 5.596
317.70 5.589
317.80 5.582
317.90 5.576
318.00 5.569
318.10 5.562
318.20 5.556
318.30 5.549
318.40 5.542
318.50 5.536
318.60 5.529
318.70 5.522
318.80 5.516
318.90 5.509
319.00 5.503
319.10 5.496
319.20 5.49
319.30 5.483
319.40 5.477
319.50 5.47
319.60 5.464
319.70 5.457
319.80 5.451
319.90 5.444
320.00 5.438
320.10 5.431
320.20 5.425
320.30 5.418
320.40 5.412
320.50 5.405
320.60 5.399
320.70 5.393
320.80 5.386
320.90 5.38
321.00 5.373
321.10 5.367
321.20 5.361
321.30 5.354
321.40 5.348
321.50 5.342
321.60 5.335
321.70 5.329
321.80 5.323
321.90 5.316
322.00 5.31
322.10 5.304
322.20 5.298
322.30 5.291
322.40 5.285
322.50 5.279
322.60 5.273
322.70 5.266
322.80 5.26
322.90 5.254
323.00 5.248
323.10 5.242
323.20 5.236
323.30 5.229
323.40 5.223
323.50 5.217
323.60 5.211
323.70 5.205
323.80 5.199
323.90 5.193
324.00 5.186
324.10 5.18
324.20 5.174
324.30 5.168
324.40 5.162
324.50 5.156
324.60 5.15
324.70 5.144
324.80 5.138
324.90 5.132
325.00 5.126
325.10 5.12
325.20 5.114
325.30 5.108
325.40 5.102
325.50 5.096
325.60 5.09
325.70 5.084
325.80 5.078
325.90 5.072
326.00 5.066
326.10 5.06
326.20 5.055
326.30 5.049
326.40 5.043
326.50 5.037
326.60 5.031
326.70 5.025
326.80 5.019
326.90 5.013
327.00 5.008
327.10 5.002
327.20 4.996
327.30 4.99
327.40 4.984
327.50 4.979
327.60 4.973
327.70 4.967
327.80 4.961
327.90 4.955
328.00 4.95
328.10 4.944
328.20 4.938
328.30 4.932
328.40 4.927
328.50 4.921
328.60 4.915
328.70 4.91
328.80 4.904
328.90 4.898
329.00 4.893
329.10 4.887
329.20 4.881
329.30 4.876
329.40 4.87
329.50 4.864
329.60 4.859
329.70 4.853
329.80 4.848
329.90 4.842
330.00 4.836
330.10 4.831
330.20 4.825
330.30 4.82
330.40 4.814
330.50 4.809
330.60 4.803
330.70 4.798
330.80 4.792
330.90 4.787
331.00 4.781
331.10 4.776
331.20 4.77
331.30 4.765
331.40 4.759
331.50 4.754
331.60 4.748
331.70 4.743
331.80 4.737
331.90 4.732
332.00 4.726
332.10 4.721
332.20 4.716
332.30 4.71
332.40 4.705
332.50 4.699
332.60 4.694
332.70 4.689
332.80 4.683
332.90 4.678
333.00 4.673
333.10 4.667
333.20 4.662
333.30 4.657
333.40 4.651
333.50 4.646
333.60 4.641
333.70 4.635
333.80 4.63
333.90 4.625
334.00 4.619
334.10 4.614
334.20 4.609
334.30 4.604
334.40 4.598
334.50 4.593
334.60 4.588
334.70 4.583
334.80 4.578
334.90 4.572
335.00 4.567
335.10 4.562
335.20 4.557
335.30 4.552
335.40 4.546
335.50 4.541
335.60 4.536
335.70 4.531
335.80 4.526
335.90 4.521
336.00 4.515
336.10 4.51
336.20 4.505
336.30 4.5
336.40 4.495
336.50 4.49
336.60 4.485
336.70 4.48
336.80 4.475
336.90 4.47
337.00 4.465
337.10 4.46
337.20 4.455
337.30 4.449
337.40 4.444
337.50 4.439
337.60 4.434
337.70 4.429
337.80 4.424
337.90 4.419
338.00 4.414
338.10 4.409
338.20 4.404
338.30 4.4
338.40 4.395
338.50 4.39
338.60 4.385
338.70 4.38
338.80 4.375
338.90 4.37
339.00 4.365
339.10 4.36
339.20 4.355
339.30 4.35
339.40 4.345
339.50 4.341
339.60 4.336
339.70 4.331
339.80 4.326
339.90 4.321
340.00 4.316
340.10 4.311
340.20 4.307
340.30 4.302
340.40 4.297
340.50 4.292
340.60 4.287
340.70 4.283
340.80 4.278
340.90 4.273
341.00 4.268
341.10 4.263
341.20 4.259
341.30 4.254
341.40 4.249
341.50 4.244
341.60 4.24
341.70 4.235
341.80 4.23
341.90 4.225
342.00 4.221
342.10 4.216
342.20 4.211
342.30 4.207
342.40 4.202
342.50 4.197
342.60 4.193
342.70 4.188
342.80 4.183
342.90 4.179
343.00 4.174
343.10 4.169
343.20 4.165
343.30 4.16
343.40 4.155
343.50 4.151
343.60 4.146
343.70 4.142
343.80 4.137
343.90 4.132
344.00 4.128
344.10 4.123
344.20 4.119
344.30 4.114
344.40 4.11
344.50 4.105
344.60 4.101
344.70 4.096
344.80 4.091
344.90 4.087
345.00 4.082
345.10 4.078
345.20 4.073
345.30 4.069
345.40 4.064
345.50 4.06
345.60 4.055
345.70 4.051
345.80 4.046
345.90 4.042
346.00 4.038
346.10 4.033
346.20 4.029
346.30 4.024
346.40 4.02
346.50 4.015
346.60 4.011
346.70 4.007
346.80 4.002
346.90 3.998
347.00 3.993
347.10 3.989
347.20 3.985
347.30 3.98
347.40 3.976
347.50 3.971
347.60 3.967
347.70 3.963
347.80 3.958
347.90 3.954
348.00 3.95
348.10 3.945
348.20 3.941
348.30 3.937
348.40 3.932
348.50 3.928
348.60 3.924
348.70 3.92
348.80 3.915
348.90 3.911
349.00 3.907
349.10 3.902
349.20 3.898
349.30 3.894
349.40 3.89
349.50 3.885
349.60 3.881
349.70 3.877
349.80 3.873
349.90 3.868
350.00 3.864
350.10 3.86
350.20 3.856
350.30 3.852
350.40 3.847
350.50 3.843
350.60 3.839
350.70 3.835
350.80 3.831
350.90 3.827
351.00 3.822
351.10 3.818
351.20 3.814
351.30 3.81
351.40 3.806
351.50 3.802
351.60 3.798
351.70 3.793
351.80 3.789
351.90 3.785
352.00 3.781
352.10 3.777
352.20 3.773
352.30 3.769
352.40 3.765
352.50 3.761
352.60 3.757
352.70 3.753
352.80 3.748
352.90 3.744
353.00 3.74
353.10 3.736
353.20 3.732
353.30 3.728
353.40 3.724
353.50 3.72
353.60 3.716
353.70 3.712
353.80 3.708
353.90 3.704
354.00 3.7
354.10 3.696
354.20 3.692
354.30 3.688
354.40 3.684
354.50 3.68
354.60 3.676
354.70 3.672
354.80 3.668
354.90 3.664
355.00 3.661
355.10 3.657
355.20 3.653
355.30 3.649
355.40 3.645
355.50 3.641
355.60 3.637
355.70 3.633
355.80 3.629
355.90 3.625
356.00 3.621
356.10 3.617
356.20 3.614
356.30 3.61
356.40 3.606
356.50 3.602
356.60 3.598
356.70 3.594
356.80 3.59
356.90 3.587
357.00 3.583
357.10 3.579
357.20 3.575
357.30 3.571
357.40 3.567
357.50 3.564
357.60 3.56
357.70 3.556
357.80 3.552
357.90 3.548
358.00 3.545
358.10 3.541
358.20 3.537
358.30 3.533
358.40 3.53
358.50 3.526
358.60 3.522
358.70 3.518
358.80 3.515
358.90 3.511
359.00 3.507
359.10 3.503
359.20 3.5
359.30 3.496
359.40 3.492
359.50 3.488
359.60 3.485
359.70 3.481
359.80 3.477
359.90 3.474
360.00 3.47
360.10 3.466
360.20 3.463
360.30 3.459
360.40 3.455
360.50 3.452
360.60 3.448
360.70 3.444
360.80 3.441
360.90 3.437
361.00 3.433
361.10 3.43
361.20 3.426
361.30 3.423
361.40 3.419
361.50 3.415
361.60 3.412
361.70 3.408
361.80 3.404
361.90 3.401
362.00 3.397
362.10 3.394
362.20 3.39
362.30 3.387
362.40 3.383
362.50 3.379
362.60 3.376
362.70 3.372
362.80 3.369
362.90 3.365
363.00 3.362
363.10 3.358
363.20 3.355
363.30 3.351
363.40 3.348
363.50 3.344
363.60 3.34
363.70 3.337
363.80 3.333
363.90 3.33
364.00 3.326
364.10 3.323
364.20 3.319
364.30 3.316
364.40 3.313
364.50 3.309
364.60 3.306
364.70 3.302
364.80 3.299
364.90 3.295
365.00 3.292
365.10 3.288
365.20 3.285
365.30 3.281
365.40 3.278
365.50 3.275
365.60 3.271
365.70 3.268
365.80 3.264
365.90 3.261
366.00 3.257
366.10 3.254
366.20 3.251
366.30 3.247
366.40 3.244
366.50 3.24
366.60 3.237
366.70 3.234
366.80 3.23
366.90 3.227
367.00 3.223
367.10 3.22
367.20 3.217
367.30 3.213
367.40 3.21
367.50 3.206
367.60 3.203
367.70 3.2
367.80 3.196
367.90 3.193
368.00 3.189
368.10 3.186
368.20 3.183
368.30 3.179
368.40 3.176
368.50 3.173
368.60 3.169
368.70 3.166
368.80 3.163
368.90 3.159
369.00 3.156
369.10 3.153
369.20 3.15
369.30 3.146
369.40 3.143
369.50 3.14
369.60 3.136
369.70 3.133
369.80 3.13
369.90 3.126
370.00 3.123
370.10 3.12
370.20 3.117
370.30 3.113
370.40 3.11
370.50 3.107
370.60 3.104
370.70 3.1
370.80 3.097
370.90 3.094
371.00 3.091
371.10 3.088
371.20 3.084
371.30 3.081
371.40 3.078
371.50 3.075
371.60 3.071
371.70 3.068
371.80 3.065
371.90 3.062
372.00 3.059
372.10 3.055
372.20 3.052
372.30 3.049
372.40 3.046
372.50 3.043
372.60 3.04
372.70 3.037
372.80 3.034
372.90 3.03
373.00 3.027
373.10 3.024
373.20 3.021
373.30 3.018
373.40 3.015
373.50 3.012
373.60 3.009
373.70 3.005
373.80 3.002
373.90 2.999
374.00 2.996
374.10 2.993
374.20 2.99
374.30 2.987
374.40 2.984
374.50 2.981
374.60 2.978
374.70 2.975
374.80 2.972
374.90 2.969
375.00 2.966
375.10 2.963
375.20 2.96
375.30 2.957
375.40 2.954
375.50 2.951
375.60 2.948
375.70 2.945
375.80 2.942
375.90 2.939
376.00 2.936
376.10 2.933
376.20 2.93
376.30 2.927
376.40 2.924
376.50 2.921
376.60 2.918
376.70 2.915
376.80 2.912
376.90 2.909
377.00 2.906
377.10 2.903
377.20 2.901
377.30 2.898
377.40 2.895
377.50 2.892
377.60 2.889
377.70 2.887
377.80 2.884
377.90 2.881
378.00 2.878
378.10 2.875
378.20 2.872
378.30 2.869
378.40 2.867
378.50 2.864
378.60 2.861
378.70 2.858
378.80 2.855
378.90 2.852
379.00 2.849
379.10 2.846
379.20 2.843
379.30 2.841
379.40 2.838
379.50 2.835
379.60 2.832
379.70 2.829
379.80 2.826
379.90 2.823
380.00 2.82
380.10 2.818
380.20 2.816
380.30 2.813
380.40 2.811
380.50 2.808
380.60 2.806
380.70 2.803
380.80 2.801
380.90 2.798
381.00 2.796
381.10 2.793
381.20 2.79
381.30 2.788
381.40 2.785
381.50 2.782
381.60 2.78
381.70 2.777
381.80 2.774
381.90 2.771
382.00 2.768
382.10 2.765
382.20 2.762
382.30 2.758
382.40 2.755
382.50 2.752
382.60 2.748
382.70 2.745
382.80 2.741
382.90 2.738
383.00 2.735
383.10 2.731
383.20 2.728
383.30 2.725
383.40 2.721
383.50 2.719
383.60 2.716
383.70 2.714
383.80 2.712
383.90 2.711
384.00 2.709
384.10 2.708
384.20 2.706
384.30 2.704
384.40 2.703
384.50 2.701
384.60 2.699
384.70 2.697
384.80 2.695
384.90 2.694
385.00 2.692
385.10 2.689
385.20 2.687
385.30 2.685
385.40 2.683
385.50 2.68
385.60 2.678
385.70 2.676
385.80 2.673
385.90 2.67
386.00 2.668
386.10 2.665
386.20 2.662
386.30 2.659
386.40 2.656
386.50 2.653
386.60 2.65
386.70 2.647
386.80 2.644
386.90 2.64
387.00 2.637
387.10 2.633
387.20 2.629
387.30 2.626
387.40 2.622
387.50 2.618
387.60 2.614
387.70 2.61
387.80 2.605
387.90 2.601
388.00 2.597
388.10 2.592
388.20 2.587
388.30 2.583
388.40 2.578
388.50 2.573
388.60 2.568
388.70 2.564
388.80 2.561
388.90 2.558
389.00 2.556
389.10 2.555
389.20 2.554
389.30 2.554
389.40 2.554
389.50 2.554
389.60 2.554
389.70 2.554
389.80 2.554
389.90 2.554
390.00 2.553
390.10 2.553
390.20 2.552
390.30 2.552
390.40 2.551
390.50 2.55
390.60 2.549
390.70 2.548
390.80 2.547
390.90 2.546
391.00 2.544
391.10 2.543
391.20 2.542
391.30 2.54
391.40 2.538
391.50 2.537
391.60 2.535
391.70 2.533
391.80 2.531
391.90 2.53
392.00 2.528
392.10 2.526
392.20 2.523
392.30 2.521
392.40 2.519
392.50 2.517
392.60 2.514
392.70 2.512
392.80 2.51
392.90 2.507
393.00 2.505
393.10 2.502
393.20 2.499
393.30 2.497
393.40 2.494
393.50 2.491
393.60 2.488
393.70 2.485
393.80 2.482
393.90 2.479
394.00 2.475
394.10 2.472
394.20 2.469
394.30 2.465
394.40 2.461
394.50 2.458
394.60 2.454
394.70 2.45
394.80 2.446
394.90 2.441
395.00 2.437
395.10 2.433
395.20 2.428
395.30 2.423
395.40 2.418
395.50 2.413
395.60 2.408
395.70 2.402
395.80 2.396
395.90 2.39
396.00 2.384
396.10 2.378
396.20 2.371
396.30 2.364
396.40 2.357
396.50 2.35
396.60 2.343
396.70 2.335
396.80 2.327
396.90 2.319
397.00 2.312
397.10 2.314
397.20 2.317
397.30 2.321
397.40 2.324
397.50 2.328
397.60 2.331
397.70 2.333
397.80 2.336
397.90 2.338
398.00 2.34
398.10 2.341
398.20 2.343
398.30 2.344
398.40 2.345
398.50 2.346
398.60 2.347
398.70 2.347
398.80 2.348
398.90 2.348
399.00 2.348
399.10 2.348
399.20 2.348
399.30 2.347
399.40 2.347
399.50 2.346
399.60 2.345
399.70 2.345
399.80 2.344
399.90 2.343
400.00 2.342
400.10 2.34
400.20 2.339
400.30 2.338
400.40 2.337
400.50 2.335
400.60 2.334
400.70 2.332
400.80 2.331
400.90 2.329
401.00 2.328
401.10 2.326
401.20 2.324
401.30 2.323
401.40 2.321
401.50 2.319
401.60 2.317
401.70 2.315
401.80 2.313
401.90 2.311
402.00 2.31
402.10 2.308
402.20 2.306
402.30 2.304
402.40 2.302
402.50 2.3
402.60 2.298
402.70 2.296
402.80 2.294
402.90 2.291
403.00 2.289
403.10 2.287
403.20 2.285
403.30 2.283
403.40 2.281
403.50 2.279
403.60 2.277
403.70 2.274
403.80 2.272
403.90 2.27
404.00 2.268
404.10 2.266
404.20 2.263
404.30 2.261
404.40 2.259
404.50 2.256
404.60 2.254
404.70 2.252
404.80 2.249
404.90 2.247
405.00 2.245
405.10 2.242
405.20 2.24
405.30 2.237
405.40 2.235
405.50 2.232
405.60 2.23
405.70 2.227
405.80 2.225
405.90 2.222
406.00 2.219
406.10 2.217
406.20 2.214
406.30 2.211
406.40 2.208
406.50 2.205
406.60 2.202
406.70 2.199
406.80 2.196
406.90 2.193
407.00 2.19
407.10 2.187
407.20 2.183
407.30 2.18
407.40 2.176
407.50 2.172
407.60 2.168
407.70 2.164
407.80 2.16
407.90 2.156
408.00 2.151
408.10 2.146
408.20 2.141
408.30 2.136
408.40 2.131
408.50 2.125
408.60 2.119
408.70 2.113
408.80 2.106
408.90 2.099
409.00 2.092
409.10 2.085
409.20 2.077
409.30 2.068
409.40 2.059
409.50 2.05
409.60 2.04
409.70 2.029
409.80 2.017
409.90 2.005
410.00 1.995
410.10 1.99
410.20 1.991
410.30 1.989
410.40 1.992
410.50 2
410.60 2.008
410.70 2.015
410.80 2.022
410.90 2.028
411.00 2.033
411.10 2.038
411.20 2.042
411.30 2.046
411.40 2.05
411.50 2.053
411.60 2.056
411.70 2.058
411.80 2.06
411.90 2.062
412.00 2.063
412.10 2.065
412.20 2.066
412.30 2.066
412.40 2.067
412.50 2.067
412.60 2.068
412.70 2.068
412.80 2.068
412.90 2.068
413.00 2.067
413.10 2.067
413.20 2.066
413.30 2.066
413.40 2.065
413.50 2.064
413.60 2.063
413.70 2.062
413.80 2.061
413.90 2.06
414.00 2.059
414.10 2.058
414.20 2.056
414.30 2.055
414.40 2.054
414.50 2.053
414.60 2.051
414.70 2.05
414.80 2.048
414.90 2.047
415.00 2.045
415.10 2.044
415.20 2.042
415.30 2.041
415.40 2.039
415.50 2.037
415.60 2.036
415.70 2.034
415.80 2.033
415.90 2.031
416.00 2.029
416.10 2.028
416.20 2.026
416.30 2.024
416.40 2.022
416.50 2.021
416.60 2.019
416.70 2.017
416.80 2.016
416.90 2.014
417.00 2.012
417.10 2.01
417.20 2.009
417.30 2.007
417.40 2.005
417.50 2.003
417.60 2.002
417.70 2
417.80 1.998
417.90 1.996
418.00 1.995
418.10 1.993
418.20 1.991
418.30 1.989
418.40 1.988
418.50 1.986
418.60 1.984
418.70 1.982
418.80 1.98
418.90 1.979
419.00 1.977
419.10 1.975
419.20 1.973
419.30 1.972
419.40 1.97
419.50 1.968
419.60 1.966
419.70 1.965
419.80 1.963
419.90 1.961
420.00 1.959
420.10 1.957
420.20 1.956
420.30 1.954
420.40 1.952
420.50 1.95
420.60 1.949
420.70 1.947
420.80 1.945
420.90 1.943
421.00 1.942
421.10 1.94
421.20 1.938
421.30 1.936
421.40 1.934
421.50 1.933
421.60 1.931
421.70 1.929
421.80 1.927
421.90 1.926
422.00 1.924
422.10 1.922
422.20 1.92
422.30 1.919
422.40 1.917
422.50 1.915
422.60 1.913
422.70 1.912
422.80 1.91
422.90 1.908
423.00 1.906
423.10 1.905
423.20 1.903
423.30 1.901
423.40 1.899
423.50 1.898
423.60 1.896
423.70 1.894
423.80 1.892
423.90 1.891
424.00 1.889
424.10 1.887
424.20 1.885
424.30 1.884
424.40 1.882
424.50 1.88
424.60 1.879
424.70 1.877
424.80 1.875
424.90 1.873
425.00 1.872
425.10 1.87
425.20 1.868
425.30 1.866
425.40 1.865
425.50 1.863
425.60 1.861
425.70 1.859
425.80 1.858
425.90 1.856
426.00 1.854
426.10 1.853
426.20 1.851
426.30 1.849
426.40 1.847
426.50 1.846
426.60 1.844
426.70 1.842
426.80 1.84
426.90 1.839
427.00 1.837
427.10 1.835
427.20 1.833
427.30 1.832
427.40 1.83
427.50 1.828
427.60 1.826
427.70 1.824
427.80 1.823
427.90 1.821
428.00 1.819
428.10 1.817
428.20 1.815
428.30 1.814
428.40 1.812
428.50 1.81
428.60 1.808
428.70 1.806
428.80 1.804
428.90 1.802
429.00 1.801
429.10 1.799
429.20 1.797
429.30 1.795
429.40 1.793
429.50 1.791
429.60 1.789
429.70 1.787
429.80 1.785
429.90 1.782
430.00 1.78
430.10 1.778
430.20 1.776
430.30 1.774
430.40 1.771
430.50 1.769
430.60 1.767
430.70 1.764
430.80 1.761
430.90 1.759
431.00 1.756
431.10 1.753
431.20 1.75
431.30 1.747
431.40 1.744
431.50 1.741
431.60 1.737
431.70 1.734
431.80 1.73
431.90 1.726
432.00 1.722
432.10 1.718
432.20 1.713
432.30 1.708
432.40 1.703
432.50 1.697
432.60 1.691
432.70 1.685
432.80 1.678
432.90 1.671
433.00 1.663
433.10 1.655
433.20 1.646
433.30 1.637
433.40 1.626
433.50 1.615
433.60 1.604
433.70 1.59
433.80 1.575
433.90 1.559
434.00 1.543
434.10 1.542
434.20 1.556
434.30 1.569
434.40 1.581
434.50 1.592
434.60 1.601
434.70 1.609
434.80 1.616
434.90 1.623
435.00 1.628
435.10 1.634
435.20 1.638
435.30 1.642
435.40 1.646
435.50 1.649
435.60 1.652
435.70 1.655
435.80 1.657
435.90 1.659
436.00 1.66
436.10 1.662
436.20 1.663
436.30 1.664
436.40 1.664
436.50 1.665
436.60 1.665
436.70 1.665
436.80 1.665
436.90 1.665
437.00 1.665
437.10 1.665
437.20 1.664
437.30 1.664
437.40 1.663
437.50 1.663
437.60 1.662
437.70 1.661
437.80 1.66
437.90 1.66
438.00 1.659
438.10 1.658
438.20 1.657
438.30 1.656
438.40 1.655
438.50 1.654
438.60 1.653
438.70 1.651
438.80 1.65
438.90 1.649
439.00 1.648
439.10 1.647
439.20 1.646
439.30 1.644
439.40 1.643
439.50 1.642
439.60 1.641
439.70 1.639
439.80 1.638
439.90 1.637
440.00 1.636
440.10 1.634
440.20 1.633
440.30 1.632
440.40 1.63
440.50 1.629
440.60 1.628
440.70 1.627
440.80 1.625
440.90 1.624
441.00 1.623
441.10 1.621
441.20 1.62
441.30 1.619
441.40 1.617
441.50 1.616
441.60 1.615
441.70 1.613
441.80 1.612
441.90 1.61
442.00 1.609
442.10 1.608
442.20 1.606
442.30 1.605
442.40 1.604
442.50 1.602
442.60 1.601
442.70 1.6
442.80 1.598
442.90 1.597
443.00 1.596
443.10 1.594
443.20 1.593
443.30 1.592
443.40 1.59
443.50 1.589
443.60 1.587
443.70 1.586
443.80 1.585
443.90 1.583
444.00 1.582
444.10 1.581
444.20 1.579
444.30 1.578
444.40 1.577
444.50 1.575
444.60 1.574
444.70 1.573
444.80 1.571
444.90 1.57
445.00 1.569
445.10 1.567
445.20 1.566
445.30 1.565
445.40 1.563
445.50 1.562
445.60 1.561
445.70 1.559
445.80 1.558
445.90 1.557
446.00 1.555
446.10 1.554
446.20 1.553
446.30 1.551
446.40 1.55
446.50 1.549
446.60 1.547
446.70 1.546
446.80 1.545
446.90 1.543
447.00 1.542
447.10 1.541
447.20 1.539
447.30 1.538
447.40 1.537
447.50 1.535
447.60 1.534
447.70 1.533
447.80 1.531
447.90 1.53
448.00 1.529
448.10 1.527
448.20 1.526
448.30 1.525
448.40 1.524
448.50 1.522
448.60 1.521
448.70 1.52
448.80 1.518
448.90 1.517
449.00 1.516
449.10 1.514
449.20 1.513
449.30 1.512
449.40 1.511
449.50 1.509
449.60 1.508
449.70 1.507
449.80 1.505
449.90 1.504
450.00 1.503
450.10 1.502
450.20 1.5
450.30 1.499
450.40 1.498
450.50 1.496
450.60 1.495
450.70 1.494
450.80 1.493
450.90 1.491
451.00 1.49
451.10 1.489
451.20 1.487
451.30 1.486
451.40 1.485
451.50 1.484
451.60 1.482
451.70 1.481
451.80 1.48
451.90 1.479
452.00 1.477
452.10 1.476
452.20 1.475
452.30 1.474
452.40 1.472
452.50 1.471
452.60 1.47
452.70 1.469
452.80 1.467
452.90 1.466
453.00 1.465
453.10 1.464
453.20 1.462
453.30 1.461
453.40 1.46
453.50 1.459
453.60 1.457
453.70 1.456
453.80 1.455
453.90 1.454
454.00 1.452
454.10 1.451
454.20 1.45
454.30 1.449
454.40 1.448
454.50 1.446
454.60 1.445
454.70 1.444
454.80 1.443
454.90 1.441
455.00 1.44
455.10 1.439
455.20 1.438
455.30 1.437
455.40 1.435
455.50 1.434
455.60 1.433
455.70 1.432
455.80 1.43
455.90 1.429
456.00 1.428
456.10 1.427
456.20 1.426
456.30 1.424
456.40 1.423
456.50 1.422
456.60 1.421
456.70 1.42
456.80 1.418
456.90 1.417
457.00 1.416
457.10 1.415
457.20 1.414
457.30 1.412
457.40 1.411
457.50 1.41
457.60 1.409
457.70 1.408
457.80 1.406
457.90 1.405
458.00 1.404
458.10 1.403
458.20 1.402
458.30 1.401
458.40 1.399
458.50 1.398
458.60 1.397
458.70 1.396
458.80 1.395
458.90 1.393
459.00 1.392
459.10 1.391
459.20 1.39
459.30 1.389
459.40 1.388
459.50 1.386
459.60 1.385
459.70 1.384
459.80 1.383
459.90 1.382
460.00 1.381
460.10 1.379
460.20 1.378
460.30 1.377
460.40 1.376
460.50 1.375
460.60 1.374
460.70 1.373
460.80 1.371
460.90 1.37
461.00 1.369
461.10 1.368
461.20 1.367
461.30 1.366
461.40 1.365
461.50 1.363
461.60 1.362
461.70 1.361
461.80 1.36
461.90 1.359
462.00 1.358
462.10 1.357
462.20 1.355
462.30 1.354
462.40 1.353
462.50 1.352
462.60 1.351
462.70 1.35
462.80 1.349
462.90 1.348
463.00 1.346
463.10 1.345
463.20 1.344
463.30 1.343
463.40 1.342
463.50 1.341
463.60 1.34
463.70 1.339
463.80 1.337
463.90 1.336
464.00 1.335
464.10 1.334
464.20 1.333
464.30 1.332
464.40 1.331
464.50 1.33
464.60 1.329
464.70 1.327
464.80 1.326
464.90 1.325
465.00 1.324
465.10 1.323
465.20 1.322
465.30 1.321
465.40 1.32
465.50 1.319
465.60 1.318
465.70 1.316
465.80 1.315
465.90 1.314
466.00 1.313
466.10 1.312
466.20 1.311
466.30 1.31
466.40 1.309
466.50 1.308
466.60 1.307
466.70 1.306
466.80 1.304
466.90 1.303
467.00 1.302
467.10 1.301
467.20 1.3
467.30 1.299
467.40 1.298
467.50 1.297
467.60 1.296
467.70 1.295
467.80 1.294
467.90 1.293
468.00 1.292
468.10 1.29
468.20 1.289
468.30 1.288
468.40 1.287
468.50 1.286
468.60 1.285
468.70 1.284
468.80 1.283
468.90 1.282
469.00 1.281
469.10 1.28
469.20 1.279
469.30 1.278
469.40 1.277
469.50 1.276
469.60 1.275
469.70 1.274
469.80 1.272
469.90 1.271
470.00 1.27
470.10 1.269
470.20 1.268
470.30 1.267
470.40 1.266
470.50 1.265
470.60 1.264
470.70 1.263
470.80 1.262
470.90 1.261
471.00 1.26
471.10 1.259
471.20 1.258
471.30 1.257
471.40 1.256
471.50 1.255
471.60 1.254
471.70 1.253
471.80 1.252
471.90 1.251
472.00 1.25
472.10 1.249
472.20 1.248
472.30 1.246
472.40 1.245
472.50 1.244
472.60 1.243
472.70 1.242
472.80 1.241
472.90 1.24
473.00 1.239
473.10 1.238
473.20 1.237
473.30 1.236
473.40 1.235
473.50 1.234
473.60 1.233
473.70 1.232
473.80 1.231
473.90 1.23
474.00 1.229
474.10 1.228
474.20 1.227
474.30 1.226
474.40 1.225
474.50 1.224
474.60 1.223
474.70 1.222
474.80 1.221
474.90 1.22
475.00 1.219
475.10 1.218
475.20 1.217
475.30 1.216
475.40 1.215
475.50 1.214
475.60 1.213
475.70 1.212
475.80 1.211
475.90 1.21
476.00 1.209
476.10 1.208
476.20 1.207
476.30 1.206
476.40 1.205
476.50 1.204
476.60 1.203
476.70 1.202
476.80 1.201
476.90 1.2
477.00 1.199
477.10 1.198
477.20 1.197
477.30 1.196
477.40 1.195
477.50 1.194
477.60 1.193
477.70 1.192
477.80 1.191
477.90 1.19
478.00 1.189
478.10 1.188
478.20 1.187
478.30 1.186
478.40 1.185
478.50 1.184
478.60 1.183
478.70 1.182
478.80 1.181
478.90 1.18
479.00 1.179
479.10 1.178
479.20 1.177
479.30 1.176
479.40 1.175
479.50 1.174
479.60 1.173
479.70 1.172
479.80 1.171
479.90 1.17
480.00 1.169
480.10 1.167
480.20 1.166
480.30 1.165
480.40 1.164
480.50 1.163
480.60 1.162
480.70 1.161
480.80 1.16
480.90 1.159
481.00 1.158
481.10 1.157
481.20 1.156
481.30 1.154
481.40 1.153
481.50 1.152
481.60 1.151
481.70 1.15
481.80 1.148
481.90 1.147
482.00 1.146
482.10 1.145
482.20 1.143
482.30 1.142
482.40 1.14
482.50 1.139
482.60 1.138
482.70 1.136
482.80 1.135
482.90 1.133
483.00 1.132
483.10 1.13
483.20 1.128
483.30 1.126
483.40 1.124
483.50 1.122
483.60 1.12
483.70 1.118
483.80 1.116
483.90 1.114
484.00 1.111
484.10 1.109
484.20 1.106
484.30 1.103
484.40 1.1
484.50 1.097
484.60 1.094
484.70 1.09
484.80 1.085
484.90 1.08
485.00 1.076
485.10 1.071
485.20 1.066
485.30 1.06
485.40 1.053
485.50 1.046
485.60 1.037
485.70 1.027
485.80 1.014
485.90 0.9983
486.00 0.9798
486.10 0.9784
486.20 0.9733
486.30 0.9838
486.40 0.9992
486.50 1.013
486.60 1.023
486.70 1.031
486.80 1.037
486.90 1.043
487.00 1.048
487.10 1.052
487.20 1.055
487.30 1.058
487.40 1.061
487.50 1.064
487.60 1.066
487.70 1.068
487.80 1.07
487.90 1.071
488.00 1.073
488.10 1.074
488.20 1.075
488.30 1.075
488.40 1.075
488.50 1.076
488.60 1.076
488.70 1.076
488.80 1.077
488.90 1.077
489.00 1.077
489.10 1.078
489.20 1.077
489.30 1.077
489.40 1.077
489.50 1.076
489.60 1.076
489.70 1.076
489.80 1.075
489.90 1.075
490.00 1.075
490.10 1.074
490.20 1.074
490.30 1.073
490.40 1.073
490.50 1.072
490.60 1.071
490.70 1.071
490.80 1.07
490.90 1.07
491.00 1.069
491.10 1.068
491.20 1.068
491.30 1.067
491.40 1.066
491.50 1.066
491.60 1.065
491.70 1.064
491.80 1.063
491.90 1.063
492.00 1.062
492.10 1.061
492.20 1.061
492.30 1.06
492.40 1.059
492.50 1.058
492.60 1.058
492.70 1.057
492.80 1.056
492.90 1.055
493.00 1.055
493.10 1.054
493.20 1.053
493.30 1.052
493.40 1.052
493.50 1.051
493.60 1.05
493.70 1.049
493.80 1.048
493.90 1.048
494.00 1.047
494.10 1.046
494.20 1.045
494.30 1.045
494.40 1.044
494.50 1.043
494.60 1.042
494.70 1.041
494.80 1.041
494.90 1.04
495.00 1.039
495.10 1.038
495.20 1.037
495.30 1.037
495.40 1.036
495.50 1.035
495.60 1.034
495.70 1.034
495.80 1.033
495.90 1.032
496.00 1.031
496.10 1.03
496.20 1.03
496.30 1.029
496.40 1.028
496.50 1.027
496.60 1.026
496.70 1.026
496.80 1.025
496.90 1.024
497.00 1.023
497.10 1.023
497.20 1.022
497.30 1.021
497.40 1.02
497.50 1.019
497.60 1.019
497.70 1.018
497.80 1.017
497.90 1.016
498.00 1.015
498.10 1.015
498.20 1.014
498.30 1.013
498.40 1.012
498.50 1.012
498.60 1.011
498.70 1.01
498.80 1.009
498.90 1.008
499.00 1.008
499.10 1.007
499.20 1.006
499.30 1.005
499.40 1.005
499.50 1.004
499.60 1.003
499.70 1.002
499.80 1.002
499.90 1.001
500.00 1
500.10 0.9992
500.20 0.9985
500.30 0.9977
500.40 0.9969
500.50 0.9962
500.60 0.9954
500.70 0.9946
500.80 0.9939
500.90 0.9931
501.00 0.9923
501.10 0.9916
501.20 0.9908
501.30 0.9901
501.40 0.9893
501.50 0.9885
501.60 0.9878
501.70 0.987
501.80 0.9863
501.90 0.9855
502.00 0.9848
502.10 0.984
502.20 0.9832
502.30 0.9825
502.40 0.9817
502.50 0.981
502.60 0.9802
502.70 0.9795
502.80 0.9787
502.90 0.978
503.00 0.9772
503.10 0.9765
503.20 0.9757
503.30 0.975
503.40 0.9742
503.50 0.9735
503.60 0.9727
503.70 0.972
503.80 0.9713
503.90 0.9705
504.00 0.9698
504.10 0.969
504.20 0.9683
504.30 0.9675
504.40 0.9668
504.50 0.9661
504.60 0.9653
504.70 0.9646
504.80 0.9639
504.90 0.9631
505.00 0.9624
505.10 0.9616
505.20 0.9609
505.30 0.9602
505.40 0.9594
505.50 0.9587
505.60 0.958
505.70 0.9572
505.80 0.9565
505.90 0.9558
506.00 0.9551
506.10 0.9543
506.20 0.9536
506.30 0.9529
506.40 0.9521
506.50 0.9514
506.60 0.9507
506.70 0.95
506.80 0.9493
506.90 0.9485
507.00 0.9478
507.10 0.9471
507.20 0.9464
507.30 0.9456
507.40 0.9449
507.50 0.9442
507.60 0.9435
507.70 0.9428
507.80 0.942
507.90 0.9413
508.00 0.9406
508.10 0.9399
508.20 0.9392
508.30 0.9385
508.40 0.9378
508.50 0.937
508.60 0.9363
508.70 0.9356
508.80 0.9349
508.90 0.9342
509.00 0.9335
509.10 0.9328
509.20 0.9321
509.30 0.9314
509.40 0.9307
509.50 0.93
509.60 0.9292
509.70 0.9285
509.80 0.9278
509.90 0.9271
510.00 0.9264
510.10 0.9257
510.20 0.925
510.30 0.9243
510.40 0.9236
510.50 0.9229
510.60 0.9222
510.70 0.9215
510.80 0.9208
510.90 0.9201
511.00 0.9194
511.10 0.9187
511.20 0.9181
511.30 0.9174
511.40 0.9167
511.50 0.916
511.60 0.9153
511.70 0.9146
511.80 0.9139
511.90 0.9132
512.00 0.9125
512.10 0.9118
512.20 0.9111
512.30 0.9104
512.40 0.9098
512.50 0.9091
512.60 0.9084
512.70 0.9077
512.80 0.907
512.90 0.9063
513.00 0.9057
513.10 0.905
513.20 0.9043
513.30 0.9036
513.40 0.9029
513.50 0.9022
513.60 0.9016
513.70 0.9009
513.80 0.9002
513.90 0.8995
514.00 0.8989
514.10 0.8982
514.20 0.8975
514.30 0.8968
514.40 0.8962
514.50 0.8955
514.60 0.8948
514.70 0.8941
514.80 0.8935
514.90 0.8928
515.00 0.8921
515.10 0.8914
515.20 0.8908
515.30 0.8901
515.40 0.8894
515.50 0.8888
515.60 0.8881
515.70 0.8874
515.80 0.8868
515.90 0.8861
516.00 0.8854
516.10 0.8848
516.20 0.8841
516.30 0.8835
516.40 0.8828
516.50 0.8821
516.60 0.8815
516.70 0.8808
516.80 0.8802
516.90 0.8795
517.00 0.8788
517.10 0.8782
517.20 0.8775
517.30 0.8769
517.40 0.8762
517.50 0.8756
517.60 0.8749
517.70 0.8742
517.80 0.8736
517.90 0.8729
518.00 0.8723
518.10 0.8716
518.20 0.871
518.30 0.8703
518.40 0.8697
518.50 0.869
518.60 0.8684
518.70 0.8677
518.80 0.8671
518.90 0.8664
519.00 0.8658
519.10 0.8652
519.20 0.8645
519.30 0.8639
519.40 0.8632
519.50 0.8626
519.60 0.8619
519.70 0.8613
519.80 0.8607
519.90 0.86
520.00 0.8594
520.10 0.8587
520.20 0.8581
520.30 0.8575
520.40 0.8568
520.50 0.8562
520.60 0.8555
520.70 0.8549
520.80 0.8543
520.90 0.8536
521.00 0.853
521.10 0.8524
521.20 0.8517
521.30 0.8511
521.40 0.8505
521.50 0.8498
521.60 0.8492
521.70 0.8486
521.80 0.848
521.90 0.8473
522.00 0.8467
522.10 0.8461
522.20 0.8454
522.30 0.8448
522.40 0.8442
522.50 0.8436
522.60 0.8429
522.70 0.8423
522.80 0.8417
522.90 0.8411
523.00 0.8404
523.10 0.8398
523.20 0.8392
523.30 0.8386
523.40 0.838
523.50 0.8373
523.60 0.8367
523.70 0.8361
523.80 0.8355
523.90 0.8349
524.00 0.8342
524.10 0.8336
524.20 0.833
524.30 0.8324
524.40 0.8318
524.50 0.8312
524.60 0.8306
524.70 0.8299
524.80 0.8293
524.90 0.8287
525.00 0.8281
525.10 0.8275
525.20 0.8269
525.30 0.8263
525.40 0.8257
525.50 0.8251
525.60 0.8245
525.70 0.8239
525.80 0.8232
525.90 0.8226
526.00 0.822
526.10 0.8214
526.20 0.8208
526.30 0.8202
526.40 0.8196
526.50 0.819
526.60 0.8184
526.70 0.8178
526.80 0.8172
526.90 0.8166
527.00 0.816
527.10 0.8154
527.20 0.8148
527.30 0.8142
527.40 0.8136
527.50 0.813
527.60 0.8124
527.70 0.8118
527.80 0.8112
527.90 0.8106
528.00 0.81
528.10 0.8094
528.20 0.8089
528.30 0.8083
528.40 0.8077
528.50 0.8071
528.60 0.8065
528.70 0.8059
528.80 0.8053
528.90 0.8047
529.00 0.8041
529.10 0.8035
529.20 0.8029
529.30 0.8024
529.40 0.8018
529.50 0.8012
529.60 0.8006
529.70 0.8
529.80 0.7994
529.90 0.7989
530.00 0.7983
530.10 0.7977
530.20 0.7971
530.30 0.7965
530.40 0.7959
530.50 0.7954
530.60 0.7948
530.70 0.7942
530.80 0.7936
530.90 0.793
531.00 0.7925
531.10 0.7919
531.20 0.7913
531.30 0.7907
531.40 0.7901
531.50 0.7896
531.60 0.789
531.70 0.7884
531.80 0.7879
531.90 0.7873
532.00 0.7867
532.10 0.7861
532.20 0.7856
532.30 0.785
532.40 0.7844
532.50 0.7838
532.60 0.7833
532.70 0.7827
532.80 0.7821
532.90 0.7816
533.00 0.781
533.10 0.7804
533.20 0.7799
533.30 0.7793
533.40 0.7787
533.50 0.7782
533.60 0.7776
533.70 0.777
533.80 0.7765
533.90 0.7759
534.00 0.7753
534.10 0.7748
534.20 0.7742
534.30 0.7737
534.40 0.7731
534.50 0.7725
534.60 0.772
534.70 0.7714
534.80 0.7709
534.90 0.7703
535.00 0.7698
535.10 0.7692
535.20 0.7686
535.30 0.7681
535.40 0.7675
535.50 0.767
535.60 0.7664
535.70 0.7659
535.80 0.7653
535.90 0.7648
536.00 0.7642
536.10 0.7636
536.20 0.7631
536.30 0.7625
536.40 0.762
536.50 0.7614
536.60 0.7609
536.70 0.7603
536.80 0.7598
536.90 0.7593
537.00 0.7587
537.10 0.7582
537.20 0.7576
537.30 0.7571
537.40 0.7565
537.50 0.756
537.60 0.7554
537.70 0.7549
537.80 0.7543
537.90 0.7538
538.00 0.7533
538.10 0.7527
538.20 0.7522
538.30 0.7516
538.40 0.7511
538.50 0.7505
538.60 0.75
538.70 0.7495
538.80 0.7489
538.90 0.7484
539.00 0.7479
539.10 0.7473
539.20 0.7468
539.30 0.7462
539.40 0.7457
539.50 0.7452
539.60 0.7446
539.70 0.7441
539.80 0.7436
539.90 0.743
540.00 0.7425
540.10 0.742
540.20 0.7414
540.30 0.7409
540.40 0.7404
540.50 0.7398
540.60 0.7393
540.70 0.7388
540.80 0.7383
540.90 0.7377
541.00 0.7372
541.10 0.7367
541.20 0.7361
541.30 0.7356
541.40 0.7351
541.50 0.7346
541.60 0.734
541.70 0.7335
541.80 0.733
541.90 0.7325
542.00 0.7319
542.10 0.7314
542.20 0.7309
542.30 0.7304
542.40 0.7298
542.50 0.7293
542.60 0.7288
542.70 0.7283
542.80 0.7278
542.90 0.7272
543.00 0.7267
543.10 0.7262
543.20 0.7257
543.30 0.7252
543.40 0.7247
543.50 0.7241
543.60 0.7236
543.70 0.7231
543.80 0.7226
543.90 0.7221
544.00 0.7216
544.10 0.7211
544.20 0.7205
544.30 0.72
544.40 0.7195
544.50 0.719
544.60 0.7185
544.70 0.718
544.80 0.7175
544.90 0.717
545.00 0.7164
545.10 0.7159
545.20 0.7154
545.30 0.7149
545.40 0.7144
545.50 0.7139
545.60 0.7134
545.70 0.7129
545.80 0.7124
545.90 0.7119
546.00 0.7114
546.10 0.7109
546.20 0.7104
546.30 0.7099
546.40 0.7094
546.50 0.7089
546.60 0.7084
546.70 0.7079
546.80 0.7074
546.90 0.7069
547.00 0.7064
547.10 0.7059
547.20 0.7054
547.30 0.7049
547.40 0.7044
547.50 0.7039
547.60 0.7034
547.70 0.7029
547.80 0.7024
547.90 0.7019
548.00 0.7014
548.10 0.7009
548.20 0.7004
548.30 0.6999
548.40 0.6994
548.50 0.6989
548.60 0.6984
548.70 0.6979
548.80 0.6974
548.90 0.6969
549.00 0.6964
549.10 0.6959
549.20 0.6954
549.30 0.6949
549.40 0.6945
549.50 0.694
549.60 0.6935
549.70 0.693
549.80 0.6925
549.90 0.692
550.00 0.6915
550.10 0.691
550.20 0.6906
550.30 0.6901
550.40 0.6896
550.50 0.6891
550.60 0.6886
550.70 0.6881
550.80 0.6876
550.90 0.6872
551.00 0.6867
551.10 0.6862
551.20 0.6857
551.30 0.6852
551.40 0.6847
551.50 0.6843
551.60 0.6838
551.70 0.6833
551.80 0.6828
551.90 0.6823
552.00 0.6819
552.10 0.6814
552.20 0.6809
552.30 0.6804
552.40 0.68
552.50 0.6795
552.60 0.679
552.70 0.6785
552.80 0.6781
552.90 0.6776
553.00 0.6771
553.10 0.6766
553.20 0.6762
553.30 0.6757
553.40 0.6752
553.50 0.6747
553.60 0.6743
553.70 0.6738
553.80 0.6733
553.90 0.6728
554.00 0.6724
554.10 0.6719
554.20 0.6714
554.30 0.671
554.40 0.6705
554.50 0.67
554.60 0.6696
554.70 0.6691
554.80 0.6686
554.90 0.6682
555.00 0.6677
555.10 0.6672
555.20 0.6668
555.30 0.6663
555.40 0.6658
555.50 0.6654
555.60 0.6649
555.70 0.6644
555.80 0.664
555.90 0.6635
556.00 0.663
556.10 0.6626
556.20 0.6621
556.30 0.6617
556.40 0.6612
556.50 0.6607
556.60 0.6603
556.70 0.6598
556.80 0.6594
556.90 0.6589
557.00 0.6584
557.10 0.658
557.20 0.6575
557.30 0.6571
557.40 0.6566
557.50 0.6562
557.60 0.6557
557.70 0.6552
557.80 0.6548
557.90 0.6543
558.00 0.6539
558.10 0.6534
558.20 0.653
558.30 0.6525
558.40 0.6521
558.50 0.6516
558.60 0.6512
558.70 0.6507
558.80 0.6503
558.90 0.6498
559.00 0.6494
559.10 0.6489
559.20 0.6485
559.30 0.648
559.40 0.6476
559.50 0.6471
559.60 0.6467
559.70 0.6462
559.80 0.6458
559.90 0.6453
560.00 0.6449
560.10 0.6444
560.20 0.644
560.30 0.6435
560.40 0.6431
560.50 0.6426
560.60 0.6422
560.70 0.6418
560.80 0.6413
560.90 0.6409
561.00 0.6404
561.10 0.64
561.20 0.6395
561.30 0.6391
561.40 0.6387
561.50 0.6382
561.60 0.6378
561.70 0.6373
561.80 0.6369
561.90 0.6365
562.00 0.636
562.10 0.6356
562.20 0.6351
562.30 0.6347
562.40 0.6343
562.50 0.6338
562.60 0.6334
562.70 0.633
562.80 0.6325
562.90 0.6321
563.00 0.6316
563.10 0.6312
563.20 0.6308
563.30 0.6303
563.40 0.6299
563.50 0.6295
563.60 0.629
563.70 0.6286
563.80 0.6282
563.90 0.6277
564.00 0.6273
564.10 0.6269
564.20 0.6265
564.30 0.626
564.40 0.6256
564.50 0.6252
564.60 0.6247
564.70 0.6243
564.80 0.6239
564.90 0.6234
565.00 0.623
565.10 0.6226
565.20 0.6222
565.30 0.6217
565.40 0.6213
565.50 0.6209
565.60 0.6205
565.70 0.62
565.80 0.6196
565.90 0.6192
566.00 0.6188
566.10 0.6183
566.20 0.6179
566.30 0.6175
566.40 0.6171
566.50 0.6166
566.60 0.6162
566.70 0.6158
566.80 0.6154
566.90 0.615
567.00 0.6145
567.10 0.6141
567.20 0.6137
567.30 0.6133
567.40 0.6129
567.50 0.6124
567.60 0.612
567.70 0.6116
567.80 0.6112
567.90 0.6108
568.00 0.6104
568.10 0.6099
568.20 0.6095
568.30 0.6091
568.40 0.6087
568.50 0.6083
568.60 0.6079
568.70 0.6074
568.80 0.607
568.90 0.6066
569.00 0.6062
569.10 0.6058
569.20 0.6054
569.30 0.605
569.40 0.6046
569.50 0.6041
569.60 0.6037
569.70 0.6033
569.80 0.6029
569.90 0.6025
570.00 0.6021
570.10 0.6017
570.20 0.6013
570.30 0.6009
570.40 0.6005
570.50 0.6
570.60 0.5996
570.70 0.5992
570.80 0.5988
570.90 0.5984
571.00 0.598
571.10 0.5976
571.20 0.5972
571.30 0.5968
571.40 0.5964
571.50 0.596
571.60 0.5956
571.70 0.5952
571.80 0.5948
571.90 0.5944
572.00 0.594
572.10 0.5936
572.20 0.5932
572.30 0.5928
572.40 0.5924
572.50 0.592
572.60 0.5916
572.70 0.5912
572.80 0.5908
572.90 0.5904
573.00 0.59
573.10 0.5896
573.20 0.5892
573.30 0.5888
573.40 0.5884
573.50 0.588
573.60 0.5876
573.70 0.5872
573.80 0.5868
573.90 0.5864
574.00 0.586
574.10 0.5856
574.20 0.5852
574.30 0.5848
574.40 0.5844
574.50 0.584
574.60 0.5836
574.70 0.5832
574.80 0.5828
574.90 0.5824
575.00 0.582
575.10 0.5816
575.20 0.5813
575.30 0.5809
575.40 0.5805
575.50 0.5801
575.60 0.5797
575.70 0.5793
575.80 0.5789
575.90 0.5785
576.00 0.5781
576.10 0.5777
576.20 0.5773
576.30 0.577
576.40 0.5766
576.50 0.5762
576.60 0.5758
576.70 0.5754
576.80 0.575
576.90 0.5746
577.00 0.5742
577.10 0.5739
577.20 0.5735
577.30 0.5731
577.40 0.5727
577.50 0.5723
577.60 0.5719
577.70 0.5715
577.80 0.5712
577.90 0.5708
578.00 0.5704
578.10 0.57
578.20 0.5696
578.30 0.5693
578.40 0.5689
578.50 0.5685
578.60 0.5681
578.70 0.5677
578.80 0.5673
578.90 0.567
579.00 0.5666
579.10 0.5662
579.20 0.5658
579.30 0.5654
579.40 0.5651
579.50 0.5647
579.60 0.5643
579.70 0.5639
579.80 0.5636
579.90 0.5632
580.00 0.5628
580.10 0.5624
580.20 0.562
580.30 0.5617
580.40 0.5613
580.50 0.5609
580.60 0.5605
580.70 0.5602
580.80 0.5598
580.90 0.5594
581.00 0.5591
581.10 0.5587
581.20 0.5583
581.30 0.5579
581.40 0.5576
581.50 0.5572
581.60 0.5568
581.70 0.5565
581.80 0.5561
581.90 0.5557
582.00 0.5553
582.10 0.555
582.20 0.5546
582.30 0.5542
582.40 0.5539
582.50 0.5535
582.60 0.5531
582.70 0.5528
582.80 0.5524
582.90 0.552
583.00 0.5517
583.10 0.5513
583.20 0.5509
583.30 0.5506
583.40 0.5502
583.50 0.5498
583.60 0.5495
583.70 0.5491
583.80 0.5487
583.90 0.5484
584.00 0.548
584.10 0.5476
584.20 0.5473
584.30 0.5469
584.40 0.5465
584.50 0.5462
584.60 0.5458
584.70 0.5455
584.80 0.5451
584.90 0.5447
585.00 0.5444
585.10 0.544
585.20 0.5436
585.30 0.5433
585.40 0.5429
585.50 0.5426
585.60 0.5422
585.70 0.5418
585.80 0.5415
585.90 0.5411
586.00 0.5408
586.10 0.5404
586.20 0.5401
586.30 0.5397
586.40 0.5393
586.50 0.539
586.60 0.5386
586.70 0.5383
586.80 0.5379
586.90 0.5376
587.00 0.5372
587.10 0.5369
587.20 0.5365
587.30 0.5361
587.40 0.5358
587.50 0.5354
587.60 0.5351
587.70 0.5347
587.80 0.5344
587.90 0.534
588.00 0.5337
588.10 0.5333
588.20 0.533
588.30 0.5326
588.40 0.5323
588.50 0.5319
588.60 0.5316
588.70 0.5312
588.80 0.5309
588.90 0.5305
589.00 0.5302
589.10 0.5298
589.20 0.5295
589.30 0.5291
589.40 0.5288
589.50 0.5284
589.60 0.5281
589.70 0.5277
589.80 0.5274
589.90 0.527
590.00 0.5267
590.10 0.5263
590.20 0.526
590.30 0.5256
590.40 0.5253
590.50 0.525
590.60 0.5246
590.70 0.5243
590.80 0.5239
590.90 0.5236
591.00 0.5232
591.10 0.5229
591.20 0.5225
591.30 0.5222
591.40 0.5219
591.50 0.5215
591.60 0.5212
591.70 0.5208
591.80 0.5205
591.90 0.5201
592.00 0.5198
592.10 0.5195
592.20 0.5191
592.30 0.5188
592.40 0.5184
592.50 0.5181
592.60 0.5178
592.70 0.5174
592.80 0.5171
592.90 0.5168
593.00 0.5164
593.10 0.5161
593.20 0.5157
593.30 0.5154
593.40 0.5151
593.50 0.5147
593.60 0.5144
593.70 0.5141
593.80 0.5137
593.90 0.5134
594.00 0.513
594.10 0.5127
594.20 0.5124
594.30 0.512
594.40 0.5117
594.50 0.5114
594.60 0.511
594.70 0.5107
594.80 0.5104
594.90 0.51
595.00 0.5097
595.10 0.5094
595.20 0.509
595.30 0.5087
595.40 0.5084
595.50 0.5081
595.60 0.5077
595.70 0.5074
595.80 0.5071
595.90 0.5067
596.00 0.5064
596.10 0.5061
596.20 0.5057
596.30 0.5054
596.40 0.5051
596.50 0.5048
596.60 0.5044
596.70 0.5041
596.80 0.5038
596.90 0.5034
597.00 0.5031
597.10 0.5028
597.20 0.5025
597.30 0.5021
597.40 0.5018
597.50 0.5015
597.60 0.5012
597.70 0.5008
597.80 0.5005
597.90 0.5002
598.00 0.4999
598.10 0.4995
598.20 0.4992
598.30 0.4989
598.40 0.4986
598.50 0.4982
598.60 0.4979
598.70 0.4976
598.80 0.4973
598.90 0.4969
599.00 0.4966
599.10 0.4963
599.20 0.496
599.30 0.4957
599.40 0.4953
599.50 0.495
599.60 0.4947
599.70 0.4944
599.80 0.4941
599.90 0.4937
600.00 0.4934
600.10 0.4931
600.20 0.4928
600.30 0.4925
600.40 0.4921
600.50 0.4918
600.60 0.4915
600.70 0.4912
600.80 0.4909
600.90 0.4906
601.00 0.4902
601.10 0.4899
601.20 0.4896
601.30 0.4893
601.40 0.489
601.50 0.4887
601.60 0.4883
601.70 0.488
601.80 0.4877
601.90 0.4874
602.00 0.4871
602.10 0.4868
602.20 0.4865
602.30 0.4861
602.40 0.4858
602.50 0.4855
602.60 0.4852
602.70 0.4849
602.80 0.4846
602.90 0.4843
603.00 0.484
603.10 0.4836
603.20 0.4833
603.30 0.483
603.40 0.4827
603.50 0.4824
603.60 0.4821
603.70 0.4818
603.80 0.4815
603.90 0.4812
604.00 0.4809
604.10 0.4805
604.20 0.4802
604.30 0.4799
604.40 0.4796
604.50 0.4793
604.60 0.479
604.70 0.4787
604.80 0.4784
604.90 0.4781
605.00 0.4778
605.10 0.4775
605.20 0.4772
605.30 0.4769
605.40 0.4765
605.50 0.4762
605.60 0.4759
605.70 0.4756
605.80 0.4753
605.90 0.475
606.00 0.4747
606.10 0.4744
606.20 0.4741
606.30 0.4738
606.40 0.4735
606.50 0.4732
606.60 0.4729
606.70 0.4726
606.80 0.4723
606.90 0.472
607.00 0.4717
607.10 0.4714
607.20 0.4711
607.30 0.4708
607.40 0.4705
607.50 0.4702
607.60 0.4699
607.70 0.4696
607.80 0.4693
607.90 0.469
608.00 0.4687
608.10 0.4684
608.20 0.4681
608.30 0.4678
608.40 0.4675
608.50 0.4672
608.60 0.4669
608.70 0.4666
608.80 0.4663
608.90 0.466
609.00 0.4657
609.10 0.4654
609.20 0.4651
609.30 0.4648
609.40 0.4645
609.50 0.4642
609.60 0.4639
609.70 0.4636
609.80 0.4633
609.90 0.463
610.00 0.4627
610.10 0.4624
610.20 0.4622
610.30 0.4619
610.40 0.4616
610.50 0.4613
610.60 0.461
610.70 0.4607
610.80 0.4604
610.90 0.4601
611.00 0.4598
611.10 0.4595
611.20 0.4592
611.30 0.4589
611.40 0.4586
611.50 0.4583
611.60 0.4581
611.70 0.4578
611.80 0.4575
611.90 0.4572
612.00 0.4569
612.10 0.4566
612.20 0.4563
612.30 0.456
612.40 0.4557
612.50 0.4554
612.60 0.4552
612.70 0.4549
612.80 0.4546
612.90 0.4543
613.00 0.454
613.10 0.4537
613.20 0.4534
613.30 0.4531
613.40 0.4529
613.50 0.4526
613.60 0.4523
613.70 0.452
613.80 0.4517
613.90 0.4514
614.00 0.4511
614.10 0.4509
614.20 0.4506
614.30 0.4503
614.40 0.45
614.50 0.4497
614.60 0.4494
614.70 0.4491
614.80 0.4489
614.90 0.4486
615.00 0.4483
615.10 0.448
615.20 0.4477
615.30 0.4474
615.40 0.4472
615.50 0.4469
615.60 0.4466
615.70 0.4463
615.80 0.446
615.90 0.4458
616.00 0.4455
616.10 0.4452
616.20 0.4449
616.30 0.4446
616.40 0.4444
616.50 0.4441
616.60 0.4438
616.70 0.4435
616.80 0.4432
616.90 0.443
617.00 0.4427
617.10 0.4424
617.20 0.4421
617.30 0.4418
617.40 0.4416
617.50 0.4413
617.60 0.441
617.70 0.4407
617.80 0.4405
617.90 0.4402
618.00 0.4399
618.10 0.4396
618.20 0.4394
618.30 0.4391
618.40 0.4388
618.50 0.4385
618.60 0.4382
618.70 0.438
618.80 0.4377
618.90 0.4374
619.00 0.4371
619.10 0.4369
619.20 0.4366
619.30 0.4363
619.40 0.4361
619.50 0.4358
619.60 0.4355
619.70 0.4352
619.80 0.435
619.90 0.4347
620.00 0.4344
620.10 0.4341
620.20 0.4339
620.30 0.4336
620.40 0.4333
620.50 0.4331
620.60 0.4328
620.70 0.4325
620.80 0.4322
620.90 0.432
621.00 0.4317
621.10 0.4314
621.20 0.4312
621.30 0.4309
621.40 0.4306
621.50 0.4304
621.60 0.4301
621.70 0.4298
621.80 0.4295
621.90 0.4293
622.00 0.429
622.10 0.4287
622.20 0.4285
622.30 0.4282
622.40 0.4279
622.50 0.4277
622.60 0.4274
622.70 0.4271
622.80 0.4269
622.90 0.4266
623.00 0.4263
623.10 0.4261
623.20 0.4258
623.30 0.4255
623.40 0.4253
623.50 0.425
623.60 0.4248
623.70 0.4245
623.80 0.4242
623.90 0.424
624.00 0.4237
624.10 0.4234
624.20 0.4232
624.30 0.4229
624.40 0.4226
624.50 0.4224
624.60 0.4221
624.70 0.4219
624.80 0.4216
624.90 0.4213
625.00 0.4211
625.10 0.4208
625.20 0.4205
625.30 0.4203
625.40 0.42
625.50 0.4198
625.60 0.4195
625.70 0.4192
625.80 0.419
625.90 0.4187
626.00 0.4185
626.10 0.4182
626.20 0.4179
626.30 0.4177
626.40 0.4174
626.50 0.4172
626.60 0.4169
626.70 0.4166
626.80 0.4164
626.90 0.4161
627.00 0.4159
627.10 0.4156
627.20 0.4154
627.30 0.4151
627.40 0.4148
627.50 0.4146
627.60 0.4143
627.70 0.4141
627.80 0.4138
627.90 0.4136
628.00 0.4133
628.10 0.413
628.20 0.4128
628.30 0.4125
628.40 0.4123
628.50 0.412
628.60 0.4118
628.70 0.4115
628.80 0.4113
628.90 0.411
629.00 0.4108
629.10 0.4105
629.20 0.4102
629.30 0.41
629.40 0.4097
629.50 0.4095
629.60 0.4092
629.70 0.409
629.80 0.4087
629.90 0.4085
630.00 0.4082
630.10 0.408
630.20 0.4077
630.30 0.4075
630.40 0.4072
630.50 0.407
630.60 0.4067
630.70 0.4065
630.80 0.4062
630.90 0.406
631.00 0.4057
631.10 0.4055
631.20 0.4052
631.30 0.405
631.40 0.4047
631.50 0.4045
631.60 0.4042
631.70 0.404
631.80 0.4037
631.90 0.4035
632.00 0.4032
632.10 0.403
632.20 0.4027
632.30 0.4025
632.40 0.4022
632.50 0.402
632.60 0.4017
632.70 0.4015
632.80 0.4012
632.90 0.401
633.00 0.4007
633.10 0.4005
633.20 0.4002
633.30 0.4
633.40 0.3998
633.50 0.3995
633.60 0.3993
633.70 0.399
633.80 0.3988
633.90 0.3985
634.00 0.3983
634.10 0.398
634.20 0.3978
634.30 0.3976
634.40 0.3973
634.50 0.3971
634.60 0.3968
634.70 0.3966
634.80 0.3963
634.90 0.3961
635.00 0.3959
635.10 0.3956
635.20 0.3954
635.30 0.3951
635.40 0.3949
635.50 0.3946
635.60 0.3944
635.70 0.3942
635.80 0.3939
635.90 0.3937
636.00 0.3934
636.10 0.3932
636.20 0.393
636.30 0.3927
636.40 0.3925
636.50 0.3922
636.60 0.392
636.70 0.3918
636.80 0.3915
636.90 0.3913
637.00 0.391
637.10 0.3908
637.20 0.3906
637.30 0.3903
637.40 0.3901
637.50 0.3898
637.60 0.3896
637.70 0.3894
637.80 0.3891
637.90 0.3889
638.00 0.3886
638.10 0.3884
638.20 0.3882
638.30 0.3879
638.40 0.3877
638.50 0.3875
638.60 0.3872
638.70 0.387
638.80 0.3868
638.90 0.3865
639.00 0.3863
639.10 0.386
639.20 0.3858
639.30 0.3856
639.40 0.3853
639.50 0.3851
639.60 0.3849
639.70 0.3846
639.80 0.3844
639.90 0.3842
640.00 0.3839
640.10 0.3837
640.20 0.3835
640.30 0.3832
640.40 0.383
640.50 0.3828
640.60 0.3825
640.70 0.3823
640.80 0.3821
640.90 0.3818
641.00 0.3816
641.10 0.3814
641.20 0.3811
641.30 0.3809
641.40 0.3807
641.50 0.3804
641.60 0.3802
641.70 0.38
641.80 0.3797
641.90 0.3795
642.00 0.3793
642.10 0.379
642.20 0.3788
642.30 0.3786
642.40 0.3784
642.50 0.3781
642.60 0.3779
642.70 0.3777
642.80 0.3774
642.90 0.3772
643.00 0.377
643.10 0.3767
643.20 0.3765
643.30 0.3763
643.40 0.376
643.50 0.3758
643.60 0.3756
643.70 0.3754
643.80 0.3751
643.90 0.3749
644.00 0.3747
644.10 0.3744
644.20 0.3742
644.30 0.374
644.40 0.3738
644.50 0.3735
644.60 0.3733
644.70 0.3731
644.80 0.3728
644.90 0.3726
645.00 0.3724
645.10 0.3722
645.20 0.3719
645.30 0.3717
645.40 0.3715
645.50 0.3712
645.60 0.371
645.70 0.3708
645.80 0.3706
645.90 0.3703
646.00 0.3701
646.10 0.3699
646.20 0.3696
646.30 0.3694
646.40 0.3692
646.50 0.369
646.60 0.3687
646.70 0.3685
646.80 0.3683
646.90 0.3681
647.00 0.3678
647.10 0.3676
647.20 0.3674
647.30 0.3671
647.40 0.3669
647.50 0.3667
647.60 0.3665
647.70 0.3662
647.80 0.366
647.90 0.3658
648.00 0.3655
648.10 0.3653
648.20 0.3651
648.30 0.3648
648.40 0.3646
648.50 0.3644
648.60 0.3642
648.70 0.3639
648.80 0.3637
648.90 0.3635
649.00 0.3632
649.10 0.363
649.20 0.3628
649.30 0.3625
649.40 0.3623
649.50 0.362
649.60 0.3618
649.70 0.3616
649.80 0.3613
649.90 0.3611
650.00 0.3609
650.10 0.3606
650.20 0.3604
650.30 0.3601
650.40 0.3599
650.50 0.3596
650.60 0.3594
650.70 0.3591
650.80 0.3589
650.90 0.3586
651.00 0.3584
651.10 0.3581
651.20 0.3579
651.30 0.3576
651.40 0.3573
651.50 0.3571
651.60 0.3568
651.70 0.3565
651.80 0.3562
651.90 0.3559
652.00 0.3556
652.10 0.3554
652.20 0.3551
652.30 0.3548
652.40 0.3544
652.50 0.3541
652.60 0.3537
652.70 0.3534
652.80 0.353
652.90 0.3527
653.00 0.3523
653.10 0.352
653.20 0.3516
653.30 0.3512
653.40 0.3507
653.50 0.3502
653.60 0.3496
653.70 0.3491
653.80 0.3485
653.90 0.348
654.00 0.3474
654.10 0.3469
654.20 0.3464
654.30 0.3458
654.40 0.3449
654.50 0.344
654.60 0.3431
654.70 0.3422
654.80 0.3412
654.90 0.3398
655.00 0.3385
655.10 0.3371
655.20 0.3357
655.30 0.3342
655.40 0.3322
655.50 0.33
655.60 0.3273
655.70 0.3243
655.80 0.3201
655.90 0.3153
656.00 0.3074
656.10 0.2992
656.20 0.301
656.30 0.3128
656.40 0.2962
656.50 0.3017
656.60 0.3092
656.70 0.316
656.80 0.3197
656.90 0.3232
657.00 0.3255
657.10 0.3277
657.20 0.3294
657.30 0.3309
657.40 0.3318
657.50 0.3328
657.60 0.3338
657.70 0.3348
657.80 0.3356
657.90 0.3361
658.00 0.3366
658.10 0.3371
658.20 0.3375
658.30 0.3379
658.40 0.3381
658.50 0.3382
658.60 0.3383
658.70 0.3384
658.80 0.3386
658.90 0.3387
659.00 0.3388
659.10 0.3389
659.20 0.3391
659.30 0.3391
659.40 0.3391
659.50 0.339
659.60 0.339
659.70 0.3389
659.80 0.3388
659.90 0.3388
660.00 0.3387
660.10 0.3386
660.20 0.3386
660.30 0.3385
660.40 0.3383
660.50 0.3382
660.60 0.3381
660.70 0.3379
660.80 0.3378
660.90 0.3377
661.00 0.3375
661.10 0.3374
661.20 0.3373
661.30 0.3371
661.40 0.337
661.50 0.3368
661.60 0.3366
661.70 0.3365
661.80 0.3363
661.90 0.3361
662.00 0.336
662.10 0.3358
662.20 0.3357
662.30 0.3355
662.40 0.3353
662.50 0.3351
662.60 0.335
662.70 0.3348
662.80 0.3346
662.90 0.3344
663.00 0.3342
663.10 0.3341
663.20 0.3339
663.30 0.3337
663.40 0.3335
663.50 0.3334
663.60 0.3332
663.70 0.333
663.80 0.3328
663.90 0.3326
664.00 0.3324
664.10 0.3323
664.20 0.3321
664.30 0.3319
664.40 0.3317
664.50 0.3315
664.60 0.3313
664.70 0.3311
664.80 0.331
664.90 0.3308
665.00 0.3306
665.10 0.3304
665.20 0.3302
665.30 0.33
665.40 0.3298
665.50 0.3297
665.60 0.3295
665.70 0.3293
665.80 0.3291
665.90 0.3289
666.00 0.3287
666.10 0.3285
666.20 0.3284
666.30 0.3282
666.40 0.328
666.50 0.3278
666.60 0.3276
666.70 0.3274
666.80 0.3272
666.90 0.327
667.00 0.3269
667.10 0.3267
667.20 0.3265
667.30 0.3263
667.40 0.3261
667.50 0.3259
667.60 0.3257
667.70 0.3256
667.80 0.3254
667.90 0.3252
668.00 0.325
668.10 0.3248
668.20 0.3246
668.30 0.3244
668.40 0.3242
668.50 0.3241
668.60 0.3239
668.70 0.3237
668.80 0.3235
668.90 0.3233
669.00 0.3231
669.10 0.3229
669.20 0.3228
669.30 0.3226
669.40 0.3224
669.50 0.3222
669.60 0.322
669.70 0.3218
669.80 0.3216
669.90 0.3215
670.00 0.3213
670.10 0.3211
670.20 0.3209
670.30 0.3207
670.40 0.3205
670.50 0.3204
670.60 0.3202
670.70 0.32
670.80 0.3198
670.90 0.3196
671.00 0.3194
671.10 0.3192
671.20 0.3191
671.30 0.3189
671.40 0.3187
671.50 0.3185
671.60 0.3183
671.70 0.3181
671.80 0.318
671.90 0.3178
672.00 0.3176
672.10 0.3174
672.20 0.3172
672.30 0.3171
672.40 0.3169
672.50 0.3167
672.60 0.3165
672.70 0.3163
672.80 0.3161
672.90 0.316
673.00 0.3158
673.10 0.3156
673.20 0.3154
673.30 0.3152
673.40 0.3151
673.50 0.3149
673.60 0.3147
673.70 0.3145
673.80 0.3143
673.90 0.3141
674.00 0.314
674.10 0.3138
674.20 0.3136
674.30 0.3134
674.40 0.3132
674.50 0.3131
674.60 0.3129
674.70 0.3127
674.80 0.3125
674.90 0.3123
675.00 0.3122
675.10 0.312
675.20 0.3118
675.30 0.3116
675.40 0.3115
675.50 0.3113
675.60 0.3111
675.70 0.3109
675.80 0.3107
675.90 0.3106
676.00 0.3104
676.10 0.3102
676.20 0.31
676.30 0.3098
676.40 0.3097
676.50 0.3095
676.60 0.3093
676.70 0.3091
676.80 0.309
676.90 0.3088
677.00 0.3086
677.10 0.3084
677.20 0.3082
677.30 0.3081
677.40 0.3079
677.50 0.3077
677.60 0.3075
677.70 0.3074
677.80 0.3072
677.90 0.307
678.00 0.3068
678.10 0.3067
678.20 0.3065
678.30 0.3063
678.40 0.3061
678.50 0.306
678.60 0.3058
678.70 0.3056
678.80 0.3054
678.90 0.3053
679.00 0.3051
679.10 0.3049
679.20 0.3047
679.30 0.3046
679.40 0.3044
679.50 0.3042
679.60 0.304
679.70 0.3039
679.80 0.3037
679.90 0.3035
680.00 0.3033
680.10 0.3032
680.20 0.303
680.30 0.3028
680.40 0.3027
680.50 0.3025
680.60 0.3023
680.70 0.3021
680.80 0.302
680.90 0.3018
681.00 0.3016
681.10 0.3015
681.20 0.3013
681.30 0.3011
681.40 0.3009
681.50 0.3008
681.60 0.3006
681.70 0.3004
681.80 0.3003
681.90 0.3001
682.00 0.2999
682.10 0.2997
682.20 0.2996
682.30 0.2994
682.40 0.2992
682.50 0.2991
682.60 0.2989
682.70 0.2987
682.80 0.2985
682.90 0.2984
683.00 0.2982
683.10 0.298
683.20 0.2979
683.30 0.2977
683.40 0.2975
683.50 0.2974
683.60 0.2972
683.70 0.297
683.80 0.2969
683.90 0.2967
684.00 0.2965
684.10 0.2963
684.20 0.2962
684.30 0.296
684.40 0.2958
684.50 0.2957
684.60 0.2955
684.70 0.2953
684.80 0.2952
684.90 0.295
685.00 0.2948
685.10 0.2947
685.20 0.2945
685.30 0.2943
685.40 0.2942
685.50 0.294
685.60 0.2938
685.70 0.2937
685.80 0.2935
685.90 0.2933
686.00 0.2932
686.10 0.293
686.20 0.2928
686.30 0.2927
686.40 0.2925
686.50 0.2923
686.60 0.2922
686.70 0.292
686.80 0.2918
686.90 0.2917
687.00 0.2915
687.10 0.2913
687.20 0.2912
687.30 0.291
687.40 0.2909
687.50 0.2907
687.60 0.2905
687.70 0.2904
687.80 0.2902
687.90 0.29
688.00 0.2899
688.10 0.2897
688.20 0.2895
688.30 0.2894
688.40 0.2892
688.50 0.289
688.60 0.2889
688.70 0.2887
688.80 0.2886
688.90 0.2884
689.00 0.2882
689.10 0.2881
689.20 0.2879
689.30 0.2877
689.40 0.2876
689.50 0.2874
689.60 0.2873
689.70 0.2871
689.80 0.2869
689.90 0.2868
690.00 0.2866
690.10 0.2865
690.20 0.2863
690.30 0.2861
690.40 0.286
690.50 0.2858
690.60 0.2857
690.70 0.2855
690.80 0.2853
690.90 0.2852
691.00 0.285
691.10 0.2849
691.20 0.2847
691.30 0.2845
691.40 0.2844
691.50 0.2842
691.60 0.2841
691.70 0.2839
691.80 0.2837
691.90 0.2836
692.00 0.2834
692.10 0.2833
692.20 0.2831
692.30 0.2829
692.40 0.2828
692.50 0.2826
692.60 0.2825
692.70 0.2823
692.80 0.2821
692.90 0.282
693.00 0.2818
693.10 0.2817
693.20 0.2815
693.30 0.2814
693.40 0.2812
693.50 0.281
693.60 0.2809
693.70 0.2807
693.80 0.2806
693.90 0.2804
694.00 0.2802
694.10 0.2801
694.20 0.2799
694.30 0.2798
694.40 0.2796
694.50 0.2795
694.60 0.2793
694.70 0.2791
694.80 0.279
694.90 0.2788
695.00 0.2787
695.10 0.2785
695.20 0.2784
695.30 0.2782
695.40 0.2781
695.50 0.2779
695.60 0.2777
695.70 0.2776
695.80 0.2774
695.90 0.2773
696.00 0.2771
696.10 0.277
696.20 0.2768
696.30 0.2767
696.40 0.2765
696.50 0.2764
696.60 0.2762
696.70 0.276
696.80 0.2759
696.90 0.2757
697.00 0.2756
697.10 0.2754
697.20 0.2753
697.30 0.2751
697.40 0.275
697.50 0.2748
697.60 0.2747
697.70 0.2745
697.80 0.2744
697.90 0.2742
698.00 0.2741
698.10 0.2739
698.20 0.2737
698.30 0.2736
698.40 0.2734
698.50 0.2733
698.60 0.2731
698.70 0.273
698.80 0.2728
698.90 0.2727
699.00 0.2725
699.10 0.2724
699.20 0.2722
699.30 0.2721
699.40 0.2719
699.50 0.2718
699.60 0.2716
699.70 0.2715
699.80 0.2713
699.90 0.2712
700.00 0.271
700.10 0.2709
700.20 0.2707
700.30 0.2706
700.40 0.2704
700.50 0.2703
700.60 0.2701
700.70 0.27
700.80 0.2698
700.90 0.2697
701.00 0.2695
701.10 0.2694
701.20 0.2692
701.30 0.2691
701.40 0.2689
701.50 0.2688
701.60 0.2686
701.70 0.2685
701.80 0.2683
701.90 0.2682
702.00 0.268
702.10 0.2679
702.20 0.2677
702.30 0.2676
702.40 0.2674
702.50 0.2673
702.60 0.2671
702.70 0.267
702.80 0.2668
702.90 0.2667
703.00 0.2665
703.10 0.2664
703.20 0.2663
703.30 0.2661
703.40 0.266
703.50 0.2658
703.60 0.2657
703.70 0.2655
703.80 0.2654
703.90 0.2652
704.00 0.2651
704.10 0.2649
704.20 0.2648
704.30 0.2646
704.40 0.2645
704.50 0.2643
704.60 0.2642
704.70 0.264
704.80 0.2639
704.90 0.2638
705.00 0.2636
705.10 0.2635
705.20 0.2633
705.30 0.2632
705.40 0.263
705.50 0.2629
705.60 0.2627
705.70 0.2626
705.80 0.2624
705.90 0.2623
706.00 0.2622
706.10 0.262
706.20 0.2619
706.30 0.2617
706.40 0.2616
706.50 0.2614
706.60 0.2613
706.70 0.2612
706.80 0.261
706.90 0.2609
707.00 0.2607
707.10 0.2606
707.20 0.2604
707.30 0.2603
707.40 0.2602
707.50 0.26
707.60 0.2599
707.70 0.2597
707.80 0.2596
707.90 0.2594
708.00 0.2593
708.10 0.2592
708.20 0.259
708.30 0.2589
708.40 0.2587
708.50 0.2586
708.60 0.2584
708.70 0.2583
708.80 0.2582
708.90 0.258
709.00 0.2579
709.10 0.2577
709.20 0.2576
709.30 0.2574
709.40 0.2573
709.50 0.2572
709.60 0.257
709.70 0.2569
709.80 0.2567
709.90 0.2566
710.00 0.2565
710.10 0.2563
710.20 0.2562
710.30 0.256
710.40 0.2559
710.50 0.2558
710.60 0.2556
710.70 0.2555
710.80 0.2553
710.90 0.2552
711.00 0.2551
711.10 0.2549
711.20 0.2548
711.30 0.2546
711.40 0.2545
711.50 0.2544
711.60 0.2542
711.70 0.2541
711.80 0.2539
711.90 0.2538
712.00 0.2537
712.10 0.2535
712.20 0.2534
712.30 0.2533
712.40 0.2531
712.50 0.253
712.60 0.2528
712.70 0.2527
712.80 0.2526
712.90 0.2524
713.00 0.2523
713.10 0.2521
713.20 0.252
713.30 0.2519
713.40 0.2517
713.50 0.2516
713.60 0.2515
713.70 0.2513
713.80 0.2512
713.90 0.251
714.00 0.2509
714.10 0.2508
714.20 0.2506
714.30 0.2505
714.40 0.2504
714.50 0.2502
714.60 0.2501
714.70 0.25
714.80 0.2498
714.90 0.2497
715.00 0.2495
715.10 0.2494
715.20 0.2493
715.30 0.2491
715.40 0.249
715.50 0.2489
715.60 0.2487
715.70 0.2486
715.80 0.2485
715.90 0.2483
716.00 0.2482
716.10 0.2481
716.20 0.2479
716.30 0.2478
716.40 0.2477
716.50 0.2475
716.60 0.2474
716.70 0.2473
716.80 0.2471
716.90 0.247
717.00 0.2469
717.10 0.2467
717.20 0.2466
717.30 0.2465
717.40 0.2463
717.50 0.2462
717.60 0.2461
717.70 0.2459
717.80 0.2458
717.90 0.2456
718.00 0.2455
718.10 0.2454
718.20 0.2453
718.30 0.2451
718.40 0.245
718.50 0.2449
718.60 0.2447
718.70 0.2446
718.80 0.2445
718.90 0.2443
719.00 0.2442
719.10 0.2441
719.20 0.2439
719.30 0.2438
719.40 0.2437
719.50 0.2435
719.60 0.2434
719.70 0.2433
719.80 0.2431
719.90 0.243
720.00 0.2429
720.10 0.2427
720.20 0.2426
720.30 0.2425
720.40 0.2423
720.50 0.2422
720.60 0.2421
720.70 0.242
720.80 0.2418
720.90 0.2417
721.00 0.2416
721.10 0.2414
721.20 0.2413
721.30 0.2412
721.40 0.241
721.50 0.2409
721.60 0.2408
721.70 0.2407
721.80 0.2405
721.90 0.2404
722.00 0.2403
722.10 0.2401
722.20 0.24
722.30 0.2399
722.40 0.2397
722.50 0.2396
722.60 0.2395
722.70 0.2394
722.80 0.2392
722.90 0.2391
723.00 0.239
723.10 0.2388
723.20 0.2387
723.30 0.2386
723.40 0.2385
723.50 0.2383
723.60 0.2382
723.70 0.2381
723.80 0.2379
723.90 0.2378
724.00 0.2377
724.10 0.2376
724.20 0.2374
724.30 0.2373
724.40 0.2372
724.50 0.237
724.60 0.2369
724.70 0.2368
724.80 0.2367
724.90 0.2365
725.00 0.2364
725.10 0.2363
725.20 0.2362
725.30 0.236
725.40 0.2359
725.50 0.2358
725.60 0.2357
725.70 0.2355
725.80 0.2354
725.90 0.2353
726.00 0.2351
726.10 0.235
726.20 0.2349
726.30 0.2348
726.40 0.2346
726.50 0.2345
726.60 0.2344
726.70 0.2343
726.80 0.2341
726.90 0.234
727.00 0.2339
727.10 0.2338
727.20 0.2336
727.30 0.2335
727.40 0.2334
727.50 0.2333
727.60 0.2331
727.70 0.233
727.80 0.2329
727.90 0.2328
728.00 0.2326
728.10 0.2325
728.20 0.2324
728.30 0.2323
728.40 0.2321
728.50 0.232
728.60 0.2319
728.70 0.2318
728.80 0.2316
728.90 0.2315
729.00 0.2314
729.10 0.2313
729.20 0.2312
729.30 0.231
729.40 0.2309
729.50 0.2308
729.60 0.2307
729.70 0.2305
729.80 0.2304
729.90 0.2303
730.00 0.2302
730.10 0.23
730.20 0.2299
730.30 0.2298
730.40 0.2297
730.50 0.2296
730.60 0.2294
730.70 0.2293
730.80 0.2292
730.90 0.2291
731.00 0.229
731.10 0.2288
731.20 0.2287
731.30 0.2286
731.40 0.2285
731.50 0.2283
731.60 0.2282
731.70 0.2281
731.80 0.228
731.90 0.2279
732.00 0.2277
732.10 0.2276
732.20 0.2275
732.30 0.2274
732.40 0.2273
732.50 0.2271
732.60 0.227
732.70 0.2269
732.80 0.2268
732.90 0.2267
733.00 0.2265
733.10 0.2264
733.20 0.2263
733.30 0.2262
733.40 0.2261
733.50 0.2259
733.60 0.2258
733.70 0.2257
733.80 0.2256
733.90 0.2255
734.00 0.2253
734.10 0.2252
734.20 0.2251
734.30 0.225
734.40 0.2249
734.50 0.2247
734.60 0.2246
734.70 0.2245
734.80 0.2244
734.90 0.2243
735.00 0.2242
735.10 0.224
735.20 0.2239
735.30 0.2238
735.40 0.2237
735.50 0.2236
735.60 0.2234
735.70 0.2233
735.80 0.2232
735.90 0.2231
736.00 0.223
736.10 0.2229
736.20 0.2227
736.30 0.2226
736.40 0.2225
736.50 0.2224
736.60 0.2223
736.70 0.2221
736.80 0.222
736.90 0.2219
737.00 0.2218
737.10 0.2217
737.20 0.2216
737.30 0.2214
737.40 0.2213
737.50 0.2212
737.60 0.2211
737.70 0.221
737.80 0.2209
737.90 0.2207
738.00 0.2206
738.10 0.2205
738.20 0.2204
738.30 0.2203
738.40 0.2201
738.50 0.22
738.60 0.2199
738.70 0.2198
738.80 0.2197
738.90 0.2196
739.00 0.2194
739.10 0.2193
739.20 0.2192
739.30 0.2191
739.40 0.219
739.50 0.2189
739.60 0.2188
739.70 0.2186
739.80 0.2185
739.90 0.2184
740.00 0.2183
740.10 0.2182
740.20 0.2181
740.30 0.2179
740.40 0.2178
740.50 0.2177
740.60 0.2176
740.70 0.2175
740.80 0.2174
740.90 0.2173
741.00 0.2172
741.10 0.217
741.20 0.2169
741.30 0.2168
741.40 0.2167
741.50 0.2166
741.60 0.2165
741.70 0.2164
741.80 0.2162
741.90 0.2161
742.00 0.216
742.10 0.2159
742.20 0.2158
742.30 0.2157
742.40 0.2156
742.50 0.2155
742.60 0.2153
742.70 0.2152
742.80 0.2151
742.90 0.215
743.00 0.2149
743.10 0.2148
743.20 0.2147
743.30 0.2146
743.40 0.2144
743.50 0.2143
743.60 0.2142
743.70 0.2141
743.80 0.214
743.90 0.2139
744.00 0.2138
744.10 0.2137
744.20 0.2136
744.30 0.2134
744.40 0.2133
744.50 0.2132
744.60 0.2131
744.70 0.213
744.80 0.2129
744.90 0.2128
745.00 0.2127
745.10 0.2125
745.20 0.2124
745.30 0.2123
745.40 0.2122
745.50 0.2121
745.60 0.212
745.70 0.2119
745.80 0.2118
745.90 0.2117
746.00 0.2116
746.10 0.2114
746.20 0.2113
746.30 0.2112
746.40 0.2111
746.50 0.211
746.60 0.2109
746.70 0.2108
746.80 0.2107
746.90 0.2106
747.00 0.2104
747.10 0.2103
747.20 0.2102
747.30 0.2101
747.40 0.21
747.50 0.2099
747.60 0.2098
747.70 0.2097
747.80 0.2096
747.90 0.2095
748.00 0.2093
748.10 0.2092
748.20 0.2091
748.30 0.209
748.40 0.2089
748.50 0.2088
748.60 0.2087
748.70 0.2086
748.80 0.2085
748.90 0.2084
749.00 0.2083
749.10 0.2081
749.20 0.208
749.30 0.2079
749.40 0.2078
749.50 0.2077
749.60 0.2076
749.70 0.2075
749.80 0.2074
749.90 0.2073
750.00 0.2072
750.10 0.2071
750.20 0.207
750.30 0.2068
750.40 0.2067
750.50 0.2066
750.60 0.2065
750.70 0.2064
750.80 0.2063
750.90 0.2062
751.00 0.2061
751.10 0.206
751.20 0.2059
751.30 0.2058
751.40 0.2057
751.50 0.2056
751.60 0.2055
751.70 0.2054
751.80 0.2053
751.90 0.2051
752.00 0.205
752.10 0.2049
752.20 0.2048
752.30 0.2047
752.40 0.2046
752.50 0.2045
752.60 0.2044
752.70 0.2043
752.80 0.2042
752.90 0.2041
753.00 0.204
753.10 0.2039
753.20 0.2038
753.30 0.2037
753.40 0.2036
753.50 0.2035
753.60 0.2034
753.70 0.2033
753.80 0.2031
753.90 0.203
754.00 0.2029
754.10 0.2028
754.20 0.2027
754.30 0.2026
754.40 0.2025
754.50 0.2024
754.60 0.2023
754.70 0.2022
754.80 0.2021
754.90 0.202
755.00 0.2019
755.10 0.2018
755.20 0.2017
755.30 0.2016
755.40 0.2015
755.50 0.2014
755.60 0.2013
755.70 0.2012
755.80 0.2011
755.90 0.201
756.00 0.2009
756.10 0.2008
756.20 0.2006
756.30 0.2005
756.40 0.2004
756.50 0.2003
756.60 0.2002
756.70 0.2001
756.80 0.2
756.90 0.1999
757.00 0.1998
757.10 0.1997
757.20 0.1996
757.30 0.1995
757.40 0.1994
757.50 0.1993
757.60 0.1992
757.70 0.1991
757.80 0.199
757.90 0.1989
758.00 0.1988
758.10 0.1987
758.20 0.1986
758.30 0.1985
758.40 0.1984
758.50 0.1983
758.60 0.1982
758.70 0.1981
758.80 0.198
758.90 0.1979
759.00 0.1978
759.10 0.1977
759.20 0.1976
759.30 0.1975
759.40 0.1974
759.50 0.1973
759.60 0.1972
759.70 0.1971
759.80 0.1969
759.90 0.1968
760.00 0.1967
760.10 0.1966
760.20 0.1965
760.30 0.1964
760.40 0.1963
760.50 0.1962
760.60 0.1961
760.70 0.196
760.80 0.1959
760.90 0.1958
761.00 0.1957
761.10 0.1956
761.20 0.1955
761.30 0.1955
761.40 0.1954
761.50 0.1953
761.60 0.1952
761.70 0.1951
761.80 0.195
761.90 0.1949
762.00 0.1948
762.10 0.1947
762.20 0.1946
762.30 0.1945
762.40 0.1944
762.50 0.1943
762.60 0.1942
762.70 0.1941
762.80 0.194
762.90 0.1939
763.00 0.1938
763.10 0.1937
763.20 0.1936
763.30 0.1935
763.40 0.1934
763.50 0.1933
763.60 0.1932
763.70 0.1931
763.80 0.193
763.90 0.1929
764.00 0.1928
764.10 0.1927
764.20 0.1926
764.30 0.1925
764.40 0.1924
764.50 0.1923
764.60 0.1922
764.70 0.1921
764.80 0.192
764.90 0.1919
765.00 0.1918
765.10 0.1917
765.20 0.1916
765.30 0.1915
765.40 0.1914
765.50 0.1913
765.60 0.1912
765.70 0.1911
765.80 0.191
765.90 0.1909
766.00 0.1908
766.10 0.1907
766.20 0.1906
766.30 0.1905
766.40 0.1904
766.50 0.1903
766.60 0.1902
766.70 0.1901
766.80 0.1901
766.90 0.19
767.00 0.1899
767.10 0.1898
767.20 0.1897
767.30 0.1896
767.40 0.1895
767.50 0.1894
767.60 0.1893
767.70 0.1892
767.80 0.1891
767.90 0.189
768.00 0.1889
768.10 0.1888
768.20 0.1887
768.30 0.1886
768.40 0.1885
768.50 0.1884
768.60 0.1883
768.70 0.1882
768.80 0.1881
768.90 0.188
769.00 0.1879
769.10 0.1878
769.20 0.1877
769.30 0.1876
769.40 0.1875
769.50 0.1875
769.60 0.1874
769.70 0.1873
769.80 0.1872
769.90 0.1871
770.00 0.187
770.10 0.1869
770.20 0.1868
770.30 0.1867
770.40 0.1866
770.50 0.1865
770.60 0.1864
770.70 0.1863
770.80 0.1862
770.90 0.1861
771.00 0.186
771.10 0.1859
771.20 0.1859
771.30 0.1858
771.40 0.1857
771.50 0.1856
771.60 0.1855
771.70 0.1854
771.80 0.1853
771.90 0.1852
772.00 0.1851
772.10 0.185
772.20 0.1849
772.30 0.1848
772.40 0.1847
772.50 0.1846
772.60 0.1845
772.70 0.1845
772.80 0.1844
772.90 0.1843
773.00 0.1842
773.10 0.1841
773.20 0.184
773.30 0.1839
773.40 0.1838
773.50 0.1837
773.60 0.1836
773.70 0.1835
773.80 0.1834
773.90 0.1833
774.00 0.1833
774.10 0.1832
774.20 0.1831
774.30 0.183
774.40 0.1829
774.50 0.1828
774.60 0.1827
774.70 0.1826
774.80 0.1825
774.90 0.1824
775.00 0.1823
775.10 0.1822
775.20 0.1822
775.30 0.1821
775.40 0.182
775.50 0.1819
775.60 0.1818
775.70 0.1817
775.80 0.1816
775.90 0.1815
776.00 0.1814
776.10 0.1813
776.20 0.1812
776.30 0.1811
776.40 0.1811
776.50 0.181
776.60 0.1809
776.70 0.1808
776.80 0.1807
776.90 0.1806
777.00 0.1805
777.10 0.1804
777.20 0.1803
777.30 0.1802
777.40 0.1801
777.50 0.1801
777.60 0.18
777.70 0.1799
777.80 0.1798
777.90 0.1797
778.00 0.1796
778.10 0.1795
778.20 0.1794
778.30 0.1793
778.40 0.1792
778.50 0.1792
778.60 0.1791
778.70 0.179
778.80 0.1789
778.90 0.1788
779.00 0.1787
779.10 0.1786
779.20 0.1785
779.30 0.1784
779.40 0.1783
779.50 0.1783
779.60 0.1782
779.70 0.1781
779.80 0.178
779.90 0.1779
780.00 0.1778
780.10 0.1777
780.20 0.1776
780.30 0.1775
780.40 0.1775
780.50 0.1774
780.60 0.1773
780.70 0.1772
780.80 0.1771
780.90 0.177
781.00 0.1769
781.10 0.1768
781.20 0.1767
781.30 0.1767
781.40 0.1766
781.50 0.1765
781.60 0.1764
781.70 0.1763
781.80 0.1762
781.90 0.1761
782.00 0.176
782.10 0.176
782.20 0.1759
782.30 0.1758
782.40 0.1757
782.50 0.1756
782.60 0.1755
782.70 0.1754
782.80 0.1754
782.90 0.1753
783.00 0.1752
783.10 0.1751
783.20 0.175
783.30 0.1749
783.40 0.1748
783.50 0.1747
783.60 0.1747
783.70 0.1746
783.80 0.1745
783.90 0.1744
784.00 0.1743
784.10 0.1742
784.20 0.1741
784.30 0.1741
784.40 0.174
784.50 0.1739
784.60 0.1738
784.70 0.1737
784.80 0.1736
784.90 0.1735
785.00 0.1734
785.10 0.1734
785.20 0.1733
785.30 0.1732
785.40 0.1731
785.50 0.173
785.60 0.1729
785.70 0.1728
785.80 0.1728
785.90 0.1727
786.00 0.1726
786.10 0.1725
786.20 0.1724
786.30 0.1723
786.40 0.1722
786.50 0.1722
786.60 0.1721
786.70 0.172
786.80 0.1719
786.90 0.1718
787.00 0.1717
787.10 0.1716
787.20 0.1716
787.30 0.1715
787.40 0.1714
787.50 0.1713
787.60 0.1712
787.70 0.1711
787.80 0.1711
787.90 0.171
788.00 0.1709
788.10 0.1708
788.20 0.1707
788.30 0.1706
788.40 0.1705
788.50 0.1705
788.60 0.1704
788.70 0.1703
788.80 0.1702
788.90 0.1701
789.00 0.17
789.10 0.1699
789.20 0.1699
789.30 0.1698
789.40 0.1697
789.50 0.1696
789.60 0.1695
789.70 0.1694
789.80 0.1694
789.90 0.1693
790.00 0.1692
790.10 0.1691
790.20 0.169
790.30 0.1689
790.40 0.1689
790.50 0.1688
790.60 0.1687
790.70 0.1686
790.80 0.1685
790.90 0.1684
791.00 0.1684
791.10 0.1683
791.20 0.1682
791.30 0.1681
791.40 0.168
791.50 0.168
791.60 0.1679
791.70 0.1678
791.80 0.1677
791.90 0.1676
792.00 0.1675
792.10 0.1675
792.20 0.1674
792.30 0.1673
792.40 0.1672
792.50 0.1671
792.60 0.167
792.70 0.167
792.80 0.1669
792.90 0.1668
793.00 0.1667
793.10 0.1666
793.20 0.1666
793.30 0.1665
793.40 0.1664
793.50 0.1663
793.60 0.1662
793.70 0.1662
793.80 0.1661
793.90 0.166
794.00 0.1659
794.10 0.1658
794.20 0.1657
794.30 0.1657
794.40 0.1656
794.50 0.1655
794.60 0.1654
794.70 0.1653
794.80 0.1653
794.90 0.1652
795.00 0.1651
795.10 0.165
795.20 0.1649
795.30 0.1649
795.40 0.1648
795.50 0.1647
795.60 0.1646
795.70 0.1645
795.80 0.1644
795.90 0.1644
796.00 0.1643
796.10 0.1642
796.20 0.1641
796.30 0.164
796.40 0.164
796.50 0.1639
796.60 0.1638
796.70 0.1637
796.80 0.1636
796.90 0.1636
797.00 0.1635
797.10 0.1634
797.20 0.1633
797.30 0.1632
797.40 0.1632
797.50 0.1631
797.60 0.163
797.70 0.1629
797.80 0.1628
797.90 0.1628
798.00 0.1627
798.10 0.1626
798.20 0.1625
798.30 0.1624
798.40 0.1624
798.50 0.1623
798.60 0.1622
798.70 0.1621
798.80 0.162
798.90 0.162
799.00 0.1619
799.10 0.1618
799.20 0.1617
799.30 0.1616
799.40 0.1616
799.50 0.1615
799.60 0.1614
799.70 0.1613
799.80 0.1612
799.90 0.1612
800.00 0.1611
800.10 0.161
800.20 0.1609
800.30 0.1609
800.40 0.1608
800.50 0.1607
800.60 0.1606
800.70 0.1605
800.80 0.1605
800.90 0.1604
801.00 0.1603
801.10 0.1602
801.20 0.1602
801.30 0.1601
801.40 0.16
801.50 0.1599
801.60 0.1599
801.70 0.1598
801.80 0.1597
801.90 0.1596
802.00 0.1595
802.10 0.1595
802.20 0.1594
802.30 0.1593
802.40 0.1592
802.50 0.1592
802.60 0.1591
802.70 0.159
802.80 0.1589
802.90 0.1588
803.00 0.1588
803.10 0.1587
803.20 0.1586
803.30 0.1585
803.40 0.1585
803.50 0.1584
803.60 0.1583
803.70 0.1582
803.80 0.1582
803.90 0.1581
804.00 0.158
804.10 0.1579
804.20 0.1579
804.30 0.1578
804.40 0.1577
804.50 0.1576
804.60 0.1575
804.70 0.1575
804.80 0.1574
804.90 0.1573
805.00 0.1572
805.10 0.1572
805.20 0.1571
805.30 0.157
805.40 0.1569
805.50 0.1569
805.60 0.1568
805.70 0.1567
805.80 0.1566
805.90 0.1566
806.00 0.1565
806.10 0.1564
806.20 0.1563
806.30 0.1563
806.40 0.1562
806.50 0.1561
806.60 0.156
806.70 0.156
806.80 0.1559
806.90 0.1558
807.00 0.1557
807.10 0.1556
807.20 0.1556
807.30 0.1555
807.40 0.1554
807.50 0.1553
807.60 0.1553
807.70 0.1552
807.80 0.1551
807.90 0.155
808.00 0.155
808.10 0.1549
808.20 0.1548
808.30 0.1547
808.40 0.1547
808.50 0.1546
808.60 0.1545
808.70 0.1544
808.80 0.1544
808.90 0.1543
809.00 0.1542
809.10 0.1541
809.20 0.1541
809.30 0.154
809.40 0.1539
809.50 0.1538
809.60 0.1538
809.70 0.1537
809.80 0.1536
809.90 0.1535
810.00 0.1535
810.10 0.1534
810.20 0.1533
810.30 0.1533
810.40 0.1532
810.50 0.1531
810.60 0.153
810.70 0.153
810.80 0.1529
810.90 0.1528
811.00 0.1527
811.10 0.1527
811.20 0.1526
811.30 0.1525
811.40 0.1525
811.50 0.1524
811.60 0.1523
811.70 0.1522
811.80 0.1522
811.90 0.1521
812.00 0.152
812.10 0.1519
812.20 0.1519
812.30 0.1518
812.40 0.1517
812.50 0.1517
812.60 0.1516
812.70 0.1515
812.80 0.1514
812.90 0.1514
813.00 0.1513
813.10 0.1512
813.20 0.1511
813.30 0.1511
813.40 0.151
813.50 0.1509
813.60 0.1509
813.70 0.1508
813.80 0.1507
813.90 0.1506
814.00 0.1506
814.10 0.1505
814.20 0.1504
814.30 0.1504
814.40 0.1503
814.50 0.1502
814.60 0.1501
814.70 0.1501
814.80 0.15
814.90 0.1499
815.00 0.1498
815.10 0.1498
815.20 0.1497
815.30 0.1496
815.40 0.1496
815.50 0.1495
815.60 0.1494
815.70 0.1493
815.80 0.1493
815.90 0.1492
816.00 0.1491
816.10 0.1491
816.20 0.149
816.30 0.1489
816.40 0.1488
816.50 0.1488
816.60 0.1487
816.70 0.1486
816.80 0.1486
816.90 0.1485
817.00 0.1484
817.10 0.1484
817.20 0.1483
817.30 0.1482
817.40 0.1481
817.50 0.1481
817.60 0.148
817.70 0.1479
817.80 0.1479
817.90 0.1478
818.00 0.1477
818.10 0.1476
818.20 0.1476
818.30 0.1475
818.40 0.1474
818.50 0.1474
818.60 0.1473
818.70 0.1472
818.80 0.1471
818.90 0.1471
819.00 0.147
819.10 0.1469
819.20 0.1469
819.30 0.1468
819.40 0.1467
819.50 0.1467
819.60 0.1466
819.70 0.1465
819.80 0.1464
819.90 0.1464
820.00 0.1463
820.10 0.1462
820.20 0.1462
820.30 0.1461
820.40 0.146
820.50 0.146
820.60 0.1459
820.70 0.1458
820.80 0.1457
820.90 0.1457
821.00 0.1456
821.10 0.1455
821.20 0.1455
821.30 0.1454
821.40 0.1453
821.50 0.1453
821.60 0.1452
821.70 0.1451
821.80 0.1451
821.90 0.145
822.00 0.1449
822.10 0.1448
822.20 0.1448
822.30 0.1447
822.40 0.1446
822.50 0.1446
822.60 0.1445
822.70 0.1444
822.80 0.1444
822.90 0.1443
823.00 0.1442
823.10 0.1442
823.20 0.1441
823.30 0.144
823.40 0.144
823.50 0.1439
823.60 0.1438
823.70 0.1438
823.80 0.1437
823.90 0.1436
824.00 0.1436
824.10 0.1435
824.20 0.1434
824.30 0.1434
824.40 0.1433
824.50 0.1432
824.60 0.1431
824.70 0.1431
824.80 0.143
824.90 0.1429
825.00 0.1429
825.10 0.1428
825.20 0.1427
825.30 0.1427
825.40 0.1426
825.50 0.1425
825.60 0.1425
825.70 0.1424
825.80 0.1423
825.90 0.1423
826.00 0.1422
826.10 0.1421
826.20 0.1421
826.30 0.142
826.40 0.1419
826.50 0.1419
826.60 0.1418
826.70 0.1417
826.80 0.1417
826.90 0.1416
827.00 0.1415
827.10 0.1415
827.20 0.1414
827.30 0.1413
827.40 0.1413
827.50 0.1412
827.60 0.1411
827.70 0.1411
827.80 0.141
827.90 0.1409
828.00 0.1409
828.10 0.1408
828.20 0.1407
828.30 0.1407
828.40 0.1406
828.50 0.1405
828.60 0.1405
828.70 0.1404
828.80 0.1403
828.90 0.1403
829.00 0.1402
829.10 0.1401
829.20 0.1401
829.30 0.14
829.40 0.1399
829.50 0.1399
829.60 0.1398
829.70 0.1397
829.80 0.1397
829.90 0.1396
830.00 0.1395
830.10 0.1395
830.20 0.1394
830.30 0.1394
830.40 0.1393
830.50 0.1392
830.60 0.1392
830.70 0.1391
830.80 0.139
830.90 0.139
831.00 0.1389
831.10 0.1388
831.20 0.1388
831.30 0.1387
831.40 0.1386
831.50 0.1386
831.60 0.1385
831.70 0.1384
831.80 0.1384
831.90 0.1383
832.00 0.1382
832.10 0.1382
832.20 0.1381
832.30 0.138
832.40 0.138
832.50 0.1379
832.60 0.1379
832.70 0.1378
832.80 0.1377
832.90 0.1377
833.00 0.1376
833.10 0.1375
833.20 0.1375
833.30 0.1374
833.40 0.1373
833.50 0.1373
833.60 0.1372
833.70 0.1371
833.80 0.1371
833.90 0.137
834.00 0.137
834.10 0.1369
834.20 0.1368
834.30 0.1368
834.40 0.1367
834.50 0.1366
834.60 0.1366
834.70 0.1365
834.80 0.1364
834.90 0.1364
835.00 0.1363
835.10 0.1362
835.20 0.1362
835.30 0.1361
835.40 0.1361
835.50 0.136
835.60 0.1359
835.70 0.1359
835.80 0.1358
835.90 0.1357
836.00 0.1357
836.10 0.1356
836.20 0.1355
836.30 0.1355
836.40 0.1354
836.50 0.1354
836.60 0.1353
836.70 0.1352
836.80 0.1352
836.90 0.1351
837.00 0.135
837.10 0.135
837.20 0.1349
837.30 0.1349
837.40 0.1348
837.50 0.1347
837.60 0.1347
837.70 0.1346
837.80 0.1345
837.90 0.1345
838.00 0.1344
838.10 0.1344
838.20 0.1343
838.30 0.1342
838.40 0.1342
838.50 0.1341
838.60 0.134
838.70 0.134
838.80 0.1339
838.90 0.1339
839.00 0.1338
839.10 0.1337
839.20 0.1337
839.30 0.1336
839.40 0.1335
839.50 0.1335
839.60 0.1334
839.70 0.1334
839.80 0.1333
839.90 0.1332
840.00 0.1332
840.10 0.1331
840.20 0.133
840.30 0.133
840.40 0.1329
840.50 0.1329
840.60 0.1328
840.70 0.1327
840.80 0.1327
840.90 0.1326
841.00 0.1326
841.10 0.1325
841.20 0.1324
841.30 0.1324
841.40 0.1323
841.50 0.1322
841.60 0.1322
841.70 0.1321
841.80 0.1321
841.90 0.132
842.00 0.1319
842.10 0.1319
842.20 0.1318
842.30 0.1318
842.40 0.1317
842.50 0.1316
842.60 0.1316
842.70 0.1315
842.80 0.1315
842.90 0.1314
843.00 0.1313
843.10 0.1313
843.20 0.1312
843.30 0.1311
843.40 0.1311
843.50 0.131
843.60 0.131
843.70 0.1309
843.80 0.1308
843.90 0.1308
844.00 0.1307
844.10 0.1307
844.20 0.1306
844.30 0.1305
844.40 0.1305
844.50 0.1304
844.60 0.1304
844.70 0.1303
844.80 0.1302
844.90 0.1302
845.00 0.1301
845.10 0.1301
845.20 0.13
845.30 0.1299
845.40 0.1299
845.50 0.1298
845.60 0.1298
845.70 0.1297
845.80 0.1296
845.90 0.1296
846.00 0.1295
846.10 0.1295
846.20 0.1294
846.30 0.1293
846.40 0.1293
846.50 0.1292
846.60 0.1292
846.70 0.1291
846.80 0.129
846.90 0.129
847.00 0.1289
847.10 0.1289
847.20 0.1288
847.30 0.1287
847.40 0.1287
847.50 0.1286
847.60 0.1286
847.70 0.1285
847.80 0.1284
847.90 0.1284
848.00 0.1283
848.10 0.1283
848.20 0.1282
848.30 0.1282
848.40 0.1281
848.50 0.128
848.60 0.128
848.70 0.1279
848.80 0.1279
848.90 0.1278
849.00 0.1277
849.10 0.1277
849.20 0.1276
849.30 0.1276
849.40 0.1275
849.50 0.1274
849.60 0.1274
849.70 0.1273
849.80 0.1273
849.90 0.1272
850.00 0.1272
850.10 0.1271
850.20 0.127
850.30 0.127
850.40 0.1269
850.50 0.1269
850.60 0.1268
850.70 0.1267
850.80 0.1267
850.90 0.1266
851.00 0.1266
851.10 0.1265
851.20 0.1265
851.30 0.1264
851.40 0.1263
851.50 0.1263
851.60 0.1262
851.70 0.1262
851.80 0.1261
851.90 0.126
852.00 0.126
852.10 0.1259
852.20 0.1259
852.30 0.1258
852.40 0.1258
852.50 0.1257
852.60 0.1256
852.70 0.1256
852.80 0.1255
852.90 0.1255
853.00 0.1254
853.10 0.1254
853.20 0.1253
853.30 0.1252
853.40 0.1252
853.50 0.1251
853.60 0.1251
853.70 0.125
853.80 0.125
853.90 0.1249
854.00 0.1248
854.10 0.1248
854.20 0.1247
854.30 0.1247
854.40 0.1246
854.50 0.1246
854.60 0.1245
854.70 0.1244
854.80 0.1244
854.90 0.1243
855.00 0.1243
855.10 0.1242
855.20 0.1242
855.30 0.1241
855.40 0.124
855.50 0.124
855.60 0.1239
855.70 0.1239
855.80 0.1238
855.90 0.1238
856.00 0.1237
856.10 0.1237
856.20 0.1236
856.30 0.1235
856.40 0.1235
856.50 0.1234
856.60 0.1234
856.70 0.1233
856.80 0.1233
856.90 0.1232
857.00 0.1231
857.10 0.1231
857.20 0.123
857.30 0.123
857.40 0.1229
857.50 0.1229
857.60 0.1228
857.70 0.1228
857.80 0.1227
857.90 0.1226
858.00 0.1226
858.10 0.1225
858.20 0.1225
858.30 0.1224
858.40 0.1224
858.50 0.1223
858.60 0.1223
858.70 0.1222
858.80 0.1221
858.90 0.1221
859.00 0.122
859.10 0.122
859.20 0.1219
859.30 0.1219
859.40 0.1218
859.50 0.1218
859.60 0.1217
859.70 0.1216
859.80 0.1216
859.90 0.1215
860.00 0.1215
860.10 0.1214
860.20 0.1214
860.30 0.1213
860.40 0.1213
860.50 0.1212
860.60 0.1211
860.70 0.1211
860.80 0.121
860.90 0.121
861.00 0.1209
861.10 0.1209
861.20 0.1208
861.30 0.1208
861.40 0.1207
861.50 0.1207
861.60 0.1206
861.70 0.1205
861.80 0.1205
861.90 0.1204
862.00 0.1204
862.10 0.1203
862.20 0.1203
862.30 0.1202
862.40 0.1202
862.50 0.1201
862.60 0.1201
862.70 0.12
862.80 0.1199
862.90 0.1199
863.00 0.1198
863.10 0.1198
863.20 0.1197
863.30 0.1197
863.40 0.1196
863.50 0.1196
863.60 0.1195
863.70 0.1195
863.80 0.1194
863.90 0.1194
864.00 0.1193
864.10 0.1192
864.20 0.1192
864.30 0.1191
864.40 0.1191
864.50 0.119
864.60 0.119
864.70 0.1189
864.80 0.1189
864.90 0.1188
865.00 0.1188
865.10 0.1187
865.20 0.1187
865.30 0.1186
865.40 0.1185
865.50 0.1185
865.60 0.1184
865.70 0.1184
865.80 0.1183
865.90 0.1183
866.00 0.1182
866.10 0.1182
866.20 0.1181
866.30 0.1181
866.40 0.118
866.50 0.118
866.60 0.1179
866.70 0.1179
866.80 0.1178
866.90 0.1177
867.00 0.1177
867.10 0.1176
867.20 0.1176
867.30 0.1175
867.40 0.1175
867.50 0.1174
867.60 0.1174
867.70 0.1173
867.80 0.1173
867.90 0.1172
868.00 0.1172
868.10 0.1171
868.20 0.1171
868.30 0.117
868.40 0.117
868.50 0.1169
868.60 0.1169
868.70 0.1168
868.80 0.1167
868.90 0.1167
869.00 0.1166
869.10 0.1166
869.20 0.1165
869.30 0.1165
869.40 0.1164
869.50 0.1164
869.60 0.1163
869.70 0.1163
869.80 0.1162
869.90 0.1162
870.00 0.1161
870.10 0.1161
870.20 0.116
870.30 0.116
870.40 0.1159
870.50 0.1159
870.60 0.1158
870.70 0.1158
870.80 0.1157
870.90 0.1156
871.00 0.1156
871.10 0.1155
871.20 0.1155
871.30 0.1154
871.40 0.1154
871.50 0.1153
871.60 0.1153
871.70 0.1152
871.80 0.1152
871.90 0.1151
872.00 0.1151
872.10 0.115
872.20 0.115
872.30 0.1149
872.40 0.1149
872.50 0.1148
872.60 0.1148
872.70 0.1147
872.80 0.1147
872.90 0.1146
873.00 0.1146
873.10 0.1145
873.20 0.1145
873.30 0.1144
873.40 0.1144
873.50 0.1143
873.60 0.1143
873.70 0.1142
873.80 0.1142
873.90 0.1141
874.00 0.1141
874.10 0.114
874.20 0.114
874.30 0.1139
874.40 0.1139
874.50 0.1138
874.60 0.1138
874.70 0.1137
874.80 0.1137
874.90 0.1136
875.00 0.1135
875.10 0.1135
875.20 0.1134
875.30 0.1134
875.40 0.1133
875.50 0.1133
875.60 0.1132
875.70 0.1132
875.80 0.1131
875.90 0.1131
876.00 0.113
876.10 0.113
876.20 0.1129
876.30 0.1129
876.40 0.1128
876.50 0.1128
876.60 0.1127
876.70 0.1127
876.80 0.1126
876.90 0.1126
877.00 0.1125
877.10 0.1125
877.20 0.1124
877.30 0.1124
877.40 0.1123
877.50 0.1123
877.60 0.1122
877.70 0.1122
877.80 0.1121
877.90 0.1121
878.00 0.112
878.10 0.112
878.20 0.1119
878.30 0.1119
878.40 0.1118
878.50 0.1118
878.60 0.1117
878.70 0.1117
878.80 0.1116
878.90 0.1116
879.00 0.1115
879.10 0.1115
879.20 0.1114
879.30 0.1114
879.40 0.1113
879.50 0.1113
879.60 0.1113
879.70 0.1112
879.80 0.1112
879.90 0.1111
880.00 0.1111
880.10 0.111
880.20 0.111
880.30 0.1109
880.40 0.1109
880.50 0.1108
880.60 0.1108
880.70 0.1107
880.80 0.1107
880.90 0.1106
881.00 0.1106
881.10 0.1105
881.20 0.1105
881.30 0.1104
881.40 0.1104
881.50 0.1103
881.60 0.1103
881.70 0.1102
881.80 0.1102
881.90 0.1101
882.00 0.1101
882.10 0.11
882.20 0.11
882.30 0.1099
882.40 0.1099
882.50 0.1098
882.60 0.1098
882.70 0.1097
882.80 0.1097
882.90 0.1096
883.00 0.1096
883.10 0.1095
883.20 0.1095
883.30 0.1094
883.40 0.1094
883.50 0.1093
883.60 0.1093
883.70 0.1093
883.80 0.1092
883.90 0.1092
884.00 0.1091
884.10 0.1091
884.20 0.109
884.30 0.109
884.40 0.1089
884.50 0.1089
884.60 0.1088
884.70 0.1088
884.80 0.1087
884.90 0.1087
885.00 0.1086
885.10 0.1086
885.20 0.1085
885.30 0.1085
885.40 0.1084
885.50 0.1084
885.60 0.1083
885.70 0.1083
885.80 0.1083
885.90 0.1082
886.00 0.1082
886.10 0.1081
886.20 0.1081
886.30 0.108
886.40 0.108
886.50 0.1079
886.60 0.1079
886.70 0.1078
886.80 0.1078
886.90 0.1077
887.00 0.1077
887.10 0.1076
887.20 0.1076
887.30 0.1075
887.40 0.1075
887.50 0.1074
887.60 0.1074
887.70 0.1074
887.80 0.1073
887.90 0.1073
888.00 0.1072
888.10 0.1072
888.20 0.1071
888.30 0.1071
888.40 0.107
888.50 0.107
888.60 0.1069
888.70 0.1069
888.80 0.1068
888.90 0.1068
889.00 0.1067
889.10 0.1067
889.20 0.1066
889.30 0.1066
889.40 0.1066
889.50 0.1065
889.60 0.1065
889.70 0.1064
889.80 0.1064
889.90 0.1063
890.00 0.1063
890.10 0.1062
890.20 0.1062
890.30 0.1061
890.40 0.1061
890.50 0.106
890.60 0.106
890.70 0.1059
890.80 0.1059
890.90 0.1058
891.00 0.1058
891.10 0.1058
891.20 0.1057
891.30 0.1057
891.40 0.1056
891.50 0.1056
891.60 0.1055
891.70 0.1055
891.80 0.1054
891.90 0.1054
892.00 0.1053
892.10 0.1053
892.20 0.1052
892.30 0.1052
892.40 0.1052
892.50 0.1051
892.60 0.1051
892.70 0.105
892.80 0.105
892.90 0.1049
893.00 0.1049
893.10 0.1048
893.20 0.1048
893.30 0.1047
893.40 0.1047
893.50 0.1046
893.60 0.1046
893.70 0.1046
893.80 0.1045
893.90 0.1045
894.00 0.1044
894.10 0.1044
894.20 0.1043
894.30 0.1043
894.40 0.1042
894.50 0.1042
894.60 0.1041
894.70 0.1041
894.80 0.1041
894.90 0.104
895.00 0.104
895.10 0.1039
895.20 0.1039
895.30 0.1038
895.40 0.1038
895.50 0.1037
895.60 0.1037
895.70 0.1036
895.80 0.1036
895.90 0.1036
896.00 0.1035
896.10 0.1035
896.20 0.1034
896.30 0.1034
896.40 0.1033
896.50 0.1033
896.60 0.1032
896.70 0.1032
896.80 0.1031
896.90 0.1031
897.00 0.1031
897.10 0.103
897.20 0.103
897.30 0.1029
897.40 0.1029
897.50 0.1028
897.60 0.1028
897.70 0.1027
897.80 0.1027
897.90 0.1027
898.00 0.1026
898.10 0.1026
898.20 0.1025
898.30 0.1025
898.40 0.1024
898.50 0.1024
898.60 0.1024
898.70 0.1023
898.80 0.1023
898.90 0.1022
899.00 0.1022
899.10 0.1021
899.20 0.1021
899.30 0.102
899.40 0.102
899.50 0.102
899.60 0.1019
899.70 0.1019
899.80 0.1018
899.90 0.1018
900.00 0.1017
900.10 0.1017
900.20 0.1017
900.30 0.1016
900.40 0.1016
900.50 0.1015
900.60 0.1015
900.70 0.1014
900.80 0.1014
900.90 0.1013
901.00 0.1013
901.10 0.1013
901.20 0.1012
901.30 0.1012
901.40 0.1011
901.50 0.1011
901.60 0.101
901.70 0.101
901.80 0.101
901.90 0.1009
902.00 0.1009
902.10 0.1008
902.20 0.1008
902.30 0.1007
902.40 0.1007
902.50 0.1006
902.60 0.1006
902.70 0.1006
902.80 0.1005
902.90 0.1005
903.00 0.1004
903.10 0.1004
903.20 0.1003
903.30 0.1003
903.40 0.1003
903.50 0.1002
903.60 0.1002
903.70 0.1001
903.80 0.1001
903.90 0.1
904.00 0.1
904.10 0.09995
904.20 0.09991
904.30 0.09987
904.40 0.09982
904.50 0.09978
904.60 0.09974
904.70 0.0997
904.80 0.09965
904.90 0.09961
905.00 0.09957
905.10 0.09952
905.20 0.09948
905.30 0.09944
905.40 0.09939
905.50 0.09935
905.60 0.09931
905.70 0.09926
905.80 0.09922
905.90 0.09918
906.00 0.09914
906.10 0.09909
906.20 0.09905
906.30 0.09901
906.40 0.09896
906.50 0.09892
906.60 0.09888
906.70 0.09884
906.80 0.09879
906.90 0.09875
907.00 0.09871
907.10 0.09866
907.20 0.09862
907.30 0.09858
907.40 0.09854
907.50 0.0985
907.60 0.09845
907.70 0.09841
907.80 0.09837
907.90 0.09833
908.00 0.09829
908.10 0.09824
908.20 0.0982
908.30 0.09816
908.40 0.09812
908.50 0.09808
908.60 0.09803
908.70 0.09799
908.80 0.09795
908.90 0.09791
909.00 0.09787
909.10 0.09782
909.20 0.09778
909.30 0.09774
909.40 0.0977
909.50 0.09766
909.60 0.09761
909.70 0.09757
909.80 0.09753
909.90 0.09749
910.00 0.09745
910.10 0.09741
910.20 0.09736
910.30 0.09732
910.40 0.09728
910.50 0.09724
910.60 0.0972
910.70 0.09716
910.80 0.09711
910.90 0.09707
911.00 0.09703
911.10 0.09699
911.20 0.09695
911.30 0.09691
911.40 0.09686
911.50 0.09682
911.60 0.09678
911.70 0.09674
911.80 0.0967
911.90 0.09666
912.00 0.09662
912.10 0.09657
912.20 0.09653
912.30 0.09649
912.40 0.09645
912.50 0.09641
912.60 0.09636
912.70 0.09632
912.80 0.09628
912.90 0.09624
913.00 0.0962
913.10 0.09616
913.20 0.09612
913.30 0.09607
913.40 0.09603
913.50 0.09599
913.60 0.09595
913.70 0.09591
913.80 0.09587
913.90 0.09583
914.00 0.09578
914.10 0.09574
914.20 0.0957
914.30 0.09566
914.40 0.09562
914.50 0.09558
914.60 0.09554
914.70 0.09549
914.80 0.09545
914.90 0.09541
915.00 0.09537
915.10 0.09533
915.20 0.09529
915.30 0.09525
915.40 0.09521
915.50 0.09516
915.60 0.09512
915.70 0.09508
915.80 0.09504
915.90 0.095
916.00 0.09496
916.10 0.09492
916.20 0.09488
916.30 0.09484
916.40 0.09479
916.50 0.09475
916.60 0.09471
916.70 0.09467
916.80 0.09463
916.90 0.09459
917.00 0.09455
917.10 0.09451
917.20 0.09447
917.30 0.09443
917.40 0.09439
917.50 0.09435
917.60 0.09431
917.70 0.09427
917.80 0.09423
917.90 0.09419
918.00 0.09415
918.10 0.09411
918.20 0.09407
918.30 0.09403
918.40 0.09399
918.50 0.09395
918.60 0.09391
918.70 0.09387
918.80 0.09383
918.90 0.09379
919.00 0.09375
919.10 0.09371
919.20 0.09367
919.30 0.09363
919.40 0.09359
919.50 0.09355
919.60 0.09351
919.70 0.09347
919.80 0.09343
919.90 0.09339
920.00 0.09335
920.10 0.09331
920.20 0.09327
920.30 0.09323
920.40 0.09319
920.50 0.09315
920.60 0.09311
920.70 0.09307
920.80 0.09303
920.90 0.09299
921.00 0.09295
921.10 0.09291
921.20 0.09287
921.30 0.09283
921.40 0.09279
921.50 0.09275
921.60 0.09271
921.70 0.09267
921.80 0.09263
921.90 0.09259
922.00 0.09255
922.10 0.09251
922.20 0.09247
922.30 0.09244
922.40 0.0924
922.50 0.09236
922.60 0.09232
922.70 0.09228
922.80 0.09224
922.90 0.0922
923.00 0.09216
923.10 0.09212
923.20 0.09209
923.30 0.09205
923.40 0.09201
923.50 0.09197
923.60 0.09193
923.70 0.09189
923.80 0.09185
923.90 0.09182
924.00 0.09178
924.10 0.09174
924.20 0.0917
924.30 0.09166
924.40 0.09162
924.50 0.09158
924.60 0.09155
924.70 0.09151
924.80 0.09147
924.90 0.09143
925.00 0.09139
925.10 0.09135
925.20 0.09131
925.30 0.09128
925.40 0.09124
925.50 0.0912
925.60 0.09116
925.70 0.09112
925.80 0.09108
925.90 0.09105
926.00 0.09101
926.10 0.09097
926.20 0.09093
926.30 0.09089
926.40 0.09085
926.50 0.09082
926.60 0.09078
926.70 0.09074
926.80 0.0907
926.90 0.09066
927.00 0.09062
927.10 0.09059
927.20 0.09055
927.30 0.09051
927.40 0.09048
927.50 0.09044
927.60 0.0904
927.70 0.09037
927.80 0.09033
927.90 0.09029
928.00 0.09025
928.10 0.09022
928.20 0.09018
928.30 0.09014
928.40 0.09011
928.50 0.09007
928.60 0.09003
928.70 0.09
928.80 0.08996
928.90 0.08992
929.00 0.08989
929.10 0.08985
929.20 0.08981
929.30 0.08978
929.40 0.08974
929.50 0.0897
929.60 0.08967
929.70 0.08963
929.80 0.08959
929.90 0.08956
930.00 0.08952
930.10 0.08948
930.20 0.08945
930.30 0.08941
930.40 0.08937
930.50 0.08934
930.60 0.0893
930.70 0.08926
930.80 0.08923
930.90 0.08919
931.00 0.08915
931.10 0.08912
931.20 0.08908
931.30 0.08904
931.40 0.08901
931.50 0.08897
931.60 0.08893
931.70 0.0889
931.80 0.08886
931.90 0.08883
932.00 0.08879
932.10 0.08875
932.20 0.08872
932.30 0.08868
932.40 0.08864
932.50 0.08861
932.60 0.08857
932.70 0.08853
932.80 0.0885
932.90 0.08846
933.00 0.08842
933.10 0.08839
933.20 0.08835
933.30 0.08831
933.40 0.08828
933.50 0.08824
933.60 0.0882
933.70 0.08817
933.80 0.08813
933.90 0.0881
934.00 0.08806
934.10 0.08802
934.20 0.08799
934.30 0.08795
934.40 0.08791
934.50 0.08788
934.60 0.08784
934.70 0.0878
934.80 0.08777
934.90 0.08773
935.00 0.0877
935.10 0.08766
935.20 0.08762
935.30 0.08759
935.40 0.08755
935.50 0.08751
935.60 0.08748
935.70 0.08744
935.80 0.0874
935.90 0.08737
936.00 0.08733
936.10 0.0873
936.20 0.08726
936.30 0.08722
936.40 0.08719
936.50 0.08715
936.60 0.08712
936.70 0.08708
936.80 0.08704
936.90 0.08701
937.00 0.08697
937.10 0.08693
937.20 0.0869
937.30 0.08686
937.40 0.08683
937.50 0.08679
937.60 0.08675
937.70 0.08672
937.80 0.08668
937.90 0.08665
938.00 0.08661
938.10 0.08657
938.20 0.08654
938.30 0.0865
938.40 0.08646
938.50 0.08643
938.60 0.08639
938.70 0.08636
938.80 0.08632
938.90 0.08628
939.00 0.08625
939.10 0.08621
939.20 0.08618
939.30 0.08614
939.40 0.0861
939.50 0.08607
939.60 0.08603
939.70 0.086
939.80 0.08596
939.90 0.08592
940.00 0.08589
940.10 0.08585
940.20 0.08582
940.30 0.08578
940.40 0.08574
940.50 0.08571
940.60 0.08567
940.70 0.08564
940.80 0.0856
940.90 0.08556
941.00 0.08553
941.10 0.08549
941.20 0.08546
941.30 0.08542
941.40 0.08538
941.50 0.08535
941.60 0.08531
941.70 0.08528
941.80 0.08524
941.90 0.0852
942.00 0.08517
942.10 0.08513
942.20 0.0851
942.30 0.08506
942.40 0.08502
942.50 0.08499
942.60 0.08495
942.70 0.08492
942.80 0.08488
942.90 0.08484
943.00 0.08481
943.10 0.08477
943.20 0.08474
943.30 0.0847
943.40 0.08466
943.50 0.08463
943.60 0.08459
943.70 0.08456
943.80 0.08452
943.90 0.08449
944.00 0.08445
944.10 0.08441
944.20 0.08438
944.30 0.08434
944.40 0.08431
944.50 0.08427
944.60 0.08423
944.70 0.0842
944.80 0.08416
944.90 0.08413
945.00 0.08409
945.10 0.08405
945.20 0.08402
945.30 0.08398
945.40 0.08395
945.50 0.08391
945.60 0.08387
945.70 0.08384
945.80 0.0838
945.90 0.08377
946.00 0.08373
946.10 0.08369
946.20 0.08366
946.30 0.08362
946.40 0.08359
946.50 0.08355
946.60 0.08351
946.70 0.08348
946.80 0.08344
946.90 0.08341
947.00 0.08337
947.10 0.08333
947.20 0.0833
947.30 0.08326
947.40 0.08323
947.50 0.08319
947.60 0.08315
947.70 0.08312
947.80 0.08308
947.90 0.08304
948.00 0.08301
948.10 0.08297
948.20 0.08294
948.30 0.0829
948.40 0.08286
948.50 0.08283
948.60 0.08279
948.70 0.08275
948.80 0.08272
948.90 0.08268
949.00 0.08265
949.10 0.08261
949.20 0.08257
949.30 0.08254
949.40 0.0825
949.50 0.08247
949.60 0.08243
949.70 0.08239
949.80 0.08236
949.90 0.08232
950.00 0.08228
950.10 0.08225
950.20 0.08221
950.30 0.08218
950.40 0.08214
950.50 0.0821
950.60 0.08207
950.70 0.08203
950.80 0.082
950.90 0.08196
951.00 0.08192
951.10 0.08189
951.20 0.08185
951.30 0.08182
951.40 0.08178
951.50 0.08174
951.60 0.08171
951.70 0.08167
951.80 0.08164
951.90 0.0816
952.00 0.08157
952.10 0.08153
952.20 0.0815
952.30 0.08146
952.40 0.08143
952.50 0.08139
952.60 0.08136
952.70 0.08132
952.80 0.08129
952.90 0.08126
953.00 0.08123
953.10 0.08119
953.20 0.08116
953.30 0.08113
953.40 0.0811
953.50 0.08106
953.60 0.08103
953.70 0.081
953.80 0.08097
953.90 0.08094
954.00 0.08091
954.10 0.08088
954.20 0.08086
954.30 0.08083
954.40 0.08081
954.50 0.08078
954.60 0.08075
954.70 0.08071
954.80 0.08067
954.90 0.08063
955.00 0.08059
955.10 0.08055
955.20 0.08052
955.30 0.08048
955.40 0.08045
955.50 0.08041
955.60 0.08037
955.70 0.08034
955.80 0.0803
955.90 0.08027
956.00 0.08024
956.10 0.08021
956.20 0.08017
956.30 0.08014
956.40 0.08011
956.50 0.08008
956.60 0.08004
956.70 0.08001
956.80 0.07998
956.90 0.07995
957.00 0.07992
957.10 0.07989
957.20 0.07985
957.30 0.07982
957.40 0.07979
957.50 0.07976
957.60 0.07973
957.70 0.0797
957.80 0.07967
957.90 0.07964
958.00 0.07961
958.10 0.07958
958.20 0.07955
958.30 0.07952
958.40 0.07949
958.50 0.07946
958.60 0.07943
958.70 0.0794
958.80 0.07937
958.90 0.07934
959.00 0.07931
959.10 0.07928
959.20 0.07925
959.30 0.07922
959.40 0.07919
959.50 0.07916
959.60 0.07913
959.70 0.0791
959.80 0.07907
959.90 0.07904
960.00 0.07901
960.10 0.07898
960.20 0.07895
960.30 0.07892
960.40 0.07889
960.50 0.07886
960.60 0.07883
960.70 0.0788
960.80 0.07877
960.90 0.07874
961.00 0.07871
961.10 0.07868
961.20 0.07865
961.30 0.07862
961.40 0.07859
961.50 0.07856
961.60 0.07853
961.70 0.0785
961.80 0.07847
961.90 0.07844
962.00 0.07841
962.10 0.07838
962.20 0.07835
962.30 0.07832
962.40 0.07829
962.50 0.07826
962.60 0.07823
962.70 0.0782
962.80 0.07817
962.90 0.07814
963.00 0.07811
963.10 0.07808
963.20 0.07805
963.30 0.07802
963.40 0.07799
963.50 0.07796
963.60 0.07793
963.70 0.0779
963.80 0.07787
963.90 0.07784
964.00 0.07781
964.10 0.07778
964.20 0.07775
964.30 0.07772
964.40 0.07769
964.50 0.07766
964.60 0.07763
964.70 0.0776
964.80 0.07757
964.90 0.07754
965.00 0.07751
965.10 0.07748
965.20 0.07745
965.30 0.07742
965.40 0.07739
965.50 0.07736
965.60 0.07733
965.70 0.0773
965.80 0.07727
965.90 0.07724
966.00 0.0772
966.10 0.07717
966.20 0.07714
966.30 0.07711
966.40 0.07708
966.50 0.07705
966.60 0.07702
966.70 0.07699
966.80 0.07696
966.90 0.07693
967.00 0.0769
967.10 0.07687
967.20 0.07684
967.30 0.07681
967.40 0.07678
967.50 0.07675
967.60 0.07672
967.70 0.07669
967.80 0.07666
967.90 0.07663
968.00 0.0766
968.10 0.07657
968.20 0.07654
968.30 0.07651
968.40 0.07648
968.50 0.07645
968.60 0.07642
968.70 0.07639
968.80 0.07636
968.90 0.07633
969.00 0.0763
969.10 0.07627
969.20 0.07624
969.30 0.07621
969.40 0.07618
969.50 0.07615
969.60 0.07612
969.70 0.07608
969.80 0.07605
969.90 0.07602
970.00 0.07599
970.10 0.07596
970.20 0.07593
970.30 0.0759
970.40 0.07587
970.50 0.07584
970.60 0.07581
970.70 0.07578
970.80 0.07575
970.90 0.07572
971.00 0.07569
971.10 0.07566
971.20 0.07563
971.30 0.0756
971.40 0.07557
971.50 0.07554
971.60 0.07551
971.70 0.07548
971.80 0.07545
971.90 0.07542
972.00 0.07539
972.10 0.07536
972.20 0.07533
972.30 0.0753
972.40 0.07527
972.50 0.07524
972.60 0.07521
972.70 0.07518
972.80 0.07515
972.90 0.07512
973.00 0.07509
973.10 0.07506
973.20 0.07503
973.30 0.075
973.40 0.07497
973.50 0.07494
973.60 0.07491
973.70 0.07488
973.80 0.07485
973.90 0.07482
974.00 0.07479
974.10 0.07476
974.20 0.07473
974.30 0.0747
974.40 0.07468
974.50 0.07465
974.60 0.07462
974.70 0.07459
974.80 0.07456
974.90 0.07453
975.00 0.0745
975.10 0.07447
975.20 0.07444
975.30 0.07441
975.40 0.07438
975.50 0.07435
975.60 0.07432
975.70 0.07429
975.80 0.07426
975.90 0.07423
976.00 0.0742
976.10 0.07417
976.20 0.07414
976.30 0.07411
976.40 0.07408
976.50 0.07405
976.60 0.07402
976.70 0.07399
976.80 0.07396
976.90 0.07393
977.00 0.0739
977.10 0.07388
977.20 0.07385
977.30 0.07382
977.40 0.07379
977.50 0.07376
977.60 0.07373
977.70 0.0737
977.80 0.07367
977.90 0.07364
978.00 0.07361
978.10 0.07358
978.20 0.07355
978.30 0.07352
978.40 0.07349
978.50 0.07346
978.60 0.07343
978.70 0.0734
978.80 0.07338
978.90 0.07335
979.00 0.07332
979.10 0.07329
979.20 0.07326
979.30 0.07323
979.40 0.0732
979.50 0.07317
979.60 0.07314
979.70 0.07311
979.80 0.07308
979.90 0.07305
980.00 0.07302
980.10 0.073
980.20 0.07297
980.30 0.07294
980.40 0.07291
980.50 0.07288
980.60 0.07285
980.70 0.07282
980.80 0.07279
980.90 0.07276
981.00 0.07273
981.10 0.0727
981.20 0.07268
981.30 0.07265
981.40 0.07262
981.50 0.07259
981.60 0.07256
981.70 0.07253
981.80 0.0725
981.90 0.07247
982.00 0.07244
982.10 0.07241
982.20 0.07239
982.30 0.07236
982.40 0.07233
982.50 0.0723
982.60 0.07227
982.70 0.07224
982.80 0.07221
982.90 0.07218
983.00 0.07216
983.10 0.07213
983.20 0.0721
983.30 0.07207
983.40 0.07204
983.50 0.07201
983.60 0.07198
983.70 0.07195
983.80 0.07192
983.90 0.0719
984.00 0.07187
984.10 0.07184
984.20 0.07181
984.30 0.07178
984.40 0.07175
984.50 0.07172
984.60 0.0717
984.70 0.07167
984.80 0.07164
984.90 0.07161
985.00 0.07158
985.10 0.07155
985.20 0.07152
985.30 0.07149
985.40 0.07147
985.50 0.07144
985.60 0.07141
985.70 0.07138
985.80 0.07135
985.90 0.07132
986.00 0.07129
986.10 0.07127
986.20 0.07124
986.30 0.07121
986.40 0.07118
986.50 0.07115
986.60 0.07112
986.70 0.0711
986.80 0.07107
986.90 0.07104
987.00 0.07101
987.10 0.07098
987.20 0.07095
987.30 0.07092
987.40 0.0709
987.50 0.07087
987.60 0.07084
987.70 0.07081
987.80 0.07078
987.90 0.07075
988.00 0.07073
988.10 0.0707
988.20 0.07067
988.30 0.07064
988.40 0.07061
988.50 0.07058
988.60 0.07056
988.70 0.07053
988.80 0.0705
988.90 0.07047
989.00 0.07044
989.10 0.07041
989.20 0.07038
989.30 0.07036
989.40 0.07033
989.50 0.0703
989.60 0.07027
989.70 0.07024
989.80 0.07021
989.90 0.07019
990.00 0.07016
990.10 0.07013
990.20 0.0701
990.30 0.07007
990.40 0.07004
990.50 0.07002
990.60 0.06999
990.70 0.06996
990.80 0.06993
990.90 0.0699
991.00 0.06987
991.10 0.06985
991.20 0.06982
991.30 0.06979
991.40 0.06976
991.50 0.06973
991.60 0.0697
991.70 0.06968
991.80 0.06965
991.90 0.06962
992.00 0.06959
992.10 0.06956
992.20 0.06953
992.30 0.06951
992.40 0.06948
992.50 0.06945
992.60 0.06942
992.70 0.06939
992.80 0.06936
992.90 0.06934
993.00 0.06931
993.10 0.06928
993.20 0.06925
993.30 0.06922
993.40 0.06919
993.50 0.06916
993.60 0.06914
993.70 0.06911
993.80 0.06908
993.90 0.06905
994.00 0.06902
994.10 0.06899
994.20 0.06897
994.30 0.06894
994.40 0.06891
994.50 0.06888
994.60 0.06885
994.70 0.06882
994.80 0.06879
994.90 0.06877
995.00 0.06874
995.10 0.06871
995.20 0.06868
995.30 0.06865
995.40 0.06862
995.50 0.06859
995.60 0.06857
995.70 0.06854
995.80 0.06851
995.90 0.06848
996.00 0.06845
996.10 0.06842
996.20 0.06839
996.30 0.06836
996.40 0.06833
996.50 0.0683
996.60 0.06827
996.70 0.06825
996.80 0.06822
996.90 0.06819
997.00 0.06816
997.10 0.06813
997.20 0.0681
997.30 0.06807
997.40 0.06804
997.50 0.06801
997.60 0.06798
997.70 0.06795
997.80 0.06792
997.90 0.06789
998.00 0.06786
998.10 0.06783
998.20 0.0678
998.30 0.06777
998.40 0.06774
998.50 0.06771
998.60 0.06768
998.70 0.06765
998.80 0.06762
998.90 0.06759
999.00 0.06756
999.10 0.06753
999.20 0.0675
999.30 0.06747
999.40 0.06744
999.50 0.06741
999.60 0.06738
999.70 0.06735
999.80 0.06732
999.90 0.06729
1000.00 0.06726
1000.10 0.06723
1000.20 0.06719
1000.30 0.06716
1000.40 0.06713
1000.50 0.0671
1000.60 0.06707
1000.70 0.06704
1000.80 0.06701
1000.90 0.06698
1001.00 0.06694
1001.10 0.06691
1001.20 0.06688
1001.30 0.06685
1001.40 0.06682
1001.50 0.06679
1001.60 0.06676
1001.70 0.06673
1001.80 0.06669
1001.90 0.06666
1002.00 0.06663
1002.10 0.0666
1002.20 0.06657
1002.30 0.06654
1002.40 0.06651
1002.50 0.06648
1002.60 0.06645
1002.70 0.06642
1002.80 0.06639
1002.90 0.06636
1003.00 0.06633
1003.10 0.0663
1003.20 0.06627
1003.30 0.06624
1003.40 0.06622
1003.50 0.06619
1003.60 0.06617
1003.70 0.06614
1003.80 0.06611
1003.90 0.06609
1004.00 0.06608
1004.10 0.06606
1004.20 0.06604
1004.30 0.06603
1004.40 0.06603
1004.50 0.06602
1004.60 0.06602
1004.70 0.06602
1004.80 0.06601
1004.90 0.06599
1005.00 0.06597
1005.10 0.06592
1005.20 0.06588
1005.30 0.06583
1005.40 0.06578
1005.50 0.06574
1005.60 0.06571
1005.70 0.06567
1005.80 0.06563
1005.90 0.0656
1006.00 0.06556
1006.10 0.06553
1006.20 0.0655
1006.30 0.06548
1006.40 0.06545
1006.50 0.06543
1006.60 0.0654
1006.70 0.06538
1006.80 0.06536
1006.90 0.06533
1007.00 0.06531
1007.10 0.06529
1007.20 0.06527
1007.30 0.06525
1007.40 0.06523
1007.50 0.06521
1007.60 0.06519
1007.70 0.06517
1007.80 0.06515
1007.90 0.06513
1008.00 0.06511
1008.10 0.06509
1008.20 0.06507
1008.30 0.06505
1008.40 0.06503
1008.50 0.06501
1008.60 0.06499
1008.70 0.06497
1008.80 0.06494
1008.90 0.06492
1009.00 0.0649
1009.10 0.06488
1009.20 0.06486
1009.30 0.06484
1009.40 0.06482
1009.50 0.0648
1009.60 0.06478
1009.70 0.06476
1009.80 0.06474
1009.90 0.06472
1010.00 0.0647
1010.10 0.06468
1010.20 0.06466
1010.30 0.06464
1010.40 0.06461
1010.50 0.06459
1010.60 0.06457
1010.70 0.06455
1010.80 0.06453
1010.90 0.06451
1011.00 0.06449
1011.10 0.06447
1011.20 0.06444
1011.30 0.06442
1011.40 0.0644
1011.50 0.06438
1011.60 0.06436
1011.70 0.06434
1011.80 0.06431
1011.90 0.06429
1012.00 0.06427
1012.10 0.06425
1012.20 0.06423
1012.30 0.0642
1012.40 0.06418
1012.50 0.06416
1012.60 0.06414
1012.70 0.06411
1012.80 0.06409
1012.90 0.06407
1013.00 0.06405
1013.10 0.06402
1013.20 0.064
1013.30 0.06398
1013.40 0.06396
1013.50 0.06393
1013.60 0.06391
1013.70 0.06389
1013.80 0.06387
1013.90 0.06384
1014.00 0.06382
1014.10 0.0638
1014.20 0.06377
1014.30 0.06375
1014.40 0.06373
1014.50 0.06371
1014.60 0.06368
1014.70 0.06366
1014.80 0.06364
1014.90 0.06361
1015.00 0.06359
1015.10 0.06357
1015.20 0.06354
1015.30 0.06352
1015.40 0.0635
1015.50 0.06347
1015.60 0.06345
1015.70 0.06343
1015.80 0.0634
1015.90 0.06338
1016.00 0.06336
1016.10 0.06333
1016.20 0.06331
1016.30 0.06329
1016.40 0.06326
1016.50 0.06324
1016.60 0.06322
1016.70 0.0632
1016.80 0.06317
1016.90 0.06315
1017.00 0.06313
1017.10 0.0631
1017.20 0.06308
1017.30 0.06305
1017.40 0.06303
1017.50 0.06301
1017.60 0.06298
1017.70 0.06296
1017.80 0.06294
1017.90 0.06291
1018.00 0.06289
1018.10 0.06287
1018.20 0.06284
1018.30 0.06282
1018.40 0.0628
1018.50 0.06277
1018.60 0.06275
1018.70 0.06273
1018.80 0.0627
1018.90 0.06268
1019.00 0.06266
1019.10 0.06263
1019.20 0.06261
1019.30 0.06259
1019.40 0.06256
1019.50 0.06254
1019.60 0.06252
1019.70 0.06249
1019.80 0.06247
1019.90 0.06245
1020.00 0.06242
1020.10 0.0624
1020.20 0.06238
1020.30 0.06235
1020.40 0.06233
1020.50 0.0623
1020.60 0.06228
1020.70 0.06226
1020.80 0.06223
1020.90 0.06221
1021.00 0.06219
1021.10 0.06216
1021.20 0.06214
1021.30 0.06212
1021.40 0.06209
1021.50 0.06207
1021.60 0.06205
1021.70 0.06202
1021.80 0.062
1021.90 0.06198
1022.00 0.06195
1022.10 0.06193
1022.20 0.06191
1022.30 0.06188
1022.40 0.06186
1022.50 0.06184
1022.60 0.06181
1022.70 0.06179
1022.80 0.06177
1022.90 0.06174
1023.00 0.06172
1023.10 0.0617
1023.20 0.06167
1023.30 0.06165
1023.40 0.06163
1023.50 0.0616
1023.60 0.06158
1023.70 0.06156
1023.80 0.06153
1023.90 0.06151
1024.00 0.06149
1024.10 0.06146
1024.20 0.06144
1024.30 0.06142
1024.40 0.06139
1024.50 0.06137
1024.60 0.06135
1024.70 0.06133
1024.80 0.0613
1024.90 0.06128
1025.00 0.06126
1025.10 0.06123
1025.20 0.06121
1025.30 0.06119
1025.40 0.06116
1025.50 0.06114
1025.60 0.06112
1025.70 0.06109
1025.80 0.06107
1025.90 0.06105
1026.00 0.06102
1026.10 0.061
1026.20 0.06098
1026.30 0.06096
1026.40 0.06093
1026.50 0.06091
1026.60 0.06089
1026.70 0.06086
1026.80 0.06084
1026.90 0.06082
1027.00 0.06079
1027.10 0.06077
1027.20 0.06075
1027.30 0.06072
1027.40 0.0607
1027.50 0.06068
1027.60 0.06066
1027.70 0.06063
1027.80 0.06061
1027.90 0.06059
1028.00 0.06056
1028.10 0.06054
1028.20 0.06052
1028.30 0.0605
1028.40 0.06047
1028.50 0.06045
1028.60 0.06043
1028.70 0.0604
1028.80 0.06038
1028.90 0.06036
1029.00 0.06034
1029.10 0.06031
1029.20 0.06029
1029.30 0.06027
1029.40 0.06024
1029.50 0.06022
1029.60 0.0602
1029.70 0.06018
1029.80 0.06015
1029.90 0.06013
1030.00 0.06011
1030.10 0.06009
1030.20 0.06006
1030.30 0.06004
1030.40 0.06002
1030.50 0.05999
1030.60 0.05997
1030.70 0.05995
1030.80 0.05993
1030.90 0.0599
1031.00 0.05988
1031.10 0.05986
1031.20 0.05984
1031.30 0.05981
1031.40 0.05979
1031.50 0.05977
1031.60 0.05975
1031.70 0.05972
1031.80 0.0597
1031.90 0.05968
1032.00 0.05965
1032.10 0.05963
1032.20 0.05961
1032.30 0.05959
1032.40 0.05957
1032.50 0.05954
1032.60 0.05952
1032.70 0.0595
1032.80 0.05948
1032.90 0.05945
1033.00 0.05943
1033.10 0.05941
1033.20 0.05939
1033.30 0.05936
1033.40 0.05934
1033.50 0.05932
1033.60 0.0593
1033.70 0.05927
1033.80 0.05925
1033.90 0.05923
1034.00 0.05921
1034.10 0.05918
1034.20 0.05916
1034.30 0.05914
1034.40 0.05912
1034.50 0.0591
1034.60 0.05907
1034.70 0.05905
1034.80 0.05903
1034.90 0.05901
1035.00 0.05898
1035.10 0.05896
1035.20 0.05894
1035.30 0.05892
1035.40 0.0589
1035.50 0.05887
1035.60 0.05885
1035.70 0.05883
1035.80 0.05881
1035.90 0.05878
1036.00 0.05876
1036.10 0.05874
1036.20 0.05872
1036.30 0.0587
1036.40 0.05867
1036.50 0.05865
1036.60 0.05863
1036.70 0.05861
1036.80 0.05858
1036.90 0.05856
1037.00 0.05854
1037.10 0.05852
1037.20 0.0585
1037.30 0.05847
1037.40 0.05845
1037.50 0.05843
1037.60 0.05841
1037.70 0.05839
1037.80 0.05836
1037.90 0.05834
1038.00 0.05832
1038.10 0.0583
1038.20 0.05828
1038.30 0.05826
1038.40 0.05823
1038.50 0.05821
1038.60 0.05819
1038.70 0.05817
1038.80 0.05815
1038.90 0.05812
1039.00 0.0581
1039.10 0.05808
1039.20 0.05806
1039.30 0.05804
1039.40 0.05802
1039.50 0.05799
1039.60 0.05797
1039.70 0.05795
1039.80 0.05793
1039.90 0.05791
1040.00 0.05788
1040.10 0.05786
1040.20 0.05784
1040.30 0.05782
1040.40 0.0578
1040.50 0.05778
1040.60 0.05775
1040.70 0.05773
1040.80 0.05771
1040.90 0.05769
1041.00 0.05767
1041.10 0.05765
1041.20 0.05762
1041.30 0.0576
1041.40 0.05758
1041.50 0.05756
1041.60 0.05754
1041.70 0.05752
1041.80 0.05749
1041.90 0.05747
1042.00 0.05745
1042.10 0.05743
1042.20 0.05741
1042.30 0.05739
1042.40 0.05736
1042.50 0.05734
1042.60 0.05732
1042.70 0.0573
1042.80 0.05728
1042.90 0.05726
1043.00 0.05724
1043.10 0.05721
1043.20 0.05719
1043.30 0.05717
1043.40 0.05715
1043.50 0.05713
1043.60 0.05711
1043.70 0.05709
1043.80 0.05707
1043.90 0.05704
1044.00 0.05702
1044.10 0.057
1044.20 0.05698
1044.30 0.05696
1044.40 0.05694
1044.50 0.05692
1044.60 0.05689
1044.70 0.05687
1044.80 0.05685
1044.90 0.05683
1045.00 0.05681
1045.10 0.05679
1045.20 0.05677
1045.30 0.05675
1045.40 0.05672
1045.50 0.0567
1045.60 0.05668
1045.70 0.05666
1045.80 0.05664
1045.90 0.05662
1046.00 0.0566
1046.10 0.05658
1046.20 0.05655
1046.30 0.05653
1046.40 0.05651
1046.50 0.05649
1046.60 0.05647
1046.70 0.05645
1046.80 0.05643
1046.90 0.05641
1047.00 0.05639
1047.10 0.05636
1047.20 0.05634
1047.30 0.05632
1047.40 0.0563
1047.50 0.05628
1047.60 0.05626
1047.70 0.05624
1047.80 0.05622
1047.90 0.0562
1048.00 0.05618
1048.10 0.05616
1048.20 0.05613
1048.30 0.05611
1048.40 0.05609
1048.50 0.05607
1048.60 0.05605
1048.70 0.05603
1048.80 0.05601
1048.90 0.05599
1049.00 0.05597
1049.10 0.05595
1049.20 0.05593
1049.30 0.0559
1049.40 0.05588
1049.50 0.05586
1049.60 0.05584
1049.70 0.05582
1049.80 0.0558
1049.90 0.05578
1050.00 0.05576
1050.10 0.05574
1050.20 0.05572
1050.30 0.0557
1050.40 0.05568
1050.50 0.05566
1050.60 0.05563
1050.70 0.05561
1050.80 0.05559
1050.90 0.05557
1051.00 0.05555
1051.10 0.05553
1051.20 0.05551
1051.30 0.05549
1051.40 0.05547
1051.50 0.05545
1051.60 0.05543
1051.70 0.05541
1051.80 0.05539
1051.90 0.05537
1052.00 0.05534
1052.10 0.05532
1052.20 0.0553
1052.30 0.05528
1052.40 0.05526
1052.50 0.05524
1052.60 0.05522
1052.70 0.0552
1052.80 0.05518
1052.90 0.05516
1053.00 0.05514
1053.10 0.05512
1053.20 0.0551
1053.30 0.05508
1053.40 0.05506
1053.50 0.05504
1053.60 0.05502
1053.70 0.055
1053.80 0.05498
1053.90 0.05496
1054.00 0.05494
1054.10 0.05492
1054.20 0.0549
1054.30 0.05487
1054.40 0.05485
1054.50 0.05483
1054.60 0.05481
1054.70 0.05479
1054.80 0.05477
1054.90 0.05475
1055.00 0.05473
1055.10 0.05471
1055.20 0.05469
1055.30 0.05467
1055.40 0.05465
1055.50 0.05463
1055.60 0.05461
1055.70 0.05459
1055.80 0.05457
1055.90 0.05455
1056.00 0.05453
1056.10 0.05451
1056.20 0.05449
1056.30 0.05447
1056.40 0.05445
1056.50 0.05443
1056.60 0.05441
1056.70 0.05439
1056.80 0.05437
1056.90 0.05435
1057.00 0.05433
1057.10 0.05431
1057.20 0.05429
1057.30 0.05427
1057.40 0.05425
1057.50 0.05423
1057.60 0.05421
1057.70 0.05419
1057.80 0.05417
1057.90 0.05415
1058.00 0.05413
1058.10 0.05411
1058.20 0.05409
1058.30 0.05407
1058.40 0.05405
1058.50 0.05403
1058.60 0.05401
1058.70 0.05399
1058.80 0.05397
1058.90 0.05395
1059.00 0.05393
1059.10 0.05391
1059.20 0.05389
1059.30 0.05387
1059.40 0.05385
1059.50 0.05383
1059.60 0.05381
1059.70 0.05379
1059.80 0.05377
1059.90 0.05375
1060.00 0.05373
1060.10 0.05371
1060.20 0.05369
1060.30 0.05367
1060.40 0.05365
1060.50 0.05363
1060.60 0.05361
1060.70 0.05359
1060.80 0.05357
1060.90 0.05355
1061.00 0.05353
1061.10 0.05351
1061.20 0.05349
1061.30 0.05347
1061.40 0.05345
1061.50 0.05343
1061.60 0.05341
1061.70 0.05339
1061.80 0.05337
1061.90 0.05335
1062.00 0.05333
1062.10 0.05331
1062.20 0.05329
1062.30 0.05327
1062.40 0.05325
1062.50 0.05323
1062.60 0.05321
1062.70 0.0532
1062.80 0.05318
1062.90 0.05316
1063.00 0.05314
1063.10 0.05312
1063.20 0.0531
1063.30 0.05308
1063.40 0.05306
1063.50 0.05304
1063.60 0.05302
1063.70 0.053
1063.80 0.05298
1063.90 0.05296
1064.00 0.05294
1064.10 0.05292
1064.20 0.0529
1064.30 0.05288
1064.40 0.05286
1064.50 0.05284
1064.60 0.05282
1064.70 0.0528
1064.80 0.05279
1064.90 0.05277
1065.00 0.05275
1065.10 0.05273
1065.20 0.05271
1065.30 0.05269
1065.40 0.05267
1065.50 0.05265
1065.60 0.05263
1065.70 0.05261
1065.80 0.05259
1065.90 0.05257
1066.00 0.05255
1066.10 0.05253
1066.20 0.05251
1066.30 0.05249
1066.40 0.05248
1066.50 0.05246
1066.60 0.05244
1066.70 0.05242
1066.80 0.0524
1066.90 0.05238
1067.00 0.05236
1067.10 0.05234
1067.20 0.05232
1067.30 0.0523
1067.40 0.05228
1067.50 0.05226
1067.60 0.05224
1067.70 0.05222
1067.80 0.05221
1067.90 0.05219
1068.00 0.05217
1068.10 0.05215
1068.20 0.05213
1068.30 0.05211
1068.40 0.05209
1068.50 0.05207
1068.60 0.05205
1068.70 0.05203
1068.80 0.05201
1068.90 0.05199
1069.00 0.05198
1069.10 0.05196
1069.20 0.05194
1069.30 0.05192
1069.40 0.0519
1069.50 0.05188
1069.60 0.05186
1069.70 0.05184
1069.80 0.05182
1069.90 0.0518
1070.00 0.05178
1070.10 0.05177
1070.20 0.05175
1070.30 0.05173
1070.40 0.05171
1070.50 0.05169
1070.60 0.05167
1070.70 0.05165
1070.80 0.05163
1070.90 0.05161
1071.00 0.05159
1071.10 0.05158
1071.20 0.05156
1071.30 0.05154
1071.40 0.05152
1071.50 0.0515
1071.60 0.05148
1071.70 0.05146
1071.80 0.05144
1071.90 0.05142
1072.00 0.05141
1072.10 0.05139
1072.20 0.05137
1072.30 0.05135
1072.40 0.05133
1072.50 0.05131
1072.60 0.05129
1072.70 0.05127
1072.80 0.05125
1072.90 0.05124
1073.00 0.05122
1073.10 0.0512
1073.20 0.05118
1073.30 0.05116
1073.40 0.05114
1073.50 0.05112
1073.60 0.0511
1073.70 0.05108
1073.80 0.05107
1073.90 0.05105
1074.00 0.05103
1074.10 0.05101
1074.20 0.05099
1074.30 0.05097
1074.40 0.05095
1074.50 0.05093
1074.60 0.05092
1074.70 0.0509
1074.80 0.05088
1074.90 0.05086
1075.00 0.05084
1075.10 0.05082
1075.20 0.0508
1075.30 0.05078
1075.40 0.05077
1075.50 0.05075
1075.60 0.05073
1075.70 0.05071
1075.80 0.05069
1075.90 0.05067
1076.00 0.05065
1076.10 0.05063
1076.20 0.05062
1076.30 0.0506
1076.40 0.05058
1076.50 0.05056
1076.60 0.05054
1076.70 0.05052
1076.80 0.0505
1076.90 0.05049
1077.00 0.05047
1077.10 0.05045
1077.20 0.05043
1077.30 0.05041
1077.40 0.05039
1077.50 0.05037
1077.60 0.05035
1077.70 0.05034
1077.80 0.05032
1077.90 0.0503
1078.00 0.05028
1078.10 0.05026
1078.20 0.05024
1078.30 0.05022
1078.40 0.05021
1078.50 0.05019
1078.60 0.05017
1078.70 0.05015
1078.80 0.05013
1078.90 0.05011
1079.00 0.05009
1079.10 0.05007
1079.20 0.05006
1079.30 0.05004
1079.40 0.05002
1079.50 0.05
1079.60 0.04998
1079.70 0.04996
1079.80 0.04994
1079.90 0.04993
1080.00 0.04991
1080.10 0.04989
1080.20 0.04987
1080.30 0.04985
1080.40 0.04983
1080.50 0.04981
1080.60 0.04979
1080.70 0.04978
1080.80 0.04976
1080.90 0.04974
1081.00 0.04972
1081.10 0.0497
1081.20 0.04968
1081.30 0.04966
1081.40 0.04964
1081.50 0.04963
1081.60 0.04961
1081.70 0.04959
1081.80 0.04957
1081.90 0.04955
1082.00 0.04953
1082.10 0.04951
1082.20 0.04949
1082.30 0.04948
1082.40 0.04946
1082.50 0.04944
1082.60 0.04942
1082.70 0.0494
1082.80 0.04938
1082.90 0.04936
1083.00 0.04934
1083.10 0.04932
1083.20 0.0493
1083.30 0.04929
1083.40 0.04927
1083.50 0.04925
1083.60 0.04923
1083.70 0.04921
1083.80 0.04919
1083.90 0.04917
1084.00 0.04915
1084.10 0.04913
1084.20 0.04911
1084.30 0.04909
1084.40 0.04907
1084.50 0.04905
1084.60 0.04903
1084.70 0.04901
1084.80 0.04899
1084.90 0.04897
1085.00 0.04895
1085.10 0.04893
1085.20 0.04891
1085.30 0.04889
1085.40 0.04887
1085.50 0.04885
1085.60 0.04883
1085.70 0.04881
1085.80 0.04879
1085.90 0.04877
1086.00 0.04876
1086.10 0.04874
1086.20 0.04872
1086.30 0.0487
1086.40 0.04868
1086.50 0.04866
1086.60 0.04863
1086.70 0.04861
1086.80 0.04859
1086.90 0.04857
1087.00 0.04855
1087.10 0.04853
1087.20 0.04851
1087.30 0.04849
1087.40 0.04847
1087.50 0.04844
1087.60 0.04842
1087.70 0.0484
1087.80 0.04838
1087.90 0.04836
1088.00 0.04834
1088.10 0.04831
1088.20 0.04829
1088.30 0.04827
1088.40 0.04825
1088.50 0.04823
1088.60 0.0482
1088.70 0.04818
1088.80 0.04816
1088.90 0.04813
1089.00 0.04811
1089.10 0.04808
1089.20 0.04806
1089.30 0.04804
1089.40 0.04801
1089.50 0.04799
1089.60 0.04797
1089.70 0.04794
1089.80 0.04792
1089.90 0.04789
1090.00 0.04787
1090.10 0.04785
1090.20 0.04782
1090.30 0.0478
1090.40 0.04778
1090.50 0.04775
1090.60 0.04773
1090.70 0.0477
1090.80 0.04768
1090.90 0.04766
1091.00 0.04763
1091.10 0.04761
1091.20 0.04758
1091.30 0.04756
1091.40 0.04753
1091.50 0.04751
1091.60 0.04749
1091.70 0.04746
1091.80 0.04744
1091.90 0.04741
1092.00 0.04739
1092.10 0.04737
1092.20 0.04735
1092.30 0.04734
1092.40 0.04732
1092.50 0.0473
1092.60 0.04728
1092.70 0.04727
1092.80 0.04726
1092.90 0.04725
1093.00 0.04724
1093.10 0.04724
1093.20 0.04724
1093.30 0.04724
1093.40 0.04724
1093.50 0.04725
1093.60 0.04728
1093.70 0.0473
1093.80 0.04731
1093.90 0.0473
1094.00 0.04724
1094.10 0.04718
1094.20 0.04712
1094.30 0.04707
1094.40 0.04704
1094.50 0.04702
1094.60 0.04699
1094.70 0.04696
1094.80 0.04693
1094.90 0.0469
1095.00 0.04688
1095.10 0.04687
1095.20 0.04686
1095.30 0.04684
1095.40 0.04683
1095.50 0.04682
1095.60 0.04681
1095.70 0.04679
1095.80 0.04678
1095.90 0.04677
1096.00 0.04676
1096.10 0.04674
1096.20 0.04673
1096.30 0.04672
1096.40 0.04671
1096.50 0.0467
1096.60 0.04669
1096.70 0.04668
1096.80 0.04667
1096.90 0.04666
1097.00 0.04665
1097.10 0.04664
1097.20 0.04663
1097.30 0.04662
1097.40 0.04661
1097.50 0.0466
1097.60 0.04659
1097.70 0.04658
1097.80 0.04657
1097.90 0.04656
1098.00 0.04655
1098.10 0.04654
1098.20 0.04653
1098.30 0.04652
1098.40 0.04652
1098.50 0.0465
1098.60 0.04649
1098.70 0.04648
1098.80 0.04647
1098.90 0.04646
1099.00 0.04644
1099.10 0.04643
1099.20 0.04642
1099.30 0.04641
1099.40 0.0464
1099.50 0.04638
1099.60 0.04637
1099.70 0.04636
1099.80 0.04635
1099.90 0.04634
1100.00 0.04633
1100.10 0.04631
1100.20 0.0463
1100.30 0.04629
1100.40 0.04628
1100.50 0.04627
1100.60 0.04625
1100.70 0.04624
1100.80 0.04622
1100.90 0.04621
1101.00 0.0462
1101.10 0.04618
1101.20 0.04617
1101.30 0.04616
1101.40 0.04614
1101.50 0.04613
1101.60 0.04611
1101.70 0.0461
1101.80 0.04609
1101.90 0.04607
1102.00 0.04606
1102.10 0.04605
1102.20 0.04603
1102.30 0.04602
1102.40 0.046
1102.50 0.04599
1102.60 0.04597
1102.70 0.04596
1102.80 0.04595
1102.90 0.04593
1103.00 0.04592
1103.10 0.0459
1103.20 0.04589
1103.30 0.04587
1103.40 0.04586
1103.50 0.04584
1103.60 0.04583
1103.70 0.04581
1103.80 0.0458
1103.90 0.04578
1104.00 0.04577
1104.10 0.04575
1104.20 0.04574
1104.30 0.04572
1104.40 0.04571
1104.50 0.04569
1104.60 0.04568
1104.70 0.04566
1104.80 0.04565
1104.90 0.04563
1105.00 0.04562
1105.10 0.0456
1105.20 0.04559
1105.30 0.04557
1105.40 0.04556
1105.50 0.04554
1105.60 0.04553
1105.70 0.04551
1105.80 0.0455
1105.90 0.04548
1106.00 0.04547
1106.10 0.04545
1106.20 0.04543
1106.30 0.04542
1106.40 0.0454
1106.50 0.04539
1106.60 0.04537
1106.70 0.04536
1106.80 0.04534
1106.90 0.04533
1107.00 0.04531
1107.10 0.0453
1107.20 0.04528
1107.30 0.04527
1107.40 0.04525
1107.50 0.04523
1107.60 0.04522
1107.70 0.0452
1107.80 0.04519
1107.90 0.04517
1108.00 0.04516
1108.10 0.04514
1108.20 0.04513
1108.30 0.04511
1108.40 0.0451
1108.50 0.04508
1108.60 0.04506
1108.70 0.04505
1108.80 0.04503
1108.90 0.04502
1109.00 0.045
1109.10 0.04499
1109.20 0.04497
1109.30 0.04496
1109.40 0.04494
1109.50 0.04493
1109.60 0.04491
1109.70 0.04489
1109.80 0.04488
1109.90 0.04486
1110.00 0.04485
1110.10 0.04483
1110.20 0.04482
1110.30 0.0448
1110.40 0.04479
1110.50 0.04477
1110.60 0.04475
1110.70 0.04474
1110.80 0.04472
1110.90 0.04471
1111.00 0.04469
1111.10 0.04468
1111.20 0.04466
1111.30 0.04465
1111.40 0.04463
1111.50 0.04462
1111.60 0.0446
1111.70 0.04458
1111.80 0.04457
1111.90 0.04455
1112.00 0.04454
1112.10 0.04452
1112.20 0.04451
1112.30 0.04449
1112.40 0.04448
1112.50 0.04446
1112.60 0.04445
1112.70 0.04443
1112.80 0.04441
1112.90 0.0444
1113.00 0.04438
1113.10 0.04437
1113.20 0.04435
1113.30 0.04434
1113.40 0.04432
1113.50 0.04431
1113.60 0.04429
1113.70 0.04428
1113.80 0.04426
1113.90 0.04424
1114.00 0.04423
1114.10 0.04421
1114.20 0.0442
1114.30 0.04418
1114.40 0.04417
1114.50 0.04415
1114.60 0.04414
1114.70 0.04412
1114.80 0.04411
1114.90 0.04409
1115.00 0.04408
1115.10 0.04406
1115.20 0.04405
1115.30 0.04403
1115.40 0.04401
1115.50 0.044
1115.60 0.04398
1115.70 0.04397
1115.80 0.04395
1115.90 0.04394
1116.00 0.04392
1116.10 0.04391
1116.20 0.04389
1116.30 0.04388
1116.40 0.04386
1116.50 0.04385
1116.60 0.04383
1116.70 0.04382
1116.80 0.0438
1116.90 0.04379
1117.00 0.04377
1117.10 0.04375
1117.20 0.04374
1117.30 0.04372
1117.40 0.04371
1117.50 0.04369
1117.60 0.04368
1117.70 0.04366
1117.80 0.04365
1117.90 0.04363
1118.00 0.04362
1118.10 0.0436
1118.20 0.04359
1118.30 0.04357
1118.40 0.04356
1118.50 0.04354
1118.60 0.04353
1118.70 0.04351
1118.80 0.0435
1118.90 0.04348
1119.00 0.04347
1119.10 0.04345
1119.20 0.04344
1119.30 0.04342
1119.40 0.04341
1119.50 0.04339
1119.60 0.04338
1119.70 0.04336
1119.80 0.04335
1119.90 0.04333
1120.00 0.04332
1120.10 0.0433
1120.20 0.04329
1120.30 0.04327
1120.40 0.04326
1120.50 0.04324
1120.60 0.04323
1120.70 0.04321
1120.80 0.04319
1120.90 0.04318
1121.00 0.04316
1121.10 0.04315
1121.20 0.04313
1121.30 0.04312
1121.40 0.0431
1121.50 0.04309
1121.60 0.04307
1121.70 0.04306
1121.80 0.04304
1121.90 0.04303
1122.00 0.04301
1122.10 0.043
1122.20 0.04298
1122.30 0.04297
1122.40 0.04296
1122.50 0.04294
1122.60 0.04293
1122.70 0.04291
1122.80 0.0429
1122.90 0.04288
1123.00 0.04287
1123.10 0.04285
1123.20 0.04284
1123.30 0.04282
1123.40 0.04281
1123.50 0.04279
1123.60 0.04278
1123.70 0.04276
1123.80 0.04275
1123.90 0.04273
1124.00 0.04272
1124.10 0.0427
1124.20 0.04269
1124.30 0.04267
1124.40 0.04266
1124.50 0.04264
1124.60 0.04263
1124.70 0.04261
1124.80 0.0426
1124.90 0.04258
1125.00 0.04257
1125.10 0.04255
1125.20 0.04254
1125.30 0.04252
1125.40 0.04251
1125.50 0.0425
1125.60 0.04248
1125.70 0.04247
1125.80 0.04245
1125.90 0.04244
1126.00 0.04242
1126.10 0.04241
1126.20 0.04239
1126.30 0.04238
1126.40 0.04236
1126.50 0.04235
1126.60 0.04233
1126.70 0.04232
1126.80 0.0423
1126.90 0.04229
1127.00 0.04227
1127.10 0.04226
1127.20 0.04225
1127.30 0.04223
1127.40 0.04222
1127.50 0.0422
1127.60 0.04219
1127.70 0.04217
1127.80 0.04216
1127.90 0.04214
1128.00 0.04213
1128.10 0.04211
1128.20 0.0421
1128.30 0.04208
1128.40 0.04207
1128.50 0.04206
1128.60 0.04204
1128.70 0.04203
1128.80 0.04201
1128.90 0.042
1129.00 0.04198
1129.10 0.04197
1129.20 0.04195
1129.30 0.04194
1129.40 0.04192
1129.50 0.04191
1129.60 0.0419
1129.70 0.04188
1129.80 0.04187
1129.90 0.04185
1130.00 0.04184
1130.10 0.04182
1130.20 0.04181
1130.30 0.04179
1130.40 0.04178
1130.50 0.04177
1130.60 0.04175
1130.70 0.04174
1130.80 0.04172
1130.90 0.04171
1131.00 0.04169
1131.10 0.04168
1131.20 0.04166
1131.30 0.04165
1131.40 0.04164
1131.50 0.04162
1131.60 0.04161
1131.70 0.04159
1131.80 0.04158
1131.90 0.04156
1132.00 0.04155
1132.10 0.04153
1132.20 0.04152
1132.30 0.04151
1132.40 0.04149
1132.50 0.04148
1132.60 0.04146
1132.70 0.04145
1132.80 0.04143
1132.90 0.04142
1133.00 0.04141
1133.10 0.04139
1133.20 0.04138
1133.30 0.04136
1133.40 0.04135
1133.50 0.04133
1133.60 0.04132
1133.70 0.04131
1133.80 0.04129
1133.90 0.04128
1134.00 0.04126
1134.10 0.04125
1134.20 0.04124
1134.30 0.04122
1134.40 0.04121
1134.50 0.04119
1134.60 0.04118
1134.70 0.04116
1134.80 0.04115
1134.90 0.04114
1135.00 0.04112
1135.10 0.04111
1135.20 0.04109
1135.30 0.04108
1135.40 0.04107
1135.50 0.04105
1135.60 0.04104
1135.70 0.04102
1135.80 0.04101
1135.90 0.04099
1136.00 0.04098
1136.10 0.04097
1136.20 0.04095
1136.30 0.04094
1136.40 0.04092
1136.50 0.04091
1136.60 0.0409
1136.70 0.04088
1136.80 0.04087
1136.90 0.04085
1137.00 0.04084
1137.10 0.04083
1137.20 0.04081
1137.30 0.0408
1137.40 0.04078
1137.50 0.04077
1137.60 0.04076
1137.70 0.04074
1137.80 0.04073
1137.90 0.04071
1138.00 0.0407
1138.10 0.04069
1138.20 0.04067
1138.30 0.04066
1138.40 0.04064
1138.50 0.04063
1138.60 0.04062
1138.70 0.0406
1138.80 0.04059
1138.90 0.04057
1139.00 0.04056
1139.10 0.04055
1139.20 0.04053
1139.30 0.04052
1139.40 0.0405
1139.50 0.04049
1139.60 0.04048
1139.70 0.04046
1139.80 0.04045
1139.90 0.04043
1140.00 0.04042
1140.10 0.04041
1140.20 0.04039
1140.30 0.04038
1140.40 0.04037
1140.50 0.04035
1140.60 0.04034
1140.70 0.04032
1140.80 0.04031
1140.90 0.0403
1141.00 0.04028
1141.10 0.04027
1141.20 0.04025
1141.30 0.04024
1141.40 0.04023
1141.50 0.04021
1141.60 0.0402
1141.70 0.04019
1141.80 0.04017
1141.90 0.04016
1142.00 0.04014
1142.10 0.04013
1142.20 0.04012
1142.30 0.0401
1142.40 0.04009
1142.50 0.04008
1142.60 0.04006
1142.70 0.04005
1142.80 0.04003
1142.90 0.04002
1143.00 0.04001
1143.10 0.03999
1143.20 0.03998
1143.30 0.03997
1143.40 0.03995
1143.50 0.03994
1143.60 0.03993
1143.70 0.03991
1143.80 0.0399
1143.90 0.03988
1144.00 0.03987
1144.10 0.03986
1144.20 0.03984
1144.30 0.03983
1144.40 0.03982
1144.50 0.0398
1144.60 0.03979
1144.70 0.03978
1144.80 0.03976
1144.90 0.03975
1145.00 0.03973
1145.10 0.03972
1145.20 0.03971
1145.30 0.03969
1145.40 0.03968
1145.50 0.03967
1145.60 0.03965
1145.70 0.03964
1145.80 0.03963
1145.90 0.03961
1146.00 0.0396
1146.10 0.03959
1146.20 0.03957
1146.30 0.03956
1146.40 0.03954
1146.50 0.03953
1146.60 0.03952
1146.70 0.0395
1146.80 0.03949
1146.90 0.03948
1147.00 0.03946
1147.10 0.03945
1147.20 0.03944
1147.30 0.03942
1147.40 0.03941
1147.50 0.0394
1147.60 0.03938
1147.70 0.03937
1147.80 0.03936
1147.90 0.03934
1148.00 0.03933
1148.10 0.03932
1148.20 0.0393
1148.30 0.03929
1148.40 0.03928
1148.50 0.03926
1148.60 0.03925
1148.70 0.03924
1148.80 0.03922
1148.90 0.03921
1149.00 0.0392
1149.10 0.03918
1149.20 0.03917
1149.30 0.03916
1149.40 0.03914
1149.50 0.03913
1149.60 0.03912
1149.70 0.0391
1149.80 0.03909
1149.90 0.03908
1150.00 0.03906
1150.10 0.03905
1150.20 0.03904
1150.30 0.03902
1150.40 0.03901
1150.50 0.039
1150.60 0.03898
1150.70 0.03897
1150.80 0.03896
1150.90 0.03894
1151.00 0.03893
1151.10 0.03892
1151.20 0.0389
1151.30 0.03889
1151.40 0.03888
1151.50 0.03886
1151.60 0.03885
1151.70 0.03884
1151.80 0.03882
1151.90 0.03881
1152.00 0.0388
1152.10 0.03878
1152.20 0.03877
1152.30 0.03876
1152.40 0.03875
1152.50 0.03873
1152.60 0.03872
1152.70 0.03871
1152.80 0.03869
1152.90 0.03868
1153.00 0.03867
1153.10 0.03865
1153.20 0.03864
1153.30 0.03863
1153.40 0.03861
1153.50 0.0386
1153.60 0.03859
1153.70 0.03857
1153.80 0.03856
1153.90 0.03855
1154.00 0.03854
1154.10 0.03852
1154.20 0.03851
1154.30 0.0385
1154.40 0.03848
1154.50 0.03847
1154.60 0.03846
1154.70 0.03844
1154.80 0.03843
1154.90 0.03842
1155.00 0.03841
1155.10 0.03839
1155.20 0.03838
1155.30 0.03837
1155.40 0.03835
1155.50 0.03834
1155.60 0.03833
1155.70 0.03831
1155.80 0.0383
1155.90 0.03829
1156.00 0.03828
1156.10 0.03826
1156.20 0.03825
1156.30 0.03824
1156.40 0.03822
1156.50 0.03821
1156.60 0.0382
1156.70 0.03818
1156.80 0.03817
1156.90 0.03816
1157.00 0.03815
1157.10 0.03813
1157.20 0.03812
1157.30 0.03811
1157.40 0.03809
1157.50 0.03808
1157.60 0.03807
1157.70 0.03806
1157.80 0.03804
1157.90 0.03803
1158.00 0.03802
1158.10 0.038
1158.20 0.03799
1158.30 0.03798
1158.40 0.03797
1158.50 0.03795
1158.60 0.03794
1158.70 0.03793
1158.80 0.03791
1158.90 0.0379
1159.00 0.03789
1159.10 0.03788
1159.20 0.03786
1159.30 0.03785
1159.40 0.03784
1159.50 0.03783
1159.60 0.03781
1159.70 0.0378
1159.80 0.03779
1159.90 0.03777
1160.00 0.03776
1160.10 0.03775
1160.20 0.03774
1160.30 0.03772
1160.40 0.03771
1160.50 0.0377
1160.60 0.03768
1160.70 0.03767
1160.80 0.03766
1160.90 0.03765
1161.00 0.03763
1161.10 0.03762
1161.20 0.03761
1161.30 0.0376
1161.40 0.03758
1161.50 0.03757
1161.60 0.03756
1161.70 0.03755
1161.80 0.03753
1161.90 0.03752
1162.00 0.03751
1162.10 0.03749
1162.20 0.03748
1162.30 0.03747
1162.40 0.03746
1162.50 0.03744
1162.60 0.03743
1162.70 0.03742
1162.80 0.03741
1162.90 0.03739
1163.00 0.03738
1163.10 0.03737
1163.20 0.03736
1163.30 0.03734
1163.40 0.03733
1163.50 0.03732
1163.60 0.03731
1163.70 0.03729
1163.80 0.03728
1163.90 0.03727
1164.00 0.03726
1164.10 0.03724
1164.20 0.03723
1164.30 0.03722
1164.40 0.03721
1164.50 0.03719
1164.60 0.03718
1164.70 0.03717
1164.80 0.03716
1164.90 0.03714
1165.00 0.03713
1165.10 0.03712
1165.20 0.03711
1165.30 0.03709
1165.40 0.03708
1165.50 0.03707
1165.60 0.03706
1165.70 0.03704
1165.80 0.03703
1165.90 0.03702
1166.00 0.03701
1166.10 0.03699
1166.20 0.03698
1166.30 0.03697
1166.40 0.03696
1166.50 0.03694
1166.60 0.03693
1166.70 0.03692
1166.80 0.03691
1166.90 0.03689
1167.00 0.03688
1167.10 0.03687
1167.20 0.03686
1167.30 0.03685
1167.40 0.03683
1167.50 0.03682
1167.60 0.03681
1167.70 0.0368
1167.80 0.03678
1167.90 0.03677
1168.00 0.03676
1168.10 0.03675
1168.20 0.03673
1168.30 0.03672
1168.40 0.03671
1168.50 0.0367
1168.60 0.03669
1168.70 0.03667
1168.80 0.03666
1168.90 0.03665
1169.00 0.03664
1169.10 0.03662
1169.20 0.03661
1169.30 0.0366
1169.40 0.03659
1169.50 0.03657
1169.60 0.03656
1169.70 0.03655
1169.80 0.03654
1169.90 0.03653
1170.00 0.03651
1170.10 0.0365
1170.20 0.03649
1170.30 0.03648
1170.40 0.03646
1170.50 0.03645
1170.60 0.03644
1170.70 0.03643
1170.80 0.03642
1170.90 0.0364
1171.00 0.03639
1171.10 0.03638
1171.20 0.03637
1171.30 0.03635
1171.40 0.03634
1171.50 0.03633
1171.60 0.03632
1171.70 0.03631
1171.80 0.03629
1171.90 0.03628
1172.00 0.03627
1172.10 0.03626
1172.20 0.03625
1172.30 0.03623
1172.40 0.03622
1172.50 0.03621
1172.60 0.0362
1172.70 0.03619
1172.80 0.03617
1172.90 0.03616
1173.00 0.03615
1173.10 0.03614
1173.20 0.03613
1173.30 0.03611
1173.40 0.0361
1173.50 0.03609
1173.60 0.03608
1173.70 0.03607
1173.80 0.03605
1173.90 0.03604
1174.00 0.03603
1174.10 0.03602
1174.20 0.036
1174.30 0.03599
1174.40 0.03598
1174.50 0.03597
1174.60 0.03596
1174.70 0.03595
1174.80 0.03593
1174.90 0.03592
1175.00 0.03591
1175.10 0.0359
1175.20 0.03589
1175.30 0.03587
1175.40 0.03586
1175.50 0.03585
1175.60 0.03584
1175.70 0.03583
1175.80 0.03581
1175.90 0.0358
1176.00 0.03579
1176.10 0.03578
1176.20 0.03577
1176.30 0.03575
1176.40 0.03574
1176.50 0.03573
1176.60 0.03572
1176.70 0.03571
1176.80 0.03569
1176.90 0.03568
1177.00 0.03567
1177.10 0.03566
1177.20 0.03565
1177.30 0.03563
1177.40 0.03562
1177.50 0.03561
1177.60 0.0356
1177.70 0.03559
1177.80 0.03558
1177.90 0.03556
1178.00 0.03555
1178.10 0.03554
1178.20 0.03553
1178.30 0.03552
1178.40 0.03551
1178.50 0.03549
1178.60 0.03548
1178.70 0.03547
1178.80 0.03546
1178.90 0.03545
1179.00 0.03543
1179.10 0.03542
1179.20 0.03541
1179.30 0.0354
1179.40 0.03539
1179.50 0.03538
1179.60 0.03536
1179.70 0.03535
1179.80 0.03534
1179.90 0.03533
1180.00 0.03532
1180.10 0.03531
1180.20 0.03529
1180.30 0.03528
1180.40 0.03527
1180.50 0.03526
1180.60 0.03525
1180.70 0.03524
1180.80 0.03522
1180.90 0.03521
1181.00 0.0352
1181.10 0.03519
1181.20 0.03518
1181.30 0.03516
1181.40 0.03515
1181.50 0.03514
1181.60 0.03513
1181.70 0.03512
1181.80 0.03511
1181.90 0.03509
1182.00 0.03508
1182.10 0.03507
1182.20 0.03506
1182.30 0.03505
1182.40 0.03504
1182.50 0.03503
1182.60 0.03501
1182.70 0.035
1182.80 0.03499
1182.90 0.03498
1183.00 0.03497
1183.10 0.03496
1183.20 0.03494
1183.30 0.03493
1183.40 0.03492
1183.50 0.03491
1183.60 0.0349
1183.70 0.03489
1183.80 0.03488
1183.90 0.03486
1184.00 0.03485
1184.10 0.03484
1184.20 0.03483
1184.30 0.03482
1184.40 0.03481
1184.50 0.03479
1184.60 0.03478
1184.70 0.03477
1184.80 0.03476
1184.90 0.03475
1185.00 0.03474
1185.10 0.03473
1185.20 0.03471
1185.30 0.0347
1185.40 0.03469
1185.50 0.03468
1185.60 0.03467
1185.70 0.03466
1185.80 0.03465
1185.90 0.03463
1186.00 0.03462
1186.10 0.03461
1186.20 0.0346
1186.30 0.03459
1186.40 0.03458
1186.50 0.03457
1186.60 0.03455
1186.70 0.03454
1186.80 0.03453
1186.90 0.03452
1187.00 0.03451
1187.10 0.0345
1187.20 0.03449
1187.30 0.03447
1187.40 0.03446
1187.50 0.03445
1187.60 0.03444
1187.70 0.03443
1187.80 0.03442
1187.90 0.03441
1188.00 0.03439
1188.10 0.03438
1188.20 0.03437
1188.30 0.03436
1188.40 0.03435
1188.50 0.03434
1188.60 0.03433
1188.70 0.03432
1188.80 0.0343
1188.90 0.03429
1189.00 0.03428
1189.10 0.03427
1189.20 0.03426
1189.30 0.03425
1189.40 0.03424
1189.50 0.03423
1189.60 0.03421
1189.70 0.0342
1189.80 0.03419
1189.90 0.03418
1190.00 0.03417
1190.10 0.03416
1190.20 0.03415
1190.30 0.03414
1190.40 0.03412
1190.50 0.03411
1190.60 0.0341
1190.70 0.03409
1190.80 0.03408
1190.90 0.03407
1191.00 0.03406
1191.10 0.03405
1191.20 0.03403
1191.30 0.03402
1191.40 0.03401
1191.50 0.034
1191.60 0.03399
1191.70 0.03398
1191.80 0.03397
1191.90 0.03396
1192.00 0.03394
1192.10 0.03393
1192.20 0.03392
1192.30 0.03391
1192.40 0.0339
1192.50 0.03389
1192.60 0.03388
1192.70 0.03387
1192.80 0.03386
1192.90 0.03384
1193.00 0.03383
1193.10 0.03382
1193.20 0.03381
1193.30 0.0338
1193.40 0.03379
1193.50 0.03378
1193.60 0.03377
1193.70 0.03376
1193.80 0.03375
1193.90 0.03373
1194.00 0.03372
1194.10 0.03371
1194.20 0.0337
1194.30 0.03369
1194.40 0.03368
1194.50 0.03367
1194.60 0.03366
1194.70 0.03365
1194.80 0.03363
1194.90 0.03362
1195.00 0.03361
1195.10 0.0336
1195.20 0.03359
1195.30 0.03358
1195.40 0.03357
1195.50 0.03356
1195.60 0.03355
1195.70 0.03354
1195.80 0.03352
1195.90 0.03351
1196.00 0.0335
1196.10 0.03349
1196.20 0.03348
1196.30 0.03347
1196.40 0.03346
1196.50 0.03345
1196.60 0.03344
1196.70 0.03343
1196.80 0.03341
1196.90 0.0334
1197.00 0.03339
1197.10 0.03338
1197.20 0.03337
1197.30 0.03336
1197.40 0.03335
1197.50 0.03334
1197.60 0.03333
1197.70 0.03332
1197.80 0.03331
1197.90 0.03329
1198.00 0.03328
1198.10 0.03327
1198.20 0.03326
1198.30 0.03325
1198.40 0.03324
1198.50 0.03323
1198.60 0.03322
1198.70 0.03321
1198.80 0.0332
1198.90 0.03319
1199.00 0.03318
1199.10 0.03316
1199.20 0.03315
1199.30 0.03314
1199.40 0.03313
1199.50 0.03312
1199.60 0.03311
1199.70 0.0331
1199.80 0.03309
1199.90 0.03308
1200.00 0
