# Version 2.1 - nm, norm@500 to 1, cut digits, bergeron_45000_90.dat_45000
# Wavelength(nm)  Flambda(ergs/cm^s/s/nm)
300.00 6.099
300.10 6.092
300.20 6.085
300.30 6.077
300.40 6.07
300.50 6.063
300.60 6.056
300.70 6.048
300.80 6.041
300.90 6.034
301.00 6.027
301.10 6.019
301.20 6.012
301.30 6.005
301.40 5.998
301.50 5.991
301.60 5.984
301.70 5.976
301.80 5.969
301.90 5.962
302.00 5.955
302.10 5.948
302.20 5.941
302.30 5.934
302.40 5.927
302.50 5.92
302.60 5.913
302.70 5.906
302.80 5.899
302.90 5.892
303.00 5.885
303.10 5.878
303.20 5.871
303.30 5.864
303.40 5.857
303.50 5.85
303.60 5.843
303.70 5.836
303.80 5.829
303.90 5.822
304.00 5.815
304.10 5.808
304.20 5.801
304.30 5.795
304.40 5.788
304.50 5.781
304.60 5.774
304.70 5.767
304.80 5.76
304.90 5.754
305.00 5.747
305.10 5.74
305.20 5.733
305.30 5.727
305.40 5.72
305.50 5.713
305.60 5.706
305.70 5.7
305.80 5.693
305.90 5.686
306.00 5.679
306.10 5.673
306.20 5.666
306.30 5.659
306.40 5.653
306.50 5.646
306.60 5.639
306.70 5.633
306.80 5.626
306.90 5.62
307.00 5.613
307.10 5.606
307.20 5.6
307.30 5.593
307.40 5.587
307.50 5.58
307.60 5.574
307.70 5.567
307.80 5.561
307.90 5.554
308.00 5.548
308.10 5.541
308.20 5.535
308.30 5.528
308.40 5.522
308.50 5.515
308.60 5.509
308.70 5.502
308.80 5.496
308.90 5.49
309.00 5.483
309.10 5.477
309.20 5.47
309.30 5.464
309.40 5.458
309.50 5.451
309.60 5.445
309.70 5.439
309.80 5.432
309.90 5.426
310.00 5.42
310.10 5.413
310.20 5.407
310.30 5.401
310.40 5.394
310.50 5.388
310.60 5.382
310.70 5.376
310.80 5.369
310.90 5.363
311.00 5.357
311.10 5.351
311.20 5.345
311.30 5.338
311.40 5.332
311.50 5.326
311.60 5.32
311.70 5.314
311.80 5.308
311.90 5.301
312.00 5.295
312.10 5.289
312.20 5.283
312.30 5.277
312.40 5.271
312.50 5.265
312.60 5.259
312.70 5.253
312.80 5.246
312.90 5.24
313.00 5.234
313.10 5.228
313.20 5.222
313.30 5.216
313.40 5.21
313.50 5.204
313.60 5.198
313.70 5.192
313.80 5.186
313.90 5.18
314.00 5.174
314.10 5.169
314.20 5.163
314.30 5.157
314.40 5.151
314.50 5.145
314.60 5.139
314.70 5.133
314.80 5.127
314.90 5.121
315.00 5.115
315.10 5.109
315.20 5.104
315.30 5.098
315.40 5.092
315.50 5.086
315.60 5.08
315.70 5.075
315.80 5.069
315.90 5.063
316.00 5.057
316.10 5.051
316.20 5.046
316.30 5.04
316.40 5.034
316.50 5.028
316.60 5.023
316.70 5.017
316.80 5.011
316.90 5.005
317.00 5
317.10 4.994
317.20 4.988
317.30 4.983
317.40 4.977
317.50 4.971
317.60 4.966
317.70 4.96
317.80 4.954
317.90 4.949
318.00 4.943
318.10 4.937
318.20 4.932
318.30 4.926
318.40 4.921
318.50 4.915
318.60 4.91
318.70 4.904
318.80 4.898
318.90 4.893
319.00 4.887
319.10 4.882
319.20 4.876
319.30 4.871
319.40 4.865
319.50 4.86
319.60 4.854
319.70 4.849
319.80 4.843
319.90 4.838
320.00 4.832
320.10 4.827
320.20 4.821
320.30 4.816
320.40 4.81
320.50 4.805
320.60 4.8
320.70 4.794
320.80 4.789
320.90 4.783
321.00 4.778
321.10 4.773
321.20 4.767
321.30 4.762
321.40 4.757
321.50 4.751
321.60 4.746
321.70 4.741
321.80 4.735
321.90 4.73
322.00 4.725
322.10 4.719
322.20 4.714
322.30 4.709
322.40 4.703
322.50 4.698
322.60 4.693
322.70 4.688
322.80 4.682
322.90 4.677
323.00 4.672
323.10 4.667
323.20 4.661
323.30 4.656
323.40 4.651
323.50 4.646
323.60 4.641
323.70 4.635
323.80 4.63
323.90 4.625
324.00 4.62
324.10 4.615
324.20 4.61
324.30 4.604
324.40 4.599
324.50 4.594
324.60 4.589
324.70 4.584
324.80 4.579
324.90 4.574
325.00 4.569
325.10 4.564
325.20 4.558
325.30 4.553
325.40 4.548
325.50 4.543
325.60 4.538
325.70 4.533
325.80 4.528
325.90 4.523
326.00 4.518
326.10 4.513
326.20 4.508
326.30 4.503
326.40 4.498
326.50 4.493
326.60 4.488
326.70 4.483
326.80 4.478
326.90 4.473
327.00 4.468
327.10 4.463
327.20 4.458
327.30 4.453
327.40 4.448
327.50 4.444
327.60 4.439
327.70 4.434
327.80 4.429
327.90 4.424
328.00 4.419
328.10 4.414
328.20 4.409
328.30 4.404
328.40 4.4
328.50 4.395
328.60 4.39
328.70 4.385
328.80 4.38
328.90 4.375
329.00 4.371
329.10 4.366
329.20 4.361
329.30 4.356
329.40 4.351
329.50 4.347
329.60 4.342
329.70 4.337
329.80 4.332
329.90 4.327
330.00 4.323
330.10 4.318
330.20 4.313
330.30 4.309
330.40 4.304
330.50 4.299
330.60 4.294
330.70 4.29
330.80 4.285
330.90 4.28
331.00 4.276
331.10 4.271
331.20 4.266
331.30 4.262
331.40 4.257
331.50 4.252
331.60 4.248
331.70 4.243
331.80 4.238
331.90 4.234
332.00 4.229
332.10 4.224
332.20 4.22
332.30 4.215
332.40 4.211
332.50 4.206
332.60 4.201
332.70 4.197
332.80 4.192
332.90 4.188
333.00 4.183
333.10 4.179
333.20 4.174
333.30 4.17
333.40 4.165
333.50 4.16
333.60 4.156
333.70 4.151
333.80 4.147
333.90 4.142
334.00 4.138
334.10 4.133
334.20 4.129
334.30 4.124
334.40 4.12
334.50 4.116
334.60 4.111
334.70 4.107
334.80 4.102
334.90 4.098
335.00 4.093
335.10 4.089
335.20 4.084
335.30 4.08
335.40 4.076
335.50 4.071
335.60 4.067
335.70 4.062
335.80 4.058
335.90 4.054
336.00 4.049
336.10 4.045
336.20 4.04
336.30 4.036
336.40 4.032
336.50 4.027
336.60 4.023
336.70 4.019
336.80 4.014
336.90 4.01
337.00 4.006
337.10 4.001
337.20 3.997
337.30 3.993
337.40 3.989
337.50 3.984
337.60 3.98
337.70 3.976
337.80 3.971
337.90 3.967
338.00 3.963
338.10 3.959
338.20 3.954
338.30 3.95
338.40 3.946
338.50 3.942
338.60 3.937
338.70 3.933
338.80 3.929
338.90 3.925
339.00 3.921
339.10 3.916
339.20 3.912
339.30 3.908
339.40 3.904
339.50 3.9
339.60 3.895
339.70 3.891
339.80 3.887
339.90 3.883
340.00 3.879
340.10 3.875
340.20 3.871
340.30 3.866
340.40 3.862
340.50 3.858
340.60 3.854
340.70 3.85
340.80 3.846
340.90 3.842
341.00 3.838
341.10 3.834
341.20 3.83
341.30 3.825
341.40 3.821
341.50 3.817
341.60 3.813
341.70 3.809
341.80 3.805
341.90 3.801
342.00 3.797
342.10 3.793
342.20 3.789
342.30 3.785
342.40 3.781
342.50 3.777
342.60 3.773
342.70 3.769
342.80 3.765
342.90 3.761
343.00 3.757
343.10 3.753
343.20 3.749
343.30 3.745
343.40 3.741
343.50 3.737
343.60 3.733
343.70 3.729
343.80 3.725
343.90 3.721
344.00 3.717
344.10 3.713
344.20 3.709
344.30 3.706
344.40 3.702
344.50 3.698
344.60 3.694
344.70 3.69
344.80 3.686
344.90 3.682
345.00 3.678
345.10 3.674
345.20 3.671
345.30 3.667
345.40 3.663
345.50 3.659
345.60 3.655
345.70 3.651
345.80 3.647
345.90 3.644
346.00 3.64
346.10 3.636
346.20 3.632
346.30 3.628
346.40 3.625
346.50 3.621
346.60 3.617
346.70 3.613
346.80 3.609
346.90 3.606
347.00 3.602
347.10 3.598
347.20 3.594
347.30 3.59
347.40 3.587
347.50 3.583
347.60 3.579
347.70 3.575
347.80 3.572
347.90 3.568
348.00 3.564
348.10 3.561
348.20 3.557
348.30 3.553
348.40 3.549
348.50 3.546
348.60 3.542
348.70 3.538
348.80 3.535
348.90 3.531
349.00 3.527
349.10 3.524
349.20 3.52
349.30 3.516
349.40 3.513
349.50 3.509
349.60 3.505
349.70 3.502
349.80 3.498
349.90 3.494
350.00 3.491
350.10 3.487
350.20 3.483
350.30 3.48
350.40 3.476
350.50 3.473
350.60 3.469
350.70 3.465
350.80 3.462
350.90 3.458
351.00 3.455
351.10 3.451
351.20 3.447
351.30 3.444
351.40 3.44
351.50 3.437
351.60 3.433
351.70 3.43
351.80 3.426
351.90 3.422
352.00 3.419
352.10 3.415
352.20 3.412
352.30 3.408
352.40 3.405
352.50 3.401
352.60 3.398
352.70 3.394
352.80 3.391
352.90 3.387
353.00 3.384
353.10 3.38
353.20 3.377
353.30 3.373
353.40 3.37
353.50 3.366
353.60 3.363
353.70 3.359
353.80 3.356
353.90 3.353
354.00 3.349
354.10 3.346
354.20 3.342
354.30 3.339
354.40 3.335
354.50 3.332
354.60 3.328
354.70 3.325
354.80 3.322
354.90 3.318
355.00 3.315
355.10 3.311
355.20 3.308
355.30 3.305
355.40 3.301
355.50 3.298
355.60 3.294
355.70 3.291
355.80 3.288
355.90 3.284
356.00 3.281
356.10 3.278
356.20 3.274
356.30 3.271
356.40 3.268
356.50 3.264
356.60 3.261
356.70 3.258
356.80 3.254
356.90 3.251
357.00 3.248
357.10 3.244
357.20 3.241
357.30 3.238
357.40 3.234
357.50 3.231
357.60 3.228
357.70 3.225
357.80 3.221
357.90 3.218
358.00 3.215
358.10 3.211
358.20 3.208
358.30 3.205
358.40 3.202
358.50 3.198
358.60 3.195
358.70 3.192
358.80 3.189
358.90 3.185
359.00 3.182
359.10 3.179
359.20 3.176
359.30 3.172
359.40 3.169
359.50 3.166
359.60 3.163
359.70 3.16
359.80 3.156
359.90 3.153
360.00 3.15
360.10 3.147
360.20 3.144
360.30 3.14
360.40 3.137
360.50 3.134
360.60 3.131
360.70 3.128
360.80 3.125
360.90 3.121
361.00 3.118
361.10 3.115
361.20 3.112
361.30 3.109
361.40 3.106
361.50 3.103
361.60 3.099
361.70 3.096
361.80 3.093
361.90 3.09
362.00 3.087
362.10 3.084
362.20 3.081
362.30 3.078
362.40 3.074
362.50 3.071
362.60 3.068
362.70 3.065
362.80 3.062
362.90 3.059
363.00 3.056
363.10 3.053
363.20 3.05
363.30 3.047
363.40 3.044
363.50 3.041
363.60 3.038
363.70 3.035
363.80 3.032
363.90 3.028
364.00 3.025
364.10 3.022
364.20 3.019
364.30 3.016
364.40 3.013
364.50 3.01
364.60 3.007
364.70 3.004
364.80 3.001
364.90 2.998
365.00 2.995
365.10 2.992
365.20 2.989
365.30 2.986
365.40 2.983
365.50 2.98
365.60 2.977
365.70 2.974
365.80 2.971
365.90 2.968
366.00 2.966
366.10 2.962
366.20 2.959
366.30 2.956
366.40 2.953
366.50 2.95
366.60 2.947
366.70 2.944
366.80 2.942
366.90 2.939
367.00 2.936
367.10 2.933
367.20 2.93
367.30 2.927
367.40 2.924
367.50 2.921
367.60 2.918
367.70 2.915
367.80 2.912
367.90 2.909
368.00 2.906
368.10 2.903
368.20 2.9
368.30 2.897
368.40 2.894
368.50 2.891
368.60 2.888
368.70 2.885
368.80 2.882
368.90 2.879
369.00 2.876
369.10 2.873
369.20 2.87
369.30 2.867
369.40 2.864
369.50 2.861
369.60 2.858
369.70 2.855
369.80 2.852
369.90 2.849
370.00 2.846
370.10 2.843
370.20 2.84
370.30 2.837
370.40 2.834
370.50 2.831
370.60 2.828
370.70 2.825
370.80 2.822
370.90 2.819
371.00 2.816
371.10 2.813
371.20 2.81
371.30 2.808
371.40 2.805
371.50 2.802
371.60 2.799
371.70 2.796
371.80 2.793
371.90 2.79
372.00 2.787
372.10 2.785
372.20 2.782
372.30 2.779
372.40 2.776
372.50 2.774
372.60 2.771
372.70 2.768
372.80 2.766
372.90 2.763
373.00 2.76
373.10 2.757
373.20 2.755
373.30 2.752
373.40 2.749
373.50 2.747
373.60 2.744
373.70 2.741
373.80 2.739
373.90 2.736
374.00 2.733
374.10 2.73
374.20 2.728
374.30 2.725
374.40 2.722
374.50 2.719
374.60 2.717
374.70 2.714
374.80 2.711
374.90 2.708
375.00 2.705
375.10 2.703
375.20 2.7
375.30 2.697
375.40 2.694
375.50 2.692
375.60 2.689
375.70 2.686
375.80 2.683
375.90 2.681
376.00 2.678
376.10 2.675
376.20 2.672
376.30 2.67
376.40 2.667
376.50 2.664
376.60 2.662
376.70 2.659
376.80 2.656
376.90 2.654
377.00 2.651
377.10 2.648
377.20 2.646
377.30 2.643
377.40 2.64
377.50 2.638
377.60 2.635
377.70 2.633
377.80 2.63
377.90 2.628
378.00 2.625
378.10 2.622
378.20 2.62
378.30 2.617
378.40 2.615
378.50 2.612
378.60 2.61
378.70 2.607
378.80 2.605
378.90 2.602
379.00 2.599
379.10 2.597
379.20 2.594
379.30 2.592
379.40 2.589
379.50 2.587
379.60 2.584
379.70 2.582
379.80 2.579
379.90 2.577
380.00 2.574
380.10 2.572
380.20 2.57
380.30 2.567
380.40 2.565
380.50 2.562
380.60 2.56
380.70 2.557
380.80 2.555
380.90 2.553
381.00 2.55
381.10 2.548
381.20 2.545
381.30 2.543
381.40 2.541
381.50 2.538
381.60 2.536
381.70 2.534
381.80 2.531
381.90 2.529
382.00 2.526
382.10 2.524
382.20 2.522
382.30 2.519
382.40 2.517
382.50 2.515
382.60 2.512
382.70 2.51
382.80 2.508
382.90 2.505
383.00 2.503
383.10 2.501
383.20 2.498
383.30 2.496
383.40 2.494
383.50 2.491
383.60 2.489
383.70 2.487
383.80 2.485
383.90 2.483
384.00 2.481
384.10 2.478
384.20 2.476
384.30 2.474
384.40 2.472
384.50 2.47
384.60 2.468
384.70 2.466
384.80 2.464
384.90 2.461
385.00 2.459
385.10 2.457
385.20 2.455
385.30 2.453
385.40 2.451
385.50 2.449
385.60 2.446
385.70 2.444
385.80 2.442
385.90 2.44
386.00 2.438
386.10 2.435
386.20 2.433
386.30 2.431
386.40 2.429
386.50 2.427
386.60 2.424
386.70 2.422
386.80 2.42
386.90 2.417
387.00 2.415
387.10 2.413
387.20 2.411
387.30 2.408
387.40 2.406
387.50 2.404
387.60 2.401
387.70 2.399
387.80 2.397
387.90 2.394
388.00 2.392
388.10 2.39
388.20 2.387
388.30 2.385
388.40 2.383
388.50 2.381
388.60 2.379
388.70 2.376
388.80 2.374
388.90 2.372
389.00 2.371
389.10 2.369
389.20 2.367
389.30 2.365
389.40 2.364
389.50 2.362
389.60 2.36
389.70 2.359
389.80 2.357
389.90 2.356
390.00 2.354
390.10 2.352
390.20 2.351
390.30 2.349
390.40 2.348
390.50 2.346
390.60 2.344
390.70 2.343
390.80 2.341
390.90 2.339
391.00 2.338
391.10 2.336
391.20 2.334
391.30 2.332
391.40 2.331
391.50 2.329
391.60 2.327
391.70 2.325
391.80 2.323
391.90 2.321
392.00 2.319
392.10 2.317
392.20 2.315
392.30 2.313
392.40 2.311
392.50 2.309
392.60 2.306
392.70 2.304
392.80 2.302
392.90 2.3
393.00 2.297
393.10 2.295
393.20 2.292
393.30 2.29
393.40 2.287
393.50 2.285
393.60 2.282
393.70 2.28
393.80 2.277
393.90 2.274
394.00 2.272
394.10 2.269
394.20 2.266
394.30 2.263
394.40 2.261
394.50 2.258
394.60 2.255
394.70 2.252
394.80 2.249
394.90 2.246
395.00 2.243
395.10 2.24
395.20 2.236
395.30 2.233
395.40 2.23
395.50 2.227
395.60 2.224
395.70 2.221
395.80 2.217
395.90 2.214
396.00 2.211
396.10 2.208
396.20 2.204
396.30 2.201
396.40 2.198
396.50 2.195
396.60 2.192
396.70 2.189
396.80 2.186
396.90 2.183
397.00 2.18
397.10 2.18
397.20 2.179
397.30 2.179
397.40 2.178
397.50 2.178
397.60 2.178
397.70 2.178
397.80 2.178
397.90 2.178
398.00 2.177
398.10 2.177
398.20 2.177
398.30 2.177
398.40 2.177
398.50 2.177
398.60 2.177
398.70 2.177
398.80 2.177
398.90 2.176
399.00 2.176
399.10 2.176
399.20 2.175
399.30 2.175
399.40 2.175
399.50 2.174
399.60 2.174
399.70 2.173
399.80 2.173
399.90 2.172
400.00 2.171
400.10 2.171
400.20 2.17
400.30 2.169
400.40 2.168
400.50 2.167
400.60 2.166
400.70 2.165
400.80 2.164
400.90 2.163
401.00 2.162
401.10 2.161
401.20 2.16
401.30 2.159
401.40 2.157
401.50 2.156
401.60 2.155
401.70 2.153
401.80 2.152
401.90 2.15
402.00 2.149
402.10 2.147
402.20 2.146
402.30 2.144
402.40 2.142
402.50 2.14
402.60 2.138
402.70 2.137
402.80 2.135
402.90 2.133
403.00 2.131
403.10 2.128
403.20 2.126
403.30 2.124
403.40 2.122
403.50 2.12
403.60 2.117
403.70 2.115
403.80 2.112
403.90 2.11
404.00 2.107
404.10 2.105
404.20 2.102
404.30 2.099
404.40 2.097
404.50 2.094
404.60 2.091
404.70 2.088
404.80 2.085
404.90 2.082
405.00 2.079
405.10 2.076
405.20 2.072
405.30 2.069
405.40 2.066
405.50 2.062
405.60 2.059
405.70 2.055
405.80 2.051
405.90 2.048
406.00 2.044
406.10 2.04
406.20 2.036
406.30 2.032
406.40 2.028
406.50 2.024
406.60 2.02
406.70 2.016
406.80 2.011
406.90 2.007
407.00 2.002
407.10 1.998
407.20 1.993
407.30 1.989
407.40 1.984
407.50 1.979
407.60 1.974
407.70 1.969
407.80 1.964
407.90 1.959
408.00 1.954
408.10 1.949
408.20 1.943
408.30 1.938
408.40 1.933
408.50 1.927
408.60 1.922
408.70 1.916
408.80 1.911
408.90 1.906
409.00 1.9
409.10 1.895
409.20 1.89
409.30 1.884
409.40 1.879
409.50 1.875
409.60 1.87
409.70 1.866
409.80 1.863
409.90 1.86
410.00 1.859
410.10 1.858
410.20 1.858
410.30 1.855
410.40 1.853
410.50 1.852
410.60 1.852
410.70 1.853
410.80 1.854
410.90 1.856
411.00 1.858
411.10 1.86
411.20 1.862
411.30 1.864
411.40 1.866
411.50 1.869
411.60 1.871
411.70 1.874
411.80 1.876
411.90 1.878
412.00 1.88
412.10 1.883
412.20 1.885
412.30 1.887
412.40 1.889
412.50 1.891
412.60 1.893
412.70 1.895
412.80 1.897
412.90 1.898
413.00 1.9
413.10 1.902
413.20 1.903
413.30 1.905
413.40 1.906
413.50 1.907
413.60 1.909
413.70 1.91
413.80 1.911
413.90 1.912
414.00 1.913
414.10 1.914
414.20 1.915
414.30 1.915
414.40 1.916
414.50 1.917
414.60 1.917
414.70 1.918
414.80 1.918
414.90 1.919
415.00 1.919
415.10 1.92
415.20 1.92
415.30 1.92
415.40 1.92
415.50 1.92
415.60 1.92
415.70 1.92
415.80 1.92
415.90 1.92
416.00 1.92
416.10 1.92
416.20 1.92
416.30 1.92
416.40 1.919
416.50 1.919
416.60 1.919
416.70 1.918
416.80 1.918
416.90 1.917
417.00 1.917
417.10 1.916
417.20 1.916
417.30 1.915
417.40 1.914
417.50 1.914
417.60 1.913
417.70 1.912
417.80 1.912
417.90 1.911
418.00 1.91
418.10 1.909
418.20 1.908
418.30 1.907
418.40 1.906
418.50 1.905
418.60 1.904
418.70 1.903
418.80 1.902
418.90 1.901
419.00 1.9
419.10 1.899
419.20 1.898
419.30 1.897
419.40 1.896
419.50 1.894
419.60 1.893
419.70 1.892
419.80 1.891
419.90 1.889
420.00 1.888
420.10 1.887
420.20 1.886
420.30 1.884
420.40 1.883
420.50 1.881
420.60 1.88
420.70 1.879
420.80 1.877
420.90 1.876
421.00 1.874
421.10 1.873
421.20 1.871
421.30 1.87
421.40 1.868
421.50 1.866
421.60 1.865
421.70 1.863
421.80 1.861
421.90 1.86
422.00 1.858
422.10 1.856
422.20 1.855
422.30 1.853
422.40 1.851
422.50 1.85
422.60 1.848
422.70 1.846
422.80 1.844
422.90 1.842
423.00 1.84
423.10 1.838
423.20 1.837
423.30 1.835
423.40 1.833
423.50 1.831
423.60 1.829
423.70 1.827
423.80 1.825
423.90 1.823
424.00 1.821
424.10 1.819
424.20 1.816
424.30 1.814
424.40 1.812
424.50 1.81
424.60 1.808
424.70 1.806
424.80 1.803
424.90 1.801
425.00 1.799
425.10 1.796
425.20 1.794
425.30 1.792
425.40 1.789
425.50 1.787
425.60 1.784
425.70 1.782
425.80 1.779
425.90 1.777
426.00 1.774
426.10 1.771
426.20 1.769
426.30 1.766
426.40 1.763
426.50 1.761
426.60 1.758
426.70 1.755
426.80 1.752
426.90 1.749
427.00 1.746
427.10 1.743
427.20 1.74
427.30 1.737
427.40 1.734
427.50 1.731
427.60 1.728
427.70 1.724
427.80 1.721
427.90 1.718
428.00 1.714
428.10 1.711
428.20 1.707
428.30 1.703
428.40 1.7
428.50 1.696
428.60 1.692
428.70 1.689
428.80 1.685
428.90 1.681
429.00 1.677
429.10 1.673
429.20 1.669
429.30 1.664
429.40 1.66
429.50 1.656
429.60 1.651
429.70 1.647
429.80 1.642
429.90 1.638
430.00 1.633
430.10 1.628
430.20 1.623
430.30 1.618
430.40 1.613
430.50 1.608
430.60 1.603
430.70 1.598
430.80 1.592
430.90 1.587
431.00 1.581
431.10 1.575
431.20 1.57
431.30 1.564
431.40 1.558
431.50 1.552
431.60 1.546
431.70 1.539
431.80 1.533
431.90 1.527
432.00 1.52
432.10 1.514
432.20 1.507
432.30 1.5
432.40 1.494
432.50 1.487
432.60 1.48
432.70 1.473
432.80 1.466
432.90 1.459
433.00 1.452
433.10 1.445
433.20 1.437
433.30 1.43
433.40 1.423
433.50 1.415
433.60 1.408
433.70 1.399
433.80 1.39
433.90 1.38
434.00 1.371
434.10 1.37
434.20 1.378
434.30 1.386
434.40 1.393
434.50 1.399
434.60 1.404
434.70 1.409
434.80 1.414
434.90 1.419
435.00 1.424
435.10 1.429
435.20 1.433
435.30 1.438
435.40 1.443
435.50 1.447
435.60 1.452
435.70 1.456
435.80 1.46
435.90 1.465
436.00 1.469
436.10 1.473
436.20 1.477
436.30 1.48
436.40 1.484
436.50 1.488
436.60 1.491
436.70 1.495
436.80 1.498
436.90 1.501
437.00 1.504
437.10 1.507
437.20 1.51
437.30 1.513
437.40 1.516
437.50 1.518
437.60 1.521
437.70 1.523
437.80 1.525
437.90 1.528
438.00 1.53
438.10 1.532
438.20 1.534
438.30 1.536
438.40 1.537
438.50 1.539
438.60 1.541
438.70 1.542
438.80 1.544
438.90 1.545
439.00 1.546
439.10 1.548
439.20 1.549
439.30 1.55
439.40 1.551
439.50 1.552
439.60 1.553
439.70 1.554
439.80 1.555
439.90 1.555
440.00 1.556
440.10 1.557
440.20 1.557
440.30 1.558
440.40 1.558
440.50 1.559
440.60 1.559
440.70 1.559
440.80 1.56
440.90 1.56
441.00 1.56
441.10 1.56
441.20 1.56
441.30 1.56
441.40 1.56
441.50 1.56
441.60 1.56
441.70 1.56
441.80 1.56
441.90 1.56
442.00 1.56
442.10 1.56
442.20 1.56
442.30 1.559
442.40 1.559
442.50 1.559
442.60 1.558
442.70 1.558
442.80 1.558
442.90 1.557
443.00 1.557
443.10 1.556
443.20 1.556
443.30 1.555
443.40 1.555
443.50 1.554
443.60 1.554
443.70 1.553
443.80 1.553
443.90 1.552
444.00 1.551
444.10 1.551
444.20 1.55
444.30 1.549
444.40 1.549
444.50 1.548
444.60 1.547
444.70 1.546
444.80 1.546
444.90 1.545
445.00 1.544
445.10 1.543
445.20 1.542
445.30 1.542
445.40 1.541
445.50 1.54
445.60 1.539
445.70 1.538
445.80 1.537
445.90 1.536
446.00 1.536
446.10 1.535
446.20 1.534
446.30 1.533
446.40 1.532
446.50 1.531
446.60 1.53
446.70 1.529
446.80 1.528
446.90 1.527
447.00 1.526
447.10 1.525
447.20 1.524
447.30 1.523
447.40 1.522
447.50 1.521
447.60 1.52
447.70 1.519
447.80 1.518
447.90 1.517
448.00 1.516
448.10 1.515
448.20 1.514
448.30 1.513
448.40 1.512
448.50 1.511
448.60 1.51
448.70 1.509
448.80 1.508
448.90 1.507
449.00 1.506
449.10 1.505
449.20 1.503
449.30 1.502
449.40 1.501
449.50 1.5
449.60 1.499
449.70 1.498
449.80 1.497
449.90 1.496
450.00 1.495
450.10 1.494
450.20 1.493
450.30 1.491
450.40 1.49
450.50 1.489
450.60 1.488
450.70 1.487
450.80 1.486
450.90 1.485
451.00 1.484
451.10 1.482
451.20 1.481
451.30 1.48
451.40 1.479
451.50 1.478
451.60 1.477
451.70 1.476
451.80 1.475
451.90 1.473
452.00 1.472
452.10 1.471
452.20 1.47
452.30 1.469
452.40 1.468
452.50 1.467
452.60 1.465
452.70 1.464
452.80 1.463
452.90 1.462
453.00 1.461
453.10 1.46
453.20 1.459
453.30 1.457
453.40 1.456
453.50 1.455
453.60 1.454
453.70 1.453
453.80 1.452
453.90 1.45
454.00 1.449
454.10 1.448
454.20 1.447
454.30 1.446
454.40 1.445
454.50 1.444
454.60 1.442
454.70 1.441
454.80 1.44
454.90 1.439
455.00 1.438
455.10 1.437
455.20 1.435
455.30 1.434
455.40 1.433
455.50 1.432
455.60 1.431
455.70 1.43
455.80 1.429
455.90 1.427
456.00 1.426
456.10 1.425
456.20 1.424
456.30 1.423
456.40 1.422
456.50 1.42
456.60 1.419
456.70 1.418
456.80 1.417
456.90 1.416
457.00 1.415
457.10 1.414
457.20 1.412
457.30 1.411
457.40 1.41
457.50 1.409
457.60 1.408
457.70 1.407
457.80 1.405
457.90 1.404
458.00 1.403
458.10 1.402
458.20 1.401
458.30 1.4
458.40 1.399
458.50 1.397
458.60 1.396
458.70 1.395
458.80 1.394
458.90 1.393
459.00 1.392
459.10 1.39
459.20 1.389
459.30 1.388
459.40 1.387
459.50 1.386
459.60 1.385
459.70 1.384
459.80 1.382
459.90 1.381
460.00 1.38
460.10 1.379
460.20 1.378
460.30 1.377
460.40 1.376
460.50 1.374
460.60 1.373
460.70 1.372
460.80 1.371
460.90 1.37
461.00 1.369
461.10 1.368
461.20 1.366
461.30 1.365
461.40 1.364
461.50 1.363
461.60 1.362
461.70 1.361
461.80 1.359
461.90 1.358
462.00 1.357
462.10 1.356
462.20 1.355
462.30 1.354
462.40 1.353
462.50 1.351
462.60 1.35
462.70 1.349
462.80 1.348
462.90 1.347
463.00 1.346
463.10 1.345
463.20 1.343
463.30 1.342
463.40 1.341
463.50 1.34
463.60 1.339
463.70 1.338
463.80 1.337
463.90 1.335
464.00 1.334
464.10 1.333
464.20 1.332
464.30 1.331
464.40 1.33
464.50 1.329
464.60 1.328
464.70 1.326
464.80 1.325
464.90 1.324
465.00 1.323
465.10 1.322
465.20 1.321
465.30 1.32
465.40 1.318
465.50 1.317
465.60 1.316
465.70 1.315
465.80 1.314
465.90 1.313
466.00 1.312
466.10 1.31
466.20 1.309
466.30 1.308
466.40 1.307
466.50 1.306
466.60 1.305
466.70 1.303
466.80 1.302
466.90 1.301
467.00 1.3
467.10 1.299
467.20 1.298
467.30 1.297
467.40 1.295
467.50 1.294
467.60 1.293
467.70 1.292
467.80 1.291
467.90 1.29
468.00 1.289
468.10 1.287
468.20 1.286
468.30 1.285
468.40 1.284
468.50 1.283
468.60 1.282
468.70 1.28
468.80 1.279
468.90 1.278
469.00 1.277
469.10 1.276
469.20 1.275
469.30 1.273
469.40 1.272
469.50 1.271
469.60 1.27
469.70 1.269
469.80 1.267
469.90 1.266
470.00 1.265
470.10 1.264
470.20 1.263
470.30 1.262
470.40 1.26
470.50 1.259
470.60 1.258
470.70 1.257
470.80 1.256
470.90 1.254
471.00 1.253
471.10 1.252
471.20 1.251
471.30 1.25
471.40 1.248
471.50 1.247
471.60 1.246
471.70 1.245
471.80 1.243
471.90 1.242
472.00 1.241
472.10 1.24
472.20 1.238
472.30 1.237
472.40 1.236
472.50 1.235
472.60 1.233
472.70 1.232
472.80 1.231
472.90 1.23
473.00 1.228
473.10 1.227
473.20 1.226
473.30 1.225
473.40 1.223
473.50 1.222
473.60 1.221
473.70 1.219
473.80 1.218
473.90 1.217
474.00 1.215
474.10 1.214
474.20 1.213
474.30 1.211
474.40 1.21
474.50 1.209
474.60 1.207
474.70 1.206
474.80 1.204
474.90 1.203
475.00 1.202
475.10 1.2
475.20 1.199
475.30 1.197
475.40 1.196
475.50 1.194
475.60 1.193
475.70 1.192
475.80 1.19
475.90 1.189
476.00 1.187
476.10 1.186
476.20 1.184
476.30 1.183
476.40 1.181
476.50 1.179
476.60 1.178
476.70 1.176
476.80 1.175
476.90 1.173
477.00 1.171
477.10 1.17
477.20 1.168
477.30 1.166
477.40 1.165
477.50 1.163
477.60 1.161
477.70 1.16
477.80 1.158
477.90 1.156
478.00 1.154
478.10 1.153
478.20 1.151
478.30 1.149
478.40 1.147
478.50 1.145
478.60 1.143
478.70 1.141
478.80 1.139
478.90 1.137
479.00 1.135
479.10 1.133
479.20 1.131
479.30 1.129
479.40 1.127
479.50 1.124
479.60 1.122
479.70 1.12
479.80 1.118
479.90 1.116
480.00 1.113
480.10 1.111
480.20 1.109
480.30 1.106
480.40 1.104
480.50 1.101
480.60 1.098
480.70 1.096
480.80 1.093
480.90 1.091
481.00 1.088
481.10 1.086
481.20 1.083
481.30 1.08
481.40 1.077
481.50 1.074
481.60 1.07
481.70 1.067
481.80 1.064
481.90 1.061
482.00 1.058
482.10 1.055
482.20 1.052
482.30 1.048
482.40 1.045
482.50 1.041
482.60 1.037
482.70 1.034
482.80 1.03
482.90 1.026
483.00 1.023
483.10 1.019
483.20 1.015
483.30 1.011
483.40 1.006
483.50 1.002
483.60 0.9977
483.70 0.9933
483.80 0.989
483.90 0.9846
484.00 0.9803
484.10 0.976
484.20 0.9712
484.30 0.9662
484.40 0.9613
484.50 0.9563
484.60 0.9514
484.70 0.9461
484.80 0.9408
484.90 0.9354
485.00 0.9301
485.10 0.9247
485.20 0.9192
485.30 0.9136
485.40 0.908
485.50 0.9024
485.60 0.897
485.70 0.8917
485.80 0.8876
485.90 0.884
486.00 0.8844
486.10 0.898
486.20 0.8909
486.30 0.881
486.40 0.882
486.50 0.8842
486.60 0.8876
486.70 0.8917
486.80 0.8958
486.90 0.9001
487.00 0.9043
487.10 0.9085
487.20 0.9125
487.30 0.9165
487.40 0.9204
487.50 0.9244
487.60 0.9283
487.70 0.932
487.80 0.9354
487.90 0.9389
488.00 0.9424
488.10 0.9458
488.20 0.9489
488.30 0.9516
488.40 0.9544
488.50 0.9572
488.60 0.96
488.70 0.9628
488.80 0.9656
488.90 0.9683
489.00 0.9711
489.10 0.9739
489.20 0.9761
489.30 0.9781
489.40 0.9801
489.50 0.982
489.60 0.984
489.70 0.986
489.80 0.9879
489.90 0.9899
490.00 0.9919
490.10 0.9938
490.20 0.9953
490.30 0.9967
490.40 0.998
490.50 0.9993
490.60 1.001
490.70 1.002
490.80 1.003
490.90 1.005
491.00 1.006
491.10 1.007
491.20 1.008
491.30 1.009
491.40 1.01
491.50 1.011
491.60 1.011
491.70 1.012
491.80 1.013
491.90 1.014
492.00 1.015
492.10 1.015
492.20 1.016
492.30 1.016
492.40 1.017
492.50 1.017
492.60 1.018
492.70 1.018
492.80 1.019
492.90 1.019
493.00 1.019
493.10 1.02
493.20 1.02
493.30 1.02
493.40 1.02
493.50 1.02
493.60 1.021
493.70 1.021
493.80 1.021
493.90 1.021
494.00 1.021
494.10 1.021
494.20 1.021
494.30 1.021
494.40 1.021
494.50 1.021
494.60 1.021
494.70 1.021
494.80 1.021
494.90 1.021
495.00 1.021
495.10 1.02
495.20 1.02
495.30 1.02
495.40 1.02
495.50 1.02
495.60 1.019
495.70 1.019
495.80 1.019
495.90 1.019
496.00 1.018
496.10 1.018
496.20 1.018
496.30 1.017
496.40 1.017
496.50 1.017
496.60 1.016
496.70 1.016
496.80 1.016
496.90 1.015
497.00 1.015
497.10 1.015
497.20 1.014
497.30 1.014
497.40 1.013
497.50 1.013
497.60 1.012
497.70 1.012
497.80 1.011
497.90 1.011
498.00 1.011
498.10 1.01
498.20 1.01
498.30 1.009
498.40 1.009
498.50 1.008
498.60 1.008
498.70 1.007
498.80 1.007
498.90 1.006
499.00 1.006
499.10 1.005
499.20 1.004
499.30 1.004
499.40 1.003
499.50 1.003
499.60 1.002
499.70 1.002
499.80 1.001
499.90 1.001
500.00 1
500.10 0.9994
500.20 0.9989
500.30 0.9983
500.40 0.9977
500.50 0.9971
500.60 0.9965
500.70 0.9959
500.80 0.9953
500.90 0.9947
501.00 0.9941
501.10 0.9935
501.20 0.9929
501.30 0.9923
501.40 0.9917
501.50 0.9911
501.60 0.9905
501.70 0.9898
501.80 0.9892
501.90 0.9886
502.00 0.988
502.10 0.9874
502.20 0.9867
502.30 0.9861
502.40 0.9855
502.50 0.9848
502.60 0.9842
502.70 0.9836
502.80 0.9829
502.90 0.9823
503.00 0.9817
503.10 0.981
503.20 0.9804
503.30 0.9797
503.40 0.9791
503.50 0.9784
503.60 0.9778
503.70 0.9771
503.80 0.9765
503.90 0.9758
504.00 0.9752
504.10 0.9745
504.20 0.9739
504.30 0.9732
504.40 0.9726
504.50 0.9719
504.60 0.9712
504.70 0.9706
504.80 0.9699
504.90 0.9693
505.00 0.9686
505.10 0.968
505.20 0.9673
505.30 0.9666
505.40 0.966
505.50 0.9653
505.60 0.9646
505.70 0.964
505.80 0.9633
505.90 0.9626
506.00 0.962
506.10 0.9613
506.20 0.9607
506.30 0.96
506.40 0.9593
506.50 0.9587
506.60 0.958
506.70 0.9573
506.80 0.9566
506.90 0.956
507.00 0.9553
507.10 0.9547
507.20 0.954
507.30 0.9533
507.40 0.9526
507.50 0.952
507.60 0.9513
507.70 0.9506
507.80 0.95
507.90 0.9493
508.00 0.9486
508.10 0.948
508.20 0.9473
508.30 0.9466
508.40 0.9459
508.50 0.9453
508.60 0.9446
508.70 0.9439
508.80 0.9433
508.90 0.9426
509.00 0.9419
509.10 0.9413
509.20 0.9406
509.30 0.9399
509.40 0.9393
509.50 0.9386
509.60 0.9379
509.70 0.9372
509.80 0.9366
509.90 0.9359
510.00 0.9352
510.10 0.9346
510.20 0.9339
510.30 0.9332
510.40 0.9326
510.50 0.9319
510.60 0.9312
510.70 0.9306
510.80 0.9299
510.90 0.9292
511.00 0.9286
511.10 0.9279
511.20 0.9272
511.30 0.9266
511.40 0.9259
511.50 0.9253
511.60 0.9246
511.70 0.9239
511.80 0.9233
511.90 0.9226
512.00 0.9219
512.10 0.9213
512.20 0.9206
512.30 0.9199
512.40 0.9193
512.50 0.9186
512.60 0.918
512.70 0.9173
512.80 0.9166
512.90 0.916
513.00 0.9153
513.10 0.9147
513.20 0.914
513.30 0.9133
513.40 0.9127
513.50 0.912
513.60 0.9114
513.70 0.9107
513.80 0.9101
513.90 0.9094
514.00 0.9087
514.10 0.9081
514.20 0.9074
514.30 0.9068
514.40 0.9061
514.50 0.9055
514.60 0.9048
514.70 0.9042
514.80 0.9035
514.90 0.9028
515.00 0.9022
515.10 0.9015
515.20 0.9009
515.30 0.9002
515.40 0.8996
515.50 0.8989
515.60 0.8983
515.70 0.8976
515.80 0.897
515.90 0.8963
516.00 0.8957
516.10 0.895
516.20 0.8944
516.30 0.8938
516.40 0.8931
516.50 0.8925
516.60 0.8918
516.70 0.8912
516.80 0.8905
516.90 0.8899
517.00 0.8892
517.10 0.8886
517.20 0.8879
517.30 0.8873
517.40 0.8867
517.50 0.886
517.60 0.8854
517.70 0.8847
517.80 0.8841
517.90 0.8835
518.00 0.8828
518.10 0.8822
518.20 0.8815
518.30 0.8809
518.40 0.8803
518.50 0.8796
518.60 0.879
518.70 0.8784
518.80 0.8777
518.90 0.8771
519.00 0.8765
519.10 0.8758
519.20 0.8752
519.30 0.8746
519.40 0.8739
519.50 0.8733
519.60 0.8727
519.70 0.872
519.80 0.8714
519.90 0.8708
520.00 0.8701
520.10 0.8695
520.20 0.8689
520.30 0.8682
520.40 0.8676
520.50 0.867
520.60 0.8664
520.70 0.8657
520.80 0.8651
520.90 0.8645
521.00 0.8639
521.10 0.8632
521.20 0.8626
521.30 0.862
521.40 0.8614
521.50 0.8607
521.60 0.8601
521.70 0.8595
521.80 0.8589
521.90 0.8583
522.00 0.8576
522.10 0.857
522.20 0.8564
522.30 0.8558
522.40 0.8552
522.50 0.8546
522.60 0.8539
522.70 0.8533
522.80 0.8527
522.90 0.8521
523.00 0.8515
523.10 0.8509
523.20 0.8502
523.30 0.8496
523.40 0.849
523.50 0.8484
523.60 0.8478
523.70 0.8472
523.80 0.8466
523.90 0.846
524.00 0.8454
524.10 0.8447
524.20 0.8441
524.30 0.8435
524.40 0.8429
524.50 0.8423
524.60 0.8417
524.70 0.8411
524.80 0.8405
524.90 0.8399
525.00 0.8393
525.10 0.8387
525.20 0.8381
525.30 0.8375
525.40 0.8369
525.50 0.8363
525.60 0.8357
525.70 0.8351
525.80 0.8345
525.90 0.8339
526.00 0.8333
526.10 0.8327
526.20 0.8321
526.30 0.8315
526.40 0.8309
526.50 0.8303
526.60 0.8297
526.70 0.8291
526.80 0.8285
526.90 0.8279
527.00 0.8273
527.10 0.8267
527.20 0.8261
527.30 0.8255
527.40 0.8249
527.50 0.8243
527.60 0.8237
527.70 0.8231
527.80 0.8225
527.90 0.822
528.00 0.8214
528.10 0.8208
528.20 0.8202
528.30 0.8196
528.40 0.819
528.50 0.8184
528.60 0.8178
528.70 0.8173
528.80 0.8167
528.90 0.8161
529.00 0.8155
529.10 0.8149
529.20 0.8143
529.30 0.8137
529.40 0.8132
529.50 0.8126
529.60 0.812
529.70 0.8114
529.80 0.8108
529.90 0.8103
530.00 0.8097
530.10 0.8091
530.20 0.8085
530.30 0.8079
530.40 0.8074
530.50 0.8068
530.60 0.8062
530.70 0.8056
530.80 0.8051
530.90 0.8045
531.00 0.8039
531.10 0.8033
531.20 0.8028
531.30 0.8022
531.40 0.8016
531.50 0.801
531.60 0.8005
531.70 0.7999
531.80 0.7993
531.90 0.7987
532.00 0.7982
532.10 0.7976
532.20 0.797
532.30 0.7965
532.40 0.7959
532.50 0.7953
532.60 0.7948
532.70 0.7942
532.80 0.7936
532.90 0.7931
533.00 0.7925
533.10 0.7919
533.20 0.7914
533.30 0.7908
533.40 0.7902
533.50 0.7897
533.60 0.7891
533.70 0.7886
533.80 0.788
533.90 0.7874
534.00 0.7869
534.10 0.7863
534.20 0.7858
534.30 0.7852
534.40 0.7846
534.50 0.7841
534.60 0.7835
534.70 0.783
534.80 0.7824
534.90 0.7819
535.00 0.7813
535.10 0.7807
535.20 0.7802
535.30 0.7796
535.40 0.7791
535.50 0.7785
535.60 0.778
535.70 0.7774
535.80 0.7769
535.90 0.7763
536.00 0.7758
536.10 0.7752
536.20 0.7747
536.30 0.7741
536.40 0.7736
536.50 0.773
536.60 0.7725
536.70 0.7719
536.80 0.7714
536.90 0.7708
537.00 0.7703
537.10 0.7697
537.20 0.7692
537.30 0.7687
537.40 0.7681
537.50 0.7676
537.60 0.767
537.70 0.7665
537.80 0.7659
537.90 0.7654
538.00 0.7649
538.10 0.7643
538.20 0.7638
538.30 0.7632
538.40 0.7627
538.50 0.7622
538.60 0.7616
538.70 0.7611
538.80 0.7605
538.90 0.76
539.00 0.7595
539.10 0.7589
539.20 0.7584
539.30 0.7579
539.40 0.7573
539.50 0.7568
539.60 0.7563
539.70 0.7557
539.80 0.7552
539.90 0.7547
540.00 0.7541
540.10 0.7536
540.20 0.7531
540.30 0.7525
540.40 0.752
540.50 0.7515
540.60 0.7509
540.70 0.7504
540.80 0.7499
540.90 0.7494
541.00 0.7488
541.10 0.7483
541.20 0.7478
541.30 0.7473
541.40 0.7467
541.50 0.7462
541.60 0.7457
541.70 0.7452
541.80 0.7446
541.90 0.7441
542.00 0.7436
542.10 0.7431
542.20 0.7425
542.30 0.742
542.40 0.7415
542.50 0.741
542.60 0.7405
542.70 0.7399
542.80 0.7394
542.90 0.7389
543.00 0.7384
543.10 0.7379
543.20 0.7373
543.30 0.7368
543.40 0.7363
543.50 0.7358
543.60 0.7353
543.70 0.7348
543.80 0.7342
543.90 0.7337
544.00 0.7332
544.10 0.7327
544.20 0.7322
544.30 0.7317
544.40 0.7312
544.50 0.7307
544.60 0.7301
544.70 0.7296
544.80 0.7291
544.90 0.7286
545.00 0.7281
545.10 0.7276
545.20 0.7271
545.30 0.7266
545.40 0.7261
545.50 0.7256
545.60 0.7251
545.70 0.7246
545.80 0.724
545.90 0.7235
546.00 0.723
546.10 0.7225
546.20 0.722
546.30 0.7215
546.40 0.721
546.50 0.7205
546.60 0.72
546.70 0.7195
546.80 0.719
546.90 0.7185
547.00 0.718
547.10 0.7175
547.20 0.717
547.30 0.7165
547.40 0.716
547.50 0.7155
547.60 0.715
547.70 0.7145
547.80 0.714
547.90 0.7135
548.00 0.713
548.10 0.7125
548.20 0.712
548.30 0.7115
548.40 0.711
548.50 0.7105
548.60 0.7101
548.70 0.7096
548.80 0.7091
548.90 0.7086
549.00 0.7081
549.10 0.7076
549.20 0.7071
549.30 0.7066
549.40 0.7061
549.50 0.7056
549.60 0.7051
549.70 0.7046
549.80 0.7042
549.90 0.7037
550.00 0.7032
550.10 0.7027
550.20 0.7022
550.30 0.7017
550.40 0.7012
550.50 0.7007
550.60 0.7003
550.70 0.6998
550.80 0.6993
550.90 0.6988
551.00 0.6983
551.10 0.6978
551.20 0.6974
551.30 0.6969
551.40 0.6964
551.50 0.6959
551.60 0.6954
551.70 0.6949
551.80 0.6945
551.90 0.694
552.00 0.6935
552.10 0.693
552.20 0.6925
552.30 0.6921
552.40 0.6916
552.50 0.6911
552.60 0.6906
552.70 0.6902
552.80 0.6897
552.90 0.6892
553.00 0.6887
553.10 0.6883
553.20 0.6878
553.30 0.6873
553.40 0.6868
553.50 0.6864
553.60 0.6859
553.70 0.6854
553.80 0.6849
553.90 0.6845
554.00 0.684
554.10 0.6835
554.20 0.6831
554.30 0.6826
554.40 0.6821
554.50 0.6816
554.60 0.6812
554.70 0.6807
554.80 0.6802
554.90 0.6798
555.00 0.6793
555.10 0.6788
555.20 0.6784
555.30 0.6779
555.40 0.6774
555.50 0.677
555.60 0.6765
555.70 0.676
555.80 0.6756
555.90 0.6751
556.00 0.6747
556.10 0.6742
556.20 0.6737
556.30 0.6733
556.40 0.6728
556.50 0.6723
556.60 0.6719
556.70 0.6714
556.80 0.671
556.90 0.6705
557.00 0.67
557.10 0.6696
557.20 0.6691
557.30 0.6687
557.40 0.6682
557.50 0.6677
557.60 0.6673
557.70 0.6668
557.80 0.6664
557.90 0.6659
558.00 0.6655
558.10 0.665
558.20 0.6646
558.30 0.6641
558.40 0.6636
558.50 0.6632
558.60 0.6627
558.70 0.6623
558.80 0.6618
558.90 0.6614
559.00 0.6609
559.10 0.6605
559.20 0.66
559.30 0.6596
559.40 0.6591
559.50 0.6587
559.60 0.6582
559.70 0.6578
559.80 0.6573
559.90 0.6569
560.00 0.6564
560.10 0.656
560.20 0.6555
560.30 0.6551
560.40 0.6546
560.50 0.6542
560.60 0.6537
560.70 0.6533
560.80 0.6529
560.90 0.6524
561.00 0.652
561.10 0.6515
561.20 0.6511
561.30 0.6506
561.40 0.6502
561.50 0.6498
561.60 0.6493
561.70 0.6489
561.80 0.6484
561.90 0.648
562.00 0.6475
562.10 0.6471
562.20 0.6467
562.30 0.6462
562.40 0.6458
562.50 0.6454
562.60 0.6449
562.70 0.6445
562.80 0.644
562.90 0.6436
563.00 0.6432
563.10 0.6427
563.20 0.6423
563.30 0.6419
563.40 0.6414
563.50 0.641
563.60 0.6405
563.70 0.6401
563.80 0.6397
563.90 0.6392
564.00 0.6388
564.10 0.6384
564.20 0.6379
564.30 0.6375
564.40 0.6371
564.50 0.6367
564.60 0.6362
564.70 0.6358
564.80 0.6354
564.90 0.6349
565.00 0.6345
565.10 0.6341
565.20 0.6336
565.30 0.6332
565.40 0.6328
565.50 0.6324
565.60 0.6319
565.70 0.6315
565.80 0.6311
565.90 0.6307
566.00 0.6302
566.10 0.6298
566.20 0.6294
566.30 0.629
566.40 0.6285
566.50 0.6281
566.60 0.6277
566.70 0.6273
566.80 0.6268
566.90 0.6264
567.00 0.626
567.10 0.6256
567.20 0.6251
567.30 0.6247
567.40 0.6243
567.50 0.6239
567.60 0.6235
567.70 0.623
567.80 0.6226
567.90 0.6222
568.00 0.6218
568.10 0.6214
568.20 0.6209
568.30 0.6205
568.40 0.6201
568.50 0.6197
568.60 0.6193
568.70 0.6189
568.80 0.6184
568.90 0.618
569.00 0.6176
569.10 0.6172
569.20 0.6168
569.30 0.6164
569.40 0.616
569.50 0.6155
569.60 0.6151
569.70 0.6147
569.80 0.6143
569.90 0.6139
570.00 0.6135
570.10 0.6131
570.20 0.6127
570.30 0.6122
570.40 0.6118
570.50 0.6114
570.60 0.611
570.70 0.6106
570.80 0.6102
570.90 0.6098
571.00 0.6094
571.10 0.609
571.20 0.6086
571.30 0.6082
571.40 0.6077
571.50 0.6073
571.60 0.6069
571.70 0.6065
571.80 0.6061
571.90 0.6057
572.00 0.6053
572.10 0.6049
572.20 0.6045
572.30 0.6041
572.40 0.6037
572.50 0.6033
572.60 0.6029
572.70 0.6025
572.80 0.6021
572.90 0.6017
573.00 0.6013
573.10 0.6009
573.20 0.6005
573.30 0.6001
573.40 0.5997
573.50 0.5993
573.60 0.5989
573.70 0.5985
573.80 0.5981
573.90 0.5977
574.00 0.5973
574.10 0.5969
574.20 0.5965
574.30 0.5961
574.40 0.5957
574.50 0.5953
574.60 0.5949
574.70 0.5945
574.80 0.5941
574.90 0.5937
575.00 0.5933
575.10 0.5929
575.20 0.5925
575.30 0.5921
575.40 0.5917
575.50 0.5913
575.60 0.591
575.70 0.5906
575.80 0.5902
575.90 0.5898
576.00 0.5894
576.10 0.589
576.20 0.5886
576.30 0.5882
576.40 0.5878
576.50 0.5874
576.60 0.587
576.70 0.5866
576.80 0.5863
576.90 0.5859
577.00 0.5855
577.10 0.5851
577.20 0.5847
577.30 0.5843
577.40 0.5839
577.50 0.5835
577.60 0.5832
577.70 0.5828
577.80 0.5824
577.90 0.582
578.00 0.5816
578.10 0.5812
578.20 0.5808
578.30 0.5805
578.40 0.5801
578.50 0.5797
578.60 0.5793
578.70 0.5789
578.80 0.5785
578.90 0.5782
579.00 0.5778
579.10 0.5774
579.20 0.577
579.30 0.5766
579.40 0.5762
579.50 0.5759
579.60 0.5755
579.70 0.5751
579.80 0.5747
579.90 0.5743
580.00 0.574
580.10 0.5736
580.20 0.5732
580.30 0.5728
580.40 0.5725
580.50 0.5721
580.60 0.5717
580.70 0.5713
580.80 0.5709
580.90 0.5706
581.00 0.5702
581.10 0.5698
581.20 0.5694
581.30 0.5691
581.40 0.5687
581.50 0.5683
581.60 0.5679
581.70 0.5676
581.80 0.5672
581.90 0.5668
582.00 0.5664
582.10 0.5661
582.20 0.5657
582.30 0.5653
582.40 0.565
582.50 0.5646
582.60 0.5642
582.70 0.5638
582.80 0.5635
582.90 0.5631
583.00 0.5627
583.10 0.5624
583.20 0.562
583.30 0.5616
583.40 0.5613
583.50 0.5609
583.60 0.5605
583.70 0.5602
583.80 0.5598
583.90 0.5594
584.00 0.5591
584.10 0.5587
584.20 0.5583
584.30 0.558
584.40 0.5576
584.50 0.5572
584.60 0.5569
584.70 0.5565
584.80 0.5561
584.90 0.5558
585.00 0.5554
585.10 0.555
585.20 0.5547
585.30 0.5543
585.40 0.5539
585.50 0.5536
585.60 0.5532
585.70 0.5529
585.80 0.5525
585.90 0.5521
586.00 0.5518
586.10 0.5514
586.20 0.5511
586.30 0.5507
586.40 0.5503
586.50 0.55
586.60 0.5496
586.70 0.5493
586.80 0.5489
586.90 0.5485
587.00 0.5482
587.10 0.5478
587.20 0.5475
587.30 0.5471
587.40 0.5468
587.50 0.5464
587.60 0.546
587.70 0.5457
587.80 0.5453
587.90 0.545
588.00 0.5446
588.10 0.5443
588.20 0.5439
588.30 0.5436
588.40 0.5432
588.50 0.5428
588.60 0.5425
588.70 0.5421
588.80 0.5418
588.90 0.5414
589.00 0.5411
589.10 0.5407
589.20 0.5404
589.30 0.54
589.40 0.5397
589.50 0.5393
589.60 0.539
589.70 0.5386
589.80 0.5383
589.90 0.5379
590.00 0.5376
590.10 0.5372
590.20 0.5369
590.30 0.5365
590.40 0.5362
590.50 0.5358
590.60 0.5355
590.70 0.5351
590.80 0.5348
590.90 0.5344
591.00 0.5341
591.10 0.5337
591.20 0.5334
591.30 0.533
591.40 0.5327
591.50 0.5324
591.60 0.532
591.70 0.5317
591.80 0.5313
591.90 0.531
592.00 0.5306
592.10 0.5303
592.20 0.5299
592.30 0.5296
592.40 0.5293
592.50 0.5289
592.60 0.5286
592.70 0.5282
592.80 0.5279
592.90 0.5276
593.00 0.5272
593.10 0.5269
593.20 0.5265
593.30 0.5262
593.40 0.5258
593.50 0.5255
593.60 0.5252
593.70 0.5248
593.80 0.5245
593.90 0.5241
594.00 0.5238
594.10 0.5235
594.20 0.5231
594.30 0.5228
594.40 0.5225
594.50 0.5221
594.60 0.5218
594.70 0.5214
594.80 0.5211
594.90 0.5208
595.00 0.5204
595.10 0.5201
595.20 0.5198
595.30 0.5194
595.40 0.5191
595.50 0.5188
595.60 0.5184
595.70 0.5181
595.80 0.5178
595.90 0.5174
596.00 0.5171
596.10 0.5168
596.20 0.5164
596.30 0.5161
596.40 0.5158
596.50 0.5154
596.60 0.5151
596.70 0.5148
596.80 0.5144
596.90 0.5141
597.00 0.5138
597.10 0.5134
597.20 0.5131
597.30 0.5128
597.40 0.5125
597.50 0.5121
597.60 0.5118
597.70 0.5115
597.80 0.5111
597.90 0.5108
598.00 0.5105
598.10 0.5102
598.20 0.5098
598.30 0.5095
598.40 0.5092
598.50 0.5088
598.60 0.5085
598.70 0.5082
598.80 0.5079
598.90 0.5075
599.00 0.5072
599.10 0.5069
599.20 0.5066
599.30 0.5062
599.40 0.5059
599.50 0.5056
599.60 0.5053
599.70 0.5049
599.80 0.5046
599.90 0.5043
600.00 0.504
600.10 0.5037
600.20 0.5033
600.30 0.503
600.40 0.5027
600.50 0.5024
600.60 0.502
600.70 0.5017
600.80 0.5014
600.90 0.5011
601.00 0.5008
601.10 0.5004
601.20 0.5001
601.30 0.4998
601.40 0.4995
601.50 0.4992
601.60 0.4988
601.70 0.4985
601.80 0.4982
601.90 0.4979
602.00 0.4976
602.10 0.4973
602.20 0.4969
602.30 0.4966
602.40 0.4963
602.50 0.496
602.60 0.4957
602.70 0.4954
602.80 0.495
602.90 0.4947
603.00 0.4944
603.10 0.4941
603.20 0.4938
603.30 0.4935
603.40 0.4931
603.50 0.4928
603.60 0.4925
603.70 0.4922
603.80 0.4919
603.90 0.4916
604.00 0.4913
604.10 0.491
604.20 0.4906
604.30 0.4903
604.40 0.49
604.50 0.4897
604.60 0.4894
604.70 0.4891
604.80 0.4888
604.90 0.4885
605.00 0.4881
605.10 0.4878
605.20 0.4875
605.30 0.4872
605.40 0.4869
605.50 0.4866
605.60 0.4863
605.70 0.486
605.80 0.4857
605.90 0.4854
606.00 0.4851
606.10 0.4847
606.20 0.4844
606.30 0.4841
606.40 0.4838
606.50 0.4835
606.60 0.4832
606.70 0.4829
606.80 0.4826
606.90 0.4823
607.00 0.482
607.10 0.4817
607.20 0.4814
607.30 0.4811
607.40 0.4808
607.50 0.4805
607.60 0.4802
607.70 0.4798
607.80 0.4795
607.90 0.4792
608.00 0.4789
608.10 0.4786
608.20 0.4783
608.30 0.478
608.40 0.4777
608.50 0.4774
608.60 0.4771
608.70 0.4768
608.80 0.4765
608.90 0.4762
609.00 0.4759
609.10 0.4756
609.20 0.4753
609.30 0.475
609.40 0.4747
609.50 0.4744
609.60 0.4741
609.70 0.4738
609.80 0.4735
609.90 0.4732
610.00 0.4729
610.10 0.4726
610.20 0.4723
610.30 0.472
610.40 0.4717
610.50 0.4714
610.60 0.4711
610.70 0.4708
610.80 0.4705
610.90 0.4702
611.00 0.4699
611.10 0.4696
611.20 0.4693
611.30 0.469
611.40 0.4687
611.50 0.4685
611.60 0.4682
611.70 0.4679
611.80 0.4676
611.90 0.4673
612.00 0.467
612.10 0.4667
612.20 0.4664
612.30 0.4661
612.40 0.4658
612.50 0.4655
612.60 0.4652
612.70 0.4649
612.80 0.4646
612.90 0.4643
613.00 0.464
613.10 0.4638
613.20 0.4635
613.30 0.4632
613.40 0.4629
613.50 0.4626
613.60 0.4623
613.70 0.462
613.80 0.4617
613.90 0.4614
614.00 0.4611
614.10 0.4608
614.20 0.4605
614.30 0.4603
614.40 0.46
614.50 0.4597
614.60 0.4594
614.70 0.4591
614.80 0.4588
614.90 0.4585
615.00 0.4582
615.10 0.4579
615.20 0.4577
615.30 0.4574
615.40 0.4571
615.50 0.4568
615.60 0.4565
615.70 0.4562
615.80 0.4559
615.90 0.4557
616.00 0.4554
616.10 0.4551
616.20 0.4548
616.30 0.4545
616.40 0.4542
616.50 0.4539
616.60 0.4537
616.70 0.4534
616.80 0.4531
616.90 0.4528
617.00 0.4525
617.10 0.4522
617.20 0.4519
617.30 0.4517
617.40 0.4514
617.50 0.4511
617.60 0.4508
617.70 0.4505
617.80 0.4502
617.90 0.45
618.00 0.4497
618.10 0.4494
618.20 0.4491
618.30 0.4488
618.40 0.4486
618.50 0.4483
618.60 0.448
618.70 0.4477
618.80 0.4474
618.90 0.4472
619.00 0.4469
619.10 0.4466
619.20 0.4463
619.30 0.446
619.40 0.4458
619.50 0.4455
619.60 0.4452
619.70 0.4449
619.80 0.4446
619.90 0.4444
620.00 0.4441
620.10 0.4438
620.20 0.4435
620.30 0.4432
620.40 0.443
620.50 0.4427
620.60 0.4424
620.70 0.4421
620.80 0.4419
620.90 0.4416
621.00 0.4413
621.10 0.441
621.20 0.4408
621.30 0.4405
621.40 0.4402
621.50 0.4399
621.60 0.4396
621.70 0.4394
621.80 0.4391
621.90 0.4388
622.00 0.4385
622.10 0.4383
622.20 0.438
622.30 0.4377
622.40 0.4375
622.50 0.4372
622.60 0.4369
622.70 0.4366
622.80 0.4364
622.90 0.4361
623.00 0.4358
623.10 0.4355
623.20 0.4353
623.30 0.435
623.40 0.4347
623.50 0.4344
623.60 0.4342
623.70 0.4339
623.80 0.4336
623.90 0.4334
624.00 0.4331
624.10 0.4328
624.20 0.4325
624.30 0.4323
624.40 0.432
624.50 0.4317
624.60 0.4315
624.70 0.4312
624.80 0.4309
624.90 0.4307
625.00 0.4304
625.10 0.4301
625.20 0.4298
625.30 0.4296
625.40 0.4293
625.50 0.429
625.60 0.4288
625.70 0.4285
625.80 0.4282
625.90 0.428
626.00 0.4277
626.10 0.4274
626.20 0.4272
626.30 0.4269
626.40 0.4266
626.50 0.4264
626.60 0.4261
626.70 0.4258
626.80 0.4255
626.90 0.4253
627.00 0.425
627.10 0.4247
627.20 0.4245
627.30 0.4242
627.40 0.4239
627.50 0.4237
627.60 0.4234
627.70 0.4231
627.80 0.4229
627.90 0.4226
628.00 0.4224
628.10 0.4221
628.20 0.4218
628.30 0.4216
628.40 0.4213
628.50 0.421
628.60 0.4208
628.70 0.4205
628.80 0.4202
628.90 0.42
629.00 0.4197
629.10 0.4194
629.20 0.4192
629.30 0.4189
629.40 0.4186
629.50 0.4184
629.60 0.4181
629.70 0.4179
629.80 0.4176
629.90 0.4173
630.00 0.4171
630.10 0.4168
630.20 0.4165
630.30 0.4163
630.40 0.416
630.50 0.4157
630.60 0.4155
630.70 0.4152
630.80 0.415
630.90 0.4147
631.00 0.4144
631.10 0.4142
631.20 0.4139
631.30 0.4136
631.40 0.4134
631.50 0.4131
631.60 0.4129
631.70 0.4126
631.80 0.4123
631.90 0.4121
632.00 0.4118
632.10 0.4115
632.20 0.4113
632.30 0.411
632.40 0.4108
632.50 0.4105
632.60 0.4102
632.70 0.41
632.80 0.4097
632.90 0.4095
633.00 0.4092
633.10 0.4089
633.20 0.4087
633.30 0.4084
633.40 0.4081
633.50 0.4079
633.60 0.4076
633.70 0.4074
633.80 0.4071
633.90 0.4068
634.00 0.4066
634.10 0.4063
634.20 0.4061
634.30 0.4058
634.40 0.4055
634.50 0.4053
634.60 0.405
634.70 0.4047
634.80 0.4045
634.90 0.4042
635.00 0.404
635.10 0.4037
635.20 0.4034
635.30 0.4032
635.40 0.4029
635.50 0.4027
635.60 0.4024
635.70 0.4021
635.80 0.4019
635.90 0.4016
636.00 0.4013
636.10 0.4011
636.20 0.4008
636.30 0.4006
636.40 0.4003
636.50 0.4
636.60 0.3998
636.70 0.3995
636.80 0.3992
636.90 0.399
637.00 0.3987
637.10 0.3985
637.20 0.3982
637.30 0.3979
637.40 0.3977
637.50 0.3974
637.60 0.3971
637.70 0.3969
637.80 0.3966
637.90 0.3963
638.00 0.3961
638.10 0.3958
638.20 0.3955
638.30 0.3953
638.40 0.395
638.50 0.3947
638.60 0.3945
638.70 0.3942
638.80 0.3939
638.90 0.3937
639.00 0.3934
639.10 0.3931
639.20 0.3929
639.30 0.3926
639.40 0.3923
639.50 0.3921
639.60 0.3918
639.70 0.3915
639.80 0.3912
639.90 0.391
640.00 0.3907
640.10 0.3904
640.20 0.3902
640.30 0.3899
640.40 0.3896
640.50 0.3893
640.60 0.3891
640.70 0.3888
640.80 0.3885
640.90 0.3882
641.00 0.388
641.10 0.3877
641.20 0.3874
641.30 0.3871
641.40 0.3869
641.50 0.3866
641.60 0.3863
641.70 0.386
641.80 0.3857
641.90 0.3854
642.00 0.3852
642.10 0.3849
642.20 0.3846
642.30 0.3843
642.40 0.384
642.50 0.3837
642.60 0.3834
642.70 0.3831
642.80 0.3829
642.90 0.3826
643.00 0.3823
643.10 0.382
643.20 0.3817
643.30 0.3814
643.40 0.3811
643.50 0.3808
643.60 0.3805
643.70 0.3802
643.80 0.3799
643.90 0.3796
644.00 0.3793
644.10 0.379
644.20 0.3787
644.30 0.3784
644.40 0.3781
644.50 0.3777
644.60 0.3774
644.70 0.3771
644.80 0.3768
644.90 0.3765
645.00 0.3761
645.10 0.3758
645.20 0.3755
645.30 0.3752
645.40 0.3748
645.50 0.3745
645.60 0.3742
645.70 0.3738
645.80 0.3735
645.90 0.3732
646.00 0.3728
646.10 0.3725
646.20 0.3721
646.30 0.3718
646.40 0.3714
646.50 0.3711
646.60 0.3707
646.70 0.3703
646.80 0.37
646.90 0.3696
647.00 0.3692
647.10 0.3689
647.20 0.3685
647.30 0.3681
647.40 0.3677
647.50 0.3673
647.60 0.3669
647.70 0.3665
647.80 0.3661
647.90 0.3657
648.00 0.3653
648.10 0.3649
648.20 0.3645
648.30 0.3641
648.40 0.3636
648.50 0.3632
648.60 0.3627
648.70 0.3623
648.80 0.3618
648.90 0.3614
649.00 0.3609
649.10 0.3605
649.20 0.36
649.30 0.3595
649.40 0.359
649.50 0.3585
649.60 0.358
649.70 0.3575
649.80 0.3569
649.90 0.3564
650.00 0.3559
650.10 0.3554
650.20 0.3549
650.30 0.3543
650.40 0.3537
650.50 0.3531
650.60 0.3525
650.70 0.3519
650.80 0.3513
650.90 0.3507
651.00 0.3501
651.10 0.3495
651.20 0.3489
651.30 0.3482
651.40 0.3475
651.50 0.3468
651.60 0.3461
651.70 0.3453
651.80 0.3446
651.90 0.3439
652.00 0.3432
652.10 0.3424
652.20 0.3417
652.30 0.341
652.40 0.3401
652.50 0.3392
652.60 0.3383
652.70 0.3375
652.80 0.3366
652.90 0.3357
653.00 0.3349
653.10 0.334
653.20 0.3331
653.30 0.3322
653.40 0.3311
653.50 0.3301
653.60 0.329
653.70 0.328
653.80 0.3269
653.90 0.3259
654.00 0.3248
654.10 0.3237
654.20 0.3227
654.30 0.3216
654.40 0.3204
654.50 0.3192
654.60 0.318
654.70 0.3168
654.80 0.3155
654.90 0.3142
655.00 0.3129
655.10 0.3116
655.20 0.3103
655.30 0.309
655.40 0.3076
655.50 0.3063
655.60 0.3049
655.70 0.3036
655.80 0.3023
655.90 0.3011
656.00 0.3002
656.10 0.2995
656.20 0.3039
656.30 0.3155
656.40 0.3005
656.50 0.299
656.60 0.2995
656.70 0.3001
656.80 0.301
656.90 0.302
657.00 0.303
657.10 0.304
657.20 0.305
657.30 0.306
657.40 0.307
657.50 0.3079
657.60 0.3089
657.70 0.3098
657.80 0.3107
657.90 0.3116
658.00 0.3124
658.10 0.3133
658.20 0.3141
658.30 0.3149
658.40 0.3156
658.50 0.3163
658.60 0.3169
658.70 0.3176
658.80 0.3183
658.90 0.319
659.00 0.3196
659.10 0.3203
659.20 0.321
659.30 0.3216
659.40 0.3221
659.50 0.3225
659.60 0.323
659.70 0.3235
659.80 0.324
659.90 0.3244
660.00 0.3249
660.10 0.3254
660.20 0.3258
660.30 0.3263
660.40 0.3266
660.50 0.3269
660.60 0.3272
660.70 0.3275
660.80 0.3278
660.90 0.3282
661.00 0.3285
661.10 0.3288
661.20 0.3291
661.30 0.3294
661.40 0.3296
661.50 0.3297
661.60 0.3299
661.70 0.3301
661.80 0.3303
661.90 0.3305
662.00 0.3307
662.10 0.3309
662.20 0.3311
662.30 0.3312
662.40 0.3313
662.50 0.3314
662.60 0.3315
662.70 0.3316
662.80 0.3317
662.90 0.3318
663.00 0.3319
663.10 0.332
663.20 0.3321
663.30 0.3321
663.40 0.3322
663.50 0.3322
663.60 0.3322
663.70 0.3322
663.80 0.3323
663.90 0.3323
664.00 0.3323
664.10 0.3323
664.20 0.3324
664.30 0.3324
664.40 0.3324
664.50 0.3323
664.60 0.3323
664.70 0.3323
664.80 0.3322
664.90 0.3322
665.00 0.3322
665.10 0.3322
665.20 0.3321
665.30 0.3321
665.40 0.332
665.50 0.332
665.60 0.3319
665.70 0.3318
665.80 0.3318
665.90 0.3317
666.00 0.3317
666.10 0.3316
666.20 0.3315
666.30 0.3315
666.40 0.3314
666.50 0.3313
666.60 0.3312
666.70 0.3311
666.80 0.331
666.90 0.3309
667.00 0.3308
667.10 0.3307
667.20 0.3306
667.30 0.3305
667.40 0.3304
667.50 0.3303
667.60 0.3302
667.70 0.3301
667.80 0.33
667.90 0.3299
668.00 0.3297
668.10 0.3296
668.20 0.3295
668.30 0.3294
668.40 0.3293
668.50 0.3292
668.60 0.329
668.70 0.3289
668.80 0.3288
668.90 0.3286
669.00 0.3285
669.10 0.3284
669.20 0.3283
669.30 0.3281
669.40 0.328
669.50 0.3279
669.60 0.3277
669.70 0.3276
669.80 0.3274
669.90 0.3273
670.00 0.3272
670.10 0.327
670.20 0.3269
670.30 0.3267
670.40 0.3266
670.50 0.3264
670.60 0.3263
670.70 0.3262
670.80 0.326
670.90 0.3259
671.00 0.3257
671.10 0.3256
671.20 0.3254
671.30 0.3253
671.40 0.3251
671.50 0.325
671.60 0.3248
671.70 0.3247
671.80 0.3245
671.90 0.3243
672.00 0.3242
672.10 0.324
672.20 0.3239
672.30 0.3237
672.40 0.3236
672.50 0.3234
672.60 0.3233
672.70 0.3231
672.80 0.3229
672.90 0.3228
673.00 0.3226
673.10 0.3225
673.20 0.3223
673.30 0.3222
673.40 0.322
673.50 0.3218
673.60 0.3217
673.70 0.3215
673.80 0.3213
673.90 0.3212
674.00 0.321
674.10 0.3209
674.20 0.3207
674.30 0.3205
674.40 0.3204
674.50 0.3202
674.60 0.32
674.70 0.3199
674.80 0.3197
674.90 0.3196
675.00 0.3194
675.10 0.3192
675.20 0.3191
675.30 0.3189
675.40 0.3187
675.50 0.3186
675.60 0.3184
675.70 0.3182
675.80 0.3181
675.90 0.3179
676.00 0.3177
676.10 0.3176
676.20 0.3174
676.30 0.3172
676.40 0.3171
676.50 0.3169
676.60 0.3167
676.70 0.3166
676.80 0.3164
676.90 0.3162
677.00 0.3161
677.10 0.3159
677.20 0.3157
677.30 0.3156
677.40 0.3154
677.50 0.3152
677.60 0.3151
677.70 0.3149
677.80 0.3147
677.90 0.3146
678.00 0.3144
678.10 0.3142
678.20 0.3141
678.30 0.3139
678.40 0.3137
678.50 0.3136
678.60 0.3134
678.70 0.3132
678.80 0.3131
678.90 0.3129
679.00 0.3127
679.10 0.3126
679.20 0.3124
679.30 0.3122
679.40 0.3121
679.50 0.3119
679.60 0.3117
679.70 0.3116
679.80 0.3114
679.90 0.3112
680.00 0.311
680.10 0.3109
680.20 0.3107
680.30 0.3105
680.40 0.3104
680.50 0.3102
680.60 0.31
680.70 0.3099
680.80 0.3097
680.90 0.3095
681.00 0.3094
681.10 0.3092
681.20 0.309
681.30 0.3089
681.40 0.3087
681.50 0.3085
681.60 0.3084
681.70 0.3082
681.80 0.308
681.90 0.3079
682.00 0.3077
682.10 0.3075
682.20 0.3074
682.30 0.3072
682.40 0.307
682.50 0.3069
682.60 0.3067
682.70 0.3065
682.80 0.3063
682.90 0.3062
683.00 0.306
683.10 0.3058
683.20 0.3057
683.30 0.3055
683.40 0.3053
683.50 0.3052
683.60 0.305
683.70 0.3048
683.80 0.3047
683.90 0.3045
684.00 0.3043
684.10 0.3042
684.20 0.304
684.30 0.3038
684.40 0.3037
684.50 0.3035
684.60 0.3033
684.70 0.3032
684.80 0.303
684.90 0.3028
685.00 0.3027
685.10 0.3025
685.20 0.3023
685.30 0.3022
685.40 0.302
685.50 0.3019
685.60 0.3017
685.70 0.3015
685.80 0.3014
685.90 0.3012
686.00 0.301
686.10 0.3009
686.20 0.3007
686.30 0.3005
686.40 0.3004
686.50 0.3002
686.60 0.3
686.70 0.2999
686.80 0.2997
686.90 0.2995
687.00 0.2994
687.10 0.2992
687.20 0.299
687.30 0.2989
687.40 0.2987
687.50 0.2986
687.60 0.2984
687.70 0.2982
687.80 0.2981
687.90 0.2979
688.00 0.2977
688.10 0.2976
688.20 0.2974
688.30 0.2972
688.40 0.2971
688.50 0.2969
688.60 0.2968
688.70 0.2966
688.80 0.2964
688.90 0.2963
689.00 0.2961
689.10 0.2959
689.20 0.2958
689.30 0.2956
689.40 0.2954
689.50 0.2953
689.60 0.2951
689.70 0.295
689.80 0.2948
689.90 0.2946
690.00 0.2945
690.10 0.2943
690.20 0.2942
690.30 0.294
690.40 0.2938
690.50 0.2937
690.60 0.2935
690.70 0.2933
690.80 0.2932
690.90 0.293
691.00 0.2929
691.10 0.2927
691.20 0.2925
691.30 0.2924
691.40 0.2922
691.50 0.2921
691.60 0.2919
691.70 0.2917
691.80 0.2916
691.90 0.2914
692.00 0.2913
692.10 0.2911
692.20 0.2909
692.30 0.2908
692.40 0.2906
692.50 0.2905
692.60 0.2903
692.70 0.2901
692.80 0.29
692.90 0.2898
693.00 0.2897
693.10 0.2895
693.20 0.2893
693.30 0.2892
693.40 0.289
693.50 0.2889
693.60 0.2887
693.70 0.2885
693.80 0.2884
693.90 0.2882
694.00 0.2881
694.10 0.2879
694.20 0.2877
694.30 0.2876
694.40 0.2874
694.50 0.2873
694.60 0.2871
694.70 0.287
694.80 0.2868
694.90 0.2866
695.00 0.2865
695.10 0.2863
695.20 0.2862
695.30 0.286
695.40 0.2859
695.50 0.2857
695.60 0.2855
695.70 0.2854
695.80 0.2852
695.90 0.2851
696.00 0.2849
696.10 0.2848
696.20 0.2846
696.30 0.2844
696.40 0.2843
696.50 0.2841
696.60 0.284
696.70 0.2838
696.80 0.2837
696.90 0.2835
697.00 0.2834
697.10 0.2832
697.20 0.283
697.30 0.2829
697.40 0.2827
697.50 0.2826
697.60 0.2824
697.70 0.2823
697.80 0.2821
697.90 0.282
698.00 0.2818
698.10 0.2817
698.20 0.2815
698.30 0.2813
698.40 0.2812
698.50 0.281
698.60 0.2809
698.70 0.2807
698.80 0.2806
698.90 0.2804
699.00 0.2803
699.10 0.2801
699.20 0.28
699.30 0.2798
699.40 0.2797
699.50 0.2795
699.60 0.2793
699.70 0.2792
699.80 0.279
699.90 0.2789
700.00 0.2787
700.10 0.2786
700.20 0.2784
700.30 0.2783
700.40 0.2781
700.50 0.278
700.60 0.2778
700.70 0.2777
700.80 0.2775
700.90 0.2774
701.00 0.2772
701.10 0.2771
701.20 0.2769
701.30 0.2768
701.40 0.2766
701.50 0.2765
701.60 0.2763
701.70 0.2762
701.80 0.276
701.90 0.2759
702.00 0.2757
702.10 0.2756
702.20 0.2754
702.30 0.2753
702.40 0.2751
702.50 0.275
702.60 0.2748
702.70 0.2747
702.80 0.2745
702.90 0.2744
703.00 0.2742
703.10 0.2741
703.20 0.2739
703.30 0.2738
703.40 0.2736
703.50 0.2735
703.60 0.2733
703.70 0.2732
703.80 0.273
703.90 0.2729
704.00 0.2727
704.10 0.2726
704.20 0.2724
704.30 0.2723
704.40 0.2721
704.50 0.272
704.60 0.2718
704.70 0.2717
704.80 0.2715
704.90 0.2714
705.00 0.2712
705.10 0.2711
705.20 0.2709
705.30 0.2708
705.40 0.2706
705.50 0.2705
705.60 0.2703
705.70 0.2702
705.80 0.2701
705.90 0.2699
706.00 0.2698
706.10 0.2696
706.20 0.2695
706.30 0.2693
706.40 0.2692
706.50 0.269
706.60 0.2689
706.70 0.2687
706.80 0.2686
706.90 0.2684
707.00 0.2683
707.10 0.2682
707.20 0.268
707.30 0.2679
707.40 0.2677
707.50 0.2676
707.60 0.2674
707.70 0.2673
707.80 0.2671
707.90 0.267
708.00 0.2668
708.10 0.2667
708.20 0.2666
708.30 0.2664
708.40 0.2663
708.50 0.2661
708.60 0.266
708.70 0.2658
708.80 0.2657
708.90 0.2655
709.00 0.2654
709.10 0.2653
709.20 0.2651
709.30 0.265
709.40 0.2648
709.50 0.2647
709.60 0.2645
709.70 0.2644
709.80 0.2642
709.90 0.2641
710.00 0.264
710.10 0.2638
710.20 0.2637
710.30 0.2635
710.40 0.2634
710.50 0.2633
710.60 0.2631
710.70 0.263
710.80 0.2628
710.90 0.2627
711.00 0.2625
711.10 0.2624
711.20 0.2623
711.30 0.2621
711.40 0.262
711.50 0.2618
711.60 0.2617
711.70 0.2616
711.80 0.2614
711.90 0.2613
712.00 0.2611
712.10 0.261
712.20 0.2608
712.30 0.2607
712.40 0.2606
712.50 0.2604
712.60 0.2603
712.70 0.2601
712.80 0.26
712.90 0.2599
713.00 0.2597
713.10 0.2596
713.20 0.2594
713.30 0.2593
713.40 0.2592
713.50 0.259
713.60 0.2589
713.70 0.2587
713.80 0.2586
713.90 0.2585
714.00 0.2583
714.10 0.2582
714.20 0.258
714.30 0.2579
714.40 0.2578
714.50 0.2576
714.60 0.2575
714.70 0.2573
714.80 0.2572
714.90 0.2571
715.00 0.2569
715.10 0.2568
715.20 0.2567
715.30 0.2565
715.40 0.2564
715.50 0.2562
715.60 0.2561
715.70 0.256
715.80 0.2558
715.90 0.2557
716.00 0.2556
716.10 0.2554
716.20 0.2553
716.30 0.2551
716.40 0.255
716.50 0.2549
716.60 0.2547
716.70 0.2546
716.80 0.2545
716.90 0.2543
717.00 0.2542
717.10 0.2541
717.20 0.2539
717.30 0.2538
717.40 0.2536
717.50 0.2535
717.60 0.2534
717.70 0.2532
717.80 0.2531
717.90 0.253
718.00 0.2528
718.10 0.2527
718.20 0.2526
718.30 0.2524
718.40 0.2523
718.50 0.2522
718.60 0.252
718.70 0.2519
718.80 0.2517
718.90 0.2516
719.00 0.2515
719.10 0.2513
719.20 0.2512
719.30 0.2511
719.40 0.2509
719.50 0.2508
719.60 0.2507
719.70 0.2505
719.80 0.2504
719.90 0.2503
720.00 0.2501
720.10 0.25
720.20 0.2499
720.30 0.2497
720.40 0.2496
720.50 0.2495
720.60 0.2493
720.70 0.2492
720.80 0.2491
720.90 0.2489
721.00 0.2488
721.10 0.2487
721.20 0.2485
721.30 0.2484
721.40 0.2483
721.50 0.2481
721.60 0.248
721.70 0.2479
721.80 0.2477
721.90 0.2476
722.00 0.2475
722.10 0.2473
722.20 0.2472
722.30 0.2471
722.40 0.247
722.50 0.2468
722.60 0.2467
722.70 0.2466
722.80 0.2464
722.90 0.2463
723.00 0.2462
723.10 0.246
723.20 0.2459
723.30 0.2458
723.40 0.2456
723.50 0.2455
723.60 0.2454
723.70 0.2452
723.80 0.2451
723.90 0.245
724.00 0.2449
724.10 0.2447
724.20 0.2446
724.30 0.2445
724.40 0.2443
724.50 0.2442
724.60 0.2441
724.70 0.2439
724.80 0.2438
724.90 0.2437
725.00 0.2436
725.10 0.2434
725.20 0.2433
725.30 0.2432
725.40 0.243
725.50 0.2429
725.60 0.2428
725.70 0.2427
725.80 0.2425
725.90 0.2424
726.00 0.2423
726.10 0.2421
726.20 0.242
726.30 0.2419
726.40 0.2418
726.50 0.2416
726.60 0.2415
726.70 0.2414
726.80 0.2412
726.90 0.2411
727.00 0.241
727.10 0.2409
727.20 0.2407
727.30 0.2406
727.40 0.2405
727.50 0.2403
727.60 0.2402
727.70 0.2401
727.80 0.24
727.90 0.2398
728.00 0.2397
728.10 0.2396
728.20 0.2395
728.30 0.2393
728.40 0.2392
728.50 0.2391
728.60 0.239
728.70 0.2388
728.80 0.2387
728.90 0.2386
729.00 0.2384
729.10 0.2383
729.20 0.2382
729.30 0.2381
729.40 0.2379
729.50 0.2378
729.60 0.2377
729.70 0.2376
729.80 0.2374
729.90 0.2373
730.00 0.2372
730.10 0.2371
730.20 0.2369
730.30 0.2368
730.40 0.2367
730.50 0.2366
730.60 0.2364
730.70 0.2363
730.80 0.2362
730.90 0.2361
731.00 0.2359
731.10 0.2358
731.20 0.2357
731.30 0.2356
731.40 0.2355
731.50 0.2353
731.60 0.2352
731.70 0.2351
731.80 0.235
731.90 0.2348
732.00 0.2347
732.10 0.2346
732.20 0.2345
732.30 0.2343
732.40 0.2342
732.50 0.2341
732.60 0.234
732.70 0.2339
732.80 0.2337
732.90 0.2336
733.00 0.2335
733.10 0.2334
733.20 0.2332
733.30 0.2331
733.40 0.233
733.50 0.2329
733.60 0.2328
733.70 0.2326
733.80 0.2325
733.90 0.2324
734.00 0.2323
734.10 0.2321
734.20 0.232
734.30 0.2319
734.40 0.2318
734.50 0.2317
734.60 0.2315
734.70 0.2314
734.80 0.2313
734.90 0.2312
735.00 0.231
735.10 0.2309
735.20 0.2308
735.30 0.2307
735.40 0.2306
735.50 0.2304
735.60 0.2303
735.70 0.2302
735.80 0.2301
735.90 0.23
736.00 0.2298
736.10 0.2297
736.20 0.2296
736.30 0.2295
736.40 0.2294
736.50 0.2292
736.60 0.2291
736.70 0.229
736.80 0.2289
736.90 0.2288
737.00 0.2286
737.10 0.2285
737.20 0.2284
737.30 0.2283
737.40 0.2282
737.50 0.228
737.60 0.2279
737.70 0.2278
737.80 0.2277
737.90 0.2276
738.00 0.2274
738.10 0.2273
738.20 0.2272
738.30 0.2271
738.40 0.227
738.50 0.2268
738.60 0.2267
738.70 0.2266
738.80 0.2265
738.90 0.2264
739.00 0.2262
739.10 0.2261
739.20 0.226
739.30 0.2259
739.40 0.2258
739.50 0.2257
739.60 0.2255
739.70 0.2254
739.80 0.2253
739.90 0.2252
740.00 0.2251
740.10 0.2249
740.20 0.2248
740.30 0.2247
740.40 0.2246
740.50 0.2245
740.60 0.2244
740.70 0.2242
740.80 0.2241
740.90 0.224
741.00 0.2239
741.10 0.2238
741.20 0.2237
741.30 0.2236
741.40 0.2234
741.50 0.2233
741.60 0.2232
741.70 0.2231
741.80 0.223
741.90 0.2229
742.00 0.2227
742.10 0.2226
742.20 0.2225
742.30 0.2224
742.40 0.2223
742.50 0.2222
742.60 0.2221
742.70 0.2219
742.80 0.2218
742.90 0.2217
743.00 0.2216
743.10 0.2215
743.20 0.2214
743.30 0.2213
743.40 0.2211
743.50 0.221
743.60 0.2209
743.70 0.2208
743.80 0.2207
743.90 0.2206
744.00 0.2205
744.10 0.2203
744.20 0.2202
744.30 0.2201
744.40 0.22
744.50 0.2199
744.60 0.2198
744.70 0.2197
744.80 0.2195
744.90 0.2194
745.00 0.2193
745.10 0.2192
745.20 0.2191
745.30 0.219
745.40 0.2189
745.50 0.2187
745.60 0.2186
745.70 0.2185
745.80 0.2184
745.90 0.2183
746.00 0.2182
746.10 0.2181
746.20 0.218
746.30 0.2178
746.40 0.2177
746.50 0.2176
746.60 0.2175
746.70 0.2174
746.80 0.2173
746.90 0.2172
747.00 0.2171
747.10 0.2169
747.20 0.2168
747.30 0.2167
747.40 0.2166
747.50 0.2165
747.60 0.2164
747.70 0.2163
747.80 0.2162
747.90 0.216
748.00 0.2159
748.10 0.2158
748.20 0.2157
748.30 0.2156
748.40 0.2155
748.50 0.2154
748.60 0.2153
748.70 0.2151
748.80 0.215
748.90 0.2149
749.00 0.2148
749.10 0.2147
749.20 0.2146
749.30 0.2145
749.40 0.2144
749.50 0.2143
749.60 0.2141
749.70 0.214
749.80 0.2139
749.90 0.2138
750.00 0.2137
750.10 0.2136
750.20 0.2135
750.30 0.2134
750.40 0.2133
750.50 0.2132
750.60 0.213
750.70 0.2129
750.80 0.2128
750.90 0.2127
751.00 0.2126
751.10 0.2125
751.20 0.2124
751.30 0.2123
751.40 0.2122
751.50 0.2121
751.60 0.212
751.70 0.2119
751.80 0.2117
751.90 0.2116
752.00 0.2115
752.10 0.2114
752.20 0.2113
752.30 0.2112
752.40 0.2111
752.50 0.211
752.60 0.2109
752.70 0.2108
752.80 0.2107
752.90 0.2106
753.00 0.2105
753.10 0.2103
753.20 0.2102
753.30 0.2101
753.40 0.21
753.50 0.2099
753.60 0.2098
753.70 0.2097
753.80 0.2096
753.90 0.2095
754.00 0.2094
754.10 0.2093
754.20 0.2092
754.30 0.2091
754.40 0.2089
754.50 0.2088
754.60 0.2087
754.70 0.2086
754.80 0.2085
754.90 0.2084
755.00 0.2083
755.10 0.2082
755.20 0.2081
755.30 0.208
755.40 0.2079
755.50 0.2078
755.60 0.2077
755.70 0.2076
755.80 0.2075
755.90 0.2074
756.00 0.2072
756.10 0.2071
756.20 0.207
756.30 0.2069
756.40 0.2068
756.50 0.2067
756.60 0.2066
756.70 0.2065
756.80 0.2064
756.90 0.2063
757.00 0.2062
757.10 0.2061
757.20 0.206
757.30 0.2059
757.40 0.2058
757.50 0.2057
757.60 0.2056
757.70 0.2055
757.80 0.2053
757.90 0.2052
758.00 0.2051
758.10 0.205
758.20 0.2049
758.30 0.2048
758.40 0.2047
758.50 0.2046
758.60 0.2045
758.70 0.2044
758.80 0.2043
758.90 0.2042
759.00 0.2041
759.10 0.204
759.20 0.2039
759.30 0.2038
759.40 0.2037
759.50 0.2036
759.60 0.2035
759.70 0.2034
759.80 0.2033
759.90 0.2031
760.00 0.203
760.10 0.2029
760.20 0.2028
760.30 0.2027
760.40 0.2026
760.50 0.2025
760.60 0.2024
760.70 0.2023
760.80 0.2022
760.90 0.2021
761.00 0.202
761.10 0.2019
761.20 0.2018
761.30 0.2017
761.40 0.2016
761.50 0.2015
761.60 0.2014
761.70 0.2013
761.80 0.2012
761.90 0.2011
762.00 0.201
762.10 0.2009
762.20 0.2008
762.30 0.2007
762.40 0.2006
762.50 0.2005
762.60 0.2004
762.70 0.2003
762.80 0.2002
762.90 0.2001
763.00 0.2
763.10 0.1999
763.20 0.1998
763.30 0.1997
763.40 0.1996
763.50 0.1995
763.60 0.1994
763.70 0.1993
763.80 0.1992
763.90 0.1991
764.00 0.199
764.10 0.1989
764.20 0.1988
764.30 0.1987
764.40 0.1986
764.50 0.1985
764.60 0.1984
764.70 0.1983
764.80 0.1982
764.90 0.1981
765.00 0.198
765.10 0.1979
765.20 0.1978
765.30 0.1977
765.40 0.1976
765.50 0.1975
765.60 0.1974
765.70 0.1973
765.80 0.1972
765.90 0.1971
766.00 0.197
766.10 0.1969
766.20 0.1968
766.30 0.1967
766.40 0.1966
766.50 0.1965
766.60 0.1964
766.70 0.1963
766.80 0.1962
766.90 0.1961
767.00 0.196
767.10 0.1959
767.20 0.1958
767.30 0.1957
767.40 0.1956
767.50 0.1955
767.60 0.1954
767.70 0.1953
767.80 0.1952
767.90 0.1951
768.00 0.195
768.10 0.1949
768.20 0.1948
768.30 0.1947
768.40 0.1946
768.50 0.1945
768.60 0.1944
768.70 0.1943
768.80 0.1942
768.90 0.1941
769.00 0.194
769.10 0.1939
769.20 0.1938
769.30 0.1937
769.40 0.1936
769.50 0.1935
769.60 0.1934
769.70 0.1933
769.80 0.1932
769.90 0.1931
770.00 0.193
770.10 0.1929
770.20 0.1929
770.30 0.1928
770.40 0.1927
770.50 0.1926
770.60 0.1925
770.70 0.1924
770.80 0.1923
770.90 0.1922
771.00 0.1921
771.10 0.192
771.20 0.1919
771.30 0.1918
771.40 0.1917
771.50 0.1916
771.60 0.1915
771.70 0.1914
771.80 0.1913
771.90 0.1912
772.00 0.1911
772.10 0.191
772.20 0.1909
772.30 0.1908
772.40 0.1908
772.50 0.1907
772.60 0.1906
772.70 0.1905
772.80 0.1904
772.90 0.1903
773.00 0.1902
773.10 0.1901
773.20 0.19
773.30 0.1899
773.40 0.1898
773.50 0.1897
773.60 0.1896
773.70 0.1895
773.80 0.1894
773.90 0.1893
774.00 0.1892
774.10 0.1891
774.20 0.189
774.30 0.189
774.40 0.1889
774.50 0.1888
774.60 0.1887
774.70 0.1886
774.80 0.1885
774.90 0.1884
775.00 0.1883
775.10 0.1882
775.20 0.1881
775.30 0.188
775.40 0.1879
775.50 0.1878
775.60 0.1877
775.70 0.1876
775.80 0.1875
775.90 0.1875
776.00 0.1874
776.10 0.1873
776.20 0.1872
776.30 0.1871
776.40 0.187
776.50 0.1869
776.60 0.1868
776.70 0.1867
776.80 0.1866
776.90 0.1865
777.00 0.1864
777.10 0.1863
777.20 0.1862
777.30 0.1861
777.40 0.1861
777.50 0.186
777.60 0.1859
777.70 0.1858
777.80 0.1857
777.90 0.1856
778.00 0.1855
778.10 0.1854
778.20 0.1853
778.30 0.1852
778.40 0.1851
778.50 0.185
778.60 0.1849
778.70 0.1849
778.80 0.1848
778.90 0.1847
779.00 0.1846
779.10 0.1845
779.20 0.1844
779.30 0.1843
779.40 0.1842
779.50 0.1841
779.60 0.184
779.70 0.1839
779.80 0.1838
779.90 0.1837
780.00 0.1837
780.10 0.1836
780.20 0.1835
780.30 0.1834
780.40 0.1833
780.50 0.1832
780.60 0.1831
780.70 0.183
780.80 0.1829
780.90 0.1828
781.00 0.1828
781.10 0.1827
781.20 0.1826
781.30 0.1825
781.40 0.1824
781.50 0.1823
781.60 0.1822
781.70 0.1821
781.80 0.182
781.90 0.1819
782.00 0.1819
782.10 0.1818
782.20 0.1817
782.30 0.1816
782.40 0.1815
782.50 0.1814
782.60 0.1813
782.70 0.1812
782.80 0.1811
782.90 0.1811
783.00 0.181
783.10 0.1809
783.20 0.1808
783.30 0.1807
783.40 0.1806
783.50 0.1805
783.60 0.1804
783.70 0.1803
783.80 0.1803
783.90 0.1802
784.00 0.1801
784.10 0.18
784.20 0.1799
784.30 0.1798
784.40 0.1797
784.50 0.1796
784.60 0.1795
784.70 0.1795
784.80 0.1794
784.90 0.1793
785.00 0.1792
785.10 0.1791
785.20 0.179
785.30 0.1789
785.40 0.1788
785.50 0.1787
785.60 0.1787
785.70 0.1786
785.80 0.1785
785.90 0.1784
786.00 0.1783
786.10 0.1782
786.20 0.1781
786.30 0.178
786.40 0.178
786.50 0.1779
786.60 0.1778
786.70 0.1777
786.80 0.1776
786.90 0.1775
787.00 0.1774
787.10 0.1773
787.20 0.1773
787.30 0.1772
787.40 0.1771
787.50 0.177
787.60 0.1769
787.70 0.1768
787.80 0.1767
787.90 0.1766
788.00 0.1766
788.10 0.1765
788.20 0.1764
788.30 0.1763
788.40 0.1762
788.50 0.1761
788.60 0.176
788.70 0.176
788.80 0.1759
788.90 0.1758
789.00 0.1757
789.10 0.1756
789.20 0.1755
789.30 0.1754
789.40 0.1753
789.50 0.1753
789.60 0.1752
789.70 0.1751
789.80 0.175
789.90 0.1749
790.00 0.1748
790.10 0.1747
790.20 0.1747
790.30 0.1746
790.40 0.1745
790.50 0.1744
790.60 0.1743
790.70 0.1742
790.80 0.1741
790.90 0.1741
791.00 0.174
791.10 0.1739
791.20 0.1738
791.30 0.1737
791.40 0.1736
791.50 0.1736
791.60 0.1735
791.70 0.1734
791.80 0.1733
791.90 0.1732
792.00 0.1731
792.10 0.1731
792.20 0.173
792.30 0.1729
792.40 0.1728
792.50 0.1727
792.60 0.1726
792.70 0.1725
792.80 0.1725
792.90 0.1724
793.00 0.1723
793.10 0.1722
793.20 0.1721
793.30 0.172
793.40 0.172
793.50 0.1719
793.60 0.1718
793.70 0.1717
793.80 0.1716
793.90 0.1715
794.00 0.1715
794.10 0.1714
794.20 0.1713
794.30 0.1712
794.40 0.1711
794.50 0.171
794.60 0.171
794.70 0.1709
794.80 0.1708
794.90 0.1707
795.00 0.1706
795.10 0.1705
795.20 0.1705
795.30 0.1704
795.40 0.1703
795.50 0.1702
795.60 0.1701
795.70 0.17
795.80 0.17
795.90 0.1699
796.00 0.1698
796.10 0.1697
796.20 0.1696
796.30 0.1696
796.40 0.1695
796.50 0.1694
796.60 0.1693
796.70 0.1692
796.80 0.1691
796.90 0.1691
797.00 0.169
797.10 0.1689
797.20 0.1688
797.30 0.1687
797.40 0.1686
797.50 0.1686
797.60 0.1685
797.70 0.1684
797.80 0.1683
797.90 0.1682
798.00 0.1682
798.10 0.1681
798.20 0.168
798.30 0.1679
798.40 0.1678
798.50 0.1677
798.60 0.1677
798.70 0.1676
798.80 0.1675
798.90 0.1674
799.00 0.1673
799.10 0.1673
799.20 0.1672
799.30 0.1671
799.40 0.167
799.50 0.1669
799.60 0.1668
799.70 0.1668
799.80 0.1667
799.90 0.1666
800.00 0.1665
800.10 0.1664
800.20 0.1664
800.30 0.1663
800.40 0.1662
800.50 0.1661
800.60 0.166
800.70 0.166
800.80 0.1659
800.90 0.1658
801.00 0.1657
801.10 0.1656
801.20 0.1656
801.30 0.1655
801.40 0.1654
801.50 0.1653
801.60 0.1653
801.70 0.1652
801.80 0.1651
801.90 0.165
802.00 0.1649
802.10 0.1649
802.20 0.1648
802.30 0.1647
802.40 0.1646
802.50 0.1645
802.60 0.1645
802.70 0.1644
802.80 0.1643
802.90 0.1642
803.00 0.1641
803.10 0.1641
803.20 0.164
803.30 0.1639
803.40 0.1638
803.50 0.1637
803.60 0.1637
803.70 0.1636
803.80 0.1635
803.90 0.1634
804.00 0.1634
804.10 0.1633
804.20 0.1632
804.30 0.1631
804.40 0.163
804.50 0.163
804.60 0.1629
804.70 0.1628
804.80 0.1627
804.90 0.1627
805.00 0.1626
805.10 0.1625
805.20 0.1624
805.30 0.1623
805.40 0.1623
805.50 0.1622
805.60 0.1621
805.70 0.162
805.80 0.1619
805.90 0.1619
806.00 0.1618
806.10 0.1617
806.20 0.1616
806.30 0.1616
806.40 0.1615
806.50 0.1614
806.60 0.1613
806.70 0.1612
806.80 0.1612
806.90 0.1611
807.00 0.161
807.10 0.1609
807.20 0.1609
807.30 0.1608
807.40 0.1607
807.50 0.1606
807.60 0.1606
807.70 0.1605
807.80 0.1604
807.90 0.1603
808.00 0.1602
808.10 0.1602
808.20 0.1601
808.30 0.16
808.40 0.1599
808.50 0.1599
808.60 0.1598
808.70 0.1597
808.80 0.1596
808.90 0.1596
809.00 0.1595
809.10 0.1594
809.20 0.1593
809.30 0.1592
809.40 0.1592
809.50 0.1591
809.60 0.159
809.70 0.1589
809.80 0.1589
809.90 0.1588
810.00 0.1587
810.10 0.1586
810.20 0.1586
810.30 0.1585
810.40 0.1584
810.50 0.1583
810.60 0.1583
810.70 0.1582
810.80 0.1581
810.90 0.158
811.00 0.158
811.10 0.1579
811.20 0.1578
811.30 0.1577
811.40 0.1577
811.50 0.1576
811.60 0.1575
811.70 0.1574
811.80 0.1574
811.90 0.1573
812.00 0.1572
812.10 0.1571
812.20 0.1571
812.30 0.157
812.40 0.1569
812.50 0.1568
812.60 0.1568
812.70 0.1567
812.80 0.1566
812.90 0.1565
813.00 0.1565
813.10 0.1564
813.20 0.1563
813.30 0.1562
813.40 0.1562
813.50 0.1561
813.60 0.156
813.70 0.1559
813.80 0.1559
813.90 0.1558
814.00 0.1557
814.10 0.1557
814.20 0.1556
814.30 0.1555
814.40 0.1554
814.50 0.1554
814.60 0.1553
814.70 0.1552
814.80 0.1551
814.90 0.1551
815.00 0.155
815.10 0.1549
815.20 0.1548
815.30 0.1548
815.40 0.1547
815.50 0.1546
815.60 0.1545
815.70 0.1545
815.80 0.1544
815.90 0.1543
816.00 0.1543
816.10 0.1542
816.20 0.1541
816.30 0.154
816.40 0.154
816.50 0.1539
816.60 0.1538
816.70 0.1537
816.80 0.1537
816.90 0.1536
817.00 0.1535
817.10 0.1534
817.20 0.1534
817.30 0.1533
817.40 0.1532
817.50 0.1532
817.60 0.1531
817.70 0.153
817.80 0.1529
817.90 0.1529
818.00 0.1528
818.10 0.1527
818.20 0.1526
818.30 0.1526
818.40 0.1525
818.50 0.1524
818.60 0.1524
818.70 0.1523
818.80 0.1522
818.90 0.1521
819.00 0.1521
819.10 0.152
819.20 0.1519
819.30 0.1519
819.40 0.1518
819.50 0.1517
819.60 0.1516
819.70 0.1516
819.80 0.1515
819.90 0.1514
820.00 0.1513
820.10 0.1513
820.20 0.1512
820.30 0.1511
820.40 0.1511
820.50 0.151
820.60 0.1509
820.70 0.1508
820.80 0.1508
820.90 0.1507
821.00 0.1506
821.10 0.1506
821.20 0.1505
821.30 0.1504
821.40 0.1503
821.50 0.1503
821.60 0.1502
821.70 0.1501
821.80 0.1501
821.90 0.15
822.00 0.1499
822.10 0.1499
822.20 0.1498
822.30 0.1497
822.40 0.1496
822.50 0.1496
822.60 0.1495
822.70 0.1494
822.80 0.1494
822.90 0.1493
823.00 0.1492
823.10 0.1492
823.20 0.1491
823.30 0.149
823.40 0.1489
823.50 0.1489
823.60 0.1488
823.70 0.1487
823.80 0.1487
823.90 0.1486
824.00 0.1485
824.10 0.1485
824.20 0.1484
824.30 0.1483
824.40 0.1482
824.50 0.1482
824.60 0.1481
824.70 0.148
824.80 0.148
824.90 0.1479
825.00 0.1478
825.10 0.1478
825.20 0.1477
825.30 0.1476
825.40 0.1476
825.50 0.1475
825.60 0.1474
825.70 0.1473
825.80 0.1473
825.90 0.1472
826.00 0.1471
826.10 0.1471
826.20 0.147
826.30 0.1469
826.40 0.1469
826.50 0.1468
826.60 0.1467
826.70 0.1467
826.80 0.1466
826.90 0.1465
827.00 0.1464
827.10 0.1464
827.20 0.1463
827.30 0.1462
827.40 0.1462
827.50 0.1461
827.60 0.146
827.70 0.146
827.80 0.1459
827.90 0.1458
828.00 0.1458
828.10 0.1457
828.20 0.1456
828.30 0.1456
828.40 0.1455
828.50 0.1454
828.60 0.1454
828.70 0.1453
828.80 0.1452
828.90 0.1452
829.00 0.1451
829.10 0.145
829.20 0.1449
829.30 0.1449
829.40 0.1448
829.50 0.1447
829.60 0.1447
829.70 0.1446
829.80 0.1445
829.90 0.1445
830.00 0.1444
830.10 0.1443
830.20 0.1443
830.30 0.1442
830.40 0.1441
830.50 0.1441
830.60 0.144
830.70 0.1439
830.80 0.1439
830.90 0.1438
831.00 0.1437
831.10 0.1437
831.20 0.1436
831.30 0.1435
831.40 0.1435
831.50 0.1434
831.60 0.1433
831.70 0.1433
831.80 0.1432
831.90 0.1431
832.00 0.1431
832.10 0.143
832.20 0.1429
832.30 0.1429
832.40 0.1428
832.50 0.1427
832.60 0.1427
832.70 0.1426
832.80 0.1425
832.90 0.1425
833.00 0.1424
833.10 0.1423
833.20 0.1423
833.30 0.1422
833.40 0.1421
833.50 0.1421
833.60 0.142
833.70 0.1419
833.80 0.1419
833.90 0.1418
834.00 0.1417
834.10 0.1417
834.20 0.1416
834.30 0.1415
834.40 0.1415
834.50 0.1414
834.60 0.1413
834.70 0.1413
834.80 0.1412
834.90 0.1411
835.00 0.1411
835.10 0.141
835.20 0.141
835.30 0.1409
835.40 0.1408
835.50 0.1408
835.60 0.1407
835.70 0.1406
835.80 0.1406
835.90 0.1405
836.00 0.1404
836.10 0.1404
836.20 0.1403
836.30 0.1402
836.40 0.1402
836.50 0.1401
836.60 0.14
836.70 0.14
836.80 0.1399
836.90 0.1398
837.00 0.1398
837.10 0.1397
837.20 0.1396
837.30 0.1396
837.40 0.1395
837.50 0.1394
837.60 0.1394
837.70 0.1393
837.80 0.1393
837.90 0.1392
838.00 0.1391
838.10 0.1391
838.20 0.139
838.30 0.1389
838.40 0.1389
838.50 0.1388
838.60 0.1387
838.70 0.1387
838.80 0.1386
838.90 0.1385
839.00 0.1385
839.10 0.1384
839.20 0.1384
839.30 0.1383
839.40 0.1382
839.50 0.1382
839.60 0.1381
839.70 0.138
839.80 0.138
839.90 0.1379
840.00 0.1378
840.10 0.1378
840.20 0.1377
840.30 0.1377
840.40 0.1376
840.50 0.1375
840.60 0.1375
840.70 0.1374
840.80 0.1373
840.90 0.1373
841.00 0.1372
841.10 0.1371
841.20 0.1371
841.30 0.137
841.40 0.137
841.50 0.1369
841.60 0.1368
841.70 0.1368
841.80 0.1367
841.90 0.1366
842.00 0.1366
842.10 0.1365
842.20 0.1364
842.30 0.1364
842.40 0.1363
842.50 0.1363
842.60 0.1362
842.70 0.1361
842.80 0.1361
842.90 0.136
843.00 0.1359
843.10 0.1359
843.20 0.1358
843.30 0.1358
843.40 0.1357
843.50 0.1356
843.60 0.1356
843.70 0.1355
843.80 0.1354
843.90 0.1354
844.00 0.1353
844.10 0.1353
844.20 0.1352
844.30 0.1351
844.40 0.1351
844.50 0.135
844.60 0.1349
844.70 0.1349
844.80 0.1348
844.90 0.1348
845.00 0.1347
845.10 0.1346
845.20 0.1346
845.30 0.1345
845.40 0.1344
845.50 0.1344
845.60 0.1343
845.70 0.1343
845.80 0.1342
845.90 0.1341
846.00 0.1341
846.10 0.134
846.20 0.1339
846.30 0.1339
846.40 0.1338
846.50 0.1338
846.60 0.1337
846.70 0.1336
846.80 0.1336
846.90 0.1335
847.00 0.1334
847.10 0.1334
847.20 0.1333
847.30 0.1333
847.40 0.1332
847.50 0.1331
847.60 0.1331
847.70 0.133
847.80 0.133
847.90 0.1329
848.00 0.1328
848.10 0.1328
848.20 0.1327
848.30 0.1327
848.40 0.1326
848.50 0.1325
848.60 0.1325
848.70 0.1324
848.80 0.1324
848.90 0.1323
849.00 0.1322
849.10 0.1322
849.20 0.1321
849.30 0.132
849.40 0.132
849.50 0.1319
849.60 0.1319
849.70 0.1318
849.80 0.1317
849.90 0.1317
850.00 0.1316
850.10 0.1316
850.20 0.1315
850.30 0.1314
850.40 0.1314
850.50 0.1313
850.60 0.1313
850.70 0.1312
850.80 0.1311
850.90 0.1311
851.00 0.131
851.10 0.131
851.20 0.1309
851.30 0.1308
851.40 0.1308
851.50 0.1307
851.60 0.1307
851.70 0.1306
851.80 0.1305
851.90 0.1305
852.00 0.1304
852.10 0.1304
852.20 0.1303
852.30 0.1302
852.40 0.1302
852.50 0.1301
852.60 0.1301
852.70 0.13
852.80 0.1299
852.90 0.1299
853.00 0.1298
853.10 0.1298
853.20 0.1297
853.30 0.1296
853.40 0.1296
853.50 0.1295
853.60 0.1295
853.70 0.1294
853.80 0.1294
853.90 0.1293
854.00 0.1292
854.10 0.1292
854.20 0.1291
854.30 0.1291
854.40 0.129
854.50 0.1289
854.60 0.1289
854.70 0.1288
854.80 0.1288
854.90 0.1287
855.00 0.1286
855.10 0.1286
855.20 0.1285
855.30 0.1285
855.40 0.1284
855.50 0.1284
855.60 0.1283
855.70 0.1282
855.80 0.1282
855.90 0.1281
856.00 0.1281
856.10 0.128
856.20 0.1279
856.30 0.1279
856.40 0.1278
856.50 0.1278
856.60 0.1277
856.70 0.1276
856.80 0.1276
856.90 0.1275
857.00 0.1275
857.10 0.1274
857.20 0.1274
857.30 0.1273
857.40 0.1272
857.50 0.1272
857.60 0.1271
857.70 0.1271
857.80 0.127
857.90 0.127
858.00 0.1269
858.10 0.1268
858.20 0.1268
858.30 0.1267
858.40 0.1267
858.50 0.1266
858.60 0.1266
858.70 0.1265
858.80 0.1265
858.90 0.1264
859.00 0.1263
859.10 0.1263
859.20 0.1262
859.30 0.1262
859.40 0.1261
859.50 0.1261
859.60 0.126
859.70 0.1259
859.80 0.1259
859.90 0.1258
860.00 0.1258
860.10 0.1257
860.20 0.1257
860.30 0.1256
860.40 0.1255
860.50 0.1255
860.60 0.1254
860.70 0.1254
860.80 0.1253
860.90 0.1253
861.00 0.1252
861.10 0.1252
861.20 0.1251
861.30 0.125
861.40 0.125
861.50 0.1249
861.60 0.1249
861.70 0.1248
861.80 0.1248
861.90 0.1247
862.00 0.1247
862.10 0.1246
862.20 0.1245
862.30 0.1245
862.40 0.1244
862.50 0.1244
862.60 0.1243
862.70 0.1243
862.80 0.1242
862.90 0.1241
863.00 0.1241
863.10 0.124
863.20 0.124
863.30 0.1239
863.40 0.1239
863.50 0.1238
863.60 0.1238
863.70 0.1237
863.80 0.1236
863.90 0.1236
864.00 0.1235
864.10 0.1235
864.20 0.1234
864.30 0.1234
864.40 0.1233
864.50 0.1232
864.60 0.1232
864.70 0.1231
864.80 0.1231
864.90 0.123
865.00 0.123
865.10 0.1229
865.20 0.1229
865.30 0.1228
865.40 0.1227
865.50 0.1227
865.60 0.1226
865.70 0.1226
865.80 0.1225
865.90 0.1225
866.00 0.1224
866.10 0.1224
866.20 0.1223
866.30 0.1222
866.40 0.1222
866.50 0.1221
866.60 0.1221
866.70 0.122
866.80 0.122
866.90 0.1219
867.00 0.1219
867.10 0.1218
867.20 0.1218
867.30 0.1217
867.40 0.1216
867.50 0.1216
867.60 0.1215
867.70 0.1215
867.80 0.1214
867.90 0.1214
868.00 0.1213
868.10 0.1213
868.20 0.1212
868.30 0.1212
868.40 0.1211
868.50 0.121
868.60 0.121
868.70 0.1209
868.80 0.1209
868.90 0.1208
869.00 0.1208
869.10 0.1207
869.20 0.1207
869.30 0.1206
869.40 0.1206
869.50 0.1205
869.60 0.1205
869.70 0.1204
869.80 0.1203
869.90 0.1203
870.00 0.1202
870.10 0.1202
870.20 0.1201
870.30 0.1201
870.40 0.12
870.50 0.12
870.60 0.1199
870.70 0.1199
870.80 0.1198
870.90 0.1198
871.00 0.1197
871.10 0.1196
871.20 0.1196
871.30 0.1195
871.40 0.1195
871.50 0.1194
871.60 0.1194
871.70 0.1193
871.80 0.1193
871.90 0.1192
872.00 0.1192
872.10 0.1191
872.20 0.1191
872.30 0.119
872.40 0.119
872.50 0.1189
872.60 0.1188
872.70 0.1188
872.80 0.1187
872.90 0.1187
873.00 0.1186
873.10 0.1186
873.20 0.1185
873.30 0.1185
873.40 0.1184
873.50 0.1184
873.60 0.1183
873.70 0.1183
873.80 0.1182
873.90 0.1182
874.00 0.1181
874.10 0.1181
874.20 0.118
874.30 0.1179
874.40 0.1179
874.50 0.1178
874.60 0.1178
874.70 0.1177
874.80 0.1177
874.90 0.1176
875.00 0.1176
875.10 0.1175
875.20 0.1175
875.30 0.1174
875.40 0.1174
875.50 0.1173
875.60 0.1173
875.70 0.1172
875.80 0.1172
875.90 0.1171
876.00 0.1171
876.10 0.117
876.20 0.117
876.30 0.1169
876.40 0.1168
876.50 0.1168
876.60 0.1167
876.70 0.1167
876.80 0.1166
876.90 0.1166
877.00 0.1165
877.10 0.1165
877.20 0.1164
877.30 0.1164
877.40 0.1163
877.50 0.1163
877.60 0.1162
877.70 0.1162
877.80 0.1161
877.90 0.1161
878.00 0.116
878.10 0.116
878.20 0.1159
878.30 0.1159
878.40 0.1158
878.50 0.1158
878.60 0.1157
878.70 0.1157
878.80 0.1156
878.90 0.1156
879.00 0.1155
879.10 0.1155
879.20 0.1154
879.30 0.1154
879.40 0.1153
879.50 0.1153
879.60 0.1152
879.70 0.1152
879.80 0.1151
879.90 0.1151
880.00 0.115
880.10 0.115
880.20 0.1149
880.30 0.1148
880.40 0.1148
880.50 0.1147
880.60 0.1147
880.70 0.1146
880.80 0.1146
880.90 0.1145
881.00 0.1145
881.10 0.1144
881.20 0.1144
881.30 0.1143
881.40 0.1143
881.50 0.1142
881.60 0.1142
881.70 0.1141
881.80 0.1141
881.90 0.114
882.00 0.114
882.10 0.1139
882.20 0.1139
882.30 0.1138
882.40 0.1138
882.50 0.1137
882.60 0.1137
882.70 0.1136
882.80 0.1136
882.90 0.1135
883.00 0.1135
883.10 0.1134
883.20 0.1134
883.30 0.1133
883.40 0.1133
883.50 0.1132
883.60 0.1132
883.70 0.1131
883.80 0.1131
883.90 0.113
884.00 0.113
884.10 0.1129
884.20 0.1129
884.30 0.1128
884.40 0.1128
884.50 0.1127
884.60 0.1127
884.70 0.1126
884.80 0.1126
884.90 0.1125
885.00 0.1125
885.10 0.1124
885.20 0.1124
885.30 0.1123
885.40 0.1123
885.50 0.1122
885.60 0.1122
885.70 0.1121
885.80 0.1121
885.90 0.1121
886.00 0.112
886.10 0.112
886.20 0.1119
886.30 0.1119
886.40 0.1118
886.50 0.1118
886.60 0.1117
886.70 0.1117
886.80 0.1116
886.90 0.1116
887.00 0.1115
887.10 0.1115
887.20 0.1114
887.30 0.1114
887.40 0.1113
887.50 0.1113
887.60 0.1112
887.70 0.1112
887.80 0.1111
887.90 0.1111
888.00 0.111
888.10 0.111
888.20 0.1109
888.30 0.1109
888.40 0.1108
888.50 0.1108
888.60 0.1107
888.70 0.1107
888.80 0.1106
888.90 0.1106
889.00 0.1105
889.10 0.1105
889.20 0.1104
889.30 0.1104
889.40 0.1103
889.50 0.1103
889.60 0.1103
889.70 0.1102
889.80 0.1102
889.90 0.1101
890.00 0.1101
890.10 0.11
890.20 0.11
890.30 0.1099
890.40 0.1099
890.50 0.1098
890.60 0.1098
890.70 0.1097
890.80 0.1097
890.90 0.1096
891.00 0.1096
891.10 0.1095
891.20 0.1095
891.30 0.1094
891.40 0.1094
891.50 0.1093
891.60 0.1093
891.70 0.1092
891.80 0.1092
891.90 0.1092
892.00 0.1091
892.10 0.1091
892.20 0.109
892.30 0.109
892.40 0.1089
892.50 0.1089
892.60 0.1088
892.70 0.1088
892.80 0.1087
892.90 0.1087
893.00 0.1086
893.10 0.1086
893.20 0.1085
893.30 0.1085
893.40 0.1084
893.50 0.1084
893.60 0.1083
893.70 0.1083
893.80 0.1083
893.90 0.1082
894.00 0.1082
894.10 0.1081
894.20 0.1081
894.30 0.108
894.40 0.108
894.50 0.1079
894.60 0.1079
894.70 0.1078
894.80 0.1078
894.90 0.1077
895.00 0.1077
895.10 0.1076
895.20 0.1076
895.30 0.1076
895.40 0.1075
895.50 0.1075
895.60 0.1074
895.70 0.1074
895.80 0.1073
895.90 0.1073
896.00 0.1072
896.10 0.1072
896.20 0.1071
896.30 0.1071
896.40 0.107
896.50 0.107
896.60 0.107
896.70 0.1069
896.80 0.1069
896.90 0.1068
897.00 0.1068
897.10 0.1067
897.20 0.1067
897.30 0.1066
897.40 0.1066
897.50 0.1065
897.60 0.1065
897.70 0.1064
897.80 0.1064
897.90 0.1064
898.00 0.1063
898.10 0.1063
898.20 0.1062
898.30 0.1062
898.40 0.1061
898.50 0.1061
898.60 0.106
898.70 0.106
898.80 0.1059
898.90 0.1059
899.00 0.1058
899.10 0.1058
899.20 0.1058
899.30 0.1057
899.40 0.1057
899.50 0.1056
899.60 0.1056
899.70 0.1055
899.80 0.1055
899.90 0.1054
900.00 0.1054
900.10 0.1053
900.20 0.1053
900.30 0.1053
900.40 0.1052
900.50 0.1052
900.60 0.1051
900.70 0.1051
900.80 0.105
900.90 0.105
901.00 0.1049
901.10 0.1049
901.20 0.1049
901.30 0.1048
901.40 0.1048
901.50 0.1047
901.60 0.1047
901.70 0.1046
901.80 0.1046
901.90 0.1045
902.00 0.1045
902.10 0.1044
902.20 0.1044
902.30 0.1044
902.40 0.1043
902.50 0.1043
902.60 0.1042
902.70 0.1042
902.80 0.1041
902.90 0.1041
903.00 0.104
903.10 0.104
903.20 0.104
903.30 0.1039
903.40 0.1039
903.50 0.1038
903.60 0.1038
903.70 0.1037
903.80 0.1037
903.90 0.1036
904.00 0.1036
904.10 0.1036
904.20 0.1035
904.30 0.1035
904.40 0.1034
904.50 0.1034
904.60 0.1033
904.70 0.1033
904.80 0.1032
904.90 0.1032
905.00 0.1032
905.10 0.1031
905.20 0.1031
905.30 0.103
905.40 0.103
905.50 0.1029
905.60 0.1029
905.70 0.1029
905.80 0.1028
905.90 0.1028
906.00 0.1027
906.10 0.1027
906.20 0.1026
906.30 0.1026
906.40 0.1025
906.50 0.1025
906.60 0.1025
906.70 0.1024
906.80 0.1024
906.90 0.1023
907.00 0.1023
907.10 0.1022
907.20 0.1022
907.30 0.1022
907.40 0.1021
907.50 0.1021
907.60 0.102
907.70 0.102
907.80 0.1019
907.90 0.1019
908.00 0.1018
908.10 0.1018
908.20 0.1018
908.30 0.1017
908.40 0.1017
908.50 0.1016
908.60 0.1016
908.70 0.1015
908.80 0.1015
908.90 0.1015
909.00 0.1014
909.10 0.1014
909.20 0.1013
909.30 0.1013
909.40 0.1012
909.50 0.1012
909.60 0.1012
909.70 0.1011
909.80 0.1011
909.90 0.101
910.00 0.101
910.10 0.1009
910.20 0.1009
910.30 0.1009
910.40 0.1008
910.50 0.1008
910.60 0.1007
910.70 0.1007
910.80 0.1006
910.90 0.1006
911.00 0.1006
911.10 0.1005
911.20 0.1005
911.30 0.1004
911.40 0.1004
911.50 0.1003
911.60 0.1003
911.70 0.1003
911.80 0.1002
911.90 0.1002
912.00 0.1001
912.10 0.1001
912.20 0.1
912.30 0.1
912.40 0.09996
912.50 0.09992
912.60 0.09988
912.70 0.09984
912.80 0.09979
912.90 0.09975
913.00 0.09971
913.10 0.09967
913.20 0.09963
913.30 0.09958
913.40 0.09954
913.50 0.0995
913.60 0.09946
913.70 0.09942
913.80 0.09937
913.90 0.09933
914.00 0.09929
914.10 0.09925
914.20 0.09921
914.30 0.09916
914.40 0.09912
914.50 0.09908
914.60 0.09904
914.70 0.099
914.80 0.09895
914.90 0.09891
915.00 0.09887
915.10 0.09883
915.20 0.09879
915.30 0.09874
915.40 0.0987
915.50 0.09866
915.60 0.09862
915.70 0.09858
915.80 0.09854
915.90 0.09849
916.00 0.09845
916.10 0.09841
916.20 0.09837
916.30 0.09833
916.40 0.09829
916.50 0.09824
916.60 0.0982
916.70 0.09816
916.80 0.09812
916.90 0.09808
917.00 0.09804
917.10 0.09799
917.20 0.09795
917.30 0.09791
917.40 0.09787
917.50 0.09783
917.60 0.09779
917.70 0.09775
917.80 0.09771
917.90 0.09767
918.00 0.09763
918.10 0.09758
918.20 0.09754
918.30 0.0975
918.40 0.09746
918.50 0.09742
918.60 0.09738
918.70 0.09734
918.80 0.0973
918.90 0.09726
919.00 0.09722
919.10 0.09718
919.20 0.09714
919.30 0.09709
919.40 0.09705
919.50 0.09701
919.60 0.09697
919.70 0.09693
919.80 0.09689
919.90 0.09685
920.00 0.09681
920.10 0.09677
920.20 0.09673
920.30 0.09669
920.40 0.09665
920.50 0.09661
920.60 0.09657
920.70 0.09653
920.80 0.09649
920.90 0.09644
921.00 0.0964
921.10 0.09636
921.20 0.09632
921.30 0.09628
921.40 0.09624
921.50 0.0962
921.60 0.09616
921.70 0.09612
921.80 0.09608
921.90 0.09604
922.00 0.096
922.10 0.09596
922.20 0.09592
922.30 0.09588
922.40 0.09584
922.50 0.0958
922.60 0.09576
922.70 0.09572
922.80 0.09568
922.90 0.09564
923.00 0.0956
923.10 0.09556
923.20 0.09552
923.30 0.09548
923.40 0.09544
923.50 0.0954
923.60 0.09537
923.70 0.09533
923.80 0.09529
923.90 0.09525
924.00 0.09521
924.10 0.09517
924.20 0.09513
924.30 0.09509
924.40 0.09505
924.50 0.09501
924.60 0.09497
924.70 0.09493
924.80 0.09489
924.90 0.09485
925.00 0.09481
925.10 0.09477
925.20 0.09473
925.30 0.09469
925.40 0.09466
925.50 0.09462
925.60 0.09458
925.70 0.09454
925.80 0.0945
925.90 0.09446
926.00 0.09442
926.10 0.09438
926.20 0.09434
926.30 0.0943
926.40 0.09426
926.50 0.09422
926.60 0.09418
926.70 0.09415
926.80 0.09411
926.90 0.09407
927.00 0.09403
927.10 0.09399
927.20 0.09395
927.30 0.09391
927.40 0.09387
927.50 0.09383
927.60 0.0938
927.70 0.09376
927.80 0.09372
927.90 0.09368
928.00 0.09364
928.10 0.0936
928.20 0.09356
928.30 0.09353
928.40 0.09349
928.50 0.09345
928.60 0.09341
928.70 0.09337
928.80 0.09333
928.90 0.0933
929.00 0.09326
929.10 0.09322
929.20 0.09318
929.30 0.09314
929.40 0.0931
929.50 0.09307
929.60 0.09303
929.70 0.09299
929.80 0.09295
929.90 0.09291
930.00 0.09287
930.10 0.09284
930.20 0.0928
930.30 0.09276
930.40 0.09272
930.50 0.09268
930.60 0.09265
930.70 0.09261
930.80 0.09257
930.90 0.09253
931.00 0.09249
931.10 0.09245
931.20 0.09242
931.30 0.09238
931.40 0.09234
931.50 0.0923
931.60 0.09226
931.70 0.09223
931.80 0.09219
931.90 0.09215
932.00 0.09211
932.10 0.09207
932.20 0.09204
932.30 0.092
932.40 0.09196
932.50 0.09192
932.60 0.09188
932.70 0.09185
932.80 0.09181
932.90 0.09177
933.00 0.09173
933.10 0.0917
933.20 0.09166
933.30 0.09162
933.40 0.09158
933.50 0.09154
933.60 0.09151
933.70 0.09147
933.80 0.09143
933.90 0.09139
934.00 0.09136
934.10 0.09132
934.20 0.09128
934.30 0.09124
934.40 0.09121
934.50 0.09117
934.60 0.09113
934.70 0.09109
934.80 0.09106
934.90 0.09102
935.00 0.09098
935.10 0.09094
935.20 0.0909
935.30 0.09087
935.40 0.09083
935.50 0.09079
935.60 0.09075
935.70 0.09072
935.80 0.09068
935.90 0.09064
936.00 0.0906
936.10 0.09057
936.20 0.09053
936.30 0.09049
936.40 0.09046
936.50 0.09042
936.60 0.09038
936.70 0.09034
936.80 0.09031
936.90 0.09027
937.00 0.09023
937.10 0.09019
937.20 0.09016
937.30 0.09012
937.40 0.09008
937.50 0.09004
937.60 0.09001
937.70 0.08997
937.80 0.08993
937.90 0.0899
938.00 0.08986
938.10 0.08982
938.20 0.08978
938.30 0.08975
938.40 0.08971
938.50 0.08967
938.60 0.08963
938.70 0.0896
938.80 0.08956
938.90 0.08952
939.00 0.08949
939.10 0.08945
939.20 0.08941
939.30 0.08937
939.40 0.08934
939.50 0.0893
939.60 0.08926
939.70 0.08923
939.80 0.08919
939.90 0.08915
940.00 0.08912
940.10 0.08908
940.20 0.08904
940.30 0.089
940.40 0.08897
940.50 0.08893
940.60 0.08889
940.70 0.08886
940.80 0.08882
940.90 0.08878
941.00 0.08875
941.10 0.08871
941.20 0.08867
941.30 0.08864
941.40 0.0886
941.50 0.08856
941.60 0.08852
941.70 0.08849
941.80 0.08845
941.90 0.08841
942.00 0.08838
942.10 0.08834
942.20 0.0883
942.30 0.08827
942.40 0.08823
942.50 0.08819
942.60 0.08816
942.70 0.08812
942.80 0.08808
942.90 0.08805
943.00 0.08801
943.10 0.08797
943.20 0.08794
943.30 0.0879
943.40 0.08786
943.50 0.08783
943.60 0.08779
943.70 0.08775
943.80 0.08772
943.90 0.08768
944.00 0.08764
944.10 0.08761
944.20 0.08757
944.30 0.08753
944.40 0.0875
944.50 0.08746
944.60 0.08742
944.70 0.08739
944.80 0.08735
944.90 0.08731
945.00 0.08728
945.10 0.08724
945.20 0.0872
945.30 0.08717
945.40 0.08713
945.50 0.0871
945.60 0.08706
945.70 0.08702
945.80 0.08699
945.90 0.08695
946.00 0.08691
946.10 0.08688
946.20 0.08684
946.30 0.0868
946.40 0.08677
946.50 0.08673
946.60 0.0867
946.70 0.08666
946.80 0.08662
946.90 0.08659
947.00 0.08655
947.10 0.08651
947.20 0.08648
947.30 0.08644
947.40 0.08641
947.50 0.08637
947.60 0.08633
947.70 0.0863
947.80 0.08626
947.90 0.08623
948.00 0.08619
948.10 0.08615
948.20 0.08612
948.30 0.08608
948.40 0.08605
948.50 0.08601
948.60 0.08597
948.70 0.08594
948.80 0.0859
948.90 0.08587
949.00 0.08583
949.10 0.08579
949.20 0.08576
949.30 0.08572
949.40 0.08569
949.50 0.08565
949.60 0.08562
949.70 0.08558
949.80 0.08554
949.90 0.08551
950.00 0.08547
950.10 0.08544
950.20 0.0854
950.30 0.08537
950.40 0.08533
950.50 0.0853
950.60 0.08526
950.70 0.08522
950.80 0.08519
950.90 0.08515
951.00 0.08512
951.10 0.08508
951.20 0.08505
951.30 0.08501
951.40 0.08498
951.50 0.08494
951.60 0.08491
951.70 0.08487
951.80 0.08484
951.90 0.0848
952.00 0.08477
952.10 0.08473
952.20 0.0847
952.30 0.08466
952.40 0.08463
952.50 0.08459
952.60 0.08456
952.70 0.08452
952.80 0.08449
952.90 0.08445
953.00 0.08442
953.10 0.08439
953.20 0.08435
953.30 0.08432
953.40 0.08428
953.50 0.08425
953.60 0.08421
953.70 0.08418
953.80 0.08415
953.90 0.08411
954.00 0.08408
954.10 0.08405
954.20 0.08401
954.30 0.08398
954.40 0.08395
954.50 0.08391
954.60 0.08388
954.70 0.08384
954.80 0.08381
954.90 0.08378
955.00 0.08374
955.10 0.08371
955.20 0.08368
955.30 0.08364
955.40 0.08361
955.50 0.08358
955.60 0.08354
955.70 0.08351
955.80 0.08348
955.90 0.08345
956.00 0.08341
956.10 0.08338
956.20 0.08335
956.30 0.08331
956.40 0.08328
956.50 0.08325
956.60 0.08322
956.70 0.08318
956.80 0.08315
956.90 0.08312
957.00 0.08309
957.10 0.08305
957.20 0.08302
957.30 0.08299
957.40 0.08296
957.50 0.08293
957.60 0.08289
957.70 0.08286
957.80 0.08283
957.90 0.0828
958.00 0.08277
958.10 0.08274
958.20 0.0827
958.30 0.08267
958.40 0.08264
958.50 0.08261
958.60 0.08258
958.70 0.08254
958.80 0.08251
958.90 0.08248
959.00 0.08245
959.10 0.08242
959.20 0.08239
959.30 0.08235
959.40 0.08232
959.50 0.08229
959.60 0.08226
959.70 0.08223
959.80 0.0822
959.90 0.08216
960.00 0.08213
960.10 0.0821
960.20 0.08207
960.30 0.08204
960.40 0.08201
960.50 0.08198
960.60 0.08194
960.70 0.08191
960.80 0.08188
960.90 0.08185
961.00 0.08182
961.10 0.08179
961.20 0.08176
961.30 0.08172
961.40 0.08169
961.50 0.08166
961.60 0.08163
961.70 0.0816
961.80 0.08157
961.90 0.08154
962.00 0.08151
962.10 0.08147
962.20 0.08144
962.30 0.08141
962.40 0.08138
962.50 0.08135
962.60 0.08132
962.70 0.08129
962.80 0.08126
962.90 0.08122
963.00 0.08119
963.10 0.08116
963.20 0.08113
963.30 0.0811
963.40 0.08107
963.50 0.08104
963.60 0.08101
963.70 0.08098
963.80 0.08094
963.90 0.08091
964.00 0.08088
964.10 0.08085
964.20 0.08082
964.30 0.08079
964.40 0.08076
964.50 0.08073
964.60 0.0807
964.70 0.08066
964.80 0.08063
964.90 0.0806
965.00 0.08057
965.10 0.08054
965.20 0.08051
965.30 0.08048
965.40 0.08045
965.50 0.08042
965.60 0.08039
965.70 0.08035
965.80 0.08032
965.90 0.08029
966.00 0.08026
966.10 0.08023
966.20 0.0802
966.30 0.08017
966.40 0.08014
966.50 0.08011
966.60 0.08008
966.70 0.08005
966.80 0.08001
966.90 0.07998
967.00 0.07995
967.10 0.07992
967.20 0.07989
967.30 0.07986
967.40 0.07983
967.50 0.0798
967.60 0.07977
967.70 0.07974
967.80 0.0797
967.90 0.07967
968.00 0.07964
968.10 0.07961
968.20 0.07958
968.30 0.07955
968.40 0.07952
968.50 0.07949
968.60 0.07946
968.70 0.07943
968.80 0.0794
968.90 0.07936
969.00 0.07933
969.10 0.0793
969.20 0.07927
969.30 0.07924
969.40 0.07921
969.50 0.07918
969.60 0.07915
969.70 0.07912
969.80 0.07909
969.90 0.07906
970.00 0.07902
970.10 0.07899
970.20 0.07896
970.30 0.07893
970.40 0.0789
970.50 0.07887
970.60 0.07884
970.70 0.07881
970.80 0.07878
970.90 0.07875
971.00 0.07872
971.10 0.07868
971.20 0.07865
971.30 0.07862
971.40 0.07859
971.50 0.07856
971.60 0.07853
971.70 0.0785
971.80 0.07847
971.90 0.07844
972.00 0.07841
972.10 0.07838
972.20 0.07834
972.30 0.07831
972.40 0.07828
972.50 0.07825
972.60 0.07822
972.70 0.07819
972.80 0.07816
972.90 0.07813
973.00 0.0781
973.10 0.07807
973.20 0.07804
973.30 0.07801
973.40 0.07797
973.50 0.07794
973.60 0.07791
973.70 0.07788
973.80 0.07785
973.90 0.07782
974.00 0.07779
974.10 0.07776
974.20 0.07773
974.30 0.0777
974.40 0.07767
974.50 0.07764
974.60 0.0776
974.70 0.07757
974.80 0.07754
974.90 0.07751
975.00 0.07748
975.10 0.07745
975.20 0.07742
975.30 0.07739
975.40 0.07736
975.50 0.07733
975.60 0.0773
975.70 0.07726
975.80 0.07723
975.90 0.0772
976.00 0.07717
976.10 0.07714
976.20 0.07711
976.30 0.07708
976.40 0.07705
976.50 0.07702
976.60 0.07699
976.70 0.07696
976.80 0.07693
976.90 0.0769
977.00 0.07686
977.10 0.07683
977.20 0.0768
977.30 0.07677
977.40 0.07674
977.50 0.07671
977.60 0.07668
977.70 0.07665
977.80 0.07662
977.90 0.07658
978.00 0.07655
978.10 0.07652
978.20 0.07649
978.30 0.07646
978.40 0.07643
978.50 0.0764
978.60 0.07637
978.70 0.07634
978.80 0.07631
978.90 0.07627
979.00 0.07624
979.10 0.07621
979.20 0.07618
979.30 0.07615
979.40 0.07612
979.50 0.07609
979.60 0.07606
979.70 0.07603
979.80 0.076
979.90 0.07597
980.00 0.07593
980.10 0.0759
980.20 0.07587
980.30 0.07584
980.40 0.07581
980.50 0.07578
980.60 0.07575
980.70 0.07572
980.80 0.07569
980.90 0.07566
981.00 0.07563
981.10 0.0756
981.20 0.07557
981.30 0.07553
981.40 0.0755
981.50 0.07547
981.60 0.07544
981.70 0.07541
981.80 0.07538
981.90 0.07535
982.00 0.07532
982.10 0.07529
982.20 0.07526
982.30 0.07523
982.40 0.0752
982.50 0.07516
982.60 0.07513
982.70 0.0751
982.80 0.07507
982.90 0.07504
983.00 0.07501
983.10 0.07498
983.20 0.07495
983.30 0.07492
983.40 0.07489
983.50 0.07485
983.60 0.07482
983.70 0.07479
983.80 0.07476
983.90 0.07473
984.00 0.0747
984.10 0.07467
984.20 0.07464
984.30 0.07461
984.40 0.07458
984.50 0.07455
984.60 0.07451
984.70 0.07448
984.80 0.07445
984.90 0.07442
985.00 0.07439
985.10 0.07436
985.20 0.07433
985.30 0.0743
985.40 0.07427
985.50 0.07423
985.60 0.0742
985.70 0.07417
985.80 0.07414
985.90 0.07411
986.00 0.07408
986.10 0.07405
986.20 0.07402
986.30 0.07399
986.40 0.07395
986.50 0.07392
986.60 0.07389
986.70 0.07386
986.80 0.07383
986.90 0.0738
987.00 0.07377
987.10 0.07374
987.20 0.07371
987.30 0.07367
987.40 0.07364
987.50 0.07361
987.60 0.07358
987.70 0.07355
987.80 0.07352
987.90 0.07349
988.00 0.07346
988.10 0.07343
988.20 0.07339
988.30 0.07336
988.40 0.07333
988.50 0.0733
988.60 0.07327
988.70 0.07324
988.80 0.07321
988.90 0.07318
989.00 0.07314
989.10 0.07311
989.20 0.07308
989.30 0.07305
989.40 0.07302
989.50 0.07299
989.60 0.07296
989.70 0.07293
989.80 0.07289
989.90 0.07286
990.00 0.07283
990.10 0.0728
990.20 0.07277
990.30 0.07274
990.40 0.07271
990.50 0.07268
990.60 0.07264
990.70 0.07261
990.80 0.07258
990.90 0.07255
991.00 0.07252
991.10 0.07249
991.20 0.07246
991.30 0.07243
991.40 0.07239
991.50 0.07236
991.60 0.07233
991.70 0.0723
991.80 0.07227
991.90 0.07224
992.00 0.07221
992.10 0.07217
992.20 0.07214
992.30 0.07211
992.40 0.07208
992.50 0.07205
992.60 0.07202
992.70 0.07199
992.80 0.07195
992.90 0.07192
993.00 0.07189
993.10 0.07186
993.20 0.07183
993.30 0.0718
993.40 0.07176
993.50 0.07173
993.60 0.0717
993.70 0.07167
993.80 0.07164
993.90 0.07161
994.00 0.07158
994.10 0.07154
994.20 0.07151
994.30 0.07148
994.40 0.07145
994.50 0.07142
994.60 0.07139
994.70 0.07136
994.80 0.07132
994.90 0.07129
995.00 0.07126
995.10 0.07123
995.20 0.0712
995.30 0.07117
995.40 0.07114
995.50 0.0711
995.60 0.07107
995.70 0.07104
995.80 0.07101
995.90 0.07098
996.00 0.07095
996.10 0.07091
996.20 0.07088
996.30 0.07085
996.40 0.07082
996.50 0.07079
996.60 0.07076
996.70 0.07073
996.80 0.07069
996.90 0.07066
997.00 0.07063
997.10 0.0706
997.20 0.07057
997.30 0.07054
997.40 0.07051
997.50 0.07047
997.60 0.07044
997.70 0.07041
997.80 0.07038
997.90 0.07035
998.00 0.07032
998.10 0.07029
998.20 0.07026
998.30 0.07022
998.40 0.07019
998.50 0.07016
998.60 0.07013
998.70 0.0701
998.80 0.07007
998.90 0.07004
999.00 0.07001
999.10 0.06998
999.20 0.06994
999.30 0.06991
999.40 0.06988
999.50 0.06985
999.60 0.06982
999.70 0.06979
999.80 0.06976
999.90 0.06973
1000.00 0.06969
1000.10 0.06966
1000.20 0.06963
1000.30 0.0696
1000.40 0.06957
1000.50 0.06954
1000.60 0.06951
1000.70 0.06948
1000.80 0.06944
1000.90 0.06941
1001.00 0.06938
1001.10 0.06935
1001.20 0.06932
1001.30 0.06929
1001.40 0.06926
1001.50 0.06923
1001.60 0.06919
1001.70 0.06916
1001.80 0.06914
1001.90 0.06911
1002.00 0.06908
1002.10 0.06905
1002.20 0.06902
1002.30 0.06899
1002.40 0.06897
1002.50 0.06894
1002.60 0.06891
1002.70 0.06888
1002.80 0.06885
1002.90 0.06883
1003.00 0.0688
1003.10 0.06877
1003.20 0.06874
1003.30 0.06872
1003.40 0.06869
1003.50 0.06867
1003.60 0.06864
1003.70 0.06862
1003.80 0.06859
1003.90 0.06857
1004.00 0.06854
1004.10 0.06852
1004.20 0.06849
1004.30 0.06847
1004.40 0.06845
1004.50 0.06842
1004.60 0.0684
1004.70 0.06838
1004.80 0.06835
1004.90 0.06833
1005.00 0.0683
1005.10 0.06828
1005.20 0.06825
1005.30 0.06822
1005.40 0.06819
1005.50 0.06816
1005.60 0.06813
1005.70 0.06811
1005.80 0.06808
1005.90 0.06805
1006.00 0.06802
1006.10 0.06799
1006.20 0.06797
1006.30 0.06794
1006.40 0.06792
1006.50 0.06789
1006.60 0.06786
1006.70 0.06784
1006.80 0.06781
1006.90 0.06779
1007.00 0.06776
1007.10 0.06774
1007.20 0.06771
1007.30 0.06769
1007.40 0.06767
1007.50 0.06764
1007.60 0.06762
1007.70 0.0676
1007.80 0.06757
1007.90 0.06755
1008.00 0.06753
1008.10 0.06751
1008.20 0.06748
1008.30 0.06746
1008.40 0.06744
1008.50 0.06742
1008.60 0.0674
1008.70 0.06737
1008.80 0.06735
1008.90 0.06733
1009.00 0.06731
1009.10 0.06728
1009.20 0.06726
1009.30 0.06724
1009.40 0.06722
1009.50 0.06719
1009.60 0.06717
1009.70 0.06715
1009.80 0.06713
1009.90 0.06711
1010.00 0.06709
1010.10 0.06707
1010.20 0.06704
1010.30 0.06702
1010.40 0.067
1010.50 0.06698
1010.60 0.06696
1010.70 0.06694
1010.80 0.06692
1010.90 0.06689
1011.00 0.06687
1011.10 0.06685
1011.20 0.06683
1011.30 0.06681
1011.40 0.06679
1011.50 0.06677
1011.60 0.06675
1011.70 0.06672
1011.80 0.0667
1011.90 0.06668
1012.00 0.06666
1012.10 0.06664
1012.20 0.06662
1012.30 0.0666
1012.40 0.06658
1012.50 0.06656
1012.60 0.06654
1012.70 0.06651
1012.80 0.06649
1012.90 0.06647
1013.00 0.06645
1013.10 0.06643
1013.20 0.06641
1013.30 0.06639
1013.40 0.06637
1013.50 0.06635
1013.60 0.06632
1013.70 0.0663
1013.80 0.06628
1013.90 0.06626
1014.00 0.06624
1014.10 0.06622
1014.20 0.0662
1014.30 0.06618
1014.40 0.06616
1014.50 0.06614
1014.60 0.06611
1014.70 0.06609
1014.80 0.06607
1014.90 0.06605
1015.00 0.06603
1015.10 0.06601
1015.20 0.06599
1015.30 0.06597
1015.40 0.06594
1015.50 0.06592
1015.60 0.0659
1015.70 0.06588
1015.80 0.06586
1015.90 0.06584
1016.00 0.06582
1016.10 0.0658
1016.20 0.06577
1016.30 0.06575
1016.40 0.06573
1016.50 0.06571
1016.60 0.06569
1016.70 0.06567
1016.80 0.06565
1016.90 0.06563
1017.00 0.0656
1017.10 0.06558
1017.20 0.06556
1017.30 0.06554
1017.40 0.06552
1017.50 0.0655
1017.60 0.06548
1017.70 0.06545
1017.80 0.06543
1017.90 0.06541
1018.00 0.06539
1018.10 0.06537
1018.20 0.06535
1018.30 0.06533
1018.40 0.0653
1018.50 0.06528
1018.60 0.06526
1018.70 0.06524
1018.80 0.06522
1018.90 0.0652
1019.00 0.06517
1019.10 0.06515
1019.20 0.06513
1019.30 0.06511
1019.40 0.06509
1019.50 0.06507
1019.60 0.06504
1019.70 0.06502
1019.80 0.065
1019.90 0.06498
1020.00 0.06496
1020.10 0.06494
1020.20 0.06492
1020.30 0.06489
1020.40 0.06487
1020.50 0.06485
1020.60 0.06483
1020.70 0.06481
1020.80 0.06479
1020.90 0.06476
1021.00 0.06474
1021.10 0.06472
1021.20 0.0647
1021.30 0.06468
1021.40 0.06465
1021.50 0.06463
1021.60 0.06461
1021.70 0.06459
1021.80 0.06457
1021.90 0.06455
1022.00 0.06452
1022.10 0.0645
1022.20 0.06448
1022.30 0.06446
1022.40 0.06444
1022.50 0.06441
1022.60 0.06439
1022.70 0.06437
1022.80 0.06435
1022.90 0.06433
1023.00 0.0643
1023.10 0.06428
1023.20 0.06426
1023.30 0.06424
1023.40 0.06422
1023.50 0.06419
1023.60 0.06417
1023.70 0.06415
1023.80 0.06413
1023.90 0.06411
1024.00 0.06408
1024.10 0.06406
1024.20 0.06404
1024.30 0.06402
1024.40 0.064
1024.50 0.06397
1024.60 0.06395
1024.70 0.06393
1024.80 0.06391
1024.90 0.06389
1025.00 0.06386
1025.10 0.06384
1025.20 0.06382
1025.30 0.0638
1025.40 0.06378
1025.50 0.06375
1025.60 0.06373
1025.70 0.06371
1025.80 0.06369
1025.90 0.06366
1026.00 0.06364
1026.10 0.06362
1026.20 0.0636
1026.30 0.06358
1026.40 0.06355
1026.50 0.06353
1026.60 0.06351
1026.70 0.06349
1026.80 0.06347
1026.90 0.06344
1027.00 0.06342
1027.10 0.0634
1027.20 0.06338
1027.30 0.06335
1027.40 0.06333
1027.50 0.06331
1027.60 0.06329
1027.70 0.06326
1027.80 0.06324
1027.90 0.06322
1028.00 0.0632
1028.10 0.06318
1028.20 0.06315
1028.30 0.06313
1028.40 0.06311
1028.50 0.06309
1028.60 0.06306
1028.70 0.06304
1028.80 0.06302
1028.90 0.063
1029.00 0.06297
1029.10 0.06295
1029.20 0.06293
1029.30 0.06291
1029.40 0.06289
1029.50 0.06286
1029.60 0.06284
1029.70 0.06282
1029.80 0.0628
1029.90 0.06277
1030.00 0.06275
1030.10 0.06273
1030.20 0.06271
1030.30 0.06269
1030.40 0.06266
1030.50 0.06264
1030.60 0.06262
1030.70 0.0626
1030.80 0.06257
1030.90 0.06255
1031.00 0.06253
1031.10 0.06251
1031.20 0.06249
1031.30 0.06246
1031.40 0.06244
1031.50 0.06242
1031.60 0.0624
1031.70 0.06238
1031.80 0.06235
1031.90 0.06233
1032.00 0.06231
1032.10 0.06229
1032.20 0.06226
1032.30 0.06224
1032.40 0.06222
1032.50 0.0622
1032.60 0.06217
1032.70 0.06215
1032.80 0.06213
1032.90 0.06211
1033.00 0.06208
1033.10 0.06206
1033.20 0.06204
1033.30 0.06202
1033.40 0.06199
1033.50 0.06197
1033.60 0.06195
1033.70 0.06193
1033.80 0.06191
1033.90 0.06188
1034.00 0.06186
1034.10 0.06184
1034.20 0.06182
1034.30 0.06179
1034.40 0.06177
1034.50 0.06175
1034.60 0.06173
1034.70 0.0617
1034.80 0.06168
1034.90 0.06166
1035.00 0.06164
1035.10 0.06161
1035.20 0.06159
1035.30 0.06157
1035.40 0.06155
1035.50 0.06153
1035.60 0.0615
1035.70 0.06148
1035.80 0.06146
1035.90 0.06144
1036.00 0.06141
1036.10 0.06139
1036.20 0.06137
1036.30 0.06135
1036.40 0.06133
1036.50 0.0613
1036.60 0.06128
1036.70 0.06126
1036.80 0.06124
1036.90 0.06122
1037.00 0.06119
1037.10 0.06117
1037.20 0.06115
1037.30 0.06113
1037.40 0.0611
1037.50 0.06108
1037.60 0.06106
1037.70 0.06104
1037.80 0.06101
1037.90 0.06099
1038.00 0.06097
1038.10 0.06095
1038.20 0.06092
1038.30 0.0609
1038.40 0.06088
1038.50 0.06086
1038.60 0.06084
1038.70 0.06081
1038.80 0.06079
1038.90 0.06077
1039.00 0.06075
1039.10 0.06072
1039.20 0.0607
1039.30 0.06068
1039.40 0.06066
1039.50 0.06063
1039.60 0.06061
1039.70 0.06059
1039.80 0.06057
1039.90 0.06055
1040.00 0.06052
1040.10 0.0605
1040.20 0.06048
1040.30 0.06046
1040.40 0.06044
1040.50 0.06041
1040.60 0.06039
1040.70 0.06037
1040.80 0.06035
1040.90 0.06032
1041.00 0.0603
1041.10 0.06028
1041.20 0.06026
1041.30 0.06024
1041.40 0.06021
1041.50 0.06019
1041.60 0.06017
1041.70 0.06015
1041.80 0.06013
1041.90 0.0601
1042.00 0.06008
1042.10 0.06006
1042.20 0.06004
1042.30 0.06001
1042.40 0.05999
1042.50 0.05997
1042.60 0.05995
1042.70 0.05993
1042.80 0.0599
1042.90 0.05988
1043.00 0.05986
1043.10 0.05984
1043.20 0.05981
1043.30 0.05979
1043.40 0.05977
1043.50 0.05975
1043.60 0.05973
1043.70 0.0597
1043.80 0.05968
1043.90 0.05966
1044.00 0.05964
1044.10 0.05961
1044.20 0.05959
1044.30 0.05957
1044.40 0.05955
1044.50 0.05953
1044.60 0.0595
1044.70 0.05948
1044.80 0.05946
1044.90 0.05944
1045.00 0.05942
1045.10 0.05939
1045.20 0.05937
1045.30 0.05935
1045.40 0.05933
1045.50 0.05931
1045.60 0.05928
1045.70 0.05926
1045.80 0.05924
1045.90 0.05922
1046.00 0.0592
1046.10 0.05917
1046.20 0.05915
1046.30 0.05913
1046.40 0.05911
1046.50 0.05909
1046.60 0.05906
1046.70 0.05904
1046.80 0.05902
1046.90 0.059
1047.00 0.05898
1047.10 0.05895
1047.20 0.05893
1047.30 0.05891
1047.40 0.05889
1047.50 0.05887
1047.60 0.05884
1047.70 0.05882
1047.80 0.0588
1047.90 0.05878
1048.00 0.05875
1048.10 0.05873
1048.20 0.05871
1048.30 0.05869
1048.40 0.05867
1048.50 0.05864
1048.60 0.05862
1048.70 0.0586
1048.80 0.05858
1048.90 0.05856
1049.00 0.05853
1049.10 0.05851
1049.20 0.05849
1049.30 0.05847
1049.40 0.05845
1049.50 0.05842
1049.60 0.0584
1049.70 0.05838
1049.80 0.05836
1049.90 0.05834
1050.00 0.05831
1050.10 0.05829
1050.20 0.05827
1050.30 0.05825
1050.40 0.05823
1050.50 0.05821
1050.60 0.05818
1050.70 0.05816
1050.80 0.05814
1050.90 0.05812
1051.00 0.0581
1051.10 0.05807
1051.20 0.05805
1051.30 0.05803
1051.40 0.05801
1051.50 0.05799
1051.60 0.05796
1051.70 0.05794
1051.80 0.05792
1051.90 0.0579
1052.00 0.05788
1052.10 0.05786
1052.20 0.05783
1052.30 0.05781
1052.40 0.05779
1052.50 0.05777
1052.60 0.05775
1052.70 0.05772
1052.80 0.0577
1052.90 0.05768
1053.00 0.05766
1053.10 0.05764
1053.20 0.05761
1053.30 0.05759
1053.40 0.05757
1053.50 0.05755
1053.60 0.05753
1053.70 0.0575
1053.80 0.05748
1053.90 0.05746
1054.00 0.05744
1054.10 0.05742
1054.20 0.05739
1054.30 0.05737
1054.40 0.05735
1054.50 0.05733
1054.60 0.05731
1054.70 0.05729
1054.80 0.05726
1054.90 0.05724
1055.00 0.05722
1055.10 0.0572
1055.20 0.05718
1055.30 0.05715
1055.40 0.05713
1055.50 0.05711
1055.60 0.05709
1055.70 0.05707
1055.80 0.05705
1055.90 0.05702
1056.00 0.057
1056.10 0.05698
1056.20 0.05696
1056.30 0.05694
1056.40 0.05691
1056.50 0.05689
1056.60 0.05687
1056.70 0.05685
1056.80 0.05683
1056.90 0.05681
1057.00 0.05678
1057.10 0.05676
1057.20 0.05674
1057.30 0.05672
1057.40 0.0567
1057.50 0.05667
1057.60 0.05665
1057.70 0.05663
1057.80 0.05661
1057.90 0.05659
1058.00 0.05656
1058.10 0.05654
1058.20 0.05652
1058.30 0.0565
1058.40 0.05648
1058.50 0.05646
1058.60 0.05643
1058.70 0.05641
1058.80 0.05639
1058.90 0.05637
1059.00 0.05635
1059.10 0.05632
1059.20 0.0563
1059.30 0.05628
1059.40 0.05626
1059.50 0.05624
1059.60 0.05621
1059.70 0.05619
1059.80 0.05617
1059.90 0.05615
1060.00 0.05613
1060.10 0.05611
1060.20 0.05608
1060.30 0.05606
1060.40 0.05604
1060.50 0.05602
1060.60 0.056
1060.70 0.05598
1060.80 0.05595
1060.90 0.05593
1061.00 0.05591
1061.10 0.05589
1061.20 0.05587
1061.30 0.05584
1061.40 0.05582
1061.50 0.0558
1061.60 0.05578
1061.70 0.05576
1061.80 0.05574
1061.90 0.05571
1062.00 0.05569
1062.10 0.05567
1062.20 0.05565
1062.30 0.05563
1062.40 0.0556
1062.50 0.05558
1062.60 0.05556
1062.70 0.05554
1062.80 0.05552
1062.90 0.05549
1063.00 0.05547
1063.10 0.05545
1063.20 0.05543
1063.30 0.05541
1063.40 0.05538
1063.50 0.05536
1063.60 0.05534
1063.70 0.05532
1063.80 0.0553
1063.90 0.05527
1064.00 0.05525
1064.10 0.05523
1064.20 0.05521
1064.30 0.05519
1064.40 0.05516
1064.50 0.05514
1064.60 0.05512
1064.70 0.0551
1064.80 0.05508
1064.90 0.05505
1065.00 0.05503
1065.10 0.05501
1065.20 0.05499
1065.30 0.05497
1065.40 0.05494
1065.50 0.05492
1065.60 0.0549
1065.70 0.05488
1065.80 0.05486
1065.90 0.05483
1066.00 0.05481
1066.10 0.05479
1066.20 0.05477
1066.30 0.05475
1066.40 0.05473
1066.50 0.0547
1066.60 0.05468
1066.70 0.05466
1066.80 0.05464
1066.90 0.05462
1067.00 0.05459
1067.10 0.05457
1067.20 0.05455
1067.30 0.05453
1067.40 0.0545
1067.50 0.05448
1067.60 0.05446
1067.70 0.05444
1067.80 0.05442
1067.90 0.05439
1068.00 0.05437
1068.10 0.05435
1068.20 0.05433
1068.30 0.0543
1068.40 0.05428
1068.50 0.05426
1068.60 0.05424
1068.70 0.05421
1068.80 0.05419
1068.90 0.05417
1069.00 0.05415
1069.10 0.05412
1069.20 0.0541
1069.30 0.05408
1069.40 0.05406
1069.50 0.05403
1069.60 0.05401
1069.70 0.05399
1069.80 0.05397
1069.90 0.05395
1070.00 0.05392
1070.10 0.0539
1070.20 0.05388
1070.30 0.05386
1070.40 0.05383
1070.50 0.05381
1070.60 0.05379
1070.70 0.05377
1070.80 0.05375
1070.90 0.05372
1071.00 0.0537
1071.10 0.05368
1071.20 0.05366
1071.30 0.05363
1071.40 0.05361
1071.50 0.05359
1071.60 0.05357
1071.70 0.05355
1071.80 0.05352
1071.90 0.0535
1072.00 0.05348
1072.10 0.05346
1072.20 0.05343
1072.30 0.05341
1072.40 0.05339
1072.50 0.05337
1072.60 0.05334
1072.70 0.05332
1072.80 0.0533
1072.90 0.05327
1073.00 0.05325
1073.10 0.05323
1073.20 0.05321
1073.30 0.05318
1073.40 0.05316
1073.50 0.05314
1073.60 0.05311
1073.70 0.05309
1073.80 0.05307
1073.90 0.05305
1074.00 0.05302
1074.10 0.053
1074.20 0.05298
1074.30 0.05295
1074.40 0.05293
1074.50 0.05291
1074.60 0.05288
1074.70 0.05286
1074.80 0.05284
1074.90 0.05281
1075.00 0.05279
1075.10 0.05277
1075.20 0.05274
1075.30 0.05272
1075.40 0.0527
1075.50 0.05267
1075.60 0.05265
1075.70 0.05263
1075.80 0.05261
1075.90 0.05258
1076.00 0.05256
1076.10 0.05254
1076.20 0.05251
1076.30 0.05249
1076.40 0.05247
1076.50 0.05244
1076.60 0.05242
1076.70 0.0524
1076.80 0.05237
1076.90 0.05235
1077.00 0.05233
1077.10 0.05231
1077.20 0.05228
1077.30 0.05226
1077.40 0.05223
1077.50 0.05221
1077.60 0.05219
1077.70 0.05216
1077.80 0.05214
1077.90 0.05212
1078.00 0.05209
1078.10 0.05207
1078.20 0.05204
1078.30 0.05202
1078.40 0.052
1078.50 0.05197
1078.60 0.05195
1078.70 0.05193
1078.80 0.0519
1078.90 0.05188
1079.00 0.05185
1079.10 0.05183
1079.20 0.05181
1079.30 0.05178
1079.40 0.05176
1079.50 0.05174
1079.60 0.05171
1079.70 0.05169
1079.80 0.05166
1079.90 0.05164
1080.00 0.05161
1080.10 0.05159
1080.20 0.05157
1080.30 0.05154
1080.40 0.05152
1080.50 0.05149
1080.60 0.05147
1080.70 0.05144
1080.80 0.05142
1080.90 0.0514
1081.00 0.05137
1081.10 0.05135
1081.20 0.05132
1081.30 0.0513
1081.40 0.05127
1081.50 0.05125
1081.60 0.05123
1081.70 0.0512
1081.80 0.05118
1081.90 0.05115
1082.00 0.05113
1082.10 0.0511
1082.20 0.05108
1082.30 0.05105
1082.40 0.05103
1082.50 0.051
1082.60 0.05098
1082.70 0.05095
1082.80 0.05093
1082.90 0.0509
1083.00 0.05088
1083.10 0.05085
1083.20 0.05083
1083.30 0.0508
1083.40 0.05078
1083.50 0.05075
1083.60 0.05073
1083.70 0.0507
1083.80 0.05068
1083.90 0.05065
1084.00 0.05063
1084.10 0.0506
1084.20 0.05058
1084.30 0.05055
1084.40 0.05053
1084.50 0.0505
1084.60 0.05048
1084.70 0.05045
1084.80 0.05043
1084.90 0.0504
1085.00 0.05038
1085.10 0.05035
1085.20 0.05033
1085.30 0.0503
1085.40 0.05027
1085.50 0.05025
1085.60 0.05022
1085.70 0.0502
1085.80 0.05017
1085.90 0.05015
1086.00 0.05012
1086.10 0.0501
1086.20 0.05007
1086.30 0.05005
1086.40 0.05002
1086.50 0.05
1086.60 0.04997
1086.70 0.04994
1086.80 0.04992
1086.90 0.04989
1087.00 0.04987
1087.10 0.04984
1087.20 0.04982
1087.30 0.04979
1087.40 0.04976
1087.50 0.04974
1087.60 0.04971
1087.70 0.04969
1087.80 0.04966
1087.90 0.04963
1088.00 0.04961
1088.10 0.04958
1088.20 0.04956
1088.30 0.04953
1088.40 0.04951
1088.50 0.04948
1088.60 0.04945
1088.70 0.04943
1088.80 0.0494
1088.90 0.04937
1089.00 0.04935
1089.10 0.04932
1089.20 0.04929
1089.30 0.04927
1089.40 0.04924
1089.50 0.04922
1089.60 0.04919
1089.70 0.04916
1089.80 0.04914
1089.90 0.04911
1090.00 0.04909
1090.10 0.04906
1090.20 0.04903
1090.30 0.04901
1090.40 0.04898
1090.50 0.04895
1090.60 0.04893
1090.70 0.0489
1090.80 0.04887
1090.90 0.04884
1091.00 0.04882
1091.10 0.04879
1091.20 0.04876
1091.30 0.04874
1091.40 0.04871
1091.50 0.04868
1091.60 0.04865
1091.70 0.04863
1091.80 0.0486
1091.90 0.04857
1092.00 0.04854
1092.10 0.04852
1092.20 0.04849
1092.30 0.04846
1092.40 0.04843
1092.50 0.0484
1092.60 0.04837
1092.70 0.04834
1092.80 0.04831
1092.90 0.04828
1093.00 0.04825
1093.10 0.04822
1093.20 0.0482
1093.30 0.04817
1093.40 0.04814
1093.50 0.04811
1093.60 0.04809
1093.70 0.04808
1093.80 0.04806
1093.90 0.04805
1094.00 0.04804
1094.10 0.04803
1094.20 0.04802
1094.30 0.04801
1094.40 0.04801
1094.50 0.048
1094.60 0.048
1094.70 0.04799
1094.80 0.04799
1094.90 0.04798
1095.00 0.04798
1095.10 0.04797
1095.20 0.04797
1095.30 0.04796
1095.40 0.04796
1095.50 0.04795
1095.60 0.04795
1095.70 0.04794
1095.80 0.04794
1095.90 0.04793
1096.00 0.04792
1096.10 0.04792
1096.20 0.04791
1096.30 0.04791
1096.40 0.0479
1096.50 0.0479
1096.60 0.04789
1096.70 0.04788
1096.80 0.04787
1096.90 0.04787
1097.00 0.04786
1097.10 0.04785
1097.20 0.04785
1097.30 0.04784
1097.40 0.04783
1097.50 0.04782
1097.60 0.04781
1097.70 0.04781
1097.80 0.0478
1097.90 0.04779
1098.00 0.04778
1098.10 0.04778
1098.20 0.04777
1098.30 0.04776
1098.40 0.04775
1098.50 0.04774
1098.60 0.04774
1098.70 0.04773
1098.80 0.04772
1098.90 0.04771
1099.00 0.0477
1099.10 0.04769
1099.20 0.04768
1099.30 0.04768
1099.40 0.04767
1099.50 0.04766
1099.60 0.04765
1099.70 0.04764
1099.80 0.04763
1099.90 0.04763
1100.00 0.04762
1100.10 0.04761
1100.20 0.0476
1100.30 0.04759
1100.40 0.04758
1100.50 0.04757
1100.60 0.04757
1100.70 0.04756
1100.80 0.04755
1100.90 0.04754
1101.00 0.04753
1101.10 0.04752
1101.20 0.04751
1101.30 0.0475
1101.40 0.04749
1101.50 0.04748
1101.60 0.04747
1101.70 0.04747
1101.80 0.04746
1101.90 0.04745
1102.00 0.04744
1102.10 0.04743
1102.20 0.04742
1102.30 0.04741
1102.40 0.0474
1102.50 0.04739
1102.60 0.04738
1102.70 0.04737
1102.80 0.04736
1102.90 0.04735
1103.00 0.04734
1103.10 0.04733
1103.20 0.04732
1103.30 0.04731
1103.40 0.0473
1103.50 0.04729
1103.60 0.04728
1103.70 0.04727
1103.80 0.04726
1103.90 0.04725
1104.00 0.04724
1104.10 0.04723
1104.20 0.04722
1104.30 0.04721
1104.40 0.0472
1104.50 0.04719
1104.60 0.04718
1104.70 0.04717
1104.80 0.04716
1104.90 0.04715
1105.00 0.04714
1105.10 0.04713
1105.20 0.04712
1105.30 0.04711
1105.40 0.0471
1105.50 0.04709
1105.60 0.04708
1105.70 0.04707
1105.80 0.04706
1105.90 0.04705
1106.00 0.04704
1106.10 0.04702
1106.20 0.04701
1106.30 0.047
1106.40 0.04699
1106.50 0.04698
1106.60 0.04697
1106.70 0.04696
1106.80 0.04695
1106.90 0.04694
1107.00 0.04693
1107.10 0.04692
1107.20 0.04691
1107.30 0.04689
1107.40 0.04688
1107.50 0.04687
1107.60 0.04686
1107.70 0.04685
1107.80 0.04684
1107.90 0.04683
1108.00 0.04681
1108.10 0.0468
1108.20 0.04679
1108.30 0.04678
1108.40 0.04677
1108.50 0.04676
1108.60 0.04674
1108.70 0.04673
1108.80 0.04672
1108.90 0.04671
1109.00 0.0467
1109.10 0.04669
1109.20 0.04668
1109.30 0.04666
1109.40 0.04665
1109.50 0.04664
1109.60 0.04663
1109.70 0.04662
1109.80 0.0466
1109.90 0.04659
1110.00 0.04658
1110.10 0.04657
1110.20 0.04655
1110.30 0.04654
1110.40 0.04653
1110.50 0.04652
1110.60 0.04651
1110.70 0.04649
1110.80 0.04648
1110.90 0.04647
1111.00 0.04646
1111.10 0.04644
1111.20 0.04643
1111.30 0.04642
1111.40 0.04641
1111.50 0.0464
1111.60 0.04638
1111.70 0.04637
1111.80 0.04636
1111.90 0.04635
1112.00 0.04634
1112.10 0.04632
1112.20 0.04631
1112.30 0.0463
1112.40 0.04628
1112.50 0.04627
1112.60 0.04626
1112.70 0.04625
1112.80 0.04623
1112.90 0.04622
1113.00 0.04621
1113.10 0.0462
1113.20 0.04618
1113.30 0.04617
1113.40 0.04616
1113.50 0.04614
1113.60 0.04613
1113.70 0.04612
1113.80 0.0461
1113.90 0.04609
1114.00 0.04608
1114.10 0.04607
1114.20 0.04605
1114.30 0.04604
1114.40 0.04603
1114.50 0.04601
1114.60 0.046
1114.70 0.04599
1114.80 0.04597
1114.90 0.04596
1115.00 0.04595
1115.10 0.04593
1115.20 0.04592
1115.30 0.04591
1115.40 0.04589
1115.50 0.04588
1115.60 0.04587
1115.70 0.04585
1115.80 0.04584
1115.90 0.04583
1116.00 0.04581
1116.10 0.0458
1116.20 0.04579
1116.30 0.04577
1116.40 0.04576
1116.50 0.04575
1116.60 0.04574
1116.70 0.04572
1116.80 0.04571
1116.90 0.0457
1117.00 0.04568
1117.10 0.04567
1117.20 0.04566
1117.30 0.04564
1117.40 0.04563
1117.50 0.04561
1117.60 0.0456
1117.70 0.04559
1117.80 0.04557
1117.90 0.04556
1118.00 0.04554
1118.10 0.04553
1118.20 0.04552
1118.30 0.0455
1118.40 0.04549
1118.50 0.04548
1118.60 0.04546
1118.70 0.04545
1118.80 0.04543
1118.90 0.04542
1119.00 0.04541
1119.10 0.04539
1119.20 0.04538
1119.30 0.04536
1119.40 0.04535
1119.50 0.04534
1119.60 0.04532
1119.70 0.04531
1119.80 0.0453
1119.90 0.04528
1120.00 0.04527
1120.10 0.04525
1120.20 0.04524
1120.30 0.04523
1120.40 0.04521
1120.50 0.0452
1120.60 0.04519
1120.70 0.04517
1120.80 0.04516
1120.90 0.04514
1121.00 0.04513
1121.10 0.04512
1121.20 0.0451
1121.30 0.04509
1121.40 0.04508
1121.50 0.04506
1121.60 0.04505
1121.70 0.04503
1121.80 0.04502
1121.90 0.04501
1122.00 0.04499
1122.10 0.04498
1122.20 0.04497
1122.30 0.04495
1122.40 0.04494
1122.50 0.04492
1122.60 0.04491
1122.70 0.04489
1122.80 0.04488
1122.90 0.04487
1123.00 0.04485
1123.10 0.04484
1123.20 0.04482
1123.30 0.04481
1123.40 0.04479
1123.50 0.04478
1123.60 0.04477
1123.70 0.04475
1123.80 0.04474
1123.90 0.04472
1124.00 0.04471
1124.10 0.04469
1124.20 0.04468
1124.30 0.04467
1124.40 0.04465
1124.50 0.04464
1124.60 0.04462
1124.70 0.04461
1124.80 0.0446
1124.90 0.04458
1125.00 0.04457
1125.10 0.04455
1125.20 0.04454
1125.30 0.04453
1125.40 0.04451
1125.50 0.0445
1125.60 0.04448
1125.70 0.04447
1125.80 0.04445
1125.90 0.04444
1126.00 0.04443
1126.10 0.04441
1126.20 0.0444
1126.30 0.04438
1126.40 0.04437
1126.50 0.04436
1126.60 0.04434
1126.70 0.04433
1126.80 0.04431
1126.90 0.0443
1127.00 0.04429
1127.10 0.04427
1127.20 0.04426
1127.30 0.04424
1127.40 0.04423
1127.50 0.04421
1127.60 0.0442
1127.70 0.04419
1127.80 0.04417
1127.90 0.04416
1128.00 0.04414
1128.10 0.04413
1128.20 0.04411
1128.30 0.0441
1128.40 0.04408
1128.50 0.04407
1128.60 0.04406
1128.70 0.04404
1128.80 0.04403
1128.90 0.04401
1129.00 0.044
1129.10 0.04398
1129.20 0.04397
1129.30 0.04396
1129.40 0.04394
1129.50 0.04393
1129.60 0.04391
1129.70 0.0439
1129.80 0.04388
1129.90 0.04387
1130.00 0.04386
1130.10 0.04384
1130.20 0.04383
1130.30 0.04381
1130.40 0.0438
1130.50 0.04378
1130.60 0.04377
1130.70 0.04376
1130.80 0.04374
1130.90 0.04373
1131.00 0.04371
1131.10 0.0437
1131.20 0.04368
1131.30 0.04367
1131.40 0.04366
1131.50 0.04364
1131.60 0.04363
1131.70 0.04361
1131.80 0.0436
1131.90 0.04359
1132.00 0.04357
1132.10 0.04356
1132.20 0.04354
1132.30 0.04353
1132.40 0.04351
1132.50 0.0435
1132.60 0.04348
1132.70 0.04347
1132.80 0.04346
1132.90 0.04344
1133.00 0.04343
1133.10 0.04341
1133.20 0.0434
1133.30 0.04338
1133.40 0.04337
1133.50 0.04336
1133.60 0.04334
1133.70 0.04333
1133.80 0.04331
1133.90 0.0433
1134.00 0.04328
1134.10 0.04327
1134.20 0.04326
1134.30 0.04324
1134.40 0.04323
1134.50 0.04321
1134.60 0.0432
1134.70 0.04318
1134.80 0.04317
1134.90 0.04316
1135.00 0.04314
1135.10 0.04313
1135.20 0.04311
1135.30 0.0431
1135.40 0.04308
1135.50 0.04307
1135.60 0.04306
1135.70 0.04304
1135.80 0.04303
1135.90 0.04301
1136.00 0.043
1136.10 0.04299
1136.20 0.04297
1136.30 0.04296
1136.40 0.04294
1136.50 0.04293
1136.60 0.04291
1136.70 0.0429
1136.80 0.04289
1136.90 0.04287
1137.00 0.04286
1137.10 0.04284
1137.20 0.04283
1137.30 0.04281
1137.40 0.0428
1137.50 0.04279
1137.60 0.04277
1137.70 0.04276
1137.80 0.04274
1137.90 0.04273
1138.00 0.04271
1138.10 0.0427
1138.20 0.04269
1138.30 0.04267
1138.40 0.04266
1138.50 0.04264
1138.60 0.04263
1138.70 0.04262
1138.80 0.0426
1138.90 0.04259
1139.00 0.04257
1139.10 0.04256
1139.20 0.04254
1139.30 0.04253
1139.40 0.04252
1139.50 0.0425
1139.60 0.04249
1139.70 0.04247
1139.80 0.04246
1139.90 0.04245
1140.00 0.04243
1140.10 0.04242
1140.20 0.0424
1140.30 0.04239
1140.40 0.04237
1140.50 0.04236
1140.60 0.04235
1140.70 0.04233
1140.80 0.04232
1140.90 0.0423
1141.00 0.04229
1141.10 0.04228
1141.20 0.04226
1141.30 0.04225
1141.40 0.04223
1141.50 0.04222
1141.60 0.04221
1141.70 0.04219
1141.80 0.04218
1141.90 0.04216
1142.00 0.04215
1142.10 0.04214
1142.20 0.04212
1142.30 0.04211
1142.40 0.04209
1142.50 0.04208
1142.60 0.04206
1142.70 0.04205
1142.80 0.04204
1142.90 0.04202
1143.00 0.04201
1143.10 0.04199
1143.20 0.04198
1143.30 0.04197
1143.40 0.04195
1143.50 0.04194
1143.60 0.04192
1143.70 0.04191
1143.80 0.0419
1143.90 0.04188
1144.00 0.04187
1144.10 0.04185
1144.20 0.04184
1144.30 0.04183
1144.40 0.04181
1144.50 0.0418
1144.60 0.04178
1144.70 0.04177
1144.80 0.04176
1144.90 0.04174
1145.00 0.04173
1145.10 0.04171
1145.20 0.0417
1145.30 0.04169
1145.40 0.04167
1145.50 0.04166
1145.60 0.04164
1145.70 0.04163
1145.80 0.04162
1145.90 0.0416
1146.00 0.04159
1146.10 0.04157
1146.20 0.04156
1146.30 0.04155
1146.40 0.04153
1146.50 0.04152
1146.60 0.04151
1146.70 0.04149
1146.80 0.04148
1146.90 0.04146
1147.00 0.04145
1147.10 0.04144
1147.20 0.04142
1147.30 0.04141
1147.40 0.04139
1147.50 0.04138
1147.60 0.04137
1147.70 0.04135
1147.80 0.04134
1147.90 0.04132
1148.00 0.04131
1148.10 0.0413
1148.20 0.04128
1148.30 0.04127
1148.40 0.04126
1148.50 0.04124
1148.60 0.04123
1148.70 0.04121
1148.80 0.0412
1148.90 0.04119
1149.00 0.04117
1149.10 0.04116
1149.20 0.04115
1149.30 0.04113
1149.40 0.04112
1149.50 0.0411
1149.60 0.04109
1149.70 0.04108
1149.80 0.04106
1149.90 0.04105
1150.00 0.04103
1150.10 0.04102
1150.20 0.04101
1150.30 0.04099
1150.40 0.04098
1150.50 0.04097
1150.60 0.04095
1150.70 0.04094
1150.80 0.04092
1150.90 0.04091
1151.00 0.0409
1151.10 0.04088
1151.20 0.04087
1151.30 0.04086
1151.40 0.04084
1151.50 0.04083
1151.60 0.04082
1151.70 0.0408
1151.80 0.04079
1151.90 0.04077
1152.00 0.04076
1152.10 0.04075
1152.20 0.04073
1152.30 0.04072
1152.40 0.04071
1152.50 0.04069
1152.60 0.04068
1152.70 0.04066
1152.80 0.04065
1152.90 0.04064
1153.00 0.04062
1153.10 0.04061
1153.20 0.0406
1153.30 0.04058
1153.40 0.04057
1153.50 0.04056
1153.60 0.04054
1153.70 0.04053
1153.80 0.04052
1153.90 0.0405
1154.00 0.04049
1154.10 0.04047
1154.20 0.04046
1154.30 0.04045
1154.40 0.04043
1154.50 0.04042
1154.60 0.04041
1154.70 0.04039
1154.80 0.04038
1154.90 0.04037
1155.00 0.04035
1155.10 0.04034
1155.20 0.04033
1155.30 0.04031
1155.40 0.0403
1155.50 0.04028
1155.60 0.04027
1155.70 0.04026
1155.80 0.04024
1155.90 0.04023
1156.00 0.04022
1156.10 0.0402
1156.20 0.04019
1156.30 0.04018
1156.40 0.04016
1156.50 0.04015
1156.60 0.04014
1156.70 0.04012
1156.80 0.04011
1156.90 0.0401
1157.00 0.04008
1157.10 0.04007
1157.20 0.04006
1157.30 0.04004
1157.40 0.04003
1157.50 0.04002
1157.60 0.04
1157.70 0.03999
1157.80 0.03998
1157.90 0.03996
1158.00 0.03995
1158.10 0.03993
1158.20 0.03992
1158.30 0.03991
1158.40 0.03989
1158.50 0.03988
1158.60 0.03987
1158.70 0.03985
1158.80 0.03984
1158.90 0.03983
1159.00 0.03981
1159.10 0.0398
1159.20 0.03979
1159.30 0.03977
1159.40 0.03976
1159.50 0.03975
1159.60 0.03973
1159.70 0.03972
1159.80 0.03971
1159.90 0.03969
1160.00 0.03968
1160.10 0.03967
1160.20 0.03966
1160.30 0.03964
1160.40 0.03963
1160.50 0.03962
1160.60 0.0396
1160.70 0.03959
1160.80 0.03958
1160.90 0.03956
1161.00 0.03955
1161.10 0.03954
1161.20 0.03952
1161.30 0.03951
1161.40 0.0395
1161.50 0.03948
1161.60 0.03947
1161.70 0.03946
1161.80 0.03944
1161.90 0.03943
1162.00 0.03942
1162.10 0.0394
1162.20 0.03939
1162.30 0.03938
1162.40 0.03936
1162.50 0.03935
1162.60 0.03934
1162.70 0.03932
1162.80 0.03931
1162.90 0.0393
1163.00 0.03928
1163.10 0.03927
1163.20 0.03926
1163.30 0.03925
1163.40 0.03923
1163.50 0.03922
1163.60 0.03921
1163.70 0.03919
1163.80 0.03918
1163.90 0.03917
1164.00 0.03915
1164.10 0.03914
1164.20 0.03913
1164.30 0.03911
1164.40 0.0391
1164.50 0.03909
1164.60 0.03908
1164.70 0.03906
1164.80 0.03905
1164.90 0.03904
1165.00 0.03902
1165.10 0.03901
1165.20 0.039
1165.30 0.03898
1165.40 0.03897
1165.50 0.03896
1165.60 0.03894
1165.70 0.03893
1165.80 0.03892
1165.90 0.03891
1166.00 0.03889
1166.10 0.03888
1166.20 0.03887
1166.30 0.03885
1166.40 0.03884
1166.50 0.03883
1166.60 0.03881
1166.70 0.0388
1166.80 0.03879
1166.90 0.03878
1167.00 0.03876
1167.10 0.03875
1167.20 0.03874
1167.30 0.03872
1167.40 0.03871
1167.50 0.0387
1167.60 0.03869
1167.70 0.03867
1167.80 0.03866
1167.90 0.03865
1168.00 0.03863
1168.10 0.03862
1168.20 0.03861
1168.30 0.0386
1168.40 0.03858
1168.50 0.03857
1168.60 0.03856
1168.70 0.03854
1168.80 0.03853
1168.90 0.03852
1169.00 0.03851
1169.10 0.03849
1169.20 0.03848
1169.30 0.03847
1169.40 0.03845
1169.50 0.03844
1169.60 0.03843
1169.70 0.03842
1169.80 0.0384
1169.90 0.03839
1170.00 0.03838
1170.10 0.03836
1170.20 0.03835
1170.30 0.03834
1170.40 0.03833
1170.50 0.03831
1170.60 0.0383
1170.70 0.03829
1170.80 0.03827
1170.90 0.03826
1171.00 0.03825
1171.10 0.03824
1171.20 0.03822
1171.30 0.03821
1171.40 0.0382
1171.50 0.03819
1171.60 0.03817
1171.70 0.03816
1171.80 0.03815
1171.90 0.03813
1172.00 0.03812
1172.10 0.03811
1172.20 0.0381
1172.30 0.03808
1172.40 0.03807
1172.50 0.03806
1172.60 0.03805
1172.70 0.03803
1172.80 0.03802
1172.90 0.03801
1173.00 0.03799
1173.10 0.03798
1173.20 0.03797
1173.30 0.03796
1173.40 0.03794
1173.50 0.03793
1173.60 0.03792
1173.70 0.03791
1173.80 0.03789
1173.90 0.03788
1174.00 0.03787
1174.10 0.03786
1174.20 0.03784
1174.30 0.03783
1174.40 0.03782
1174.50 0.03781
1174.60 0.03779
1174.70 0.03778
1174.80 0.03777
1174.90 0.03776
1175.00 0.03774
1175.10 0.03773
1175.20 0.03772
1175.30 0.0377
1175.40 0.03769
1175.50 0.03768
1175.60 0.03767
1175.70 0.03765
1175.80 0.03764
1175.90 0.03763
1176.00 0.03762
1176.10 0.0376
1176.20 0.03759
1176.30 0.03758
1176.40 0.03757
1176.50 0.03755
1176.60 0.03754
1176.70 0.03753
1176.80 0.03752
1176.90 0.0375
1177.00 0.03749
1177.10 0.03748
1177.20 0.03747
1177.30 0.03745
1177.40 0.03744
1177.50 0.03743
1177.60 0.03742
1177.70 0.03741
1177.80 0.03739
1177.90 0.03738
1178.00 0.03737
1178.10 0.03736
1178.20 0.03734
1178.30 0.03733
1178.40 0.03732
1178.50 0.03731
1178.60 0.03729
1178.70 0.03728
1178.80 0.03727
1178.90 0.03726
1179.00 0.03724
1179.10 0.03723
1179.20 0.03722
1179.30 0.03721
1179.40 0.03719
1179.50 0.03718
1179.60 0.03717
1179.70 0.03716
1179.80 0.03715
1179.90 0.03713
1180.00 0.03712
1180.10 0.03711
1180.20 0.0371
1180.30 0.03708
1180.40 0.03707
1180.50 0.03706
1180.60 0.03705
1180.70 0.03703
1180.80 0.03702
1180.90 0.03701
1181.00 0.037
1181.10 0.03699
1181.20 0.03697
1181.30 0.03696
1181.40 0.03695
1181.50 0.03694
1181.60 0.03692
1181.70 0.03691
1181.80 0.0369
1181.90 0.03689
1182.00 0.03687
1182.10 0.03686
1182.20 0.03685
1182.30 0.03684
1182.40 0.03683
1182.50 0.03681
1182.60 0.0368
1182.70 0.03679
1182.80 0.03678
1182.90 0.03677
1183.00 0.03675
1183.10 0.03674
1183.20 0.03673
1183.30 0.03672
1183.40 0.0367
1183.50 0.03669
1183.60 0.03668
1183.70 0.03667
1183.80 0.03666
1183.90 0.03664
1184.00 0.03663
1184.10 0.03662
1184.20 0.03661
1184.30 0.0366
1184.40 0.03658
1184.50 0.03657
1184.60 0.03656
1184.70 0.03655
1184.80 0.03653
1184.90 0.03652
1185.00 0.03651
1185.10 0.0365
1185.20 0.03649
1185.30 0.03647
1185.40 0.03646
1185.50 0.03645
1185.60 0.03644
1185.70 0.03643
1185.80 0.03641
1185.90 0.0364
1186.00 0.03639
1186.10 0.03638
1186.20 0.03637
1186.30 0.03635
1186.40 0.03634
1186.50 0.03633
1186.60 0.03632
1186.70 0.03631
1186.80 0.03629
1186.90 0.03628
1187.00 0.03627
1187.10 0.03626
1187.20 0.03625
1187.30 0.03623
1187.40 0.03622
1187.50 0.03621
1187.60 0.0362
1187.70 0.03619
1187.80 0.03617
1187.90 0.03616
1188.00 0.03615
1188.10 0.03614
1188.20 0.03613
1188.30 0.03611
1188.40 0.0361
1188.50 0.03609
1188.60 0.03608
1188.70 0.03607
1188.80 0.03605
1188.90 0.03604
1189.00 0.03603
1189.10 0.03602
1189.20 0.03601
1189.30 0.036
1189.40 0.03598
1189.50 0.03597
1189.60 0.03596
1189.70 0.03595
1189.80 0.03594
1189.90 0.03592
1190.00 0.03591
1190.10 0.0359
1190.20 0.03589
1190.30 0.03588
1190.40 0.03586
1190.50 0.03585
1190.60 0.03584
1190.70 0.03583
1190.80 0.03582
1190.90 0.03581
1191.00 0.03579
1191.10 0.03578
1191.20 0.03577
1191.30 0.03576
1191.40 0.03575
1191.50 0.03573
1191.60 0.03572
1191.70 0.03571
1191.80 0.0357
1191.90 0.03569
1192.00 0.03568
1192.10 0.03566
1192.20 0.03565
1192.30 0.03564
1192.40 0.03563
1192.50 0.03562
1192.60 0.03561
1192.70 0.03559
1192.80 0.03558
1192.90 0.03557
1193.00 0.03556
1193.10 0.03555
1193.20 0.03553
1193.30 0.03552
1193.40 0.03551
1193.50 0.0355
1193.60 0.03549
1193.70 0.03548
1193.80 0.03546
1193.90 0.03545
1194.00 0.03544
1194.10 0.03543
1194.20 0.03542
1194.30 0.03541
1194.40 0.03539
1194.50 0.03538
1194.60 0.03537
1194.70 0.03536
1194.80 0.03535
1194.90 0.03534
1195.00 0.03532
1195.10 0.03531
1195.20 0.0353
1195.30 0.03529
1195.40 0.03528
1195.50 0.03527
1195.60 0.03526
1195.70 0.03524
1195.80 0.03523
1195.90 0.03522
1196.00 0.03521
1196.10 0.0352
1196.20 0.03519
1196.30 0.03517
1196.40 0.03516
1196.50 0.03515
1196.60 0.03514
1196.70 0.03513
1196.80 0.03512
1196.90 0.0351
1197.00 0.03509
1197.10 0.03508
1197.20 0.03507
1197.30 0.03506
1197.40 0.03505
1197.50 0.03504
1197.60 0.03502
1197.70 0.03501
1197.80 0.035
1197.90 0.03499
1198.00 0.03498
1198.10 0.03497
1198.20 0.03495
1198.30 0.03494
1198.40 0.03493
1198.50 0.03492
1198.60 0.03491
1198.70 0.0349
1198.80 0.03489
1198.90 0.03487
1199.00 0.03486
1199.10 0.03485
1199.20 0.03484
1199.30 0.03483
1199.40 0.03482
1199.50 0.03481
1199.60 0.03479
1199.70 0.03478
1199.80 0.03477
1199.90 0.03476
1200.00 0
