# Version 2.1 - nm, norm@500 to 1, cut digits, bergeron_13000_75.dat_13000
# Wavelength(nm)  Flambda(ergs/cm^s/s/nm)
300.00 1.809
300.10 1.808
300.20 1.807
300.30 1.806
300.40 1.805
300.50 1.803
300.60 1.802
300.70 1.801
300.80 1.8
300.90 1.798
301.00 1.797
301.10 1.796
301.20 1.795
301.30 1.794
301.40 1.792
301.50 1.791
301.60 1.79
301.70 1.789
301.80 1.787
301.90 1.786
302.00 1.785
302.10 1.784
302.20 1.783
302.30 1.781
302.40 1.78
302.50 1.779
302.60 1.778
302.70 1.777
302.80 1.775
302.90 1.774
303.00 1.773
303.10 1.772
303.20 1.771
303.30 1.769
303.40 1.768
303.50 1.767
303.60 1.766
303.70 1.765
303.80 1.764
303.90 1.762
304.00 1.761
304.10 1.76
304.20 1.759
304.30 1.758
304.40 1.756
304.50 1.755
304.60 1.754
304.70 1.753
304.80 1.752
304.90 1.751
305.00 1.749
305.10 1.748
305.20 1.747
305.30 1.746
305.40 1.745
305.50 1.744
305.60 1.742
305.70 1.741
305.80 1.74
305.90 1.739
306.00 1.738
306.10 1.737
306.20 1.735
306.30 1.734
306.40 1.733
306.50 1.732
306.60 1.731
306.70 1.73
306.80 1.728
306.90 1.727
307.00 1.726
307.10 1.725
307.20 1.724
307.30 1.723
307.40 1.722
307.50 1.72
307.60 1.719
307.70 1.718
307.80 1.717
307.90 1.716
308.00 1.715
308.10 1.713
308.20 1.712
308.30 1.711
308.40 1.71
308.50 1.709
308.60 1.708
308.70 1.707
308.80 1.706
308.90 1.704
309.00 1.703
309.10 1.702
309.20 1.701
309.30 1.7
309.40 1.699
309.50 1.698
309.60 1.697
309.70 1.695
309.80 1.694
309.90 1.693
310.00 1.692
310.10 1.691
310.20 1.69
310.30 1.689
310.40 1.688
310.50 1.686
310.60 1.685
310.70 1.684
310.80 1.683
310.90 1.682
311.00 1.681
311.10 1.68
311.20 1.679
311.30 1.678
311.40 1.676
311.50 1.675
311.60 1.674
311.70 1.673
311.80 1.672
311.90 1.671
312.00 1.67
312.10 1.669
312.20 1.668
312.30 1.667
312.40 1.665
312.50 1.664
312.60 1.663
312.70 1.662
312.80 1.661
312.90 1.66
313.00 1.659
313.10 1.658
313.20 1.657
313.30 1.656
313.40 1.655
313.50 1.653
313.60 1.652
313.70 1.651
313.80 1.65
313.90 1.649
314.00 1.648
314.10 1.647
314.20 1.646
314.30 1.645
314.40 1.644
314.50 1.643
314.60 1.642
314.70 1.64
314.80 1.639
314.90 1.638
315.00 1.637
315.10 1.636
315.20 1.635
315.30 1.634
315.40 1.633
315.50 1.632
315.60 1.631
315.70 1.63
315.80 1.629
315.90 1.628
316.00 1.627
316.10 1.626
316.20 1.624
316.30 1.623
316.40 1.622
316.50 1.621
316.60 1.62
316.70 1.619
316.80 1.618
316.90 1.617
317.00 1.616
317.10 1.615
317.20 1.614
317.30 1.613
317.40 1.612
317.50 1.611
317.60 1.61
317.70 1.609
317.80 1.608
317.90 1.607
318.00 1.606
318.10 1.604
318.20 1.603
318.30 1.602
318.40 1.601
318.50 1.6
318.60 1.599
318.70 1.598
318.80 1.597
318.90 1.596
319.00 1.595
319.10 1.594
319.20 1.593
319.30 1.592
319.40 1.591
319.50 1.59
319.60 1.589
319.70 1.588
319.80 1.587
319.90 1.586
320.00 1.585
320.10 1.584
320.20 1.583
320.30 1.582
320.40 1.581
320.50 1.58
320.60 1.579
320.70 1.578
320.80 1.577
320.90 1.576
321.00 1.575
321.10 1.574
321.20 1.573
321.30 1.572
321.40 1.571
321.50 1.57
321.60 1.569
321.70 1.568
321.80 1.567
321.90 1.566
322.00 1.565
322.10 1.564
322.20 1.563
322.30 1.562
322.40 1.561
322.50 1.56
322.60 1.559
322.70 1.558
322.80 1.557
322.90 1.556
323.00 1.555
323.10 1.554
323.20 1.553
323.30 1.552
323.40 1.551
323.50 1.55
323.60 1.549
323.70 1.548
323.80 1.547
323.90 1.546
324.00 1.545
324.10 1.544
324.20 1.543
324.30 1.542
324.40 1.541
324.50 1.54
324.60 1.539
324.70 1.538
324.80 1.537
324.90 1.536
325.00 1.535
325.10 1.534
325.20 1.533
325.30 1.532
325.40 1.531
325.50 1.53
325.60 1.529
325.70 1.528
325.80 1.527
325.90 1.526
326.00 1.525
326.10 1.524
326.20 1.523
326.30 1.522
326.40 1.521
326.50 1.52
326.60 1.519
326.70 1.518
326.80 1.517
326.90 1.516
327.00 1.515
327.10 1.514
327.20 1.513
327.30 1.512
327.40 1.511
327.50 1.51
327.60 1.51
327.70 1.509
327.80 1.508
327.90 1.507
328.00 1.506
328.10 1.505
328.20 1.504
328.30 1.503
328.40 1.502
328.50 1.501
328.60 1.5
328.70 1.499
328.80 1.498
328.90 1.497
329.00 1.496
329.10 1.495
329.20 1.494
329.30 1.493
329.40 1.492
329.50 1.491
329.60 1.49
329.70 1.49
329.80 1.489
329.90 1.488
330.00 1.487
330.10 1.486
330.20 1.485
330.30 1.484
330.40 1.483
330.50 1.482
330.60 1.481
330.70 1.48
330.80 1.479
330.90 1.478
331.00 1.477
331.10 1.476
331.20 1.476
331.30 1.475
331.40 1.474
331.50 1.473
331.60 1.472
331.70 1.471
331.80 1.47
331.90 1.469
332.00 1.468
332.10 1.467
332.20 1.466
332.30 1.465
332.40 1.464
332.50 1.463
332.60 1.463
332.70 1.462
332.80 1.461
332.90 1.46
333.00 1.459
333.10 1.458
333.20 1.457
333.30 1.456
333.40 1.455
333.50 1.454
333.60 1.453
333.70 1.453
333.80 1.452
333.90 1.451
334.00 1.45
334.10 1.449
334.20 1.448
334.30 1.447
334.40 1.446
334.50 1.445
334.60 1.444
334.70 1.443
334.80 1.443
334.90 1.442
335.00 1.441
335.10 1.44
335.20 1.439
335.30 1.438
335.40 1.437
335.50 1.436
335.60 1.435
335.70 1.434
335.80 1.434
335.90 1.433
336.00 1.432
336.10 1.431
336.20 1.43
336.30 1.429
336.40 1.428
336.50 1.427
336.60 1.426
336.70 1.426
336.80 1.425
336.90 1.424
337.00 1.423
337.10 1.422
337.20 1.421
337.30 1.42
337.40 1.419
337.50 1.418
337.60 1.418
337.70 1.417
337.80 1.416
337.90 1.415
338.00 1.414
338.10 1.413
338.20 1.412
338.30 1.411
338.40 1.411
338.50 1.41
338.60 1.409
338.70 1.408
338.80 1.407
338.90 1.406
339.00 1.405
339.10 1.404
339.20 1.404
339.30 1.403
339.40 1.402
339.50 1.401
339.60 1.4
339.70 1.399
339.80 1.398
339.90 1.397
340.00 1.397
340.10 1.396
340.20 1.395
340.30 1.394
340.40 1.393
340.50 1.392
340.60 1.391
340.70 1.391
340.80 1.39
340.90 1.389
341.00 1.388
341.10 1.387
341.20 1.386
341.30 1.385
341.40 1.385
341.50 1.384
341.60 1.383
341.70 1.382
341.80 1.381
341.90 1.38
342.00 1.379
342.10 1.379
342.20 1.378
342.30 1.377
342.40 1.376
342.50 1.375
342.60 1.374
342.70 1.374
342.80 1.373
342.90 1.372
343.00 1.371
343.10 1.37
343.20 1.369
343.30 1.368
343.40 1.368
343.50 1.367
343.60 1.366
343.70 1.365
343.80 1.364
343.90 1.363
344.00 1.363
344.10 1.362
344.20 1.361
344.30 1.36
344.40 1.359
344.50 1.358
344.60 1.358
344.70 1.357
344.80 1.356
344.90 1.355
345.00 1.354
345.10 1.353
345.20 1.353
345.30 1.352
345.40 1.351
345.50 1.35
345.60 1.349
345.70 1.348
345.80 1.348
345.90 1.347
346.00 1.346
346.10 1.345
346.20 1.344
346.30 1.344
346.40 1.343
346.50 1.342
346.60 1.341
346.70 1.34
346.80 1.339
346.90 1.339
347.00 1.338
347.10 1.337
347.20 1.336
347.30 1.335
347.40 1.335
347.50 1.334
347.60 1.333
347.70 1.332
347.80 1.331
347.90 1.33
348.00 1.33
348.10 1.329
348.20 1.328
348.30 1.327
348.40 1.326
348.50 1.326
348.60 1.325
348.70 1.324
348.80 1.323
348.90 1.322
349.00 1.322
349.10 1.321
349.20 1.32
349.30 1.319
349.40 1.318
349.50 1.318
349.60 1.317
349.70 1.316
349.80 1.315
349.90 1.314
350.00 1.314
350.10 1.313
350.20 1.312
350.30 1.311
350.40 1.31
350.50 1.31
350.60 1.309
350.70 1.308
350.80 1.307
350.90 1.306
351.00 1.306
351.10 1.305
351.20 1.304
351.30 1.303
351.40 1.303
351.50 1.302
351.60 1.301
351.70 1.3
351.80 1.299
351.90 1.299
352.00 1.298
352.10 1.297
352.20 1.296
352.30 1.295
352.40 1.295
352.50 1.294
352.60 1.293
352.70 1.292
352.80 1.292
352.90 1.291
353.00 1.29
353.10 1.289
353.20 1.288
353.30 1.288
353.40 1.287
353.50 1.286
353.60 1.285
353.70 1.285
353.80 1.284
353.90 1.283
354.00 1.282
354.10 1.281
354.20 1.281
354.30 1.28
354.40 1.279
354.50 1.278
354.60 1.278
354.70 1.277
354.80 1.276
354.90 1.275
355.00 1.275
355.10 1.274
355.20 1.273
355.30 1.272
355.40 1.272
355.50 1.271
355.60 1.27
355.70 1.269
355.80 1.268
355.90 1.268
356.00 1.267
356.10 1.266
356.20 1.265
356.30 1.265
356.40 1.264
356.50 1.263
356.60 1.262
356.70 1.262
356.80 1.261
356.90 1.26
357.00 1.259
357.10 1.259
357.20 1.258
357.30 1.257
357.40 1.256
357.50 1.256
357.60 1.255
357.70 1.254
357.80 1.253
357.90 1.253
358.00 1.252
358.10 1.251
358.20 1.25
358.30 1.25
358.40 1.249
358.50 1.248
358.60 1.247
358.70 1.247
358.80 1.246
358.90 1.245
359.00 1.244
359.10 1.244
359.20 1.243
359.30 1.242
359.40 1.241
359.50 1.241
359.60 1.24
359.70 1.239
359.80 1.238
359.90 1.238
360.00 1.237
360.10 1.236
360.20 1.236
360.30 1.235
360.40 1.234
360.50 1.233
360.60 1.233
360.70 1.232
360.80 1.231
360.90 1.23
361.00 1.23
361.10 1.229
361.20 1.228
361.30 1.227
361.40 1.227
361.50 1.226
361.60 1.225
361.70 1.225
361.80 1.224
361.90 1.223
362.00 1.222
362.10 1.222
362.20 1.221
362.30 1.22
362.40 1.22
362.50 1.219
362.60 1.218
362.70 1.217
362.80 1.217
362.90 1.216
363.00 1.215
363.10 1.214
363.20 1.214
363.30 1.213
363.40 1.212
363.50 1.211
363.60 1.211
363.70 1.21
363.80 1.209
363.90 1.208
364.00 1.207
364.10 1.207
364.20 1.206
364.30 1.205
364.40 1.204
364.50 1.204
364.60 1.203
364.70 1.202
364.80 1.201
364.90 1.201
365.00 1.2
365.10 1.199
365.20 1.198
365.30 1.197
365.40 1.197
365.50 1.196
365.60 1.195
365.70 1.194
365.80 1.194
365.90 1.193
366.00 1.192
366.10 1.191
366.20 1.191
366.30 1.19
366.40 1.189
366.50 1.189
366.60 1.188
366.70 1.187
366.80 1.187
366.90 1.186
367.00 1.185
367.10 1.184
367.20 1.184
367.30 1.183
367.40 1.182
367.50 1.182
367.60 1.181
367.70 1.18
367.80 1.18
367.90 1.179
368.00 1.178
368.10 1.178
368.20 1.178
368.30 1.177
368.40 1.177
368.50 1.177
368.60 1.176
368.70 1.176
368.80 1.176
368.90 1.175
369.00 1.175
369.10 1.175
369.20 1.174
369.30 1.174
369.40 1.174
369.50 1.173
369.60 1.173
369.70 1.173
369.80 1.173
369.90 1.172
370.00 1.172
370.10 1.173
370.20 1.173
370.30 1.174
370.40 1.175
370.50 1.175
370.60 1.176
370.70 1.177
370.80 1.177
370.90 1.178
371.00 1.179
371.10 1.179
371.20 1.18
371.30 1.181
371.40 1.181
371.50 1.182
371.60 1.183
371.70 1.183
371.80 1.184
371.90 1.185
372.00 1.185
372.10 1.187
372.20 1.189
372.30 1.191
372.40 1.193
372.50 1.195
372.60 1.197
372.70 1.198
372.80 1.2
372.90 1.202
373.00 1.204
373.10 1.206
373.20 1.208
373.30 1.209
373.40 1.211
373.50 1.213
373.60 1.215
373.70 1.217
373.80 1.218
373.90 1.22
374.00 1.222
374.10 1.224
374.20 1.227
374.30 1.229
374.40 1.231
374.50 1.233
374.60 1.236
374.70 1.238
374.80 1.24
374.90 1.242
375.00 1.244
375.10 1.247
375.20 1.249
375.30 1.251
375.40 1.253
375.50 1.256
375.60 1.258
375.70 1.26
375.80 1.262
375.90 1.264
376.00 1.267
376.10 1.268
376.20 1.269
376.30 1.27
376.40 1.271
376.50 1.272
376.60 1.273
376.70 1.275
376.80 1.276
376.90 1.277
377.00 1.278
377.10 1.276
377.20 1.275
377.30 1.273
377.40 1.271
377.50 1.269
377.60 1.268
377.70 1.266
377.80 1.264
377.90 1.263
378.00 1.261
378.10 1.25
378.20 1.24
378.30 1.229
378.40 1.218
378.50 1.208
378.60 1.197
378.70 1.187
378.80 1.176
378.90 1.166
379.00 1.155
379.10 1.147
379.20 1.138
379.30 1.13
379.40 1.121
379.50 1.113
379.60 1.105
379.70 1.096
379.80 1.088
379.90 1.08
380.00 1.071
380.10 1.085
380.20 1.098
380.30 1.111
380.40 1.124
380.50 1.138
380.60 1.151
380.70 1.164
380.80 1.177
380.90 1.19
381.00 1.203
381.10 1.208
381.20 1.213
381.30 1.218
381.40 1.222
381.50 1.227
381.60 1.227
381.70 1.224
381.80 1.221
381.90 1.215
382.00 1.208
382.10 1.198
382.20 1.187
382.30 1.165
382.40 1.143
382.50 1.121
382.60 1.099
382.70 1.077
382.80 1.055
382.90 1.033
383.00 1.011
383.10 0.989
383.20 0.9671
383.30 0.9472
383.40 0.9242
383.50 0.9001
383.60 0.905
383.70 0.9295
383.80 0.9524
383.90 0.9724
384.00 0.9952
384.10 1.022
384.20 1.05
384.30 1.077
384.40 1.104
384.50 1.13
384.60 1.153
384.70 1.174
384.80 1.193
384.90 1.209
385.00 1.224
385.10 1.236
385.20 1.246
385.30 1.256
385.40 1.263
385.50 1.269
385.60 1.275
385.70 1.278
385.80 1.281
385.90 1.283
386.00 1.283
386.10 1.282
386.20 1.28
386.30 1.277
386.40 1.273
386.50 1.268
386.60 1.262
386.70 1.254
386.80 1.246
386.90 1.236
387.00 1.225
387.10 1.214
387.20 1.2
387.30 1.185
387.40 1.17
387.50 1.151
387.60 1.131
387.70 1.11
387.80 1.086
387.90 1.059
388.00 1.03
388.10 0.9981
388.20 0.9645
388.30 0.9296
388.40 0.8939
388.50 0.8605
388.60 0.8295
388.70 0.8001
388.80 0.7716
388.90 0.744
389.00 0.7692
389.10 0.7964
389.20 0.8255
389.30 0.8559
389.40 0.8888
389.50 0.9242
389.60 0.9594
389.70 0.9934
389.80 1.026
389.90 1.056
390.00 1.084
390.10 1.11
390.20 1.133
390.30 1.155
390.40 1.175
390.50 1.194
390.60 1.211
390.70 1.228
390.80 1.244
390.90 1.258
391.00 1.273
391.10 1.286
391.20 1.298
391.30 1.31
391.40 1.321
391.50 1.331
391.60 1.341
391.70 1.35
391.80 1.358
391.90 1.366
392.00 1.372
392.10 1.378
392.20 1.383
392.30 1.387
392.40 1.391
392.50 1.394
392.60 1.395
392.70 1.396
392.80 1.397
392.90 1.396
393.00 1.394
393.10 1.392
393.20 1.388
393.30 1.384
393.40 1.379
393.50 1.373
393.60 1.366
393.70 1.359
393.80 1.35
393.90 1.341
394.00 1.331
394.10 1.32
394.20 1.308
394.30 1.296
394.40 1.282
394.50 1.268
394.60 1.254
394.70 1.238
394.80 1.222
394.90 1.206
395.00 1.188
395.10 1.17
395.20 1.152
395.30 1.132
395.40 1.112
395.50 1.092
395.60 1.069
395.70 1.047
395.80 1.023
395.90 0.997
396.00 0.9702
396.10 0.9422
396.20 0.9113
396.30 0.8787
396.40 0.8445
396.50 0.8079
396.60 0.7723
396.70 0.7376
396.80 0.7036
396.90 0.6637
397.00 0.6181
397.10 0.6599
397.20 0.6978
397.30 0.7316
397.40 0.7655
397.50 0.8004
397.60 0.8362
397.70 0.87
397.80 0.9022
397.90 0.9326
398.00 0.9601
398.10 0.9865
398.20 1.012
398.30 1.035
398.40 1.058
398.50 1.079
398.60 1.1
398.70 1.12
398.80 1.139
398.90 1.158
399.00 1.176
399.10 1.194
399.20 1.211
399.30 1.228
399.40 1.245
399.50 1.261
399.60 1.277
399.70 1.292
399.80 1.307
399.90 1.321
400.00 1.335
400.10 1.348
400.20 1.361
400.30 1.374
400.40 1.386
400.50 1.397
400.60 1.409
400.70 1.419
400.80 1.429
400.90 1.439
401.00 1.448
401.10 1.457
401.20 1.466
401.30 1.474
401.40 1.481
401.50 1.488
401.60 1.495
401.70 1.501
401.80 1.507
401.90 1.513
402.00 1.518
402.10 1.522
402.20 1.527
402.30 1.53
402.40 1.534
402.50 1.537
402.60 1.54
402.70 1.542
402.80 1.544
402.90 1.546
403.00 1.547
403.10 1.548
403.20 1.548
403.30 1.549
403.40 1.548
403.50 1.548
403.60 1.547
403.70 1.545
403.80 1.544
403.90 1.542
404.00 1.539
404.10 1.536
404.20 1.533
404.30 1.53
404.40 1.526
404.50 1.521
404.60 1.517
404.70 1.511
404.80 1.506
404.90 1.5
405.00 1.494
405.10 1.487
405.20 1.48
405.30 1.473
405.40 1.465
405.50 1.457
405.60 1.448
405.70 1.439
405.80 1.43
405.90 1.42
406.00 1.41
406.10 1.399
406.20 1.388
406.30 1.376
406.40 1.365
406.50 1.352
406.60 1.34
406.70 1.326
406.80 1.313
406.90 1.299
407.00 1.285
407.10 1.27
407.20 1.254
407.30 1.239
407.40 1.222
407.50 1.206
407.60 1.189
407.70 1.171
407.80 1.154
407.90 1.135
408.00 1.117
408.10 1.098
408.20 1.079
408.30 1.06
408.40 1.04
408.50 1.02
408.60 0.9997
408.70 0.9791
408.80 0.9579
408.90 0.9363
409.00 0.9143
409.10 0.8914
409.20 0.8677
409.30 0.8433
409.40 0.8167
409.50 0.7886
409.60 0.7591
409.70 0.7274
409.80 0.6953
409.90 0.663
410.00 0.6245
410.10 0.5842
410.20 0.5421
410.30 0.5995
410.40 0.6452
410.50 0.6791
410.60 0.7107
410.70 0.7417
410.80 0.7721
410.90 0.7998
411.00 0.8261
411.10 0.851
411.20 0.8738
411.30 0.8961
411.40 0.9177
411.50 0.9383
411.60 0.9586
411.70 0.9785
411.80 0.9978
411.90 1.017
412.00 1.036
412.10 1.054
412.20 1.072
412.30 1.09
412.40 1.107
412.50 1.124
412.60 1.141
412.70 1.157
412.80 1.173
412.90 1.189
413.00 1.204
413.10 1.219
413.20 1.233
413.30 1.247
413.40 1.261
413.50 1.274
413.60 1.287
413.70 1.299
413.80 1.312
413.90 1.323
414.00 1.335
414.10 1.346
414.20 1.357
414.30 1.367
414.40 1.377
414.50 1.387
414.60 1.397
414.70 1.406
414.80 1.415
414.90 1.424
415.00 1.432
415.10 1.44
415.20 1.448
415.30 1.455
415.40 1.463
415.50 1.47
415.60 1.477
415.70 1.483
415.80 1.489
415.90 1.495
416.00 1.501
416.10 1.507
416.20 1.512
416.30 1.517
416.40 1.523
416.50 1.527
416.60 1.532
416.70 1.536
416.80 1.541
416.90 1.545
417.00 1.549
417.10 1.552
417.20 1.556
417.30 1.559
417.40 1.563
417.50 1.566
417.60 1.569
417.70 1.572
417.80 1.574
417.90 1.577
418.00 1.579
418.10 1.582
418.20 1.584
418.30 1.586
418.40 1.588
418.50 1.59
418.60 1.591
418.70 1.593
418.80 1.594
418.90 1.596
419.00 1.597
419.10 1.598
419.20 1.599
419.30 1.6
419.40 1.601
419.50 1.602
419.60 1.603
419.70 1.603
419.80 1.604
419.90 1.604
420.00 1.604
420.10 1.605
420.20 1.605
420.30 1.605
420.40 1.605
420.50 1.605
420.60 1.605
420.70 1.605
420.80 1.605
420.90 1.604
421.00 1.604
421.10 1.604
421.20 1.603
421.30 1.602
421.40 1.602
421.50 1.601
421.60 1.6
421.70 1.6
421.80 1.599
421.90 1.598
422.00 1.597
422.10 1.596
422.20 1.594
422.30 1.593
422.40 1.592
422.50 1.591
422.60 1.589
422.70 1.588
422.80 1.586
422.90 1.585
423.00 1.583
423.10 1.581
423.20 1.579
423.30 1.577
423.40 1.576
423.50 1.574
423.60 1.571
423.70 1.569
423.80 1.567
423.90 1.565
424.00 1.562
424.10 1.56
424.20 1.558
424.30 1.555
424.40 1.552
424.50 1.55
424.60 1.547
424.70 1.544
424.80 1.541
424.90 1.538
425.00 1.535
425.10 1.532
425.20 1.528
425.30 1.525
425.40 1.521
425.50 1.518
425.60 1.514
425.70 1.51
425.80 1.507
425.90 1.503
426.00 1.499
426.10 1.494
426.20 1.489
426.30 1.484
426.40 1.48
426.50 1.475
426.60 1.47
426.70 1.466
426.80 1.461
426.90 1.455
427.00 1.45
427.10 1.445
427.20 1.439
427.30 1.434
427.40 1.428
427.50 1.422
427.60 1.416
427.70 1.41
427.80 1.403
427.90 1.397
428.00 1.39
428.10 1.383
428.20 1.376
428.30 1.369
428.40 1.362
428.50 1.354
428.60 1.346
428.70 1.338
428.80 1.33
428.90 1.322
429.00 1.313
429.10 1.305
429.20 1.296
429.30 1.287
429.40 1.277
429.50 1.268
429.60 1.258
429.70 1.248
429.80 1.238
429.90 1.228
430.00 1.217
430.10 1.206
430.20 1.195
430.30 1.184
430.40 1.172
430.50 1.16
430.60 1.148
430.70 1.136
430.80 1.124
430.90 1.111
431.00 1.098
431.10 1.086
431.20 1.072
431.30 1.059
431.40 1.046
431.50 1.032
431.60 1.018
431.70 1.003
431.80 0.9886
431.90 0.9733
432.00 0.9578
432.10 0.942
432.20 0.9253
432.30 0.9082
432.40 0.8905
432.50 0.8717
432.60 0.8522
432.70 0.8322
432.80 0.8117
432.90 0.7914
433.00 0.7714
433.10 0.7523
433.20 0.7332
433.30 0.7138
433.40 0.6924
433.50 0.6695
433.60 0.6451
433.70 0.6176
433.80 0.587
433.90 0.5533
434.00 0.4788
434.10 0.4798
434.20 0.5562
434.30 0.5887
434.40 0.6184
434.50 0.6452
434.60 0.6687
434.70 0.6908
434.80 0.7114
434.90 0.73
435.00 0.7484
435.10 0.7667
435.20 0.7859
435.30 0.8052
435.40 0.8248
435.50 0.8437
435.60 0.862
435.70 0.8797
435.80 0.8961
435.90 0.912
436.00 0.9274
436.10 0.942
436.20 0.9562
436.30 0.9701
436.40 0.9834
436.50 0.9964
436.60 1.009
436.70 1.021
436.80 1.034
436.90 1.045
437.00 1.057
437.10 1.068
437.20 1.08
437.30 1.09
437.40 1.101
437.50 1.112
437.60 1.122
437.70 1.132
437.80 1.142
437.90 1.151
438.00 1.161
438.10 1.17
438.20 1.178
438.30 1.187
438.40 1.195
438.50 1.203
438.60 1.211
438.70 1.219
438.80 1.226
438.90 1.234
439.00 1.241
439.10 1.247
439.20 1.254
439.30 1.26
439.40 1.266
439.50 1.272
439.60 1.278
439.70 1.284
439.80 1.289
439.90 1.294
440.00 1.299
440.10 1.304
440.20 1.309
440.30 1.314
440.40 1.318
440.50 1.322
440.60 1.326
440.70 1.33
440.80 1.334
440.90 1.338
441.00 1.341
441.10 1.345
441.20 1.348
441.30 1.351
441.40 1.355
441.50 1.358
441.60 1.36
441.70 1.363
441.80 1.366
441.90 1.368
442.00 1.371
442.10 1.373
442.20 1.375
442.30 1.377
442.40 1.38
442.50 1.381
442.60 1.383
442.70 1.385
442.80 1.387
442.90 1.389
443.00 1.39
443.10 1.392
443.20 1.393
443.30 1.394
443.40 1.396
443.50 1.397
443.60 1.398
443.70 1.399
443.80 1.4
443.90 1.401
444.00 1.402
444.10 1.403
444.20 1.404
444.30 1.405
444.40 1.406
444.50 1.406
444.60 1.407
444.70 1.408
444.80 1.408
444.90 1.409
445.00 1.409
445.10 1.41
445.20 1.41
445.30 1.41
445.40 1.411
445.50 1.411
445.60 1.411
445.70 1.412
445.80 1.412
445.90 1.412
446.00 1.412
446.10 1.412
446.20 1.412
446.30 1.412
446.40 1.412
446.50 1.412
446.60 1.412
446.70 1.412
446.80 1.412
446.90 1.412
447.00 1.412
447.10 1.412
447.20 1.412
447.30 1.412
447.40 1.411
447.50 1.411
447.60 1.411
447.70 1.411
447.80 1.411
447.90 1.41
448.00 1.41
448.10 1.41
448.20 1.409
448.30 1.409
448.40 1.409
448.50 1.408
448.60 1.408
448.70 1.407
448.80 1.407
448.90 1.407
449.00 1.406
449.10 1.406
449.20 1.405
449.30 1.405
449.40 1.405
449.50 1.404
449.60 1.403
449.70 1.403
449.80 1.402
449.90 1.402
450.00 1.401
450.10 1.401
450.20 1.4
450.30 1.4
450.40 1.399
450.50 1.398
450.60 1.398
450.70 1.397
450.80 1.397
450.90 1.396
451.00 1.395
451.10 1.395
451.20 1.394
451.30 1.393
451.40 1.393
451.50 1.392
451.60 1.391
451.70 1.391
451.80 1.39
451.90 1.389
452.00 1.388
452.10 1.388
452.20 1.387
452.30 1.386
452.40 1.386
452.50 1.385
452.60 1.384
452.70 1.383
452.80 1.383
452.90 1.382
453.00 1.381
453.10 1.38
453.20 1.38
453.30 1.379
453.40 1.378
453.50 1.377
453.60 1.377
453.70 1.376
453.80 1.375
453.90 1.374
454.00 1.373
454.10 1.373
454.20 1.372
454.30 1.371
454.40 1.37
454.50 1.369
454.60 1.369
454.70 1.368
454.80 1.367
454.90 1.366
455.00 1.365
455.10 1.364
455.20 1.364
455.30 1.363
455.40 1.362
455.50 1.361
455.60 1.36
455.70 1.359
455.80 1.358
455.90 1.358
456.00 1.357
456.10 1.356
456.20 1.355
456.30 1.354
456.40 1.353
456.50 1.353
456.60 1.352
456.70 1.351
456.80 1.35
456.90 1.349
457.00 1.348
457.10 1.348
457.20 1.347
457.30 1.346
457.40 1.345
457.50 1.344
457.60 1.343
457.70 1.342
457.80 1.342
457.90 1.341
458.00 1.34
458.10 1.339
458.20 1.338
458.30 1.337
458.40 1.336
458.50 1.335
458.60 1.334
458.70 1.333
458.80 1.333
458.90 1.332
459.00 1.331
459.10 1.33
459.20 1.329
459.30 1.328
459.40 1.327
459.50 1.326
459.60 1.325
459.70 1.324
459.80 1.323
459.90 1.322
460.00 1.321
460.10 1.321
460.20 1.32
460.30 1.319
460.40 1.318
460.50 1.317
460.60 1.316
460.70 1.315
460.80 1.314
460.90 1.313
461.00 1.312
461.10 1.311
461.20 1.31
461.30 1.309
461.40 1.308
461.50 1.307
461.60 1.306
461.70 1.306
461.80 1.305
461.90 1.304
462.00 1.303
462.10 1.302
462.20 1.301
462.30 1.3
462.40 1.299
462.50 1.298
462.60 1.297
462.70 1.296
462.80 1.295
462.90 1.294
463.00 1.293
463.10 1.292
463.20 1.291
463.30 1.29
463.40 1.289
463.50 1.288
463.60 1.287
463.70 1.286
463.80 1.285
463.90 1.284
464.00 1.283
464.10 1.282
464.20 1.281
464.30 1.28
464.40 1.279
464.50 1.278
464.60 1.277
464.70 1.276
464.80 1.275
464.90 1.274
465.00 1.273
465.10 1.272
465.20 1.271
465.30 1.27
465.40 1.269
465.50 1.268
465.60 1.267
465.70 1.265
465.80 1.264
465.90 1.263
466.00 1.262
466.10 1.261
466.20 1.26
466.30 1.259
466.40 1.258
466.50 1.257
466.60 1.256
466.70 1.255
466.80 1.254
466.90 1.253
467.00 1.252
467.10 1.25
467.20 1.249
467.30 1.248
467.40 1.247
467.50 1.246
467.60 1.245
467.70 1.244
467.80 1.243
467.90 1.241
468.00 1.24
468.10 1.239
468.20 1.238
468.30 1.237
468.40 1.236
468.50 1.235
468.60 1.233
468.70 1.232
468.80 1.231
468.90 1.23
469.00 1.229
469.10 1.227
469.20 1.226
469.30 1.225
469.40 1.224
469.50 1.223
469.60 1.221
469.70 1.22
469.80 1.219
469.90 1.218
470.00 1.216
470.10 1.215
470.20 1.214
470.30 1.213
470.40 1.211
470.50 1.21
470.60 1.209
470.70 1.207
470.80 1.206
470.90 1.205
471.00 1.204
471.10 1.202
471.20 1.201
471.30 1.199
471.40 1.198
471.50 1.197
471.60 1.195
471.70 1.194
471.80 1.192
471.90 1.191
472.00 1.189
472.10 1.188
472.20 1.187
472.30 1.185
472.40 1.183
472.50 1.182
472.60 1.18
472.70 1.179
472.80 1.177
472.90 1.176
473.00 1.174
473.10 1.173
473.20 1.171
473.30 1.169
473.40 1.167
473.50 1.166
473.60 1.164
473.70 1.162
473.80 1.161
473.90 1.159
474.00 1.157
474.10 1.155
474.20 1.154
474.30 1.152
474.40 1.15
474.50 1.148
474.60 1.146
474.70 1.144
474.80 1.142
474.90 1.14
475.00 1.138
475.10 1.136
475.20 1.134
475.30 1.132
475.40 1.13
475.50 1.127
475.60 1.125
475.70 1.123
475.80 1.121
475.90 1.119
476.00 1.116
476.10 1.114
476.20 1.112
476.30 1.109
476.40 1.107
476.50 1.104
476.60 1.101
476.70 1.099
476.80 1.096
476.90 1.094
477.00 1.091
477.10 1.089
477.20 1.086
477.30 1.083
477.40 1.08
477.50 1.077
477.60 1.074
477.70 1.071
477.80 1.068
477.90 1.065
478.00 1.062
478.10 1.059
478.20 1.055
478.30 1.052
478.40 1.048
478.50 1.045
478.60 1.041
478.70 1.037
478.80 1.034
478.90 1.03
479.00 1.027
479.10 1.023
479.20 1.019
479.30 1.015
479.40 1.01
479.50 1.006
479.60 1.002
479.70 0.9974
479.80 0.9931
479.90 0.9888
480.00 0.9845
480.10 0.9802
480.20 0.9753
480.30 0.9701
480.40 0.9649
480.50 0.9597
480.60 0.9545
480.70 0.9494
480.80 0.9442
480.90 0.939
481.00 0.9339
481.10 0.9287
481.20 0.9228
481.30 0.9164
481.40 0.9101
481.50 0.9038
481.60 0.8975
481.70 0.8912
481.80 0.8849
481.90 0.8787
482.00 0.8724
482.10 0.8661
482.20 0.8589
482.30 0.8513
482.40 0.8436
482.50 0.836
482.60 0.8284
482.70 0.8208
482.80 0.8132
482.90 0.8056
483.00 0.798
483.10 0.7904
483.20 0.7816
483.30 0.7723
483.40 0.763
483.50 0.7537
483.60 0.7445
483.70 0.7352
483.80 0.7259
483.90 0.7167
484.00 0.7074
484.10 0.6982
484.20 0.688
484.30 0.6774
484.40 0.6668
484.50 0.6563
484.60 0.6457
484.70 0.6345
484.80 0.6231
484.90 0.6117
485.00 0.6004
485.10 0.589
485.20 0.5773
485.30 0.5655
485.40 0.553
485.50 0.5402
485.60 0.5262
485.70 0.5116
485.80 0.4934
485.90 0.4736
486.00 0.4455
486.10 0.3642
486.20 0.4036
486.30 0.4569
486.40 0.4792
486.50 0.4988
486.60 0.5147
486.70 0.5289
486.80 0.5418
486.90 0.5541
487.00 0.5656
487.10 0.5769
487.20 0.5878
487.30 0.5986
487.40 0.6093
487.50 0.62
487.60 0.6308
487.70 0.6409
487.80 0.6507
487.90 0.6605
488.00 0.6703
488.10 0.68
488.20 0.6888
488.30 0.6972
488.40 0.7055
488.50 0.7139
488.60 0.7222
488.70 0.7305
488.80 0.7388
488.90 0.7471
489.00 0.7554
489.10 0.7637
489.20 0.7708
489.30 0.7772
489.40 0.7837
489.50 0.7902
489.60 0.7966
489.70 0.8031
489.80 0.8095
489.90 0.816
490.00 0.8224
490.10 0.8289
490.20 0.8343
490.30 0.8393
490.40 0.8443
490.50 0.8493
490.60 0.8543
490.70 0.8593
490.80 0.8642
490.90 0.8692
491.00 0.8742
491.10 0.8791
491.20 0.8833
491.30 0.887
491.40 0.8908
491.50 0.8945
491.60 0.8983
491.70 0.902
491.80 0.9058
491.90 0.9095
492.00 0.9133
492.10 0.917
492.20 0.9201
492.30 0.9229
492.40 0.9257
492.50 0.9284
492.60 0.9312
492.70 0.934
492.80 0.9368
492.90 0.9396
493.00 0.9423
493.10 0.9451
493.20 0.9474
493.30 0.9494
493.40 0.9515
493.50 0.9535
493.60 0.9556
493.70 0.9576
493.80 0.9596
493.90 0.9617
494.00 0.9637
494.10 0.9657
494.20 0.9673
494.30 0.9688
494.40 0.9702
494.50 0.9716
494.60 0.973
494.70 0.9744
494.80 0.9758
494.90 0.9772
495.00 0.9786
495.10 0.98
495.20 0.9811
495.30 0.982
495.40 0.983
495.50 0.9839
495.60 0.9849
495.70 0.9858
495.80 0.9868
495.90 0.9877
496.00 0.9886
496.10 0.9896
496.20 0.9903
496.30 0.9909
496.40 0.9915
496.50 0.9921
496.60 0.9927
496.70 0.9933
496.80 0.9939
496.90 0.9944
497.00 0.995
497.10 0.9956
497.20 0.996
497.30 0.9964
497.40 0.9967
497.50 0.997
497.60 0.9974
497.70 0.9977
497.80 0.998
497.90 0.9983
498.00 0.9987
498.10 0.999
498.20 0.9992
498.30 0.9993
498.40 0.9994
498.50 0.9995
498.60 0.9997
498.70 0.9998
498.80 0.9999
498.90 1
499.00 1
499.10 1
499.20 1
499.30 1
499.40 1
499.50 1
499.60 1
499.70 1
499.80 1
499.90 1
500.00 1
500.10 1
500.20 0.9998
500.30 0.9997
500.40 0.9995
500.50 0.9994
500.60 0.9992
500.70 0.9991
500.80 0.9989
500.90 0.9988
501.00 0.9986
501.10 0.9985
501.20 0.9983
501.30 0.998
501.40 0.9978
501.50 0.9975
501.60 0.9973
501.70 0.9971
501.80 0.9968
501.90 0.9966
502.00 0.9963
502.10 0.9961
502.20 0.9958
502.30 0.9955
502.40 0.9952
502.50 0.9949
502.60 0.9946
502.70 0.9943
502.80 0.9939
502.90 0.9936
503.00 0.9933
503.10 0.993
503.20 0.9927
503.30 0.9923
503.40 0.9919
503.50 0.9916
503.60 0.9912
503.70 0.9909
503.80 0.9905
503.90 0.9901
504.00 0.9898
504.10 0.9894
504.20 0.989
504.30 0.9886
504.40 0.9882
504.50 0.9878
504.60 0.9874
504.70 0.987
504.80 0.9866
504.90 0.9862
505.00 0.9858
505.10 0.9854
505.20 0.9849
505.30 0.9845
505.40 0.9841
505.50 0.9836
505.60 0.9832
505.70 0.9827
505.80 0.9823
505.90 0.9819
506.00 0.9814
506.10 0.981
506.20 0.9805
506.30 0.9801
506.40 0.9796
506.50 0.9791
506.60 0.9787
506.70 0.9782
506.80 0.9777
506.90 0.9773
507.00 0.9768
507.10 0.9763
507.20 0.9759
507.30 0.9754
507.40 0.9749
507.50 0.9744
507.60 0.9739
507.70 0.9734
507.80 0.973
507.90 0.9725
508.00 0.972
508.10 0.9715
508.20 0.971
508.30 0.9705
508.40 0.97
508.50 0.9695
508.60 0.969
508.70 0.9685
508.80 0.968
508.90 0.9675
509.00 0.967
509.10 0.9665
509.20 0.966
509.30 0.9655
509.40 0.965
509.50 0.9645
509.60 0.964
509.70 0.9634
509.80 0.9629
509.90 0.9624
510.00 0.9619
510.10 0.9614
510.20 0.9609
510.30 0.9604
510.40 0.9598
510.50 0.9593
510.60 0.9588
510.70 0.9583
510.80 0.9578
510.90 0.9572
511.00 0.9567
511.10 0.9562
511.20 0.9557
511.30 0.9551
511.40 0.9546
511.50 0.9541
511.60 0.9536
511.70 0.953
511.80 0.9525
511.90 0.952
512.00 0.9514
512.10 0.9509
512.20 0.9504
512.30 0.9499
512.40 0.9493
512.50 0.9488
512.60 0.9483
512.70 0.9477
512.80 0.9472
512.90 0.9467
513.00 0.9461
513.10 0.9456
513.20 0.9451
513.30 0.9445
513.40 0.944
513.50 0.9435
513.60 0.9429
513.70 0.9424
513.80 0.9418
513.90 0.9413
514.00 0.9408
514.10 0.9402
514.20 0.9397
514.30 0.9392
514.40 0.9386
514.50 0.9381
514.60 0.9376
514.70 0.937
514.80 0.9365
514.90 0.9359
515.00 0.9354
515.10 0.9349
515.20 0.9343
515.30 0.9338
515.40 0.9333
515.50 0.9327
515.60 0.9322
515.70 0.9316
515.80 0.9311
515.90 0.9306
516.00 0.93
516.10 0.9295
516.20 0.9289
516.30 0.9284
516.40 0.9279
516.50 0.9273
516.60 0.9268
516.70 0.9262
516.80 0.9257
516.90 0.9252
517.00 0.9246
517.10 0.9241
517.20 0.9235
517.30 0.923
517.40 0.9225
517.50 0.9219
517.60 0.9214
517.70 0.9208
517.80 0.9203
517.90 0.9198
518.00 0.9192
518.10 0.9187
518.20 0.9182
518.30 0.9176
518.40 0.9171
518.50 0.9165
518.60 0.916
518.70 0.9155
518.80 0.9149
518.90 0.9144
519.00 0.9139
519.10 0.9133
519.20 0.9128
519.30 0.9122
519.40 0.9117
519.50 0.9112
519.60 0.9106
519.70 0.9101
519.80 0.9096
519.90 0.909
520.00 0.9085
520.10 0.908
520.20 0.9074
520.30 0.9069
520.40 0.9063
520.50 0.9058
520.60 0.9053
520.70 0.9047
520.80 0.9042
520.90 0.9037
521.00 0.9031
521.10 0.9026
521.20 0.9021
521.30 0.9015
521.40 0.901
521.50 0.9005
521.60 0.8999
521.70 0.8994
521.80 0.8989
521.90 0.8983
522.00 0.8978
522.10 0.8973
522.20 0.8967
522.30 0.8962
522.40 0.8957
522.50 0.8951
522.60 0.8946
522.70 0.8941
522.80 0.8935
522.90 0.893
523.00 0.8925
523.10 0.8919
523.20 0.8914
523.30 0.8909
523.40 0.8903
523.50 0.8898
523.60 0.8893
523.70 0.8888
523.80 0.8882
523.90 0.8877
524.00 0.8872
524.10 0.8866
524.20 0.8861
524.30 0.8856
524.40 0.8851
524.50 0.8845
524.60 0.884
524.70 0.8835
524.80 0.883
524.90 0.8824
525.00 0.8819
525.10 0.8814
525.20 0.8809
525.30 0.8803
525.40 0.8798
525.50 0.8793
525.60 0.8788
525.70 0.8782
525.80 0.8777
525.90 0.8772
526.00 0.8767
526.10 0.8761
526.20 0.8756
526.30 0.8751
526.40 0.8746
526.50 0.874
526.60 0.8735
526.70 0.873
526.80 0.8725
526.90 0.872
527.00 0.8714
527.10 0.8709
527.20 0.8704
527.30 0.8699
527.40 0.8694
527.50 0.8688
527.60 0.8683
527.70 0.8678
527.80 0.8673
527.90 0.8668
528.00 0.8662
528.10 0.8657
528.20 0.8652
528.30 0.8647
528.40 0.8642
528.50 0.8637
528.60 0.8631
528.70 0.8626
528.80 0.8621
528.90 0.8616
529.00 0.8611
529.10 0.8606
529.20 0.8601
529.30 0.8595
529.40 0.859
529.50 0.8585
529.60 0.858
529.70 0.8575
529.80 0.857
529.90 0.8565
530.00 0.8559
530.10 0.8554
530.20 0.8549
530.30 0.8544
530.40 0.8539
530.50 0.8534
530.60 0.8529
530.70 0.8524
530.80 0.8519
530.90 0.8514
531.00 0.8509
531.10 0.8503
531.20 0.8498
531.30 0.8493
531.40 0.8488
531.50 0.8483
531.60 0.8478
531.70 0.8473
531.80 0.8468
531.90 0.8463
532.00 0.8458
532.10 0.8453
532.20 0.8448
532.30 0.8443
532.40 0.8438
532.50 0.8433
532.60 0.8428
532.70 0.8423
532.80 0.8418
532.90 0.8413
533.00 0.8408
533.10 0.8402
533.20 0.8397
533.30 0.8392
533.40 0.8387
533.50 0.8382
533.60 0.8377
533.70 0.8372
533.80 0.8367
533.90 0.8362
534.00 0.8357
534.10 0.8352
534.20 0.8347
534.30 0.8343
534.40 0.8338
534.50 0.8333
534.60 0.8328
534.70 0.8323
534.80 0.8318
534.90 0.8313
535.00 0.8308
535.10 0.8303
535.20 0.8298
535.30 0.8293
535.40 0.8288
535.50 0.8283
535.60 0.8278
535.70 0.8273
535.80 0.8268
535.90 0.8263
536.00 0.8258
536.10 0.8253
536.20 0.8249
536.30 0.8244
536.40 0.8239
536.50 0.8234
536.60 0.8229
536.70 0.8224
536.80 0.8219
536.90 0.8214
537.00 0.8209
537.10 0.8204
537.20 0.82
537.30 0.8195
537.40 0.819
537.50 0.8185
537.60 0.818
537.70 0.8175
537.80 0.817
537.90 0.8165
538.00 0.8161
538.10 0.8156
538.20 0.8151
538.30 0.8146
538.40 0.8141
538.50 0.8136
538.60 0.8132
538.70 0.8127
538.80 0.8122
538.90 0.8117
539.00 0.8112
539.10 0.8108
539.20 0.8103
539.30 0.8098
539.40 0.8093
539.50 0.8088
539.60 0.8083
539.70 0.8079
539.80 0.8074
539.90 0.8069
540.00 0.8064
540.10 0.806
540.20 0.8055
540.30 0.805
540.40 0.8045
540.50 0.804
540.60 0.8036
540.70 0.8031
540.80 0.8026
540.90 0.8021
541.00 0.8017
541.10 0.8012
541.20 0.8007
541.30 0.8002
541.40 0.7998
541.50 0.7993
541.60 0.7988
541.70 0.7983
541.80 0.7979
541.90 0.7974
542.00 0.7969
542.10 0.7965
542.20 0.796
542.30 0.7955
542.40 0.795
542.50 0.7946
542.60 0.7941
542.70 0.7936
542.80 0.7932
542.90 0.7927
543.00 0.7922
543.10 0.7917
543.20 0.7913
543.30 0.7908
543.40 0.7903
543.50 0.7899
543.60 0.7894
543.70 0.7889
543.80 0.7885
543.90 0.788
544.00 0.7875
544.10 0.7871
544.20 0.7866
544.30 0.7862
544.40 0.7857
544.50 0.7852
544.60 0.7848
544.70 0.7843
544.80 0.7838
544.90 0.7834
545.00 0.7829
545.10 0.7825
545.20 0.782
545.30 0.7815
545.40 0.7811
545.50 0.7806
545.60 0.7801
545.70 0.7797
545.80 0.7792
545.90 0.7788
546.00 0.7783
546.10 0.7778
546.20 0.7774
546.30 0.777
546.40 0.7766
546.50 0.7762
546.60 0.7758
546.70 0.7754
546.80 0.7749
546.90 0.7745
547.00 0.7741
547.10 0.7737
547.20 0.7733
547.30 0.7728
547.40 0.7724
547.50 0.7719
547.60 0.7714
547.70 0.771
547.80 0.7705
547.90 0.7701
548.00 0.7696
548.10 0.7692
548.20 0.7687
548.30 0.7683
548.40 0.7678
548.50 0.7673
548.60 0.7669
548.70 0.7664
548.80 0.766
548.90 0.7655
549.00 0.7651
549.10 0.7646
549.20 0.7642
549.30 0.7637
549.40 0.7633
549.50 0.7628
549.60 0.7624
549.70 0.7619
549.80 0.7615
549.90 0.761
550.00 0.7606
550.10 0.7601
550.20 0.7597
550.30 0.7592
550.40 0.7588
550.50 0.7584
550.60 0.7579
550.70 0.7575
550.80 0.757
550.90 0.7566
551.00 0.7561
551.10 0.7557
551.20 0.7552
551.30 0.7548
551.40 0.7544
551.50 0.7539
551.60 0.7535
551.70 0.753
551.80 0.7526
551.90 0.7521
552.00 0.7517
552.10 0.7513
552.20 0.7508
552.30 0.7504
552.40 0.7499
552.50 0.7495
552.60 0.7491
552.70 0.7486
552.80 0.7482
552.90 0.7477
553.00 0.7473
553.10 0.7469
553.20 0.7464
553.30 0.746
553.40 0.7456
553.50 0.7451
553.60 0.7447
553.70 0.7442
553.80 0.7438
553.90 0.7434
554.00 0.7429
554.10 0.7425
554.20 0.7421
554.30 0.7416
554.40 0.7412
554.50 0.7408
554.60 0.7403
554.70 0.7399
554.80 0.7395
554.90 0.739
555.00 0.7386
555.10 0.7382
555.20 0.7377
555.30 0.7373
555.40 0.7369
555.50 0.7365
555.60 0.736
555.70 0.7356
555.80 0.7352
555.90 0.7347
556.00 0.7343
556.10 0.7339
556.20 0.7334
556.30 0.733
556.40 0.7326
556.50 0.7322
556.60 0.7317
556.70 0.7313
556.80 0.7309
556.90 0.7305
557.00 0.73
557.10 0.7296
557.20 0.7292
557.30 0.7288
557.40 0.7283
557.50 0.7279
557.60 0.7275
557.70 0.7271
557.80 0.7266
557.90 0.7262
558.00 0.7258
558.10 0.7254
558.20 0.725
558.30 0.7245
558.40 0.7241
558.50 0.7237
558.60 0.7233
558.70 0.7228
558.80 0.7224
558.90 0.722
559.00 0.7216
559.10 0.7212
559.20 0.7208
559.30 0.7203
559.40 0.7199
559.50 0.7195
559.60 0.7191
559.70 0.7187
559.80 0.7182
559.90 0.7178
560.00 0.7174
560.10 0.717
560.20 0.7166
560.30 0.7162
560.40 0.7158
560.50 0.7153
560.60 0.7149
560.70 0.7145
560.80 0.7141
560.90 0.7137
561.00 0.7133
561.10 0.7129
561.20 0.7124
561.30 0.712
561.40 0.7116
561.50 0.7112
561.60 0.7108
561.70 0.7104
561.80 0.71
561.90 0.7096
562.00 0.7091
562.10 0.7087
562.20 0.7083
562.30 0.7079
562.40 0.7075
562.50 0.7071
562.60 0.7067
562.70 0.7063
562.80 0.7059
562.90 0.7055
563.00 0.7051
563.10 0.7047
563.20 0.7042
563.30 0.7038
563.40 0.7034
563.50 0.703
563.60 0.7026
563.70 0.7022
563.80 0.7018
563.90 0.7014
564.00 0.701
564.10 0.7006
564.20 0.7002
564.30 0.6998
564.40 0.6994
564.50 0.699
564.60 0.6986
564.70 0.6982
564.80 0.6978
564.90 0.6974
565.00 0.697
565.10 0.6966
565.20 0.6962
565.30 0.6958
565.40 0.6954
565.50 0.695
565.60 0.6946
565.70 0.6942
565.80 0.6938
565.90 0.6934
566.00 0.693
566.10 0.6926
566.20 0.6922
566.30 0.6918
566.40 0.6914
566.50 0.691
566.60 0.6906
566.70 0.6902
566.80 0.6898
566.90 0.6894
567.00 0.689
567.10 0.6886
567.20 0.6882
567.30 0.6878
567.40 0.6874
567.50 0.687
567.60 0.6866
567.70 0.6863
567.80 0.6859
567.90 0.6855
568.00 0.6851
568.10 0.6847
568.20 0.6843
568.30 0.6839
568.40 0.6835
568.50 0.6831
568.60 0.6827
568.70 0.6823
568.80 0.6819
568.90 0.6815
569.00 0.6812
569.10 0.6808
569.20 0.6804
569.30 0.68
569.40 0.6796
569.50 0.6792
569.60 0.6788
569.70 0.6784
569.80 0.678
569.90 0.6777
570.00 0.6773
570.10 0.6769
570.20 0.6765
570.30 0.6761
570.40 0.6757
570.50 0.6753
570.60 0.675
570.70 0.6746
570.80 0.6742
570.90 0.6738
571.00 0.6734
571.10 0.673
571.20 0.6727
571.30 0.6723
571.40 0.6719
571.50 0.6715
571.60 0.6711
571.70 0.6707
571.80 0.6704
571.90 0.67
572.00 0.6696
572.10 0.6692
572.20 0.6688
572.30 0.6685
572.40 0.6681
572.50 0.6677
572.60 0.6673
572.70 0.6669
572.80 0.6666
572.90 0.6662
573.00 0.6658
573.10 0.6654
573.20 0.665
573.30 0.6647
573.40 0.6643
573.50 0.6639
573.60 0.6635
573.70 0.6631
573.80 0.6628
573.90 0.6624
574.00 0.662
574.10 0.6616
574.20 0.6613
574.30 0.6609
574.40 0.6605
574.50 0.6601
574.60 0.6598
574.70 0.6594
574.80 0.659
574.90 0.6586
575.00 0.6583
575.10 0.6579
575.20 0.6575
575.30 0.6571
575.40 0.6568
575.50 0.6564
575.60 0.656
575.70 0.6557
575.80 0.6553
575.90 0.6549
576.00 0.6546
576.10 0.6542
576.20 0.6538
576.30 0.6534
576.40 0.6531
576.50 0.6527
576.60 0.6523
576.70 0.652
576.80 0.6516
576.90 0.6512
577.00 0.6509
577.10 0.6505
577.20 0.6501
577.30 0.6498
577.40 0.6494
577.50 0.649
577.60 0.6487
577.70 0.6483
577.80 0.6479
577.90 0.6476
578.00 0.6472
578.10 0.6468
578.20 0.6465
578.30 0.6461
578.40 0.6457
578.50 0.6454
578.60 0.645
578.70 0.6446
578.80 0.6443
578.90 0.6439
579.00 0.6435
579.10 0.6432
579.20 0.6428
579.30 0.6425
579.40 0.6421
579.50 0.6417
579.60 0.6414
579.70 0.641
579.80 0.6407
579.90 0.6403
580.00 0.6399
580.10 0.6396
580.20 0.6392
580.30 0.6388
580.40 0.6385
580.50 0.6381
580.60 0.6378
580.70 0.6374
580.80 0.6371
580.90 0.6367
581.00 0.6363
581.10 0.636
581.20 0.6356
581.30 0.6353
581.40 0.6349
581.50 0.6346
581.60 0.6342
581.70 0.6338
581.80 0.6335
581.90 0.6331
582.00 0.6328
582.10 0.6324
582.20 0.6321
582.30 0.6317
582.40 0.6314
582.50 0.631
582.60 0.6307
582.70 0.6303
582.80 0.6299
582.90 0.6296
583.00 0.6292
583.10 0.6289
583.20 0.6285
583.30 0.6282
583.40 0.6278
583.50 0.6275
583.60 0.6271
583.70 0.6268
583.80 0.6264
583.90 0.6261
584.00 0.6257
584.10 0.6254
584.20 0.625
584.30 0.6247
584.40 0.6243
584.50 0.624
584.60 0.6236
584.70 0.6233
584.80 0.6229
584.90 0.6226
585.00 0.6222
585.10 0.6219
585.20 0.6215
585.30 0.6212
585.40 0.6208
585.50 0.6205
585.60 0.6201
585.70 0.6198
585.80 0.6195
585.90 0.6191
586.00 0.6188
586.10 0.6184
586.20 0.6181
586.30 0.6177
586.40 0.6174
586.50 0.617
586.60 0.6167
586.70 0.6164
586.80 0.616
586.90 0.6157
587.00 0.6153
587.10 0.615
587.20 0.6146
587.30 0.6143
587.40 0.614
587.50 0.6136
587.60 0.6133
587.70 0.6129
587.80 0.6126
587.90 0.6123
588.00 0.6119
588.10 0.6116
588.20 0.6112
588.30 0.6109
588.40 0.6105
588.50 0.6102
588.60 0.6099
588.70 0.6095
588.80 0.6092
588.90 0.6089
589.00 0.6085
589.10 0.6082
589.20 0.6078
589.30 0.6075
589.40 0.6072
589.50 0.6068
589.60 0.6065
589.70 0.6062
589.80 0.6058
589.90 0.6055
590.00 0.6051
590.10 0.6048
590.20 0.6045
590.30 0.6041
590.40 0.6038
590.50 0.6035
590.60 0.6031
590.70 0.6028
590.80 0.6025
590.90 0.6021
591.00 0.6018
591.10 0.6015
591.20 0.6011
591.30 0.6008
591.40 0.6005
591.50 0.6001
591.60 0.5998
591.70 0.5995
591.80 0.5991
591.90 0.5988
592.00 0.5985
592.10 0.5981
592.20 0.5978
592.30 0.5975
592.40 0.5972
592.50 0.5968
592.60 0.5965
592.70 0.5962
592.80 0.5958
592.90 0.5955
593.00 0.5952
593.10 0.5948
593.20 0.5945
593.30 0.5942
593.40 0.5939
593.50 0.5935
593.60 0.5932
593.70 0.5929
593.80 0.5926
593.90 0.5922
594.00 0.5919
594.10 0.5916
594.20 0.5912
594.30 0.5909
594.40 0.5906
594.50 0.5903
594.60 0.5899
594.70 0.5896
594.80 0.5893
594.90 0.589
595.00 0.5886
595.10 0.5883
595.20 0.588
595.30 0.5877
595.40 0.5873
595.50 0.587
595.60 0.5867
595.70 0.5864
595.80 0.5861
595.90 0.5857
596.00 0.5854
596.10 0.5851
596.20 0.5847
596.30 0.5843
596.40 0.5839
596.50 0.5835
596.60 0.5831
596.70 0.5827
596.80 0.5823
596.90 0.5819
597.00 0.5815
597.10 0.5811
597.20 0.5807
597.30 0.5804
597.40 0.5801
597.50 0.5797
597.60 0.5794
597.70 0.5791
597.80 0.5788
597.90 0.5785
598.00 0.5781
598.10 0.5778
598.20 0.5775
598.30 0.5772
598.40 0.5769
598.50 0.5765
598.60 0.5762
598.70 0.5759
598.80 0.5756
598.90 0.5753
599.00 0.575
599.10 0.5746
599.20 0.5743
599.30 0.574
599.40 0.5737
599.50 0.5734
599.60 0.5731
599.70 0.5727
599.80 0.5724
599.90 0.5721
600.00 0.5718
600.10 0.5715
600.20 0.5712
600.30 0.5708
600.40 0.5705
600.50 0.5702
600.60 0.5699
600.70 0.5696
600.80 0.5693
600.90 0.5689
601.00 0.5686
601.10 0.5683
601.20 0.568
601.30 0.5677
601.40 0.5674
601.50 0.5671
601.60 0.5668
601.70 0.5664
601.80 0.5661
601.90 0.5658
602.00 0.5655
602.10 0.5652
602.20 0.5649
602.30 0.5646
602.40 0.5643
602.50 0.5639
602.60 0.5636
602.70 0.5633
602.80 0.563
602.90 0.5627
603.00 0.5624
603.10 0.5621
603.20 0.5618
603.30 0.5615
603.40 0.5612
603.50 0.5608
603.60 0.5605
603.70 0.5602
603.80 0.5599
603.90 0.5596
604.00 0.5593
604.10 0.559
604.20 0.5587
604.30 0.5584
604.40 0.5581
604.50 0.5578
604.60 0.5575
604.70 0.5571
604.80 0.5568
604.90 0.5565
605.00 0.5562
605.10 0.5559
605.20 0.5556
605.30 0.5553
605.40 0.555
605.50 0.5547
605.60 0.5544
605.70 0.5541
605.80 0.5538
605.90 0.5535
606.00 0.5532
606.10 0.5529
606.20 0.5526
606.30 0.5523
606.40 0.552
606.50 0.5517
606.60 0.5513
606.70 0.551
606.80 0.5507
606.90 0.5504
607.00 0.5501
607.10 0.5498
607.20 0.5495
607.30 0.5492
607.40 0.5489
607.50 0.5486
607.60 0.5483
607.70 0.548
607.80 0.5477
607.90 0.5474
608.00 0.5471
608.10 0.5468
608.20 0.5465
608.30 0.5462
608.40 0.5459
608.50 0.5456
608.60 0.5453
608.70 0.545
608.80 0.5447
608.90 0.5444
609.00 0.5441
609.10 0.5438
609.20 0.5435
609.30 0.5432
609.40 0.5429
609.50 0.5426
609.60 0.5423
609.70 0.542
609.80 0.5417
609.90 0.5414
610.00 0.5411
610.10 0.5408
610.20 0.5405
610.30 0.5402
610.40 0.5399
610.50 0.5396
610.60 0.5393
610.70 0.5391
610.80 0.5388
610.90 0.5385
611.00 0.5382
611.10 0.5379
611.20 0.5376
611.30 0.5373
611.40 0.537
611.50 0.5367
611.60 0.5364
611.70 0.5361
611.80 0.5358
611.90 0.5355
612.00 0.5352
612.10 0.5349
612.20 0.5346
612.30 0.5343
612.40 0.534
612.50 0.5337
612.60 0.5334
612.70 0.5332
612.80 0.5329
612.90 0.5326
613.00 0.5323
613.10 0.532
613.20 0.5317
613.30 0.5314
613.40 0.5311
613.50 0.5308
613.60 0.5305
613.70 0.5302
613.80 0.5299
613.90 0.5296
614.00 0.5294
614.10 0.5291
614.20 0.5288
614.30 0.5285
614.40 0.5282
614.50 0.5279
614.60 0.5276
614.70 0.5273
614.80 0.527
614.90 0.5267
615.00 0.5264
615.10 0.5262
615.20 0.5259
615.30 0.5256
615.40 0.5253
615.50 0.525
615.60 0.5247
615.70 0.5244
615.80 0.5241
615.90 0.5238
616.00 0.5235
616.10 0.5233
616.20 0.523
616.30 0.5227
616.40 0.5224
616.50 0.5221
616.60 0.5218
616.70 0.5215
616.80 0.5212
616.90 0.5209
617.00 0.5207
617.10 0.5204
617.20 0.5201
617.30 0.5198
617.40 0.5195
617.50 0.5192
617.60 0.5189
617.70 0.5186
617.80 0.5184
617.90 0.5181
618.00 0.5178
618.10 0.5175
618.20 0.5172
618.30 0.5169
618.40 0.5166
618.50 0.5163
618.60 0.5161
618.70 0.5158
618.80 0.5155
618.90 0.5152
619.00 0.5149
619.10 0.5146
619.20 0.5143
619.30 0.5141
619.40 0.5138
619.50 0.5135
619.60 0.5132
619.70 0.5129
619.80 0.5126
619.90 0.5123
620.00 0.5121
620.10 0.5118
620.20 0.5115
620.30 0.5112
620.40 0.5109
620.50 0.5106
620.60 0.5103
620.70 0.5101
620.80 0.5098
620.90 0.5095
621.00 0.5092
621.10 0.5089
621.20 0.5086
621.30 0.5084
621.40 0.5081
621.50 0.5078
621.60 0.5075
621.70 0.5072
621.80 0.5069
621.90 0.5067
622.00 0.5064
622.10 0.5061
622.20 0.5058
622.30 0.5055
622.40 0.5052
622.50 0.5049
622.60 0.5047
622.70 0.5044
622.80 0.5041
622.90 0.5038
623.00 0.5035
623.10 0.5033
623.20 0.503
623.30 0.5027
623.40 0.5024
623.50 0.5021
623.60 0.5018
623.70 0.5015
623.80 0.5013
623.90 0.501
624.00 0.5007
624.10 0.5004
624.20 0.5001
624.30 0.4998
624.40 0.4996
624.50 0.4993
624.60 0.499
624.70 0.4987
624.80 0.4984
624.90 0.4982
625.00 0.4979
625.10 0.4976
625.20 0.4973
625.30 0.497
625.40 0.4967
625.50 0.4965
625.60 0.4962
625.70 0.4959
625.80 0.4956
625.90 0.4953
626.00 0.495
626.10 0.4948
626.20 0.4945
626.30 0.4942
626.40 0.4939
626.50 0.4936
626.60 0.4933
626.70 0.4931
626.80 0.4928
626.90 0.4925
627.00 0.4922
627.10 0.4919
627.20 0.4916
627.30 0.4914
627.40 0.4911
627.50 0.4908
627.60 0.4905
627.70 0.4902
627.80 0.4899
627.90 0.4897
628.00 0.4894
628.10 0.4891
628.20 0.4888
628.30 0.4885
628.40 0.4882
628.50 0.4879
628.60 0.4877
628.70 0.4874
628.80 0.4871
628.90 0.4868
629.00 0.4865
629.10 0.4862
629.20 0.486
629.30 0.4857
629.40 0.4854
629.50 0.4851
629.60 0.4848
629.70 0.4845
629.80 0.4842
629.90 0.484
630.00 0.4837
630.10 0.4834
630.20 0.4831
630.30 0.4828
630.40 0.4825
630.50 0.4822
630.60 0.4819
630.70 0.4817
630.80 0.4814
630.90 0.4811
631.00 0.4808
631.10 0.4805
631.20 0.4802
631.30 0.4799
631.40 0.4796
631.50 0.4793
631.60 0.4791
631.70 0.4788
631.80 0.4785
631.90 0.4782
632.00 0.4779
632.10 0.4776
632.20 0.4773
632.30 0.477
632.40 0.4767
632.50 0.4764
632.60 0.4761
632.70 0.4758
632.80 0.4755
632.90 0.4752
633.00 0.4749
633.10 0.4747
633.20 0.4744
633.30 0.4741
633.40 0.4738
633.50 0.4735
633.60 0.4732
633.70 0.4729
633.80 0.4726
633.90 0.4723
634.00 0.472
634.10 0.4717
634.20 0.4714
634.30 0.4711
634.40 0.4708
634.50 0.4705
634.60 0.4702
634.70 0.4698
634.80 0.4695
634.90 0.4692
635.00 0.4689
635.10 0.4686
635.20 0.4683
635.30 0.468
635.40 0.4677
635.50 0.4674
635.60 0.4671
635.70 0.4668
635.80 0.4664
635.90 0.4661
636.00 0.4658
636.10 0.4655
636.20 0.4652
636.30 0.4649
636.40 0.4646
636.50 0.4642
636.60 0.4639
636.70 0.4636
636.80 0.4633
636.90 0.463
637.00 0.4626
637.10 0.4623
637.20 0.462
637.30 0.4617
637.40 0.4613
637.50 0.461
637.60 0.4607
637.70 0.4603
637.80 0.46
637.90 0.4597
638.00 0.4593
638.10 0.459
638.20 0.4587
638.30 0.4583
638.40 0.458
638.50 0.4576
638.60 0.4573
638.70 0.4569
638.80 0.4566
638.90 0.4562
639.00 0.4559
639.10 0.4555
639.20 0.4552
639.30 0.4549
639.40 0.4545
639.50 0.4541
639.60 0.4538
639.70 0.4534
639.80 0.453
639.90 0.4527
640.00 0.4523
640.10 0.4519
640.20 0.4516
640.30 0.4512
640.40 0.4508
640.50 0.4504
640.60 0.45
640.70 0.4497
640.80 0.4493
640.90 0.4489
641.00 0.4485
641.10 0.4481
641.20 0.4477
641.30 0.4473
641.40 0.4469
641.50 0.4465
641.60 0.4461
641.70 0.4457
641.80 0.4453
641.90 0.4449
642.00 0.4445
642.10 0.444
642.20 0.4436
642.30 0.4432
642.40 0.4428
642.50 0.4423
642.60 0.4419
642.70 0.4414
642.80 0.441
642.90 0.4405
643.00 0.4401
643.10 0.4396
643.20 0.4392
643.30 0.4387
643.40 0.4383
643.50 0.4378
643.60 0.4373
643.70 0.4368
643.80 0.4363
643.90 0.4358
644.00 0.4353
644.10 0.4348
644.20 0.4343
644.30 0.4338
644.40 0.4333
644.50 0.4327
644.60 0.4322
644.70 0.4317
644.80 0.4311
644.90 0.4306
645.00 0.43
645.10 0.4295
645.20 0.4289
645.30 0.4284
645.40 0.4278
645.50 0.4271
645.60 0.4265
645.70 0.4259
645.80 0.4253
645.90 0.4247
646.00 0.4241
646.10 0.4235
646.20 0.4229
646.30 0.4222
646.40 0.4215
646.50 0.4208
646.60 0.4201
646.70 0.4194
646.80 0.4187
646.90 0.418
647.00 0.4173
647.10 0.4166
647.20 0.4159
647.30 0.4152
647.40 0.4144
647.50 0.4136
647.60 0.4128
647.70 0.4119
647.80 0.4111
647.90 0.4103
648.00 0.4095
648.10 0.4087
648.20 0.4079
648.30 0.407
648.40 0.4061
648.50 0.4051
648.60 0.4041
648.70 0.4032
648.80 0.4022
648.90 0.4013
649.00 0.4003
649.10 0.3993
649.20 0.3984
649.30 0.3974
649.40 0.3962
649.50 0.3951
649.60 0.3939
649.70 0.3928
649.80 0.3917
649.90 0.3905
650.00 0.3894
650.10 0.3882
650.20 0.3871
650.30 0.3859
650.40 0.3845
650.50 0.3832
650.60 0.3818
650.70 0.3804
650.80 0.379
650.90 0.3777
651.00 0.3763
651.10 0.3749
651.20 0.3736
651.30 0.3721
651.40 0.3705
651.50 0.3688
651.60 0.3671
651.70 0.3654
651.80 0.3638
651.90 0.3621
652.00 0.3604
652.10 0.3588
652.20 0.3571
652.30 0.3554
652.40 0.3533
652.50 0.3513
652.60 0.3493
652.70 0.3472
652.80 0.3452
652.90 0.3432
653.00 0.3412
653.10 0.3391
653.20 0.3371
653.30 0.335
653.40 0.3325
653.50 0.33
653.60 0.3276
653.70 0.3251
653.80 0.3226
653.90 0.3201
654.00 0.3176
654.10 0.3152
654.20 0.3127
654.30 0.3102
654.40 0.3073
654.50 0.3044
654.60 0.3016
654.70 0.2987
654.80 0.2958
654.90 0.2925
655.00 0.2892
655.10 0.286
655.20 0.2827
655.30 0.2793
655.40 0.2757
655.50 0.272
655.60 0.2679
655.70 0.2637
655.80 0.2587
655.90 0.2532
656.00 0.2455
656.10 0.237
656.20 0.2102
656.30 0.1867
656.40 0.2259
656.50 0.2403
656.60 0.2479
656.70 0.2548
656.80 0.2596
656.90 0.2642
657.00 0.268
657.10 0.2718
657.20 0.2752
657.30 0.2785
657.40 0.2815
657.50 0.2845
657.60 0.2875
657.70 0.2906
657.80 0.2935
657.90 0.296
658.00 0.2986
658.10 0.3012
658.20 0.3037
658.30 0.3062
658.40 0.3084
658.50 0.3105
658.60 0.3127
658.70 0.3148
658.80 0.317
658.90 0.3191
659.00 0.3213
659.10 0.3234
659.20 0.3256
659.30 0.3276
659.40 0.3293
659.50 0.331
659.60 0.3326
659.70 0.3343
659.80 0.336
659.90 0.3376
660.00 0.3393
660.10 0.341
660.20 0.3426
660.30 0.3442
660.40 0.3455
660.50 0.3467
660.60 0.348
660.70 0.3493
660.80 0.3506
660.90 0.3518
661.00 0.3531
661.10 0.3544
661.20 0.3556
661.30 0.3568
661.40 0.3578
661.50 0.3588
661.60 0.3597
661.70 0.3607
661.80 0.3616
661.90 0.3626
662.00 0.3635
662.10 0.3645
662.20 0.3654
662.30 0.3663
662.40 0.367
662.50 0.3677
662.60 0.3684
662.70 0.3691
662.80 0.3698
662.90 0.3705
663.00 0.3712
663.10 0.3719
663.20 0.3727
663.30 0.3733
663.40 0.3738
663.50 0.3743
663.60 0.3749
663.70 0.3754
663.80 0.3759
663.90 0.3764
664.00 0.3769
664.10 0.3774
664.20 0.3779
664.30 0.3784
664.40 0.3788
664.50 0.3791
664.60 0.3795
664.70 0.3798
664.80 0.3802
664.90 0.3806
665.00 0.3809
665.10 0.3813
665.20 0.3816
665.30 0.382
665.40 0.3822
665.50 0.3824
665.60 0.3827
665.70 0.3829
665.80 0.3832
665.90 0.3834
666.00 0.3836
666.10 0.3839
666.20 0.3841
666.30 0.3843
666.40 0.3845
666.50 0.3846
666.60 0.3848
666.70 0.385
666.80 0.3851
666.90 0.3853
667.00 0.3854
667.10 0.3856
667.20 0.3857
667.30 0.3858
667.40 0.3859
667.50 0.386
667.60 0.3861
667.70 0.3862
667.80 0.3863
667.90 0.3863
668.00 0.3864
668.10 0.3865
668.20 0.3866
668.30 0.3867
668.40 0.3867
668.50 0.3867
668.60 0.3867
668.70 0.3868
668.80 0.3868
668.90 0.3868
669.00 0.3869
669.10 0.3869
669.20 0.3869
669.30 0.3869
669.40 0.3869
669.50 0.3869
669.60 0.3869
669.70 0.3869
669.80 0.3869
669.90 0.3868
670.00 0.3868
670.10 0.3868
670.20 0.3868
670.30 0.3868
670.40 0.3867
670.50 0.3867
670.60 0.3866
670.70 0.3866
670.80 0.3865
670.90 0.3865
671.00 0.3865
671.10 0.3864
671.20 0.3864
671.30 0.3863
671.40 0.3862
671.50 0.3862
671.60 0.3861
671.70 0.386
671.80 0.386
671.90 0.3859
672.00 0.3858
672.10 0.3857
672.20 0.3857
672.30 0.3856
672.40 0.3855
672.50 0.3854
672.60 0.3853
672.70 0.3852
672.80 0.3851
672.90 0.385
673.00 0.3849
673.10 0.3849
673.20 0.3848
673.30 0.3847
673.40 0.3846
673.50 0.3844
673.60 0.3843
673.70 0.3842
673.80 0.3841
673.90 0.384
674.00 0.3839
674.10 0.3838
674.20 0.3837
674.30 0.3836
674.40 0.3835
674.50 0.3833
674.60 0.3832
674.70 0.3831
674.80 0.383
674.90 0.3829
675.00 0.3827
675.10 0.3826
675.20 0.3825
675.30 0.3824
675.40 0.3823
675.50 0.3821
675.60 0.382
675.70 0.3819
675.80 0.3817
675.90 0.3816
676.00 0.3815
676.10 0.3813
676.20 0.3812
676.30 0.3811
676.40 0.3809
676.50 0.3808
676.60 0.3807
676.70 0.3805
676.80 0.3804
676.90 0.3802
677.00 0.3801
677.10 0.38
677.20 0.3798
677.30 0.3797
677.40 0.3795
677.50 0.3794
677.60 0.3793
677.70 0.3791
677.80 0.379
677.90 0.3788
678.00 0.3787
678.10 0.3785
678.20 0.3784
678.30 0.3782
678.40 0.3781
678.50 0.3779
678.60 0.3778
678.70 0.3776
678.80 0.3775
678.90 0.3773
679.00 0.3772
679.10 0.377
679.20 0.3769
679.30 0.3767
679.40 0.3766
679.50 0.3764
679.60 0.3763
679.70 0.3761
679.80 0.376
679.90 0.3758
680.00 0.3757
680.10 0.3755
680.20 0.3754
680.30 0.3752
680.40 0.375
680.50 0.3749
680.60 0.3747
680.70 0.3746
680.80 0.3744
680.90 0.3743
681.00 0.3741
681.10 0.3739
681.20 0.3738
681.30 0.3736
681.40 0.3735
681.50 0.3733
681.60 0.3731
681.70 0.373
681.80 0.3728
681.90 0.3727
682.00 0.3725
682.10 0.3723
682.20 0.3722
682.30 0.372
682.40 0.3719
682.50 0.3717
682.60 0.3715
682.70 0.3714
682.80 0.3712
682.90 0.3711
683.00 0.3709
683.10 0.3707
683.20 0.3706
683.30 0.3704
683.40 0.3702
683.50 0.3701
683.60 0.3699
683.70 0.3698
683.80 0.3696
683.90 0.3694
684.00 0.3693
684.10 0.3691
684.20 0.3689
684.30 0.3688
684.40 0.3686
684.50 0.3684
684.60 0.3683
684.70 0.3681
684.80 0.368
684.90 0.3678
685.00 0.3676
685.10 0.3675
685.20 0.3673
685.30 0.3671
685.40 0.367
685.50 0.3668
685.60 0.3666
685.70 0.3665
685.80 0.3663
685.90 0.3661
686.00 0.366
686.10 0.3658
686.20 0.3657
686.30 0.3655
686.40 0.3653
686.50 0.3652
686.60 0.365
686.70 0.3648
686.80 0.3647
686.90 0.3645
687.00 0.3643
687.10 0.3642
687.20 0.364
687.30 0.3638
687.40 0.3637
687.50 0.3635
687.60 0.3633
687.70 0.3632
687.80 0.363
687.90 0.3628
688.00 0.3627
688.10 0.3625
688.20 0.3623
688.30 0.3622
688.40 0.362
688.50 0.3618
688.60 0.3617
688.70 0.3615
688.80 0.3614
688.90 0.3612
689.00 0.361
689.10 0.3609
689.20 0.3607
689.30 0.3605
689.40 0.3604
689.50 0.3602
689.60 0.36
689.70 0.3599
689.80 0.3597
689.90 0.3595
690.00 0.3593
690.10 0.3592
690.20 0.359
690.30 0.3588
690.40 0.3587
690.50 0.3585
690.60 0.3583
690.70 0.3582
690.80 0.358
690.90 0.3578
691.00 0.3577
691.10 0.3575
691.20 0.3573
691.30 0.3572
691.40 0.357
691.50 0.3568
691.60 0.3567
691.70 0.3565
691.80 0.3563
691.90 0.3562
692.00 0.356
692.10 0.3558
692.20 0.3557
692.30 0.3555
692.40 0.3553
692.50 0.3552
692.60 0.355
692.70 0.3549
692.80 0.3547
692.90 0.3545
693.00 0.3544
693.10 0.3542
693.20 0.354
693.30 0.3539
693.40 0.3537
693.50 0.3535
693.60 0.3534
693.70 0.3532
693.80 0.353
693.90 0.3529
694.00 0.3527
694.10 0.3525
694.20 0.3524
694.30 0.3522
694.40 0.3521
694.50 0.3519
694.60 0.3517
694.70 0.3516
694.80 0.3514
694.90 0.3512
695.00 0.3511
695.10 0.3509
695.20 0.3507
695.30 0.3506
695.40 0.3504
695.50 0.3502
695.60 0.3501
695.70 0.3499
695.80 0.3498
695.90 0.3496
696.00 0.3494
696.10 0.3493
696.20 0.3491
696.30 0.3489
696.40 0.3488
696.50 0.3486
696.60 0.3485
696.70 0.3483
696.80 0.3481
696.90 0.348
697.00 0.3478
697.10 0.3476
697.20 0.3475
697.30 0.3473
697.40 0.3472
697.50 0.347
697.60 0.3468
697.70 0.3467
697.80 0.3465
697.90 0.3464
698.00 0.3462
698.10 0.346
698.20 0.3459
698.30 0.3457
698.40 0.3455
698.50 0.3454
698.60 0.3452
698.70 0.3451
698.80 0.3449
698.90 0.3447
699.00 0.3446
699.10 0.3444
699.20 0.3443
699.30 0.3441
699.40 0.3439
699.50 0.3438
699.60 0.3436
699.70 0.3435
699.80 0.3433
699.90 0.3431
700.00 0.343
700.10 0.3428
700.20 0.3427
700.30 0.3425
700.40 0.3424
700.50 0.3423
700.60 0.3421
700.70 0.342
700.80 0.3418
700.90 0.3417
701.00 0.3415
701.10 0.3414
701.20 0.3412
701.30 0.3411
701.40 0.3409
701.50 0.3408
701.60 0.3407
701.70 0.3405
701.80 0.3404
701.90 0.3402
702.00 0.3401
702.10 0.3399
702.20 0.3398
702.30 0.3396
702.40 0.3395
702.50 0.3394
702.60 0.3392
702.70 0.3391
702.80 0.3389
702.90 0.3388
703.00 0.3386
703.10 0.3385
703.20 0.3383
703.30 0.3382
703.40 0.3381
703.50 0.3379
703.60 0.3378
703.70 0.3376
703.80 0.3375
703.90 0.3373
704.00 0.3372
704.10 0.3371
704.20 0.3369
704.30 0.3368
704.40 0.3366
704.50 0.3365
704.60 0.3363
704.70 0.3362
704.80 0.3361
704.90 0.3359
705.00 0.3358
705.10 0.3356
705.20 0.3355
705.30 0.3353
705.40 0.3351
705.50 0.335
705.60 0.3348
705.70 0.3347
705.80 0.3345
705.90 0.3344
706.00 0.3342
706.10 0.334
706.20 0.3339
706.30 0.3337
706.40 0.3336
706.50 0.3334
706.60 0.3333
706.70 0.3331
706.80 0.3329
706.90 0.3328
707.00 0.3326
707.10 0.3325
707.20 0.3323
707.30 0.3322
707.40 0.332
707.50 0.3318
707.60 0.3317
707.70 0.3315
707.80 0.3314
707.90 0.3312
708.00 0.3311
708.10 0.3309
708.20 0.3308
708.30 0.3306
708.40 0.3304
708.50 0.3303
708.60 0.3301
708.70 0.33
708.80 0.3298
708.90 0.3297
709.00 0.3295
709.10 0.3294
709.20 0.3292
709.30 0.3291
709.40 0.3289
709.50 0.3287
709.60 0.3286
709.70 0.3284
709.80 0.3283
709.90 0.3281
710.00 0.328
710.10 0.3278
710.20 0.3277
710.30 0.3275
710.40 0.3274
710.50 0.3272
710.60 0.3271
710.70 0.3269
710.80 0.3267
710.90 0.3266
711.00 0.3264
711.10 0.3263
711.20 0.3261
711.30 0.326
711.40 0.3258
711.50 0.3257
711.60 0.3255
711.70 0.3254
711.80 0.3252
711.90 0.3251
712.00 0.3249
712.10 0.3248
712.20 0.3246
712.30 0.3245
712.40 0.3243
712.50 0.3242
712.60 0.324
712.70 0.3238
712.80 0.3237
712.90 0.3235
713.00 0.3234
713.10 0.3232
713.20 0.3231
713.30 0.3229
713.40 0.3228
713.50 0.3226
713.60 0.3225
713.70 0.3223
713.80 0.3222
713.90 0.322
714.00 0.3219
714.10 0.3217
714.20 0.3216
714.30 0.3214
714.40 0.3213
714.50 0.3211
714.60 0.321
714.70 0.3208
714.80 0.3207
714.90 0.3205
715.00 0.3204
715.10 0.3202
715.20 0.3201
715.30 0.3199
715.40 0.3198
715.50 0.3196
715.60 0.3195
715.70 0.3194
715.80 0.3192
715.90 0.3191
716.00 0.3189
716.10 0.3188
716.20 0.3186
716.30 0.3185
716.40 0.3183
716.50 0.3182
716.60 0.318
716.70 0.3179
716.80 0.3178
716.90 0.3176
717.00 0.3175
717.10 0.3173
717.20 0.3172
717.30 0.317
717.40 0.3169
717.50 0.3167
717.60 0.3166
717.70 0.3164
717.80 0.3163
717.90 0.3162
718.00 0.316
718.10 0.3159
718.20 0.3157
718.30 0.3156
718.40 0.3154
718.50 0.3153
718.60 0.3152
718.70 0.315
718.80 0.3149
718.90 0.3147
719.00 0.3146
719.10 0.3144
719.20 0.3143
719.30 0.3141
719.40 0.314
719.50 0.3139
719.60 0.3137
719.70 0.3136
719.80 0.3134
719.90 0.3133
720.00 0.3131
720.10 0.313
720.20 0.3129
720.30 0.3127
720.40 0.3126
720.50 0.3124
720.60 0.3123
720.70 0.3121
720.80 0.312
720.90 0.3118
721.00 0.3117
721.10 0.3115
721.20 0.3114
721.30 0.3113
721.40 0.3111
721.50 0.311
721.60 0.3108
721.70 0.3107
721.80 0.3105
721.90 0.3104
722.00 0.3102
722.10 0.3101
722.20 0.3099
722.30 0.3098
722.40 0.3097
722.50 0.3095
722.60 0.3094
722.70 0.3092
722.80 0.3091
722.90 0.3089
723.00 0.3088
723.10 0.3086
723.20 0.3085
723.30 0.3084
723.40 0.3082
723.50 0.3081
723.60 0.3079
723.70 0.3078
723.80 0.3076
723.90 0.3075
724.00 0.3074
724.10 0.3072
724.20 0.3071
724.30 0.3069
724.40 0.3068
724.50 0.3066
724.60 0.3065
724.70 0.3064
724.80 0.3062
724.90 0.3061
725.00 0.3059
725.10 0.3058
725.20 0.3056
725.30 0.3055
725.40 0.3054
725.50 0.3052
725.60 0.3051
725.70 0.3049
725.80 0.3048
725.90 0.3046
726.00 0.3045
726.10 0.3044
726.20 0.3042
726.30 0.3041
726.40 0.3039
726.50 0.3038
726.60 0.3037
726.70 0.3035
726.80 0.3034
726.90 0.3032
727.00 0.3031
727.10 0.303
727.20 0.3028
727.30 0.3027
727.40 0.3025
727.50 0.3024
727.60 0.3023
727.70 0.3021
727.80 0.302
727.90 0.3018
728.00 0.3017
728.10 0.3016
728.20 0.3014
728.30 0.3013
728.40 0.3011
728.50 0.301
728.60 0.3009
728.70 0.3007
728.80 0.3006
728.90 0.3004
729.00 0.3003
729.10 0.3002
729.20 0.3
729.30 0.2999
729.40 0.2997
729.50 0.2996
729.60 0.2995
729.70 0.2993
729.80 0.2992
729.90 0.2991
730.00 0.2989
730.10 0.2988
730.20 0.2986
730.30 0.2985
730.40 0.2984
730.50 0.2982
730.60 0.2981
730.70 0.298
730.80 0.2978
730.90 0.2977
731.00 0.2975
731.10 0.2974
731.20 0.2973
731.30 0.2971
731.40 0.297
731.50 0.2969
731.60 0.2967
731.70 0.2966
731.80 0.2965
731.90 0.2963
732.00 0.2962
732.10 0.296
732.20 0.2959
732.30 0.2958
732.40 0.2956
732.50 0.2955
732.60 0.2954
732.70 0.2952
732.80 0.2951
732.90 0.295
733.00 0.2948
733.10 0.2947
733.20 0.2945
733.30 0.2944
733.40 0.2943
733.50 0.2941
733.60 0.294
733.70 0.2939
733.80 0.2937
733.90 0.2936
734.00 0.2935
734.10 0.2933
734.20 0.2932
734.30 0.2931
734.40 0.2929
734.50 0.2928
734.60 0.2927
734.70 0.2925
734.80 0.2924
734.90 0.2923
735.00 0.2921
735.10 0.292
735.20 0.2919
735.30 0.2917
735.40 0.2916
735.50 0.2915
735.60 0.2913
735.70 0.2912
735.80 0.2911
735.90 0.2909
736.00 0.2908
736.10 0.2906
736.20 0.2905
736.30 0.2904
736.40 0.2902
736.50 0.2901
736.60 0.29
736.70 0.2898
736.80 0.2897
736.90 0.2896
737.00 0.2894
737.10 0.2893
737.20 0.2892
737.30 0.2891
737.40 0.2889
737.50 0.2888
737.60 0.2887
737.70 0.2885
737.80 0.2884
737.90 0.2883
738.00 0.2881
738.10 0.288
738.20 0.2879
738.30 0.2877
738.40 0.2876
738.50 0.2875
738.60 0.2873
738.70 0.2872
738.80 0.2871
738.90 0.2869
739.00 0.2868
739.10 0.2867
739.20 0.2865
739.30 0.2864
739.40 0.2863
739.50 0.2861
739.60 0.286
739.70 0.2859
739.80 0.2857
739.90 0.2856
740.00 0.2855
740.10 0.2854
740.20 0.2852
740.30 0.2851
740.40 0.285
740.50 0.2848
740.60 0.2847
740.70 0.2846
740.80 0.2845
740.90 0.2843
741.00 0.2842
741.10 0.2841
741.20 0.2839
741.30 0.2838
741.40 0.2837
741.50 0.2835
741.60 0.2834
741.70 0.2833
741.80 0.2832
741.90 0.283
742.00 0.2829
742.10 0.2828
742.20 0.2826
742.30 0.2825
742.40 0.2824
742.50 0.2823
742.60 0.2821
742.70 0.282
742.80 0.2819
742.90 0.2818
743.00 0.2816
743.10 0.2815
743.20 0.2814
743.30 0.2812
743.40 0.2811
743.50 0.281
743.60 0.2809
743.70 0.2807
743.80 0.2806
743.90 0.2805
744.00 0.2803
744.10 0.2802
744.20 0.2801
744.30 0.28
744.40 0.2798
744.50 0.2797
744.60 0.2796
744.70 0.2795
744.80 0.2793
744.90 0.2792
745.00 0.2791
745.10 0.2789
745.20 0.2788
745.30 0.2787
745.40 0.2786
745.50 0.2784
745.60 0.2783
745.70 0.2782
745.80 0.2781
745.90 0.2779
746.00 0.2778
746.10 0.2777
746.20 0.2776
746.30 0.2774
746.40 0.2773
746.50 0.2772
746.60 0.2771
746.70 0.2769
746.80 0.2768
746.90 0.2767
747.00 0.2766
747.10 0.2764
747.20 0.2763
747.30 0.2762
747.40 0.276
747.50 0.2759
747.60 0.2758
747.70 0.2757
747.80 0.2755
747.90 0.2754
748.00 0.2753
748.10 0.2752
748.20 0.275
748.30 0.2749
748.40 0.2748
748.50 0.2747
748.60 0.2745
748.70 0.2744
748.80 0.2743
748.90 0.2742
749.00 0.2741
749.10 0.2739
749.20 0.2738
749.30 0.2737
749.40 0.2736
749.50 0.2734
749.60 0.2733
749.70 0.2732
749.80 0.2731
749.90 0.2729
750.00 0.2728
750.10 0.2727
750.20 0.2726
750.30 0.2724
750.40 0.2723
750.50 0.2722
750.60 0.2721
750.70 0.272
750.80 0.2718
750.90 0.2717
751.00 0.2716
751.10 0.2715
751.20 0.2713
751.30 0.2712
751.40 0.2711
751.50 0.271
751.60 0.2709
751.70 0.2707
751.80 0.2706
751.90 0.2705
752.00 0.2704
752.10 0.2702
752.20 0.2701
752.30 0.27
752.40 0.2699
752.50 0.2698
752.60 0.2696
752.70 0.2695
752.80 0.2694
752.90 0.2693
753.00 0.2692
753.10 0.269
753.20 0.2689
753.30 0.2688
753.40 0.2687
753.50 0.2686
753.60 0.2684
753.70 0.2683
753.80 0.2682
753.90 0.2681
754.00 0.268
754.10 0.2678
754.20 0.2677
754.30 0.2676
754.40 0.2675
754.50 0.2674
754.60 0.2672
754.70 0.2671
754.80 0.267
754.90 0.2669
755.00 0.2668
755.10 0.2666
755.20 0.2665
755.30 0.2664
755.40 0.2663
755.50 0.2662
755.60 0.266
755.70 0.2659
755.80 0.2658
755.90 0.2657
756.00 0.2656
756.10 0.2654
756.20 0.2653
756.30 0.2652
756.40 0.2651
756.50 0.265
756.60 0.2648
756.70 0.2647
756.80 0.2646
756.90 0.2645
757.00 0.2644
757.10 0.2643
757.20 0.2641
757.30 0.264
757.40 0.2639
757.50 0.2638
757.60 0.2637
757.70 0.2635
757.80 0.2634
757.90 0.2633
758.00 0.2632
758.10 0.2631
758.20 0.2629
758.30 0.2628
758.40 0.2627
758.50 0.2626
758.60 0.2625
758.70 0.2624
758.80 0.2622
758.90 0.2621
759.00 0.262
759.10 0.2619
759.20 0.2618
759.30 0.2617
759.40 0.2615
759.50 0.2614
759.60 0.2613
759.70 0.2612
759.80 0.2611
759.90 0.261
760.00 0.2608
760.10 0.2607
760.20 0.2606
760.30 0.2605
760.40 0.2604
760.50 0.2603
760.60 0.2601
760.70 0.26
760.80 0.2599
760.90 0.2598
761.00 0.2597
761.10 0.2596
761.20 0.2594
761.30 0.2593
761.40 0.2592
761.50 0.2591
761.60 0.259
761.70 0.2589
761.80 0.2588
761.90 0.2586
762.00 0.2585
762.10 0.2584
762.20 0.2583
762.30 0.2582
762.40 0.2581
762.50 0.258
762.60 0.2578
762.70 0.2577
762.80 0.2576
762.90 0.2575
763.00 0.2574
763.10 0.2573
763.20 0.2572
763.30 0.257
763.40 0.2569
763.50 0.2568
763.60 0.2567
763.70 0.2566
763.80 0.2565
763.90 0.2564
764.00 0.2562
764.10 0.2561
764.20 0.256
764.30 0.2559
764.40 0.2558
764.50 0.2557
764.60 0.2556
764.70 0.2554
764.80 0.2553
764.90 0.2552
765.00 0.2551
765.10 0.255
765.20 0.2549
765.30 0.2548
765.40 0.2547
765.50 0.2545
765.60 0.2544
765.70 0.2543
765.80 0.2542
765.90 0.2541
766.00 0.254
766.10 0.2539
766.20 0.2538
766.30 0.2536
766.40 0.2535
766.50 0.2534
766.60 0.2533
766.70 0.2532
766.80 0.2531
766.90 0.253
767.00 0.2529
767.10 0.2527
767.20 0.2526
767.30 0.2525
767.40 0.2524
767.50 0.2523
767.60 0.2522
767.70 0.2521
767.80 0.252
767.90 0.2518
768.00 0.2517
768.10 0.2516
768.20 0.2515
768.30 0.2514
768.40 0.2513
768.50 0.2512
768.60 0.2511
768.70 0.251
768.80 0.2508
768.90 0.2507
769.00 0.2506
769.10 0.2505
769.20 0.2504
769.30 0.2503
769.40 0.2502
769.50 0.2501
769.60 0.25
769.70 0.2498
769.80 0.2497
769.90 0.2496
770.00 0.2495
770.10 0.2494
770.20 0.2493
770.30 0.2492
770.40 0.2491
770.50 0.249
770.60 0.2489
770.70 0.2487
770.80 0.2486
770.90 0.2485
771.00 0.2484
771.10 0.2483
771.20 0.2482
771.30 0.2481
771.40 0.248
771.50 0.2479
771.60 0.2478
771.70 0.2477
771.80 0.2475
771.90 0.2474
772.00 0.2473
772.10 0.2472
772.20 0.2471
772.30 0.247
772.40 0.2469
772.50 0.2468
772.60 0.2467
772.70 0.2466
772.80 0.2465
772.90 0.2464
773.00 0.2462
773.10 0.2461
773.20 0.246
773.30 0.2459
773.40 0.2458
773.50 0.2457
773.60 0.2456
773.70 0.2455
773.80 0.2454
773.90 0.2453
774.00 0.2452
774.10 0.2451
774.20 0.245
774.30 0.2448
774.40 0.2447
774.50 0.2446
774.60 0.2445
774.70 0.2444
774.80 0.2443
774.90 0.2442
775.00 0.2441
775.10 0.244
775.20 0.2439
775.30 0.2438
775.40 0.2437
775.50 0.2436
775.60 0.2435
775.70 0.2433
775.80 0.2432
775.90 0.2431
776.00 0.243
776.10 0.2429
776.20 0.2428
776.30 0.2427
776.40 0.2426
776.50 0.2425
776.60 0.2424
776.70 0.2423
776.80 0.2422
776.90 0.2421
777.00 0.242
777.10 0.2419
777.20 0.2417
777.30 0.2416
777.40 0.2415
777.50 0.2414
777.60 0.2413
777.70 0.2412
777.80 0.2411
777.90 0.241
778.00 0.2409
778.10 0.2408
778.20 0.2407
778.30 0.2406
778.40 0.2405
778.50 0.2404
778.60 0.2403
778.70 0.2402
778.80 0.2401
778.90 0.24
779.00 0.2398
779.10 0.2397
779.20 0.2396
779.30 0.2395
779.40 0.2394
779.50 0.2393
779.60 0.2392
779.70 0.2391
779.80 0.239
779.90 0.2389
780.00 0.2388
780.10 0.2387
780.20 0.2386
780.30 0.2385
780.40 0.2384
780.50 0.2383
780.60 0.2382
780.70 0.2381
780.80 0.238
780.90 0.2379
781.00 0.2378
781.10 0.2377
781.20 0.2376
781.30 0.2375
781.40 0.2373
781.50 0.2372
781.60 0.2371
781.70 0.237
781.80 0.2369
781.90 0.2368
782.00 0.2367
782.10 0.2366
782.20 0.2365
782.30 0.2364
782.40 0.2363
782.50 0.2362
782.60 0.2361
782.70 0.236
782.80 0.2359
782.90 0.2358
783.00 0.2357
783.10 0.2356
783.20 0.2355
783.30 0.2354
783.40 0.2353
783.50 0.2352
783.60 0.2351
783.70 0.235
783.80 0.2349
783.90 0.2348
784.00 0.2347
784.10 0.2346
784.20 0.2345
784.30 0.2344
784.40 0.2343
784.50 0.2342
784.60 0.2341
784.70 0.234
784.80 0.2339
784.90 0.2338
785.00 0.2337
785.10 0.2336
785.20 0.2335
785.30 0.2334
785.40 0.2333
785.50 0.2332
785.60 0.2331
785.70 0.233
785.80 0.2329
785.90 0.2328
786.00 0.2327
786.10 0.2326
786.20 0.2325
786.30 0.2324
786.40 0.2323
786.50 0.2322
786.60 0.2321
786.70 0.232
786.80 0.2319
786.90 0.2318
787.00 0.2317
787.10 0.2316
787.20 0.2315
787.30 0.2313
787.40 0.2312
787.50 0.2311
787.60 0.231
787.70 0.2309
787.80 0.2308
787.90 0.2307
788.00 0.2306
788.10 0.2305
788.20 0.2304
788.30 0.2303
788.40 0.2302
788.50 0.2301
788.60 0.23
788.70 0.2299
788.80 0.2298
788.90 0.2297
789.00 0.2296
789.10 0.2295
789.20 0.2295
789.30 0.2294
789.40 0.2293
789.50 0.2292
789.60 0.2291
789.70 0.229
789.80 0.2289
789.90 0.2288
790.00 0.2287
790.10 0.2286
790.20 0.2285
790.30 0.2284
790.40 0.2283
790.50 0.2282
790.60 0.2281
790.70 0.228
790.80 0.2279
790.90 0.2278
791.00 0.2277
791.10 0.2276
791.20 0.2275
791.30 0.2274
791.40 0.2273
791.50 0.2272
791.60 0.2271
791.70 0.227
791.80 0.2269
791.90 0.2268
792.00 0.2267
792.10 0.2266
792.20 0.2265
792.30 0.2264
792.40 0.2263
792.50 0.2262
792.60 0.2261
792.70 0.226
792.80 0.2259
792.90 0.2258
793.00 0.2257
793.10 0.2256
793.20 0.2255
793.30 0.2254
793.40 0.2253
793.50 0.2252
793.60 0.2252
793.70 0.2251
793.80 0.225
793.90 0.2249
794.00 0.2248
794.10 0.2247
794.20 0.2246
794.30 0.2245
794.40 0.2244
794.50 0.2243
794.60 0.2242
794.70 0.2241
794.80 0.224
794.90 0.2239
795.00 0.2238
795.10 0.2237
795.20 0.2236
795.30 0.2235
795.40 0.2234
795.50 0.2233
795.60 0.2232
795.70 0.2231
795.80 0.223
795.90 0.2229
796.00 0.2228
796.10 0.2227
796.20 0.2227
796.30 0.2226
796.40 0.2225
796.50 0.2224
796.60 0.2223
796.70 0.2222
796.80 0.2221
796.90 0.222
797.00 0.2219
797.10 0.2218
797.20 0.2217
797.30 0.2216
797.40 0.2215
797.50 0.2214
797.60 0.2213
797.70 0.2212
797.80 0.2211
797.90 0.221
798.00 0.2209
798.10 0.2208
798.20 0.2208
798.30 0.2207
798.40 0.2206
798.50 0.2205
798.60 0.2204
798.70 0.2203
798.80 0.2202
798.90 0.2201
799.00 0.22
799.10 0.2199
799.20 0.2198
799.30 0.2197
799.40 0.2196
799.50 0.2195
799.60 0.2194
799.70 0.2193
799.80 0.2192
799.90 0.2191
800.00 0.2191
800.10 0.219
800.20 0.2189
800.30 0.2188
800.40 0.2187
800.50 0.2186
800.60 0.2185
800.70 0.2184
800.80 0.2183
800.90 0.2182
801.00 0.2181
801.10 0.218
801.20 0.2179
801.30 0.2178
801.40 0.2178
801.50 0.2177
801.60 0.2176
801.70 0.2175
801.80 0.2174
801.90 0.2173
802.00 0.2172
802.10 0.2171
802.20 0.217
802.30 0.2169
802.40 0.2168
802.50 0.2167
802.60 0.2166
802.70 0.2166
802.80 0.2165
802.90 0.2164
803.00 0.2163
803.10 0.2162
803.20 0.2161
803.30 0.216
803.40 0.2159
803.50 0.2158
803.60 0.2157
803.70 0.2156
803.80 0.2155
803.90 0.2155
804.00 0.2154
804.10 0.2153
804.20 0.2152
804.30 0.2151
804.40 0.215
804.50 0.2149
804.60 0.2148
804.70 0.2147
804.80 0.2146
804.90 0.2145
805.00 0.2145
805.10 0.2144
805.20 0.2143
805.30 0.2142
805.40 0.2141
805.50 0.214
805.60 0.2139
805.70 0.2138
805.80 0.2137
805.90 0.2136
806.00 0.2135
806.10 0.2135
806.20 0.2134
806.30 0.2133
806.40 0.2132
806.50 0.2131
806.60 0.213
806.70 0.2129
806.80 0.2128
806.90 0.2127
807.00 0.2126
807.10 0.2125
807.20 0.2125
807.30 0.2124
807.40 0.2123
807.50 0.2122
807.60 0.2121
807.70 0.212
807.80 0.2119
807.90 0.2118
808.00 0.2117
808.10 0.2116
808.20 0.2116
808.30 0.2115
808.40 0.2114
808.50 0.2113
808.60 0.2112
808.70 0.2111
808.80 0.211
808.90 0.2109
809.00 0.2108
809.10 0.2108
809.20 0.2107
809.30 0.2106
809.40 0.2105
809.50 0.2104
809.60 0.2103
809.70 0.2102
809.80 0.2101
809.90 0.21
810.00 0.2099
810.10 0.2099
810.20 0.2098
810.30 0.2097
810.40 0.2096
810.50 0.2095
810.60 0.2094
810.70 0.2093
810.80 0.2092
810.90 0.2092
811.00 0.2091
811.10 0.209
811.20 0.2089
811.30 0.2088
811.40 0.2087
811.50 0.2086
811.60 0.2085
811.70 0.2085
811.80 0.2084
811.90 0.2083
812.00 0.2082
812.10 0.2081
812.20 0.208
812.30 0.2079
812.40 0.2078
812.50 0.2078
812.60 0.2077
812.70 0.2076
812.80 0.2075
812.90 0.2074
813.00 0.2073
813.10 0.2072
813.20 0.2071
813.30 0.2071
813.40 0.207
813.50 0.2069
813.60 0.2068
813.70 0.2067
813.80 0.2066
813.90 0.2065
814.00 0.2064
814.10 0.2064
814.20 0.2063
814.30 0.2062
814.40 0.2061
814.50 0.206
814.60 0.2059
814.70 0.2058
814.80 0.2058
814.90 0.2057
815.00 0.2056
815.10 0.2055
815.20 0.2054
815.30 0.2053
815.40 0.2052
815.50 0.2052
815.60 0.2051
815.70 0.205
815.80 0.2049
815.90 0.2048
816.00 0.2047
816.10 0.2046
816.20 0.2046
816.30 0.2045
816.40 0.2044
816.50 0.2043
816.60 0.2042
816.70 0.2041
816.80 0.204
816.90 0.204
817.00 0.2039
817.10 0.2038
817.20 0.2037
817.30 0.2036
817.40 0.2035
817.50 0.2034
817.60 0.2034
817.70 0.2033
817.80 0.2032
817.90 0.2031
818.00 0.203
818.10 0.2029
818.20 0.2028
818.30 0.2028
818.40 0.2027
818.50 0.2026
818.60 0.2025
818.70 0.2024
818.80 0.2023
818.90 0.2022
819.00 0.2022
819.10 0.2021
819.20 0.202
819.30 0.2019
819.40 0.2018
819.50 0.2017
819.60 0.2017
819.70 0.2016
819.80 0.2015
819.90 0.2014
820.00 0.2013
820.10 0.2012
820.20 0.2012
820.30 0.2011
820.40 0.201
820.50 0.2009
820.60 0.2008
820.70 0.2007
820.80 0.2006
820.90 0.2006
821.00 0.2005
821.10 0.2004
821.20 0.2003
821.30 0.2002
821.40 0.2001
821.50 0.2001
821.60 0.2
821.70 0.1999
821.80 0.1998
821.90 0.1997
822.00 0.1996
822.10 0.1996
822.20 0.1995
822.30 0.1994
822.40 0.1993
822.50 0.1992
822.60 0.1991
822.70 0.1991
822.80 0.199
822.90 0.1989
823.00 0.1988
823.10 0.1987
823.20 0.1987
823.30 0.1986
823.40 0.1985
823.50 0.1984
823.60 0.1983
823.70 0.1982
823.80 0.1982
823.90 0.1981
824.00 0.198
824.10 0.1979
824.20 0.1978
824.30 0.1977
824.40 0.1977
824.50 0.1976
824.60 0.1975
824.70 0.1974
824.80 0.1973
824.90 0.1973
825.00 0.1972
825.10 0.1971
825.20 0.197
825.30 0.1969
825.40 0.1968
825.50 0.1968
825.60 0.1967
825.70 0.1966
825.80 0.1965
825.90 0.1964
826.00 0.1964
826.10 0.1963
826.20 0.1962
826.30 0.1961
826.40 0.196
826.50 0.1959
826.60 0.1959
826.70 0.1958
826.80 0.1957
826.90 0.1956
827.00 0.1955
827.10 0.1955
827.20 0.1954
827.30 0.1953
827.40 0.1952
827.50 0.1951
827.60 0.1951
827.70 0.195
827.80 0.1949
827.90 0.1948
828.00 0.1947
828.10 0.1947
828.20 0.1946
828.30 0.1945
828.40 0.1944
828.50 0.1943
828.60 0.1942
828.70 0.1942
828.80 0.1941
828.90 0.194
829.00 0.1939
829.10 0.1938
829.20 0.1938
829.30 0.1937
829.40 0.1936
829.50 0.1935
829.60 0.1934
829.70 0.1934
829.80 0.1933
829.90 0.1932
830.00 0.1931
830.10 0.193
830.20 0.193
830.30 0.1929
830.40 0.1928
830.50 0.1927
830.60 0.1926
830.70 0.1926
830.80 0.1925
830.90 0.1924
831.00 0.1923
831.10 0.1923
831.20 0.1922
831.30 0.1921
831.40 0.192
831.50 0.1919
831.60 0.1919
831.70 0.1918
831.80 0.1917
831.90 0.1916
832.00 0.1915
832.10 0.1915
832.20 0.1914
832.30 0.1913
832.40 0.1912
832.50 0.1911
832.60 0.1911
832.70 0.191
832.80 0.1909
832.90 0.1908
833.00 0.1908
833.10 0.1907
833.20 0.1906
833.30 0.1905
833.40 0.1904
833.50 0.1904
833.60 0.1903
833.70 0.1902
833.80 0.1901
833.90 0.19
834.00 0.19
834.10 0.1899
834.20 0.1898
834.30 0.1897
834.40 0.1897
834.50 0.1896
834.60 0.1895
834.70 0.1894
834.80 0.1893
834.90 0.1893
835.00 0.1892
835.10 0.1891
835.20 0.189
835.30 0.189
835.40 0.1889
835.50 0.1888
835.60 0.1887
835.70 0.1886
835.80 0.1886
835.90 0.1885
836.00 0.1884
836.10 0.1883
836.20 0.1883
836.30 0.1882
836.40 0.1881
836.50 0.188
836.60 0.1879
836.70 0.1879
836.80 0.1878
836.90 0.1877
837.00 0.1876
837.10 0.1876
837.20 0.1875
837.30 0.1874
837.40 0.1873
837.50 0.1873
837.60 0.1872
837.70 0.1871
837.80 0.187
837.90 0.187
838.00 0.1869
838.10 0.1868
838.20 0.1867
838.30 0.1866
838.40 0.1866
838.50 0.1865
838.60 0.1864
838.70 0.1863
838.80 0.1863
838.90 0.1862
839.00 0.1861
839.10 0.186
839.20 0.186
839.30 0.1859
839.40 0.1858
839.50 0.1857
839.60 0.1857
839.70 0.1856
839.80 0.1855
839.90 0.1854
840.00 0.1854
840.10 0.1853
840.20 0.1852
840.30 0.1851
840.40 0.185
840.50 0.185
840.60 0.1849
840.70 0.1848
840.80 0.1847
840.90 0.1847
841.00 0.1846
841.10 0.1845
841.20 0.1844
841.30 0.1844
841.40 0.1843
841.50 0.1842
841.60 0.1841
841.70 0.1841
841.80 0.184
841.90 0.1839
842.00 0.1838
842.10 0.1838
842.20 0.1837
842.30 0.1836
842.40 0.1835
842.50 0.1835
842.60 0.1834
842.70 0.1833
842.80 0.1832
842.90 0.1832
843.00 0.1831
843.10 0.183
843.20 0.1829
843.30 0.1829
843.40 0.1828
843.50 0.1827
843.60 0.1826
843.70 0.1826
843.80 0.1825
843.90 0.1824
844.00 0.1823
844.10 0.1823
844.20 0.1822
844.30 0.1821
844.40 0.182
844.50 0.182
844.60 0.1819
844.70 0.1818
844.80 0.1817
844.90 0.1817
845.00 0.1816
845.10 0.1815
845.20 0.1815
845.30 0.1814
845.40 0.1813
845.50 0.1812
845.60 0.1812
845.70 0.1811
845.80 0.181
845.90 0.1809
846.00 0.1809
846.10 0.1808
846.20 0.1807
846.30 0.1806
846.40 0.1806
846.50 0.1805
846.60 0.1804
846.70 0.1803
846.80 0.1803
846.90 0.1802
847.00 0.1801
847.10 0.1801
847.20 0.18
847.30 0.1799
847.40 0.1799
847.50 0.1798
847.60 0.1798
847.70 0.1797
847.80 0.1796
847.90 0.1796
848.00 0.1795
848.10 0.1795
848.20 0.1794
848.30 0.1793
848.40 0.1793
848.50 0.1792
848.60 0.1792
848.70 0.1791
848.80 0.179
848.90 0.179
849.00 0.1789
849.10 0.1789
849.20 0.1788
849.30 0.1787
849.40 0.1787
849.50 0.1786
849.60 0.1786
849.70 0.1785
849.80 0.1784
849.90 0.1784
850.00 0.1783
850.10 0.1783
850.20 0.1782
850.30 0.1781
850.40 0.1781
850.50 0.178
850.60 0.178
850.70 0.1779
850.80 0.1778
850.90 0.1778
851.00 0.1777
851.10 0.1777
851.20 0.1776
851.30 0.1775
851.40 0.1775
851.50 0.1774
851.60 0.1774
851.70 0.1773
851.80 0.1773
851.90 0.1772
852.00 0.1771
852.10 0.1771
852.20 0.177
852.30 0.177
852.40 0.1769
852.50 0.1768
852.60 0.1768
852.70 0.1767
852.80 0.1767
852.90 0.1766
853.00 0.1765
853.10 0.1765
853.20 0.1764
853.30 0.1764
853.40 0.1763
853.50 0.1762
853.60 0.1762
853.70 0.1761
853.80 0.1761
853.90 0.176
854.00 0.1759
854.10 0.1759
854.20 0.1758
854.30 0.1758
854.40 0.1757
854.50 0.1756
854.60 0.1756
854.70 0.1755
854.80 0.1755
854.90 0.1754
855.00 0.1753
855.10 0.1753
855.20 0.1752
855.30 0.1752
855.40 0.1751
855.50 0.175
855.60 0.175
855.70 0.1749
855.80 0.1749
855.90 0.1748
856.00 0.1747
856.10 0.1747
856.20 0.1746
856.30 0.1746
856.40 0.1745
856.50 0.1745
856.60 0.1744
856.70 0.1743
856.80 0.1743
856.90 0.1742
857.00 0.1742
857.10 0.1741
857.20 0.174
857.30 0.174
857.40 0.1739
857.50 0.1739
857.60 0.1738
857.70 0.1738
857.80 0.1737
857.90 0.1737
858.00 0.1736
858.10 0.1736
858.20 0.1735
858.30 0.1735
858.40 0.1734
858.50 0.1733
858.60 0.1733
858.70 0.1732
858.80 0.1732
858.90 0.1731
859.00 0.1731
859.10 0.173
859.20 0.173
859.30 0.1729
859.40 0.1729
859.50 0.1728
859.60 0.1728
859.70 0.1727
859.80 0.1727
859.90 0.1726
860.00 0.1725
860.10 0.1725
860.20 0.1724
860.30 0.1724
860.40 0.1723
860.50 0.1723
860.60 0.1722
860.70 0.1722
860.80 0.1721
860.90 0.1721
861.00 0.172
861.10 0.172
861.20 0.1719
861.30 0.1719
861.40 0.1718
861.50 0.1717
861.60 0.1717
861.70 0.1716
861.80 0.1716
861.90 0.1715
862.00 0.1715
862.10 0.1714
862.20 0.1714
862.30 0.1713
862.40 0.1712
862.50 0.1712
862.60 0.1711
862.70 0.171
862.80 0.171
862.90 0.1709
863.00 0.1708
863.10 0.1708
863.20 0.1707
863.30 0.1707
863.40 0.1706
863.50 0.1705
863.60 0.1705
863.70 0.1704
863.80 0.1703
863.90 0.1703
864.00 0.1702
864.10 0.1702
864.20 0.1701
864.30 0.17
864.40 0.17
864.50 0.1699
864.60 0.1698
864.70 0.1698
864.80 0.1697
864.90 0.1697
865.00 0.1696
865.10 0.1695
865.20 0.1695
865.30 0.1694
865.40 0.1693
865.50 0.1693
865.60 0.1692
865.70 0.1692
865.80 0.1691
865.90 0.169
866.00 0.169
866.10 0.1689
866.20 0.1688
866.30 0.1688
866.40 0.1687
866.50 0.1687
866.60 0.1686
866.70 0.1685
866.80 0.1685
866.90 0.1684
867.00 0.1683
867.10 0.1683
867.20 0.1683
867.30 0.1683
867.40 0.1682
867.50 0.1682
867.60 0.1682
867.70 0.1681
867.80 0.1681
867.90 0.1681
868.00 0.168
868.10 0.168
868.20 0.168
868.30 0.1679
868.40 0.1679
868.50 0.1679
868.60 0.1678
868.70 0.1678
868.80 0.1678
868.90 0.1677
869.00 0.1677
869.10 0.1677
869.20 0.1676
869.30 0.1676
869.40 0.1676
869.50 0.1676
869.60 0.1675
869.70 0.1675
869.80 0.1675
869.90 0.1674
870.00 0.1674
870.10 0.1674
870.20 0.1673
870.30 0.1673
870.40 0.1673
870.50 0.1672
870.60 0.1672
870.70 0.1672
870.80 0.1671
870.90 0.1671
871.00 0.1671
871.10 0.167
871.20 0.167
871.30 0.167
871.40 0.1669
871.50 0.1669
871.60 0.1669
871.70 0.1669
871.80 0.1668
871.90 0.1668
872.00 0.1668
872.10 0.1667
872.20 0.1666
872.30 0.1666
872.40 0.1665
872.50 0.1664
872.60 0.1664
872.70 0.1663
872.80 0.1662
872.90 0.1662
873.00 0.1661
873.10 0.166
873.20 0.166
873.30 0.1659
873.40 0.1658
873.50 0.1658
873.60 0.1657
873.70 0.1656
873.80 0.1656
873.90 0.1655
874.00 0.1654
874.10 0.1654
874.20 0.1653
874.30 0.1653
874.40 0.1652
874.50 0.1651
874.60 0.1651
874.70 0.165
874.80 0.1649
874.90 0.1649
875.00 0.1648
875.10 0.1647
875.20 0.1647
875.30 0.1646
875.40 0.1645
875.50 0.1645
875.60 0.1644
875.70 0.1643
875.80 0.1643
875.90 0.1642
876.00 0.1641
876.10 0.1641
876.20 0.164
876.30 0.164
876.40 0.1639
876.50 0.1638
876.60 0.1638
876.70 0.1637
876.80 0.1636
876.90 0.1636
877.00 0.1635
877.10 0.1635
877.20 0.1635
877.30 0.1634
877.40 0.1634
877.50 0.1634
877.60 0.1634
877.70 0.1633
877.80 0.1633
877.90 0.1633
878.00 0.1633
878.10 0.1632
878.20 0.1632
878.30 0.1632
878.40 0.1632
878.50 0.1631
878.60 0.1631
878.70 0.1631
878.80 0.1631
878.90 0.1631
879.00 0.163
879.10 0.163
879.20 0.163
879.30 0.163
879.40 0.1629
879.50 0.1629
879.60 0.1629
879.70 0.1629
879.80 0.1628
879.90 0.1628
880.00 0.1628
880.10 0.1628
880.20 0.1627
880.30 0.1627
880.40 0.1627
880.50 0.1627
880.60 0.1627
880.70 0.1626
880.80 0.1626
880.90 0.1626
881.00 0.1626
881.10 0.1625
881.20 0.1625
881.30 0.1625
881.40 0.1625
881.50 0.1624
881.60 0.1624
881.70 0.1624
881.80 0.1624
881.90 0.1623
882.00 0.1623
882.10 0.1622
882.20 0.162
882.30 0.1618
882.40 0.1617
882.50 0.1615
882.60 0.1614
882.70 0.1612
882.80 0.161
882.90 0.1609
883.00 0.1607
883.10 0.1606
883.20 0.1604
883.30 0.1602
883.40 0.1601
883.50 0.1599
883.60 0.1598
883.70 0.1596
883.80 0.1594
883.90 0.1593
884.00 0.1591
884.10 0.159
884.20 0.1588
884.30 0.1587
884.40 0.1585
884.50 0.1583
884.60 0.1582
884.70 0.158
884.80 0.1579
884.90 0.1577
885.00 0.1575
885.10 0.1574
885.20 0.1572
885.30 0.1571
885.40 0.1569
885.50 0.1567
885.60 0.1566
885.70 0.1564
885.80 0.1563
885.90 0.1561
886.00 0.156
886.10 0.1558
886.20 0.1556
886.30 0.1555
886.40 0.1553
886.50 0.1552
886.60 0.155
886.70 0.1549
886.80 0.1547
886.90 0.1545
887.00 0.1544
887.10 0.1545
887.20 0.1545
887.30 0.1546
887.40 0.1547
887.50 0.1548
887.60 0.1548
887.70 0.1549
887.80 0.155
887.90 0.1551
888.00 0.1551
888.10 0.1552
888.20 0.1553
888.30 0.1554
888.40 0.1554
888.50 0.1555
888.60 0.1556
888.70 0.1556
888.80 0.1557
888.90 0.1558
889.00 0.1559
889.10 0.1559
889.20 0.156
889.30 0.1561
889.40 0.1562
889.50 0.1562
889.60 0.1563
889.70 0.1564
889.80 0.1565
889.90 0.1565
890.00 0.1566
890.10 0.1567
890.20 0.1568
890.30 0.1568
890.40 0.1569
890.50 0.157
890.60 0.157
890.70 0.1571
890.80 0.1572
890.90 0.1573
891.00 0.1573
891.10 0.1574
891.20 0.1575
891.30 0.1576
891.40 0.1576
891.50 0.1577
891.60 0.1578
891.70 0.1578
891.80 0.1579
891.90 0.158
892.00 0.1581
892.10 0.158
892.20 0.1579
892.30 0.1579
892.40 0.1578
892.50 0.1577
892.60 0.1577
892.70 0.1576
892.80 0.1575
892.90 0.1575
893.00 0.1574
893.10 0.1573
893.20 0.1573
893.30 0.1572
893.40 0.1571
893.50 0.1571
893.60 0.157
893.70 0.1569
893.80 0.1569
893.90 0.1568
894.00 0.1567
894.10 0.1567
894.20 0.1566
894.30 0.1565
894.40 0.1565
894.50 0.1564
894.60 0.1563
894.70 0.1563
894.80 0.1562
894.90 0.1561
895.00 0.1561
895.10 0.156
895.20 0.1559
895.30 0.1559
895.40 0.1558
895.50 0.1557
895.60 0.1557
895.70 0.1556
895.80 0.1555
895.90 0.1555
896.00 0.1554
896.10 0.1553
896.20 0.1553
896.30 0.1552
896.40 0.1551
896.50 0.1551
896.60 0.155
896.70 0.1549
896.80 0.1549
896.90 0.1548
897.00 0.1547
897.10 0.1544
897.20 0.1541
897.30 0.1537
897.40 0.1534
897.50 0.1531
897.60 0.1527
897.70 0.1524
897.80 0.152
897.90 0.1517
898.00 0.1514
898.10 0.151
898.20 0.1507
898.30 0.1504
898.40 0.15
898.50 0.1497
898.60 0.1494
898.70 0.149
898.80 0.1487
898.90 0.1484
899.00 0.148
899.10 0.1477
899.20 0.1474
899.30 0.147
899.40 0.1467
899.50 0.1464
899.60 0.146
899.70 0.1457
899.80 0.1454
899.90 0.145
900.00 0.1447
900.10 0.1444
900.20 0.144
900.30 0.1437
900.40 0.1434
900.50 0.1431
900.60 0.1427
900.70 0.1424
900.80 0.1421
900.90 0.1417
901.00 0.1414
901.10 0.1411
901.20 0.1407
901.30 0.1404
901.40 0.1401
901.50 0.1397
901.60 0.1394
901.70 0.1391
901.80 0.1388
901.90 0.1384
902.00 0.1381
902.10 0.1383
902.20 0.1384
902.30 0.1386
902.40 0.1388
902.50 0.139
902.60 0.1391
902.70 0.1393
902.80 0.1395
902.90 0.1397
903.00 0.1398
903.10 0.14
903.20 0.1402
903.30 0.1404
903.40 0.1405
903.50 0.1407
903.60 0.1409
903.70 0.1411
903.80 0.1412
903.90 0.1414
904.00 0.1416
904.10 0.1418
904.20 0.1419
904.30 0.1421
904.40 0.1423
904.50 0.1424
904.60 0.1426
904.70 0.1428
904.80 0.143
904.90 0.1431
905.00 0.1433
905.10 0.1435
905.20 0.1437
905.30 0.1438
905.40 0.144
905.50 0.1442
905.60 0.1443
905.70 0.1445
905.80 0.1447
905.90 0.1449
906.00 0.145
906.10 0.1452
906.20 0.1454
906.30 0.1456
906.40 0.1457
906.50 0.1459
906.60 0.1461
906.70 0.1462
906.80 0.1464
906.90 0.1466
907.00 0.1467
907.10 0.1468
907.20 0.1468
907.30 0.1468
907.40 0.1468
907.50 0.1468
907.60 0.1469
907.70 0.1469
907.80 0.1469
907.90 0.1469
908.00 0.1469
908.10 0.147
908.20 0.147
908.30 0.147
908.40 0.147
908.50 0.147
908.60 0.1471
908.70 0.1471
908.80 0.1471
908.90 0.1471
909.00 0.1471
909.10 0.1472
909.20 0.1472
909.30 0.1472
909.40 0.1472
909.50 0.1472
909.60 0.1473
909.70 0.1473
909.80 0.1473
909.90 0.1473
910.00 0.1473
910.10 0.1474
910.20 0.1474
910.30 0.1474
910.40 0.1474
910.50 0.1474
910.60 0.1475
910.70 0.1475
910.80 0.1475
910.90 0.1475
911.00 0.1475
911.10 0.1475
911.20 0.1476
911.30 0.1476
911.40 0.1476
911.50 0.1476
911.60 0.1476
911.70 0.1477
911.80 0.1477
911.90 0.1477
912.00 0.1477
912.10 0.1476
912.20 0.1474
912.30 0.1472
912.40 0.1471
912.50 0.1469
912.60 0.1468
912.70 0.1466
912.80 0.1465
912.90 0.1463
913.00 0.1461
913.10 0.146
913.20 0.1458
913.30 0.1457
913.40 0.1455
913.50 0.1454
913.60 0.1452
913.70 0.145
913.80 0.1449
913.90 0.1447
914.00 0.1446
914.10 0.1444
914.20 0.1443
914.30 0.1441
914.40 0.144
914.50 0.1438
914.60 0.1436
914.70 0.1435
914.80 0.1433
914.90 0.1432
915.00 0.143
915.10 0.1429
915.20 0.1427
915.30 0.1425
915.40 0.1424
915.50 0.1422
915.60 0.1421
915.70 0.1419
915.80 0.1418
915.90 0.1416
916.00 0.1415
916.10 0.1413
916.20 0.1411
916.30 0.141
916.40 0.1408
916.50 0.1407
916.60 0.1405
916.70 0.1404
916.80 0.1402
916.90 0.1401
917.00 0.1399
917.10 0.1395
917.20 0.1391
917.30 0.1388
917.40 0.1384
917.50 0.138
917.60 0.1376
917.70 0.1372
917.80 0.1368
917.90 0.1364
918.00 0.1361
918.10 0.1357
918.20 0.1353
918.30 0.1349
918.40 0.1345
918.50 0.1341
918.60 0.1338
918.70 0.1334
918.80 0.133
918.90 0.1326
919.00 0.1322
919.10 0.1318
919.20 0.1315
919.30 0.1311
919.40 0.1307
919.50 0.1303
919.60 0.1299
919.70 0.1296
919.80 0.1292
919.90 0.1288
920.00 0.1284
920.10 0.128
920.20 0.1276
920.30 0.1273
920.40 0.1269
920.50 0.1265
920.60 0.1261
920.70 0.1257
920.80 0.1254
920.90 0.125
921.00 0.1246
921.10 0.1242
921.20 0.1238
921.30 0.1235
921.40 0.1231
921.50 0.1227
921.60 0.1223
921.70 0.122
921.80 0.1216
921.90 0.1212
922.00 0.1208
922.10 0.1209
922.20 0.121
922.30 0.1211
922.40 0.1212
922.50 0.1213
922.60 0.1213
922.70 0.1214
922.80 0.1215
922.90 0.1216
923.00 0.1217
923.10 0.1218
923.20 0.1219
923.30 0.1219
923.40 0.122
923.50 0.1221
923.60 0.1222
923.70 0.1223
923.80 0.1224
923.90 0.1225
924.00 0.1225
924.10 0.1226
924.20 0.1227
924.30 0.1228
924.40 0.1229
924.50 0.123
924.60 0.1231
924.70 0.1231
924.80 0.1232
924.90 0.1233
925.00 0.1234
925.10 0.1235
925.20 0.1236
925.30 0.1236
925.40 0.1237
925.50 0.1238
925.60 0.1239
925.70 0.124
925.80 0.1241
925.90 0.1242
926.00 0.1242
926.10 0.1243
926.20 0.1244
926.30 0.1245
926.40 0.1246
926.50 0.1247
926.60 0.1247
926.70 0.1248
926.80 0.1249
926.90 0.125
927.00 0.1251
927.10 0.1252
927.20 0.1254
927.30 0.1256
927.40 0.1257
927.50 0.1259
927.60 0.1261
927.70 0.1262
927.80 0.1264
927.90 0.1266
928.00 0.1267
928.10 0.1269
928.20 0.127
928.30 0.1272
928.40 0.1274
928.50 0.1275
928.60 0.1277
928.70 0.1278
928.80 0.128
928.90 0.1282
929.00 0.1283
929.10 0.1285
929.20 0.1287
929.30 0.1288
929.40 0.129
929.50 0.1291
929.60 0.1293
929.70 0.1295
929.80 0.1296
929.90 0.1298
930.00 0.1299
930.10 0.1301
930.20 0.1303
930.30 0.1304
930.40 0.1306
930.50 0.1308
930.60 0.1309
930.70 0.1311
930.80 0.1312
930.90 0.1314
931.00 0.1316
931.10 0.1317
931.20 0.1319
931.30 0.132
931.40 0.1322
931.50 0.1324
931.60 0.1325
931.70 0.1327
931.80 0.1328
931.90 0.133
932.00 0.1332
932.10 0.1332
932.20 0.1333
932.30 0.1333
932.40 0.1334
932.50 0.1334
932.60 0.1335
932.70 0.1335
932.80 0.1336
932.90 0.1336
933.00 0.1337
933.10 0.1337
933.20 0.1338
933.30 0.1338
933.40 0.1339
933.50 0.1339
933.60 0.134
933.70 0.1341
933.80 0.1341
933.90 0.1342
934.00 0.1342
934.10 0.1343
934.20 0.1343
934.30 0.1344
934.40 0.1344
934.50 0.1344
934.60 0.1344
934.70 0.1344
934.80 0.1344
934.90 0.1344
935.00 0.1344
935.10 0.1344
935.20 0.1344
935.30 0.1344
935.40 0.1344
935.50 0.1344
935.60 0.1344
935.70 0.1344
935.80 0.1344
935.90 0.1344
936.00 0.1344
936.10 0.1344
936.20 0.1344
936.30 0.1344
936.40 0.1344
936.50 0.1344
936.60 0.1344
936.70 0.1344
936.80 0.1344
936.90 0.1344
937.00 0.1344
937.10 0.1343
937.20 0.1343
937.30 0.1343
937.40 0.1342
937.50 0.1342
937.60 0.1341
937.70 0.1341
937.80 0.1341
937.90 0.134
938.00 0.134
938.10 0.134
938.20 0.1339
938.30 0.1339
938.40 0.1338
938.50 0.1337
938.60 0.1337
938.70 0.1336
938.80 0.1335
938.90 0.1335
939.00 0.1334
939.10 0.1333
939.20 0.1333
939.30 0.1332
939.40 0.1331
939.50 0.1331
939.60 0.133
939.70 0.1329
939.80 0.1329
939.90 0.1328
940.00 0.1327
940.10 0.1327
940.20 0.1326
940.30 0.1325
940.40 0.1324
940.50 0.1323
940.60 0.1322
940.70 0.1321
940.80 0.132
940.90 0.1319
941.00 0.1318
941.10 0.1317
941.20 0.1316
941.30 0.1315
941.40 0.1314
941.50 0.1313
941.60 0.1312
941.70 0.1311
941.80 0.131
941.90 0.1309
942.00 0.1308
942.10 0.1307
942.20 0.1305
942.30 0.1304
942.40 0.1302
942.50 0.1301
942.60 0.1299
942.70 0.1298
942.80 0.1296
942.90 0.1295
943.00 0.1293
943.10 0.1292
943.20 0.129
943.30 0.1288
943.40 0.1287
943.50 0.1285
943.60 0.1284
943.70 0.1282
943.80 0.1281
943.90 0.1279
944.00 0.1278
944.10 0.1276
944.20 0.1274
944.30 0.1273
944.40 0.1271
944.50 0.1269
944.60 0.1267
944.70 0.1265
944.80 0.1263
944.90 0.1261
945.00 0.1259
945.10 0.1257
945.20 0.1255
945.30 0.1253
945.40 0.1251
945.50 0.1248
945.60 0.1246
945.70 0.1244
945.80 0.1241
945.90 0.1239
946.00 0.1236
946.10 0.1234
946.20 0.1232
946.30 0.1229
946.40 0.1227
946.50 0.1224
946.60 0.1222
946.70 0.122
946.80 0.1217
946.90 0.1215
947.00 0.1212
947.10 0.121
947.20 0.1207
947.30 0.1204
947.40 0.1201
947.50 0.1198
947.60 0.1195
947.70 0.1192
947.80 0.1189
947.90 0.1186
948.00 0.1182
948.10 0.1179
948.20 0.1176
948.30 0.1173
948.40 0.117
948.50 0.1167
948.60 0.1164
948.70 0.1161
948.80 0.1158
948.90 0.1155
949.00 0.1151
949.10 0.1148
949.20 0.1145
949.30 0.1142
949.40 0.1138
949.50 0.1135
949.60 0.1131
949.70 0.1127
949.80 0.1123
949.90 0.112
950.00 0.1116
950.10 0.1112
950.20 0.1109
950.30 0.1105
950.40 0.1101
950.50 0.1097
950.60 0.1094
950.70 0.109
950.80 0.1086
950.90 0.1083
951.00 0.1079
951.10 0.1075
951.20 0.1071
951.30 0.1068
951.40 0.1064
951.50 0.106
951.60 0.1056
951.70 0.1052
951.80 0.1048
951.90 0.1044
952.00 0.104
952.10 0.1036
952.20 0.1032
952.30 0.1028
952.40 0.1024
952.50 0.102
952.60 0.1016
952.70 0.1012
952.80 0.1009
952.90 0.1005
953.00 0.1002
953.10 0.09988
953.20 0.09956
953.30 0.09924
953.40 0.09892
953.50 0.0986
953.60 0.09852
953.70 0.09845
953.80 0.09837
953.90 0.0983
954.00 0.09887
954.10 0.09944
954.20 0.1006
954.30 0.1017
954.40 0.1001
954.50 0.09897
954.60 0.09839
954.70 0.0978
954.80 0.09784
954.90 0.09787
955.00 0.09791
955.10 0.09794
955.20 0.09819
955.30 0.09844
955.40 0.09869
955.50 0.09895
955.60 0.0992
955.70 0.09945
955.80 0.0997
955.90 0.1
956.00 0.1003
956.10 0.1006
956.20 0.101
956.30 0.1013
956.40 0.1016
956.50 0.1019
956.60 0.1022
956.70 0.1025
956.80 0.1028
956.90 0.1032
957.00 0.1035
957.10 0.1038
957.20 0.1041
957.30 0.1044
957.40 0.1047
957.50 0.1049
957.60 0.1052
957.70 0.1055
957.80 0.1058
957.90 0.106
958.00 0.1063
958.10 0.1066
958.20 0.1069
958.30 0.1071
958.40 0.1074
958.50 0.1077
958.60 0.108
958.70 0.1082
958.80 0.1085
958.90 0.1088
959.00 0.109
959.10 0.1093
959.20 0.1096
959.30 0.1099
959.40 0.1101
959.50 0.1103
959.60 0.1105
959.70 0.1107
959.80 0.1109
959.90 0.1111
960.00 0.1113
960.10 0.1115
960.20 0.1117
960.30 0.1119
960.40 0.1121
960.50 0.1123
960.60 0.1125
960.70 0.1127
960.80 0.1129
960.90 0.1131
961.00 0.1133
961.10 0.1135
961.20 0.1137
961.30 0.1139
961.40 0.1141
961.50 0.1142
961.60 0.1144
961.70 0.1146
961.80 0.1147
961.90 0.1149
962.00 0.115
962.10 0.1152
962.20 0.1153
962.30 0.1154
962.40 0.1156
962.50 0.1157
962.60 0.1158
962.70 0.116
962.80 0.1161
962.90 0.1162
963.00 0.1164
963.10 0.1165
963.20 0.1166
963.30 0.1167
963.40 0.1169
963.50 0.117
963.60 0.1171
963.70 0.1172
963.80 0.1173
963.90 0.1174
964.00 0.1175
964.10 0.1176
964.20 0.1177
964.30 0.1178
964.40 0.1179
964.50 0.1179
964.60 0.118
964.70 0.1181
964.80 0.1181
964.90 0.1182
965.00 0.1183
965.10 0.1184
965.20 0.1184
965.30 0.1185
965.40 0.1186
965.50 0.1187
965.60 0.1187
965.70 0.1188
965.80 0.1189
965.90 0.1189
966.00 0.119
966.10 0.1191
966.20 0.1192
966.30 0.1192
966.40 0.1193
966.50 0.1193
966.60 0.1194
966.70 0.1194
966.80 0.1195
966.90 0.1195
967.00 0.1196
967.10 0.1196
967.20 0.1197
967.30 0.1197
967.40 0.1197
967.50 0.1198
967.60 0.1198
967.70 0.1198
967.80 0.1199
967.90 0.1199
968.00 0.1199
968.10 0.12
968.20 0.12
968.30 0.1201
968.40 0.1201
968.50 0.1201
968.60 0.1201
968.70 0.1201
968.80 0.1201
968.90 0.1202
969.00 0.1202
969.10 0.1202
969.20 0.1202
969.30 0.1202
969.40 0.1202
969.50 0.1203
969.60 0.1203
969.70 0.1203
969.80 0.1203
969.90 0.1203
970.00 0.1203
970.10 0.1203
970.20 0.1204
970.30 0.1204
970.40 0.1204
970.50 0.1204
970.60 0.1204
970.70 0.1204
970.80 0.1204
970.90 0.1204
971.00 0.1204
971.10 0.1204
971.20 0.1204
971.30 0.1204
971.40 0.1204
971.50 0.1204
971.60 0.1204
971.70 0.1204
971.80 0.1204
971.90 0.1204
972.00 0.1204
972.10 0.1204
972.20 0.1204
972.30 0.1203
972.40 0.1203
972.50 0.1203
972.60 0.1203
972.70 0.1203
972.80 0.1203
972.90 0.1203
973.00 0.1202
973.10 0.1202
973.20 0.1202
973.30 0.1202
973.40 0.1202
973.50 0.1202
973.60 0.1202
973.70 0.1202
973.80 0.1201
973.90 0.1201
974.00 0.1201
974.10 0.1201
974.20 0.1201
974.30 0.1201
974.40 0.12
974.50 0.12
974.60 0.12
974.70 0.12
974.80 0.1199
974.90 0.1199
975.00 0.1199
975.10 0.1198
975.20 0.1198
975.30 0.1198
975.40 0.1198
975.50 0.1197
975.60 0.1197
975.70 0.1197
975.80 0.1197
975.90 0.1196
976.00 0.1196
976.10 0.1196
976.20 0.1195
976.30 0.1195
976.40 0.1195
976.50 0.1195
976.60 0.1194
976.70 0.1194
976.80 0.1194
976.90 0.1194
977.00 0.1193
977.10 0.1193
977.20 0.1192
977.30 0.1192
977.40 0.1192
977.50 0.1191
977.60 0.1191
977.70 0.119
977.80 0.119
977.90 0.1189
978.00 0.1189
978.10 0.1188
978.20 0.1188
978.30 0.1187
978.40 0.1187
978.50 0.1187
978.60 0.1186
978.70 0.1186
978.80 0.1185
978.90 0.1185
979.00 0.1184
979.10 0.1184
979.20 0.1183
979.30 0.1183
979.40 0.1183
979.50 0.1182
979.60 0.1182
979.70 0.1181
979.80 0.1181
979.90 0.118
980.00 0.118
980.10 0.1179
980.20 0.1179
980.30 0.1179
980.40 0.1178
980.50 0.1178
980.60 0.1177
980.70 0.1177
980.80 0.1176
980.90 0.1176
981.00 0.1175
981.10 0.1175
981.20 0.1175
981.30 0.1174
981.40 0.1174
981.50 0.1173
981.60 0.1173
981.70 0.1172
981.80 0.1172
981.90 0.1171
982.00 0.1171
982.10 0.117
982.20 0.117
982.30 0.1169
982.40 0.1168
982.50 0.1168
982.60 0.1167
982.70 0.1167
982.80 0.1166
982.90 0.1165
983.00 0.1165
983.10 0.1164
983.20 0.1164
983.30 0.1163
983.40 0.1162
983.50 0.1162
983.60 0.1161
983.70 0.116
983.80 0.116
983.90 0.1159
984.00 0.1159
984.10 0.1158
984.20 0.1157
984.30 0.1157
984.40 0.1156
984.50 0.1155
984.60 0.1155
984.70 0.1154
984.80 0.1153
984.90 0.1153
985.00 0.1152
985.10 0.1151
985.20 0.115
985.30 0.115
985.40 0.1149
985.50 0.1148
985.60 0.1147
985.70 0.1147
985.80 0.1146
985.90 0.1145
986.00 0.1144
986.10 0.1144
986.20 0.1143
986.30 0.1142
986.40 0.1141
986.50 0.1141
986.60 0.114
986.70 0.1139
986.80 0.1138
986.90 0.1138
987.00 0.1137
987.10 0.1136
987.20 0.1135
987.30 0.1134
987.40 0.1133
987.50 0.1132
987.60 0.1132
987.70 0.1131
987.80 0.113
987.90 0.1129
988.00 0.1128
988.10 0.1127
988.20 0.1126
988.30 0.1125
988.40 0.1124
988.50 0.1124
988.60 0.1123
988.70 0.1122
988.80 0.1121
988.90 0.1119
989.00 0.1118
989.10 0.1117
989.20 0.1116
989.30 0.1115
989.40 0.1114
989.50 0.1113
989.60 0.1112
989.70 0.1111
989.80 0.111
989.90 0.1109
990.00 0.1108
990.10 0.1107
990.20 0.1106
990.30 0.1105
990.40 0.1104
990.50 0.1103
990.60 0.1102
990.70 0.11
990.80 0.1099
990.90 0.1098
991.00 0.1097
991.10 0.1096
991.20 0.1094
991.30 0.1093
991.40 0.1092
991.50 0.1091
991.60 0.109
991.70 0.1088
991.80 0.1087
991.90 0.1086
992.00 0.1085
992.10 0.1083
992.20 0.1082
992.30 0.1081
992.40 0.1079
992.50 0.1078
992.60 0.1076
992.70 0.1075
992.80 0.1073
992.90 0.1072
993.00 0.107
993.10 0.1069
993.20 0.1067
993.30 0.1066
993.40 0.1064
993.50 0.1063
993.60 0.1061
993.70 0.106
993.80 0.1058
993.90 0.1056
994.00 0.1055
994.10 0.1053
994.20 0.1052
994.30 0.105
994.40 0.1049
994.50 0.1047
994.60 0.1046
994.70 0.1044
994.80 0.1042
994.90 0.104
995.00 0.1039
995.10 0.1037
995.20 0.1035
995.30 0.1033
995.40 0.1031
995.50 0.103
995.60 0.1028
995.70 0.1026
995.80 0.1024
995.90 0.1022
996.00 0.102
996.10 0.1018
996.20 0.1016
996.30 0.1014
996.40 0.1012
996.50 0.101
996.60 0.1007
996.70 0.1005
996.80 0.1003
996.90 0.1001
997.00 0.09994
997.10 0.09971
997.20 0.09949
997.30 0.09926
997.40 0.09904
997.50 0.09881
997.60 0.09858
997.70 0.09833
997.80 0.09808
997.90 0.09782
998.00 0.09756
998.10 0.0973
998.20 0.09704
998.30 0.09678
998.40 0.09653
998.50 0.09627
998.60 0.09601
998.70 0.09575
998.80 0.09549
998.90 0.09524
999.00 0.09498
999.10 0.09472
999.20 0.09446
999.30 0.09421
999.40 0.09395
999.50 0.09369
999.60 0.09344
999.70 0.09314
999.80 0.09282
999.90 0.09251
1000.00 0.0922
1000.10 0.09189
1000.20 0.09157
1000.30 0.09126
1000.40 0.09095
1000.50 0.09064
1000.60 0.09033
1000.70 0.09002
1000.80 0.0897
1000.90 0.08939
1001.00 0.08908
1001.10 0.08877
1001.20 0.08846
1001.30 0.08815
1001.40 0.08784
1001.50 0.08753
1001.60 0.08722
1001.70 0.08688
1001.80 0.08654
1001.90 0.08619
1002.00 0.08585
1002.10 0.08548
1002.20 0.08512
1002.30 0.08475
1002.40 0.08439
1002.50 0.08402
1002.60 0.08366
1002.70 0.0833
1002.80 0.08293
1002.90 0.08257
1003.00 0.0822
1003.10 0.08184
1003.20 0.08146
1003.30 0.08108
1003.40 0.08069
1003.50 0.08031
1003.60 0.07993
1003.70 0.07954
1003.80 0.07916
1003.90 0.0788
1004.00 0.07843
1004.10 0.07807
1004.20 0.07771
1004.30 0.07748
1004.40 0.07728
1004.50 0.07733
1004.60 0.07831
1004.70 0.0776
1004.80 0.07712
1004.90 0.07725
1005.00 0.0774
1005.10 0.07767
1005.20 0.07799
1005.30 0.0783
1005.40 0.07861
1005.50 0.07893
1005.60 0.07926
1005.70 0.07959
1005.80 0.07992
1005.90 0.08025
1006.00 0.08058
1006.10 0.08091
1006.20 0.08123
1006.30 0.08154
1006.40 0.08185
1006.50 0.08216
1006.60 0.08246
1006.70 0.08277
1006.80 0.08308
1006.90 0.08339
1007.00 0.0837
1007.10 0.08399
1007.20 0.08427
1007.30 0.08456
1007.40 0.08484
1007.50 0.08513
1007.60 0.08541
1007.70 0.08567
1007.80 0.08591
1007.90 0.08616
1008.00 0.0864
1008.10 0.08665
1008.20 0.08689
1008.30 0.08714
1008.40 0.08738
1008.50 0.08763
1008.60 0.08787
1008.70 0.08812
1008.80 0.08836
1008.90 0.0886
1009.00 0.08885
1009.10 0.08909
1009.20 0.08934
1009.30 0.08958
1009.40 0.08982
1009.50 0.09007
1009.60 0.09031
1009.70 0.09051
1009.80 0.0907
1009.90 0.09088
1010.00 0.09107
1010.10 0.09125
1010.20 0.09144
1010.30 0.09162
1010.40 0.0918
1010.50 0.09199
1010.60 0.09217
1010.70 0.09236
1010.80 0.09254
1010.90 0.09273
1011.00 0.09291
1011.10 0.0931
1011.20 0.09328
1011.30 0.09346
1011.40 0.09365
1011.50 0.09383
1011.60 0.09402
1011.70 0.09418
1011.80 0.09433
1011.90 0.09448
1012.00 0.09463
1012.10 0.09476
1012.20 0.09489
1012.30 0.09502
1012.40 0.09515
1012.50 0.09528
1012.60 0.09541
1012.70 0.09554
1012.80 0.09567
1012.90 0.09579
1013.00 0.09592
1013.10 0.09605
1013.20 0.09618
1013.30 0.09631
1013.40 0.09644
1013.50 0.09657
1013.60 0.0967
1013.70 0.09681
1013.80 0.09691
1013.90 0.09701
1014.00 0.09711
1014.10 0.09722
1014.20 0.09732
1014.30 0.09742
1014.40 0.09752
1014.50 0.09762
1014.60 0.09773
1014.70 0.09781
1014.80 0.09789
1014.90 0.09796
1015.00 0.09804
1015.10 0.09811
1015.20 0.09819
1015.30 0.09827
1015.40 0.09834
1015.50 0.09842
1015.60 0.09849
1015.70 0.09857
1015.80 0.09865
1015.90 0.09872
1016.00 0.0988
1016.10 0.09887
1016.20 0.09895
1016.30 0.09902
1016.40 0.0991
1016.50 0.09918
1016.60 0.09925
1016.70 0.09931
1016.80 0.09937
1016.90 0.09943
1017.00 0.09949
1017.10 0.09953
1017.20 0.09958
1017.30 0.09963
1017.40 0.09967
1017.50 0.09972
1017.60 0.09977
1017.70 0.09981
1017.80 0.09986
1017.90 0.09991
1018.00 0.09995
1018.10 0.1
1018.20 0.1
1018.30 0.1001
1018.40 0.1001
1018.50 0.1002
1018.60 0.1002
1018.70 0.1003
1018.80 0.1003
1018.90 0.1003
1019.00 0.1003
1019.10 0.1004
1019.20 0.1004
1019.30 0.1004
1019.40 0.1005
1019.50 0.1005
1019.60 0.1005
1019.70 0.1005
1019.80 0.1006
1019.90 0.1006
1020.00 0.1006
1020.10 0.1007
1020.20 0.1007
1020.30 0.1007
1020.40 0.1007
1020.50 0.1008
1020.60 0.1008
1020.70 0.1008
1020.80 0.1008
1020.90 0.1008
1021.00 0.1009
1021.10 0.1009
1021.20 0.1009
1021.30 0.1009
1021.40 0.1009
1021.50 0.1009
1021.60 0.1009
1021.70 0.101
1021.80 0.101
1021.90 0.101
1022.00 0.101
1022.10 0.101
1022.20 0.101
1022.30 0.101
1022.40 0.101
1022.50 0.101
1022.60 0.101
1022.70 0.101
1022.80 0.101
1022.90 0.101
1023.00 0.101
1023.10 0.101
1023.20 0.101
1023.30 0.101
1023.40 0.101
1023.50 0.101
1023.60 0.101
1023.70 0.101
1023.80 0.101
1023.90 0.101
1024.00 0.101
1024.10 0.1011
1024.20 0.1011
1024.30 0.1011
1024.40 0.1011
1024.50 0.1011
1024.60 0.1011
1024.70 0.1011
1024.80 0.1011
1024.90 0.101
1025.00 0.101
1025.10 0.101
1025.20 0.101
1025.30 0.101
1025.40 0.101
1025.50 0.101
1025.60 0.101
1025.70 0.101
1025.80 0.101
1025.90 0.101
1026.00 0.101
1026.10 0.1009
1026.20 0.1009
1026.30 0.1009
1026.40 0.1009
1026.50 0.1009
1026.60 0.1009
1026.70 0.1009
1026.80 0.1009
1026.90 0.1009
1027.00 0.1009
1027.10 0.1009
1027.20 0.1008
1027.30 0.1008
1027.40 0.1008
1027.50 0.1008
1027.60 0.1008
1027.70 0.1007
1027.80 0.1007
1027.90 0.1007
1028.00 0.1007
1028.10 0.1007
1028.20 0.1007
1028.30 0.1006
1028.40 0.1006
1028.50 0.1006
1028.60 0.1006
1028.70 0.1006
1028.80 0.1005
1028.90 0.1005
1029.00 0.1005
1029.10 0.1005
1029.20 0.1005
1029.30 0.1005
1029.40 0.1004
1029.50 0.1004
1029.60 0.1004
1029.70 0.1004
1029.80 0.1004
1029.90 0.1003
1030.00 0.1003
1030.10 0.1003
1030.20 0.1003
1030.30 0.1003
1030.40 0.1003
1030.50 0.1002
1030.60 0.1002
1030.70 0.1002
1030.80 0.1002
1030.90 0.1002
1031.00 0.1001
1031.10 0.1001
1031.20 0.1001
1031.30 0.1001
1031.40 0.1001
1031.50 0.1001
1031.60 0.1
1031.70 0.1
1031.80 0.1
1031.90 0.09998
1032.00 0.09997
1032.10 0.09994
1032.20 0.09991
1032.30 0.09989
1032.40 0.09986
1032.50 0.09984
1032.60 0.09981
1032.70 0.09978
1032.80 0.09976
1032.90 0.09973
1033.00 0.09971
1033.10 0.09968
1033.20 0.09965
1033.30 0.09963
1033.40 0.0996
1033.50 0.09958
1033.60 0.09955
1033.70 0.09952
1033.80 0.0995
1033.90 0.09947
1034.00 0.09944
1034.10 0.09942
1034.20 0.09939
1034.30 0.09937
1034.40 0.09934
1034.50 0.09932
1034.60 0.09929
1034.70 0.09926
1034.80 0.09924
1034.90 0.09921
1035.00 0.09919
1035.10 0.09916
1035.20 0.09913
1035.30 0.09911
1035.40 0.09908
1035.50 0.09906
1035.60 0.09903
1035.70 0.099
1035.80 0.09898
1035.90 0.09895
1036.00 0.09893
1036.10 0.0989
1036.20 0.09887
1036.30 0.09885
1036.40 0.09882
1036.50 0.0988
1036.60 0.09877
1036.70 0.09875
1036.80 0.09872
1036.90 0.09869
1037.00 0.09867
1037.10 0.09864
1037.20 0.09861
1037.30 0.09858
1037.40 0.09855
1037.50 0.09852
1037.60 0.09849
1037.70 0.09846
1037.80 0.09843
1037.90 0.0984
1038.00 0.09837
1038.10 0.09834
1038.20 0.09831
1038.30 0.09829
1038.40 0.09826
1038.50 0.09823
1038.60 0.0982
1038.70 0.09817
1038.80 0.09814
1038.90 0.09811
1039.00 0.09808
1039.10 0.09805
1039.20 0.09802
1039.30 0.09799
1039.40 0.09796
1039.50 0.09793
1039.60 0.0979
1039.70 0.09787
1039.80 0.09784
1039.90 0.09782
1040.00 0.09779
1040.10 0.09776
1040.20 0.09773
1040.30 0.0977
1040.40 0.09767
1040.50 0.09764
1040.60 0.09761
1040.70 0.09758
1040.80 0.09755
1040.90 0.09752
1041.00 0.09749
1041.10 0.09746
1041.20 0.09744
1041.30 0.09741
1041.40 0.09738
1041.50 0.09735
1041.60 0.09732
1041.70 0.09729
1041.80 0.09726
1041.90 0.09723
1042.00 0.0972
1042.10 0.09717
1042.20 0.09714
1042.30 0.09711
1042.40 0.09708
1042.50 0.09704
1042.60 0.09701
1042.70 0.09698
1042.80 0.09695
1042.90 0.09692
1043.00 0.09689
1043.10 0.09686
1043.20 0.09682
1043.30 0.09679
1043.40 0.09676
1043.50 0.09673
1043.60 0.0967
1043.70 0.09667
1043.80 0.09664
1043.90 0.09661
1044.00 0.09657
1044.10 0.09654
1044.20 0.09651
1044.30 0.09648
1044.40 0.09645
1044.50 0.09642
1044.60 0.09639
1044.70 0.09635
1044.80 0.09632
1044.90 0.09629
1045.00 0.09626
1045.10 0.09623
1045.20 0.0962
1045.30 0.09617
1045.40 0.09614
1045.50 0.09611
1045.60 0.09607
1045.70 0.09604
1045.80 0.09601
1045.90 0.09598
1046.00 0.09595
1046.10 0.09592
1046.20 0.09589
1046.30 0.09586
1046.40 0.09583
1046.50 0.09579
1046.60 0.09576
1046.70 0.09573
1046.80 0.0957
1046.90 0.09567
1047.00 0.09564
1047.10 0.09561
1047.20 0.09557
1047.30 0.09554
1047.40 0.09551
1047.50 0.09547
1047.60 0.09544
1047.70 0.09541
1047.80 0.09538
1047.90 0.09534
1048.00 0.09531
1048.10 0.09528
1048.20 0.09524
1048.30 0.09521
1048.40 0.09518
1048.50 0.09515
1048.60 0.09511
1048.70 0.09508
1048.80 0.09505
1048.90 0.09502
1049.00 0.09498
1049.10 0.09495
1049.20 0.09492
1049.30 0.09488
1049.40 0.09485
1049.50 0.09482
1049.60 0.09479
1049.70 0.09475
1049.80 0.09472
1049.90 0.09469
1050.00 0.09466
1050.10 0.09462
1050.20 0.09459
1050.30 0.09456
1050.40 0.09453
1050.50 0.09449
1050.60 0.09446
1050.70 0.09443
1050.80 0.0944
1050.90 0.09436
1051.00 0.09433
1051.10 0.0943
1051.20 0.09427
1051.30 0.09423
1051.40 0.0942
1051.50 0.09417
1051.60 0.09414
1051.70 0.0941
1051.80 0.09407
1051.90 0.09404
1052.00 0.09401
1052.10 0.09397
1052.20 0.09394
1052.30 0.0939
1052.40 0.09387
1052.50 0.09384
1052.60 0.0938
1052.70 0.09377
1052.80 0.09373
1052.90 0.0937
1053.00 0.09366
1053.10 0.09363
1053.20 0.0936
1053.30 0.09356
1053.40 0.09353
1053.50 0.09349
1053.60 0.09346
1053.70 0.09343
1053.80 0.09339
1053.90 0.09336
1054.00 0.09333
1054.10 0.09329
1054.20 0.09326
1054.30 0.09322
1054.40 0.09319
1054.50 0.09316
1054.60 0.09312
1054.70 0.09309
1054.80 0.09305
1054.90 0.09302
1055.00 0.09299
1055.10 0.09295
1055.20 0.09292
1055.30 0.09289
1055.40 0.09285
1055.50 0.09282
1055.60 0.09278
1055.70 0.09275
1055.80 0.09272
1055.90 0.09268
1056.00 0.09265
1056.10 0.09262
1056.20 0.09258
1056.30 0.09255
1056.40 0.09251
1056.50 0.09248
1056.60 0.09245
1056.70 0.09241
1056.80 0.09238
1056.90 0.09235
1057.00 0.09231
1057.10 0.09228
1057.20 0.09224
1057.30 0.09221
1057.40 0.09217
1057.50 0.09213
1057.60 0.0921
1057.70 0.09206
1057.80 0.09203
1057.90 0.09199
1058.00 0.09196
1058.10 0.09192
1058.20 0.09189
1058.30 0.09185
1058.40 0.09182
1058.50 0.09178
1058.60 0.09174
1058.70 0.09171
1058.80 0.09167
1058.90 0.09164
1059.00 0.0916
1059.10 0.09157
1059.20 0.09153
1059.30 0.0915
1059.40 0.09146
1059.50 0.09143
1059.60 0.09139
1059.70 0.09136
1059.80 0.09132
1059.90 0.09128
1060.00 0.09125
1060.10 0.09121
1060.20 0.09118
1060.30 0.09114
1060.40 0.09111
1060.50 0.09107
1060.60 0.09104
1060.70 0.091
1060.80 0.09097
1060.90 0.09093
1061.00 0.0909
1061.10 0.09086
1061.20 0.09083
1061.30 0.09079
1061.40 0.09076
1061.50 0.09072
1061.60 0.09069
1061.70 0.09065
1061.80 0.09062
1061.90 0.09058
1062.00 0.09055
1062.10 0.09051
1062.20 0.09047
1062.30 0.09043
1062.40 0.09039
1062.50 0.09035
1062.60 0.09031
1062.70 0.09027
1062.80 0.09023
1062.90 0.09019
1063.00 0.09016
1063.10 0.09012
1063.20 0.09008
1063.30 0.09004
1063.40 0.09
1063.50 0.08996
1063.60 0.08992
1063.70 0.08988
1063.80 0.08984
1063.90 0.0898
1064.00 0.08976
1064.10 0.08973
1064.20 0.08969
1064.30 0.08965
1064.40 0.08961
1064.50 0.08957
1064.60 0.08953
1064.70 0.08949
1064.80 0.08945
1064.90 0.08941
1065.00 0.08938
1065.10 0.08934
1065.20 0.0893
1065.30 0.08926
1065.40 0.08922
1065.50 0.08918
1065.60 0.08914
1065.70 0.0891
1065.80 0.08907
1065.90 0.08903
1066.00 0.08899
1066.10 0.08895
1066.20 0.08891
1066.30 0.08887
1066.40 0.08883
1066.50 0.08879
1066.60 0.08876
1066.70 0.08872
1066.80 0.08868
1066.90 0.08864
1067.00 0.0886
1067.10 0.08856
1067.20 0.08851
1067.30 0.08846
1067.40 0.08842
1067.50 0.08837
1067.60 0.08833
1067.70 0.08828
1067.80 0.08824
1067.90 0.08819
1068.00 0.08814
1068.10 0.0881
1068.20 0.08805
1068.30 0.08801
1068.40 0.08796
1068.50 0.08792
1068.60 0.08787
1068.70 0.08782
1068.80 0.08778
1068.90 0.08773
1069.00 0.08769
1069.10 0.08764
1069.20 0.0876
1069.30 0.08755
1069.40 0.08751
1069.50 0.08746
1069.60 0.08742
1069.70 0.08737
1069.80 0.08732
1069.90 0.08728
1070.00 0.08723
1070.10 0.08719
1070.20 0.08714
1070.30 0.0871
1070.40 0.08705
1070.50 0.08701
1070.60 0.08696
1070.70 0.08692
1070.80 0.08687
1070.90 0.08683
1071.00 0.08678
1071.10 0.08674
1071.20 0.08669
1071.30 0.08665
1071.40 0.0866
1071.50 0.08656
1071.60 0.08651
1071.70 0.08647
1071.80 0.08642
1071.90 0.08638
1072.00 0.08633
1072.10 0.08628
1072.20 0.08622
1072.30 0.08617
1072.40 0.08611
1072.50 0.08606
1072.60 0.08601
1072.70 0.08595
1072.80 0.0859
1072.90 0.08585
1073.00 0.08579
1073.10 0.08574
1073.20 0.08568
1073.30 0.08563
1073.40 0.08558
1073.50 0.08552
1073.60 0.08546
1073.70 0.0854
1073.80 0.08534
1073.90 0.08528
1074.00 0.08521
1074.10 0.08515
1074.20 0.08509
1074.30 0.08503
1074.40 0.08497
1074.50 0.08491
1074.60 0.08485
1074.70 0.08479
1074.80 0.08473
1074.90 0.08466
1075.00 0.0846
1075.10 0.08454
1075.20 0.08448
1075.30 0.08442
1075.40 0.08436
1075.50 0.0843
1075.60 0.08424
1075.70 0.08418
1075.80 0.08412
1075.90 0.08406
1076.00 0.08399
1076.10 0.08393
1076.20 0.08387
1076.30 0.08381
1076.40 0.08375
1076.50 0.08369
1076.60 0.08363
1076.70 0.08357
1076.80 0.08351
1076.90 0.08345
1077.00 0.08339
1077.10 0.08332
1077.20 0.08325
1077.30 0.08318
1077.40 0.08311
1077.50 0.08304
1077.60 0.08297
1077.70 0.08289
1077.80 0.08281
1077.90 0.08274
1078.00 0.08266
1078.10 0.08259
1078.20 0.08251
1078.30 0.08244
1078.40 0.08236
1078.50 0.08228
1078.60 0.08221
1078.70 0.08213
1078.80 0.08206
1078.90 0.08198
1079.00 0.08191
1079.10 0.08183
1079.20 0.08176
1079.30 0.08168
1079.40 0.0816
1079.50 0.08152
1079.60 0.08143
1079.70 0.08134
1079.80 0.08125
1079.90 0.08116
1080.00 0.08107
1080.10 0.08098
1080.20 0.08088
1080.30 0.08079
1080.40 0.0807
1080.50 0.08061
1080.60 0.08052
1080.70 0.08043
1080.80 0.08034
1080.90 0.08024
1081.00 0.08015
1081.10 0.08006
1081.20 0.07997
1081.30 0.07988
1081.40 0.07979
1081.50 0.07969
1081.60 0.07959
1081.70 0.07948
1081.80 0.07937
1081.90 0.07927
1082.00 0.07916
1082.10 0.07905
1082.20 0.07894
1082.30 0.07883
1082.40 0.07871
1082.50 0.0786
1082.60 0.07849
1082.70 0.07838
1082.80 0.07826
1082.90 0.07815
1083.00 0.07804
1083.10 0.07793
1083.20 0.07782
1083.30 0.0777
1083.40 0.07759
1083.50 0.07748
1083.60 0.07735
1083.70 0.07722
1083.80 0.0771
1083.90 0.07697
1084.00 0.07685
1084.10 0.07672
1084.20 0.0766
1084.30 0.07647
1084.40 0.07635
1084.50 0.07622
1084.60 0.07607
1084.70 0.07592
1084.80 0.07577
1084.90 0.07562
1085.00 0.07548
1085.10 0.07533
1085.20 0.07518
1085.30 0.07503
1085.40 0.07488
1085.50 0.07474
1085.60 0.07459
1085.70 0.07444
1085.80 0.07429
1085.90 0.07414
1086.00 0.074
1086.10 0.07385
1086.20 0.0737
1086.30 0.07355
1086.40 0.07341
1086.50 0.07325
1086.60 0.07308
1086.70 0.07292
1086.80 0.07275
1086.90 0.07258
1087.00 0.07241
1087.10 0.07222
1087.20 0.07204
1087.30 0.07185
1087.40 0.07167
1087.50 0.07148
1087.60 0.0713
1087.70 0.07111
1087.80 0.07092
1087.90 0.07074
1088.00 0.07055
1088.10 0.07037
1088.20 0.07018
1088.30 0.07
1088.40 0.06981
1088.50 0.06962
1088.60 0.06939
1088.70 0.06917
1088.80 0.06895
1088.90 0.06873
1089.00 0.06851
1089.10 0.06829
1089.20 0.06807
1089.30 0.06785
1089.40 0.06763
1089.50 0.06741
1089.60 0.06719
1089.70 0.06697
1089.80 0.06675
1089.90 0.06653
1090.00 0.06631
1090.10 0.06609
1090.20 0.06587
1090.30 0.06566
1090.40 0.06544
1090.50 0.0652
1090.60 0.06494
1090.70 0.06467
1090.80 0.06441
1090.90 0.06414
1091.00 0.06388
1091.10 0.06362
1091.20 0.06335
1091.30 0.06309
1091.40 0.06282
1091.50 0.06256
1091.60 0.0623
1091.70 0.06203
1091.80 0.06177
1091.90 0.06151
1092.00 0.06123
1092.10 0.0609
1092.20 0.06057
1092.30 0.06025
1092.40 0.05992
1092.50 0.05959
1092.60 0.05927
1092.70 0.05891
1092.80 0.05849
1092.90 0.05808
1093.00 0.05766
1093.10 0.05722
1093.20 0.05673
1093.30 0.05625
1093.40 0.05601
1093.50 0.05616
1093.60 0.05606
1093.70 0.05648
1093.80 0.05694
1093.90 0.05737
1094.00 0.05775
1094.10 0.05813
1094.20 0.05851
1094.30 0.05886
1094.40 0.05915
1094.50 0.05944
1094.60 0.05972
1094.70 0.06001
1094.80 0.0603
1094.90 0.06059
1095.00 0.06086
1095.10 0.06108
1095.20 0.0613
1095.30 0.06152
1095.40 0.06175
1095.50 0.06197
1095.60 0.06219
1095.70 0.06241
1095.80 0.06263
1095.90 0.06286
1096.00 0.06308
1096.10 0.0633
1096.20 0.06352
1096.30 0.06374
1096.40 0.06396
1096.50 0.06418
1096.60 0.06437
1096.70 0.06456
1096.80 0.06475
1096.90 0.06494
1097.00 0.06513
1097.10 0.0653
1097.20 0.06546
1097.30 0.06563
1097.40 0.0658
1097.50 0.06596
1097.60 0.06613
1097.70 0.0663
1097.80 0.06646
1097.90 0.06663
1098.00 0.0668
1098.10 0.06696
1098.20 0.06713
1098.30 0.0673
1098.40 0.06746
1098.50 0.06762
1098.60 0.06775
1098.70 0.06788
1098.80 0.06801
1098.90 0.06814
1099.00 0.06827
1099.10 0.0684
1099.20 0.06853
1099.30 0.06866
1099.40 0.06879
1099.50 0.06892
1099.60 0.06905
1099.70 0.06918
1099.80 0.06931
1099.90 0.06944
1100.00 0.06957
1100.10 0.0697
1100.20 0.06983
1100.30 0.06995
1100.40 0.07008
1100.50 0.0702
1100.60 0.0703
1100.70 0.0704
1100.80 0.07049
1100.90 0.07059
1101.00 0.07069
1101.10 0.07079
1101.20 0.07088
1101.30 0.07098
1101.40 0.07108
1101.50 0.07117
1101.60 0.07127
1101.70 0.07137
1101.80 0.07146
1101.90 0.07156
1102.00 0.07166
1102.10 0.07174
1102.20 0.07182
1102.30 0.07191
1102.40 0.07199
1102.50 0.07207
1102.60 0.07214
1102.70 0.07221
1102.80 0.07228
1102.90 0.07235
1103.00 0.07242
1103.10 0.07249
1103.20 0.07256
1103.30 0.07263
1103.40 0.0727
1103.50 0.07277
1103.60 0.07282
1103.70 0.07288
1103.80 0.07293
1103.90 0.07299
1104.00 0.07304
1104.10 0.0731
1104.20 0.07315
1104.30 0.07321
1104.40 0.07326
1104.50 0.07332
1104.60 0.07337
1104.70 0.07343
1104.80 0.07348
1104.90 0.07353
1105.00 0.07359
1105.10 0.07364
1105.20 0.0737
1105.30 0.07375
1105.40 0.07381
1105.50 0.07386
1105.60 0.07389
1105.70 0.07393
1105.80 0.07396
1105.90 0.074
1106.00 0.07403
1106.10 0.07407
1106.20 0.0741
1106.30 0.07413
1106.40 0.07417
1106.50 0.0742
1106.60 0.07424
1106.70 0.07427
1106.80 0.07431
1106.90 0.07434
1107.00 0.07438
1107.10 0.07441
1107.20 0.07443
1107.30 0.07446
1107.40 0.07449
1107.50 0.07451
1107.60 0.07453
1107.70 0.07455
1107.80 0.07458
1107.90 0.0746
1108.00 0.07462
1108.10 0.07464
1108.20 0.07466
1108.30 0.07468
1108.40 0.0747
1108.50 0.07472
1108.60 0.07474
1108.70 0.07476
1108.80 0.07478
1108.90 0.0748
1109.00 0.07482
1109.10 0.07484
1109.20 0.07486
1109.30 0.07488
1109.40 0.0749
1109.50 0.07492
1109.60 0.07493
1109.70 0.07493
1109.80 0.07494
1109.90 0.07495
1110.00 0.07496
1110.10 0.07497
1110.20 0.07498
1110.30 0.07498
1110.40 0.07499
1110.50 0.075
1110.60 0.07501
1110.70 0.07502
1110.80 0.07503
1110.90 0.07504
1111.00 0.07504
1111.10 0.07505
1111.20 0.07506
1111.30 0.07507
1111.40 0.07508
1111.50 0.07509
1111.60 0.07509
1111.70 0.0751
1111.80 0.07511
1111.90 0.07512
1112.00 0.07513
1112.10 0.07513
1112.20 0.07513
1112.30 0.07513
1112.40 0.07513
1112.50 0.07513
1112.60 0.07513
1112.70 0.07512
1112.80 0.07512
1112.90 0.07512
1113.00 0.07512
1113.10 0.07512
1113.20 0.07512
1113.30 0.07512
1113.40 0.07512
1113.50 0.07512
1113.60 0.07511
1113.70 0.07511
1113.80 0.0751
1113.90 0.07509
1114.00 0.07509
1114.10 0.07508
1114.20 0.07508
1114.30 0.07507
1114.40 0.07506
1114.50 0.07506
1114.60 0.07505
1114.70 0.07504
1114.80 0.07504
1114.90 0.07503
1115.00 0.07502
1115.10 0.07502
1115.20 0.07501
1115.30 0.07501
1115.40 0.075
1115.50 0.07499
1115.60 0.07499
1115.70 0.07498
1115.80 0.07497
1115.90 0.07497
1116.00 0.07496
1116.10 0.07496
1116.20 0.07495
1116.30 0.07494
1116.40 0.07494
1116.50 0.07493
1116.60 0.07492
1116.70 0.07492
1116.80 0.07491
1116.90 0.07491
1117.00 0.0749
1117.10 0.07489
1117.20 0.07487
1117.30 0.07486
1117.40 0.07484
1117.50 0.07483
1117.60 0.07482
1117.70 0.0748
1117.80 0.07479
1117.90 0.07478
1118.00 0.07476
1118.10 0.07475
1118.20 0.07473
1118.30 0.07472
1118.40 0.07471
1118.50 0.07469
1118.60 0.07468
1118.70 0.07467
1118.80 0.07465
1118.90 0.07464
1119.00 0.07463
1119.10 0.07461
1119.20 0.0746
1119.30 0.07458
1119.40 0.07457
1119.50 0.07456
1119.60 0.07454
1119.70 0.07453
1119.80 0.07452
1119.90 0.0745
1120.00 0.07449
1120.10 0.07448
1120.20 0.07446
1120.30 0.07445
1120.40 0.07443
1120.50 0.07442
1120.60 0.07441
1120.70 0.07439
1120.80 0.07438
1120.90 0.07437
1121.00 0.07435
1121.10 0.07434
1121.20 0.07433
1121.30 0.07431
1121.40 0.0743
1121.50 0.07429
1121.60 0.07427
1121.70 0.07426
1121.80 0.07424
1121.90 0.07423
1122.00 0.07422
1122.10 0.0742
1122.20 0.07418
1122.30 0.07416
1122.40 0.07415
1122.50 0.07413
1122.60 0.07411
1122.70 0.07409
1122.80 0.07407
1122.90 0.07406
1123.00 0.07404
1123.10 0.07402
1123.20 0.074
1123.30 0.07398
1123.40 0.07396
1123.50 0.07395
1123.60 0.07393
1123.70 0.07391
1123.80 0.07389
1123.90 0.07387
1124.00 0.07386
1124.10 0.07384
1124.20 0.07382
1124.30 0.0738
1124.40 0.07378
1124.50 0.07377
1124.60 0.07375
1124.70 0.07373
1124.80 0.07371
1124.90 0.0737
1125.00 0.07368
1125.10 0.07366
1125.20 0.07364
1125.30 0.07362
1125.40 0.07361
1125.50 0.07359
1125.60 0.07357
1125.70 0.07355
1125.80 0.07353
1125.90 0.07352
1126.00 0.0735
1126.10 0.07348
1126.20 0.07346
1126.30 0.07344
1126.40 0.07343
1126.50 0.07341
1126.60 0.07339
1126.70 0.07337
1126.80 0.07336
1126.90 0.07334
1127.00 0.07332
1127.10 0.0733
1127.20 0.07328
1127.30 0.07326
1127.40 0.07324
1127.50 0.07322
1127.60 0.0732
1127.70 0.07318
1127.80 0.07316
1127.90 0.07314
1128.00 0.07312
1128.10 0.0731
1128.20 0.07308
1128.30 0.07306
1128.40 0.07304
1128.50 0.07302
1128.60 0.073
1128.70 0.07297
1128.80 0.07295
1128.90 0.07293
1129.00 0.07291
1129.10 0.07289
1129.20 0.07287
1129.30 0.07285
1129.40 0.07283
1129.50 0.07281
1129.60 0.07279
1129.70 0.07277
1129.80 0.07275
1129.90 0.07273
1130.00 0.07271
1130.10 0.07269
1130.20 0.07267
1130.30 0.07265
1130.40 0.07263
1130.50 0.07261
1130.60 0.07259
1130.70 0.07257
1130.80 0.07255
1130.90 0.07253
1131.00 0.07251
1131.10 0.07249
1131.20 0.07247
1131.30 0.07245
1131.40 0.07243
1131.50 0.07241
1131.60 0.07239
1131.70 0.07237
1131.80 0.07235
1131.90 0.07233
1132.00 0.07231
1132.10 0.07229
1132.20 0.07227
1132.30 0.07225
1132.40 0.07223
1132.50 0.07221
1132.60 0.07218
1132.70 0.07216
1132.80 0.07214
1132.90 0.07212
1133.00 0.0721
1133.10 0.07208
1133.20 0.07206
1133.30 0.07204
1133.40 0.07202
1133.50 0.072
1133.60 0.07197
1133.70 0.07195
1133.80 0.07193
1133.90 0.07191
1134.00 0.07189
1134.10 0.07187
1134.20 0.07185
1134.30 0.07183
1134.40 0.07181
1134.50 0.07179
1134.60 0.07176
1134.70 0.07174
1134.80 0.07172
1134.90 0.0717
1135.00 0.07168
1135.10 0.07166
1135.20 0.07164
1135.30 0.07162
1135.40 0.0716
1135.50 0.07158
1135.60 0.07156
1135.70 0.07153
1135.80 0.07151
1135.90 0.07149
1136.00 0.07147
1136.10 0.07145
1136.20 0.07143
1136.30 0.07141
1136.40 0.07139
1136.50 0.07137
1136.60 0.07135
1136.70 0.07133
1136.80 0.07131
1136.90 0.07128
1137.00 0.07126
1137.10 0.07124
1137.20 0.07122
1137.30 0.0712
1137.40 0.07118
1137.50 0.07116
1137.60 0.07114
1137.70 0.07111
1137.80 0.07109
1137.90 0.07107
1138.00 0.07105
1138.10 0.07103
1138.20 0.07101
1138.30 0.07099
1138.40 0.07096
1138.50 0.07094
1138.60 0.07092
1138.70 0.0709
1138.80 0.07088
1138.90 0.07086
1139.00 0.07084
1139.10 0.07081
1139.20 0.07079
1139.30 0.07077
1139.40 0.07075
1139.50 0.07073
1139.60 0.07071
1139.70 0.07069
1139.80 0.07067
1139.90 0.07064
1140.00 0.07062
1140.10 0.0706
1140.20 0.07058
1140.30 0.07056
1140.40 0.07054
1140.50 0.07052
1140.60 0.0705
1140.70 0.07047
1140.80 0.07045
1140.90 0.07043
1141.00 0.07041
1141.10 0.07039
1141.20 0.07037
1141.30 0.07035
1141.40 0.07033
1141.50 0.0703
1141.60 0.07028
1141.70 0.07026
1141.80 0.07024
1141.90 0.07022
1142.00 0.0702
1142.10 0.07018
1142.20 0.07016
1142.30 0.07013
1142.40 0.07011
1142.50 0.07009
1142.60 0.07007
1142.70 0.07005
1142.80 0.07003
1142.90 0.07001
1143.00 0.06999
1143.10 0.06996
1143.20 0.06994
1143.30 0.06992
1143.40 0.0699
1143.50 0.06988
1143.60 0.06986
1143.70 0.06984
1143.80 0.06981
1143.90 0.06979
1144.00 0.06977
1144.10 0.06975
1144.20 0.06973
1144.30 0.06971
1144.40 0.06969
1144.50 0.06967
1144.60 0.06964
1144.70 0.06962
1144.80 0.0696
1144.90 0.06958
1145.00 0.06956
1145.10 0.06954
1145.20 0.06952
1145.30 0.0695
1145.40 0.06947
1145.50 0.06945
1145.60 0.06943
1145.70 0.06941
1145.80 0.06939
1145.90 0.06937
1146.00 0.06935
1146.10 0.06933
1146.20 0.06931
1146.30 0.06928
1146.40 0.06926
1146.50 0.06924
1146.60 0.06922
1146.70 0.0692
1146.80 0.06918
1146.90 0.06916
1147.00 0.06914
1147.10 0.06912
1147.20 0.06909
1147.30 0.06907
1147.40 0.06905
1147.50 0.06903
1147.60 0.06901
1147.70 0.06899
1147.80 0.06897
1147.90 0.06895
1148.00 0.06892
1148.10 0.0689
1148.20 0.06888
1148.30 0.06886
1148.40 0.06884
1148.50 0.06882
1148.60 0.0688
1148.70 0.06878
1148.80 0.06875
1148.90 0.06873
1149.00 0.06871
1149.10 0.06869
1149.20 0.06867
1149.30 0.06865
1149.40 0.06863
1149.50 0.06861
1149.60 0.06858
1149.70 0.06856
1149.80 0.06854
1149.90 0.06852
1150.00 0.0685
1150.10 0.06848
1150.20 0.06846
1150.30 0.06844
1150.40 0.06842
1150.50 0.06839
1150.60 0.06837
1150.70 0.06835
1150.80 0.06833
1150.90 0.06831
1151.00 0.06829
1151.10 0.06827
1151.20 0.06825
1151.30 0.06823
1151.40 0.0682
1151.50 0.06818
1151.60 0.06816
1151.70 0.06814
1151.80 0.06812
1151.90 0.0681
1152.00 0.06808
1152.10 0.06806
1152.20 0.06804
1152.30 0.06801
1152.40 0.06799
1152.50 0.06797
1152.60 0.06795
1152.70 0.06793
1152.80 0.06791
1152.90 0.06789
1153.00 0.06787
1153.10 0.06785
1153.20 0.06783
1153.30 0.0678
1153.40 0.06778
1153.50 0.06776
1153.60 0.06774
1153.70 0.06772
1153.80 0.0677
1153.90 0.06768
1154.00 0.06766
1154.10 0.06764
1154.20 0.06762
1154.30 0.0676
1154.40 0.06757
1154.50 0.06755
1154.60 0.06753
1154.70 0.06751
1154.80 0.06749
1154.90 0.06747
1155.00 0.06745
1155.10 0.06743
1155.20 0.06741
1155.30 0.06739
1155.40 0.06737
1155.50 0.06734
1155.60 0.06732
1155.70 0.0673
1155.80 0.06728
1155.90 0.06726
1156.00 0.06724
1156.10 0.06722
1156.20 0.0672
1156.30 0.06718
1156.40 0.06716
1156.50 0.06714
1156.60 0.06712
1156.70 0.0671
1156.80 0.06707
1156.90 0.06705
1157.00 0.06703
1157.10 0.06701
1157.20 0.06699
1157.30 0.06697
1157.40 0.06695
1157.50 0.06693
1157.60 0.06691
1157.70 0.06689
1157.80 0.06687
1157.90 0.06685
1158.00 0.06683
1158.10 0.0668
1158.20 0.06678
1158.30 0.06676
1158.40 0.06674
1158.50 0.06672
1158.60 0.0667
1158.70 0.06668
1158.80 0.06666
1158.90 0.06664
1159.00 0.06662
1159.10 0.0666
1159.20 0.06658
1159.30 0.06656
1159.40 0.06654
1159.50 0.06652
1159.60 0.06649
1159.70 0.06647
1159.80 0.06645
1159.90 0.06643
1160.00 0.06641
1160.10 0.06639
1160.20 0.06637
1160.30 0.06635
1160.40 0.06633
1160.50 0.06631
1160.60 0.06629
1160.70 0.06627
1160.80 0.06625
1160.90 0.06623
1161.00 0.06621
1161.10 0.06619
1161.20 0.06617
1161.30 0.06614
1161.40 0.06612
1161.50 0.0661
1161.60 0.06608
1161.70 0.06606
1161.80 0.06604
1161.90 0.06602
1162.00 0.066
1162.10 0.06598
1162.20 0.06596
1162.30 0.06594
1162.40 0.06592
1162.50 0.0659
1162.60 0.06588
1162.70 0.06586
1162.80 0.06584
1162.90 0.06582
1163.00 0.0658
1163.10 0.06578
1163.20 0.06576
1163.30 0.06574
1163.40 0.06572
1163.50 0.0657
1163.60 0.06567
1163.70 0.06565
1163.80 0.06563
1163.90 0.06561
1164.00 0.06559
1164.10 0.06557
1164.20 0.06555
1164.30 0.06553
1164.40 0.06551
1164.50 0.06549
1164.60 0.06547
1164.70 0.06545
1164.80 0.06543
1164.90 0.06541
1165.00 0.06539
1165.10 0.06537
1165.20 0.06535
1165.30 0.06533
1165.40 0.06531
1165.50 0.06529
1165.60 0.06527
1165.70 0.06525
1165.80 0.06523
1165.90 0.06521
1166.00 0.06519
1166.10 0.06517
1166.20 0.06515
1166.30 0.06513
1166.40 0.06511
1166.50 0.06509
1166.60 0.06507
1166.70 0.06505
1166.80 0.06503
1166.90 0.06501
1167.00 0.06499
1167.10 0.06497
1167.20 0.06495
1167.30 0.06493
1167.40 0.06491
1167.50 0.06489
1167.60 0.06487
1167.70 0.06485
1167.80 0.06483
1167.90 0.06481
1168.00 0.06479
1168.10 0.06477
1168.20 0.06474
1168.30 0.06472
1168.40 0.0647
1168.50 0.06468
1168.60 0.06466
1168.70 0.06464
1168.80 0.06462
1168.90 0.0646
1169.00 0.06458
1169.10 0.06456
1169.20 0.06454
1169.30 0.06452
1169.40 0.0645
1169.50 0.06448
1169.60 0.06446
1169.70 0.06444
1169.80 0.06442
1169.90 0.0644
1170.00 0.06438
1170.10 0.06436
1170.20 0.06434
1170.30 0.06432
1170.40 0.0643
1170.50 0.06428
1170.60 0.06426
1170.70 0.06424
1170.80 0.06422
1170.90 0.0642
1171.00 0.06418
1171.10 0.06416
1171.20 0.06414
1171.30 0.06412
1171.40 0.0641
1171.50 0.06408
1171.60 0.06406
1171.70 0.06404
1171.80 0.06402
1171.90 0.064
1172.00 0.06399
1172.10 0.06397
1172.20 0.06395
1172.30 0.06393
1172.40 0.06391
1172.50 0.06389
1172.60 0.06387
1172.70 0.06385
1172.80 0.06383
1172.90 0.06381
1173.00 0.06379
1173.10 0.06377
1173.20 0.06375
1173.30 0.06373
1173.40 0.06371
1173.50 0.06369
1173.60 0.06367
1173.70 0.06365
1173.80 0.06363
1173.90 0.06361
1174.00 0.06359
1174.10 0.06357
1174.20 0.06355
1174.30 0.06353
1174.40 0.06351
1174.50 0.06349
1174.60 0.06347
1174.70 0.06345
1174.80 0.06343
1174.90 0.06341
1175.00 0.06339
1175.10 0.06337
1175.20 0.06335
1175.30 0.06333
1175.40 0.06332
1175.50 0.0633
1175.60 0.06328
1175.70 0.06326
1175.80 0.06324
1175.90 0.06322
1176.00 0.0632
1176.10 0.06318
1176.20 0.06316
1176.30 0.06314
1176.40 0.06312
1176.50 0.0631
1176.60 0.06308
1176.70 0.06306
1176.80 0.06304
1176.90 0.06302
1177.00 0.063
1177.10 0.06298
1177.20 0.06296
1177.30 0.06294
1177.40 0.06292
1177.50 0.0629
1177.60 0.06289
1177.70 0.06287
1177.80 0.06285
1177.90 0.06283
1178.00 0.06281
1178.10 0.06279
1178.20 0.06277
1178.30 0.06275
1178.40 0.06273
1178.50 0.06271
1178.60 0.06269
1178.70 0.06267
1178.80 0.06265
1178.90 0.06263
1179.00 0.06261
1179.10 0.06259
1179.20 0.06257
1179.30 0.06255
1179.40 0.06254
1179.50 0.06252
1179.60 0.0625
1179.70 0.06248
1179.80 0.06246
1179.90 0.06244
1180.00 0.06242
1180.10 0.0624
1180.20 0.06238
1180.30 0.06236
1180.40 0.06234
1180.50 0.06232
1180.60 0.0623
1180.70 0.06228
1180.80 0.06226
1180.90 0.06225
1181.00 0.06223
1181.10 0.06221
1181.20 0.06219
1181.30 0.06217
1181.40 0.06215
1181.50 0.06213
1181.60 0.06211
1181.70 0.06209
1181.80 0.06207
1181.90 0.06205
1182.00 0.06203
1182.10 0.06201
1182.20 0.06199
1182.30 0.06198
1182.40 0.06196
1182.50 0.06194
1182.60 0.06192
1182.70 0.0619
1182.80 0.06188
1182.90 0.06186
1183.00 0.06184
1183.10 0.06182
1183.20 0.0618
1183.30 0.06178
1183.40 0.06177
1183.50 0.06175
1183.60 0.06173
1183.70 0.06171
1183.80 0.06169
1183.90 0.06167
1184.00 0.06165
1184.10 0.06163
1184.20 0.06161
1184.30 0.06159
1184.40 0.06158
1184.50 0.06156
1184.60 0.06154
1184.70 0.06152
1184.80 0.0615
1184.90 0.06148
1185.00 0.06146
1185.10 0.06144
1185.20 0.06142
1185.30 0.0614
1185.40 0.06139
1185.50 0.06137
1185.60 0.06135
1185.70 0.06133
1185.80 0.06131
1185.90 0.06129
1186.00 0.06127
1186.10 0.06125
1186.20 0.06123
1186.30 0.06121
1186.40 0.0612
1186.50 0.06118
1186.60 0.06116
1186.70 0.06114
1186.80 0.06112
1186.90 0.0611
1187.00 0.06108
1187.10 0.06106
1187.20 0.06104
1187.30 0.06103
1187.40 0.06101
1187.50 0.06099
1187.60 0.06097
1187.70 0.06095
1187.80 0.06093
1187.90 0.06091
1188.00 0.06089
1188.10 0.06088
1188.20 0.06086
1188.30 0.06084
1188.40 0.06082
1188.50 0.0608
1188.60 0.06078
1188.70 0.06076
1188.80 0.06074
1188.90 0.06072
1189.00 0.06071
1189.10 0.06069
1189.20 0.06067
1189.30 0.06065
1189.40 0.06063
1189.50 0.06061
1189.60 0.06059
1189.70 0.06057
1189.80 0.06056
1189.90 0.06054
1190.00 0.06052
1190.10 0.0605
1190.20 0.06048
1190.30 0.06046
1190.40 0.06044
1190.50 0.06043
1190.60 0.06041
1190.70 0.06039
1190.80 0.06037
1190.90 0.06035
1191.00 0.06033
1191.10 0.06031
1191.20 0.06029
1191.30 0.06028
1191.40 0.06026
1191.50 0.06024
1191.60 0.06022
1191.70 0.0602
1191.80 0.06018
1191.90 0.06016
1192.00 0.06015
1192.10 0.06013
1192.20 0.06011
1192.30 0.06009
1192.40 0.06007
1192.50 0.06005
1192.60 0.06003
1192.70 0.06002
1192.80 0.06
1192.90 0.05998
1193.00 0.05996
1193.10 0.05994
1193.20 0.05992
1193.30 0.05991
1193.40 0.05989
1193.50 0.05987
1193.60 0.05985
1193.70 0.05983
1193.80 0.05981
1193.90 0.05979
1194.00 0.05978
1194.10 0.05976
1194.20 0.05974
1194.30 0.05972
1194.40 0.0597
1194.50 0.05968
1194.60 0.05967
1194.70 0.05965
1194.80 0.05963
1194.90 0.05961
1195.00 0.05959
1195.10 0.05957
1195.20 0.05956
1195.30 0.05954
1195.40 0.05952
1195.50 0.0595
1195.60 0.05948
1195.70 0.05946
1195.80 0.05945
1195.90 0.05943
1196.00 0.05941
1196.10 0.05939
1196.20 0.05937
1196.30 0.05935
1196.40 0.05934
1196.50 0.05932
1196.60 0.0593
1196.70 0.05928
1196.80 0.05926
1196.90 0.05924
1197.00 0.05923
1197.10 0.05921
1197.20 0.05919
1197.30 0.05917
1197.40 0.05915
1197.50 0.05913
1197.60 0.05912
1197.70 0.0591
1197.80 0.05908
1197.90 0.05906
1198.00 0.05904
1198.10 0.05903
1198.20 0.05901
1198.30 0.05899
1198.40 0.05897
1198.50 0.05895
1198.60 0.05893
1198.70 0.05892
1198.80 0.0589
1198.90 0.05888
1199.00 0.05886
1199.10 0.05884
1199.20 0.05883
1199.30 0.05881
1199.40 0.05879
1199.50 0.05877
1199.60 0.05875
1199.70 0.05873
1199.80 0.05872
1199.90 0.0587
1200.00 0
