# Version 2.1 - nm, norm@500 to 1, cut digits, bergeron_90000_90.dat_90000
# Wavelength(nm)  Flambda(ergs/cm^s/s/nm)
300.00 6.784
300.10 6.776
300.20 6.767
300.30 6.759
300.40 6.75
300.50 6.742
300.60 6.733
300.70 6.725
300.80 6.717
300.90 6.708
301.00 6.7
301.10 6.692
301.20 6.683
301.30 6.675
301.40 6.667
301.50 6.658
301.60 6.65
301.70 6.642
301.80 6.633
301.90 6.625
302.00 6.617
302.10 6.609
302.20 6.6
302.30 6.592
302.40 6.584
302.50 6.576
302.60 6.568
302.70 6.56
302.80 6.552
302.90 6.543
303.00 6.535
303.10 6.527
303.20 6.519
303.30 6.511
303.40 6.503
303.50 6.495
303.60 6.487
303.70 6.479
303.80 6.471
303.90 6.463
304.00 6.455
304.10 6.447
304.20 6.439
304.30 6.431
304.40 6.423
304.50 6.415
304.60 6.407
304.70 6.399
304.80 6.391
304.90 6.384
305.00 6.376
305.10 6.368
305.20 6.36
305.30 6.352
305.40 6.344
305.50 6.337
305.60 6.329
305.70 6.321
305.80 6.313
305.90 6.306
306.00 6.298
306.10 6.29
306.20 6.282
306.30 6.275
306.40 6.267
306.50 6.259
306.60 6.252
306.70 6.244
306.80 6.236
306.90 6.229
307.00 6.221
307.10 6.213
307.20 6.206
307.30 6.198
307.40 6.191
307.50 6.183
307.60 6.175
307.70 6.168
307.80 6.16
307.90 6.153
308.00 6.145
308.10 6.138
308.20 6.13
308.30 6.123
308.40 6.115
308.50 6.108
308.60 6.101
308.70 6.093
308.80 6.086
308.90 6.078
309.00 6.071
309.10 6.064
309.20 6.056
309.30 6.049
309.40 6.042
309.50 6.034
309.60 6.027
309.70 6.02
309.80 6.012
309.90 6.005
310.00 5.998
310.10 5.99
310.20 5.983
310.30 5.976
310.40 5.969
310.50 5.961
310.60 5.954
310.70 5.947
310.80 5.94
310.90 5.933
311.00 5.925
311.10 5.918
311.20 5.911
311.30 5.904
311.40 5.897
311.50 5.89
311.60 5.883
311.70 5.876
311.80 5.868
311.90 5.861
312.00 5.854
312.10 5.847
312.20 5.84
312.30 5.833
312.40 5.826
312.50 5.819
312.60 5.812
312.70 5.805
312.80 5.798
312.90 5.791
313.00 5.784
313.10 5.777
313.20 5.77
313.30 5.763
313.40 5.756
313.50 5.75
313.60 5.743
313.70 5.736
313.80 5.729
313.90 5.722
314.00 5.715
314.10 5.708
314.20 5.702
314.30 5.695
314.40 5.688
314.50 5.681
314.60 5.674
314.70 5.668
314.80 5.661
314.90 5.654
315.00 5.647
315.10 5.64
315.20 5.634
315.30 5.627
315.40 5.62
315.50 5.614
315.60 5.607
315.70 5.6
315.80 5.594
315.90 5.587
316.00 5.58
316.10 5.574
316.20 5.567
316.30 5.56
316.40 5.554
316.50 5.547
316.60 5.541
316.70 5.534
316.80 5.527
316.90 5.521
317.00 5.514
317.10 5.508
317.20 5.501
317.30 5.495
317.40 5.488
317.50 5.482
317.60 5.475
317.70 5.469
317.80 5.462
317.90 5.456
318.00 5.449
318.10 5.443
318.20 5.436
318.30 5.43
318.40 5.424
318.50 5.417
318.60 5.411
318.70 5.404
318.80 5.398
318.90 5.392
319.00 5.385
319.10 5.379
319.20 5.373
319.30 5.366
319.40 5.36
319.50 5.354
319.60 5.347
319.70 5.341
319.80 5.335
319.90 5.328
320.00 5.322
320.10 5.316
320.20 5.31
320.30 5.303
320.40 5.297
320.50 5.291
320.60 5.285
320.70 5.279
320.80 5.272
320.90 5.266
321.00 5.26
321.10 5.254
321.20 5.248
321.30 5.241
321.40 5.235
321.50 5.229
321.60 5.223
321.70 5.217
321.80 5.211
321.90 5.205
322.00 5.199
322.10 5.193
322.20 5.187
322.30 5.18
322.40 5.174
322.50 5.168
322.60 5.162
322.70 5.156
322.80 5.15
322.90 5.144
323.00 5.138
323.10 5.132
323.20 5.126
323.30 5.12
323.40 5.114
323.50 5.108
323.60 5.103
323.70 5.097
323.80 5.091
323.90 5.085
324.00 5.079
324.10 5.073
324.20 5.067
324.30 5.061
324.40 5.055
324.50 5.049
324.60 5.044
324.70 5.038
324.80 5.032
324.90 5.026
325.00 5.02
325.10 5.014
325.20 5.009
325.30 5.003
325.40 4.997
325.50 4.991
325.60 4.985
325.70 4.98
325.80 4.974
325.90 4.968
326.00 4.962
326.10 4.957
326.20 4.951
326.30 4.945
326.40 4.94
326.50 4.934
326.60 4.928
326.70 4.922
326.80 4.917
326.90 4.911
327.00 4.905
327.10 4.9
327.20 4.894
327.30 4.888
327.40 4.883
327.50 4.877
327.60 4.872
327.70 4.866
327.80 4.86
327.90 4.855
328.00 4.849
328.10 4.844
328.20 4.838
328.30 4.833
328.40 4.827
328.50 4.822
328.60 4.816
328.70 4.81
328.80 4.805
328.90 4.799
329.00 4.794
329.10 4.788
329.20 4.783
329.30 4.777
329.40 4.772
329.50 4.767
329.60 4.761
329.70 4.756
329.80 4.75
329.90 4.745
330.00 4.739
330.10 4.734
330.20 4.729
330.30 4.723
330.40 4.718
330.50 4.712
330.60 4.707
330.70 4.702
330.80 4.696
330.90 4.691
331.00 4.686
331.10 4.68
331.20 4.675
331.30 4.67
331.40 4.664
331.50 4.659
331.60 4.654
331.70 4.648
331.80 4.643
331.90 4.638
332.00 4.633
332.10 4.627
332.20 4.622
332.30 4.617
332.40 4.612
332.50 4.606
332.60 4.601
332.70 4.596
332.80 4.591
332.90 4.586
333.00 4.58
333.10 4.575
333.20 4.57
333.30 4.565
333.40 4.56
333.50 4.555
333.60 4.549
333.70 4.544
333.80 4.539
333.90 4.534
334.00 4.529
334.10 4.524
334.20 4.519
334.30 4.514
334.40 4.508
334.50 4.503
334.60 4.498
334.70 4.493
334.80 4.488
334.90 4.483
335.00 4.478
335.10 4.473
335.20 4.468
335.30 4.463
335.40 4.458
335.50 4.453
335.60 4.448
335.70 4.443
335.80 4.438
335.90 4.433
336.00 4.428
336.10 4.423
336.20 4.418
336.30 4.413
336.40 4.408
336.50 4.403
336.60 4.398
336.70 4.393
336.80 4.388
336.90 4.384
337.00 4.379
337.10 4.374
337.20 4.369
337.30 4.364
337.40 4.359
337.50 4.354
337.60 4.349
337.70 4.344
337.80 4.34
337.90 4.335
338.00 4.33
338.10 4.325
338.20 4.32
338.30 4.315
338.40 4.311
338.50 4.306
338.60 4.301
338.70 4.296
338.80 4.291
338.90 4.287
339.00 4.282
339.10 4.277
339.20 4.272
339.30 4.268
339.40 4.263
339.50 4.258
339.60 4.253
339.70 4.249
339.80 4.244
339.90 4.239
340.00 4.234
340.10 4.23
340.20 4.225
340.30 4.22
340.40 4.216
340.50 4.211
340.60 4.206
340.70 4.202
340.80 4.197
340.90 4.192
341.00 4.188
341.10 4.183
341.20 4.179
341.30 4.174
341.40 4.169
341.50 4.165
341.60 4.16
341.70 4.155
341.80 4.151
341.90 4.146
342.00 4.142
342.10 4.137
342.20 4.133
342.30 4.128
342.40 4.124
342.50 4.119
342.60 4.114
342.70 4.11
342.80 4.105
342.90 4.101
343.00 4.096
343.10 4.092
343.20 4.087
343.30 4.083
343.40 4.078
343.50 4.074
343.60 4.069
343.70 4.065
343.80 4.06
343.90 4.056
344.00 4.051
344.10 4.047
344.20 4.043
344.30 4.038
344.40 4.034
344.50 4.029
344.60 4.025
344.70 4.021
344.80 4.016
344.90 4.012
345.00 4.007
345.10 4.003
345.20 3.999
345.30 3.994
345.40 3.99
345.50 3.985
345.60 3.981
345.70 3.977
345.80 3.972
345.90 3.968
346.00 3.964
346.10 3.959
346.20 3.955
346.30 3.951
346.40 3.946
346.50 3.942
346.60 3.938
346.70 3.934
346.80 3.929
346.90 3.925
347.00 3.921
347.10 3.917
347.20 3.912
347.30 3.908
347.40 3.904
347.50 3.899
347.60 3.895
347.70 3.891
347.80 3.887
347.90 3.883
348.00 3.878
348.10 3.874
348.20 3.87
348.30 3.866
348.40 3.862
348.50 3.857
348.60 3.853
348.70 3.849
348.80 3.845
348.90 3.841
349.00 3.837
349.10 3.832
349.20 3.828
349.30 3.824
349.40 3.82
349.50 3.816
349.60 3.812
349.70 3.808
349.80 3.803
349.90 3.799
350.00 3.795
350.10 3.791
350.20 3.787
350.30 3.783
350.40 3.779
350.50 3.775
350.60 3.771
350.70 3.767
350.80 3.763
350.90 3.759
351.00 3.755
351.10 3.751
351.20 3.746
351.30 3.742
351.40 3.738
351.50 3.734
351.60 3.73
351.70 3.726
351.80 3.722
351.90 3.718
352.00 3.714
352.10 3.71
352.20 3.706
352.30 3.702
352.40 3.698
352.50 3.694
352.60 3.691
352.70 3.687
352.80 3.683
352.90 3.679
353.00 3.675
353.10 3.671
353.20 3.667
353.30 3.663
353.40 3.659
353.50 3.655
353.60 3.651
353.70 3.647
353.80 3.643
353.90 3.639
354.00 3.636
354.10 3.632
354.20 3.628
354.30 3.624
354.40 3.62
354.50 3.616
354.60 3.612
354.70 3.609
354.80 3.605
354.90 3.601
355.00 3.597
355.10 3.593
355.20 3.589
355.30 3.586
355.40 3.582
355.50 3.578
355.60 3.574
355.70 3.57
355.80 3.567
355.90 3.563
356.00 3.559
356.10 3.555
356.20 3.551
356.30 3.548
356.40 3.544
356.50 3.54
356.60 3.536
356.70 3.533
356.80 3.529
356.90 3.525
357.00 3.521
357.10 3.518
357.20 3.514
357.30 3.51
357.40 3.507
357.50 3.503
357.60 3.499
357.70 3.495
357.80 3.492
357.90 3.488
358.00 3.484
358.10 3.481
358.20 3.477
358.30 3.473
358.40 3.47
358.50 3.466
358.60 3.462
358.70 3.459
358.80 3.455
358.90 3.451
359.00 3.448
359.10 3.444
359.20 3.44
359.30 3.437
359.40 3.433
359.50 3.43
359.60 3.426
359.70 3.422
359.80 3.419
359.90 3.415
360.00 3.412
360.10 3.408
360.20 3.404
360.30 3.401
360.40 3.397
360.50 3.394
360.60 3.39
360.70 3.387
360.80 3.383
360.90 3.38
361.00 3.376
361.10 3.372
361.20 3.369
361.30 3.365
361.40 3.362
361.50 3.358
361.60 3.355
361.70 3.351
361.80 3.348
361.90 3.344
362.00 3.341
362.10 3.337
362.20 3.334
362.30 3.33
362.40 3.327
362.50 3.323
362.60 3.32
362.70 3.316
362.80 3.313
362.90 3.31
363.00 3.306
363.10 3.303
363.20 3.299
363.30 3.296
363.40 3.292
363.50 3.289
363.60 3.285
363.70 3.282
363.80 3.279
363.90 3.275
364.00 3.272
364.10 3.268
364.20 3.265
364.30 3.262
364.40 3.258
364.50 3.255
364.60 3.251
364.70 3.248
364.80 3.245
364.90 3.241
365.00 3.238
365.10 3.235
365.20 3.231
365.30 3.228
365.40 3.225
365.50 3.221
365.60 3.218
365.70 3.215
365.80 3.211
365.90 3.208
366.00 3.205
366.10 3.201
366.20 3.198
366.30 3.195
366.40 3.191
366.50 3.188
366.60 3.185
366.70 3.181
366.80 3.178
366.90 3.175
367.00 3.172
367.10 3.168
367.20 3.165
367.30 3.162
367.40 3.158
367.50 3.155
367.60 3.152
367.70 3.149
367.80 3.145
367.90 3.142
368.00 3.139
368.10 3.135
368.20 3.132
368.30 3.129
368.40 3.126
368.50 3.122
368.60 3.119
368.70 3.116
368.80 3.112
368.90 3.109
369.00 3.106
369.10 3.103
369.20 3.099
369.30 3.096
369.40 3.093
369.50 3.09
369.60 3.086
369.70 3.083
369.80 3.08
369.90 3.077
370.00 3.073
370.10 3.07
370.20 3.067
370.30 3.064
370.40 3.061
370.50 3.057
370.60 3.054
370.70 3.051
370.80 3.048
370.90 3.045
371.00 3.041
371.10 3.038
371.20 3.035
371.30 3.032
371.40 3.029
371.50 3.026
371.60 3.022
371.70 3.019
371.80 3.016
371.90 3.013
372.00 3.01
372.10 3.007
372.20 3.004
372.30 3.001
372.40 2.998
372.50 2.995
372.60 2.992
372.70 2.989
372.80 2.986
372.90 2.983
373.00 2.98
373.10 2.977
373.20 2.974
373.30 2.971
373.40 2.968
373.50 2.965
373.60 2.962
373.70 2.959
373.80 2.956
373.90 2.953
374.00 2.95
374.10 2.947
374.20 2.944
374.30 2.941
374.40 2.938
374.50 2.934
374.60 2.931
374.70 2.928
374.80 2.925
374.90 2.922
375.00 2.919
375.10 2.916
375.20 2.913
375.30 2.91
375.40 2.907
375.50 2.904
375.60 2.901
375.70 2.898
375.80 2.895
375.90 2.892
376.00 2.889
376.10 2.886
376.20 2.883
376.30 2.88
376.40 2.877
376.50 2.874
376.60 2.871
376.70 2.868
376.80 2.866
376.90 2.863
377.00 2.86
377.10 2.857
377.20 2.854
377.30 2.851
377.40 2.848
377.50 2.845
377.60 2.842
377.70 2.839
377.80 2.837
377.90 2.834
378.00 2.831
378.10 2.828
378.20 2.825
378.30 2.822
378.40 2.819
378.50 2.817
378.60 2.814
378.70 2.811
378.80 2.808
378.90 2.805
379.00 2.802
379.10 2.799
379.20 2.797
379.30 2.794
379.40 2.791
379.50 2.788
379.60 2.785
379.70 2.783
379.80 2.78
379.90 2.777
380.00 2.774
380.10 2.771
380.20 2.769
380.30 2.766
380.40 2.763
380.50 2.76
380.60 2.758
380.70 2.755
380.80 2.752
380.90 2.749
381.00 2.747
381.10 2.744
381.20 2.741
381.30 2.738
381.40 2.736
381.50 2.733
381.60 2.73
381.70 2.728
381.80 2.725
381.90 2.722
382.00 2.719
382.10 2.717
382.20 2.714
382.30 2.711
382.40 2.709
382.50 2.706
382.60 2.703
382.70 2.701
382.80 2.698
382.90 2.695
383.00 2.693
383.10 2.69
383.20 2.687
383.30 2.685
383.40 2.682
383.50 2.68
383.60 2.677
383.70 2.674
383.80 2.672
383.90 2.669
384.00 2.666
384.10 2.664
384.20 2.661
384.30 2.659
384.40 2.656
384.50 2.654
384.60 2.651
384.70 2.648
384.80 2.646
384.90 2.643
385.00 2.641
385.10 2.638
385.20 2.636
385.30 2.633
385.40 2.631
385.50 2.628
385.60 2.626
385.70 2.623
385.80 2.62
385.90 2.618
386.00 2.615
386.10 2.613
386.20 2.61
386.30 2.608
386.40 2.605
386.50 2.603
386.60 2.6
386.70 2.598
386.80 2.595
386.90 2.593
387.00 2.59
387.10 2.588
387.20 2.585
387.30 2.583
387.40 2.58
387.50 2.578
387.60 2.575
387.70 2.573
387.80 2.57
387.90 2.568
388.00 2.565
388.10 2.563
388.20 2.561
388.30 2.558
388.40 2.556
388.50 2.553
388.60 2.551
388.70 2.548
388.80 2.546
388.90 2.544
389.00 2.541
389.10 2.539
389.20 2.537
389.30 2.534
389.40 2.532
389.50 2.53
389.60 2.527
389.70 2.525
389.80 2.523
389.90 2.52
390.00 2.518
390.10 2.516
390.20 2.513
390.30 2.511
390.40 2.509
390.50 2.506
390.60 2.504
390.70 2.502
390.80 2.5
390.90 2.497
391.00 2.495
391.10 2.493
391.20 2.49
391.30 2.488
391.40 2.486
391.50 2.483
391.60 2.481
391.70 2.479
391.80 2.477
391.90 2.474
392.00 2.472
392.10 2.47
392.20 2.467
392.30 2.465
392.40 2.463
392.50 2.46
392.60 2.458
392.70 2.455
392.80 2.453
392.90 2.451
393.00 2.448
393.10 2.446
393.20 2.444
393.30 2.441
393.40 2.439
393.50 2.436
393.60 2.434
393.70 2.432
393.80 2.429
393.90 2.427
394.00 2.424
394.10 2.422
394.20 2.419
394.30 2.417
394.40 2.414
394.50 2.412
394.60 2.41
394.70 2.407
394.80 2.405
394.90 2.402
395.00 2.4
395.10 2.397
395.20 2.395
395.30 2.392
395.40 2.39
395.50 2.387
395.60 2.385
395.70 2.382
395.80 2.38
395.90 2.377
396.00 2.375
396.10 2.373
396.20 2.37
396.30 2.368
396.40 2.365
396.50 2.363
396.60 2.361
396.70 2.358
396.80 2.356
396.90 2.354
397.00 2.351
397.10 2.35
397.20 2.348
397.30 2.346
397.40 2.344
397.50 2.342
397.60 2.34
397.70 2.338
397.80 2.337
397.90 2.335
398.00 2.333
398.10 2.331
398.20 2.33
398.30 2.328
398.40 2.326
398.50 2.325
398.60 2.323
398.70 2.321
398.80 2.319
398.90 2.318
399.00 2.316
399.10 2.314
399.20 2.312
399.30 2.311
399.40 2.309
399.50 2.307
399.60 2.305
399.70 2.304
399.80 2.302
399.90 2.3
400.00 2.298
400.10 2.296
400.20 2.294
400.30 2.293
400.40 2.291
400.50 2.289
400.60 2.287
400.70 2.285
400.80 2.283
400.90 2.281
401.00 2.279
401.10 2.277
401.20 2.276
401.30 2.274
401.40 2.272
401.50 2.27
401.60 2.268
401.70 2.266
401.80 2.264
401.90 2.262
402.00 2.259
402.10 2.257
402.20 2.255
402.30 2.253
402.40 2.251
402.50 2.249
402.60 2.247
402.70 2.245
402.80 2.243
402.90 2.24
403.00 2.238
403.10 2.236
403.20 2.234
403.30 2.232
403.40 2.229
403.50 2.227
403.60 2.225
403.70 2.223
403.80 2.22
403.90 2.218
404.00 2.216
404.10 2.213
404.20 2.211
404.30 2.208
404.40 2.206
404.50 2.204
404.60 2.201
404.70 2.199
404.80 2.196
404.90 2.194
405.00 2.191
405.10 2.189
405.20 2.186
405.30 2.184
405.40 2.181
405.50 2.178
405.60 2.176
405.70 2.173
405.80 2.17
405.90 2.168
406.00 2.165
406.10 2.162
406.20 2.16
406.30 2.157
406.40 2.154
406.50 2.151
406.60 2.149
406.70 2.146
406.80 2.143
406.90 2.14
407.00 2.137
407.10 2.134
407.20 2.131
407.30 2.128
407.40 2.125
407.50 2.122
407.60 2.12
407.70 2.117
407.80 2.114
407.90 2.111
408.00 2.108
408.10 2.105
408.20 2.102
408.30 2.098
408.40 2.095
408.50 2.092
408.60 2.089
408.70 2.086
408.80 2.084
408.90 2.081
409.00 2.078
409.10 2.075
409.20 2.072
409.30 2.069
409.40 2.067
409.50 2.064
409.60 2.062
409.70 2.06
409.80 2.058
409.90 2.057
410.00 2.055
410.10 2.054
410.20 2.053
410.30 2.05
410.40 2.048
410.50 2.046
410.60 2.044
410.70 2.042
410.80 2.041
410.90 2.04
411.00 2.039
411.10 2.038
411.20 2.037
411.30 2.036
411.40 2.035
411.50 2.035
411.60 2.034
411.70 2.033
411.80 2.033
411.90 2.032
412.00 2.031
412.10 2.031
412.20 2.03
412.30 2.03
412.40 2.029
412.50 2.028
412.60 2.028
412.70 2.027
412.80 2.026
412.90 2.026
413.00 2.025
413.10 2.024
413.20 2.023
413.30 2.023
413.40 2.022
413.50 2.021
413.60 2.02
413.70 2.02
413.80 2.019
413.90 2.018
414.00 2.017
414.10 2.016
414.20 2.015
414.30 2.014
414.40 2.013
414.50 2.012
414.60 2.011
414.70 2.01
414.80 2.009
414.90 2.008
415.00 2.007
415.10 2.006
415.20 2.005
415.30 2.004
415.40 2.003
415.50 2.002
415.60 2
415.70 1.999
415.80 1.998
415.90 1.997
416.00 1.996
416.10 1.994
416.20 1.993
416.30 1.992
416.40 1.991
416.50 1.989
416.60 1.988
416.70 1.987
416.80 1.985
416.90 1.984
417.00 1.983
417.10 1.981
417.20 1.98
417.30 1.979
417.40 1.977
417.50 1.976
417.60 1.974
417.70 1.973
417.80 1.972
417.90 1.97
418.00 1.969
418.10 1.967
418.20 1.966
418.30 1.964
418.40 1.963
418.50 1.961
418.60 1.96
418.70 1.958
418.80 1.957
418.90 1.955
419.00 1.954
419.10 1.952
419.20 1.95
419.30 1.949
419.40 1.947
419.50 1.946
419.60 1.944
419.70 1.942
419.80 1.941
419.90 1.939
420.00 1.938
420.10 1.936
420.20 1.934
420.30 1.933
420.40 1.931
420.50 1.929
420.60 1.928
420.70 1.926
420.80 1.924
420.90 1.923
421.00 1.921
421.10 1.919
421.20 1.918
421.30 1.916
421.40 1.914
421.50 1.912
421.60 1.911
421.70 1.909
421.80 1.907
421.90 1.905
422.00 1.904
422.10 1.902
422.20 1.9
422.30 1.898
422.40 1.897
422.50 1.895
422.60 1.893
422.70 1.891
422.80 1.889
422.90 1.888
423.00 1.886
423.10 1.884
423.20 1.882
423.30 1.88
423.40 1.878
423.50 1.876
423.60 1.875
423.70 1.873
423.80 1.871
423.90 1.869
424.00 1.867
424.10 1.865
424.20 1.863
424.30 1.861
424.40 1.859
424.50 1.857
424.60 1.855
424.70 1.853
424.80 1.851
424.90 1.849
425.00 1.847
425.10 1.845
425.20 1.843
425.30 1.841
425.40 1.839
425.50 1.837
425.60 1.835
425.70 1.833
425.80 1.831
425.90 1.829
426.00 1.827
426.10 1.824
426.20 1.822
426.30 1.82
426.40 1.818
426.50 1.816
426.60 1.814
426.70 1.811
426.80 1.809
426.90 1.807
427.00 1.804
427.10 1.802
427.20 1.8
427.30 1.798
427.40 1.795
427.50 1.793
427.60 1.79
427.70 1.788
427.80 1.786
427.90 1.783
428.00 1.781
428.10 1.778
428.20 1.776
428.30 1.773
428.40 1.77
428.50 1.768
428.60 1.765
428.70 1.763
428.80 1.76
428.90 1.757
429.00 1.754
429.10 1.752
429.20 1.749
429.30 1.746
429.40 1.743
429.50 1.74
429.60 1.737
429.70 1.735
429.80 1.732
429.90 1.729
430.00 1.726
430.10 1.722
430.20 1.719
430.30 1.716
430.40 1.713
430.50 1.71
430.60 1.707
430.70 1.703
430.80 1.7
430.90 1.697
431.00 1.693
431.10 1.69
431.20 1.687
431.30 1.683
431.40 1.68
431.50 1.676
431.60 1.673
431.70 1.669
431.80 1.666
431.90 1.662
432.00 1.658
432.10 1.655
432.20 1.651
432.30 1.647
432.40 1.644
432.50 1.64
432.60 1.636
432.70 1.633
432.80 1.629
432.90 1.625
433.00 1.621
433.10 1.618
433.20 1.614
433.30 1.61
433.40 1.606
433.50 1.602
433.60 1.598
433.70 1.593
433.80 1.588
433.90 1.583
434.00 1.58
434.10 1.578
434.20 1.58
434.30 1.582
434.40 1.584
434.50 1.586
434.60 1.588
434.70 1.589
434.80 1.59
434.90 1.591
435.00 1.592
435.10 1.593
435.20 1.594
435.30 1.595
435.40 1.596
435.50 1.597
435.60 1.598
435.70 1.599
435.80 1.6
435.90 1.601
436.00 1.602
436.10 1.603
436.20 1.603
436.30 1.604
436.40 1.605
436.50 1.605
436.60 1.606
436.70 1.607
436.80 1.607
436.90 1.608
437.00 1.608
437.10 1.609
437.20 1.609
437.30 1.61
437.40 1.61
437.50 1.61
437.60 1.611
437.70 1.611
437.80 1.611
437.90 1.611
438.00 1.611
438.10 1.612
438.20 1.612
438.30 1.612
438.40 1.612
438.50 1.612
438.60 1.611
438.70 1.611
438.80 1.611
438.90 1.611
439.00 1.611
439.10 1.611
439.20 1.61
439.30 1.61
439.40 1.61
439.50 1.609
439.60 1.609
439.70 1.609
439.80 1.608
439.90 1.608
440.00 1.607
440.10 1.607
440.20 1.606
440.30 1.606
440.40 1.605
440.50 1.604
440.60 1.604
440.70 1.603
440.80 1.602
440.90 1.602
441.00 1.601
441.10 1.6
441.20 1.6
441.30 1.599
441.40 1.598
441.50 1.597
441.60 1.597
441.70 1.596
441.80 1.595
441.90 1.594
442.00 1.593
442.10 1.592
442.20 1.591
442.30 1.591
442.40 1.59
442.50 1.589
442.60 1.588
442.70 1.587
442.80 1.586
442.90 1.585
443.00 1.584
443.10 1.583
443.20 1.582
443.30 1.581
443.40 1.58
443.50 1.579
443.60 1.578
443.70 1.577
443.80 1.576
443.90 1.575
444.00 1.574
444.10 1.573
444.20 1.572
444.30 1.57
444.40 1.569
444.50 1.568
444.60 1.567
444.70 1.566
444.80 1.565
444.90 1.564
445.00 1.563
445.10 1.562
445.20 1.561
445.30 1.559
445.40 1.558
445.50 1.557
445.60 1.556
445.70 1.555
445.80 1.554
445.90 1.553
446.00 1.551
446.10 1.55
446.20 1.549
446.30 1.548
446.40 1.547
446.50 1.546
446.60 1.544
446.70 1.543
446.80 1.542
446.90 1.541
447.00 1.54
447.10 1.538
447.20 1.537
447.30 1.536
447.40 1.535
447.50 1.534
447.60 1.532
447.70 1.531
447.80 1.53
447.90 1.529
448.00 1.528
448.10 1.526
448.20 1.525
448.30 1.524
448.40 1.523
448.50 1.522
448.60 1.52
448.70 1.519
448.80 1.518
448.90 1.517
449.00 1.516
449.10 1.514
449.20 1.513
449.30 1.512
449.40 1.511
449.50 1.509
449.60 1.508
449.70 1.507
449.80 1.506
449.90 1.505
450.00 1.503
450.10 1.502
450.20 1.501
450.30 1.5
450.40 1.498
450.50 1.497
450.60 1.496
450.70 1.495
450.80 1.494
450.90 1.492
451.00 1.491
451.10 1.49
451.20 1.489
451.30 1.488
451.40 1.486
451.50 1.485
451.60 1.484
451.70 1.483
451.80 1.481
451.90 1.48
452.00 1.479
452.10 1.478
452.20 1.477
452.30 1.475
452.40 1.474
452.50 1.473
452.60 1.472
452.70 1.47
452.80 1.469
452.90 1.468
453.00 1.467
453.10 1.466
453.20 1.464
453.30 1.463
453.40 1.462
453.50 1.461
453.60 1.459
453.70 1.458
453.80 1.457
453.90 1.456
454.00 1.455
454.10 1.453
454.20 1.452
454.30 1.451
454.40 1.45
454.50 1.449
454.60 1.447
454.70 1.446
454.80 1.445
454.90 1.444
455.00 1.443
455.10 1.441
455.20 1.44
455.30 1.439
455.40 1.438
455.50 1.437
455.60 1.435
455.70 1.434
455.80 1.433
455.90 1.432
456.00 1.431
456.10 1.429
456.20 1.428
456.30 1.427
456.40 1.426
456.50 1.425
456.60 1.423
456.70 1.422
456.80 1.421
456.90 1.42
457.00 1.419
457.10 1.417
457.20 1.416
457.30 1.415
457.40 1.414
457.50 1.413
457.60 1.411
457.70 1.41
457.80 1.409
457.90 1.408
458.00 1.407
458.10 1.406
458.20 1.404
458.30 1.403
458.40 1.402
458.50 1.401
458.60 1.4
458.70 1.398
458.80 1.397
458.90 1.396
459.00 1.395
459.10 1.394
459.20 1.393
459.30 1.391
459.40 1.39
459.50 1.389
459.60 1.388
459.70 1.387
459.80 1.386
459.90 1.384
460.00 1.383
460.10 1.382
460.20 1.381
460.30 1.38
460.40 1.379
460.50 1.377
460.60 1.376
460.70 1.375
460.80 1.374
460.90 1.373
461.00 1.372
461.10 1.37
461.20 1.369
461.30 1.368
461.40 1.367
461.50 1.366
461.60 1.365
461.70 1.364
461.80 1.362
461.90 1.361
462.00 1.36
462.10 1.359
462.20 1.358
462.30 1.357
462.40 1.356
462.50 1.354
462.60 1.353
462.70 1.352
462.80 1.351
462.90 1.35
463.00 1.349
463.10 1.348
463.20 1.346
463.30 1.345
463.40 1.344
463.50 1.343
463.60 1.342
463.70 1.341
463.80 1.34
463.90 1.338
464.00 1.337
464.10 1.336
464.20 1.335
464.30 1.334
464.40 1.333
464.50 1.332
464.60 1.33
464.70 1.329
464.80 1.328
464.90 1.327
465.00 1.326
465.10 1.325
465.20 1.324
465.30 1.323
465.40 1.321
465.50 1.32
465.60 1.319
465.70 1.318
465.80 1.317
465.90 1.316
466.00 1.315
466.10 1.314
466.20 1.312
466.30 1.311
466.40 1.31
466.50 1.309
466.60 1.308
466.70 1.307
466.80 1.306
466.90 1.305
467.00 1.304
467.10 1.302
467.20 1.301
467.30 1.3
467.40 1.299
467.50 1.298
467.60 1.297
467.70 1.296
467.80 1.295
467.90 1.293
468.00 1.292
468.10 1.291
468.20 1.29
468.30 1.289
468.40 1.288
468.50 1.287
468.60 1.286
468.70 1.285
468.80 1.283
468.90 1.282
469.00 1.281
469.10 1.28
469.20 1.279
469.30 1.278
469.40 1.277
469.50 1.276
469.60 1.275
469.70 1.273
469.80 1.272
469.90 1.271
470.00 1.27
470.10 1.269
470.20 1.268
470.30 1.267
470.40 1.266
470.50 1.264
470.60 1.263
470.70 1.262
470.80 1.261
470.90 1.26
471.00 1.259
471.10 1.258
471.20 1.257
471.30 1.256
471.40 1.254
471.50 1.253
471.60 1.252
471.70 1.251
471.80 1.25
471.90 1.249
472.00 1.248
472.10 1.247
472.20 1.245
472.30 1.244
472.40 1.243
472.50 1.242
472.60 1.241
472.70 1.24
472.80 1.239
472.90 1.237
473.00 1.236
473.10 1.235
473.20 1.234
473.30 1.233
473.40 1.232
473.50 1.231
473.60 1.229
473.70 1.228
473.80 1.227
473.90 1.226
474.00 1.225
474.10 1.224
474.20 1.223
474.30 1.221
474.40 1.22
474.50 1.219
474.60 1.218
474.70 1.217
474.80 1.215
474.90 1.214
475.00 1.213
475.10 1.212
475.20 1.211
475.30 1.209
475.40 1.208
475.50 1.207
475.60 1.206
475.70 1.205
475.80 1.203
475.90 1.202
476.00 1.201
476.10 1.2
476.20 1.198
476.30 1.197
476.40 1.196
476.50 1.195
476.60 1.193
476.70 1.192
476.80 1.191
476.90 1.19
477.00 1.188
477.10 1.187
477.20 1.186
477.30 1.184
477.40 1.183
477.50 1.182
477.60 1.18
477.70 1.179
477.80 1.178
477.90 1.176
478.00 1.175
478.10 1.174
478.20 1.172
478.30 1.171
478.40 1.169
478.50 1.168
478.60 1.166
478.70 1.165
478.80 1.163
478.90 1.162
479.00 1.16
479.10 1.159
479.20 1.157
479.30 1.156
479.40 1.154
479.50 1.153
479.60 1.151
479.70 1.149
479.80 1.148
479.90 1.146
480.00 1.145
480.10 1.143
480.20 1.141
480.30 1.14
480.40 1.138
480.50 1.136
480.60 1.134
480.70 1.132
480.80 1.131
480.90 1.129
481.00 1.127
481.10 1.125
481.20 1.123
481.30 1.121
481.40 1.119
481.50 1.117
481.60 1.115
481.70 1.113
481.80 1.111
481.90 1.109
482.00 1.107
482.10 1.105
482.20 1.103
482.30 1.1
482.40 1.098
482.50 1.095
482.60 1.093
482.70 1.091
482.80 1.088
482.90 1.086
483.00 1.084
483.10 1.081
483.20 1.079
483.30 1.076
483.40 1.073
483.50 1.071
483.60 1.068
483.70 1.065
483.80 1.062
483.90 1.06
484.00 1.057
484.10 1.054
484.20 1.051
484.30 1.048
484.40 1.045
484.50 1.043
484.60 1.04
484.70 1.037
484.80 1.034
484.90 1.031
485.00 1.028
485.10 1.025
485.20 1.022
485.30 1.019
485.40 1.017
485.50 1.014
485.60 1.013
485.70 1.011
485.80 1.012
485.90 1.013
486.00 1.018
486.10 1.025
486.20 1.022
486.30 1.013
486.40 1.009
486.50 1.006
486.60 1.004
486.70 1.004
486.80 1.005
486.90 1.006
487.00 1.007
487.10 1.008
487.20 1.009
487.30 1.011
487.40 1.012
487.50 1.013
487.60 1.015
487.70 1.016
487.80 1.017
487.90 1.019
488.00 1.02
488.10 1.021
488.20 1.023
488.30 1.024
488.40 1.025
488.50 1.026
488.60 1.027
488.70 1.028
488.80 1.029
488.90 1.03
489.00 1.031
489.10 1.032
489.20 1.033
489.30 1.033
489.40 1.034
489.50 1.034
489.60 1.035
489.70 1.036
489.80 1.036
489.90 1.037
490.00 1.038
490.10 1.038
490.20 1.039
490.30 1.039
490.40 1.039
490.50 1.039
490.60 1.04
490.70 1.04
490.80 1.04
490.90 1.041
491.00 1.041
491.10 1.041
491.20 1.041
491.30 1.041
491.40 1.041
491.50 1.041
491.60 1.041
491.70 1.041
491.80 1.041
491.90 1.041
492.00 1.041
492.10 1.041
492.20 1.041
492.30 1.041
492.40 1.041
492.50 1.04
492.60 1.04
492.70 1.04
492.80 1.04
492.90 1.04
493.00 1.039
493.10 1.039
493.20 1.039
493.30 1.038
493.40 1.038
493.50 1.038
493.60 1.037
493.70 1.037
493.80 1.037
493.90 1.036
494.00 1.036
494.10 1.035
494.20 1.035
494.30 1.035
494.40 1.034
494.50 1.034
494.60 1.033
494.70 1.033
494.80 1.032
494.90 1.032
495.00 1.031
495.10 1.031
495.20 1.03
495.30 1.03
495.40 1.029
495.50 1.029
495.60 1.028
495.70 1.027
495.80 1.027
495.90 1.026
496.00 1.026
496.10 1.025
496.20 1.025
496.30 1.024
496.40 1.023
496.50 1.023
496.60 1.022
496.70 1.022
496.80 1.021
496.90 1.02
497.00 1.02
497.10 1.019
497.20 1.019
497.30 1.018
497.40 1.017
497.50 1.017
497.60 1.016
497.70 1.015
497.80 1.015
497.90 1.014
498.00 1.013
498.10 1.013
498.20 1.012
498.30 1.012
498.40 1.011
498.50 1.01
498.60 1.01
498.70 1.009
498.80 1.008
498.90 1.008
499.00 1.007
499.10 1.006
499.20 1.005
499.30 1.005
499.40 1.004
499.50 1.003
499.60 1.003
499.70 1.002
499.80 1.001
499.90 1.001
500.00 1
500.10 0.9993
500.20 0.9986
500.30 0.9979
500.40 0.9972
500.50 0.9965
500.60 0.9958
500.70 0.9951
500.80 0.9944
500.90 0.9937
501.00 0.993
501.10 0.9923
501.20 0.9916
501.30 0.9909
501.40 0.9902
501.50 0.9895
501.60 0.9888
501.70 0.9881
501.80 0.9874
501.90 0.9867
502.00 0.986
502.10 0.9853
502.20 0.9846
502.30 0.9839
502.40 0.9832
502.50 0.9825
502.60 0.9818
502.70 0.981
502.80 0.9803
502.90 0.9796
503.00 0.9789
503.10 0.9782
503.20 0.9775
503.30 0.9768
503.40 0.9761
503.50 0.9754
503.60 0.9747
503.70 0.9739
503.80 0.9732
503.90 0.9725
504.00 0.9718
504.10 0.9711
504.20 0.9704
504.30 0.9697
504.40 0.969
504.50 0.9683
504.60 0.9676
504.70 0.9668
504.80 0.9661
504.90 0.9654
505.00 0.9647
505.10 0.964
505.20 0.9633
505.30 0.9626
505.40 0.9619
505.50 0.9612
505.60 0.9605
505.70 0.9597
505.80 0.959
505.90 0.9583
506.00 0.9576
506.10 0.9569
506.20 0.9562
506.30 0.9555
506.40 0.9548
506.50 0.9541
506.60 0.9534
506.70 0.9527
506.80 0.952
506.90 0.9513
507.00 0.9506
507.10 0.9499
507.20 0.9492
507.30 0.9485
507.40 0.9477
507.50 0.947
507.60 0.9463
507.70 0.9456
507.80 0.9449
507.90 0.9442
508.00 0.9435
508.10 0.9428
508.20 0.9421
508.30 0.9414
508.40 0.9407
508.50 0.94
508.60 0.9393
508.70 0.9386
508.80 0.9379
508.90 0.9372
509.00 0.9365
509.10 0.9358
509.20 0.9351
509.30 0.9345
509.40 0.9338
509.50 0.9331
509.60 0.9324
509.70 0.9317
509.80 0.931
509.90 0.9303
510.00 0.9296
510.10 0.9289
510.20 0.9282
510.30 0.9275
510.40 0.9268
510.50 0.9261
510.60 0.9254
510.70 0.9248
510.80 0.9241
510.90 0.9234
511.00 0.9227
511.10 0.922
511.20 0.9213
511.30 0.9206
511.40 0.9199
511.50 0.9193
511.60 0.9186
511.70 0.9179
511.80 0.9172
511.90 0.9165
512.00 0.9158
512.10 0.9152
512.20 0.9145
512.30 0.9138
512.40 0.9131
512.50 0.9124
512.60 0.9117
512.70 0.9111
512.80 0.9104
512.90 0.9097
513.00 0.909
513.10 0.9084
513.20 0.9077
513.30 0.907
513.40 0.9063
513.50 0.9057
513.60 0.905
513.70 0.9043
513.80 0.9036
513.90 0.903
514.00 0.9023
514.10 0.9016
514.20 0.9009
514.30 0.9003
514.40 0.8996
514.50 0.8989
514.60 0.8983
514.70 0.8976
514.80 0.8969
514.90 0.8963
515.00 0.8956
515.10 0.8949
515.20 0.8943
515.30 0.8936
515.40 0.8929
515.50 0.8923
515.60 0.8916
515.70 0.8909
515.80 0.8903
515.90 0.8896
516.00 0.889
516.10 0.8883
516.20 0.8876
516.30 0.887
516.40 0.8863
516.50 0.8857
516.60 0.885
516.70 0.8843
516.80 0.8837
516.90 0.883
517.00 0.8824
517.10 0.8817
517.20 0.8811
517.30 0.8804
517.40 0.8798
517.50 0.8791
517.60 0.8784
517.70 0.8778
517.80 0.8771
517.90 0.8765
518.00 0.8758
518.10 0.8752
518.20 0.8745
518.30 0.8739
518.40 0.8732
518.50 0.8726
518.60 0.8719
518.70 0.8713
518.80 0.8707
518.90 0.87
519.00 0.8694
519.10 0.8687
519.20 0.8681
519.30 0.8674
519.40 0.8668
519.50 0.8661
519.60 0.8655
519.70 0.8649
519.80 0.8642
519.90 0.8636
520.00 0.8629
520.10 0.8623
520.20 0.8617
520.30 0.861
520.40 0.8604
520.50 0.8598
520.60 0.8591
520.70 0.8585
520.80 0.8579
520.90 0.8572
521.00 0.8566
521.10 0.856
521.20 0.8553
521.30 0.8547
521.40 0.8541
521.50 0.8534
521.60 0.8528
521.70 0.8522
521.80 0.8515
521.90 0.8509
522.00 0.8503
522.10 0.8496
522.20 0.849
522.30 0.8484
522.40 0.8478
522.50 0.8471
522.60 0.8465
522.70 0.8459
522.80 0.8453
522.90 0.8446
523.00 0.844
523.10 0.8434
523.20 0.8428
523.30 0.8422
523.40 0.8415
523.50 0.8409
523.60 0.8403
523.70 0.8397
523.80 0.8391
523.90 0.8384
524.00 0.8378
524.10 0.8372
524.20 0.8366
524.30 0.836
524.40 0.8354
524.50 0.8348
524.60 0.8341
524.70 0.8335
524.80 0.8329
524.90 0.8323
525.00 0.8317
525.10 0.8311
525.20 0.8305
525.30 0.8299
525.40 0.8293
525.50 0.8286
525.60 0.828
525.70 0.8274
525.80 0.8268
525.90 0.8262
526.00 0.8256
526.10 0.825
526.20 0.8244
526.30 0.8238
526.40 0.8232
526.50 0.8226
526.60 0.822
526.70 0.8214
526.80 0.8208
526.90 0.8202
527.00 0.8196
527.10 0.819
527.20 0.8184
527.30 0.8178
527.40 0.8172
527.50 0.8166
527.60 0.816
527.70 0.8154
527.80 0.8148
527.90 0.8142
528.00 0.8136
528.10 0.813
528.20 0.8124
528.30 0.8118
528.40 0.8112
528.50 0.8106
528.60 0.81
528.70 0.8094
528.80 0.8088
528.90 0.8083
529.00 0.8077
529.10 0.8071
529.20 0.8065
529.30 0.8059
529.40 0.8053
529.50 0.8047
529.60 0.8041
529.70 0.8035
529.80 0.803
529.90 0.8024
530.00 0.8018
530.10 0.8012
530.20 0.8006
530.30 0.8
530.40 0.7995
530.50 0.7989
530.60 0.7983
530.70 0.7977
530.80 0.7971
530.90 0.7966
531.00 0.796
531.10 0.7954
531.20 0.7948
531.30 0.7942
531.40 0.7937
531.50 0.7931
531.60 0.7925
531.70 0.7919
531.80 0.7914
531.90 0.7908
532.00 0.7902
532.10 0.7896
532.20 0.7891
532.30 0.7885
532.40 0.7879
532.50 0.7873
532.60 0.7868
532.70 0.7862
532.80 0.7856
532.90 0.7851
533.00 0.7845
533.10 0.7839
533.20 0.7834
533.30 0.7828
533.40 0.7822
533.50 0.7817
533.60 0.7811
533.70 0.7805
533.80 0.78
533.90 0.7794
534.00 0.7788
534.10 0.7783
534.20 0.7777
534.30 0.7771
534.40 0.7766
534.50 0.776
534.60 0.7755
534.70 0.7749
534.80 0.7743
534.90 0.7738
535.00 0.7732
535.10 0.7726
535.20 0.7721
535.30 0.7715
535.40 0.771
535.50 0.7704
535.60 0.7699
535.70 0.7693
535.80 0.7688
535.90 0.7682
536.00 0.7676
536.10 0.7671
536.20 0.7665
536.30 0.766
536.40 0.7654
536.50 0.7649
536.60 0.7643
536.70 0.7638
536.80 0.7632
536.90 0.7627
537.00 0.7621
537.10 0.7616
537.20 0.761
537.30 0.7605
537.40 0.7599
537.50 0.7594
537.60 0.7588
537.70 0.7583
537.80 0.7578
537.90 0.7572
538.00 0.7567
538.10 0.7561
538.20 0.7556
538.30 0.755
538.40 0.7545
538.50 0.754
538.60 0.7534
538.70 0.7529
538.80 0.7523
538.90 0.7518
539.00 0.7513
539.10 0.7507
539.20 0.7502
539.30 0.7496
539.40 0.7491
539.50 0.7486
539.60 0.748
539.70 0.7475
539.80 0.7469
539.90 0.7464
540.00 0.7459
540.10 0.7453
540.20 0.7448
540.30 0.7443
540.40 0.7437
540.50 0.7432
540.60 0.7427
540.70 0.7421
540.80 0.7416
540.90 0.7411
541.00 0.7406
541.10 0.74
541.20 0.7395
541.30 0.739
541.40 0.7384
541.50 0.7379
541.60 0.7374
541.70 0.7369
541.80 0.7363
541.90 0.7358
542.00 0.7353
542.10 0.7348
542.20 0.7342
542.30 0.7337
542.40 0.7332
542.50 0.7327
542.60 0.7321
542.70 0.7316
542.80 0.7311
542.90 0.7306
543.00 0.7301
543.10 0.7295
543.20 0.729
543.30 0.7285
543.40 0.728
543.50 0.7275
543.60 0.7269
543.70 0.7264
543.80 0.7259
543.90 0.7254
544.00 0.7249
544.10 0.7244
544.20 0.7238
544.30 0.7233
544.40 0.7228
544.50 0.7223
544.60 0.7218
544.70 0.7213
544.80 0.7208
544.90 0.7202
545.00 0.7197
545.10 0.7192
545.20 0.7187
545.30 0.7182
545.40 0.7177
545.50 0.7172
545.60 0.7167
545.70 0.7162
545.80 0.7157
545.90 0.7152
546.00 0.7146
546.10 0.7141
546.20 0.7136
546.30 0.7131
546.40 0.7126
546.50 0.7121
546.60 0.7116
546.70 0.7111
546.80 0.7106
546.90 0.7101
547.00 0.7096
547.10 0.7091
547.20 0.7086
547.30 0.7081
547.40 0.7076
547.50 0.7071
547.60 0.7066
547.70 0.7061
547.80 0.7056
547.90 0.7051
548.00 0.7046
548.10 0.7041
548.20 0.7036
548.30 0.7031
548.40 0.7026
548.50 0.7021
548.60 0.7016
548.70 0.7011
548.80 0.7006
548.90 0.7001
549.00 0.6996
549.10 0.6991
549.20 0.6987
549.30 0.6982
549.40 0.6977
549.50 0.6972
549.60 0.6967
549.70 0.6962
549.80 0.6957
549.90 0.6952
550.00 0.6947
550.10 0.6942
550.20 0.6937
550.30 0.6933
550.40 0.6928
550.50 0.6923
550.60 0.6918
550.70 0.6913
550.80 0.6908
550.90 0.6903
551.00 0.6899
551.10 0.6894
551.20 0.6889
551.30 0.6884
551.40 0.6879
551.50 0.6874
551.60 0.687
551.70 0.6865
551.80 0.686
551.90 0.6855
552.00 0.685
552.10 0.6845
552.20 0.6841
552.30 0.6836
552.40 0.6831
552.50 0.6826
552.60 0.6821
552.70 0.6817
552.80 0.6812
552.90 0.6807
553.00 0.6802
553.10 0.6798
553.20 0.6793
553.30 0.6788
553.40 0.6783
553.50 0.6779
553.60 0.6774
553.70 0.6769
553.80 0.6764
553.90 0.676
554.00 0.6755
554.10 0.675
554.20 0.6745
554.30 0.6741
554.40 0.6736
554.50 0.6731
554.60 0.6727
554.70 0.6722
554.80 0.6717
554.90 0.6713
555.00 0.6708
555.10 0.6703
555.20 0.6699
555.30 0.6694
555.40 0.6689
555.50 0.6685
555.60 0.668
555.70 0.6675
555.80 0.6671
555.90 0.6666
556.00 0.6661
556.10 0.6657
556.20 0.6652
556.30 0.6647
556.40 0.6643
556.50 0.6638
556.60 0.6633
556.70 0.6629
556.80 0.6624
556.90 0.662
557.00 0.6615
557.10 0.661
557.20 0.6606
557.30 0.6601
557.40 0.6597
557.50 0.6592
557.60 0.6587
557.70 0.6583
557.80 0.6578
557.90 0.6574
558.00 0.6569
558.10 0.6565
558.20 0.656
558.30 0.6556
558.40 0.6551
558.50 0.6546
558.60 0.6542
558.70 0.6537
558.80 0.6533
558.90 0.6528
559.00 0.6524
559.10 0.6519
559.20 0.6515
559.30 0.651
559.40 0.6506
559.50 0.6501
559.60 0.6497
559.70 0.6492
559.80 0.6488
559.90 0.6483
560.00 0.6479
560.10 0.6474
560.20 0.647
560.30 0.6465
560.40 0.6461
560.50 0.6456
560.60 0.6452
560.70 0.6447
560.80 0.6443
560.90 0.6439
561.00 0.6434
561.10 0.643
561.20 0.6425
561.30 0.6421
561.40 0.6416
561.50 0.6412
561.60 0.6407
561.70 0.6403
561.80 0.6399
561.90 0.6394
562.00 0.639
562.10 0.6385
562.20 0.6381
562.30 0.6377
562.40 0.6372
562.50 0.6368
562.60 0.6363
562.70 0.6359
562.80 0.6355
562.90 0.635
563.00 0.6346
563.10 0.6342
563.20 0.6337
563.30 0.6333
563.40 0.6328
563.50 0.6324
563.60 0.632
563.70 0.6315
563.80 0.6311
563.90 0.6307
564.00 0.6302
564.10 0.6298
564.20 0.6294
564.30 0.6289
564.40 0.6285
564.50 0.6281
564.60 0.6276
564.70 0.6272
564.80 0.6268
564.90 0.6264
565.00 0.6259
565.10 0.6255
565.20 0.6251
565.30 0.6246
565.40 0.6242
565.50 0.6238
565.60 0.6234
565.70 0.6229
565.80 0.6225
565.90 0.6221
566.00 0.6217
566.10 0.6212
566.20 0.6208
566.30 0.6204
566.40 0.62
566.50 0.6195
566.60 0.6191
566.70 0.6187
566.80 0.6183
566.90 0.6178
567.00 0.6174
567.10 0.617
567.20 0.6166
567.30 0.6161
567.40 0.6157
567.50 0.6153
567.60 0.6149
567.70 0.6145
567.80 0.614
567.90 0.6136
568.00 0.6132
568.10 0.6128
568.20 0.6124
568.30 0.612
568.40 0.6115
568.50 0.6111
568.60 0.6107
568.70 0.6103
568.80 0.6099
568.90 0.6095
569.00 0.609
569.10 0.6086
569.20 0.6082
569.30 0.6078
569.40 0.6074
569.50 0.607
569.60 0.6066
569.70 0.6061
569.80 0.6057
569.90 0.6053
570.00 0.6049
570.10 0.6045
570.20 0.6041
570.30 0.6037
570.40 0.6033
570.50 0.6029
570.60 0.6024
570.70 0.602
570.80 0.6016
570.90 0.6012
571.00 0.6008
571.10 0.6004
571.20 0.6
571.30 0.5996
571.40 0.5992
571.50 0.5988
571.60 0.5984
571.70 0.598
571.80 0.5976
571.90 0.5971
572.00 0.5967
572.10 0.5963
572.20 0.5959
572.30 0.5955
572.40 0.5951
572.50 0.5947
572.60 0.5943
572.70 0.5939
572.80 0.5935
572.90 0.5931
573.00 0.5927
573.10 0.5923
573.20 0.5919
573.30 0.5915
573.40 0.5911
573.50 0.5907
573.60 0.5903
573.70 0.5899
573.80 0.5895
573.90 0.5891
574.00 0.5887
574.10 0.5883
574.20 0.5879
574.30 0.5875
574.40 0.5871
574.50 0.5867
574.60 0.5863
574.70 0.5859
574.80 0.5855
574.90 0.5851
575.00 0.5848
575.10 0.5844
575.20 0.584
575.30 0.5836
575.40 0.5832
575.50 0.5828
575.60 0.5824
575.70 0.582
575.80 0.5816
575.90 0.5812
576.00 0.5808
576.10 0.5804
576.20 0.58
576.30 0.5797
576.40 0.5793
576.50 0.5789
576.60 0.5785
576.70 0.5781
576.80 0.5777
576.90 0.5773
577.00 0.5769
577.10 0.5765
577.20 0.5762
577.30 0.5758
577.40 0.5754
577.50 0.575
577.60 0.5746
577.70 0.5742
577.80 0.5738
577.90 0.5735
578.00 0.5731
578.10 0.5727
578.20 0.5723
578.30 0.5719
578.40 0.5715
578.50 0.5711
578.60 0.5708
578.70 0.5704
578.80 0.57
578.90 0.5696
579.00 0.5692
579.10 0.5689
579.20 0.5685
579.30 0.5681
579.40 0.5677
579.50 0.5673
579.60 0.567
579.70 0.5666
579.80 0.5662
579.90 0.5658
580.00 0.5654
580.10 0.5651
580.20 0.5647
580.30 0.5643
580.40 0.5639
580.50 0.5635
580.60 0.5632
580.70 0.5628
580.80 0.5624
580.90 0.562
581.00 0.5617
581.10 0.5613
581.20 0.5609
581.30 0.5605
581.40 0.5602
581.50 0.5598
581.60 0.5594
581.70 0.5591
581.80 0.5587
581.90 0.5583
582.00 0.5579
582.10 0.5576
582.20 0.5572
582.30 0.5568
582.40 0.5564
582.50 0.5561
582.60 0.5557
582.70 0.5553
582.80 0.555
582.90 0.5546
583.00 0.5542
583.10 0.5539
583.20 0.5535
583.30 0.5531
583.40 0.5528
583.50 0.5524
583.60 0.552
583.70 0.5517
583.80 0.5513
583.90 0.5509
584.00 0.5506
584.10 0.5502
584.20 0.5498
584.30 0.5495
584.40 0.5491
584.50 0.5487
584.60 0.5484
584.70 0.548
584.80 0.5476
584.90 0.5473
585.00 0.5469
585.10 0.5465
585.20 0.5462
585.30 0.5458
585.40 0.5455
585.50 0.5451
585.60 0.5447
585.70 0.5444
585.80 0.544
585.90 0.5437
586.00 0.5433
586.10 0.5429
586.20 0.5426
586.30 0.5422
586.40 0.5419
586.50 0.5415
586.60 0.5411
586.70 0.5408
586.80 0.5404
586.90 0.5401
587.00 0.5397
587.10 0.5394
587.20 0.539
587.30 0.5386
587.40 0.5383
587.50 0.5379
587.60 0.5376
587.70 0.5372
587.80 0.5369
587.90 0.5365
588.00 0.5362
588.10 0.5358
588.20 0.5354
588.30 0.5351
588.40 0.5347
588.50 0.5344
588.60 0.534
588.70 0.5337
588.80 0.5333
588.90 0.533
589.00 0.5326
589.10 0.5323
589.20 0.5319
589.30 0.5316
589.40 0.5312
589.50 0.5309
589.60 0.5305
589.70 0.5302
589.80 0.5298
589.90 0.5295
590.00 0.5291
590.10 0.5288
590.20 0.5284
590.30 0.5281
590.40 0.5277
590.50 0.5274
590.60 0.5271
590.70 0.5267
590.80 0.5264
590.90 0.526
591.00 0.5257
591.10 0.5253
591.20 0.525
591.30 0.5246
591.40 0.5243
591.50 0.5239
591.60 0.5236
591.70 0.5233
591.80 0.5229
591.90 0.5226
592.00 0.5222
592.10 0.5219
592.20 0.5215
592.30 0.5212
592.40 0.5209
592.50 0.5205
592.60 0.5202
592.70 0.5198
592.80 0.5195
592.90 0.5192
593.00 0.5188
593.10 0.5185
593.20 0.5181
593.30 0.5178
593.40 0.5175
593.50 0.5171
593.60 0.5168
593.70 0.5164
593.80 0.5161
593.90 0.5158
594.00 0.5154
594.10 0.5151
594.20 0.5148
594.30 0.5144
594.40 0.5141
594.50 0.5137
594.60 0.5134
594.70 0.5131
594.80 0.5127
594.90 0.5124
595.00 0.5121
595.10 0.5117
595.20 0.5114
595.30 0.5111
595.40 0.5107
595.50 0.5104
595.60 0.5101
595.70 0.5097
595.80 0.5094
595.90 0.5091
596.00 0.5087
596.10 0.5084
596.20 0.5081
596.30 0.5078
596.40 0.5074
596.50 0.5071
596.60 0.5068
596.70 0.5064
596.80 0.5061
596.90 0.5058
597.00 0.5054
597.10 0.5051
597.20 0.5048
597.30 0.5045
597.40 0.5041
597.50 0.5038
597.60 0.5035
597.70 0.5031
597.80 0.5028
597.90 0.5025
598.00 0.5022
598.10 0.5018
598.20 0.5015
598.30 0.5012
598.40 0.5009
598.50 0.5005
598.60 0.5002
598.70 0.4999
598.80 0.4996
598.90 0.4992
599.00 0.4989
599.10 0.4986
599.20 0.4983
599.30 0.4979
599.40 0.4976
599.50 0.4973
599.60 0.497
599.70 0.4967
599.80 0.4963
599.90 0.496
600.00 0.4957
600.10 0.4954
600.20 0.495
600.30 0.4947
600.40 0.4944
600.50 0.4941
600.60 0.4938
600.70 0.4935
600.80 0.4931
600.90 0.4928
601.00 0.4925
601.10 0.4922
601.20 0.4919
601.30 0.4915
601.40 0.4912
601.50 0.4909
601.60 0.4906
601.70 0.4903
601.80 0.49
601.90 0.4896
602.00 0.4893
602.10 0.489
602.20 0.4887
602.30 0.4884
602.40 0.4881
602.50 0.4877
602.60 0.4874
602.70 0.4871
602.80 0.4868
602.90 0.4865
603.00 0.4862
603.10 0.4859
603.20 0.4855
603.30 0.4852
603.40 0.4849
603.50 0.4846
603.60 0.4843
603.70 0.484
603.80 0.4837
603.90 0.4834
604.00 0.4831
604.10 0.4827
604.20 0.4824
604.30 0.4821
604.40 0.4818
604.50 0.4815
604.60 0.4812
604.70 0.4809
604.80 0.4806
604.90 0.4803
605.00 0.48
605.10 0.4796
605.20 0.4793
605.30 0.479
605.40 0.4787
605.50 0.4784
605.60 0.4781
605.70 0.4778
605.80 0.4775
605.90 0.4772
606.00 0.4769
606.10 0.4766
606.20 0.4763
606.30 0.476
606.40 0.4757
606.50 0.4754
606.60 0.4751
606.70 0.4747
606.80 0.4744
606.90 0.4741
607.00 0.4738
607.10 0.4735
607.20 0.4732
607.30 0.4729
607.40 0.4726
607.50 0.4723
607.60 0.472
607.70 0.4717
607.80 0.4714
607.90 0.4711
608.00 0.4708
608.10 0.4705
608.20 0.4702
608.30 0.4699
608.40 0.4696
608.50 0.4693
608.60 0.469
608.70 0.4687
608.80 0.4684
608.90 0.4681
609.00 0.4678
609.10 0.4675
609.20 0.4672
609.30 0.4669
609.40 0.4666
609.50 0.4663
609.60 0.466
609.70 0.4657
609.80 0.4654
609.90 0.4651
610.00 0.4648
610.10 0.4645
610.20 0.4642
610.30 0.4639
610.40 0.4636
610.50 0.4634
610.60 0.4631
610.70 0.4628
610.80 0.4625
610.90 0.4622
611.00 0.4619
611.10 0.4616
611.20 0.4613
611.30 0.461
611.40 0.4607
611.50 0.4604
611.60 0.4601
611.70 0.4598
611.80 0.4595
611.90 0.4592
612.00 0.4589
612.10 0.4587
612.20 0.4584
612.30 0.4581
612.40 0.4578
612.50 0.4575
612.60 0.4572
612.70 0.4569
612.80 0.4566
612.90 0.4563
613.00 0.456
613.10 0.4557
613.20 0.4555
613.30 0.4552
613.40 0.4549
613.50 0.4546
613.60 0.4543
613.70 0.454
613.80 0.4537
613.90 0.4534
614.00 0.4532
614.10 0.4529
614.20 0.4526
614.30 0.4523
614.40 0.452
614.50 0.4517
614.60 0.4514
614.70 0.4511
614.80 0.4509
614.90 0.4506
615.00 0.4503
615.10 0.45
615.20 0.4497
615.30 0.4494
615.40 0.4491
615.50 0.4489
615.60 0.4486
615.70 0.4483
615.80 0.448
615.90 0.4477
616.00 0.4474
616.10 0.4472
616.20 0.4469
616.30 0.4466
616.40 0.4463
616.50 0.446
616.60 0.4458
616.70 0.4455
616.80 0.4452
616.90 0.4449
617.00 0.4446
617.10 0.4443
617.20 0.4441
617.30 0.4438
617.40 0.4435
617.50 0.4432
617.60 0.4429
617.70 0.4427
617.80 0.4424
617.90 0.4421
618.00 0.4418
618.10 0.4415
618.20 0.4413
618.30 0.441
618.40 0.4407
618.50 0.4404
618.60 0.4402
618.70 0.4399
618.80 0.4396
618.90 0.4393
619.00 0.439
619.10 0.4388
619.20 0.4385
619.30 0.4382
619.40 0.4379
619.50 0.4377
619.60 0.4374
619.70 0.4371
619.80 0.4368
619.90 0.4366
620.00 0.4363
620.10 0.436
620.20 0.4357
620.30 0.4355
620.40 0.4352
620.50 0.4349
620.60 0.4346
620.70 0.4344
620.80 0.4341
620.90 0.4338
621.00 0.4336
621.10 0.4333
621.20 0.433
621.30 0.4327
621.40 0.4325
621.50 0.4322
621.60 0.4319
621.70 0.4317
621.80 0.4314
621.90 0.4311
622.00 0.4308
622.10 0.4306
622.20 0.4303
622.30 0.43
622.40 0.4298
622.50 0.4295
622.60 0.4292
622.70 0.429
622.80 0.4287
622.90 0.4284
623.00 0.4281
623.10 0.4279
623.20 0.4276
623.30 0.4273
623.40 0.4271
623.50 0.4268
623.60 0.4265
623.70 0.4263
623.80 0.426
623.90 0.4257
624.00 0.4255
624.10 0.4252
624.20 0.4249
624.30 0.4247
624.40 0.4244
624.50 0.4241
624.60 0.4239
624.70 0.4236
624.80 0.4233
624.90 0.4231
625.00 0.4228
625.10 0.4225
625.20 0.4223
625.30 0.422
625.40 0.4217
625.50 0.4215
625.60 0.4212
625.70 0.421
625.80 0.4207
625.90 0.4204
626.00 0.4202
626.10 0.4199
626.20 0.4196
626.30 0.4194
626.40 0.4191
626.50 0.4189
626.60 0.4186
626.70 0.4183
626.80 0.4181
626.90 0.4178
627.00 0.4175
627.10 0.4173
627.20 0.417
627.30 0.4168
627.40 0.4165
627.50 0.4162
627.60 0.416
627.70 0.4157
627.80 0.4155
627.90 0.4152
628.00 0.4149
628.10 0.4147
628.20 0.4144
628.30 0.4142
628.40 0.4139
628.50 0.4136
628.60 0.4134
628.70 0.4131
628.80 0.4129
628.90 0.4126
629.00 0.4124
629.10 0.4121
629.20 0.4118
629.30 0.4116
629.40 0.4113
629.50 0.4111
629.60 0.4108
629.70 0.4106
629.80 0.4103
629.90 0.41
630.00 0.4098
630.10 0.4095
630.20 0.4093
630.30 0.409
630.40 0.4088
630.50 0.4085
630.60 0.4082
630.70 0.408
630.80 0.4077
630.90 0.4075
631.00 0.4072
631.10 0.407
631.20 0.4067
631.30 0.4065
631.40 0.4062
631.50 0.406
631.60 0.4057
631.70 0.4054
631.80 0.4052
631.90 0.4049
632.00 0.4047
632.10 0.4044
632.20 0.4042
632.30 0.4039
632.40 0.4037
632.50 0.4034
632.60 0.4032
632.70 0.4029
632.80 0.4027
632.90 0.4024
633.00 0.4022
633.10 0.4019
633.20 0.4017
633.30 0.4014
633.40 0.4012
633.50 0.4009
633.60 0.4007
633.70 0.4004
633.80 0.4002
633.90 0.3999
634.00 0.3996
634.10 0.3994
634.20 0.3991
634.30 0.3989
634.40 0.3986
634.50 0.3984
634.60 0.3981
634.70 0.3979
634.80 0.3976
634.90 0.3974
635.00 0.3971
635.10 0.3969
635.20 0.3966
635.30 0.3964
635.40 0.3961
635.50 0.3959
635.60 0.3957
635.70 0.3954
635.80 0.3952
635.90 0.3949
636.00 0.3947
636.10 0.3944
636.20 0.3942
636.30 0.3939
636.40 0.3937
636.50 0.3934
636.60 0.3932
636.70 0.3929
636.80 0.3927
636.90 0.3924
637.00 0.3922
637.10 0.3919
637.20 0.3917
637.30 0.3914
637.40 0.3912
637.50 0.3909
637.60 0.3907
637.70 0.3904
637.80 0.3902
637.90 0.3899
638.00 0.3897
638.10 0.3894
638.20 0.3892
638.30 0.3889
638.40 0.3887
638.50 0.3885
638.60 0.3882
638.70 0.388
638.80 0.3877
638.90 0.3875
639.00 0.3872
639.10 0.387
639.20 0.3867
639.30 0.3865
639.40 0.3862
639.50 0.386
639.60 0.3857
639.70 0.3855
639.80 0.3852
639.90 0.385
640.00 0.3847
640.10 0.3845
640.20 0.3842
640.30 0.384
640.40 0.3837
640.50 0.3835
640.60 0.3832
640.70 0.383
640.80 0.3827
640.90 0.3825
641.00 0.3822
641.10 0.382
641.20 0.3817
641.30 0.3815
641.40 0.3812
641.50 0.381
641.60 0.3807
641.70 0.3805
641.80 0.3802
641.90 0.38
642.00 0.3797
642.10 0.3795
642.20 0.3792
642.30 0.379
642.40 0.3787
642.50 0.3785
642.60 0.3782
642.70 0.378
642.80 0.3777
642.90 0.3775
643.00 0.3772
643.10 0.377
643.20 0.3767
643.30 0.3765
643.40 0.3762
643.50 0.3759
643.60 0.3757
643.70 0.3754
643.80 0.3752
643.90 0.3749
644.00 0.3746
644.10 0.3744
644.20 0.3741
644.30 0.3739
644.40 0.3736
644.50 0.3733
644.60 0.3731
644.70 0.3728
644.80 0.3726
644.90 0.3723
645.00 0.372
645.10 0.3718
645.20 0.3715
645.30 0.3712
645.40 0.371
645.50 0.3707
645.60 0.3704
645.70 0.3701
645.80 0.3699
645.90 0.3696
646.00 0.3693
646.10 0.3691
646.20 0.3688
646.30 0.3685
646.40 0.3682
646.50 0.3679
646.60 0.3677
646.70 0.3674
646.80 0.3671
646.90 0.3668
647.00 0.3665
647.10 0.3662
647.20 0.366
647.30 0.3657
647.40 0.3654
647.50 0.3651
647.60 0.3648
647.70 0.3645
647.80 0.3642
647.90 0.3639
648.00 0.3636
648.10 0.3633
648.20 0.363
648.30 0.3626
648.40 0.3623
648.50 0.362
648.60 0.3617
648.70 0.3613
648.80 0.361
648.90 0.3607
649.00 0.3604
649.10 0.36
649.20 0.3597
649.30 0.3594
649.40 0.359
649.50 0.3587
649.60 0.3583
649.70 0.3579
649.80 0.3576
649.90 0.3572
650.00 0.3569
650.10 0.3565
650.20 0.3561
650.30 0.3558
650.40 0.3554
650.50 0.355
650.60 0.3546
650.70 0.3541
650.80 0.3537
650.90 0.3533
651.00 0.3529
651.10 0.3525
651.20 0.3521
651.30 0.3517
651.40 0.3512
651.50 0.3508
651.60 0.3503
651.70 0.3498
651.80 0.3493
651.90 0.3489
652.00 0.3484
652.10 0.3479
652.20 0.3475
652.30 0.347
652.40 0.3464
652.50 0.3459
652.60 0.3453
652.70 0.3448
652.80 0.3442
652.90 0.3437
653.00 0.3431
653.10 0.3426
653.20 0.342
653.30 0.3415
653.40 0.3408
653.50 0.3402
653.60 0.3395
653.70 0.3389
653.80 0.3383
653.90 0.3376
654.00 0.337
654.10 0.3363
654.20 0.3357
654.30 0.335
654.40 0.3344
654.50 0.3337
654.60 0.333
654.70 0.3323
654.80 0.3316
654.90 0.3309
655.00 0.3303
655.10 0.3296
655.20 0.3289
655.30 0.3282
655.40 0.3276
655.50 0.3271
655.60 0.3266
655.70 0.3262
655.80 0.3261
655.90 0.3263
656.00 0.3278
656.10 0.3297
656.20 0.3399
656.30 0.3508
656.40 0.3341
656.50 0.3279
656.60 0.326
656.70 0.3244
656.80 0.3242
656.90 0.324
657.00 0.3241
657.10 0.3242
657.20 0.3244
657.30 0.3246
657.40 0.3249
657.50 0.3252
657.60 0.3255
657.70 0.3258
657.80 0.3261
657.90 0.3264
658.00 0.3267
658.10 0.327
658.20 0.3273
658.30 0.3276
658.40 0.3278
658.50 0.3281
658.60 0.3283
658.70 0.3286
658.80 0.3288
658.90 0.329
659.00 0.3293
659.10 0.3295
659.20 0.3298
659.30 0.33
659.40 0.3301
659.50 0.3303
659.60 0.3304
659.70 0.3306
659.80 0.3307
659.90 0.3308
660.00 0.331
660.10 0.3311
660.20 0.3313
660.30 0.3314
660.40 0.3315
660.50 0.3315
660.60 0.3316
660.70 0.3316
660.80 0.3317
660.90 0.3317
661.00 0.3318
661.10 0.3318
661.20 0.3319
661.30 0.3319
661.40 0.3319
661.50 0.3319
661.60 0.3319
661.70 0.3319
661.80 0.3319
661.90 0.3319
662.00 0.3319
662.10 0.3319
662.20 0.3318
662.30 0.3318
662.40 0.3318
662.50 0.3317
662.60 0.3316
662.70 0.3316
662.80 0.3315
662.90 0.3315
663.00 0.3314
663.10 0.3313
663.20 0.3313
663.30 0.3312
663.40 0.3311
663.50 0.331
663.60 0.3309
663.70 0.3308
663.80 0.3307
663.90 0.3306
664.00 0.3305
664.10 0.3304
664.20 0.3303
664.30 0.3302
664.40 0.3301
664.50 0.33
664.60 0.3299
664.70 0.3298
664.80 0.3296
664.90 0.3295
665.00 0.3294
665.10 0.3293
665.20 0.3292
665.30 0.329
665.40 0.3289
665.50 0.3288
665.60 0.3286
665.70 0.3285
665.80 0.3284
665.90 0.3282
666.00 0.3281
666.10 0.3279
666.20 0.3278
666.30 0.3277
666.40 0.3275
666.50 0.3274
666.60 0.3272
666.70 0.3271
666.80 0.3269
666.90 0.3268
667.00 0.3266
667.10 0.3265
667.20 0.3263
667.30 0.3262
667.40 0.326
667.50 0.3259
667.60 0.3257
667.70 0.3255
667.80 0.3254
667.90 0.3252
668.00 0.3251
668.10 0.3249
668.20 0.3248
668.30 0.3246
668.40 0.3244
668.50 0.3243
668.60 0.3241
668.70 0.3239
668.80 0.3238
668.90 0.3236
669.00 0.3234
669.10 0.3233
669.20 0.3231
669.30 0.323
669.40 0.3228
669.50 0.3226
669.60 0.3225
669.70 0.3223
669.80 0.3221
669.90 0.3219
670.00 0.3218
670.10 0.3216
670.20 0.3214
670.30 0.3213
670.40 0.3211
670.50 0.3209
670.60 0.3208
670.70 0.3206
670.80 0.3204
670.90 0.3203
671.00 0.3201
671.10 0.3199
671.20 0.3197
671.30 0.3196
671.40 0.3194
671.50 0.3192
671.60 0.3191
671.70 0.3189
671.80 0.3187
671.90 0.3185
672.00 0.3184
672.10 0.3182
672.20 0.318
672.30 0.3179
672.40 0.3177
672.50 0.3175
672.60 0.3173
672.70 0.3172
672.80 0.317
672.90 0.3168
673.00 0.3166
673.10 0.3165
673.20 0.3163
673.30 0.3161
673.40 0.316
673.50 0.3158
673.60 0.3156
673.70 0.3154
673.80 0.3153
673.90 0.3151
674.00 0.3149
674.10 0.3147
674.20 0.3146
674.30 0.3144
674.40 0.3142
674.50 0.314
674.60 0.3139
674.70 0.3137
674.80 0.3135
674.90 0.3133
675.00 0.3132
675.10 0.313
675.20 0.3128
675.30 0.3126
675.40 0.3125
675.50 0.3123
675.60 0.3121
675.70 0.312
675.80 0.3118
675.90 0.3116
676.00 0.3114
676.10 0.3113
676.20 0.3111
676.30 0.3109
676.40 0.3107
676.50 0.3106
676.60 0.3104
676.70 0.3102
676.80 0.31
676.90 0.3099
677.00 0.3097
677.10 0.3095
677.20 0.3094
677.30 0.3092
677.40 0.309
677.50 0.3088
677.60 0.3087
677.70 0.3085
677.80 0.3083
677.90 0.3081
678.00 0.308
678.10 0.3078
678.20 0.3076
678.30 0.3075
678.40 0.3073
678.50 0.3071
678.60 0.3069
678.70 0.3068
678.80 0.3066
678.90 0.3064
679.00 0.3062
679.10 0.3061
679.20 0.3059
679.30 0.3057
679.40 0.3056
679.50 0.3054
679.60 0.3052
679.70 0.305
679.80 0.3049
679.90 0.3047
680.00 0.3045
680.10 0.3044
680.20 0.3042
680.30 0.304
680.40 0.3038
680.50 0.3037
680.60 0.3035
680.70 0.3033
680.80 0.3032
680.90 0.303
681.00 0.3028
681.10 0.3026
681.20 0.3025
681.30 0.3023
681.40 0.3021
681.50 0.302
681.60 0.3018
681.70 0.3016
681.80 0.3015
681.90 0.3013
682.00 0.3011
682.10 0.3009
682.20 0.3008
682.30 0.3006
682.40 0.3004
682.50 0.3003
682.60 0.3001
682.70 0.2999
682.80 0.2998
682.90 0.2996
683.00 0.2994
683.10 0.2993
683.20 0.2991
683.30 0.2989
683.40 0.2988
683.50 0.2986
683.60 0.2984
683.70 0.2982
683.80 0.2981
683.90 0.2979
684.00 0.2977
684.10 0.2976
684.20 0.2974
684.30 0.2972
684.40 0.2971
684.50 0.2969
684.60 0.2967
684.70 0.2966
684.80 0.2964
684.90 0.2962
685.00 0.2961
685.10 0.2959
685.20 0.2957
685.30 0.2956
685.40 0.2954
685.50 0.2952
685.60 0.2951
685.70 0.2949
685.80 0.2947
685.90 0.2946
686.00 0.2944
686.10 0.2942
686.20 0.2941
686.30 0.2939
686.40 0.2937
686.50 0.2936
686.60 0.2934
686.70 0.2933
686.80 0.2931
686.90 0.2929
687.00 0.2928
687.10 0.2926
687.20 0.2924
687.30 0.2923
687.40 0.2921
687.50 0.2919
687.60 0.2918
687.70 0.2916
687.80 0.2914
687.90 0.2913
688.00 0.2911
688.10 0.291
688.20 0.2908
688.30 0.2906
688.40 0.2905
688.50 0.2903
688.60 0.2901
688.70 0.29
688.80 0.2898
688.90 0.2896
689.00 0.2895
689.10 0.2893
689.20 0.2892
689.30 0.289
689.40 0.2888
689.50 0.2887
689.60 0.2885
689.70 0.2884
689.80 0.2882
689.90 0.288
690.00 0.2879
690.10 0.2877
690.20 0.2875
690.30 0.2874
690.40 0.2872
690.50 0.2871
690.60 0.2869
690.70 0.2867
690.80 0.2866
690.90 0.2864
691.00 0.2863
691.10 0.2861
691.20 0.2859
691.30 0.2858
691.40 0.2856
691.50 0.2855
691.60 0.2853
691.70 0.2851
691.80 0.285
691.90 0.2848
692.00 0.2847
692.10 0.2845
692.20 0.2843
692.30 0.2842
692.40 0.284
692.50 0.2839
692.60 0.2837
692.70 0.2836
692.80 0.2834
692.90 0.2832
693.00 0.2831
693.10 0.2829
693.20 0.2828
693.30 0.2826
693.40 0.2824
693.50 0.2823
693.60 0.2821
693.70 0.282
693.80 0.2818
693.90 0.2816
694.00 0.2815
694.10 0.2813
694.20 0.2812
694.30 0.281
694.40 0.2809
694.50 0.2807
694.60 0.2805
694.70 0.2804
694.80 0.2802
694.90 0.2801
695.00 0.2799
695.10 0.2798
695.20 0.2796
695.30 0.2795
695.40 0.2793
695.50 0.2791
695.60 0.279
695.70 0.2788
695.80 0.2787
695.90 0.2785
696.00 0.2784
696.10 0.2782
696.20 0.2781
696.30 0.2779
696.40 0.2777
696.50 0.2776
696.60 0.2774
696.70 0.2773
696.80 0.2771
696.90 0.277
697.00 0.2768
697.10 0.2767
697.20 0.2765
697.30 0.2764
697.40 0.2762
697.50 0.2761
697.60 0.2759
697.70 0.2757
697.80 0.2756
697.90 0.2754
698.00 0.2753
698.10 0.2751
698.20 0.275
698.30 0.2748
698.40 0.2747
698.50 0.2745
698.60 0.2744
698.70 0.2742
698.80 0.2741
698.90 0.2739
699.00 0.2738
699.10 0.2736
699.20 0.2734
699.30 0.2733
699.40 0.2731
699.50 0.273
699.60 0.2728
699.70 0.2727
699.80 0.2725
699.90 0.2724
700.00 0.2722
700.10 0.2721
700.20 0.2719
700.30 0.2718
700.40 0.2716
700.50 0.2715
700.60 0.2713
700.70 0.2712
700.80 0.271
700.90 0.2709
701.00 0.2707
701.10 0.2706
701.20 0.2704
701.30 0.2703
701.40 0.2701
701.50 0.27
701.60 0.2698
701.70 0.2697
701.80 0.2695
701.90 0.2694
702.00 0.2692
702.10 0.2691
702.20 0.2689
702.30 0.2688
702.40 0.2686
702.50 0.2685
702.60 0.2683
702.70 0.2682
702.80 0.268
702.90 0.2679
703.00 0.2678
703.10 0.2676
703.20 0.2675
703.30 0.2673
703.40 0.2672
703.50 0.267
703.60 0.2669
703.70 0.2667
703.80 0.2666
703.90 0.2664
704.00 0.2663
704.10 0.2661
704.20 0.266
704.30 0.2658
704.40 0.2657
704.50 0.2655
704.60 0.2654
704.70 0.2652
704.80 0.2651
704.90 0.265
705.00 0.2648
705.10 0.2647
705.20 0.2645
705.30 0.2644
705.40 0.2642
705.50 0.2641
705.60 0.2639
705.70 0.2638
705.80 0.2636
705.90 0.2635
706.00 0.2634
706.10 0.2632
706.20 0.2631
706.30 0.2629
706.40 0.2628
706.50 0.2626
706.60 0.2625
706.70 0.2623
706.80 0.2622
706.90 0.2621
707.00 0.2619
707.10 0.2618
707.20 0.2616
707.30 0.2615
707.40 0.2613
707.50 0.2612
707.60 0.261
707.70 0.2609
707.80 0.2608
707.90 0.2606
708.00 0.2605
708.10 0.2603
708.20 0.2602
708.30 0.26
708.40 0.2599
708.50 0.2598
708.60 0.2596
708.70 0.2595
708.80 0.2593
708.90 0.2592
709.00 0.259
709.10 0.2589
709.20 0.2588
709.30 0.2586
709.40 0.2585
709.50 0.2583
709.60 0.2582
709.70 0.258
709.80 0.2579
709.90 0.2578
710.00 0.2576
710.10 0.2575
710.20 0.2573
710.30 0.2572
710.40 0.2571
710.50 0.2569
710.60 0.2568
710.70 0.2566
710.80 0.2565
710.90 0.2564
711.00 0.2562
711.10 0.2561
711.20 0.2559
711.30 0.2558
711.40 0.2557
711.50 0.2555
711.60 0.2554
711.70 0.2552
711.80 0.2551
711.90 0.255
712.00 0.2548
712.10 0.2547
712.20 0.2545
712.30 0.2544
712.40 0.2543
712.50 0.2541
712.60 0.254
712.70 0.2539
712.80 0.2537
712.90 0.2536
713.00 0.2534
713.10 0.2533
713.20 0.2532
713.30 0.253
713.40 0.2529
713.50 0.2527
713.60 0.2526
713.70 0.2525
713.80 0.2523
713.90 0.2522
714.00 0.2521
714.10 0.2519
714.20 0.2518
714.30 0.2516
714.40 0.2515
714.50 0.2514
714.60 0.2512
714.70 0.2511
714.80 0.251
714.90 0.2508
715.00 0.2507
715.10 0.2505
715.20 0.2504
715.30 0.2503
715.40 0.2501
715.50 0.25
715.60 0.2499
715.70 0.2497
715.80 0.2496
715.90 0.2495
716.00 0.2493
716.10 0.2492
716.20 0.2491
716.30 0.2489
716.40 0.2488
716.50 0.2487
716.60 0.2485
716.70 0.2484
716.80 0.2482
716.90 0.2481
717.00 0.248
717.10 0.2478
717.20 0.2477
717.30 0.2476
717.40 0.2474
717.50 0.2473
717.60 0.2472
717.70 0.247
717.80 0.2469
717.90 0.2468
718.00 0.2466
718.10 0.2465
718.20 0.2464
718.30 0.2462
718.40 0.2461
718.50 0.246
718.60 0.2458
718.70 0.2457
718.80 0.2456
718.90 0.2454
719.00 0.2453
719.10 0.2452
719.20 0.245
719.30 0.2449
719.40 0.2448
719.50 0.2446
719.60 0.2445
719.70 0.2444
719.80 0.2442
719.90 0.2441
720.00 0.244
720.10 0.2438
720.20 0.2437
720.30 0.2436
720.40 0.2434
720.50 0.2433
720.60 0.2432
720.70 0.2431
720.80 0.2429
720.90 0.2428
721.00 0.2427
721.10 0.2425
721.20 0.2424
721.30 0.2423
721.40 0.2421
721.50 0.242
721.60 0.2419
721.70 0.2417
721.80 0.2416
721.90 0.2415
722.00 0.2414
722.10 0.2412
722.20 0.2411
722.30 0.241
722.40 0.2408
722.50 0.2407
722.60 0.2406
722.70 0.2405
722.80 0.2403
722.90 0.2402
723.00 0.2401
723.10 0.2399
723.20 0.2398
723.30 0.2397
723.40 0.2395
723.50 0.2394
723.60 0.2393
723.70 0.2392
723.80 0.239
723.90 0.2389
724.00 0.2388
724.10 0.2386
724.20 0.2385
724.30 0.2384
724.40 0.2383
724.50 0.2381
724.60 0.238
724.70 0.2379
724.80 0.2377
724.90 0.2376
725.00 0.2375
725.10 0.2374
725.20 0.2372
725.30 0.2371
725.40 0.237
725.50 0.2369
725.60 0.2367
725.70 0.2366
725.80 0.2365
725.90 0.2363
726.00 0.2362
726.10 0.2361
726.20 0.236
726.30 0.2358
726.40 0.2357
726.50 0.2356
726.60 0.2355
726.70 0.2353
726.80 0.2352
726.90 0.2351
727.00 0.235
727.10 0.2348
727.20 0.2347
727.30 0.2346
727.40 0.2345
727.50 0.2343
727.60 0.2342
727.70 0.2341
727.80 0.234
727.90 0.2338
728.00 0.2337
728.10 0.2336
728.20 0.2335
728.30 0.2333
728.40 0.2332
728.50 0.2331
728.60 0.233
728.70 0.2328
728.80 0.2327
728.90 0.2326
729.00 0.2325
729.10 0.2323
729.20 0.2322
729.30 0.2321
729.40 0.232
729.50 0.2318
729.60 0.2317
729.70 0.2316
729.80 0.2315
729.90 0.2313
730.00 0.2312
730.10 0.2311
730.20 0.231
730.30 0.2308
730.40 0.2307
730.50 0.2306
730.60 0.2305
730.70 0.2304
730.80 0.2302
730.90 0.2301
731.00 0.23
731.10 0.2299
731.20 0.2297
731.30 0.2296
731.40 0.2295
731.50 0.2294
731.60 0.2293
731.70 0.2291
731.80 0.229
731.90 0.2289
732.00 0.2288
732.10 0.2287
732.20 0.2285
732.30 0.2284
732.40 0.2283
732.50 0.2282
732.60 0.2281
732.70 0.2279
732.80 0.2278
732.90 0.2277
733.00 0.2276
733.10 0.2275
733.20 0.2273
733.30 0.2272
733.40 0.2271
733.50 0.227
733.60 0.2268
733.70 0.2267
733.80 0.2266
733.90 0.2265
734.00 0.2264
734.10 0.2262
734.20 0.2261
734.30 0.226
734.40 0.2259
734.50 0.2258
734.60 0.2257
734.70 0.2255
734.80 0.2254
734.90 0.2253
735.00 0.2252
735.10 0.2251
735.20 0.2249
735.30 0.2248
735.40 0.2247
735.50 0.2246
735.60 0.2245
735.70 0.2243
735.80 0.2242
735.90 0.2241
736.00 0.224
736.10 0.2239
736.20 0.2237
736.30 0.2236
736.40 0.2235
736.50 0.2234
736.60 0.2233
736.70 0.2232
736.80 0.223
736.90 0.2229
737.00 0.2228
737.10 0.2227
737.20 0.2226
737.30 0.2224
737.40 0.2223
737.50 0.2222
737.60 0.2221
737.70 0.222
737.80 0.2219
737.90 0.2217
738.00 0.2216
738.10 0.2215
738.20 0.2214
738.30 0.2213
738.40 0.2211
738.50 0.221
738.60 0.2209
738.70 0.2208
738.80 0.2207
738.90 0.2206
739.00 0.2204
739.10 0.2203
739.20 0.2202
739.30 0.2201
739.40 0.22
739.50 0.2199
739.60 0.2197
739.70 0.2196
739.80 0.2195
739.90 0.2194
740.00 0.2193
740.10 0.2192
740.20 0.219
740.30 0.2189
740.40 0.2188
740.50 0.2187
740.60 0.2186
740.70 0.2185
740.80 0.2184
740.90 0.2182
741.00 0.2181
741.10 0.218
741.20 0.2179
741.30 0.2178
741.40 0.2177
741.50 0.2176
741.60 0.2175
741.70 0.2173
741.80 0.2172
741.90 0.2171
742.00 0.217
742.10 0.2169
742.20 0.2168
742.30 0.2167
742.40 0.2165
742.50 0.2164
742.60 0.2163
742.70 0.2162
742.80 0.2161
742.90 0.216
743.00 0.2159
743.10 0.2158
743.20 0.2156
743.30 0.2155
743.40 0.2154
743.50 0.2153
743.60 0.2152
743.70 0.2151
743.80 0.215
743.90 0.2149
744.00 0.2147
744.10 0.2146
744.20 0.2145
744.30 0.2144
744.40 0.2143
744.50 0.2142
744.60 0.2141
744.70 0.214
744.80 0.2138
744.90 0.2137
745.00 0.2136
745.10 0.2135
745.20 0.2134
745.30 0.2133
745.40 0.2132
745.50 0.2131
745.60 0.213
745.70 0.2128
745.80 0.2127
745.90 0.2126
746.00 0.2125
746.10 0.2124
746.20 0.2123
746.30 0.2122
746.40 0.2121
746.50 0.212
746.60 0.2118
746.70 0.2117
746.80 0.2116
746.90 0.2115
747.00 0.2114
747.10 0.2113
747.20 0.2112
747.30 0.2111
747.40 0.211
747.50 0.2108
747.60 0.2107
747.70 0.2106
747.80 0.2105
747.90 0.2104
748.00 0.2103
748.10 0.2102
748.20 0.2101
748.30 0.21
748.40 0.2099
748.50 0.2097
748.60 0.2096
748.70 0.2095
748.80 0.2094
748.90 0.2093
749.00 0.2092
749.10 0.2091
749.20 0.209
749.30 0.2089
749.40 0.2088
749.50 0.2086
749.60 0.2085
749.70 0.2084
749.80 0.2083
749.90 0.2082
750.00 0.2081
750.10 0.208
750.20 0.2079
750.30 0.2078
750.40 0.2077
750.50 0.2076
750.60 0.2075
750.70 0.2074
750.80 0.2072
750.90 0.2071
751.00 0.207
751.10 0.2069
751.20 0.2068
751.30 0.2067
751.40 0.2066
751.50 0.2065
751.60 0.2064
751.70 0.2063
751.80 0.2062
751.90 0.2061
752.00 0.206
752.10 0.2059
752.20 0.2058
752.30 0.2056
752.40 0.2055
752.50 0.2054
752.60 0.2053
752.70 0.2052
752.80 0.2051
752.90 0.205
753.00 0.2049
753.10 0.2048
753.20 0.2047
753.30 0.2046
753.40 0.2045
753.50 0.2044
753.60 0.2043
753.70 0.2042
753.80 0.2041
753.90 0.204
754.00 0.2039
754.10 0.2037
754.20 0.2036
754.30 0.2035
754.40 0.2034
754.50 0.2033
754.60 0.2032
754.70 0.2031
754.80 0.203
754.90 0.2029
755.00 0.2028
755.10 0.2027
755.20 0.2026
755.30 0.2025
755.40 0.2024
755.50 0.2023
755.60 0.2022
755.70 0.2021
755.80 0.202
755.90 0.2019
756.00 0.2018
756.10 0.2017
756.20 0.2015
756.30 0.2014
756.40 0.2013
756.50 0.2012
756.60 0.2011
756.70 0.201
756.80 0.2009
756.90 0.2008
757.00 0.2007
757.10 0.2006
757.20 0.2005
757.30 0.2004
757.40 0.2003
757.50 0.2002
757.60 0.2001
757.70 0.2
757.80 0.1999
757.90 0.1998
758.00 0.1997
758.10 0.1996
758.20 0.1995
758.30 0.1994
758.40 0.1993
758.50 0.1992
758.60 0.1991
758.70 0.199
758.80 0.1989
758.90 0.1988
759.00 0.1987
759.10 0.1985
759.20 0.1984
759.30 0.1983
759.40 0.1982
759.50 0.1981
759.60 0.198
759.70 0.1979
759.80 0.1978
759.90 0.1977
760.00 0.1976
760.10 0.1975
760.20 0.1974
760.30 0.1973
760.40 0.1972
760.50 0.1971
760.60 0.197
760.70 0.1969
760.80 0.1968
760.90 0.1967
761.00 0.1966
761.10 0.1965
761.20 0.1964
761.30 0.1963
761.40 0.1962
761.50 0.1961
761.60 0.196
761.70 0.1959
761.80 0.1958
761.90 0.1957
762.00 0.1956
762.10 0.1955
762.20 0.1954
762.30 0.1953
762.40 0.1952
762.50 0.1951
762.60 0.195
762.70 0.1949
762.80 0.1948
762.90 0.1947
763.00 0.1946
763.10 0.1945
763.20 0.1944
763.30 0.1943
763.40 0.1942
763.50 0.1941
763.60 0.194
763.70 0.1939
763.80 0.1938
763.90 0.1937
764.00 0.1936
764.10 0.1935
764.20 0.1934
764.30 0.1933
764.40 0.1932
764.50 0.1932
764.60 0.1931
764.70 0.193
764.80 0.1929
764.90 0.1928
765.00 0.1927
765.10 0.1926
765.20 0.1925
765.30 0.1924
765.40 0.1923
765.50 0.1922
765.60 0.1921
765.70 0.192
765.80 0.1919
765.90 0.1918
766.00 0.1917
766.10 0.1916
766.20 0.1915
766.30 0.1914
766.40 0.1913
766.50 0.1912
766.60 0.1911
766.70 0.191
766.80 0.1909
766.90 0.1908
767.00 0.1907
767.10 0.1906
767.20 0.1905
767.30 0.1904
767.40 0.1903
767.50 0.1902
767.60 0.1901
767.70 0.19
767.80 0.1899
767.90 0.1898
768.00 0.1897
768.10 0.1896
768.20 0.1895
768.30 0.1894
768.40 0.1893
768.50 0.1892
768.60 0.1892
768.70 0.1891
768.80 0.189
768.90 0.1889
769.00 0.1888
769.10 0.1887
769.20 0.1886
769.30 0.1885
769.40 0.1884
769.50 0.1883
769.60 0.1882
769.70 0.1881
769.80 0.188
769.90 0.1879
770.00 0.1878
770.10 0.1877
770.20 0.1876
770.30 0.1875
770.40 0.1874
770.50 0.1873
770.60 0.1872
770.70 0.1871
770.80 0.1871
770.90 0.187
771.00 0.1869
771.10 0.1868
771.20 0.1867
771.30 0.1866
771.40 0.1865
771.50 0.1864
771.60 0.1863
771.70 0.1862
771.80 0.1861
771.90 0.186
772.00 0.1859
772.10 0.1858
772.20 0.1857
772.30 0.1856
772.40 0.1856
772.50 0.1855
772.60 0.1854
772.70 0.1853
772.80 0.1852
772.90 0.1851
773.00 0.185
773.10 0.1849
773.20 0.1848
773.30 0.1847
773.40 0.1846
773.50 0.1845
773.60 0.1844
773.70 0.1843
773.80 0.1843
773.90 0.1842
774.00 0.1841
774.10 0.184
774.20 0.1839
774.30 0.1838
774.40 0.1837
774.50 0.1836
774.60 0.1835
774.70 0.1834
774.80 0.1833
774.90 0.1832
775.00 0.1831
775.10 0.1831
775.20 0.183
775.30 0.1829
775.40 0.1828
775.50 0.1827
775.60 0.1826
775.70 0.1825
775.80 0.1824
775.90 0.1823
776.00 0.1822
776.10 0.1821
776.20 0.182
776.30 0.1819
776.40 0.1819
776.50 0.1818
776.60 0.1817
776.70 0.1816
776.80 0.1815
776.90 0.1814
777.00 0.1813
777.10 0.1812
777.20 0.1811
777.30 0.181
777.40 0.1809
777.50 0.1809
777.60 0.1808
777.70 0.1807
777.80 0.1806
777.90 0.1805
778.00 0.1804
778.10 0.1803
778.20 0.1802
778.30 0.1801
778.40 0.18
778.50 0.1799
778.60 0.1799
778.70 0.1798
778.80 0.1797
778.90 0.1796
779.00 0.1795
779.10 0.1794
779.20 0.1793
779.30 0.1792
779.40 0.1791
779.50 0.179
779.60 0.1789
779.70 0.1789
779.80 0.1788
779.90 0.1787
780.00 0.1786
780.10 0.1785
780.20 0.1784
780.30 0.1783
780.40 0.1782
780.50 0.1781
780.60 0.1781
780.70 0.178
780.80 0.1779
780.90 0.1778
781.00 0.1777
781.10 0.1776
781.20 0.1775
781.30 0.1774
781.40 0.1774
781.50 0.1773
781.60 0.1772
781.70 0.1771
781.80 0.177
781.90 0.1769
782.00 0.1768
782.10 0.1767
782.20 0.1766
782.30 0.1766
782.40 0.1765
782.50 0.1764
782.60 0.1763
782.70 0.1762
782.80 0.1761
782.90 0.176
783.00 0.1759
783.10 0.1759
783.20 0.1758
783.30 0.1757
783.40 0.1756
783.50 0.1755
783.60 0.1754
783.70 0.1753
783.80 0.1753
783.90 0.1752
784.00 0.1751
784.10 0.175
784.20 0.1749
784.30 0.1748
784.40 0.1747
784.50 0.1746
784.60 0.1746
784.70 0.1745
784.80 0.1744
784.90 0.1743
785.00 0.1742
785.10 0.1741
785.20 0.174
785.30 0.1739
785.40 0.1739
785.50 0.1738
785.60 0.1737
785.70 0.1736
785.80 0.1735
785.90 0.1734
786.00 0.1733
786.10 0.1733
786.20 0.1732
786.30 0.1731
786.40 0.173
786.50 0.1729
786.60 0.1728
786.70 0.1727
786.80 0.1727
786.90 0.1726
787.00 0.1725
787.10 0.1724
787.20 0.1723
787.30 0.1722
787.40 0.1721
787.50 0.1721
787.60 0.172
787.70 0.1719
787.80 0.1718
787.90 0.1717
788.00 0.1716
788.10 0.1715
788.20 0.1715
788.30 0.1714
788.40 0.1713
788.50 0.1712
788.60 0.1711
788.70 0.171
788.80 0.1709
788.90 0.1709
789.00 0.1708
789.10 0.1707
789.20 0.1706
789.30 0.1705
789.40 0.1704
789.50 0.1704
789.60 0.1703
789.70 0.1702
789.80 0.1701
789.90 0.17
790.00 0.1699
790.10 0.1698
790.20 0.1698
790.30 0.1697
790.40 0.1696
790.50 0.1695
790.60 0.1694
790.70 0.1693
790.80 0.1693
790.90 0.1692
791.00 0.1691
791.10 0.169
791.20 0.1689
791.30 0.1688
791.40 0.1688
791.50 0.1687
791.60 0.1686
791.70 0.1685
791.80 0.1684
791.90 0.1684
792.00 0.1683
792.10 0.1682
792.20 0.1681
792.30 0.168
792.40 0.1679
792.50 0.1679
792.60 0.1678
792.70 0.1677
792.80 0.1676
792.90 0.1675
793.00 0.1674
793.10 0.1674
793.20 0.1673
793.30 0.1672
793.40 0.1671
793.50 0.167
793.60 0.167
793.70 0.1669
793.80 0.1668
793.90 0.1667
794.00 0.1666
794.10 0.1665
794.20 0.1665
794.30 0.1664
794.40 0.1663
794.50 0.1662
794.60 0.1661
794.70 0.1661
794.80 0.166
794.90 0.1659
795.00 0.1658
795.10 0.1657
795.20 0.1657
795.30 0.1656
795.40 0.1655
795.50 0.1654
795.60 0.1653
795.70 0.1652
795.80 0.1652
795.90 0.1651
796.00 0.165
796.10 0.1649
796.20 0.1648
796.30 0.1648
796.40 0.1647
796.50 0.1646
796.60 0.1645
796.70 0.1644
796.80 0.1644
796.90 0.1643
797.00 0.1642
797.10 0.1641
797.20 0.164
797.30 0.164
797.40 0.1639
797.50 0.1638
797.60 0.1637
797.70 0.1636
797.80 0.1635
797.90 0.1635
798.00 0.1634
798.10 0.1633
798.20 0.1632
798.30 0.1631
798.40 0.1631
798.50 0.163
798.60 0.1629
798.70 0.1628
798.80 0.1627
798.90 0.1627
799.00 0.1626
799.10 0.1625
799.20 0.1624
799.30 0.1623
799.40 0.1623
799.50 0.1622
799.60 0.1621
799.70 0.162
799.80 0.1619
799.90 0.1619
800.00 0.1618
800.10 0.1617
800.20 0.1616
800.30 0.1616
800.40 0.1615
800.50 0.1614
800.60 0.1613
800.70 0.1612
800.80 0.1612
800.90 0.1611
801.00 0.161
801.10 0.1609
801.20 0.1609
801.30 0.1608
801.40 0.1607
801.50 0.1606
801.60 0.1605
801.70 0.1605
801.80 0.1604
801.90 0.1603
802.00 0.1602
802.10 0.1602
802.20 0.1601
802.30 0.16
802.40 0.1599
802.50 0.1598
802.60 0.1598
802.70 0.1597
802.80 0.1596
802.90 0.1595
803.00 0.1595
803.10 0.1594
803.20 0.1593
803.30 0.1592
803.40 0.1591
803.50 0.1591
803.60 0.159
803.70 0.1589
803.80 0.1588
803.90 0.1588
804.00 0.1587
804.10 0.1586
804.20 0.1585
804.30 0.1585
804.40 0.1584
804.50 0.1583
804.60 0.1582
804.70 0.1581
804.80 0.1581
804.90 0.158
805.00 0.1579
805.10 0.1578
805.20 0.1578
805.30 0.1577
805.40 0.1576
805.50 0.1575
805.60 0.1575
805.70 0.1574
805.80 0.1573
805.90 0.1572
806.00 0.1572
806.10 0.1571
806.20 0.157
806.30 0.1569
806.40 0.1568
806.50 0.1568
806.60 0.1567
806.70 0.1566
806.80 0.1565
806.90 0.1565
807.00 0.1564
807.10 0.1563
807.20 0.1562
807.30 0.1562
807.40 0.1561
807.50 0.156
807.60 0.1559
807.70 0.1559
807.80 0.1558
807.90 0.1557
808.00 0.1556
808.10 0.1556
808.20 0.1555
808.30 0.1554
808.40 0.1553
808.50 0.1553
808.60 0.1552
808.70 0.1551
808.80 0.155
808.90 0.155
809.00 0.1549
809.10 0.1548
809.20 0.1547
809.30 0.1547
809.40 0.1546
809.50 0.1545
809.60 0.1544
809.70 0.1544
809.80 0.1543
809.90 0.1542
810.00 0.1541
810.10 0.1541
810.20 0.154
810.30 0.1539
810.40 0.1538
810.50 0.1538
810.60 0.1537
810.70 0.1536
810.80 0.1535
810.90 0.1535
811.00 0.1534
811.10 0.1533
811.20 0.1532
811.30 0.1532
811.40 0.1531
811.50 0.153
811.60 0.153
811.70 0.1529
811.80 0.1528
811.90 0.1527
812.00 0.1527
812.10 0.1526
812.20 0.1525
812.30 0.1524
812.40 0.1524
812.50 0.1523
812.60 0.1522
812.70 0.1522
812.80 0.1521
812.90 0.152
813.00 0.1519
813.10 0.1519
813.20 0.1518
813.30 0.1517
813.40 0.1516
813.50 0.1516
813.60 0.1515
813.70 0.1514
813.80 0.1514
813.90 0.1513
814.00 0.1512
814.10 0.1511
814.20 0.1511
814.30 0.151
814.40 0.1509
814.50 0.1508
814.60 0.1508
814.70 0.1507
814.80 0.1506
814.90 0.1506
815.00 0.1505
815.10 0.1504
815.20 0.1503
815.30 0.1503
815.40 0.1502
815.50 0.1501
815.60 0.1501
815.70 0.15
815.80 0.1499
815.90 0.1498
816.00 0.1498
816.10 0.1497
816.20 0.1496
816.30 0.1496
816.40 0.1495
816.50 0.1494
816.60 0.1493
816.70 0.1493
816.80 0.1492
816.90 0.1491
817.00 0.1491
817.10 0.149
817.20 0.1489
817.30 0.1488
817.40 0.1488
817.50 0.1487
817.60 0.1486
817.70 0.1486
817.80 0.1485
817.90 0.1484
818.00 0.1483
818.10 0.1483
818.20 0.1482
818.30 0.1481
818.40 0.1481
818.50 0.148
818.60 0.1479
818.70 0.1478
818.80 0.1478
818.90 0.1477
819.00 0.1476
819.10 0.1476
819.20 0.1475
819.30 0.1474
819.40 0.1473
819.50 0.1473
819.60 0.1472
819.70 0.1471
819.80 0.1471
819.90 0.147
820.00 0.1469
820.10 0.1469
820.20 0.1468
820.30 0.1467
820.40 0.1466
820.50 0.1466
820.60 0.1465
820.70 0.1464
820.80 0.1464
820.90 0.1463
821.00 0.1462
821.10 0.1462
821.20 0.1461
821.30 0.146
821.40 0.1459
821.50 0.1459
821.60 0.1458
821.70 0.1457
821.80 0.1457
821.90 0.1456
822.00 0.1455
822.10 0.1455
822.20 0.1454
822.30 0.1453
822.40 0.1453
822.50 0.1452
822.60 0.1451
822.70 0.145
822.80 0.145
822.90 0.1449
823.00 0.1448
823.10 0.1448
823.20 0.1447
823.30 0.1446
823.40 0.1446
823.50 0.1445
823.60 0.1444
823.70 0.1444
823.80 0.1443
823.90 0.1442
824.00 0.1442
824.10 0.1441
824.20 0.144
824.30 0.144
824.40 0.1439
824.50 0.1438
824.60 0.1438
824.70 0.1437
824.80 0.1436
824.90 0.1435
825.00 0.1435
825.10 0.1434
825.20 0.1433
825.30 0.1433
825.40 0.1432
825.50 0.1431
825.60 0.1431
825.70 0.143
825.80 0.1429
825.90 0.1429
826.00 0.1428
826.10 0.1427
826.20 0.1427
826.30 0.1426
826.40 0.1425
826.50 0.1425
826.60 0.1424
826.70 0.1423
826.80 0.1423
826.90 0.1422
827.00 0.1421
827.10 0.1421
827.20 0.142
827.30 0.1419
827.40 0.1419
827.50 0.1418
827.60 0.1417
827.70 0.1417
827.80 0.1416
827.90 0.1415
828.00 0.1415
828.10 0.1414
828.20 0.1413
828.30 0.1413
828.40 0.1412
828.50 0.1411
828.60 0.1411
828.70 0.141
828.80 0.1409
828.90 0.1409
829.00 0.1408
829.10 0.1407
829.20 0.1407
829.30 0.1406
829.40 0.1405
829.50 0.1405
829.60 0.1404
829.70 0.1403
829.80 0.1403
829.90 0.1402
830.00 0.1401
830.10 0.1401
830.20 0.14
830.30 0.1399
830.40 0.1399
830.50 0.1398
830.60 0.1397
830.70 0.1397
830.80 0.1396
830.90 0.1395
831.00 0.1395
831.10 0.1394
831.20 0.1393
831.30 0.1393
831.40 0.1392
831.50 0.1391
831.60 0.1391
831.70 0.139
831.80 0.1389
831.90 0.1389
832.00 0.1388
832.10 0.1388
832.20 0.1387
832.30 0.1386
832.40 0.1386
832.50 0.1385
832.60 0.1384
832.70 0.1384
832.80 0.1383
832.90 0.1382
833.00 0.1382
833.10 0.1381
833.20 0.138
833.30 0.138
833.40 0.1379
833.50 0.1378
833.60 0.1378
833.70 0.1377
833.80 0.1377
833.90 0.1376
834.00 0.1375
834.10 0.1375
834.20 0.1374
834.30 0.1373
834.40 0.1373
834.50 0.1372
834.60 0.1371
834.70 0.1371
834.80 0.137
834.90 0.1369
835.00 0.1369
835.10 0.1368
835.20 0.1368
835.30 0.1367
835.40 0.1366
835.50 0.1366
835.60 0.1365
835.70 0.1364
835.80 0.1364
835.90 0.1363
836.00 0.1362
836.10 0.1362
836.20 0.1361
836.30 0.1361
836.40 0.136
836.50 0.1359
836.60 0.1359
836.70 0.1358
836.80 0.1357
836.90 0.1357
837.00 0.1356
837.10 0.1355
837.20 0.1355
837.30 0.1354
837.40 0.1354
837.50 0.1353
837.60 0.1352
837.70 0.1352
837.80 0.1351
837.90 0.135
838.00 0.135
838.10 0.1349
838.20 0.1349
838.30 0.1348
838.40 0.1347
838.50 0.1347
838.60 0.1346
838.70 0.1345
838.80 0.1345
838.90 0.1344
839.00 0.1343
839.10 0.1343
839.20 0.1342
839.30 0.1342
839.40 0.1341
839.50 0.134
839.60 0.134
839.70 0.1339
839.80 0.1338
839.90 0.1338
840.00 0.1337
840.10 0.1337
840.20 0.1336
840.30 0.1335
840.40 0.1335
840.50 0.1334
840.60 0.1334
840.70 0.1333
840.80 0.1332
840.90 0.1332
841.00 0.1331
841.10 0.133
841.20 0.133
841.30 0.1329
841.40 0.1329
841.50 0.1328
841.60 0.1327
841.70 0.1327
841.80 0.1326
841.90 0.1325
842.00 0.1325
842.10 0.1324
842.20 0.1324
842.30 0.1323
842.40 0.1322
842.50 0.1322
842.60 0.1321
842.70 0.1321
842.80 0.132
842.90 0.1319
843.00 0.1319
843.10 0.1318
843.20 0.1318
843.30 0.1317
843.40 0.1316
843.50 0.1316
843.60 0.1315
843.70 0.1314
843.80 0.1314
843.90 0.1313
844.00 0.1313
844.10 0.1312
844.20 0.1311
844.30 0.1311
844.40 0.131
844.50 0.131
844.60 0.1309
844.70 0.1308
844.80 0.1308
844.90 0.1307
845.00 0.1307
845.10 0.1306
845.20 0.1305
845.30 0.1305
845.40 0.1304
845.50 0.1304
845.60 0.1303
845.70 0.1302
845.80 0.1302
845.90 0.1301
846.00 0.1301
846.10 0.13
846.20 0.1299
846.30 0.1299
846.40 0.1298
846.50 0.1297
846.60 0.1297
846.70 0.1296
846.80 0.1296
846.90 0.1295
847.00 0.1294
847.10 0.1294
847.20 0.1293
847.30 0.1293
847.40 0.1292
847.50 0.1292
847.60 0.1291
847.70 0.129
847.80 0.129
847.90 0.1289
848.00 0.1289
848.10 0.1288
848.20 0.1287
848.30 0.1287
848.40 0.1286
848.50 0.1286
848.60 0.1285
848.70 0.1284
848.80 0.1284
848.90 0.1283
849.00 0.1283
849.10 0.1282
849.20 0.1281
849.30 0.1281
849.40 0.128
849.50 0.128
849.60 0.1279
849.70 0.1278
849.80 0.1278
849.90 0.1277
850.00 0.1277
850.10 0.1276
850.20 0.1276
850.30 0.1275
850.40 0.1274
850.50 0.1274
850.60 0.1273
850.70 0.1273
850.80 0.1272
850.90 0.1271
851.00 0.1271
851.10 0.127
851.20 0.127
851.30 0.1269
851.40 0.1268
851.50 0.1268
851.60 0.1267
851.70 0.1267
851.80 0.1266
851.90 0.1266
852.00 0.1265
852.10 0.1264
852.20 0.1264
852.30 0.1263
852.40 0.1263
852.50 0.1262
852.60 0.1262
852.70 0.1261
852.80 0.126
852.90 0.126
853.00 0.1259
853.10 0.1259
853.20 0.1258
853.30 0.1257
853.40 0.1257
853.50 0.1256
853.60 0.1256
853.70 0.1255
853.80 0.1255
853.90 0.1254
854.00 0.1253
854.10 0.1253
854.20 0.1252
854.30 0.1252
854.40 0.1251
854.50 0.1251
854.60 0.125
854.70 0.1249
854.80 0.1249
854.90 0.1248
855.00 0.1248
855.10 0.1247
855.20 0.1247
855.30 0.1246
855.40 0.1245
855.50 0.1245
855.60 0.1244
855.70 0.1244
855.80 0.1243
855.90 0.1243
856.00 0.1242
856.10 0.1241
856.20 0.1241
856.30 0.124
856.40 0.124
856.50 0.1239
856.60 0.1239
856.70 0.1238
856.80 0.1237
856.90 0.1237
857.00 0.1236
857.10 0.1236
857.20 0.1235
857.30 0.1235
857.40 0.1234
857.50 0.1234
857.60 0.1233
857.70 0.1232
857.80 0.1232
857.90 0.1231
858.00 0.1231
858.10 0.123
858.20 0.123
858.30 0.1229
858.40 0.1229
858.50 0.1228
858.60 0.1227
858.70 0.1227
858.80 0.1226
858.90 0.1226
859.00 0.1225
859.10 0.1225
859.20 0.1224
859.30 0.1224
859.40 0.1223
859.50 0.1222
859.60 0.1222
859.70 0.1221
859.80 0.1221
859.90 0.122
860.00 0.122
860.10 0.1219
860.20 0.1219
860.30 0.1218
860.40 0.1217
860.50 0.1217
860.60 0.1216
860.70 0.1216
860.80 0.1215
860.90 0.1215
861.00 0.1214
861.10 0.1214
861.20 0.1213
861.30 0.1212
861.40 0.1212
861.50 0.1211
861.60 0.1211
861.70 0.121
861.80 0.121
861.90 0.1209
862.00 0.1209
862.10 0.1208
862.20 0.1208
862.30 0.1207
862.40 0.1206
862.50 0.1206
862.60 0.1205
862.70 0.1205
862.80 0.1204
862.90 0.1204
863.00 0.1203
863.10 0.1203
863.20 0.1202
863.30 0.1202
863.40 0.1201
863.50 0.12
863.60 0.12
863.70 0.1199
863.80 0.1199
863.90 0.1198
864.00 0.1198
864.10 0.1197
864.20 0.1197
864.30 0.1196
864.40 0.1196
864.50 0.1195
864.60 0.1194
864.70 0.1194
864.80 0.1193
864.90 0.1193
865.00 0.1192
865.10 0.1192
865.20 0.1191
865.30 0.1191
865.40 0.119
865.50 0.119
865.60 0.1189
865.70 0.1189
865.80 0.1188
865.90 0.1187
866.00 0.1187
866.10 0.1186
866.20 0.1186
866.30 0.1185
866.40 0.1185
866.50 0.1184
866.60 0.1184
866.70 0.1183
866.80 0.1183
866.90 0.1182
867.00 0.1182
867.10 0.1181
867.20 0.118
867.30 0.118
867.40 0.1179
867.50 0.1179
867.60 0.1178
867.70 0.1178
867.80 0.1177
867.90 0.1177
868.00 0.1176
868.10 0.1176
868.20 0.1175
868.30 0.1175
868.40 0.1174
868.50 0.1174
868.60 0.1173
868.70 0.1173
868.80 0.1172
868.90 0.1171
869.00 0.1171
869.10 0.117
869.20 0.117
869.30 0.1169
869.40 0.1169
869.50 0.1168
869.60 0.1168
869.70 0.1167
869.80 0.1167
869.90 0.1166
870.00 0.1166
870.10 0.1165
870.20 0.1165
870.30 0.1164
870.40 0.1164
870.50 0.1163
870.60 0.1163
870.70 0.1162
870.80 0.1162
870.90 0.1161
871.00 0.116
871.10 0.116
871.20 0.1159
871.30 0.1159
871.40 0.1158
871.50 0.1158
871.60 0.1157
871.70 0.1157
871.80 0.1156
871.90 0.1156
872.00 0.1155
872.10 0.1155
872.20 0.1154
872.30 0.1154
872.40 0.1153
872.50 0.1153
872.60 0.1152
872.70 0.1152
872.80 0.1151
872.90 0.1151
873.00 0.115
873.10 0.115
873.20 0.1149
873.30 0.1149
873.40 0.1148
873.50 0.1148
873.60 0.1147
873.70 0.1147
873.80 0.1146
873.90 0.1145
874.00 0.1145
874.10 0.1144
874.20 0.1144
874.30 0.1143
874.40 0.1143
874.50 0.1142
874.60 0.1142
874.70 0.1141
874.80 0.1141
874.90 0.114
875.00 0.114
875.10 0.1139
875.20 0.1139
875.30 0.1138
875.40 0.1138
875.50 0.1137
875.60 0.1137
875.70 0.1136
875.80 0.1136
875.90 0.1135
876.00 0.1135
876.10 0.1134
876.20 0.1134
876.30 0.1133
876.40 0.1133
876.50 0.1132
876.60 0.1132
876.70 0.1131
876.80 0.1131
876.90 0.113
877.00 0.113
877.10 0.1129
877.20 0.1129
877.30 0.1128
877.40 0.1128
877.50 0.1127
877.60 0.1127
877.70 0.1126
877.80 0.1126
877.90 0.1125
878.00 0.1125
878.10 0.1124
878.20 0.1124
878.30 0.1123
878.40 0.1123
878.50 0.1122
878.60 0.1122
878.70 0.1121
878.80 0.1121
878.90 0.112
879.00 0.112
879.10 0.1119
879.20 0.1119
879.30 0.1118
879.40 0.1118
879.50 0.1117
879.60 0.1117
879.70 0.1116
879.80 0.1116
879.90 0.1115
880.00 0.1115
880.10 0.1114
880.20 0.1114
880.30 0.1113
880.40 0.1113
880.50 0.1112
880.60 0.1112
880.70 0.1111
880.80 0.1111
880.90 0.111
881.00 0.111
881.10 0.1109
881.20 0.1109
881.30 0.1108
881.40 0.1108
881.50 0.1107
881.60 0.1107
881.70 0.1106
881.80 0.1106
881.90 0.1105
882.00 0.1105
882.10 0.1104
882.20 0.1104
882.30 0.1103
882.40 0.1103
882.50 0.1102
882.60 0.1102
882.70 0.1101
882.80 0.1101
882.90 0.11
883.00 0.11
883.10 0.1099
883.20 0.1099
883.30 0.1098
883.40 0.1098
883.50 0.1098
883.60 0.1097
883.70 0.1097
883.80 0.1096
883.90 0.1096
884.00 0.1095
884.10 0.1095
884.20 0.1094
884.30 0.1094
884.40 0.1093
884.50 0.1093
884.60 0.1092
884.70 0.1092
884.80 0.1091
884.90 0.1091
885.00 0.109
885.10 0.109
885.20 0.1089
885.30 0.1089
885.40 0.1088
885.50 0.1088
885.60 0.1087
885.70 0.1087
885.80 0.1086
885.90 0.1086
886.00 0.1085
886.10 0.1085
886.20 0.1084
886.30 0.1084
886.40 0.1084
886.50 0.1083
886.60 0.1083
886.70 0.1082
886.80 0.1082
886.90 0.1081
887.00 0.1081
887.10 0.108
887.20 0.108
887.30 0.1079
887.40 0.1079
887.50 0.1078
887.60 0.1078
887.70 0.1077
887.80 0.1077
887.90 0.1076
888.00 0.1076
888.10 0.1075
888.20 0.1075
888.30 0.1074
888.40 0.1074
888.50 0.1074
888.60 0.1073
888.70 0.1073
888.80 0.1072
888.90 0.1072
889.00 0.1071
889.10 0.1071
889.20 0.107
889.30 0.107
889.40 0.1069
889.50 0.1069
889.60 0.1068
889.70 0.1068
889.80 0.1067
889.90 0.1067
890.00 0.1066
890.10 0.1066
890.20 0.1066
890.30 0.1065
890.40 0.1065
890.50 0.1064
890.60 0.1064
890.70 0.1063
890.80 0.1063
890.90 0.1062
891.00 0.1062
891.10 0.1061
891.20 0.1061
891.30 0.106
891.40 0.106
891.50 0.1059
891.60 0.1059
891.70 0.1059
891.80 0.1058
891.90 0.1058
892.00 0.1057
892.10 0.1057
892.20 0.1056
892.30 0.1056
892.40 0.1055
892.50 0.1055
892.60 0.1054
892.70 0.1054
892.80 0.1053
892.90 0.1053
893.00 0.1053
893.10 0.1052
893.20 0.1052
893.30 0.1051
893.40 0.1051
893.50 0.105
893.60 0.105
893.70 0.1049
893.80 0.1049
893.90 0.1048
894.00 0.1048
894.10 0.1047
894.20 0.1047
894.30 0.1047
894.40 0.1046
894.50 0.1046
894.60 0.1045
894.70 0.1045
894.80 0.1044
894.90 0.1044
895.00 0.1043
895.10 0.1043
895.20 0.1042
895.30 0.1042
895.40 0.1042
895.50 0.1041
895.60 0.1041
895.70 0.104
895.80 0.104
895.90 0.1039
896.00 0.1039
896.10 0.1038
896.20 0.1038
896.30 0.1037
896.40 0.1037
896.50 0.1037
896.60 0.1036
896.70 0.1036
896.80 0.1035
896.90 0.1035
897.00 0.1034
897.10 0.1034
897.20 0.1033
897.30 0.1033
897.40 0.1032
897.50 0.1032
897.60 0.1032
897.70 0.1031
897.80 0.1031
897.90 0.103
898.00 0.103
898.10 0.1029
898.20 0.1029
898.30 0.1028
898.40 0.1028
898.50 0.1028
898.60 0.1027
898.70 0.1027
898.80 0.1026
898.90 0.1026
899.00 0.1025
899.10 0.1025
899.20 0.1024
899.30 0.1024
899.40 0.1024
899.50 0.1023
899.60 0.1023
899.70 0.1022
899.80 0.1022
899.90 0.1021
900.00 0.1021
900.10 0.102
900.20 0.102
900.30 0.102
900.40 0.1019
900.50 0.1019
900.60 0.1018
900.70 0.1018
900.80 0.1017
900.90 0.1017
901.00 0.1016
901.10 0.1016
901.20 0.1016
901.30 0.1015
901.40 0.1015
901.50 0.1014
901.60 0.1014
901.70 0.1013
901.80 0.1013
901.90 0.1013
902.00 0.1012
902.10 0.1012
902.20 0.1011
902.30 0.1011
902.40 0.101
902.50 0.101
902.60 0.1009
902.70 0.1009
902.80 0.1009
902.90 0.1008
903.00 0.1008
903.10 0.1007
903.20 0.1007
903.30 0.1006
903.40 0.1006
903.50 0.1006
903.60 0.1005
903.70 0.1005
903.80 0.1004
903.90 0.1004
904.00 0.1003
904.10 0.1003
904.20 0.1002
904.30 0.1002
904.40 0.1002
904.50 0.1001
904.60 0.1001
904.70 0.1
904.80 0.09999
904.90 0.09994
905.00 0.0999
905.10 0.09986
905.20 0.09982
905.30 0.09977
905.40 0.09973
905.50 0.09969
905.60 0.09964
905.70 0.0996
905.80 0.09956
905.90 0.09951
906.00 0.09947
906.10 0.09943
906.20 0.09938
906.30 0.09934
906.40 0.0993
906.50 0.09925
906.60 0.09921
906.70 0.09917
906.80 0.09913
906.90 0.09908
907.00 0.09904
907.10 0.099
907.20 0.09896
907.30 0.09891
907.40 0.09887
907.50 0.09883
907.60 0.09879
907.70 0.09874
907.80 0.0987
907.90 0.09866
908.00 0.09862
908.10 0.09857
908.20 0.09853
908.30 0.09849
908.40 0.09845
908.50 0.0984
908.60 0.09836
908.70 0.09832
908.80 0.09828
908.90 0.09824
909.00 0.09819
909.10 0.09815
909.20 0.09811
909.30 0.09807
909.40 0.09802
909.50 0.09798
909.60 0.09794
909.70 0.0979
909.80 0.09786
909.90 0.09781
910.00 0.09777
910.10 0.09773
910.20 0.09769
910.30 0.09765
910.40 0.0976
910.50 0.09756
910.60 0.09752
910.70 0.09748
910.80 0.09744
910.90 0.09739
911.00 0.09735
911.10 0.09731
911.20 0.09727
911.30 0.09723
911.40 0.09719
911.50 0.09714
911.60 0.0971
911.70 0.09706
911.80 0.09702
911.90 0.09698
912.00 0.09693
912.10 0.09689
912.20 0.09685
912.30 0.09681
912.40 0.09677
912.50 0.09673
912.60 0.09669
912.70 0.09665
912.80 0.0966
912.90 0.09656
913.00 0.09652
913.10 0.09648
913.20 0.09644
913.30 0.0964
913.40 0.09636
913.50 0.09632
913.60 0.09628
913.70 0.09623
913.80 0.09619
913.90 0.09615
914.00 0.09611
914.10 0.09607
914.20 0.09603
914.30 0.09599
914.40 0.09595
914.50 0.09591
914.60 0.09587
914.70 0.09582
914.80 0.09578
914.90 0.09574
915.00 0.0957
915.10 0.09566
915.20 0.09562
915.30 0.09558
915.40 0.09554
915.50 0.0955
915.60 0.09546
915.70 0.09542
915.80 0.09538
915.90 0.09534
916.00 0.09529
916.10 0.09525
916.20 0.09521
916.30 0.09517
916.40 0.09513
916.50 0.09509
916.60 0.09505
916.70 0.09501
916.80 0.09497
916.90 0.09493
917.00 0.09489
917.10 0.09485
917.20 0.09481
917.30 0.09477
917.40 0.09473
917.50 0.09469
917.60 0.09465
917.70 0.09461
917.80 0.09457
917.90 0.09453
918.00 0.09449
918.10 0.09445
918.20 0.09441
918.30 0.09437
918.40 0.09433
918.50 0.09429
918.60 0.09425
918.70 0.09421
918.80 0.09417
918.90 0.09413
919.00 0.09409
919.10 0.09405
919.20 0.09401
919.30 0.09397
919.40 0.09393
919.50 0.09389
919.60 0.09385
919.70 0.09381
919.80 0.09377
919.90 0.09373
920.00 0.09369
920.10 0.09365
920.20 0.09361
920.30 0.09357
920.40 0.09353
920.50 0.09349
920.60 0.09345
920.70 0.09341
920.80 0.09337
920.90 0.09333
921.00 0.0933
921.10 0.09326
921.20 0.09322
921.30 0.09318
921.40 0.09314
921.50 0.0931
921.60 0.09306
921.70 0.09302
921.80 0.09298
921.90 0.09294
922.00 0.0929
922.10 0.09286
922.20 0.09282
922.30 0.09278
922.40 0.09274
922.50 0.0927
922.60 0.09267
922.70 0.09263
922.80 0.09259
922.90 0.09255
923.00 0.09251
923.10 0.09247
923.20 0.09243
923.30 0.09239
923.40 0.09235
923.50 0.09231
923.60 0.09227
923.70 0.09224
923.80 0.0922
923.90 0.09216
924.00 0.09212
924.10 0.09208
924.20 0.09204
924.30 0.092
924.40 0.09196
924.50 0.09192
924.60 0.09188
924.70 0.09185
924.80 0.09181
924.90 0.09177
925.00 0.09173
925.10 0.09169
925.20 0.09165
925.30 0.09161
925.40 0.09157
925.50 0.09154
925.60 0.0915
925.70 0.09146
925.80 0.09142
925.90 0.09138
926.00 0.09134
926.10 0.0913
926.20 0.09126
926.30 0.09123
926.40 0.09119
926.50 0.09115
926.60 0.09111
926.70 0.09107
926.80 0.09103
926.90 0.09099
927.00 0.09096
927.10 0.09092
927.20 0.09088
927.30 0.09084
927.40 0.0908
927.50 0.09076
927.60 0.09073
927.70 0.09069
927.80 0.09065
927.90 0.09061
928.00 0.09057
928.10 0.09054
928.20 0.0905
928.30 0.09046
928.40 0.09042
928.50 0.09038
928.60 0.09035
928.70 0.09031
928.80 0.09027
928.90 0.09023
929.00 0.09019
929.10 0.09016
929.20 0.09012
929.30 0.09008
929.40 0.09004
929.50 0.09
929.60 0.08997
929.70 0.08993
929.80 0.08989
929.90 0.08985
930.00 0.08982
930.10 0.08978
930.20 0.08974
930.30 0.0897
930.40 0.08966
930.50 0.08963
930.60 0.08959
930.70 0.08955
930.80 0.08951
930.90 0.08948
931.00 0.08944
931.10 0.0894
931.20 0.08936
931.30 0.08933
931.40 0.08929
931.50 0.08925
931.60 0.08921
931.70 0.08918
931.80 0.08914
931.90 0.0891
932.00 0.08906
932.10 0.08903
932.20 0.08899
932.30 0.08895
932.40 0.08891
932.50 0.08888
932.60 0.08884
932.70 0.0888
932.80 0.08877
932.90 0.08873
933.00 0.08869
933.10 0.08865
933.20 0.08862
933.30 0.08858
933.40 0.08854
933.50 0.08851
933.60 0.08847
933.70 0.08843
933.80 0.08839
933.90 0.08836
934.00 0.08832
934.10 0.08828
934.20 0.08825
934.30 0.08821
934.40 0.08817
934.50 0.08814
934.60 0.0881
934.70 0.08806
934.80 0.08803
934.90 0.08799
935.00 0.08795
935.10 0.08792
935.20 0.08788
935.30 0.08784
935.40 0.08781
935.50 0.08777
935.60 0.08773
935.70 0.0877
935.80 0.08766
935.90 0.08762
936.00 0.08759
936.10 0.08755
936.20 0.08751
936.30 0.08748
936.40 0.08744
936.50 0.0874
936.60 0.08737
936.70 0.08733
936.80 0.08729
936.90 0.08726
937.00 0.08722
937.10 0.08718
937.20 0.08715
937.30 0.08711
937.40 0.08708
937.50 0.08704
937.60 0.087
937.70 0.08697
937.80 0.08693
937.90 0.08689
938.00 0.08686
938.10 0.08682
938.20 0.08679
938.30 0.08675
938.40 0.08671
938.50 0.08668
938.60 0.08664
938.70 0.08661
938.80 0.08657
938.90 0.08653
939.00 0.0865
939.10 0.08646
939.20 0.08643
939.30 0.08639
939.40 0.08635
939.50 0.08632
939.60 0.08628
939.70 0.08625
939.80 0.08621
939.90 0.08617
940.00 0.08614
940.10 0.0861
940.20 0.08607
940.30 0.08603
940.40 0.086
940.50 0.08596
940.60 0.08592
940.70 0.08589
940.80 0.08585
940.90 0.08582
941.00 0.08578
941.10 0.08575
941.20 0.08571
941.30 0.08567
941.40 0.08564
941.50 0.0856
941.60 0.08557
941.70 0.08553
941.80 0.0855
941.90 0.08546
942.00 0.08543
942.10 0.08539
942.20 0.08535
942.30 0.08532
942.40 0.08528
942.50 0.08525
942.60 0.08521
942.70 0.08518
942.80 0.08514
942.90 0.08511
943.00 0.08507
943.10 0.08504
943.20 0.085
943.30 0.08497
943.40 0.08493
943.50 0.0849
943.60 0.08486
943.70 0.08483
943.80 0.08479
943.90 0.08476
944.00 0.08472
944.10 0.08468
944.20 0.08465
944.30 0.08461
944.40 0.08458
944.50 0.08454
944.60 0.08451
944.70 0.08447
944.80 0.08444
944.90 0.08441
945.00 0.08437
945.10 0.08434
945.20 0.0843
945.30 0.08427
945.40 0.08423
945.50 0.0842
945.60 0.08416
945.70 0.08413
945.80 0.08409
945.90 0.08406
946.00 0.08402
946.10 0.08399
946.20 0.08395
946.30 0.08392
946.40 0.08388
946.50 0.08385
946.60 0.08381
946.70 0.08378
946.80 0.08375
946.90 0.08371
947.00 0.08368
947.10 0.08364
947.20 0.08361
947.30 0.08357
947.40 0.08354
947.50 0.0835
947.60 0.08347
947.70 0.08344
947.80 0.0834
947.90 0.08337
948.00 0.08333
948.10 0.0833
948.20 0.08326
948.30 0.08323
948.40 0.0832
948.50 0.08316
948.60 0.08313
948.70 0.08309
948.80 0.08306
948.90 0.08302
949.00 0.08299
949.10 0.08296
949.20 0.08292
949.30 0.08289
949.40 0.08285
949.50 0.08282
949.60 0.08279
949.70 0.08275
949.80 0.08272
949.90 0.08269
950.00 0.08265
950.10 0.08262
950.20 0.08258
950.30 0.08255
950.40 0.08252
950.50 0.08248
950.60 0.08245
950.70 0.08241
950.80 0.08238
950.90 0.08235
951.00 0.08231
951.10 0.08228
951.20 0.08225
951.30 0.08221
951.40 0.08218
951.50 0.08215
951.60 0.08211
951.70 0.08208
951.80 0.08205
951.90 0.08201
952.00 0.08198
952.10 0.08195
952.20 0.08191
952.30 0.08188
952.40 0.08185
952.50 0.08181
952.60 0.08178
952.70 0.08175
952.80 0.08171
952.90 0.08168
953.00 0.08165
953.10 0.08161
953.20 0.08158
953.30 0.08155
953.40 0.08151
953.50 0.08148
953.60 0.08145
953.70 0.08142
953.80 0.08138
953.90 0.08135
954.00 0.08132
954.10 0.08128
954.20 0.08125
954.30 0.08122
954.40 0.08119
954.50 0.08115
954.60 0.08112
954.70 0.08109
954.80 0.08105
954.90 0.08102
955.00 0.08099
955.10 0.08095
955.20 0.08092
955.30 0.08089
955.40 0.08085
955.50 0.08082
955.60 0.08079
955.70 0.08075
955.80 0.08072
955.90 0.08069
956.00 0.08065
956.10 0.08062
956.20 0.08059
956.30 0.08055
956.40 0.08052
956.50 0.08049
956.60 0.08045
956.70 0.08042
956.80 0.08039
956.90 0.08036
957.00 0.08032
957.10 0.08029
957.20 0.08026
957.30 0.08022
957.40 0.08019
957.50 0.08016
957.60 0.08013
957.70 0.08009
957.80 0.08006
957.90 0.08003
958.00 0.08
958.10 0.07996
958.20 0.07993
958.30 0.0799
958.40 0.07987
958.50 0.07983
958.60 0.0798
958.70 0.07977
958.80 0.07973
958.90 0.0797
959.00 0.07967
959.10 0.07964
959.20 0.0796
959.30 0.07957
959.40 0.07954
959.50 0.07951
959.60 0.07948
959.70 0.07944
959.80 0.07941
959.90 0.07938
960.00 0.07935
960.10 0.07931
960.20 0.07928
960.30 0.07925
960.40 0.07922
960.50 0.07919
960.60 0.07915
960.70 0.07912
960.80 0.07909
960.90 0.07906
961.00 0.07903
961.10 0.07899
961.20 0.07896
961.30 0.07893
961.40 0.0789
961.50 0.07887
961.60 0.07883
961.70 0.0788
961.80 0.07877
961.90 0.07874
962.00 0.07871
962.10 0.07867
962.20 0.07864
962.30 0.07861
962.40 0.07858
962.50 0.07855
962.60 0.07851
962.70 0.07848
962.80 0.07845
962.90 0.07842
963.00 0.07839
963.10 0.07836
963.20 0.07832
963.30 0.07829
963.40 0.07826
963.50 0.07823
963.60 0.0782
963.70 0.07817
963.80 0.07813
963.90 0.0781
964.00 0.07807
964.10 0.07804
964.20 0.07801
964.30 0.07798
964.40 0.07795
964.50 0.07791
964.60 0.07788
964.70 0.07785
964.80 0.07782
964.90 0.07779
965.00 0.07776
965.10 0.07773
965.20 0.07769
965.30 0.07766
965.40 0.07763
965.50 0.0776
965.60 0.07757
965.70 0.07754
965.80 0.07751
965.90 0.07748
966.00 0.07744
966.10 0.07741
966.20 0.07738
966.30 0.07735
966.40 0.07732
966.50 0.07729
966.60 0.07726
966.70 0.07723
966.80 0.07719
966.90 0.07716
967.00 0.07713
967.10 0.0771
967.20 0.07707
967.30 0.07704
967.40 0.07701
967.50 0.07698
967.60 0.07695
967.70 0.07692
967.80 0.07688
967.90 0.07685
968.00 0.07682
968.10 0.07679
968.20 0.07676
968.30 0.07673
968.40 0.0767
968.50 0.07667
968.60 0.07664
968.70 0.07661
968.80 0.07658
968.90 0.07654
969.00 0.07651
969.10 0.07648
969.20 0.07645
969.30 0.07642
969.40 0.07639
969.50 0.07636
969.60 0.07633
969.70 0.0763
969.80 0.07627
969.90 0.07624
970.00 0.07621
970.10 0.07618
970.20 0.07615
970.30 0.07612
970.40 0.07608
970.50 0.07605
970.60 0.07602
970.70 0.07599
970.80 0.07596
970.90 0.07593
971.00 0.0759
971.10 0.07587
971.20 0.07584
971.30 0.07581
971.40 0.07578
971.50 0.07575
971.60 0.07572
971.70 0.07569
971.80 0.07566
971.90 0.07563
972.00 0.0756
972.10 0.07557
972.20 0.07554
972.30 0.07551
972.40 0.07548
972.50 0.07544
972.60 0.07541
972.70 0.07538
972.80 0.07535
972.90 0.07532
973.00 0.07529
973.10 0.07526
973.20 0.07523
973.30 0.0752
973.40 0.07517
973.50 0.07514
973.60 0.07511
973.70 0.07508
973.80 0.07505
973.90 0.07502
974.00 0.07499
974.10 0.07496
974.20 0.07493
974.30 0.0749
974.40 0.07487
974.50 0.07484
974.60 0.07481
974.70 0.07478
974.80 0.07475
974.90 0.07472
975.00 0.07469
975.10 0.07466
975.20 0.07463
975.30 0.0746
975.40 0.07457
975.50 0.07454
975.60 0.07451
975.70 0.07448
975.80 0.07445
975.90 0.07442
976.00 0.07439
976.10 0.07436
976.20 0.07433
976.30 0.0743
976.40 0.07427
976.50 0.07424
976.60 0.07421
976.70 0.07418
976.80 0.07415
976.90 0.07412
977.00 0.07409
977.10 0.07406
977.20 0.07403
977.30 0.074
977.40 0.07397
977.50 0.07394
977.60 0.07391
977.70 0.07388
977.80 0.07386
977.90 0.07383
978.00 0.0738
978.10 0.07377
978.20 0.07374
978.30 0.07371
978.40 0.07368
978.50 0.07365
978.60 0.07362
978.70 0.07359
978.80 0.07356
978.90 0.07353
979.00 0.0735
979.10 0.07347
979.20 0.07344
979.30 0.07341
979.40 0.07338
979.50 0.07335
979.60 0.07332
979.70 0.07329
979.80 0.07326
979.90 0.07323
980.00 0.07321
980.10 0.07318
980.20 0.07315
980.30 0.07312
980.40 0.07309
980.50 0.07306
980.60 0.07303
980.70 0.073
980.80 0.07297
980.90 0.07294
981.00 0.07291
981.10 0.07288
981.20 0.07285
981.30 0.07282
981.40 0.07279
981.50 0.07277
981.60 0.07274
981.70 0.07271
981.80 0.07268
981.90 0.07265
982.00 0.07262
982.10 0.07259
982.20 0.07256
982.30 0.07253
982.40 0.0725
982.50 0.07247
982.60 0.07244
982.70 0.07242
982.80 0.07239
982.90 0.07236
983.00 0.07233
983.10 0.0723
983.20 0.07227
983.30 0.07224
983.40 0.07221
983.50 0.07218
983.60 0.07215
983.70 0.07212
983.80 0.0721
983.90 0.07207
984.00 0.07204
984.10 0.07201
984.20 0.07198
984.30 0.07195
984.40 0.07192
984.50 0.07189
984.60 0.07186
984.70 0.07183
984.80 0.07181
984.90 0.07178
985.00 0.07175
985.10 0.07172
985.20 0.07169
985.30 0.07166
985.40 0.07163
985.50 0.0716
985.60 0.07158
985.70 0.07155
985.80 0.07152
985.90 0.07149
986.00 0.07146
986.10 0.07143
986.20 0.0714
986.30 0.07137
986.40 0.07135
986.50 0.07132
986.60 0.07129
986.70 0.07126
986.80 0.07123
986.90 0.0712
987.00 0.07117
987.10 0.07114
987.20 0.07112
987.30 0.07109
987.40 0.07106
987.50 0.07103
987.60 0.071
987.70 0.07097
987.80 0.07094
987.90 0.07092
988.00 0.07089
988.10 0.07086
988.20 0.07083
988.30 0.0708
988.40 0.07077
988.50 0.07075
988.60 0.07072
988.70 0.07069
988.80 0.07066
988.90 0.07063
989.00 0.0706
989.10 0.07057
989.20 0.07055
989.30 0.07052
989.40 0.07049
989.50 0.07046
989.60 0.07043
989.70 0.0704
989.80 0.07038
989.90 0.07035
990.00 0.07032
990.10 0.07029
990.20 0.07026
990.30 0.07024
990.40 0.07021
990.50 0.07018
990.60 0.07015
990.70 0.07012
990.80 0.07009
990.90 0.07007
991.00 0.07004
991.10 0.07001
991.20 0.06998
991.30 0.06995
991.40 0.06993
991.50 0.0699
991.60 0.06987
991.70 0.06984
991.80 0.06981
991.90 0.06978
992.00 0.06976
992.10 0.06973
992.20 0.0697
992.30 0.06967
992.40 0.06964
992.50 0.06962
992.60 0.06959
992.70 0.06956
992.80 0.06953
992.90 0.06951
993.00 0.06948
993.10 0.06945
993.20 0.06942
993.30 0.06939
993.40 0.06937
993.50 0.06934
993.60 0.06931
993.70 0.06928
993.80 0.06925
993.90 0.06923
994.00 0.0692
994.10 0.06917
994.20 0.06914
994.30 0.06912
994.40 0.06909
994.50 0.06906
994.60 0.06903
994.70 0.069
994.80 0.06898
994.90 0.06895
995.00 0.06892
995.10 0.06889
995.20 0.06887
995.30 0.06884
995.40 0.06881
995.50 0.06878
995.60 0.06876
995.70 0.06873
995.80 0.0687
995.90 0.06867
996.00 0.06865
996.10 0.06862
996.20 0.06859
996.30 0.06856
996.40 0.06854
996.50 0.06851
996.60 0.06848
996.70 0.06845
996.80 0.06843
996.90 0.0684
997.00 0.06837
997.10 0.06835
997.20 0.06832
997.30 0.06829
997.40 0.06826
997.50 0.06824
997.60 0.06821
997.70 0.06818
997.80 0.06816
997.90 0.06813
998.00 0.0681
998.10 0.06807
998.20 0.06805
998.30 0.06802
998.40 0.06799
998.50 0.06797
998.60 0.06794
998.70 0.06791
998.80 0.06789
998.90 0.06786
999.00 0.06783
999.10 0.06781
999.20 0.06778
999.30 0.06775
999.40 0.06772
999.50 0.0677
999.60 0.06767
999.70 0.06764
999.80 0.06761
999.90 0.06759
1000.00 0.06756
1000.10 0.06753
1000.20 0.0675
1000.30 0.06747
1000.40 0.06744
1000.50 0.06742
1000.60 0.06739
1000.70 0.06736
1000.80 0.06733
1000.90 0.0673
1001.00 0.06727
1001.10 0.06724
1001.20 0.06722
1001.30 0.06719
1001.40 0.06716
1001.50 0.06713
1001.60 0.0671
1001.70 0.06708
1001.80 0.06705
1001.90 0.06703
1002.00 0.067
1002.10 0.06697
1002.20 0.06695
1002.30 0.06692
1002.40 0.0669
1002.50 0.06687
1002.60 0.06685
1002.70 0.06682
1002.80 0.0668
1002.90 0.06677
1003.00 0.06675
1003.10 0.06672
1003.20 0.0667
1003.30 0.06667
1003.40 0.06665
1003.50 0.06662
1003.60 0.0666
1003.70 0.06657
1003.80 0.06655
1003.90 0.06652
1004.00 0.0665
1004.10 0.06648
1004.20 0.06645
1004.30 0.06643
1004.40 0.0664
1004.50 0.06638
1004.60 0.06635
1004.70 0.06633
1004.80 0.0663
1004.90 0.06627
1005.00 0.06625
1005.10 0.06622
1005.20 0.0662
1005.30 0.06617
1005.40 0.06615
1005.50 0.06612
1005.60 0.06609
1005.70 0.06607
1005.80 0.06604
1005.90 0.06601
1006.00 0.06599
1006.10 0.06596
1006.20 0.06593
1006.30 0.06591
1006.40 0.06588
1006.50 0.06585
1006.60 0.06583
1006.70 0.0658
1006.80 0.06577
1006.90 0.06575
1007.00 0.06572
1007.10 0.06569
1007.20 0.06567
1007.30 0.06564
1007.40 0.06562
1007.50 0.06559
1007.60 0.06556
1007.70 0.06554
1007.80 0.06551
1007.90 0.06549
1008.00 0.06546
1008.10 0.06544
1008.20 0.06541
1008.30 0.06539
1008.40 0.06536
1008.50 0.06533
1008.60 0.06531
1008.70 0.06528
1008.80 0.06526
1008.90 0.06523
1009.00 0.06521
1009.10 0.06518
1009.20 0.06516
1009.30 0.06513
1009.40 0.06511
1009.50 0.06508
1009.60 0.06506
1009.70 0.06503
1009.80 0.06501
1009.90 0.06498
1010.00 0.06496
1010.10 0.06493
1010.20 0.06491
1010.30 0.06488
1010.40 0.06486
1010.50 0.06483
1010.60 0.06481
1010.70 0.06478
1010.80 0.06476
1010.90 0.06473
1011.00 0.06471
1011.10 0.06469
1011.20 0.06466
1011.30 0.06464
1011.40 0.06461
1011.50 0.06459
1011.60 0.06456
1011.70 0.06454
1011.80 0.06451
1011.90 0.06449
1012.00 0.06446
1012.10 0.06444
1012.20 0.06442
1012.30 0.06439
1012.40 0.06437
1012.50 0.06434
1012.60 0.06432
1012.70 0.06429
1012.80 0.06427
1012.90 0.06425
1013.00 0.06422
1013.10 0.0642
1013.20 0.06417
1013.30 0.06415
1013.40 0.06413
1013.50 0.0641
1013.60 0.06408
1013.70 0.06405
1013.80 0.06403
1013.90 0.06401
1014.00 0.06398
1014.10 0.06396
1014.20 0.06393
1014.30 0.06391
1014.40 0.06389
1014.50 0.06386
1014.60 0.06384
1014.70 0.06381
1014.80 0.06379
1014.90 0.06377
1015.00 0.06374
1015.10 0.06372
1015.20 0.06369
1015.30 0.06367
1015.40 0.06365
1015.50 0.06362
1015.60 0.0636
1015.70 0.06357
1015.80 0.06355
1015.90 0.06353
1016.00 0.0635
1016.10 0.06348
1016.20 0.06346
1016.30 0.06343
1016.40 0.06341
1016.50 0.06338
1016.60 0.06336
1016.70 0.06334
1016.80 0.06331
1016.90 0.06329
1017.00 0.06327
1017.10 0.06324
1017.20 0.06322
1017.30 0.06319
1017.40 0.06317
1017.50 0.06315
1017.60 0.06312
1017.70 0.0631
1017.80 0.06308
1017.90 0.06305
1018.00 0.06303
1018.10 0.06301
1018.20 0.06298
1018.30 0.06296
1018.40 0.06294
1018.50 0.06291
1018.60 0.06289
1018.70 0.06286
1018.80 0.06284
1018.90 0.06282
1019.00 0.06279
1019.10 0.06277
1019.20 0.06275
1019.30 0.06272
1019.40 0.0627
1019.50 0.06268
1019.60 0.06265
1019.70 0.06263
1019.80 0.06261
1019.90 0.06258
1020.00 0.06256
1020.10 0.06254
1020.20 0.06251
1020.30 0.06249
1020.40 0.06247
1020.50 0.06244
1020.60 0.06242
1020.70 0.0624
1020.80 0.06237
1020.90 0.06235
1021.00 0.06233
1021.10 0.0623
1021.20 0.06228
1021.30 0.06226
1021.40 0.06223
1021.50 0.06221
1021.60 0.06219
1021.70 0.06216
1021.80 0.06214
1021.90 0.06212
1022.00 0.06209
1022.10 0.06207
1022.20 0.06205
1022.30 0.06202
1022.40 0.062
1022.50 0.06198
1022.60 0.06195
1022.70 0.06193
1022.80 0.06191
1022.90 0.06189
1023.00 0.06186
1023.10 0.06184
1023.20 0.06182
1023.30 0.06179
1023.40 0.06177
1023.50 0.06175
1023.60 0.06172
1023.70 0.0617
1023.80 0.06168
1023.90 0.06165
1024.00 0.06163
1024.10 0.06161
1024.20 0.06158
1024.30 0.06156
1024.40 0.06154
1024.50 0.06152
1024.60 0.06149
1024.70 0.06147
1024.80 0.06145
1024.90 0.06142
1025.00 0.0614
1025.10 0.06138
1025.20 0.06135
1025.30 0.06133
1025.40 0.06131
1025.50 0.06129
1025.60 0.06126
1025.70 0.06124
1025.80 0.06122
1025.90 0.06119
1026.00 0.06117
1026.10 0.06115
1026.20 0.06113
1026.30 0.0611
1026.40 0.06108
1026.50 0.06106
1026.60 0.06103
1026.70 0.06101
1026.80 0.06099
1026.90 0.06097
1027.00 0.06094
1027.10 0.06092
1027.20 0.0609
1027.30 0.06087
1027.40 0.06085
1027.50 0.06083
1027.60 0.06081
1027.70 0.06078
1027.80 0.06076
1027.90 0.06074
1028.00 0.06071
1028.10 0.06069
1028.20 0.06067
1028.30 0.06065
1028.40 0.06062
1028.50 0.0606
1028.60 0.06058
1028.70 0.06056
1028.80 0.06053
1028.90 0.06051
1029.00 0.06049
1029.10 0.06047
1029.20 0.06044
1029.30 0.06042
1029.40 0.0604
1029.50 0.06037
1029.60 0.06035
1029.70 0.06033
1029.80 0.06031
1029.90 0.06028
1030.00 0.06026
1030.10 0.06024
1030.20 0.06022
1030.30 0.06019
1030.40 0.06017
1030.50 0.06015
1030.60 0.06013
1030.70 0.0601
1030.80 0.06008
1030.90 0.06006
1031.00 0.06004
1031.10 0.06001
1031.20 0.05999
1031.30 0.05997
1031.40 0.05995
1031.50 0.05992
1031.60 0.0599
1031.70 0.05988
1031.80 0.05986
1031.90 0.05983
1032.00 0.05981
1032.10 0.05979
1032.20 0.05977
1032.30 0.05974
1032.40 0.05972
1032.50 0.0597
1032.60 0.05968
1032.70 0.05965
1032.80 0.05963
1032.90 0.05961
1033.00 0.05959
1033.10 0.05957
1033.20 0.05954
1033.30 0.05952
1033.40 0.0595
1033.50 0.05948
1033.60 0.05945
1033.70 0.05943
1033.80 0.05941
1033.90 0.05939
1034.00 0.05936
1034.10 0.05934
1034.20 0.05932
1034.30 0.0593
1034.40 0.05928
1034.50 0.05925
1034.60 0.05923
1034.70 0.05921
1034.80 0.05919
1034.90 0.05916
1035.00 0.05914
1035.10 0.05912
1035.20 0.0591
1035.30 0.05908
1035.40 0.05905
1035.50 0.05903
1035.60 0.05901
1035.70 0.05899
1035.80 0.05897
1035.90 0.05894
1036.00 0.05892
1036.10 0.0589
1036.20 0.05888
1036.30 0.05886
1036.40 0.05883
1036.50 0.05881
1036.60 0.05879
1036.70 0.05877
1036.80 0.05874
1036.90 0.05872
1037.00 0.0587
1037.10 0.05868
1037.20 0.05866
1037.30 0.05863
1037.40 0.05861
1037.50 0.05859
1037.60 0.05857
1037.70 0.05855
1037.80 0.05853
1037.90 0.0585
1038.00 0.05848
1038.10 0.05846
1038.20 0.05844
1038.30 0.05842
1038.40 0.05839
1038.50 0.05837
1038.60 0.05835
1038.70 0.05833
1038.80 0.05831
1038.90 0.05828
1039.00 0.05826
1039.10 0.05824
1039.20 0.05822
1039.30 0.0582
1039.40 0.05818
1039.50 0.05815
1039.60 0.05813
1039.70 0.05811
1039.80 0.05809
1039.90 0.05807
1040.00 0.05804
1040.10 0.05802
1040.20 0.058
1040.30 0.05798
1040.40 0.05796
1040.50 0.05794
1040.60 0.05791
1040.70 0.05789
1040.80 0.05787
1040.90 0.05785
1041.00 0.05783
1041.10 0.05781
1041.20 0.05778
1041.30 0.05776
1041.40 0.05774
1041.50 0.05772
1041.60 0.0577
1041.70 0.05768
1041.80 0.05765
1041.90 0.05763
1042.00 0.05761
1042.10 0.05759
1042.20 0.05757
1042.30 0.05755
1042.40 0.05752
1042.50 0.0575
1042.60 0.05748
1042.70 0.05746
1042.80 0.05744
1042.90 0.05742
1043.00 0.0574
1043.10 0.05737
1043.20 0.05735
1043.30 0.05733
1043.40 0.05731
1043.50 0.05729
1043.60 0.05727
1043.70 0.05724
1043.80 0.05722
1043.90 0.0572
1044.00 0.05718
1044.10 0.05716
1044.20 0.05714
1044.30 0.05712
1044.40 0.05709
1044.50 0.05707
1044.60 0.05705
1044.70 0.05703
1044.80 0.05701
1044.90 0.05699
1045.00 0.05697
1045.10 0.05695
1045.20 0.05692
1045.30 0.0569
1045.40 0.05688
1045.50 0.05686
1045.60 0.05684
1045.70 0.05682
1045.80 0.0568
1045.90 0.05677
1046.00 0.05675
1046.10 0.05673
1046.20 0.05671
1046.30 0.05669
1046.40 0.05667
1046.50 0.05665
1046.60 0.05663
1046.70 0.0566
1046.80 0.05658
1046.90 0.05656
1047.00 0.05654
1047.10 0.05652
1047.20 0.0565
1047.30 0.05648
1047.40 0.05646
1047.50 0.05644
1047.60 0.05641
1047.70 0.05639
1047.80 0.05637
1047.90 0.05635
1048.00 0.05633
1048.10 0.05631
1048.20 0.05629
1048.30 0.05627
1048.40 0.05625
1048.50 0.05622
1048.60 0.0562
1048.70 0.05618
1048.80 0.05616
1048.90 0.05614
1049.00 0.05612
1049.10 0.0561
1049.20 0.05608
1049.30 0.05606
1049.40 0.05603
1049.50 0.05601
1049.60 0.05599
1049.70 0.05597
1049.80 0.05595
1049.90 0.05593
1050.00 0.05591
1050.10 0.05589
1050.20 0.05587
1050.30 0.05585
1050.40 0.05583
1050.50 0.0558
1050.60 0.05578
1050.70 0.05576
1050.80 0.05574
1050.90 0.05572
1051.00 0.0557
1051.10 0.05568
1051.20 0.05566
1051.30 0.05564
1051.40 0.05562
1051.50 0.0556
1051.60 0.05557
1051.70 0.05555
1051.80 0.05553
1051.90 0.05551
1052.00 0.05549
1052.10 0.05547
1052.20 0.05545
1052.30 0.05543
1052.40 0.05541
1052.50 0.05539
1052.60 0.05537
1052.70 0.05535
1052.80 0.05533
1052.90 0.0553
1053.00 0.05528
1053.10 0.05526
1053.20 0.05524
1053.30 0.05522
1053.40 0.0552
1053.50 0.05518
1053.60 0.05516
1053.70 0.05514
1053.80 0.05512
1053.90 0.0551
1054.00 0.05508
1054.10 0.05506
1054.20 0.05504
1054.30 0.05501
1054.40 0.05499
1054.50 0.05497
1054.60 0.05495
1054.70 0.05493
1054.80 0.05491
1054.90 0.05489
1055.00 0.05487
1055.10 0.05485
1055.20 0.05483
1055.30 0.05481
1055.40 0.05479
1055.50 0.05477
1055.60 0.05475
1055.70 0.05473
1055.80 0.05471
1055.90 0.05469
1056.00 0.05467
1056.10 0.05464
1056.20 0.05462
1056.30 0.0546
1056.40 0.05458
1056.50 0.05456
1056.60 0.05454
1056.70 0.05452
1056.80 0.0545
1056.90 0.05448
1057.00 0.05446
1057.10 0.05444
1057.20 0.05442
1057.30 0.0544
1057.40 0.05438
1057.50 0.05436
1057.60 0.05434
1057.70 0.05432
1057.80 0.0543
1057.90 0.05428
1058.00 0.05426
1058.10 0.05424
1058.20 0.05422
1058.30 0.0542
1058.40 0.05417
1058.50 0.05415
1058.60 0.05413
1058.70 0.05411
1058.80 0.05409
1058.90 0.05407
1059.00 0.05405
1059.10 0.05403
1059.20 0.05401
1059.30 0.05399
1059.40 0.05397
1059.50 0.05395
1059.60 0.05393
1059.70 0.05391
1059.80 0.05389
1059.90 0.05387
1060.00 0.05385
1060.10 0.05383
1060.20 0.05381
1060.30 0.05379
1060.40 0.05377
1060.50 0.05375
1060.60 0.05373
1060.70 0.05371
1060.80 0.05369
1060.90 0.05367
1061.00 0.05365
1061.10 0.05363
1061.20 0.05361
1061.30 0.05359
1061.40 0.05357
1061.50 0.05355
1061.60 0.05353
1061.70 0.05351
1061.80 0.05349
1061.90 0.05347
1062.00 0.05345
1062.10 0.05343
1062.20 0.05341
1062.30 0.05339
1062.40 0.05337
1062.50 0.05335
1062.60 0.05333
1062.70 0.05331
1062.80 0.05329
1062.90 0.05327
1063.00 0.05325
1063.10 0.05323
1063.20 0.05321
1063.30 0.05319
1063.40 0.05317
1063.50 0.05315
1063.60 0.05313
1063.70 0.05311
1063.80 0.05309
1063.90 0.05307
1064.00 0.05305
1064.10 0.05303
1064.20 0.05301
1064.30 0.05299
1064.40 0.05297
1064.50 0.05295
1064.60 0.05293
1064.70 0.05291
1064.80 0.05289
1064.90 0.05287
1065.00 0.05285
1065.10 0.05283
1065.20 0.05281
1065.30 0.05279
1065.40 0.05277
1065.50 0.05275
1065.60 0.05273
1065.70 0.05271
1065.80 0.05269
1065.90 0.05267
1066.00 0.05265
1066.10 0.05263
1066.20 0.05261
1066.30 0.05259
1066.40 0.05257
1066.50 0.05255
1066.60 0.05253
1066.70 0.05251
1066.80 0.05249
1066.90 0.05247
1067.00 0.05245
1067.10 0.05243
1067.20 0.05241
1067.30 0.05239
1067.40 0.05237
1067.50 0.05235
1067.60 0.05233
1067.70 0.05231
1067.80 0.05229
1067.90 0.05227
1068.00 0.05225
1068.10 0.05223
1068.20 0.05221
1068.30 0.05219
1068.40 0.05217
1068.50 0.05215
1068.60 0.05213
1068.70 0.05211
1068.80 0.05209
1068.90 0.05207
1069.00 0.05205
1069.10 0.05203
1069.20 0.05201
1069.30 0.05199
1069.40 0.05197
1069.50 0.05195
1069.60 0.05193
1069.70 0.05191
1069.80 0.05189
1069.90 0.05188
1070.00 0.05186
1070.10 0.05184
1070.20 0.05182
1070.30 0.0518
1070.40 0.05178
1070.50 0.05176
1070.60 0.05174
1070.70 0.05172
1070.80 0.0517
1070.90 0.05168
1071.00 0.05166
1071.10 0.05164
1071.20 0.05162
1071.30 0.0516
1071.40 0.05158
1071.50 0.05156
1071.60 0.05154
1071.70 0.05152
1071.80 0.0515
1071.90 0.05148
1072.00 0.05146
1072.10 0.05144
1072.20 0.05142
1072.30 0.0514
1072.40 0.05138
1072.50 0.05137
1072.60 0.05135
1072.70 0.05133
1072.80 0.05131
1072.90 0.05129
1073.00 0.05127
1073.10 0.05125
1073.20 0.05123
1073.30 0.05121
1073.40 0.05119
1073.50 0.05117
1073.60 0.05115
1073.70 0.05113
1073.80 0.05111
1073.90 0.05109
1074.00 0.05107
1074.10 0.05105
1074.20 0.05103
1074.30 0.05101
1074.40 0.05099
1074.50 0.05097
1074.60 0.05095
1074.70 0.05093
1074.80 0.05092
1074.90 0.0509
1075.00 0.05088
1075.10 0.05086
1075.20 0.05084
1075.30 0.05082
1075.40 0.0508
1075.50 0.05078
1075.60 0.05076
1075.70 0.05074
1075.80 0.05072
1075.90 0.0507
1076.00 0.05068
1076.10 0.05066
1076.20 0.05064
1076.30 0.05062
1076.40 0.0506
1076.50 0.05058
1076.60 0.05057
1076.70 0.05055
1076.80 0.05053
1076.90 0.05051
1077.00 0.05049
1077.10 0.05047
1077.20 0.05045
1077.30 0.05043
1077.40 0.05041
1077.50 0.05039
1077.60 0.05037
1077.70 0.05035
1077.80 0.05033
1077.90 0.05031
1078.00 0.05029
1078.10 0.05027
1078.20 0.05025
1078.30 0.05024
1078.40 0.05022
1078.50 0.0502
1078.60 0.05018
1078.70 0.05016
1078.80 0.05014
1078.90 0.05012
1079.00 0.0501
1079.10 0.05008
1079.20 0.05006
1079.30 0.05004
1079.40 0.05002
1079.50 0.05
1079.60 0.04998
1079.70 0.04996
1079.80 0.04995
1079.90 0.04993
1080.00 0.04991
1080.10 0.04989
1080.20 0.04987
1080.30 0.04985
1080.40 0.04983
1080.50 0.04981
1080.60 0.04979
1080.70 0.04977
1080.80 0.04975
1080.90 0.04973
1081.00 0.04971
1081.10 0.04969
1081.20 0.04968
1081.30 0.04966
1081.40 0.04964
1081.50 0.04962
1081.60 0.0496
1081.70 0.04958
1081.80 0.04956
1081.90 0.04954
1082.00 0.04952
1082.10 0.0495
1082.20 0.04948
1082.30 0.04946
1082.40 0.04944
1082.50 0.04943
1082.60 0.04941
1082.70 0.04939
1082.80 0.04937
1082.90 0.04935
1083.00 0.04933
1083.10 0.04931
1083.20 0.04929
1083.30 0.04927
1083.40 0.04925
1083.50 0.04923
1083.60 0.04921
1083.70 0.0492
1083.80 0.04918
1083.90 0.04916
1084.00 0.04914
1084.10 0.04912
1084.20 0.0491
1084.30 0.04908
1084.40 0.04906
1084.50 0.04904
1084.60 0.04902
1084.70 0.04901
1084.80 0.04899
1084.90 0.04897
1085.00 0.04895
1085.10 0.04893
1085.20 0.04891
1085.30 0.04889
1085.40 0.04887
1085.50 0.04885
1085.60 0.04884
1085.70 0.04882
1085.80 0.0488
1085.90 0.04878
1086.00 0.04876
1086.10 0.04874
1086.20 0.04872
1086.30 0.0487
1086.40 0.04868
1086.50 0.04867
1086.60 0.04865
1086.70 0.04863
1086.80 0.04861
1086.90 0.04859
1087.00 0.04857
1087.10 0.04855
1087.20 0.04853
1087.30 0.04852
1087.40 0.0485
1087.50 0.04848
1087.60 0.04846
1087.70 0.04844
1087.80 0.04842
1087.90 0.0484
1088.00 0.04839
1088.10 0.04837
1088.20 0.04835
1088.30 0.04833
1088.40 0.04831
1088.50 0.04829
1088.60 0.04827
1088.70 0.04826
1088.80 0.04824
1088.90 0.04822
1089.00 0.0482
1089.10 0.04818
1089.20 0.04817
1089.30 0.04815
1089.40 0.04813
1089.50 0.04811
1089.60 0.04809
1089.70 0.04807
1089.80 0.04806
1089.90 0.04804
1090.00 0.04802
1090.10 0.048
1090.20 0.04798
1090.30 0.04796
1090.40 0.04795
1090.50 0.04793
1090.60 0.04791
1090.70 0.04789
1090.80 0.04787
1090.90 0.04786
1091.00 0.04784
1091.10 0.04782
1091.20 0.0478
1091.30 0.04779
1091.40 0.04777
1091.50 0.04775
1091.60 0.04773
1091.70 0.04771
1091.80 0.0477
1091.90 0.04768
1092.00 0.04766
1092.10 0.04764
1092.20 0.04763
1092.30 0.04761
1092.40 0.04759
1092.50 0.04757
1092.60 0.04756
1092.70 0.04754
1092.80 0.04752
1092.90 0.04751
1093.00 0.04749
1093.10 0.04747
1093.20 0.04746
1093.30 0.04744
1093.40 0.04743
1093.50 0.04742
1093.60 0.04741
1093.70 0.0474
1093.80 0.04739
1093.90 0.04737
1094.00 0.04735
1094.10 0.04733
1094.20 0.0473
1094.30 0.04728
1094.40 0.04727
1094.50 0.04725
1094.60 0.04723
1094.70 0.04721
1094.80 0.04719
1094.90 0.04718
1095.00 0.04716
1095.10 0.04714
1095.20 0.04713
1095.30 0.04711
1095.40 0.04709
1095.50 0.04708
1095.60 0.04706
1095.70 0.04705
1095.80 0.04703
1095.90 0.04701
1096.00 0.047
1096.10 0.04698
1096.20 0.04697
1096.30 0.04695
1096.40 0.04693
1096.50 0.04692
1096.60 0.0469
1096.70 0.04689
1096.80 0.04687
1096.90 0.04685
1097.00 0.04684
1097.10 0.04682
1097.20 0.04681
1097.30 0.04679
1097.40 0.04678
1097.50 0.04676
1097.60 0.04674
1097.70 0.04673
1097.80 0.04671
1097.90 0.0467
1098.00 0.04668
1098.10 0.04667
1098.20 0.04665
1098.30 0.04664
1098.40 0.04662
1098.50 0.0466
1098.60 0.04659
1098.70 0.04657
1098.80 0.04656
1098.90 0.04654
1099.00 0.04653
1099.10 0.04651
1099.20 0.0465
1099.30 0.04648
1099.40 0.04647
1099.50 0.04645
1099.60 0.04643
1099.70 0.04642
1099.80 0.0464
1099.90 0.04639
1100.00 0.04637
1100.10 0.04636
1100.20 0.04634
1100.30 0.04633
1100.40 0.04631
1100.50 0.0463
1100.60 0.04628
1100.70 0.04627
1100.80 0.04625
1100.90 0.04624
1101.00 0.04622
1101.10 0.04621
1101.20 0.04619
1101.30 0.04618
1101.40 0.04616
1101.50 0.04615
1101.60 0.04613
1101.70 0.04612
1101.80 0.0461
1101.90 0.04609
1102.00 0.04607
1102.10 0.04606
1102.20 0.04604
1102.30 0.04603
1102.40 0.04601
1102.50 0.046
1102.60 0.04598
1102.70 0.04597
1102.80 0.04595
1102.90 0.04594
1103.00 0.04592
1103.10 0.04591
1103.20 0.04589
1103.30 0.04588
1103.40 0.04586
1103.50 0.04585
1103.60 0.04583
1103.70 0.04582
1103.80 0.0458
1103.90 0.04579
1104.00 0.04577
1104.10 0.04576
1104.20 0.04574
1104.30 0.04573
1104.40 0.04571
1104.50 0.0457
1104.60 0.04568
1104.70 0.04567
1104.80 0.04565
1104.90 0.04564
1105.00 0.04562
1105.10 0.04561
1105.20 0.04559
1105.30 0.04558
1105.40 0.04556
1105.50 0.04555
1105.60 0.04553
1105.70 0.04552
1105.80 0.0455
1105.90 0.04549
1106.00 0.04547
1106.10 0.04546
1106.20 0.04544
1106.30 0.04543
1106.40 0.04541
1106.50 0.0454
1106.60 0.04538
1106.70 0.04537
1106.80 0.04535
1106.90 0.04534
1107.00 0.04532
1107.10 0.04531
1107.20 0.04529
1107.30 0.04528
1107.40 0.04526
1107.50 0.04525
1107.60 0.04523
1107.70 0.04522
1107.80 0.0452
1107.90 0.04519
1108.00 0.04518
1108.10 0.04516
1108.20 0.04515
1108.30 0.04513
1108.40 0.04512
1108.50 0.0451
1108.60 0.04509
1108.70 0.04507
1108.80 0.04506
1108.90 0.04504
1109.00 0.04503
1109.10 0.04501
1109.20 0.045
1109.30 0.04498
1109.40 0.04497
1109.50 0.04495
1109.60 0.04494
1109.70 0.04492
1109.80 0.04491
1109.90 0.04489
1110.00 0.04488
1110.10 0.04486
1110.20 0.04485
1110.30 0.04483
1110.40 0.04482
1110.50 0.0448
1110.60 0.04479
1110.70 0.04477
1110.80 0.04476
1110.90 0.04474
1111.00 0.04473
1111.10 0.04472
1111.20 0.0447
1111.30 0.04469
1111.40 0.04467
1111.50 0.04466
1111.60 0.04464
1111.70 0.04463
1111.80 0.04461
1111.90 0.0446
1112.00 0.04458
1112.10 0.04457
1112.20 0.04455
1112.30 0.04454
1112.40 0.04452
1112.50 0.04451
1112.60 0.04449
1112.70 0.04448
1112.80 0.04446
1112.90 0.04445
1113.00 0.04443
1113.10 0.04442
1113.20 0.0444
1113.30 0.04439
1113.40 0.04437
1113.50 0.04436
1113.60 0.04435
1113.70 0.04433
1113.80 0.04432
1113.90 0.0443
1114.00 0.04429
1114.10 0.04427
1114.20 0.04426
1114.30 0.04424
1114.40 0.04423
1114.50 0.04421
1114.60 0.0442
1114.70 0.04418
1114.80 0.04417
1114.90 0.04415
1115.00 0.04414
1115.10 0.04412
1115.20 0.04411
1115.30 0.04409
1115.40 0.04408
1115.50 0.04406
1115.60 0.04405
1115.70 0.04403
1115.80 0.04402
1115.90 0.044
1116.00 0.04399
1116.10 0.04397
1116.20 0.04396
1116.30 0.04395
1116.40 0.04393
1116.50 0.04392
1116.60 0.0439
1116.70 0.04389
1116.80 0.04387
1116.90 0.04386
1117.00 0.04384
1117.10 0.04383
1117.20 0.04381
1117.30 0.0438
1117.40 0.04378
1117.50 0.04377
1117.60 0.04375
1117.70 0.04374
1117.80 0.04372
1117.90 0.04371
1118.00 0.04369
1118.10 0.04368
1118.20 0.04367
1118.30 0.04365
1118.40 0.04364
1118.50 0.04362
1118.60 0.04361
1118.70 0.04359
1118.80 0.04358
1118.90 0.04356
1119.00 0.04355
1119.10 0.04353
1119.20 0.04352
1119.30 0.0435
1119.40 0.04349
1119.50 0.04347
1119.60 0.04346
1119.70 0.04344
1119.80 0.04343
1119.90 0.04341
1120.00 0.0434
1120.10 0.04339
1120.20 0.04337
1120.30 0.04336
1120.40 0.04334
1120.50 0.04333
1120.60 0.04331
1120.70 0.0433
1120.80 0.04328
1120.90 0.04327
1121.00 0.04325
1121.10 0.04324
1121.20 0.04322
1121.30 0.04321
1121.40 0.0432
1121.50 0.04318
1121.60 0.04317
1121.70 0.04315
1121.80 0.04314
1121.90 0.04312
1122.00 0.04311
1122.10 0.04309
1122.20 0.04308
1122.30 0.04306
1122.40 0.04305
1122.50 0.04303
1122.60 0.04302
1122.70 0.04301
1122.80 0.04299
1122.90 0.04298
1123.00 0.04296
1123.10 0.04295
1123.20 0.04293
1123.30 0.04292
1123.40 0.0429
1123.50 0.04289
1123.60 0.04287
1123.70 0.04286
1123.80 0.04284
1123.90 0.04283
1124.00 0.04282
1124.10 0.0428
1124.20 0.04279
1124.30 0.04277
1124.40 0.04276
1124.50 0.04274
1124.60 0.04273
1124.70 0.04271
1124.80 0.0427
1124.90 0.04268
1125.00 0.04267
1125.10 0.04266
1125.20 0.04264
1125.30 0.04263
1125.40 0.04261
1125.50 0.0426
1125.60 0.04258
1125.70 0.04257
1125.80 0.04255
1125.90 0.04254
1126.00 0.04252
1126.10 0.04251
1126.20 0.0425
1126.30 0.04248
1126.40 0.04247
1126.50 0.04245
1126.60 0.04244
1126.70 0.04242
1126.80 0.04241
1126.90 0.04239
1127.00 0.04238
1127.10 0.04237
1127.20 0.04235
1127.30 0.04234
1127.40 0.04232
1127.50 0.04231
1127.60 0.04229
1127.70 0.04228
1127.80 0.04226
1127.90 0.04225
1128.00 0.04224
1128.10 0.04222
1128.20 0.04221
1128.30 0.04219
1128.40 0.04218
1128.50 0.04216
1128.60 0.04215
1128.70 0.04214
1128.80 0.04212
1128.90 0.04211
1129.00 0.04209
1129.10 0.04208
1129.20 0.04206
1129.30 0.04205
1129.40 0.04203
1129.50 0.04202
1129.60 0.04201
1129.70 0.04199
1129.80 0.04198
1129.90 0.04196
1130.00 0.04195
1130.10 0.04193
1130.20 0.04192
1130.30 0.04191
1130.40 0.04189
1130.50 0.04188
1130.60 0.04186
1130.70 0.04185
1130.80 0.04183
1130.90 0.04182
1131.00 0.04181
1131.10 0.04179
1131.20 0.04178
1131.30 0.04176
1131.40 0.04175
1131.50 0.04173
1131.60 0.04172
1131.70 0.04171
1131.80 0.04169
1131.90 0.04168
1132.00 0.04166
1132.10 0.04165
1132.20 0.04164
1132.30 0.04162
1132.40 0.04161
1132.50 0.04159
1132.60 0.04158
1132.70 0.04156
1132.80 0.04155
1132.90 0.04154
1133.00 0.04152
1133.10 0.04151
1133.20 0.04149
1133.30 0.04148
1133.40 0.04146
1133.50 0.04145
1133.60 0.04144
1133.70 0.04142
1133.80 0.04141
1133.90 0.04139
1134.00 0.04138
1134.10 0.04137
1134.20 0.04135
1134.30 0.04134
1134.40 0.04132
1134.50 0.04131
1134.60 0.0413
1134.70 0.04128
1134.80 0.04127
1134.90 0.04125
1135.00 0.04124
1135.10 0.04122
1135.20 0.04121
1135.30 0.0412
1135.40 0.04118
1135.50 0.04117
1135.60 0.04115
1135.70 0.04114
1135.80 0.04113
1135.90 0.04111
1136.00 0.0411
1136.10 0.04108
1136.20 0.04107
1136.30 0.04106
1136.40 0.04104
1136.50 0.04103
1136.60 0.04101
1136.70 0.041
1136.80 0.04099
1136.90 0.04097
1137.00 0.04096
1137.10 0.04094
1137.20 0.04093
1137.30 0.04092
1137.40 0.0409
1137.50 0.04089
1137.60 0.04087
1137.70 0.04086
1137.80 0.04085
1137.90 0.04083
1138.00 0.04082
1138.10 0.0408
1138.20 0.04079
1138.30 0.04078
1138.40 0.04076
1138.50 0.04075
1138.60 0.04073
1138.70 0.04072
1138.80 0.04071
1138.90 0.04069
1139.00 0.04068
1139.10 0.04067
1139.20 0.04065
1139.30 0.04064
1139.40 0.04062
1139.50 0.04061
1139.60 0.0406
1139.70 0.04058
1139.80 0.04057
1139.90 0.04055
1140.00 0.04054
1140.10 0.04053
1140.20 0.04051
1140.30 0.0405
1140.40 0.04049
1140.50 0.04047
1140.60 0.04046
1140.70 0.04044
1140.80 0.04043
1140.90 0.04042
1141.00 0.0404
1141.10 0.04039
1141.20 0.04037
1141.30 0.04036
1141.40 0.04035
1141.50 0.04033
1141.60 0.04032
1141.70 0.04031
1141.80 0.04029
1141.90 0.04028
1142.00 0.04026
1142.10 0.04025
1142.20 0.04024
1142.30 0.04022
1142.40 0.04021
1142.50 0.0402
1142.60 0.04018
1142.70 0.04017
1142.80 0.04016
1142.90 0.04014
1143.00 0.04013
1143.10 0.04011
1143.20 0.0401
1143.30 0.04009
1143.40 0.04007
1143.50 0.04006
1143.60 0.04005
1143.70 0.04003
1143.80 0.04002
1143.90 0.04
1144.00 0.03999
1144.10 0.03998
1144.20 0.03996
1144.30 0.03995
1144.40 0.03994
1144.50 0.03992
1144.60 0.03991
1144.70 0.0399
1144.80 0.03988
1144.90 0.03987
1145.00 0.03986
1145.10 0.03984
1145.20 0.03983
1145.30 0.03981
1145.40 0.0398
1145.50 0.03979
1145.60 0.03977
1145.70 0.03976
1145.80 0.03975
1145.90 0.03973
1146.00 0.03972
1146.10 0.03971
1146.20 0.03969
1146.30 0.03968
1146.40 0.03967
1146.50 0.03965
1146.60 0.03964
1146.70 0.03962
1146.80 0.03961
1146.90 0.0396
1147.00 0.03958
1147.10 0.03957
1147.20 0.03956
1147.30 0.03954
1147.40 0.03953
1147.50 0.03952
1147.60 0.0395
1147.70 0.03949
1147.80 0.03948
1147.90 0.03946
1148.00 0.03945
1148.10 0.03944
1148.20 0.03942
1148.30 0.03941
1148.40 0.0394
1148.50 0.03938
1148.60 0.03937
1148.70 0.03936
1148.80 0.03934
1148.90 0.03933
1149.00 0.03932
1149.10 0.0393
1149.20 0.03929
1149.30 0.03928
1149.40 0.03926
1149.50 0.03925
1149.60 0.03924
1149.70 0.03922
1149.80 0.03921
1149.90 0.0392
1150.00 0.03918
1150.10 0.03917
1150.20 0.03916
1150.30 0.03914
1150.40 0.03913
1150.50 0.03912
1150.60 0.0391
1150.70 0.03909
1150.80 0.03908
1150.90 0.03906
1151.00 0.03905
1151.10 0.03904
1151.20 0.03902
1151.30 0.03901
1151.40 0.039
1151.50 0.03898
1151.60 0.03897
1151.70 0.03896
1151.80 0.03894
1151.90 0.03893
1152.00 0.03892
1152.10 0.0389
1152.20 0.03889
1152.30 0.03888
1152.40 0.03886
1152.50 0.03885
1152.60 0.03884
1152.70 0.03883
1152.80 0.03881
1152.90 0.0388
1153.00 0.03879
1153.10 0.03877
1153.20 0.03876
1153.30 0.03875
1153.40 0.03873
1153.50 0.03872
1153.60 0.03871
1153.70 0.03869
1153.80 0.03868
1153.90 0.03867
1154.00 0.03865
1154.10 0.03864
1154.20 0.03863
1154.30 0.03862
1154.40 0.0386
1154.50 0.03859
1154.60 0.03858
1154.70 0.03856
1154.80 0.03855
1154.90 0.03854
1155.00 0.03852
1155.10 0.03851
1155.20 0.0385
1155.30 0.03848
1155.40 0.03847
1155.50 0.03846
1155.60 0.03845
1155.70 0.03843
1155.80 0.03842
1155.90 0.03841
1156.00 0.03839
1156.10 0.03838
1156.20 0.03837
1156.30 0.03835
1156.40 0.03834
1156.50 0.03833
1156.60 0.03832
1156.70 0.0383
1156.80 0.03829
1156.90 0.03828
1157.00 0.03826
1157.10 0.03825
1157.20 0.03824
1157.30 0.03822
1157.40 0.03821
1157.50 0.0382
1157.60 0.03819
1157.70 0.03817
1157.80 0.03816
1157.90 0.03815
1158.00 0.03813
1158.10 0.03812
1158.20 0.03811
1158.30 0.0381
1158.40 0.03808
1158.50 0.03807
1158.60 0.03806
1158.70 0.03804
1158.80 0.03803
1158.90 0.03802
1159.00 0.03801
1159.10 0.03799
1159.20 0.03798
1159.30 0.03797
1159.40 0.03795
1159.50 0.03794
1159.60 0.03793
1159.70 0.03792
1159.80 0.0379
1159.90 0.03789
1160.00 0.03788
1160.10 0.03787
1160.20 0.03785
1160.30 0.03784
1160.40 0.03783
1160.50 0.03781
1160.60 0.0378
1160.70 0.03779
1160.80 0.03778
1160.90 0.03776
1161.00 0.03775
1161.10 0.03774
1161.20 0.03772
1161.30 0.03771
1161.40 0.0377
1161.50 0.03769
1161.60 0.03767
1161.70 0.03766
1161.80 0.03765
1161.90 0.03764
1162.00 0.03762
1162.10 0.03761
1162.20 0.0376
1162.30 0.03758
1162.40 0.03757
1162.50 0.03756
1162.60 0.03755
1162.70 0.03753
1162.80 0.03752
1162.90 0.03751
1163.00 0.0375
1163.10 0.03748
1163.20 0.03747
1163.30 0.03746
1163.40 0.03745
1163.50 0.03743
1163.60 0.03742
1163.70 0.03741
1163.80 0.0374
1163.90 0.03738
1164.00 0.03737
1164.10 0.03736
1164.20 0.03735
1164.30 0.03733
1164.40 0.03732
1164.50 0.03731
1164.60 0.0373
1164.70 0.03728
1164.80 0.03727
1164.90 0.03726
1165.00 0.03724
1165.10 0.03723
1165.20 0.03722
1165.30 0.03721
1165.40 0.03719
1165.50 0.03718
1165.60 0.03717
1165.70 0.03716
1165.80 0.03714
1165.90 0.03713
1166.00 0.03712
1166.10 0.03711
1166.20 0.03709
1166.30 0.03708
1166.40 0.03707
1166.50 0.03706
1166.60 0.03704
1166.70 0.03703
1166.80 0.03702
1166.90 0.03701
1167.00 0.03699
1167.10 0.03698
1167.20 0.03697
1167.30 0.03696
1167.40 0.03695
1167.50 0.03693
1167.60 0.03692
1167.70 0.03691
1167.80 0.0369
1167.90 0.03688
1168.00 0.03687
1168.10 0.03686
1168.20 0.03685
1168.30 0.03683
1168.40 0.03682
1168.50 0.03681
1168.60 0.0368
1168.70 0.03678
1168.80 0.03677
1168.90 0.03676
1169.00 0.03675
1169.10 0.03674
1169.20 0.03672
1169.30 0.03671
1169.40 0.0367
1169.50 0.03669
1169.60 0.03667
1169.70 0.03666
1169.80 0.03665
1169.90 0.03664
1170.00 0.03662
1170.10 0.03661
1170.20 0.0366
1170.30 0.03659
1170.40 0.03658
1170.50 0.03656
1170.60 0.03655
1170.70 0.03654
1170.80 0.03653
1170.90 0.03651
1171.00 0.0365
1171.10 0.03649
1171.20 0.03648
1171.30 0.03647
1171.40 0.03645
1171.50 0.03644
1171.60 0.03643
1171.70 0.03642
1171.80 0.0364
1171.90 0.03639
1172.00 0.03638
1172.10 0.03637
1172.20 0.03636
1172.30 0.03634
1172.40 0.03633
1172.50 0.03632
1172.60 0.03631
1172.70 0.03629
1172.80 0.03628
1172.90 0.03627
1173.00 0.03626
1173.10 0.03625
1173.20 0.03623
1173.30 0.03622
1173.40 0.03621
1173.50 0.0362
1173.60 0.03619
1173.70 0.03617
1173.80 0.03616
1173.90 0.03615
1174.00 0.03614
1174.10 0.03613
1174.20 0.03611
1174.30 0.0361
1174.40 0.03609
1174.50 0.03608
1174.60 0.03607
1174.70 0.03605
1174.80 0.03604
1174.90 0.03603
1175.00 0.03602
1175.10 0.03601
1175.20 0.03599
1175.30 0.03598
1175.40 0.03597
1175.50 0.03596
1175.60 0.03594
1175.70 0.03593
1175.80 0.03592
1175.90 0.03591
1176.00 0.0359
1176.10 0.03588
1176.20 0.03587
1176.30 0.03586
1176.40 0.03585
1176.50 0.03584
1176.60 0.03583
1176.70 0.03581
1176.80 0.0358
1176.90 0.03579
1177.00 0.03578
1177.10 0.03577
1177.20 0.03575
1177.30 0.03574
1177.40 0.03573
1177.50 0.03572
1177.60 0.03571
1177.70 0.03569
1177.80 0.03568
1177.90 0.03567
1178.00 0.03566
1178.10 0.03565
1178.20 0.03563
1178.30 0.03562
1178.40 0.03561
1178.50 0.0356
1178.60 0.03559
1178.70 0.03558
1178.80 0.03556
1178.90 0.03555
1179.00 0.03554
1179.10 0.03553
1179.20 0.03552
1179.30 0.0355
1179.40 0.03549
1179.50 0.03548
1179.60 0.03547
1179.70 0.03546
1179.80 0.03545
1179.90 0.03543
1180.00 0.03542
1180.10 0.03541
1180.20 0.0354
1180.30 0.03539
1180.40 0.03537
1180.50 0.03536
1180.60 0.03535
1180.70 0.03534
1180.80 0.03533
1180.90 0.03532
1181.00 0.0353
1181.10 0.03529
1181.20 0.03528
1181.30 0.03527
1181.40 0.03526
1181.50 0.03525
1181.60 0.03523
1181.70 0.03522
1181.80 0.03521
1181.90 0.0352
1182.00 0.03519
1182.10 0.03518
1182.20 0.03516
1182.30 0.03515
1182.40 0.03514
1182.50 0.03513
1182.60 0.03512
1182.70 0.03511
1182.80 0.03509
1182.90 0.03508
1183.00 0.03507
1183.10 0.03506
1183.20 0.03505
1183.30 0.03504
1183.40 0.03502
1183.50 0.03501
1183.60 0.035
1183.70 0.03499
1183.80 0.03498
1183.90 0.03497
1184.00 0.03495
1184.10 0.03494
1184.20 0.03493
1184.30 0.03492
1184.40 0.03491
1184.50 0.0349
1184.60 0.03488
1184.70 0.03487
1184.80 0.03486
1184.90 0.03485
1185.00 0.03484
1185.10 0.03483
1185.20 0.03482
1185.30 0.0348
1185.40 0.03479
1185.50 0.03478
1185.60 0.03477
1185.70 0.03476
1185.80 0.03475
1185.90 0.03473
1186.00 0.03472
1186.10 0.03471
1186.20 0.0347
1186.30 0.03469
1186.40 0.03468
1186.50 0.03467
1186.60 0.03465
1186.70 0.03464
1186.80 0.03463
1186.90 0.03462
1187.00 0.03461
1187.10 0.0346
1187.20 0.03459
1187.30 0.03457
1187.40 0.03456
1187.50 0.03455
1187.60 0.03454
1187.70 0.03453
1187.80 0.03452
1187.90 0.03451
1188.00 0.03449
1188.10 0.03448
1188.20 0.03447
1188.30 0.03446
1188.40 0.03445
1188.50 0.03444
1188.60 0.03443
1188.70 0.03441
1188.80 0.0344
1188.90 0.03439
1189.00 0.03438
1189.10 0.03437
1189.20 0.03436
1189.30 0.03435
1189.40 0.03433
1189.50 0.03432
1189.60 0.03431
1189.70 0.0343
1189.80 0.03429
1189.90 0.03428
1190.00 0.03427
1190.10 0.03426
1190.20 0.03424
1190.30 0.03423
1190.40 0.03422
1190.50 0.03421
1190.60 0.0342
1190.70 0.03419
1190.80 0.03418
1190.90 0.03417
1191.00 0.03415
1191.10 0.03414
1191.20 0.03413
1191.30 0.03412
1191.40 0.03411
1191.50 0.0341
1191.60 0.03409
1191.70 0.03407
1191.80 0.03406
1191.90 0.03405
1192.00 0.03404
1192.10 0.03403
1192.20 0.03402
1192.30 0.03401
1192.40 0.034
1192.50 0.03399
1192.60 0.03397
1192.70 0.03396
1192.80 0.03395
1192.90 0.03394
1193.00 0.03393
1193.10 0.03392
1193.20 0.03391
1193.30 0.0339
1193.40 0.03388
1193.50 0.03387
1193.60 0.03386
1193.70 0.03385
1193.80 0.03384
1193.90 0.03383
1194.00 0.03382
1194.10 0.03381
1194.20 0.0338
1194.30 0.03378
1194.40 0.03377
1194.50 0.03376
1194.60 0.03375
1194.70 0.03374
1194.80 0.03373
1194.90 0.03372
1195.00 0.03371
1195.10 0.0337
1195.20 0.03368
1195.30 0.03367
1195.40 0.03366
1195.50 0.03365
1195.60 0.03364
1195.70 0.03363
1195.80 0.03362
1195.90 0.03361
1196.00 0.0336
1196.10 0.03358
1196.20 0.03357
1196.30 0.03356
1196.40 0.03355
1196.50 0.03354
1196.60 0.03353
1196.70 0.03352
1196.80 0.03351
1196.90 0.0335
1197.00 0.03349
1197.10 0.03347
1197.20 0.03346
1197.30 0.03345
1197.40 0.03344
1197.50 0.03343
1197.60 0.03342
1197.70 0.03341
1197.80 0.0334
1197.90 0.03339
1198.00 0.03338
1198.10 0.03336
1198.20 0.03335
1198.30 0.03334
1198.40 0.03333
1198.50 0.03332
1198.60 0.03331
1198.70 0.0333
1198.80 0.03329
1198.90 0.03328
1199.00 0.03327
1199.10 0.03326
1199.20 0.03324
1199.30 0.03323
1199.40 0.03322
1199.50 0.03321
1199.60 0.0332
1199.70 0.03319
1199.80 0.03318
1199.90 0.03317
1200.00 0
