# Version 2.1 - nm, norm@500 to 1, cut digits, bergeron_16000_65.dat_16000
# Wavelength(nm)  Flambda(ergs/cm^s/s/nm)
300.00 2.322
300.10 2.32
300.20 2.318
300.30 2.316
300.40 2.315
300.50 2.313
300.60 2.311
300.70 2.309
300.80 2.307
300.90 2.305
301.00 2.303
301.10 2.302
301.20 2.3
301.30 2.298
301.40 2.296
301.50 2.294
301.60 2.292
301.70 2.291
301.80 2.289
301.90 2.287
302.00 2.285
302.10 2.283
302.20 2.282
302.30 2.28
302.40 2.278
302.50 2.276
302.60 2.274
302.70 2.273
302.80 2.271
302.90 2.269
303.00 2.267
303.10 2.265
303.20 2.264
303.30 2.262
303.40 2.26
303.50 2.258
303.60 2.256
303.70 2.255
303.80 2.253
303.90 2.251
304.00 2.249
304.10 2.248
304.20 2.246
304.30 2.244
304.40 2.242
304.50 2.24
304.60 2.239
304.70 2.237
304.80 2.235
304.90 2.233
305.00 2.232
305.10 2.23
305.20 2.228
305.30 2.226
305.40 2.225
305.50 2.223
305.60 2.221
305.70 2.219
305.80 2.218
305.90 2.216
306.00 2.214
306.10 2.212
306.20 2.211
306.30 2.209
306.40 2.207
306.50 2.205
306.60 2.204
306.70 2.202
306.80 2.2
306.90 2.198
307.00 2.197
307.10 2.195
307.20 2.193
307.30 2.192
307.40 2.19
307.50 2.188
307.60 2.186
307.70 2.185
307.80 2.183
307.90 2.181
308.00 2.18
308.10 2.178
308.20 2.176
308.30 2.175
308.40 2.173
308.50 2.171
308.60 2.169
308.70 2.168
308.80 2.166
308.90 2.164
309.00 2.163
309.10 2.161
309.20 2.159
309.30 2.158
309.40 2.156
309.50 2.154
309.60 2.153
309.70 2.151
309.80 2.149
309.90 2.148
310.00 2.146
310.10 2.144
310.20 2.143
310.30 2.141
310.40 2.139
310.50 2.138
310.60 2.136
310.70 2.134
310.80 2.133
310.90 2.131
311.00 2.129
311.10 2.128
311.20 2.126
311.30 2.125
311.40 2.123
311.50 2.121
311.60 2.12
311.70 2.118
311.80 2.116
311.90 2.115
312.00 2.113
312.10 2.111
312.20 2.11
312.30 2.108
312.40 2.106
312.50 2.105
312.60 2.103
312.70 2.102
312.80 2.1
312.90 2.098
313.00 2.097
313.10 2.095
313.20 2.094
313.30 2.092
313.40 2.09
313.50 2.089
313.60 2.087
313.70 2.086
313.80 2.084
313.90 2.082
314.00 2.081
314.10 2.079
314.20 2.078
314.30 2.076
314.40 2.074
314.50 2.073
314.60 2.071
314.70 2.07
314.80 2.068
314.90 2.066
315.00 2.065
315.10 2.063
315.20 2.062
315.30 2.06
315.40 2.059
315.50 2.057
315.60 2.055
315.70 2.054
315.80 2.052
315.90 2.051
316.00 2.049
316.10 2.048
316.20 2.046
316.30 2.044
316.40 2.043
316.50 2.041
316.60 2.04
316.70 2.038
316.80 2.037
316.90 2.035
317.00 2.033
317.10 2.032
317.20 2.03
317.30 2.029
317.40 2.027
317.50 2.026
317.60 2.024
317.70 2.023
317.80 2.021
317.90 2.02
318.00 2.018
318.10 2.016
318.20 2.015
318.30 2.013
318.40 2.012
318.50 2.01
318.60 2.009
318.70 2.007
318.80 2.006
318.90 2.004
319.00 2.003
319.10 2.001
319.20 2
319.30 1.998
319.40 1.997
319.50 1.995
319.60 1.994
319.70 1.992
319.80 1.991
319.90 1.989
320.00 1.988
320.10 1.986
320.20 1.985
320.30 1.983
320.40 1.982
320.50 1.98
320.60 1.979
320.70 1.977
320.80 1.976
320.90 1.974
321.00 1.973
321.10 1.971
321.20 1.97
321.30 1.968
321.40 1.967
321.50 1.965
321.60 1.964
321.70 1.962
321.80 1.961
321.90 1.959
322.00 1.958
322.10 1.956
322.20 1.955
322.30 1.954
322.40 1.952
322.50 1.951
322.60 1.949
322.70 1.948
322.80 1.946
322.90 1.945
323.00 1.943
323.10 1.942
323.20 1.94
323.30 1.939
323.40 1.937
323.50 1.936
323.60 1.935
323.70 1.933
323.80 1.932
323.90 1.93
324.00 1.929
324.10 1.927
324.20 1.926
324.30 1.924
324.40 1.923
324.50 1.922
324.60 1.92
324.70 1.919
324.80 1.917
324.90 1.916
325.00 1.914
325.10 1.913
325.20 1.912
325.30 1.91
325.40 1.909
325.50 1.907
325.60 1.906
325.70 1.904
325.80 1.903
325.90 1.902
326.00 1.9
326.10 1.899
326.20 1.897
326.30 1.896
326.40 1.895
326.50 1.893
326.60 1.892
326.70 1.89
326.80 1.889
326.90 1.887
327.00 1.886
327.10 1.885
327.20 1.883
327.30 1.882
327.40 1.88
327.50 1.879
327.60 1.878
327.70 1.876
327.80 1.875
327.90 1.874
328.00 1.872
328.10 1.871
328.20 1.869
328.30 1.868
328.40 1.867
328.50 1.865
328.60 1.864
328.70 1.862
328.80 1.861
328.90 1.86
329.00 1.858
329.10 1.857
329.20 1.856
329.30 1.854
329.40 1.853
329.50 1.851
329.60 1.85
329.70 1.849
329.80 1.847
329.90 1.846
330.00 1.845
330.10 1.843
330.20 1.842
330.30 1.841
330.40 1.839
330.50 1.838
330.60 1.836
330.70 1.835
330.80 1.834
330.90 1.832
331.00 1.831
331.10 1.83
331.20 1.828
331.30 1.827
331.40 1.826
331.50 1.824
331.60 1.823
331.70 1.822
331.80 1.82
331.90 1.819
332.00 1.818
332.10 1.816
332.20 1.815
332.30 1.814
332.40 1.812
332.50 1.811
332.60 1.81
332.70 1.808
332.80 1.807
332.90 1.806
333.00 1.804
333.10 1.803
333.20 1.802
333.30 1.8
333.40 1.799
333.50 1.798
333.60 1.796
333.70 1.795
333.80 1.794
333.90 1.792
334.00 1.791
334.10 1.79
334.20 1.789
334.30 1.787
334.40 1.786
334.50 1.785
334.60 1.783
334.70 1.782
334.80 1.781
334.90 1.779
335.00 1.778
335.10 1.777
335.20 1.776
335.30 1.774
335.40 1.773
335.50 1.772
335.60 1.77
335.70 1.769
335.80 1.768
335.90 1.766
336.00 1.765
336.10 1.764
336.20 1.763
336.30 1.761
336.40 1.76
336.50 1.759
336.60 1.758
336.70 1.756
336.80 1.755
336.90 1.754
337.00 1.752
337.10 1.751
337.20 1.75
337.30 1.749
337.40 1.747
337.50 1.746
337.60 1.745
337.70 1.744
337.80 1.742
337.90 1.741
338.00 1.74
338.10 1.739
338.20 1.737
338.30 1.736
338.40 1.735
338.50 1.734
338.60 1.732
338.70 1.731
338.80 1.73
338.90 1.729
339.00 1.727
339.10 1.726
339.20 1.725
339.30 1.724
339.40 1.722
339.50 1.721
339.60 1.72
339.70 1.719
339.80 1.717
339.90 1.716
340.00 1.715
340.10 1.714
340.20 1.712
340.30 1.711
340.40 1.71
340.50 1.709
340.60 1.707
340.70 1.706
340.80 1.705
340.90 1.704
341.00 1.703
341.10 1.701
341.20 1.7
341.30 1.699
341.40 1.698
341.50 1.696
341.60 1.695
341.70 1.694
341.80 1.693
341.90 1.692
342.00 1.69
342.10 1.689
342.20 1.688
342.30 1.687
342.40 1.686
342.50 1.684
342.60 1.683
342.70 1.682
342.80 1.681
342.90 1.68
343.00 1.678
343.10 1.677
343.20 1.676
343.30 1.675
343.40 1.674
343.50 1.672
343.60 1.671
343.70 1.67
343.80 1.669
343.90 1.668
344.00 1.666
344.10 1.665
344.20 1.664
344.30 1.663
344.40 1.662
344.50 1.66
344.60 1.659
344.70 1.658
344.80 1.657
344.90 1.656
345.00 1.655
345.10 1.653
345.20 1.652
345.30 1.651
345.40 1.65
345.50 1.649
345.60 1.647
345.70 1.646
345.80 1.645
345.90 1.644
346.00 1.643
346.10 1.642
346.20 1.64
346.30 1.639
346.40 1.638
346.50 1.637
346.60 1.636
346.70 1.635
346.80 1.634
346.90 1.632
347.00 1.631
347.10 1.63
347.20 1.629
347.30 1.628
347.40 1.627
347.50 1.625
347.60 1.624
347.70 1.623
347.80 1.622
347.90 1.621
348.00 1.62
348.10 1.619
348.20 1.617
348.30 1.616
348.40 1.615
348.50 1.614
348.60 1.613
348.70 1.612
348.80 1.611
348.90 1.609
349.00 1.608
349.10 1.607
349.20 1.606
349.30 1.605
349.40 1.604
349.50 1.603
349.60 1.601
349.70 1.6
349.80 1.599
349.90 1.598
350.00 1.597
350.10 1.596
350.20 1.595
350.30 1.594
350.40 1.592
350.50 1.591
350.60 1.59
350.70 1.589
350.80 1.588
350.90 1.587
351.00 1.586
351.10 1.585
351.20 1.584
351.30 1.582
351.40 1.581
351.50 1.58
351.60 1.579
351.70 1.578
351.80 1.577
351.90 1.576
352.00 1.575
352.10 1.574
352.20 1.572
352.30 1.571
352.40 1.57
352.50 1.569
352.60 1.568
352.70 1.567
352.80 1.566
352.90 1.565
353.00 1.564
353.10 1.563
353.20 1.561
353.30 1.56
353.40 1.559
353.50 1.558
353.60 1.557
353.70 1.556
353.80 1.555
353.90 1.554
354.00 1.553
354.10 1.552
354.20 1.551
354.30 1.55
354.40 1.548
354.50 1.547
354.60 1.546
354.70 1.545
354.80 1.544
354.90 1.543
355.00 1.542
355.10 1.541
355.20 1.54
355.30 1.539
355.40 1.538
355.50 1.537
355.60 1.536
355.70 1.534
355.80 1.533
355.90 1.532
356.00 1.531
356.10 1.53
356.20 1.529
356.30 1.528
356.40 1.527
356.50 1.526
356.60 1.525
356.70 1.524
356.80 1.523
356.90 1.522
357.00 1.521
357.10 1.52
357.20 1.519
357.30 1.518
357.40 1.516
357.50 1.515
357.60 1.514
357.70 1.513
357.80 1.512
357.90 1.511
358.00 1.51
358.10 1.509
358.20 1.508
358.30 1.507
358.40 1.506
358.50 1.505
358.60 1.504
358.70 1.503
358.80 1.502
358.90 1.501
359.00 1.5
359.10 1.499
359.20 1.498
359.30 1.497
359.40 1.496
359.50 1.495
359.60 1.494
359.70 1.493
359.80 1.492
359.90 1.49
360.00 1.489
360.10 1.488
360.20 1.487
360.30 1.486
360.40 1.485
360.50 1.484
360.60 1.483
360.70 1.482
360.80 1.481
360.90 1.48
361.00 1.479
361.10 1.478
361.20 1.477
361.30 1.476
361.40 1.475
361.50 1.474
361.60 1.473
361.70 1.472
361.80 1.471
361.90 1.47
362.00 1.469
362.10 1.468
362.20 1.467
362.30 1.466
362.40 1.465
362.50 1.464
362.60 1.463
362.70 1.462
362.80 1.461
362.90 1.46
363.00 1.459
363.10 1.458
363.20 1.457
363.30 1.456
363.40 1.455
363.50 1.454
363.60 1.453
363.70 1.452
363.80 1.451
363.90 1.45
364.00 1.449
364.10 1.448
364.20 1.447
364.30 1.446
364.40 1.445
364.50 1.444
364.60 1.443
364.70 1.442
364.80 1.441
364.90 1.44
365.00 1.439
365.10 1.438
365.20 1.437
365.30 1.436
365.40 1.435
365.50 1.435
365.60 1.434
365.70 1.433
365.80 1.432
365.90 1.431
366.00 1.43
366.10 1.429
366.20 1.428
366.30 1.427
366.40 1.427
366.50 1.426
366.60 1.425
366.70 1.424
366.80 1.423
366.90 1.422
367.00 1.421
367.10 1.421
367.20 1.42
367.30 1.419
367.40 1.418
367.50 1.417
367.60 1.416
367.70 1.415
367.80 1.415
367.90 1.414
368.00 1.413
368.10 1.413
368.20 1.414
368.30 1.415
368.40 1.415
368.50 1.416
368.60 1.416
368.70 1.417
368.80 1.417
368.90 1.418
369.00 1.419
369.10 1.419
369.20 1.42
369.30 1.42
369.40 1.421
369.50 1.421
369.60 1.422
369.70 1.422
369.80 1.423
369.90 1.424
370.00 1.424
370.10 1.427
370.20 1.431
370.30 1.434
370.40 1.437
370.50 1.441
370.60 1.444
370.70 1.447
370.80 1.451
370.90 1.454
371.00 1.457
371.10 1.461
371.20 1.464
371.30 1.467
371.40 1.471
371.50 1.474
371.60 1.477
371.70 1.48
371.80 1.484
371.90 1.487
372.00 1.49
372.10 1.496
372.20 1.501
372.30 1.507
372.40 1.513
372.50 1.518
372.60 1.524
372.70 1.529
372.80 1.535
372.90 1.54
373.00 1.546
373.10 1.551
373.20 1.557
373.30 1.563
373.40 1.568
373.50 1.574
373.60 1.579
373.70 1.585
373.80 1.59
373.90 1.596
374.00 1.601
374.10 1.607
374.20 1.612
374.30 1.618
374.40 1.624
374.50 1.629
374.60 1.635
374.70 1.64
374.80 1.646
374.90 1.651
375.00 1.657
375.10 1.662
375.20 1.668
375.30 1.674
375.40 1.679
375.50 1.685
375.60 1.69
375.70 1.696
375.80 1.701
375.90 1.707
376.00 1.712
376.10 1.715
376.20 1.717
376.30 1.719
376.40 1.722
376.50 1.724
376.60 1.727
376.70 1.729
376.80 1.731
376.90 1.734
377.00 1.736
377.10 1.731
377.20 1.725
377.30 1.719
377.40 1.713
377.50 1.708
377.60 1.702
377.70 1.696
377.80 1.691
377.90 1.685
378.00 1.679
378.10 1.651
378.20 1.622
378.30 1.593
378.40 1.565
378.50 1.536
378.60 1.508
378.70 1.479
378.80 1.451
378.90 1.422
379.00 1.394
379.10 1.37
379.20 1.347
379.30 1.323
379.40 1.299
379.50 1.276
379.60 1.252
379.70 1.229
379.80 1.205
379.90 1.182
380.00 1.158
380.10 1.195
380.20 1.232
380.30 1.268
380.40 1.305
380.50 1.341
380.60 1.378
380.70 1.414
380.80 1.45
380.90 1.487
381.00 1.523
381.10 1.539
381.20 1.555
381.30 1.571
381.40 1.587
381.50 1.604
381.60 1.606
381.70 1.604
381.80 1.597
381.90 1.586
382.00 1.571
382.10 1.55
382.20 1.524
382.30 1.481
382.40 1.438
382.50 1.394
382.60 1.351
382.70 1.308
382.80 1.265
382.90 1.222
383.00 1.179
383.10 1.135
383.20 1.093
383.30 1.045
383.40 0.9949
383.50 0.9403
383.60 0.9524
383.70 1.005
383.80 1.053
383.90 1.1
384.00 1.147
384.10 1.194
384.20 1.241
384.30 1.29
384.40 1.338
384.50 1.386
384.60 1.432
384.70 1.474
384.80 1.514
384.90 1.55
385.00 1.582
385.10 1.61
385.20 1.635
385.30 1.658
385.40 1.676
385.50 1.692
385.60 1.706
385.70 1.716
385.80 1.724
385.90 1.731
386.00 1.734
386.10 1.736
386.20 1.736
386.30 1.733
386.40 1.728
386.50 1.721
386.60 1.712
386.70 1.7
386.80 1.687
386.90 1.67
387.00 1.651
387.10 1.631
387.20 1.606
387.30 1.579
387.40 1.55
387.50 1.515
387.60 1.478
387.70 1.439
387.80 1.394
387.90 1.347
388.00 1.297
388.10 1.245
388.20 1.193
388.30 1.14
388.40 1.089
388.50 1.038
388.60 0.9875
388.70 0.9344
388.80 0.8764
388.90 0.8135
389.00 0.8718
389.10 0.9273
389.20 0.9799
389.30 1.03
389.40 1.079
389.50 1.129
389.60 1.181
389.70 1.232
389.80 1.283
389.90 1.332
390.00 1.379
390.10 1.424
390.20 1.465
390.30 1.503
390.40 1.539
390.50 1.571
390.60 1.601
390.70 1.629
390.80 1.654
390.90 1.677
391.00 1.699
391.10 1.718
391.20 1.736
391.30 1.753
391.40 1.768
391.50 1.782
391.60 1.795
391.70 1.806
391.80 1.817
391.90 1.826
392.00 1.834
392.10 1.841
392.20 1.848
392.30 1.853
392.40 1.857
392.50 1.86
392.60 1.862
392.70 1.864
392.80 1.864
392.90 1.864
393.00 1.862
393.10 1.86
393.20 1.857
393.30 1.852
393.40 1.848
393.50 1.841
393.60 1.834
393.70 1.826
393.80 1.817
393.90 1.807
394.00 1.796
394.10 1.783
394.20 1.77
394.30 1.755
394.40 1.739
394.50 1.721
394.60 1.703
394.70 1.683
394.80 1.662
394.90 1.639
395.00 1.614
395.10 1.589
395.20 1.561
395.30 1.532
395.40 1.5
395.50 1.467
395.60 1.431
395.70 1.393
395.80 1.353
395.90 1.31
396.00 1.265
396.10 1.219
396.20 1.17
396.30 1.12
396.40 1.07
396.50 1.02
396.60 0.9699
396.70 0.9205
396.80 0.8673
396.90 0.7992
397.00 0.7162
397.10 0.793
397.20 0.858
397.30 0.9112
397.40 0.9596
397.50 1.008
397.60 1.057
397.70 1.106
397.80 1.154
397.90 1.202
398.00 1.247
398.10 1.29
398.20 1.332
398.30 1.37
398.40 1.407
398.50 1.442
398.60 1.474
398.70 1.504
398.80 1.532
398.90 1.558
399.00 1.583
399.10 1.607
399.20 1.629
399.30 1.649
399.40 1.669
399.50 1.687
399.60 1.704
399.70 1.721
399.80 1.736
399.90 1.75
400.00 1.763
400.10 1.775
400.20 1.787
400.30 1.798
400.40 1.807
400.50 1.817
400.60 1.825
400.70 1.833
400.80 1.84
400.90 1.847
401.00 1.853
401.10 1.859
401.20 1.865
401.30 1.869
401.40 1.874
401.50 1.878
401.60 1.881
401.70 1.885
401.80 1.888
401.90 1.89
402.00 1.893
402.10 1.894
402.20 1.896
402.30 1.898
402.40 1.899
402.50 1.9
402.60 1.9
402.70 1.901
402.80 1.901
402.90 1.901
403.00 1.901
403.10 1.9
403.20 1.9
403.30 1.899
403.40 1.898
403.50 1.897
403.60 1.895
403.70 1.894
403.80 1.892
403.90 1.89
404.00 1.888
404.10 1.885
404.20 1.883
404.30 1.88
404.40 1.877
404.50 1.874
404.60 1.871
404.70 1.867
404.80 1.863
404.90 1.859
405.00 1.855
405.10 1.85
405.20 1.845
405.30 1.84
405.40 1.835
405.50 1.829
405.60 1.822
405.70 1.816
405.80 1.809
405.90 1.802
406.00 1.794
406.10 1.786
406.20 1.778
406.30 1.769
406.40 1.759
406.50 1.749
406.60 1.739
406.70 1.727
406.80 1.715
406.90 1.703
407.00 1.689
407.10 1.675
407.20 1.66
407.30 1.644
407.40 1.627
407.50 1.609
407.60 1.59
407.70 1.57
407.80 1.55
407.90 1.527
408.00 1.504
408.10 1.481
408.20 1.455
408.30 1.429
408.40 1.402
408.50 1.373
408.60 1.343
408.70 1.313
408.80 1.28
408.90 1.246
409.00 1.211
409.10 1.174
409.20 1.136
409.30 1.097
409.40 1.054
409.50 1.011
409.60 0.9674
409.70 0.9232
409.80 0.879
409.90 0.8349
410.00 0.7817
410.10 0.72
410.20 0.6498
410.30 0.7405
410.40 0.8094
410.50 0.8566
410.60 0.8995
410.70 0.9424
410.80 0.9854
410.90 1.028
411.00 1.068
411.10 1.108
411.20 1.145
411.30 1.18
411.40 1.215
411.50 1.247
411.60 1.278
411.70 1.308
411.80 1.335
411.90 1.362
412.00 1.388
412.10 1.412
412.20 1.435
412.30 1.458
412.40 1.479
412.50 1.499
412.60 1.518
412.70 1.535
412.80 1.552
412.90 1.568
413.00 1.583
413.10 1.596
413.20 1.609
413.30 1.621
413.40 1.632
413.50 1.643
413.60 1.653
413.70 1.662
413.80 1.67
413.90 1.678
414.00 1.685
414.10 1.692
414.20 1.698
414.30 1.704
414.40 1.71
414.50 1.715
414.60 1.72
414.70 1.724
414.80 1.728
414.90 1.732
415.00 1.736
415.10 1.739
415.20 1.742
415.30 1.745
415.40 1.747
415.50 1.75
415.60 1.752
415.70 1.754
415.80 1.755
415.90 1.757
416.00 1.759
416.10 1.76
416.20 1.761
416.30 1.762
416.40 1.763
416.50 1.764
416.60 1.765
416.70 1.765
416.80 1.766
416.90 1.766
417.00 1.767
417.10 1.767
417.20 1.767
417.30 1.767
417.40 1.768
417.50 1.768
417.60 1.768
417.70 1.767
417.80 1.767
417.90 1.767
418.00 1.767
418.10 1.766
418.20 1.766
418.30 1.766
418.40 1.765
418.50 1.765
418.60 1.764
418.70 1.764
418.80 1.763
418.90 1.762
419.00 1.762
419.10 1.761
419.20 1.76
419.30 1.76
419.40 1.759
419.50 1.758
419.60 1.757
419.70 1.756
419.80 1.755
419.90 1.754
420.00 1.753
420.10 1.753
420.20 1.752
420.30 1.751
420.40 1.75
420.50 1.749
420.60 1.748
420.70 1.746
420.80 1.745
420.90 1.744
421.00 1.743
421.10 1.742
421.20 1.741
421.30 1.74
421.40 1.738
421.50 1.737
421.60 1.736
421.70 1.735
421.80 1.734
421.90 1.732
422.00 1.731
422.10 1.73
422.20 1.728
422.30 1.727
422.40 1.726
422.50 1.724
422.60 1.723
422.70 1.722
422.80 1.72
422.90 1.719
423.00 1.717
423.10 1.716
423.20 1.714
423.30 1.713
423.40 1.712
423.50 1.71
423.60 1.708
423.70 1.707
423.80 1.705
423.90 1.704
424.00 1.702
424.10 1.701
424.20 1.699
424.30 1.697
424.40 1.695
424.50 1.694
424.60 1.692
424.70 1.69
424.80 1.688
424.90 1.687
425.00 1.685
425.10 1.683
425.20 1.681
425.30 1.679
425.40 1.677
425.50 1.675
425.60 1.673
425.70 1.671
425.80 1.669
425.90 1.667
426.00 1.664
426.10 1.662
426.20 1.66
426.30 1.657
426.40 1.655
426.50 1.652
426.60 1.65
426.70 1.647
426.80 1.645
426.90 1.642
427.00 1.639
427.10 1.636
427.20 1.633
427.30 1.63
427.40 1.627
427.50 1.624
427.60 1.621
427.70 1.618
427.80 1.614
427.90 1.611
428.00 1.607
428.10 1.603
428.20 1.6
428.30 1.596
428.40 1.592
428.50 1.587
428.60 1.583
428.70 1.578
428.80 1.574
428.90 1.569
429.00 1.564
429.10 1.558
429.20 1.553
429.30 1.547
429.40 1.542
429.50 1.535
429.60 1.529
429.70 1.522
429.80 1.515
429.90 1.508
430.00 1.501
430.10 1.493
430.20 1.485
430.30 1.476
430.40 1.468
430.50 1.458
430.60 1.449
430.70 1.439
430.80 1.428
430.90 1.417
431.00 1.406
431.10 1.394
431.20 1.381
431.30 1.368
431.40 1.355
431.50 1.34
431.60 1.325
431.70 1.309
431.80 1.292
431.90 1.274
432.00 1.255
432.10 1.235
432.20 1.213
432.30 1.191
432.40 1.167
432.50 1.14
432.60 1.113
432.70 1.084
432.80 1.055
432.90 1.025
433.00 0.995
433.10 0.9656
433.20 0.9355
433.30 0.9047
433.40 0.8713
433.50 0.8371
433.60 0.8022
433.70 0.7662
433.80 0.727
433.90 0.6846
434.00 0.5761
434.10 0.5772
434.20 0.6879
434.30 0.7287
434.40 0.7667
434.50 0.8017
434.60 0.8356
434.70 0.8686
434.80 0.9006
434.90 0.9301
435.00 0.9588
435.10 0.9867
435.20 1.015
435.30 1.043
435.40 1.071
435.50 1.098
435.60 1.123
435.70 1.147
435.80 1.169
435.90 1.19
436.00 1.209
436.10 1.227
436.20 1.244
436.30 1.259
436.40 1.274
436.50 1.288
436.60 1.301
436.70 1.312
436.80 1.324
436.90 1.334
437.00 1.344
437.10 1.354
437.20 1.363
437.30 1.371
437.40 1.379
437.50 1.386
437.60 1.393
437.70 1.4
437.80 1.406
437.90 1.412
438.00 1.418
438.10 1.423
438.20 1.428
438.30 1.432
438.40 1.436
438.50 1.44
438.60 1.444
438.70 1.448
438.80 1.451
438.90 1.454
439.00 1.457
439.10 1.459
439.20 1.462
439.30 1.464
439.40 1.466
439.50 1.468
439.60 1.47
439.70 1.472
439.80 1.473
439.90 1.475
440.00 1.476
440.10 1.477
440.20 1.478
440.30 1.479
440.40 1.48
440.50 1.481
440.60 1.481
440.70 1.482
440.80 1.482
440.90 1.483
441.00 1.483
441.10 1.484
441.20 1.484
441.30 1.484
441.40 1.484
441.50 1.484
441.60 1.484
441.70 1.484
441.80 1.484
441.90 1.484
442.00 1.484
442.10 1.484
442.20 1.483
442.30 1.483
442.40 1.483
442.50 1.483
442.60 1.482
442.70 1.482
442.80 1.481
442.90 1.481
443.00 1.48
443.10 1.48
443.20 1.479
443.30 1.479
443.40 1.478
443.50 1.478
443.60 1.477
443.70 1.476
443.80 1.476
443.90 1.475
444.00 1.475
444.10 1.474
444.20 1.473
444.30 1.472
444.40 1.472
444.50 1.471
444.60 1.47
444.70 1.469
444.80 1.469
444.90 1.468
445.00 1.467
445.10 1.466
445.20 1.465
445.30 1.465
445.40 1.464
445.50 1.463
445.60 1.462
445.70 1.461
445.80 1.46
445.90 1.46
446.00 1.459
446.10 1.458
446.20 1.457
446.30 1.456
446.40 1.455
446.50 1.454
446.60 1.453
446.70 1.452
446.80 1.452
446.90 1.451
447.00 1.45
447.10 1.449
447.20 1.448
447.30 1.447
447.40 1.446
447.50 1.445
447.60 1.444
447.70 1.443
447.80 1.442
447.90 1.441
448.00 1.44
448.10 1.439
448.20 1.438
448.30 1.438
448.40 1.437
448.50 1.436
448.60 1.435
448.70 1.434
448.80 1.433
448.90 1.432
449.00 1.431
449.10 1.43
449.20 1.429
449.30 1.428
449.40 1.427
449.50 1.426
449.60 1.425
449.70 1.424
449.80 1.423
449.90 1.422
450.00 1.421
450.10 1.42
450.20 1.419
450.30 1.418
450.40 1.417
450.50 1.416
450.60 1.415
450.70 1.414
450.80 1.413
450.90 1.412
451.00 1.411
451.10 1.41
451.20 1.41
451.30 1.409
451.40 1.408
451.50 1.407
451.60 1.406
451.70 1.405
451.80 1.404
451.90 1.403
452.00 1.402
452.10 1.401
452.20 1.4
452.30 1.399
452.40 1.398
452.50 1.397
452.60 1.396
452.70 1.395
452.80 1.394
452.90 1.393
453.00 1.392
453.10 1.391
453.20 1.39
453.30 1.389
453.40 1.388
453.50 1.387
453.60 1.386
453.70 1.385
453.80 1.384
453.90 1.383
454.00 1.382
454.10 1.381
454.20 1.38
454.30 1.379
454.40 1.378
454.50 1.377
454.60 1.376
454.70 1.375
454.80 1.374
454.90 1.373
455.00 1.372
455.10 1.371
455.20 1.37
455.30 1.369
455.40 1.368
455.50 1.367
455.60 1.366
455.70 1.366
455.80 1.365
455.90 1.364
456.00 1.363
456.10 1.362
456.20 1.361
456.30 1.36
456.40 1.359
456.50 1.358
456.60 1.357
456.70 1.356
456.80 1.355
456.90 1.354
457.00 1.353
457.10 1.352
457.20 1.351
457.30 1.35
457.40 1.349
457.50 1.348
457.60 1.347
457.70 1.346
457.80 1.345
457.90 1.344
458.00 1.343
458.10 1.342
458.20 1.341
458.30 1.34
458.40 1.339
458.50 1.338
458.60 1.338
458.70 1.337
458.80 1.336
458.90 1.335
459.00 1.334
459.10 1.333
459.20 1.332
459.30 1.331
459.40 1.33
459.50 1.329
459.60 1.328
459.70 1.327
459.80 1.326
459.90 1.325
460.00 1.324
460.10 1.323
460.20 1.322
460.30 1.321
460.40 1.32
460.50 1.319
460.60 1.318
460.70 1.317
460.80 1.316
460.90 1.315
461.00 1.315
461.10 1.314
461.20 1.313
461.30 1.312
461.40 1.311
461.50 1.31
461.60 1.309
461.70 1.308
461.80 1.307
461.90 1.306
462.00 1.305
462.10 1.304
462.20 1.303
462.30 1.302
462.40 1.301
462.50 1.3
462.60 1.299
462.70 1.298
462.80 1.297
462.90 1.296
463.00 1.295
463.10 1.295
463.20 1.294
463.30 1.293
463.40 1.292
463.50 1.291
463.60 1.29
463.70 1.289
463.80 1.288
463.90 1.287
464.00 1.286
464.10 1.285
464.20 1.284
464.30 1.283
464.40 1.282
464.50 1.281
464.60 1.28
464.70 1.279
464.80 1.278
464.90 1.278
465.00 1.277
465.10 1.276
465.20 1.275
465.30 1.274
465.40 1.273
465.50 1.272
465.60 1.271
465.70 1.27
465.80 1.269
465.90 1.268
466.00 1.267
466.10 1.266
466.20 1.265
466.30 1.264
466.40 1.263
466.50 1.262
466.60 1.262
466.70 1.261
466.80 1.26
466.90 1.259
467.00 1.258
467.10 1.257
467.20 1.256
467.30 1.255
467.40 1.254
467.50 1.253
467.60 1.252
467.70 1.251
467.80 1.25
467.90 1.249
468.00 1.248
468.10 1.247
468.20 1.246
468.30 1.246
468.40 1.245
468.50 1.244
468.60 1.243
468.70 1.242
468.80 1.241
468.90 1.24
469.00 1.239
469.10 1.238
469.20 1.237
469.30 1.236
469.40 1.235
469.50 1.234
469.60 1.233
469.70 1.232
469.80 1.231
469.90 1.23
470.00 1.229
470.10 1.228
470.20 1.227
470.30 1.226
470.40 1.226
470.50 1.225
470.60 1.224
470.70 1.223
470.80 1.222
470.90 1.221
471.00 1.22
471.10 1.219
471.20 1.218
471.30 1.217
471.40 1.216
471.50 1.215
471.60 1.214
471.70 1.213
471.80 1.212
471.90 1.211
472.00 1.21
472.10 1.209
472.20 1.208
472.30 1.207
472.40 1.206
472.50 1.205
472.60 1.204
472.70 1.203
472.80 1.202
472.90 1.201
473.00 1.2
473.10 1.199
473.20 1.198
473.30 1.197
473.40 1.196
473.50 1.195
473.60 1.194
473.70 1.193
473.80 1.192
473.90 1.191
474.00 1.19
474.10 1.189
474.20 1.187
474.30 1.186
474.40 1.185
474.50 1.184
474.60 1.183
474.70 1.182
474.80 1.181
474.90 1.18
475.00 1.179
475.10 1.178
475.20 1.176
475.30 1.175
475.40 1.174
475.50 1.173
475.60 1.172
475.70 1.17
475.80 1.169
475.90 1.168
476.00 1.167
476.10 1.166
476.20 1.164
476.30 1.163
476.40 1.162
476.50 1.161
476.60 1.159
476.70 1.158
476.80 1.157
476.90 1.155
477.00 1.154
477.10 1.153
477.20 1.151
477.30 1.15
477.40 1.148
477.50 1.147
477.60 1.145
477.70 1.144
477.80 1.142
477.90 1.141
478.00 1.139
478.10 1.138
478.20 1.136
478.30 1.135
478.40 1.133
478.50 1.131
478.60 1.129
478.70 1.127
478.80 1.126
478.90 1.124
479.00 1.122
479.10 1.12
479.20 1.118
479.30 1.116
479.40 1.114
479.50 1.111
479.60 1.109
479.70 1.107
479.80 1.105
479.90 1.102
480.00 1.1
480.10 1.098
480.20 1.095
480.30 1.092
480.40 1.089
480.50 1.086
480.60 1.083
480.70 1.08
480.80 1.077
480.90 1.074
481.00 1.071
481.10 1.068
481.20 1.064
481.30 1.059
481.40 1.055
481.50 1.051
481.60 1.046
481.70 1.042
481.80 1.038
481.90 1.033
482.00 1.029
482.10 1.024
482.20 1.019
482.30 1.012
482.40 1.005
482.50 0.9987
482.60 0.9921
482.70 0.9855
482.80 0.9789
482.90 0.9723
483.00 0.9657
483.10 0.9591
483.20 0.9501
483.30 0.9399
483.40 0.9298
483.50 0.9196
483.60 0.9095
483.70 0.8993
483.80 0.8892
483.90 0.8791
484.00 0.869
484.10 0.8589
484.20 0.8465
484.30 0.8331
484.40 0.8197
484.50 0.8063
484.60 0.793
484.70 0.778
484.80 0.7624
484.90 0.7467
485.00 0.7311
485.10 0.7154
485.20 0.6989
485.30 0.6819
485.40 0.664
485.50 0.6455
485.60 0.6259
485.70 0.6057
485.80 0.5831
485.90 0.5595
486.00 0.5289
486.10 0.4195
486.20 0.4802
486.30 0.5406
486.40 0.566
486.50 0.5892
486.60 0.6099
486.70 0.6294
486.80 0.6477
486.90 0.6654
487.00 0.682
487.10 0.6981
487.20 0.7132
487.30 0.7279
487.40 0.7425
487.50 0.7571
487.60 0.7717
487.70 0.7847
487.80 0.7969
487.90 0.8091
488.00 0.8212
488.10 0.8334
488.20 0.8432
488.30 0.8519
488.40 0.8607
488.50 0.8694
488.60 0.8781
488.70 0.8868
488.80 0.8955
488.90 0.9042
489.00 0.9129
489.10 0.9215
489.20 0.9277
489.30 0.9327
489.40 0.9377
489.50 0.9427
489.60 0.9477
489.70 0.9527
489.80 0.9577
489.90 0.9627
490.00 0.9677
490.10 0.9726
490.20 0.9761
490.30 0.9788
490.40 0.9815
490.50 0.9842
490.60 0.987
490.70 0.9897
490.80 0.9924
490.90 0.9951
491.00 0.9978
491.10 1.001
491.20 1.002
491.30 1.004
491.40 1.005
491.50 1.006
491.60 1.008
491.70 1.009
491.80 1.011
491.90 1.012
492.00 1.013
492.10 1.015
492.20 1.016
492.30 1.016
492.40 1.017
492.50 1.017
492.60 1.018
492.70 1.019
492.80 1.019
492.90 1.02
493.00 1.02
493.10 1.021
493.20 1.021
493.30 1.021
493.40 1.022
493.50 1.022
493.60 1.022
493.70 1.022
493.80 1.022
493.90 1.022
494.00 1.023
494.10 1.023
494.20 1.023
494.30 1.023
494.40 1.023
494.50 1.022
494.60 1.022
494.70 1.022
494.80 1.022
494.90 1.022
495.00 1.022
495.10 1.022
495.20 1.021
495.30 1.021
495.40 1.021
495.50 1.021
495.60 1.02
495.70 1.02
495.80 1.02
495.90 1.019
496.00 1.019
496.10 1.019
496.20 1.018
496.30 1.018
496.40 1.018
496.50 1.017
496.60 1.017
496.70 1.016
496.80 1.016
496.90 1.016
497.00 1.015
497.10 1.015
497.20 1.014
497.30 1.014
497.40 1.013
497.50 1.013
497.60 1.013
497.70 1.012
497.80 1.012
497.90 1.011
498.00 1.011
498.10 1.01
498.20 1.01
498.30 1.009
498.40 1.009
498.50 1.008
498.60 1.008
498.70 1.007
498.80 1.007
498.90 1.006
499.00 1.005
499.10 1.005
499.20 1.004
499.30 1.004
499.40 1.003
499.50 1.003
499.60 1.002
499.70 1.002
499.80 1.001
499.90 1.001
500.00 1
500.10 0.9995
500.20 0.9989
500.30 0.9983
500.40 0.9977
500.50 0.9971
500.60 0.9966
500.70 0.996
500.80 0.9954
500.90 0.9948
501.00 0.9942
501.10 0.9937
501.20 0.9931
501.30 0.9925
501.40 0.9919
501.50 0.9913
501.60 0.9907
501.70 0.9901
501.80 0.9895
501.90 0.9889
502.00 0.9884
502.10 0.9878
502.20 0.9872
502.30 0.9866
502.40 0.986
502.50 0.9854
502.60 0.9848
502.70 0.9842
502.80 0.9836
502.90 0.983
503.00 0.9824
503.10 0.9818
503.20 0.9812
503.30 0.9806
503.40 0.98
503.50 0.9794
503.60 0.9788
503.70 0.9782
503.80 0.9776
503.90 0.977
504.00 0.9764
504.10 0.9758
504.20 0.9752
504.30 0.9746
504.40 0.9739
504.50 0.9733
504.60 0.9727
504.70 0.9721
504.80 0.9715
504.90 0.9709
505.00 0.9703
505.10 0.9697
505.20 0.9691
505.30 0.9684
505.40 0.9678
505.50 0.9672
505.60 0.9666
505.70 0.966
505.80 0.9654
505.90 0.9648
506.00 0.9642
506.10 0.9635
506.20 0.9629
506.30 0.9623
506.40 0.9617
506.50 0.9611
506.60 0.9605
506.70 0.9599
506.80 0.9593
506.90 0.9587
507.00 0.9581
507.10 0.9574
507.20 0.9568
507.30 0.9562
507.40 0.9556
507.50 0.955
507.60 0.9544
507.70 0.9538
507.80 0.9532
507.90 0.9525
508.00 0.9519
508.10 0.9513
508.20 0.9507
508.30 0.9501
508.40 0.9495
508.50 0.9489
508.60 0.9483
508.70 0.9477
508.80 0.9471
508.90 0.9464
509.00 0.9458
509.10 0.9452
509.20 0.9446
509.30 0.944
509.40 0.9434
509.50 0.9428
509.60 0.9422
509.70 0.9416
509.80 0.941
509.90 0.9404
510.00 0.9398
510.10 0.9392
510.20 0.9386
510.30 0.938
510.40 0.9374
510.50 0.9368
510.60 0.9362
510.70 0.9356
510.80 0.935
510.90 0.9344
511.00 0.9338
511.10 0.9332
511.20 0.9326
511.30 0.932
511.40 0.9314
511.50 0.9308
511.60 0.9302
511.70 0.9296
511.80 0.929
511.90 0.9284
512.00 0.9278
512.10 0.9272
512.20 0.9266
512.30 0.926
512.40 0.9254
512.50 0.9248
512.60 0.9242
512.70 0.9236
512.80 0.923
512.90 0.9224
513.00 0.9218
513.10 0.9212
513.20 0.9206
513.30 0.92
513.40 0.9194
513.50 0.9188
513.60 0.9183
513.70 0.9177
513.80 0.9171
513.90 0.9165
514.00 0.9159
514.10 0.9153
514.20 0.9147
514.30 0.9141
514.40 0.9135
514.50 0.9129
514.60 0.9123
514.70 0.9118
514.80 0.9112
514.90 0.9106
515.00 0.91
515.10 0.9094
515.20 0.9088
515.30 0.9082
515.40 0.9076
515.50 0.9071
515.60 0.9065
515.70 0.9059
515.80 0.9053
515.90 0.9047
516.00 0.9042
516.10 0.9036
516.20 0.903
516.30 0.9024
516.40 0.9018
516.50 0.9012
516.60 0.9006
516.70 0.9001
516.80 0.8995
516.90 0.8989
517.00 0.8983
517.10 0.8977
517.20 0.8972
517.30 0.8966
517.40 0.896
517.50 0.8954
517.60 0.8949
517.70 0.8943
517.80 0.8937
517.90 0.8931
518.00 0.8926
518.10 0.892
518.20 0.8914
518.30 0.8908
518.40 0.8903
518.50 0.8897
518.60 0.8891
518.70 0.8885
518.80 0.8879
518.90 0.8874
519.00 0.8868
519.10 0.8862
519.20 0.8857
519.30 0.8851
519.40 0.8845
519.50 0.8839
519.60 0.8834
519.70 0.8828
519.80 0.8823
519.90 0.8817
520.00 0.8811
520.10 0.8806
520.20 0.88
520.30 0.8794
520.40 0.8789
520.50 0.8783
520.60 0.8777
520.70 0.8772
520.80 0.8766
520.90 0.8761
521.00 0.8755
521.10 0.8749
521.20 0.8744
521.30 0.8738
521.40 0.8733
521.50 0.8727
521.60 0.8721
521.70 0.8716
521.80 0.871
521.90 0.8705
522.00 0.8699
522.10 0.8693
522.20 0.8688
522.30 0.8682
522.40 0.8677
522.50 0.8671
522.60 0.8666
522.70 0.866
522.80 0.8655
522.90 0.8649
523.00 0.8643
523.10 0.8638
523.20 0.8632
523.30 0.8627
523.40 0.8621
523.50 0.8616
523.60 0.861
523.70 0.8605
523.80 0.8599
523.90 0.8594
524.00 0.8588
524.10 0.8583
524.20 0.8577
524.30 0.8572
524.40 0.8566
524.50 0.8561
524.60 0.8555
524.70 0.855
524.80 0.8544
524.90 0.8539
525.00 0.8533
525.10 0.8528
525.20 0.8523
525.30 0.8517
525.40 0.8512
525.50 0.8506
525.60 0.8501
525.70 0.8495
525.80 0.849
525.90 0.8484
526.00 0.8479
526.10 0.8474
526.20 0.8468
526.30 0.8463
526.40 0.8457
526.50 0.8452
526.60 0.8446
526.70 0.8441
526.80 0.8436
526.90 0.843
527.00 0.8425
527.10 0.8419
527.20 0.8414
527.30 0.8409
527.40 0.8403
527.50 0.8398
527.60 0.8393
527.70 0.8388
527.80 0.8382
527.90 0.8377
528.00 0.8372
528.10 0.8366
528.20 0.8361
528.30 0.8356
528.40 0.835
528.50 0.8345
528.60 0.834
528.70 0.8334
528.80 0.8329
528.90 0.8324
529.00 0.8318
529.10 0.8313
529.20 0.8308
529.30 0.8302
529.40 0.8297
529.50 0.8292
529.60 0.8287
529.70 0.8282
529.80 0.8276
529.90 0.8271
530.00 0.8266
530.10 0.8261
530.20 0.8255
530.30 0.825
530.40 0.8245
530.50 0.824
530.60 0.8235
530.70 0.8229
530.80 0.8224
530.90 0.8219
531.00 0.8214
531.10 0.8209
531.20 0.8203
531.30 0.8198
531.40 0.8193
531.50 0.8188
531.60 0.8182
531.70 0.8177
531.80 0.8172
531.90 0.8167
532.00 0.8161
532.10 0.8156
532.20 0.8151
532.30 0.8146
532.40 0.8141
532.50 0.8136
532.60 0.813
532.70 0.8125
532.80 0.812
532.90 0.8115
533.00 0.811
533.10 0.8105
533.20 0.81
533.30 0.8095
533.40 0.809
533.50 0.8084
533.60 0.8079
533.70 0.8074
533.80 0.8069
533.90 0.8064
534.00 0.8059
534.10 0.8054
534.20 0.8049
534.30 0.8044
534.40 0.8039
534.50 0.8034
534.60 0.8028
534.70 0.8023
534.80 0.8018
534.90 0.8013
535.00 0.8008
535.10 0.8003
535.20 0.7998
535.30 0.7993
535.40 0.7988
535.50 0.7983
535.60 0.7978
535.70 0.7973
535.80 0.7968
535.90 0.7963
536.00 0.7958
536.10 0.7953
536.20 0.7948
536.30 0.7943
536.40 0.7938
536.50 0.7933
536.60 0.7928
536.70 0.7923
536.80 0.7918
536.90 0.7913
537.00 0.7908
537.10 0.7903
537.20 0.7898
537.30 0.7893
537.40 0.7888
537.50 0.7883
537.60 0.7878
537.70 0.7873
537.80 0.7868
537.90 0.7864
538.00 0.7859
538.10 0.7854
538.20 0.7849
538.30 0.7844
538.40 0.7839
538.50 0.7834
538.60 0.7829
538.70 0.7824
538.80 0.7819
538.90 0.7815
539.00 0.781
539.10 0.7805
539.20 0.78
539.30 0.7795
539.40 0.779
539.50 0.7785
539.60 0.7781
539.70 0.7776
539.80 0.7771
539.90 0.7766
540.00 0.7761
540.10 0.7756
540.20 0.7752
540.30 0.7747
540.40 0.7742
540.50 0.7737
540.60 0.7732
540.70 0.7727
540.80 0.7722
540.90 0.7717
541.00 0.7712
541.10 0.7708
541.20 0.7703
541.30 0.7698
541.40 0.7693
541.50 0.7688
541.60 0.7684
541.70 0.7679
541.80 0.7674
541.90 0.7669
542.00 0.7664
542.10 0.766
542.20 0.7655
542.30 0.765
542.40 0.7645
542.50 0.7641
542.60 0.7636
542.70 0.7631
542.80 0.7626
542.90 0.7622
543.00 0.7617
543.10 0.7612
543.20 0.7607
543.30 0.7603
543.40 0.7598
543.50 0.7593
543.60 0.7589
543.70 0.7584
543.80 0.7579
543.90 0.7574
544.00 0.757
544.10 0.7565
544.20 0.756
544.30 0.7556
544.40 0.7551
544.50 0.7546
544.60 0.7541
544.70 0.7537
544.80 0.7532
544.90 0.7527
545.00 0.7523
545.10 0.7518
545.20 0.7513
545.30 0.7509
545.40 0.7504
545.50 0.75
545.60 0.7495
545.70 0.749
545.80 0.7486
545.90 0.7481
546.00 0.7477
546.10 0.7472
546.20 0.7467
546.30 0.7463
546.40 0.7458
546.50 0.7454
546.60 0.7449
546.70 0.7444
546.80 0.744
546.90 0.7435
547.00 0.7431
547.10 0.7426
547.20 0.7422
547.30 0.7417
547.40 0.7413
547.50 0.7408
547.60 0.7403
547.70 0.7399
547.80 0.7394
547.90 0.739
548.00 0.7385
548.10 0.7381
548.20 0.7376
548.30 0.7372
548.40 0.7367
548.50 0.7362
548.60 0.7358
548.70 0.7353
548.80 0.7349
548.90 0.7344
549.00 0.734
549.10 0.7335
549.20 0.7331
549.30 0.7326
549.40 0.7322
549.50 0.7317
549.60 0.7313
549.70 0.7308
549.80 0.7304
549.90 0.7299
550.00 0.7295
550.10 0.729
550.20 0.7286
550.30 0.7281
550.40 0.7277
550.50 0.7272
550.60 0.7268
550.70 0.7263
550.80 0.7259
550.90 0.7254
551.00 0.725
551.10 0.7246
551.20 0.7241
551.30 0.7237
551.40 0.7232
551.50 0.7228
551.60 0.7223
551.70 0.7219
551.80 0.7214
551.90 0.721
552.00 0.7206
552.10 0.7201
552.20 0.7197
552.30 0.7192
552.40 0.7188
552.50 0.7184
552.60 0.7179
552.70 0.7175
552.80 0.717
552.90 0.7166
553.00 0.7162
553.10 0.7157
553.20 0.7153
553.30 0.7148
553.40 0.7144
553.50 0.714
553.60 0.7135
553.70 0.7131
553.80 0.7127
553.90 0.7122
554.00 0.7118
554.10 0.7113
554.20 0.7109
554.30 0.7105
554.40 0.71
554.50 0.7096
554.60 0.7092
554.70 0.7087
554.80 0.7083
554.90 0.7079
555.00 0.7074
555.10 0.707
555.20 0.7066
555.30 0.7061
555.40 0.7057
555.50 0.7053
555.60 0.7048
555.70 0.7044
555.80 0.704
555.90 0.7035
556.00 0.7031
556.10 0.7027
556.20 0.7022
556.30 0.7018
556.40 0.7014
556.50 0.701
556.60 0.7005
556.70 0.7001
556.80 0.6997
556.90 0.6993
557.00 0.6989
557.10 0.6984
557.20 0.698
557.30 0.6976
557.40 0.6972
557.50 0.6967
557.60 0.6963
557.70 0.6959
557.80 0.6954
557.90 0.695
558.00 0.6946
558.10 0.6942
558.20 0.6937
558.30 0.6933
558.40 0.6929
558.50 0.6925
558.60 0.6921
558.70 0.6917
558.80 0.6912
558.90 0.6908
559.00 0.6904
559.10 0.69
559.20 0.6896
559.30 0.6892
559.40 0.6887
559.50 0.6883
559.60 0.6879
559.70 0.6875
559.80 0.6871
559.90 0.6867
560.00 0.6862
560.10 0.6858
560.20 0.6854
560.30 0.685
560.40 0.6846
560.50 0.6842
560.60 0.6838
560.70 0.6833
560.80 0.6829
560.90 0.6825
561.00 0.6821
561.10 0.6817
561.20 0.6813
561.30 0.6809
561.40 0.6805
561.50 0.68
561.60 0.6796
561.70 0.6792
561.80 0.6788
561.90 0.6784
562.00 0.678
562.10 0.6776
562.20 0.6772
562.30 0.6768
562.40 0.6764
562.50 0.676
562.60 0.6755
562.70 0.6751
562.80 0.6747
562.90 0.6743
563.00 0.6739
563.10 0.6735
563.20 0.6731
563.30 0.6727
563.40 0.6723
563.50 0.6719
563.60 0.6715
563.70 0.6711
563.80 0.6707
563.90 0.6703
564.00 0.6699
564.10 0.6695
564.20 0.669
564.30 0.6686
564.40 0.6682
564.50 0.6678
564.60 0.6674
564.70 0.667
564.80 0.6666
564.90 0.6662
565.00 0.6658
565.10 0.6654
565.20 0.665
565.30 0.6646
565.40 0.6642
565.50 0.6638
565.60 0.6634
565.70 0.663
565.80 0.6626
565.90 0.6622
566.00 0.6618
566.10 0.6614
566.20 0.661
566.30 0.6606
566.40 0.6602
566.50 0.6598
566.60 0.6594
566.70 0.6591
566.80 0.6587
566.90 0.6583
567.00 0.6579
567.10 0.6575
567.20 0.6571
567.30 0.6567
567.40 0.6563
567.50 0.6559
567.60 0.6555
567.70 0.6551
567.80 0.6547
567.90 0.6543
568.00 0.6539
568.10 0.6535
568.20 0.6531
568.30 0.6528
568.40 0.6524
568.50 0.652
568.60 0.6516
568.70 0.6512
568.80 0.6508
568.90 0.6504
569.00 0.65
569.10 0.6497
569.20 0.6493
569.30 0.6489
569.40 0.6485
569.50 0.6481
569.60 0.6477
569.70 0.6473
569.80 0.647
569.90 0.6466
570.00 0.6462
570.10 0.6458
570.20 0.6454
570.30 0.645
570.40 0.6446
570.50 0.6443
570.60 0.6439
570.70 0.6435
570.80 0.6431
570.90 0.6427
571.00 0.6424
571.10 0.642
571.20 0.6416
571.30 0.6412
571.40 0.6408
571.50 0.6404
571.60 0.6401
571.70 0.6397
571.80 0.6393
571.90 0.6389
572.00 0.6385
572.10 0.6382
572.20 0.6378
572.30 0.6374
572.40 0.637
572.50 0.6366
572.60 0.6363
572.70 0.6359
572.80 0.6355
572.90 0.6351
573.00 0.6348
573.10 0.6344
573.20 0.634
573.30 0.6336
573.40 0.6332
573.50 0.6329
573.60 0.6325
573.70 0.6321
573.80 0.6317
573.90 0.6314
574.00 0.631
574.10 0.6306
574.20 0.6302
574.30 0.6299
574.40 0.6295
574.50 0.6291
574.60 0.6287
574.70 0.6284
574.80 0.628
574.90 0.6276
575.00 0.6273
575.10 0.6269
575.20 0.6265
575.30 0.6261
575.40 0.6258
575.50 0.6254
575.60 0.625
575.70 0.6247
575.80 0.6243
575.90 0.6239
576.00 0.6236
576.10 0.6232
576.20 0.6229
576.30 0.6225
576.40 0.6221
576.50 0.6217
576.60 0.6214
576.70 0.621
576.80 0.6206
576.90 0.6203
577.00 0.6199
577.10 0.6195
577.20 0.6192
577.30 0.6188
577.40 0.6184
577.50 0.6181
577.60 0.6177
577.70 0.6174
577.80 0.617
577.90 0.6166
578.00 0.6163
578.10 0.6159
578.20 0.6155
578.30 0.6152
578.40 0.6148
578.50 0.6144
578.60 0.6141
578.70 0.6137
578.80 0.6134
578.90 0.613
579.00 0.6126
579.10 0.6123
579.20 0.6119
579.30 0.6115
579.40 0.6112
579.50 0.6108
579.60 0.6105
579.70 0.6101
579.80 0.6098
579.90 0.6094
580.00 0.609
580.10 0.6087
580.20 0.6083
580.30 0.608
580.40 0.6076
580.50 0.6073
580.60 0.6069
580.70 0.6066
580.80 0.6062
580.90 0.6058
581.00 0.6055
581.10 0.6051
581.20 0.6048
581.30 0.6044
581.40 0.6041
581.50 0.6037
581.60 0.6034
581.70 0.603
581.80 0.6027
581.90 0.6023
582.00 0.602
582.10 0.6016
582.20 0.6012
582.30 0.6009
582.40 0.6005
582.50 0.6002
582.60 0.5998
582.70 0.5995
582.80 0.5991
582.90 0.5988
583.00 0.5984
583.10 0.5981
583.20 0.5977
583.30 0.5974
583.40 0.597
583.50 0.5967
583.60 0.5963
583.70 0.596
583.80 0.5956
583.90 0.5953
584.00 0.595
584.10 0.5946
584.20 0.5943
584.30 0.5939
584.40 0.5936
584.50 0.5932
584.60 0.5929
584.70 0.5925
584.80 0.5922
584.90 0.5918
585.00 0.5915
585.10 0.5911
585.20 0.5908
585.30 0.5904
585.40 0.5901
585.50 0.5898
585.60 0.5894
585.70 0.5891
585.80 0.5887
585.90 0.5884
586.00 0.588
586.10 0.5877
586.20 0.5873
586.30 0.587
586.40 0.5867
586.50 0.5863
586.60 0.586
586.70 0.5857
586.80 0.5853
586.90 0.585
587.00 0.5847
587.10 0.5843
587.20 0.584
587.30 0.5836
587.40 0.5833
587.50 0.583
587.60 0.5826
587.70 0.5823
587.80 0.5819
587.90 0.5816
588.00 0.5812
588.10 0.5809
588.20 0.5806
588.30 0.5802
588.40 0.5799
588.50 0.5796
588.60 0.5792
588.70 0.5789
588.80 0.5786
588.90 0.5782
589.00 0.5779
589.10 0.5776
589.20 0.5772
589.30 0.5769
589.40 0.5766
589.50 0.5762
589.60 0.5759
589.70 0.5756
589.80 0.5752
589.90 0.5749
590.00 0.5745
590.10 0.5742
590.20 0.5739
590.30 0.5735
590.40 0.5732
590.50 0.5729
590.60 0.5726
590.70 0.5722
590.80 0.5719
590.90 0.5716
591.00 0.5712
591.10 0.5709
591.20 0.5706
591.30 0.5703
591.40 0.5699
591.50 0.5696
591.60 0.5693
591.70 0.5689
591.80 0.5686
591.90 0.5683
592.00 0.568
592.10 0.5676
592.20 0.5673
592.30 0.567
592.40 0.5667
592.50 0.5663
592.60 0.566
592.70 0.5657
592.80 0.5654
592.90 0.565
593.00 0.5647
593.10 0.5644
593.20 0.5641
593.30 0.5637
593.40 0.5634
593.50 0.5631
593.60 0.5628
593.70 0.5624
593.80 0.5621
593.90 0.5618
594.00 0.5615
594.10 0.5611
594.20 0.5608
594.30 0.5605
594.40 0.5602
594.50 0.5599
594.60 0.5595
594.70 0.5592
594.80 0.5589
594.90 0.5586
595.00 0.5582
595.10 0.5579
595.20 0.5576
595.30 0.5573
595.40 0.557
595.50 0.5566
595.60 0.5563
595.70 0.556
595.80 0.5557
595.90 0.5554
596.00 0.555
596.10 0.5547
596.20 0.5544
596.30 0.5541
596.40 0.5537
596.50 0.5534
596.60 0.5531
596.70 0.5527
596.80 0.5524
596.90 0.5521
597.00 0.5518
597.10 0.5514
597.20 0.5511
597.30 0.5508
597.40 0.5505
597.50 0.5502
597.60 0.5498
597.70 0.5495
597.80 0.5492
597.90 0.5489
598.00 0.5486
598.10 0.5483
598.20 0.548
598.30 0.5476
598.40 0.5473
598.50 0.547
598.60 0.5467
598.70 0.5464
598.80 0.5461
598.90 0.5458
599.00 0.5455
599.10 0.5451
599.20 0.5448
599.30 0.5445
599.40 0.5442
599.50 0.5439
599.60 0.5436
599.70 0.5433
599.80 0.543
599.90 0.5427
600.00 0.5424
600.10 0.542
600.20 0.5417
600.30 0.5414
600.40 0.5411
600.50 0.5408
600.60 0.5405
600.70 0.5402
600.80 0.5399
600.90 0.5396
601.00 0.5393
601.10 0.539
601.20 0.5387
601.30 0.5383
601.40 0.538
601.50 0.5377
601.60 0.5374
601.70 0.5371
601.80 0.5368
601.90 0.5365
602.00 0.5362
602.10 0.5359
602.20 0.5356
602.30 0.5353
602.40 0.535
602.50 0.5347
602.60 0.5344
602.70 0.5341
602.80 0.5338
602.90 0.5335
603.00 0.5332
603.10 0.5329
603.20 0.5326
603.30 0.5323
603.40 0.532
603.50 0.5317
603.60 0.5314
603.70 0.5311
603.80 0.5307
603.90 0.5304
604.00 0.5301
604.10 0.5298
604.20 0.5295
604.30 0.5292
604.40 0.5289
604.50 0.5286
604.60 0.5283
604.70 0.528
604.80 0.5277
604.90 0.5274
605.00 0.5271
605.10 0.5268
605.20 0.5266
605.30 0.5263
605.40 0.526
605.50 0.5257
605.60 0.5254
605.70 0.5251
605.80 0.5248
605.90 0.5245
606.00 0.5242
606.10 0.5239
606.20 0.5236
606.30 0.5233
606.40 0.523
606.50 0.5227
606.60 0.5224
606.70 0.5221
606.80 0.5218
606.90 0.5215
607.00 0.5212
607.10 0.5209
607.20 0.5206
607.30 0.5203
607.40 0.52
607.50 0.5197
607.60 0.5195
607.70 0.5192
607.80 0.5189
607.90 0.5186
608.00 0.5183
608.10 0.518
608.20 0.5177
608.30 0.5174
608.40 0.5171
608.50 0.5168
608.60 0.5165
608.70 0.5162
608.80 0.5159
608.90 0.5157
609.00 0.5154
609.10 0.5151
609.20 0.5148
609.30 0.5145
609.40 0.5142
609.50 0.5139
609.60 0.5136
609.70 0.5133
609.80 0.513
609.90 0.5128
610.00 0.5125
610.10 0.5122
610.20 0.5119
610.30 0.5116
610.40 0.5113
610.50 0.511
610.60 0.5107
610.70 0.5105
610.80 0.5102
610.90 0.5099
611.00 0.5096
611.10 0.5093
611.20 0.509
611.30 0.5087
611.40 0.5084
611.50 0.5082
611.60 0.5079
611.70 0.5076
611.80 0.5073
611.90 0.507
612.00 0.5067
612.10 0.5064
612.20 0.5062
612.30 0.5059
612.40 0.5056
612.50 0.5053
612.60 0.505
612.70 0.5047
612.80 0.5045
612.90 0.5042
613.00 0.5039
613.10 0.5036
613.20 0.5033
613.30 0.503
613.40 0.5028
613.50 0.5025
613.60 0.5022
613.70 0.5019
613.80 0.5016
613.90 0.5014
614.00 0.5011
614.10 0.5008
614.20 0.5005
614.30 0.5002
614.40 0.5
614.50 0.4997
614.60 0.4994
614.70 0.4991
614.80 0.4988
614.90 0.4986
615.00 0.4983
615.10 0.498
615.20 0.4977
615.30 0.4974
615.40 0.4972
615.50 0.4969
615.60 0.4966
615.70 0.4963
615.80 0.4961
615.90 0.4958
616.00 0.4955
616.10 0.4952
616.20 0.4949
616.30 0.4947
616.40 0.4944
616.50 0.4941
616.60 0.4938
616.70 0.4936
616.80 0.4933
616.90 0.493
617.00 0.4927
617.10 0.4925
617.20 0.4922
617.30 0.4919
617.40 0.4916
617.50 0.4914
617.60 0.4911
617.70 0.4908
617.80 0.4905
617.90 0.4903
618.00 0.49
618.10 0.4897
618.20 0.4894
618.30 0.4892
618.40 0.4889
618.50 0.4886
618.60 0.4884
618.70 0.4881
618.80 0.4878
618.90 0.4875
619.00 0.4873
619.10 0.487
619.20 0.4867
619.30 0.4864
619.40 0.4862
619.50 0.4859
619.60 0.4856
619.70 0.4854
619.80 0.4851
619.90 0.4848
620.00 0.4846
620.10 0.4843
620.20 0.484
620.30 0.4837
620.40 0.4835
620.50 0.4832
620.60 0.4829
620.70 0.4827
620.80 0.4824
620.90 0.4821
621.00 0.4819
621.10 0.4816
621.20 0.4813
621.30 0.4811
621.40 0.4808
621.50 0.4805
621.60 0.4803
621.70 0.48
621.80 0.4797
621.90 0.4794
622.00 0.4792
622.10 0.4789
622.20 0.4786
622.30 0.4784
622.40 0.4781
622.50 0.4779
622.60 0.4776
622.70 0.4773
622.80 0.4771
622.90 0.4768
623.00 0.4765
623.10 0.4763
623.20 0.476
623.30 0.4757
623.40 0.4755
623.50 0.4752
623.60 0.4749
623.70 0.4747
623.80 0.4744
623.90 0.4741
624.00 0.4739
624.10 0.4736
624.20 0.4734
624.30 0.4731
624.40 0.4728
624.50 0.4726
624.60 0.4723
624.70 0.472
624.80 0.4718
624.90 0.4715
625.00 0.4713
625.10 0.471
625.20 0.4707
625.30 0.4705
625.40 0.4702
625.50 0.4699
625.60 0.4697
625.70 0.4694
625.80 0.4692
625.90 0.4689
626.00 0.4686
626.10 0.4684
626.20 0.4681
626.30 0.4679
626.40 0.4676
626.50 0.4673
626.60 0.4671
626.70 0.4668
626.80 0.4666
626.90 0.4663
627.00 0.466
627.10 0.4658
627.20 0.4655
627.30 0.4653
627.40 0.465
627.50 0.4647
627.60 0.4645
627.70 0.4642
627.80 0.464
627.90 0.4637
628.00 0.4635
628.10 0.4632
628.20 0.4629
628.30 0.4627
628.40 0.4624
628.50 0.4622
628.60 0.4619
628.70 0.4617
628.80 0.4614
628.90 0.4611
629.00 0.4609
629.10 0.4606
629.20 0.4604
629.30 0.4601
629.40 0.4599
629.50 0.4596
629.60 0.4593
629.70 0.4591
629.80 0.4588
629.90 0.4586
630.00 0.4583
630.10 0.4581
630.20 0.4578
630.30 0.4576
630.40 0.4573
630.50 0.457
630.60 0.4568
630.70 0.4565
630.80 0.4563
630.90 0.456
631.00 0.4558
631.10 0.4555
631.20 0.4553
631.30 0.455
631.40 0.4548
631.50 0.4545
631.60 0.4543
631.70 0.454
631.80 0.4537
631.90 0.4535
632.00 0.4532
632.10 0.453
632.20 0.4527
632.30 0.4525
632.40 0.4522
632.50 0.452
632.60 0.4517
632.70 0.4515
632.80 0.4512
632.90 0.451
633.00 0.4507
633.10 0.4505
633.20 0.4502
633.30 0.4499
633.40 0.4497
633.50 0.4494
633.60 0.4492
633.70 0.4489
633.80 0.4487
633.90 0.4484
634.00 0.4482
634.10 0.4479
634.20 0.4477
634.30 0.4474
634.40 0.4472
634.50 0.4469
634.60 0.4467
634.70 0.4464
634.80 0.4462
634.90 0.4459
635.00 0.4457
635.10 0.4454
635.20 0.4452
635.30 0.4449
635.40 0.4447
635.50 0.4444
635.60 0.4441
635.70 0.4439
635.80 0.4436
635.90 0.4434
636.00 0.4431
636.10 0.4429
636.20 0.4426
636.30 0.4424
636.40 0.4421
636.50 0.4419
636.60 0.4416
636.70 0.4414
636.80 0.4411
636.90 0.4409
637.00 0.4406
637.10 0.4404
637.20 0.4401
637.30 0.4399
637.40 0.4396
637.50 0.4393
637.60 0.4391
637.70 0.4388
637.80 0.4386
637.90 0.4383
638.00 0.4381
638.10 0.4378
638.20 0.4376
638.30 0.4373
638.40 0.4371
638.50 0.4368
638.60 0.4366
638.70 0.4363
638.80 0.436
638.90 0.4358
639.00 0.4355
639.10 0.4353
639.20 0.435
639.30 0.4348
639.40 0.4345
639.50 0.4342
639.60 0.434
639.70 0.4337
639.80 0.4335
639.90 0.4332
640.00 0.433
640.10 0.4327
640.20 0.4324
640.30 0.4322
640.40 0.4319
640.50 0.4317
640.60 0.4314
640.70 0.4311
640.80 0.4309
640.90 0.4306
641.00 0.4304
641.10 0.4301
641.20 0.4298
641.30 0.4296
641.40 0.4293
641.50 0.429
641.60 0.4288
641.70 0.4285
641.80 0.4282
641.90 0.428
642.00 0.4277
642.10 0.4274
642.20 0.4272
642.30 0.4269
642.40 0.4266
642.50 0.4264
642.60 0.4261
642.70 0.4258
642.80 0.4255
642.90 0.4253
643.00 0.425
643.10 0.4247
643.20 0.4244
643.30 0.4242
643.40 0.4239
643.50 0.4236
643.60 0.4233
643.70 0.423
643.80 0.4227
643.90 0.4224
644.00 0.4222
644.10 0.4219
644.20 0.4216
644.30 0.4213
644.40 0.421
644.50 0.4207
644.60 0.4204
644.70 0.4201
644.80 0.4198
644.90 0.4195
645.00 0.4192
645.10 0.4189
645.20 0.4186
645.30 0.4183
645.40 0.418
645.50 0.4176
645.60 0.4173
645.70 0.417
645.80 0.4167
645.90 0.4163
646.00 0.416
646.10 0.4157
646.20 0.4154
646.30 0.415
646.40 0.4147
646.50 0.4143
646.60 0.414
646.70 0.4136
646.80 0.4133
646.90 0.4129
647.00 0.4126
647.10 0.4122
647.20 0.4118
647.30 0.4115
647.40 0.4111
647.50 0.4107
647.60 0.4103
647.70 0.4099
647.80 0.4095
647.90 0.409
648.00 0.4086
648.10 0.4082
648.20 0.4078
648.30 0.4074
648.40 0.4069
648.50 0.4064
648.60 0.406
648.70 0.4055
648.80 0.405
648.90 0.4045
649.00 0.404
649.10 0.4035
649.20 0.4031
649.30 0.4026
649.40 0.402
649.50 0.4014
649.60 0.4008
649.70 0.4002
649.80 0.3996
649.90 0.399
650.00 0.3984
650.10 0.3978
650.20 0.3972
650.30 0.3965
650.40 0.3957
650.50 0.3949
650.60 0.3941
650.70 0.3933
650.80 0.3925
650.90 0.3917
651.00 0.3909
651.10 0.3901
651.20 0.3894
651.30 0.3885
651.40 0.3874
651.50 0.3862
651.60 0.3851
651.70 0.384
651.80 0.3829
651.90 0.3817
652.00 0.3806
652.10 0.3795
652.20 0.3784
652.30 0.3772
652.40 0.3755
652.50 0.3738
652.60 0.3722
652.70 0.3705
652.80 0.3689
652.90 0.3673
653.00 0.3656
653.10 0.364
653.20 0.3623
653.30 0.3605
653.40 0.3581
653.50 0.3556
653.60 0.3532
653.70 0.3507
653.80 0.3483
653.90 0.3458
654.00 0.3434
654.10 0.3409
654.20 0.3385
654.30 0.3359
654.40 0.3327
654.50 0.3294
654.60 0.3262
654.70 0.323
654.80 0.3196
654.90 0.3156
655.00 0.3117
655.10 0.3077
655.20 0.3037
655.30 0.2997
655.40 0.2953
655.50 0.2907
655.60 0.2858
655.70 0.2808
655.80 0.2752
655.90 0.2692
656.00 0.2616
656.10 0.2533
656.20 0.22
656.30 0.1864
656.40 0.2425
656.50 0.2564
656.60 0.2638
656.70 0.2708
656.80 0.2761
656.90 0.2813
657.00 0.286
657.10 0.2905
657.20 0.2946
657.30 0.2986
657.40 0.3023
657.50 0.3059
657.60 0.3096
657.70 0.3132
657.80 0.3167
657.90 0.3196
658.00 0.3225
658.10 0.3253
658.20 0.3282
658.30 0.3309
658.40 0.333
658.50 0.335
658.60 0.3371
658.70 0.3391
658.80 0.3412
658.90 0.3432
659.00 0.3453
659.10 0.3473
659.20 0.3493
659.30 0.3512
659.40 0.3524
659.50 0.3537
659.60 0.3549
659.70 0.3561
659.80 0.3573
659.90 0.3585
660.00 0.3597
660.10 0.361
660.20 0.3622
660.30 0.3633
660.40 0.364
660.50 0.3646
660.60 0.3653
660.70 0.366
660.80 0.3667
660.90 0.3674
661.00 0.368
661.10 0.3687
661.20 0.3694
661.30 0.37
661.40 0.3704
661.50 0.3707
661.60 0.3711
661.70 0.3714
661.80 0.3718
661.90 0.3721
662.00 0.3725
662.10 0.3728
662.20 0.3732
662.30 0.3735
662.40 0.3737
662.50 0.3738
662.60 0.374
662.70 0.3741
662.80 0.3743
662.90 0.3744
663.00 0.3746
663.10 0.3747
663.20 0.3749
663.30 0.375
663.40 0.3751
663.50 0.3751
663.60 0.3752
663.70 0.3752
663.80 0.3752
663.90 0.3753
664.00 0.3753
664.10 0.3754
664.20 0.3754
664.30 0.3754
664.40 0.3754
664.50 0.3754
664.60 0.3753
664.70 0.3753
664.80 0.3753
664.90 0.3752
665.00 0.3752
665.10 0.3752
665.20 0.3751
665.30 0.3751
665.40 0.375
665.50 0.3749
665.60 0.3749
665.70 0.3748
665.80 0.3747
665.90 0.3746
666.00 0.3745
666.10 0.3745
666.20 0.3744
666.30 0.3743
666.40 0.3742
666.50 0.3741
666.60 0.374
666.70 0.3739
666.80 0.3737
666.90 0.3736
667.00 0.3735
667.10 0.3734
667.20 0.3733
667.30 0.3732
667.40 0.3731
667.50 0.3729
667.60 0.3728
667.70 0.3727
667.80 0.3725
667.90 0.3724
668.00 0.3723
668.10 0.3722
668.20 0.372
668.30 0.3719
668.40 0.3717
668.50 0.3716
668.60 0.3715
668.70 0.3713
668.80 0.3712
668.90 0.371
669.00 0.3709
669.10 0.3707
669.20 0.3706
669.30 0.3704
669.40 0.3703
669.50 0.3701
669.60 0.37
669.70 0.3698
669.80 0.3697
669.90 0.3695
670.00 0.3694
670.10 0.3692
670.20 0.3691
670.30 0.3689
670.40 0.3687
670.50 0.3686
670.60 0.3684
670.70 0.3682
670.80 0.3681
670.90 0.3679
671.00 0.3678
671.10 0.3676
671.20 0.3674
671.30 0.3673
671.40 0.3671
671.50 0.3669
671.60 0.3668
671.70 0.3666
671.80 0.3664
671.90 0.3663
672.00 0.3661
672.10 0.366
672.20 0.3658
672.30 0.3656
672.40 0.3655
672.50 0.3653
672.60 0.3651
672.70 0.3649
672.80 0.3648
672.90 0.3646
673.00 0.3644
673.10 0.3643
673.20 0.3641
673.30 0.3639
673.40 0.3638
673.50 0.3636
673.60 0.3634
673.70 0.3632
673.80 0.3631
673.90 0.3629
674.00 0.3627
674.10 0.3626
674.20 0.3624
674.30 0.3622
674.40 0.362
674.50 0.3619
674.60 0.3617
674.70 0.3615
674.80 0.3613
674.90 0.3612
675.00 0.361
675.10 0.3608
675.20 0.3607
675.30 0.3605
675.40 0.3603
675.50 0.3601
675.60 0.36
675.70 0.3598
675.80 0.3596
675.90 0.3594
676.00 0.3593
676.10 0.3591
676.20 0.3589
676.30 0.3587
676.40 0.3586
676.50 0.3584
676.60 0.3582
676.70 0.358
676.80 0.3579
676.90 0.3577
677.00 0.3575
677.10 0.3573
677.20 0.3572
677.30 0.357
677.40 0.3568
677.50 0.3566
677.60 0.3565
677.70 0.3563
677.80 0.3561
677.90 0.3559
678.00 0.3558
678.10 0.3556
678.20 0.3554
678.30 0.3552
678.40 0.3551
678.50 0.3549
678.60 0.3547
678.70 0.3545
678.80 0.3544
678.90 0.3542
679.00 0.354
679.10 0.3538
679.20 0.3537
679.30 0.3535
679.40 0.3533
679.50 0.3531
679.60 0.353
679.70 0.3528
679.80 0.3526
679.90 0.3524
680.00 0.3523
680.10 0.3521
680.20 0.3519
680.30 0.3518
680.40 0.3516
680.50 0.3514
680.60 0.3512
680.70 0.3511
680.80 0.3509
680.90 0.3507
681.00 0.3505
681.10 0.3504
681.20 0.3502
681.30 0.35
681.40 0.3498
681.50 0.3497
681.60 0.3495
681.70 0.3493
681.80 0.3491
681.90 0.349
682.00 0.3488
682.10 0.3486
682.20 0.3484
682.30 0.3483
682.40 0.3481
682.50 0.3479
682.60 0.3478
682.70 0.3476
682.80 0.3474
682.90 0.3472
683.00 0.3471
683.10 0.3469
683.20 0.3467
683.30 0.3465
683.40 0.3464
683.50 0.3462
683.60 0.346
683.70 0.3459
683.80 0.3457
683.90 0.3455
684.00 0.3453
684.10 0.3452
684.20 0.345
684.30 0.3448
684.40 0.3446
684.50 0.3445
684.60 0.3443
684.70 0.3441
684.80 0.344
684.90 0.3438
685.00 0.3436
685.10 0.3434
685.20 0.3433
685.30 0.3431
685.40 0.3429
685.50 0.3428
685.60 0.3426
685.70 0.3424
685.80 0.3423
685.90 0.3421
686.00 0.3419
686.10 0.3417
686.20 0.3416
686.30 0.3414
686.40 0.3412
686.50 0.3411
686.60 0.3409
686.70 0.3407
686.80 0.3406
686.90 0.3404
687.00 0.3402
687.10 0.34
687.20 0.3399
687.30 0.3397
687.40 0.3395
687.50 0.3394
687.60 0.3392
687.70 0.339
687.80 0.3389
687.90 0.3387
688.00 0.3385
688.10 0.3384
688.20 0.3382
688.30 0.338
688.40 0.3378
688.50 0.3377
688.60 0.3375
688.70 0.3373
688.80 0.3372
688.90 0.337
689.00 0.3368
689.10 0.3367
689.20 0.3365
689.30 0.3363
689.40 0.3362
689.50 0.336
689.60 0.3358
689.70 0.3357
689.80 0.3355
689.90 0.3353
690.00 0.3352
690.10 0.335
690.20 0.3348
690.30 0.3347
690.40 0.3345
690.50 0.3343
690.60 0.3342
690.70 0.334
690.80 0.3338
690.90 0.3337
691.00 0.3335
691.10 0.3333
691.20 0.3332
691.30 0.333
691.40 0.3328
691.50 0.3327
691.60 0.3325
691.70 0.3324
691.80 0.3322
691.90 0.332
692.00 0.3319
692.10 0.3317
692.20 0.3315
692.30 0.3314
692.40 0.3312
692.50 0.331
692.60 0.3309
692.70 0.3307
692.80 0.3305
692.90 0.3304
693.00 0.3302
693.10 0.33
693.20 0.3299
693.30 0.3297
693.40 0.3296
693.50 0.3294
693.60 0.3292
693.70 0.3291
693.80 0.3289
693.90 0.3287
694.00 0.3286
694.10 0.3284
694.20 0.3283
694.30 0.3281
694.40 0.3279
694.50 0.3278
694.60 0.3276
694.70 0.3274
694.80 0.3273
694.90 0.3271
695.00 0.3269
695.10 0.3268
695.20 0.3266
695.30 0.3265
695.40 0.3263
695.50 0.3261
695.60 0.326
695.70 0.3258
695.80 0.3257
695.90 0.3255
696.00 0.3253
696.10 0.3252
696.20 0.325
696.30 0.3248
696.40 0.3247
696.50 0.3245
696.60 0.3244
696.70 0.3242
696.80 0.324
696.90 0.3239
697.00 0.3237
697.10 0.3236
697.20 0.3234
697.30 0.3232
697.40 0.3231
697.50 0.3229
697.60 0.3228
697.70 0.3226
697.80 0.3224
697.90 0.3223
698.00 0.3221
698.10 0.322
698.20 0.3218
698.30 0.3216
698.40 0.3215
698.50 0.3213
698.60 0.3212
698.70 0.321
698.80 0.3208
698.90 0.3207
699.00 0.3205
699.10 0.3204
699.20 0.3202
699.30 0.32
699.40 0.3199
699.50 0.3197
699.60 0.3196
699.70 0.3194
699.80 0.3192
699.90 0.3191
700.00 0.3189
700.10 0.3188
700.20 0.3186
700.30 0.3184
700.40 0.3182
700.50 0.318
700.60 0.3179
700.70 0.3177
700.80 0.3175
700.90 0.3173
701.00 0.3171
701.10 0.317
701.20 0.3168
701.30 0.3166
701.40 0.3164
701.50 0.3163
701.60 0.3161
701.70 0.3159
701.80 0.3157
701.90 0.3155
702.00 0.3154
702.10 0.3152
702.20 0.315
702.30 0.3148
702.40 0.3147
702.50 0.3145
702.60 0.3143
702.70 0.3141
702.80 0.314
702.90 0.3138
703.00 0.3136
703.10 0.3134
703.20 0.3133
703.30 0.3131
703.40 0.3129
703.50 0.3127
703.60 0.3125
703.70 0.3124
703.80 0.3122
703.90 0.312
704.00 0.3118
704.10 0.3117
704.20 0.3115
704.30 0.3113
704.40 0.3111
704.50 0.311
704.60 0.3108
704.70 0.3106
704.80 0.3104
704.90 0.3103
705.00 0.3101
705.10 0.3099
705.20 0.3098
705.30 0.3096
705.40 0.3095
705.50 0.3093
705.60 0.3092
705.70 0.309
705.80 0.3089
705.90 0.3087
706.00 0.3086
706.10 0.3084
706.20 0.3083
706.30 0.3081
706.40 0.308
706.50 0.3078
706.60 0.3077
706.70 0.3075
706.80 0.3074
706.90 0.3072
707.00 0.3071
707.10 0.3069
707.20 0.3068
707.30 0.3066
707.40 0.3065
707.50 0.3063
707.60 0.3062
707.70 0.306
707.80 0.3059
707.90 0.3057
708.00 0.3056
708.10 0.3054
708.20 0.3053
708.30 0.3051
708.40 0.305
708.50 0.3048
708.60 0.3047
708.70 0.3045
708.80 0.3044
708.90 0.3042
709.00 0.3041
709.10 0.3039
709.20 0.3038
709.30 0.3036
709.40 0.3035
709.50 0.3033
709.60 0.3032
709.70 0.303
709.80 0.3029
709.90 0.3027
710.00 0.3026
710.10 0.3024
710.20 0.3023
710.30 0.3021
710.40 0.302
710.50 0.3018
710.60 0.3017
710.70 0.3015
710.80 0.3014
710.90 0.3012
711.00 0.3011
711.10 0.301
711.20 0.3008
711.30 0.3007
711.40 0.3005
711.50 0.3004
711.60 0.3002
711.70 0.3001
711.80 0.2999
711.90 0.2998
712.00 0.2996
712.10 0.2995
712.20 0.2993
712.30 0.2992
712.40 0.299
712.50 0.2989
712.60 0.2988
712.70 0.2986
712.80 0.2985
712.90 0.2983
713.00 0.2982
713.10 0.298
713.20 0.2979
713.30 0.2977
713.40 0.2976
713.50 0.2974
713.60 0.2973
713.70 0.2972
713.80 0.297
713.90 0.2969
714.00 0.2967
714.10 0.2966
714.20 0.2964
714.30 0.2963
714.40 0.2961
714.50 0.296
714.60 0.2959
714.70 0.2957
714.80 0.2956
714.90 0.2954
715.00 0.2953
715.10 0.2951
715.20 0.295
715.30 0.2948
715.40 0.2947
715.50 0.2946
715.60 0.2944
715.70 0.2943
715.80 0.2941
715.90 0.294
716.00 0.2939
716.10 0.2937
716.20 0.2936
716.30 0.2934
716.40 0.2933
716.50 0.2931
716.60 0.293
716.70 0.2929
716.80 0.2927
716.90 0.2926
717.00 0.2924
717.10 0.2923
717.20 0.2922
717.30 0.292
717.40 0.2919
717.50 0.2917
717.60 0.2916
717.70 0.2914
717.80 0.2913
717.90 0.2912
718.00 0.291
718.10 0.2909
718.20 0.2907
718.30 0.2906
718.40 0.2905
718.50 0.2903
718.60 0.2902
718.70 0.29
718.80 0.2899
718.90 0.2898
719.00 0.2896
719.10 0.2895
719.20 0.2893
719.30 0.2892
719.40 0.2891
719.50 0.2889
719.60 0.2888
719.70 0.2886
719.80 0.2885
719.90 0.2884
720.00 0.2882
720.10 0.2881
720.20 0.2879
720.30 0.2878
720.40 0.2877
720.50 0.2875
720.60 0.2874
720.70 0.2872
720.80 0.2871
720.90 0.287
721.00 0.2868
721.10 0.2867
721.20 0.2866
721.30 0.2864
721.40 0.2863
721.50 0.2861
721.60 0.286
721.70 0.2859
721.80 0.2857
721.90 0.2856
722.00 0.2855
722.10 0.2853
722.20 0.2852
722.30 0.285
722.40 0.2849
722.50 0.2848
722.60 0.2846
722.70 0.2845
722.80 0.2844
722.90 0.2842
723.00 0.2841
723.10 0.2839
723.20 0.2838
723.30 0.2837
723.40 0.2835
723.50 0.2834
723.60 0.2833
723.70 0.2831
723.80 0.283
723.90 0.2828
724.00 0.2827
724.10 0.2826
724.20 0.2824
724.30 0.2823
724.40 0.2822
724.50 0.282
724.60 0.2819
724.70 0.2818
724.80 0.2816
724.90 0.2815
725.00 0.2813
725.10 0.2812
725.20 0.2811
725.30 0.2809
725.40 0.2808
725.50 0.2807
725.60 0.2805
725.70 0.2804
725.80 0.2803
725.90 0.2801
726.00 0.28
726.10 0.2799
726.20 0.2797
726.30 0.2796
726.40 0.2795
726.50 0.2793
726.60 0.2792
726.70 0.2791
726.80 0.2789
726.90 0.2788
727.00 0.2787
727.10 0.2785
727.20 0.2784
727.30 0.2783
727.40 0.2781
727.50 0.278
727.60 0.2779
727.70 0.2777
727.80 0.2776
727.90 0.2775
728.00 0.2773
728.10 0.2772
728.20 0.2771
728.30 0.2769
728.40 0.2768
728.50 0.2767
728.60 0.2765
728.70 0.2764
728.80 0.2763
728.90 0.2761
729.00 0.276
729.10 0.2759
729.20 0.2757
729.30 0.2756
729.40 0.2755
729.50 0.2753
729.60 0.2752
729.70 0.2751
729.80 0.2749
729.90 0.2748
730.00 0.2747
730.10 0.2746
730.20 0.2744
730.30 0.2743
730.40 0.2742
730.50 0.274
730.60 0.2739
730.70 0.2738
730.80 0.2736
730.90 0.2735
731.00 0.2734
731.10 0.2732
731.20 0.2731
731.30 0.273
731.40 0.2729
731.50 0.2727
731.60 0.2726
731.70 0.2725
731.80 0.2723
731.90 0.2722
732.00 0.2721
732.10 0.272
732.20 0.2718
732.30 0.2717
732.40 0.2716
732.50 0.2714
732.60 0.2713
732.70 0.2712
732.80 0.2711
732.90 0.2709
733.00 0.2708
733.10 0.2707
733.20 0.2705
733.30 0.2704
733.40 0.2703
733.50 0.2702
733.60 0.27
733.70 0.2699
733.80 0.2698
733.90 0.2696
734.00 0.2695
734.10 0.2694
734.20 0.2693
734.30 0.2691
734.40 0.269
734.50 0.2689
734.60 0.2687
734.70 0.2686
734.80 0.2685
734.90 0.2684
735.00 0.2682
735.10 0.2681
735.20 0.268
735.30 0.2679
735.40 0.2677
735.50 0.2676
735.60 0.2675
735.70 0.2673
735.80 0.2672
735.90 0.2671
736.00 0.267
736.10 0.2668
736.20 0.2667
736.30 0.2666
736.40 0.2665
736.50 0.2663
736.60 0.2662
736.70 0.2661
736.80 0.2659
736.90 0.2658
737.00 0.2657
737.10 0.2656
737.20 0.2654
737.30 0.2653
737.40 0.2652
737.50 0.2651
737.60 0.2649
737.70 0.2648
737.80 0.2647
737.90 0.2646
738.00 0.2644
738.10 0.2643
738.20 0.2642
738.30 0.2641
738.40 0.2639
738.50 0.2638
738.60 0.2637
738.70 0.2636
738.80 0.2634
738.90 0.2633
739.00 0.2632
739.10 0.2631
739.20 0.2629
739.30 0.2628
739.40 0.2627
739.50 0.2626
739.60 0.2624
739.70 0.2623
739.80 0.2622
739.90 0.2621
740.00 0.2619
740.10 0.2618
740.20 0.2617
740.30 0.2616
740.40 0.2614
740.50 0.2613
740.60 0.2612
740.70 0.2611
740.80 0.261
740.90 0.2608
741.00 0.2607
741.10 0.2606
741.20 0.2605
741.30 0.2603
741.40 0.2602
741.50 0.2601
741.60 0.26
741.70 0.2599
741.80 0.2597
741.90 0.2596
742.00 0.2595
742.10 0.2594
742.20 0.2592
742.30 0.2591
742.40 0.259
742.50 0.2589
742.60 0.2588
742.70 0.2586
742.80 0.2585
742.90 0.2584
743.00 0.2583
743.10 0.2582
743.20 0.258
743.30 0.2579
743.40 0.2578
743.50 0.2577
743.60 0.2575
743.70 0.2574
743.80 0.2573
743.90 0.2572
744.00 0.2571
744.10 0.2569
744.20 0.2568
744.30 0.2567
744.40 0.2566
744.50 0.2565
744.60 0.2563
744.70 0.2562
744.80 0.2561
744.90 0.256
745.00 0.2559
745.10 0.2557
745.20 0.2556
745.30 0.2555
745.40 0.2554
745.50 0.2553
745.60 0.2551
745.70 0.255
745.80 0.2549
745.90 0.2548
746.00 0.2547
746.10 0.2545
746.20 0.2544
746.30 0.2543
746.40 0.2542
746.50 0.2541
746.60 0.2539
746.70 0.2538
746.80 0.2537
746.90 0.2536
747.00 0.2535
747.10 0.2533
747.20 0.2532
747.30 0.2531
747.40 0.253
747.50 0.2529
747.60 0.2528
747.70 0.2526
747.80 0.2525
747.90 0.2524
748.00 0.2523
748.10 0.2522
748.20 0.252
748.30 0.2519
748.40 0.2518
748.50 0.2517
748.60 0.2516
748.70 0.2515
748.80 0.2513
748.90 0.2512
749.00 0.2511
749.10 0.251
749.20 0.2509
749.30 0.2507
749.40 0.2506
749.50 0.2505
749.60 0.2504
749.70 0.2503
749.80 0.2502
749.90 0.25
750.00 0.2499
750.10 0.2498
750.20 0.2497
750.30 0.2496
750.40 0.2495
750.50 0.2493
750.60 0.2492
750.70 0.2491
750.80 0.249
750.90 0.2489
751.00 0.2488
751.10 0.2487
751.20 0.2485
751.30 0.2484
751.40 0.2483
751.50 0.2482
751.60 0.2481
751.70 0.248
751.80 0.2478
751.90 0.2477
752.00 0.2476
752.10 0.2475
752.20 0.2474
752.30 0.2473
752.40 0.2472
752.50 0.247
752.60 0.2469
752.70 0.2468
752.80 0.2467
752.90 0.2466
753.00 0.2465
753.10 0.2464
753.20 0.2462
753.30 0.2461
753.40 0.246
753.50 0.2459
753.60 0.2458
753.70 0.2457
753.80 0.2456
753.90 0.2454
754.00 0.2453
754.10 0.2452
754.20 0.2451
754.30 0.245
754.40 0.2449
754.50 0.2448
754.60 0.2446
754.70 0.2445
754.80 0.2444
754.90 0.2443
755.00 0.2442
755.10 0.2441
755.20 0.244
755.30 0.2439
755.40 0.2437
755.50 0.2436
755.60 0.2435
755.70 0.2434
755.80 0.2433
755.90 0.2432
756.00 0.2431
756.10 0.243
756.20 0.2428
756.30 0.2427
756.40 0.2426
756.50 0.2425
756.60 0.2424
756.70 0.2423
756.80 0.2422
756.90 0.2421
757.00 0.2419
757.10 0.2418
757.20 0.2417
757.30 0.2416
757.40 0.2415
757.50 0.2414
757.60 0.2413
757.70 0.2412
757.80 0.241
757.90 0.2409
758.00 0.2408
758.10 0.2407
758.20 0.2406
758.30 0.2405
758.40 0.2404
758.50 0.2403
758.60 0.2402
758.70 0.24
758.80 0.2399
758.90 0.2398
759.00 0.2397
759.10 0.2396
759.20 0.2395
759.30 0.2394
759.40 0.2393
759.50 0.2392
759.60 0.239
759.70 0.2389
759.80 0.2388
759.90 0.2387
760.00 0.2386
760.10 0.2385
760.20 0.2384
760.30 0.2383
760.40 0.2382
760.50 0.2381
760.60 0.2379
760.70 0.2378
760.80 0.2377
760.90 0.2376
761.00 0.2375
761.10 0.2374
761.20 0.2373
761.30 0.2372
761.40 0.2371
761.50 0.237
761.60 0.2369
761.70 0.2367
761.80 0.2366
761.90 0.2365
762.00 0.2364
762.10 0.2363
762.20 0.2362
762.30 0.2361
762.40 0.236
762.50 0.2359
762.60 0.2358
762.70 0.2357
762.80 0.2356
762.90 0.2355
763.00 0.2353
763.10 0.2352
763.20 0.2351
763.30 0.235
763.40 0.2349
763.50 0.2348
763.60 0.2347
763.70 0.2346
763.80 0.2345
763.90 0.2344
764.00 0.2343
764.10 0.2342
764.20 0.2341
764.30 0.2339
764.40 0.2338
764.50 0.2337
764.60 0.2336
764.70 0.2335
764.80 0.2334
764.90 0.2333
765.00 0.2332
765.10 0.2331
765.20 0.233
765.30 0.2329
765.40 0.2328
765.50 0.2327
765.60 0.2326
765.70 0.2325
765.80 0.2323
765.90 0.2322
766.00 0.2321
766.10 0.232
766.20 0.2319
766.30 0.2318
766.40 0.2317
766.50 0.2316
766.60 0.2315
766.70 0.2314
766.80 0.2313
766.90 0.2312
767.00 0.2311
767.10 0.231
767.20 0.2309
767.30 0.2308
767.40 0.2306
767.50 0.2305
767.60 0.2304
767.70 0.2303
767.80 0.2302
767.90 0.2301
768.00 0.23
768.10 0.2299
768.20 0.2298
768.30 0.2297
768.40 0.2296
768.50 0.2295
768.60 0.2294
768.70 0.2293
768.80 0.2292
768.90 0.2291
769.00 0.229
769.10 0.2289
769.20 0.2288
769.30 0.2286
769.40 0.2285
769.50 0.2284
769.60 0.2283
769.70 0.2282
769.80 0.2281
769.90 0.228
770.00 0.2279
770.10 0.2278
770.20 0.2277
770.30 0.2276
770.40 0.2275
770.50 0.2274
770.60 0.2273
770.70 0.2272
770.80 0.2271
770.90 0.227
771.00 0.2269
771.10 0.2268
771.20 0.2267
771.30 0.2266
771.40 0.2265
771.50 0.2264
771.60 0.2263
771.70 0.2262
771.80 0.2261
771.90 0.226
772.00 0.2259
772.10 0.2258
772.20 0.2257
772.30 0.2256
772.40 0.2255
772.50 0.2254
772.60 0.2252
772.70 0.2251
772.80 0.225
772.90 0.2249
773.00 0.2248
773.10 0.2247
773.20 0.2246
773.30 0.2245
773.40 0.2244
773.50 0.2243
773.60 0.2242
773.70 0.2241
773.80 0.224
773.90 0.2239
774.00 0.2238
774.10 0.2237
774.20 0.2236
774.30 0.2235
774.40 0.2234
774.50 0.2233
774.60 0.2232
774.70 0.2231
774.80 0.223
774.90 0.2229
775.00 0.2228
775.10 0.2227
775.20 0.2226
775.30 0.2225
775.40 0.2224
775.50 0.2223
775.60 0.2222
775.70 0.2221
775.80 0.222
775.90 0.2219
776.00 0.2218
776.10 0.2217
776.20 0.2216
776.30 0.2215
776.40 0.2214
776.50 0.2213
776.60 0.2212
776.70 0.2211
776.80 0.221
776.90 0.2209
777.00 0.2208
777.10 0.2207
777.20 0.2206
777.30 0.2205
777.40 0.2204
777.50 0.2203
777.60 0.2202
777.70 0.2201
777.80 0.22
777.90 0.2199
778.00 0.2198
778.10 0.2197
778.20 0.2196
778.30 0.2195
778.40 0.2194
778.50 0.2193
778.60 0.2192
778.70 0.2191
778.80 0.219
778.90 0.2189
779.00 0.2188
779.10 0.2187
779.20 0.2186
779.30 0.2185
779.40 0.2184
779.50 0.2183
779.60 0.2182
779.70 0.2181
779.80 0.218
779.90 0.2179
780.00 0.2178
780.10 0.2177
780.20 0.2176
780.30 0.2175
780.40 0.2174
780.50 0.2173
780.60 0.2172
780.70 0.2171
780.80 0.217
780.90 0.217
781.00 0.2169
781.10 0.2168
781.20 0.2167
781.30 0.2166
781.40 0.2165
781.50 0.2164
781.60 0.2163
781.70 0.2162
781.80 0.2161
781.90 0.216
782.00 0.2159
782.10 0.2158
782.20 0.2157
782.30 0.2156
782.40 0.2155
782.50 0.2154
782.60 0.2153
782.70 0.2152
782.80 0.2151
782.90 0.215
783.00 0.2149
783.10 0.2148
783.20 0.2147
783.30 0.2146
783.40 0.2145
783.50 0.2144
783.60 0.2143
783.70 0.2143
783.80 0.2142
783.90 0.2141
784.00 0.214
784.10 0.2139
784.20 0.2138
784.30 0.2137
784.40 0.2136
784.50 0.2135
784.60 0.2134
784.70 0.2133
784.80 0.2132
784.90 0.2131
785.00 0.213
785.10 0.2129
785.20 0.2128
785.30 0.2127
785.40 0.2126
785.50 0.2125
785.60 0.2124
785.70 0.2123
785.80 0.2122
785.90 0.2122
786.00 0.2121
786.10 0.212
786.20 0.2119
786.30 0.2118
786.40 0.2117
786.50 0.2116
786.60 0.2115
786.70 0.2114
786.80 0.2113
786.90 0.2112
787.00 0.2111
787.10 0.211
787.20 0.2109
787.30 0.2108
787.40 0.2107
787.50 0.2106
787.60 0.2105
787.70 0.2105
787.80 0.2104
787.90 0.2103
788.00 0.2102
788.10 0.2101
788.20 0.21
788.30 0.2099
788.40 0.2098
788.50 0.2097
788.60 0.2096
788.70 0.2095
788.80 0.2094
788.90 0.2093
789.00 0.2092
789.10 0.2091
789.20 0.209
789.30 0.2089
789.40 0.2089
789.50 0.2088
789.60 0.2087
789.70 0.2086
789.80 0.2085
789.90 0.2084
790.00 0.2083
790.10 0.2082
790.20 0.2081
790.30 0.208
790.40 0.2079
790.50 0.2078
790.60 0.2077
790.70 0.2077
790.80 0.2076
790.90 0.2075
791.00 0.2074
791.10 0.2073
791.20 0.2072
791.30 0.2071
791.40 0.207
791.50 0.2069
791.60 0.2068
791.70 0.2067
791.80 0.2066
791.90 0.2066
792.00 0.2065
792.10 0.2064
792.20 0.2063
792.30 0.2062
792.40 0.2061
792.50 0.206
792.60 0.2059
792.70 0.2058
792.80 0.2057
792.90 0.2056
793.00 0.2056
793.10 0.2055
793.20 0.2054
793.30 0.2053
793.40 0.2052
793.50 0.2051
793.60 0.205
793.70 0.2049
793.80 0.2048
793.90 0.2047
794.00 0.2046
794.10 0.2046
794.20 0.2045
794.30 0.2044
794.40 0.2043
794.50 0.2042
794.60 0.2041
794.70 0.204
794.80 0.2039
794.90 0.2038
795.00 0.2037
795.10 0.2037
795.20 0.2036
795.30 0.2035
795.40 0.2034
795.50 0.2033
795.60 0.2032
795.70 0.2031
795.80 0.203
795.90 0.2029
796.00 0.2028
796.10 0.2028
796.20 0.2027
796.30 0.2026
796.40 0.2025
796.50 0.2024
796.60 0.2023
796.70 0.2022
796.80 0.2021
796.90 0.202
797.00 0.2019
797.10 0.2019
797.20 0.2018
797.30 0.2017
797.40 0.2016
797.50 0.2015
797.60 0.2014
797.70 0.2013
797.80 0.2012
797.90 0.2011
798.00 0.2011
798.10 0.201
798.20 0.2009
798.30 0.2008
798.40 0.2007
798.50 0.2006
798.60 0.2005
798.70 0.2004
798.80 0.2003
798.90 0.2003
799.00 0.2002
799.10 0.2001
799.20 0.2
799.30 0.1999
799.40 0.1998
799.50 0.1997
799.60 0.1996
799.70 0.1995
799.80 0.1995
799.90 0.1994
800.00 0.1993
800.10 0.1992
800.20 0.1991
800.30 0.199
800.40 0.1989
800.50 0.1988
800.60 0.1988
800.70 0.1987
800.80 0.1986
800.90 0.1985
801.00 0.1984
801.10 0.1983
801.20 0.1982
801.30 0.1982
801.40 0.1981
801.50 0.198
801.60 0.1979
801.70 0.1978
801.80 0.1977
801.90 0.1976
802.00 0.1975
802.10 0.1975
802.20 0.1974
802.30 0.1973
802.40 0.1972
802.50 0.1971
802.60 0.197
802.70 0.1969
802.80 0.1969
802.90 0.1968
803.00 0.1967
803.10 0.1966
803.20 0.1965
803.30 0.1964
803.40 0.1963
803.50 0.1963
803.60 0.1962
803.70 0.1961
803.80 0.196
803.90 0.1959
804.00 0.1958
804.10 0.1957
804.20 0.1957
804.30 0.1956
804.40 0.1955
804.50 0.1954
804.60 0.1953
804.70 0.1952
804.80 0.1951
804.90 0.1951
805.00 0.195
805.10 0.1949
805.20 0.1948
805.30 0.1947
805.40 0.1946
805.50 0.1945
805.60 0.1945
805.70 0.1944
805.80 0.1943
805.90 0.1942
806.00 0.1941
806.10 0.194
806.20 0.194
806.30 0.1939
806.40 0.1938
806.50 0.1937
806.60 0.1936
806.70 0.1935
806.80 0.1934
806.90 0.1934
807.00 0.1933
807.10 0.1932
807.20 0.1931
807.30 0.193
807.40 0.1929
807.50 0.1929
807.60 0.1928
807.70 0.1927
807.80 0.1926
807.90 0.1925
808.00 0.1924
808.10 0.1923
808.20 0.1923
808.30 0.1922
808.40 0.1921
808.50 0.192
808.60 0.1919
808.70 0.1918
808.80 0.1918
808.90 0.1917
809.00 0.1916
809.10 0.1915
809.20 0.1914
809.30 0.1913
809.40 0.1913
809.50 0.1912
809.60 0.1911
809.70 0.191
809.80 0.1909
809.90 0.1908
810.00 0.1908
810.10 0.1907
810.20 0.1906
810.30 0.1905
810.40 0.1904
810.50 0.1903
810.60 0.1903
810.70 0.1902
810.80 0.1901
810.90 0.19
811.00 0.1899
811.10 0.1899
811.20 0.1898
811.30 0.1897
811.40 0.1896
811.50 0.1895
811.60 0.1894
811.70 0.1894
811.80 0.1893
811.90 0.1892
812.00 0.1891
812.10 0.189
812.20 0.189
812.30 0.1889
812.40 0.1888
812.50 0.1887
812.60 0.1886
812.70 0.1885
812.80 0.1885
812.90 0.1884
813.00 0.1883
813.10 0.1882
813.20 0.1881
813.30 0.1881
813.40 0.188
813.50 0.1879
813.60 0.1878
813.70 0.1877
813.80 0.1876
813.90 0.1876
814.00 0.1875
814.10 0.1874
814.20 0.1873
814.30 0.1872
814.40 0.1872
814.50 0.1871
814.60 0.187
814.70 0.1869
814.80 0.1868
814.90 0.1868
815.00 0.1867
815.10 0.1866
815.20 0.1865
815.30 0.1864
815.40 0.1864
815.50 0.1863
815.60 0.1862
815.70 0.1861
815.80 0.186
815.90 0.186
816.00 0.1859
816.10 0.1858
816.20 0.1857
816.30 0.1856
816.40 0.1856
816.50 0.1855
816.60 0.1854
816.70 0.1853
816.80 0.1852
816.90 0.1852
817.00 0.1851
817.10 0.185
817.20 0.1849
817.30 0.1848
817.40 0.1848
817.50 0.1847
817.60 0.1846
817.70 0.1845
817.80 0.1844
817.90 0.1844
818.00 0.1843
818.10 0.1842
818.20 0.1841
818.30 0.184
818.40 0.184
818.50 0.1839
818.60 0.1838
818.70 0.1837
818.80 0.1836
818.90 0.1836
819.00 0.1835
819.10 0.1834
819.20 0.1833
819.30 0.1832
819.40 0.1832
819.50 0.1831
819.60 0.183
819.70 0.1829
819.80 0.1828
819.90 0.1828
820.00 0.1827
820.10 0.1826
820.20 0.1825
820.30 0.1825
820.40 0.1824
820.50 0.1823
820.60 0.1822
820.70 0.1821
820.80 0.1821
820.90 0.182
821.00 0.1819
821.10 0.1818
821.20 0.1817
821.30 0.1817
821.40 0.1816
821.50 0.1815
821.60 0.1814
821.70 0.1814
821.80 0.1813
821.90 0.1812
822.00 0.1811
822.10 0.181
822.20 0.181
822.30 0.1809
822.40 0.1808
822.50 0.1807
822.60 0.1807
822.70 0.1806
822.80 0.1805
822.90 0.1804
823.00 0.1804
823.10 0.1803
823.20 0.1802
823.30 0.1801
823.40 0.18
823.50 0.18
823.60 0.1799
823.70 0.1798
823.80 0.1797
823.90 0.1797
824.00 0.1796
824.10 0.1795
824.20 0.1794
824.30 0.1793
824.40 0.1793
824.50 0.1792
824.60 0.1791
824.70 0.179
824.80 0.179
824.90 0.1789
825.00 0.1788
825.10 0.1787
825.20 0.1787
825.30 0.1786
825.40 0.1785
825.50 0.1784
825.60 0.1784
825.70 0.1783
825.80 0.1782
825.90 0.1781
826.00 0.1781
826.10 0.178
826.20 0.1779
826.30 0.1778
826.40 0.1777
826.50 0.1777
826.60 0.1776
826.70 0.1775
826.80 0.1774
826.90 0.1774
827.00 0.1773
827.10 0.1772
827.20 0.1771
827.30 0.1771
827.40 0.177
827.50 0.1769
827.60 0.1768
827.70 0.1768
827.80 0.1767
827.90 0.1766
828.00 0.1765
828.10 0.1765
828.20 0.1764
828.30 0.1763
828.40 0.1762
828.50 0.1762
828.60 0.1761
828.70 0.176
828.80 0.1759
828.90 0.1759
829.00 0.1758
829.10 0.1757
829.20 0.1756
829.30 0.1756
829.40 0.1755
829.50 0.1754
829.60 0.1753
829.70 0.1753
829.80 0.1752
829.90 0.1751
830.00 0.175
830.10 0.175
830.20 0.1749
830.30 0.1748
830.40 0.1747
830.50 0.1747
830.60 0.1746
830.70 0.1745
830.80 0.1744
830.90 0.1744
831.00 0.1743
831.10 0.1742
831.20 0.1742
831.30 0.1741
831.40 0.174
831.50 0.1739
831.60 0.1739
831.70 0.1738
831.80 0.1737
831.90 0.1736
832.00 0.1736
832.10 0.1735
832.20 0.1734
832.30 0.1733
832.40 0.1733
832.50 0.1732
832.60 0.1731
832.70 0.173
832.80 0.173
832.90 0.1729
833.00 0.1728
833.10 0.1728
833.20 0.1727
833.30 0.1726
833.40 0.1725
833.50 0.1725
833.60 0.1724
833.70 0.1723
833.80 0.1722
833.90 0.1722
834.00 0.1721
834.10 0.172
834.20 0.172
834.30 0.1719
834.40 0.1718
834.50 0.1717
834.60 0.1717
834.70 0.1716
834.80 0.1715
834.90 0.1714
835.00 0.1714
835.10 0.1713
835.20 0.1712
835.30 0.1712
835.40 0.1711
835.50 0.171
835.60 0.1709
835.70 0.1709
835.80 0.1708
835.90 0.1707
836.00 0.1706
836.10 0.1706
836.20 0.1705
836.30 0.1704
836.40 0.1704
836.50 0.1703
836.60 0.1702
836.70 0.1701
836.80 0.1701
836.90 0.17
837.00 0.1699
837.10 0.1699
837.20 0.1698
837.30 0.1697
837.40 0.1696
837.50 0.1696
837.60 0.1695
837.70 0.1694
837.80 0.1694
837.90 0.1693
838.00 0.1692
838.10 0.1691
838.20 0.1691
838.30 0.169
838.40 0.1689
838.50 0.1689
838.60 0.1688
838.70 0.1687
838.80 0.1686
838.90 0.1686
839.00 0.1685
839.10 0.1684
839.20 0.1684
839.30 0.1683
839.40 0.1682
839.50 0.1681
839.60 0.1681
839.70 0.168
839.80 0.1679
839.90 0.1679
840.00 0.1678
840.10 0.1677
840.20 0.1677
840.30 0.1676
840.40 0.1675
840.50 0.1674
840.60 0.1674
840.70 0.1673
840.80 0.1672
840.90 0.1672
841.00 0.1671
841.10 0.167
841.20 0.1669
841.30 0.1669
841.40 0.1668
841.50 0.1667
841.60 0.1667
841.70 0.1666
841.80 0.1665
841.90 0.1665
842.00 0.1664
842.10 0.1663
842.20 0.1662
842.30 0.1662
842.40 0.1661
842.50 0.166
842.60 0.166
842.70 0.1659
842.80 0.1658
842.90 0.1657
843.00 0.1657
843.10 0.1656
843.20 0.1655
843.30 0.1655
843.40 0.1654
843.50 0.1653
843.60 0.1652
843.70 0.1652
843.80 0.1651
843.90 0.165
844.00 0.165
844.10 0.1649
844.20 0.1648
844.30 0.1647
844.40 0.1647
844.50 0.1646
844.60 0.1645
844.70 0.1645
844.80 0.1644
844.90 0.1643
845.00 0.1643
845.10 0.1642
845.20 0.1641
845.30 0.164
845.40 0.164
845.50 0.1639
845.60 0.1638
845.70 0.1638
845.80 0.1637
845.90 0.1636
846.00 0.1635
846.10 0.1635
846.20 0.1634
846.30 0.1633
846.40 0.1633
846.50 0.1632
846.60 0.1631
846.70 0.1631
846.80 0.163
846.90 0.1629
847.00 0.1628
847.10 0.1628
847.20 0.1628
847.30 0.1628
847.40 0.1627
847.50 0.1627
847.60 0.1627
847.70 0.1627
847.80 0.1626
847.90 0.1626
848.00 0.1626
848.10 0.1625
848.20 0.1625
848.30 0.1625
848.40 0.1625
848.50 0.1624
848.60 0.1624
848.70 0.1624
848.80 0.1624
848.90 0.1623
849.00 0.1623
849.10 0.1623
849.20 0.1622
849.30 0.1622
849.40 0.1622
849.50 0.1622
849.60 0.1621
849.70 0.1621
849.80 0.1621
849.90 0.1621
850.00 0.162
850.10 0.162
850.20 0.162
850.30 0.1619
850.40 0.1619
850.50 0.1619
850.60 0.1619
850.70 0.1618
850.80 0.1618
850.90 0.1618
851.00 0.1618
851.10 0.1617
851.20 0.1617
851.30 0.1617
851.40 0.1616
851.50 0.1616
851.60 0.1616
851.70 0.1616
851.80 0.1615
851.90 0.1615
852.00 0.1615
852.10 0.1614
852.20 0.1614
852.30 0.1614
852.40 0.1613
852.50 0.1613
852.60 0.1612
852.70 0.1612
852.80 0.1612
852.90 0.1611
853.00 0.1611
853.10 0.161
853.20 0.161
853.30 0.161
853.40 0.1609
853.50 0.1609
853.60 0.1608
853.70 0.1608
853.80 0.1608
853.90 0.1607
854.00 0.1607
854.10 0.1606
854.20 0.1606
854.30 0.1606
854.40 0.1605
854.50 0.1605
854.60 0.1604
854.70 0.1604
854.80 0.1604
854.90 0.1603
855.00 0.1603
855.10 0.1602
855.20 0.1602
855.30 0.1602
855.40 0.1601
855.50 0.1601
855.60 0.16
855.70 0.16
855.80 0.16
855.90 0.1599
856.00 0.1599
856.10 0.1598
856.20 0.1598
856.30 0.1598
856.40 0.1597
856.50 0.1597
856.60 0.1596
856.70 0.1596
856.80 0.1596
856.90 0.1595
857.00 0.1595
857.10 0.1595
857.20 0.1594
857.30 0.1594
857.40 0.1593
857.50 0.1593
857.60 0.1593
857.70 0.1592
857.80 0.1592
857.90 0.1592
858.00 0.1591
858.10 0.1591
858.20 0.159
858.30 0.159
858.40 0.159
858.50 0.1589
858.60 0.1589
858.70 0.1589
858.80 0.1588
858.90 0.1588
859.00 0.1588
859.10 0.1587
859.20 0.1587
859.30 0.1586
859.40 0.1586
859.50 0.1586
859.60 0.1585
859.70 0.1585
859.80 0.1585
859.90 0.1584
860.00 0.1584
860.10 0.1583
860.20 0.1583
860.30 0.1583
860.40 0.1582
860.50 0.1582
860.60 0.1582
860.70 0.1581
860.80 0.1581
860.90 0.1581
861.00 0.158
861.10 0.158
861.20 0.1579
861.30 0.1579
861.40 0.1579
861.50 0.1578
861.60 0.1578
861.70 0.1578
861.80 0.1577
861.90 0.1577
862.00 0.1577
862.10 0.1575
862.20 0.1574
862.30 0.1573
862.40 0.1572
862.50 0.1571
862.60 0.157
862.70 0.1569
862.80 0.1568
862.90 0.1567
863.00 0.1565
863.10 0.1564
863.20 0.1563
863.30 0.1562
863.40 0.1561
863.50 0.156
863.60 0.1559
863.70 0.1558
863.80 0.1557
863.90 0.1555
864.00 0.1554
864.10 0.1553
864.20 0.1552
864.30 0.1551
864.40 0.155
864.50 0.1549
864.60 0.1548
864.70 0.1547
864.80 0.1545
864.90 0.1544
865.00 0.1543
865.10 0.1542
865.20 0.1541
865.30 0.154
865.40 0.1539
865.50 0.1538
865.60 0.1537
865.70 0.1536
865.80 0.1534
865.90 0.1533
866.00 0.1532
866.10 0.1531
866.20 0.153
866.30 0.1529
866.40 0.1528
866.50 0.1527
866.60 0.1526
866.70 0.1525
866.80 0.1524
866.90 0.1522
867.00 0.1521
867.10 0.1522
867.20 0.1522
867.30 0.1522
867.40 0.1522
867.50 0.1523
867.60 0.1523
867.70 0.1523
867.80 0.1524
867.90 0.1524
868.00 0.1524
868.10 0.1524
868.20 0.1525
868.30 0.1525
868.40 0.1525
868.50 0.1525
868.60 0.1526
868.70 0.1526
868.80 0.1526
868.90 0.1527
869.00 0.1527
869.10 0.1527
869.20 0.1527
869.30 0.1528
869.40 0.1528
869.50 0.1528
869.60 0.1528
869.70 0.1529
869.80 0.1529
869.90 0.1529
870.00 0.1529
870.10 0.153
870.20 0.153
870.30 0.153
870.40 0.1531
870.50 0.1531
870.60 0.1531
870.70 0.1531
870.80 0.1532
870.90 0.1532
871.00 0.1532
871.10 0.1532
871.20 0.1533
871.30 0.1533
871.40 0.1533
871.50 0.1534
871.60 0.1534
871.70 0.1534
871.80 0.1534
871.90 0.1535
872.00 0.1535
872.10 0.1533
872.20 0.1532
872.30 0.1531
872.40 0.1529
872.50 0.1528
872.60 0.1527
872.70 0.1525
872.80 0.1524
872.90 0.1523
873.00 0.1521
873.10 0.152
873.20 0.1518
873.30 0.1517
873.40 0.1516
873.50 0.1514
873.60 0.1513
873.70 0.1512
873.80 0.151
873.90 0.1509
874.00 0.1508
874.10 0.1506
874.20 0.1505
874.30 0.1503
874.40 0.1502
874.50 0.1501
874.60 0.1499
874.70 0.1498
874.80 0.1497
874.90 0.1495
875.00 0.1494
875.10 0.1493
875.20 0.1491
875.30 0.149
875.40 0.1488
875.50 0.1487
875.60 0.1486
875.70 0.1484
875.80 0.1483
875.90 0.1482
876.00 0.148
876.10 0.1479
876.20 0.1478
876.30 0.1476
876.40 0.1475
876.50 0.1474
876.60 0.1472
876.70 0.1471
876.80 0.147
876.90 0.1468
877.00 0.1467
877.10 0.1467
877.20 0.1467
877.30 0.1468
877.40 0.1468
877.50 0.1468
877.60 0.1468
877.70 0.1469
877.80 0.1469
877.90 0.1469
878.00 0.1469
878.10 0.147
878.20 0.147
878.30 0.147
878.40 0.147
878.50 0.147
878.60 0.1471
878.70 0.1471
878.80 0.1471
878.90 0.1471
879.00 0.1472
879.10 0.1472
879.20 0.1472
879.30 0.1472
879.40 0.1473
879.50 0.1473
879.60 0.1473
879.70 0.1473
879.80 0.1474
879.90 0.1474
880.00 0.1474
880.10 0.1474
880.20 0.1475
880.30 0.1475
880.40 0.1475
880.50 0.1475
880.60 0.1475
880.70 0.1476
880.80 0.1476
880.90 0.1476
881.00 0.1476
881.10 0.1477
881.20 0.1477
881.30 0.1477
881.40 0.1477
881.50 0.1478
881.60 0.1478
881.70 0.1478
881.80 0.1478
881.90 0.1479
882.00 0.1479
882.10 0.1475
882.20 0.1471
882.30 0.1467
882.40 0.1463
882.50 0.1459
882.60 0.1455
882.70 0.145
882.80 0.1446
882.90 0.1442
883.00 0.1438
883.10 0.1434
883.20 0.143
883.30 0.1426
883.40 0.1422
883.50 0.1418
883.60 0.1414
883.70 0.141
883.80 0.1406
883.90 0.1402
884.00 0.1398
884.10 0.1394
884.20 0.139
884.30 0.1386
884.40 0.1382
884.50 0.1378
884.60 0.1374
884.70 0.137
884.80 0.1366
884.90 0.1362
885.00 0.1358
885.10 0.1354
885.20 0.135
885.30 0.1346
885.40 0.1342
885.50 0.1338
885.60 0.1334
885.70 0.133
885.80 0.1326
885.90 0.1322
886.00 0.1318
886.10 0.1314
886.20 0.131
886.30 0.1306
886.40 0.1302
886.50 0.1298
886.60 0.1295
886.70 0.1291
886.80 0.1287
886.90 0.1283
887.00 0.1279
887.10 0.1281
887.20 0.1284
887.30 0.1287
887.40 0.129
887.50 0.1293
887.60 0.1296
887.70 0.1298
887.80 0.1301
887.90 0.1304
888.00 0.1307
888.10 0.131
888.20 0.1312
888.30 0.1315
888.40 0.1318
888.50 0.1321
888.60 0.1323
888.70 0.1326
888.80 0.1329
888.90 0.1332
889.00 0.1335
889.10 0.1337
889.20 0.134
889.30 0.1343
889.40 0.1346
889.50 0.1348
889.60 0.1351
889.70 0.1354
889.80 0.1357
889.90 0.136
890.00 0.1362
890.10 0.1365
890.20 0.1368
890.30 0.1371
890.40 0.1373
890.50 0.1376
890.60 0.1379
890.70 0.1382
890.80 0.1384
890.90 0.1387
891.00 0.139
891.10 0.1393
891.20 0.1396
891.30 0.1398
891.40 0.1401
891.50 0.1404
891.60 0.1407
891.70 0.1409
891.80 0.1412
891.90 0.1415
892.00 0.1418
892.10 0.1416
892.20 0.1415
892.30 0.1413
892.40 0.1412
892.50 0.1411
892.60 0.1409
892.70 0.1408
892.80 0.1406
892.90 0.1405
893.00 0.1404
893.10 0.1402
893.20 0.1401
893.30 0.1399
893.40 0.1398
893.50 0.1397
893.60 0.1395
893.70 0.1394
893.80 0.1393
893.90 0.1391
894.00 0.139
894.10 0.1388
894.20 0.1387
894.30 0.1386
894.40 0.1384
894.50 0.1383
894.60 0.1381
894.70 0.138
894.80 0.1379
894.90 0.1377
895.00 0.1376
895.10 0.1375
895.20 0.1373
895.30 0.1372
895.40 0.137
895.50 0.1369
895.60 0.1368
895.70 0.1366
895.80 0.1365
895.90 0.1364
896.00 0.1362
896.10 0.1361
896.20 0.1359
896.30 0.1358
896.40 0.1357
896.50 0.1355
896.60 0.1354
896.70 0.1353
896.80 0.1351
896.90 0.135
897.00 0.1349
897.10 0.1344
897.20 0.134
897.30 0.1336
897.40 0.1332
897.50 0.1328
897.60 0.1323
897.70 0.1319
897.80 0.1315
897.90 0.1311
898.00 0.1307
898.10 0.1303
898.20 0.1298
898.30 0.1294
898.40 0.129
898.50 0.1286
898.60 0.1282
898.70 0.1277
898.80 0.1273
898.90 0.1269
899.00 0.1265
899.10 0.1261
899.20 0.1257
899.30 0.1253
899.40 0.1248
899.50 0.1244
899.60 0.124
899.70 0.1236
899.80 0.1232
899.90 0.1228
900.00 0.1224
900.10 0.1219
900.20 0.1215
900.30 0.1211
900.40 0.1207
900.50 0.1203
900.60 0.1199
900.70 0.1195
900.80 0.119
900.90 0.1186
901.00 0.1182
901.10 0.1178
901.20 0.1174
901.30 0.117
901.40 0.1166
901.50 0.1162
901.60 0.1157
901.70 0.1153
901.80 0.1149
901.90 0.1145
902.00 0.1141
902.10 0.1144
902.20 0.1148
902.30 0.1151
902.40 0.1155
902.50 0.1158
902.60 0.1161
902.70 0.1165
902.80 0.1168
902.90 0.1171
903.00 0.1175
903.10 0.1178
903.20 0.1182
903.30 0.1185
903.40 0.1188
903.50 0.1192
903.60 0.1195
903.70 0.1198
903.80 0.1202
903.90 0.1205
904.00 0.1209
904.10 0.1212
904.20 0.1215
904.30 0.1219
904.40 0.1222
904.50 0.1225
904.60 0.1229
904.70 0.1232
904.80 0.1235
904.90 0.1239
905.00 0.1242
905.10 0.1245
905.20 0.1249
905.30 0.1252
905.40 0.1255
905.50 0.1259
905.60 0.1262
905.70 0.1265
905.80 0.1269
905.90 0.1272
906.00 0.1275
906.10 0.1279
906.20 0.1282
906.30 0.1285
906.40 0.1289
906.50 0.1292
906.60 0.1295
906.70 0.1299
906.80 0.1302
906.90 0.1305
907.00 0.1309
907.10 0.1309
907.20 0.1309
907.30 0.131
907.40 0.131
907.50 0.1311
907.60 0.1311
907.70 0.1311
907.80 0.1312
907.90 0.1312
908.00 0.1313
908.10 0.1313
908.20 0.1314
908.30 0.1314
908.40 0.1314
908.50 0.1315
908.60 0.1315
908.70 0.1316
908.80 0.1316
908.90 0.1316
909.00 0.1317
909.10 0.1317
909.20 0.1318
909.30 0.1318
909.40 0.1318
909.50 0.1319
909.60 0.1319
909.70 0.132
909.80 0.132
909.90 0.132
910.00 0.1321
910.10 0.1321
910.20 0.1322
910.30 0.1322
910.40 0.1322
910.50 0.1323
910.60 0.1323
910.70 0.1324
910.80 0.1324
910.90 0.1324
911.00 0.1325
911.10 0.1325
911.20 0.1326
911.30 0.1326
911.40 0.1326
911.50 0.1327
911.60 0.1327
911.70 0.1328
911.80 0.1328
911.90 0.1328
912.00 0.1329
912.10 0.1327
912.20 0.1325
912.30 0.1324
912.40 0.1322
912.50 0.132
912.60 0.1319
912.70 0.1317
912.80 0.1315
912.90 0.1313
913.00 0.1312
913.10 0.131
913.20 0.1308
913.30 0.1307
913.40 0.1305
913.50 0.1303
913.60 0.1302
913.70 0.13
913.80 0.1298
913.90 0.1297
914.00 0.1295
914.10 0.1293
914.20 0.1292
914.30 0.129
914.40 0.1288
914.50 0.1286
914.60 0.1285
914.70 0.1283
914.80 0.1281
914.90 0.128
915.00 0.1278
915.10 0.1276
915.20 0.1275
915.30 0.1273
915.40 0.1271
915.50 0.127
915.60 0.1268
915.70 0.1266
915.80 0.1265
915.90 0.1263
916.00 0.1261
916.10 0.126
916.20 0.1258
916.30 0.1256
916.40 0.1255
916.50 0.1253
916.60 0.1251
916.70 0.125
916.80 0.1248
916.90 0.1246
917.00 0.1245
917.10 0.124
917.20 0.1235
917.30 0.123
917.40 0.1226
917.50 0.1221
917.60 0.1216
917.70 0.1211
917.80 0.1207
917.90 0.1202
918.00 0.1197
918.10 0.1192
918.20 0.1188
918.30 0.1183
918.40 0.1178
918.50 0.1173
918.60 0.1169
918.70 0.1164
918.80 0.1159
918.90 0.1154
919.00 0.115
919.10 0.1145
919.20 0.114
919.30 0.1135
919.40 0.1131
919.50 0.1126
919.60 0.1121
919.70 0.1116
919.80 0.1112
919.90 0.1107
920.00 0.1102
920.10 0.1098
920.20 0.1093
920.30 0.1088
920.40 0.1083
920.50 0.1079
920.60 0.1074
920.70 0.1069
920.80 0.1065
920.90 0.106
921.00 0.1055
921.10 0.1051
921.20 0.1046
921.30 0.1041
921.40 0.1037
921.50 0.1032
921.60 0.1027
921.70 0.1022
921.80 0.1018
921.90 0.1013
922.00 0.1008
922.10 0.1012
922.20 0.1015
922.30 0.1018
922.40 0.1021
922.50 0.1024
922.60 0.1027
922.70 0.103
922.80 0.1034
922.90 0.1037
923.00 0.104
923.10 0.1043
923.20 0.1046
923.30 0.1049
923.40 0.1052
923.50 0.1055
923.60 0.1058
923.70 0.1062
923.80 0.1065
923.90 0.1068
924.00 0.1071
924.10 0.1074
924.20 0.1077
924.30 0.108
924.40 0.1083
924.50 0.1086
924.60 0.109
924.70 0.1093
924.80 0.1096
924.90 0.1099
925.00 0.1102
925.10 0.1105
925.20 0.1108
925.30 0.1111
925.40 0.1114
925.50 0.1117
925.60 0.112
925.70 0.1124
925.80 0.1127
925.90 0.113
926.00 0.1133
926.10 0.1136
926.20 0.1139
926.30 0.1142
926.40 0.1145
926.50 0.1148
926.60 0.1151
926.70 0.1154
926.80 0.1157
926.90 0.1161
927.00 0.1164
927.10 0.1165
927.20 0.1167
927.30 0.1168
927.40 0.1169
927.50 0.1171
927.60 0.1172
927.70 0.1174
927.80 0.1175
927.90 0.1177
928.00 0.1178
928.10 0.118
928.20 0.1181
928.30 0.1183
928.40 0.1184
928.50 0.1186
928.60 0.1187
928.70 0.1188
928.80 0.119
928.90 0.1191
929.00 0.1193
929.10 0.1194
929.20 0.1196
929.30 0.1197
929.40 0.1199
929.50 0.12
929.60 0.1202
929.70 0.1203
929.80 0.1204
929.90 0.1206
930.00 0.1207
930.10 0.1209
930.20 0.121
930.30 0.1212
930.40 0.1213
930.50 0.1215
930.60 0.1216
930.70 0.1218
930.80 0.1219
930.90 0.122
931.00 0.1222
931.10 0.1223
931.20 0.1225
931.30 0.1226
931.40 0.1228
931.50 0.1229
931.60 0.123
931.70 0.1232
931.80 0.1233
931.90 0.1235
932.00 0.1236
932.10 0.1236
932.20 0.1237
932.30 0.1237
932.40 0.1237
932.50 0.1237
932.60 0.1237
932.70 0.1237
932.80 0.1238
932.90 0.1238
933.00 0.1238
933.10 0.1238
933.20 0.1238
933.30 0.1238
933.40 0.1239
933.50 0.1239
933.60 0.1239
933.70 0.1239
933.80 0.1239
933.90 0.1239
934.00 0.124
934.10 0.124
934.20 0.124
934.30 0.124
934.40 0.124
934.50 0.124
934.60 0.124
934.70 0.1239
934.80 0.1239
934.90 0.1239
935.00 0.1239
935.10 0.1239
935.20 0.1238
935.30 0.1238
935.40 0.1238
935.50 0.1238
935.60 0.1238
935.70 0.1237
935.80 0.1237
935.90 0.1237
936.00 0.1237
936.10 0.1237
936.20 0.1236
936.30 0.1236
936.40 0.1236
936.50 0.1236
936.60 0.1236
936.70 0.1235
936.80 0.1235
936.90 0.1235
937.00 0.1235
937.10 0.1234
937.20 0.1234
937.30 0.1234
937.40 0.1233
937.50 0.1233
937.60 0.1232
937.70 0.1232
937.80 0.1232
937.90 0.1231
938.00 0.1231
938.10 0.1231
938.20 0.123
938.30 0.123
938.40 0.1229
938.50 0.1229
938.60 0.1228
938.70 0.1228
938.80 0.1227
938.90 0.1227
939.00 0.1226
939.10 0.1226
939.20 0.1225
939.30 0.1225
939.40 0.1224
939.50 0.1223
939.60 0.1223
939.70 0.1222
939.80 0.1222
939.90 0.1221
940.00 0.1221
940.10 0.122
940.20 0.122
940.30 0.1219
940.40 0.1219
940.50 0.1218
940.60 0.1217
940.70 0.1216
940.80 0.1216
940.90 0.1215
941.00 0.1214
941.10 0.1214
941.20 0.1213
941.30 0.1212
941.40 0.1212
941.50 0.1211
941.60 0.121
941.70 0.1209
941.80 0.1209
941.90 0.1208
942.00 0.1207
942.10 0.1207
942.20 0.1206
942.30 0.1205
942.40 0.1204
942.50 0.1203
942.60 0.1202
942.70 0.1201
942.80 0.12
942.90 0.1199
943.00 0.1198
943.10 0.1197
943.20 0.1196
943.30 0.1195
943.40 0.1194
943.50 0.1193
943.60 0.1192
943.70 0.1191
943.80 0.119
943.90 0.1189
944.00 0.1188
944.10 0.1188
944.20 0.1187
944.30 0.1186
944.40 0.1184
944.50 0.1183
944.60 0.1182
944.70 0.1181
944.80 0.1179
944.90 0.1178
945.00 0.1177
945.10 0.1175
945.20 0.1174
945.30 0.1173
945.40 0.1171
945.50 0.117
945.60 0.1168
945.70 0.1166
945.80 0.1165
945.90 0.1163
946.00 0.1161
946.10 0.116
946.20 0.1158
946.30 0.1156
946.40 0.1155
946.50 0.1153
946.60 0.1151
946.70 0.115
946.80 0.1148
946.90 0.1146
947.00 0.1145
947.10 0.1143
947.20 0.1141
947.30 0.1138
947.40 0.1136
947.50 0.1133
947.60 0.1131
947.70 0.1128
947.80 0.1125
947.90 0.1123
948.00 0.112
948.10 0.1118
948.20 0.1115
948.30 0.1112
948.40 0.111
948.50 0.1107
948.60 0.1105
948.70 0.1102
948.80 0.1099
948.90 0.1097
949.00 0.1094
949.10 0.1092
949.20 0.1089
949.30 0.1086
949.40 0.1083
949.50 0.1079
949.60 0.1075
949.70 0.1071
949.80 0.1067
949.90 0.1063
950.00 0.1059
950.10 0.1056
950.20 0.1052
950.30 0.1048
950.40 0.1044
950.50 0.104
950.60 0.1036
950.70 0.1032
950.80 0.1029
950.90 0.1025
951.00 0.1021
951.10 0.1017
951.20 0.1013
951.30 0.1009
951.40 0.1005
951.50 0.09997
951.60 0.09948
951.70 0.099
951.80 0.09852
951.90 0.09803
952.00 0.09755
952.10 0.09701
952.20 0.09647
952.30 0.09594
952.40 0.0954
952.50 0.09486
952.60 0.09433
952.70 0.09379
952.80 0.09325
952.90 0.09267
953.00 0.09209
953.10 0.09151
953.20 0.09093
953.30 0.09035
953.40 0.08978
953.50 0.0892
953.60 0.08859
953.70 0.08799
953.80 0.08739
953.90 0.08679
954.00 0.08625
954.10 0.08571
954.20 0.08546
954.30 0.08649
954.40 0.0854
954.50 0.0856
954.60 0.08609
954.70 0.08657
954.80 0.08711
954.90 0.08765
955.00 0.08819
955.10 0.08872
955.20 0.08924
955.30 0.08975
955.40 0.09026
955.50 0.09077
955.60 0.09128
955.70 0.09179
955.80 0.0923
955.90 0.09275
956.00 0.0932
956.10 0.09364
956.20 0.09409
956.30 0.09454
956.40 0.09498
956.50 0.09543
956.60 0.09587
956.70 0.09632
956.80 0.09677
956.90 0.09721
957.00 0.09766
957.10 0.09804
957.20 0.09843
957.30 0.09882
957.40 0.09912
957.50 0.09942
957.60 0.09972
957.70 0.1
957.80 0.1003
957.90 0.1006
958.00 0.1009
958.10 0.1012
958.20 0.1015
958.30 0.1018
958.40 0.1021
958.50 0.1024
958.60 0.1027
958.70 0.103
958.80 0.1033
958.90 0.1036
959.00 0.1039
959.10 0.1042
959.20 0.1045
959.30 0.1048
959.40 0.105
959.50 0.1051
959.60 0.1053
959.70 0.1055
959.80 0.1056
959.90 0.1058
960.00 0.106
960.10 0.1061
960.20 0.1063
960.30 0.1065
960.40 0.1066
960.50 0.1068
960.60 0.107
960.70 0.1072
960.80 0.1073
960.90 0.1075
961.00 0.1077
961.10 0.1078
961.20 0.108
961.30 0.1082
961.40 0.1083
961.50 0.1084
961.60 0.1085
961.70 0.1086
961.80 0.1087
961.90 0.1088
962.00 0.1089
962.10 0.109
962.20 0.109
962.30 0.1091
962.40 0.1092
962.50 0.1093
962.60 0.1093
962.70 0.1094
962.80 0.1095
962.90 0.1095
963.00 0.1096
963.10 0.1097
963.20 0.1097
963.30 0.1098
963.40 0.1098
963.50 0.1099
963.60 0.1099
963.70 0.11
963.80 0.11
963.90 0.11
964.00 0.1101
964.10 0.1101
964.20 0.1102
964.30 0.1102
964.40 0.1102
964.50 0.1102
964.60 0.1102
964.70 0.1103
964.80 0.1103
964.90 0.1103
965.00 0.1103
965.10 0.1103
965.20 0.1103
965.30 0.1103
965.40 0.1103
965.50 0.1104
965.60 0.1104
965.70 0.1104
965.80 0.1104
965.90 0.1104
966.00 0.1104
966.10 0.1104
966.20 0.1104
966.30 0.1105
966.40 0.1104
966.50 0.1104
966.60 0.1104
966.70 0.1104
966.80 0.1104
966.90 0.1104
967.00 0.1104
967.10 0.1104
967.20 0.1104
967.30 0.1104
967.40 0.1104
967.50 0.1104
967.60 0.1103
967.70 0.1103
967.80 0.1103
967.90 0.1103
968.00 0.1103
968.10 0.1103
968.20 0.1103
968.30 0.1103
968.40 0.1102
968.50 0.1102
968.60 0.1102
968.70 0.1102
968.80 0.1101
968.90 0.1101
969.00 0.1101
969.10 0.1101
969.20 0.11
969.30 0.11
969.40 0.11
969.50 0.11
969.60 0.11
969.70 0.1099
969.80 0.1099
969.90 0.1099
970.00 0.1099
970.10 0.1098
970.20 0.1098
970.30 0.1098
970.40 0.1098
970.50 0.1097
970.60 0.1097
970.70 0.1097
970.80 0.1097
970.90 0.1096
971.00 0.1096
971.10 0.1096
971.20 0.1095
971.30 0.1095
971.40 0.1095
971.50 0.1095
971.60 0.1094
971.70 0.1094
971.80 0.1094
971.90 0.1093
972.00 0.1093
972.10 0.1093
972.20 0.1092
972.30 0.1092
972.40 0.1092
972.50 0.1091
972.60 0.1091
972.70 0.1091
972.80 0.109
972.90 0.109
973.00 0.109
973.10 0.1089
973.20 0.1089
973.30 0.1089
973.40 0.1088
973.50 0.1088
973.60 0.1088
973.70 0.1087
973.80 0.1087
973.90 0.1087
974.00 0.1086
974.10 0.1086
974.20 0.1086
974.30 0.1085
974.40 0.1085
974.50 0.1085
974.60 0.1084
974.70 0.1084
974.80 0.1083
974.90 0.1083
975.00 0.1083
975.10 0.1082
975.20 0.1082
975.30 0.1082
975.40 0.1081
975.50 0.1081
975.60 0.1081
975.70 0.108
975.80 0.108
975.90 0.1079
976.00 0.1079
976.10 0.1079
976.20 0.1078
976.30 0.1078
976.40 0.1078
976.50 0.1077
976.60 0.1077
976.70 0.1076
976.80 0.1076
976.90 0.1076
977.00 0.1075
977.10 0.1075
977.20 0.1075
977.30 0.1074
977.40 0.1074
977.50 0.1073
977.60 0.1073
977.70 0.1073
977.80 0.1072
977.90 0.1072
978.00 0.1071
978.10 0.1071
978.20 0.1071
978.30 0.107
978.40 0.107
978.50 0.1069
978.60 0.1069
978.70 0.1069
978.80 0.1068
978.90 0.1068
979.00 0.1067
979.10 0.1067
979.20 0.1066
979.30 0.1066
979.40 0.1066
979.50 0.1065
979.60 0.1065
979.70 0.1064
979.80 0.1064
979.90 0.1064
980.00 0.1063
980.10 0.1063
980.20 0.1062
980.30 0.1062
980.40 0.1062
980.50 0.1061
980.60 0.1061
980.70 0.106
980.80 0.106
980.90 0.106
981.00 0.1059
981.10 0.1059
981.20 0.1058
981.30 0.1058
981.40 0.1058
981.50 0.1057
981.60 0.1057
981.70 0.1057
981.80 0.1056
981.90 0.1056
982.00 0.1055
982.10 0.1055
982.20 0.1054
982.30 0.1054
982.40 0.1054
982.50 0.1053
982.60 0.1053
982.70 0.1052
982.80 0.1052
982.90 0.1051
983.00 0.1051
983.10 0.1051
983.20 0.105
983.30 0.105
983.40 0.1049
983.50 0.1049
983.60 0.1048
983.70 0.1048
983.80 0.1048
983.90 0.1047
984.00 0.1047
984.10 0.1046
984.20 0.1046
984.30 0.1045
984.40 0.1045
984.50 0.1045
984.60 0.1044
984.70 0.1044
984.80 0.1043
984.90 0.1043
985.00 0.1042
985.10 0.1042
985.20 0.1041
985.30 0.1041
985.40 0.104
985.50 0.104
985.60 0.1039
985.70 0.1039
985.80 0.1039
985.90 0.1038
986.00 0.1038
986.10 0.1037
986.20 0.1037
986.30 0.1036
986.40 0.1036
986.50 0.1035
986.60 0.1035
986.70 0.1034
986.80 0.1034
986.90 0.1033
987.00 0.1033
987.10 0.1032
987.20 0.1032
987.30 0.1031
987.40 0.1031
987.50 0.103
987.60 0.103
987.70 0.1029
987.80 0.1029
987.90 0.1028
988.00 0.1028
988.10 0.1027
988.20 0.1027
988.30 0.1026
988.40 0.1026
988.50 0.1025
988.60 0.1025
988.70 0.1024
988.80 0.1024
988.90 0.1023
989.00 0.1023
989.10 0.1022
989.20 0.1022
989.30 0.1021
989.40 0.102
989.50 0.102
989.60 0.1019
989.70 0.1019
989.80 0.1018
989.90 0.1018
990.00 0.1017
990.10 0.1016
990.20 0.1016
990.30 0.1015
990.40 0.1015
990.50 0.1014
990.60 0.1014
990.70 0.1013
990.80 0.1012
990.90 0.1012
991.00 0.1011
991.10 0.101
991.20 0.101
991.30 0.1009
991.40 0.1008
991.50 0.1008
991.60 0.1007
991.70 0.1006
991.80 0.1006
991.90 0.1005
992.00 0.1004
992.10 0.1004
992.20 0.1003
992.30 0.1002
992.40 0.1002
992.50 0.1001
992.60 0.1
992.70 0.09993
992.80 0.09984
992.90 0.09975
993.00 0.09966
993.10 0.09957
993.20 0.09948
993.30 0.0994
993.40 0.09931
993.50 0.09922
993.60 0.09913
993.70 0.09904
993.80 0.09896
993.90 0.09887
994.00 0.09878
994.10 0.09869
994.20 0.0986
994.30 0.09851
994.40 0.09843
994.50 0.09834
994.60 0.09825
994.70 0.09815
994.80 0.09804
994.90 0.09793
995.00 0.09782
995.10 0.09772
995.20 0.09761
995.30 0.0975
995.40 0.09739
995.50 0.09729
995.60 0.09718
995.70 0.09705
995.80 0.09691
995.90 0.09677
996.00 0.09663
996.10 0.09649
996.20 0.09635
996.30 0.09621
996.40 0.09607
996.50 0.09594
996.60 0.0958
996.70 0.09566
996.80 0.09552
996.90 0.09538
997.00 0.09524
997.10 0.09508
997.20 0.09491
997.30 0.09474
997.40 0.09458
997.50 0.09441
997.60 0.09425
997.70 0.09404
997.80 0.09383
997.90 0.09361
998.00 0.0934
998.10 0.09318
998.20 0.09297
998.30 0.09275
998.40 0.09254
998.50 0.09232
998.60 0.09211
998.70 0.0919
998.80 0.09168
998.90 0.09147
999.00 0.09125
999.10 0.09104
999.20 0.09083
999.30 0.09061
999.40 0.0904
999.50 0.09018
999.60 0.08997
999.70 0.08968
999.80 0.08937
999.90 0.08906
1000.00 0.08875
1000.10 0.08844
1000.20 0.08812
1000.30 0.08781
1000.40 0.0875
1000.50 0.08719
1000.60 0.08688
1000.70 0.08657
1000.80 0.08626
1000.90 0.08595
1001.00 0.08564
1001.10 0.08533
1001.20 0.08502
1001.30 0.08471
1001.40 0.0844
1001.50 0.08409
1001.60 0.08378
1001.70 0.08342
1001.80 0.08304
1001.90 0.08266
1002.00 0.08228
1002.10 0.08185
1002.20 0.08142
1002.30 0.081
1002.40 0.08057
1002.50 0.08015
1002.60 0.07972
1002.70 0.07929
1002.80 0.07887
1002.90 0.07844
1003.00 0.07802
1003.10 0.07759
1003.20 0.07711
1003.30 0.07661
1003.40 0.07612
1003.50 0.07562
1003.60 0.07512
1003.70 0.07462
1003.80 0.07413
1003.90 0.07353
1004.00 0.07291
1004.10 0.07228
1004.20 0.07166
1004.30 0.07086
1004.40 0.07001
1004.50 0.06912
1004.60 0.06894
1004.70 0.06876
1004.80 0.06952
1004.90 0.07033
1005.00 0.07113
1005.10 0.07176
1005.20 0.07234
1005.30 0.07291
1005.40 0.07349
1005.50 0.07396
1005.60 0.07441
1005.70 0.07485
1005.80 0.07529
1005.90 0.07574
1006.00 0.07618
1006.10 0.07662
1006.20 0.07701
1006.30 0.07739
1006.40 0.07776
1006.50 0.07813
1006.60 0.07851
1006.70 0.07888
1006.80 0.07925
1006.90 0.07963
1007.00 0.08
1007.10 0.08032
1007.20 0.08065
1007.30 0.08097
1007.40 0.08129
1007.50 0.08162
1007.60 0.08194
1007.70 0.0822
1007.80 0.08244
1007.90 0.08269
1008.00 0.08293
1008.10 0.08317
1008.20 0.08341
1008.30 0.08366
1008.40 0.0839
1008.50 0.08414
1008.60 0.08438
1008.70 0.08462
1008.80 0.08486
1008.90 0.08511
1009.00 0.08535
1009.10 0.08559
1009.20 0.08583
1009.30 0.08607
1009.40 0.08631
1009.50 0.08655
1009.60 0.08679
1009.70 0.08696
1009.80 0.0871
1009.90 0.08724
1010.00 0.08738
1010.10 0.08752
1010.20 0.08767
1010.30 0.08781
1010.40 0.08795
1010.50 0.08809
1010.60 0.08823
1010.70 0.08837
1010.80 0.08851
1010.90 0.08865
1011.00 0.08879
1011.10 0.08893
1011.20 0.08907
1011.30 0.08921
1011.40 0.08936
1011.50 0.0895
1011.60 0.08964
1011.70 0.08974
1011.80 0.08984
1011.90 0.08994
1012.00 0.09004
1012.10 0.09011
1012.20 0.09017
1012.30 0.09024
1012.40 0.0903
1012.50 0.09037
1012.60 0.09043
1012.70 0.0905
1012.80 0.09056
1012.90 0.09063
1013.00 0.09069
1013.10 0.09076
1013.20 0.09082
1013.30 0.09089
1013.40 0.09095
1013.50 0.09102
1013.60 0.09108
1013.70 0.09112
1013.80 0.09116
1013.90 0.0912
1014.00 0.09124
1014.10 0.09127
1014.20 0.09131
1014.30 0.09135
1014.40 0.09138
1014.50 0.09142
1014.60 0.09146
1014.70 0.09148
1014.80 0.09149
1014.90 0.09151
1015.00 0.09152
1015.10 0.09153
1015.20 0.09155
1015.30 0.09156
1015.40 0.09158
1015.50 0.09159
1015.60 0.09161
1015.70 0.09162
1015.80 0.09164
1015.90 0.09165
1016.00 0.09167
1016.10 0.09168
1016.20 0.09169
1016.30 0.09171
1016.40 0.09172
1016.50 0.09174
1016.60 0.09175
1016.70 0.09176
1016.80 0.09176
1016.90 0.09175
1017.00 0.09175
1017.10 0.09175
1017.20 0.09174
1017.30 0.09173
1017.40 0.09173
1017.50 0.09172
1017.60 0.09172
1017.70 0.09171
1017.80 0.0917
1017.90 0.0917
1018.00 0.09169
1018.10 0.09168
1018.20 0.09168
1018.30 0.09167
1018.40 0.09167
1018.50 0.09166
1018.60 0.09165
1018.70 0.09164
1018.80 0.09162
1018.90 0.09161
1019.00 0.09159
1019.10 0.09158
1019.20 0.09156
1019.30 0.09154
1019.40 0.09153
1019.50 0.09151
1019.60 0.0915
1019.70 0.09148
1019.80 0.09147
1019.90 0.09145
1020.00 0.09144
1020.10 0.09142
1020.20 0.0914
1020.30 0.09139
1020.40 0.09137
1020.50 0.09136
1020.60 0.09134
1020.70 0.09132
1020.80 0.0913
1020.90 0.09128
1021.00 0.09126
1021.10 0.09124
1021.20 0.09122
1021.30 0.0912
1021.40 0.09118
1021.50 0.09115
1021.60 0.09113
1021.70 0.09111
1021.80 0.09109
1021.90 0.09107
1022.00 0.09105
1022.10 0.09103
1022.20 0.091
1022.30 0.09098
1022.40 0.09095
1022.50 0.09093
1022.60 0.0909
1022.70 0.09088
1022.80 0.09085
1022.90 0.09083
1023.00 0.0908
1023.10 0.09078
1023.20 0.09075
1023.30 0.09073
1023.40 0.0907
1023.50 0.09068
1023.60 0.09065
1023.70 0.09063
1023.80 0.0906
1023.90 0.09058
1024.00 0.09055
1024.10 0.09053
1024.20 0.0905
1024.30 0.09048
1024.40 0.09045
1024.50 0.09043
1024.60 0.0904
1024.70 0.09038
1024.80 0.09035
1024.90 0.09032
1025.00 0.0903
1025.10 0.09027
1025.20 0.09024
1025.30 0.09021
1025.40 0.09019
1025.50 0.09016
1025.60 0.09013
1025.70 0.0901
1025.80 0.09008
1025.90 0.09005
1026.00 0.09002
1026.10 0.08999
1026.20 0.08997
1026.30 0.08994
1026.40 0.08991
1026.50 0.08988
1026.60 0.08986
1026.70 0.08983
1026.80 0.0898
1026.90 0.08977
1027.00 0.08975
1027.10 0.08972
1027.20 0.08969
1027.30 0.08966
1027.40 0.08963
1027.50 0.0896
1027.60 0.08957
1027.70 0.08954
1027.80 0.08951
1027.90 0.08948
1028.00 0.08945
1028.10 0.08943
1028.20 0.0894
1028.30 0.08937
1028.40 0.08934
1028.50 0.08931
1028.60 0.08928
1028.70 0.08925
1028.80 0.08922
1028.90 0.08919
1029.00 0.08916
1029.10 0.08913
1029.20 0.0891
1029.30 0.08908
1029.40 0.08905
1029.50 0.08902
1029.60 0.08899
1029.70 0.08896
1029.80 0.08893
1029.90 0.0889
1030.00 0.08887
1030.10 0.08884
1030.20 0.08881
1030.30 0.08878
1030.40 0.08876
1030.50 0.08873
1030.60 0.0887
1030.70 0.08867
1030.80 0.08864
1030.90 0.08861
1031.00 0.08858
1031.10 0.08855
1031.20 0.08852
1031.30 0.08849
1031.40 0.08847
1031.50 0.08844
1031.60 0.08841
1031.70 0.08838
1031.80 0.08835
1031.90 0.08832
1032.00 0.08829
1032.10 0.08826
1032.20 0.08823
1032.30 0.0882
1032.40 0.08817
1032.50 0.08814
1032.60 0.08811
1032.70 0.08808
1032.80 0.08805
1032.90 0.08802
1033.00 0.08799
1033.10 0.08796
1033.20 0.08793
1033.30 0.0879
1033.40 0.08787
1033.50 0.08784
1033.60 0.08781
1033.70 0.08778
1033.80 0.08775
1033.90 0.08772
1034.00 0.08769
1034.10 0.08766
1034.20 0.08763
1034.30 0.0876
1034.40 0.08757
1034.50 0.08754
1034.60 0.08751
1034.70 0.08748
1034.80 0.08745
1034.90 0.08742
1035.00 0.08739
1035.10 0.08736
1035.20 0.08733
1035.30 0.0873
1035.40 0.08727
1035.50 0.08725
1035.60 0.08722
1035.70 0.08719
1035.80 0.08716
1035.90 0.08713
1036.00 0.0871
1036.10 0.08707
1036.20 0.08704
1036.30 0.08701
1036.40 0.08698
1036.50 0.08695
1036.60 0.08692
1036.70 0.08689
1036.80 0.08686
1036.90 0.08683
1037.00 0.0868
1037.10 0.08677
1037.20 0.08674
1037.30 0.08671
1037.40 0.08668
1037.50 0.08665
1037.60 0.08662
1037.70 0.08659
1037.80 0.08656
1037.90 0.08653
1038.00 0.0865
1038.10 0.08647
1038.20 0.08644
1038.30 0.08641
1038.40 0.08638
1038.50 0.08635
1038.60 0.08632
1038.70 0.08629
1038.80 0.08626
1038.90 0.08623
1039.00 0.0862
1039.10 0.08617
1039.20 0.08614
1039.30 0.08611
1039.40 0.08608
1039.50 0.08605
1039.60 0.08602
1039.70 0.08599
1039.80 0.08596
1039.90 0.08593
1040.00 0.0859
1040.10 0.08587
1040.20 0.08584
1040.30 0.08581
1040.40 0.08578
1040.50 0.08575
1040.60 0.08572
1040.70 0.08569
1040.80 0.08566
1040.90 0.08563
1041.00 0.0856
1041.10 0.08557
1041.20 0.08554
1041.30 0.08551
1041.40 0.08548
1041.50 0.08545
1041.60 0.08542
1041.70 0.08539
1041.80 0.08536
1041.90 0.08533
1042.00 0.08531
1042.10 0.08528
1042.20 0.08525
1042.30 0.08522
1042.40 0.08519
1042.50 0.08516
1042.60 0.08513
1042.70 0.0851
1042.80 0.08507
1042.90 0.08504
1043.00 0.08501
1043.10 0.08498
1043.20 0.08495
1043.30 0.08492
1043.40 0.08489
1043.50 0.08486
1043.60 0.08483
1043.70 0.0848
1043.80 0.08477
1043.90 0.08474
1044.00 0.08471
1044.10 0.08468
1044.20 0.08465
1044.30 0.08462
1044.40 0.08459
1044.50 0.08456
1044.60 0.08453
1044.70 0.0845
1044.80 0.08447
1044.90 0.08444
1045.00 0.08441
1045.10 0.08438
1045.20 0.08435
1045.30 0.08432
1045.40 0.0843
1045.50 0.08427
1045.60 0.08424
1045.70 0.08421
1045.80 0.08418
1045.90 0.08415
1046.00 0.08412
1046.10 0.08409
1046.20 0.08406
1046.30 0.08403
1046.40 0.084
1046.50 0.08397
1046.60 0.08394
1046.70 0.08391
1046.80 0.08388
1046.90 0.08385
1047.00 0.08382
1047.10 0.08379
1047.20 0.08377
1047.30 0.08374
1047.40 0.08371
1047.50 0.08368
1047.60 0.08365
1047.70 0.08362
1047.80 0.08359
1047.90 0.08356
1048.00 0.08353
1048.10 0.0835
1048.20 0.08347
1048.30 0.08344
1048.40 0.08341
1048.50 0.08338
1048.60 0.08335
1048.70 0.08332
1048.80 0.08329
1048.90 0.08327
1049.00 0.08324
1049.10 0.08321
1049.20 0.08318
1049.30 0.08315
1049.40 0.08312
1049.50 0.08309
1049.60 0.08306
1049.70 0.08303
1049.80 0.083
1049.90 0.08297
1050.00 0.08294
1050.10 0.08291
1050.20 0.08288
1050.30 0.08286
1050.40 0.08283
1050.50 0.0828
1050.60 0.08277
1050.70 0.08274
1050.80 0.08271
1050.90 0.08268
1051.00 0.08265
1051.10 0.08262
1051.20 0.08259
1051.30 0.08256
1051.40 0.08253
1051.50 0.08251
1051.60 0.08248
1051.70 0.08245
1051.80 0.08242
1051.90 0.08239
1052.00 0.08236
1052.10 0.08233
1052.20 0.0823
1052.30 0.08227
1052.40 0.08224
1052.50 0.08221
1052.60 0.08219
1052.70 0.08216
1052.80 0.08213
1052.90 0.0821
1053.00 0.08207
1053.10 0.08204
1053.20 0.08201
1053.30 0.08198
1053.40 0.08195
1053.50 0.08192
1053.60 0.08189
1053.70 0.08187
1053.80 0.08184
1053.90 0.08181
1054.00 0.08178
1054.10 0.08175
1054.20 0.08172
1054.30 0.08169
1054.40 0.08166
1054.50 0.08163
1054.60 0.0816
1054.70 0.08158
1054.80 0.08155
1054.90 0.08152
1055.00 0.08149
1055.10 0.08146
1055.20 0.08143
1055.30 0.0814
1055.40 0.08137
1055.50 0.08134
1055.60 0.08132
1055.70 0.08129
1055.80 0.08126
1055.90 0.08123
1056.00 0.0812
1056.10 0.08117
1056.20 0.08114
1056.30 0.08111
1056.40 0.08109
1056.50 0.08106
1056.60 0.08103
1056.70 0.081
1056.80 0.08097
1056.90 0.08094
1057.00 0.08091
1057.10 0.08088
1057.20 0.08086
1057.30 0.08083
1057.40 0.0808
1057.50 0.08077
1057.60 0.08074
1057.70 0.08071
1057.80 0.08068
1057.90 0.08065
1058.00 0.08062
1058.10 0.0806
1058.20 0.08057
1058.30 0.08054
1058.40 0.08051
1058.50 0.08048
1058.60 0.08045
1058.70 0.08042
1058.80 0.08039
1058.90 0.08036
1059.00 0.08034
1059.10 0.08031
1059.20 0.08028
1059.30 0.08025
1059.40 0.08022
1059.50 0.08019
1059.60 0.08016
1059.70 0.08013
1059.80 0.08011
1059.90 0.08008
1060.00 0.08005
1060.10 0.08002
1060.20 0.07999
1060.30 0.07996
1060.40 0.07993
1060.50 0.07991
1060.60 0.07988
1060.70 0.07985
1060.80 0.07982
1060.90 0.07979
1061.00 0.07976
1061.10 0.07973
1061.20 0.07971
1061.30 0.07968
1061.40 0.07965
1061.50 0.07962
1061.60 0.07959
1061.70 0.07956
1061.80 0.07953
1061.90 0.07951
1062.00 0.07948
1062.10 0.07945
1062.20 0.07942
1062.30 0.07939
1062.40 0.07936
1062.50 0.07933
1062.60 0.0793
1062.70 0.07927
1062.80 0.07925
1062.90 0.07922
1063.00 0.07919
1063.10 0.07916
1063.20 0.07913
1063.30 0.0791
1063.40 0.07907
1063.50 0.07904
1063.60 0.07901
1063.70 0.07898
1063.80 0.07896
1063.90 0.07893
1064.00 0.0789
1064.10 0.07887
1064.20 0.07884
1064.30 0.07881
1064.40 0.07878
1064.50 0.07875
1064.60 0.07873
1064.70 0.0787
1064.80 0.07867
1064.90 0.07864
1065.00 0.07861
1065.10 0.07858
1065.20 0.07855
1065.30 0.07852
1065.40 0.0785
1065.50 0.07847
1065.60 0.07844
1065.70 0.07841
1065.80 0.07838
1065.90 0.07835
1066.00 0.07832
1066.10 0.07829
1066.20 0.07827
1066.30 0.07824
1066.40 0.07821
1066.50 0.07818
1066.60 0.07815
1066.70 0.07812
1066.80 0.07809
1066.90 0.07807
1067.00 0.07804
1067.10 0.07801
1067.20 0.07798
1067.30 0.07795
1067.40 0.07792
1067.50 0.07789
1067.60 0.07786
1067.70 0.07783
1067.80 0.0778
1067.90 0.07777
1068.00 0.07774
1068.10 0.07771
1068.20 0.07768
1068.30 0.07765
1068.40 0.07762
1068.50 0.07759
1068.60 0.07756
1068.70 0.07753
1068.80 0.0775
1068.90 0.07747
1069.00 0.07744
1069.10 0.07741
1069.20 0.07738
1069.30 0.07735
1069.40 0.07732
1069.50 0.07729
1069.60 0.07726
1069.70 0.07723
1069.80 0.07721
1069.90 0.07718
1070.00 0.07715
1070.10 0.07712
1070.20 0.07709
1070.30 0.07706
1070.40 0.07703
1070.50 0.077
1070.60 0.07697
1070.70 0.07694
1070.80 0.07691
1070.90 0.07688
1071.00 0.07685
1071.10 0.07682
1071.20 0.07679
1071.30 0.07676
1071.40 0.07673
1071.50 0.0767
1071.60 0.07667
1071.70 0.07665
1071.80 0.07662
1071.90 0.07659
1072.00 0.07656
1072.10 0.07653
1072.20 0.07649
1072.30 0.07646
1072.40 0.07643
1072.50 0.0764
1072.60 0.07637
1072.70 0.07634
1072.80 0.07631
1072.90 0.07628
1073.00 0.07625
1073.10 0.07622
1073.20 0.07619
1073.30 0.07616
1073.40 0.07612
1073.50 0.07609
1073.60 0.07606
1073.70 0.07603
1073.80 0.07599
1073.90 0.07596
1074.00 0.07593
1074.10 0.07589
1074.20 0.07586
1074.30 0.07583
1074.40 0.07579
1074.50 0.07576
1074.60 0.07573
1074.70 0.07569
1074.80 0.07566
1074.90 0.07563
1075.00 0.0756
1075.10 0.07556
1075.20 0.07553
1075.30 0.0755
1075.40 0.07546
1075.50 0.07543
1075.60 0.0754
1075.70 0.07536
1075.80 0.07533
1075.90 0.0753
1076.00 0.07527
1076.10 0.07523
1076.20 0.0752
1076.30 0.07517
1076.40 0.07513
1076.50 0.0751
1076.60 0.07507
1076.70 0.07503
1076.80 0.075
1076.90 0.07497
1077.00 0.07494
1077.10 0.0749
1077.20 0.07486
1077.30 0.07483
1077.40 0.07479
1077.50 0.07476
1077.60 0.07472
1077.70 0.07468
1077.80 0.07464
1077.90 0.0746
1078.00 0.07456
1078.10 0.07453
1078.20 0.07449
1078.30 0.07445
1078.40 0.07441
1078.50 0.07437
1078.60 0.07433
1078.70 0.07429
1078.80 0.07426
1078.90 0.07422
1079.00 0.07418
1079.10 0.07414
1079.20 0.0741
1079.30 0.07406
1079.40 0.07403
1079.50 0.07398
1079.60 0.07394
1079.70 0.07389
1079.80 0.07385
1079.90 0.0738
1080.00 0.07376
1080.10 0.07371
1080.20 0.07367
1080.30 0.07362
1080.40 0.07358
1080.50 0.07353
1080.60 0.07349
1080.70 0.07344
1080.80 0.0734
1080.90 0.07335
1081.00 0.07331
1081.10 0.07326
1081.20 0.07321
1081.30 0.07317
1081.40 0.07312
1081.50 0.07308
1081.60 0.07303
1081.70 0.07298
1081.80 0.07293
1081.90 0.07287
1082.00 0.07282
1082.10 0.07276
1082.20 0.0727
1082.30 0.07264
1082.40 0.07258
1082.50 0.07252
1082.60 0.07246
1082.70 0.0724
1082.80 0.07234
1082.90 0.07228
1083.00 0.07222
1083.10 0.07216
1083.20 0.07209
1083.30 0.07203
1083.40 0.07197
1083.50 0.07191
1083.60 0.07184
1083.70 0.07176
1083.80 0.07169
1083.90 0.07162
1084.00 0.07154
1084.10 0.07147
1084.20 0.0714
1084.30 0.07133
1084.40 0.07125
1084.50 0.07117
1084.60 0.07108
1084.70 0.07098
1084.80 0.07089
1084.90 0.07079
1085.00 0.07069
1085.10 0.0706
1085.20 0.0705
1085.30 0.07041
1085.40 0.07031
1085.50 0.07022
1085.60 0.07012
1085.70 0.07003
1085.80 0.06993
1085.90 0.06984
1086.00 0.06974
1086.10 0.06965
1086.20 0.06955
1086.30 0.06946
1086.40 0.06936
1086.50 0.06926
1086.60 0.06914
1086.70 0.06902
1086.80 0.06891
1086.90 0.06879
1087.00 0.06867
1087.10 0.06852
1087.20 0.06837
1087.30 0.06822
1087.40 0.06807
1087.50 0.06792
1087.60 0.06777
1087.70 0.06762
1087.80 0.06747
1087.90 0.06732
1088.00 0.06717
1088.10 0.06702
1088.20 0.06687
1088.30 0.06672
1088.40 0.06657
1088.50 0.06641
1088.60 0.0662
1088.70 0.06599
1088.80 0.06578
1088.90 0.06557
1089.00 0.06536
1089.10 0.06515
1089.20 0.06494
1089.30 0.06473
1089.40 0.06453
1089.50 0.06432
1089.60 0.06411
1089.70 0.0639
1089.80 0.06369
1089.90 0.06348
1090.00 0.06328
1090.10 0.06307
1090.20 0.06286
1090.30 0.06265
1090.40 0.06244
1090.50 0.06221
1090.60 0.06193
1090.70 0.06164
1090.80 0.06136
1090.90 0.06108
1091.00 0.06079
1091.10 0.06051
1091.20 0.06022
1091.30 0.05994
1091.40 0.05966
1091.50 0.05937
1091.60 0.05909
1091.70 0.05881
1091.80 0.05853
1091.90 0.05824
1092.00 0.05795
1092.10 0.05759
1092.20 0.05723
1092.30 0.05688
1092.40 0.05652
1092.50 0.05616
1092.60 0.05581
1092.70 0.0554
1092.80 0.0549
1092.90 0.05439
1093.00 0.05389
1093.10 0.05326
1093.20 0.05238
1093.30 0.05145
1093.40 0.05018
1093.50 0.04995
1093.60 0.05095
1093.70 0.05198
1093.80 0.05284
1093.90 0.05357
1094.00 0.05404
1094.10 0.05451
1094.20 0.05497
1094.30 0.05539
1094.40 0.05571
1094.50 0.05603
1094.60 0.05635
1094.70 0.05666
1094.80 0.05698
1094.90 0.0573
1095.00 0.05759
1095.10 0.05783
1095.20 0.05808
1095.30 0.05832
1095.40 0.05856
1095.50 0.0588
1095.60 0.05904
1095.70 0.05928
1095.80 0.05952
1095.90 0.05976
1096.00 0.06
1096.10 0.06024
1096.20 0.06049
1096.30 0.06073
1096.40 0.06097
1096.50 0.06119
1096.60 0.06138
1096.70 0.06158
1096.80 0.06177
1096.90 0.06197
1097.00 0.06216
1097.10 0.06231
1097.20 0.06246
1097.30 0.06261
1097.40 0.06276
1097.50 0.06291
1097.60 0.06306
1097.70 0.06321
1097.80 0.06336
1097.90 0.06351
1098.00 0.06366
1098.10 0.06381
1098.20 0.06396
1098.30 0.0641
1098.40 0.06425
1098.50 0.06438
1098.60 0.06448
1098.70 0.06457
1098.80 0.06466
1098.90 0.06475
1099.00 0.06484
1099.10 0.06493
1099.20 0.06502
1099.30 0.06512
1099.40 0.06521
1099.50 0.0653
1099.60 0.06539
1099.70 0.06548
1099.80 0.06557
1099.90 0.06566
1100.00 0.06575
1100.10 0.06585
1100.20 0.06594
1100.30 0.06603
1100.40 0.06612
1100.50 0.0662
1100.60 0.06625
1100.70 0.0663
1100.80 0.06635
1100.90 0.06639
1101.00 0.06644
1101.10 0.06649
1101.20 0.06654
1101.30 0.06659
1101.40 0.06664
1101.50 0.06669
1101.60 0.06674
1101.70 0.06679
1101.80 0.06684
1101.90 0.06689
1102.00 0.06694
1102.10 0.06697
1102.20 0.067
1102.30 0.06703
1102.40 0.06705
1102.50 0.06708
1102.60 0.0671
1102.70 0.06713
1102.80 0.06715
1102.90 0.06717
1103.00 0.06719
1103.10 0.06722
1103.20 0.06724
1103.30 0.06726
1103.40 0.06728
1103.50 0.0673
1103.60 0.06731
1103.70 0.06732
1103.80 0.06732
1103.90 0.06733
1104.00 0.06734
1104.10 0.06735
1104.20 0.06736
1104.30 0.06736
1104.40 0.06737
1104.50 0.06738
1104.60 0.06739
1104.70 0.0674
1104.80 0.0674
1104.90 0.06741
1105.00 0.06742
1105.10 0.06743
1105.20 0.06743
1105.30 0.06744
1105.40 0.06745
1105.50 0.06745
1105.60 0.06745
1105.70 0.06745
1105.80 0.06744
1105.90 0.06744
1106.00 0.06744
1106.10 0.06743
1106.20 0.06743
1106.30 0.06742
1106.40 0.06742
1106.50 0.06742
1106.60 0.06741
1106.70 0.06741
1106.80 0.06741
1106.90 0.0674
1107.00 0.0674
1107.10 0.06739
1107.20 0.06738
1107.30 0.06737
1107.40 0.06737
1107.50 0.06736
1107.60 0.06735
1107.70 0.06734
1107.80 0.06732
1107.90 0.06731
1108.00 0.0673
1108.10 0.06729
1108.20 0.06728
1108.30 0.06727
1108.40 0.06726
1108.50 0.06725
1108.60 0.06724
1108.70 0.06722
1108.80 0.06721
1108.90 0.0672
1109.00 0.06719
1109.10 0.06718
1109.20 0.06717
1109.30 0.06716
1109.40 0.06715
1109.50 0.06713
1109.60 0.06712
1109.70 0.0671
1109.80 0.06709
1109.90 0.06707
1110.00 0.06706
1110.10 0.06704
1110.20 0.06703
1110.30 0.06701
1110.40 0.067
1110.50 0.06698
1110.60 0.06697
1110.70 0.06695
1110.80 0.06694
1110.90 0.06692
1111.00 0.06691
1111.10 0.06689
1111.20 0.06688
1111.30 0.06686
1111.40 0.06685
1111.50 0.06683
1111.60 0.06682
1111.70 0.0668
1111.80 0.06679
1111.90 0.06677
1112.00 0.06676
1112.10 0.06674
1112.20 0.06672
1112.30 0.06671
1112.40 0.06669
1112.50 0.06667
1112.60 0.06665
1112.70 0.06664
1112.80 0.06662
1112.90 0.0666
1113.00 0.06658
1113.10 0.06657
1113.20 0.06655
1113.30 0.06653
1113.40 0.06652
1113.50 0.0665
1113.60 0.06648
1113.70 0.06646
1113.80 0.06644
1113.90 0.06642
1114.00 0.0664
1114.10 0.06639
1114.20 0.06637
1114.30 0.06635
1114.40 0.06633
1114.50 0.06631
1114.60 0.06629
1114.70 0.06627
1114.80 0.06625
1114.90 0.06624
1115.00 0.06622
1115.10 0.0662
1115.20 0.06618
1115.30 0.06616
1115.40 0.06614
1115.50 0.06612
1115.60 0.0661
1115.70 0.06609
1115.80 0.06607
1115.90 0.06605
1116.00 0.06603
1116.10 0.06601
1116.20 0.06599
1116.30 0.06597
1116.40 0.06596
1116.50 0.06594
1116.60 0.06592
1116.70 0.0659
1116.80 0.06588
1116.90 0.06586
1117.00 0.06584
1117.10 0.06582
1117.20 0.0658
1117.30 0.06578
1117.40 0.06576
1117.50 0.06574
1117.60 0.06572
1117.70 0.0657
1117.80 0.06568
1117.90 0.06566
1118.00 0.06564
1118.10 0.06562
1118.20 0.0656
1118.30 0.06558
1118.40 0.06556
1118.50 0.06554
1118.60 0.06552
1118.70 0.0655
1118.80 0.06548
1118.90 0.06546
1119.00 0.06544
1119.10 0.06542
1119.20 0.06541
1119.30 0.06539
1119.40 0.06537
1119.50 0.06535
1119.60 0.06533
1119.70 0.06531
1119.80 0.06529
1119.90 0.06527
1120.00 0.06525
1120.10 0.06523
1120.20 0.06521
1120.30 0.06519
1120.40 0.06517
1120.50 0.06515
1120.60 0.06513
1120.70 0.06511
1120.80 0.06509
1120.90 0.06507
1121.00 0.06505
1121.10 0.06503
1121.20 0.06501
1121.30 0.06499
1121.40 0.06497
1121.50 0.06495
1121.60 0.06493
1121.70 0.06491
1121.80 0.06489
1121.90 0.06487
1122.00 0.06485
1122.10 0.06483
1122.20 0.06481
1122.30 0.06479
1122.40 0.06477
1122.50 0.06475
1122.60 0.06473
1122.70 0.06471
1122.80 0.06469
1122.90 0.06467
1123.00 0.06465
1123.10 0.06463
1123.20 0.06461
1123.30 0.06459
1123.40 0.06456
1123.50 0.06454
1123.60 0.06452
1123.70 0.0645
1123.80 0.06448
1123.90 0.06446
1124.00 0.06444
1124.10 0.06442
1124.20 0.0644
1124.30 0.06438
1124.40 0.06436
1124.50 0.06434
1124.60 0.06432
1124.70 0.0643
1124.80 0.06428
1124.90 0.06426
1125.00 0.06424
1125.10 0.06422
1125.20 0.0642
1125.30 0.06418
1125.40 0.06416
1125.50 0.06414
1125.60 0.06412
1125.70 0.0641
1125.80 0.06408
1125.90 0.06406
1126.00 0.06404
1126.10 0.06402
1126.20 0.064
1126.30 0.06398
1126.40 0.06396
1126.50 0.06394
1126.60 0.06392
1126.70 0.0639
1126.80 0.06388
1126.90 0.06386
1127.00 0.06384
1127.10 0.06382
1127.20 0.0638
1127.30 0.06377
1127.40 0.06375
1127.50 0.06373
1127.60 0.06371
1127.70 0.06369
1127.80 0.06367
1127.90 0.06365
1128.00 0.06363
1128.10 0.06361
1128.20 0.06359
1128.30 0.06357
1128.40 0.06355
1128.50 0.06353
1128.60 0.06351
1128.70 0.06349
1128.80 0.06347
1128.90 0.06345
1129.00 0.06343
1129.10 0.06341
1129.20 0.06339
1129.30 0.06337
1129.40 0.06335
1129.50 0.06333
1129.60 0.06331
1129.70 0.06329
1129.80 0.06327
1129.90 0.06325
1130.00 0.06323
1130.10 0.06321
1130.20 0.06319
1130.30 0.06317
1130.40 0.06315
1130.50 0.06313
1130.60 0.06311
1130.70 0.06308
1130.80 0.06306
1130.90 0.06304
1131.00 0.06302
1131.10 0.063
1131.20 0.06298
1131.30 0.06296
1131.40 0.06294
1131.50 0.06292
1131.60 0.0629
1131.70 0.06288
1131.80 0.06286
1131.90 0.06284
1132.00 0.06282
1132.10 0.0628
1132.20 0.06278
1132.30 0.06276
1132.40 0.06274
1132.50 0.06272
1132.60 0.0627
1132.70 0.06268
1132.80 0.06266
1132.90 0.06264
1133.00 0.06262
1133.10 0.0626
1133.20 0.06258
1133.30 0.06256
1133.40 0.06254
1133.50 0.06252
1133.60 0.0625
1133.70 0.06248
1133.80 0.06246
1133.90 0.06244
1134.00 0.06242
1134.10 0.0624
1134.20 0.06238
1134.30 0.06236
1134.40 0.06234
1134.50 0.06232
1134.60 0.0623
1134.70 0.06228
1134.80 0.06226
1134.90 0.06224
1135.00 0.06222
1135.10 0.0622
1135.20 0.06218
1135.30 0.06216
1135.40 0.06214
1135.50 0.06212
1135.60 0.0621
1135.70 0.06208
1135.80 0.06206
1135.90 0.06204
1136.00 0.06202
1136.10 0.062
1136.20 0.06198
1136.30 0.06196
1136.40 0.06194
1136.50 0.06192
1136.60 0.0619
1136.70 0.06188
1136.80 0.06186
1136.90 0.06184
1137.00 0.06182
1137.10 0.0618
1137.20 0.06178
1137.30 0.06176
1137.40 0.06174
1137.50 0.06172
1137.60 0.0617
1137.70 0.06168
1137.80 0.06166
1137.90 0.06164
1138.00 0.06162
1138.10 0.0616
1138.20 0.06158
1138.30 0.06156
1138.40 0.06154
1138.50 0.06152
1138.60 0.0615
1138.70 0.06148
1138.80 0.06146
1138.90 0.06144
1139.00 0.06142
1139.10 0.0614
1139.20 0.06138
1139.30 0.06136
1139.40 0.06134
1139.50 0.06132
1139.60 0.0613
1139.70 0.06128
1139.80 0.06126
1139.90 0.06124
1140.00 0.06122
1140.10 0.0612
1140.20 0.06118
1140.30 0.06117
1140.40 0.06115
1140.50 0.06113
1140.60 0.06111
1140.70 0.06109
1140.80 0.06107
1140.90 0.06105
1141.00 0.06103
1141.10 0.06101
1141.20 0.06099
1141.30 0.06097
1141.40 0.06095
1141.50 0.06093
1141.60 0.06091
1141.70 0.06089
1141.80 0.06087
1141.90 0.06085
1142.00 0.06083
1142.10 0.06081
1142.20 0.06079
1142.30 0.06077
1142.40 0.06075
1142.50 0.06073
1142.60 0.06071
1142.70 0.06069
1142.80 0.06067
1142.90 0.06065
1143.00 0.06064
1143.10 0.06062
1143.20 0.0606
1143.30 0.06058
1143.40 0.06056
1143.50 0.06054
1143.60 0.06052
1143.70 0.0605
1143.80 0.06048
1143.90 0.06046
1144.00 0.06044
1144.10 0.06042
1144.20 0.0604
1144.30 0.06038
1144.40 0.06036
1144.50 0.06034
1144.60 0.06032
1144.70 0.0603
1144.80 0.06029
1144.90 0.06027
1145.00 0.06025
1145.10 0.06023
1145.20 0.06021
1145.30 0.06019
1145.40 0.06017
1145.50 0.06015
1145.60 0.06013
1145.70 0.06011
1145.80 0.06009
1145.90 0.06007
1146.00 0.06005
1146.10 0.06003
1146.20 0.06001
1146.30 0.05999
1146.40 0.05998
1146.50 0.05996
1146.60 0.05994
1146.70 0.05992
1146.80 0.0599
1146.90 0.05988
1147.00 0.05986
1147.10 0.05984
1147.20 0.05982
1147.30 0.0598
1147.40 0.05978
1147.50 0.05976
1147.60 0.05974
1147.70 0.05973
1147.80 0.05971
1147.90 0.05969
1148.00 0.05967
1148.10 0.05965
1148.20 0.05963
1148.30 0.05961
1148.40 0.05959
1148.50 0.05957
1148.60 0.05955
1148.70 0.05953
1148.80 0.05951
1148.90 0.0595
1149.00 0.05948
1149.10 0.05946
1149.20 0.05944
1149.30 0.05942
1149.40 0.0594
1149.50 0.05938
1149.60 0.05936
1149.70 0.05934
1149.80 0.05932
1149.90 0.0593
1150.00 0.05929
1150.10 0.05927
1150.20 0.05925
1150.30 0.05923
1150.40 0.05921
1150.50 0.05919
1150.60 0.05917
1150.70 0.05915
1150.80 0.05913
1150.90 0.05911
1151.00 0.05909
1151.10 0.05908
1151.20 0.05906
1151.30 0.05904
1151.40 0.05902
1151.50 0.059
1151.60 0.05898
1151.70 0.05896
1151.80 0.05894
1151.90 0.05892
1152.00 0.05891
1152.10 0.05889
1152.20 0.05887
1152.30 0.05885
1152.40 0.05883
1152.50 0.05881
1152.60 0.05879
1152.70 0.05877
1152.80 0.05875
1152.90 0.05874
1153.00 0.05872
1153.10 0.0587
1153.20 0.05868
1153.30 0.05866
1153.40 0.05864
1153.50 0.05862
1153.60 0.0586
1153.70 0.05858
1153.80 0.05857
1153.90 0.05855
1154.00 0.05853
1154.10 0.05851
1154.20 0.05849
1154.30 0.05847
1154.40 0.05845
1154.50 0.05843
1154.60 0.05842
1154.70 0.0584
1154.80 0.05838
1154.90 0.05836
1155.00 0.05834
1155.10 0.05832
1155.20 0.0583
1155.30 0.05828
1155.40 0.05827
1155.50 0.05825
1155.60 0.05823
1155.70 0.05821
1155.80 0.05819
1155.90 0.05817
1156.00 0.05815
1156.10 0.05814
1156.20 0.05812
1156.30 0.0581
1156.40 0.05808
1156.50 0.05806
1156.60 0.05804
1156.70 0.05802
1156.80 0.058
1156.90 0.05799
1157.00 0.05797
1157.10 0.05795
1157.20 0.05793
1157.30 0.05791
1157.40 0.05789
1157.50 0.05788
1157.60 0.05786
1157.70 0.05784
1157.80 0.05782
1157.90 0.0578
1158.00 0.05778
1158.10 0.05776
1158.20 0.05775
1158.30 0.05773
1158.40 0.05771
1158.50 0.05769
1158.60 0.05767
1158.70 0.05765
1158.80 0.05764
1158.90 0.05762
1159.00 0.0576
1159.10 0.05758
1159.20 0.05756
1159.30 0.05754
1159.40 0.05752
1159.50 0.05751
1159.60 0.05749
1159.70 0.05747
1159.80 0.05745
1159.90 0.05743
1160.00 0.05741
1160.10 0.0574
1160.20 0.05738
1160.30 0.05736
1160.40 0.05734
1160.50 0.05732
1160.60 0.0573
1160.70 0.05729
1160.80 0.05727
1160.90 0.05725
1161.00 0.05723
1161.10 0.05721
1161.20 0.05719
1161.30 0.05718
1161.40 0.05716
1161.50 0.05714
1161.60 0.05712
1161.70 0.0571
1161.80 0.05708
1161.90 0.05707
1162.00 0.05705
1162.10 0.05703
1162.20 0.05701
1162.30 0.05699
1162.40 0.05698
1162.50 0.05696
1162.60 0.05694
1162.70 0.05692
1162.80 0.0569
1162.90 0.05689
1163.00 0.05687
1163.10 0.05685
1163.20 0.05683
1163.30 0.05681
1163.40 0.05679
1163.50 0.05678
1163.60 0.05676
1163.70 0.05674
1163.80 0.05672
1163.90 0.0567
1164.00 0.05669
1164.10 0.05667
1164.20 0.05665
1164.30 0.05663
1164.40 0.05661
1164.50 0.0566
1164.60 0.05658
1164.70 0.05656
1164.80 0.05654
1164.90 0.05652
1165.00 0.05651
1165.10 0.05649
1165.20 0.05647
1165.30 0.05645
1165.40 0.05643
1165.50 0.05642
1165.60 0.0564
1165.70 0.05638
1165.80 0.05636
1165.90 0.05634
1166.00 0.05633
1166.10 0.05631
1166.20 0.05629
1166.30 0.05627
1166.40 0.05625
1166.50 0.05624
1166.60 0.05622
1166.70 0.0562
1166.80 0.05618
1166.90 0.05616
1167.00 0.05615
1167.10 0.05613
1167.20 0.05611
1167.30 0.05609
1167.40 0.05608
1167.50 0.05606
1167.60 0.05604
1167.70 0.05602
1167.80 0.056
1167.90 0.05599
1168.00 0.05597
1168.10 0.05595
1168.20 0.05593
1168.30 0.05592
1168.40 0.0559
1168.50 0.05588
1168.60 0.05586
1168.70 0.05584
1168.80 0.05583
1168.90 0.05581
1169.00 0.05579
1169.10 0.05577
1169.20 0.05576
1169.30 0.05574
1169.40 0.05572
1169.50 0.0557
1169.60 0.05569
1169.70 0.05567
1169.80 0.05565
1169.90 0.05563
1170.00 0.05561
1170.10 0.0556
1170.20 0.05558
1170.30 0.05556
1170.40 0.05554
1170.50 0.05553
1170.60 0.05551
1170.70 0.05549
1170.80 0.05547
1170.90 0.05546
1171.00 0.05544
1171.10 0.05542
1171.20 0.0554
1171.30 0.05538
1171.40 0.05537
1171.50 0.05535
1171.60 0.05533
1171.70 0.05531
1171.80 0.0553
1171.90 0.05528
1172.00 0.05526
1172.10 0.05524
1172.20 0.05523
1172.30 0.05521
1172.40 0.05519
1172.50 0.05517
1172.60 0.05516
1172.70 0.05514
1172.80 0.05512
1172.90 0.0551
1173.00 0.05509
1173.10 0.05507
1173.20 0.05505
1173.30 0.05503
1173.40 0.05502
1173.50 0.055
1173.60 0.05498
1173.70 0.05497
1173.80 0.05495
1173.90 0.05493
1174.00 0.05491
1174.10 0.0549
1174.20 0.05488
1174.30 0.05486
1174.40 0.05484
1174.50 0.05483
1174.60 0.05481
1174.70 0.05479
1174.80 0.05477
1174.90 0.05476
1175.00 0.05474
1175.10 0.05472
1175.20 0.0547
1175.30 0.05469
1175.40 0.05467
1175.50 0.05465
1175.60 0.05464
1175.70 0.05462
1175.80 0.0546
1175.90 0.05458
1176.00 0.05457
1176.10 0.05455
1176.20 0.05453
1176.30 0.05451
1176.40 0.0545
1176.50 0.05448
1176.60 0.05446
1176.70 0.05445
1176.80 0.05443
1176.90 0.05441
1177.00 0.05439
1177.10 0.05438
1177.20 0.05436
1177.30 0.05434
1177.40 0.05433
1177.50 0.05431
1177.60 0.05429
1177.70 0.05427
1177.80 0.05426
1177.90 0.05424
1178.00 0.05422
1178.10 0.05421
1178.20 0.05419
1178.30 0.05417
1178.40 0.05415
1178.50 0.05414
1178.60 0.05412
1178.70 0.0541
1178.80 0.05409
1178.90 0.05407
1179.00 0.05405
1179.10 0.05403
1179.20 0.05402
1179.30 0.054
1179.40 0.05398
1179.50 0.05397
1179.60 0.05395
1179.70 0.05393
1179.80 0.05392
1179.90 0.0539
1180.00 0.05388
1180.10 0.05386
1180.20 0.05385
1180.30 0.05383
1180.40 0.05381
1180.50 0.0538
1180.60 0.05378
1180.70 0.05376
1180.80 0.05375
1180.90 0.05373
1181.00 0.05371
1181.10 0.0537
1181.20 0.05368
1181.30 0.05366
1181.40 0.05364
1181.50 0.05363
1181.60 0.05361
1181.70 0.05359
1181.80 0.05358
1181.90 0.05356
1182.00 0.05354
1182.10 0.05353
1182.20 0.05351
1182.30 0.05349
1182.40 0.05348
1182.50 0.05346
1182.60 0.05344
1182.70 0.05343
1182.80 0.05341
1182.90 0.05339
1183.00 0.05337
1183.10 0.05336
1183.20 0.05334
1183.30 0.05332
1183.40 0.05331
1183.50 0.05329
1183.60 0.05327
1183.70 0.05326
1183.80 0.05324
1183.90 0.05322
1184.00 0.05321
1184.10 0.05319
1184.20 0.05317
1184.30 0.05316
1184.40 0.05314
1184.50 0.05312
1184.60 0.05311
1184.70 0.05309
1184.80 0.05307
1184.90 0.05306
1185.00 0.05304
1185.10 0.05302
1185.20 0.05301
1185.30 0.05299
1185.40 0.05297
1185.50 0.05296
1185.60 0.05294
1185.70 0.05292
1185.80 0.05291
1185.90 0.05289
1186.00 0.05287
1186.10 0.05286
1186.20 0.05284
1186.30 0.05282
1186.40 0.05281
1186.50 0.05279
1186.60 0.05277
1186.70 0.05276
1186.80 0.05274
1186.90 0.05272
1187.00 0.05271
1187.10 0.05269
1187.20 0.05268
1187.30 0.05266
1187.40 0.05264
1187.50 0.05263
1187.60 0.05261
1187.70 0.05259
1187.80 0.05258
1187.90 0.05256
1188.00 0.05254
1188.10 0.05253
1188.20 0.05251
1188.30 0.05249
1188.40 0.05248
1188.50 0.05246
1188.60 0.05244
1188.70 0.05243
1188.80 0.05241
1188.90 0.0524
1189.00 0.05238
1189.10 0.05236
1189.20 0.05235
1189.30 0.05233
1189.40 0.05231
1189.50 0.0523
1189.60 0.05228
1189.70 0.05226
1189.80 0.05225
1189.90 0.05223
1190.00 0.05222
1190.10 0.0522
1190.20 0.05218
1190.30 0.05217
1190.40 0.05215
1190.50 0.05213
1190.60 0.05212
1190.70 0.0521
1190.80 0.05208
1190.90 0.05207
1191.00 0.05205
1191.10 0.05204
1191.20 0.05202
1191.30 0.052
1191.40 0.05199
1191.50 0.05197
1191.60 0.05195
1191.70 0.05194
1191.80 0.05192
1191.90 0.05191
1192.00 0.05189
1192.10 0.05187
1192.20 0.05186
1192.30 0.05184
1192.40 0.05182
1192.50 0.05181
1192.60 0.05179
1192.70 0.05178
1192.80 0.05176
1192.90 0.05174
1193.00 0.05173
1193.10 0.05171
1193.20 0.05169
1193.30 0.05168
1193.40 0.05166
1193.50 0.05165
1193.60 0.05163
1193.70 0.05161
1193.80 0.0516
1193.90 0.05158
1194.00 0.05157
1194.10 0.05155
1194.20 0.05153
1194.30 0.05152
1194.40 0.0515
1194.50 0.05149
1194.60 0.05147
1194.70 0.05145
1194.80 0.05144
1194.90 0.05142
1195.00 0.05141
1195.10 0.05139
1195.20 0.05137
1195.30 0.05136
1195.40 0.05134
1195.50 0.05132
1195.60 0.05131
1195.70 0.05129
1195.80 0.05128
1195.90 0.05126
1196.00 0.05124
1196.10 0.05123
1196.20 0.05121
1196.30 0.0512
1196.40 0.05118
1196.50 0.05116
1196.60 0.05115
1196.70 0.05113
1196.80 0.05112
1196.90 0.0511
1197.00 0.05109
1197.10 0.05107
1197.20 0.05105
1197.30 0.05104
1197.40 0.05102
1197.50 0.05101
1197.60 0.05099
1197.70 0.05097
1197.80 0.05096
1197.90 0.05094
1198.00 0.05093
1198.10 0.05091
1198.20 0.05089
1198.30 0.05088
1198.40 0.05086
1198.50 0.05085
1198.60 0.05083
1198.70 0.05082
1198.80 0.0508
1198.90 0.05078
1199.00 0.05077
1199.10 0.05075
1199.20 0.05074
1199.30 0.05072
1199.40 0.05071
1199.50 0.05069
1199.60 0.05067
1199.70 0.05066
1199.80 0.05064
1199.90 0.05063
1200.00 0
