# Version 2.1 - nm, norm@500 to 1, cut digits, bergeron_120000_80.dat_120000
# Wavelength(nm)  Flambda(ergs/cm^s/s/nm)
300.00 6.957
300.10 6.948
300.20 6.939
300.30 6.93
300.40 6.922
300.50 6.913
300.60 6.904
300.70 6.895
300.80 6.887
300.90 6.878
301.00 6.869
301.10 6.861
301.20 6.852
301.30 6.843
301.40 6.835
301.50 6.826
301.60 6.818
301.70 6.809
301.80 6.8
301.90 6.792
302.00 6.783
302.10 6.775
302.20 6.766
302.30 6.758
302.40 6.749
302.50 6.741
302.60 6.732
302.70 6.724
302.80 6.716
302.90 6.707
303.00 6.699
303.10 6.69
303.20 6.682
303.30 6.674
303.40 6.665
303.50 6.657
303.60 6.649
303.70 6.64
303.80 6.632
303.90 6.624
304.00 6.615
304.10 6.607
304.20 6.599
304.30 6.591
304.40 6.582
304.50 6.574
304.60 6.566
304.70 6.558
304.80 6.55
304.90 6.541
305.00 6.533
305.10 6.525
305.20 6.517
305.30 6.509
305.40 6.501
305.50 6.493
305.60 6.485
305.70 6.477
305.80 6.469
305.90 6.461
306.00 6.453
306.10 6.445
306.20 6.437
306.30 6.429
306.40 6.421
306.50 6.413
306.60 6.405
306.70 6.397
306.80 6.389
306.90 6.381
307.00 6.373
307.10 6.365
307.20 6.357
307.30 6.349
307.40 6.342
307.50 6.334
307.60 6.326
307.70 6.318
307.80 6.31
307.90 6.303
308.00 6.295
308.10 6.287
308.20 6.279
308.30 6.271
308.40 6.264
308.50 6.256
308.60 6.248
308.70 6.241
308.80 6.233
308.90 6.225
309.00 6.218
309.10 6.21
309.20 6.202
309.30 6.195
309.40 6.187
309.50 6.18
309.60 6.172
309.70 6.164
309.80 6.157
309.90 6.149
310.00 6.142
310.10 6.134
310.20 6.127
310.30 6.119
310.40 6.112
310.50 6.104
310.60 6.097
310.70 6.089
310.80 6.082
310.90 6.074
311.00 6.067
311.10 6.06
311.20 6.052
311.30 6.045
311.40 6.037
311.50 6.03
311.60 6.023
311.70 6.015
311.80 6.008
311.90 6.001
312.00 5.993
312.10 5.986
312.20 5.979
312.30 5.971
312.40 5.964
312.50 5.957
312.60 5.95
312.70 5.942
312.80 5.935
312.90 5.928
313.00 5.921
313.10 5.914
313.20 5.906
313.30 5.899
313.40 5.892
313.50 5.885
313.60 5.878
313.70 5.871
313.80 5.864
313.90 5.857
314.00 5.849
314.10 5.842
314.20 5.835
314.30 5.828
314.40 5.821
314.50 5.814
314.60 5.807
314.70 5.8
314.80 5.793
314.90 5.786
315.00 5.779
315.10 5.772
315.20 5.765
315.30 5.758
315.40 5.751
315.50 5.744
315.60 5.737
315.70 5.731
315.80 5.724
315.90 5.717
316.00 5.71
316.10 5.703
316.20 5.696
316.30 5.689
316.40 5.682
316.50 5.676
316.60 5.669
316.70 5.662
316.80 5.655
316.90 5.648
317.00 5.642
317.10 5.635
317.20 5.628
317.30 5.621
317.40 5.615
317.50 5.608
317.60 5.601
317.70 5.594
317.80 5.588
317.90 5.581
318.00 5.574
318.10 5.568
318.20 5.561
318.30 5.554
318.40 5.548
318.50 5.541
318.60 5.534
318.70 5.528
318.80 5.521
318.90 5.515
319.00 5.508
319.10 5.502
319.20 5.495
319.30 5.488
319.40 5.482
319.50 5.475
319.60 5.469
319.70 5.462
319.80 5.456
319.90 5.449
320.00 5.443
320.10 5.436
320.20 5.43
320.30 5.424
320.40 5.417
320.50 5.411
320.60 5.404
320.70 5.398
320.80 5.391
320.90 5.385
321.00 5.379
321.10 5.372
321.20 5.366
321.30 5.36
321.40 5.353
321.50 5.347
321.60 5.341
321.70 5.334
321.80 5.328
321.90 5.322
322.00 5.315
322.10 5.309
322.20 5.303
322.30 5.297
322.40 5.29
322.50 5.284
322.60 5.278
322.70 5.272
322.80 5.265
322.90 5.259
323.00 5.253
323.10 5.247
323.20 5.241
323.30 5.234
323.40 5.228
323.50 5.222
323.60 5.216
323.70 5.21
323.80 5.204
323.90 5.198
324.00 5.191
324.10 5.185
324.20 5.179
324.30 5.173
324.40 5.167
324.50 5.161
324.60 5.155
324.70 5.149
324.80 5.143
324.90 5.137
325.00 5.131
325.10 5.125
325.20 5.119
325.30 5.113
325.40 5.107
325.50 5.101
325.60 5.095
325.70 5.089
325.80 5.083
325.90 5.077
326.00 5.071
326.10 5.065
326.20 5.059
326.30 5.053
326.40 5.048
326.50 5.042
326.60 5.036
326.70 5.03
326.80 5.024
326.90 5.018
327.00 5.012
327.10 5.007
327.20 5.001
327.30 4.995
327.40 4.989
327.50 4.983
327.60 4.978
327.70 4.972
327.80 4.966
327.90 4.96
328.00 4.954
328.10 4.949
328.20 4.943
328.30 4.937
328.40 4.931
328.50 4.926
328.60 4.92
328.70 4.914
328.80 4.909
328.90 4.903
329.00 4.897
329.10 4.892
329.20 4.886
329.30 4.88
329.40 4.875
329.50 4.869
329.60 4.863
329.70 4.858
329.80 4.852
329.90 4.847
330.00 4.841
330.10 4.835
330.20 4.83
330.30 4.824
330.40 4.819
330.50 4.813
330.60 4.808
330.70 4.802
330.80 4.797
330.90 4.791
331.00 4.786
331.10 4.78
331.20 4.775
331.30 4.769
331.40 4.764
331.50 4.758
331.60 4.753
331.70 4.747
331.80 4.742
331.90 4.736
332.00 4.731
332.10 4.725
332.20 4.72
332.30 4.715
332.40 4.709
332.50 4.704
332.60 4.698
332.70 4.693
332.80 4.688
332.90 4.682
333.00 4.677
333.10 4.672
333.20 4.666
333.30 4.661
333.40 4.656
333.50 4.65
333.60 4.645
333.70 4.64
333.80 4.634
333.90 4.629
334.00 4.624
334.10 4.618
334.20 4.613
334.30 4.608
334.40 4.603
334.50 4.597
334.60 4.592
334.70 4.587
334.80 4.582
334.90 4.577
335.00 4.571
335.10 4.566
335.20 4.561
335.30 4.556
335.40 4.551
335.50 4.545
335.60 4.54
335.70 4.535
335.80 4.53
335.90 4.525
336.00 4.52
336.10 4.515
336.20 4.509
336.30 4.504
336.40 4.499
336.50 4.494
336.60 4.489
336.70 4.484
336.80 4.479
336.90 4.474
337.00 4.469
337.10 4.464
337.20 4.459
337.30 4.454
337.40 4.449
337.50 4.444
337.60 4.439
337.70 4.434
337.80 4.429
337.90 4.424
338.00 4.419
338.10 4.414
338.20 4.409
338.30 4.404
338.40 4.399
338.50 4.394
338.60 4.389
338.70 4.384
338.80 4.379
338.90 4.374
339.00 4.369
339.10 4.364
339.20 4.359
339.30 4.354
339.40 4.35
339.50 4.345
339.60 4.34
339.70 4.335
339.80 4.33
339.90 4.325
340.00 4.32
340.10 4.315
340.20 4.311
340.30 4.306
340.40 4.301
340.50 4.296
340.60 4.291
340.70 4.287
340.80 4.282
340.90 4.277
341.00 4.272
341.10 4.267
341.20 4.263
341.30 4.258
341.40 4.253
341.50 4.248
341.60 4.244
341.70 4.239
341.80 4.234
341.90 4.229
342.00 4.225
342.10 4.22
342.20 4.215
342.30 4.211
342.40 4.206
342.50 4.201
342.60 4.197
342.70 4.192
342.80 4.187
342.90 4.183
343.00 4.178
343.10 4.173
343.20 4.169
343.30 4.164
343.40 4.159
343.50 4.155
343.60 4.15
343.70 4.146
343.80 4.141
343.90 4.136
344.00 4.132
344.10 4.127
344.20 4.123
344.30 4.118
344.40 4.113
344.50 4.109
344.60 4.104
344.70 4.1
344.80 4.095
344.90 4.091
345.00 4.086
345.10 4.082
345.20 4.077
345.30 4.073
345.40 4.068
345.50 4.064
345.60 4.059
345.70 4.055
345.80 4.05
345.90 4.046
346.00 4.041
346.10 4.037
346.20 4.032
346.30 4.028
346.40 4.024
346.50 4.019
346.60 4.015
346.70 4.01
346.80 4.006
346.90 4.002
347.00 3.997
347.10 3.993
347.20 3.988
347.30 3.984
347.40 3.98
347.50 3.975
347.60 3.971
347.70 3.966
347.80 3.962
347.90 3.958
348.00 3.953
348.10 3.949
348.20 3.945
348.30 3.94
348.40 3.936
348.50 3.932
348.60 3.928
348.70 3.923
348.80 3.919
348.90 3.915
349.00 3.91
349.10 3.906
349.20 3.902
349.30 3.898
349.40 3.893
349.50 3.889
349.60 3.885
349.70 3.881
349.80 3.876
349.90 3.872
350.00 3.868
350.10 3.864
350.20 3.859
350.30 3.855
350.40 3.851
350.50 3.847
350.60 3.843
350.70 3.839
350.80 3.834
350.90 3.83
351.00 3.826
351.10 3.822
351.20 3.818
351.30 3.814
351.40 3.809
351.50 3.805
351.60 3.801
351.70 3.797
351.80 3.793
351.90 3.789
352.00 3.785
352.10 3.78
352.20 3.776
352.30 3.772
352.40 3.768
352.50 3.764
352.60 3.76
352.70 3.756
352.80 3.752
352.90 3.748
353.00 3.744
353.10 3.74
353.20 3.736
353.30 3.732
353.40 3.728
353.50 3.724
353.60 3.72
353.70 3.716
353.80 3.712
353.90 3.708
354.00 3.704
354.10 3.7
354.20 3.696
354.30 3.692
354.40 3.688
354.50 3.684
354.60 3.68
354.70 3.676
354.80 3.672
354.90 3.668
355.00 3.664
355.10 3.66
355.20 3.656
355.30 3.652
355.40 3.648
355.50 3.644
355.60 3.64
355.70 3.636
355.80 3.633
355.90 3.629
356.00 3.625
356.10 3.621
356.20 3.617
356.30 3.613
356.40 3.609
356.50 3.605
356.60 3.602
356.70 3.598
356.80 3.594
356.90 3.59
357.00 3.586
357.10 3.582
357.20 3.579
357.30 3.575
357.40 3.571
357.50 3.567
357.60 3.563
357.70 3.559
357.80 3.556
357.90 3.552
358.00 3.548
358.10 3.544
358.20 3.54
358.30 3.537
358.40 3.533
358.50 3.529
358.60 3.525
358.70 3.522
358.80 3.518
358.90 3.514
359.00 3.51
359.10 3.507
359.20 3.503
359.30 3.499
359.40 3.496
359.50 3.492
359.60 3.488
359.70 3.484
359.80 3.481
359.90 3.477
360.00 3.473
360.10 3.47
360.20 3.466
360.30 3.462
360.40 3.459
360.50 3.455
360.60 3.451
360.70 3.448
360.80 3.444
360.90 3.44
361.00 3.437
361.10 3.433
361.20 3.429
361.30 3.426
361.40 3.422
361.50 3.419
361.60 3.415
361.70 3.411
361.80 3.408
361.90 3.404
362.00 3.4
362.10 3.397
362.20 3.393
362.30 3.39
362.40 3.386
362.50 3.383
362.60 3.379
362.70 3.376
362.80 3.372
362.90 3.368
363.00 3.365
363.10 3.361
363.20 3.358
363.30 3.354
363.40 3.351
363.50 3.347
363.60 3.344
363.70 3.34
363.80 3.337
363.90 3.333
364.00 3.33
364.10 3.326
364.20 3.323
364.30 3.319
364.40 3.316
364.50 3.312
364.60 3.309
364.70 3.305
364.80 3.302
364.90 3.298
365.00 3.295
365.10 3.291
365.20 3.288
365.30 3.285
365.40 3.281
365.50 3.278
365.60 3.274
365.70 3.271
365.80 3.267
365.90 3.264
366.00 3.261
366.10 3.257
366.20 3.254
366.30 3.25
366.40 3.247
366.50 3.244
366.60 3.24
366.70 3.237
366.80 3.233
366.90 3.23
367.00 3.227
367.10 3.223
367.20 3.22
367.30 3.216
367.40 3.213
367.50 3.21
367.60 3.206
367.70 3.203
367.80 3.2
367.90 3.196
368.00 3.193
368.10 3.189
368.20 3.186
368.30 3.183
368.40 3.179
368.50 3.176
368.60 3.173
368.70 3.169
368.80 3.166
368.90 3.163
369.00 3.159
369.10 3.156
369.20 3.153
369.30 3.15
369.40 3.146
369.50 3.143
369.60 3.14
369.70 3.136
369.80 3.133
369.90 3.13
370.00 3.126
370.10 3.123
370.20 3.12
370.30 3.117
370.40 3.113
370.50 3.11
370.60 3.107
370.70 3.104
370.80 3.1
370.90 3.097
371.00 3.094
371.10 3.091
371.20 3.088
371.30 3.084
371.40 3.081
371.50 3.078
371.60 3.075
371.70 3.071
371.80 3.068
371.90 3.065
372.00 3.062
372.10 3.059
372.20 3.056
372.30 3.052
372.40 3.049
372.50 3.046
372.60 3.043
372.70 3.04
372.80 3.037
372.90 3.034
373.00 3.03
373.10 3.027
373.20 3.024
373.30 3.021
373.40 3.018
373.50 3.015
373.60 3.012
373.70 3.009
373.80 3.006
373.90 3.002
374.00 2.999
374.10 2.996
374.20 2.993
374.30 2.99
374.40 2.987
374.50 2.984
374.60 2.981
374.70 2.978
374.80 2.975
374.90 2.972
375.00 2.969
375.10 2.966
375.20 2.962
375.30 2.959
375.40 2.956
375.50 2.953
375.60 2.95
375.70 2.947
375.80 2.944
375.90 2.941
376.00 2.938
376.10 2.935
376.20 2.932
376.30 2.929
376.40 2.926
376.50 2.923
376.60 2.92
376.70 2.917
376.80 2.914
376.90 2.911
377.00 2.908
377.10 2.905
377.20 2.902
377.30 2.899
377.40 2.896
377.50 2.894
377.60 2.891
377.70 2.888
377.80 2.885
377.90 2.882
378.00 2.879
378.10 2.876
378.20 2.873
378.30 2.87
378.40 2.867
378.50 2.864
378.60 2.861
378.70 2.859
378.80 2.856
378.90 2.853
379.00 2.85
379.10 2.847
379.20 2.844
379.30 2.841
379.40 2.839
379.50 2.836
379.60 2.833
379.70 2.83
379.80 2.827
379.90 2.824
380.00 2.822
380.10 2.819
380.20 2.816
380.30 2.813
380.40 2.81
380.50 2.808
380.60 2.805
380.70 2.802
380.80 2.799
380.90 2.797
381.00 2.794
381.10 2.791
381.20 2.788
381.30 2.786
381.40 2.783
381.50 2.78
381.60 2.777
381.70 2.775
381.80 2.772
381.90 2.769
382.00 2.766
382.10 2.764
382.20 2.761
382.30 2.758
382.40 2.755
382.50 2.753
382.60 2.75
382.70 2.747
382.80 2.744
382.90 2.742
383.00 2.739
383.10 2.736
383.20 2.734
383.30 2.731
383.40 2.728
383.50 2.726
383.60 2.723
383.70 2.72
383.80 2.718
383.90 2.715
384.00 2.713
384.10 2.71
384.20 2.708
384.30 2.705
384.40 2.702
384.50 2.7
384.60 2.697
384.70 2.695
384.80 2.692
384.90 2.69
385.00 2.687
385.10 2.685
385.20 2.682
385.30 2.679
385.40 2.677
385.50 2.674
385.60 2.672
385.70 2.669
385.80 2.666
385.90 2.664
386.00 2.661
386.10 2.659
386.20 2.656
386.30 2.653
386.40 2.651
386.50 2.648
386.60 2.645
386.70 2.643
386.80 2.64
386.90 2.637
387.00 2.635
387.10 2.632
387.20 2.629
387.30 2.626
387.40 2.624
387.50 2.621
387.60 2.618
387.70 2.616
387.80 2.613
387.90 2.61
388.00 2.607
388.10 2.605
388.20 2.602
388.30 2.599
388.40 2.597
388.50 2.594
388.60 2.592
388.70 2.589
388.80 2.587
388.90 2.584
389.00 2.582
389.10 2.58
389.20 2.577
389.30 2.575
389.40 2.573
389.50 2.571
389.60 2.568
389.70 2.566
389.80 2.564
389.90 2.562
390.00 2.56
390.10 2.558
390.20 2.556
390.30 2.554
390.40 2.551
390.50 2.549
390.60 2.547
390.70 2.545
390.80 2.543
390.90 2.541
391.00 2.539
391.10 2.536
391.20 2.534
391.30 2.532
391.40 2.53
391.50 2.527
391.60 2.525
391.70 2.523
391.80 2.52
391.90 2.518
392.00 2.516
392.10 2.513
392.20 2.511
392.30 2.509
392.40 2.506
392.50 2.504
392.60 2.501
392.70 2.499
392.80 2.496
392.90 2.493
393.00 2.491
393.10 2.488
393.20 2.486
393.30 2.483
393.40 2.48
393.50 2.478
393.60 2.475
393.70 2.472
393.80 2.469
393.90 2.466
394.00 2.464
394.10 2.461
394.20 2.458
394.30 2.455
394.40 2.452
394.50 2.449
394.60 2.446
394.70 2.443
394.80 2.44
394.90 2.437
395.00 2.434
395.10 2.431
395.20 2.427
395.30 2.424
395.40 2.421
395.50 2.418
395.60 2.415
395.70 2.411
395.80 2.408
395.90 2.405
396.00 2.402
396.10 2.398
396.20 2.395
396.30 2.392
396.40 2.389
396.50 2.386
396.60 2.383
396.70 2.379
396.80 2.377
396.90 2.374
397.00 2.371
397.10 2.369
397.20 2.368
397.30 2.366
397.40 2.365
397.50 2.364
397.60 2.363
397.70 2.362
397.80 2.36
397.90 2.359
398.00 2.358
398.10 2.357
398.20 2.356
398.30 2.355
398.40 2.354
398.50 2.353
398.60 2.351
398.70 2.35
398.80 2.349
398.90 2.348
399.00 2.347
399.10 2.345
399.20 2.344
399.30 2.343
399.40 2.341
399.50 2.34
399.60 2.339
399.70 2.337
399.80 2.336
399.90 2.334
400.00 2.333
400.10 2.331
400.20 2.33
400.30 2.328
400.40 2.327
400.50 2.325
400.60 2.323
400.70 2.322
400.80 2.32
400.90 2.318
401.00 2.317
401.10 2.315
401.20 2.313
401.30 2.311
401.40 2.309
401.50 2.308
401.60 2.306
401.70 2.304
401.80 2.302
401.90 2.3
402.00 2.298
402.10 2.296
402.20 2.294
402.30 2.292
402.40 2.29
402.50 2.288
402.60 2.286
402.70 2.284
402.80 2.282
402.90 2.28
403.00 2.278
403.10 2.276
403.20 2.273
403.30 2.271
403.40 2.269
403.50 2.267
403.60 2.265
403.70 2.262
403.80 2.26
403.90 2.258
404.00 2.255
404.10 2.253
404.20 2.251
404.30 2.248
404.40 2.246
404.50 2.243
404.60 2.241
404.70 2.239
404.80 2.236
404.90 2.233
405.00 2.231
405.10 2.228
405.20 2.226
405.30 2.223
405.40 2.22
405.50 2.218
405.60 2.215
405.70 2.212
405.80 2.209
405.90 2.207
406.00 2.204
406.10 2.201
406.20 2.198
406.30 2.195
406.40 2.192
406.50 2.189
406.60 2.186
406.70 2.183
406.80 2.179
406.90 2.176
407.00 2.173
407.10 2.169
407.20 2.166
407.30 2.163
407.40 2.159
407.50 2.156
407.60 2.152
407.70 2.148
407.80 2.145
407.90 2.141
408.00 2.137
408.10 2.133
408.20 2.129
408.30 2.125
408.40 2.121
408.50 2.117
408.60 2.113
408.70 2.109
408.80 2.104
408.90 2.1
409.00 2.096
409.10 2.091
409.20 2.087
409.30 2.083
409.40 2.078
409.50 2.074
409.60 2.07
409.70 2.067
409.80 2.064
409.90 2.061
410.00 2.06
410.10 2.06
410.20 2.059
410.30 2.055
410.40 2.052
410.50 2.05
410.60 2.049
410.70 2.049
410.80 2.049
410.90 2.049
411.00 2.05
411.10 2.05
411.20 2.051
411.30 2.051
411.40 2.052
411.50 2.052
411.60 2.053
411.70 2.053
411.80 2.053
411.90 2.054
412.00 2.054
412.10 2.054
412.20 2.054
412.30 2.054
412.40 2.054
412.50 2.054
412.60 2.054
412.70 2.054
412.80 2.053
412.90 2.053
413.00 2.053
413.10 2.052
413.20 2.052
413.30 2.051
413.40 2.051
413.50 2.05
413.60 2.049
413.70 2.049
413.80 2.048
413.90 2.047
414.00 2.046
414.10 2.045
414.20 2.044
414.30 2.043
414.40 2.042
414.50 2.041
414.60 2.04
414.70 2.039
414.80 2.038
414.90 2.037
415.00 2.035
415.10 2.034
415.20 2.033
415.30 2.032
415.40 2.03
415.50 2.029
415.60 2.028
415.70 2.026
415.80 2.025
415.90 2.024
416.00 2.022
416.10 2.021
416.20 2.019
416.30 2.018
416.40 2.016
416.50 2.015
416.60 2.013
416.70 2.012
416.80 2.01
416.90 2.009
417.00 2.007
417.10 2.006
417.20 2.004
417.30 2.002
417.40 2.001
417.50 1.999
417.60 1.998
417.70 1.996
417.80 1.994
417.90 1.993
418.00 1.991
418.10 1.99
418.20 1.988
418.30 1.986
418.40 1.985
418.50 1.983
418.60 1.981
418.70 1.98
418.80 1.978
418.90 1.976
419.00 1.975
419.10 1.973
419.20 1.971
419.30 1.969
419.40 1.968
419.50 1.966
419.60 1.964
419.70 1.963
419.80 1.961
419.90 1.959
420.00 1.957
420.10 1.956
420.20 1.954
420.30 1.952
420.40 1.951
420.50 1.949
420.60 1.947
420.70 1.945
420.80 1.944
420.90 1.942
421.00 1.94
421.10 1.938
421.20 1.937
421.30 1.935
421.40 1.933
421.50 1.931
421.60 1.93
421.70 1.928
421.80 1.926
421.90 1.924
422.00 1.923
422.10 1.921
422.20 1.919
422.30 1.917
422.40 1.916
422.50 1.914
422.60 1.912
422.70 1.91
422.80 1.909
422.90 1.907
423.00 1.905
423.10 1.903
423.20 1.902
423.30 1.9
423.40 1.898
423.50 1.896
423.60 1.894
423.70 1.893
423.80 1.891
423.90 1.889
424.00 1.887
424.10 1.885
424.20 1.884
424.30 1.882
424.40 1.88
424.50 1.878
424.60 1.877
424.70 1.875
424.80 1.873
424.90 1.871
425.00 1.869
425.10 1.867
425.20 1.866
425.30 1.864
425.40 1.862
425.50 1.86
425.60 1.858
425.70 1.856
425.80 1.855
425.90 1.853
426.00 1.851
426.10 1.849
426.20 1.847
426.30 1.845
426.40 1.843
426.50 1.842
426.60 1.84
426.70 1.838
426.80 1.836
426.90 1.834
427.00 1.832
427.10 1.83
427.20 1.828
427.30 1.826
427.40 1.824
427.50 1.822
427.60 1.82
427.70 1.818
427.80 1.816
427.90 1.814
428.00 1.812
428.10 1.81
428.20 1.808
428.30 1.806
428.40 1.803
428.50 1.801
428.60 1.799
428.70 1.797
428.80 1.795
428.90 1.792
429.00 1.79
429.10 1.788
429.20 1.785
429.30 1.783
429.40 1.781
429.50 1.778
429.60 1.776
429.70 1.773
429.80 1.771
429.90 1.768
430.00 1.765
430.10 1.763
430.20 1.76
430.30 1.757
430.40 1.754
430.50 1.751
430.60 1.748
430.70 1.745
430.80 1.742
430.90 1.739
431.00 1.736
431.10 1.732
431.20 1.729
431.30 1.726
431.40 1.722
431.50 1.718
431.60 1.715
431.70 1.711
431.80 1.707
431.90 1.703
432.00 1.699
432.10 1.695
432.20 1.69
432.30 1.686
432.40 1.682
432.50 1.677
432.60 1.673
432.70 1.668
432.80 1.663
432.90 1.659
433.00 1.654
433.10 1.649
433.20 1.644
433.30 1.64
433.40 1.635
433.50 1.631
433.60 1.626
433.70 1.622
433.80 1.617
433.90 1.612
434.00 1.608
434.10 1.607
434.20 1.608
434.30 1.61
434.40 1.612
434.50 1.614
434.60 1.615
434.70 1.617
434.80 1.619
434.90 1.621
435.00 1.623
435.10 1.625
435.20 1.626
435.30 1.628
435.40 1.63
435.50 1.632
435.60 1.633
435.70 1.635
435.80 1.636
435.90 1.638
436.00 1.639
436.10 1.64
436.20 1.641
436.30 1.642
436.40 1.643
436.50 1.644
436.60 1.644
436.70 1.645
436.80 1.645
436.90 1.646
437.00 1.646
437.10 1.646
437.20 1.647
437.30 1.647
437.40 1.647
437.50 1.647
437.60 1.646
437.70 1.646
437.80 1.646
437.90 1.646
438.00 1.645
438.10 1.645
438.20 1.645
438.30 1.644
438.40 1.643
438.50 1.643
438.60 1.642
438.70 1.642
438.80 1.641
438.90 1.64
439.00 1.639
439.10 1.639
439.20 1.638
439.30 1.637
439.40 1.636
439.50 1.635
439.60 1.634
439.70 1.633
439.80 1.632
439.90 1.631
440.00 1.63
440.10 1.629
440.20 1.628
440.30 1.627
440.40 1.626
440.50 1.625
440.60 1.624
440.70 1.623
440.80 1.622
440.90 1.621
441.00 1.619
441.10 1.618
441.20 1.617
441.30 1.616
441.40 1.615
441.50 1.614
441.60 1.612
441.70 1.611
441.80 1.61
441.90 1.609
442.00 1.607
442.10 1.606
442.20 1.605
442.30 1.604
442.40 1.602
442.50 1.601
442.60 1.6
442.70 1.599
442.80 1.597
442.90 1.596
443.00 1.595
443.10 1.594
443.20 1.592
443.30 1.591
443.40 1.59
443.50 1.589
443.60 1.587
443.70 1.586
443.80 1.585
443.90 1.583
444.00 1.582
444.10 1.581
444.20 1.58
444.30 1.578
444.40 1.577
444.50 1.576
444.60 1.574
444.70 1.573
444.80 1.572
444.90 1.57
445.00 1.569
445.10 1.568
445.20 1.566
445.30 1.565
445.40 1.564
445.50 1.563
445.60 1.561
445.70 1.56
445.80 1.559
445.90 1.557
446.00 1.556
446.10 1.555
446.20 1.553
446.30 1.552
446.40 1.551
446.50 1.55
446.60 1.548
446.70 1.547
446.80 1.546
446.90 1.544
447.00 1.543
447.10 1.542
447.20 1.54
447.30 1.539
447.40 1.538
447.50 1.537
447.60 1.535
447.70 1.534
447.80 1.533
447.90 1.531
448.00 1.53
448.10 1.529
448.20 1.527
448.30 1.526
448.40 1.525
448.50 1.524
448.60 1.522
448.70 1.521
448.80 1.52
448.90 1.518
449.00 1.517
449.10 1.516
449.20 1.515
449.30 1.513
449.40 1.512
449.50 1.511
449.60 1.509
449.70 1.508
449.80 1.507
449.90 1.506
450.00 1.504
450.10 1.503
450.20 1.502
450.30 1.5
450.40 1.499
450.50 1.498
450.60 1.497
450.70 1.495
450.80 1.494
450.90 1.493
451.00 1.492
451.10 1.49
451.20 1.489
451.30 1.488
451.40 1.486
451.50 1.485
451.60 1.484
451.70 1.483
451.80 1.481
451.90 1.48
452.00 1.479
452.10 1.478
452.20 1.476
452.30 1.475
452.40 1.474
452.50 1.473
452.60 1.471
452.70 1.47
452.80 1.469
452.90 1.468
453.00 1.466
453.10 1.465
453.20 1.464
453.30 1.463
453.40 1.461
453.50 1.46
453.60 1.459
453.70 1.458
453.80 1.456
453.90 1.455
454.00 1.454
454.10 1.453
454.20 1.451
454.30 1.45
454.40 1.449
454.50 1.448
454.60 1.447
454.70 1.445
454.80 1.444
454.90 1.443
455.00 1.442
455.10 1.44
455.20 1.439
455.30 1.438
455.40 1.437
455.50 1.436
455.60 1.434
455.70 1.433
455.80 1.432
455.90 1.431
456.00 1.43
456.10 1.428
456.20 1.427
456.30 1.426
456.40 1.425
456.50 1.423
456.60 1.422
456.70 1.421
456.80 1.42
456.90 1.419
457.00 1.417
457.10 1.416
457.20 1.415
457.30 1.414
457.40 1.413
457.50 1.411
457.60 1.41
457.70 1.409
457.80 1.408
457.90 1.407
458.00 1.406
458.10 1.404
458.20 1.403
458.30 1.402
458.40 1.401
458.50 1.4
458.60 1.398
458.70 1.397
458.80 1.396
458.90 1.395
459.00 1.394
459.10 1.393
459.20 1.391
459.30 1.39
459.40 1.389
459.50 1.388
459.60 1.387
459.70 1.386
459.80 1.384
459.90 1.383
460.00 1.382
460.10 1.381
460.20 1.38
460.30 1.379
460.40 1.377
460.50 1.376
460.60 1.375
460.70 1.374
460.80 1.373
460.90 1.372
461.00 1.37
461.10 1.369
461.20 1.368
461.30 1.367
461.40 1.366
461.50 1.365
461.60 1.364
461.70 1.362
461.80 1.361
461.90 1.36
462.00 1.359
462.10 1.358
462.20 1.357
462.30 1.356
462.40 1.354
462.50 1.353
462.60 1.352
462.70 1.351
462.80 1.35
462.90 1.349
463.00 1.348
463.10 1.346
463.20 1.345
463.30 1.344
463.40 1.343
463.50 1.342
463.60 1.341
463.70 1.34
463.80 1.339
463.90 1.337
464.00 1.336
464.10 1.335
464.20 1.334
464.30 1.333
464.40 1.332
464.50 1.331
464.60 1.33
464.70 1.329
464.80 1.327
464.90 1.326
465.00 1.325
465.10 1.324
465.20 1.323
465.30 1.322
465.40 1.321
465.50 1.32
465.60 1.319
465.70 1.317
465.80 1.316
465.90 1.315
466.00 1.314
466.10 1.313
466.20 1.312
466.30 1.311
466.40 1.31
466.50 1.309
466.60 1.308
466.70 1.307
466.80 1.305
466.90 1.304
467.00 1.303
467.10 1.302
467.20 1.301
467.30 1.3
467.40 1.299
467.50 1.298
467.60 1.297
467.70 1.296
467.80 1.295
467.90 1.293
468.00 1.292
468.10 1.291
468.20 1.29
468.30 1.289
468.40 1.288
468.50 1.287
468.60 1.286
468.70 1.285
468.80 1.284
468.90 1.283
469.00 1.282
469.10 1.281
469.20 1.279
469.30 1.278
469.40 1.277
469.50 1.276
469.60 1.275
469.70 1.274
469.80 1.273
469.90 1.272
470.00 1.271
470.10 1.27
470.20 1.269
470.30 1.268
470.40 1.267
470.50 1.266
470.60 1.265
470.70 1.264
470.80 1.262
470.90 1.261
471.00 1.26
471.10 1.259
471.20 1.258
471.30 1.257
471.40 1.256
471.50 1.255
471.60 1.254
471.70 1.253
471.80 1.252
471.90 1.251
472.00 1.25
472.10 1.249
472.20 1.248
472.30 1.247
472.40 1.246
472.50 1.245
472.60 1.244
472.70 1.243
472.80 1.241
472.90 1.24
473.00 1.239
473.10 1.238
473.20 1.237
473.30 1.236
473.40 1.235
473.50 1.234
473.60 1.233
473.70 1.232
473.80 1.231
473.90 1.23
474.00 1.229
474.10 1.228
474.20 1.227
474.30 1.226
474.40 1.225
474.50 1.224
474.60 1.223
474.70 1.222
474.80 1.221
474.90 1.22
475.00 1.219
475.10 1.217
475.20 1.216
475.30 1.215
475.40 1.214
475.50 1.213
475.60 1.212
475.70 1.211
475.80 1.21
475.90 1.209
476.00 1.208
476.10 1.207
476.20 1.206
476.30 1.205
476.40 1.204
476.50 1.203
476.60 1.202
476.70 1.201
476.80 1.2
476.90 1.199
477.00 1.197
477.10 1.196
477.20 1.195
477.30 1.194
477.40 1.193
477.50 1.192
477.60 1.191
477.70 1.19
477.80 1.189
477.90 1.188
478.00 1.187
478.10 1.186
478.20 1.185
478.30 1.183
478.40 1.182
478.50 1.181
478.60 1.18
478.70 1.179
478.80 1.178
478.90 1.177
479.00 1.176
479.10 1.174
479.20 1.173
479.30 1.172
479.40 1.171
479.50 1.17
479.60 1.169
479.70 1.167
479.80 1.166
479.90 1.165
480.00 1.164
480.10 1.163
480.20 1.161
480.30 1.16
480.40 1.159
480.50 1.157
480.60 1.156
480.70 1.155
480.80 1.153
480.90 1.152
481.00 1.151
481.10 1.15
481.20 1.148
481.30 1.147
481.40 1.145
481.50 1.144
481.60 1.142
481.70 1.141
481.80 1.139
481.90 1.137
482.00 1.136
482.10 1.134
482.20 1.133
482.30 1.131
482.40 1.129
482.50 1.127
482.60 1.125
482.70 1.123
482.80 1.121
482.90 1.12
483.00 1.118
483.10 1.116
483.20 1.114
483.30 1.111
483.40 1.109
483.50 1.106
483.60 1.104
483.70 1.101
483.80 1.099
483.90 1.096
484.00 1.094
484.10 1.092
484.20 1.089
484.30 1.086
484.40 1.083
484.50 1.08
484.60 1.077
484.70 1.074
484.80 1.07
484.90 1.067
485.00 1.064
485.10 1.06
485.20 1.057
485.30 1.054
485.40 1.05
485.50 1.047
485.60 1.044
485.70 1.041
485.80 1.039
485.90 1.037
486.00 1.039
486.10 1.048
486.20 1.044
486.30 1.035
486.40 1.033
486.50 1.033
486.60 1.034
486.70 1.036
486.80 1.037
486.90 1.039
487.00 1.041
487.10 1.042
487.20 1.044
487.30 1.046
487.40 1.047
487.50 1.049
487.60 1.051
487.70 1.052
487.80 1.053
487.90 1.055
488.00 1.056
488.10 1.057
488.20 1.058
488.30 1.059
488.40 1.059
488.50 1.06
488.60 1.061
488.70 1.061
488.80 1.062
488.90 1.063
489.00 1.063
489.10 1.064
489.20 1.064
489.30 1.064
489.40 1.064
489.50 1.064
489.60 1.065
489.70 1.065
489.80 1.065
489.90 1.065
490.00 1.065
490.10 1.065
490.20 1.065
490.30 1.064
490.40 1.064
490.50 1.064
490.60 1.064
490.70 1.063
490.80 1.063
490.90 1.063
491.00 1.062
491.10 1.062
491.20 1.062
491.30 1.061
491.40 1.061
491.50 1.06
491.60 1.06
491.70 1.059
491.80 1.059
491.90 1.058
492.00 1.058
492.10 1.057
492.20 1.057
492.30 1.056
492.40 1.055
492.50 1.055
492.60 1.054
492.70 1.054
492.80 1.053
492.90 1.052
493.00 1.052
493.10 1.051
493.20 1.05
493.30 1.05
493.40 1.049
493.50 1.048
493.60 1.048
493.70 1.047
493.80 1.046
493.90 1.046
494.00 1.045
494.10 1.044
494.20 1.043
494.30 1.043
494.40 1.042
494.50 1.041
494.60 1.041
494.70 1.04
494.80 1.039
494.90 1.038
495.00 1.038
495.10 1.037
495.20 1.036
495.30 1.036
495.40 1.035
495.50 1.034
495.60 1.033
495.70 1.033
495.80 1.032
495.90 1.031
496.00 1.03
496.10 1.03
496.20 1.029
496.30 1.028
496.40 1.027
496.50 1.027
496.60 1.026
496.70 1.025
496.80 1.024
496.90 1.024
497.00 1.023
497.10 1.022
497.20 1.021
497.30 1.021
497.40 1.02
497.50 1.019
497.60 1.018
497.70 1.017
497.80 1.017
497.90 1.016
498.00 1.015
498.10 1.014
498.20 1.014
498.30 1.013
498.40 1.012
498.50 1.011
498.60 1.011
498.70 1.01
498.80 1.009
498.90 1.008
499.00 1.008
499.10 1.007
499.20 1.006
499.30 1.005
499.40 1.005
499.50 1.004
499.60 1.003
499.70 1.002
499.80 1.002
499.90 1.001
500.00 1
500.10 0.9992
500.20 0.9985
500.30 0.9977
500.40 0.997
500.50 0.9962
500.60 0.9955
500.70 0.9947
500.80 0.9939
500.90 0.9932
501.00 0.9924
501.10 0.9917
501.20 0.9909
501.30 0.9902
501.40 0.9894
501.50 0.9887
501.60 0.9879
501.70 0.9872
501.80 0.9864
501.90 0.9857
502.00 0.9849
502.10 0.9842
502.20 0.9834
502.30 0.9827
502.40 0.9819
502.50 0.9812
502.60 0.9804
502.70 0.9797
502.80 0.9789
502.90 0.9782
503.00 0.9774
503.10 0.9767
503.20 0.976
503.30 0.9752
503.40 0.9745
503.50 0.9737
503.60 0.973
503.70 0.9722
503.80 0.9715
503.90 0.9708
504.00 0.97
504.10 0.9693
504.20 0.9685
504.30 0.9678
504.40 0.9671
504.50 0.9663
504.60 0.9656
504.70 0.9649
504.80 0.9641
504.90 0.9634
505.00 0.9627
505.10 0.9619
505.20 0.9612
505.30 0.9605
505.40 0.9597
505.50 0.959
505.60 0.9583
505.70 0.9575
505.80 0.9568
505.90 0.9561
506.00 0.9554
506.10 0.9546
506.20 0.9539
506.30 0.9532
506.40 0.9525
506.50 0.9517
506.60 0.951
506.70 0.9503
506.80 0.9496
506.90 0.9488
507.00 0.9481
507.10 0.9474
507.20 0.9467
507.30 0.946
507.40 0.9452
507.50 0.9445
507.60 0.9438
507.70 0.9431
507.80 0.9424
507.90 0.9416
508.00 0.9409
508.10 0.9402
508.20 0.9395
508.30 0.9388
508.40 0.9381
508.50 0.9374
508.60 0.9367
508.70 0.9359
508.80 0.9352
508.90 0.9345
509.00 0.9338
509.10 0.9331
509.20 0.9324
509.30 0.9317
509.40 0.931
509.50 0.9303
509.60 0.9296
509.70 0.9289
509.80 0.9282
509.90 0.9275
510.00 0.9268
510.10 0.9261
510.20 0.9254
510.30 0.9247
510.40 0.924
510.50 0.9233
510.60 0.9226
510.70 0.9219
510.80 0.9212
510.90 0.9205
511.00 0.9198
511.10 0.9191
511.20 0.9184
511.30 0.9177
511.40 0.917
511.50 0.9163
511.60 0.9156
511.70 0.9149
511.80 0.9142
511.90 0.9135
512.00 0.9128
512.10 0.9121
512.20 0.9115
512.30 0.9108
512.40 0.9101
512.50 0.9094
512.60 0.9087
512.70 0.908
512.80 0.9073
512.90 0.9067
513.00 0.906
513.10 0.9053
513.20 0.9046
513.30 0.9039
513.40 0.9032
513.50 0.9026
513.60 0.9019
513.70 0.9012
513.80 0.9005
513.90 0.8998
514.00 0.8992
514.10 0.8985
514.20 0.8978
514.30 0.8971
514.40 0.8965
514.50 0.8958
514.60 0.8951
514.70 0.8944
514.80 0.8938
514.90 0.8931
515.00 0.8924
515.10 0.8918
515.20 0.8911
515.30 0.8904
515.40 0.8897
515.50 0.8891
515.60 0.8884
515.70 0.8877
515.80 0.8871
515.90 0.8864
516.00 0.8857
516.10 0.8851
516.20 0.8844
516.30 0.8838
516.40 0.8831
516.50 0.8824
516.60 0.8818
516.70 0.8811
516.80 0.8804
516.90 0.8798
517.00 0.8791
517.10 0.8785
517.20 0.8778
517.30 0.8772
517.40 0.8765
517.50 0.8758
517.60 0.8752
517.70 0.8745
517.80 0.8739
517.90 0.8732
518.00 0.8726
518.10 0.8719
518.20 0.8713
518.30 0.8706
518.40 0.87
518.50 0.8693
518.60 0.8687
518.70 0.868
518.80 0.8674
518.90 0.8667
519.00 0.8661
519.10 0.8654
519.20 0.8648
519.30 0.8641
519.40 0.8635
519.50 0.8628
519.60 0.8622
519.70 0.8616
519.80 0.8609
519.90 0.8603
520.00 0.8596
520.10 0.859
520.20 0.8584
520.30 0.8577
520.40 0.8571
520.50 0.8564
520.60 0.8558
520.70 0.8552
520.80 0.8545
520.90 0.8539
521.00 0.8533
521.10 0.8526
521.20 0.852
521.30 0.8514
521.40 0.8507
521.50 0.8501
521.60 0.8495
521.70 0.8488
521.80 0.8482
521.90 0.8476
522.00 0.8469
522.10 0.8463
522.20 0.8457
522.30 0.8451
522.40 0.8444
522.50 0.8438
522.60 0.8432
522.70 0.8426
522.80 0.8419
522.90 0.8413
523.00 0.8407
523.10 0.8401
523.20 0.8394
523.30 0.8388
523.40 0.8382
523.50 0.8376
523.60 0.837
523.70 0.8363
523.80 0.8357
523.90 0.8351
524.00 0.8345
524.10 0.8339
524.20 0.8332
524.30 0.8326
524.40 0.832
524.50 0.8314
524.60 0.8308
524.70 0.8302
524.80 0.8296
524.90 0.8289
525.00 0.8283
525.10 0.8277
525.20 0.8271
525.30 0.8265
525.40 0.8259
525.50 0.8253
525.60 0.8247
525.70 0.8241
525.80 0.8235
525.90 0.8228
526.00 0.8222
526.10 0.8216
526.20 0.821
526.30 0.8204
526.40 0.8198
526.50 0.8192
526.60 0.8186
526.70 0.818
526.80 0.8174
526.90 0.8168
527.00 0.8162
527.10 0.8156
527.20 0.815
527.30 0.8144
527.40 0.8138
527.50 0.8132
527.60 0.8126
527.70 0.812
527.80 0.8114
527.90 0.8108
528.00 0.8102
528.10 0.8096
528.20 0.809
528.30 0.8084
528.40 0.8078
528.50 0.8073
528.60 0.8067
528.70 0.8061
528.80 0.8055
528.90 0.8049
529.00 0.8043
529.10 0.8037
529.20 0.8031
529.30 0.8025
529.40 0.8019
529.50 0.8014
529.60 0.8008
529.70 0.8002
529.80 0.7996
529.90 0.799
530.00 0.7984
530.10 0.7978
530.20 0.7973
530.30 0.7967
530.40 0.7961
530.50 0.7955
530.60 0.7949
530.70 0.7943
530.80 0.7938
530.90 0.7932
531.00 0.7926
531.10 0.792
531.20 0.7914
531.30 0.7909
531.40 0.7903
531.50 0.7897
531.60 0.7891
531.70 0.7886
531.80 0.788
531.90 0.7874
532.00 0.7868
532.10 0.7863
532.20 0.7857
532.30 0.7851
532.40 0.7846
532.50 0.784
532.60 0.7834
532.70 0.7828
532.80 0.7823
532.90 0.7817
533.00 0.7811
533.10 0.7806
533.20 0.78
533.30 0.7794
533.40 0.7789
533.50 0.7783
533.60 0.7777
533.70 0.7772
533.80 0.7766
533.90 0.776
534.00 0.7755
534.10 0.7749
534.20 0.7743
534.30 0.7738
534.40 0.7732
534.50 0.7727
534.60 0.7721
534.70 0.7715
534.80 0.771
534.90 0.7704
535.00 0.7699
535.10 0.7693
535.20 0.7687
535.30 0.7682
535.40 0.7676
535.50 0.7671
535.60 0.7665
535.70 0.766
535.80 0.7654
535.90 0.7649
536.00 0.7643
536.10 0.7637
536.20 0.7632
536.30 0.7626
536.40 0.7621
536.50 0.7615
536.60 0.761
536.70 0.7604
536.80 0.7599
536.90 0.7593
537.00 0.7588
537.10 0.7582
537.20 0.7577
537.30 0.7571
537.40 0.7566
537.50 0.7561
537.60 0.7555
537.70 0.755
537.80 0.7544
537.90 0.7539
538.00 0.7533
538.10 0.7528
538.20 0.7522
538.30 0.7517
538.40 0.7512
538.50 0.7506
538.60 0.7501
538.70 0.7495
538.80 0.749
538.90 0.7485
539.00 0.7479
539.10 0.7474
539.20 0.7468
539.30 0.7463
539.40 0.7458
539.50 0.7452
539.60 0.7447
539.70 0.7442
539.80 0.7436
539.90 0.7431
540.00 0.7426
540.10 0.742
540.20 0.7415
540.30 0.741
540.40 0.7404
540.50 0.7399
540.60 0.7394
540.70 0.7388
540.80 0.7383
540.90 0.7378
541.00 0.7372
541.10 0.7367
541.20 0.7362
541.30 0.7357
541.40 0.7351
541.50 0.7346
541.60 0.7341
541.70 0.7336
541.80 0.733
541.90 0.7325
542.00 0.732
542.10 0.7315
542.20 0.7309
542.30 0.7304
542.40 0.7299
542.50 0.7294
542.60 0.7288
542.70 0.7283
542.80 0.7278
542.90 0.7273
543.00 0.7268
543.10 0.7262
543.20 0.7257
543.30 0.7252
543.40 0.7247
543.50 0.7242
543.60 0.7237
543.70 0.7231
543.80 0.7226
543.90 0.7221
544.00 0.7216
544.10 0.7211
544.20 0.7206
544.30 0.72
544.40 0.7195
544.50 0.719
544.60 0.7185
544.70 0.718
544.80 0.7175
544.90 0.717
545.00 0.7165
545.10 0.7159
545.20 0.7154
545.30 0.7149
545.40 0.7144
545.50 0.7139
545.60 0.7134
545.70 0.7129
545.80 0.7124
545.90 0.7119
546.00 0.7114
546.10 0.7109
546.20 0.7104
546.30 0.7099
546.40 0.7094
546.50 0.7089
546.60 0.7084
546.70 0.7078
546.80 0.7073
546.90 0.7068
547.00 0.7063
547.10 0.7058
547.20 0.7053
547.30 0.7048
547.40 0.7043
547.50 0.7038
547.60 0.7033
547.70 0.7028
547.80 0.7023
547.90 0.7018
548.00 0.7014
548.10 0.7009
548.20 0.7004
548.30 0.6999
548.40 0.6994
548.50 0.6989
548.60 0.6984
548.70 0.6979
548.80 0.6974
548.90 0.6969
549.00 0.6964
549.10 0.6959
549.20 0.6954
549.30 0.6949
549.40 0.6944
549.50 0.6939
549.60 0.6935
549.70 0.693
549.80 0.6925
549.90 0.692
550.00 0.6915
550.10 0.691
550.20 0.6905
550.30 0.69
550.40 0.6895
550.50 0.6891
550.60 0.6886
550.70 0.6881
550.80 0.6876
550.90 0.6871
551.00 0.6866
551.10 0.6862
551.20 0.6857
551.30 0.6852
551.40 0.6847
551.50 0.6842
551.60 0.6837
551.70 0.6833
551.80 0.6828
551.90 0.6823
552.00 0.6818
552.10 0.6813
552.20 0.6809
552.30 0.6804
552.40 0.6799
552.50 0.6794
552.60 0.679
552.70 0.6785
552.80 0.678
552.90 0.6775
553.00 0.677
553.10 0.6766
553.20 0.6761
553.30 0.6756
553.40 0.6751
553.50 0.6747
553.60 0.6742
553.70 0.6737
553.80 0.6733
553.90 0.6728
554.00 0.6723
554.10 0.6718
554.20 0.6714
554.30 0.6709
554.40 0.6704
554.50 0.67
554.60 0.6695
554.70 0.669
554.80 0.6686
554.90 0.6681
555.00 0.6676
555.10 0.6672
555.20 0.6667
555.30 0.6662
555.40 0.6658
555.50 0.6653
555.60 0.6648
555.70 0.6644
555.80 0.6639
555.90 0.6634
556.00 0.663
556.10 0.6625
556.20 0.662
556.30 0.6616
556.40 0.6611
556.50 0.6607
556.60 0.6602
556.70 0.6597
556.80 0.6593
556.90 0.6588
557.00 0.6584
557.10 0.6579
557.20 0.6574
557.30 0.657
557.40 0.6565
557.50 0.6561
557.60 0.6556
557.70 0.6552
557.80 0.6547
557.90 0.6542
558.00 0.6538
558.10 0.6533
558.20 0.6529
558.30 0.6524
558.40 0.652
558.50 0.6515
558.60 0.6511
558.70 0.6506
558.80 0.6502
558.90 0.6497
559.00 0.6493
559.10 0.6488
559.20 0.6484
559.30 0.6479
559.40 0.6475
559.50 0.647
559.60 0.6466
559.70 0.6461
559.80 0.6457
559.90 0.6452
560.00 0.6448
560.10 0.6443
560.20 0.6439
560.30 0.6434
560.40 0.643
560.50 0.6425
560.60 0.6421
560.70 0.6416
560.80 0.6412
560.90 0.6408
561.00 0.6403
561.10 0.6399
561.20 0.6394
561.30 0.639
561.40 0.6385
561.50 0.6381
561.60 0.6377
561.70 0.6372
561.80 0.6368
561.90 0.6363
562.00 0.6359
562.10 0.6355
562.20 0.635
562.30 0.6346
562.40 0.6341
562.50 0.6337
562.60 0.6333
562.70 0.6328
562.80 0.6324
562.90 0.632
563.00 0.6315
563.10 0.6311
563.20 0.6306
563.30 0.6302
563.40 0.6298
563.50 0.6293
563.60 0.6289
563.70 0.6285
563.80 0.628
563.90 0.6276
564.00 0.6272
564.10 0.6267
564.20 0.6263
564.30 0.6259
564.40 0.6255
564.50 0.625
564.60 0.6246
564.70 0.6242
564.80 0.6237
564.90 0.6233
565.00 0.6229
565.10 0.6225
565.20 0.622
565.30 0.6216
565.40 0.6212
565.50 0.6207
565.60 0.6203
565.70 0.6199
565.80 0.6195
565.90 0.619
566.00 0.6186
566.10 0.6182
566.20 0.6178
566.30 0.6173
566.40 0.6169
566.50 0.6165
566.60 0.6161
566.70 0.6156
566.80 0.6152
566.90 0.6148
567.00 0.6144
567.10 0.614
567.20 0.6135
567.30 0.6131
567.40 0.6127
567.50 0.6123
567.60 0.6119
567.70 0.6114
567.80 0.611
567.90 0.6106
568.00 0.6102
568.10 0.6098
568.20 0.6094
568.30 0.6089
568.40 0.6085
568.50 0.6081
568.60 0.6077
568.70 0.6073
568.80 0.6069
568.90 0.6064
569.00 0.606
569.10 0.6056
569.20 0.6052
569.30 0.6048
569.40 0.6044
569.50 0.604
569.60 0.6036
569.70 0.6031
569.80 0.6027
569.90 0.6023
570.00 0.6019
570.10 0.6015
570.20 0.6011
570.30 0.6007
570.40 0.6003
570.50 0.5999
570.60 0.5995
570.70 0.5991
570.80 0.5986
570.90 0.5982
571.00 0.5978
571.10 0.5974
571.20 0.597
571.30 0.5966
571.40 0.5962
571.50 0.5958
571.60 0.5954
571.70 0.595
571.80 0.5946
571.90 0.5942
572.00 0.5938
572.10 0.5934
572.20 0.593
572.30 0.5926
572.40 0.5922
572.50 0.5918
572.60 0.5914
572.70 0.591
572.80 0.5906
572.90 0.5902
573.00 0.5898
573.10 0.5894
573.20 0.589
573.30 0.5886
573.40 0.5882
573.50 0.5878
573.60 0.5874
573.70 0.587
573.80 0.5866
573.90 0.5862
574.00 0.5858
574.10 0.5854
574.20 0.585
574.30 0.5846
574.40 0.5842
574.50 0.5838
574.60 0.5834
574.70 0.583
574.80 0.5826
574.90 0.5822
575.00 0.5818
575.10 0.5814
575.20 0.581
575.30 0.5806
575.40 0.5803
575.50 0.5799
575.60 0.5795
575.70 0.5791
575.80 0.5787
575.90 0.5783
576.00 0.5779
576.10 0.5775
576.20 0.5771
576.30 0.5767
576.40 0.5764
576.50 0.576
576.60 0.5756
576.70 0.5752
576.80 0.5748
576.90 0.5744
577.00 0.574
577.10 0.5736
577.20 0.5733
577.30 0.5729
577.40 0.5725
577.50 0.5721
577.60 0.5717
577.70 0.5713
577.80 0.5709
577.90 0.5706
578.00 0.5702
578.10 0.5698
578.20 0.5694
578.30 0.569
578.40 0.5686
578.50 0.5683
578.60 0.5679
578.70 0.5675
578.80 0.5671
578.90 0.5667
579.00 0.5664
579.10 0.566
579.20 0.5656
579.30 0.5652
579.40 0.5648
579.50 0.5645
579.60 0.5641
579.70 0.5637
579.80 0.5633
579.90 0.563
580.00 0.5626
580.10 0.5622
580.20 0.5618
580.30 0.5614
580.40 0.5611
580.50 0.5607
580.60 0.5603
580.70 0.5599
580.80 0.5596
580.90 0.5592
581.00 0.5588
581.10 0.5584
581.20 0.5581
581.30 0.5577
581.40 0.5573
581.50 0.557
581.60 0.5566
581.70 0.5562
581.80 0.5558
581.90 0.5555
582.00 0.5551
582.10 0.5547
582.20 0.5544
582.30 0.554
582.40 0.5536
582.50 0.5532
582.60 0.5529
582.70 0.5525
582.80 0.5521
582.90 0.5518
583.00 0.5514
583.10 0.551
583.20 0.5507
583.30 0.5503
583.40 0.5499
583.50 0.5496
583.60 0.5492
583.70 0.5488
583.80 0.5485
583.90 0.5481
584.00 0.5477
584.10 0.5474
584.20 0.547
584.30 0.5467
584.40 0.5463
584.50 0.5459
584.60 0.5456
584.70 0.5452
584.80 0.5448
584.90 0.5445
585.00 0.5441
585.10 0.5438
585.20 0.5434
585.30 0.543
585.40 0.5427
585.50 0.5423
585.60 0.542
585.70 0.5416
585.80 0.5412
585.90 0.5409
586.00 0.5405
586.10 0.5402
586.20 0.5398
586.30 0.5394
586.40 0.5391
586.50 0.5387
586.60 0.5384
586.70 0.538
586.80 0.5377
586.90 0.5373
587.00 0.5369
587.10 0.5366
587.20 0.5362
587.30 0.5359
587.40 0.5355
587.50 0.5352
587.60 0.5348
587.70 0.5345
587.80 0.5341
587.90 0.5338
588.00 0.5334
588.10 0.533
588.20 0.5327
588.30 0.5323
588.40 0.532
588.50 0.5316
588.60 0.5313
588.70 0.5309
588.80 0.5306
588.90 0.5302
589.00 0.5299
589.10 0.5295
589.20 0.5292
589.30 0.5288
589.40 0.5285
589.50 0.5281
589.60 0.5278
589.70 0.5274
589.80 0.5271
589.90 0.5268
590.00 0.5264
590.10 0.5261
590.20 0.5257
590.30 0.5254
590.40 0.525
590.50 0.5247
590.60 0.5243
590.70 0.524
590.80 0.5236
590.90 0.5233
591.00 0.5229
591.10 0.5226
591.20 0.5223
591.30 0.5219
591.40 0.5216
591.50 0.5212
591.60 0.5209
591.70 0.5205
591.80 0.5202
591.90 0.5199
592.00 0.5195
592.10 0.5192
592.20 0.5188
592.30 0.5185
592.40 0.5182
592.50 0.5178
592.60 0.5175
592.70 0.5171
592.80 0.5168
592.90 0.5165
593.00 0.5161
593.10 0.5158
593.20 0.5154
593.30 0.5151
593.40 0.5148
593.50 0.5144
593.60 0.5141
593.70 0.5138
593.80 0.5134
593.90 0.5131
594.00 0.5128
594.10 0.5124
594.20 0.5121
594.30 0.5117
594.40 0.5114
594.50 0.5111
594.60 0.5107
594.70 0.5104
594.80 0.5101
594.90 0.5097
595.00 0.5094
595.10 0.5091
595.20 0.5087
595.30 0.5084
595.40 0.5081
595.50 0.5078
595.60 0.5074
595.70 0.5071
595.80 0.5068
595.90 0.5064
596.00 0.5061
596.10 0.5058
596.20 0.5054
596.30 0.5051
596.40 0.5048
596.50 0.5044
596.60 0.5041
596.70 0.5038
596.80 0.5035
596.90 0.5031
597.00 0.5028
597.10 0.5025
597.20 0.5022
597.30 0.5018
597.40 0.5015
597.50 0.5012
597.60 0.5008
597.70 0.5005
597.80 0.5002
597.90 0.4999
598.00 0.4995
598.10 0.4992
598.20 0.4989
598.30 0.4986
598.40 0.4982
598.50 0.4979
598.60 0.4976
598.70 0.4973
598.80 0.497
598.90 0.4966
599.00 0.4963
599.10 0.496
599.20 0.4957
599.30 0.4953
599.40 0.495
599.50 0.4947
599.60 0.4944
599.70 0.4941
599.80 0.4937
599.90 0.4934
600.00 0.4931
600.10 0.4928
600.20 0.4925
600.30 0.4921
600.40 0.4918
600.50 0.4915
600.60 0.4912
600.70 0.4909
600.80 0.4906
600.90 0.4902
601.00 0.4899
601.10 0.4896
601.20 0.4893
601.30 0.489
601.40 0.4886
601.50 0.4883
601.60 0.488
601.70 0.4877
601.80 0.4874
601.90 0.4871
602.00 0.4868
602.10 0.4864
602.20 0.4861
602.30 0.4858
602.40 0.4855
602.50 0.4852
602.60 0.4849
602.70 0.4846
602.80 0.4842
602.90 0.4839
603.00 0.4836
603.10 0.4833
603.20 0.483
603.30 0.4827
603.40 0.4824
603.50 0.4821
603.60 0.4818
603.70 0.4815
603.80 0.4811
603.90 0.4808
604.00 0.4805
604.10 0.4802
604.20 0.4799
604.30 0.4796
604.40 0.4793
604.50 0.479
604.60 0.4787
604.70 0.4784
604.80 0.4781
604.90 0.4777
605.00 0.4774
605.10 0.4771
605.20 0.4768
605.30 0.4765
605.40 0.4762
605.50 0.4759
605.60 0.4756
605.70 0.4753
605.80 0.475
605.90 0.4747
606.00 0.4744
606.10 0.4741
606.20 0.4738
606.30 0.4735
606.40 0.4732
606.50 0.4729
606.60 0.4726
606.70 0.4723
606.80 0.472
606.90 0.4716
607.00 0.4713
607.10 0.471
607.20 0.4707
607.30 0.4704
607.40 0.4701
607.50 0.4698
607.60 0.4695
607.70 0.4692
607.80 0.4689
607.90 0.4686
608.00 0.4683
608.10 0.468
608.20 0.4677
608.30 0.4674
608.40 0.4671
608.50 0.4668
608.60 0.4665
608.70 0.4662
608.80 0.4659
608.90 0.4656
609.00 0.4654
609.10 0.4651
609.20 0.4648
609.30 0.4645
609.40 0.4642
609.50 0.4639
609.60 0.4636
609.70 0.4633
609.80 0.463
609.90 0.4627
610.00 0.4624
610.10 0.4621
610.20 0.4618
610.30 0.4615
610.40 0.4612
610.50 0.4609
610.60 0.4606
610.70 0.4603
610.80 0.46
610.90 0.4597
611.00 0.4595
611.10 0.4592
611.20 0.4589
611.30 0.4586
611.40 0.4583
611.50 0.458
611.60 0.4577
611.70 0.4574
611.80 0.4571
611.90 0.4568
612.00 0.4565
612.10 0.4562
612.20 0.456
612.30 0.4557
612.40 0.4554
612.50 0.4551
612.60 0.4548
612.70 0.4545
612.80 0.4542
612.90 0.4539
613.00 0.4536
613.10 0.4534
613.20 0.4531
613.30 0.4528
613.40 0.4525
613.50 0.4522
613.60 0.4519
613.70 0.4516
613.80 0.4513
613.90 0.4511
614.00 0.4508
614.10 0.4505
614.20 0.4502
614.30 0.4499
614.40 0.4496
614.50 0.4494
614.60 0.4491
614.70 0.4488
614.80 0.4485
614.90 0.4482
615.00 0.4479
615.10 0.4476
615.20 0.4474
615.30 0.4471
615.40 0.4468
615.50 0.4465
615.60 0.4462
615.70 0.446
615.80 0.4457
615.90 0.4454
616.00 0.4451
616.10 0.4448
616.20 0.4445
616.30 0.4443
616.40 0.444
616.50 0.4437
616.60 0.4434
616.70 0.4431
616.80 0.4429
616.90 0.4426
617.00 0.4423
617.10 0.442
617.20 0.4417
617.30 0.4415
617.40 0.4412
617.50 0.4409
617.60 0.4406
617.70 0.4404
617.80 0.4401
617.90 0.4398
618.00 0.4395
618.10 0.4392
618.20 0.439
618.30 0.4387
618.40 0.4384
618.50 0.4381
618.60 0.4379
618.70 0.4376
618.80 0.4373
618.90 0.437
619.00 0.4368
619.10 0.4365
619.20 0.4362
619.30 0.4359
619.40 0.4357
619.50 0.4354
619.60 0.4351
619.70 0.4348
619.80 0.4346
619.90 0.4343
620.00 0.434
620.10 0.4338
620.20 0.4335
620.30 0.4332
620.40 0.4329
620.50 0.4327
620.60 0.4324
620.70 0.4321
620.80 0.4319
620.90 0.4316
621.00 0.4313
621.10 0.431
621.20 0.4308
621.30 0.4305
621.40 0.4302
621.50 0.43
621.60 0.4297
621.70 0.4294
621.80 0.4292
621.90 0.4289
622.00 0.4286
622.10 0.4283
622.20 0.4281
622.30 0.4278
622.40 0.4275
622.50 0.4273
622.60 0.427
622.70 0.4267
622.80 0.4265
622.90 0.4262
623.00 0.4259
623.10 0.4257
623.20 0.4254
623.30 0.4251
623.40 0.4249
623.50 0.4246
623.60 0.4244
623.70 0.4241
623.80 0.4238
623.90 0.4236
624.00 0.4233
624.10 0.423
624.20 0.4228
624.30 0.4225
624.40 0.4222
624.50 0.422
624.60 0.4217
624.70 0.4214
624.80 0.4212
624.90 0.4209
625.00 0.4207
625.10 0.4204
625.20 0.4201
625.30 0.4199
625.40 0.4196
625.50 0.4194
625.60 0.4191
625.70 0.4188
625.80 0.4186
625.90 0.4183
626.00 0.418
626.10 0.4178
626.20 0.4175
626.30 0.4173
626.40 0.417
626.50 0.4167
626.60 0.4165
626.70 0.4162
626.80 0.416
626.90 0.4157
627.00 0.4155
627.10 0.4152
627.20 0.4149
627.30 0.4147
627.40 0.4144
627.50 0.4142
627.60 0.4139
627.70 0.4137
627.80 0.4134
627.90 0.4131
628.00 0.4129
628.10 0.4126
628.20 0.4124
628.30 0.4121
628.40 0.4119
628.50 0.4116
628.60 0.4113
628.70 0.4111
628.80 0.4108
628.90 0.4106
629.00 0.4103
629.10 0.4101
629.20 0.4098
629.30 0.4096
629.40 0.4093
629.50 0.4091
629.60 0.4088
629.70 0.4085
629.80 0.4083
629.90 0.408
630.00 0.4078
630.10 0.4075
630.20 0.4073
630.30 0.407
630.40 0.4068
630.50 0.4065
630.60 0.4063
630.70 0.406
630.80 0.4058
630.90 0.4055
631.00 0.4053
631.10 0.405
631.20 0.4048
631.30 0.4045
631.40 0.4043
631.50 0.404
631.60 0.4038
631.70 0.4035
631.80 0.4033
631.90 0.403
632.00 0.4028
632.10 0.4025
632.20 0.4023
632.30 0.402
632.40 0.4018
632.50 0.4015
632.60 0.4013
632.70 0.401
632.80 0.4008
632.90 0.4005
633.00 0.4003
633.10 0.4
633.20 0.3998
633.30 0.3996
633.40 0.3993
633.50 0.3991
633.60 0.3988
633.70 0.3986
633.80 0.3983
633.90 0.3981
634.00 0.3978
634.10 0.3976
634.20 0.3973
634.30 0.3971
634.40 0.3969
634.50 0.3966
634.60 0.3964
634.70 0.3961
634.80 0.3959
634.90 0.3956
635.00 0.3954
635.10 0.3951
635.20 0.3949
635.30 0.3947
635.40 0.3944
635.50 0.3942
635.60 0.3939
635.70 0.3937
635.80 0.3934
635.90 0.3932
636.00 0.393
636.10 0.3927
636.20 0.3925
636.30 0.3922
636.40 0.392
636.50 0.3917
636.60 0.3915
636.70 0.3913
636.80 0.391
636.90 0.3908
637.00 0.3905
637.10 0.3903
637.20 0.3901
637.30 0.3898
637.40 0.3896
637.50 0.3893
637.60 0.3891
637.70 0.3889
637.80 0.3886
637.90 0.3884
638.00 0.3881
638.10 0.3879
638.20 0.3877
638.30 0.3874
638.40 0.3872
638.50 0.387
638.60 0.3867
638.70 0.3865
638.80 0.3862
638.90 0.386
639.00 0.3858
639.10 0.3855
639.20 0.3853
639.30 0.3851
639.40 0.3848
639.50 0.3846
639.60 0.3843
639.70 0.3841
639.80 0.3839
639.90 0.3836
640.00 0.3834
640.10 0.3832
640.20 0.3829
640.30 0.3827
640.40 0.3825
640.50 0.3822
640.60 0.382
640.70 0.3817
640.80 0.3815
640.90 0.3813
641.00 0.381
641.10 0.3808
641.20 0.3806
641.30 0.3803
641.40 0.3801
641.50 0.3799
641.60 0.3796
641.70 0.3794
641.80 0.3792
641.90 0.3789
642.00 0.3787
642.10 0.3785
642.20 0.3782
642.30 0.378
642.40 0.3778
642.50 0.3775
642.60 0.3773
642.70 0.377
642.80 0.3768
642.90 0.3766
643.00 0.3763
643.10 0.3761
643.20 0.3759
643.30 0.3756
643.40 0.3754
643.50 0.3752
643.60 0.3749
643.70 0.3747
643.80 0.3745
643.90 0.3742
644.00 0.374
644.10 0.3738
644.20 0.3735
644.30 0.3733
644.40 0.3731
644.50 0.3728
644.60 0.3726
644.70 0.3724
644.80 0.3721
644.90 0.3719
645.00 0.3717
645.10 0.3714
645.20 0.3712
645.30 0.371
645.40 0.3707
645.50 0.3705
645.60 0.3703
645.70 0.37
645.80 0.3698
645.90 0.3696
646.00 0.3693
646.10 0.3691
646.20 0.3689
646.30 0.3686
646.40 0.3684
646.50 0.3681
646.60 0.3679
646.70 0.3677
646.80 0.3674
646.90 0.3672
647.00 0.3669
647.10 0.3667
647.20 0.3665
647.30 0.3662
647.40 0.366
647.50 0.3657
647.60 0.3655
647.70 0.3653
647.80 0.365
647.90 0.3648
648.00 0.3645
648.10 0.3643
648.20 0.364
648.30 0.3638
648.40 0.3636
648.50 0.3633
648.60 0.363
648.70 0.3628
648.80 0.3625
648.90 0.3623
649.00 0.362
649.10 0.3618
649.20 0.3615
649.30 0.3613
649.40 0.361
649.50 0.3608
649.60 0.3605
649.70 0.3602
649.80 0.36
649.90 0.3597
650.00 0.3594
650.10 0.3592
650.20 0.3589
650.30 0.3586
650.40 0.3583
650.50 0.358
650.60 0.3577
650.70 0.3574
650.80 0.3572
650.90 0.3569
651.00 0.3566
651.10 0.3563
651.20 0.356
651.30 0.3557
651.40 0.3553
651.50 0.355
651.60 0.3547
651.70 0.3543
651.80 0.354
651.90 0.3536
652.00 0.3533
652.10 0.353
652.20 0.3526
652.30 0.3523
652.40 0.3518
652.50 0.3514
652.60 0.351
652.70 0.3506
652.80 0.3501
652.90 0.3497
653.00 0.3493
653.10 0.3489
653.20 0.3484
653.30 0.348
653.40 0.3474
653.50 0.3468
653.60 0.3463
653.70 0.3457
653.80 0.3451
653.90 0.3446
654.00 0.344
654.10 0.3434
654.20 0.3428
654.30 0.3422
654.40 0.3415
654.50 0.3408
654.60 0.3401
654.70 0.3393
654.80 0.3386
654.90 0.3377
655.00 0.3369
655.10 0.336
655.20 0.3352
655.30 0.3343
655.40 0.3334
655.50 0.3324
655.60 0.3314
655.70 0.3304
655.80 0.3293
655.90 0.3283
656.00 0.3278
656.10 0.3278
656.20 0.337
656.30 0.3466
656.40 0.3313
656.50 0.3268
656.60 0.3268
656.70 0.327
656.80 0.3277
656.90 0.3284
657.00 0.329
657.10 0.3296
657.20 0.3302
657.30 0.3307
657.40 0.3312
657.50 0.3316
657.60 0.3321
657.70 0.3325
657.80 0.3329
657.90 0.3333
658.00 0.3336
658.10 0.3339
658.20 0.3342
658.30 0.3345
658.40 0.3347
658.50 0.3348
658.60 0.335
658.70 0.3352
658.80 0.3353
658.90 0.3355
659.00 0.3356
659.10 0.3358
659.20 0.336
659.30 0.3361
659.40 0.3361
659.50 0.3361
659.60 0.3361
659.70 0.3361
659.80 0.3361
659.90 0.3361
660.00 0.3362
660.10 0.3362
660.20 0.3362
660.30 0.3362
660.40 0.3361
660.50 0.336
660.60 0.3359
660.70 0.3359
660.80 0.3358
660.90 0.3357
661.00 0.3356
661.10 0.3355
661.20 0.3355
661.30 0.3354
661.40 0.3353
661.50 0.3351
661.60 0.335
661.70 0.3349
661.80 0.3348
661.90 0.3346
662.00 0.3345
662.10 0.3344
662.20 0.3343
662.30 0.3341
662.40 0.334
662.50 0.3338
662.60 0.3337
662.70 0.3335
662.80 0.3334
662.90 0.3332
663.00 0.3331
663.10 0.3329
663.20 0.3328
663.30 0.3326
663.40 0.3325
663.50 0.3323
663.60 0.3321
663.70 0.332
663.80 0.3318
663.90 0.3316
664.00 0.3315
664.10 0.3313
664.20 0.3311
664.30 0.331
664.40 0.3308
664.50 0.3306
664.60 0.3304
664.70 0.3303
664.80 0.3301
664.90 0.3299
665.00 0.3298
665.10 0.3296
665.20 0.3294
665.30 0.3292
665.40 0.3291
665.50 0.3289
665.60 0.3287
665.70 0.3285
665.80 0.3283
665.90 0.3282
666.00 0.328
666.10 0.3278
666.20 0.3276
666.30 0.3274
666.40 0.3273
666.50 0.3271
666.60 0.3269
666.70 0.3267
666.80 0.3265
666.90 0.3264
667.00 0.3262
667.10 0.326
667.20 0.3258
667.30 0.3256
667.40 0.3255
667.50 0.3253
667.60 0.3251
667.70 0.3249
667.80 0.3247
667.90 0.3246
668.00 0.3244
668.10 0.3242
668.20 0.324
668.30 0.3238
668.40 0.3236
668.50 0.3235
668.60 0.3233
668.70 0.3231
668.80 0.3229
668.90 0.3227
669.00 0.3225
669.10 0.3224
669.20 0.3222
669.30 0.322
669.40 0.3218
669.50 0.3216
669.60 0.3215
669.70 0.3213
669.80 0.3211
669.90 0.3209
670.00 0.3207
670.10 0.3205
670.20 0.3204
670.30 0.3202
670.40 0.32
670.50 0.3198
670.60 0.3196
670.70 0.3194
670.80 0.3193
670.90 0.3191
671.00 0.3189
671.10 0.3187
671.20 0.3185
671.30 0.3184
671.40 0.3182
671.50 0.318
671.60 0.3178
671.70 0.3176
671.80 0.3175
671.90 0.3173
672.00 0.3171
672.10 0.3169
672.20 0.3167
672.30 0.3165
672.40 0.3164
672.50 0.3162
672.60 0.316
672.70 0.3158
672.80 0.3156
672.90 0.3155
673.00 0.3153
673.10 0.3151
673.20 0.3149
673.30 0.3147
673.40 0.3146
673.50 0.3144
673.60 0.3142
673.70 0.314
673.80 0.3138
673.90 0.3137
674.00 0.3135
674.10 0.3133
674.20 0.3131
674.30 0.3129
674.40 0.3128
674.50 0.3126
674.60 0.3124
674.70 0.3122
674.80 0.312
674.90 0.3119
675.00 0.3117
675.10 0.3115
675.20 0.3113
675.30 0.3112
675.40 0.311
675.50 0.3108
675.60 0.3106
675.70 0.3104
675.80 0.3103
675.90 0.3101
676.00 0.3099
676.10 0.3097
676.20 0.3096
676.30 0.3094
676.40 0.3092
676.50 0.309
676.60 0.3088
676.70 0.3087
676.80 0.3085
676.90 0.3083
677.00 0.3081
677.10 0.308
677.20 0.3078
677.30 0.3076
677.40 0.3074
677.50 0.3073
677.60 0.3071
677.70 0.3069
677.80 0.3067
677.90 0.3066
678.00 0.3064
678.10 0.3062
678.20 0.306
678.30 0.3059
678.40 0.3057
678.50 0.3055
678.60 0.3053
678.70 0.3052
678.80 0.305
678.90 0.3048
679.00 0.3046
679.10 0.3045
679.20 0.3043
679.30 0.3041
679.40 0.3039
679.50 0.3038
679.60 0.3036
679.70 0.3034
679.80 0.3033
679.90 0.3031
680.00 0.3029
680.10 0.3027
680.20 0.3026
680.30 0.3024
680.40 0.3022
680.50 0.302
680.60 0.3019
680.70 0.3017
680.80 0.3015
680.90 0.3014
681.00 0.3012
681.10 0.301
681.20 0.3008
681.30 0.3007
681.40 0.3005
681.50 0.3003
681.60 0.3002
681.70 0.3
681.80 0.2998
681.90 0.2996
682.00 0.2995
682.10 0.2993
682.20 0.2991
682.30 0.299
682.40 0.2988
682.50 0.2986
682.60 0.2984
682.70 0.2983
682.80 0.2981
682.90 0.2979
683.00 0.2978
683.10 0.2976
683.20 0.2974
683.30 0.2973
683.40 0.2971
683.50 0.2969
683.60 0.2968
683.70 0.2966
683.80 0.2964
683.90 0.2962
684.00 0.2961
684.10 0.2959
684.20 0.2957
684.30 0.2956
684.40 0.2954
684.50 0.2952
684.60 0.2951
684.70 0.2949
684.80 0.2947
684.90 0.2946
685.00 0.2944
685.10 0.2942
685.20 0.2941
685.30 0.2939
685.40 0.2937
685.50 0.2936
685.60 0.2934
685.70 0.2932
685.80 0.2931
685.90 0.2929
686.00 0.2927
686.10 0.2926
686.20 0.2924
686.30 0.2922
686.40 0.2921
686.50 0.2919
686.60 0.2917
686.70 0.2916
686.80 0.2914
686.90 0.2912
687.00 0.2911
687.10 0.2909
687.20 0.2908
687.30 0.2906
687.40 0.2904
687.50 0.2903
687.60 0.2901
687.70 0.2899
687.80 0.2898
687.90 0.2896
688.00 0.2894
688.10 0.2893
688.20 0.2891
688.30 0.2889
688.40 0.2888
688.50 0.2886
688.60 0.2885
688.70 0.2883
688.80 0.2881
688.90 0.288
689.00 0.2878
689.10 0.2876
689.20 0.2875
689.30 0.2873
689.40 0.2872
689.50 0.287
689.60 0.2868
689.70 0.2867
689.80 0.2865
689.90 0.2864
690.00 0.2862
690.10 0.286
690.20 0.2859
690.30 0.2857
690.40 0.2856
690.50 0.2854
690.60 0.2852
690.70 0.2851
690.80 0.2849
690.90 0.2848
691.00 0.2846
691.10 0.2844
691.20 0.2843
691.30 0.2841
691.40 0.284
691.50 0.2838
691.60 0.2836
691.70 0.2835
691.80 0.2833
691.90 0.2832
692.00 0.283
692.10 0.2828
692.20 0.2827
692.30 0.2825
692.40 0.2824
692.50 0.2822
692.60 0.282
692.70 0.2819
692.80 0.2817
692.90 0.2816
693.00 0.2814
693.10 0.2812
693.20 0.2811
693.30 0.2809
693.40 0.2808
693.50 0.2806
693.60 0.2805
693.70 0.2803
693.80 0.2801
693.90 0.28
694.00 0.2798
694.10 0.2797
694.20 0.2795
694.30 0.2794
694.40 0.2792
694.50 0.279
694.60 0.2789
694.70 0.2787
694.80 0.2786
694.90 0.2784
695.00 0.2783
695.10 0.2781
695.20 0.2779
695.30 0.2778
695.40 0.2776
695.50 0.2775
695.60 0.2773
695.70 0.2772
695.80 0.277
695.90 0.2769
696.00 0.2767
696.10 0.2766
696.20 0.2764
696.30 0.2762
696.40 0.2761
696.50 0.2759
696.60 0.2758
696.70 0.2756
696.80 0.2755
696.90 0.2753
697.00 0.2752
697.10 0.275
697.20 0.2749
697.30 0.2747
697.40 0.2746
697.50 0.2744
697.60 0.2742
697.70 0.2741
697.80 0.2739
697.90 0.2738
698.00 0.2736
698.10 0.2735
698.20 0.2733
698.30 0.2732
698.40 0.273
698.50 0.2729
698.60 0.2727
698.70 0.2726
698.80 0.2724
698.90 0.2723
699.00 0.2721
699.10 0.272
699.20 0.2718
699.30 0.2717
699.40 0.2715
699.50 0.2714
699.60 0.2712
699.70 0.271
699.80 0.2709
699.90 0.2707
700.00 0.2706
700.10 0.2704
700.20 0.2703
700.30 0.2701
700.40 0.27
700.50 0.2698
700.60 0.2697
700.70 0.2695
700.80 0.2694
700.90 0.2692
701.00 0.2691
701.10 0.269
701.20 0.2688
701.30 0.2687
701.40 0.2685
701.50 0.2684
701.60 0.2682
701.70 0.2681
701.80 0.2679
701.90 0.2678
702.00 0.2676
702.10 0.2675
702.20 0.2673
702.30 0.2672
702.40 0.267
702.50 0.2669
702.60 0.2667
702.70 0.2666
702.80 0.2664
702.90 0.2663
703.00 0.2661
703.10 0.266
703.20 0.2658
703.30 0.2657
703.40 0.2655
703.50 0.2654
703.60 0.2652
703.70 0.2651
703.80 0.265
703.90 0.2648
704.00 0.2647
704.10 0.2645
704.20 0.2644
704.30 0.2642
704.40 0.2641
704.50 0.2639
704.60 0.2638
704.70 0.2636
704.80 0.2635
704.90 0.2633
705.00 0.2632
705.10 0.263
705.20 0.2629
705.30 0.2628
705.40 0.2626
705.50 0.2625
705.60 0.2623
705.70 0.2622
705.80 0.262
705.90 0.2619
706.00 0.2618
706.10 0.2616
706.20 0.2615
706.30 0.2613
706.40 0.2612
706.50 0.261
706.60 0.2609
706.70 0.2607
706.80 0.2606
706.90 0.2605
707.00 0.2603
707.10 0.2602
707.20 0.26
707.30 0.2599
707.40 0.2597
707.50 0.2596
707.60 0.2595
707.70 0.2593
707.80 0.2592
707.90 0.259
708.00 0.2589
708.10 0.2587
708.20 0.2586
708.30 0.2585
708.40 0.2583
708.50 0.2582
708.60 0.258
708.70 0.2579
708.80 0.2577
708.90 0.2576
709.00 0.2575
709.10 0.2573
709.20 0.2572
709.30 0.257
709.40 0.2569
709.50 0.2568
709.60 0.2566
709.70 0.2565
709.80 0.2563
709.90 0.2562
710.00 0.256
710.10 0.2559
710.20 0.2558
710.30 0.2556
710.40 0.2555
710.50 0.2553
710.60 0.2552
710.70 0.2551
710.80 0.2549
710.90 0.2548
711.00 0.2547
711.10 0.2545
711.20 0.2544
711.30 0.2542
711.40 0.2541
711.50 0.254
711.60 0.2538
711.70 0.2537
711.80 0.2535
711.90 0.2534
712.00 0.2533
712.10 0.2531
712.20 0.253
712.30 0.2528
712.40 0.2527
712.50 0.2526
712.60 0.2524
712.70 0.2523
712.80 0.2522
712.90 0.252
713.00 0.2519
713.10 0.2517
713.20 0.2516
713.30 0.2515
713.40 0.2513
713.50 0.2512
713.60 0.2511
713.70 0.2509
713.80 0.2508
713.90 0.2506
714.00 0.2505
714.10 0.2504
714.20 0.2502
714.30 0.2501
714.40 0.25
714.50 0.2498
714.60 0.2497
714.70 0.2495
714.80 0.2494
714.90 0.2493
715.00 0.2491
715.10 0.249
715.20 0.2489
715.30 0.2487
715.40 0.2486
715.50 0.2485
715.60 0.2483
715.70 0.2482
715.80 0.2481
715.90 0.2479
716.00 0.2478
716.10 0.2477
716.20 0.2475
716.30 0.2474
716.40 0.2473
716.50 0.2471
716.60 0.247
716.70 0.2468
716.80 0.2467
716.90 0.2466
717.00 0.2464
717.10 0.2463
717.20 0.2462
717.30 0.246
717.40 0.2459
717.50 0.2458
717.60 0.2456
717.70 0.2455
717.80 0.2454
717.90 0.2452
718.00 0.2451
718.10 0.245
718.20 0.2448
718.30 0.2447
718.40 0.2446
718.50 0.2444
718.60 0.2443
718.70 0.2442
718.80 0.244
718.90 0.2439
719.00 0.2438
719.10 0.2437
719.20 0.2435
719.30 0.2434
719.40 0.2433
719.50 0.2431
719.60 0.243
719.70 0.2429
719.80 0.2427
719.90 0.2426
720.00 0.2425
720.10 0.2423
720.20 0.2422
720.30 0.2421
720.40 0.2419
720.50 0.2418
720.60 0.2417
720.70 0.2415
720.80 0.2414
720.90 0.2413
721.00 0.2412
721.10 0.241
721.20 0.2409
721.30 0.2408
721.40 0.2406
721.50 0.2405
721.60 0.2404
721.70 0.2402
721.80 0.2401
721.90 0.24
722.00 0.2399
722.10 0.2397
722.20 0.2396
722.30 0.2395
722.40 0.2393
722.50 0.2392
722.60 0.2391
722.70 0.239
722.80 0.2388
722.90 0.2387
723.00 0.2386
723.10 0.2384
723.20 0.2383
723.30 0.2382
723.40 0.2381
723.50 0.2379
723.60 0.2378
723.70 0.2377
723.80 0.2375
723.90 0.2374
724.00 0.2373
724.10 0.2372
724.20 0.237
724.30 0.2369
724.40 0.2368
724.50 0.2366
724.60 0.2365
724.70 0.2364
724.80 0.2363
724.90 0.2361
725.00 0.236
725.10 0.2359
725.20 0.2358
725.30 0.2356
725.40 0.2355
725.50 0.2354
725.60 0.2353
725.70 0.2351
725.80 0.235
725.90 0.2349
726.00 0.2347
726.10 0.2346
726.20 0.2345
726.30 0.2344
726.40 0.2342
726.50 0.2341
726.60 0.234
726.70 0.2339
726.80 0.2337
726.90 0.2336
727.00 0.2335
727.10 0.2334
727.20 0.2332
727.30 0.2331
727.40 0.233
727.50 0.2329
727.60 0.2327
727.70 0.2326
727.80 0.2325
727.90 0.2324
728.00 0.2322
728.10 0.2321
728.20 0.232
728.30 0.2319
728.40 0.2317
728.50 0.2316
728.60 0.2315
728.70 0.2314
728.80 0.2313
728.90 0.2311
729.00 0.231
729.10 0.2309
729.20 0.2308
729.30 0.2306
729.40 0.2305
729.50 0.2304
729.60 0.2303
729.70 0.2301
729.80 0.23
729.90 0.2299
730.00 0.2298
730.10 0.2296
730.20 0.2295
730.30 0.2294
730.40 0.2293
730.50 0.2292
730.60 0.229
730.70 0.2289
730.80 0.2288
730.90 0.2287
731.00 0.2286
731.10 0.2284
731.20 0.2283
731.30 0.2282
731.40 0.2281
731.50 0.228
731.60 0.2278
731.70 0.2277
731.80 0.2276
731.90 0.2275
732.00 0.2273
732.10 0.2272
732.20 0.2271
732.30 0.227
732.40 0.2269
732.50 0.2267
732.60 0.2266
732.70 0.2265
732.80 0.2264
732.90 0.2263
733.00 0.2261
733.10 0.226
733.20 0.2259
733.30 0.2258
733.40 0.2257
733.50 0.2255
733.60 0.2254
733.70 0.2253
733.80 0.2252
733.90 0.2251
734.00 0.225
734.10 0.2248
734.20 0.2247
734.30 0.2246
734.40 0.2245
734.50 0.2244
734.60 0.2242
734.70 0.2241
734.80 0.224
734.90 0.2239
735.00 0.2238
735.10 0.2236
735.20 0.2235
735.30 0.2234
735.40 0.2233
735.50 0.2232
735.60 0.223
735.70 0.2229
735.80 0.2228
735.90 0.2227
736.00 0.2226
736.10 0.2225
736.20 0.2223
736.30 0.2222
736.40 0.2221
736.50 0.222
736.60 0.2219
736.70 0.2218
736.80 0.2216
736.90 0.2215
737.00 0.2214
737.10 0.2213
737.20 0.2212
737.30 0.221
737.40 0.2209
737.50 0.2208
737.60 0.2207
737.70 0.2206
737.80 0.2205
737.90 0.2203
738.00 0.2202
738.10 0.2201
738.20 0.22
738.30 0.2199
738.40 0.2198
738.50 0.2196
738.60 0.2195
738.70 0.2194
738.80 0.2193
738.90 0.2192
739.00 0.2191
739.10 0.2189
739.20 0.2188
739.30 0.2187
739.40 0.2186
739.50 0.2185
739.60 0.2184
739.70 0.2182
739.80 0.2181
739.90 0.218
740.00 0.2179
740.10 0.2178
740.20 0.2177
740.30 0.2176
740.40 0.2174
740.50 0.2173
740.60 0.2172
740.70 0.2171
740.80 0.217
740.90 0.2169
741.00 0.2168
741.10 0.2166
741.20 0.2165
741.30 0.2164
741.40 0.2163
741.50 0.2162
741.60 0.2161
741.70 0.216
741.80 0.2159
741.90 0.2157
742.00 0.2156
742.10 0.2155
742.20 0.2154
742.30 0.2153
742.40 0.2152
742.50 0.2151
742.60 0.215
742.70 0.2148
742.80 0.2147
742.90 0.2146
743.00 0.2145
743.10 0.2144
743.20 0.2143
743.30 0.2142
743.40 0.2141
743.50 0.2139
743.60 0.2138
743.70 0.2137
743.80 0.2136
743.90 0.2135
744.00 0.2134
744.10 0.2133
744.20 0.2132
744.30 0.2131
744.40 0.2129
744.50 0.2128
744.60 0.2127
744.70 0.2126
744.80 0.2125
744.90 0.2124
745.00 0.2123
745.10 0.2122
745.20 0.2121
745.30 0.2119
745.40 0.2118
745.50 0.2117
745.60 0.2116
745.70 0.2115
745.80 0.2114
745.90 0.2113
746.00 0.2112
746.10 0.2111
746.20 0.2109
746.30 0.2108
746.40 0.2107
746.50 0.2106
746.60 0.2105
746.70 0.2104
746.80 0.2103
746.90 0.2102
747.00 0.2101
747.10 0.21
747.20 0.2098
747.30 0.2097
747.40 0.2096
747.50 0.2095
747.60 0.2094
747.70 0.2093
747.80 0.2092
747.90 0.2091
748.00 0.209
748.10 0.2089
748.20 0.2087
748.30 0.2086
748.40 0.2085
748.50 0.2084
748.60 0.2083
748.70 0.2082
748.80 0.2081
748.90 0.208
749.00 0.2079
749.10 0.2078
749.20 0.2077
749.30 0.2075
749.40 0.2074
749.50 0.2073
749.60 0.2072
749.70 0.2071
749.80 0.207
749.90 0.2069
750.00 0.2068
750.10 0.2067
750.20 0.2066
750.30 0.2065
750.40 0.2064
750.50 0.2062
750.60 0.2061
750.70 0.206
750.80 0.2059
750.90 0.2058
751.00 0.2057
751.10 0.2056
751.20 0.2055
751.30 0.2054
751.40 0.2053
751.50 0.2052
751.60 0.2051
751.70 0.205
751.80 0.2049
751.90 0.2048
752.00 0.2047
752.10 0.2046
752.20 0.2044
752.30 0.2043
752.40 0.2042
752.50 0.2041
752.60 0.204
752.70 0.2039
752.80 0.2038
752.90 0.2037
753.00 0.2036
753.10 0.2035
753.20 0.2034
753.30 0.2033
753.40 0.2032
753.50 0.2031
753.60 0.203
753.70 0.2029
753.80 0.2028
753.90 0.2027
754.00 0.2026
754.10 0.2025
754.20 0.2023
754.30 0.2022
754.40 0.2021
754.50 0.202
754.60 0.2019
754.70 0.2018
754.80 0.2017
754.90 0.2016
755.00 0.2015
755.10 0.2014
755.20 0.2013
755.30 0.2012
755.40 0.2011
755.50 0.201
755.60 0.2009
755.70 0.2008
755.80 0.2007
755.90 0.2006
756.00 0.2005
756.10 0.2004
756.20 0.2003
756.30 0.2002
756.40 0.2001
756.50 0.2
756.60 0.1999
756.70 0.1998
756.80 0.1996
756.90 0.1995
757.00 0.1994
757.10 0.1993
757.20 0.1992
757.30 0.1991
757.40 0.199
757.50 0.1989
757.60 0.1988
757.70 0.1987
757.80 0.1986
757.90 0.1985
758.00 0.1984
758.10 0.1983
758.20 0.1982
758.30 0.1981
758.40 0.198
758.50 0.1979
758.60 0.1978
758.70 0.1977
758.80 0.1976
758.90 0.1975
759.00 0.1974
759.10 0.1973
759.20 0.1972
759.30 0.1971
759.40 0.197
759.50 0.1969
759.60 0.1968
759.70 0.1967
759.80 0.1966
759.90 0.1965
760.00 0.1964
760.10 0.1963
760.20 0.1962
760.30 0.1961
760.40 0.196
760.50 0.1959
760.60 0.1958
760.70 0.1957
760.80 0.1956
760.90 0.1955
761.00 0.1954
761.10 0.1953
761.20 0.1952
761.30 0.1951
761.40 0.195
761.50 0.1949
761.60 0.1948
761.70 0.1947
761.80 0.1946
761.90 0.1945
762.00 0.1944
762.10 0.1943
762.20 0.1942
762.30 0.1941
762.40 0.194
762.50 0.1939
762.60 0.1938
762.70 0.1937
762.80 0.1936
762.90 0.1935
763.00 0.1934
763.10 0.1933
763.20 0.1932
763.30 0.1931
763.40 0.193
763.50 0.1929
763.60 0.1928
763.70 0.1927
763.80 0.1926
763.90 0.1925
764.00 0.1924
764.10 0.1923
764.20 0.1922
764.30 0.1921
764.40 0.192
764.50 0.1919
764.60 0.1918
764.70 0.1917
764.80 0.1916
764.90 0.1915
765.00 0.1914
765.10 0.1913
765.20 0.1912
765.30 0.1911
765.40 0.191
765.50 0.1909
765.60 0.1908
765.70 0.1907
765.80 0.1907
765.90 0.1906
766.00 0.1905
766.10 0.1904
766.20 0.1903
766.30 0.1902
766.40 0.1901
766.50 0.19
766.60 0.1899
766.70 0.1898
766.80 0.1897
766.90 0.1896
767.00 0.1895
767.10 0.1894
767.20 0.1893
767.30 0.1892
767.40 0.1891
767.50 0.189
767.60 0.1889
767.70 0.1888
767.80 0.1887
767.90 0.1886
768.00 0.1885
768.10 0.1884
768.20 0.1883
768.30 0.1882
768.40 0.1881
768.50 0.188
768.60 0.1879
768.70 0.1878
768.80 0.1878
768.90 0.1877
769.00 0.1876
769.10 0.1875
769.20 0.1874
769.30 0.1873
769.40 0.1872
769.50 0.1871
769.60 0.187
769.70 0.1869
769.80 0.1868
769.90 0.1867
770.00 0.1866
770.10 0.1865
770.20 0.1864
770.30 0.1863
770.40 0.1862
770.50 0.1861
770.60 0.186
770.70 0.186
770.80 0.1859
770.90 0.1858
771.00 0.1857
771.10 0.1856
771.20 0.1855
771.30 0.1854
771.40 0.1853
771.50 0.1852
771.60 0.1851
771.70 0.185
771.80 0.1849
771.90 0.1848
772.00 0.1847
772.10 0.1846
772.20 0.1846
772.30 0.1845
772.40 0.1844
772.50 0.1843
772.60 0.1842
772.70 0.1841
772.80 0.184
772.90 0.1839
773.00 0.1838
773.10 0.1837
773.20 0.1836
773.30 0.1835
773.40 0.1834
773.50 0.1834
773.60 0.1833
773.70 0.1832
773.80 0.1831
773.90 0.183
774.00 0.1829
774.10 0.1828
774.20 0.1827
774.30 0.1826
774.40 0.1825
774.50 0.1824
774.60 0.1823
774.70 0.1822
774.80 0.1822
774.90 0.1821
775.00 0.182
775.10 0.1819
775.20 0.1818
775.30 0.1817
775.40 0.1816
775.50 0.1815
775.60 0.1814
775.70 0.1813
775.80 0.1812
775.90 0.1811
776.00 0.1811
776.10 0.181
776.20 0.1809
776.30 0.1808
776.40 0.1807
776.50 0.1806
776.60 0.1805
776.70 0.1804
776.80 0.1803
776.90 0.1802
777.00 0.1801
777.10 0.1801
777.20 0.18
777.30 0.1799
777.40 0.1798
777.50 0.1797
777.60 0.1796
777.70 0.1795
777.80 0.1794
777.90 0.1793
778.00 0.1792
778.10 0.1792
778.20 0.1791
778.30 0.179
778.40 0.1789
778.50 0.1788
778.60 0.1787
778.70 0.1786
778.80 0.1785
778.90 0.1784
779.00 0.1783
779.10 0.1783
779.20 0.1782
779.30 0.1781
779.40 0.178
779.50 0.1779
779.60 0.1778
779.70 0.1777
779.80 0.1776
779.90 0.1775
780.00 0.1774
780.10 0.1774
780.20 0.1773
780.30 0.1772
780.40 0.1771
780.50 0.177
780.60 0.1769
780.70 0.1768
780.80 0.1767
780.90 0.1767
781.00 0.1766
781.10 0.1765
781.20 0.1764
781.30 0.1763
781.40 0.1762
781.50 0.1761
781.60 0.176
781.70 0.176
781.80 0.1759
781.90 0.1758
782.00 0.1757
782.10 0.1756
782.20 0.1755
782.30 0.1754
782.40 0.1753
782.50 0.1753
782.60 0.1752
782.70 0.1751
782.80 0.175
782.90 0.1749
783.00 0.1748
783.10 0.1747
783.20 0.1746
783.30 0.1746
783.40 0.1745
783.50 0.1744
783.60 0.1743
783.70 0.1742
783.80 0.1741
783.90 0.174
784.00 0.174
784.10 0.1739
784.20 0.1738
784.30 0.1737
784.40 0.1736
784.50 0.1735
784.60 0.1734
784.70 0.1734
784.80 0.1733
784.90 0.1732
785.00 0.1731
785.10 0.173
785.20 0.1729
785.30 0.1728
785.40 0.1727
785.50 0.1727
785.60 0.1726
785.70 0.1725
785.80 0.1724
785.90 0.1723
786.00 0.1722
786.10 0.1721
786.20 0.1721
786.30 0.172
786.40 0.1719
786.50 0.1718
786.60 0.1717
786.70 0.1716
786.80 0.1715
786.90 0.1715
787.00 0.1714
787.10 0.1713
787.20 0.1712
787.30 0.1711
787.40 0.171
787.50 0.171
787.60 0.1709
787.70 0.1708
787.80 0.1707
787.90 0.1706
788.00 0.1705
788.10 0.1704
788.20 0.1704
788.30 0.1703
788.40 0.1702
788.50 0.1701
788.60 0.17
788.70 0.1699
788.80 0.1698
788.90 0.1698
789.00 0.1697
789.10 0.1696
789.20 0.1695
789.30 0.1694
789.40 0.1693
789.50 0.1693
789.60 0.1692
789.70 0.1691
789.80 0.169
789.90 0.1689
790.00 0.1688
790.10 0.1688
790.20 0.1687
790.30 0.1686
790.40 0.1685
790.50 0.1684
790.60 0.1683
790.70 0.1683
790.80 0.1682
790.90 0.1681
791.00 0.168
791.10 0.1679
791.20 0.1678
791.30 0.1678
791.40 0.1677
791.50 0.1676
791.60 0.1675
791.70 0.1674
791.80 0.1674
791.90 0.1673
792.00 0.1672
792.10 0.1671
792.20 0.167
792.30 0.1669
792.40 0.1669
792.50 0.1668
792.60 0.1667
792.70 0.1666
792.80 0.1665
792.90 0.1665
793.00 0.1664
793.10 0.1663
793.20 0.1662
793.30 0.1661
793.40 0.166
793.50 0.166
793.60 0.1659
793.70 0.1658
793.80 0.1657
793.90 0.1656
794.00 0.1656
794.10 0.1655
794.20 0.1654
794.30 0.1653
794.40 0.1652
794.50 0.1652
794.60 0.1651
794.70 0.165
794.80 0.1649
794.90 0.1648
795.00 0.1647
795.10 0.1647
795.20 0.1646
795.30 0.1645
795.40 0.1644
795.50 0.1643
795.60 0.1643
795.70 0.1642
795.80 0.1641
795.90 0.164
796.00 0.1639
796.10 0.1639
796.20 0.1638
796.30 0.1637
796.40 0.1636
796.50 0.1635
796.60 0.1635
796.70 0.1634
796.80 0.1633
796.90 0.1632
797.00 0.1631
797.10 0.1631
797.20 0.163
797.30 0.1629
797.40 0.1628
797.50 0.1627
797.60 0.1627
797.70 0.1626
797.80 0.1625
797.90 0.1624
798.00 0.1623
798.10 0.1623
798.20 0.1622
798.30 0.1621
798.40 0.162
798.50 0.1619
798.60 0.1619
798.70 0.1618
798.80 0.1617
798.90 0.1616
799.00 0.1615
799.10 0.1615
799.20 0.1614
799.30 0.1613
799.40 0.1612
799.50 0.1611
799.60 0.1611
799.70 0.161
799.80 0.1609
799.90 0.1608
800.00 0.1607
800.10 0.1607
800.20 0.1606
800.30 0.1605
800.40 0.1604
800.50 0.1604
800.60 0.1603
800.70 0.1602
800.80 0.1601
800.90 0.16
801.00 0.16
801.10 0.1599
801.20 0.1598
801.30 0.1597
801.40 0.1597
801.50 0.1596
801.60 0.1595
801.70 0.1594
801.80 0.1594
801.90 0.1593
802.00 0.1592
802.10 0.1591
802.20 0.159
802.30 0.159
802.40 0.1589
802.50 0.1588
802.60 0.1587
802.70 0.1587
802.80 0.1586
802.90 0.1585
803.00 0.1584
803.10 0.1584
803.20 0.1583
803.30 0.1582
803.40 0.1581
803.50 0.158
803.60 0.158
803.70 0.1579
803.80 0.1578
803.90 0.1577
804.00 0.1577
804.10 0.1576
804.20 0.1575
804.30 0.1574
804.40 0.1574
804.50 0.1573
804.60 0.1572
804.70 0.1571
804.80 0.1571
804.90 0.157
805.00 0.1569
805.10 0.1568
805.20 0.1567
805.30 0.1567
805.40 0.1566
805.50 0.1565
805.60 0.1564
805.70 0.1564
805.80 0.1563
805.90 0.1562
806.00 0.1561
806.10 0.1561
806.20 0.156
806.30 0.1559
806.40 0.1558
806.50 0.1558
806.60 0.1557
806.70 0.1556
806.80 0.1555
806.90 0.1555
807.00 0.1554
807.10 0.1553
807.20 0.1552
807.30 0.1552
807.40 0.1551
807.50 0.155
807.60 0.1549
807.70 0.1549
807.80 0.1548
807.90 0.1547
808.00 0.1546
808.10 0.1546
808.20 0.1545
808.30 0.1544
808.40 0.1543
808.50 0.1543
808.60 0.1542
808.70 0.1541
808.80 0.154
808.90 0.154
809.00 0.1539
809.10 0.1538
809.20 0.1537
809.30 0.1537
809.40 0.1536
809.50 0.1535
809.60 0.1534
809.70 0.1534
809.80 0.1533
809.90 0.1532
810.00 0.1531
810.10 0.1531
810.20 0.153
810.30 0.1529
810.40 0.1528
810.50 0.1528
810.60 0.1527
810.70 0.1526
810.80 0.1526
810.90 0.1525
811.00 0.1524
811.10 0.1523
811.20 0.1523
811.30 0.1522
811.40 0.1521
811.50 0.152
811.60 0.152
811.70 0.1519
811.80 0.1518
811.90 0.1518
812.00 0.1517
812.10 0.1516
812.20 0.1515
812.30 0.1515
812.40 0.1514
812.50 0.1513
812.60 0.1512
812.70 0.1512
812.80 0.1511
812.90 0.151
813.00 0.151
813.10 0.1509
813.20 0.1508
813.30 0.1507
813.40 0.1507
813.50 0.1506
813.60 0.1505
813.70 0.1505
813.80 0.1504
813.90 0.1503
814.00 0.1502
814.10 0.1502
814.20 0.1501
814.30 0.15
814.40 0.1499
814.50 0.1499
814.60 0.1498
814.70 0.1497
814.80 0.1497
814.90 0.1496
815.00 0.1495
815.10 0.1494
815.20 0.1494
815.30 0.1493
815.40 0.1492
815.50 0.1492
815.60 0.1491
815.70 0.149
815.80 0.1489
815.90 0.1489
816.00 0.1488
816.10 0.1487
816.20 0.1487
816.30 0.1486
816.40 0.1485
816.50 0.1484
816.60 0.1484
816.70 0.1483
816.80 0.1482
816.90 0.1482
817.00 0.1481
817.10 0.148
817.20 0.1479
817.30 0.1479
817.40 0.1478
817.50 0.1477
817.60 0.1477
817.70 0.1476
817.80 0.1475
817.90 0.1475
818.00 0.1474
818.10 0.1473
818.20 0.1472
818.30 0.1472
818.40 0.1471
818.50 0.147
818.60 0.147
818.70 0.1469
818.80 0.1468
818.90 0.1467
819.00 0.1467
819.10 0.1466
819.20 0.1465
819.30 0.1465
819.40 0.1464
819.50 0.1463
819.60 0.1463
819.70 0.1462
819.80 0.1461
819.90 0.146
820.00 0.146
820.10 0.1459
820.20 0.1458
820.30 0.1458
820.40 0.1457
820.50 0.1456
820.60 0.1456
820.70 0.1455
820.80 0.1454
820.90 0.1454
821.00 0.1453
821.10 0.1452
821.20 0.1451
821.30 0.1451
821.40 0.145
821.50 0.1449
821.60 0.1449
821.70 0.1448
821.80 0.1447
821.90 0.1447
822.00 0.1446
822.10 0.1445
822.20 0.1445
822.30 0.1444
822.40 0.1443
822.50 0.1443
822.60 0.1442
822.70 0.1441
822.80 0.144
822.90 0.144
823.00 0.1439
823.10 0.1438
823.20 0.1438
823.30 0.1437
823.40 0.1436
823.50 0.1436
823.60 0.1435
823.70 0.1434
823.80 0.1434
823.90 0.1433
824.00 0.1432
824.10 0.1432
824.20 0.1431
824.30 0.143
824.40 0.143
824.50 0.1429
824.60 0.1428
824.70 0.1428
824.80 0.1427
824.90 0.1426
825.00 0.1426
825.10 0.1425
825.20 0.1424
825.30 0.1424
825.40 0.1423
825.50 0.1422
825.60 0.1421
825.70 0.1421
825.80 0.142
825.90 0.1419
826.00 0.1419
826.10 0.1418
826.20 0.1417
826.30 0.1417
826.40 0.1416
826.50 0.1415
826.60 0.1415
826.70 0.1414
826.80 0.1413
826.90 0.1413
827.00 0.1412
827.10 0.1411
827.20 0.1411
827.30 0.141
827.40 0.1409
827.50 0.1409
827.60 0.1408
827.70 0.1407
827.80 0.1407
827.90 0.1406
828.00 0.1405
828.10 0.1405
828.20 0.1404
828.30 0.1403
828.40 0.1403
828.50 0.1402
828.60 0.1401
828.70 0.1401
828.80 0.14
828.90 0.14
829.00 0.1399
829.10 0.1398
829.20 0.1398
829.30 0.1397
829.40 0.1396
829.50 0.1396
829.60 0.1395
829.70 0.1394
829.80 0.1394
829.90 0.1393
830.00 0.1392
830.10 0.1392
830.20 0.1391
830.30 0.139
830.40 0.139
830.50 0.1389
830.60 0.1388
830.70 0.1388
830.80 0.1387
830.90 0.1386
831.00 0.1386
831.10 0.1385
831.20 0.1384
831.30 0.1384
831.40 0.1383
831.50 0.1382
831.60 0.1382
831.70 0.1381
831.80 0.1381
831.90 0.138
832.00 0.1379
832.10 0.1379
832.20 0.1378
832.30 0.1377
832.40 0.1377
832.50 0.1376
832.60 0.1375
832.70 0.1375
832.80 0.1374
832.90 0.1373
833.00 0.1373
833.10 0.1372
833.20 0.1372
833.30 0.1371
833.40 0.137
833.50 0.137
833.60 0.1369
833.70 0.1368
833.80 0.1368
833.90 0.1367
834.00 0.1366
834.10 0.1366
834.20 0.1365
834.30 0.1364
834.40 0.1364
834.50 0.1363
834.60 0.1363
834.70 0.1362
834.80 0.1361
834.90 0.1361
835.00 0.136
835.10 0.1359
835.20 0.1359
835.30 0.1358
835.40 0.1357
835.50 0.1357
835.60 0.1356
835.70 0.1356
835.80 0.1355
835.90 0.1354
836.00 0.1354
836.10 0.1353
836.20 0.1352
836.30 0.1352
836.40 0.1351
836.50 0.135
836.60 0.135
836.70 0.1349
836.80 0.1349
836.90 0.1348
837.00 0.1347
837.10 0.1347
837.20 0.1346
837.30 0.1345
837.40 0.1345
837.50 0.1344
837.60 0.1344
837.70 0.1343
837.80 0.1342
837.90 0.1342
838.00 0.1341
838.10 0.134
838.20 0.134
838.30 0.1339
838.40 0.1339
838.50 0.1338
838.60 0.1337
838.70 0.1337
838.80 0.1336
838.90 0.1335
839.00 0.1335
839.10 0.1334
839.20 0.1334
839.30 0.1333
839.40 0.1332
839.50 0.1332
839.60 0.1331
839.70 0.133
839.80 0.133
839.90 0.1329
840.00 0.1329
840.10 0.1328
840.20 0.1327
840.30 0.1327
840.40 0.1326
840.50 0.1326
840.60 0.1325
840.70 0.1324
840.80 0.1324
840.90 0.1323
841.00 0.1322
841.10 0.1322
841.20 0.1321
841.30 0.1321
841.40 0.132
841.50 0.1319
841.60 0.1319
841.70 0.1318
841.80 0.1318
841.90 0.1317
842.00 0.1316
842.10 0.1316
842.20 0.1315
842.30 0.1314
842.40 0.1314
842.50 0.1313
842.60 0.1313
842.70 0.1312
842.80 0.1311
842.90 0.1311
843.00 0.131
843.10 0.131
843.20 0.1309
843.30 0.1308
843.40 0.1308
843.50 0.1307
843.60 0.1307
843.70 0.1306
843.80 0.1305
843.90 0.1305
844.00 0.1304
844.10 0.1304
844.20 0.1303
844.30 0.1302
844.40 0.1302
844.50 0.1301
844.60 0.1301
844.70 0.13
844.80 0.1299
844.90 0.1299
845.00 0.1298
845.10 0.1298
845.20 0.1297
845.30 0.1296
845.40 0.1296
845.50 0.1295
845.60 0.1295
845.70 0.1294
845.80 0.1293
845.90 0.1293
846.00 0.1292
846.10 0.1292
846.20 0.1291
846.30 0.129
846.40 0.129
846.50 0.1289
846.60 0.1289
846.70 0.1288
846.80 0.1287
846.90 0.1287
847.00 0.1286
847.10 0.1286
847.20 0.1285
847.30 0.1284
847.40 0.1284
847.50 0.1283
847.60 0.1283
847.70 0.1282
847.80 0.1281
847.90 0.1281
848.00 0.128
848.10 0.128
848.20 0.1279
848.30 0.1279
848.40 0.1278
848.50 0.1277
848.60 0.1277
848.70 0.1276
848.80 0.1276
848.90 0.1275
849.00 0.1274
849.10 0.1274
849.20 0.1273
849.30 0.1273
849.40 0.1272
849.50 0.1271
849.60 0.1271
849.70 0.127
849.80 0.127
849.90 0.1269
850.00 0.1269
850.10 0.1268
850.20 0.1267
850.30 0.1267
850.40 0.1266
850.50 0.1266
850.60 0.1265
850.70 0.1264
850.80 0.1264
850.90 0.1263
851.00 0.1263
851.10 0.1262
851.20 0.1262
851.30 0.1261
851.40 0.126
851.50 0.126
851.60 0.1259
851.70 0.1259
851.80 0.1258
851.90 0.1258
852.00 0.1257
852.10 0.1256
852.20 0.1256
852.30 0.1255
852.40 0.1255
852.50 0.1254
852.60 0.1253
852.70 0.1253
852.80 0.1252
852.90 0.1252
853.00 0.1251
853.10 0.1251
853.20 0.125
853.30 0.1249
853.40 0.1249
853.50 0.1248
853.60 0.1248
853.70 0.1247
853.80 0.1247
853.90 0.1246
854.00 0.1245
854.10 0.1245
854.20 0.1244
854.30 0.1244
854.40 0.1243
854.50 0.1243
854.60 0.1242
854.70 0.1242
854.80 0.1241
854.90 0.124
855.00 0.124
855.10 0.1239
855.20 0.1239
855.30 0.1238
855.40 0.1238
855.50 0.1237
855.60 0.1236
855.70 0.1236
855.80 0.1235
855.90 0.1235
856.00 0.1234
856.10 0.1234
856.20 0.1233
856.30 0.1232
856.40 0.1232
856.50 0.1231
856.60 0.1231
856.70 0.123
856.80 0.123
856.90 0.1229
857.00 0.1228
857.10 0.1228
857.20 0.1227
857.30 0.1227
857.40 0.1226
857.50 0.1226
857.60 0.1225
857.70 0.1225
857.80 0.1224
857.90 0.1223
858.00 0.1223
858.10 0.1222
858.20 0.1222
858.30 0.1221
858.40 0.1221
858.50 0.122
858.60 0.122
858.70 0.1219
858.80 0.1218
858.90 0.1218
859.00 0.1217
859.10 0.1217
859.20 0.1216
859.30 0.1216
859.40 0.1215
859.50 0.1215
859.60 0.1214
859.70 0.1214
859.80 0.1213
859.90 0.1212
860.00 0.1212
860.10 0.1211
860.20 0.1211
860.30 0.121
860.40 0.121
860.50 0.1209
860.60 0.1209
860.70 0.1208
860.80 0.1207
860.90 0.1207
861.00 0.1206
861.10 0.1206
861.20 0.1205
861.30 0.1205
861.40 0.1204
861.50 0.1204
861.60 0.1203
861.70 0.1203
861.80 0.1202
861.90 0.1201
862.00 0.1201
862.10 0.12
862.20 0.12
862.30 0.1199
862.40 0.1199
862.50 0.1198
862.60 0.1198
862.70 0.1197
862.80 0.1197
862.90 0.1196
863.00 0.1195
863.10 0.1195
863.20 0.1194
863.30 0.1194
863.40 0.1193
863.50 0.1193
863.60 0.1192
863.70 0.1192
863.80 0.1191
863.90 0.1191
864.00 0.119
864.10 0.119
864.20 0.1189
864.30 0.1188
864.40 0.1188
864.50 0.1187
864.60 0.1187
864.70 0.1186
864.80 0.1186
864.90 0.1185
865.00 0.1185
865.10 0.1184
865.20 0.1184
865.30 0.1183
865.40 0.1183
865.50 0.1182
865.60 0.1182
865.70 0.1181
865.80 0.118
865.90 0.118
866.00 0.1179
866.10 0.1179
866.20 0.1178
866.30 0.1178
866.40 0.1177
866.50 0.1177
866.60 0.1176
866.70 0.1176
866.80 0.1175
866.90 0.1175
867.00 0.1174
867.10 0.1174
867.20 0.1173
867.30 0.1172
867.40 0.1172
867.50 0.1171
867.60 0.1171
867.70 0.117
867.80 0.117
867.90 0.1169
868.00 0.1169
868.10 0.1168
868.20 0.1168
868.30 0.1167
868.40 0.1167
868.50 0.1166
868.60 0.1166
868.70 0.1165
868.80 0.1165
868.90 0.1164
869.00 0.1164
869.10 0.1163
869.20 0.1162
869.30 0.1162
869.40 0.1161
869.50 0.1161
869.60 0.116
869.70 0.116
869.80 0.1159
869.90 0.1159
870.00 0.1158
870.10 0.1158
870.20 0.1157
870.30 0.1157
870.40 0.1156
870.50 0.1156
870.60 0.1155
870.70 0.1155
870.80 0.1154
870.90 0.1154
871.00 0.1153
871.10 0.1153
871.20 0.1152
871.30 0.1152
871.40 0.1151
871.50 0.1151
871.60 0.115
871.70 0.1149
871.80 0.1149
871.90 0.1148
872.00 0.1148
872.10 0.1147
872.20 0.1147
872.30 0.1146
872.40 0.1146
872.50 0.1145
872.60 0.1145
872.70 0.1144
872.80 0.1144
872.90 0.1143
873.00 0.1143
873.10 0.1142
873.20 0.1142
873.30 0.1141
873.40 0.1141
873.50 0.114
873.60 0.114
873.70 0.1139
873.80 0.1139
873.90 0.1138
874.00 0.1138
874.10 0.1137
874.20 0.1137
874.30 0.1136
874.40 0.1136
874.50 0.1135
874.60 0.1135
874.70 0.1134
874.80 0.1134
874.90 0.1133
875.00 0.1133
875.10 0.1132
875.20 0.1132
875.30 0.1131
875.40 0.1131
875.50 0.113
875.60 0.113
875.70 0.1129
875.80 0.1129
875.90 0.1128
876.00 0.1128
876.10 0.1127
876.20 0.1127
876.30 0.1126
876.40 0.1126
876.50 0.1125
876.60 0.1125
876.70 0.1124
876.80 0.1124
876.90 0.1123
877.00 0.1123
877.10 0.1122
877.20 0.1122
877.30 0.1121
877.40 0.1121
877.50 0.112
877.60 0.112
877.70 0.1119
877.80 0.1119
877.90 0.1118
878.00 0.1118
878.10 0.1117
878.20 0.1117
878.30 0.1116
878.40 0.1116
878.50 0.1115
878.60 0.1115
878.70 0.1114
878.80 0.1114
878.90 0.1113
879.00 0.1113
879.10 0.1112
879.20 0.1112
879.30 0.1111
879.40 0.1111
879.50 0.111
879.60 0.111
879.70 0.1109
879.80 0.1109
879.90 0.1108
880.00 0.1108
880.10 0.1107
880.20 0.1107
880.30 0.1106
880.40 0.1106
880.50 0.1105
880.60 0.1105
880.70 0.1104
880.80 0.1104
880.90 0.1103
881.00 0.1103
881.10 0.1102
881.20 0.1102
881.30 0.1101
881.40 0.1101
881.50 0.11
881.60 0.11
881.70 0.1099
881.80 0.1099
881.90 0.1098
882.00 0.1098
882.10 0.1097
882.20 0.1097
882.30 0.1096
882.40 0.1096
882.50 0.1095
882.60 0.1095
882.70 0.1095
882.80 0.1094
882.90 0.1094
883.00 0.1093
883.10 0.1093
883.20 0.1092
883.30 0.1092
883.40 0.1091
883.50 0.1091
883.60 0.109
883.70 0.109
883.80 0.1089
883.90 0.1089
884.00 0.1088
884.10 0.1088
884.20 0.1087
884.30 0.1087
884.40 0.1086
884.50 0.1086
884.60 0.1085
884.70 0.1085
884.80 0.1084
884.90 0.1084
885.00 0.1083
885.10 0.1083
885.20 0.1082
885.30 0.1082
885.40 0.1082
885.50 0.1081
885.60 0.1081
885.70 0.108
885.80 0.108
885.90 0.1079
886.00 0.1079
886.10 0.1078
886.20 0.1078
886.30 0.1077
886.40 0.1077
886.50 0.1076
886.60 0.1076
886.70 0.1075
886.80 0.1075
886.90 0.1074
887.00 0.1074
887.10 0.1073
887.20 0.1073
887.30 0.1073
887.40 0.1072
887.50 0.1072
887.60 0.1071
887.70 0.1071
887.80 0.107
887.90 0.107
888.00 0.1069
888.10 0.1069
888.20 0.1068
888.30 0.1068
888.40 0.1067
888.50 0.1067
888.60 0.1066
888.70 0.1066
888.80 0.1065
888.90 0.1065
889.00 0.1065
889.10 0.1064
889.20 0.1064
889.30 0.1063
889.40 0.1063
889.50 0.1062
889.60 0.1062
889.70 0.1061
889.80 0.1061
889.90 0.106
890.00 0.106
890.10 0.1059
890.20 0.1059
890.30 0.1058
890.40 0.1058
890.50 0.1058
890.60 0.1057
890.70 0.1057
890.80 0.1056
890.90 0.1056
891.00 0.1055
891.10 0.1055
891.20 0.1054
891.30 0.1054
891.40 0.1053
891.50 0.1053
891.60 0.1052
891.70 0.1052
891.80 0.1051
891.90 0.1051
892.00 0.1051
892.10 0.105
892.20 0.105
892.30 0.1049
892.40 0.1049
892.50 0.1048
892.60 0.1048
892.70 0.1047
892.80 0.1047
892.90 0.1046
893.00 0.1046
893.10 0.1046
893.20 0.1045
893.30 0.1045
893.40 0.1044
893.50 0.1044
893.60 0.1043
893.70 0.1043
893.80 0.1042
893.90 0.1042
894.00 0.1041
894.10 0.1041
894.20 0.1041
894.30 0.104
894.40 0.104
894.50 0.1039
894.60 0.1039
894.70 0.1038
894.80 0.1038
894.90 0.1037
895.00 0.1037
895.10 0.1036
895.20 0.1036
895.30 0.1036
895.40 0.1035
895.50 0.1035
895.60 0.1034
895.70 0.1034
895.80 0.1033
895.90 0.1033
896.00 0.1032
896.10 0.1032
896.20 0.1031
896.30 0.1031
896.40 0.1031
896.50 0.103
896.60 0.103
896.70 0.1029
896.80 0.1029
896.90 0.1028
897.00 0.1028
897.10 0.1027
897.20 0.1027
897.30 0.1027
897.40 0.1026
897.50 0.1026
897.60 0.1025
897.70 0.1025
897.80 0.1024
897.90 0.1024
898.00 0.1023
898.10 0.1023
898.20 0.1023
898.30 0.1022
898.40 0.1022
898.50 0.1021
898.60 0.1021
898.70 0.102
898.80 0.102
898.90 0.1019
899.00 0.1019
899.10 0.1019
899.20 0.1018
899.30 0.1018
899.40 0.1017
899.50 0.1017
899.60 0.1016
899.70 0.1016
899.80 0.1016
899.90 0.1015
900.00 0.1015
900.10 0.1014
900.20 0.1014
900.30 0.1013
900.40 0.1013
900.50 0.1012
900.60 0.1012
900.70 0.1012
900.80 0.1011
900.90 0.1011
901.00 0.101
901.10 0.101
901.20 0.1009
901.30 0.1009
901.40 0.1009
901.50 0.1008
901.60 0.1008
901.70 0.1007
901.80 0.1007
901.90 0.1006
902.00 0.1006
902.10 0.1005
902.20 0.1005
902.30 0.1005
902.40 0.1004
902.50 0.1004
902.60 0.1003
902.70 0.1003
902.80 0.1002
902.90 0.1002
903.00 0.1002
903.10 0.1001
903.20 0.1001
903.30 0.1
903.40 0.09998
903.50 0.09994
903.60 0.09989
903.70 0.09985
903.80 0.09981
903.90 0.09976
904.00 0.09972
904.10 0.09968
904.20 0.09963
904.30 0.09959
904.40 0.09955
904.50 0.09951
904.60 0.09946
904.70 0.09942
904.80 0.09938
904.90 0.09933
905.00 0.09929
905.10 0.09925
905.20 0.0992
905.30 0.09916
905.40 0.09912
905.50 0.09907
905.60 0.09903
905.70 0.09899
905.80 0.09895
905.90 0.0989
906.00 0.09886
906.10 0.09882
906.20 0.09877
906.30 0.09873
906.40 0.09869
906.50 0.09864
906.60 0.0986
906.70 0.09856
906.80 0.09852
906.90 0.09847
907.00 0.09843
907.10 0.09839
907.20 0.09835
907.30 0.0983
907.40 0.09826
907.50 0.09822
907.60 0.09818
907.70 0.09813
907.80 0.09809
907.90 0.09805
908.00 0.09801
908.10 0.09797
908.20 0.09792
908.30 0.09788
908.40 0.09784
908.50 0.0978
908.60 0.09776
908.70 0.09771
908.80 0.09767
908.90 0.09763
909.00 0.09759
909.10 0.09755
909.20 0.0975
909.30 0.09746
909.40 0.09742
909.50 0.09738
909.60 0.09734
909.70 0.09729
909.80 0.09725
909.90 0.09721
910.00 0.09717
910.10 0.09713
910.20 0.09709
910.30 0.09704
910.40 0.097
910.50 0.09696
910.60 0.09692
910.70 0.09688
910.80 0.09684
910.90 0.09679
911.00 0.09675
911.10 0.09671
911.20 0.09667
911.30 0.09663
911.40 0.09659
911.50 0.09654
911.60 0.0965
911.70 0.09646
911.80 0.09642
911.90 0.09638
912.00 0.09634
912.10 0.0963
912.20 0.09625
912.30 0.09621
912.40 0.09617
912.50 0.09613
912.60 0.09609
912.70 0.09605
912.80 0.09601
912.90 0.09597
913.00 0.09593
913.10 0.09589
913.20 0.09585
913.30 0.0958
913.40 0.09576
913.50 0.09572
913.60 0.09568
913.70 0.09564
913.80 0.0956
913.90 0.09556
914.00 0.09552
914.10 0.09548
914.20 0.09544
914.30 0.0954
914.40 0.09536
914.50 0.09532
914.60 0.09528
914.70 0.09523
914.80 0.09519
914.90 0.09515
915.00 0.09511
915.10 0.09507
915.20 0.09503
915.30 0.09499
915.40 0.09495
915.50 0.09491
915.60 0.09487
915.70 0.09483
915.80 0.09479
915.90 0.09475
916.00 0.09471
916.10 0.09467
916.20 0.09463
916.30 0.09459
916.40 0.09455
916.50 0.09451
916.60 0.09447
916.70 0.09443
916.80 0.09439
916.90 0.09434
917.00 0.0943
917.10 0.09427
917.20 0.09423
917.30 0.09419
917.40 0.09415
917.50 0.09411
917.60 0.09407
917.70 0.09403
917.80 0.09399
917.90 0.09395
918.00 0.09391
918.10 0.09387
918.20 0.09383
918.30 0.09379
918.40 0.09375
918.50 0.09371
918.60 0.09367
918.70 0.09363
918.80 0.09359
918.90 0.09356
919.00 0.09352
919.10 0.09348
919.20 0.09344
919.30 0.0934
919.40 0.09336
919.50 0.09332
919.60 0.09328
919.70 0.09324
919.80 0.0932
919.90 0.09316
920.00 0.09312
920.10 0.09309
920.20 0.09305
920.30 0.09301
920.40 0.09297
920.50 0.09293
920.60 0.09289
920.70 0.09285
920.80 0.09281
920.90 0.09277
921.00 0.09273
921.10 0.0927
921.20 0.09266
921.30 0.09262
921.40 0.09258
921.50 0.09254
921.60 0.0925
921.70 0.09246
921.80 0.09242
921.90 0.09238
922.00 0.09235
922.10 0.09231
922.20 0.09227
922.30 0.09223
922.40 0.09219
922.50 0.09215
922.60 0.09211
922.70 0.09207
922.80 0.09203
922.90 0.09199
923.00 0.09195
923.10 0.09191
923.20 0.09188
923.30 0.09184
923.40 0.0918
923.50 0.09176
923.60 0.09172
923.70 0.09168
923.80 0.09164
923.90 0.0916
924.00 0.09156
924.10 0.09152
924.20 0.09149
924.30 0.09145
924.40 0.09141
924.50 0.09137
924.60 0.09133
924.70 0.09129
924.80 0.09125
924.90 0.09121
925.00 0.09117
925.10 0.09114
925.20 0.0911
925.30 0.09106
925.40 0.09102
925.50 0.09098
925.60 0.09094
925.70 0.0909
925.80 0.09086
925.90 0.09083
926.00 0.09079
926.10 0.09075
926.20 0.09071
926.30 0.09067
926.40 0.09063
926.50 0.09059
926.60 0.09055
926.70 0.09052
926.80 0.09048
926.90 0.09044
927.00 0.0904
927.10 0.09036
927.20 0.09032
927.30 0.09029
927.40 0.09025
927.50 0.09021
927.60 0.09017
927.70 0.09013
927.80 0.0901
927.90 0.09006
928.00 0.09002
928.10 0.08998
928.20 0.08994
928.30 0.08991
928.40 0.08987
928.50 0.08983
928.60 0.08979
928.70 0.08976
928.80 0.08972
928.90 0.08968
929.00 0.08964
929.10 0.0896
929.20 0.08957
929.30 0.08953
929.40 0.08949
929.50 0.08945
929.60 0.08942
929.70 0.08938
929.80 0.08934
929.90 0.0893
930.00 0.08927
930.10 0.08923
930.20 0.08919
930.30 0.08915
930.40 0.08911
930.50 0.08908
930.60 0.08904
930.70 0.089
930.80 0.08896
930.90 0.08893
931.00 0.08889
931.10 0.08885
931.20 0.08881
931.30 0.08878
931.40 0.08874
931.50 0.0887
931.60 0.08867
931.70 0.08863
931.80 0.08859
931.90 0.08855
932.00 0.08852
932.10 0.08848
932.20 0.08844
932.30 0.0884
932.40 0.08837
932.50 0.08833
932.60 0.08829
932.70 0.08826
932.80 0.08822
932.90 0.08818
933.00 0.08815
933.10 0.08811
933.20 0.08807
933.30 0.08804
933.40 0.088
933.50 0.08796
933.60 0.08792
933.70 0.08789
933.80 0.08785
933.90 0.08781
934.00 0.08778
934.10 0.08774
934.20 0.0877
934.30 0.08767
934.40 0.08763
934.50 0.08759
934.60 0.08756
934.70 0.08752
934.80 0.08748
934.90 0.08745
935.00 0.08741
935.10 0.08737
935.20 0.08734
935.30 0.0873
935.40 0.08726
935.50 0.08723
935.60 0.08719
935.70 0.08716
935.80 0.08712
935.90 0.08708
936.00 0.08705
936.10 0.08701
936.20 0.08697
936.30 0.08694
936.40 0.0869
936.50 0.08686
936.60 0.08683
936.70 0.08679
936.80 0.08675
936.90 0.08672
937.00 0.08668
937.10 0.08665
937.20 0.08661
937.30 0.08657
937.40 0.08654
937.50 0.0865
937.60 0.08647
937.70 0.08643
937.80 0.08639
937.90 0.08636
938.00 0.08632
938.10 0.08628
938.20 0.08625
938.30 0.08621
938.40 0.08618
938.50 0.08614
938.60 0.0861
938.70 0.08607
938.80 0.08603
938.90 0.086
939.00 0.08596
939.10 0.08593
939.20 0.08589
939.30 0.08585
939.40 0.08582
939.50 0.08578
939.60 0.08575
939.70 0.08571
939.80 0.08567
939.90 0.08564
940.00 0.0856
940.10 0.08557
940.20 0.08553
940.30 0.0855
940.40 0.08546
940.50 0.08542
940.60 0.08539
940.70 0.08535
940.80 0.08532
940.90 0.08528
941.00 0.08525
941.10 0.08521
941.20 0.08518
941.30 0.08514
941.40 0.0851
941.50 0.08507
941.60 0.08503
941.70 0.085
941.80 0.08496
941.90 0.08493
942.00 0.08489
942.10 0.08486
942.20 0.08482
942.30 0.08479
942.40 0.08475
942.50 0.08472
942.60 0.08468
942.70 0.08464
942.80 0.08461
942.90 0.08457
943.00 0.08454
943.10 0.0845
943.20 0.08447
943.30 0.08443
943.40 0.0844
943.50 0.08436
943.60 0.08433
943.70 0.08429
943.80 0.08426
943.90 0.08422
944.00 0.08419
944.10 0.08415
944.20 0.08412
944.30 0.08408
944.40 0.08405
944.50 0.08401
944.60 0.08398
944.70 0.08394
944.80 0.08391
944.90 0.08387
945.00 0.08384
945.10 0.0838
945.20 0.08377
945.30 0.08373
945.40 0.0837
945.50 0.08366
945.60 0.08363
945.70 0.08359
945.80 0.08356
945.90 0.08353
946.00 0.08349
946.10 0.08346
946.20 0.08342
946.30 0.08339
946.40 0.08335
946.50 0.08332
946.60 0.08328
946.70 0.08325
946.80 0.08321
946.90 0.08318
947.00 0.08315
947.10 0.08311
947.20 0.08308
947.30 0.08304
947.40 0.08301
947.50 0.08297
947.60 0.08294
947.70 0.08291
947.80 0.08287
947.90 0.08284
948.00 0.0828
948.10 0.08277
948.20 0.08274
948.30 0.0827
948.40 0.08267
948.50 0.08263
948.60 0.0826
948.70 0.08256
948.80 0.08253
948.90 0.0825
949.00 0.08246
949.10 0.08243
949.20 0.08239
949.30 0.08236
949.40 0.08233
949.50 0.08229
949.60 0.08226
949.70 0.08223
949.80 0.08219
949.90 0.08216
950.00 0.08213
950.10 0.08209
950.20 0.08206
950.30 0.08203
950.40 0.08199
950.50 0.08196
950.60 0.08193
950.70 0.08189
950.80 0.08186
950.90 0.08183
951.00 0.08179
951.10 0.08176
951.20 0.08173
951.30 0.08169
951.40 0.08166
951.50 0.08163
951.60 0.08159
951.70 0.08156
951.80 0.08153
951.90 0.0815
952.00 0.08146
952.10 0.08143
952.20 0.0814
952.30 0.08137
952.40 0.08133
952.50 0.0813
952.60 0.08127
952.70 0.08124
952.80 0.0812
952.90 0.08117
953.00 0.08114
953.10 0.08111
953.20 0.08108
953.30 0.08104
953.40 0.08101
953.50 0.08098
953.60 0.08095
953.70 0.08092
953.80 0.08089
953.90 0.08085
954.00 0.08082
954.10 0.08079
954.20 0.08076
954.30 0.08073
954.40 0.0807
954.50 0.08067
954.60 0.08064
954.70 0.0806
954.80 0.08057
954.90 0.08053
955.00 0.0805
955.10 0.08046
955.20 0.08043
955.30 0.08039
955.40 0.08036
955.50 0.08032
955.60 0.08029
955.70 0.08026
955.80 0.08022
955.90 0.08019
956.00 0.08015
956.10 0.08012
956.20 0.08009
956.30 0.08005
956.40 0.08002
956.50 0.07999
956.60 0.07995
956.70 0.07992
956.80 0.07988
956.90 0.07985
957.00 0.07982
957.10 0.07978
957.20 0.07975
957.30 0.07972
957.40 0.07968
957.50 0.07965
957.60 0.07962
957.70 0.07959
957.80 0.07955
957.90 0.07952
958.00 0.07949
958.10 0.07946
958.20 0.07942
958.30 0.07939
958.40 0.07936
958.50 0.07933
958.60 0.07929
958.70 0.07926
958.80 0.07923
958.90 0.07919
959.00 0.07916
959.10 0.07913
959.20 0.0791
959.30 0.07906
959.40 0.07903
959.50 0.079
959.60 0.07897
959.70 0.07894
959.80 0.0789
959.90 0.07887
960.00 0.07884
960.10 0.07881
960.20 0.07878
960.30 0.07874
960.40 0.07871
960.50 0.07868
960.60 0.07865
960.70 0.07862
960.80 0.07858
960.90 0.07855
961.00 0.07852
961.10 0.07849
961.20 0.07846
961.30 0.07842
961.40 0.07839
961.50 0.07836
961.60 0.07833
961.70 0.0783
961.80 0.07827
961.90 0.07823
962.00 0.0782
962.10 0.07817
962.20 0.07814
962.30 0.07811
962.40 0.07808
962.50 0.07805
962.60 0.07801
962.70 0.07798
962.80 0.07795
962.90 0.07792
963.00 0.07789
963.10 0.07786
963.20 0.07783
963.30 0.0778
963.40 0.07776
963.50 0.07773
963.60 0.0777
963.70 0.07767
963.80 0.07764
963.90 0.07761
964.00 0.07758
964.10 0.07755
964.20 0.07751
964.30 0.07748
964.40 0.07745
964.50 0.07742
964.60 0.07739
964.70 0.07736
964.80 0.07733
964.90 0.0773
965.00 0.07727
965.10 0.07723
965.20 0.0772
965.30 0.07717
965.40 0.07714
965.50 0.07711
965.60 0.07708
965.70 0.07705
965.80 0.07702
965.90 0.07699
966.00 0.07696
966.10 0.07693
966.20 0.07689
966.30 0.07686
966.40 0.07683
966.50 0.0768
966.60 0.07677
966.70 0.07674
966.80 0.07671
966.90 0.07668
967.00 0.07665
967.10 0.07662
967.20 0.07659
967.30 0.07656
967.40 0.07653
967.50 0.07649
967.60 0.07646
967.70 0.07643
967.80 0.0764
967.90 0.07637
968.00 0.07634
968.10 0.07631
968.20 0.07628
968.30 0.07625
968.40 0.07622
968.50 0.07619
968.60 0.07616
968.70 0.07613
968.80 0.0761
968.90 0.07607
969.00 0.07604
969.10 0.07601
969.20 0.07598
969.30 0.07595
969.40 0.07591
969.50 0.07588
969.60 0.07585
969.70 0.07582
969.80 0.07579
969.90 0.07576
970.00 0.07573
970.10 0.0757
970.20 0.07567
970.30 0.07564
970.40 0.07561
970.50 0.07558
970.60 0.07555
970.70 0.07552
970.80 0.07549
970.90 0.07546
971.00 0.07543
971.10 0.0754
971.20 0.07537
971.30 0.07534
971.40 0.07531
971.50 0.07528
971.60 0.07525
971.70 0.07522
971.80 0.07519
971.90 0.07516
972.00 0.07513
972.10 0.0751
972.20 0.07507
972.30 0.07504
972.40 0.07501
972.50 0.07498
972.60 0.07495
972.70 0.07492
972.80 0.07489
972.90 0.07486
973.00 0.07483
973.10 0.0748
973.20 0.07477
973.30 0.07474
973.40 0.07471
973.50 0.07468
973.60 0.07465
973.70 0.07462
973.80 0.07459
973.90 0.07456
974.00 0.07453
974.10 0.0745
974.20 0.07447
974.30 0.07444
974.40 0.07441
974.50 0.07438
974.60 0.07435
974.70 0.07432
974.80 0.07429
974.90 0.07426
975.00 0.07423
975.10 0.0742
975.20 0.07417
975.30 0.07414
975.40 0.07411
975.50 0.07408
975.60 0.07405
975.70 0.07402
975.80 0.07399
975.90 0.07396
976.00 0.07394
976.10 0.07391
976.20 0.07388
976.30 0.07385
976.40 0.07382
976.50 0.07379
976.60 0.07376
976.70 0.07373
976.80 0.0737
976.90 0.07367
977.00 0.07364
977.10 0.07361
977.20 0.07358
977.30 0.07355
977.40 0.07352
977.50 0.07349
977.60 0.07346
977.70 0.07343
977.80 0.0734
977.90 0.07337
978.00 0.07335
978.10 0.07332
978.20 0.07329
978.30 0.07326
978.40 0.07323
978.50 0.0732
978.60 0.07317
978.70 0.07314
978.80 0.07311
978.90 0.07308
979.00 0.07305
979.10 0.07302
979.20 0.07299
979.30 0.07296
979.40 0.07294
979.50 0.07291
979.60 0.07288
979.70 0.07285
979.80 0.07282
979.90 0.07279
980.00 0.07276
980.10 0.07273
980.20 0.0727
980.30 0.07267
980.40 0.07264
980.50 0.07261
980.60 0.07259
980.70 0.07256
980.80 0.07253
980.90 0.0725
981.00 0.07247
981.10 0.07244
981.20 0.07241
981.30 0.07238
981.40 0.07235
981.50 0.07232
981.60 0.07229
981.70 0.07227
981.80 0.07224
981.90 0.07221
982.00 0.07218
982.10 0.07215
982.20 0.07212
982.30 0.07209
982.40 0.07206
982.50 0.07203
982.60 0.07201
982.70 0.07198
982.80 0.07195
982.90 0.07192
983.00 0.07189
983.10 0.07186
983.20 0.07183
983.30 0.0718
983.40 0.07177
983.50 0.07175
983.60 0.07172
983.70 0.07169
983.80 0.07166
983.90 0.07163
984.00 0.0716
984.10 0.07157
984.20 0.07154
984.30 0.07152
984.40 0.07149
984.50 0.07146
984.60 0.07143
984.70 0.0714
984.80 0.07137
984.90 0.07134
985.00 0.07131
985.10 0.07129
985.20 0.07126
985.30 0.07123
985.40 0.0712
985.50 0.07117
985.60 0.07114
985.70 0.07111
985.80 0.07109
985.90 0.07106
986.00 0.07103
986.10 0.071
986.20 0.07097
986.30 0.07094
986.40 0.07091
986.50 0.07089
986.60 0.07086
986.70 0.07083
986.80 0.0708
986.90 0.07077
987.00 0.07074
987.10 0.07072
987.20 0.07069
987.30 0.07066
987.40 0.07063
987.50 0.0706
987.60 0.07057
987.70 0.07054
987.80 0.07052
987.90 0.07049
988.00 0.07046
988.10 0.07043
988.20 0.0704
988.30 0.07037
988.40 0.07035
988.50 0.07032
988.60 0.07029
988.70 0.07026
988.80 0.07023
988.90 0.0702
989.00 0.07018
989.10 0.07015
989.20 0.07012
989.30 0.07009
989.40 0.07006
989.50 0.07003
989.60 0.07001
989.70 0.06998
989.80 0.06995
989.90 0.06992
990.00 0.06989
990.10 0.06987
990.20 0.06984
990.30 0.06981
990.40 0.06978
990.50 0.06975
990.60 0.06972
990.70 0.0697
990.80 0.06967
990.90 0.06964
991.00 0.06961
991.10 0.06958
991.20 0.06956
991.30 0.06953
991.40 0.0695
991.50 0.06947
991.60 0.06944
991.70 0.06942
991.80 0.06939
991.90 0.06936
992.00 0.06933
992.10 0.0693
992.20 0.06928
992.30 0.06925
992.40 0.06922
992.50 0.06919
992.60 0.06916
992.70 0.06914
992.80 0.06911
992.90 0.06908
993.00 0.06905
993.10 0.06902
993.20 0.069
993.30 0.06897
993.40 0.06894
993.50 0.06891
993.60 0.06888
993.70 0.06886
993.80 0.06883
993.90 0.0688
994.00 0.06877
994.10 0.06874
994.20 0.06872
994.30 0.06869
994.40 0.06866
994.50 0.06863
994.60 0.06861
994.70 0.06858
994.80 0.06855
994.90 0.06852
995.00 0.06849
995.10 0.06847
995.20 0.06844
995.30 0.06841
995.40 0.06838
995.50 0.06836
995.60 0.06833
995.70 0.0683
995.80 0.06827
995.90 0.06824
996.00 0.06822
996.10 0.06819
996.20 0.06816
996.30 0.06813
996.40 0.06811
996.50 0.06808
996.60 0.06805
996.70 0.06802
996.80 0.068
996.90 0.06797
997.00 0.06794
997.10 0.06791
997.20 0.06789
997.30 0.06786
997.40 0.06783
997.50 0.0678
997.60 0.06778
997.70 0.06775
997.80 0.06772
997.90 0.0677
998.00 0.06767
998.10 0.06764
998.20 0.06761
998.30 0.06759
998.40 0.06756
998.50 0.06753
998.60 0.06751
998.70 0.06748
998.80 0.06745
998.90 0.06742
999.00 0.0674
999.10 0.06737
999.20 0.06734
999.30 0.06732
999.40 0.06729
999.50 0.06726
999.60 0.06723
999.70 0.06721
999.80 0.06718
999.90 0.06715
1000.00 0.06713
1000.10 0.0671
1000.20 0.06707
1000.30 0.06704
1000.40 0.06702
1000.50 0.06699
1000.60 0.06696
1000.70 0.06693
1000.80 0.06691
1000.90 0.06688
1001.00 0.06685
1001.10 0.06682
1001.20 0.0668
1001.30 0.06677
1001.40 0.06674
1001.50 0.06672
1001.60 0.06669
1001.70 0.06666
1001.80 0.06664
1001.90 0.06661
1002.00 0.06659
1002.10 0.06656
1002.20 0.06654
1002.30 0.06652
1002.40 0.06649
1002.50 0.06647
1002.60 0.06644
1002.70 0.06642
1002.80 0.0664
1002.90 0.06637
1003.00 0.06635
1003.10 0.06633
1003.20 0.0663
1003.30 0.06628
1003.40 0.06626
1003.50 0.06624
1003.60 0.06622
1003.70 0.06619
1003.80 0.06617
1003.90 0.06615
1004.00 0.06613
1004.10 0.06611
1004.20 0.06609
1004.30 0.06607
1004.40 0.06605
1004.50 0.06603
1004.60 0.066
1004.70 0.06598
1004.80 0.06595
1004.90 0.06593
1005.00 0.0659
1005.10 0.06587
1005.20 0.06585
1005.30 0.06582
1005.40 0.06579
1005.50 0.06576
1005.60 0.06573
1005.70 0.0657
1005.80 0.06567
1005.90 0.06564
1006.00 0.06561
1006.10 0.06558
1006.20 0.06555
1006.30 0.06552
1006.40 0.06549
1006.50 0.06547
1006.60 0.06544
1006.70 0.06541
1006.80 0.06538
1006.90 0.06535
1007.00 0.06532
1007.10 0.0653
1007.20 0.06527
1007.30 0.06524
1007.40 0.06521
1007.50 0.06519
1007.60 0.06516
1007.70 0.06513
1007.80 0.06511
1007.90 0.06508
1008.00 0.06506
1008.10 0.06503
1008.20 0.06501
1008.30 0.06498
1008.40 0.06495
1008.50 0.06493
1008.60 0.0649
1008.70 0.06488
1008.80 0.06485
1008.90 0.06483
1009.00 0.0648
1009.10 0.06478
1009.20 0.06475
1009.30 0.06472
1009.40 0.0647
1009.50 0.06467
1009.60 0.06465
1009.70 0.06462
1009.80 0.0646
1009.90 0.06457
1010.00 0.06455
1010.10 0.06453
1010.20 0.0645
1010.30 0.06448
1010.40 0.06445
1010.50 0.06443
1010.60 0.0644
1010.70 0.06438
1010.80 0.06436
1010.90 0.06433
1011.00 0.06431
1011.10 0.06428
1011.20 0.06426
1011.30 0.06423
1011.40 0.06421
1011.50 0.06419
1011.60 0.06416
1011.70 0.06414
1011.80 0.06411
1011.90 0.06409
1012.00 0.06406
1012.10 0.06404
1012.20 0.06402
1012.30 0.06399
1012.40 0.06397
1012.50 0.06395
1012.60 0.06392
1012.70 0.0639
1012.80 0.06387
1012.90 0.06385
1013.00 0.06383
1013.10 0.0638
1013.20 0.06378
1013.30 0.06375
1013.40 0.06373
1013.50 0.06371
1013.60 0.06368
1013.70 0.06366
1013.80 0.06364
1013.90 0.06361
1014.00 0.06359
1014.10 0.06356
1014.20 0.06354
1014.30 0.06352
1014.40 0.06349
1014.50 0.06347
1014.60 0.06345
1014.70 0.06342
1014.80 0.0634
1014.90 0.06337
1015.00 0.06335
1015.10 0.06333
1015.20 0.0633
1015.30 0.06328
1015.40 0.06326
1015.50 0.06323
1015.60 0.06321
1015.70 0.06319
1015.80 0.06316
1015.90 0.06314
1016.00 0.06312
1016.10 0.06309
1016.20 0.06307
1016.30 0.06304
1016.40 0.06302
1016.50 0.063
1016.60 0.06297
1016.70 0.06295
1016.80 0.06293
1016.90 0.0629
1017.00 0.06288
1017.10 0.06286
1017.20 0.06283
1017.30 0.06281
1017.40 0.06279
1017.50 0.06276
1017.60 0.06274
1017.70 0.06272
1017.80 0.06269
1017.90 0.06267
1018.00 0.06265
1018.10 0.06262
1018.20 0.0626
1018.30 0.06258
1018.40 0.06255
1018.50 0.06253
1018.60 0.0625
1018.70 0.06248
1018.80 0.06246
1018.90 0.06243
1019.00 0.06241
1019.10 0.06239
1019.20 0.06236
1019.30 0.06234
1019.40 0.06232
1019.50 0.06229
1019.60 0.06227
1019.70 0.06225
1019.80 0.06222
1019.90 0.0622
1020.00 0.06218
1020.10 0.06215
1020.20 0.06213
1020.30 0.06211
1020.40 0.06208
1020.50 0.06206
1020.60 0.06204
1020.70 0.06201
1020.80 0.06199
1020.90 0.06197
1021.00 0.06194
1021.10 0.06192
1021.20 0.0619
1021.30 0.06187
1021.40 0.06185
1021.50 0.06183
1021.60 0.06181
1021.70 0.06178
1021.80 0.06176
1021.90 0.06174
1022.00 0.06171
1022.10 0.06169
1022.20 0.06167
1022.30 0.06164
1022.40 0.06162
1022.50 0.0616
1022.60 0.06157
1022.70 0.06155
1022.80 0.06153
1022.90 0.0615
1023.00 0.06148
1023.10 0.06146
1023.20 0.06143
1023.30 0.06141
1023.40 0.06139
1023.50 0.06137
1023.60 0.06134
1023.70 0.06132
1023.80 0.0613
1023.90 0.06127
1024.00 0.06125
1024.10 0.06123
1024.20 0.0612
1024.30 0.06118
1024.40 0.06116
1024.50 0.06113
1024.60 0.06111
1024.70 0.06109
1024.80 0.06107
1024.90 0.06104
1025.00 0.06102
1025.10 0.061
1025.20 0.06097
1025.30 0.06095
1025.40 0.06093
1025.50 0.06091
1025.60 0.06088
1025.70 0.06086
1025.80 0.06084
1025.90 0.06081
1026.00 0.06079
1026.10 0.06077
1026.20 0.06074
1026.30 0.06072
1026.40 0.0607
1026.50 0.06068
1026.60 0.06065
1026.70 0.06063
1026.80 0.06061
1026.90 0.06058
1027.00 0.06056
1027.10 0.06054
1027.20 0.06052
1027.30 0.06049
1027.40 0.06047
1027.50 0.06045
1027.60 0.06043
1027.70 0.0604
1027.80 0.06038
1027.90 0.06036
1028.00 0.06033
1028.10 0.06031
1028.20 0.06029
1028.30 0.06027
1028.40 0.06024
1028.50 0.06022
1028.60 0.0602
1028.70 0.06018
1028.80 0.06015
1028.90 0.06013
1029.00 0.06011
1029.10 0.06008
1029.20 0.06006
1029.30 0.06004
1029.40 0.06002
1029.50 0.05999
1029.60 0.05997
1029.70 0.05995
1029.80 0.05993
1029.90 0.0599
1030.00 0.05988
1030.10 0.05986
1030.20 0.05984
1030.30 0.05981
1030.40 0.05979
1030.50 0.05977
1030.60 0.05975
1030.70 0.05972
1030.80 0.0597
1030.90 0.05968
1031.00 0.05966
1031.10 0.05963
1031.20 0.05961
1031.30 0.05959
1031.40 0.05957
1031.50 0.05954
1031.60 0.05952
1031.70 0.0595
1031.80 0.05948
1031.90 0.05945
1032.00 0.05943
1032.10 0.05941
1032.20 0.05939
1032.30 0.05936
1032.40 0.05934
1032.50 0.05932
1032.60 0.0593
1032.70 0.05928
1032.80 0.05925
1032.90 0.05923
1033.00 0.05921
1033.10 0.05919
1033.20 0.05916
1033.30 0.05914
1033.40 0.05912
1033.50 0.0591
1033.60 0.05908
1033.70 0.05905
1033.80 0.05903
1033.90 0.05901
1034.00 0.05899
1034.10 0.05896
1034.20 0.05894
1034.30 0.05892
1034.40 0.0589
1034.50 0.05888
1034.60 0.05885
1034.70 0.05883
1034.80 0.05881
1034.90 0.05879
1035.00 0.05876
1035.10 0.05874
1035.20 0.05872
1035.30 0.0587
1035.40 0.05868
1035.50 0.05865
1035.60 0.05863
1035.70 0.05861
1035.80 0.05859
1035.90 0.05857
1036.00 0.05854
1036.10 0.05852
1036.20 0.0585
1036.30 0.05848
1036.40 0.05846
1036.50 0.05843
1036.60 0.05841
1036.70 0.05839
1036.80 0.05837
1036.90 0.05835
1037.00 0.05832
1037.10 0.0583
1037.20 0.05828
1037.30 0.05826
1037.40 0.05824
1037.50 0.05821
1037.60 0.05819
1037.70 0.05817
1037.80 0.05815
1037.90 0.05813
1038.00 0.0581
1038.10 0.05808
1038.20 0.05806
1038.30 0.05804
1038.40 0.05802
1038.50 0.058
1038.60 0.05797
1038.70 0.05795
1038.80 0.05793
1038.90 0.05791
1039.00 0.05789
1039.10 0.05787
1039.20 0.05784
1039.30 0.05782
1039.40 0.0578
1039.50 0.05778
1039.60 0.05776
1039.70 0.05774
1039.80 0.05771
1039.90 0.05769
1040.00 0.05767
1040.10 0.05765
1040.20 0.05763
1040.30 0.05761
1040.40 0.05758
1040.50 0.05756
1040.60 0.05754
1040.70 0.05752
1040.80 0.0575
1040.90 0.05748
1041.00 0.05745
1041.10 0.05743
1041.20 0.05741
1041.30 0.05739
1041.40 0.05737
1041.50 0.05735
1041.60 0.05732
1041.70 0.0573
1041.80 0.05728
1041.90 0.05726
1042.00 0.05724
1042.10 0.05722
1042.20 0.0572
1042.30 0.05717
1042.40 0.05715
1042.50 0.05713
1042.60 0.05711
1042.70 0.05709
1042.80 0.05707
1042.90 0.05705
1043.00 0.05702
1043.10 0.057
1043.20 0.05698
1043.30 0.05696
1043.40 0.05694
1043.50 0.05692
1043.60 0.0569
1043.70 0.05688
1043.80 0.05685
1043.90 0.05683
1044.00 0.05681
1044.10 0.05679
1044.20 0.05677
1044.30 0.05675
1044.40 0.05673
1044.50 0.05671
1044.60 0.05668
1044.70 0.05666
1044.80 0.05664
1044.90 0.05662
1045.00 0.0566
1045.10 0.05658
1045.20 0.05656
1045.30 0.05654
1045.40 0.05651
1045.50 0.05649
1045.60 0.05647
1045.70 0.05645
1045.80 0.05643
1045.90 0.05641
1046.00 0.05639
1046.10 0.05637
1046.20 0.05635
1046.30 0.05632
1046.40 0.0563
1046.50 0.05628
1046.60 0.05626
1046.70 0.05624
1046.80 0.05622
1046.90 0.0562
1047.00 0.05618
1047.10 0.05616
1047.20 0.05614
1047.30 0.05611
1047.40 0.05609
1047.50 0.05607
1047.60 0.05605
1047.70 0.05603
1047.80 0.05601
1047.90 0.05599
1048.00 0.05597
1048.10 0.05595
1048.20 0.05593
1048.30 0.05591
1048.40 0.05588
1048.50 0.05586
1048.60 0.05584
1048.70 0.05582
1048.80 0.0558
1048.90 0.05578
1049.00 0.05576
1049.10 0.05574
1049.20 0.05572
1049.30 0.0557
1049.40 0.05568
1049.50 0.05566
1049.60 0.05564
1049.70 0.05561
1049.80 0.05559
1049.90 0.05557
1050.00 0.05555
1050.10 0.05553
1050.20 0.05551
1050.30 0.05549
1050.40 0.05547
1050.50 0.05545
1050.60 0.05543
1050.70 0.05541
1050.80 0.05539
1050.90 0.05537
1051.00 0.05535
1051.10 0.05532
1051.20 0.0553
1051.30 0.05528
1051.40 0.05526
1051.50 0.05524
1051.60 0.05522
1051.70 0.0552
1051.80 0.05518
1051.90 0.05516
1052.00 0.05514
1052.10 0.05512
1052.20 0.0551
1052.30 0.05508
1052.40 0.05506
1052.50 0.05504
1052.60 0.05502
1052.70 0.055
1052.80 0.05498
1052.90 0.05495
1053.00 0.05493
1053.10 0.05491
1053.20 0.05489
1053.30 0.05487
1053.40 0.05485
1053.50 0.05483
1053.60 0.05481
1053.70 0.05479
1053.80 0.05477
1053.90 0.05475
1054.00 0.05473
1054.10 0.05471
1054.20 0.05469
1054.30 0.05467
1054.40 0.05465
1054.50 0.05463
1054.60 0.05461
1054.70 0.05459
1054.80 0.05457
1054.90 0.05455
1055.00 0.05453
1055.10 0.05451
1055.20 0.05449
1055.30 0.05447
1055.40 0.05445
1055.50 0.05443
1055.60 0.05441
1055.70 0.05439
1055.80 0.05437
1055.90 0.05435
1056.00 0.05432
1056.10 0.0543
1056.20 0.05428
1056.30 0.05426
1056.40 0.05424
1056.50 0.05422
1056.60 0.0542
1056.70 0.05418
1056.80 0.05416
1056.90 0.05414
1057.00 0.05412
1057.10 0.0541
1057.20 0.05408
1057.30 0.05406
1057.40 0.05404
1057.50 0.05402
1057.60 0.054
1057.70 0.05398
1057.80 0.05396
1057.90 0.05394
1058.00 0.05392
1058.10 0.0539
1058.20 0.05388
1058.30 0.05386
1058.40 0.05384
1058.50 0.05382
1058.60 0.0538
1058.70 0.05378
1058.80 0.05376
1058.90 0.05374
1059.00 0.05372
1059.10 0.0537
1059.20 0.05368
1059.30 0.05366
1059.40 0.05364
1059.50 0.05362
1059.60 0.0536
1059.70 0.05358
1059.80 0.05356
1059.90 0.05354
1060.00 0.05352
1060.10 0.0535
1060.20 0.05348
1060.30 0.05346
1060.40 0.05344
1060.50 0.05342
1060.60 0.05341
1060.70 0.05339
1060.80 0.05337
1060.90 0.05335
1061.00 0.05333
1061.10 0.05331
1061.20 0.05329
1061.30 0.05327
1061.40 0.05325
1061.50 0.05323
1061.60 0.05321
1061.70 0.05319
1061.80 0.05317
1061.90 0.05315
1062.00 0.05313
1062.10 0.05311
1062.20 0.05309
1062.30 0.05307
1062.40 0.05305
1062.50 0.05303
1062.60 0.05301
1062.70 0.05299
1062.80 0.05297
1062.90 0.05295
1063.00 0.05293
1063.10 0.05291
1063.20 0.05289
1063.30 0.05287
1063.40 0.05285
1063.50 0.05283
1063.60 0.05281
1063.70 0.05279
1063.80 0.05278
1063.90 0.05276
1064.00 0.05274
1064.10 0.05272
1064.20 0.0527
1064.30 0.05268
1064.40 0.05266
1064.50 0.05264
1064.60 0.05262
1064.70 0.0526
1064.80 0.05258
1064.90 0.05256
1065.00 0.05254
1065.10 0.05252
1065.20 0.0525
1065.30 0.05248
1065.40 0.05246
1065.50 0.05244
1065.60 0.05242
1065.70 0.05241
1065.80 0.05239
1065.90 0.05237
1066.00 0.05235
1066.10 0.05233
1066.20 0.05231
1066.30 0.05229
1066.40 0.05227
1066.50 0.05225
1066.60 0.05223
1066.70 0.05221
1066.80 0.05219
1066.90 0.05217
1067.00 0.05215
1067.10 0.05213
1067.20 0.05211
1067.30 0.0521
1067.40 0.05208
1067.50 0.05206
1067.60 0.05204
1067.70 0.05202
1067.80 0.052
1067.90 0.05198
1068.00 0.05196
1068.10 0.05194
1068.20 0.05192
1068.30 0.0519
1068.40 0.05188
1068.50 0.05186
1068.60 0.05184
1068.70 0.05183
1068.80 0.05181
1068.90 0.05179
1069.00 0.05177
1069.10 0.05175
1069.20 0.05173
1069.30 0.05171
1069.40 0.05169
1069.50 0.05167
1069.60 0.05165
1069.70 0.05163
1069.80 0.05161
1069.90 0.0516
1070.00 0.05158
1070.10 0.05156
1070.20 0.05154
1070.30 0.05152
1070.40 0.0515
1070.50 0.05148
1070.60 0.05146
1070.70 0.05144
1070.80 0.05142
1070.90 0.0514
1071.00 0.05139
1071.10 0.05137
1071.20 0.05135
1071.30 0.05133
1071.40 0.05131
1071.50 0.05129
1071.60 0.05127
1071.70 0.05125
1071.80 0.05123
1071.90 0.05121
1072.00 0.05119
1072.10 0.05118
1072.20 0.05116
1072.30 0.05114
1072.40 0.05112
1072.50 0.0511
1072.60 0.05108
1072.70 0.05106
1072.80 0.05104
1072.90 0.05102
1073.00 0.051
1073.10 0.05099
1073.20 0.05097
1073.30 0.05095
1073.40 0.05093
1073.50 0.05091
1073.60 0.05089
1073.70 0.05087
1073.80 0.05085
1073.90 0.05083
1074.00 0.05082
1074.10 0.0508
1074.20 0.05078
1074.30 0.05076
1074.40 0.05074
1074.50 0.05072
1074.60 0.0507
1074.70 0.05068
1074.80 0.05066
1074.90 0.05064
1075.00 0.05063
1075.10 0.05061
1075.20 0.05059
1075.30 0.05057
1075.40 0.05055
1075.50 0.05053
1075.60 0.05051
1075.70 0.05049
1075.80 0.05047
1075.90 0.05046
1076.00 0.05044
1076.10 0.05042
1076.20 0.0504
1076.30 0.05038
1076.40 0.05036
1076.50 0.05034
1076.60 0.05032
1076.70 0.0503
1076.80 0.05029
1076.90 0.05027
1077.00 0.05025
1077.10 0.05023
1077.20 0.05021
1077.30 0.05019
1077.40 0.05017
1077.50 0.05015
1077.60 0.05014
1077.70 0.05012
1077.80 0.0501
1077.90 0.05008
1078.00 0.05006
1078.10 0.05004
1078.20 0.05002
1078.30 0.05
1078.40 0.04998
1078.50 0.04997
1078.60 0.04995
1078.70 0.04993
1078.80 0.04991
1078.90 0.04989
1079.00 0.04987
1079.10 0.04985
1079.20 0.04983
1079.30 0.04981
1079.40 0.0498
1079.50 0.04978
1079.60 0.04976
1079.70 0.04974
1079.80 0.04972
1079.90 0.0497
1080.00 0.04968
1080.10 0.04966
1080.20 0.04965
1080.30 0.04963
1080.40 0.04961
1080.50 0.04959
1080.60 0.04957
1080.70 0.04955
1080.80 0.04953
1080.90 0.04951
1081.00 0.04949
1081.10 0.04948
1081.20 0.04946
1081.30 0.04944
1081.40 0.04942
1081.50 0.0494
1081.60 0.04938
1081.70 0.04936
1081.80 0.04934
1081.90 0.04932
1082.00 0.04931
1082.10 0.04929
1082.20 0.04927
1082.30 0.04925
1082.40 0.04923
1082.50 0.04921
1082.60 0.04919
1082.70 0.04917
1082.80 0.04915
1082.90 0.04914
1083.00 0.04912
1083.10 0.0491
1083.20 0.04908
1083.30 0.04906
1083.40 0.04904
1083.50 0.04902
1083.60 0.049
1083.70 0.04899
1083.80 0.04897
1083.90 0.04895
1084.00 0.04893
1084.10 0.04891
1084.20 0.04889
1084.30 0.04887
1084.40 0.04885
1084.50 0.04883
1084.60 0.04882
1084.70 0.0488
1084.80 0.04878
1084.90 0.04876
1085.00 0.04874
1085.10 0.04872
1085.20 0.0487
1085.30 0.04868
1085.40 0.04866
1085.50 0.04865
1085.60 0.04863
1085.70 0.04861
1085.80 0.04859
1085.90 0.04857
1086.00 0.04855
1086.10 0.04853
1086.20 0.04851
1086.30 0.0485
1086.40 0.04848
1086.50 0.04846
1086.60 0.04844
1086.70 0.04842
1086.80 0.0484
1086.90 0.04838
1087.00 0.04836
1087.10 0.04835
1087.20 0.04833
1087.30 0.04831
1087.40 0.04829
1087.50 0.04827
1087.60 0.04825
1087.70 0.04824
1087.80 0.04822
1087.90 0.0482
1088.00 0.04818
1088.10 0.04816
1088.20 0.04814
1088.30 0.04813
1088.40 0.04811
1088.50 0.04809
1088.60 0.04807
1088.70 0.04805
1088.80 0.04804
1088.90 0.04802
1089.00 0.048
1089.10 0.04799
1089.20 0.04797
1089.30 0.04795
1089.40 0.04793
1089.50 0.04792
1089.60 0.0479
1089.70 0.04788
1089.80 0.04786
1089.90 0.04785
1090.00 0.04783
1090.10 0.04781
1090.20 0.0478
1090.30 0.04778
1090.40 0.04776
1090.50 0.04774
1090.60 0.04773
1090.70 0.04771
1090.80 0.0477
1090.90 0.04768
1091.00 0.04767
1091.10 0.04765
1091.20 0.04764
1091.30 0.04762
1091.40 0.04761
1091.50 0.04759
1091.60 0.04758
1091.70 0.04756
1091.80 0.04755
1091.90 0.04754
1092.00 0.04752
1092.10 0.04751
1092.20 0.0475
1092.30 0.04748
1092.40 0.04747
1092.50 0.04746
1092.60 0.04745
1092.70 0.04743
1092.80 0.04742
1092.90 0.04741
1093.00 0.0474
1093.10 0.04739
1093.20 0.04739
1093.30 0.04738
1093.40 0.04738
1093.50 0.04738
1093.60 0.0474
1093.70 0.0474
1093.80 0.0474
1093.90 0.04738
1094.00 0.04734
1094.10 0.0473
1094.20 0.04725
1094.30 0.04722
1094.40 0.04719
1094.50 0.04717
1094.60 0.04714
1094.70 0.04712
1094.80 0.04709
1094.90 0.04707
1095.00 0.04704
1095.10 0.04702
1095.20 0.047
1095.30 0.04698
1095.40 0.04696
1095.50 0.04694
1095.60 0.04692
1095.70 0.0469
1095.80 0.04688
1095.90 0.04686
1096.00 0.04684
1096.10 0.04682
1096.20 0.0468
1096.30 0.04678
1096.40 0.04676
1096.50 0.04674
1096.60 0.04672
1096.70 0.04671
1096.80 0.04669
1096.90 0.04667
1097.00 0.04665
1097.10 0.04663
1097.20 0.04662
1097.30 0.0466
1097.40 0.04658
1097.50 0.04657
1097.60 0.04655
1097.70 0.04653
1097.80 0.04652
1097.90 0.0465
1098.00 0.04648
1098.10 0.04647
1098.20 0.04645
1098.30 0.04643
1098.40 0.04642
1098.50 0.0464
1098.60 0.04639
1098.70 0.04637
1098.80 0.04635
1098.90 0.04634
1099.00 0.04632
1099.10 0.04631
1099.20 0.04629
1099.30 0.04628
1099.40 0.04626
1099.50 0.04624
1099.60 0.04623
1099.70 0.04621
1099.80 0.0462
1099.90 0.04618
1100.00 0.04617
1100.10 0.04615
1100.20 0.04614
1100.30 0.04612
1100.40 0.04611
1100.50 0.04609
1100.60 0.04607
1100.70 0.04606
1100.80 0.04604
1100.90 0.04603
1101.00 0.04601
1101.10 0.046
1101.20 0.04598
1101.30 0.04597
1101.40 0.04595
1101.50 0.04594
1101.60 0.04592
1101.70 0.04591
1101.80 0.04589
1101.90 0.04588
1102.00 0.04586
1102.10 0.04585
1102.20 0.04583
1102.30 0.04582
1102.40 0.0458
1102.50 0.04579
1102.60 0.04577
1102.70 0.04576
1102.80 0.04574
1102.90 0.04573
1103.00 0.04571
1103.10 0.0457
1103.20 0.04568
1103.30 0.04567
1103.40 0.04565
1103.50 0.04564
1103.60 0.04562
1103.70 0.04561
1103.80 0.04559
1103.90 0.04558
1104.00 0.04556
1104.10 0.04555
1104.20 0.04553
1104.30 0.04552
1104.40 0.0455
1104.50 0.04549
1104.60 0.04547
1104.70 0.04546
1104.80 0.04544
1104.90 0.04543
1105.00 0.04541
1105.10 0.0454
1105.20 0.04538
1105.30 0.04537
1105.40 0.04535
1105.50 0.04534
1105.60 0.04532
1105.70 0.04531
1105.80 0.04529
1105.90 0.04528
1106.00 0.04526
1106.10 0.04525
1106.20 0.04523
1106.30 0.04521
1106.40 0.0452
1106.50 0.04518
1106.60 0.04517
1106.70 0.04515
1106.80 0.04514
1106.90 0.04512
1107.00 0.04511
1107.10 0.04509
1107.20 0.04508
1107.30 0.04506
1107.40 0.04505
1107.50 0.04503
1107.60 0.04502
1107.70 0.045
1107.80 0.04499
1107.90 0.04497
1108.00 0.04496
1108.10 0.04494
1108.20 0.04493
1108.30 0.04491
1108.40 0.0449
1108.50 0.04488
1108.60 0.04487
1108.70 0.04485
1108.80 0.04484
1108.90 0.04482
1109.00 0.04481
1109.10 0.04479
1109.20 0.04477
1109.30 0.04476
1109.40 0.04474
1109.50 0.04473
1109.60 0.04471
1109.70 0.0447
1109.80 0.04468
1109.90 0.04467
1110.00 0.04465
1110.10 0.04464
1110.20 0.04462
1110.30 0.04461
1110.40 0.04459
1110.50 0.04458
1110.60 0.04456
1110.70 0.04455
1110.80 0.04453
1110.90 0.04452
1111.00 0.0445
1111.10 0.04449
1111.20 0.04447
1111.30 0.04446
1111.40 0.04444
1111.50 0.04443
1111.60 0.04441
1111.70 0.04439
1111.80 0.04438
1111.90 0.04436
1112.00 0.04435
1112.10 0.04433
1112.20 0.04432
1112.30 0.0443
1112.40 0.04429
1112.50 0.04427
1112.60 0.04426
1112.70 0.04424
1112.80 0.04423
1112.90 0.04421
1113.00 0.0442
1113.10 0.04418
1113.20 0.04417
1113.30 0.04415
1113.40 0.04414
1113.50 0.04412
1113.60 0.04411
1113.70 0.04409
1113.80 0.04408
1113.90 0.04406
1114.00 0.04405
1114.10 0.04403
1114.20 0.04402
1114.30 0.044
1114.40 0.04399
1114.50 0.04397
1114.60 0.04395
1114.70 0.04394
1114.80 0.04392
1114.90 0.04391
1115.00 0.04389
1115.10 0.04388
1115.20 0.04386
1115.30 0.04385
1115.40 0.04383
1115.50 0.04382
1115.60 0.0438
1115.70 0.04379
1115.80 0.04377
1115.90 0.04376
1116.00 0.04374
1116.10 0.04373
1116.20 0.04371
1116.30 0.0437
1116.40 0.04368
1116.50 0.04367
1116.60 0.04365
1116.70 0.04364
1116.80 0.04362
1116.90 0.04361
1117.00 0.04359
1117.10 0.04358
1117.20 0.04356
1117.30 0.04355
1117.40 0.04353
1117.50 0.04352
1117.60 0.0435
1117.70 0.04349
1117.80 0.04347
1117.90 0.04346
1118.00 0.04344
1118.10 0.04343
1118.20 0.04341
1118.30 0.0434
1118.40 0.04338
1118.50 0.04337
1118.60 0.04335
1118.70 0.04334
1118.80 0.04332
1118.90 0.04331
1119.00 0.04329
1119.10 0.04328
1119.20 0.04326
1119.30 0.04325
1119.40 0.04323
1119.50 0.04322
1119.60 0.0432
1119.70 0.04319
1119.80 0.04317
1119.90 0.04316
1120.00 0.04314
1120.10 0.04313
1120.20 0.04311
1120.30 0.0431
1120.40 0.04308
1120.50 0.04307
1120.60 0.04305
1120.70 0.04304
1120.80 0.04302
1120.90 0.04301
1121.00 0.04299
1121.10 0.04298
1121.20 0.04296
1121.30 0.04295
1121.40 0.04293
1121.50 0.04292
1121.60 0.0429
1121.70 0.04289
1121.80 0.04287
1121.90 0.04286
1122.00 0.04284
1122.10 0.04283
1122.20 0.04282
1122.30 0.0428
1122.40 0.04279
1122.50 0.04277
1122.60 0.04276
1122.70 0.04274
1122.80 0.04273
1122.90 0.04271
1123.00 0.0427
1123.10 0.04268
1123.20 0.04267
1123.30 0.04265
1123.40 0.04264
1123.50 0.04262
1123.60 0.04261
1123.70 0.04259
1123.80 0.04258
1123.90 0.04256
1124.00 0.04255
1124.10 0.04253
1124.20 0.04252
1124.30 0.04251
1124.40 0.04249
1124.50 0.04248
1124.60 0.04246
1124.70 0.04245
1124.80 0.04243
1124.90 0.04242
1125.00 0.0424
1125.10 0.04239
1125.20 0.04237
1125.30 0.04236
1125.40 0.04234
1125.50 0.04233
1125.60 0.04231
1125.70 0.0423
1125.80 0.04229
1125.90 0.04227
1126.00 0.04226
1126.10 0.04224
1126.20 0.04223
1126.30 0.04221
1126.40 0.0422
1126.50 0.04218
1126.60 0.04217
1126.70 0.04215
1126.80 0.04214
1126.90 0.04212
1127.00 0.04211
1127.10 0.0421
1127.20 0.04208
1127.30 0.04207
1127.40 0.04205
1127.50 0.04204
1127.60 0.04202
1127.70 0.04201
1127.80 0.04199
1127.90 0.04198
1128.00 0.04196
1128.10 0.04195
1128.20 0.04194
1128.30 0.04192
1128.40 0.04191
1128.50 0.04189
1128.60 0.04188
1128.70 0.04186
1128.80 0.04185
1128.90 0.04183
1129.00 0.04182
1129.10 0.04181
1129.20 0.04179
1129.30 0.04178
1129.40 0.04176
1129.50 0.04175
1129.60 0.04173
1129.70 0.04172
1129.80 0.0417
1129.90 0.04169
1130.00 0.04168
1130.10 0.04166
1130.20 0.04165
1130.30 0.04163
1130.40 0.04162
1130.50 0.0416
1130.60 0.04159
1130.70 0.04157
1130.80 0.04156
1130.90 0.04155
1131.00 0.04153
1131.10 0.04152
1131.20 0.0415
1131.30 0.04149
1131.40 0.04147
1131.50 0.04146
1131.60 0.04145
1131.70 0.04143
1131.80 0.04142
1131.90 0.0414
1132.00 0.04139
1132.10 0.04137
1132.20 0.04136
1132.30 0.04135
1132.40 0.04133
1132.50 0.04132
1132.60 0.0413
1132.70 0.04129
1132.80 0.04127
1132.90 0.04126
1133.00 0.04125
1133.10 0.04123
1133.20 0.04122
1133.30 0.0412
1133.40 0.04119
1133.50 0.04118
1133.60 0.04116
1133.70 0.04115
1133.80 0.04113
1133.90 0.04112
1134.00 0.0411
1134.10 0.04109
1134.20 0.04108
1134.30 0.04106
1134.40 0.04105
1134.50 0.04103
1134.60 0.04102
1134.70 0.04101
1134.80 0.04099
1134.90 0.04098
1135.00 0.04096
1135.10 0.04095
1135.20 0.04094
1135.30 0.04092
1135.40 0.04091
1135.50 0.04089
1135.60 0.04088
1135.70 0.04086
1135.80 0.04085
1135.90 0.04084
1136.00 0.04082
1136.10 0.04081
1136.20 0.04079
1136.30 0.04078
1136.40 0.04077
1136.50 0.04075
1136.60 0.04074
1136.70 0.04072
1136.80 0.04071
1136.90 0.0407
1137.00 0.04068
1137.10 0.04067
1137.20 0.04065
1137.30 0.04064
1137.40 0.04063
1137.50 0.04061
1137.60 0.0406
1137.70 0.04058
1137.80 0.04057
1137.90 0.04056
1138.00 0.04054
1138.10 0.04053
1138.20 0.04051
1138.30 0.0405
1138.40 0.04049
1138.50 0.04047
1138.60 0.04046
1138.70 0.04045
1138.80 0.04043
1138.90 0.04042
1139.00 0.0404
1139.10 0.04039
1139.20 0.04038
1139.30 0.04036
1139.40 0.04035
1139.50 0.04033
1139.60 0.04032
1139.70 0.04031
1139.80 0.04029
1139.90 0.04028
1140.00 0.04027
1140.10 0.04025
1140.20 0.04024
1140.30 0.04022
1140.40 0.04021
1140.50 0.0402
1140.60 0.04018
1140.70 0.04017
1140.80 0.04015
1140.90 0.04014
1141.00 0.04013
1141.10 0.04011
1141.20 0.0401
1141.30 0.04009
1141.40 0.04007
1141.50 0.04006
1141.60 0.04004
1141.70 0.04003
1141.80 0.04002
1141.90 0.04
1142.00 0.03999
1142.10 0.03998
1142.20 0.03996
1142.30 0.03995
1142.40 0.03994
1142.50 0.03992
1142.60 0.03991
1142.70 0.03989
1142.80 0.03988
1142.90 0.03987
1143.00 0.03985
1143.10 0.03984
1143.20 0.03983
1143.30 0.03981
1143.40 0.0398
1143.50 0.03979
1143.60 0.03977
1143.70 0.03976
1143.80 0.03974
1143.90 0.03973
1144.00 0.03972
1144.10 0.0397
1144.20 0.03969
1144.30 0.03968
1144.40 0.03966
1144.50 0.03965
1144.60 0.03964
1144.70 0.03962
1144.80 0.03961
1144.90 0.0396
1145.00 0.03958
1145.10 0.03957
1145.20 0.03955
1145.30 0.03954
1145.40 0.03953
1145.50 0.03951
1145.60 0.0395
1145.70 0.03949
1145.80 0.03947
1145.90 0.03946
1146.00 0.03945
1146.10 0.03943
1146.20 0.03942
1146.30 0.03941
1146.40 0.03939
1146.50 0.03938
1146.60 0.03937
1146.70 0.03935
1146.80 0.03934
1146.90 0.03933
1147.00 0.03931
1147.10 0.0393
1147.20 0.03929
1147.30 0.03927
1147.40 0.03926
1147.50 0.03925
1147.60 0.03923
1147.70 0.03922
1147.80 0.03921
1147.90 0.03919
1148.00 0.03918
1148.10 0.03917
1148.20 0.03915
1148.30 0.03914
1148.40 0.03913
1148.50 0.03911
1148.60 0.0391
1148.70 0.03909
1148.80 0.03907
1148.90 0.03906
1149.00 0.03905
1149.10 0.03903
1149.20 0.03902
1149.30 0.03901
1149.40 0.03899
1149.50 0.03898
1149.60 0.03897
1149.70 0.03895
1149.80 0.03894
1149.90 0.03893
1150.00 0.03891
1150.10 0.0389
1150.20 0.03889
1150.30 0.03887
1150.40 0.03886
1150.50 0.03885
1150.60 0.03883
1150.70 0.03882
1150.80 0.03881
1150.90 0.03879
1151.00 0.03878
1151.10 0.03877
1151.20 0.03875
1151.30 0.03874
1151.40 0.03873
1151.50 0.03871
1151.60 0.0387
1151.70 0.03869
1151.80 0.03867
1151.90 0.03866
1152.00 0.03865
1152.10 0.03864
1152.20 0.03862
1152.30 0.03861
1152.40 0.0386
1152.50 0.03858
1152.60 0.03857
1152.70 0.03856
1152.80 0.03854
1152.90 0.03853
1153.00 0.03852
1153.10 0.0385
1153.20 0.03849
1153.30 0.03848
1153.40 0.03847
1153.50 0.03845
1153.60 0.03844
1153.70 0.03843
1153.80 0.03841
1153.90 0.0384
1154.00 0.03839
1154.10 0.03837
1154.20 0.03836
1154.30 0.03835
1154.40 0.03834
1154.50 0.03832
1154.60 0.03831
1154.70 0.0383
1154.80 0.03828
1154.90 0.03827
1155.00 0.03826
1155.10 0.03824
1155.20 0.03823
1155.30 0.03822
1155.40 0.03821
1155.50 0.03819
1155.60 0.03818
1155.70 0.03817
1155.80 0.03815
1155.90 0.03814
1156.00 0.03813
1156.10 0.03811
1156.20 0.0381
1156.30 0.03809
1156.40 0.03808
1156.50 0.03806
1156.60 0.03805
1156.70 0.03804
1156.80 0.03802
1156.90 0.03801
1157.00 0.038
1157.10 0.03799
1157.20 0.03797
1157.30 0.03796
1157.40 0.03795
1157.50 0.03793
1157.60 0.03792
1157.70 0.03791
1157.80 0.0379
1157.90 0.03788
1158.00 0.03787
1158.10 0.03786
1158.20 0.03784
1158.30 0.03783
1158.40 0.03782
1158.50 0.03781
1158.60 0.03779
1158.70 0.03778
1158.80 0.03777
1158.90 0.03776
1159.00 0.03774
1159.10 0.03773
1159.20 0.03772
1159.30 0.0377
1159.40 0.03769
1159.50 0.03768
1159.60 0.03767
1159.70 0.03765
1159.80 0.03764
1159.90 0.03763
1160.00 0.03762
1160.10 0.0376
1160.20 0.03759
1160.30 0.03758
1160.40 0.03756
1160.50 0.03755
1160.60 0.03754
1160.70 0.03753
1160.80 0.03751
1160.90 0.0375
1161.00 0.03749
1161.10 0.03748
1161.20 0.03746
1161.30 0.03745
1161.40 0.03744
1161.50 0.03743
1161.60 0.03741
1161.70 0.0374
1161.80 0.03739
1161.90 0.03737
1162.00 0.03736
1162.10 0.03735
1162.20 0.03734
1162.30 0.03732
1162.40 0.03731
1162.50 0.0373
1162.60 0.03729
1162.70 0.03727
1162.80 0.03726
1162.90 0.03725
1163.00 0.03724
1163.10 0.03722
1163.20 0.03721
1163.30 0.0372
1163.40 0.03719
1163.50 0.03717
1163.60 0.03716
1163.70 0.03715
1163.80 0.03714
1163.90 0.03712
1164.00 0.03711
1164.10 0.0371
1164.20 0.03709
1164.30 0.03707
1164.40 0.03706
1164.50 0.03705
1164.60 0.03704
1164.70 0.03702
1164.80 0.03701
1164.90 0.037
1165.00 0.03699
1165.10 0.03697
1165.20 0.03696
1165.30 0.03695
1165.40 0.03694
1165.50 0.03692
1165.60 0.03691
1165.70 0.0369
1165.80 0.03689
1165.90 0.03688
1166.00 0.03686
1166.10 0.03685
1166.20 0.03684
1166.30 0.03683
1166.40 0.03681
1166.50 0.0368
1166.60 0.03679
1166.70 0.03678
1166.80 0.03676
1166.90 0.03675
1167.00 0.03674
1167.10 0.03673
1167.20 0.03671
1167.30 0.0367
1167.40 0.03669
1167.50 0.03668
1167.60 0.03667
1167.70 0.03665
1167.80 0.03664
1167.90 0.03663
1168.00 0.03662
1168.10 0.0366
1168.20 0.03659
1168.30 0.03658
1168.40 0.03657
1168.50 0.03655
1168.60 0.03654
1168.70 0.03653
1168.80 0.03652
1168.90 0.03651
1169.00 0.03649
1169.10 0.03648
1169.20 0.03647
1169.30 0.03646
1169.40 0.03644
1169.50 0.03643
1169.60 0.03642
1169.70 0.03641
1169.80 0.0364
1169.90 0.03638
1170.00 0.03637
1170.10 0.03636
1170.20 0.03635
1170.30 0.03633
1170.40 0.03632
1170.50 0.03631
1170.60 0.0363
1170.70 0.03629
1170.80 0.03627
1170.90 0.03626
1171.00 0.03625
1171.10 0.03624
1171.20 0.03623
1171.30 0.03621
1171.40 0.0362
1171.50 0.03619
1171.60 0.03618
1171.70 0.03616
1171.80 0.03615
1171.90 0.03614
1172.00 0.03613
1172.10 0.03612
1172.20 0.0361
1172.30 0.03609
1172.40 0.03608
1172.50 0.03607
1172.60 0.03606
1172.70 0.03604
1172.80 0.03603
1172.90 0.03602
1173.00 0.03601
1173.10 0.036
1173.20 0.03598
1173.30 0.03597
1173.40 0.03596
1173.50 0.03595
1173.60 0.03594
1173.70 0.03592
1173.80 0.03591
1173.90 0.0359
1174.00 0.03589
1174.10 0.03588
1174.20 0.03586
1174.30 0.03585
1174.40 0.03584
1174.50 0.03583
1174.60 0.03582
1174.70 0.0358
1174.80 0.03579
1174.90 0.03578
1175.00 0.03577
1175.10 0.03576
1175.20 0.03575
1175.30 0.03573
1175.40 0.03572
1175.50 0.03571
1175.60 0.0357
1175.70 0.03569
1175.80 0.03567
1175.90 0.03566
1176.00 0.03565
1176.10 0.03564
1176.20 0.03563
1176.30 0.03561
1176.40 0.0356
1176.50 0.03559
1176.60 0.03558
1176.70 0.03557
1176.80 0.03555
1176.90 0.03554
1177.00 0.03553
1177.10 0.03552
1177.20 0.03551
1177.30 0.0355
1177.40 0.03548
1177.50 0.03547
1177.60 0.03546
1177.70 0.03545
1177.80 0.03544
1177.90 0.03543
1178.00 0.03541
1178.10 0.0354
1178.20 0.03539
1178.30 0.03538
1178.40 0.03537
1178.50 0.03535
1178.60 0.03534
1178.70 0.03533
1178.80 0.03532
1178.90 0.03531
1179.00 0.0353
1179.10 0.03528
1179.20 0.03527
1179.30 0.03526
1179.40 0.03525
1179.50 0.03524
1179.60 0.03523
1179.70 0.03521
1179.80 0.0352
1179.90 0.03519
1180.00 0.03518
1180.10 0.03517
1180.20 0.03516
1180.30 0.03514
1180.40 0.03513
1180.50 0.03512
1180.60 0.03511
1180.70 0.0351
1180.80 0.03509
1180.90 0.03507
1181.00 0.03506
1181.10 0.03505
1181.20 0.03504
1181.30 0.03503
1181.40 0.03502
1181.50 0.035
1181.60 0.03499
1181.70 0.03498
1181.80 0.03497
1181.90 0.03496
1182.00 0.03495
1182.10 0.03493
1182.20 0.03492
1182.30 0.03491
1182.40 0.0349
1182.50 0.03489
1182.60 0.03488
1182.70 0.03486
1182.80 0.03485
1182.90 0.03484
1183.00 0.03483
1183.10 0.03482
1183.20 0.03481
1183.30 0.0348
1183.40 0.03478
1183.50 0.03477
1183.60 0.03476
1183.70 0.03475
1183.80 0.03474
1183.90 0.03473
1184.00 0.03472
1184.10 0.0347
1184.20 0.03469
1184.30 0.03468
1184.40 0.03467
1184.50 0.03466
1184.60 0.03465
1184.70 0.03464
1184.80 0.03462
1184.90 0.03461
1185.00 0.0346
1185.10 0.03459
1185.20 0.03458
1185.30 0.03457
1185.40 0.03455
1185.50 0.03454
1185.60 0.03453
1185.70 0.03452
1185.80 0.03451
1185.90 0.0345
1186.00 0.03449
1186.10 0.03447
1186.20 0.03446
1186.30 0.03445
1186.40 0.03444
1186.50 0.03443
1186.60 0.03442
1186.70 0.03441
1186.80 0.0344
1186.90 0.03438
1187.00 0.03437
1187.10 0.03436
1187.20 0.03435
1187.30 0.03434
1187.40 0.03433
1187.50 0.03432
1187.60 0.0343
1187.70 0.03429
1187.80 0.03428
1187.90 0.03427
1188.00 0.03426
1188.10 0.03425
1188.20 0.03424
1188.30 0.03423
1188.40 0.03421
1188.50 0.0342
1188.60 0.03419
1188.70 0.03418
1188.80 0.03417
1188.90 0.03416
1189.00 0.03415
1189.10 0.03414
1189.20 0.03412
1189.30 0.03411
1189.40 0.0341
1189.50 0.03409
1189.60 0.03408
1189.70 0.03407
1189.80 0.03406
1189.90 0.03405
1190.00 0.03403
1190.10 0.03402
1190.20 0.03401
1190.30 0.034
1190.40 0.03399
1190.50 0.03398
1190.60 0.03397
1190.70 0.03396
1190.80 0.03394
1190.90 0.03393
1191.00 0.03392
1191.10 0.03391
1191.20 0.0339
1191.30 0.03389
1191.40 0.03388
1191.50 0.03387
1191.60 0.03386
1191.70 0.03384
1191.80 0.03383
1191.90 0.03382
1192.00 0.03381
1192.10 0.0338
1192.20 0.03379
1192.30 0.03378
1192.40 0.03377
1192.50 0.03376
1192.60 0.03374
1192.70 0.03373
1192.80 0.03372
1192.90 0.03371
1193.00 0.0337
1193.10 0.03369
1193.20 0.03368
1193.30 0.03367
1193.40 0.03366
1193.50 0.03364
1193.60 0.03363
1193.70 0.03362
1193.80 0.03361
1193.90 0.0336
1194.00 0.03359
1194.10 0.03358
1194.20 0.03357
1194.30 0.03356
1194.40 0.03355
1194.50 0.03353
1194.60 0.03352
1194.70 0.03351
1194.80 0.0335
1194.90 0.03349
1195.00 0.03348
1195.10 0.03347
1195.20 0.03346
1195.30 0.03345
1195.40 0.03344
1195.50 0.03342
1195.60 0.03341
1195.70 0.0334
1195.80 0.03339
1195.90 0.03338
1196.00 0.03337
1196.10 0.03336
1196.20 0.03335
1196.30 0.03334
1196.40 0.03333
1196.50 0.03332
1196.60 0.0333
1196.70 0.03329
1196.80 0.03328
1196.90 0.03327
1197.00 0.03326
1197.10 0.03325
1197.20 0.03324
1197.30 0.03323
1197.40 0.03322
1197.50 0.03321
1197.60 0.0332
1197.70 0.03318
1197.80 0.03317
1197.90 0.03316
1198.00 0.03315
1198.10 0.03314
1198.20 0.03313
1198.30 0.03312
1198.40 0.03311
1198.50 0.0331
1198.60 0.03309
1198.70 0.03308
1198.80 0.03307
1198.90 0.03305
1199.00 0.03304
1199.10 0.03303
1199.20 0.03302
1199.30 0.03301
1199.40 0.033
1199.50 0.03299
1199.60 0.03298
1199.70 0.03297
1199.80 0.03296
1199.90 0.03295
1200.00 0
