# Version 2.1 - nm, norm@500 to 1, cut digits, bergeron_40000_85.dat_40000
# Wavelength(nm)  Flambda(ergs/cm^s/s/nm)
300.00 5.872
300.10 5.865
300.20 5.858
300.30 5.851
300.40 5.845
300.50 5.838
300.60 5.831
300.70 5.824
300.80 5.817
300.90 5.81
301.00 5.803
301.10 5.796
301.20 5.79
301.30 5.783
301.40 5.776
301.50 5.769
301.60 5.762
301.70 5.755
301.80 5.749
301.90 5.742
302.00 5.735
302.10 5.728
302.20 5.722
302.30 5.715
302.40 5.708
302.50 5.702
302.60 5.695
302.70 5.688
302.80 5.681
302.90 5.675
303.00 5.668
303.10 5.661
303.20 5.655
303.30 5.648
303.40 5.642
303.50 5.635
303.60 5.628
303.70 5.622
303.80 5.615
303.90 5.609
304.00 5.602
304.10 5.595
304.20 5.589
304.30 5.582
304.40 5.576
304.50 5.569
304.60 5.563
304.70 5.556
304.80 5.55
304.90 5.543
305.00 5.537
305.10 5.53
305.20 5.524
305.30 5.518
305.40 5.511
305.50 5.505
305.60 5.498
305.70 5.492
305.80 5.486
305.90 5.479
306.00 5.473
306.10 5.466
306.20 5.46
306.30 5.454
306.40 5.447
306.50 5.441
306.60 5.435
306.70 5.428
306.80 5.422
306.90 5.416
307.00 5.41
307.10 5.403
307.20 5.397
307.30 5.391
307.40 5.384
307.50 5.378
307.60 5.372
307.70 5.366
307.80 5.36
307.90 5.353
308.00 5.347
308.10 5.341
308.20 5.335
308.30 5.329
308.40 5.323
308.50 5.316
308.60 5.31
308.70 5.304
308.80 5.298
308.90 5.292
309.00 5.286
309.10 5.28
309.20 5.274
309.30 5.268
309.40 5.261
309.50 5.255
309.60 5.249
309.70 5.243
309.80 5.237
309.90 5.231
310.00 5.225
310.10 5.219
310.20 5.213
310.30 5.207
310.40 5.201
310.50 5.195
310.60 5.189
310.70 5.183
310.80 5.177
310.90 5.172
311.00 5.166
311.10 5.16
311.20 5.154
311.30 5.148
311.40 5.142
311.50 5.136
311.60 5.13
311.70 5.124
311.80 5.118
311.90 5.113
312.00 5.107
312.10 5.101
312.20 5.095
312.30 5.089
312.40 5.084
312.50 5.078
312.60 5.072
312.70 5.066
312.80 5.06
312.90 5.055
313.00 5.049
313.10 5.043
313.20 5.037
313.30 5.032
313.40 5.026
313.50 5.02
313.60 5.014
313.70 5.009
313.80 5.003
313.90 4.997
314.00 4.992
314.10 4.986
314.20 4.98
314.30 4.975
314.40 4.969
314.50 4.963
314.60 4.958
314.70 4.952
314.80 4.947
314.90 4.941
315.00 4.935
315.10 4.93
315.20 4.924
315.30 4.919
315.40 4.913
315.50 4.907
315.60 4.902
315.70 4.896
315.80 4.891
315.90 4.885
316.00 4.88
316.10 4.874
316.20 4.869
316.30 4.863
316.40 4.858
316.50 4.852
316.60 4.847
316.70 4.841
316.80 4.836
316.90 4.83
317.00 4.825
317.10 4.82
317.20 4.814
317.30 4.809
317.40 4.803
317.50 4.798
317.60 4.793
317.70 4.787
317.80 4.782
317.90 4.776
318.00 4.771
318.10 4.766
318.20 4.76
318.30 4.755
318.40 4.75
318.50 4.744
318.60 4.739
318.70 4.734
318.80 4.728
318.90 4.723
319.00 4.718
319.10 4.713
319.20 4.707
319.30 4.702
319.40 4.697
319.50 4.691
319.60 4.686
319.70 4.681
319.80 4.676
319.90 4.671
320.00 4.665
320.10 4.66
320.20 4.655
320.30 4.65
320.40 4.645
320.50 4.639
320.60 4.634
320.70 4.629
320.80 4.624
320.90 4.619
321.00 4.614
321.10 4.608
321.20 4.603
321.30 4.598
321.40 4.593
321.50 4.588
321.60 4.583
321.70 4.578
321.80 4.573
321.90 4.568
322.00 4.563
322.10 4.557
322.20 4.552
322.30 4.547
322.40 4.542
322.50 4.537
322.60 4.532
322.70 4.527
322.80 4.522
322.90 4.517
323.00 4.512
323.10 4.507
323.20 4.502
323.30 4.497
323.40 4.492
323.50 4.487
323.60 4.482
323.70 4.477
323.80 4.472
323.90 4.467
324.00 4.463
324.10 4.458
324.20 4.453
324.30 4.448
324.40 4.443
324.50 4.438
324.60 4.433
324.70 4.428
324.80 4.423
324.90 4.418
325.00 4.414
325.10 4.409
325.20 4.404
325.30 4.399
325.40 4.394
325.50 4.389
325.60 4.385
325.70 4.38
325.80 4.375
325.90 4.37
326.00 4.365
326.10 4.361
326.20 4.356
326.30 4.351
326.40 4.346
326.50 4.341
326.60 4.337
326.70 4.332
326.80 4.327
326.90 4.322
327.00 4.318
327.10 4.313
327.20 4.308
327.30 4.304
327.40 4.299
327.50 4.294
327.60 4.289
327.70 4.285
327.80 4.28
327.90 4.275
328.00 4.271
328.10 4.266
328.20 4.261
328.30 4.257
328.40 4.252
328.50 4.247
328.60 4.243
328.70 4.238
328.80 4.234
328.90 4.229
329.00 4.224
329.10 4.22
329.20 4.215
329.30 4.211
329.40 4.206
329.50 4.201
329.60 4.197
329.70 4.192
329.80 4.188
329.90 4.183
330.00 4.179
330.10 4.174
330.20 4.17
330.30 4.165
330.40 4.161
330.50 4.156
330.60 4.152
330.70 4.147
330.80 4.143
330.90 4.138
331.00 4.134
331.10 4.129
331.20 4.125
331.30 4.12
331.40 4.116
331.50 4.111
331.60 4.107
331.70 4.102
331.80 4.098
331.90 4.094
332.00 4.089
332.10 4.085
332.20 4.08
332.30 4.076
332.40 4.072
332.50 4.067
332.60 4.063
332.70 4.058
332.80 4.054
332.90 4.05
333.00 4.045
333.10 4.041
333.20 4.037
333.30 4.032
333.40 4.028
333.50 4.024
333.60 4.019
333.70 4.015
333.80 4.011
333.90 4.006
334.00 4.002
334.10 3.998
334.20 3.993
334.30 3.989
334.40 3.985
334.50 3.981
334.60 3.976
334.70 3.972
334.80 3.968
334.90 3.964
335.00 3.959
335.10 3.955
335.20 3.951
335.30 3.947
335.40 3.942
335.50 3.938
335.60 3.934
335.70 3.93
335.80 3.926
335.90 3.921
336.00 3.917
336.10 3.913
336.20 3.909
336.30 3.905
336.40 3.901
336.50 3.896
336.60 3.892
336.70 3.888
336.80 3.884
336.90 3.88
337.00 3.876
337.10 3.872
337.20 3.867
337.30 3.863
337.40 3.859
337.50 3.855
337.60 3.851
337.70 3.847
337.80 3.843
337.90 3.839
338.00 3.835
338.10 3.831
338.20 3.826
338.30 3.822
338.40 3.818
338.50 3.814
338.60 3.81
338.70 3.806
338.80 3.802
338.90 3.798
339.00 3.794
339.10 3.79
339.20 3.786
339.30 3.782
339.40 3.778
339.50 3.774
339.60 3.77
339.70 3.766
339.80 3.762
339.90 3.758
340.00 3.754
340.10 3.75
340.20 3.746
340.30 3.742
340.40 3.738
340.50 3.734
340.60 3.731
340.70 3.727
340.80 3.723
340.90 3.719
341.00 3.715
341.10 3.711
341.20 3.707
341.30 3.703
341.40 3.699
341.50 3.695
341.60 3.691
341.70 3.687
341.80 3.684
341.90 3.68
342.00 3.676
342.10 3.672
342.20 3.668
342.30 3.664
342.40 3.66
342.50 3.657
342.60 3.653
342.70 3.649
342.80 3.645
342.90 3.641
343.00 3.638
343.10 3.634
343.20 3.63
343.30 3.626
343.40 3.622
343.50 3.619
343.60 3.615
343.70 3.611
343.80 3.607
343.90 3.603
344.00 3.6
344.10 3.596
344.20 3.592
344.30 3.588
344.40 3.585
344.50 3.581
344.60 3.577
344.70 3.573
344.80 3.57
344.90 3.566
345.00 3.562
345.10 3.559
345.20 3.555
345.30 3.551
345.40 3.547
345.50 3.544
345.60 3.54
345.70 3.536
345.80 3.533
345.90 3.529
346.00 3.525
346.10 3.522
346.20 3.518
346.30 3.514
346.40 3.511
346.50 3.507
346.60 3.503
346.70 3.5
346.80 3.496
346.90 3.493
347.00 3.489
347.10 3.485
347.20 3.482
347.30 3.478
347.40 3.474
347.50 3.471
347.60 3.467
347.70 3.464
347.80 3.46
347.90 3.457
348.00 3.453
348.10 3.449
348.20 3.446
348.30 3.442
348.40 3.439
348.50 3.435
348.60 3.432
348.70 3.428
348.80 3.425
348.90 3.421
349.00 3.417
349.10 3.414
349.20 3.41
349.30 3.407
349.40 3.403
349.50 3.4
349.60 3.396
349.70 3.393
349.80 3.389
349.90 3.386
350.00 3.382
350.10 3.379
350.20 3.375
350.30 3.372
350.40 3.369
350.50 3.365
350.60 3.362
350.70 3.358
350.80 3.355
350.90 3.351
351.00 3.348
351.10 3.344
351.20 3.341
351.30 3.338
351.40 3.334
351.50 3.331
351.60 3.327
351.70 3.324
351.80 3.32
351.90 3.317
352.00 3.314
352.10 3.31
352.20 3.307
352.30 3.304
352.40 3.3
352.50 3.297
352.60 3.293
352.70 3.29
352.80 3.287
352.90 3.283
353.00 3.28
353.10 3.277
353.20 3.273
353.30 3.27
353.40 3.267
353.50 3.263
353.60 3.26
353.70 3.257
353.80 3.253
353.90 3.25
354.00 3.247
354.10 3.243
354.20 3.24
354.30 3.237
354.40 3.234
354.50 3.23
354.60 3.227
354.70 3.224
354.80 3.22
354.90 3.217
355.00 3.214
355.10 3.211
355.20 3.207
355.30 3.204
355.40 3.201
355.50 3.198
355.60 3.194
355.70 3.191
355.80 3.188
355.90 3.185
356.00 3.181
356.10 3.178
356.20 3.175
356.30 3.172
356.40 3.169
356.50 3.165
356.60 3.162
356.70 3.159
356.80 3.156
356.90 3.153
357.00 3.149
357.10 3.146
357.20 3.143
357.30 3.14
357.40 3.137
357.50 3.134
357.60 3.13
357.70 3.127
357.80 3.124
357.90 3.121
358.00 3.118
358.10 3.115
358.20 3.111
358.30 3.108
358.40 3.105
358.50 3.102
358.60 3.099
358.70 3.096
358.80 3.093
358.90 3.09
359.00 3.087
359.10 3.083
359.20 3.08
359.30 3.077
359.40 3.074
359.50 3.071
359.60 3.068
359.70 3.065
359.80 3.062
359.90 3.059
360.00 3.056
360.10 3.053
360.20 3.05
360.30 3.047
360.40 3.043
360.50 3.04
360.60 3.037
360.70 3.034
360.80 3.031
360.90 3.028
361.00 3.025
361.10 3.022
361.20 3.019
361.30 3.016
361.40 3.013
361.50 3.01
361.60 3.007
361.70 3.004
361.80 3.001
361.90 2.998
362.00 2.995
362.10 2.992
362.20 2.989
362.30 2.986
362.40 2.983
362.50 2.98
362.60 2.977
362.70 2.974
362.80 2.971
362.90 2.968
363.00 2.965
363.10 2.963
363.20 2.96
363.30 2.957
363.40 2.954
363.50 2.951
363.60 2.948
363.70 2.945
363.80 2.942
363.90 2.939
364.00 2.936
364.10 2.933
364.20 2.93
364.30 2.927
364.40 2.925
364.50 2.922
364.60 2.919
364.70 2.916
364.80 2.913
364.90 2.91
365.00 2.907
365.10 2.904
365.20 2.901
365.30 2.899
365.40 2.896
365.50 2.893
365.60 2.89
365.70 2.887
365.80 2.884
365.90 2.881
366.00 2.879
366.10 2.876
366.20 2.873
366.30 2.87
366.40 2.867
366.50 2.864
366.60 2.861
366.70 2.858
366.80 2.855
366.90 2.852
367.00 2.849
367.10 2.846
367.20 2.843
367.30 2.841
367.40 2.838
367.50 2.835
367.60 2.832
367.70 2.829
367.80 2.826
367.90 2.823
368.00 2.82
368.10 2.817
368.20 2.814
368.30 2.811
368.40 2.809
368.50 2.806
368.60 2.803
368.70 2.8
368.80 2.797
368.90 2.794
369.00 2.791
369.10 2.788
369.20 2.785
369.30 2.782
369.40 2.779
369.50 2.776
369.60 2.774
369.70 2.771
369.80 2.768
369.90 2.765
370.00 2.762
370.10 2.759
370.20 2.756
370.30 2.754
370.40 2.751
370.50 2.748
370.60 2.745
370.70 2.742
370.80 2.739
370.90 2.737
371.00 2.734
371.10 2.731
371.20 2.728
371.30 2.725
371.40 2.723
371.50 2.72
371.60 2.717
371.70 2.714
371.80 2.711
371.90 2.709
372.00 2.706
372.10 2.703
372.20 2.701
372.30 2.698
372.40 2.695
372.50 2.693
372.60 2.69
372.70 2.687
372.80 2.685
372.90 2.682
373.00 2.679
373.10 2.677
373.20 2.674
373.30 2.671
373.40 2.669
373.50 2.666
373.60 2.663
373.70 2.661
373.80 2.658
373.90 2.656
374.00 2.653
374.10 2.65
374.20 2.648
374.30 2.645
374.40 2.642
374.50 2.64
374.60 2.637
374.70 2.634
374.80 2.632
374.90 2.629
375.00 2.626
375.10 2.624
375.20 2.621
375.30 2.619
375.40 2.616
375.50 2.613
375.60 2.611
375.70 2.608
375.80 2.605
375.90 2.603
376.00 2.6
376.10 2.598
376.20 2.595
376.30 2.593
376.40 2.59
376.50 2.587
376.60 2.585
376.70 2.582
376.80 2.58
376.90 2.577
377.00 2.575
377.10 2.572
377.20 2.57
377.30 2.568
377.40 2.565
377.50 2.563
377.60 2.56
377.70 2.558
377.80 2.556
377.90 2.553
378.00 2.551
378.10 2.548
378.20 2.546
378.30 2.544
378.40 2.541
378.50 2.539
378.60 2.536
378.70 2.534
378.80 2.532
378.90 2.529
379.00 2.527
379.10 2.525
379.20 2.522
379.30 2.52
379.40 2.518
379.50 2.516
379.60 2.513
379.70 2.511
379.80 2.509
379.90 2.506
380.00 2.504
380.10 2.502
380.20 2.5
380.30 2.498
380.40 2.496
380.50 2.493
380.60 2.491
380.70 2.489
380.80 2.487
380.90 2.485
381.00 2.483
381.10 2.481
381.20 2.479
381.30 2.476
381.40 2.474
381.50 2.472
381.60 2.47
381.70 2.468
381.80 2.465
381.90 2.463
382.00 2.461
382.10 2.459
382.20 2.456
382.30 2.454
382.40 2.452
382.50 2.449
382.60 2.447
382.70 2.444
382.80 2.442
382.90 2.44
383.00 2.437
383.10 2.435
383.20 2.433
383.30 2.43
383.40 2.428
383.50 2.426
383.60 2.424
383.70 2.423
383.80 2.421
383.90 2.419
384.00 2.418
384.10 2.416
384.20 2.415
384.30 2.413
384.40 2.412
384.50 2.41
384.60 2.409
384.70 2.407
384.80 2.405
384.90 2.404
385.00 2.402
385.10 2.4
385.20 2.398
385.30 2.397
385.40 2.395
385.50 2.393
385.60 2.391
385.70 2.389
385.80 2.387
385.90 2.384
386.00 2.382
386.10 2.38
386.20 2.378
386.30 2.375
386.40 2.373
386.50 2.37
386.60 2.368
386.70 2.365
386.80 2.363
386.90 2.36
387.00 2.357
387.10 2.354
387.20 2.352
387.30 2.349
387.40 2.346
387.50 2.343
387.60 2.34
387.70 2.337
387.80 2.333
387.90 2.33
388.00 2.327
388.10 2.324
388.20 2.321
388.30 2.318
388.40 2.315
388.50 2.312
388.60 2.31
388.70 2.307
388.80 2.305
388.90 2.303
389.00 2.302
389.10 2.301
389.20 2.3
389.30 2.299
389.40 2.299
389.50 2.298
389.60 2.298
389.70 2.298
389.80 2.298
389.90 2.298
390.00 2.297
390.10 2.297
390.20 2.297
390.30 2.296
390.40 2.296
390.50 2.296
390.60 2.295
390.70 2.295
390.80 2.294
390.90 2.293
391.00 2.293
391.10 2.292
391.20 2.291
391.30 2.29
391.40 2.289
391.50 2.287
391.60 2.286
391.70 2.285
391.80 2.283
391.90 2.282
392.00 2.28
392.10 2.278
392.20 2.277
392.30 2.275
392.40 2.273
392.50 2.27
392.60 2.268
392.70 2.266
392.80 2.263
392.90 2.261
393.00 2.258
393.10 2.255
393.20 2.252
393.30 2.249
393.40 2.246
393.50 2.243
393.60 2.24
393.70 2.236
393.80 2.233
393.90 2.229
394.00 2.225
394.10 2.221
394.20 2.217
394.30 2.213
394.40 2.209
394.50 2.204
394.60 2.2
394.70 2.195
394.80 2.19
394.90 2.185
395.00 2.18
395.10 2.175
395.20 2.17
395.30 2.165
395.40 2.159
395.50 2.154
395.60 2.148
395.70 2.142
395.80 2.136
395.90 2.131
396.00 2.125
396.10 2.119
396.20 2.113
396.30 2.107
396.40 2.101
396.50 2.095
396.60 2.089
396.70 2.083
396.80 2.078
396.90 2.072
397.00 2.068
397.10 2.069
397.20 2.071
397.30 2.073
397.40 2.076
397.50 2.079
397.60 2.082
397.70 2.085
397.80 2.088
397.90 2.091
398.00 2.094
398.10 2.097
398.20 2.1
398.30 2.102
398.40 2.105
398.50 2.108
398.60 2.11
398.70 2.113
398.80 2.115
398.90 2.117
399.00 2.119
399.10 2.121
399.20 2.123
399.30 2.125
399.40 2.127
399.50 2.128
399.60 2.13
399.70 2.131
399.80 2.133
399.90 2.134
400.00 2.135
400.10 2.136
400.20 2.137
400.30 2.137
400.40 2.138
400.50 2.138
400.60 2.139
400.70 2.139
400.80 2.139
400.90 2.14
401.00 2.14
401.10 2.14
401.20 2.139
401.30 2.139
401.40 2.139
401.50 2.138
401.60 2.138
401.70 2.137
401.80 2.136
401.90 2.136
402.00 2.135
402.10 2.134
402.20 2.133
402.30 2.131
402.40 2.13
402.50 2.129
402.60 2.128
402.70 2.126
402.80 2.124
402.90 2.123
403.00 2.121
403.10 2.119
403.20 2.117
403.30 2.115
403.40 2.113
403.50 2.111
403.60 2.109
403.70 2.106
403.80 2.104
403.90 2.101
404.00 2.099
404.10 2.096
404.20 2.093
404.30 2.09
404.40 2.087
404.50 2.084
404.60 2.081
404.70 2.078
404.80 2.074
404.90 2.071
405.00 2.067
405.10 2.063
405.20 2.06
405.30 2.056
405.40 2.052
405.50 2.047
405.60 2.043
405.70 2.039
405.80 2.034
405.90 2.03
406.00 2.025
406.10 2.02
406.20 2.015
406.30 2.01
406.40 2.004
406.50 1.999
406.60 1.993
406.70 1.987
406.80 1.981
406.90 1.975
407.00 1.969
407.10 1.963
407.20 1.956
407.30 1.949
407.40 1.943
407.50 1.936
407.60 1.928
407.70 1.921
407.80 1.913
407.90 1.905
408.00 1.898
408.10 1.889
408.20 1.881
408.30 1.873
408.40 1.864
408.50 1.855
408.60 1.846
408.70 1.837
408.80 1.827
408.90 1.818
409.00 1.808
409.10 1.798
409.20 1.788
409.30 1.779
409.40 1.769
409.50 1.759
409.60 1.75
409.70 1.741
409.80 1.733
409.90 1.726
410.00 1.723
410.10 1.722
410.20 1.723
410.30 1.719
410.40 1.718
410.50 1.72
410.60 1.725
410.70 1.731
410.80 1.737
410.90 1.744
411.00 1.751
411.10 1.758
411.20 1.765
411.30 1.772
411.40 1.778
411.50 1.785
411.60 1.791
411.70 1.797
411.80 1.804
411.90 1.809
412.00 1.815
412.10 1.821
412.20 1.826
412.30 1.831
412.40 1.836
412.50 1.841
412.60 1.845
412.70 1.849
412.80 1.854
412.90 1.858
413.00 1.861
413.10 1.865
413.20 1.869
413.30 1.872
413.40 1.875
413.50 1.878
413.60 1.881
413.70 1.884
413.80 1.886
413.90 1.889
414.00 1.891
414.10 1.893
414.20 1.895
414.30 1.897
414.40 1.899
414.50 1.901
414.60 1.902
414.70 1.904
414.80 1.905
414.90 1.906
415.00 1.907
415.10 1.908
415.20 1.909
415.30 1.91
415.40 1.911
415.50 1.912
415.60 1.913
415.70 1.913
415.80 1.914
415.90 1.914
416.00 1.914
416.10 1.915
416.20 1.915
416.30 1.915
416.40 1.915
416.50 1.915
416.60 1.915
416.70 1.915
416.80 1.915
416.90 1.915
417.00 1.914
417.10 1.914
417.20 1.914
417.30 1.913
417.40 1.913
417.50 1.912
417.60 1.912
417.70 1.911
417.80 1.911
417.90 1.91
418.00 1.909
418.10 1.909
418.20 1.908
418.30 1.907
418.40 1.906
418.50 1.905
418.60 1.904
418.70 1.904
418.80 1.903
418.90 1.902
419.00 1.901
419.10 1.9
419.20 1.899
419.30 1.897
419.40 1.896
419.50 1.895
419.60 1.894
419.70 1.893
419.80 1.892
419.90 1.89
420.00 1.889
420.10 1.888
420.20 1.887
420.30 1.885
420.40 1.884
420.50 1.883
420.60 1.881
420.70 1.88
420.80 1.879
420.90 1.877
421.00 1.876
421.10 1.874
421.20 1.873
421.30 1.871
421.40 1.87
421.50 1.868
421.60 1.867
421.70 1.865
421.80 1.864
421.90 1.862
422.00 1.86
422.10 1.859
422.20 1.857
422.30 1.855
422.40 1.854
422.50 1.852
422.60 1.85
422.70 1.849
422.80 1.847
422.90 1.845
423.00 1.843
423.10 1.841
423.20 1.84
423.30 1.838
423.40 1.836
423.50 1.834
423.60 1.832
423.70 1.83
423.80 1.828
423.90 1.826
424.00 1.824
424.10 1.822
424.20 1.82
424.30 1.818
424.40 1.816
424.50 1.814
424.60 1.812
424.70 1.81
424.80 1.808
424.90 1.806
425.00 1.803
425.10 1.801
425.20 1.799
425.30 1.797
425.40 1.794
425.50 1.792
425.60 1.79
425.70 1.787
425.80 1.785
425.90 1.782
426.00 1.78
426.10 1.777
426.20 1.775
426.30 1.772
426.40 1.769
426.50 1.767
426.60 1.764
426.70 1.761
426.80 1.758
426.90 1.755
427.00 1.752
427.10 1.749
427.20 1.746
427.30 1.743
427.40 1.74
427.50 1.737
427.60 1.734
427.70 1.73
427.80 1.727
427.90 1.724
428.00 1.72
428.10 1.717
428.20 1.713
428.30 1.709
428.40 1.705
428.50 1.702
428.60 1.698
428.70 1.694
428.80 1.689
428.90 1.685
429.00 1.681
429.10 1.677
429.20 1.672
429.30 1.668
429.40 1.663
429.50 1.658
429.60 1.653
429.70 1.648
429.80 1.643
429.90 1.638
430.00 1.632
430.10 1.627
430.20 1.621
430.30 1.616
430.40 1.61
430.50 1.604
430.60 1.597
430.70 1.591
430.80 1.585
430.90 1.578
431.00 1.571
431.10 1.564
431.20 1.557
431.30 1.55
431.40 1.542
431.50 1.534
431.60 1.526
431.70 1.518
431.80 1.51
431.90 1.501
432.00 1.493
432.10 1.484
432.20 1.474
432.30 1.465
432.40 1.456
432.50 1.446
432.60 1.436
432.70 1.425
432.80 1.415
432.90 1.404
433.00 1.394
433.10 1.383
433.20 1.372
433.30 1.36
433.40 1.349
433.50 1.338
433.60 1.327
433.70 1.316
433.80 1.304
433.90 1.292
434.00 1.277
434.10 1.277
434.20 1.29
434.30 1.3
434.40 1.31
434.50 1.319
434.60 1.328
434.70 1.337
434.80 1.346
434.90 1.355
435.00 1.363
435.10 1.372
435.20 1.38
435.30 1.389
435.40 1.397
435.50 1.405
435.60 1.412
435.70 1.419
435.80 1.427
435.90 1.433
436.00 1.44
436.10 1.446
436.20 1.453
436.30 1.459
436.40 1.464
436.50 1.47
436.60 1.475
436.70 1.48
436.80 1.485
436.90 1.489
437.00 1.494
437.10 1.498
437.20 1.502
437.30 1.506
437.40 1.51
437.50 1.513
437.60 1.517
437.70 1.52
437.80 1.523
437.90 1.526
438.00 1.529
438.10 1.531
438.20 1.534
438.30 1.536
438.40 1.539
438.50 1.541
438.60 1.543
438.70 1.545
438.80 1.546
438.90 1.548
439.00 1.55
439.10 1.551
439.20 1.553
439.30 1.554
439.40 1.555
439.50 1.556
439.60 1.557
439.70 1.558
439.80 1.559
439.90 1.56
440.00 1.561
440.10 1.561
440.20 1.562
440.30 1.562
440.40 1.563
440.50 1.563
440.60 1.564
440.70 1.564
440.80 1.564
440.90 1.564
441.00 1.564
441.10 1.564
441.20 1.564
441.30 1.564
441.40 1.564
441.50 1.564
441.60 1.564
441.70 1.564
441.80 1.564
441.90 1.563
442.00 1.563
442.10 1.563
442.20 1.562
442.30 1.562
442.40 1.562
442.50 1.561
442.60 1.561
442.70 1.56
442.80 1.56
442.90 1.559
443.00 1.559
443.10 1.558
443.20 1.557
443.30 1.557
443.40 1.556
443.50 1.555
443.60 1.555
443.70 1.554
443.80 1.553
443.90 1.553
444.00 1.552
444.10 1.551
444.20 1.55
444.30 1.549
444.40 1.549
444.50 1.548
444.60 1.547
444.70 1.546
444.80 1.545
444.90 1.544
445.00 1.543
445.10 1.542
445.20 1.542
445.30 1.541
445.40 1.54
445.50 1.539
445.60 1.538
445.70 1.537
445.80 1.536
445.90 1.535
446.00 1.534
446.10 1.533
446.20 1.532
446.30 1.531
446.40 1.53
446.50 1.529
446.60 1.528
446.70 1.527
446.80 1.526
446.90 1.525
447.00 1.524
447.10 1.523
447.20 1.522
447.30 1.52
447.40 1.519
447.50 1.518
447.60 1.517
447.70 1.516
447.80 1.515
447.90 1.514
448.00 1.513
448.10 1.512
448.20 1.511
448.30 1.51
448.40 1.509
448.50 1.507
448.60 1.506
448.70 1.505
448.80 1.504
448.90 1.503
449.00 1.502
449.10 1.501
449.20 1.5
449.30 1.498
449.40 1.497
449.50 1.496
449.60 1.495
449.70 1.494
449.80 1.493
449.90 1.492
450.00 1.491
450.10 1.489
450.20 1.488
450.30 1.487
450.40 1.486
450.50 1.485
450.60 1.484
450.70 1.483
450.80 1.481
450.90 1.48
451.00 1.479
451.10 1.478
451.20 1.477
451.30 1.476
451.40 1.475
451.50 1.473
451.60 1.472
451.70 1.471
451.80 1.47
451.90 1.469
452.00 1.468
452.10 1.466
452.20 1.465
452.30 1.464
452.40 1.463
452.50 1.462
452.60 1.461
452.70 1.459
452.80 1.458
452.90 1.457
453.00 1.456
453.10 1.455
453.20 1.454
453.30 1.453
453.40 1.451
453.50 1.45
453.60 1.449
453.70 1.448
453.80 1.447
453.90 1.446
454.00 1.444
454.10 1.443
454.20 1.442
454.30 1.441
454.40 1.44
454.50 1.439
454.60 1.437
454.70 1.436
454.80 1.435
454.90 1.434
455.00 1.433
455.10 1.432
455.20 1.431
455.30 1.429
455.40 1.428
455.50 1.427
455.60 1.426
455.70 1.425
455.80 1.424
455.90 1.422
456.00 1.421
456.10 1.42
456.20 1.419
456.30 1.418
456.40 1.417
456.50 1.416
456.60 1.414
456.70 1.413
456.80 1.412
456.90 1.411
457.00 1.41
457.10 1.409
457.20 1.407
457.30 1.406
457.40 1.405
457.50 1.404
457.60 1.403
457.70 1.402
457.80 1.401
457.90 1.399
458.00 1.398
458.10 1.397
458.20 1.396
458.30 1.395
458.40 1.394
458.50 1.393
458.60 1.391
458.70 1.39
458.80 1.389
458.90 1.388
459.00 1.387
459.10 1.386
459.20 1.385
459.30 1.383
459.40 1.382
459.50 1.381
459.60 1.38
459.70 1.379
459.80 1.378
459.90 1.377
460.00 1.376
460.10 1.374
460.20 1.373
460.30 1.372
460.40 1.371
460.50 1.37
460.60 1.369
460.70 1.368
460.80 1.366
460.90 1.365
461.00 1.364
461.10 1.363
461.20 1.362
461.30 1.361
461.40 1.36
461.50 1.359
461.60 1.357
461.70 1.356
461.80 1.355
461.90 1.354
462.00 1.353
462.10 1.352
462.20 1.351
462.30 1.35
462.40 1.348
462.50 1.347
462.60 1.346
462.70 1.345
462.80 1.344
462.90 1.343
463.00 1.342
463.10 1.341
463.20 1.339
463.30 1.338
463.40 1.337
463.50 1.336
463.60 1.335
463.70 1.334
463.80 1.333
463.90 1.332
464.00 1.331
464.10 1.329
464.20 1.328
464.30 1.327
464.40 1.326
464.50 1.325
464.60 1.324
464.70 1.323
464.80 1.322
464.90 1.32
465.00 1.319
465.10 1.318
465.20 1.317
465.30 1.316
465.40 1.315
465.50 1.314
465.60 1.313
465.70 1.312
465.80 1.31
465.90 1.309
466.00 1.308
466.10 1.307
466.20 1.306
466.30 1.305
466.40 1.304
466.50 1.303
466.60 1.302
466.70 1.3
466.80 1.299
466.90 1.298
467.00 1.297
467.10 1.296
467.20 1.295
467.30 1.294
467.40 1.293
467.50 1.292
467.60 1.29
467.70 1.289
467.80 1.288
467.90 1.287
468.00 1.286
468.10 1.285
468.20 1.284
468.30 1.283
468.40 1.282
468.50 1.28
468.60 1.279
468.70 1.278
468.80 1.277
468.90 1.276
469.00 1.275
469.10 1.274
469.20 1.273
469.30 1.271
469.40 1.27
469.50 1.269
469.60 1.268
469.70 1.267
469.80 1.266
469.90 1.265
470.00 1.264
470.10 1.262
470.20 1.261
470.30 1.26
470.40 1.259
470.50 1.258
470.60 1.257
470.70 1.256
470.80 1.254
470.90 1.253
471.00 1.252
471.10 1.251
471.20 1.25
471.30 1.249
471.40 1.248
471.50 1.246
471.60 1.245
471.70 1.244
471.80 1.243
471.90 1.242
472.00 1.241
472.10 1.239
472.20 1.238
472.30 1.237
472.40 1.236
472.50 1.235
472.60 1.234
472.70 1.232
472.80 1.231
472.90 1.23
473.00 1.229
473.10 1.228
473.20 1.226
473.30 1.225
473.40 1.224
473.50 1.223
473.60 1.221
473.70 1.22
473.80 1.219
473.90 1.218
474.00 1.217
474.10 1.215
474.20 1.214
474.30 1.213
474.40 1.212
474.50 1.21
474.60 1.209
474.70 1.208
474.80 1.206
474.90 1.205
475.00 1.204
475.10 1.203
475.20 1.201
475.30 1.2
475.40 1.199
475.50 1.197
475.60 1.196
475.70 1.194
475.80 1.193
475.90 1.192
476.00 1.19
476.10 1.189
476.20 1.188
476.30 1.186
476.40 1.185
476.50 1.183
476.60 1.182
476.70 1.18
476.80 1.179
476.90 1.177
477.00 1.176
477.10 1.175
477.20 1.173
477.30 1.171
477.40 1.17
477.50 1.168
477.60 1.166
477.70 1.165
477.80 1.163
477.90 1.162
478.00 1.16
478.10 1.158
478.20 1.157
478.30 1.155
478.40 1.153
478.50 1.151
478.60 1.149
478.70 1.148
478.80 1.146
478.90 1.144
479.00 1.142
479.10 1.14
479.20 1.138
479.30 1.136
479.40 1.134
479.50 1.132
479.60 1.13
479.70 1.128
479.80 1.126
479.90 1.123
480.00 1.121
480.10 1.119
480.20 1.117
480.30 1.114
480.40 1.112
480.50 1.109
480.60 1.107
480.70 1.104
480.80 1.101
480.90 1.099
481.00 1.096
481.10 1.094
481.20 1.091
481.30 1.088
481.40 1.085
481.50 1.081
481.60 1.078
481.70 1.075
481.80 1.072
481.90 1.069
482.00 1.066
482.10 1.063
482.20 1.059
482.30 1.055
482.40 1.051
482.50 1.047
482.60 1.043
482.70 1.039
482.80 1.035
482.90 1.031
483.00 1.027
483.10 1.023
483.20 1.018
483.30 1.013
483.40 1.008
483.50 1.003
483.60 0.9974
483.70 0.9922
483.80 0.9871
483.90 0.9819
484.00 0.9768
484.10 0.9717
484.20 0.9658
484.30 0.9595
484.40 0.9532
484.50 0.947
484.60 0.9407
484.70 0.9339
484.80 0.9268
484.90 0.9197
485.00 0.9126
485.10 0.9055
485.20 0.898
485.30 0.8903
485.40 0.8824
485.50 0.8744
485.60 0.8663
485.70 0.8582
485.80 0.8504
485.90 0.8427
486.00 0.837
486.10 0.8452
486.20 0.8383
486.30 0.8364
486.40 0.8423
486.50 0.8486
486.60 0.8553
486.70 0.8623
486.80 0.869
486.90 0.8757
487.00 0.8822
487.10 0.8885
487.20 0.8944
487.30 0.9001
487.40 0.9058
487.50 0.9115
487.60 0.9172
487.70 0.9223
487.80 0.927
487.90 0.9318
488.00 0.9366
488.10 0.9413
488.20 0.9452
488.30 0.9488
488.40 0.9524
488.50 0.9559
488.60 0.9595
488.70 0.9631
488.80 0.9666
488.90 0.9702
489.00 0.9737
489.10 0.9773
489.20 0.98
489.30 0.9823
489.40 0.9846
489.50 0.9869
489.60 0.9892
489.70 0.9915
489.80 0.9938
489.90 0.9961
490.00 0.9984
490.10 1.001
490.20 1.002
490.30 1.004
490.40 1.005
490.50 1.007
490.60 1.008
490.70 1.009
490.80 1.011
490.90 1.012
491.00 1.014
491.10 1.015
491.20 1.016
491.30 1.017
491.40 1.017
491.50 1.018
491.60 1.019
491.70 1.02
491.80 1.021
491.90 1.021
492.00 1.022
492.10 1.023
492.20 1.023
492.30 1.024
492.40 1.024
492.50 1.024
492.60 1.025
492.70 1.025
492.80 1.025
492.90 1.025
493.00 1.026
493.10 1.026
493.20 1.026
493.30 1.026
493.40 1.026
493.50 1.026
493.60 1.026
493.70 1.026
493.80 1.026
493.90 1.026
494.00 1.026
494.10 1.026
494.20 1.026
494.30 1.026
494.40 1.026
494.50 1.026
494.60 1.025
494.70 1.025
494.80 1.025
494.90 1.025
495.00 1.025
495.10 1.024
495.20 1.024
495.30 1.024
495.40 1.023
495.50 1.023
495.60 1.023
495.70 1.022
495.80 1.022
495.90 1.022
496.00 1.021
496.10 1.021
496.20 1.02
496.30 1.02
496.40 1.02
496.50 1.019
496.60 1.019
496.70 1.018
496.80 1.018
496.90 1.017
497.00 1.017
497.10 1.016
497.20 1.016
497.30 1.015
497.40 1.015
497.50 1.014
497.60 1.014
497.70 1.013
497.80 1.013
497.90 1.012
498.00 1.012
498.10 1.011
498.20 1.011
498.30 1.01
498.40 1.009
498.50 1.009
498.60 1.008
498.70 1.008
498.80 1.007
498.90 1.007
499.00 1.006
499.10 1.005
499.20 1.005
499.30 1.004
499.40 1.004
499.50 1.003
499.60 1.002
499.70 1.002
499.80 1.001
499.90 1.001
500.00 1
500.10 0.9994
500.20 0.9988
500.30 0.9981
500.40 0.9975
500.50 0.9969
500.60 0.9962
500.70 0.9956
500.80 0.9949
500.90 0.9943
501.00 0.9937
501.10 0.993
501.20 0.9924
501.30 0.9917
501.40 0.9911
501.50 0.9904
501.60 0.9898
501.70 0.9891
501.80 0.9885
501.90 0.9878
502.00 0.9872
502.10 0.9865
502.20 0.9859
502.30 0.9852
502.40 0.9845
502.50 0.9839
502.60 0.9832
502.70 0.9825
502.80 0.9819
502.90 0.9812
503.00 0.9806
503.10 0.9799
503.20 0.9792
503.30 0.9785
503.40 0.9779
503.50 0.9772
503.60 0.9765
503.70 0.9759
503.80 0.9752
503.90 0.9745
504.00 0.9738
504.10 0.9732
504.20 0.9725
504.30 0.9718
504.40 0.9711
504.50 0.9705
504.60 0.9698
504.70 0.9691
504.80 0.9684
504.90 0.9678
505.00 0.9671
505.10 0.9664
505.20 0.9657
505.30 0.9651
505.40 0.9644
505.50 0.9637
505.60 0.963
505.70 0.9623
505.80 0.9617
505.90 0.961
506.00 0.9603
506.10 0.9596
506.20 0.9589
506.30 0.9583
506.40 0.9576
506.50 0.9569
506.60 0.9562
506.70 0.9555
506.80 0.9549
506.90 0.9542
507.00 0.9535
507.10 0.9528
507.20 0.9522
507.30 0.9515
507.40 0.9508
507.50 0.9501
507.60 0.9494
507.70 0.9488
507.80 0.9481
507.90 0.9474
508.00 0.9467
508.10 0.9461
508.20 0.9454
508.30 0.9447
508.40 0.944
508.50 0.9433
508.60 0.9427
508.70 0.942
508.80 0.9413
508.90 0.9406
509.00 0.94
509.10 0.9393
509.20 0.9386
509.30 0.9379
509.40 0.9373
509.50 0.9366
509.60 0.9359
509.70 0.9352
509.80 0.9346
509.90 0.9339
510.00 0.9332
510.10 0.9325
510.20 0.9319
510.30 0.9312
510.40 0.9305
510.50 0.9299
510.60 0.9292
510.70 0.9285
510.80 0.9278
510.90 0.9272
511.00 0.9265
511.10 0.9258
511.20 0.9252
511.30 0.9245
511.40 0.9238
511.50 0.9232
511.60 0.9225
511.70 0.9218
511.80 0.9212
511.90 0.9205
512.00 0.9198
512.10 0.9192
512.20 0.9185
512.30 0.9178
512.40 0.9172
512.50 0.9165
512.60 0.9158
512.70 0.9152
512.80 0.9145
512.90 0.9139
513.00 0.9132
513.10 0.9125
513.20 0.9119
513.30 0.9112
513.40 0.9105
513.50 0.9099
513.60 0.9092
513.70 0.9086
513.80 0.9079
513.90 0.9073
514.00 0.9066
514.10 0.9059
514.20 0.9053
514.30 0.9046
514.40 0.904
514.50 0.9033
514.60 0.9027
514.70 0.902
514.80 0.9014
514.90 0.9007
515.00 0.9001
515.10 0.8994
515.20 0.8987
515.30 0.8981
515.40 0.8974
515.50 0.8968
515.60 0.8961
515.70 0.8955
515.80 0.8948
515.90 0.8942
516.00 0.8936
516.10 0.8929
516.20 0.8923
516.30 0.8916
516.40 0.891
516.50 0.8903
516.60 0.8897
516.70 0.889
516.80 0.8884
516.90 0.8877
517.00 0.8871
517.10 0.8865
517.20 0.8858
517.30 0.8852
517.40 0.8845
517.50 0.8839
517.60 0.8833
517.70 0.8826
517.80 0.882
517.90 0.8813
518.00 0.8807
518.10 0.8801
518.20 0.8794
518.30 0.8788
518.40 0.8782
518.50 0.8775
518.60 0.8769
518.70 0.8762
518.80 0.8756
518.90 0.875
519.00 0.8743
519.10 0.8737
519.20 0.8731
519.30 0.8725
519.40 0.8718
519.50 0.8712
519.60 0.8706
519.70 0.8699
519.80 0.8693
519.90 0.8687
520.00 0.868
520.10 0.8674
520.20 0.8668
520.30 0.8662
520.40 0.8655
520.50 0.8649
520.60 0.8643
520.70 0.8637
520.80 0.863
520.90 0.8624
521.00 0.8618
521.10 0.8612
521.20 0.8606
521.30 0.8599
521.40 0.8593
521.50 0.8587
521.60 0.8581
521.70 0.8575
521.80 0.8568
521.90 0.8562
522.00 0.8556
522.10 0.855
522.20 0.8544
522.30 0.8537
522.40 0.8531
522.50 0.8525
522.60 0.8519
522.70 0.8513
522.80 0.8507
522.90 0.8501
523.00 0.8494
523.10 0.8488
523.20 0.8482
523.30 0.8476
523.40 0.847
523.50 0.8464
523.60 0.8458
523.70 0.8452
523.80 0.8446
523.90 0.844
524.00 0.8434
524.10 0.8427
524.20 0.8421
524.30 0.8415
524.40 0.8409
524.50 0.8403
524.60 0.8397
524.70 0.8391
524.80 0.8385
524.90 0.8379
525.00 0.8373
525.10 0.8367
525.20 0.8361
525.30 0.8355
525.40 0.8349
525.50 0.8343
525.60 0.8337
525.70 0.8331
525.80 0.8325
525.90 0.8319
526.00 0.8313
526.10 0.8307
526.20 0.8301
526.30 0.8295
526.40 0.8289
526.50 0.8283
526.60 0.8277
526.70 0.8271
526.80 0.8266
526.90 0.826
527.00 0.8254
527.10 0.8248
527.20 0.8242
527.30 0.8236
527.40 0.823
527.50 0.8224
527.60 0.8218
527.70 0.8212
527.80 0.8207
527.90 0.8201
528.00 0.8195
528.10 0.8189
528.20 0.8183
528.30 0.8177
528.40 0.8171
528.50 0.8166
528.60 0.816
528.70 0.8154
528.80 0.8148
528.90 0.8142
529.00 0.8136
529.10 0.8131
529.20 0.8125
529.30 0.8119
529.40 0.8113
529.50 0.8107
529.60 0.8102
529.70 0.8096
529.80 0.809
529.90 0.8084
530.00 0.8079
530.10 0.8073
530.20 0.8067
530.30 0.8061
530.40 0.8055
530.50 0.805
530.60 0.8044
530.70 0.8038
530.80 0.8033
530.90 0.8027
531.00 0.8021
531.10 0.8015
531.20 0.801
531.30 0.8004
531.40 0.7998
531.50 0.7993
531.60 0.7987
531.70 0.7981
531.80 0.7976
531.90 0.797
532.00 0.7964
532.10 0.7959
532.20 0.7953
532.30 0.7947
532.40 0.7942
532.50 0.7936
532.60 0.793
532.70 0.7925
532.80 0.7919
532.90 0.7913
533.00 0.7908
533.10 0.7902
533.20 0.7897
533.30 0.7891
533.40 0.7885
533.50 0.788
533.60 0.7874
533.70 0.7869
533.80 0.7863
533.90 0.7857
534.00 0.7852
534.10 0.7846
534.20 0.7841
534.30 0.7835
534.40 0.783
534.50 0.7824
534.60 0.7819
534.70 0.7813
534.80 0.7807
534.90 0.7802
535.00 0.7796
535.10 0.7791
535.20 0.7785
535.30 0.778
535.40 0.7774
535.50 0.7769
535.60 0.7763
535.70 0.7758
535.80 0.7752
535.90 0.7747
536.00 0.7741
536.10 0.7736
536.20 0.773
536.30 0.7725
536.40 0.772
536.50 0.7714
536.60 0.7709
536.70 0.7703
536.80 0.7698
536.90 0.7692
537.00 0.7687
537.10 0.7681
537.20 0.7676
537.30 0.7671
537.40 0.7665
537.50 0.766
537.60 0.7654
537.70 0.7649
537.80 0.7644
537.90 0.7638
538.00 0.7633
538.10 0.7628
538.20 0.7622
538.30 0.7617
538.40 0.7611
538.50 0.7606
538.60 0.7601
538.70 0.7595
538.80 0.759
538.90 0.7585
539.00 0.7579
539.10 0.7574
539.20 0.7569
539.30 0.7563
539.40 0.7558
539.50 0.7553
539.60 0.7547
539.70 0.7542
539.80 0.7537
539.90 0.7532
540.00 0.7526
540.10 0.7521
540.20 0.7516
540.30 0.751
540.40 0.7505
540.50 0.75
540.60 0.7495
540.70 0.7489
540.80 0.7484
540.90 0.7479
541.00 0.7474
541.10 0.7468
541.20 0.7463
541.30 0.7458
541.40 0.7453
541.50 0.7447
541.60 0.7442
541.70 0.7437
541.80 0.7432
541.90 0.7427
542.00 0.7421
542.10 0.7416
542.20 0.7411
542.30 0.7406
542.40 0.7401
542.50 0.7396
542.60 0.739
542.70 0.7385
542.80 0.738
542.90 0.7375
543.00 0.737
543.10 0.7365
543.20 0.7359
543.30 0.7354
543.40 0.7349
543.50 0.7344
543.60 0.7339
543.70 0.7334
543.80 0.7329
543.90 0.7324
544.00 0.7318
544.10 0.7313
544.20 0.7308
544.30 0.7303
544.40 0.7298
544.50 0.7293
544.60 0.7288
544.70 0.7283
544.80 0.7278
544.90 0.7273
545.00 0.7268
545.10 0.7263
545.20 0.7257
545.30 0.7252
545.40 0.7247
545.50 0.7242
545.60 0.7237
545.70 0.7232
545.80 0.7227
545.90 0.7222
546.00 0.7217
546.10 0.7212
546.20 0.7207
546.30 0.7202
546.40 0.7197
546.50 0.7192
546.60 0.7187
546.70 0.7182
546.80 0.7177
546.90 0.7172
547.00 0.7167
547.10 0.7162
547.20 0.7157
547.30 0.7152
547.40 0.7147
547.50 0.7142
547.60 0.7137
547.70 0.7133
547.80 0.7128
547.90 0.7123
548.00 0.7118
548.10 0.7113
548.20 0.7108
548.30 0.7103
548.40 0.7098
548.50 0.7093
548.60 0.7088
548.70 0.7083
548.80 0.7078
548.90 0.7073
549.00 0.7069
549.10 0.7064
549.20 0.7059
549.30 0.7054
549.40 0.7049
549.50 0.7044
549.60 0.7039
549.70 0.7034
549.80 0.703
549.90 0.7025
550.00 0.702
550.10 0.7015
550.20 0.701
550.30 0.7005
550.40 0.7001
550.50 0.6996
550.60 0.6991
550.70 0.6986
550.80 0.6981
550.90 0.6976
551.00 0.6972
551.10 0.6967
551.20 0.6962
551.30 0.6957
551.40 0.6952
551.50 0.6948
551.60 0.6943
551.70 0.6938
551.80 0.6933
551.90 0.6928
552.00 0.6924
552.10 0.6919
552.20 0.6914
552.30 0.6909
552.40 0.6905
552.50 0.69
552.60 0.6895
552.70 0.689
552.80 0.6886
552.90 0.6881
553.00 0.6876
553.10 0.6872
553.20 0.6867
553.30 0.6862
553.40 0.6857
553.50 0.6853
553.60 0.6848
553.70 0.6843
553.80 0.6839
553.90 0.6834
554.00 0.6829
554.10 0.6824
554.20 0.682
554.30 0.6815
554.40 0.681
554.50 0.6806
554.60 0.6801
554.70 0.6796
554.80 0.6792
554.90 0.6787
555.00 0.6783
555.10 0.6778
555.20 0.6773
555.30 0.6769
555.40 0.6764
555.50 0.6759
555.60 0.6755
555.70 0.675
555.80 0.6745
555.90 0.6741
556.00 0.6736
556.10 0.6732
556.20 0.6727
556.30 0.6722
556.40 0.6718
556.50 0.6713
556.60 0.6709
556.70 0.6704
556.80 0.67
556.90 0.6695
557.00 0.669
557.10 0.6686
557.20 0.6681
557.30 0.6677
557.40 0.6672
557.50 0.6668
557.60 0.6663
557.70 0.6659
557.80 0.6654
557.90 0.6649
558.00 0.6645
558.10 0.664
558.20 0.6636
558.30 0.6631
558.40 0.6627
558.50 0.6622
558.60 0.6618
558.70 0.6613
558.80 0.6609
558.90 0.6604
559.00 0.66
559.10 0.6595
559.20 0.6591
559.30 0.6586
559.40 0.6582
559.50 0.6577
559.60 0.6573
559.70 0.6569
559.80 0.6564
559.90 0.656
560.00 0.6555
560.10 0.6551
560.20 0.6546
560.30 0.6542
560.40 0.6537
560.50 0.6533
560.60 0.6528
560.70 0.6524
560.80 0.652
560.90 0.6515
561.00 0.6511
561.10 0.6506
561.20 0.6502
561.30 0.6498
561.40 0.6493
561.50 0.6489
561.60 0.6484
561.70 0.648
561.80 0.6476
561.90 0.6471
562.00 0.6467
562.10 0.6462
562.20 0.6458
562.30 0.6454
562.40 0.6449
562.50 0.6445
562.60 0.6441
562.70 0.6436
562.80 0.6432
562.90 0.6428
563.00 0.6423
563.10 0.6419
563.20 0.6415
563.30 0.641
563.40 0.6406
563.50 0.6402
563.60 0.6397
563.70 0.6393
563.80 0.6389
563.90 0.6384
564.00 0.638
564.10 0.6376
564.20 0.6371
564.30 0.6367
564.40 0.6363
564.50 0.6359
564.60 0.6354
564.70 0.635
564.80 0.6346
564.90 0.6341
565.00 0.6337
565.10 0.6333
565.20 0.6329
565.30 0.6324
565.40 0.632
565.50 0.6316
565.60 0.6312
565.70 0.6307
565.80 0.6303
565.90 0.6299
566.00 0.6295
566.10 0.629
566.20 0.6286
566.30 0.6282
566.40 0.6278
566.50 0.6274
566.60 0.6269
566.70 0.6265
566.80 0.6261
566.90 0.6257
567.00 0.6252
567.10 0.6248
567.20 0.6244
567.30 0.624
567.40 0.6236
567.50 0.6232
567.60 0.6227
567.70 0.6223
567.80 0.6219
567.90 0.6215
568.00 0.6211
568.10 0.6206
568.20 0.6202
568.30 0.6198
568.40 0.6194
568.50 0.619
568.60 0.6186
568.70 0.6182
568.80 0.6177
568.90 0.6173
569.00 0.6169
569.10 0.6165
569.20 0.6161
569.30 0.6157
569.40 0.6153
569.50 0.6149
569.60 0.6144
569.70 0.614
569.80 0.6136
569.90 0.6132
570.00 0.6128
570.10 0.6124
570.20 0.612
570.30 0.6116
570.40 0.6112
570.50 0.6108
570.60 0.6104
570.70 0.61
570.80 0.6095
570.90 0.6091
571.00 0.6087
571.10 0.6083
571.20 0.6079
571.30 0.6075
571.40 0.6071
571.50 0.6067
571.60 0.6063
571.70 0.6059
571.80 0.6055
571.90 0.6051
572.00 0.6047
572.10 0.6043
572.20 0.6039
572.30 0.6035
572.40 0.6031
572.50 0.6027
572.60 0.6023
572.70 0.6019
572.80 0.6015
572.90 0.6011
573.00 0.6007
573.10 0.6003
573.20 0.5999
573.30 0.5995
573.40 0.5991
573.50 0.5987
573.60 0.5983
573.70 0.5979
573.80 0.5975
573.90 0.5971
574.00 0.5967
574.10 0.5963
574.20 0.5959
574.30 0.5955
574.40 0.5951
574.50 0.5947
574.60 0.5943
574.70 0.5939
574.80 0.5935
574.90 0.5931
575.00 0.5928
575.10 0.5924
575.20 0.592
575.30 0.5916
575.40 0.5912
575.50 0.5908
575.60 0.5904
575.70 0.59
575.80 0.5896
575.90 0.5892
576.00 0.5888
576.10 0.5885
576.20 0.5881
576.30 0.5877
576.40 0.5873
576.50 0.5869
576.60 0.5865
576.70 0.5861
576.80 0.5857
576.90 0.5854
577.00 0.585
577.10 0.5846
577.20 0.5842
577.30 0.5838
577.40 0.5834
577.50 0.583
577.60 0.5827
577.70 0.5823
577.80 0.5819
577.90 0.5815
578.00 0.5811
578.10 0.5807
578.20 0.5804
578.30 0.58
578.40 0.5796
578.50 0.5792
578.60 0.5788
578.70 0.5784
578.80 0.5781
578.90 0.5777
579.00 0.5773
579.10 0.5769
579.20 0.5765
579.30 0.5762
579.40 0.5758
579.50 0.5754
579.60 0.575
579.70 0.5746
579.80 0.5743
579.90 0.5739
580.00 0.5735
580.10 0.5731
580.20 0.5728
580.30 0.5724
580.40 0.572
580.50 0.5716
580.60 0.5713
580.70 0.5709
580.80 0.5705
580.90 0.5701
581.00 0.5698
581.10 0.5694
581.20 0.569
581.30 0.5686
581.40 0.5683
581.50 0.5679
581.60 0.5675
581.70 0.5672
581.80 0.5668
581.90 0.5664
582.00 0.566
582.10 0.5657
582.20 0.5653
582.30 0.5649
582.40 0.5646
582.50 0.5642
582.60 0.5638
582.70 0.5634
582.80 0.5631
582.90 0.5627
583.00 0.5623
583.10 0.562
583.20 0.5616
583.30 0.5612
583.40 0.5609
583.50 0.5605
583.60 0.5601
583.70 0.5598
583.80 0.5594
583.90 0.559
584.00 0.5587
584.10 0.5583
584.20 0.558
584.30 0.5576
584.40 0.5572
584.50 0.5569
584.60 0.5565
584.70 0.5561
584.80 0.5558
584.90 0.5554
585.00 0.555
585.10 0.5547
585.20 0.5543
585.30 0.554
585.40 0.5536
585.50 0.5532
585.60 0.5529
585.70 0.5525
585.80 0.5522
585.90 0.5518
586.00 0.5514
586.10 0.5511
586.20 0.5507
586.30 0.5504
586.40 0.55
586.50 0.5497
586.60 0.5493
586.70 0.5489
586.80 0.5486
586.90 0.5482
587.00 0.5479
587.10 0.5475
587.20 0.5472
587.30 0.5468
587.40 0.5464
587.50 0.5461
587.60 0.5457
587.70 0.5454
587.80 0.545
587.90 0.5447
588.00 0.5443
588.10 0.544
588.20 0.5436
588.30 0.5433
588.40 0.5429
588.50 0.5426
588.60 0.5422
588.70 0.5419
588.80 0.5415
588.90 0.5412
589.00 0.5408
589.10 0.5404
589.20 0.5401
589.30 0.5397
589.40 0.5394
589.50 0.5391
589.60 0.5387
589.70 0.5384
589.80 0.538
589.90 0.5377
590.00 0.5373
590.10 0.537
590.20 0.5366
590.30 0.5363
590.40 0.5359
590.50 0.5356
590.60 0.5352
590.70 0.5349
590.80 0.5345
590.90 0.5342
591.00 0.5338
591.10 0.5335
591.20 0.5332
591.30 0.5328
591.40 0.5325
591.50 0.5321
591.60 0.5318
591.70 0.5314
591.80 0.5311
591.90 0.5308
592.00 0.5304
592.10 0.5301
592.20 0.5297
592.30 0.5294
592.40 0.529
592.50 0.5287
592.60 0.5284
592.70 0.528
592.80 0.5277
592.90 0.5273
593.00 0.527
593.10 0.5267
593.20 0.5263
593.30 0.526
593.40 0.5256
593.50 0.5253
593.60 0.525
593.70 0.5246
593.80 0.5243
593.90 0.524
594.00 0.5236
594.10 0.5233
594.20 0.523
594.30 0.5226
594.40 0.5223
594.50 0.5219
594.60 0.5216
594.70 0.5213
594.80 0.5209
594.90 0.5206
595.00 0.5203
595.10 0.5199
595.20 0.5196
595.30 0.5193
595.40 0.5189
595.50 0.5186
595.60 0.5183
595.70 0.5179
595.80 0.5176
595.90 0.5173
596.00 0.5169
596.10 0.5166
596.20 0.5163
596.30 0.516
596.40 0.5156
596.50 0.5153
596.60 0.515
596.70 0.5146
596.80 0.5143
596.90 0.514
597.00 0.5136
597.10 0.5133
597.20 0.513
597.30 0.5127
597.40 0.5123
597.50 0.512
597.60 0.5117
597.70 0.5113
597.80 0.511
597.90 0.5107
598.00 0.5104
598.10 0.51
598.20 0.5097
598.30 0.5094
598.40 0.5091
598.50 0.5087
598.60 0.5084
598.70 0.5081
598.80 0.5078
598.90 0.5074
599.00 0.5071
599.10 0.5068
599.20 0.5065
599.30 0.5061
599.40 0.5058
599.50 0.5055
599.60 0.5052
599.70 0.5049
599.80 0.5045
599.90 0.5042
600.00 0.5039
600.10 0.5036
600.20 0.5033
600.30 0.5029
600.40 0.5026
600.50 0.5023
600.60 0.502
600.70 0.5017
600.80 0.5013
600.90 0.501
601.00 0.5007
601.10 0.5004
601.20 0.5001
601.30 0.4997
601.40 0.4994
601.50 0.4991
601.60 0.4988
601.70 0.4985
601.80 0.4982
601.90 0.4978
602.00 0.4975
602.10 0.4972
602.20 0.4969
602.30 0.4966
602.40 0.4963
602.50 0.4959
602.60 0.4956
602.70 0.4953
602.80 0.495
602.90 0.4947
603.00 0.4944
603.10 0.4941
603.20 0.4937
603.30 0.4934
603.40 0.4931
603.50 0.4928
603.60 0.4925
603.70 0.4922
603.80 0.4919
603.90 0.4916
604.00 0.4913
604.10 0.4909
604.20 0.4906
604.30 0.4903
604.40 0.49
604.50 0.4897
604.60 0.4894
604.70 0.4891
604.80 0.4888
604.90 0.4885
605.00 0.4881
605.10 0.4878
605.20 0.4875
605.30 0.4872
605.40 0.4869
605.50 0.4866
605.60 0.4863
605.70 0.486
605.80 0.4857
605.90 0.4854
606.00 0.4851
606.10 0.4848
606.20 0.4845
606.30 0.4842
606.40 0.4838
606.50 0.4835
606.60 0.4832
606.70 0.4829
606.80 0.4826
606.90 0.4823
607.00 0.482
607.10 0.4817
607.20 0.4814
607.30 0.4811
607.40 0.4808
607.50 0.4805
607.60 0.4802
607.70 0.4799
607.80 0.4796
607.90 0.4793
608.00 0.479
608.10 0.4787
608.20 0.4784
608.30 0.4781
608.40 0.4778
608.50 0.4775
608.60 0.4772
608.70 0.4769
608.80 0.4766
608.90 0.4763
609.00 0.476
609.10 0.4757
609.20 0.4754
609.30 0.4751
609.40 0.4748
609.50 0.4745
609.60 0.4742
609.70 0.4739
609.80 0.4736
609.90 0.4733
610.00 0.473
610.10 0.4727
610.20 0.4724
610.30 0.4721
610.40 0.4718
610.50 0.4715
610.60 0.4712
610.70 0.4709
610.80 0.4706
610.90 0.4703
611.00 0.47
611.10 0.4697
611.20 0.4694
611.30 0.4692
611.40 0.4689
611.50 0.4686
611.60 0.4683
611.70 0.468
611.80 0.4677
611.90 0.4674
612.00 0.4671
612.10 0.4668
612.20 0.4665
612.30 0.4662
612.40 0.4659
612.50 0.4656
612.60 0.4653
612.70 0.4651
612.80 0.4648
612.90 0.4645
613.00 0.4642
613.10 0.4639
613.20 0.4636
613.30 0.4633
613.40 0.463
613.50 0.4627
613.60 0.4624
613.70 0.4622
613.80 0.4619
613.90 0.4616
614.00 0.4613
614.10 0.461
614.20 0.4607
614.30 0.4604
614.40 0.4601
614.50 0.4598
614.60 0.4596
614.70 0.4593
614.80 0.459
614.90 0.4587
615.00 0.4584
615.10 0.4581
615.20 0.4578
615.30 0.4576
615.40 0.4573
615.50 0.457
615.60 0.4567
615.70 0.4564
615.80 0.4561
615.90 0.4558
616.00 0.4556
616.10 0.4553
616.20 0.455
616.30 0.4547
616.40 0.4544
616.50 0.4541
616.60 0.4539
616.70 0.4536
616.80 0.4533
616.90 0.453
617.00 0.4527
617.10 0.4524
617.20 0.4522
617.30 0.4519
617.40 0.4516
617.50 0.4513
617.60 0.451
617.70 0.4508
617.80 0.4505
617.90 0.4502
618.00 0.4499
618.10 0.4496
618.20 0.4494
618.30 0.4491
618.40 0.4488
618.50 0.4485
618.60 0.4482
618.70 0.448
618.80 0.4477
618.90 0.4474
619.00 0.4471
619.10 0.4468
619.20 0.4466
619.30 0.4463
619.40 0.446
619.50 0.4457
619.60 0.4455
619.70 0.4452
619.80 0.4449
619.90 0.4446
620.00 0.4444
620.10 0.4441
620.20 0.4438
620.30 0.4435
620.40 0.4432
620.50 0.443
620.60 0.4427
620.70 0.4424
620.80 0.4421
620.90 0.4419
621.00 0.4416
621.10 0.4413
621.20 0.441
621.30 0.4408
621.40 0.4405
621.50 0.4402
621.60 0.44
621.70 0.4397
621.80 0.4394
621.90 0.4391
622.00 0.4389
622.10 0.4386
622.20 0.4383
622.30 0.438
622.40 0.4378
622.50 0.4375
622.60 0.4372
622.70 0.437
622.80 0.4367
622.90 0.4364
623.00 0.4361
623.10 0.4359
623.20 0.4356
623.30 0.4353
623.40 0.4351
623.50 0.4348
623.60 0.4345
623.70 0.4343
623.80 0.434
623.90 0.4337
624.00 0.4334
624.10 0.4332
624.20 0.4329
624.30 0.4326
624.40 0.4324
624.50 0.4321
624.60 0.4318
624.70 0.4316
624.80 0.4313
624.90 0.431
625.00 0.4308
625.10 0.4305
625.20 0.4302
625.30 0.43
625.40 0.4297
625.50 0.4294
625.60 0.4292
625.70 0.4289
625.80 0.4286
625.90 0.4284
626.00 0.4281
626.10 0.4278
626.20 0.4276
626.30 0.4273
626.40 0.427
626.50 0.4268
626.60 0.4265
626.70 0.4262
626.80 0.426
626.90 0.4257
627.00 0.4255
627.10 0.4252
627.20 0.4249
627.30 0.4247
627.40 0.4244
627.50 0.4241
627.60 0.4239
627.70 0.4236
627.80 0.4233
627.90 0.4231
628.00 0.4228
628.10 0.4226
628.20 0.4223
628.30 0.422
628.40 0.4218
628.50 0.4215
628.60 0.4212
628.70 0.421
628.80 0.4207
628.90 0.4205
629.00 0.4202
629.10 0.4199
629.20 0.4197
629.30 0.4194
629.40 0.4192
629.50 0.4189
629.60 0.4186
629.70 0.4184
629.80 0.4181
629.90 0.4179
630.00 0.4176
630.10 0.4173
630.20 0.4171
630.30 0.4168
630.40 0.4166
630.50 0.4163
630.60 0.416
630.70 0.4158
630.80 0.4155
630.90 0.4153
631.00 0.415
631.10 0.4147
631.20 0.4145
631.30 0.4142
631.40 0.414
631.50 0.4137
631.60 0.4135
631.70 0.4132
631.80 0.4129
631.90 0.4127
632.00 0.4124
632.10 0.4122
632.20 0.4119
632.30 0.4116
632.40 0.4114
632.50 0.4111
632.60 0.4109
632.70 0.4106
632.80 0.4104
632.90 0.4101
633.00 0.4098
633.10 0.4096
633.20 0.4093
633.30 0.4091
633.40 0.4088
633.50 0.4086
633.60 0.4083
633.70 0.408
633.80 0.4078
633.90 0.4075
634.00 0.4073
634.10 0.407
634.20 0.4068
634.30 0.4065
634.40 0.4063
634.50 0.406
634.60 0.4057
634.70 0.4055
634.80 0.4052
634.90 0.405
635.00 0.4047
635.10 0.4045
635.20 0.4042
635.30 0.404
635.40 0.4037
635.50 0.4034
635.60 0.4032
635.70 0.4029
635.80 0.4027
635.90 0.4024
636.00 0.4022
636.10 0.4019
636.20 0.4016
636.30 0.4014
636.40 0.4011
636.50 0.4009
636.60 0.4006
636.70 0.4004
636.80 0.4001
636.90 0.3999
637.00 0.3996
637.10 0.3993
637.20 0.3991
637.30 0.3988
637.40 0.3986
637.50 0.3983
637.60 0.3981
637.70 0.3978
637.80 0.3975
637.90 0.3973
638.00 0.397
638.10 0.3968
638.20 0.3965
638.30 0.3963
638.40 0.396
638.50 0.3957
638.60 0.3955
638.70 0.3952
638.80 0.395
638.90 0.3947
639.00 0.3944
639.10 0.3942
639.20 0.3939
639.30 0.3937
639.40 0.3934
639.50 0.3931
639.60 0.3929
639.70 0.3926
639.80 0.3924
639.90 0.3921
640.00 0.3918
640.10 0.3916
640.20 0.3913
640.30 0.3911
640.40 0.3908
640.50 0.3905
640.60 0.3903
640.70 0.39
640.80 0.3897
640.90 0.3895
641.00 0.3892
641.10 0.3889
641.20 0.3887
641.30 0.3884
641.40 0.3881
641.50 0.3879
641.60 0.3876
641.70 0.3873
641.80 0.3871
641.90 0.3868
642.00 0.3865
642.10 0.3863
642.20 0.386
642.30 0.3857
642.40 0.3854
642.50 0.3852
642.60 0.3849
642.70 0.3846
642.80 0.3843
642.90 0.3841
643.00 0.3838
643.10 0.3835
643.20 0.3832
643.30 0.383
643.40 0.3827
643.50 0.3824
643.60 0.3821
643.70 0.3818
643.80 0.3815
643.90 0.3812
644.00 0.381
644.10 0.3807
644.20 0.3804
644.30 0.3801
644.40 0.3798
644.50 0.3795
644.60 0.3792
644.70 0.3789
644.80 0.3786
644.90 0.3783
645.00 0.378
645.10 0.3777
645.20 0.3774
645.30 0.3771
645.40 0.3768
645.50 0.3765
645.60 0.3762
645.70 0.3759
645.80 0.3755
645.90 0.3752
646.00 0.3749
646.10 0.3746
646.20 0.3743
646.30 0.374
646.40 0.3736
646.50 0.3733
646.60 0.3729
646.70 0.3726
646.80 0.3723
646.90 0.3719
647.00 0.3716
647.10 0.3712
647.20 0.3709
647.30 0.3705
647.40 0.3702
647.50 0.3698
647.60 0.3694
647.70 0.369
647.80 0.3687
647.90 0.3683
648.00 0.3679
648.10 0.3675
648.20 0.3672
648.30 0.3668
648.40 0.3663
648.50 0.3659
648.60 0.3655
648.70 0.3651
648.80 0.3646
648.90 0.3642
649.00 0.3638
649.10 0.3634
649.20 0.3629
649.30 0.3625
649.40 0.362
649.50 0.3615
649.60 0.361
649.70 0.3605
649.80 0.36
649.90 0.3595
650.00 0.359
650.10 0.3585
650.20 0.358
650.30 0.3575
650.40 0.3569
650.50 0.3563
650.60 0.3557
650.70 0.3551
650.80 0.3545
650.90 0.3539
651.00 0.3533
651.10 0.3527
651.20 0.3521
651.30 0.3515
651.40 0.3507
651.50 0.35
651.60 0.3492
651.70 0.3485
651.80 0.3477
651.90 0.347
652.00 0.3462
652.10 0.3455
652.20 0.3447
652.30 0.3439
652.40 0.343
652.50 0.342
652.60 0.3411
652.70 0.3401
652.80 0.3391
652.90 0.3382
653.00 0.3372
653.10 0.3363
653.20 0.3353
653.30 0.3343
653.40 0.3331
653.50 0.3318
653.60 0.3306
653.70 0.3293
653.80 0.3281
653.90 0.3268
654.00 0.3256
654.10 0.3243
654.20 0.3231
654.30 0.3218
654.40 0.3202
654.50 0.3187
654.60 0.3172
654.70 0.3157
654.80 0.3141
654.90 0.3124
655.00 0.3106
655.10 0.3089
655.20 0.3072
655.30 0.3054
655.40 0.3035
655.50 0.3016
655.60 0.2997
655.70 0.2977
655.80 0.2957
655.90 0.2937
656.00 0.2917
656.10 0.2897
656.20 0.29
656.30 0.2993
656.40 0.2886
656.50 0.2897
656.60 0.2914
656.70 0.2931
656.80 0.2948
656.90 0.2965
657.00 0.2981
657.10 0.2997
657.20 0.3012
657.30 0.3027
657.40 0.3041
657.50 0.3055
657.60 0.3068
657.70 0.3082
657.80 0.3095
657.90 0.3107
658.00 0.3118
658.10 0.313
658.20 0.3141
658.30 0.3152
658.40 0.3161
658.50 0.317
658.60 0.3178
658.70 0.3187
658.80 0.3195
658.90 0.3204
659.00 0.3212
659.10 0.3221
659.20 0.3229
659.30 0.3237
659.40 0.3243
659.50 0.3248
659.60 0.3254
659.70 0.3259
659.80 0.3265
659.90 0.327
660.00 0.3276
660.10 0.3281
660.20 0.3287
660.30 0.3292
660.40 0.3295
660.50 0.3298
660.60 0.3302
660.70 0.3305
660.80 0.3308
660.90 0.3312
661.00 0.3315
661.10 0.3318
661.20 0.3321
661.30 0.3324
661.40 0.3326
661.50 0.3328
661.60 0.333
661.70 0.3331
661.80 0.3333
661.90 0.3335
662.00 0.3337
662.10 0.3338
662.20 0.334
662.30 0.3342
662.40 0.3342
662.50 0.3343
662.60 0.3344
662.70 0.3344
662.80 0.3345
662.90 0.3346
663.00 0.3347
663.10 0.3347
663.20 0.3348
663.30 0.3348
663.40 0.3348
663.50 0.3348
663.60 0.3348
663.70 0.3348
663.80 0.3348
663.90 0.3348
664.00 0.3348
664.10 0.3348
664.20 0.3348
664.30 0.3348
664.40 0.3347
664.50 0.3347
664.60 0.3346
664.70 0.3346
664.80 0.3345
664.90 0.3345
665.00 0.3344
665.10 0.3344
665.20 0.3343
665.30 0.3343
665.40 0.3342
665.50 0.3341
665.60 0.334
665.70 0.3339
665.80 0.3338
665.90 0.3337
666.00 0.3336
666.10 0.3335
666.20 0.3335
666.30 0.3334
666.40 0.3333
666.50 0.3331
666.60 0.333
666.70 0.3329
666.80 0.3328
666.90 0.3327
667.00 0.3326
667.10 0.3325
667.20 0.3323
667.30 0.3322
667.40 0.3321
667.50 0.332
667.60 0.3318
667.70 0.3317
667.80 0.3316
667.90 0.3314
668.00 0.3313
668.10 0.3312
668.20 0.3311
668.30 0.3309
668.40 0.3308
668.50 0.3306
668.60 0.3305
668.70 0.3304
668.80 0.3302
668.90 0.3301
669.00 0.3299
669.10 0.3298
669.20 0.3296
669.30 0.3295
669.40 0.3294
669.50 0.3292
669.60 0.329
669.70 0.3289
669.80 0.3287
669.90 0.3286
670.00 0.3284
670.10 0.3283
670.20 0.3281
670.30 0.328
670.40 0.3278
670.50 0.3277
670.60 0.3275
670.70 0.3274
670.80 0.3272
670.90 0.327
671.00 0.3269
671.10 0.3267
671.20 0.3266
671.30 0.3264
671.40 0.3262
671.50 0.3261
671.60 0.3259
671.70 0.3258
671.80 0.3256
671.90 0.3254
672.00 0.3253
672.10 0.3251
672.20 0.325
672.30 0.3248
672.40 0.3246
672.50 0.3245
672.60 0.3243
672.70 0.3241
672.80 0.324
672.90 0.3238
673.00 0.3236
673.10 0.3235
673.20 0.3233
673.30 0.3231
673.40 0.323
673.50 0.3228
673.60 0.3226
673.70 0.3225
673.80 0.3223
673.90 0.3221
674.00 0.322
674.10 0.3218
674.20 0.3216
674.30 0.3215
674.40 0.3213
674.50 0.3211
674.60 0.321
674.70 0.3208
674.80 0.3206
674.90 0.3204
675.00 0.3203
675.10 0.3201
675.20 0.3199
675.30 0.3198
675.40 0.3196
675.50 0.3194
675.60 0.3193
675.70 0.3191
675.80 0.3189
675.90 0.3188
676.00 0.3186
676.10 0.3184
676.20 0.3182
676.30 0.3181
676.40 0.3179
676.50 0.3177
676.60 0.3176
676.70 0.3174
676.80 0.3172
676.90 0.317
677.00 0.3169
677.10 0.3167
677.20 0.3165
677.30 0.3164
677.40 0.3162
677.50 0.316
677.60 0.3159
677.70 0.3157
677.80 0.3155
677.90 0.3153
678.00 0.3152
678.10 0.315
678.20 0.3148
678.30 0.3147
678.40 0.3145
678.50 0.3143
678.60 0.3141
678.70 0.314
678.80 0.3138
678.90 0.3136
679.00 0.3135
679.10 0.3133
679.20 0.3131
679.30 0.313
679.40 0.3128
679.50 0.3126
679.60 0.3124
679.70 0.3123
679.80 0.3121
679.90 0.3119
680.00 0.3118
680.10 0.3116
680.20 0.3114
680.30 0.3113
680.40 0.3111
680.50 0.3109
680.60 0.3107
680.70 0.3106
680.80 0.3104
680.90 0.3102
681.00 0.3101
681.10 0.3099
681.20 0.3097
681.30 0.3096
681.40 0.3094
681.50 0.3092
681.60 0.309
681.70 0.3089
681.80 0.3087
681.90 0.3085
682.00 0.3084
682.10 0.3082
682.20 0.308
682.30 0.3079
682.40 0.3077
682.50 0.3075
682.60 0.3074
682.70 0.3072
682.80 0.307
682.90 0.3068
683.00 0.3067
683.10 0.3065
683.20 0.3063
683.30 0.3062
683.40 0.306
683.50 0.3058
683.60 0.3057
683.70 0.3055
683.80 0.3053
683.90 0.3052
684.00 0.305
684.10 0.3048
684.20 0.3047
684.30 0.3045
684.40 0.3043
684.50 0.3042
684.60 0.304
684.70 0.3038
684.80 0.3037
684.90 0.3035
685.00 0.3033
685.10 0.3032
685.20 0.303
685.30 0.3028
685.40 0.3027
685.50 0.3025
685.60 0.3023
685.70 0.3022
685.80 0.302
685.90 0.3018
686.00 0.3017
686.10 0.3015
686.20 0.3013
686.30 0.3012
686.40 0.301
686.50 0.3008
686.60 0.3007
686.70 0.3005
686.80 0.3003
686.90 0.3002
687.00 0.3
687.10 0.2998
687.20 0.2997
687.30 0.2995
687.40 0.2993
687.50 0.2992
687.60 0.299
687.70 0.2988
687.80 0.2987
687.90 0.2985
688.00 0.2983
688.10 0.2982
688.20 0.298
688.30 0.2979
688.40 0.2977
688.50 0.2975
688.60 0.2974
688.70 0.2972
688.80 0.297
688.90 0.2969
689.00 0.2967
689.10 0.2965
689.20 0.2964
689.30 0.2962
689.40 0.2961
689.50 0.2959
689.60 0.2957
689.70 0.2956
689.80 0.2954
689.90 0.2952
690.00 0.2951
690.10 0.2949
690.20 0.2948
690.30 0.2946
690.40 0.2944
690.50 0.2943
690.60 0.2941
690.70 0.2939
690.80 0.2938
690.90 0.2936
691.00 0.2935
691.10 0.2933
691.20 0.2931
691.30 0.293
691.40 0.2928
691.50 0.2927
691.60 0.2925
691.70 0.2923
691.80 0.2922
691.90 0.292
692.00 0.2919
692.10 0.2917
692.20 0.2915
692.30 0.2914
692.40 0.2912
692.50 0.2911
692.60 0.2909
692.70 0.2907
692.80 0.2906
692.90 0.2904
693.00 0.2903
693.10 0.2901
693.20 0.2899
693.30 0.2898
693.40 0.2896
693.50 0.2895
693.60 0.2893
693.70 0.2891
693.80 0.289
693.90 0.2888
694.00 0.2887
694.10 0.2885
694.20 0.2883
694.30 0.2882
694.40 0.288
694.50 0.2879
694.60 0.2877
694.70 0.2875
694.80 0.2874
694.90 0.2872
695.00 0.2871
695.10 0.2869
695.20 0.2868
695.30 0.2866
695.40 0.2864
695.50 0.2863
695.60 0.2861
695.70 0.286
695.80 0.2858
695.90 0.2857
696.00 0.2855
696.10 0.2854
696.20 0.2852
696.30 0.285
696.40 0.2849
696.50 0.2847
696.60 0.2846
696.70 0.2844
696.80 0.2843
696.90 0.2841
697.00 0.2839
697.10 0.2838
697.20 0.2836
697.30 0.2835
697.40 0.2833
697.50 0.2832
697.60 0.283
697.70 0.2829
697.80 0.2827
697.90 0.2826
698.00 0.2824
698.10 0.2822
698.20 0.2821
698.30 0.2819
698.40 0.2818
698.50 0.2816
698.60 0.2815
698.70 0.2813
698.80 0.2812
698.90 0.281
699.00 0.2809
699.10 0.2807
699.20 0.2805
699.30 0.2804
699.40 0.2802
699.50 0.2801
699.60 0.2799
699.70 0.2798
699.80 0.2796
699.90 0.2795
700.00 0.2793
700.10 0.2792
700.20 0.279
700.30 0.2789
700.40 0.2787
700.50 0.2786
700.60 0.2784
700.70 0.2783
700.80 0.2781
700.90 0.278
701.00 0.2778
701.10 0.2776
701.20 0.2775
701.30 0.2773
701.40 0.2772
701.50 0.277
701.60 0.2769
701.70 0.2767
701.80 0.2766
701.90 0.2764
702.00 0.2763
702.10 0.2761
702.20 0.276
702.30 0.2758
702.40 0.2757
702.50 0.2755
702.60 0.2754
702.70 0.2752
702.80 0.2751
702.90 0.2749
703.00 0.2748
703.10 0.2746
703.20 0.2745
703.30 0.2743
703.40 0.2742
703.50 0.274
703.60 0.2739
703.70 0.2737
703.80 0.2736
703.90 0.2734
704.00 0.2733
704.10 0.2731
704.20 0.273
704.30 0.2728
704.40 0.2727
704.50 0.2726
704.60 0.2724
704.70 0.2723
704.80 0.2721
704.90 0.272
705.00 0.2718
705.10 0.2717
705.20 0.2715
705.30 0.2714
705.40 0.2712
705.50 0.2711
705.60 0.2709
705.70 0.2708
705.80 0.2706
705.90 0.2705
706.00 0.2703
706.10 0.2702
706.20 0.2701
706.30 0.2699
706.40 0.2698
706.50 0.2696
706.60 0.2695
706.70 0.2693
706.80 0.2692
706.90 0.269
707.00 0.2689
707.10 0.2687
707.20 0.2686
707.30 0.2684
707.40 0.2683
707.50 0.2682
707.60 0.268
707.70 0.2679
707.80 0.2677
707.90 0.2676
708.00 0.2674
708.10 0.2673
708.20 0.2671
708.30 0.267
708.40 0.2669
708.50 0.2667
708.60 0.2666
708.70 0.2664
708.80 0.2663
708.90 0.2661
709.00 0.266
709.10 0.2658
709.20 0.2657
709.30 0.2656
709.40 0.2654
709.50 0.2653
709.60 0.2651
709.70 0.265
709.80 0.2648
709.90 0.2647
710.00 0.2645
710.10 0.2644
710.20 0.2643
710.30 0.2641
710.40 0.264
710.50 0.2638
710.60 0.2637
710.70 0.2636
710.80 0.2634
710.90 0.2633
711.00 0.2631
711.10 0.263
711.20 0.2628
711.30 0.2627
711.40 0.2626
711.50 0.2624
711.60 0.2623
711.70 0.2621
711.80 0.262
711.90 0.2619
712.00 0.2617
712.10 0.2616
712.20 0.2614
712.30 0.2613
712.40 0.2612
712.50 0.261
712.60 0.2609
712.70 0.2607
712.80 0.2606
712.90 0.2605
713.00 0.2603
713.10 0.2602
713.20 0.26
713.30 0.2599
713.40 0.2598
713.50 0.2596
713.60 0.2595
713.70 0.2593
713.80 0.2592
713.90 0.2591
714.00 0.2589
714.10 0.2588
714.20 0.2586
714.30 0.2585
714.40 0.2584
714.50 0.2582
714.60 0.2581
714.70 0.2579
714.80 0.2578
714.90 0.2577
715.00 0.2575
715.10 0.2574
715.20 0.2572
715.30 0.2571
715.40 0.257
715.50 0.2568
715.60 0.2567
715.70 0.2566
715.80 0.2564
715.90 0.2563
716.00 0.2561
716.10 0.256
716.20 0.2559
716.30 0.2557
716.40 0.2556
716.50 0.2555
716.60 0.2553
716.70 0.2552
716.80 0.2551
716.90 0.2549
717.00 0.2548
717.10 0.2546
717.20 0.2545
717.30 0.2544
717.40 0.2542
717.50 0.2541
717.60 0.254
717.70 0.2538
717.80 0.2537
717.90 0.2536
718.00 0.2534
718.10 0.2533
718.20 0.2532
718.30 0.253
718.40 0.2529
718.50 0.2527
718.60 0.2526
718.70 0.2525
718.80 0.2523
718.90 0.2522
719.00 0.2521
719.10 0.2519
719.20 0.2518
719.30 0.2517
719.40 0.2515
719.50 0.2514
719.60 0.2513
719.70 0.2511
719.80 0.251
719.90 0.2509
720.00 0.2507
720.10 0.2506
720.20 0.2505
720.30 0.2503
720.40 0.2502
720.50 0.2501
720.60 0.2499
720.70 0.2498
720.80 0.2497
720.90 0.2495
721.00 0.2494
721.10 0.2493
721.20 0.2491
721.30 0.249
721.40 0.2489
721.50 0.2487
721.60 0.2486
721.70 0.2485
721.80 0.2483
721.90 0.2482
722.00 0.2481
722.10 0.2479
722.20 0.2478
722.30 0.2477
722.40 0.2475
722.50 0.2474
722.60 0.2473
722.70 0.2472
722.80 0.247
722.90 0.2469
723.00 0.2468
723.10 0.2466
723.20 0.2465
723.30 0.2464
723.40 0.2462
723.50 0.2461
723.60 0.246
723.70 0.2458
723.80 0.2457
723.90 0.2456
724.00 0.2454
724.10 0.2453
724.20 0.2452
724.30 0.2451
724.40 0.2449
724.50 0.2448
724.60 0.2447
724.70 0.2445
724.80 0.2444
724.90 0.2443
725.00 0.2441
725.10 0.244
725.20 0.2439
725.30 0.2438
725.40 0.2436
725.50 0.2435
725.60 0.2434
725.70 0.2432
725.80 0.2431
725.90 0.243
726.00 0.2429
726.10 0.2427
726.20 0.2426
726.30 0.2425
726.40 0.2424
726.50 0.2422
726.60 0.2421
726.70 0.242
726.80 0.2418
726.90 0.2417
727.00 0.2416
727.10 0.2415
727.20 0.2413
727.30 0.2412
727.40 0.2411
727.50 0.2409
727.60 0.2408
727.70 0.2407
727.80 0.2406
727.90 0.2404
728.00 0.2403
728.10 0.2402
728.20 0.2401
728.30 0.2399
728.40 0.2398
728.50 0.2397
728.60 0.2396
728.70 0.2394
728.80 0.2393
728.90 0.2392
729.00 0.239
729.10 0.2389
729.20 0.2388
729.30 0.2387
729.40 0.2385
729.50 0.2384
729.60 0.2383
729.70 0.2382
729.80 0.238
729.90 0.2379
730.00 0.2378
730.10 0.2377
730.20 0.2375
730.30 0.2374
730.40 0.2373
730.50 0.2372
730.60 0.237
730.70 0.2369
730.80 0.2368
730.90 0.2367
731.00 0.2365
731.10 0.2364
731.20 0.2363
731.30 0.2362
731.40 0.2361
731.50 0.2359
731.60 0.2358
731.70 0.2357
731.80 0.2356
731.90 0.2354
732.00 0.2353
732.10 0.2352
732.20 0.2351
732.30 0.2349
732.40 0.2348
732.50 0.2347
732.60 0.2346
732.70 0.2345
732.80 0.2343
732.90 0.2342
733.00 0.2341
733.10 0.234
733.20 0.2338
733.30 0.2337
733.40 0.2336
733.50 0.2335
733.60 0.2334
733.70 0.2332
733.80 0.2331
733.90 0.233
734.00 0.2329
734.10 0.2327
734.20 0.2326
734.30 0.2325
734.40 0.2324
734.50 0.2323
734.60 0.2321
734.70 0.232
734.80 0.2319
734.90 0.2318
735.00 0.2317
735.10 0.2315
735.20 0.2314
735.30 0.2313
735.40 0.2312
735.50 0.231
735.60 0.2309
735.70 0.2308
735.80 0.2307
735.90 0.2306
736.00 0.2304
736.10 0.2303
736.20 0.2302
736.30 0.2301
736.40 0.23
736.50 0.2298
736.60 0.2297
736.70 0.2296
736.80 0.2295
736.90 0.2294
737.00 0.2292
737.10 0.2291
737.20 0.229
737.30 0.2289
737.40 0.2288
737.50 0.2286
737.60 0.2285
737.70 0.2284
737.80 0.2283
737.90 0.2282
738.00 0.228
738.10 0.2279
738.20 0.2278
738.30 0.2277
738.40 0.2276
738.50 0.2274
738.60 0.2273
738.70 0.2272
738.80 0.2271
738.90 0.227
739.00 0.2269
739.10 0.2267
739.20 0.2266
739.30 0.2265
739.40 0.2264
739.50 0.2263
739.60 0.2261
739.70 0.226
739.80 0.2259
739.90 0.2258
740.00 0.2257
740.10 0.2255
740.20 0.2254
740.30 0.2253
740.40 0.2252
740.50 0.2251
740.60 0.225
740.70 0.2249
740.80 0.2247
740.90 0.2246
741.00 0.2245
741.10 0.2244
741.20 0.2243
741.30 0.2242
741.40 0.224
741.50 0.2239
741.60 0.2238
741.70 0.2237
741.80 0.2236
741.90 0.2235
742.00 0.2234
742.10 0.2232
742.20 0.2231
742.30 0.223
742.40 0.2229
742.50 0.2228
742.60 0.2227
742.70 0.2225
742.80 0.2224
742.90 0.2223
743.00 0.2222
743.10 0.2221
743.20 0.222
743.30 0.2219
743.40 0.2217
743.50 0.2216
743.60 0.2215
743.70 0.2214
743.80 0.2213
743.90 0.2212
744.00 0.2211
744.10 0.2209
744.20 0.2208
744.30 0.2207
744.40 0.2206
744.50 0.2205
744.60 0.2204
744.70 0.2203
744.80 0.2201
744.90 0.22
745.00 0.2199
745.10 0.2198
745.20 0.2197
745.30 0.2196
745.40 0.2195
745.50 0.2194
745.60 0.2192
745.70 0.2191
745.80 0.219
745.90 0.2189
746.00 0.2188
746.10 0.2187
746.20 0.2186
746.30 0.2184
746.40 0.2183
746.50 0.2182
746.60 0.2181
746.70 0.218
746.80 0.2179
746.90 0.2178
747.00 0.2177
747.10 0.2175
747.20 0.2174
747.30 0.2173
747.40 0.2172
747.50 0.2171
747.60 0.217
747.70 0.2169
747.80 0.2168
747.90 0.2166
748.00 0.2165
748.10 0.2164
748.20 0.2163
748.30 0.2162
748.40 0.2161
748.50 0.216
748.60 0.2159
748.70 0.2158
748.80 0.2156
748.90 0.2155
749.00 0.2154
749.10 0.2153
749.20 0.2152
749.30 0.2151
749.40 0.215
749.50 0.2149
749.60 0.2148
749.70 0.2146
749.80 0.2145
749.90 0.2144
750.00 0.2143
750.10 0.2142
750.20 0.2141
750.30 0.214
750.40 0.2139
750.50 0.2138
750.60 0.2137
750.70 0.2135
750.80 0.2134
750.90 0.2133
751.00 0.2132
751.10 0.2131
751.20 0.213
751.30 0.2129
751.40 0.2128
751.50 0.2127
751.60 0.2126
751.70 0.2125
751.80 0.2124
751.90 0.2122
752.00 0.2121
752.10 0.212
752.20 0.2119
752.30 0.2118
752.40 0.2117
752.50 0.2116
752.60 0.2115
752.70 0.2114
752.80 0.2113
752.90 0.2112
753.00 0.2111
753.10 0.211
753.20 0.2108
753.30 0.2107
753.40 0.2106
753.50 0.2105
753.60 0.2104
753.70 0.2103
753.80 0.2102
753.90 0.2101
754.00 0.21
754.10 0.2099
754.20 0.2098
754.30 0.2097
754.40 0.2096
754.50 0.2095
754.60 0.2093
754.70 0.2092
754.80 0.2091
754.90 0.209
755.00 0.2089
755.10 0.2088
755.20 0.2087
755.30 0.2086
755.40 0.2085
755.50 0.2084
755.60 0.2083
755.70 0.2082
755.80 0.2081
755.90 0.208
756.00 0.2079
756.10 0.2078
756.20 0.2076
756.30 0.2075
756.40 0.2074
756.50 0.2073
756.60 0.2072
756.70 0.2071
756.80 0.207
756.90 0.2069
757.00 0.2068
757.10 0.2067
757.20 0.2066
757.30 0.2065
757.40 0.2064
757.50 0.2063
757.60 0.2062
757.70 0.2061
757.80 0.206
757.90 0.2059
758.00 0.2057
758.10 0.2056
758.20 0.2055
758.30 0.2054
758.40 0.2053
758.50 0.2052
758.60 0.2051
758.70 0.205
758.80 0.2049
758.90 0.2048
759.00 0.2047
759.10 0.2046
759.20 0.2045
759.30 0.2044
759.40 0.2043
759.50 0.2042
759.60 0.2041
759.70 0.204
759.80 0.2039
759.90 0.2038
760.00 0.2037
760.10 0.2036
760.20 0.2035
760.30 0.2033
760.40 0.2032
760.50 0.2031
760.60 0.203
760.70 0.2029
760.80 0.2028
760.90 0.2027
761.00 0.2026
761.10 0.2025
761.20 0.2024
761.30 0.2023
761.40 0.2022
761.50 0.2021
761.60 0.202
761.70 0.2019
761.80 0.2018
761.90 0.2017
762.00 0.2016
762.10 0.2015
762.20 0.2014
762.30 0.2013
762.40 0.2012
762.50 0.2011
762.60 0.201
762.70 0.2009
762.80 0.2008
762.90 0.2007
763.00 0.2006
763.10 0.2005
763.20 0.2004
763.30 0.2003
763.40 0.2002
763.50 0.2001
763.60 0.2
763.70 0.1999
763.80 0.1998
763.90 0.1997
764.00 0.1996
764.10 0.1995
764.20 0.1994
764.30 0.1993
764.40 0.1992
764.50 0.1991
764.60 0.199
764.70 0.1989
764.80 0.1988
764.90 0.1987
765.00 0.1986
765.10 0.1985
765.20 0.1984
765.30 0.1983
765.40 0.1982
765.50 0.1981
765.60 0.198
765.70 0.1979
765.80 0.1978
765.90 0.1977
766.00 0.1976
766.10 0.1975
766.20 0.1974
766.30 0.1973
766.40 0.1972
766.50 0.1971
766.60 0.197
766.70 0.1969
766.80 0.1968
766.90 0.1967
767.00 0.1966
767.10 0.1965
767.20 0.1964
767.30 0.1963
767.40 0.1962
767.50 0.1961
767.60 0.196
767.70 0.1959
767.80 0.1958
767.90 0.1957
768.00 0.1956
768.10 0.1955
768.20 0.1954
768.30 0.1953
768.40 0.1952
768.50 0.1951
768.60 0.195
768.70 0.1949
768.80 0.1948
768.90 0.1947
769.00 0.1946
769.10 0.1945
769.20 0.1944
769.30 0.1943
769.40 0.1942
769.50 0.1941
769.60 0.194
769.70 0.194
769.80 0.1939
769.90 0.1938
770.00 0.1937
770.10 0.1936
770.20 0.1935
770.30 0.1934
770.40 0.1933
770.50 0.1932
770.60 0.1931
770.70 0.193
770.80 0.1929
770.90 0.1928
771.00 0.1927
771.10 0.1926
771.20 0.1925
771.30 0.1924
771.40 0.1923
771.50 0.1922
771.60 0.1921
771.70 0.192
771.80 0.1919
771.90 0.1918
772.00 0.1917
772.10 0.1916
772.20 0.1916
772.30 0.1915
772.40 0.1914
772.50 0.1913
772.60 0.1912
772.70 0.1911
772.80 0.191
772.90 0.1909
773.00 0.1908
773.10 0.1907
773.20 0.1906
773.30 0.1905
773.40 0.1904
773.50 0.1903
773.60 0.1902
773.70 0.1901
773.80 0.19
773.90 0.1899
774.00 0.1898
774.10 0.1898
774.20 0.1897
774.30 0.1896
774.40 0.1895
774.50 0.1894
774.60 0.1893
774.70 0.1892
774.80 0.1891
774.90 0.189
775.00 0.1889
775.10 0.1888
775.20 0.1887
775.30 0.1886
775.40 0.1885
775.50 0.1884
775.60 0.1883
775.70 0.1883
775.80 0.1882
775.90 0.1881
776.00 0.188
776.10 0.1879
776.20 0.1878
776.30 0.1877
776.40 0.1876
776.50 0.1875
776.60 0.1874
776.70 0.1873
776.80 0.1872
776.90 0.1871
777.00 0.187
777.10 0.1869
777.20 0.1869
777.30 0.1868
777.40 0.1867
777.50 0.1866
777.60 0.1865
777.70 0.1864
777.80 0.1863
777.90 0.1862
778.00 0.1861
778.10 0.186
778.20 0.1859
778.30 0.1858
778.40 0.1857
778.50 0.1856
778.60 0.1856
778.70 0.1855
778.80 0.1854
778.90 0.1853
779.00 0.1852
779.10 0.1851
779.20 0.185
779.30 0.1849
779.40 0.1848
779.50 0.1847
779.60 0.1846
779.70 0.1845
779.80 0.1844
779.90 0.1844
780.00 0.1843
780.10 0.1842
780.20 0.1841
780.30 0.184
780.40 0.1839
780.50 0.1838
780.60 0.1837
780.70 0.1836
780.80 0.1835
780.90 0.1835
781.00 0.1834
781.10 0.1833
781.20 0.1832
781.30 0.1831
781.40 0.183
781.50 0.1829
781.60 0.1828
781.70 0.1827
781.80 0.1826
781.90 0.1826
782.00 0.1825
782.10 0.1824
782.20 0.1823
782.30 0.1822
782.40 0.1821
782.50 0.182
782.60 0.1819
782.70 0.1818
782.80 0.1818
782.90 0.1817
783.00 0.1816
783.10 0.1815
783.20 0.1814
783.30 0.1813
783.40 0.1812
783.50 0.1811
783.60 0.181
783.70 0.181
783.80 0.1809
783.90 0.1808
784.00 0.1807
784.10 0.1806
784.20 0.1805
784.30 0.1804
784.40 0.1803
784.50 0.1802
784.60 0.1802
784.70 0.1801
784.80 0.18
784.90 0.1799
785.00 0.1798
785.10 0.1797
785.20 0.1796
785.30 0.1795
785.40 0.1794
785.50 0.1794
785.60 0.1793
785.70 0.1792
785.80 0.1791
785.90 0.179
786.00 0.1789
786.10 0.1788
786.20 0.1787
786.30 0.1787
786.40 0.1786
786.50 0.1785
786.60 0.1784
786.70 0.1783
786.80 0.1782
786.90 0.1781
787.00 0.178
787.10 0.178
787.20 0.1779
787.30 0.1778
787.40 0.1777
787.50 0.1776
787.60 0.1775
787.70 0.1774
787.80 0.1773
787.90 0.1773
788.00 0.1772
788.10 0.1771
788.20 0.177
788.30 0.1769
788.40 0.1768
788.50 0.1767
788.60 0.1766
788.70 0.1766
788.80 0.1765
788.90 0.1764
789.00 0.1763
789.10 0.1762
789.20 0.1761
789.30 0.176
789.40 0.176
789.50 0.1759
789.60 0.1758
789.70 0.1757
789.80 0.1756
789.90 0.1755
790.00 0.1754
790.10 0.1753
790.20 0.1753
790.30 0.1752
790.40 0.1751
790.50 0.175
790.60 0.1749
790.70 0.1748
790.80 0.1748
790.90 0.1747
791.00 0.1746
791.10 0.1745
791.20 0.1744
791.30 0.1743
791.40 0.1742
791.50 0.1742
791.60 0.1741
791.70 0.174
791.80 0.1739
791.90 0.1738
792.00 0.1737
792.10 0.1737
792.20 0.1736
792.30 0.1735
792.40 0.1734
792.50 0.1733
792.60 0.1732
792.70 0.1732
792.80 0.1731
792.90 0.173
793.00 0.1729
793.10 0.1728
793.20 0.1727
793.30 0.1727
793.40 0.1726
793.50 0.1725
793.60 0.1724
793.70 0.1723
793.80 0.1722
793.90 0.1722
794.00 0.1721
794.10 0.172
794.20 0.1719
794.30 0.1718
794.40 0.1717
794.50 0.1716
794.60 0.1716
794.70 0.1715
794.80 0.1714
794.90 0.1713
795.00 0.1712
795.10 0.1712
795.20 0.1711
795.30 0.171
795.40 0.1709
795.50 0.1708
795.60 0.1707
795.70 0.1707
795.80 0.1706
795.90 0.1705
796.00 0.1704
796.10 0.1703
796.20 0.1702
796.30 0.1702
796.40 0.1701
796.50 0.17
796.60 0.1699
796.70 0.1698
796.80 0.1697
796.90 0.1697
797.00 0.1696
797.10 0.1695
797.20 0.1694
797.30 0.1693
797.40 0.1693
797.50 0.1692
797.60 0.1691
797.70 0.169
797.80 0.1689
797.90 0.1688
798.00 0.1688
798.10 0.1687
798.20 0.1686
798.30 0.1685
798.40 0.1684
798.50 0.1683
798.60 0.1683
798.70 0.1682
798.80 0.1681
798.90 0.168
799.00 0.1679
799.10 0.1679
799.20 0.1678
799.30 0.1677
799.40 0.1676
799.50 0.1675
799.60 0.1675
799.70 0.1674
799.80 0.1673
799.90 0.1672
800.00 0.1671
800.10 0.167
800.20 0.167
800.30 0.1669
800.40 0.1668
800.50 0.1667
800.60 0.1666
800.70 0.1666
800.80 0.1665
800.90 0.1664
801.00 0.1663
801.10 0.1662
801.20 0.1662
801.30 0.1661
801.40 0.166
801.50 0.1659
801.60 0.1659
801.70 0.1658
801.80 0.1657
801.90 0.1656
802.00 0.1655
802.10 0.1655
802.20 0.1654
802.30 0.1653
802.40 0.1652
802.50 0.1651
802.60 0.1651
802.70 0.165
802.80 0.1649
802.90 0.1648
803.00 0.1647
803.10 0.1647
803.20 0.1646
803.30 0.1645
803.40 0.1644
803.50 0.1643
803.60 0.1643
803.70 0.1642
803.80 0.1641
803.90 0.164
804.00 0.164
804.10 0.1639
804.20 0.1638
804.30 0.1637
804.40 0.1636
804.50 0.1636
804.60 0.1635
804.70 0.1634
804.80 0.1633
804.90 0.1633
805.00 0.1632
805.10 0.1631
805.20 0.163
805.30 0.1629
805.40 0.1629
805.50 0.1628
805.60 0.1627
805.70 0.1626
805.80 0.1625
805.90 0.1625
806.00 0.1624
806.10 0.1623
806.20 0.1622
806.30 0.1622
806.40 0.1621
806.50 0.162
806.60 0.1619
806.70 0.1618
806.80 0.1618
806.90 0.1617
807.00 0.1616
807.10 0.1615
807.20 0.1615
807.30 0.1614
807.40 0.1613
807.50 0.1612
807.60 0.1612
807.70 0.1611
807.80 0.161
807.90 0.1609
808.00 0.1608
808.10 0.1608
808.20 0.1607
808.30 0.1606
808.40 0.1605
808.50 0.1605
808.60 0.1604
808.70 0.1603
808.80 0.1602
808.90 0.1601
809.00 0.1601
809.10 0.16
809.20 0.1599
809.30 0.1598
809.40 0.1598
809.50 0.1597
809.60 0.1596
809.70 0.1595
809.80 0.1595
809.90 0.1594
810.00 0.1593
810.10 0.1592
810.20 0.1592
810.30 0.1591
810.40 0.159
810.50 0.1589
810.60 0.1589
810.70 0.1588
810.80 0.1587
810.90 0.1586
811.00 0.1586
811.10 0.1585
811.20 0.1584
811.30 0.1583
811.40 0.1583
811.50 0.1582
811.60 0.1581
811.70 0.158
811.80 0.158
811.90 0.1579
812.00 0.1578
812.10 0.1577
812.20 0.1577
812.30 0.1576
812.40 0.1575
812.50 0.1574
812.60 0.1574
812.70 0.1573
812.80 0.1572
812.90 0.1571
813.00 0.1571
813.10 0.157
813.20 0.1569
813.30 0.1568
813.40 0.1568
813.50 0.1567
813.60 0.1566
813.70 0.1565
813.80 0.1565
813.90 0.1564
814.00 0.1563
814.10 0.1562
814.20 0.1562
814.30 0.1561
814.40 0.156
814.50 0.1559
814.60 0.1559
814.70 0.1558
814.80 0.1557
814.90 0.1557
815.00 0.1556
815.10 0.1555
815.20 0.1554
815.30 0.1554
815.40 0.1553
815.50 0.1552
815.60 0.1551
815.70 0.1551
815.80 0.155
815.90 0.1549
816.00 0.1548
816.10 0.1548
816.20 0.1547
816.30 0.1546
816.40 0.1546
816.50 0.1545
816.60 0.1544
816.70 0.1543
816.80 0.1543
816.90 0.1542
817.00 0.1541
817.10 0.154
817.20 0.154
817.30 0.1539
817.40 0.1538
817.50 0.1537
817.60 0.1537
817.70 0.1536
817.80 0.1535
817.90 0.1535
818.00 0.1534
818.10 0.1533
818.20 0.1532
818.30 0.1532
818.40 0.1531
818.50 0.153
818.60 0.1529
818.70 0.1529
818.80 0.1528
818.90 0.1527
819.00 0.1527
819.10 0.1526
819.20 0.1525
819.30 0.1524
819.40 0.1524
819.50 0.1523
819.60 0.1522
819.70 0.1522
819.80 0.1521
819.90 0.152
820.00 0.1519
820.10 0.1519
820.20 0.1518
820.30 0.1517
820.40 0.1516
820.50 0.1516
820.60 0.1515
820.70 0.1514
820.80 0.1514
820.90 0.1513
821.00 0.1512
821.10 0.1512
821.20 0.1511
821.30 0.151
821.40 0.1509
821.50 0.1509
821.60 0.1508
821.70 0.1507
821.80 0.1507
821.90 0.1506
822.00 0.1505
822.10 0.1504
822.20 0.1504
822.30 0.1503
822.40 0.1502
822.50 0.1502
822.60 0.1501
822.70 0.15
822.80 0.15
822.90 0.1499
823.00 0.1498
823.10 0.1497
823.20 0.1497
823.30 0.1496
823.40 0.1495
823.50 0.1495
823.60 0.1494
823.70 0.1493
823.80 0.1493
823.90 0.1492
824.00 0.1491
824.10 0.149
824.20 0.149
824.30 0.1489
824.40 0.1488
824.50 0.1488
824.60 0.1487
824.70 0.1486
824.80 0.1486
824.90 0.1485
825.00 0.1484
825.10 0.1483
825.20 0.1483
825.30 0.1482
825.40 0.1481
825.50 0.1481
825.60 0.148
825.70 0.1479
825.80 0.1479
825.90 0.1478
826.00 0.1477
826.10 0.1477
826.20 0.1476
826.30 0.1475
826.40 0.1474
826.50 0.1474
826.60 0.1473
826.70 0.1472
826.80 0.1472
826.90 0.1471
827.00 0.147
827.10 0.147
827.20 0.1469
827.30 0.1468
827.40 0.1468
827.50 0.1467
827.60 0.1466
827.70 0.1466
827.80 0.1465
827.90 0.1464
828.00 0.1463
828.10 0.1463
828.20 0.1462
828.30 0.1461
828.40 0.1461
828.50 0.146
828.60 0.1459
828.70 0.1459
828.80 0.1458
828.90 0.1457
829.00 0.1457
829.10 0.1456
829.20 0.1455
829.30 0.1455
829.40 0.1454
829.50 0.1453
829.60 0.1453
829.70 0.1452
829.80 0.1451
829.90 0.1451
830.00 0.145
830.10 0.1449
830.20 0.1449
830.30 0.1448
830.40 0.1447
830.50 0.1447
830.60 0.1446
830.70 0.1445
830.80 0.1445
830.90 0.1444
831.00 0.1443
831.10 0.1442
831.20 0.1442
831.30 0.1441
831.40 0.144
831.50 0.144
831.60 0.1439
831.70 0.1438
831.80 0.1438
831.90 0.1437
832.00 0.1436
832.10 0.1436
832.20 0.1435
832.30 0.1434
832.40 0.1434
832.50 0.1433
832.60 0.1432
832.70 0.1432
832.80 0.1431
832.90 0.143
833.00 0.143
833.10 0.1429
833.20 0.1428
833.30 0.1428
833.40 0.1427
833.50 0.1426
833.60 0.1426
833.70 0.1425
833.80 0.1424
833.90 0.1424
834.00 0.1423
834.10 0.1422
834.20 0.1422
834.30 0.1421
834.40 0.142
834.50 0.142
834.60 0.1419
834.70 0.1419
834.80 0.1418
834.90 0.1417
835.00 0.1417
835.10 0.1416
835.20 0.1415
835.30 0.1415
835.40 0.1414
835.50 0.1413
835.60 0.1413
835.70 0.1412
835.80 0.1411
835.90 0.1411
836.00 0.141
836.10 0.1409
836.20 0.1409
836.30 0.1408
836.40 0.1407
836.50 0.1407
836.60 0.1406
836.70 0.1405
836.80 0.1405
836.90 0.1404
837.00 0.1403
837.10 0.1403
837.20 0.1402
837.30 0.1401
837.40 0.1401
837.50 0.14
837.60 0.1399
837.70 0.1399
837.80 0.1398
837.90 0.1398
838.00 0.1397
838.10 0.1396
838.20 0.1396
838.30 0.1395
838.40 0.1394
838.50 0.1394
838.60 0.1393
838.70 0.1392
838.80 0.1392
838.90 0.1391
839.00 0.139
839.10 0.139
839.20 0.1389
839.30 0.1389
839.40 0.1388
839.50 0.1387
839.60 0.1387
839.70 0.1386
839.80 0.1385
839.90 0.1385
840.00 0.1384
840.10 0.1383
840.20 0.1383
840.30 0.1382
840.40 0.1381
840.50 0.1381
840.60 0.138
840.70 0.138
840.80 0.1379
840.90 0.1378
841.00 0.1378
841.10 0.1377
841.20 0.1376
841.30 0.1376
841.40 0.1375
841.50 0.1374
841.60 0.1374
841.70 0.1373
841.80 0.1373
841.90 0.1372
842.00 0.1371
842.10 0.1371
842.20 0.137
842.30 0.1369
842.40 0.1369
842.50 0.1368
842.60 0.1367
842.70 0.1367
842.80 0.1366
842.90 0.1366
843.00 0.1365
843.10 0.1364
843.20 0.1364
843.30 0.1363
843.40 0.1362
843.50 0.1362
843.60 0.1361
843.70 0.1361
843.80 0.136
843.90 0.1359
844.00 0.1359
844.10 0.1358
844.20 0.1357
844.30 0.1357
844.40 0.1356
844.50 0.1356
844.60 0.1355
844.70 0.1354
844.80 0.1354
844.90 0.1353
845.00 0.1352
845.10 0.1352
845.20 0.1351
845.30 0.1351
845.40 0.135
845.50 0.1349
845.60 0.1349
845.70 0.1348
845.80 0.1347
845.90 0.1347
846.00 0.1346
846.10 0.1346
846.20 0.1345
846.30 0.1344
846.40 0.1344
846.50 0.1343
846.60 0.1342
846.70 0.1342
846.80 0.1341
846.90 0.1341
847.00 0.134
847.10 0.1339
847.20 0.1339
847.30 0.1338
847.40 0.1338
847.50 0.1337
847.60 0.1336
847.70 0.1336
847.80 0.1335
847.90 0.1334
848.00 0.1334
848.10 0.1333
848.20 0.1333
848.30 0.1332
848.40 0.1331
848.50 0.1331
848.60 0.133
848.70 0.133
848.80 0.1329
848.90 0.1328
849.00 0.1328
849.10 0.1327
849.20 0.1327
849.30 0.1326
849.40 0.1325
849.50 0.1325
849.60 0.1324
849.70 0.1323
849.80 0.1323
849.90 0.1322
850.00 0.1322
850.10 0.1321
850.20 0.132
850.30 0.132
850.40 0.1319
850.50 0.1319
850.60 0.1318
850.70 0.1317
850.80 0.1317
850.90 0.1316
851.00 0.1316
851.10 0.1315
851.20 0.1314
851.30 0.1314
851.40 0.1313
851.50 0.1313
851.60 0.1312
851.70 0.1311
851.80 0.1311
851.90 0.131
852.00 0.131
852.10 0.1309
852.20 0.1308
852.30 0.1308
852.40 0.1307
852.50 0.1307
852.60 0.1306
852.70 0.1305
852.80 0.1305
852.90 0.1304
853.00 0.1304
853.10 0.1303
853.20 0.1302
853.30 0.1302
853.40 0.1301
853.50 0.1301
853.60 0.13
853.70 0.1299
853.80 0.1299
853.90 0.1298
854.00 0.1298
854.10 0.1297
854.20 0.1297
854.30 0.1296
854.40 0.1295
854.50 0.1295
854.60 0.1294
854.70 0.1294
854.80 0.1293
854.90 0.1292
855.00 0.1292
855.10 0.1291
855.20 0.1291
855.30 0.129
855.40 0.1289
855.50 0.1289
855.60 0.1288
855.70 0.1288
855.80 0.1287
855.90 0.1287
856.00 0.1286
856.10 0.1285
856.20 0.1285
856.30 0.1284
856.40 0.1284
856.50 0.1283
856.60 0.1282
856.70 0.1282
856.80 0.1281
856.90 0.1281
857.00 0.128
857.10 0.128
857.20 0.1279
857.30 0.1278
857.40 0.1278
857.50 0.1277
857.60 0.1277
857.70 0.1276
857.80 0.1276
857.90 0.1275
858.00 0.1274
858.10 0.1274
858.20 0.1273
858.30 0.1273
858.40 0.1272
858.50 0.1272
858.60 0.1271
858.70 0.127
858.80 0.127
858.90 0.1269
859.00 0.1269
859.10 0.1268
859.20 0.1268
859.30 0.1267
859.40 0.1266
859.50 0.1266
859.60 0.1265
859.70 0.1265
859.80 0.1264
859.90 0.1264
860.00 0.1263
860.10 0.1262
860.20 0.1262
860.30 0.1261
860.40 0.1261
860.50 0.126
860.60 0.126
860.70 0.1259
860.80 0.1258
860.90 0.1258
861.00 0.1257
861.10 0.1257
861.20 0.1256
861.30 0.1256
861.40 0.1255
861.50 0.1255
861.60 0.1254
861.70 0.1253
861.80 0.1253
861.90 0.1252
862.00 0.1252
862.10 0.1251
862.20 0.1251
862.30 0.125
862.40 0.1249
862.50 0.1249
862.60 0.1248
862.70 0.1248
862.80 0.1247
862.90 0.1247
863.00 0.1246
863.10 0.1246
863.20 0.1245
863.30 0.1244
863.40 0.1244
863.50 0.1243
863.60 0.1243
863.70 0.1242
863.80 0.1242
863.90 0.1241
864.00 0.124
864.10 0.124
864.20 0.1239
864.30 0.1239
864.40 0.1238
864.50 0.1238
864.60 0.1237
864.70 0.1237
864.80 0.1236
864.90 0.1235
865.00 0.1235
865.10 0.1234
865.20 0.1234
865.30 0.1233
865.40 0.1233
865.50 0.1232
865.60 0.1232
865.70 0.1231
865.80 0.123
865.90 0.123
866.00 0.1229
866.10 0.1229
866.20 0.1228
866.30 0.1228
866.40 0.1227
866.50 0.1227
866.60 0.1226
866.70 0.1225
866.80 0.1225
866.90 0.1224
867.00 0.1224
867.10 0.1223
867.20 0.1223
867.30 0.1222
867.40 0.1222
867.50 0.1221
867.60 0.1221
867.70 0.122
867.80 0.1219
867.90 0.1219
868.00 0.1218
868.10 0.1218
868.20 0.1217
868.30 0.1217
868.40 0.1216
868.50 0.1216
868.60 0.1215
868.70 0.1215
868.80 0.1214
868.90 0.1213
869.00 0.1213
869.10 0.1212
869.20 0.1212
869.30 0.1211
869.40 0.1211
869.50 0.121
869.60 0.121
869.70 0.1209
869.80 0.1209
869.90 0.1208
870.00 0.1208
870.10 0.1207
870.20 0.1206
870.30 0.1206
870.40 0.1205
870.50 0.1205
870.60 0.1204
870.70 0.1204
870.80 0.1203
870.90 0.1203
871.00 0.1202
871.10 0.1202
871.20 0.1201
871.30 0.1201
871.40 0.12
871.50 0.1199
871.60 0.1199
871.70 0.1198
871.80 0.1198
871.90 0.1197
872.00 0.1197
872.10 0.1196
872.20 0.1196
872.30 0.1195
872.40 0.1195
872.50 0.1194
872.60 0.1194
872.70 0.1193
872.80 0.1193
872.90 0.1192
873.00 0.1192
873.10 0.1191
873.20 0.119
873.30 0.119
873.40 0.1189
873.50 0.1189
873.60 0.1188
873.70 0.1188
873.80 0.1187
873.90 0.1187
874.00 0.1186
874.10 0.1186
874.20 0.1185
874.30 0.1185
874.40 0.1184
874.50 0.1184
874.60 0.1183
874.70 0.1183
874.80 0.1182
874.90 0.1182
875.00 0.1181
875.10 0.118
875.20 0.118
875.30 0.1179
875.40 0.1179
875.50 0.1178
875.60 0.1178
875.70 0.1177
875.80 0.1177
875.90 0.1176
876.00 0.1176
876.10 0.1175
876.20 0.1175
876.30 0.1174
876.40 0.1174
876.50 0.1173
876.60 0.1173
876.70 0.1172
876.80 0.1172
876.90 0.1171
877.00 0.1171
877.10 0.117
877.20 0.117
877.30 0.1169
877.40 0.1169
877.50 0.1168
877.60 0.1167
877.70 0.1167
877.80 0.1166
877.90 0.1166
878.00 0.1165
878.10 0.1165
878.20 0.1164
878.30 0.1164
878.40 0.1163
878.50 0.1163
878.60 0.1162
878.70 0.1162
878.80 0.1161
878.90 0.1161
879.00 0.116
879.10 0.116
879.20 0.1159
879.30 0.1159
879.40 0.1158
879.50 0.1158
879.60 0.1157
879.70 0.1157
879.80 0.1156
879.90 0.1156
880.00 0.1155
880.10 0.1155
880.20 0.1154
880.30 0.1154
880.40 0.1153
880.50 0.1153
880.60 0.1152
880.70 0.1152
880.80 0.1151
880.90 0.1151
881.00 0.115
881.10 0.115
881.20 0.1149
881.30 0.1149
881.40 0.1148
881.50 0.1148
881.60 0.1147
881.70 0.1147
881.80 0.1146
881.90 0.1146
882.00 0.1145
882.10 0.1145
882.20 0.1144
882.30 0.1144
882.40 0.1143
882.50 0.1143
882.60 0.1142
882.70 0.1142
882.80 0.1141
882.90 0.1141
883.00 0.114
883.10 0.114
883.20 0.1139
883.30 0.1139
883.40 0.1138
883.50 0.1138
883.60 0.1137
883.70 0.1137
883.80 0.1136
883.90 0.1136
884.00 0.1135
884.10 0.1135
884.20 0.1134
884.30 0.1134
884.40 0.1133
884.50 0.1133
884.60 0.1132
884.70 0.1132
884.80 0.1131
884.90 0.1131
885.00 0.113
885.10 0.113
885.20 0.1129
885.30 0.1129
885.40 0.1128
885.50 0.1128
885.60 0.1127
885.70 0.1127
885.80 0.1126
885.90 0.1126
886.00 0.1125
886.10 0.1125
886.20 0.1124
886.30 0.1124
886.40 0.1123
886.50 0.1123
886.60 0.1122
886.70 0.1122
886.80 0.1121
886.90 0.1121
887.00 0.112
887.10 0.112
887.20 0.1119
887.30 0.1119
887.40 0.1118
887.50 0.1118
887.60 0.1117
887.70 0.1117
887.80 0.1117
887.90 0.1116
888.00 0.1116
888.10 0.1115
888.20 0.1115
888.30 0.1114
888.40 0.1114
888.50 0.1113
888.60 0.1113
888.70 0.1112
888.80 0.1112
888.90 0.1111
889.00 0.1111
889.10 0.111
889.20 0.111
889.30 0.1109
889.40 0.1109
889.50 0.1108
889.60 0.1108
889.70 0.1107
889.80 0.1107
889.90 0.1106
890.00 0.1106
890.10 0.1105
890.20 0.1105
890.30 0.1105
890.40 0.1104
890.50 0.1104
890.60 0.1103
890.70 0.1103
890.80 0.1102
890.90 0.1102
891.00 0.1101
891.10 0.1101
891.20 0.11
891.30 0.11
891.40 0.1099
891.50 0.1099
891.60 0.1098
891.70 0.1098
891.80 0.1097
891.90 0.1097
892.00 0.1096
892.10 0.1096
892.20 0.1095
892.30 0.1095
892.40 0.1095
892.50 0.1094
892.60 0.1094
892.70 0.1093
892.80 0.1093
892.90 0.1092
893.00 0.1092
893.10 0.1091
893.20 0.1091
893.30 0.109
893.40 0.109
893.50 0.1089
893.60 0.1089
893.70 0.1088
893.80 0.1088
893.90 0.1087
894.00 0.1087
894.10 0.1087
894.20 0.1086
894.30 0.1086
894.40 0.1085
894.50 0.1085
894.60 0.1084
894.70 0.1084
894.80 0.1083
894.90 0.1083
895.00 0.1082
895.10 0.1082
895.20 0.1081
895.30 0.1081
895.40 0.108
895.50 0.108
895.60 0.108
895.70 0.1079
895.80 0.1079
895.90 0.1078
896.00 0.1078
896.10 0.1077
896.20 0.1077
896.30 0.1076
896.40 0.1076
896.50 0.1075
896.60 0.1075
896.70 0.1074
896.80 0.1074
896.90 0.1073
897.00 0.1073
897.10 0.1073
897.20 0.1072
897.30 0.1072
897.40 0.1071
897.50 0.1071
897.60 0.107
897.70 0.107
897.80 0.1069
897.90 0.1069
898.00 0.1068
898.10 0.1068
898.20 0.1068
898.30 0.1067
898.40 0.1067
898.50 0.1066
898.60 0.1066
898.70 0.1065
898.80 0.1065
898.90 0.1064
899.00 0.1064
899.10 0.1063
899.20 0.1063
899.30 0.1063
899.40 0.1062
899.50 0.1062
899.60 0.1061
899.70 0.1061
899.80 0.106
899.90 0.106
900.00 0.1059
900.10 0.1059
900.20 0.1058
900.30 0.1058
900.40 0.1058
900.50 0.1057
900.60 0.1057
900.70 0.1056
900.80 0.1056
900.90 0.1055
901.00 0.1055
901.10 0.1054
901.20 0.1054
901.30 0.1054
901.40 0.1053
901.50 0.1053
901.60 0.1052
901.70 0.1052
901.80 0.1051
901.90 0.1051
902.00 0.105
902.10 0.105
902.20 0.1049
902.30 0.1049
902.40 0.1049
902.50 0.1048
902.60 0.1048
902.70 0.1047
902.80 0.1047
902.90 0.1046
903.00 0.1046
903.10 0.1046
903.20 0.1045
903.30 0.1045
903.40 0.1044
903.50 0.1044
903.60 0.1043
903.70 0.1043
903.80 0.1042
903.90 0.1042
904.00 0.1042
904.10 0.1041
904.20 0.1041
904.30 0.104
904.40 0.104
904.50 0.1039
904.60 0.1039
904.70 0.1038
904.80 0.1038
904.90 0.1038
905.00 0.1037
905.10 0.1037
905.20 0.1036
905.30 0.1036
905.40 0.1035
905.50 0.1035
905.60 0.1035
905.70 0.1034
905.80 0.1034
905.90 0.1033
906.00 0.1033
906.10 0.1032
906.20 0.1032
906.30 0.1032
906.40 0.1031
906.50 0.1031
906.60 0.103
906.70 0.103
906.80 0.1029
906.90 0.1029
907.00 0.1028
907.10 0.1028
907.20 0.1028
907.30 0.1027
907.40 0.1027
907.50 0.1026
907.60 0.1026
907.70 0.1025
907.80 0.1025
907.90 0.1025
908.00 0.1024
908.10 0.1024
908.20 0.1023
908.30 0.1023
908.40 0.1022
908.50 0.1022
908.60 0.1022
908.70 0.1021
908.80 0.1021
908.90 0.102
909.00 0.102
909.10 0.1019
909.20 0.1019
909.30 0.1019
909.40 0.1018
909.50 0.1018
909.60 0.1017
909.70 0.1017
909.80 0.1016
909.90 0.1016
910.00 0.1016
910.10 0.1015
910.20 0.1015
910.30 0.1014
910.40 0.1014
910.50 0.1013
910.60 0.1013
910.70 0.1013
910.80 0.1012
910.90 0.1012
911.00 0.1011
911.10 0.1011
911.20 0.101
911.30 0.101
911.40 0.101
911.50 0.1009
911.60 0.1009
911.70 0.1008
911.80 0.1008
911.90 0.1007
912.00 0.1007
912.10 0.1007
912.20 0.1006
912.30 0.1006
912.40 0.1005
912.50 0.1005
912.60 0.1004
912.70 0.1004
912.80 0.1004
912.90 0.1003
913.00 0.1003
913.10 0.1002
913.20 0.1002
913.30 0.1001
913.40 0.1001
913.50 0.1001
913.60 0.1
913.70 0.09998
913.80 0.09993
913.90 0.09989
914.00 0.09985
914.10 0.09981
914.20 0.09976
914.30 0.09972
914.40 0.09968
914.50 0.09964
914.60 0.09959
914.70 0.09955
914.80 0.09951
914.90 0.09947
915.00 0.09943
915.10 0.09938
915.20 0.09934
915.30 0.0993
915.40 0.09926
915.50 0.09921
915.60 0.09917
915.70 0.09913
915.80 0.09909
915.90 0.09904
916.00 0.099
916.10 0.09896
916.20 0.09892
916.30 0.09888
916.40 0.09883
916.50 0.09879
916.60 0.09875
916.70 0.09871
916.80 0.09866
916.90 0.09862
917.00 0.09858
917.10 0.09854
917.20 0.0985
917.30 0.09846
917.40 0.09841
917.50 0.09837
917.60 0.09833
917.70 0.09829
917.80 0.09825
917.90 0.09821
918.00 0.09816
918.10 0.09812
918.20 0.09808
918.30 0.09804
918.40 0.098
918.50 0.09796
918.60 0.09791
918.70 0.09787
918.80 0.09783
918.90 0.09779
919.00 0.09775
919.10 0.09771
919.20 0.09767
919.30 0.09762
919.40 0.09758
919.50 0.09754
919.60 0.0975
919.70 0.09746
919.80 0.09742
919.90 0.09738
920.00 0.09734
920.10 0.09729
920.20 0.09725
920.30 0.09721
920.40 0.09717
920.50 0.09713
920.60 0.09709
920.70 0.09705
920.80 0.09701
920.90 0.09696
921.00 0.09692
921.10 0.09688
921.20 0.09684
921.30 0.0968
921.40 0.09676
921.50 0.09672
921.60 0.09668
921.70 0.09664
921.80 0.0966
921.90 0.09655
922.00 0.09651
922.10 0.09647
922.20 0.09644
922.30 0.0964
922.40 0.09636
922.50 0.09632
922.60 0.09628
922.70 0.09624
922.80 0.0962
922.90 0.09616
923.00 0.09612
923.10 0.09609
923.20 0.09605
923.30 0.09601
923.40 0.09597
923.50 0.09593
923.60 0.09589
923.70 0.09585
923.80 0.09581
923.90 0.09578
924.00 0.09574
924.10 0.0957
924.20 0.09566
924.30 0.09562
924.40 0.09558
924.50 0.09554
924.60 0.09551
924.70 0.09547
924.80 0.09543
924.90 0.09539
925.00 0.09535
925.10 0.09531
925.20 0.09527
925.30 0.09524
925.40 0.0952
925.50 0.09516
925.60 0.09512
925.70 0.09508
925.80 0.09504
925.90 0.09501
926.00 0.09497
926.10 0.09493
926.20 0.09489
926.30 0.09485
926.40 0.09481
926.50 0.09478
926.60 0.09474
926.70 0.0947
926.80 0.09466
926.90 0.09462
927.00 0.09458
927.10 0.09455
927.20 0.09451
927.30 0.09447
927.40 0.09443
927.50 0.0944
927.60 0.09436
927.70 0.09432
927.80 0.09428
927.90 0.09425
928.00 0.09421
928.10 0.09417
928.20 0.09413
928.30 0.0941
928.40 0.09406
928.50 0.09402
928.60 0.09398
928.70 0.09395
928.80 0.09391
928.90 0.09387
929.00 0.09384
929.10 0.0938
929.20 0.09376
929.30 0.09372
929.40 0.09369
929.50 0.09365
929.60 0.09361
929.70 0.09357
929.80 0.09354
929.90 0.0935
930.00 0.09346
930.10 0.09343
930.20 0.09339
930.30 0.09335
930.40 0.09331
930.50 0.09328
930.60 0.09324
930.70 0.0932
930.80 0.09317
930.90 0.09313
931.00 0.09309
931.10 0.09306
931.20 0.09302
931.30 0.09298
931.40 0.09294
931.50 0.09291
931.60 0.09287
931.70 0.09283
931.80 0.0928
931.90 0.09276
932.00 0.09272
932.10 0.09269
932.20 0.09265
932.30 0.09261
932.40 0.09257
932.50 0.09254
932.60 0.0925
932.70 0.09246
932.80 0.09242
932.90 0.09239
933.00 0.09235
933.10 0.09231
933.20 0.09227
933.30 0.09224
933.40 0.0922
933.50 0.09216
933.60 0.09212
933.70 0.09209
933.80 0.09205
933.90 0.09201
934.00 0.09198
934.10 0.09194
934.20 0.0919
934.30 0.09186
934.40 0.09183
934.50 0.09179
934.60 0.09175
934.70 0.09171
934.80 0.09168
934.90 0.09164
935.00 0.0916
935.10 0.09156
935.20 0.09152
935.30 0.09149
935.40 0.09145
935.50 0.09141
935.60 0.09137
935.70 0.09134
935.80 0.0913
935.90 0.09126
936.00 0.09122
936.10 0.09119
936.20 0.09115
936.30 0.09111
936.40 0.09107
936.50 0.09104
936.60 0.091
936.70 0.09096
936.80 0.09092
936.90 0.09089
937.00 0.09085
937.10 0.09081
937.20 0.09077
937.30 0.09073
937.40 0.0907
937.50 0.09066
937.60 0.09062
937.70 0.09058
937.80 0.09054
937.90 0.09051
938.00 0.09047
938.10 0.09043
938.20 0.09039
938.30 0.09036
938.40 0.09032
938.50 0.09028
938.60 0.09024
938.70 0.0902
938.80 0.09016
938.90 0.09013
939.00 0.09009
939.10 0.09005
939.20 0.09001
939.30 0.08997
939.40 0.08994
939.50 0.0899
939.60 0.08986
939.70 0.08982
939.80 0.08978
939.90 0.08975
940.00 0.08971
940.10 0.08967
940.20 0.08963
940.30 0.08959
940.40 0.08955
940.50 0.08952
940.60 0.08948
940.70 0.08944
940.80 0.0894
940.90 0.08936
941.00 0.08932
941.10 0.08929
941.20 0.08925
941.30 0.08921
941.40 0.08917
941.50 0.08913
941.60 0.08909
941.70 0.08905
941.80 0.08902
941.90 0.08898
942.00 0.08894
942.10 0.0889
942.20 0.08886
942.30 0.08882
942.40 0.08879
942.50 0.08875
942.60 0.08871
942.70 0.08867
942.80 0.08863
942.90 0.08859
943.00 0.08855
943.10 0.08851
943.20 0.08848
943.30 0.08844
943.40 0.0884
943.50 0.08836
943.60 0.08832
943.70 0.08828
943.80 0.08824
943.90 0.0882
944.00 0.08817
944.10 0.08813
944.20 0.08809
944.30 0.08805
944.40 0.08801
944.50 0.08797
944.60 0.08793
944.70 0.08789
944.80 0.08786
944.90 0.08782
945.00 0.08778
945.10 0.08774
945.20 0.0877
945.30 0.08766
945.40 0.08762
945.50 0.08758
945.60 0.08754
945.70 0.0875
945.80 0.08747
945.90 0.08743
946.00 0.08739
946.10 0.08735
946.20 0.08731
946.30 0.08727
946.40 0.08723
946.50 0.08719
946.60 0.08715
946.70 0.08711
946.80 0.08707
946.90 0.08704
947.00 0.087
947.10 0.08696
947.20 0.08692
947.30 0.08688
947.40 0.08684
947.50 0.0868
947.60 0.08676
947.70 0.08672
947.80 0.08668
947.90 0.08664
948.00 0.08661
948.10 0.08657
948.20 0.08653
948.30 0.08649
948.40 0.08645
948.50 0.08641
948.60 0.08637
948.70 0.08633
948.80 0.08629
948.90 0.08625
949.00 0.08621
949.10 0.08618
949.20 0.08614
949.30 0.0861
949.40 0.08606
949.50 0.08602
949.60 0.08598
949.70 0.08594
949.80 0.0859
949.90 0.08586
950.00 0.08582
950.10 0.08579
950.20 0.08575
950.30 0.08571
950.40 0.08567
950.50 0.08563
950.60 0.08559
950.70 0.08555
950.80 0.08551
950.90 0.08547
951.00 0.08544
951.10 0.0854
951.20 0.08536
951.30 0.08532
951.40 0.08528
951.50 0.08524
951.60 0.0852
951.70 0.08517
951.80 0.08513
951.90 0.08509
952.00 0.08505
952.10 0.08501
952.20 0.08498
952.30 0.08494
952.40 0.0849
952.50 0.08486
952.60 0.08483
952.70 0.08479
952.80 0.08475
952.90 0.08471
953.00 0.08468
953.10 0.08464
953.20 0.0846
953.30 0.08457
953.40 0.08453
953.50 0.08449
953.60 0.08446
953.70 0.08442
953.80 0.08439
953.90 0.08435
954.00 0.08432
954.10 0.08428
954.20 0.08425
954.30 0.08421
954.40 0.08418
954.50 0.08415
954.60 0.08411
954.70 0.08408
954.80 0.08405
954.90 0.08402
955.00 0.08398
955.10 0.08395
955.20 0.08392
955.30 0.08389
955.40 0.08386
955.50 0.08383
955.60 0.0838
955.70 0.08376
955.80 0.08373
955.90 0.0837
956.00 0.08367
956.10 0.08365
956.20 0.08362
956.30 0.08359
956.40 0.08356
956.50 0.08353
956.60 0.0835
956.70 0.08347
956.80 0.08344
956.90 0.08341
957.00 0.08338
957.10 0.08335
957.20 0.08333
957.30 0.0833
957.40 0.08327
957.50 0.08324
957.60 0.08321
957.70 0.08318
957.80 0.08316
957.90 0.08313
958.00 0.0831
958.10 0.08307
958.20 0.08304
958.30 0.08302
958.40 0.08299
958.50 0.08296
958.60 0.08293
958.70 0.0829
958.80 0.08288
958.90 0.08285
959.00 0.08282
959.10 0.08279
959.20 0.08276
959.30 0.08274
959.40 0.08271
959.50 0.08268
959.60 0.08265
959.70 0.08262
959.80 0.0826
959.90 0.08257
960.00 0.08254
960.10 0.08251
960.20 0.08249
960.30 0.08246
960.40 0.08243
960.50 0.0824
960.60 0.08237
960.70 0.08235
960.80 0.08232
960.90 0.08229
961.00 0.08226
961.10 0.08224
961.20 0.08221
961.30 0.08218
961.40 0.08215
961.50 0.08212
961.60 0.0821
961.70 0.08207
961.80 0.08204
961.90 0.08201
962.00 0.08198
962.10 0.08196
962.20 0.08193
962.30 0.0819
962.40 0.08187
962.50 0.08184
962.60 0.08182
962.70 0.08179
962.80 0.08176
962.90 0.08173
963.00 0.0817
963.10 0.08168
963.20 0.08165
963.30 0.08162
963.40 0.08159
963.50 0.08156
963.60 0.08153
963.70 0.08151
963.80 0.08148
963.90 0.08145
964.00 0.08142
964.10 0.08139
964.20 0.08137
964.30 0.08134
964.40 0.08131
964.50 0.08128
964.60 0.08125
964.70 0.08122
964.80 0.08119
964.90 0.08117
965.00 0.08114
965.10 0.08111
965.20 0.08108
965.30 0.08105
965.40 0.08102
965.50 0.08099
965.60 0.08097
965.70 0.08094
965.80 0.08091
965.90 0.08088
966.00 0.08085
966.10 0.08082
966.20 0.08079
966.30 0.08077
966.40 0.08074
966.50 0.08071
966.60 0.08068
966.70 0.08065
966.80 0.08062
966.90 0.08059
967.00 0.08056
967.10 0.08054
967.20 0.08051
967.30 0.08048
967.40 0.08045
967.50 0.08042
967.60 0.08039
967.70 0.08036
967.80 0.08033
967.90 0.0803
968.00 0.08027
968.10 0.08025
968.20 0.08022
968.30 0.08019
968.40 0.08016
968.50 0.08013
968.60 0.0801
968.70 0.08007
968.80 0.08004
968.90 0.08001
969.00 0.07998
969.10 0.07995
969.20 0.07992
969.30 0.07989
969.40 0.07986
969.50 0.07983
969.60 0.0798
969.70 0.07978
969.80 0.07975
969.90 0.07972
970.00 0.07969
970.10 0.07966
970.20 0.07963
970.30 0.0796
970.40 0.07957
970.50 0.07954
970.60 0.07951
970.70 0.07948
970.80 0.07945
970.90 0.07942
971.00 0.07939
971.10 0.07936
971.20 0.07933
971.30 0.0793
971.40 0.07927
971.50 0.07924
971.60 0.07921
971.70 0.07918
971.80 0.07915
971.90 0.07912
972.00 0.07909
972.10 0.07906
972.20 0.07903
972.30 0.079
972.40 0.07897
972.50 0.07894
972.60 0.07891
972.70 0.07888
972.80 0.07885
972.90 0.07882
973.00 0.07879
973.10 0.07876
973.20 0.07873
973.30 0.0787
973.40 0.07867
973.50 0.07864
973.60 0.07861
973.70 0.07858
973.80 0.07855
973.90 0.07852
974.00 0.07849
974.10 0.07846
974.20 0.07843
974.30 0.0784
974.40 0.07837
974.50 0.07834
974.60 0.07831
974.70 0.07828
974.80 0.07825
974.90 0.07822
975.00 0.07819
975.10 0.07816
975.20 0.07813
975.30 0.0781
975.40 0.07806
975.50 0.07803
975.60 0.078
975.70 0.07797
975.80 0.07794
975.90 0.07791
976.00 0.07788
976.10 0.07785
976.20 0.07782
976.30 0.07779
976.40 0.07776
976.50 0.07773
976.60 0.0777
976.70 0.07767
976.80 0.07764
976.90 0.07761
977.00 0.07758
977.10 0.07755
977.20 0.07751
977.30 0.07748
977.40 0.07745
977.50 0.07742
977.60 0.07739
977.70 0.07736
977.80 0.07732
977.90 0.07729
978.00 0.07726
978.10 0.07723
978.20 0.0772
978.30 0.07717
978.40 0.07714
978.50 0.0771
978.60 0.07707
978.70 0.07704
978.80 0.07701
978.90 0.07698
979.00 0.07695
979.10 0.07692
979.20 0.07689
979.30 0.07685
979.40 0.07682
979.50 0.07679
979.60 0.07676
979.70 0.07673
979.80 0.0767
979.90 0.07667
980.00 0.07663
980.10 0.0766
980.20 0.07657
980.30 0.07654
980.40 0.07651
980.50 0.07648
980.60 0.07645
980.70 0.07642
980.80 0.07639
980.90 0.07635
981.00 0.07632
981.10 0.07629
981.20 0.07626
981.30 0.07623
981.40 0.0762
981.50 0.07617
981.60 0.07614
981.70 0.07611
981.80 0.07607
981.90 0.07604
982.00 0.07601
982.10 0.07598
982.20 0.07595
982.30 0.07592
982.40 0.07588
982.50 0.07585
982.60 0.07582
982.70 0.07579
982.80 0.07575
982.90 0.07572
983.00 0.07569
983.10 0.07566
983.20 0.07563
983.30 0.07559
983.40 0.07556
983.50 0.07553
983.60 0.0755
983.70 0.07547
983.80 0.07543
983.90 0.0754
984.00 0.07537
984.10 0.07534
984.20 0.0753
984.30 0.07527
984.40 0.07524
984.50 0.07521
984.60 0.07518
984.70 0.07514
984.80 0.07511
984.90 0.07508
985.00 0.07505
985.10 0.07501
985.20 0.07498
985.30 0.07495
985.40 0.07491
985.50 0.07488
985.60 0.07485
985.70 0.07481
985.80 0.07478
985.90 0.07475
986.00 0.07472
986.10 0.07468
986.20 0.07465
986.30 0.07462
986.40 0.07459
986.50 0.07455
986.60 0.07452
986.70 0.07449
986.80 0.07445
986.90 0.07442
987.00 0.07439
987.10 0.07436
987.20 0.07432
987.30 0.07429
987.40 0.07425
987.50 0.07422
987.60 0.07419
987.70 0.07415
987.80 0.07412
987.90 0.07409
988.00 0.07405
988.10 0.07402
988.20 0.07399
988.30 0.07395
988.40 0.07392
988.50 0.07389
988.60 0.07385
988.70 0.07382
988.80 0.07378
988.90 0.07375
989.00 0.07372
989.10 0.07368
989.20 0.07365
989.30 0.07361
989.40 0.07358
989.50 0.07354
989.60 0.07351
989.70 0.07348
989.80 0.07344
989.90 0.07341
990.00 0.07337
990.10 0.07334
990.20 0.0733
990.30 0.07327
990.40 0.07324
990.50 0.0732
990.60 0.07317
990.70 0.07313
990.80 0.0731
990.90 0.07306
991.00 0.07303
991.10 0.07299
991.20 0.07296
991.30 0.07292
991.40 0.07289
991.50 0.07285
991.60 0.07282
991.70 0.07278
991.80 0.07275
991.90 0.07271
992.00 0.07268
992.10 0.07264
992.20 0.07261
992.30 0.07257
992.40 0.07254
992.50 0.0725
992.60 0.07247
992.70 0.07243
992.80 0.07239
992.90 0.07236
993.00 0.07232
993.10 0.07228
993.20 0.07225
993.30 0.07221
993.40 0.07218
993.50 0.07214
993.60 0.0721
993.70 0.07207
993.80 0.07203
993.90 0.07199
994.00 0.07196
994.10 0.07192
994.20 0.07189
994.30 0.07185
994.40 0.07181
994.50 0.07178
994.60 0.07174
994.70 0.07171
994.80 0.07167
994.90 0.07163
995.00 0.07159
995.10 0.07156
995.20 0.07152
995.30 0.07148
995.40 0.07145
995.50 0.07141
995.60 0.07137
995.70 0.07133
995.80 0.0713
995.90 0.07126
996.00 0.07122
996.10 0.07118
996.20 0.07115
996.30 0.07111
996.40 0.07107
996.50 0.07103
996.60 0.07099
996.70 0.07096
996.80 0.07092
996.90 0.07088
997.00 0.07084
997.10 0.07081
997.20 0.07077
997.30 0.07073
997.40 0.07069
997.50 0.07065
997.60 0.07061
997.70 0.07058
997.80 0.07054
997.90 0.0705
998.00 0.07046
998.10 0.07042
998.20 0.07038
998.30 0.07034
998.40 0.0703
998.50 0.07027
998.60 0.07023
998.70 0.07019
998.80 0.07015
998.90 0.07011
999.00 0.07007
999.10 0.07003
999.20 0.06999
999.30 0.06996
999.40 0.06992
999.50 0.06988
999.60 0.06984
999.70 0.0698
999.80 0.06976
999.90 0.06972
1000.00 0.06968
1000.10 0.06964
1000.20 0.0696
1000.30 0.06956
1000.40 0.06952
1000.50 0.06948
1000.60 0.06944
1000.70 0.06941
1000.80 0.06937
1000.90 0.06933
1001.00 0.06929
1001.10 0.06925
1001.20 0.06921
1001.30 0.06917
1001.40 0.06913
1001.50 0.06909
1001.60 0.06905
1001.70 0.06901
1001.80 0.06898
1001.90 0.06894
1002.00 0.0689
1002.10 0.06887
1002.20 0.06883
1002.30 0.0688
1002.40 0.06876
1002.50 0.06873
1002.60 0.06869
1002.70 0.06866
1002.80 0.06862
1002.90 0.06859
1003.00 0.06855
1003.10 0.06852
1003.20 0.06849
1003.30 0.06846
1003.40 0.06843
1003.50 0.0684
1003.60 0.06837
1003.70 0.06834
1003.80 0.06831
1003.90 0.06828
1004.00 0.06826
1004.10 0.06824
1004.20 0.06821
1004.30 0.06819
1004.40 0.06817
1004.50 0.06816
1004.60 0.06814
1004.70 0.06813
1004.80 0.06811
1004.90 0.06808
1005.00 0.06806
1005.10 0.06803
1005.20 0.06799
1005.30 0.06796
1005.40 0.06792
1005.50 0.06789
1005.60 0.06786
1005.70 0.06784
1005.80 0.06781
1005.90 0.06778
1006.00 0.06775
1006.10 0.06772
1006.20 0.0677
1006.30 0.06768
1006.40 0.06766
1006.50 0.06764
1006.60 0.06762
1006.70 0.0676
1006.80 0.06758
1006.90 0.06756
1007.00 0.06754
1007.10 0.06752
1007.20 0.0675
1007.30 0.06749
1007.40 0.06747
1007.50 0.06745
1007.60 0.06744
1007.70 0.06742
1007.80 0.06741
1007.90 0.0674
1008.00 0.06738
1008.10 0.06737
1008.20 0.06735
1008.30 0.06734
1008.40 0.06733
1008.50 0.06731
1008.60 0.0673
1008.70 0.06729
1008.80 0.06727
1008.90 0.06726
1009.00 0.06724
1009.10 0.06723
1009.20 0.06722
1009.30 0.0672
1009.40 0.06719
1009.50 0.06717
1009.60 0.06716
1009.70 0.06715
1009.80 0.06713
1009.90 0.06712
1010.00 0.06711
1010.10 0.06709
1010.20 0.06708
1010.30 0.06707
1010.40 0.06705
1010.50 0.06704
1010.60 0.06703
1010.70 0.06701
1010.80 0.067
1010.90 0.06699
1011.00 0.06697
1011.10 0.06696
1011.20 0.06694
1011.30 0.06693
1011.40 0.06692
1011.50 0.0669
1011.60 0.06689
1011.70 0.06688
1011.80 0.06686
1011.90 0.06685
1012.00 0.06683
1012.10 0.06682
1012.20 0.0668
1012.30 0.06679
1012.40 0.06678
1012.50 0.06676
1012.60 0.06675
1012.70 0.06673
1012.80 0.06672
1012.90 0.0667
1013.00 0.06669
1013.10 0.06667
1013.20 0.06666
1013.30 0.06664
1013.40 0.06663
1013.50 0.06661
1013.60 0.0666
1013.70 0.06658
1013.80 0.06657
1013.90 0.06655
1014.00 0.06654
1014.10 0.06652
1014.20 0.0665
1014.30 0.06649
1014.40 0.06647
1014.50 0.06646
1014.60 0.06644
1014.70 0.06642
1014.80 0.06641
1014.90 0.06639
1015.00 0.06637
1015.10 0.06636
1015.20 0.06634
1015.30 0.06632
1015.40 0.06631
1015.50 0.06629
1015.60 0.06627
1015.70 0.06626
1015.80 0.06624
1015.90 0.06622
1016.00 0.06621
1016.10 0.06619
1016.20 0.06617
1016.30 0.06616
1016.40 0.06614
1016.50 0.06612
1016.60 0.06611
1016.70 0.06609
1016.80 0.06607
1016.90 0.06605
1017.00 0.06604
1017.10 0.06602
1017.20 0.066
1017.30 0.06598
1017.40 0.06596
1017.50 0.06595
1017.60 0.06593
1017.70 0.06591
1017.80 0.06589
1017.90 0.06587
1018.00 0.06586
1018.10 0.06584
1018.20 0.06582
1018.30 0.0658
1018.40 0.06578
1018.50 0.06576
1018.60 0.06575
1018.70 0.06573
1018.80 0.06571
1018.90 0.06569
1019.00 0.06567
1019.10 0.06565
1019.20 0.06563
1019.30 0.06561
1019.40 0.06559
1019.50 0.06558
1019.60 0.06556
1019.70 0.06554
1019.80 0.06552
1019.90 0.0655
1020.00 0.06548
1020.10 0.06546
1020.20 0.06544
1020.30 0.06542
1020.40 0.0654
1020.50 0.06539
1020.60 0.06537
1020.70 0.06535
1020.80 0.06533
1020.90 0.06531
1021.00 0.06529
1021.10 0.06527
1021.20 0.06525
1021.30 0.06523
1021.40 0.06521
1021.50 0.06519
1021.60 0.06517
1021.70 0.06515
1021.80 0.06513
1021.90 0.06511
1022.00 0.06509
1022.10 0.06507
1022.20 0.06505
1022.30 0.06503
1022.40 0.06501
1022.50 0.06499
1022.60 0.06497
1022.70 0.06495
1022.80 0.06492
1022.90 0.0649
1023.00 0.06488
1023.10 0.06486
1023.20 0.06484
1023.30 0.06482
1023.40 0.0648
1023.50 0.06478
1023.60 0.06476
1023.70 0.06474
1023.80 0.06472
1023.90 0.0647
1024.00 0.06468
1024.10 0.06466
1024.20 0.06464
1024.30 0.06462
1024.40 0.0646
1024.50 0.06458
1024.60 0.06456
1024.70 0.06454
1024.80 0.06451
1024.90 0.06449
1025.00 0.06447
1025.10 0.06445
1025.20 0.06443
1025.30 0.06441
1025.40 0.06439
1025.50 0.06437
1025.60 0.06434
1025.70 0.06432
1025.80 0.0643
1025.90 0.06428
1026.00 0.06426
1026.10 0.06424
1026.20 0.06422
1026.30 0.0642
1026.40 0.06418
1026.50 0.06415
1026.60 0.06413
1026.70 0.06411
1026.80 0.06409
1026.90 0.06407
1027.00 0.06405
1027.10 0.06403
1027.20 0.06401
1027.30 0.06398
1027.40 0.06396
1027.50 0.06394
1027.60 0.06392
1027.70 0.0639
1027.80 0.06387
1027.90 0.06385
1028.00 0.06383
1028.10 0.06381
1028.20 0.06379
1028.30 0.06376
1028.40 0.06374
1028.50 0.06372
1028.60 0.0637
1028.70 0.06368
1028.80 0.06366
1028.90 0.06363
1029.00 0.06361
1029.10 0.06359
1029.20 0.06357
1029.30 0.06355
1029.40 0.06352
1029.50 0.0635
1029.60 0.06348
1029.70 0.06346
1029.80 0.06344
1029.90 0.06342
1030.00 0.06339
1030.10 0.06337
1030.20 0.06335
1030.30 0.06333
1030.40 0.06331
1030.50 0.06329
1030.60 0.06326
1030.70 0.06324
1030.80 0.06322
1030.90 0.0632
1031.00 0.06318
1031.10 0.06316
1031.20 0.06313
1031.30 0.06311
1031.40 0.06309
1031.50 0.06307
1031.60 0.06305
1031.70 0.06303
1031.80 0.063
1031.90 0.06298
1032.00 0.06296
1032.10 0.06294
1032.20 0.06292
1032.30 0.06289
1032.40 0.06287
1032.50 0.06285
1032.60 0.06283
1032.70 0.0628
1032.80 0.06278
1032.90 0.06276
1033.00 0.06274
1033.10 0.06272
1033.20 0.06269
1033.30 0.06267
1033.40 0.06265
1033.50 0.06263
1033.60 0.0626
1033.70 0.06258
1033.80 0.06256
1033.90 0.06254
1034.00 0.06252
1034.10 0.06249
1034.20 0.06247
1034.30 0.06245
1034.40 0.06243
1034.50 0.0624
1034.60 0.06238
1034.70 0.06236
1034.80 0.06234
1034.90 0.06232
1035.00 0.06229
1035.10 0.06227
1035.20 0.06225
1035.30 0.06223
1035.40 0.0622
1035.50 0.06218
1035.60 0.06216
1035.70 0.06214
1035.80 0.06212
1035.90 0.06209
1036.00 0.06207
1036.10 0.06205
1036.20 0.06203
1036.30 0.06201
1036.40 0.06198
1036.50 0.06196
1036.60 0.06194
1036.70 0.06192
1036.80 0.0619
1036.90 0.06187
1037.00 0.06185
1037.10 0.06183
1037.20 0.06181
1037.30 0.06178
1037.40 0.06176
1037.50 0.06174
1037.60 0.06172
1037.70 0.0617
1037.80 0.06167
1037.90 0.06165
1038.00 0.06163
1038.10 0.06161
1038.20 0.06158
1038.30 0.06156
1038.40 0.06154
1038.50 0.06152
1038.60 0.06149
1038.70 0.06147
1038.80 0.06145
1038.90 0.06143
1039.00 0.0614
1039.10 0.06138
1039.20 0.06136
1039.30 0.06134
1039.40 0.06132
1039.50 0.06129
1039.60 0.06127
1039.70 0.06125
1039.80 0.06123
1039.90 0.0612
1040.00 0.06118
1040.10 0.06116
1040.20 0.06114
1040.30 0.06111
1040.40 0.06109
1040.50 0.06107
1040.60 0.06105
1040.70 0.06103
1040.80 0.061
1040.90 0.06098
1041.00 0.06096
1041.10 0.06094
1041.20 0.06092
1041.30 0.06089
1041.40 0.06087
1041.50 0.06085
1041.60 0.06083
1041.70 0.0608
1041.80 0.06078
1041.90 0.06076
1042.00 0.06074
1042.10 0.06072
1042.20 0.06069
1042.30 0.06067
1042.40 0.06065
1042.50 0.06063
1042.60 0.0606
1042.70 0.06058
1042.80 0.06056
1042.90 0.06054
1043.00 0.06051
1043.10 0.06049
1043.20 0.06047
1043.30 0.06045
1043.40 0.06043
1043.50 0.0604
1043.60 0.06038
1043.70 0.06036
1043.80 0.06034
1043.90 0.06031
1044.00 0.06029
1044.10 0.06027
1044.20 0.06025
1044.30 0.06023
1044.40 0.0602
1044.50 0.06018
1044.60 0.06016
1044.70 0.06014
1044.80 0.06011
1044.90 0.06009
1045.00 0.06007
1045.10 0.06005
1045.20 0.06003
1045.30 0.06
1045.40 0.05998
1045.50 0.05996
1045.60 0.05994
1045.70 0.05991
1045.80 0.05989
1045.90 0.05987
1046.00 0.05985
1046.10 0.05983
1046.20 0.0598
1046.30 0.05978
1046.40 0.05976
1046.50 0.05974
1046.60 0.05972
1046.70 0.05969
1046.80 0.05967
1046.90 0.05965
1047.00 0.05963
1047.10 0.05961
1047.20 0.05958
1047.30 0.05956
1047.40 0.05954
1047.50 0.05952
1047.60 0.05949
1047.70 0.05947
1047.80 0.05945
1047.90 0.05943
1048.00 0.05941
1048.10 0.05938
1048.20 0.05936
1048.30 0.05934
1048.40 0.05932
1048.50 0.05929
1048.60 0.05927
1048.70 0.05925
1048.80 0.05923
1048.90 0.05921
1049.00 0.05918
1049.10 0.05916
1049.20 0.05914
1049.30 0.05912
1049.40 0.0591
1049.50 0.05907
1049.60 0.05905
1049.70 0.05903
1049.80 0.05901
1049.90 0.05898
1050.00 0.05896
1050.10 0.05894
1050.20 0.05892
1050.30 0.0589
1050.40 0.05887
1050.50 0.05885
1050.60 0.05883
1050.70 0.05881
1050.80 0.05879
1050.90 0.05876
1051.00 0.05874
1051.10 0.05872
1051.20 0.0587
1051.30 0.05868
1051.40 0.05865
1051.50 0.05863
1051.60 0.05861
1051.70 0.05859
1051.80 0.05857
1051.90 0.05855
1052.00 0.05852
1052.10 0.0585
1052.20 0.05848
1052.30 0.05846
1052.40 0.05843
1052.50 0.05841
1052.60 0.05839
1052.70 0.05837
1052.80 0.05835
1052.90 0.05832
1053.00 0.0583
1053.10 0.05828
1053.20 0.05826
1053.30 0.05824
1053.40 0.05821
1053.50 0.05819
1053.60 0.05817
1053.70 0.05815
1053.80 0.05813
1053.90 0.0581
1054.00 0.05808
1054.10 0.05806
1054.20 0.05804
1054.30 0.05802
1054.40 0.05799
1054.50 0.05797
1054.60 0.05795
1054.70 0.05793
1054.80 0.05791
1054.90 0.05788
1055.00 0.05786
1055.10 0.05784
1055.20 0.05782
1055.30 0.0578
1055.40 0.05777
1055.50 0.05775
1055.60 0.05773
1055.70 0.05771
1055.80 0.05769
1055.90 0.05766
1056.00 0.05764
1056.10 0.05762
1056.20 0.0576
1056.30 0.05758
1056.40 0.05755
1056.50 0.05753
1056.60 0.05751
1056.70 0.05749
1056.80 0.05747
1056.90 0.05745
1057.00 0.05742
1057.10 0.0574
1057.20 0.05738
1057.30 0.05736
1057.40 0.05734
1057.50 0.05731
1057.60 0.05729
1057.70 0.05727
1057.80 0.05725
1057.90 0.05722
1058.00 0.0572
1058.10 0.05718
1058.20 0.05716
1058.30 0.05714
1058.40 0.05711
1058.50 0.05709
1058.60 0.05707
1058.70 0.05705
1058.80 0.05703
1058.90 0.057
1059.00 0.05698
1059.10 0.05696
1059.20 0.05694
1059.30 0.05692
1059.40 0.05689
1059.50 0.05687
1059.60 0.05685
1059.70 0.05683
1059.80 0.05681
1059.90 0.05678
1060.00 0.05676
1060.10 0.05674
1060.20 0.05672
1060.30 0.0567
1060.40 0.05667
1060.50 0.05665
1060.60 0.05663
1060.70 0.05661
1060.80 0.05659
1060.90 0.05656
1061.00 0.05654
1061.10 0.05652
1061.20 0.0565
1061.30 0.05648
1061.40 0.05645
1061.50 0.05643
1061.60 0.05641
1061.70 0.05639
1061.80 0.05637
1061.90 0.05635
1062.00 0.05632
1062.10 0.0563
1062.20 0.05628
1062.30 0.05626
1062.40 0.05623
1062.50 0.05621
1062.60 0.05619
1062.70 0.05617
1062.80 0.05614
1062.90 0.05612
1063.00 0.0561
1063.10 0.05608
1063.20 0.05605
1063.30 0.05603
1063.40 0.05601
1063.50 0.05599
1063.60 0.05597
1063.70 0.05594
1063.80 0.05592
1063.90 0.0559
1064.00 0.05588
1064.10 0.05585
1064.20 0.05583
1064.30 0.05581
1064.40 0.05579
1064.50 0.05576
1064.60 0.05574
1064.70 0.05572
1064.80 0.0557
1064.90 0.05568
1065.00 0.05565
1065.10 0.05563
1065.20 0.05561
1065.30 0.05559
1065.40 0.05556
1065.50 0.05554
1065.60 0.05552
1065.70 0.0555
1065.80 0.05548
1065.90 0.05545
1066.00 0.05543
1066.10 0.05541
1066.20 0.05539
1066.30 0.05537
1066.40 0.05534
1066.50 0.05532
1066.60 0.0553
1066.70 0.05528
1066.80 0.05525
1066.90 0.05523
1067.00 0.05521
1067.10 0.05519
1067.20 0.05516
1067.30 0.05514
1067.40 0.05512
1067.50 0.05509
1067.60 0.05507
1067.70 0.05505
1067.80 0.05503
1067.90 0.055
1068.00 0.05498
1068.10 0.05496
1068.20 0.05493
1068.30 0.05491
1068.40 0.05489
1068.50 0.05486
1068.60 0.05484
1068.70 0.05482
1068.80 0.0548
1068.90 0.05477
1069.00 0.05475
1069.10 0.05473
1069.20 0.0547
1069.30 0.05468
1069.40 0.05466
1069.50 0.05463
1069.60 0.05461
1069.70 0.05459
1069.80 0.05457
1069.90 0.05454
1070.00 0.05452
1070.10 0.0545
1070.20 0.05447
1070.30 0.05445
1070.40 0.05443
1070.50 0.05441
1070.60 0.05438
1070.70 0.05436
1070.80 0.05434
1070.90 0.05431
1071.00 0.05429
1071.10 0.05427
1071.20 0.05425
1071.30 0.05422
1071.40 0.0542
1071.50 0.05418
1071.60 0.05415
1071.70 0.05413
1071.80 0.05411
1071.90 0.05409
1072.00 0.05406
1072.10 0.05404
1072.20 0.05402
1072.30 0.05399
1072.40 0.05397
1072.50 0.05394
1072.60 0.05392
1072.70 0.0539
1072.80 0.05387
1072.90 0.05385
1073.00 0.05383
1073.10 0.0538
1073.20 0.05378
1073.30 0.05375
1073.40 0.05373
1073.50 0.05371
1073.60 0.05368
1073.70 0.05366
1073.80 0.05363
1073.90 0.05361
1074.00 0.05358
1074.10 0.05356
1074.20 0.05353
1074.30 0.05351
1074.40 0.05348
1074.50 0.05346
1074.60 0.05343
1074.70 0.05341
1074.80 0.05338
1074.90 0.05336
1075.00 0.05334
1075.10 0.05331
1075.20 0.05329
1075.30 0.05326
1075.40 0.05324
1075.50 0.05321
1075.60 0.05319
1075.70 0.05316
1075.80 0.05314
1075.90 0.05311
1076.00 0.05309
1076.10 0.05306
1076.20 0.05304
1076.30 0.05302
1076.40 0.05299
1076.50 0.05297
1076.60 0.05294
1076.70 0.05292
1076.80 0.05289
1076.90 0.05287
1077.00 0.05284
1077.10 0.05282
1077.20 0.05279
1077.30 0.05277
1077.40 0.05274
1077.50 0.05271
1077.60 0.05269
1077.70 0.05266
1077.80 0.05264
1077.90 0.05261
1078.00 0.05258
1078.10 0.05256
1078.20 0.05253
1078.30 0.0525
1078.40 0.05248
1078.50 0.05245
1078.60 0.05242
1078.70 0.0524
1078.80 0.05237
1078.90 0.05234
1079.00 0.05232
1079.10 0.05229
1079.20 0.05227
1079.30 0.05224
1079.40 0.05221
1079.50 0.05219
1079.60 0.05216
1079.70 0.05213
1079.80 0.0521
1079.90 0.05207
1080.00 0.05205
1080.10 0.05202
1080.20 0.05199
1080.30 0.05196
1080.40 0.05194
1080.50 0.05191
1080.60 0.05188
1080.70 0.05185
1080.80 0.05182
1080.90 0.0518
1081.00 0.05177
1081.10 0.05174
1081.20 0.05171
1081.30 0.05169
1081.40 0.05166
1081.50 0.05163
1081.60 0.0516
1081.70 0.05157
1081.80 0.05154
1081.90 0.05151
1082.00 0.05149
1082.10 0.05146
1082.20 0.05143
1082.30 0.0514
1082.40 0.05137
1082.50 0.05134
1082.60 0.05131
1082.70 0.05128
1082.80 0.05125
1082.90 0.05122
1083.00 0.05119
1083.10 0.05116
1083.20 0.05113
1083.30 0.0511
1083.40 0.05107
1083.50 0.05104
1083.60 0.05101
1083.70 0.05098
1083.80 0.05095
1083.90 0.05091
1084.00 0.05088
1084.10 0.05085
1084.20 0.05082
1084.30 0.05079
1084.40 0.05076
1084.50 0.05073
1084.60 0.0507
1084.70 0.05066
1084.80 0.05063
1084.90 0.0506
1085.00 0.05057
1085.10 0.05053
1085.20 0.0505
1085.30 0.05047
1085.40 0.05044
1085.50 0.0504
1085.60 0.05037
1085.70 0.05034
1085.80 0.0503
1085.90 0.05027
1086.00 0.05024
1086.10 0.05021
1086.20 0.05018
1086.30 0.05014
1086.40 0.05011
1086.50 0.05008
1086.60 0.05004
1086.70 0.05001
1086.80 0.04998
1086.90 0.04994
1087.00 0.04991
1087.10 0.04987
1087.20 0.04984
1087.30 0.0498
1087.40 0.04977
1087.50 0.04973
1087.60 0.0497
1087.70 0.04967
1087.80 0.04963
1087.90 0.0496
1088.00 0.04956
1088.10 0.04953
1088.20 0.04949
1088.30 0.04946
1088.40 0.04942
1088.50 0.04939
1088.60 0.04935
1088.70 0.04932
1088.80 0.04928
1088.90 0.04924
1089.00 0.04921
1089.10 0.04917
1089.20 0.04914
1089.30 0.0491
1089.40 0.04906
1089.50 0.04903
1089.60 0.04899
1089.70 0.04896
1089.80 0.04892
1089.90 0.04889
1090.00 0.04885
1090.10 0.04881
1090.20 0.04878
1090.30 0.04874
1090.40 0.04871
1090.50 0.04867
1090.60 0.04863
1090.70 0.0486
1090.80 0.04856
1090.90 0.04852
1091.00 0.04849
1091.10 0.04845
1091.20 0.04841
1091.30 0.04837
1091.40 0.04834
1091.50 0.0483
1091.60 0.04826
1091.70 0.04823
1091.80 0.04819
1091.90 0.04815
1092.00 0.04812
1092.10 0.04808
1092.20 0.04804
1092.30 0.048
1092.40 0.04796
1092.50 0.04792
1092.60 0.04788
1092.70 0.04784
1092.80 0.04779
1092.90 0.04775
1093.00 0.04771
1093.10 0.04766
1093.20 0.04762
1093.30 0.04757
1093.40 0.04753
1093.50 0.04748
1093.60 0.04745
1093.70 0.04742
1093.80 0.04741
1093.90 0.0474
1094.00 0.0474
1094.10 0.0474
1094.20 0.04741
1094.30 0.04741
1094.40 0.04742
1094.50 0.04743
1094.60 0.04744
1094.70 0.04745
1094.80 0.04747
1094.90 0.04748
1095.00 0.04749
1095.10 0.04749
1095.20 0.0475
1095.30 0.0475
1095.40 0.04751
1095.50 0.04751
1095.60 0.04752
1095.70 0.04752
1095.80 0.04753
1095.90 0.04753
1096.00 0.04754
1096.10 0.04754
1096.20 0.04755
1096.30 0.04755
1096.40 0.04756
1096.50 0.04756
1096.60 0.04756
1096.70 0.04757
1096.80 0.04757
1096.90 0.04757
1097.00 0.04757
1097.10 0.04758
1097.20 0.04758
1097.30 0.04758
1097.40 0.04758
1097.50 0.04758
1097.60 0.04759
1097.70 0.04759
1097.80 0.04759
1097.90 0.04759
1098.00 0.04759
1098.10 0.0476
1098.20 0.0476
1098.30 0.0476
1098.40 0.0476
1098.50 0.0476
1098.60 0.0476
1098.70 0.04761
1098.80 0.04761
1098.90 0.04761
1099.00 0.04761
1099.10 0.04761
1099.20 0.04761
1099.30 0.04761
1099.40 0.04761
1099.50 0.04761
1099.60 0.04761
1099.70 0.04761
1099.80 0.04761
1099.90 0.04761
1100.00 0.04761
1100.10 0.04761
1100.20 0.04761
1100.30 0.04761
1100.40 0.04761
1100.50 0.04761
1100.60 0.04761
1100.70 0.04761
1100.80 0.04761
1100.90 0.04761
1101.00 0.0476
1101.10 0.0476
1101.20 0.0476
1101.30 0.0476
1101.40 0.0476
1101.50 0.0476
1101.60 0.04759
1101.70 0.04759
1101.80 0.04759
1101.90 0.04759
1102.00 0.04759
1102.10 0.04758
1102.20 0.04758
1102.30 0.04758
1102.40 0.04758
1102.50 0.04757
1102.60 0.04757
1102.70 0.04756
1102.80 0.04756
1102.90 0.04756
1103.00 0.04755
1103.10 0.04755
1103.20 0.04755
1103.30 0.04754
1103.40 0.04754
1103.50 0.04753
1103.60 0.04753
1103.70 0.04752
1103.80 0.04752
1103.90 0.04751
1104.00 0.04751
1104.10 0.0475
1104.20 0.04749
1104.30 0.04749
1104.40 0.04748
1104.50 0.04748
1104.60 0.04747
1104.70 0.04747
1104.80 0.04746
1104.90 0.04746
1105.00 0.04745
1105.10 0.04744
1105.20 0.04744
1105.30 0.04743
1105.40 0.04743
1105.50 0.04742
1105.60 0.04741
1105.70 0.04741
1105.80 0.0474
1105.90 0.04739
1106.00 0.04738
1106.10 0.04738
1106.20 0.04737
1106.30 0.04736
1106.40 0.04735
1106.50 0.04735
1106.60 0.04734
1106.70 0.04733
1106.80 0.04733
1106.90 0.04732
1107.00 0.04731
1107.10 0.0473
1107.20 0.04729
1107.30 0.04729
1107.40 0.04728
1107.50 0.04727
1107.60 0.04726
1107.70 0.04725
1107.80 0.04724
1107.90 0.04723
1108.00 0.04722
1108.10 0.04721
1108.20 0.0472
1108.30 0.04719
1108.40 0.04718
1108.50 0.04717
1108.60 0.04717
1108.70 0.04716
1108.80 0.04715
1108.90 0.04714
1109.00 0.04713
1109.10 0.04712
1109.20 0.04711
1109.30 0.0471
1109.40 0.04709
1109.50 0.04708
1109.60 0.04707
1109.70 0.04706
1109.80 0.04705
1109.90 0.04704
1110.00 0.04703
1110.10 0.04702
1110.20 0.047
1110.30 0.04699
1110.40 0.04698
1110.50 0.04697
1110.60 0.04696
1110.70 0.04695
1110.80 0.04694
1110.90 0.04693
1111.00 0.04692
1111.10 0.04691
1111.20 0.0469
1111.30 0.04689
1111.40 0.04687
1111.50 0.04686
1111.60 0.04685
1111.70 0.04684
1111.80 0.04683
1111.90 0.04682
1112.00 0.04681
1112.10 0.0468
1112.20 0.04679
1112.30 0.04677
1112.40 0.04676
1112.50 0.04675
1112.60 0.04674
1112.70 0.04673
1112.80 0.04671
1112.90 0.0467
1113.00 0.04669
1113.10 0.04668
1113.20 0.04667
1113.30 0.04666
1113.40 0.04664
1113.50 0.04663
1113.60 0.04662
1113.70 0.04661
1113.80 0.04659
1113.90 0.04658
1114.00 0.04657
1114.10 0.04655
1114.20 0.04654
1114.30 0.04653
1114.40 0.04652
1114.50 0.0465
1114.60 0.04649
1114.70 0.04648
1114.80 0.04646
1114.90 0.04645
1115.00 0.04644
1115.10 0.04643
1115.20 0.04641
1115.30 0.0464
1115.40 0.04639
1115.50 0.04637
1115.60 0.04636
1115.70 0.04635
1115.80 0.04634
1115.90 0.04632
1116.00 0.04631
1116.10 0.0463
1116.20 0.04628
1116.30 0.04627
1116.40 0.04626
1116.50 0.04625
1116.60 0.04623
1116.70 0.04622
1116.80 0.04621
1116.90 0.0462
1117.00 0.04618
1117.10 0.04617
1117.20 0.04615
1117.30 0.04614
1117.40 0.04613
1117.50 0.04611
1117.60 0.0461
1117.70 0.04609
1117.80 0.04607
1117.90 0.04606
1118.00 0.04604
1118.10 0.04603
1118.20 0.04602
1118.30 0.046
1118.40 0.04599
1118.50 0.04597
1118.60 0.04596
1118.70 0.04595
1118.80 0.04593
1118.90 0.04592
1119.00 0.04591
1119.10 0.04589
1119.20 0.04588
1119.30 0.04586
1119.40 0.04585
1119.50 0.04584
1119.60 0.04582
1119.70 0.04581
1119.80 0.04579
1119.90 0.04578
1120.00 0.04577
1120.10 0.04575
1120.20 0.04574
1120.30 0.04573
1120.40 0.04571
1120.50 0.0457
1120.60 0.04568
1120.70 0.04567
1120.80 0.04566
1120.90 0.04564
1121.00 0.04563
1121.10 0.04562
1121.20 0.0456
1121.30 0.04559
1121.40 0.04557
1121.50 0.04556
1121.60 0.04555
1121.70 0.04553
1121.80 0.04552
1121.90 0.04551
1122.00 0.04549
1122.10 0.04548
1122.20 0.04546
1122.30 0.04545
1122.40 0.04543
1122.50 0.04542
1122.60 0.04541
1122.70 0.04539
1122.80 0.04538
1122.90 0.04536
1123.00 0.04535
1123.10 0.04533
1123.20 0.04532
1123.30 0.0453
1123.40 0.04529
1123.50 0.04528
1123.60 0.04526
1123.70 0.04525
1123.80 0.04523
1123.90 0.04522
1124.00 0.0452
1124.10 0.04519
1124.20 0.04518
1124.30 0.04516
1124.40 0.04515
1124.50 0.04513
1124.60 0.04512
1124.70 0.0451
1124.80 0.04509
1124.90 0.04507
1125.00 0.04506
1125.10 0.04505
1125.20 0.04503
1125.30 0.04502
1125.40 0.045
1125.50 0.04499
1125.60 0.04497
1125.70 0.04496
1125.80 0.04495
1125.90 0.04493
1126.00 0.04492
1126.10 0.0449
1126.20 0.04489
1126.30 0.04487
1126.40 0.04486
1126.50 0.04485
1126.60 0.04483
1126.70 0.04482
1126.80 0.0448
1126.90 0.04479
1127.00 0.04477
1127.10 0.04476
1127.20 0.04475
1127.30 0.04473
1127.40 0.04472
1127.50 0.0447
1127.60 0.04469
1127.70 0.04467
1127.80 0.04466
1127.90 0.04464
1128.00 0.04463
1128.10 0.04461
1128.20 0.0446
1128.30 0.04458
1128.40 0.04457
1128.50 0.04456
1128.60 0.04454
1128.70 0.04453
1128.80 0.04451
1128.90 0.0445
1129.00 0.04448
1129.10 0.04447
1129.20 0.04445
1129.30 0.04444
1129.40 0.04442
1129.50 0.04441
1129.60 0.0444
1129.70 0.04438
1129.80 0.04437
1129.90 0.04435
1130.00 0.04434
1130.10 0.04432
1130.20 0.04431
1130.30 0.04429
1130.40 0.04428
1130.50 0.04426
1130.60 0.04425
1130.70 0.04424
1130.80 0.04422
1130.90 0.04421
1131.00 0.04419
1131.10 0.04418
1131.20 0.04416
1131.30 0.04415
1131.40 0.04413
1131.50 0.04412
1131.60 0.04411
1131.70 0.04409
1131.80 0.04408
1131.90 0.04406
1132.00 0.04405
1132.10 0.04403
1132.20 0.04402
1132.30 0.044
1132.40 0.04399
1132.50 0.04397
1132.60 0.04396
1132.70 0.04395
1132.80 0.04393
1132.90 0.04392
1133.00 0.0439
1133.10 0.04389
1133.20 0.04387
1133.30 0.04386
1133.40 0.04384
1133.50 0.04383
1133.60 0.04381
1133.70 0.0438
1133.80 0.04378
1133.90 0.04377
1134.00 0.04376
1134.10 0.04374
1134.20 0.04373
1134.30 0.04371
1134.40 0.0437
1134.50 0.04368
1134.60 0.04367
1134.70 0.04365
1134.80 0.04364
1134.90 0.04362
1135.00 0.04361
1135.10 0.0436
1135.20 0.04358
1135.30 0.04357
1135.40 0.04355
1135.50 0.04354
1135.60 0.04352
1135.70 0.04351
1135.80 0.04349
1135.90 0.04348
1136.00 0.04347
1136.10 0.04345
1136.20 0.04344
1136.30 0.04342
1136.40 0.04341
1136.50 0.04339
1136.60 0.04338
1136.70 0.04336
1136.80 0.04335
1136.90 0.04334
1137.00 0.04332
1137.10 0.04331
1137.20 0.04329
1137.30 0.04328
1137.40 0.04326
1137.50 0.04325
1137.60 0.04323
1137.70 0.04322
1137.80 0.04321
1137.90 0.04319
1138.00 0.04318
1138.10 0.04316
1138.20 0.04315
1138.30 0.04313
1138.40 0.04312
1138.50 0.0431
1138.60 0.04309
1138.70 0.04308
1138.80 0.04306
1138.90 0.04305
1139.00 0.04303
1139.10 0.04302
1139.20 0.043
1139.30 0.04299
1139.40 0.04297
1139.50 0.04296
1139.60 0.04295
1139.70 0.04293
1139.80 0.04292
1139.90 0.0429
1140.00 0.04289
1140.10 0.04287
1140.20 0.04286
1140.30 0.04285
1140.40 0.04283
1140.50 0.04282
1140.60 0.0428
1140.70 0.04279
1140.80 0.04277
1140.90 0.04276
1141.00 0.04274
1141.10 0.04273
1141.20 0.04272
1141.30 0.0427
1141.40 0.04269
1141.50 0.04267
1141.60 0.04266
1141.70 0.04264
1141.80 0.04263
1141.90 0.04262
1142.00 0.0426
1142.10 0.04259
1142.20 0.04257
1142.30 0.04256
1142.40 0.04254
1142.50 0.04253
1142.60 0.04252
1142.70 0.0425
1142.80 0.04249
1142.90 0.04247
1143.00 0.04246
1143.10 0.04244
1143.20 0.04243
1143.30 0.04242
1143.40 0.0424
1143.50 0.04239
1143.60 0.04237
1143.70 0.04236
1143.80 0.04235
1143.90 0.04233
1144.00 0.04232
1144.10 0.0423
1144.20 0.04229
1144.30 0.04227
1144.40 0.04226
1144.50 0.04225
1144.60 0.04223
1144.70 0.04222
1144.80 0.0422
1144.90 0.04219
1145.00 0.04217
1145.10 0.04216
1145.20 0.04215
1145.30 0.04213
1145.40 0.04212
1145.50 0.0421
1145.60 0.04209
1145.70 0.04208
1145.80 0.04206
1145.90 0.04205
1146.00 0.04203
1146.10 0.04202
1146.20 0.042
1146.30 0.04199
1146.40 0.04198
1146.50 0.04196
1146.60 0.04195
1146.70 0.04193
1146.80 0.04192
1146.90 0.04191
1147.00 0.04189
1147.10 0.04188
1147.20 0.04186
1147.30 0.04185
1147.40 0.04184
1147.50 0.04182
1147.60 0.04181
1147.70 0.04179
1147.80 0.04178
1147.90 0.04177
1148.00 0.04175
1148.10 0.04174
1148.20 0.04172
1148.30 0.04171
1148.40 0.0417
1148.50 0.04168
1148.60 0.04167
1148.70 0.04165
1148.80 0.04164
1148.90 0.04163
1149.00 0.04161
1149.10 0.0416
1149.20 0.04158
1149.30 0.04157
1149.40 0.04156
1149.50 0.04154
1149.60 0.04153
1149.70 0.04151
1149.80 0.0415
1149.90 0.04149
1150.00 0.04147
1150.10 0.04146
1150.20 0.04144
1150.30 0.04143
1150.40 0.04142
1150.50 0.0414
1150.60 0.04139
1150.70 0.04137
1150.80 0.04136
1150.90 0.04135
1151.00 0.04133
1151.10 0.04132
1151.20 0.0413
1151.30 0.04129
1151.40 0.04128
1151.50 0.04126
1151.60 0.04125
1151.70 0.04123
1151.80 0.04122
1151.90 0.04121
1152.00 0.04119
1152.10 0.04118
1152.20 0.04117
1152.30 0.04115
1152.40 0.04114
1152.50 0.04112
1152.60 0.04111
1152.70 0.0411
1152.80 0.04108
1152.90 0.04107
1153.00 0.04106
1153.10 0.04104
1153.20 0.04103
1153.30 0.04101
1153.40 0.041
1153.50 0.04099
1153.60 0.04097
1153.70 0.04096
1153.80 0.04095
1153.90 0.04093
1154.00 0.04092
1154.10 0.0409
1154.20 0.04089
1154.30 0.04088
1154.40 0.04086
1154.50 0.04085
1154.60 0.04084
1154.70 0.04082
1154.80 0.04081
1154.90 0.04079
1155.00 0.04078
1155.10 0.04077
1155.20 0.04075
1155.30 0.04074
1155.40 0.04073
1155.50 0.04071
1155.60 0.0407
1155.70 0.04068
1155.80 0.04067
1155.90 0.04066
1156.00 0.04064
1156.10 0.04063
1156.20 0.04062
1156.30 0.0406
1156.40 0.04059
1156.50 0.04058
1156.60 0.04056
1156.70 0.04055
1156.80 0.04053
1156.90 0.04052
1157.00 0.04051
1157.10 0.04049
1157.20 0.04048
1157.30 0.04047
1157.40 0.04045
1157.50 0.04044
1157.60 0.04043
1157.70 0.04041
1157.80 0.0404
1157.90 0.04039
1158.00 0.04037
1158.10 0.04036
1158.20 0.04034
1158.30 0.04033
1158.40 0.04032
1158.50 0.0403
1158.60 0.04029
1158.70 0.04028
1158.80 0.04026
1158.90 0.04025
1159.00 0.04024
1159.10 0.04022
1159.20 0.04021
1159.30 0.0402
1159.40 0.04018
1159.50 0.04017
1159.60 0.04016
1159.70 0.04014
1159.80 0.04013
1159.90 0.04012
1160.00 0.0401
1160.10 0.04009
1160.20 0.04007
1160.30 0.04006
1160.40 0.04005
1160.50 0.04003
1160.60 0.04002
1160.70 0.04001
1160.80 0.03999
1160.90 0.03998
1161.00 0.03997
1161.10 0.03995
1161.20 0.03994
1161.30 0.03993
1161.40 0.03991
1161.50 0.0399
1161.60 0.03989
1161.70 0.03987
1161.80 0.03986
1161.90 0.03985
1162.00 0.03983
1162.10 0.03982
1162.20 0.03981
1162.30 0.03979
1162.40 0.03978
1162.50 0.03977
1162.60 0.03975
1162.70 0.03974
1162.80 0.03973
1162.90 0.03971
1163.00 0.0397
1163.10 0.03969
1163.20 0.03967
1163.30 0.03966
1163.40 0.03965
1163.50 0.03963
1163.60 0.03962
1163.70 0.03961
1163.80 0.03959
1163.90 0.03958
1164.00 0.03957
1164.10 0.03955
1164.20 0.03954
1164.30 0.03953
1164.40 0.03952
1164.50 0.0395
1164.60 0.03949
1164.70 0.03948
1164.80 0.03946
1164.90 0.03945
1165.00 0.03944
1165.10 0.03942
1165.20 0.03941
1165.30 0.0394
1165.40 0.03938
1165.50 0.03937
1165.60 0.03936
1165.70 0.03934
1165.80 0.03933
1165.90 0.03932
1166.00 0.0393
1166.10 0.03929
1166.20 0.03928
1166.30 0.03926
1166.40 0.03925
1166.50 0.03924
1166.60 0.03923
1166.70 0.03921
1166.80 0.0392
1166.90 0.03919
1167.00 0.03917
1167.10 0.03916
1167.20 0.03915
1167.30 0.03913
1167.40 0.03912
1167.50 0.03911
1167.60 0.03909
1167.70 0.03908
1167.80 0.03907
1167.90 0.03906
1168.00 0.03904
1168.10 0.03903
1168.20 0.03902
1168.30 0.039
1168.40 0.03899
1168.50 0.03898
1168.60 0.03896
1168.70 0.03895
1168.80 0.03894
1168.90 0.03893
1169.00 0.03891
1169.10 0.0389
1169.20 0.03889
1169.30 0.03887
1169.40 0.03886
1169.50 0.03885
1169.60 0.03883
1169.70 0.03882
1169.80 0.03881
1169.90 0.0388
1170.00 0.03878
1170.10 0.03877
1170.20 0.03876
1170.30 0.03874
1170.40 0.03873
1170.50 0.03872
1170.60 0.03871
1170.70 0.03869
1170.80 0.03868
1170.90 0.03867
1171.00 0.03865
1171.10 0.03864
1171.20 0.03863
1171.30 0.03861
1171.40 0.0386
1171.50 0.03859
1171.60 0.03858
1171.70 0.03856
1171.80 0.03855
1171.90 0.03854
1172.00 0.03852
1172.10 0.03851
1172.20 0.0385
1172.30 0.03849
1172.40 0.03847
1172.50 0.03846
1172.60 0.03845
1172.70 0.03844
1172.80 0.03842
1172.90 0.03841
1173.00 0.0384
1173.10 0.03838
1173.20 0.03837
1173.30 0.03836
1173.40 0.03835
1173.50 0.03833
1173.60 0.03832
1173.70 0.03831
1173.80 0.03829
1173.90 0.03828
1174.00 0.03827
1174.10 0.03826
1174.20 0.03824
1174.30 0.03823
1174.40 0.03822
1174.50 0.03821
1174.60 0.03819
1174.70 0.03818
1174.80 0.03817
1174.90 0.03815
1175.00 0.03814
1175.10 0.03813
1175.20 0.03812
1175.30 0.0381
1175.40 0.03809
1175.50 0.03808
1175.60 0.03807
1175.70 0.03805
1175.80 0.03804
1175.90 0.03803
1176.00 0.03802
1176.10 0.038
1176.20 0.03799
1176.30 0.03798
1176.40 0.03796
1176.50 0.03795
1176.60 0.03794
1176.70 0.03793
1176.80 0.03791
1176.90 0.0379
1177.00 0.03789
1177.10 0.03788
1177.20 0.03786
1177.30 0.03785
1177.40 0.03784
1177.50 0.03783
1177.60 0.03781
1177.70 0.0378
1177.80 0.03779
1177.90 0.03778
1178.00 0.03776
1178.10 0.03775
1178.20 0.03774
1178.30 0.03773
1178.40 0.03771
1178.50 0.0377
1178.60 0.03769
1178.70 0.03768
1178.80 0.03766
1178.90 0.03765
1179.00 0.03764
1179.10 0.03763
1179.20 0.03761
1179.30 0.0376
1179.40 0.03759
1179.50 0.03758
1179.60 0.03756
1179.70 0.03755
1179.80 0.03754
1179.90 0.03753
1180.00 0.03751
1180.10 0.0375
1180.20 0.03749
1180.30 0.03748
1180.40 0.03746
1180.50 0.03745
1180.60 0.03744
1180.70 0.03743
1180.80 0.03741
1180.90 0.0374
1181.00 0.03739
1181.10 0.03738
1181.20 0.03737
1181.30 0.03735
1181.40 0.03734
1181.50 0.03733
1181.60 0.03732
1181.70 0.0373
1181.80 0.03729
1181.90 0.03728
1182.00 0.03727
1182.10 0.03725
1182.20 0.03724
1182.30 0.03723
1182.40 0.03722
1182.50 0.0372
1182.60 0.03719
1182.70 0.03718
1182.80 0.03717
1182.90 0.03716
1183.00 0.03714
1183.10 0.03713
1183.20 0.03712
1183.30 0.03711
1183.40 0.03709
1183.50 0.03708
1183.60 0.03707
1183.70 0.03706
1183.80 0.03705
1183.90 0.03703
1184.00 0.03702
1184.10 0.03701
1184.20 0.037
1184.30 0.03698
1184.40 0.03697
1184.50 0.03696
1184.60 0.03695
1184.70 0.03694
1184.80 0.03692
1184.90 0.03691
1185.00 0.0369
1185.10 0.03689
1185.20 0.03687
1185.30 0.03686
1185.40 0.03685
1185.50 0.03684
1185.60 0.03683
1185.70 0.03681
1185.80 0.0368
1185.90 0.03679
1186.00 0.03678
1186.10 0.03676
1186.20 0.03675
1186.30 0.03674
1186.40 0.03673
1186.50 0.03672
1186.60 0.0367
1186.70 0.03669
1186.80 0.03668
1186.90 0.03667
1187.00 0.03666
1187.10 0.03664
1187.20 0.03663
1187.30 0.03662
1187.40 0.03661
1187.50 0.03659
1187.60 0.03658
1187.70 0.03657
1187.80 0.03656
1187.90 0.03655
1188.00 0.03653
1188.10 0.03652
1188.20 0.03651
1188.30 0.0365
1188.40 0.03649
1188.50 0.03647
1188.60 0.03646
1188.70 0.03645
1188.80 0.03644
1188.90 0.03643
1189.00 0.03641
1189.10 0.0364
1189.20 0.03639
1189.30 0.03638
1189.40 0.03637
1189.50 0.03635
1189.60 0.03634
1189.70 0.03633
1189.80 0.03632
1189.90 0.03631
1190.00 0.03629
1190.10 0.03628
1190.20 0.03627
1190.30 0.03626
1190.40 0.03625
1190.50 0.03624
1190.60 0.03622
1190.70 0.03621
1190.80 0.0362
1190.90 0.03619
1191.00 0.03618
1191.10 0.03616
1191.20 0.03615
1191.30 0.03614
1191.40 0.03613
1191.50 0.03612
1191.60 0.0361
1191.70 0.03609
1191.80 0.03608
1191.90 0.03607
1192.00 0.03606
1192.10 0.03604
1192.20 0.03603
1192.30 0.03602
1192.40 0.03601
1192.50 0.036
1192.60 0.03599
1192.70 0.03597
1192.80 0.03596
1192.90 0.03595
1193.00 0.03594
1193.10 0.03593
1193.20 0.03591
1193.30 0.0359
1193.40 0.03589
1193.50 0.03588
1193.60 0.03587
1193.70 0.03586
1193.80 0.03584
1193.90 0.03583
1194.00 0.03582
1194.10 0.03581
1194.20 0.0358
1194.30 0.03579
1194.40 0.03577
1194.50 0.03576
1194.60 0.03575
1194.70 0.03574
1194.80 0.03573
1194.90 0.03571
1195.00 0.0357
1195.10 0.03569
1195.20 0.03568
1195.30 0.03567
1195.40 0.03566
1195.50 0.03564
1195.60 0.03563
1195.70 0.03562
1195.80 0.03561
1195.90 0.0356
1196.00 0.03559
1196.10 0.03557
1196.20 0.03556
1196.30 0.03555
1196.40 0.03554
1196.50 0.03553
1196.60 0.03552
1196.70 0.0355
1196.80 0.03549
1196.90 0.03548
1197.00 0.03547
1197.10 0.03546
1197.20 0.03545
1197.30 0.03543
1197.40 0.03542
1197.50 0.03541
1197.60 0.0354
1197.70 0.03539
1197.80 0.03538
1197.90 0.03536
1198.00 0.03535
1198.10 0.03534
1198.20 0.03533
1198.30 0.03532
1198.40 0.03531
1198.50 0.0353
1198.60 0.03528
1198.70 0.03527
1198.80 0.03526
1198.90 0.03525
1199.00 0.03524
1199.10 0.03523
1199.20 0.03521
1199.30 0.0352
1199.40 0.03519
1199.50 0.03518
1199.60 0.03517
1199.70 0.03516
1199.80 0.03515
1199.90 0.03513
1200.00 0
