# Version 2.1 - nm, norm@500 to 1, cut digits, bergeron_45000_95.dat_45000
# Wavelength(nm)  Flambda(ergs/cm^s/s/nm)
300.00 6.151
300.10 6.143
300.20 6.136
300.30 6.129
300.40 6.121
300.50 6.114
300.60 6.107
300.70 6.099
300.80 6.092
300.90 6.085
301.00 6.078
301.10 6.07
301.20 6.063
301.30 6.056
301.40 6.049
301.50 6.041
301.60 6.034
301.70 6.027
301.80 6.02
301.90 6.012
302.00 6.005
302.10 5.998
302.20 5.991
302.30 5.984
302.40 5.977
302.50 5.97
302.60 5.962
302.70 5.955
302.80 5.948
302.90 5.941
303.00 5.934
303.10 5.927
303.20 5.92
303.30 5.913
303.40 5.906
303.50 5.899
303.60 5.892
303.70 5.885
303.80 5.878
303.90 5.871
304.00 5.864
304.10 5.857
304.20 5.85
304.30 5.843
304.40 5.836
304.50 5.829
304.60 5.822
304.70 5.816
304.80 5.809
304.90 5.802
305.00 5.795
305.10 5.788
305.20 5.781
305.30 5.774
305.40 5.768
305.50 5.761
305.60 5.754
305.70 5.747
305.80 5.74
305.90 5.734
306.00 5.727
306.10 5.72
306.20 5.713
306.30 5.707
306.40 5.7
306.50 5.693
306.60 5.687
306.70 5.68
306.80 5.673
306.90 5.667
307.00 5.66
307.10 5.653
307.20 5.647
307.30 5.64
307.40 5.633
307.50 5.627
307.60 5.62
307.70 5.614
307.80 5.607
307.90 5.6
308.00 5.594
308.10 5.587
308.20 5.581
308.30 5.574
308.40 5.568
308.50 5.561
308.60 5.555
308.70 5.548
308.80 5.542
308.90 5.535
309.00 5.529
309.10 5.522
309.20 5.516
309.30 5.509
309.40 5.503
309.50 5.497
309.60 5.49
309.70 5.484
309.80 5.477
309.90 5.471
310.00 5.465
310.10 5.458
310.20 5.452
310.30 5.446
310.40 5.439
310.50 5.433
310.60 5.427
310.70 5.42
310.80 5.414
310.90 5.408
311.00 5.401
311.10 5.395
311.20 5.389
311.30 5.383
311.40 5.376
311.50 5.37
311.60 5.364
311.70 5.358
311.80 5.351
311.90 5.345
312.00 5.339
312.10 5.333
312.20 5.327
312.30 5.321
312.40 5.314
312.50 5.308
312.60 5.302
312.70 5.296
312.80 5.29
312.90 5.284
313.00 5.278
313.10 5.272
313.20 5.265
313.30 5.259
313.40 5.253
313.50 5.247
313.60 5.241
313.70 5.235
313.80 5.229
313.90 5.223
314.00 5.217
314.10 5.211
314.20 5.205
314.30 5.199
314.40 5.193
314.50 5.187
314.60 5.181
314.70 5.175
314.80 5.169
314.90 5.163
315.00 5.157
315.10 5.152
315.20 5.146
315.30 5.14
315.40 5.134
315.50 5.128
315.60 5.122
315.70 5.116
315.80 5.11
315.90 5.105
316.00 5.099
316.10 5.093
316.20 5.087
316.30 5.081
316.40 5.075
316.50 5.07
316.60 5.064
316.70 5.058
316.80 5.052
316.90 5.046
317.00 5.041
317.10 5.035
317.20 5.029
317.30 5.023
317.40 5.018
317.50 5.012
317.60 5.006
317.70 5.001
317.80 4.995
317.90 4.989
318.00 4.984
318.10 4.978
318.20 4.972
318.30 4.967
318.40 4.961
318.50 4.955
318.60 4.95
318.70 4.944
318.80 4.938
318.90 4.933
319.00 4.927
319.10 4.922
319.20 4.916
319.30 4.911
319.40 4.905
319.50 4.899
319.60 4.894
319.70 4.888
319.80 4.883
319.90 4.877
320.00 4.872
320.10 4.866
320.20 4.861
320.30 4.855
320.40 4.85
320.50 4.844
320.60 4.839
320.70 4.833
320.80 4.828
320.90 4.822
321.00 4.817
321.10 4.812
321.20 4.806
321.30 4.801
321.40 4.795
321.50 4.79
321.60 4.785
321.70 4.779
321.80 4.774
321.90 4.768
322.00 4.763
322.10 4.758
322.20 4.752
322.30 4.747
322.40 4.742
322.50 4.736
322.60 4.731
322.70 4.726
322.80 4.72
322.90 4.715
323.00 4.71
323.10 4.705
323.20 4.699
323.30 4.694
323.40 4.689
323.50 4.683
323.60 4.678
323.70 4.673
323.80 4.668
323.90 4.663
324.00 4.657
324.10 4.652
324.20 4.647
324.30 4.642
324.40 4.637
324.50 4.631
324.60 4.626
324.70 4.621
324.80 4.616
324.90 4.611
325.00 4.606
325.10 4.6
325.20 4.595
325.30 4.59
325.40 4.585
325.50 4.58
325.60 4.575
325.70 4.57
325.80 4.565
325.90 4.56
326.00 4.555
326.10 4.549
326.20 4.544
326.30 4.539
326.40 4.534
326.50 4.529
326.60 4.524
326.70 4.519
326.80 4.514
326.90 4.509
327.00 4.504
327.10 4.499
327.20 4.494
327.30 4.489
327.40 4.484
327.50 4.479
327.60 4.474
327.70 4.469
327.80 4.464
327.90 4.46
328.00 4.455
328.10 4.45
328.20 4.445
328.30 4.44
328.40 4.435
328.50 4.43
328.60 4.425
328.70 4.42
328.80 4.415
328.90 4.411
329.00 4.406
329.10 4.401
329.20 4.396
329.30 4.391
329.40 4.386
329.50 4.381
329.60 4.377
329.70 4.372
329.80 4.367
329.90 4.362
330.00 4.357
330.10 4.353
330.20 4.348
330.30 4.343
330.40 4.338
330.50 4.334
330.60 4.329
330.70 4.324
330.80 4.319
330.90 4.315
331.00 4.31
331.10 4.305
331.20 4.3
331.30 4.296
331.40 4.291
331.50 4.286
331.60 4.282
331.70 4.277
331.80 4.272
331.90 4.268
332.00 4.263
332.10 4.258
332.20 4.254
332.30 4.249
332.40 4.244
332.50 4.24
332.60 4.235
332.70 4.23
332.80 4.226
332.90 4.221
333.00 4.217
333.10 4.212
333.20 4.207
333.30 4.203
333.40 4.198
333.50 4.194
333.60 4.189
333.70 4.185
333.80 4.18
333.90 4.175
334.00 4.171
334.10 4.166
334.20 4.162
334.30 4.157
334.40 4.153
334.50 4.148
334.60 4.144
334.70 4.139
334.80 4.135
334.90 4.13
335.00 4.126
335.10 4.121
335.20 4.117
335.30 4.113
335.40 4.108
335.50 4.104
335.60 4.099
335.70 4.095
335.80 4.09
335.90 4.086
336.00 4.081
336.10 4.077
336.20 4.073
336.30 4.068
336.40 4.064
336.50 4.059
336.60 4.055
336.70 4.051
336.80 4.046
336.90 4.042
337.00 4.038
337.10 4.033
337.20 4.029
337.30 4.025
337.40 4.02
337.50 4.016
337.60 4.012
337.70 4.007
337.80 4.003
337.90 3.999
338.00 3.994
338.10 3.99
338.20 3.986
338.30 3.981
338.40 3.977
338.50 3.973
338.60 3.969
338.70 3.964
338.80 3.96
338.90 3.956
339.00 3.952
339.10 3.947
339.20 3.943
339.30 3.939
339.40 3.935
339.50 3.93
339.60 3.926
339.70 3.922
339.80 3.918
339.90 3.914
340.00 3.909
340.10 3.905
340.20 3.901
340.30 3.897
340.40 3.893
340.50 3.889
340.60 3.885
340.70 3.88
340.80 3.876
340.90 3.872
341.00 3.868
341.10 3.864
341.20 3.86
341.30 3.856
341.40 3.852
341.50 3.847
341.60 3.843
341.70 3.839
341.80 3.835
341.90 3.831
342.00 3.827
342.10 3.823
342.20 3.819
342.30 3.815
342.40 3.811
342.50 3.807
342.60 3.803
342.70 3.799
342.80 3.795
342.90 3.791
343.00 3.787
343.10 3.783
343.20 3.779
343.30 3.774
343.40 3.77
343.50 3.766
343.60 3.762
343.70 3.758
343.80 3.755
343.90 3.751
344.00 3.747
344.10 3.743
344.20 3.739
344.30 3.735
344.40 3.731
344.50 3.727
344.60 3.723
344.70 3.719
344.80 3.715
344.90 3.711
345.00 3.707
345.10 3.703
345.20 3.699
345.30 3.695
345.40 3.692
345.50 3.688
345.60 3.684
345.70 3.68
345.80 3.676
345.90 3.672
346.00 3.668
346.10 3.664
346.20 3.661
346.30 3.657
346.40 3.653
346.50 3.649
346.60 3.645
346.70 3.641
346.80 3.638
346.90 3.634
347.00 3.63
347.10 3.626
347.20 3.622
347.30 3.619
347.40 3.615
347.50 3.611
347.60 3.607
347.70 3.603
347.80 3.6
347.90 3.596
348.00 3.592
348.10 3.588
348.20 3.585
348.30 3.581
348.40 3.577
348.50 3.573
348.60 3.57
348.70 3.566
348.80 3.562
348.90 3.558
349.00 3.555
349.10 3.551
349.20 3.547
349.30 3.544
349.40 3.54
349.50 3.536
349.60 3.533
349.70 3.529
349.80 3.525
349.90 3.522
350.00 3.518
350.10 3.514
350.20 3.511
350.30 3.507
350.40 3.503
350.50 3.5
350.60 3.496
350.70 3.492
350.80 3.489
350.90 3.485
351.00 3.481
351.10 3.478
351.20 3.474
351.30 3.471
351.40 3.467
351.50 3.463
351.60 3.46
351.70 3.456
351.80 3.453
351.90 3.449
352.00 3.445
352.10 3.442
352.20 3.438
352.30 3.435
352.40 3.431
352.50 3.428
352.60 3.424
352.70 3.421
352.80 3.417
352.90 3.414
353.00 3.41
353.10 3.407
353.20 3.403
353.30 3.4
353.40 3.396
353.50 3.392
353.60 3.389
353.70 3.385
353.80 3.382
353.90 3.378
354.00 3.375
354.10 3.372
354.20 3.368
354.30 3.365
354.40 3.361
354.50 3.358
354.60 3.354
354.70 3.351
354.80 3.347
354.90 3.344
355.00 3.34
355.10 3.337
355.20 3.334
355.30 3.33
355.40 3.327
355.50 3.323
355.60 3.32
355.70 3.317
355.80 3.313
355.90 3.31
356.00 3.306
356.10 3.303
356.20 3.3
356.30 3.296
356.40 3.293
356.50 3.289
356.60 3.286
356.70 3.283
356.80 3.279
356.90 3.276
357.00 3.273
357.10 3.269
357.20 3.266
357.30 3.263
357.40 3.259
357.50 3.256
357.60 3.253
357.70 3.249
357.80 3.246
357.90 3.243
358.00 3.239
358.10 3.236
358.20 3.233
358.30 3.23
358.40 3.226
358.50 3.223
358.60 3.22
358.70 3.216
358.80 3.213
358.90 3.21
359.00 3.207
359.10 3.203
359.20 3.2
359.30 3.197
359.40 3.194
359.50 3.19
359.60 3.187
359.70 3.184
359.80 3.181
359.90 3.177
360.00 3.174
360.10 3.171
360.20 3.168
360.30 3.165
360.40 3.161
360.50 3.158
360.60 3.155
360.70 3.152
360.80 3.149
360.90 3.145
361.00 3.142
361.10 3.139
361.20 3.136
361.30 3.133
361.40 3.13
361.50 3.126
361.60 3.123
361.70 3.12
361.80 3.117
361.90 3.114
362.00 3.111
362.10 3.107
362.20 3.104
362.30 3.101
362.40 3.098
362.50 3.095
362.60 3.092
362.70 3.089
362.80 3.086
362.90 3.082
363.00 3.079
363.10 3.076
363.20 3.073
363.30 3.07
363.40 3.067
363.50 3.064
363.60 3.061
363.70 3.058
363.80 3.055
363.90 3.052
364.00 3.049
364.10 3.045
364.20 3.042
364.30 3.039
364.40 3.036
364.50 3.033
364.60 3.03
364.70 3.027
364.80 3.024
364.90 3.021
365.00 3.018
365.10 3.015
365.20 3.012
365.30 3.009
365.40 3.006
365.50 3.003
365.60 3
365.70 2.997
365.80 2.994
365.90 2.991
366.00 2.988
366.10 2.985
366.20 2.982
366.30 2.979
366.40 2.976
366.50 2.973
366.60 2.97
366.70 2.967
366.80 2.964
366.90 2.961
367.00 2.958
367.10 2.955
367.20 2.952
367.30 2.949
367.40 2.946
367.50 2.943
367.60 2.94
367.70 2.937
367.80 2.934
367.90 2.931
368.00 2.928
368.10 2.925
368.20 2.922
368.30 2.919
368.40 2.916
368.50 2.913
368.60 2.91
368.70 2.907
368.80 2.904
368.90 2.901
369.00 2.898
369.10 2.895
369.20 2.892
369.30 2.889
369.40 2.886
369.50 2.883
369.60 2.88
369.70 2.877
369.80 2.874
369.90 2.871
370.00 2.868
370.10 2.865
370.20 2.862
370.30 2.859
370.40 2.856
370.50 2.853
370.60 2.85
370.70 2.847
370.80 2.844
370.90 2.841
371.00 2.838
371.10 2.835
371.20 2.832
371.30 2.829
371.40 2.826
371.50 2.823
371.60 2.82
371.70 2.817
371.80 2.814
371.90 2.811
372.00 2.808
372.10 2.806
372.20 2.803
372.30 2.8
372.40 2.798
372.50 2.795
372.60 2.792
372.70 2.79
372.80 2.787
372.90 2.784
373.00 2.782
373.10 2.779
373.20 2.776
373.30 2.774
373.40 2.771
373.50 2.768
373.60 2.766
373.70 2.763
373.80 2.76
373.90 2.758
374.00 2.755
374.10 2.752
374.20 2.749
374.30 2.747
374.40 2.744
374.50 2.741
374.60 2.738
374.70 2.735
374.80 2.732
374.90 2.73
375.00 2.727
375.10 2.724
375.20 2.721
375.30 2.718
375.40 2.715
375.50 2.713
375.60 2.71
375.70 2.707
375.80 2.704
375.90 2.701
376.00 2.699
376.10 2.696
376.20 2.693
376.30 2.69
376.40 2.688
376.50 2.685
376.60 2.682
376.70 2.679
376.80 2.677
376.90 2.674
377.00 2.671
377.10 2.668
377.20 2.666
377.30 2.663
377.40 2.66
377.50 2.658
377.60 2.655
377.70 2.653
377.80 2.65
377.90 2.647
378.00 2.645
378.10 2.642
378.20 2.639
378.30 2.637
378.40 2.634
378.50 2.632
378.60 2.629
378.70 2.626
378.80 2.624
378.90 2.621
379.00 2.619
379.10 2.616
379.20 2.613
379.30 2.611
379.40 2.608
379.50 2.606
379.60 2.603
379.70 2.601
379.80 2.598
379.90 2.595
380.00 2.593
380.10 2.59
380.20 2.588
380.30 2.585
380.40 2.583
380.50 2.58
380.60 2.578
380.70 2.575
380.80 2.573
380.90 2.57
381.00 2.568
381.10 2.565
381.20 2.563
381.30 2.56
381.40 2.558
381.50 2.555
381.60 2.553
381.70 2.551
381.80 2.548
381.90 2.546
382.00 2.543
382.10 2.541
382.20 2.538
382.30 2.536
382.40 2.533
382.50 2.531
382.60 2.529
382.70 2.526
382.80 2.524
382.90 2.521
383.00 2.519
383.10 2.517
383.20 2.514
383.30 2.512
383.40 2.509
383.50 2.507
383.60 2.505
383.70 2.502
383.80 2.5
383.90 2.498
384.00 2.495
384.10 2.493
384.20 2.491
384.30 2.489
384.40 2.486
384.50 2.484
384.60 2.482
384.70 2.48
384.80 2.477
384.90 2.475
385.00 2.473
385.10 2.47
385.20 2.468
385.30 2.466
385.40 2.464
385.50 2.461
385.60 2.459
385.70 2.457
385.80 2.455
385.90 2.452
386.00 2.45
386.10 2.448
386.20 2.446
386.30 2.443
386.40 2.441
386.50 2.439
386.60 2.437
386.70 2.434
386.80 2.432
386.90 2.43
387.00 2.428
387.10 2.425
387.20 2.423
387.30 2.421
387.40 2.419
387.50 2.416
387.60 2.414
387.70 2.412
387.80 2.41
387.90 2.408
388.00 2.405
388.10 2.403
388.20 2.401
388.30 2.399
388.40 2.397
388.50 2.394
388.60 2.392
388.70 2.39
388.80 2.388
388.90 2.386
389.00 2.384
389.10 2.382
389.20 2.38
389.30 2.378
389.40 2.376
389.50 2.374
389.60 2.372
389.70 2.37
389.80 2.368
389.90 2.366
390.00 2.364
390.10 2.362
390.20 2.36
390.30 2.359
390.40 2.357
390.50 2.355
390.60 2.353
390.70 2.351
390.80 2.349
390.90 2.347
391.00 2.345
391.10 2.343
391.20 2.341
391.30 2.339
391.40 2.337
391.50 2.335
391.60 2.333
391.70 2.331
391.80 2.329
391.90 2.327
392.00 2.325
392.10 2.323
392.20 2.321
392.30 2.319
392.40 2.317
392.50 2.315
392.60 2.313
392.70 2.311
392.80 2.308
392.90 2.306
393.00 2.304
393.10 2.302
393.20 2.3
393.30 2.298
393.40 2.295
393.50 2.293
393.60 2.291
393.70 2.289
393.80 2.286
393.90 2.284
394.00 2.282
394.10 2.28
394.20 2.277
394.30 2.275
394.40 2.273
394.50 2.27
394.60 2.268
394.70 2.266
394.80 2.263
394.90 2.261
395.00 2.258
395.10 2.256
395.20 2.254
395.30 2.251
395.40 2.249
395.50 2.246
395.60 2.244
395.70 2.242
395.80 2.239
395.90 2.237
396.00 2.234
396.10 2.232
396.20 2.229
396.30 2.227
396.40 2.225
396.50 2.222
396.60 2.22
396.70 2.218
396.80 2.216
396.90 2.213
397.00 2.211
397.10 2.21
397.20 2.209
397.30 2.207
397.40 2.206
397.50 2.205
397.60 2.204
397.70 2.203
397.80 2.202
397.90 2.2
398.00 2.199
398.10 2.198
398.20 2.197
398.30 2.196
398.40 2.195
398.50 2.194
398.60 2.193
398.70 2.192
398.80 2.191
398.90 2.189
399.00 2.188
399.10 2.187
399.20 2.186
399.30 2.185
399.40 2.184
399.50 2.182
399.60 2.181
399.70 2.18
399.80 2.179
399.90 2.177
400.00 2.176
400.10 2.175
400.20 2.173
400.30 2.172
400.40 2.17
400.50 2.169
400.60 2.167
400.70 2.166
400.80 2.164
400.90 2.163
401.00 2.161
401.10 2.16
401.20 2.158
401.30 2.157
401.40 2.155
401.50 2.153
401.60 2.152
401.70 2.15
401.80 2.148
401.90 2.146
402.00 2.144
402.10 2.143
402.20 2.141
402.30 2.139
402.40 2.137
402.50 2.135
402.60 2.133
402.70 2.131
402.80 2.129
402.90 2.127
403.00 2.125
403.10 2.123
403.20 2.121
403.30 2.119
403.40 2.116
403.50 2.114
403.60 2.112
403.70 2.11
403.80 2.107
403.90 2.105
404.00 2.103
404.10 2.1
404.20 2.098
404.30 2.095
404.40 2.093
404.50 2.09
404.60 2.088
404.70 2.085
404.80 2.082
404.90 2.08
405.00 2.077
405.10 2.074
405.20 2.072
405.30 2.069
405.40 2.066
405.50 2.063
405.60 2.06
405.70 2.057
405.80 2.054
405.90 2.051
406.00 2.048
406.10 2.045
406.20 2.042
406.30 2.039
406.40 2.036
406.50 2.033
406.60 2.029
406.70 2.026
406.80 2.023
406.90 2.02
407.00 2.016
407.10 2.013
407.20 2.009
407.30 2.006
407.40 2.003
407.50 1.999
407.60 1.996
407.70 1.992
407.80 1.988
407.90 1.985
408.00 1.981
408.10 1.978
408.20 1.974
408.30 1.97
408.40 1.967
408.50 1.963
408.60 1.96
408.70 1.956
408.80 1.953
408.90 1.949
409.00 1.946
409.10 1.942
409.20 1.939
409.30 1.936
409.40 1.933
409.50 1.93
409.60 1.927
409.70 1.925
409.80 1.923
409.90 1.921
410.00 1.92
410.10 1.919
410.20 1.918
410.30 1.916
410.40 1.914
410.50 1.912
410.60 1.911
410.70 1.911
410.80 1.91
410.90 1.91
411.00 1.91
411.10 1.91
411.20 1.91
411.30 1.911
411.40 1.911
411.50 1.911
411.60 1.912
411.70 1.912
411.80 1.913
411.90 1.913
412.00 1.914
412.10 1.915
412.20 1.915
412.30 1.916
412.40 1.916
412.50 1.917
412.60 1.917
412.70 1.918
412.80 1.918
412.90 1.919
413.00 1.919
413.10 1.919
413.20 1.92
413.30 1.92
413.40 1.92
413.50 1.921
413.60 1.921
413.70 1.921
413.80 1.921
413.90 1.922
414.00 1.922
414.10 1.922
414.20 1.922
414.30 1.922
414.40 1.922
414.50 1.922
414.60 1.922
414.70 1.922
414.80 1.921
414.90 1.921
415.00 1.921
415.10 1.921
415.20 1.921
415.30 1.92
415.40 1.92
415.50 1.92
415.60 1.919
415.70 1.919
415.80 1.918
415.90 1.918
416.00 1.917
416.10 1.917
416.20 1.916
416.30 1.916
416.40 1.915
416.50 1.915
416.60 1.914
416.70 1.913
416.80 1.912
416.90 1.912
417.00 1.911
417.10 1.91
417.20 1.909
417.30 1.909
417.40 1.908
417.50 1.907
417.60 1.906
417.70 1.905
417.80 1.904
417.90 1.903
418.00 1.902
418.10 1.901
418.20 1.9
418.30 1.899
418.40 1.898
418.50 1.897
418.60 1.896
418.70 1.895
418.80 1.893
418.90 1.892
419.00 1.891
419.10 1.89
419.20 1.889
419.30 1.887
419.40 1.886
419.50 1.885
419.60 1.884
419.70 1.882
419.80 1.881
419.90 1.879
420.00 1.878
420.10 1.877
420.20 1.875
420.30 1.874
420.40 1.872
420.50 1.871
420.60 1.869
420.70 1.868
420.80 1.866
420.90 1.865
421.00 1.863
421.10 1.862
421.20 1.86
421.30 1.858
421.40 1.857
421.50 1.855
421.60 1.853
421.70 1.852
421.80 1.85
421.90 1.848
422.00 1.847
422.10 1.845
422.20 1.843
422.30 1.841
422.40 1.839
422.50 1.837
422.60 1.836
422.70 1.834
422.80 1.832
422.90 1.83
423.00 1.828
423.10 1.826
423.20 1.824
423.30 1.822
423.40 1.82
423.50 1.818
423.60 1.816
423.70 1.814
423.80 1.812
423.90 1.81
424.00 1.807
424.10 1.805
424.20 1.803
424.30 1.801
424.40 1.799
424.50 1.796
424.60 1.794
424.70 1.792
424.80 1.789
424.90 1.787
425.00 1.785
425.10 1.782
425.20 1.78
425.30 1.777
425.40 1.775
425.50 1.772
425.60 1.77
425.70 1.767
425.80 1.765
425.90 1.762
426.00 1.76
426.10 1.757
426.20 1.754
426.30 1.751
426.40 1.749
426.50 1.746
426.60 1.743
426.70 1.74
426.80 1.737
426.90 1.734
427.00 1.731
427.10 1.728
427.20 1.725
427.30 1.722
427.40 1.719
427.50 1.716
427.60 1.713
427.70 1.71
427.80 1.706
427.90 1.703
428.00 1.7
428.10 1.697
428.20 1.693
428.30 1.69
428.40 1.686
428.50 1.683
428.60 1.679
428.70 1.676
428.80 1.672
428.90 1.668
429.00 1.665
429.10 1.661
429.20 1.657
429.30 1.653
429.40 1.649
429.50 1.645
429.60 1.641
429.70 1.637
429.80 1.633
429.90 1.629
430.00 1.625
430.10 1.621
430.20 1.616
430.30 1.612
430.40 1.608
430.50 1.603
430.60 1.599
430.70 1.594
430.80 1.59
430.90 1.585
431.00 1.58
431.10 1.576
431.20 1.571
431.30 1.566
431.40 1.561
431.50 1.556
431.60 1.551
431.70 1.546
431.80 1.541
431.90 1.536
432.00 1.531
432.10 1.526
432.20 1.521
432.30 1.516
432.40 1.511
432.50 1.505
432.60 1.5
432.70 1.495
432.80 1.489
432.90 1.484
433.00 1.478
433.10 1.473
433.20 1.467
433.30 1.461
433.40 1.455
433.50 1.449
433.60 1.442
433.70 1.435
433.80 1.427
433.90 1.419
434.00 1.412
434.10 1.411
434.20 1.416
434.30 1.422
434.40 1.428
434.50 1.433
434.60 1.437
434.70 1.441
434.80 1.445
434.90 1.449
435.00 1.452
435.10 1.455
435.20 1.459
435.30 1.462
435.40 1.465
435.50 1.468
435.60 1.471
435.70 1.473
435.80 1.476
435.90 1.479
436.00 1.482
436.10 1.484
436.20 1.487
436.30 1.489
436.40 1.492
436.50 1.494
436.60 1.497
436.70 1.499
436.80 1.501
436.90 1.504
437.00 1.506
437.10 1.508
437.20 1.51
437.30 1.512
437.40 1.514
437.50 1.516
437.60 1.518
437.70 1.52
437.80 1.521
437.90 1.523
438.00 1.525
438.10 1.526
438.20 1.528
438.30 1.529
438.40 1.531
438.50 1.532
438.60 1.533
438.70 1.535
438.80 1.536
438.90 1.537
439.00 1.538
439.10 1.539
439.20 1.54
439.30 1.541
439.40 1.542
439.50 1.543
439.60 1.544
439.70 1.545
439.80 1.545
439.90 1.546
440.00 1.547
440.10 1.547
440.20 1.548
440.30 1.549
440.40 1.549
440.50 1.55
440.60 1.55
440.70 1.55
440.80 1.551
440.90 1.551
441.00 1.551
441.10 1.552
441.20 1.552
441.30 1.552
441.40 1.552
441.50 1.552
441.60 1.552
441.70 1.552
441.80 1.552
441.90 1.552
442.00 1.552
442.10 1.552
442.20 1.552
442.30 1.552
442.40 1.552
442.50 1.552
442.60 1.552
442.70 1.552
442.80 1.551
442.90 1.551
443.00 1.551
443.10 1.551
443.20 1.55
443.30 1.55
443.40 1.55
443.50 1.549
443.60 1.549
443.70 1.548
443.80 1.548
443.90 1.547
444.00 1.547
444.10 1.547
444.20 1.546
444.30 1.546
444.40 1.545
444.50 1.544
444.60 1.544
444.70 1.543
444.80 1.543
444.90 1.542
445.00 1.541
445.10 1.541
445.20 1.54
445.30 1.539
445.40 1.539
445.50 1.538
445.60 1.537
445.70 1.537
445.80 1.536
445.90 1.535
446.00 1.534
446.10 1.534
446.20 1.533
446.30 1.532
446.40 1.531
446.50 1.531
446.60 1.53
446.70 1.529
446.80 1.528
446.90 1.527
447.00 1.526
447.10 1.526
447.20 1.525
447.30 1.524
447.40 1.523
447.50 1.522
447.60 1.521
447.70 1.52
447.80 1.519
447.90 1.518
448.00 1.517
448.10 1.517
448.20 1.516
448.30 1.515
448.40 1.514
448.50 1.513
448.60 1.512
448.70 1.511
448.80 1.51
448.90 1.509
449.00 1.508
449.10 1.507
449.20 1.506
449.30 1.505
449.40 1.504
449.50 1.503
449.60 1.502
449.70 1.501
449.80 1.5
449.90 1.499
450.00 1.498
450.10 1.497
450.20 1.496
450.30 1.495
450.40 1.494
450.50 1.493
450.60 1.492
450.70 1.491
450.80 1.489
450.90 1.488
451.00 1.487
451.10 1.486
451.20 1.485
451.30 1.484
451.40 1.483
451.50 1.482
451.60 1.481
451.70 1.48
451.80 1.479
451.90 1.478
452.00 1.477
452.10 1.475
452.20 1.474
452.30 1.473
452.40 1.472
452.50 1.471
452.60 1.47
452.70 1.469
452.80 1.468
452.90 1.467
453.00 1.466
453.10 1.464
453.20 1.463
453.30 1.462
453.40 1.461
453.50 1.46
453.60 1.459
453.70 1.458
453.80 1.457
453.90 1.455
454.00 1.454
454.10 1.453
454.20 1.452
454.30 1.451
454.40 1.45
454.50 1.449
454.60 1.448
454.70 1.446
454.80 1.445
454.90 1.444
455.00 1.443
455.10 1.442
455.20 1.441
455.30 1.44
455.40 1.438
455.50 1.437
455.60 1.436
455.70 1.435
455.80 1.434
455.90 1.433
456.00 1.432
456.10 1.43
456.20 1.429
456.30 1.428
456.40 1.427
456.50 1.426
456.60 1.425
456.70 1.424
456.80 1.422
456.90 1.421
457.00 1.42
457.10 1.419
457.20 1.418
457.30 1.417
457.40 1.416
457.50 1.414
457.60 1.413
457.70 1.412
457.80 1.411
457.90 1.41
458.00 1.409
458.10 1.407
458.20 1.406
458.30 1.405
458.40 1.404
458.50 1.403
458.60 1.402
458.70 1.4
458.80 1.399
458.90 1.398
459.00 1.397
459.10 1.396
459.20 1.395
459.30 1.393
459.40 1.392
459.50 1.391
459.60 1.39
459.70 1.389
459.80 1.388
459.90 1.387
460.00 1.385
460.10 1.384
460.20 1.383
460.30 1.382
460.40 1.381
460.50 1.38
460.60 1.378
460.70 1.377
460.80 1.376
460.90 1.375
461.00 1.374
461.10 1.373
461.20 1.371
461.30 1.37
461.40 1.369
461.50 1.368
461.60 1.367
461.70 1.365
461.80 1.364
461.90 1.363
462.00 1.362
462.10 1.361
462.20 1.36
462.30 1.358
462.40 1.357
462.50 1.356
462.60 1.355
462.70 1.354
462.80 1.353
462.90 1.351
463.00 1.35
463.10 1.349
463.20 1.348
463.30 1.347
463.40 1.346
463.50 1.344
463.60 1.343
463.70 1.342
463.80 1.341
463.90 1.34
464.00 1.338
464.10 1.337
464.20 1.336
464.30 1.335
464.40 1.334
464.50 1.333
464.60 1.331
464.70 1.33
464.80 1.329
464.90 1.328
465.00 1.327
465.10 1.325
465.20 1.324
465.30 1.323
465.40 1.322
465.50 1.321
465.60 1.319
465.70 1.318
465.80 1.317
465.90 1.316
466.00 1.315
466.10 1.313
466.20 1.312
466.30 1.311
466.40 1.31
466.50 1.309
466.60 1.307
466.70 1.306
466.80 1.305
466.90 1.304
467.00 1.303
467.10 1.301
467.20 1.3
467.30 1.299
467.40 1.298
467.50 1.297
467.60 1.295
467.70 1.294
467.80 1.293
467.90 1.292
468.00 1.29
468.10 1.289
468.20 1.288
468.30 1.287
468.40 1.285
468.50 1.284
468.60 1.283
468.70 1.282
468.80 1.281
468.90 1.279
469.00 1.278
469.10 1.277
469.20 1.276
469.30 1.274
469.40 1.273
469.50 1.272
469.60 1.27
469.70 1.269
469.80 1.268
469.90 1.267
470.00 1.265
470.10 1.264
470.20 1.263
470.30 1.262
470.40 1.26
470.50 1.259
470.60 1.258
470.70 1.256
470.80 1.255
470.90 1.254
471.00 1.252
471.10 1.251
471.20 1.25
471.30 1.249
471.40 1.247
471.50 1.246
471.60 1.244
471.70 1.243
471.80 1.242
471.90 1.24
472.00 1.239
472.10 1.238
472.20 1.236
472.30 1.235
472.40 1.234
472.50 1.232
472.60 1.231
472.70 1.229
472.80 1.228
472.90 1.227
473.00 1.225
473.10 1.224
473.20 1.222
473.30 1.221
473.40 1.22
473.50 1.218
473.60 1.217
473.70 1.215
473.80 1.214
473.90 1.212
474.00 1.211
474.10 1.209
474.20 1.208
474.30 1.206
474.40 1.205
474.50 1.203
474.60 1.202
474.70 1.2
474.80 1.199
474.90 1.197
475.00 1.196
475.10 1.194
475.20 1.192
475.30 1.191
475.40 1.189
475.50 1.188
475.60 1.186
475.70 1.184
475.80 1.183
475.90 1.181
476.00 1.179
476.10 1.178
476.20 1.176
476.30 1.174
476.40 1.172
476.50 1.171
476.60 1.169
476.70 1.167
476.80 1.165
476.90 1.164
477.00 1.162
477.10 1.16
477.20 1.158
477.30 1.156
477.40 1.154
477.50 1.152
477.60 1.151
477.70 1.149
477.80 1.147
477.90 1.145
478.00 1.143
478.10 1.141
478.20 1.139
478.30 1.137
478.40 1.135
478.50 1.132
478.60 1.13
478.70 1.128
478.80 1.126
478.90 1.124
479.00 1.122
479.10 1.12
479.20 1.117
479.30 1.115
479.40 1.113
479.50 1.11
479.60 1.108
479.70 1.106
479.80 1.103
479.90 1.101
480.00 1.099
480.10 1.096
480.20 1.094
480.30 1.091
480.40 1.088
480.50 1.086
480.60 1.083
480.70 1.08
480.80 1.078
480.90 1.075
481.00 1.072
481.10 1.07
481.20 1.067
481.30 1.064
481.40 1.061
481.50 1.058
481.60 1.055
481.70 1.052
481.80 1.049
481.90 1.046
482.00 1.043
482.10 1.04
482.20 1.036
482.30 1.033
482.40 1.03
482.50 1.026
482.60 1.023
482.70 1.019
482.80 1.016
482.90 1.012
483.00 1.009
483.10 1.005
483.20 1.002
483.30 0.9978
483.40 0.9938
483.50 0.9899
483.60 0.986
483.70 0.9821
483.80 0.9782
483.90 0.9742
484.00 0.9703
484.10 0.9664
484.20 0.9622
484.30 0.9579
484.40 0.9536
484.50 0.9493
484.60 0.945
484.70 0.9406
484.80 0.9361
484.90 0.9315
485.00 0.927
485.10 0.9225
485.20 0.918
485.30 0.9134
485.40 0.909
485.50 0.9046
485.60 0.9008
485.70 0.8971
485.80 0.8955
485.90 0.8948
486.00 0.8989
486.10 0.9123
486.20 0.9065
486.30 0.8941
486.40 0.8918
486.50 0.891
486.60 0.8924
486.70 0.8948
486.80 0.8976
486.90 0.9006
487.00 0.9038
487.10 0.907
487.20 0.9101
487.30 0.9133
487.40 0.9164
487.50 0.9195
487.60 0.9226
487.70 0.9256
487.80 0.9284
487.90 0.9313
488.00 0.9341
488.10 0.937
488.20 0.9395
488.30 0.9419
488.40 0.9443
488.50 0.9467
488.60 0.9491
488.70 0.9515
488.80 0.9539
488.90 0.9563
489.00 0.9587
489.10 0.9611
489.20 0.9631
489.30 0.9649
489.40 0.9668
489.50 0.9686
489.60 0.9704
489.70 0.9723
489.80 0.9741
489.90 0.9759
490.00 0.9777
490.10 0.9796
490.20 0.9811
490.30 0.9824
490.40 0.9838
490.50 0.9851
490.60 0.9864
490.70 0.9878
490.80 0.9891
490.90 0.9905
491.00 0.9918
491.10 0.9931
491.20 0.9942
491.30 0.9951
491.40 0.9961
491.50 0.997
491.60 0.9979
491.70 0.9989
491.80 0.9998
491.90 1.001
492.00 1.002
492.10 1.003
492.20 1.003
492.30 1.004
492.40 1.004
492.50 1.005
492.60 1.006
492.70 1.006
492.80 1.007
492.90 1.007
493.00 1.008
493.10 1.009
493.20 1.009
493.30 1.009
493.40 1.01
493.50 1.01
493.60 1.01
493.70 1.011
493.80 1.011
493.90 1.011
494.00 1.012
494.10 1.012
494.20 1.012
494.30 1.012
494.40 1.012
494.50 1.013
494.60 1.013
494.70 1.013
494.80 1.013
494.90 1.013
495.00 1.013
495.10 1.013
495.20 1.013
495.30 1.013
495.40 1.013
495.50 1.013
495.60 1.013
495.70 1.013
495.80 1.013
495.90 1.013
496.00 1.013
496.10 1.013
496.20 1.013
496.30 1.012
496.40 1.012
496.50 1.012
496.60 1.012
496.70 1.012
496.80 1.011
496.90 1.011
497.00 1.011
497.10 1.011
497.20 1.011
497.30 1.01
497.40 1.01
497.50 1.01
497.60 1.009
497.70 1.009
497.80 1.009
497.90 1.008
498.00 1.008
498.10 1.008
498.20 1.007
498.30 1.007
498.40 1.007
498.50 1.006
498.60 1.006
498.70 1.006
498.80 1.005
498.90 1.005
499.00 1.004
499.10 1.004
499.20 1.004
499.30 1.003
499.40 1.003
499.50 1.002
499.60 1.002
499.70 1.001
499.80 1.001
499.90 1
500.00 1
500.10 0.9996
500.20 0.9991
500.30 0.9986
500.40 0.9981
500.50 0.9976
500.60 0.9971
500.70 0.9966
500.80 0.9961
500.90 0.9956
501.00 0.9951
501.10 0.9946
501.20 0.994
501.30 0.9935
501.40 0.993
501.50 0.9924
501.60 0.9919
501.70 0.9913
501.80 0.9908
501.90 0.9903
502.00 0.9897
502.10 0.9892
502.20 0.9886
502.30 0.9881
502.40 0.9875
502.50 0.9869
502.60 0.9863
502.70 0.9858
502.80 0.9852
502.90 0.9846
503.00 0.9841
503.10 0.9835
503.20 0.9829
503.30 0.9823
503.40 0.9817
503.50 0.9811
503.60 0.9805
503.70 0.9799
503.80 0.9793
503.90 0.9788
504.00 0.9782
504.10 0.9776
504.20 0.977
504.30 0.9764
504.40 0.9757
504.50 0.9751
504.60 0.9745
504.70 0.9739
504.80 0.9733
504.90 0.9727
505.00 0.9721
505.10 0.9715
505.20 0.9708
505.30 0.9702
505.40 0.9696
505.50 0.969
505.60 0.9683
505.70 0.9677
505.80 0.9671
505.90 0.9665
506.00 0.9659
506.10 0.9652
506.20 0.9646
506.30 0.964
506.40 0.9633
506.50 0.9627
506.60 0.9621
506.70 0.9614
506.80 0.9608
506.90 0.9602
507.00 0.9595
507.10 0.9589
507.20 0.9583
507.30 0.9576
507.40 0.957
507.50 0.9563
507.60 0.9557
507.70 0.955
507.80 0.9544
507.90 0.9538
508.00 0.9531
508.10 0.9525
508.20 0.9518
508.30 0.9512
508.40 0.9505
508.50 0.9499
508.60 0.9493
508.70 0.9486
508.80 0.948
508.90 0.9473
509.00 0.9467
509.10 0.946
509.20 0.9454
509.30 0.9447
509.40 0.9441
509.50 0.9434
509.60 0.9428
509.70 0.9421
509.80 0.9415
509.90 0.9408
510.00 0.9402
510.10 0.9395
510.20 0.9389
510.30 0.9382
510.40 0.9376
510.50 0.9369
510.60 0.9363
510.70 0.9356
510.80 0.935
510.90 0.9343
511.00 0.9337
511.10 0.933
511.20 0.9324
511.30 0.9317
511.40 0.9311
511.50 0.9304
511.60 0.9298
511.70 0.9291
511.80 0.9285
511.90 0.9278
512.00 0.9272
512.10 0.9265
512.20 0.9259
512.30 0.9252
512.40 0.9246
512.50 0.9239
512.60 0.9233
512.70 0.9226
512.80 0.922
512.90 0.9213
513.00 0.9207
513.10 0.92
513.20 0.9194
513.30 0.9187
513.40 0.9181
513.50 0.9174
513.60 0.9168
513.70 0.9161
513.80 0.9155
513.90 0.9149
514.00 0.9142
514.10 0.9136
514.20 0.9129
514.30 0.9123
514.40 0.9116
514.50 0.911
514.60 0.9103
514.70 0.9097
514.80 0.909
514.90 0.9084
515.00 0.9077
515.10 0.9071
515.20 0.9065
515.30 0.9058
515.40 0.9052
515.50 0.9045
515.60 0.9039
515.70 0.9032
515.80 0.9026
515.90 0.9019
516.00 0.9013
516.10 0.9007
516.20 0.9
516.30 0.8994
516.40 0.8987
516.50 0.8981
516.60 0.8975
516.70 0.8968
516.80 0.8962
516.90 0.8955
517.00 0.8949
517.10 0.8943
517.20 0.8936
517.30 0.893
517.40 0.8923
517.50 0.8917
517.60 0.8911
517.70 0.8904
517.80 0.8898
517.90 0.8892
518.00 0.8885
518.10 0.8879
518.20 0.8873
518.30 0.8866
518.40 0.886
518.50 0.8854
518.60 0.8847
518.70 0.8841
518.80 0.8835
518.90 0.8828
519.00 0.8822
519.10 0.8816
519.20 0.8809
519.30 0.8803
519.40 0.8797
519.50 0.879
519.60 0.8784
519.70 0.8778
519.80 0.8771
519.90 0.8765
520.00 0.8759
520.10 0.8753
520.20 0.8746
520.30 0.874
520.40 0.8734
520.50 0.8728
520.60 0.8721
520.70 0.8715
520.80 0.8709
520.90 0.8703
521.00 0.8696
521.10 0.869
521.20 0.8684
521.30 0.8678
521.40 0.8671
521.50 0.8665
521.60 0.8659
521.70 0.8653
521.80 0.8647
521.90 0.864
522.00 0.8634
522.10 0.8628
522.20 0.8622
522.30 0.8616
522.40 0.8609
522.50 0.8603
522.60 0.8597
522.70 0.8591
522.80 0.8585
522.90 0.8579
523.00 0.8573
523.10 0.8566
523.20 0.856
523.30 0.8554
523.40 0.8548
523.50 0.8542
523.60 0.8536
523.70 0.853
523.80 0.8523
523.90 0.8517
524.00 0.8511
524.10 0.8505
524.20 0.8499
524.30 0.8493
524.40 0.8487
524.50 0.8481
524.60 0.8475
524.70 0.8469
524.80 0.8463
524.90 0.8457
525.00 0.845
525.10 0.8444
525.20 0.8438
525.30 0.8432
525.40 0.8426
525.50 0.842
525.60 0.8414
525.70 0.8408
525.80 0.8402
525.90 0.8396
526.00 0.839
526.10 0.8384
526.20 0.8378
526.30 0.8372
526.40 0.8366
526.50 0.836
526.60 0.8354
526.70 0.8348
526.80 0.8342
526.90 0.8336
527.00 0.833
527.10 0.8324
527.20 0.8318
527.30 0.8312
527.40 0.8306
527.50 0.8301
527.60 0.8295
527.70 0.8289
527.80 0.8283
527.90 0.8277
528.00 0.8271
528.10 0.8265
528.20 0.8259
528.30 0.8253
528.40 0.8247
528.50 0.8241
528.60 0.8236
528.70 0.823
528.80 0.8224
528.90 0.8218
529.00 0.8212
529.10 0.8206
529.20 0.82
529.30 0.8194
529.40 0.8189
529.50 0.8183
529.60 0.8177
529.70 0.8171
529.80 0.8165
529.90 0.8159
530.00 0.8154
530.10 0.8148
530.20 0.8142
530.30 0.8136
530.40 0.813
530.50 0.8125
530.60 0.8119
530.70 0.8113
530.80 0.8107
530.90 0.8101
531.00 0.8096
531.10 0.809
531.20 0.8084
531.30 0.8078
531.40 0.8073
531.50 0.8067
531.60 0.8061
531.70 0.8055
531.80 0.805
531.90 0.8044
532.00 0.8038
532.10 0.8032
532.20 0.8027
532.30 0.8021
532.40 0.8015
532.50 0.801
532.60 0.8004
532.70 0.7998
532.80 0.7992
532.90 0.7987
533.00 0.7981
533.10 0.7975
533.20 0.797
533.30 0.7964
533.40 0.7958
533.50 0.7953
533.60 0.7947
533.70 0.7941
533.80 0.7936
533.90 0.793
534.00 0.7925
534.10 0.7919
534.20 0.7913
534.30 0.7908
534.40 0.7902
534.50 0.7896
534.60 0.7891
534.70 0.7885
534.80 0.788
534.90 0.7874
535.00 0.7869
535.10 0.7863
535.20 0.7857
535.30 0.7852
535.40 0.7846
535.50 0.7841
535.60 0.7835
535.70 0.783
535.80 0.7824
535.90 0.7818
536.00 0.7813
536.10 0.7807
536.20 0.7802
536.30 0.7796
536.40 0.7791
536.50 0.7785
536.60 0.778
536.70 0.7774
536.80 0.7769
536.90 0.7763
537.00 0.7758
537.10 0.7752
537.20 0.7747
537.30 0.7741
537.40 0.7736
537.50 0.773
537.60 0.7725
537.70 0.7719
537.80 0.7714
537.90 0.7709
538.00 0.7703
538.10 0.7698
538.20 0.7692
538.30 0.7687
538.40 0.7681
538.50 0.7676
538.60 0.7671
538.70 0.7665
538.80 0.766
538.90 0.7654
539.00 0.7649
539.10 0.7643
539.20 0.7638
539.30 0.7633
539.40 0.7627
539.50 0.7622
539.60 0.7617
539.70 0.7611
539.80 0.7606
539.90 0.7601
540.00 0.7595
540.10 0.759
540.20 0.7584
540.30 0.7579
540.40 0.7574
540.50 0.7568
540.60 0.7563
540.70 0.7558
540.80 0.7553
540.90 0.7547
541.00 0.7542
541.10 0.7537
541.20 0.7531
541.30 0.7526
541.40 0.7521
541.50 0.7515
541.60 0.751
541.70 0.7505
541.80 0.75
541.90 0.7494
542.00 0.7489
542.10 0.7484
542.20 0.7479
542.30 0.7473
542.40 0.7468
542.50 0.7463
542.60 0.7458
542.70 0.7452
542.80 0.7447
542.90 0.7442
543.00 0.7437
543.10 0.7431
543.20 0.7426
543.30 0.7421
543.40 0.7416
543.50 0.7411
543.60 0.7405
543.70 0.74
543.80 0.7395
543.90 0.739
544.00 0.7385
544.10 0.738
544.20 0.7374
544.30 0.7369
544.40 0.7364
544.50 0.7359
544.60 0.7354
544.70 0.7349
544.80 0.7343
544.90 0.7338
545.00 0.7333
545.10 0.7328
545.20 0.7323
545.30 0.7318
545.40 0.7313
545.50 0.7308
545.60 0.7303
545.70 0.7297
545.80 0.7292
545.90 0.7287
546.00 0.7282
546.10 0.7277
546.20 0.7272
546.30 0.7267
546.40 0.7262
546.50 0.7257
546.60 0.7252
546.70 0.7247
546.80 0.7242
546.90 0.7237
547.00 0.7232
547.10 0.7226
547.20 0.7221
547.30 0.7216
547.40 0.7211
547.50 0.7206
547.60 0.7201
547.70 0.7196
547.80 0.7191
547.90 0.7186
548.00 0.7181
548.10 0.7176
548.20 0.7171
548.30 0.7166
548.40 0.7161
548.50 0.7156
548.60 0.7151
548.70 0.7146
548.80 0.7141
548.90 0.7137
549.00 0.7132
549.10 0.7127
549.20 0.7122
549.30 0.7117
549.40 0.7112
549.50 0.7107
549.60 0.7102
549.70 0.7097
549.80 0.7092
549.90 0.7087
550.00 0.7082
550.10 0.7077
550.20 0.7072
550.30 0.7067
550.40 0.7063
550.50 0.7058
550.60 0.7053
550.70 0.7048
550.80 0.7043
550.90 0.7038
551.00 0.7033
551.10 0.7028
551.20 0.7024
551.30 0.7019
551.40 0.7014
551.50 0.7009
551.60 0.7004
551.70 0.6999
551.80 0.6994
551.90 0.699
552.00 0.6985
552.10 0.698
552.20 0.6975
552.30 0.697
552.40 0.6965
552.50 0.6961
552.60 0.6956
552.70 0.6951
552.80 0.6946
552.90 0.6941
553.00 0.6937
553.10 0.6932
553.20 0.6927
553.30 0.6922
553.40 0.6918
553.50 0.6913
553.60 0.6908
553.70 0.6903
553.80 0.6898
553.90 0.6894
554.00 0.6889
554.10 0.6884
554.20 0.6879
554.30 0.6875
554.40 0.687
554.50 0.6865
554.60 0.6861
554.70 0.6856
554.80 0.6851
554.90 0.6846
555.00 0.6842
555.10 0.6837
555.20 0.6832
555.30 0.6828
555.40 0.6823
555.50 0.6818
555.60 0.6813
555.70 0.6809
555.80 0.6804
555.90 0.6799
556.00 0.6795
556.10 0.679
556.20 0.6785
556.30 0.6781
556.40 0.6776
556.50 0.6771
556.60 0.6767
556.70 0.6762
556.80 0.6758
556.90 0.6753
557.00 0.6748
557.10 0.6744
557.20 0.6739
557.30 0.6734
557.40 0.673
557.50 0.6725
557.60 0.6721
557.70 0.6716
557.80 0.6711
557.90 0.6707
558.00 0.6702
558.10 0.6698
558.20 0.6693
558.30 0.6688
558.40 0.6684
558.50 0.6679
558.60 0.6675
558.70 0.667
558.80 0.6666
558.90 0.6661
559.00 0.6656
559.10 0.6652
559.20 0.6647
559.30 0.6643
559.40 0.6638
559.50 0.6634
559.60 0.6629
559.70 0.6625
559.80 0.662
559.90 0.6616
560.00 0.6611
560.10 0.6607
560.20 0.6602
560.30 0.6598
560.40 0.6593
560.50 0.6589
560.60 0.6584
560.70 0.658
560.80 0.6575
560.90 0.6571
561.00 0.6566
561.10 0.6562
561.20 0.6557
561.30 0.6553
561.40 0.6548
561.50 0.6544
561.60 0.6539
561.70 0.6535
561.80 0.6531
561.90 0.6526
562.00 0.6522
562.10 0.6517
562.20 0.6513
562.30 0.6508
562.40 0.6504
562.50 0.6499
562.60 0.6495
562.70 0.6491
562.80 0.6486
562.90 0.6482
563.00 0.6477
563.10 0.6473
563.20 0.6469
563.30 0.6464
563.40 0.646
563.50 0.6455
563.60 0.6451
563.70 0.6447
563.80 0.6442
563.90 0.6438
564.00 0.6434
564.10 0.6429
564.20 0.6425
564.30 0.6421
564.40 0.6416
564.50 0.6412
564.60 0.6407
564.70 0.6403
564.80 0.6399
564.90 0.6394
565.00 0.639
565.10 0.6386
565.20 0.6381
565.30 0.6377
565.40 0.6373
565.50 0.6369
565.60 0.6364
565.70 0.636
565.80 0.6356
565.90 0.6351
566.00 0.6347
566.10 0.6343
566.20 0.6338
566.30 0.6334
566.40 0.633
566.50 0.6326
566.60 0.6321
566.70 0.6317
566.80 0.6313
566.90 0.6309
567.00 0.6304
567.10 0.63
567.20 0.6296
567.30 0.6292
567.40 0.6287
567.50 0.6283
567.60 0.6279
567.70 0.6275
567.80 0.627
567.90 0.6266
568.00 0.6262
568.10 0.6258
568.20 0.6253
568.30 0.6249
568.40 0.6245
568.50 0.6241
568.60 0.6237
568.70 0.6232
568.80 0.6228
568.90 0.6224
569.00 0.622
569.10 0.6216
569.20 0.6211
569.30 0.6207
569.40 0.6203
569.50 0.6199
569.60 0.6195
569.70 0.6191
569.80 0.6186
569.90 0.6182
570.00 0.6178
570.10 0.6174
570.20 0.617
570.30 0.6166
570.40 0.6162
570.50 0.6157
570.60 0.6153
570.70 0.6149
570.80 0.6145
570.90 0.6141
571.00 0.6137
571.10 0.6133
571.20 0.6129
571.30 0.6125
571.40 0.612
571.50 0.6116
571.60 0.6112
571.70 0.6108
571.80 0.6104
571.90 0.61
572.00 0.6096
572.10 0.6092
572.20 0.6088
572.30 0.6084
572.40 0.608
572.50 0.6075
572.60 0.6071
572.70 0.6067
572.80 0.6063
572.90 0.6059
573.00 0.6055
573.10 0.6051
573.20 0.6047
573.30 0.6043
573.40 0.6039
573.50 0.6035
573.60 0.6031
573.70 0.6027
573.80 0.6023
573.90 0.6019
574.00 0.6015
574.10 0.6011
574.20 0.6007
574.30 0.6003
574.40 0.5999
574.50 0.5995
574.60 0.5991
574.70 0.5987
574.80 0.5983
574.90 0.5979
575.00 0.5975
575.10 0.5971
575.20 0.5967
575.30 0.5963
575.40 0.5959
575.50 0.5955
575.60 0.5951
575.70 0.5947
575.80 0.5943
575.90 0.5939
576.00 0.5935
576.10 0.5931
576.20 0.5927
576.30 0.5923
576.40 0.5919
576.50 0.5915
576.60 0.5912
576.70 0.5908
576.80 0.5904
576.90 0.59
577.00 0.5896
577.10 0.5892
577.20 0.5888
577.30 0.5884
577.40 0.588
577.50 0.5876
577.60 0.5872
577.70 0.5869
577.80 0.5865
577.90 0.5861
578.00 0.5857
578.10 0.5853
578.20 0.5849
578.30 0.5845
578.40 0.5841
578.50 0.5837
578.60 0.5834
578.70 0.583
578.80 0.5826
578.90 0.5822
579.00 0.5818
579.10 0.5814
579.20 0.581
579.30 0.5807
579.40 0.5803
579.50 0.5799
579.60 0.5795
579.70 0.5791
579.80 0.5787
579.90 0.5784
580.00 0.578
580.10 0.5776
580.20 0.5772
580.30 0.5768
580.40 0.5765
580.50 0.5761
580.60 0.5757
580.70 0.5753
580.80 0.5749
580.90 0.5745
581.00 0.5742
581.10 0.5738
581.20 0.5734
581.30 0.573
581.40 0.5727
581.50 0.5723
581.60 0.5719
581.70 0.5715
581.80 0.5711
581.90 0.5708
582.00 0.5704
582.10 0.57
582.20 0.5696
582.30 0.5693
582.40 0.5689
582.50 0.5685
582.60 0.5681
582.70 0.5678
582.80 0.5674
582.90 0.567
583.00 0.5666
583.10 0.5663
583.20 0.5659
583.30 0.5655
583.40 0.5652
583.50 0.5648
583.60 0.5644
583.70 0.564
583.80 0.5637
583.90 0.5633
584.00 0.5629
584.10 0.5626
584.20 0.5622
584.30 0.5618
584.40 0.5615
584.50 0.5611
584.60 0.5607
584.70 0.5603
584.80 0.56
584.90 0.5596
585.00 0.5592
585.10 0.5589
585.20 0.5585
585.30 0.5581
585.40 0.5578
585.50 0.5574
585.60 0.5571
585.70 0.5567
585.80 0.5563
585.90 0.556
586.00 0.5556
586.10 0.5552
586.20 0.5549
586.30 0.5545
586.40 0.5541
586.50 0.5538
586.60 0.5534
586.70 0.553
586.80 0.5527
586.90 0.5523
587.00 0.552
587.10 0.5516
587.20 0.5512
587.30 0.5509
587.40 0.5505
587.50 0.5502
587.60 0.5498
587.70 0.5494
587.80 0.5491
587.90 0.5487
588.00 0.5484
588.10 0.548
588.20 0.5477
588.30 0.5473
588.40 0.5469
588.50 0.5466
588.60 0.5462
588.70 0.5459
588.80 0.5455
588.90 0.5452
589.00 0.5448
589.10 0.5444
589.20 0.5441
589.30 0.5437
589.40 0.5434
589.50 0.543
589.60 0.5427
589.70 0.5423
589.80 0.542
589.90 0.5416
590.00 0.5413
590.10 0.5409
590.20 0.5406
590.30 0.5402
590.40 0.5398
590.50 0.5395
590.60 0.5391
590.70 0.5388
590.80 0.5384
590.90 0.5381
591.00 0.5377
591.10 0.5374
591.20 0.537
591.30 0.5367
591.40 0.5363
591.50 0.536
591.60 0.5357
591.70 0.5353
591.80 0.535
591.90 0.5346
592.00 0.5343
592.10 0.5339
592.20 0.5336
592.30 0.5332
592.40 0.5329
592.50 0.5325
592.60 0.5322
592.70 0.5318
592.80 0.5315
592.90 0.5311
593.00 0.5308
593.10 0.5305
593.20 0.5301
593.30 0.5298
593.40 0.5294
593.50 0.5291
593.60 0.5287
593.70 0.5284
593.80 0.5281
593.90 0.5277
594.00 0.5274
594.10 0.527
594.20 0.5267
594.30 0.5264
594.40 0.526
594.50 0.5257
594.60 0.5253
594.70 0.525
594.80 0.5247
594.90 0.5243
595.00 0.524
595.10 0.5236
595.20 0.5233
595.30 0.523
595.40 0.5226
595.50 0.5223
595.60 0.5219
595.70 0.5216
595.80 0.5213
595.90 0.5209
596.00 0.5206
596.10 0.5203
596.20 0.5199
596.30 0.5196
596.40 0.5193
596.50 0.5189
596.60 0.5186
596.70 0.5182
596.80 0.5179
596.90 0.5176
597.00 0.5172
597.10 0.5169
597.20 0.5166
597.30 0.5162
597.40 0.5159
597.50 0.5156
597.60 0.5152
597.70 0.5149
597.80 0.5146
597.90 0.5143
598.00 0.5139
598.10 0.5136
598.20 0.5133
598.30 0.5129
598.40 0.5126
598.50 0.5123
598.60 0.5119
598.70 0.5116
598.80 0.5113
598.90 0.511
599.00 0.5106
599.10 0.5103
599.20 0.51
599.30 0.5096
599.40 0.5093
599.50 0.509
599.60 0.5087
599.70 0.5083
599.80 0.508
599.90 0.5077
600.00 0.5074
600.10 0.507
600.20 0.5067
600.30 0.5064
600.40 0.506
600.50 0.5057
600.60 0.5054
600.70 0.5051
600.80 0.5048
600.90 0.5044
601.00 0.5041
601.10 0.5038
601.20 0.5035
601.30 0.5031
601.40 0.5028
601.50 0.5025
601.60 0.5022
601.70 0.5018
601.80 0.5015
601.90 0.5012
602.00 0.5009
602.10 0.5006
602.20 0.5002
602.30 0.4999
602.40 0.4996
602.50 0.4993
602.60 0.499
602.70 0.4986
602.80 0.4983
602.90 0.498
603.00 0.4977
603.10 0.4974
603.20 0.497
603.30 0.4967
603.40 0.4964
603.50 0.4961
603.60 0.4958
603.70 0.4955
603.80 0.4951
603.90 0.4948
604.00 0.4945
604.10 0.4942
604.20 0.4939
604.30 0.4936
604.40 0.4932
604.50 0.4929
604.60 0.4926
604.70 0.4923
604.80 0.492
604.90 0.4917
605.00 0.4914
605.10 0.491
605.20 0.4907
605.30 0.4904
605.40 0.4901
605.50 0.4898
605.60 0.4895
605.70 0.4892
605.80 0.4889
605.90 0.4885
606.00 0.4882
606.10 0.4879
606.20 0.4876
606.30 0.4873
606.40 0.487
606.50 0.4867
606.60 0.4864
606.70 0.4861
606.80 0.4857
606.90 0.4854
607.00 0.4851
607.10 0.4848
607.20 0.4845
607.30 0.4842
607.40 0.4839
607.50 0.4836
607.60 0.4833
607.70 0.483
607.80 0.4827
607.90 0.4824
608.00 0.482
608.10 0.4817
608.20 0.4814
608.30 0.4811
608.40 0.4808
608.50 0.4805
608.60 0.4802
608.70 0.4799
608.80 0.4796
608.90 0.4793
609.00 0.479
609.10 0.4787
609.20 0.4784
609.30 0.4781
609.40 0.4778
609.50 0.4775
609.60 0.4772
609.70 0.4769
609.80 0.4766
609.90 0.4763
610.00 0.476
610.10 0.4757
610.20 0.4753
610.30 0.475
610.40 0.4747
610.50 0.4744
610.60 0.4741
610.70 0.4738
610.80 0.4735
610.90 0.4732
611.00 0.4729
611.10 0.4726
611.20 0.4723
611.30 0.472
611.40 0.4717
611.50 0.4714
611.60 0.4711
611.70 0.4708
611.80 0.4705
611.90 0.4702
612.00 0.4699
612.10 0.4696
612.20 0.4694
612.30 0.4691
612.40 0.4688
612.50 0.4685
612.60 0.4682
612.70 0.4679
612.80 0.4676
612.90 0.4673
613.00 0.467
613.10 0.4667
613.20 0.4664
613.30 0.4661
613.40 0.4658
613.50 0.4655
613.60 0.4652
613.70 0.4649
613.80 0.4646
613.90 0.4643
614.00 0.464
614.10 0.4637
614.20 0.4634
614.30 0.4631
614.40 0.4629
614.50 0.4626
614.60 0.4623
614.70 0.462
614.80 0.4617
614.90 0.4614
615.00 0.4611
615.10 0.4608
615.20 0.4605
615.30 0.4602
615.40 0.4599
615.50 0.4596
615.60 0.4593
615.70 0.4591
615.80 0.4588
615.90 0.4585
616.00 0.4582
616.10 0.4579
616.20 0.4576
616.30 0.4573
616.40 0.457
616.50 0.4567
616.60 0.4564
616.70 0.4562
616.80 0.4559
616.90 0.4556
617.00 0.4553
617.10 0.455
617.20 0.4547
617.30 0.4544
617.40 0.4541
617.50 0.4539
617.60 0.4536
617.70 0.4533
617.80 0.453
617.90 0.4527
618.00 0.4524
618.10 0.4521
618.20 0.4518
618.30 0.4516
618.40 0.4513
618.50 0.451
618.60 0.4507
618.70 0.4504
618.80 0.4501
618.90 0.4498
619.00 0.4496
619.10 0.4493
619.20 0.449
619.30 0.4487
619.40 0.4484
619.50 0.4481
619.60 0.4479
619.70 0.4476
619.80 0.4473
619.90 0.447
620.00 0.4467
620.10 0.4464
620.20 0.4462
620.30 0.4459
620.40 0.4456
620.50 0.4453
620.60 0.445
620.70 0.4447
620.80 0.4445
620.90 0.4442
621.00 0.4439
621.10 0.4436
621.20 0.4433
621.30 0.4431
621.40 0.4428
621.50 0.4425
621.60 0.4422
621.70 0.4419
621.80 0.4417
621.90 0.4414
622.00 0.4411
622.10 0.4408
622.20 0.4405
622.30 0.4403
622.40 0.44
622.50 0.4397
622.60 0.4394
622.70 0.4391
622.80 0.4389
622.90 0.4386
623.00 0.4383
623.10 0.438
623.20 0.4378
623.30 0.4375
623.40 0.4372
623.50 0.4369
623.60 0.4366
623.70 0.4364
623.80 0.4361
623.90 0.4358
624.00 0.4355
624.10 0.4353
624.20 0.435
624.30 0.4347
624.40 0.4344
624.50 0.4341
624.60 0.4339
624.70 0.4336
624.80 0.4333
624.90 0.433
625.00 0.4328
625.10 0.4325
625.20 0.4322
625.30 0.4319
625.40 0.4317
625.50 0.4314
625.60 0.4311
625.70 0.4308
625.80 0.4306
625.90 0.4303
626.00 0.43
626.10 0.4297
626.20 0.4295
626.30 0.4292
626.40 0.4289
626.50 0.4286
626.60 0.4284
626.70 0.4281
626.80 0.4278
626.90 0.4276
627.00 0.4273
627.10 0.427
627.20 0.4267
627.30 0.4265
627.40 0.4262
627.50 0.4259
627.60 0.4256
627.70 0.4254
627.80 0.4251
627.90 0.4248
628.00 0.4245
628.10 0.4243
628.20 0.424
628.30 0.4237
628.40 0.4235
628.50 0.4232
628.60 0.4229
628.70 0.4226
628.80 0.4224
628.90 0.4221
629.00 0.4218
629.10 0.4216
629.20 0.4213
629.30 0.421
629.40 0.4207
629.50 0.4205
629.60 0.4202
629.70 0.4199
629.80 0.4197
629.90 0.4194
630.00 0.4191
630.10 0.4188
630.20 0.4186
630.30 0.4183
630.40 0.418
630.50 0.4178
630.60 0.4175
630.70 0.4172
630.80 0.4169
630.90 0.4167
631.00 0.4164
631.10 0.4161
631.20 0.4159
631.30 0.4156
631.40 0.4153
631.50 0.415
631.60 0.4148
631.70 0.4145
631.80 0.4142
631.90 0.414
632.00 0.4137
632.10 0.4134
632.20 0.4131
632.30 0.4129
632.40 0.4126
632.50 0.4123
632.60 0.412
632.70 0.4118
632.80 0.4115
632.90 0.4112
633.00 0.411
633.10 0.4107
633.20 0.4104
633.30 0.4101
633.40 0.4099
633.50 0.4096
633.60 0.4093
633.70 0.4091
633.80 0.4088
633.90 0.4085
634.00 0.4082
634.10 0.408
634.20 0.4077
634.30 0.4074
634.40 0.4071
634.50 0.4069
634.60 0.4066
634.70 0.4063
634.80 0.4061
634.90 0.4058
635.00 0.4055
635.10 0.4052
635.20 0.405
635.30 0.4047
635.40 0.4044
635.50 0.4041
635.60 0.4039
635.70 0.4036
635.80 0.4033
635.90 0.403
636.00 0.4027
636.10 0.4025
636.20 0.4022
636.30 0.4019
636.40 0.4016
636.50 0.4014
636.60 0.4011
636.70 0.4008
636.80 0.4005
636.90 0.4003
637.00 0.4
637.10 0.3997
637.20 0.3994
637.30 0.3991
637.40 0.3989
637.50 0.3986
637.60 0.3983
637.70 0.398
637.80 0.3977
637.90 0.3974
638.00 0.3972
638.10 0.3969
638.20 0.3966
638.30 0.3963
638.40 0.396
638.50 0.3957
638.60 0.3955
638.70 0.3952
638.80 0.3949
638.90 0.3946
639.00 0.3943
639.10 0.394
639.20 0.3937
639.30 0.3934
639.40 0.3932
639.50 0.3929
639.60 0.3926
639.70 0.3923
639.80 0.392
639.90 0.3917
640.00 0.3914
640.10 0.3911
640.20 0.3908
640.30 0.3905
640.40 0.3902
640.50 0.3899
640.60 0.3896
640.70 0.3893
640.80 0.389
640.90 0.3887
641.00 0.3884
641.10 0.3881
641.20 0.3878
641.30 0.3875
641.40 0.3872
641.50 0.3869
641.60 0.3866
641.70 0.3863
641.80 0.386
641.90 0.3857
642.00 0.3853
642.10 0.385
642.20 0.3847
642.30 0.3844
642.40 0.3841
642.50 0.3838
642.60 0.3834
642.70 0.3831
642.80 0.3828
642.90 0.3825
643.00 0.3822
643.10 0.3818
643.20 0.3815
643.30 0.3812
643.40 0.3809
643.50 0.3805
643.60 0.3802
643.70 0.3798
643.80 0.3795
643.90 0.3792
644.00 0.3788
644.10 0.3785
644.20 0.3781
644.30 0.3778
644.40 0.3774
644.50 0.3771
644.60 0.3767
644.70 0.3764
644.80 0.376
644.90 0.3757
645.00 0.3753
645.10 0.3749
645.20 0.3746
645.30 0.3742
645.40 0.3738
645.50 0.3735
645.60 0.3731
645.70 0.3727
645.80 0.3723
645.90 0.3719
646.00 0.3715
646.10 0.3712
646.20 0.3708
646.30 0.3704
646.40 0.37
646.50 0.3696
646.60 0.3691
646.70 0.3687
646.80 0.3683
646.90 0.3679
647.00 0.3675
647.10 0.3671
647.20 0.3667
647.30 0.3662
647.40 0.3658
647.50 0.3653
647.60 0.3649
647.70 0.3644
647.80 0.364
647.90 0.3635
648.00 0.3631
648.10 0.3626
648.20 0.3622
648.30 0.3617
648.40 0.3612
648.50 0.3607
648.60 0.3602
648.70 0.3597
648.80 0.3592
648.90 0.3587
649.00 0.3582
649.10 0.3577
649.20 0.3572
649.30 0.3566
649.40 0.3561
649.50 0.3555
649.60 0.3549
649.70 0.3544
649.80 0.3538
649.90 0.3532
650.00 0.3527
650.10 0.3521
650.20 0.3515
650.30 0.351
650.40 0.3503
650.50 0.3497
650.60 0.349
650.70 0.3484
650.80 0.3477
650.90 0.3471
651.00 0.3465
651.10 0.3458
651.20 0.3452
651.30 0.3445
651.40 0.3438
651.50 0.343
651.60 0.3423
651.70 0.3416
651.80 0.3408
651.90 0.3401
652.00 0.3393
652.10 0.3386
652.20 0.3379
652.30 0.3371
652.40 0.3363
652.50 0.3354
652.60 0.3346
652.70 0.3337
652.80 0.3329
652.90 0.332
653.00 0.3312
653.10 0.3303
653.20 0.3295
653.30 0.3286
653.40 0.3276
653.50 0.3266
653.60 0.3257
653.70 0.3247
653.80 0.3237
653.90 0.3227
654.00 0.3217
654.10 0.3208
654.20 0.3198
654.30 0.3188
654.40 0.3177
654.50 0.3166
654.60 0.3156
654.70 0.3145
654.80 0.3134
654.90 0.3122
655.00 0.3111
655.10 0.31
655.20 0.3088
655.30 0.3077
655.40 0.3065
655.50 0.3053
655.60 0.3042
655.70 0.303
655.80 0.3019
655.90 0.3009
656.00 0.3003
656.10 0.2998
656.20 0.3038
656.30 0.3134
656.40 0.3008
656.50 0.2992
656.60 0.2995
656.70 0.2998
656.80 0.3006
656.90 0.3014
657.00 0.3022
657.10 0.303
657.20 0.3038
657.30 0.3047
657.40 0.3055
657.50 0.3062
657.60 0.307
657.70 0.3078
657.80 0.3086
657.90 0.3093
658.00 0.31
658.10 0.3107
658.20 0.3115
658.30 0.3122
658.40 0.3128
658.50 0.3134
658.60 0.314
658.70 0.3146
658.80 0.3152
658.90 0.3158
659.00 0.3164
659.10 0.317
659.20 0.3176
659.30 0.3181
659.40 0.3186
659.50 0.3191
659.60 0.3195
659.70 0.32
659.80 0.3204
659.90 0.3209
660.00 0.3213
660.10 0.3218
660.20 0.3222
660.30 0.3227
660.40 0.323
660.50 0.3233
660.60 0.3237
660.70 0.324
660.80 0.3243
660.90 0.3247
661.00 0.325
661.10 0.3253
661.20 0.3257
661.30 0.326
661.40 0.3262
661.50 0.3264
661.60 0.3267
661.70 0.3269
661.80 0.3271
661.90 0.3274
662.00 0.3276
662.10 0.3278
662.20 0.328
662.30 0.3283
662.40 0.3284
662.50 0.3285
662.60 0.3287
662.70 0.3288
662.80 0.329
662.90 0.3291
663.00 0.3293
663.10 0.3294
663.20 0.3296
663.30 0.3297
663.40 0.3298
663.50 0.3298
663.60 0.3299
663.70 0.33
663.80 0.3301
663.90 0.3302
664.00 0.3302
664.10 0.3303
664.20 0.3304
664.30 0.3305
664.40 0.3305
664.50 0.3305
664.60 0.3305
664.70 0.3305
664.80 0.3306
664.90 0.3306
665.00 0.3306
665.10 0.3306
665.20 0.3307
665.30 0.3307
665.40 0.3307
665.50 0.3306
665.60 0.3306
665.70 0.3306
665.80 0.3306
665.90 0.3306
666.00 0.3306
666.10 0.3305
666.20 0.3305
666.30 0.3305
666.40 0.3304
666.50 0.3304
666.60 0.3303
666.70 0.3303
666.80 0.3302
666.90 0.3302
667.00 0.3301
667.10 0.3301
667.20 0.33
667.30 0.33
667.40 0.3299
667.50 0.3298
667.60 0.3298
667.70 0.3297
667.80 0.3296
667.90 0.3295
668.00 0.3294
668.10 0.3294
668.20 0.3293
668.30 0.3292
668.40 0.3291
668.50 0.329
668.60 0.3289
668.70 0.3288
668.80 0.3287
668.90 0.3286
669.00 0.3285
669.10 0.3284
669.20 0.3283
669.30 0.3282
669.40 0.3281
669.50 0.328
669.60 0.3279
669.70 0.3278
669.80 0.3277
669.90 0.3276
670.00 0.3275
670.10 0.3273
670.20 0.3272
670.30 0.3271
670.40 0.327
670.50 0.3269
670.60 0.3267
670.70 0.3266
670.80 0.3265
670.90 0.3264
671.00 0.3262
671.10 0.3261
671.20 0.326
671.30 0.3259
671.40 0.3257
671.50 0.3256
671.60 0.3255
671.70 0.3253
671.80 0.3252
671.90 0.3251
672.00 0.3249
672.10 0.3248
672.20 0.3246
672.30 0.3245
672.40 0.3244
672.50 0.3242
672.60 0.3241
672.70 0.3239
672.80 0.3238
672.90 0.3237
673.00 0.3235
673.10 0.3234
673.20 0.3232
673.30 0.3231
673.40 0.3229
673.50 0.3228
673.60 0.3226
673.70 0.3225
673.80 0.3223
673.90 0.3222
674.00 0.3221
674.10 0.3219
674.20 0.3218
674.30 0.3216
674.40 0.3215
674.50 0.3213
674.60 0.3211
674.70 0.321
674.80 0.3208
674.90 0.3207
675.00 0.3205
675.10 0.3204
675.20 0.3202
675.30 0.3201
675.40 0.3199
675.50 0.3198
675.60 0.3196
675.70 0.3195
675.80 0.3193
675.90 0.3191
676.00 0.319
676.10 0.3188
676.20 0.3187
676.30 0.3185
676.40 0.3184
676.50 0.3182
676.60 0.318
676.70 0.3179
676.80 0.3177
676.90 0.3176
677.00 0.3174
677.10 0.3173
677.20 0.3171
677.30 0.3169
677.40 0.3168
677.50 0.3166
677.60 0.3165
677.70 0.3163
677.80 0.3161
677.90 0.316
678.00 0.3158
678.10 0.3156
678.20 0.3155
678.30 0.3153
678.40 0.3152
678.50 0.315
678.60 0.3148
678.70 0.3147
678.80 0.3145
678.90 0.3144
679.00 0.3142
679.10 0.314
679.20 0.3139
679.30 0.3137
679.40 0.3135
679.50 0.3134
679.60 0.3132
679.70 0.3131
679.80 0.3129
679.90 0.3127
680.00 0.3126
680.10 0.3124
680.20 0.3122
680.30 0.3121
680.40 0.3119
680.50 0.3117
680.60 0.3116
680.70 0.3114
680.80 0.3113
680.90 0.3111
681.00 0.3109
681.10 0.3108
681.20 0.3106
681.30 0.3104
681.40 0.3103
681.50 0.3101
681.60 0.3099
681.70 0.3098
681.80 0.3096
681.90 0.3095
682.00 0.3093
682.10 0.3091
682.20 0.309
682.30 0.3088
682.40 0.3086
682.50 0.3085
682.60 0.3083
682.70 0.3081
682.80 0.308
682.90 0.3078
683.00 0.3076
683.10 0.3075
683.20 0.3073
683.30 0.3072
683.40 0.307
683.50 0.3068
683.60 0.3067
683.70 0.3065
683.80 0.3063
683.90 0.3062
684.00 0.306
684.10 0.3058
684.20 0.3057
684.30 0.3055
684.40 0.3053
684.50 0.3052
684.60 0.305
684.70 0.3049
684.80 0.3047
684.90 0.3045
685.00 0.3044
685.10 0.3042
685.20 0.304
685.30 0.3039
685.40 0.3037
685.50 0.3035
685.60 0.3034
685.70 0.3032
685.80 0.303
685.90 0.3029
686.00 0.3027
686.10 0.3026
686.20 0.3024
686.30 0.3022
686.40 0.3021
686.50 0.3019
686.60 0.3017
686.70 0.3016
686.80 0.3014
686.90 0.3012
687.00 0.3011
687.10 0.3009
687.20 0.3008
687.30 0.3006
687.40 0.3004
687.50 0.3003
687.60 0.3001
687.70 0.2999
687.80 0.2998
687.90 0.2996
688.00 0.2995
688.10 0.2993
688.20 0.2991
688.30 0.299
688.40 0.2988
688.50 0.2986
688.60 0.2985
688.70 0.2983
688.80 0.2982
688.90 0.298
689.00 0.2978
689.10 0.2977
689.20 0.2975
689.30 0.2973
689.40 0.2972
689.50 0.297
689.60 0.2969
689.70 0.2967
689.80 0.2965
689.90 0.2964
690.00 0.2962
690.10 0.2961
690.20 0.2959
690.30 0.2957
690.40 0.2956
690.50 0.2954
690.60 0.2952
690.70 0.2951
690.80 0.2949
690.90 0.2948
691.00 0.2946
691.10 0.2944
691.20 0.2943
691.30 0.2941
691.40 0.294
691.50 0.2938
691.60 0.2936
691.70 0.2935
691.80 0.2933
691.90 0.2932
692.00 0.293
692.10 0.2928
692.20 0.2927
692.30 0.2925
692.40 0.2924
692.50 0.2922
692.60 0.292
692.70 0.2919
692.80 0.2917
692.90 0.2916
693.00 0.2914
693.10 0.2912
693.20 0.2911
693.30 0.2909
693.40 0.2908
693.50 0.2906
693.60 0.2904
693.70 0.2903
693.80 0.2901
693.90 0.29
694.00 0.2898
694.10 0.2897
694.20 0.2895
694.30 0.2893
694.40 0.2892
694.50 0.289
694.60 0.2889
694.70 0.2887
694.80 0.2886
694.90 0.2884
695.00 0.2882
695.10 0.2881
695.20 0.2879
695.30 0.2878
695.40 0.2876
695.50 0.2875
695.60 0.2873
695.70 0.2871
695.80 0.287
695.90 0.2868
696.00 0.2867
696.10 0.2865
696.20 0.2864
696.30 0.2862
696.40 0.286
696.50 0.2859
696.60 0.2857
696.70 0.2856
696.80 0.2854
696.90 0.2853
697.00 0.2851
697.10 0.285
697.20 0.2848
697.30 0.2846
697.40 0.2845
697.50 0.2843
697.60 0.2842
697.70 0.284
697.80 0.2839
697.90 0.2837
698.00 0.2836
698.10 0.2834
698.20 0.2832
698.30 0.2831
698.40 0.2829
698.50 0.2828
698.60 0.2826
698.70 0.2825
698.80 0.2823
698.90 0.2822
699.00 0.282
699.10 0.2819
699.20 0.2817
699.30 0.2815
699.40 0.2814
699.50 0.2812
699.60 0.2811
699.70 0.2809
699.80 0.2808
699.90 0.2806
700.00 0.2805
700.10 0.2803
700.20 0.2802
700.30 0.28
700.40 0.2799
700.50 0.2797
700.60 0.2796
700.70 0.2794
700.80 0.2793
700.90 0.2791
701.00 0.279
701.10 0.2788
701.20 0.2786
701.30 0.2785
701.40 0.2783
701.50 0.2782
701.60 0.278
701.70 0.2779
701.80 0.2777
701.90 0.2776
702.00 0.2774
702.10 0.2773
702.20 0.2771
702.30 0.277
702.40 0.2768
702.50 0.2767
702.60 0.2765
702.70 0.2764
702.80 0.2762
702.90 0.2761
703.00 0.2759
703.10 0.2758
703.20 0.2756
703.30 0.2755
703.40 0.2753
703.50 0.2752
703.60 0.275
703.70 0.2749
703.80 0.2747
703.90 0.2746
704.00 0.2744
704.10 0.2743
704.20 0.2741
704.30 0.274
704.40 0.2738
704.50 0.2737
704.60 0.2735
704.70 0.2734
704.80 0.2732
704.90 0.2731
705.00 0.2729
705.10 0.2728
705.20 0.2726
705.30 0.2725
705.40 0.2724
705.50 0.2722
705.60 0.2721
705.70 0.2719
705.80 0.2718
705.90 0.2716
706.00 0.2715
706.10 0.2713
706.20 0.2712
706.30 0.271
706.40 0.2709
706.50 0.2707
706.60 0.2706
706.70 0.2704
706.80 0.2703
706.90 0.2701
707.00 0.27
707.10 0.2699
707.20 0.2697
707.30 0.2696
707.40 0.2694
707.50 0.2693
707.60 0.2691
707.70 0.269
707.80 0.2688
707.90 0.2687
708.00 0.2685
708.10 0.2684
708.20 0.2683
708.30 0.2681
708.40 0.268
708.50 0.2678
708.60 0.2677
708.70 0.2675
708.80 0.2674
708.90 0.2672
709.00 0.2671
709.10 0.2669
709.20 0.2668
709.30 0.2667
709.40 0.2665
709.50 0.2664
709.60 0.2662
709.70 0.2661
709.80 0.2659
709.90 0.2658
710.00 0.2656
710.10 0.2655
710.20 0.2654
710.30 0.2652
710.40 0.2651
710.50 0.2649
710.60 0.2648
710.70 0.2646
710.80 0.2645
710.90 0.2644
711.00 0.2642
711.10 0.2641
711.20 0.2639
711.30 0.2638
711.40 0.2636
711.50 0.2635
711.60 0.2634
711.70 0.2632
711.80 0.2631
711.90 0.2629
712.00 0.2628
712.10 0.2627
712.20 0.2625
712.30 0.2624
712.40 0.2622
712.50 0.2621
712.60 0.2619
712.70 0.2618
712.80 0.2617
712.90 0.2615
713.00 0.2614
713.10 0.2612
713.20 0.2611
713.30 0.261
713.40 0.2608
713.50 0.2607
713.60 0.2605
713.70 0.2604
713.80 0.2603
713.90 0.2601
714.00 0.26
714.10 0.2598
714.20 0.2597
714.30 0.2596
714.40 0.2594
714.50 0.2593
714.60 0.2591
714.70 0.259
714.80 0.2589
714.90 0.2587
715.00 0.2586
715.10 0.2584
715.20 0.2583
715.30 0.2582
715.40 0.258
715.50 0.2579
715.60 0.2577
715.70 0.2576
715.80 0.2575
715.90 0.2573
716.00 0.2572
716.10 0.2571
716.20 0.2569
716.30 0.2568
716.40 0.2566
716.50 0.2565
716.60 0.2564
716.70 0.2562
716.80 0.2561
716.90 0.256
717.00 0.2558
717.10 0.2557
717.20 0.2555
717.30 0.2554
717.40 0.2553
717.50 0.2551
717.60 0.255
717.70 0.2549
717.80 0.2547
717.90 0.2546
718.00 0.2545
718.10 0.2543
718.20 0.2542
718.30 0.254
718.40 0.2539
718.50 0.2538
718.60 0.2536
718.70 0.2535
718.80 0.2534
718.90 0.2532
719.00 0.2531
719.10 0.253
719.20 0.2528
719.30 0.2527
719.40 0.2525
719.50 0.2524
719.60 0.2523
719.70 0.2521
719.80 0.252
719.90 0.2519
720.00 0.2517
720.10 0.2516
720.20 0.2515
720.30 0.2513
720.40 0.2512
720.50 0.2511
720.60 0.2509
720.70 0.2508
720.80 0.2507
720.90 0.2505
721.00 0.2504
721.10 0.2503
721.20 0.2501
721.30 0.25
721.40 0.2499
721.50 0.2497
721.60 0.2496
721.70 0.2495
721.80 0.2493
721.90 0.2492
722.00 0.2491
722.10 0.2489
722.20 0.2488
722.30 0.2487
722.40 0.2485
722.50 0.2484
722.60 0.2483
722.70 0.2481
722.80 0.248
722.90 0.2479
723.00 0.2477
723.10 0.2476
723.20 0.2475
723.30 0.2473
723.40 0.2472
723.50 0.2471
723.60 0.247
723.70 0.2468
723.80 0.2467
723.90 0.2466
724.00 0.2464
724.10 0.2463
724.20 0.2462
724.30 0.246
724.40 0.2459
724.50 0.2458
724.60 0.2456
724.70 0.2455
724.80 0.2454
724.90 0.2452
725.00 0.2451
725.10 0.245
725.20 0.2449
725.30 0.2447
725.40 0.2446
725.50 0.2445
725.60 0.2443
725.70 0.2442
725.80 0.2441
725.90 0.2439
726.00 0.2438
726.10 0.2437
726.20 0.2436
726.30 0.2434
726.40 0.2433
726.50 0.2432
726.60 0.243
726.70 0.2429
726.80 0.2428
726.90 0.2427
727.00 0.2425
727.10 0.2424
727.20 0.2423
727.30 0.2421
727.40 0.242
727.50 0.2419
727.60 0.2418
727.70 0.2416
727.80 0.2415
727.90 0.2414
728.00 0.2412
728.10 0.2411
728.20 0.241
728.30 0.2409
728.40 0.2407
728.50 0.2406
728.60 0.2405
728.70 0.2404
728.80 0.2402
728.90 0.2401
729.00 0.24
729.10 0.2398
729.20 0.2397
729.30 0.2396
729.40 0.2395
729.50 0.2393
729.60 0.2392
729.70 0.2391
729.80 0.239
729.90 0.2388
730.00 0.2387
730.10 0.2386
730.20 0.2385
730.30 0.2383
730.40 0.2382
730.50 0.2381
730.60 0.238
730.70 0.2378
730.80 0.2377
730.90 0.2376
731.00 0.2375
731.10 0.2373
731.20 0.2372
731.30 0.2371
731.40 0.237
731.50 0.2368
731.60 0.2367
731.70 0.2366
731.80 0.2365
731.90 0.2363
732.00 0.2362
732.10 0.2361
732.20 0.236
732.30 0.2358
732.40 0.2357
732.50 0.2356
732.60 0.2355
732.70 0.2354
732.80 0.2352
732.90 0.2351
733.00 0.235
733.10 0.2349
733.20 0.2347
733.30 0.2346
733.40 0.2345
733.50 0.2344
733.60 0.2342
733.70 0.2341
733.80 0.234
733.90 0.2339
734.00 0.2338
734.10 0.2336
734.20 0.2335
734.30 0.2334
734.40 0.2333
734.50 0.2331
734.60 0.233
734.70 0.2329
734.80 0.2328
734.90 0.2327
735.00 0.2325
735.10 0.2324
735.20 0.2323
735.30 0.2322
735.40 0.232
735.50 0.2319
735.60 0.2318
735.70 0.2317
735.80 0.2316
735.90 0.2314
736.00 0.2313
736.10 0.2312
736.20 0.2311
736.30 0.2309
736.40 0.2308
736.50 0.2307
736.60 0.2306
736.70 0.2305
736.80 0.2303
736.90 0.2302
737.00 0.2301
737.10 0.23
737.20 0.2299
737.30 0.2297
737.40 0.2296
737.50 0.2295
737.60 0.2294
737.70 0.2293
737.80 0.2291
737.90 0.229
738.00 0.2289
738.10 0.2288
738.20 0.2287
738.30 0.2285
738.40 0.2284
738.50 0.2283
738.60 0.2282
738.70 0.2281
738.80 0.2279
738.90 0.2278
739.00 0.2277
739.10 0.2276
739.20 0.2275
739.30 0.2273
739.40 0.2272
739.50 0.2271
739.60 0.227
739.70 0.2269
739.80 0.2267
739.90 0.2266
740.00 0.2265
740.10 0.2264
740.20 0.2263
740.30 0.2261
740.40 0.226
740.50 0.2259
740.60 0.2258
740.70 0.2257
740.80 0.2256
740.90 0.2254
741.00 0.2253
741.10 0.2252
741.20 0.2251
741.30 0.225
741.40 0.2249
741.50 0.2247
741.60 0.2246
741.70 0.2245
741.80 0.2244
741.90 0.2243
742.00 0.2242
742.10 0.2241
742.20 0.2239
742.30 0.2238
742.40 0.2237
742.50 0.2236
742.60 0.2235
742.70 0.2234
742.80 0.2232
742.90 0.2231
743.00 0.223
743.10 0.2229
743.20 0.2228
743.30 0.2227
743.40 0.2225
743.50 0.2224
743.60 0.2223
743.70 0.2222
743.80 0.2221
743.90 0.222
744.00 0.2219
744.10 0.2217
744.20 0.2216
744.30 0.2215
744.40 0.2214
744.50 0.2213
744.60 0.2212
744.70 0.2211
744.80 0.2209
744.90 0.2208
745.00 0.2207
745.10 0.2206
745.20 0.2205
745.30 0.2204
745.40 0.2203
745.50 0.2201
745.60 0.22
745.70 0.2199
745.80 0.2198
745.90 0.2197
746.00 0.2196
746.10 0.2195
746.20 0.2193
746.30 0.2192
746.40 0.2191
746.50 0.219
746.60 0.2189
746.70 0.2188
746.80 0.2187
746.90 0.2185
747.00 0.2184
747.10 0.2183
747.20 0.2182
747.30 0.2181
747.40 0.218
747.50 0.2179
747.60 0.2178
747.70 0.2176
747.80 0.2175
747.90 0.2174
748.00 0.2173
748.10 0.2172
748.20 0.2171
748.30 0.217
748.40 0.2169
748.50 0.2167
748.60 0.2166
748.70 0.2165
748.80 0.2164
748.90 0.2163
749.00 0.2162
749.10 0.2161
749.20 0.216
749.30 0.2158
749.40 0.2157
749.50 0.2156
749.60 0.2155
749.70 0.2154
749.80 0.2153
749.90 0.2152
750.00 0.2151
750.10 0.2149
750.20 0.2148
750.30 0.2147
750.40 0.2146
750.50 0.2145
750.60 0.2144
750.70 0.2143
750.80 0.2142
750.90 0.2141
751.00 0.214
751.10 0.2139
751.20 0.2137
751.30 0.2136
751.40 0.2135
751.50 0.2134
751.60 0.2133
751.70 0.2132
751.80 0.2131
751.90 0.213
752.00 0.2129
752.10 0.2128
752.20 0.2127
752.30 0.2125
752.40 0.2124
752.50 0.2123
752.60 0.2122
752.70 0.2121
752.80 0.212
752.90 0.2119
753.00 0.2118
753.10 0.2117
753.20 0.2116
753.30 0.2115
753.40 0.2114
753.50 0.2112
753.60 0.2111
753.70 0.211
753.80 0.2109
753.90 0.2108
754.00 0.2107
754.10 0.2106
754.20 0.2105
754.30 0.2104
754.40 0.2103
754.50 0.2102
754.60 0.2101
754.70 0.21
754.80 0.2098
754.90 0.2097
755.00 0.2096
755.10 0.2095
755.20 0.2094
755.30 0.2093
755.40 0.2092
755.50 0.2091
755.60 0.209
755.70 0.2089
755.80 0.2088
755.90 0.2087
756.00 0.2086
756.10 0.2085
756.20 0.2083
756.30 0.2082
756.40 0.2081
756.50 0.208
756.60 0.2079
756.70 0.2078
756.80 0.2077
756.90 0.2076
757.00 0.2075
757.10 0.2074
757.20 0.2073
757.30 0.2072
757.40 0.2071
757.50 0.207
757.60 0.2069
757.70 0.2068
757.80 0.2066
757.90 0.2065
758.00 0.2064
758.10 0.2063
758.20 0.2062
758.30 0.2061
758.40 0.206
758.50 0.2059
758.60 0.2058
758.70 0.2057
758.80 0.2056
758.90 0.2055
759.00 0.2054
759.10 0.2053
759.20 0.2052
759.30 0.2051
759.40 0.205
759.50 0.2049
759.60 0.2048
759.70 0.2046
759.80 0.2045
759.90 0.2044
760.00 0.2043
760.10 0.2042
760.20 0.2041
760.30 0.204
760.40 0.2039
760.50 0.2038
760.60 0.2037
760.70 0.2036
760.80 0.2035
760.90 0.2034
761.00 0.2033
761.10 0.2032
761.20 0.2031
761.30 0.203
761.40 0.2029
761.50 0.2028
761.60 0.2027
761.70 0.2026
761.80 0.2025
761.90 0.2024
762.00 0.2023
762.10 0.2022
762.20 0.2021
762.30 0.202
762.40 0.2019
762.50 0.2018
762.60 0.2017
762.70 0.2016
762.80 0.2015
762.90 0.2014
763.00 0.2013
763.10 0.2012
763.20 0.2011
763.30 0.201
763.40 0.2009
763.50 0.2008
763.60 0.2007
763.70 0.2006
763.80 0.2005
763.90 0.2003
764.00 0.2002
764.10 0.2001
764.20 0.2
764.30 0.1999
764.40 0.1998
764.50 0.1997
764.60 0.1996
764.70 0.1995
764.80 0.1994
764.90 0.1993
765.00 0.1992
765.10 0.1991
765.20 0.199
765.30 0.1989
765.40 0.1988
765.50 0.1987
765.60 0.1986
765.70 0.1985
765.80 0.1984
765.90 0.1983
766.00 0.1982
766.10 0.1981
766.20 0.198
766.30 0.1979
766.40 0.1978
766.50 0.1977
766.60 0.1976
766.70 0.1975
766.80 0.1974
766.90 0.1973
767.00 0.1972
767.10 0.1971
767.20 0.197
767.30 0.1969
767.40 0.1968
767.50 0.1967
767.60 0.1966
767.70 0.1965
767.80 0.1964
767.90 0.1963
768.00 0.1962
768.10 0.1961
768.20 0.196
768.30 0.1959
768.40 0.1958
768.50 0.1957
768.60 0.1956
768.70 0.1955
768.80 0.1954
768.90 0.1953
769.00 0.1952
769.10 0.1951
769.20 0.1951
769.30 0.195
769.40 0.1949
769.50 0.1948
769.60 0.1947
769.70 0.1946
769.80 0.1945
769.90 0.1944
770.00 0.1943
770.10 0.1942
770.20 0.1941
770.30 0.194
770.40 0.1939
770.50 0.1938
770.60 0.1937
770.70 0.1936
770.80 0.1935
770.90 0.1934
771.00 0.1933
771.10 0.1932
771.20 0.1931
771.30 0.193
771.40 0.1929
771.50 0.1928
771.60 0.1927
771.70 0.1926
771.80 0.1925
771.90 0.1924
772.00 0.1923
772.10 0.1922
772.20 0.1921
772.30 0.192
772.40 0.192
772.50 0.1919
772.60 0.1918
772.70 0.1917
772.80 0.1916
772.90 0.1915
773.00 0.1914
773.10 0.1913
773.20 0.1912
773.30 0.1911
773.40 0.191
773.50 0.1909
773.60 0.1908
773.70 0.1907
773.80 0.1906
773.90 0.1905
774.00 0.1904
774.10 0.1903
774.20 0.1902
774.30 0.1901
774.40 0.19
774.50 0.19
774.60 0.1899
774.70 0.1898
774.80 0.1897
774.90 0.1896
775.00 0.1895
775.10 0.1894
775.20 0.1893
775.30 0.1892
775.40 0.1891
775.50 0.189
775.60 0.1889
775.70 0.1888
775.80 0.1887
775.90 0.1886
776.00 0.1885
776.10 0.1884
776.20 0.1883
776.30 0.1883
776.40 0.1882
776.50 0.1881
776.60 0.188
776.70 0.1879
776.80 0.1878
776.90 0.1877
777.00 0.1876
777.10 0.1875
777.20 0.1874
777.30 0.1873
777.40 0.1872
777.50 0.1871
777.60 0.187
777.70 0.1869
777.80 0.1868
777.90 0.1868
778.00 0.1867
778.10 0.1866
778.20 0.1865
778.30 0.1864
778.40 0.1863
778.50 0.1862
778.60 0.1861
778.70 0.186
778.80 0.1859
778.90 0.1858
779.00 0.1857
779.10 0.1856
779.20 0.1855
779.30 0.1855
779.40 0.1854
779.50 0.1853
779.60 0.1852
779.70 0.1851
779.80 0.185
779.90 0.1849
780.00 0.1848
780.10 0.1847
780.20 0.1846
780.30 0.1845
780.40 0.1844
780.50 0.1844
780.60 0.1843
780.70 0.1842
780.80 0.1841
780.90 0.184
781.00 0.1839
781.10 0.1838
781.20 0.1837
781.30 0.1836
781.40 0.1835
781.50 0.1834
781.60 0.1834
781.70 0.1833
781.80 0.1832
781.90 0.1831
782.00 0.183
782.10 0.1829
782.20 0.1828
782.30 0.1827
782.40 0.1826
782.50 0.1825
782.60 0.1825
782.70 0.1824
782.80 0.1823
782.90 0.1822
783.00 0.1821
783.10 0.182
783.20 0.1819
783.30 0.1818
783.40 0.1817
783.50 0.1816
783.60 0.1816
783.70 0.1815
783.80 0.1814
783.90 0.1813
784.00 0.1812
784.10 0.1811
784.20 0.181
784.30 0.1809
784.40 0.1808
784.50 0.1808
784.60 0.1807
784.70 0.1806
784.80 0.1805
784.90 0.1804
785.00 0.1803
785.10 0.1802
785.20 0.1801
785.30 0.18
785.40 0.18
785.50 0.1799
785.60 0.1798
785.70 0.1797
785.80 0.1796
785.90 0.1795
786.00 0.1794
786.10 0.1793
786.20 0.1792
786.30 0.1792
786.40 0.1791
786.50 0.179
786.60 0.1789
786.70 0.1788
786.80 0.1787
786.90 0.1786
787.00 0.1785
787.10 0.1785
787.20 0.1784
787.30 0.1783
787.40 0.1782
787.50 0.1781
787.60 0.178
787.70 0.1779
787.80 0.1778
787.90 0.1778
788.00 0.1777
788.10 0.1776
788.20 0.1775
788.30 0.1774
788.40 0.1773
788.50 0.1772
788.60 0.1771
788.70 0.177
788.80 0.177
788.90 0.1769
789.00 0.1768
789.10 0.1767
789.20 0.1766
789.30 0.1765
789.40 0.1764
789.50 0.1764
789.60 0.1763
789.70 0.1762
789.80 0.1761
789.90 0.176
790.00 0.1759
790.10 0.1758
790.20 0.1757
790.30 0.1757
790.40 0.1756
790.50 0.1755
790.60 0.1754
790.70 0.1753
790.80 0.1752
790.90 0.1751
791.00 0.1751
791.10 0.175
791.20 0.1749
791.30 0.1748
791.40 0.1747
791.50 0.1746
791.60 0.1746
791.70 0.1745
791.80 0.1744
791.90 0.1743
792.00 0.1742
792.10 0.1741
792.20 0.174
792.30 0.174
792.40 0.1739
792.50 0.1738
792.60 0.1737
792.70 0.1736
792.80 0.1735
792.90 0.1735
793.00 0.1734
793.10 0.1733
793.20 0.1732
793.30 0.1731
793.40 0.173
793.50 0.1729
793.60 0.1729
793.70 0.1728
793.80 0.1727
793.90 0.1726
794.00 0.1725
794.10 0.1724
794.20 0.1724
794.30 0.1723
794.40 0.1722
794.50 0.1721
794.60 0.172
794.70 0.1719
794.80 0.1719
794.90 0.1718
795.00 0.1717
795.10 0.1716
795.20 0.1715
795.30 0.1714
795.40 0.1714
795.50 0.1713
795.60 0.1712
795.70 0.1711
795.80 0.171
795.90 0.1709
796.00 0.1709
796.10 0.1708
796.20 0.1707
796.30 0.1706
796.40 0.1705
796.50 0.1704
796.60 0.1704
796.70 0.1703
796.80 0.1702
796.90 0.1701
797.00 0.17
797.10 0.1699
797.20 0.1699
797.30 0.1698
797.40 0.1697
797.50 0.1696
797.60 0.1695
797.70 0.1694
797.80 0.1694
797.90 0.1693
798.00 0.1692
798.10 0.1691
798.20 0.169
798.30 0.169
798.40 0.1689
798.50 0.1688
798.60 0.1687
798.70 0.1686
798.80 0.1685
798.90 0.1685
799.00 0.1684
799.10 0.1683
799.20 0.1682
799.30 0.1681
799.40 0.168
799.50 0.168
799.60 0.1679
799.70 0.1678
799.80 0.1677
799.90 0.1676
800.00 0.1676
800.10 0.1675
800.20 0.1674
800.30 0.1673
800.40 0.1672
800.50 0.1672
800.60 0.1671
800.70 0.167
800.80 0.1669
800.90 0.1668
801.00 0.1668
801.10 0.1667
801.20 0.1666
801.30 0.1665
801.40 0.1664
801.50 0.1664
801.60 0.1663
801.70 0.1662
801.80 0.1661
801.90 0.166
802.00 0.166
802.10 0.1659
802.20 0.1658
802.30 0.1657
802.40 0.1656
802.50 0.1656
802.60 0.1655
802.70 0.1654
802.80 0.1653
802.90 0.1652
803.00 0.1652
803.10 0.1651
803.20 0.165
803.30 0.1649
803.40 0.1648
803.50 0.1648
803.60 0.1647
803.70 0.1646
803.80 0.1645
803.90 0.1644
804.00 0.1644
804.10 0.1643
804.20 0.1642
804.30 0.1641
804.40 0.1641
804.50 0.164
804.60 0.1639
804.70 0.1638
804.80 0.1637
804.90 0.1637
805.00 0.1636
805.10 0.1635
805.20 0.1634
805.30 0.1633
805.40 0.1633
805.50 0.1632
805.60 0.1631
805.70 0.163
805.80 0.1629
805.90 0.1629
806.00 0.1628
806.10 0.1627
806.20 0.1626
806.30 0.1626
806.40 0.1625
806.50 0.1624
806.60 0.1623
806.70 0.1622
806.80 0.1622
806.90 0.1621
807.00 0.162
807.10 0.1619
807.20 0.1619
807.30 0.1618
807.40 0.1617
807.50 0.1616
807.60 0.1615
807.70 0.1615
807.80 0.1614
807.90 0.1613
808.00 0.1612
808.10 0.1612
808.20 0.1611
808.30 0.161
808.40 0.1609
808.50 0.1608
808.60 0.1608
808.70 0.1607
808.80 0.1606
808.90 0.1605
809.00 0.1605
809.10 0.1604
809.20 0.1603
809.30 0.1602
809.40 0.1601
809.50 0.1601
809.60 0.16
809.70 0.1599
809.80 0.1598
809.90 0.1598
810.00 0.1597
810.10 0.1596
810.20 0.1595
810.30 0.1595
810.40 0.1594
810.50 0.1593
810.60 0.1592
810.70 0.1592
810.80 0.1591
810.90 0.159
811.00 0.1589
811.10 0.1589
811.20 0.1588
811.30 0.1587
811.40 0.1586
811.50 0.1586
811.60 0.1585
811.70 0.1584
811.80 0.1583
811.90 0.1583
812.00 0.1582
812.10 0.1581
812.20 0.158
812.30 0.158
812.40 0.1579
812.50 0.1578
812.60 0.1577
812.70 0.1577
812.80 0.1576
812.90 0.1575
813.00 0.1574
813.10 0.1574
813.20 0.1573
813.30 0.1572
813.40 0.1571
813.50 0.1571
813.60 0.157
813.70 0.1569
813.80 0.1568
813.90 0.1568
814.00 0.1567
814.10 0.1566
814.20 0.1565
814.30 0.1565
814.40 0.1564
814.50 0.1563
814.60 0.1562
814.70 0.1562
814.80 0.1561
814.90 0.156
815.00 0.1559
815.10 0.1559
815.20 0.1558
815.30 0.1557
815.40 0.1556
815.50 0.1556
815.60 0.1555
815.70 0.1554
815.80 0.1553
815.90 0.1553
816.00 0.1552
816.10 0.1551
816.20 0.1551
816.30 0.155
816.40 0.1549
816.50 0.1548
816.60 0.1548
816.70 0.1547
816.80 0.1546
816.90 0.1545
817.00 0.1545
817.10 0.1544
817.20 0.1543
817.30 0.1542
817.40 0.1542
817.50 0.1541
817.60 0.154
817.70 0.154
817.80 0.1539
817.90 0.1538
818.00 0.1537
818.10 0.1537
818.20 0.1536
818.30 0.1535
818.40 0.1534
818.50 0.1534
818.60 0.1533
818.70 0.1532
818.80 0.1531
818.90 0.1531
819.00 0.153
819.10 0.1529
819.20 0.1529
819.30 0.1528
819.40 0.1527
819.50 0.1526
819.60 0.1526
819.70 0.1525
819.80 0.1524
819.90 0.1523
820.00 0.1523
820.10 0.1522
820.20 0.1521
820.30 0.1521
820.40 0.152
820.50 0.1519
820.60 0.1518
820.70 0.1518
820.80 0.1517
820.90 0.1516
821.00 0.1516
821.10 0.1515
821.20 0.1514
821.30 0.1513
821.40 0.1513
821.50 0.1512
821.60 0.1511
821.70 0.1511
821.80 0.151
821.90 0.1509
822.00 0.1508
822.10 0.1508
822.20 0.1507
822.30 0.1506
822.40 0.1506
822.50 0.1505
822.60 0.1504
822.70 0.1503
822.80 0.1503
822.90 0.1502
823.00 0.1501
823.10 0.1501
823.20 0.15
823.30 0.1499
823.40 0.1499
823.50 0.1498
823.60 0.1497
823.70 0.1496
823.80 0.1496
823.90 0.1495
824.00 0.1494
824.10 0.1494
824.20 0.1493
824.30 0.1492
824.40 0.1492
824.50 0.1491
824.60 0.149
824.70 0.1489
824.80 0.1489
824.90 0.1488
825.00 0.1487
825.10 0.1487
825.20 0.1486
825.30 0.1485
825.40 0.1485
825.50 0.1484
825.60 0.1483
825.70 0.1482
825.80 0.1482
825.90 0.1481
826.00 0.148
826.10 0.148
826.20 0.1479
826.30 0.1478
826.40 0.1478
826.50 0.1477
826.60 0.1476
826.70 0.1475
826.80 0.1475
826.90 0.1474
827.00 0.1473
827.10 0.1473
827.20 0.1472
827.30 0.1471
827.40 0.1471
827.50 0.147
827.60 0.1469
827.70 0.1469
827.80 0.1468
827.90 0.1467
828.00 0.1467
828.10 0.1466
828.20 0.1465
828.30 0.1464
828.40 0.1464
828.50 0.1463
828.60 0.1462
828.70 0.1462
828.80 0.1461
828.90 0.146
829.00 0.146
829.10 0.1459
829.20 0.1458
829.30 0.1458
829.40 0.1457
829.50 0.1456
829.60 0.1456
829.70 0.1455
829.80 0.1454
829.90 0.1454
830.00 0.1453
830.10 0.1452
830.20 0.1452
830.30 0.1451
830.40 0.145
830.50 0.1449
830.60 0.1449
830.70 0.1448
830.80 0.1447
830.90 0.1447
831.00 0.1446
831.10 0.1445
831.20 0.1445
831.30 0.1444
831.40 0.1443
831.50 0.1443
831.60 0.1442
831.70 0.1441
831.80 0.1441
831.90 0.144
832.00 0.1439
832.10 0.1439
832.20 0.1438
832.30 0.1437
832.40 0.1437
832.50 0.1436
832.60 0.1435
832.70 0.1435
832.80 0.1434
832.90 0.1433
833.00 0.1433
833.10 0.1432
833.20 0.1431
833.30 0.1431
833.40 0.143
833.50 0.1429
833.60 0.1429
833.70 0.1428
833.80 0.1427
833.90 0.1427
834.00 0.1426
834.10 0.1425
834.20 0.1425
834.30 0.1424
834.40 0.1423
834.50 0.1423
834.60 0.1422
834.70 0.1421
834.80 0.1421
834.90 0.142
835.00 0.1419
835.10 0.1419
835.20 0.1418
835.30 0.1417
835.40 0.1417
835.50 0.1416
835.60 0.1415
835.70 0.1415
835.80 0.1414
835.90 0.1413
836.00 0.1413
836.10 0.1412
836.20 0.1412
836.30 0.1411
836.40 0.141
836.50 0.141
836.60 0.1409
836.70 0.1408
836.80 0.1408
836.90 0.1407
837.00 0.1406
837.10 0.1406
837.20 0.1405
837.30 0.1404
837.40 0.1404
837.50 0.1403
837.60 0.1402
837.70 0.1402
837.80 0.1401
837.90 0.14
838.00 0.14
838.10 0.1399
838.20 0.1398
838.30 0.1398
838.40 0.1397
838.50 0.1397
838.60 0.1396
838.70 0.1395
838.80 0.1395
838.90 0.1394
839.00 0.1393
839.10 0.1393
839.20 0.1392
839.30 0.1391
839.40 0.1391
839.50 0.139
839.60 0.1389
839.70 0.1389
839.80 0.1388
839.90 0.1387
840.00 0.1387
840.10 0.1386
840.20 0.1386
840.30 0.1385
840.40 0.1384
840.50 0.1384
840.60 0.1383
840.70 0.1382
840.80 0.1382
840.90 0.1381
841.00 0.138
841.10 0.138
841.20 0.1379
841.30 0.1379
841.40 0.1378
841.50 0.1377
841.60 0.1377
841.70 0.1376
841.80 0.1375
841.90 0.1375
842.00 0.1374
842.10 0.1373
842.20 0.1373
842.30 0.1372
842.40 0.1372
842.50 0.1371
842.60 0.137
842.70 0.137
842.80 0.1369
842.90 0.1368
843.00 0.1368
843.10 0.1367
843.20 0.1366
843.30 0.1366
843.40 0.1365
843.50 0.1365
843.60 0.1364
843.70 0.1363
843.80 0.1363
843.90 0.1362
844.00 0.1361
844.10 0.1361
844.20 0.136
844.30 0.136
844.40 0.1359
844.50 0.1358
844.60 0.1358
844.70 0.1357
844.80 0.1356
844.90 0.1356
845.00 0.1355
845.10 0.1354
845.20 0.1354
845.30 0.1353
845.40 0.1353
845.50 0.1352
845.60 0.1351
845.70 0.1351
845.80 0.135
845.90 0.1349
846.00 0.1349
846.10 0.1348
846.20 0.1348
846.30 0.1347
846.40 0.1346
846.50 0.1346
846.60 0.1345
846.70 0.1344
846.80 0.1344
846.90 0.1343
847.00 0.1343
847.10 0.1342
847.20 0.1341
847.30 0.1341
847.40 0.134
847.50 0.134
847.60 0.1339
847.70 0.1338
847.80 0.1338
847.90 0.1337
848.00 0.1336
848.10 0.1336
848.20 0.1335
848.30 0.1335
848.40 0.1334
848.50 0.1333
848.60 0.1333
848.70 0.1332
848.80 0.1332
848.90 0.1331
849.00 0.133
849.10 0.133
849.20 0.1329
849.30 0.1328
849.40 0.1328
849.50 0.1327
849.60 0.1327
849.70 0.1326
849.80 0.1325
849.90 0.1325
850.00 0.1324
850.10 0.1324
850.20 0.1323
850.30 0.1322
850.40 0.1322
850.50 0.1321
850.60 0.1321
850.70 0.132
850.80 0.1319
850.90 0.1319
851.00 0.1318
851.10 0.1318
851.20 0.1317
851.30 0.1316
851.40 0.1316
851.50 0.1315
851.60 0.1314
851.70 0.1314
851.80 0.1313
851.90 0.1313
852.00 0.1312
852.10 0.1311
852.20 0.1311
852.30 0.131
852.40 0.131
852.50 0.1309
852.60 0.1308
852.70 0.1308
852.80 0.1307
852.90 0.1307
853.00 0.1306
853.10 0.1305
853.20 0.1305
853.30 0.1304
853.40 0.1304
853.50 0.1303
853.60 0.1302
853.70 0.1302
853.80 0.1301
853.90 0.1301
854.00 0.13
854.10 0.13
854.20 0.1299
854.30 0.1298
854.40 0.1298
854.50 0.1297
854.60 0.1297
854.70 0.1296
854.80 0.1295
854.90 0.1295
855.00 0.1294
855.10 0.1294
855.20 0.1293
855.30 0.1292
855.40 0.1292
855.50 0.1291
855.60 0.1291
855.70 0.129
855.80 0.1289
855.90 0.1289
856.00 0.1288
856.10 0.1288
856.20 0.1287
856.30 0.1286
856.40 0.1286
856.50 0.1285
856.60 0.1285
856.70 0.1284
856.80 0.1284
856.90 0.1283
857.00 0.1282
857.10 0.1282
857.20 0.1281
857.30 0.1281
857.40 0.128
857.50 0.128
857.60 0.1279
857.70 0.1278
857.80 0.1278
857.90 0.1277
858.00 0.1277
858.10 0.1276
858.20 0.1276
858.30 0.1275
858.40 0.1274
858.50 0.1274
858.60 0.1273
858.70 0.1273
858.80 0.1272
858.90 0.1272
859.00 0.1271
859.10 0.127
859.20 0.127
859.30 0.1269
859.40 0.1269
859.50 0.1268
859.60 0.1268
859.70 0.1267
859.80 0.1266
859.90 0.1266
860.00 0.1265
860.10 0.1265
860.20 0.1264
860.30 0.1264
860.40 0.1263
860.50 0.1263
860.60 0.1262
860.70 0.1261
860.80 0.1261
860.90 0.126
861.00 0.126
861.10 0.1259
861.20 0.1259
861.30 0.1258
861.40 0.1257
861.50 0.1257
861.60 0.1256
861.70 0.1256
861.80 0.1255
861.90 0.1255
862.00 0.1254
862.10 0.1254
862.20 0.1253
862.30 0.1252
862.40 0.1252
862.50 0.1251
862.60 0.1251
862.70 0.125
862.80 0.125
862.90 0.1249
863.00 0.1248
863.10 0.1248
863.20 0.1247
863.30 0.1247
863.40 0.1246
863.50 0.1246
863.60 0.1245
863.70 0.1244
863.80 0.1244
863.90 0.1243
864.00 0.1243
864.10 0.1242
864.20 0.1242
864.30 0.1241
864.40 0.1241
864.50 0.124
864.60 0.1239
864.70 0.1239
864.80 0.1238
864.90 0.1238
865.00 0.1237
865.10 0.1237
865.20 0.1236
865.30 0.1235
865.40 0.1235
865.50 0.1234
865.60 0.1234
865.70 0.1233
865.80 0.1233
865.90 0.1232
866.00 0.1232
866.10 0.1231
866.20 0.123
866.30 0.123
866.40 0.1229
866.50 0.1229
866.60 0.1228
866.70 0.1228
866.80 0.1227
866.90 0.1227
867.00 0.1226
867.10 0.1225
867.20 0.1225
867.30 0.1224
867.40 0.1224
867.50 0.1223
867.60 0.1223
867.70 0.1222
867.80 0.1222
867.90 0.1221
868.00 0.122
868.10 0.122
868.20 0.1219
868.30 0.1219
868.40 0.1218
868.50 0.1218
868.60 0.1217
868.70 0.1217
868.80 0.1216
868.90 0.1216
869.00 0.1215
869.10 0.1214
869.20 0.1214
869.30 0.1213
869.40 0.1213
869.50 0.1212
869.60 0.1212
869.70 0.1211
869.80 0.1211
869.90 0.121
870.00 0.121
870.10 0.1209
870.20 0.1209
870.30 0.1208
870.40 0.1207
870.50 0.1207
870.60 0.1206
870.70 0.1206
870.80 0.1205
870.90 0.1205
871.00 0.1204
871.10 0.1204
871.20 0.1203
871.30 0.1203
871.40 0.1202
871.50 0.1202
871.60 0.1201
871.70 0.12
871.80 0.12
871.90 0.1199
872.00 0.1199
872.10 0.1198
872.20 0.1198
872.30 0.1197
872.40 0.1197
872.50 0.1196
872.60 0.1196
872.70 0.1195
872.80 0.1195
872.90 0.1194
873.00 0.1193
873.10 0.1193
873.20 0.1192
873.30 0.1192
873.40 0.1191
873.50 0.1191
873.60 0.119
873.70 0.119
873.80 0.1189
873.90 0.1189
874.00 0.1188
874.10 0.1188
874.20 0.1187
874.30 0.1187
874.40 0.1186
874.50 0.1185
874.60 0.1185
874.70 0.1184
874.80 0.1184
874.90 0.1183
875.00 0.1183
875.10 0.1182
875.20 0.1182
875.30 0.1181
875.40 0.1181
875.50 0.118
875.60 0.118
875.70 0.1179
875.80 0.1179
875.90 0.1178
876.00 0.1178
876.10 0.1177
876.20 0.1176
876.30 0.1176
876.40 0.1175
876.50 0.1175
876.60 0.1174
876.70 0.1174
876.80 0.1173
876.90 0.1173
877.00 0.1172
877.10 0.1172
877.20 0.1171
877.30 0.1171
877.40 0.117
877.50 0.117
877.60 0.1169
877.70 0.1169
877.80 0.1168
877.90 0.1168
878.00 0.1167
878.10 0.1167
878.20 0.1166
878.30 0.1166
878.40 0.1165
878.50 0.1165
878.60 0.1164
878.70 0.1163
878.80 0.1163
878.90 0.1162
879.00 0.1162
879.10 0.1161
879.20 0.1161
879.30 0.116
879.40 0.116
879.50 0.1159
879.60 0.1159
879.70 0.1158
879.80 0.1158
879.90 0.1157
880.00 0.1157
880.10 0.1156
880.20 0.1156
880.30 0.1155
880.40 0.1155
880.50 0.1154
880.60 0.1154
880.70 0.1153
880.80 0.1153
880.90 0.1152
881.00 0.1152
881.10 0.1151
881.20 0.1151
881.30 0.115
881.40 0.115
881.50 0.1149
881.60 0.1149
881.70 0.1148
881.80 0.1148
881.90 0.1147
882.00 0.1147
882.10 0.1146
882.20 0.1146
882.30 0.1145
882.40 0.1145
882.50 0.1144
882.60 0.1144
882.70 0.1143
882.80 0.1143
882.90 0.1142
883.00 0.1142
883.10 0.1141
883.20 0.1141
883.30 0.114
883.40 0.114
883.50 0.1139
883.60 0.1139
883.70 0.1138
883.80 0.1138
883.90 0.1137
884.00 0.1137
884.10 0.1136
884.20 0.1136
884.30 0.1135
884.40 0.1135
884.50 0.1134
884.60 0.1134
884.70 0.1133
884.80 0.1133
884.90 0.1132
885.00 0.1132
885.10 0.1131
885.20 0.1131
885.30 0.113
885.40 0.113
885.50 0.1129
885.60 0.1129
885.70 0.1128
885.80 0.1128
885.90 0.1127
886.00 0.1127
886.10 0.1126
886.20 0.1126
886.30 0.1125
886.40 0.1125
886.50 0.1124
886.60 0.1124
886.70 0.1123
886.80 0.1123
886.90 0.1122
887.00 0.1122
887.10 0.1121
887.20 0.1121
887.30 0.112
887.40 0.112
887.50 0.1119
887.60 0.1119
887.70 0.1118
887.80 0.1118
887.90 0.1117
888.00 0.1117
888.10 0.1116
888.20 0.1116
888.30 0.1115
888.40 0.1115
888.50 0.1114
888.60 0.1114
888.70 0.1113
888.80 0.1113
888.90 0.1112
889.00 0.1112
889.10 0.1111
889.20 0.1111
889.30 0.111
889.40 0.111
889.50 0.1109
889.60 0.1109
889.70 0.1108
889.80 0.1108
889.90 0.1107
890.00 0.1107
890.10 0.1106
890.20 0.1106
890.30 0.1106
890.40 0.1105
890.50 0.1105
890.60 0.1104
890.70 0.1104
890.80 0.1103
890.90 0.1103
891.00 0.1102
891.10 0.1102
891.20 0.1101
891.30 0.1101
891.40 0.11
891.50 0.11
891.60 0.1099
891.70 0.1099
891.80 0.1098
891.90 0.1098
892.00 0.1097
892.10 0.1097
892.20 0.1096
892.30 0.1096
892.40 0.1095
892.50 0.1095
892.60 0.1094
892.70 0.1094
892.80 0.1094
892.90 0.1093
893.00 0.1093
893.10 0.1092
893.20 0.1092
893.30 0.1091
893.40 0.1091
893.50 0.109
893.60 0.109
893.70 0.1089
893.80 0.1089
893.90 0.1088
894.00 0.1088
894.10 0.1087
894.20 0.1087
894.30 0.1086
894.40 0.1086
894.50 0.1085
894.60 0.1085
894.70 0.1085
894.80 0.1084
894.90 0.1084
895.00 0.1083
895.10 0.1083
895.20 0.1082
895.30 0.1082
895.40 0.1081
895.50 0.1081
895.60 0.108
895.70 0.108
895.80 0.1079
895.90 0.1079
896.00 0.1078
896.10 0.1078
896.20 0.1077
896.30 0.1077
896.40 0.1077
896.50 0.1076
896.60 0.1076
896.70 0.1075
896.80 0.1075
896.90 0.1074
897.00 0.1074
897.10 0.1073
897.20 0.1073
897.30 0.1072
897.40 0.1072
897.50 0.1071
897.60 0.1071
897.70 0.107
897.80 0.107
897.90 0.107
898.00 0.1069
898.10 0.1069
898.20 0.1068
898.30 0.1068
898.40 0.1067
898.50 0.1067
898.60 0.1066
898.70 0.1066
898.80 0.1065
898.90 0.1065
899.00 0.1064
899.10 0.1064
899.20 0.1064
899.30 0.1063
899.40 0.1063
899.50 0.1062
899.60 0.1062
899.70 0.1061
899.80 0.1061
899.90 0.106
900.00 0.106
900.10 0.1059
900.20 0.1059
900.30 0.1058
900.40 0.1058
900.50 0.1058
900.60 0.1057
900.70 0.1057
900.80 0.1056
900.90 0.1056
901.00 0.1055
901.10 0.1055
901.20 0.1054
901.30 0.1054
901.40 0.1053
901.50 0.1053
901.60 0.1053
901.70 0.1052
901.80 0.1052
901.90 0.1051
902.00 0.1051
902.10 0.105
902.20 0.105
902.30 0.1049
902.40 0.1049
902.50 0.1048
902.60 0.1048
902.70 0.1048
902.80 0.1047
902.90 0.1047
903.00 0.1046
903.10 0.1046
903.20 0.1045
903.30 0.1045
903.40 0.1044
903.50 0.1044
903.60 0.1044
903.70 0.1043
903.80 0.1043
903.90 0.1042
904.00 0.1042
904.10 0.1041
904.20 0.1041
904.30 0.104
904.40 0.104
904.50 0.104
904.60 0.1039
904.70 0.1039
904.80 0.1038
904.90 0.1038
905.00 0.1037
905.10 0.1037
905.20 0.1036
905.30 0.1036
905.40 0.1036
905.50 0.1035
905.60 0.1035
905.70 0.1034
905.80 0.1034
905.90 0.1033
906.00 0.1033
906.10 0.1032
906.20 0.1032
906.30 0.1032
906.40 0.1031
906.50 0.1031
906.60 0.103
906.70 0.103
906.80 0.1029
906.90 0.1029
907.00 0.1028
907.10 0.1028
907.20 0.1028
907.30 0.1027
907.40 0.1027
907.50 0.1026
907.60 0.1026
907.70 0.1025
907.80 0.1025
907.90 0.1024
908.00 0.1024
908.10 0.1024
908.20 0.1023
908.30 0.1023
908.40 0.1022
908.50 0.1022
908.60 0.1021
908.70 0.1021
908.80 0.1021
908.90 0.102
909.00 0.102
909.10 0.1019
909.20 0.1019
909.30 0.1018
909.40 0.1018
909.50 0.1018
909.60 0.1017
909.70 0.1017
909.80 0.1016
909.90 0.1016
910.00 0.1015
910.10 0.1015
910.20 0.1015
910.30 0.1014
910.40 0.1014
910.50 0.1013
910.60 0.1013
910.70 0.1012
910.80 0.1012
910.90 0.1011
911.00 0.1011
911.10 0.1011
911.20 0.101
911.30 0.101
911.40 0.1009
911.50 0.1009
911.60 0.1008
911.70 0.1008
911.80 0.1008
911.90 0.1007
912.00 0.1007
912.10 0.1006
912.20 0.1006
912.30 0.1005
912.40 0.1005
912.50 0.1005
912.60 0.1004
912.70 0.1004
912.80 0.1003
912.90 0.1003
913.00 0.1002
913.10 0.1002
913.20 0.1002
913.30 0.1001
913.40 0.1001
913.50 0.1
913.60 0.09999
913.70 0.09995
913.80 0.09991
913.90 0.09987
914.00 0.09982
914.10 0.09978
914.20 0.09974
914.30 0.0997
914.40 0.09966
914.50 0.09961
914.60 0.09957
914.70 0.09953
914.80 0.09949
914.90 0.09944
915.00 0.0994
915.10 0.09936
915.20 0.09932
915.30 0.09928
915.40 0.09923
915.50 0.09919
915.60 0.09915
915.70 0.09911
915.80 0.09906
915.90 0.09902
916.00 0.09898
916.10 0.09894
916.20 0.0989
916.30 0.09886
916.40 0.09881
916.50 0.09877
916.60 0.09873
916.70 0.09869
916.80 0.09865
916.90 0.0986
917.00 0.09856
917.10 0.09852
917.20 0.09848
917.30 0.09844
917.40 0.0984
917.50 0.09835
917.60 0.09831
917.70 0.09827
917.80 0.09823
917.90 0.09819
918.00 0.09815
918.10 0.09811
918.20 0.09807
918.30 0.09802
918.40 0.09798
918.50 0.09794
918.60 0.0979
918.70 0.09786
918.80 0.09782
918.90 0.09778
919.00 0.09774
919.10 0.0977
919.20 0.09765
919.30 0.09761
919.40 0.09757
919.50 0.09753
919.60 0.09749
919.70 0.09745
919.80 0.09741
919.90 0.09737
920.00 0.09733
920.10 0.09728
920.20 0.09724
920.30 0.0972
920.40 0.09716
920.50 0.09712
920.60 0.09708
920.70 0.09704
920.80 0.097
920.90 0.09696
921.00 0.09692
921.10 0.09688
921.20 0.09684
921.30 0.09679
921.40 0.09675
921.50 0.09671
921.60 0.09667
921.70 0.09663
921.80 0.09659
921.90 0.09655
922.00 0.09651
922.10 0.09647
922.20 0.09643
922.30 0.09639
922.40 0.09635
922.50 0.09631
922.60 0.09627
922.70 0.09623
922.80 0.09619
922.90 0.09615
923.00 0.09611
923.10 0.09607
923.20 0.09603
923.30 0.09599
923.40 0.09595
923.50 0.09591
923.60 0.09587
923.70 0.09583
923.80 0.09579
923.90 0.09575
924.00 0.09571
924.10 0.09567
924.20 0.09563
924.30 0.09559
924.40 0.09555
924.50 0.09551
924.60 0.09547
924.70 0.09543
924.80 0.09539
924.90 0.09535
925.00 0.09531
925.10 0.09527
925.20 0.09523
925.30 0.09519
925.40 0.09515
925.50 0.09511
925.60 0.09507
925.70 0.09503
925.80 0.09499
925.90 0.09495
926.00 0.09491
926.10 0.09487
926.20 0.09483
926.30 0.09479
926.40 0.09475
926.50 0.09471
926.60 0.09467
926.70 0.09463
926.80 0.09459
926.90 0.09455
927.00 0.09451
927.10 0.09447
927.20 0.09444
927.30 0.0944
927.40 0.09436
927.50 0.09432
927.60 0.09428
927.70 0.09424
927.80 0.0942
927.90 0.09416
928.00 0.09412
928.10 0.09408
928.20 0.09404
928.30 0.09401
928.40 0.09397
928.50 0.09393
928.60 0.09389
928.70 0.09385
928.80 0.09381
928.90 0.09377
929.00 0.09373
929.10 0.09369
929.20 0.09365
929.30 0.09362
929.40 0.09358
929.50 0.09354
929.60 0.0935
929.70 0.09346
929.80 0.09342
929.90 0.09338
930.00 0.09334
930.10 0.09331
930.20 0.09327
930.30 0.09323
930.40 0.09319
930.50 0.09315
930.60 0.09311
930.70 0.09307
930.80 0.09303
930.90 0.093
931.00 0.09296
931.10 0.09292
931.20 0.09288
931.30 0.09284
931.40 0.0928
931.50 0.09276
931.60 0.09273
931.70 0.09269
931.80 0.09265
931.90 0.09261
932.00 0.09257
932.10 0.09253
932.20 0.0925
932.30 0.09246
932.40 0.09242
932.50 0.09238
932.60 0.09234
932.70 0.0923
932.80 0.09227
932.90 0.09223
933.00 0.09219
933.10 0.09215
933.20 0.09211
933.30 0.09208
933.40 0.09204
933.50 0.092
933.60 0.09196
933.70 0.09192
933.80 0.09188
933.90 0.09185
934.00 0.09181
934.10 0.09177
934.20 0.09173
934.30 0.09169
934.40 0.09166
934.50 0.09162
934.60 0.09158
934.70 0.09154
934.80 0.09151
934.90 0.09147
935.00 0.09143
935.10 0.09139
935.20 0.09135
935.30 0.09132
935.40 0.09128
935.50 0.09124
935.60 0.0912
935.70 0.09117
935.80 0.09113
935.90 0.09109
936.00 0.09105
936.10 0.09102
936.20 0.09098
936.30 0.09094
936.40 0.0909
936.50 0.09086
936.60 0.09083
936.70 0.09079
936.80 0.09075
936.90 0.09071
937.00 0.09068
937.10 0.09064
937.20 0.0906
937.30 0.09056
937.40 0.09053
937.50 0.09049
937.60 0.09045
937.70 0.09041
937.80 0.09038
937.90 0.09034
938.00 0.0903
938.10 0.09027
938.20 0.09023
938.30 0.09019
938.40 0.09015
938.50 0.09012
938.60 0.09008
938.70 0.09004
938.80 0.09
938.90 0.08997
939.00 0.08993
939.10 0.08989
939.20 0.08986
939.30 0.08982
939.40 0.08978
939.50 0.08974
939.60 0.08971
939.70 0.08967
939.80 0.08963
939.90 0.0896
940.00 0.08956
940.10 0.08952
940.20 0.08949
940.30 0.08945
940.40 0.08941
940.50 0.08938
940.60 0.08934
940.70 0.0893
940.80 0.08926
940.90 0.08923
941.00 0.08919
941.10 0.08915
941.20 0.08912
941.30 0.08908
941.40 0.08904
941.50 0.08901
941.60 0.08897
941.70 0.08893
941.80 0.0889
941.90 0.08886
942.00 0.08882
942.10 0.08879
942.20 0.08875
942.30 0.08871
942.40 0.08868
942.50 0.08864
942.60 0.0886
942.70 0.08857
942.80 0.08853
942.90 0.08849
943.00 0.08846
943.10 0.08842
943.20 0.08839
943.30 0.08835
943.40 0.08831
943.50 0.08828
943.60 0.08824
943.70 0.0882
943.80 0.08817
943.90 0.08813
944.00 0.08809
944.10 0.08806
944.20 0.08802
944.30 0.08798
944.40 0.08795
944.50 0.08791
944.60 0.08788
944.70 0.08784
944.80 0.0878
944.90 0.08777
945.00 0.08773
945.10 0.0877
945.20 0.08766
945.30 0.08762
945.40 0.08759
945.50 0.08755
945.60 0.08752
945.70 0.08748
945.80 0.08744
945.90 0.08741
946.00 0.08737
946.10 0.08734
946.20 0.0873
946.30 0.08726
946.40 0.08723
946.50 0.08719
946.60 0.08716
946.70 0.08712
946.80 0.08708
946.90 0.08705
947.00 0.08701
947.10 0.08698
947.20 0.08694
947.30 0.0869
947.40 0.08687
947.50 0.08683
947.60 0.0868
947.70 0.08676
947.80 0.08673
947.90 0.08669
948.00 0.08665
948.10 0.08662
948.20 0.08658
948.30 0.08655
948.40 0.08651
948.50 0.08648
948.60 0.08644
948.70 0.08641
948.80 0.08637
948.90 0.08633
949.00 0.0863
949.10 0.08626
949.20 0.08623
949.30 0.08619
949.40 0.08616
949.50 0.08612
949.60 0.08609
949.70 0.08605
949.80 0.08602
949.90 0.08598
950.00 0.08595
950.10 0.08591
950.20 0.08588
950.30 0.08584
950.40 0.08581
950.50 0.08577
950.60 0.08574
950.70 0.0857
950.80 0.08567
950.90 0.08563
951.00 0.0856
951.10 0.08556
951.20 0.08553
951.30 0.08549
951.40 0.08546
951.50 0.08542
951.60 0.08539
951.70 0.08535
951.80 0.08532
951.90 0.08528
952.00 0.08525
952.10 0.08521
952.20 0.08518
952.30 0.08514
952.40 0.08511
952.50 0.08507
952.60 0.08504
952.70 0.085
952.80 0.08497
952.90 0.08494
953.00 0.0849
953.10 0.08487
953.20 0.08483
953.30 0.0848
953.40 0.08476
953.50 0.08473
953.60 0.0847
953.70 0.08466
953.80 0.08463
953.90 0.08459
954.00 0.08456
954.10 0.08452
954.20 0.08449
954.30 0.08446
954.40 0.08442
954.50 0.08439
954.60 0.08436
954.70 0.08432
954.80 0.08429
954.90 0.08425
955.00 0.08422
955.10 0.08419
955.20 0.08415
955.30 0.08412
955.40 0.08408
955.50 0.08405
955.60 0.08402
955.70 0.08398
955.80 0.08395
955.90 0.08391
956.00 0.08388
956.10 0.08385
956.20 0.08381
956.30 0.08378
956.40 0.08375
956.50 0.08371
956.60 0.08368
956.70 0.08365
956.80 0.08361
956.90 0.08358
957.00 0.08355
957.10 0.08351
957.20 0.08348
957.30 0.08345
957.40 0.08341
957.50 0.08338
957.60 0.08335
957.70 0.08332
957.80 0.08328
957.90 0.08325
958.00 0.08322
958.10 0.08318
958.20 0.08315
958.30 0.08312
958.40 0.08308
958.50 0.08305
958.60 0.08302
958.70 0.08299
958.80 0.08295
958.90 0.08292
959.00 0.08289
959.10 0.08285
959.20 0.08282
959.30 0.08279
959.40 0.08276
959.50 0.08272
959.60 0.08269
959.70 0.08266
959.80 0.08263
959.90 0.08259
960.00 0.08256
960.10 0.08253
960.20 0.08249
960.30 0.08246
960.40 0.08243
960.50 0.0824
960.60 0.08236
960.70 0.08233
960.80 0.0823
960.90 0.08227
961.00 0.08223
961.10 0.0822
961.20 0.08217
961.30 0.08214
961.40 0.0821
961.50 0.08207
961.60 0.08204
961.70 0.08201
961.80 0.08197
961.90 0.08194
962.00 0.08191
962.10 0.08188
962.20 0.08185
962.30 0.08181
962.40 0.08178
962.50 0.08175
962.60 0.08172
962.70 0.08168
962.80 0.08165
962.90 0.08162
963.00 0.08159
963.10 0.08155
963.20 0.08152
963.30 0.08149
963.40 0.08146
963.50 0.08143
963.60 0.08139
963.70 0.08136
963.80 0.08133
963.90 0.0813
964.00 0.08127
964.10 0.08123
964.20 0.0812
964.30 0.08117
964.40 0.08114
964.50 0.08111
964.60 0.08107
964.70 0.08104
964.80 0.08101
964.90 0.08098
965.00 0.08095
965.10 0.08091
965.20 0.08088
965.30 0.08085
965.40 0.08082
965.50 0.08079
965.60 0.08075
965.70 0.08072
965.80 0.08069
965.90 0.08066
966.00 0.08063
966.10 0.08059
966.20 0.08056
966.30 0.08053
966.40 0.0805
966.50 0.08047
966.60 0.08043
966.70 0.0804
966.80 0.08037
966.90 0.08034
967.00 0.08031
967.10 0.08028
967.20 0.08024
967.30 0.08021
967.40 0.08018
967.50 0.08015
967.60 0.08012
967.70 0.08009
967.80 0.08005
967.90 0.08002
968.00 0.07999
968.10 0.07996
968.20 0.07993
968.30 0.0799
968.40 0.07986
968.50 0.07983
968.60 0.0798
968.70 0.07977
968.80 0.07974
968.90 0.07971
969.00 0.07967
969.10 0.07964
969.20 0.07961
969.30 0.07958
969.40 0.07955
969.50 0.07952
969.60 0.07949
969.70 0.07945
969.80 0.07942
969.90 0.07939
970.00 0.07936
970.10 0.07933
970.20 0.0793
970.30 0.07927
970.40 0.07923
970.50 0.0792
970.60 0.07917
970.70 0.07914
970.80 0.07911
970.90 0.07908
971.00 0.07905
971.10 0.07901
971.20 0.07898
971.30 0.07895
971.40 0.07892
971.50 0.07889
971.60 0.07886
971.70 0.07883
971.80 0.07879
971.90 0.07876
972.00 0.07873
972.10 0.0787
972.20 0.07867
972.30 0.07864
972.40 0.07861
972.50 0.07857
972.60 0.07854
972.70 0.07851
972.80 0.07848
972.90 0.07845
973.00 0.07842
973.10 0.07839
973.20 0.07836
973.30 0.07833
973.40 0.07829
973.50 0.07826
973.60 0.07823
973.70 0.0782
973.80 0.07817
973.90 0.07814
974.00 0.07811
974.10 0.07808
974.20 0.07804
974.30 0.07801
974.40 0.07798
974.50 0.07795
974.60 0.07792
974.70 0.07789
974.80 0.07786
974.90 0.07783
975.00 0.0778
975.10 0.07776
975.20 0.07773
975.30 0.0777
975.40 0.07767
975.50 0.07764
975.60 0.07761
975.70 0.07758
975.80 0.07755
975.90 0.07752
976.00 0.07749
976.10 0.07745
976.20 0.07742
976.30 0.07739
976.40 0.07736
976.50 0.07733
976.60 0.0773
976.70 0.07727
976.80 0.07724
976.90 0.07721
977.00 0.07718
977.10 0.07715
977.20 0.07711
977.30 0.07708
977.40 0.07705
977.50 0.07702
977.60 0.07699
977.70 0.07696
977.80 0.07693
977.90 0.0769
978.00 0.07687
978.10 0.07684
978.20 0.07681
978.30 0.07677
978.40 0.07674
978.50 0.07671
978.60 0.07668
978.70 0.07665
978.80 0.07662
978.90 0.07659
979.00 0.07656
979.10 0.07653
979.20 0.0765
979.30 0.07647
979.40 0.07644
979.50 0.0764
979.60 0.07637
979.70 0.07634
979.80 0.07631
979.90 0.07628
980.00 0.07625
980.10 0.07622
980.20 0.07619
980.30 0.07616
980.40 0.07613
980.50 0.0761
980.60 0.07607
980.70 0.07604
980.80 0.07601
980.90 0.07598
981.00 0.07594
981.10 0.07591
981.20 0.07588
981.30 0.07585
981.40 0.07582
981.50 0.07579
981.60 0.07576
981.70 0.07573
981.80 0.0757
981.90 0.07567
982.00 0.07564
982.10 0.07561
982.20 0.07558
982.30 0.07555
982.40 0.07552
982.50 0.07549
982.60 0.07546
982.70 0.07543
982.80 0.07539
982.90 0.07536
983.00 0.07533
983.10 0.0753
983.20 0.07527
983.30 0.07524
983.40 0.07521
983.50 0.07518
983.60 0.07515
983.70 0.07512
983.80 0.07509
983.90 0.07506
984.00 0.07503
984.10 0.075
984.20 0.07497
984.30 0.07494
984.40 0.07491
984.50 0.07488
984.60 0.07485
984.70 0.07482
984.80 0.07479
984.90 0.07476
985.00 0.07472
985.10 0.07469
985.20 0.07466
985.30 0.07463
985.40 0.0746
985.50 0.07457
985.60 0.07454
985.70 0.07451
985.80 0.07448
985.90 0.07445
986.00 0.07442
986.10 0.07439
986.20 0.07436
986.30 0.07433
986.40 0.0743
986.50 0.07427
986.60 0.07424
986.70 0.07421
986.80 0.07418
986.90 0.07415
987.00 0.07412
987.10 0.07409
987.20 0.07406
987.30 0.07403
987.40 0.074
987.50 0.07397
987.60 0.07394
987.70 0.07391
987.80 0.07388
987.90 0.07385
988.00 0.07382
988.10 0.07379
988.20 0.07376
988.30 0.07373
988.40 0.0737
988.50 0.07367
988.60 0.07364
988.70 0.07361
988.80 0.07358
988.90 0.07355
989.00 0.07352
989.10 0.07349
989.20 0.07345
989.30 0.07342
989.40 0.07339
989.50 0.07336
989.60 0.07333
989.70 0.0733
989.80 0.07327
989.90 0.07324
990.00 0.07321
990.10 0.07318
990.20 0.07315
990.30 0.07312
990.40 0.07309
990.50 0.07306
990.60 0.07303
990.70 0.073
990.80 0.07297
990.90 0.07294
991.00 0.07291
991.10 0.07288
991.20 0.07285
991.30 0.07282
991.40 0.07279
991.50 0.07276
991.60 0.07273
991.70 0.0727
991.80 0.07267
991.90 0.07264
992.00 0.07261
992.10 0.07258
992.20 0.07255
992.30 0.07252
992.40 0.07249
992.50 0.07246
992.60 0.07244
992.70 0.07241
992.80 0.07238
992.90 0.07235
993.00 0.07232
993.10 0.07229
993.20 0.07226
993.30 0.07223
993.40 0.0722
993.50 0.07217
993.60 0.07214
993.70 0.07211
993.80 0.07208
993.90 0.07205
994.00 0.07202
994.10 0.07199
994.20 0.07196
994.30 0.07193
994.40 0.0719
994.50 0.07187
994.60 0.07184
994.70 0.07181
994.80 0.07178
994.90 0.07175
995.00 0.07172
995.10 0.07169
995.20 0.07166
995.30 0.07163
995.40 0.0716
995.50 0.07157
995.60 0.07154
995.70 0.07151
995.80 0.07148
995.90 0.07146
996.00 0.07143
996.10 0.0714
996.20 0.07137
996.30 0.07134
996.40 0.07131
996.50 0.07128
996.60 0.07125
996.70 0.07122
996.80 0.07119
996.90 0.07116
997.00 0.07113
997.10 0.0711
997.20 0.07107
997.30 0.07104
997.40 0.07102
997.50 0.07099
997.60 0.07096
997.70 0.07093
997.80 0.0709
997.90 0.07087
998.00 0.07084
998.10 0.07081
998.20 0.07078
998.30 0.07075
998.40 0.07072
998.50 0.0707
998.60 0.07067
998.70 0.07064
998.80 0.07061
998.90 0.07058
999.00 0.07055
999.10 0.07052
999.20 0.07049
999.30 0.07046
999.40 0.07044
999.50 0.07041
999.60 0.07038
999.70 0.07035
999.80 0.07032
999.90 0.07029
1000.00 0.07026
1000.10 0.07023
1000.20 0.0702
1000.30 0.07017
1000.40 0.07014
1000.50 0.07011
1000.60 0.07008
1000.70 0.07005
1000.80 0.07003
1000.90 0.07
1001.00 0.06997
1001.10 0.06994
1001.20 0.06991
1001.30 0.06988
1001.40 0.06985
1001.50 0.06982
1001.60 0.06979
1001.70 0.06976
1001.80 0.06974
1001.90 0.06971
1002.00 0.06968
1002.10 0.06965
1002.20 0.06963
1002.30 0.0696
1002.40 0.06957
1002.50 0.06955
1002.60 0.06952
1002.70 0.06949
1002.80 0.06947
1002.90 0.06944
1003.00 0.06941
1003.10 0.06938
1003.20 0.06936
1003.30 0.06933
1003.40 0.06931
1003.50 0.06928
1003.60 0.06925
1003.70 0.06923
1003.80 0.0692
1003.90 0.06918
1004.00 0.06915
1004.10 0.06913
1004.20 0.0691
1004.30 0.06908
1004.40 0.06905
1004.50 0.06903
1004.60 0.069
1004.70 0.06897
1004.80 0.06895
1004.90 0.06892
1005.00 0.0689
1005.10 0.06887
1005.20 0.06884
1005.30 0.06882
1005.40 0.06879
1005.50 0.06876
1005.60 0.06873
1005.70 0.06871
1005.80 0.06868
1005.90 0.06865
1006.00 0.06863
1006.10 0.0686
1006.20 0.06857
1006.30 0.06855
1006.40 0.06852
1006.50 0.06849
1006.60 0.06847
1006.70 0.06844
1006.80 0.06842
1006.90 0.06839
1007.00 0.06836
1007.10 0.06834
1007.20 0.06831
1007.30 0.06829
1007.40 0.06826
1007.50 0.06824
1007.60 0.06821
1007.70 0.06819
1007.80 0.06816
1007.90 0.06814
1008.00 0.06811
1008.10 0.06809
1008.20 0.06806
1008.30 0.06804
1008.40 0.06801
1008.50 0.06799
1008.60 0.06796
1008.70 0.06794
1008.80 0.06791
1008.90 0.06789
1009.00 0.06786
1009.10 0.06784
1009.20 0.06782
1009.30 0.06779
1009.40 0.06777
1009.50 0.06774
1009.60 0.06772
1009.70 0.06769
1009.80 0.06767
1009.90 0.06765
1010.00 0.06762
1010.10 0.0676
1010.20 0.06757
1010.30 0.06755
1010.40 0.06753
1010.50 0.0675
1010.60 0.06748
1010.70 0.06745
1010.80 0.06743
1010.90 0.06741
1011.00 0.06738
1011.10 0.06736
1011.20 0.06733
1011.30 0.06731
1011.40 0.06729
1011.50 0.06726
1011.60 0.06724
1011.70 0.06722
1011.80 0.06719
1011.90 0.06717
1012.00 0.06715
1012.10 0.06712
1012.20 0.0671
1012.30 0.06707
1012.40 0.06705
1012.50 0.06703
1012.60 0.067
1012.70 0.06698
1012.80 0.06696
1012.90 0.06693
1013.00 0.06691
1013.10 0.06689
1013.20 0.06686
1013.30 0.06684
1013.40 0.06682
1013.50 0.06679
1013.60 0.06677
1013.70 0.06675
1013.80 0.06672
1013.90 0.0667
1014.00 0.06668
1014.10 0.06665
1014.20 0.06663
1014.30 0.06661
1014.40 0.06658
1014.50 0.06656
1014.60 0.06654
1014.70 0.06651
1014.80 0.06649
1014.90 0.06647
1015.00 0.06644
1015.10 0.06642
1015.20 0.0664
1015.30 0.06637
1015.40 0.06635
1015.50 0.06633
1015.60 0.0663
1015.70 0.06628
1015.80 0.06626
1015.90 0.06623
1016.00 0.06621
1016.10 0.06619
1016.20 0.06616
1016.30 0.06614
1016.40 0.06612
1016.50 0.0661
1016.60 0.06607
1016.70 0.06605
1016.80 0.06603
1016.90 0.066
1017.00 0.06598
1017.10 0.06596
1017.20 0.06593
1017.30 0.06591
1017.40 0.06589
1017.50 0.06586
1017.60 0.06584
1017.70 0.06582
1017.80 0.06579
1017.90 0.06577
1018.00 0.06575
1018.10 0.06573
1018.20 0.0657
1018.30 0.06568
1018.40 0.06566
1018.50 0.06563
1018.60 0.06561
1018.70 0.06559
1018.80 0.06556
1018.90 0.06554
1019.00 0.06552
1019.10 0.06549
1019.20 0.06547
1019.30 0.06545
1019.40 0.06542
1019.50 0.0654
1019.60 0.06538
1019.70 0.06536
1019.80 0.06533
1019.90 0.06531
1020.00 0.06529
1020.10 0.06526
1020.20 0.06524
1020.30 0.06522
1020.40 0.06519
1020.50 0.06517
1020.60 0.06515
1020.70 0.06513
1020.80 0.0651
1020.90 0.06508
1021.00 0.06506
1021.10 0.06503
1021.20 0.06501
1021.30 0.06499
1021.40 0.06496
1021.50 0.06494
1021.60 0.06492
1021.70 0.0649
1021.80 0.06487
1021.90 0.06485
1022.00 0.06483
1022.10 0.0648
1022.20 0.06478
1022.30 0.06476
1022.40 0.06473
1022.50 0.06471
1022.60 0.06469
1022.70 0.06466
1022.80 0.06464
1022.90 0.06462
1023.00 0.0646
1023.10 0.06457
1023.20 0.06455
1023.30 0.06453
1023.40 0.0645
1023.50 0.06448
1023.60 0.06446
1023.70 0.06443
1023.80 0.06441
1023.90 0.06439
1024.00 0.06437
1024.10 0.06434
1024.20 0.06432
1024.30 0.0643
1024.40 0.06427
1024.50 0.06425
1024.60 0.06423
1024.70 0.06421
1024.80 0.06418
1024.90 0.06416
1025.00 0.06414
1025.10 0.06411
1025.20 0.06409
1025.30 0.06407
1025.40 0.06404
1025.50 0.06402
1025.60 0.064
1025.70 0.06398
1025.80 0.06395
1025.90 0.06393
1026.00 0.06391
1026.10 0.06388
1026.20 0.06386
1026.30 0.06384
1026.40 0.06382
1026.50 0.06379
1026.60 0.06377
1026.70 0.06375
1026.80 0.06372
1026.90 0.0637
1027.00 0.06368
1027.10 0.06365
1027.20 0.06363
1027.30 0.06361
1027.40 0.06359
1027.50 0.06356
1027.60 0.06354
1027.70 0.06352
1027.80 0.06349
1027.90 0.06347
1028.00 0.06345
1028.10 0.06342
1028.20 0.0634
1028.30 0.06338
1028.40 0.06336
1028.50 0.06333
1028.60 0.06331
1028.70 0.06329
1028.80 0.06326
1028.90 0.06324
1029.00 0.06322
1029.10 0.0632
1029.20 0.06317
1029.30 0.06315
1029.40 0.06313
1029.50 0.0631
1029.60 0.06308
1029.70 0.06306
1029.80 0.06304
1029.90 0.06301
1030.00 0.06299
1030.10 0.06297
1030.20 0.06294
1030.30 0.06292
1030.40 0.0629
1030.50 0.06288
1030.60 0.06285
1030.70 0.06283
1030.80 0.06281
1030.90 0.06279
1031.00 0.06276
1031.10 0.06274
1031.20 0.06272
1031.30 0.06269
1031.40 0.06267
1031.50 0.06265
1031.60 0.06263
1031.70 0.0626
1031.80 0.06258
1031.90 0.06256
1032.00 0.06254
1032.10 0.06251
1032.20 0.06249
1032.30 0.06247
1032.40 0.06244
1032.50 0.06242
1032.60 0.0624
1032.70 0.06238
1032.80 0.06235
1032.90 0.06233
1033.00 0.06231
1033.10 0.06228
1033.20 0.06226
1033.30 0.06224
1033.40 0.06222
1033.50 0.06219
1033.60 0.06217
1033.70 0.06215
1033.80 0.06212
1033.90 0.0621
1034.00 0.06208
1034.10 0.06206
1034.20 0.06203
1034.30 0.06201
1034.40 0.06199
1034.50 0.06197
1034.60 0.06194
1034.70 0.06192
1034.80 0.0619
1034.90 0.06187
1035.00 0.06185
1035.10 0.06183
1035.20 0.06181
1035.30 0.06178
1035.40 0.06176
1035.50 0.06174
1035.60 0.06172
1035.70 0.06169
1035.80 0.06167
1035.90 0.06165
1036.00 0.06163
1036.10 0.0616
1036.20 0.06158
1036.30 0.06156
1036.40 0.06154
1036.50 0.06151
1036.60 0.06149
1036.70 0.06147
1036.80 0.06145
1036.90 0.06142
1037.00 0.0614
1037.10 0.06138
1037.20 0.06136
1037.30 0.06133
1037.40 0.06131
1037.50 0.06129
1037.60 0.06126
1037.70 0.06124
1037.80 0.06122
1037.90 0.0612
1038.00 0.06117
1038.10 0.06115
1038.20 0.06113
1038.30 0.06111
1038.40 0.06108
1038.50 0.06106
1038.60 0.06104
1038.70 0.06102
1038.80 0.06099
1038.90 0.06097
1039.00 0.06095
1039.10 0.06093
1039.20 0.0609
1039.30 0.06088
1039.40 0.06086
1039.50 0.06084
1039.60 0.06081
1039.70 0.06079
1039.80 0.06077
1039.90 0.06074
1040.00 0.06072
1040.10 0.0607
1040.20 0.06068
1040.30 0.06066
1040.40 0.06063
1040.50 0.06061
1040.60 0.06059
1040.70 0.06057
1040.80 0.06054
1040.90 0.06052
1041.00 0.0605
1041.10 0.06048
1041.20 0.06045
1041.30 0.06043
1041.40 0.06041
1041.50 0.06039
1041.60 0.06036
1041.70 0.06034
1041.80 0.06032
1041.90 0.0603
1042.00 0.06027
1042.10 0.06025
1042.20 0.06023
1042.30 0.06021
1042.40 0.06018
1042.50 0.06016
1042.60 0.06014
1042.70 0.06012
1042.80 0.06009
1042.90 0.06007
1043.00 0.06005
1043.10 0.06003
1043.20 0.06
1043.30 0.05998
1043.40 0.05996
1043.50 0.05994
1043.60 0.05992
1043.70 0.05989
1043.80 0.05987
1043.90 0.05985
1044.00 0.05983
1044.10 0.0598
1044.20 0.05978
1044.30 0.05976
1044.40 0.05974
1044.50 0.05971
1044.60 0.05969
1044.70 0.05967
1044.80 0.05965
1044.90 0.05962
1045.00 0.0596
1045.10 0.05958
1045.20 0.05956
1045.30 0.05954
1045.40 0.05951
1045.50 0.05949
1045.60 0.05947
1045.70 0.05945
1045.80 0.05942
1045.90 0.0594
1046.00 0.05938
1046.10 0.05936
1046.20 0.05934
1046.30 0.05931
1046.40 0.05929
1046.50 0.05927
1046.60 0.05925
1046.70 0.05922
1046.80 0.0592
1046.90 0.05918
1047.00 0.05916
1047.10 0.05914
1047.20 0.05911
1047.30 0.05909
1047.40 0.05907
1047.50 0.05905
1047.60 0.05902
1047.70 0.059
1047.80 0.05898
1047.90 0.05896
1048.00 0.05894
1048.10 0.05891
1048.20 0.05889
1048.30 0.05887
1048.40 0.05885
1048.50 0.05882
1048.60 0.0588
1048.70 0.05878
1048.80 0.05876
1048.90 0.05874
1049.00 0.05871
1049.10 0.05869
1049.20 0.05867
1049.30 0.05865
1049.40 0.05862
1049.50 0.0586
1049.60 0.05858
1049.70 0.05856
1049.80 0.05854
1049.90 0.05851
1050.00 0.05849
1050.10 0.05847
1050.20 0.05845
1050.30 0.05843
1050.40 0.0584
1050.50 0.05838
1050.60 0.05836
1050.70 0.05834
1050.80 0.05831
1050.90 0.05829
1051.00 0.05827
1051.10 0.05825
1051.20 0.05823
1051.30 0.0582
1051.40 0.05818
1051.50 0.05816
1051.60 0.05814
1051.70 0.05812
1051.80 0.05809
1051.90 0.05807
1052.00 0.05805
1052.10 0.05803
1052.20 0.05801
1052.30 0.05798
1052.40 0.05796
1052.50 0.05794
1052.60 0.05792
1052.70 0.0579
1052.80 0.05787
1052.90 0.05785
1053.00 0.05783
1053.10 0.05781
1053.20 0.05778
1053.30 0.05776
1053.40 0.05774
1053.50 0.05772
1053.60 0.0577
1053.70 0.05767
1053.80 0.05765
1053.90 0.05763
1054.00 0.05761
1054.10 0.05759
1054.20 0.05756
1054.30 0.05754
1054.40 0.05752
1054.50 0.0575
1054.60 0.05748
1054.70 0.05745
1054.80 0.05743
1054.90 0.05741
1055.00 0.05739
1055.10 0.05737
1055.20 0.05734
1055.30 0.05732
1055.40 0.0573
1055.50 0.05728
1055.60 0.05726
1055.70 0.05723
1055.80 0.05721
1055.90 0.05719
1056.00 0.05717
1056.10 0.05715
1056.20 0.05713
1056.30 0.0571
1056.40 0.05708
1056.50 0.05706
1056.60 0.05704
1056.70 0.05702
1056.80 0.05699
1056.90 0.05697
1057.00 0.05695
1057.10 0.05693
1057.20 0.05691
1057.30 0.05688
1057.40 0.05686
1057.50 0.05684
1057.60 0.05682
1057.70 0.0568
1057.80 0.05677
1057.90 0.05675
1058.00 0.05673
1058.10 0.05671
1058.20 0.05669
1058.30 0.05666
1058.40 0.05664
1058.50 0.05662
1058.60 0.0566
1058.70 0.05658
1058.80 0.05655
1058.90 0.05653
1059.00 0.05651
1059.10 0.05649
1059.20 0.05647
1059.30 0.05644
1059.40 0.05642
1059.50 0.0564
1059.60 0.05638
1059.70 0.05636
1059.80 0.05633
1059.90 0.05631
1060.00 0.05629
1060.10 0.05627
1060.20 0.05625
1060.30 0.05623
1060.40 0.0562
1060.50 0.05618
1060.60 0.05616
1060.70 0.05614
1060.80 0.05612
1060.90 0.05609
1061.00 0.05607
1061.10 0.05605
1061.20 0.05603
1061.30 0.05601
1061.40 0.05599
1061.50 0.05596
1061.60 0.05594
1061.70 0.05592
1061.80 0.0559
1061.90 0.05588
1062.00 0.05585
1062.10 0.05583
1062.20 0.05581
1062.30 0.05579
1062.40 0.05577
1062.50 0.05574
1062.60 0.05572
1062.70 0.0557
1062.80 0.05568
1062.90 0.05566
1063.00 0.05563
1063.10 0.05561
1063.20 0.05559
1063.30 0.05557
1063.40 0.05555
1063.50 0.05552
1063.60 0.0555
1063.70 0.05548
1063.80 0.05546
1063.90 0.05544
1064.00 0.05541
1064.10 0.05539
1064.20 0.05537
1064.30 0.05535
1064.40 0.05533
1064.50 0.0553
1064.60 0.05528
1064.70 0.05526
1064.80 0.05524
1064.90 0.05522
1065.00 0.05519
1065.10 0.05517
1065.20 0.05515
1065.30 0.05513
1065.40 0.05511
1065.50 0.05509
1065.60 0.05506
1065.70 0.05504
1065.80 0.05502
1065.90 0.055
1066.00 0.05498
1066.10 0.05495
1066.20 0.05493
1066.30 0.05491
1066.40 0.05489
1066.50 0.05487
1066.60 0.05485
1066.70 0.05482
1066.80 0.0548
1066.90 0.05478
1067.00 0.05476
1067.10 0.05474
1067.20 0.05471
1067.30 0.05469
1067.40 0.05467
1067.50 0.05465
1067.60 0.05463
1067.70 0.0546
1067.80 0.05458
1067.90 0.05456
1068.00 0.05454
1068.10 0.05452
1068.20 0.05449
1068.30 0.05447
1068.40 0.05445
1068.50 0.05443
1068.60 0.0544
1068.70 0.05438
1068.80 0.05436
1068.90 0.05434
1069.00 0.05432
1069.10 0.05429
1069.20 0.05427
1069.30 0.05425
1069.40 0.05423
1069.50 0.05421
1069.60 0.05418
1069.70 0.05416
1069.80 0.05414
1069.90 0.05412
1070.00 0.0541
1070.10 0.05407
1070.20 0.05405
1070.30 0.05403
1070.40 0.05401
1070.50 0.05399
1070.60 0.05397
1070.70 0.05394
1070.80 0.05392
1070.90 0.0539
1071.00 0.05388
1071.10 0.05386
1071.20 0.05383
1071.30 0.05381
1071.40 0.05379
1071.50 0.05377
1071.60 0.05375
1071.70 0.05372
1071.80 0.0537
1071.90 0.05368
1072.00 0.05366
1072.10 0.05364
1072.20 0.05361
1072.30 0.05359
1072.40 0.05357
1072.50 0.05355
1072.60 0.05353
1072.70 0.0535
1072.80 0.05348
1072.90 0.05346
1073.00 0.05344
1073.10 0.05342
1073.20 0.05339
1073.30 0.05337
1073.40 0.05335
1073.50 0.05333
1073.60 0.05331
1073.70 0.05328
1073.80 0.05326
1073.90 0.05324
1074.00 0.05322
1074.10 0.05319
1074.20 0.05317
1074.30 0.05315
1074.40 0.05313
1074.50 0.0531
1074.60 0.05308
1074.70 0.05306
1074.80 0.05304
1074.90 0.05302
1075.00 0.05299
1075.10 0.05297
1075.20 0.05295
1075.30 0.05293
1075.40 0.0529
1075.50 0.05288
1075.60 0.05286
1075.70 0.05284
1075.80 0.05282
1075.90 0.05279
1076.00 0.05277
1076.10 0.05275
1076.20 0.05273
1076.30 0.0527
1076.40 0.05268
1076.50 0.05266
1076.60 0.05264
1076.70 0.05262
1076.80 0.05259
1076.90 0.05257
1077.00 0.05255
1077.10 0.05253
1077.20 0.05251
1077.30 0.05248
1077.40 0.05246
1077.50 0.05244
1077.60 0.05242
1077.70 0.05239
1077.80 0.05237
1077.90 0.05235
1078.00 0.05233
1078.10 0.0523
1078.20 0.05228
1078.30 0.05226
1078.40 0.05224
1078.50 0.05221
1078.60 0.05219
1078.70 0.05217
1078.80 0.05215
1078.90 0.05212
1079.00 0.0521
1079.10 0.05208
1079.20 0.05206
1079.30 0.05204
1079.40 0.05201
1079.50 0.05199
1079.60 0.05197
1079.70 0.05195
1079.80 0.05192
1079.90 0.0519
1080.00 0.05188
1080.10 0.05186
1080.20 0.05183
1080.30 0.05181
1080.40 0.05179
1080.50 0.05177
1080.60 0.05174
1080.70 0.05172
1080.80 0.0517
1080.90 0.05168
1081.00 0.05165
1081.10 0.05163
1081.20 0.05161
1081.30 0.05159
1081.40 0.05156
1081.50 0.05154
1081.60 0.05152
1081.70 0.0515
1081.80 0.05147
1081.90 0.05145
1082.00 0.05143
1082.10 0.05141
1082.20 0.05138
1082.30 0.05136
1082.40 0.05134
1082.50 0.05131
1082.60 0.05129
1082.70 0.05127
1082.80 0.05125
1082.90 0.05122
1083.00 0.0512
1083.10 0.05118
1083.20 0.05116
1083.30 0.05113
1083.40 0.05111
1083.50 0.05109
1083.60 0.05107
1083.70 0.05104
1083.80 0.05102
1083.90 0.051
1084.00 0.05098
1084.10 0.05095
1084.20 0.05093
1084.30 0.05091
1084.40 0.05089
1084.50 0.05086
1084.60 0.05084
1084.70 0.05082
1084.80 0.05079
1084.90 0.05077
1085.00 0.05075
1085.10 0.05073
1085.20 0.0507
1085.30 0.05068
1085.40 0.05066
1085.50 0.05063
1085.60 0.05061
1085.70 0.05059
1085.80 0.05057
1085.90 0.05054
1086.00 0.05052
1086.10 0.0505
1086.20 0.05048
1086.30 0.05045
1086.40 0.05043
1086.50 0.05041
1086.60 0.05038
1086.70 0.05036
1086.80 0.05034
1086.90 0.05032
1087.00 0.05029
1087.10 0.05027
1087.20 0.05025
1087.30 0.05022
1087.40 0.0502
1087.50 0.05018
1087.60 0.05015
1087.70 0.05013
1087.80 0.05011
1087.90 0.05009
1088.00 0.05006
1088.10 0.05004
1088.20 0.05002
1088.30 0.04999
1088.40 0.04997
1088.50 0.04995
1088.60 0.04992
1088.70 0.0499
1088.80 0.04988
1088.90 0.04985
1089.00 0.04983
1089.10 0.04981
1089.20 0.04978
1089.30 0.04976
1089.40 0.04974
1089.50 0.04971
1089.60 0.04969
1089.70 0.04967
1089.80 0.04964
1089.90 0.04962
1090.00 0.0496
1090.10 0.04957
1090.20 0.04955
1090.30 0.04953
1090.40 0.0495
1090.50 0.04948
1090.60 0.04946
1090.70 0.04943
1090.80 0.04941
1090.90 0.04938
1091.00 0.04936
1091.10 0.04934
1091.20 0.04931
1091.30 0.04929
1091.40 0.04926
1091.50 0.04924
1091.60 0.04922
1091.70 0.04919
1091.80 0.04917
1091.90 0.04914
1092.00 0.04912
1092.10 0.0491
1092.20 0.04907
1092.30 0.04905
1092.40 0.04902
1092.50 0.049
1092.60 0.04897
1092.70 0.04895
1092.80 0.04892
1092.90 0.0489
1093.00 0.04888
1093.10 0.04885
1093.20 0.04883
1093.30 0.0488
1093.40 0.04878
1093.50 0.04876
1093.60 0.04874
1093.70 0.04872
1093.80 0.04871
1093.90 0.0487
1094.00 0.04869
1094.10 0.04868
1094.20 0.04868
1094.30 0.04867
1094.40 0.04866
1094.50 0.04865
1094.60 0.04864
1094.70 0.04863
1094.80 0.04862
1094.90 0.04861
1095.00 0.0486
1095.10 0.04859
1095.20 0.04858
1095.30 0.04857
1095.40 0.04856
1095.50 0.04855
1095.60 0.04854
1095.70 0.04853
1095.80 0.04852
1095.90 0.04851
1096.00 0.0485
1096.10 0.04849
1096.20 0.04848
1096.30 0.04847
1096.40 0.04846
1096.50 0.04845
1096.60 0.04844
1096.70 0.04843
1096.80 0.04842
1096.90 0.04841
1097.00 0.0484
1097.10 0.04839
1097.20 0.04838
1097.30 0.04837
1097.40 0.04835
1097.50 0.04834
1097.60 0.04833
1097.70 0.04832
1097.80 0.04831
1097.90 0.0483
1098.00 0.04829
1098.10 0.04828
1098.20 0.04827
1098.30 0.04826
1098.40 0.04824
1098.50 0.04823
1098.60 0.04822
1098.70 0.04821
1098.80 0.0482
1098.90 0.04819
1099.00 0.04818
1099.10 0.04816
1099.20 0.04815
1099.30 0.04814
1099.40 0.04813
1099.50 0.04812
1099.60 0.04811
1099.70 0.04809
1099.80 0.04808
1099.90 0.04807
1100.00 0.04806
1100.10 0.04805
1100.20 0.04804
1100.30 0.04802
1100.40 0.04801
1100.50 0.048
1100.60 0.04799
1100.70 0.04798
1100.80 0.04797
1100.90 0.04795
1101.00 0.04794
1101.10 0.04793
1101.20 0.04792
1101.30 0.04791
1101.40 0.04789
1101.50 0.04788
1101.60 0.04787
1101.70 0.04786
1101.80 0.04785
1101.90 0.04783
1102.00 0.04782
1102.10 0.04781
1102.20 0.0478
1102.30 0.04779
1102.40 0.04777
1102.50 0.04776
1102.60 0.04775
1102.70 0.04774
1102.80 0.04772
1102.90 0.04771
1103.00 0.0477
1103.10 0.04769
1103.20 0.04768
1103.30 0.04766
1103.40 0.04765
1103.50 0.04764
1103.60 0.04763
1103.70 0.04761
1103.80 0.0476
1103.90 0.04759
1104.00 0.04758
1104.10 0.04756
1104.20 0.04755
1104.30 0.04754
1104.40 0.04753
1104.50 0.04751
1104.60 0.0475
1104.70 0.04749
1104.80 0.04748
1104.90 0.04746
1105.00 0.04745
1105.10 0.04744
1105.20 0.04743
1105.30 0.04741
1105.40 0.0474
1105.50 0.04739
1105.60 0.04738
1105.70 0.04736
1105.80 0.04735
1105.90 0.04734
1106.00 0.04732
1106.10 0.04731
1106.20 0.0473
1106.30 0.04729
1106.40 0.04727
1106.50 0.04726
1106.60 0.04725
1106.70 0.04724
1106.80 0.04722
1106.90 0.04721
1107.00 0.0472
1107.10 0.04719
1107.20 0.04717
1107.30 0.04716
1107.40 0.04715
1107.50 0.04713
1107.60 0.04712
1107.70 0.04711
1107.80 0.04709
1107.90 0.04708
1108.00 0.04707
1108.10 0.04706
1108.20 0.04704
1108.30 0.04703
1108.40 0.04702
1108.50 0.047
1108.60 0.04699
1108.70 0.04698
1108.80 0.04696
1108.90 0.04695
1109.00 0.04694
1109.10 0.04693
1109.20 0.04691
1109.30 0.0469
1109.40 0.04689
1109.50 0.04687
1109.60 0.04686
1109.70 0.04685
1109.80 0.04683
1109.90 0.04682
1110.00 0.04681
1110.10 0.04679
1110.20 0.04678
1110.30 0.04677
1110.40 0.04675
1110.50 0.04674
1110.60 0.04673
1110.70 0.04671
1110.80 0.0467
1110.90 0.04669
1111.00 0.04668
1111.10 0.04666
1111.20 0.04665
1111.30 0.04664
1111.40 0.04662
1111.50 0.04661
1111.60 0.0466
1111.70 0.04658
1111.80 0.04657
1111.90 0.04656
1112.00 0.04654
1112.10 0.04653
1112.20 0.04652
1112.30 0.0465
1112.40 0.04649
1112.50 0.04648
1112.60 0.04646
1112.70 0.04645
1112.80 0.04644
1112.90 0.04642
1113.00 0.04641
1113.10 0.0464
1113.20 0.04638
1113.30 0.04637
1113.40 0.04635
1113.50 0.04634
1113.60 0.04633
1113.70 0.04631
1113.80 0.0463
1113.90 0.04629
1114.00 0.04627
1114.10 0.04626
1114.20 0.04625
1114.30 0.04623
1114.40 0.04622
1114.50 0.0462
1114.60 0.04619
1114.70 0.04618
1114.80 0.04616
1114.90 0.04615
1115.00 0.04614
1115.10 0.04612
1115.20 0.04611
1115.30 0.04609
1115.40 0.04608
1115.50 0.04607
1115.60 0.04605
1115.70 0.04604
1115.80 0.04603
1115.90 0.04601
1116.00 0.046
1116.10 0.04599
1116.20 0.04597
1116.30 0.04596
1116.40 0.04594
1116.50 0.04593
1116.60 0.04592
1116.70 0.0459
1116.80 0.04589
1116.90 0.04588
1117.00 0.04586
1117.10 0.04585
1117.20 0.04584
1117.30 0.04582
1117.40 0.04581
1117.50 0.04579
1117.60 0.04578
1117.70 0.04576
1117.80 0.04575
1117.90 0.04574
1118.00 0.04572
1118.10 0.04571
1118.20 0.04569
1118.30 0.04568
1118.40 0.04567
1118.50 0.04565
1118.60 0.04564
1118.70 0.04562
1118.80 0.04561
1118.90 0.0456
1119.00 0.04558
1119.10 0.04557
1119.20 0.04555
1119.30 0.04554
1119.40 0.04553
1119.50 0.04551
1119.60 0.0455
1119.70 0.04548
1119.80 0.04547
1119.90 0.04546
1120.00 0.04544
1120.10 0.04543
1120.20 0.04542
1120.30 0.0454
1120.40 0.04539
1120.50 0.04537
1120.60 0.04536
1120.70 0.04535
1120.80 0.04533
1120.90 0.04532
1121.00 0.0453
1121.10 0.04529
1121.20 0.04528
1121.30 0.04526
1121.40 0.04525
1121.50 0.04523
1121.60 0.04522
1121.70 0.04521
1121.80 0.04519
1121.90 0.04518
1122.00 0.04517
1122.10 0.04515
1122.20 0.04514
1122.30 0.04512
1122.40 0.04511
1122.50 0.04509
1122.60 0.04508
1122.70 0.04507
1122.80 0.04505
1122.90 0.04504
1123.00 0.04502
1123.10 0.04501
1123.20 0.04499
1123.30 0.04498
1123.40 0.04497
1123.50 0.04495
1123.60 0.04494
1123.70 0.04492
1123.80 0.04491
1123.90 0.04489
1124.00 0.04488
1124.10 0.04487
1124.20 0.04485
1124.30 0.04484
1124.40 0.04482
1124.50 0.04481
1124.60 0.0448
1124.70 0.04478
1124.80 0.04477
1124.90 0.04475
1125.00 0.04474
1125.10 0.04472
1125.20 0.04471
1125.30 0.0447
1125.40 0.04468
1125.50 0.04467
1125.60 0.04465
1125.70 0.04464
1125.80 0.04463
1125.90 0.04461
1126.00 0.0446
1126.10 0.04458
1126.20 0.04457
1126.30 0.04456
1126.40 0.04454
1126.50 0.04453
1126.60 0.04451
1126.70 0.0445
1126.80 0.04448
1126.90 0.04447
1127.00 0.04446
1127.10 0.04444
1127.20 0.04443
1127.30 0.04441
1127.40 0.0444
1127.50 0.04438
1127.60 0.04437
1127.70 0.04436
1127.80 0.04434
1127.90 0.04433
1128.00 0.04431
1128.10 0.0443
1128.20 0.04428
1128.30 0.04427
1128.40 0.04426
1128.50 0.04424
1128.60 0.04423
1128.70 0.04421
1128.80 0.0442
1128.90 0.04418
1129.00 0.04417
1129.10 0.04416
1129.20 0.04414
1129.30 0.04413
1129.40 0.04411
1129.50 0.0441
1129.60 0.04409
1129.70 0.04407
1129.80 0.04406
1129.90 0.04404
1130.00 0.04403
1130.10 0.04401
1130.20 0.044
1130.30 0.04399
1130.40 0.04397
1130.50 0.04396
1130.60 0.04394
1130.70 0.04393
1130.80 0.04391
1130.90 0.0439
1131.00 0.04389
1131.10 0.04387
1131.20 0.04386
1131.30 0.04384
1131.40 0.04383
1131.50 0.04382
1131.60 0.0438
1131.70 0.04379
1131.80 0.04377
1131.90 0.04376
1132.00 0.04375
1132.10 0.04373
1132.20 0.04372
1132.30 0.0437
1132.40 0.04369
1132.50 0.04367
1132.60 0.04366
1132.70 0.04364
1132.80 0.04363
1132.90 0.04362
1133.00 0.0436
1133.10 0.04359
1133.20 0.04357
1133.30 0.04356
1133.40 0.04355
1133.50 0.04353
1133.60 0.04352
1133.70 0.0435
1133.80 0.04349
1133.90 0.04347
1134.00 0.04346
1134.10 0.04345
1134.20 0.04343
1134.30 0.04342
1134.40 0.0434
1134.50 0.04339
1134.60 0.04337
1134.70 0.04336
1134.80 0.04335
1134.90 0.04333
1135.00 0.04332
1135.10 0.0433
1135.20 0.04329
1135.30 0.04328
1135.40 0.04326
1135.50 0.04325
1135.60 0.04323
1135.70 0.04322
1135.80 0.0432
1135.90 0.04319
1136.00 0.04318
1136.10 0.04316
1136.20 0.04315
1136.30 0.04313
1136.40 0.04312
1136.50 0.04311
1136.60 0.04309
1136.70 0.04308
1136.80 0.04306
1136.90 0.04305
1137.00 0.04303
1137.10 0.04302
1137.20 0.04301
1137.30 0.04299
1137.40 0.04298
1137.50 0.04296
1137.60 0.04295
1137.70 0.04294
1137.80 0.04292
1137.90 0.04291
1138.00 0.04289
1138.10 0.04288
1138.20 0.04286
1138.30 0.04285
1138.40 0.04284
1138.50 0.04282
1138.60 0.04281
1138.70 0.04279
1138.80 0.04278
1138.90 0.04277
1139.00 0.04275
1139.10 0.04274
1139.20 0.04272
1139.30 0.04271
1139.40 0.04269
1139.50 0.04268
1139.60 0.04267
1139.70 0.04265
1139.80 0.04264
1139.90 0.04262
1140.00 0.04261
1140.10 0.0426
1140.20 0.04258
1140.30 0.04257
1140.40 0.04255
1140.50 0.04254
1140.60 0.04253
1140.70 0.04251
1140.80 0.0425
1140.90 0.04248
1141.00 0.04247
1141.10 0.04246
1141.20 0.04244
1141.30 0.04243
1141.40 0.04241
1141.50 0.0424
1141.60 0.04239
1141.70 0.04237
1141.80 0.04236
1141.90 0.04234
1142.00 0.04233
1142.10 0.04232
1142.20 0.0423
1142.30 0.04229
1142.40 0.04227
1142.50 0.04226
1142.60 0.04225
1142.70 0.04223
1142.80 0.04222
1142.90 0.0422
1143.00 0.04219
1143.10 0.04217
1143.20 0.04216
1143.30 0.04215
1143.40 0.04213
1143.50 0.04212
1143.60 0.0421
1143.70 0.04209
1143.80 0.04208
1143.90 0.04206
1144.00 0.04205
1144.10 0.04204
1144.20 0.04202
1144.30 0.04201
1144.40 0.04199
1144.50 0.04198
1144.60 0.04197
1144.70 0.04195
1144.80 0.04194
1144.90 0.04192
1145.00 0.04191
1145.10 0.0419
1145.20 0.04188
1145.30 0.04187
1145.40 0.04185
1145.50 0.04184
1145.60 0.04183
1145.70 0.04181
1145.80 0.0418
1145.90 0.04178
1146.00 0.04177
1146.10 0.04176
1146.20 0.04174
1146.30 0.04173
1146.40 0.04171
1146.50 0.0417
1146.60 0.04169
1146.70 0.04167
1146.80 0.04166
1146.90 0.04165
1147.00 0.04163
1147.10 0.04162
1147.20 0.0416
1147.30 0.04159
1147.40 0.04158
1147.50 0.04156
1147.60 0.04155
1147.70 0.04153
1147.80 0.04152
1147.90 0.04151
1148.00 0.04149
1148.10 0.04148
1148.20 0.04147
1148.30 0.04145
1148.40 0.04144
1148.50 0.04142
1148.60 0.04141
1148.70 0.0414
1148.80 0.04138
1148.90 0.04137
1149.00 0.04135
1149.10 0.04134
1149.20 0.04133
1149.30 0.04131
1149.40 0.0413
1149.50 0.04129
1149.60 0.04127
1149.70 0.04126
1149.80 0.04124
1149.90 0.04123
1150.00 0.04122
1150.10 0.0412
1150.20 0.04119
1150.30 0.04118
1150.40 0.04116
1150.50 0.04115
1150.60 0.04113
1150.70 0.04112
1150.80 0.04111
1150.90 0.04109
1151.00 0.04108
1151.10 0.04107
1151.20 0.04105
1151.30 0.04104
1151.40 0.04103
1151.50 0.04101
1151.60 0.041
1151.70 0.04098
1151.80 0.04097
1151.90 0.04096
1152.00 0.04094
1152.10 0.04093
1152.20 0.04092
1152.30 0.0409
1152.40 0.04089
1152.50 0.04087
1152.60 0.04086
1152.70 0.04085
1152.80 0.04083
1152.90 0.04082
1153.00 0.04081
1153.10 0.04079
1153.20 0.04078
1153.30 0.04077
1153.40 0.04075
1153.50 0.04074
1153.60 0.04072
1153.70 0.04071
1153.80 0.0407
1153.90 0.04068
1154.00 0.04067
1154.10 0.04066
1154.20 0.04064
1154.30 0.04063
1154.40 0.04062
1154.50 0.0406
1154.60 0.04059
1154.70 0.04058
1154.80 0.04056
1154.90 0.04055
1155.00 0.04053
1155.10 0.04052
1155.20 0.04051
1155.30 0.04049
1155.40 0.04048
1155.50 0.04047
1155.60 0.04045
1155.70 0.04044
1155.80 0.04043
1155.90 0.04041
1156.00 0.0404
1156.10 0.04039
1156.20 0.04037
1156.30 0.04036
1156.40 0.04035
1156.50 0.04033
1156.60 0.04032
1156.70 0.04031
1156.80 0.04029
1156.90 0.04028
1157.00 0.04026
1157.10 0.04025
1157.20 0.04024
1157.30 0.04022
1157.40 0.04021
1157.50 0.0402
1157.60 0.04018
1157.70 0.04017
1157.80 0.04016
1157.90 0.04014
1158.00 0.04013
1158.10 0.04012
1158.20 0.0401
1158.30 0.04009
1158.40 0.04008
1158.50 0.04006
1158.60 0.04005
1158.70 0.04004
1158.80 0.04002
1158.90 0.04001
1159.00 0.04
1159.10 0.03998
1159.20 0.03997
1159.30 0.03996
1159.40 0.03994
1159.50 0.03993
1159.60 0.03992
1159.70 0.0399
1159.80 0.03989
1159.90 0.03988
1160.00 0.03986
1160.10 0.03985
1160.20 0.03984
1160.30 0.03982
1160.40 0.03981
1160.50 0.0398
1160.60 0.03978
1160.70 0.03977
1160.80 0.03976
1160.90 0.03974
1161.00 0.03973
1161.10 0.03972
1161.20 0.0397
1161.30 0.03969
1161.40 0.03968
1161.50 0.03966
1161.60 0.03965
1161.70 0.03964
1161.80 0.03962
1161.90 0.03961
1162.00 0.0396
1162.10 0.03958
1162.20 0.03957
1162.30 0.03956
1162.40 0.03954
1162.50 0.03953
1162.60 0.03952
1162.70 0.03951
1162.80 0.03949
1162.90 0.03948
1163.00 0.03947
1163.10 0.03945
1163.20 0.03944
1163.30 0.03943
1163.40 0.03941
1163.50 0.0394
1163.60 0.03939
1163.70 0.03937
1163.80 0.03936
1163.90 0.03935
1164.00 0.03933
1164.10 0.03932
1164.20 0.03931
1164.30 0.03929
1164.40 0.03928
1164.50 0.03927
1164.60 0.03926
1164.70 0.03924
1164.80 0.03923
1164.90 0.03922
1165.00 0.0392
1165.10 0.03919
1165.20 0.03918
1165.30 0.03916
1165.40 0.03915
1165.50 0.03914
1165.60 0.03912
1165.70 0.03911
1165.80 0.0391
1165.90 0.03909
1166.00 0.03907
1166.10 0.03906
1166.20 0.03905
1166.30 0.03903
1166.40 0.03902
1166.50 0.03901
1166.60 0.03899
1166.70 0.03898
1166.80 0.03897
1166.90 0.03896
1167.00 0.03894
1167.10 0.03893
1167.20 0.03892
1167.30 0.0389
1167.40 0.03889
1167.50 0.03888
1167.60 0.03886
1167.70 0.03885
1167.80 0.03884
1167.90 0.03883
1168.00 0.03881
1168.10 0.0388
1168.20 0.03879
1168.30 0.03877
1168.40 0.03876
1168.50 0.03875
1168.60 0.03873
1168.70 0.03872
1168.80 0.03871
1168.90 0.0387
1169.00 0.03868
1169.10 0.03867
1169.20 0.03866
1169.30 0.03864
1169.40 0.03863
1169.50 0.03862
1169.60 0.03861
1169.70 0.03859
1169.80 0.03858
1169.90 0.03857
1170.00 0.03855
1170.10 0.03854
1170.20 0.03853
1170.30 0.03852
1170.40 0.0385
1170.50 0.03849
1170.60 0.03848
1170.70 0.03846
1170.80 0.03845
1170.90 0.03844
1171.00 0.03843
1171.10 0.03841
1171.20 0.0384
1171.30 0.03839
1171.40 0.03837
1171.50 0.03836
1171.60 0.03835
1171.70 0.03834
1171.80 0.03832
1171.90 0.03831
1172.00 0.0383
1172.10 0.03829
1172.20 0.03827
1172.30 0.03826
1172.40 0.03825
1172.50 0.03823
1172.60 0.03822
1172.70 0.03821
1172.80 0.0382
1172.90 0.03818
1173.00 0.03817
1173.10 0.03816
1173.20 0.03815
1173.30 0.03813
1173.40 0.03812
1173.50 0.03811
1173.60 0.03809
1173.70 0.03808
1173.80 0.03807
1173.90 0.03806
1174.00 0.03804
1174.10 0.03803
1174.20 0.03802
1174.30 0.03801
1174.40 0.03799
1174.50 0.03798
1174.60 0.03797
1174.70 0.03796
1174.80 0.03794
1174.90 0.03793
1175.00 0.03792
1175.10 0.0379
1175.20 0.03789
1175.30 0.03788
1175.40 0.03787
1175.50 0.03785
1175.60 0.03784
1175.70 0.03783
1175.80 0.03782
1175.90 0.0378
1176.00 0.03779
1176.10 0.03778
1176.20 0.03777
1176.30 0.03775
1176.40 0.03774
1176.50 0.03773
1176.60 0.03772
1176.70 0.0377
1176.80 0.03769
1176.90 0.03768
1177.00 0.03767
1177.10 0.03765
1177.20 0.03764
1177.30 0.03763
1177.40 0.03762
1177.50 0.0376
1177.60 0.03759
1177.70 0.03758
1177.80 0.03757
1177.90 0.03755
1178.00 0.03754
1178.10 0.03753
1178.20 0.03752
1178.30 0.0375
1178.40 0.03749
1178.50 0.03748
1178.60 0.03747
1178.70 0.03745
1178.80 0.03744
1178.90 0.03743
1179.00 0.03742
1179.10 0.0374
1179.20 0.03739
1179.30 0.03738
1179.40 0.03737
1179.50 0.03735
1179.60 0.03734
1179.70 0.03733
1179.80 0.03732
1179.90 0.0373
1180.00 0.03729
1180.10 0.03728
1180.20 0.03727
1180.30 0.03725
1180.40 0.03724
1180.50 0.03723
1180.60 0.03722
1180.70 0.03721
1180.80 0.03719
1180.90 0.03718
1181.00 0.03717
1181.10 0.03716
1181.20 0.03714
1181.30 0.03713
1181.40 0.03712
1181.50 0.03711
1181.60 0.03709
1181.70 0.03708
1181.80 0.03707
1181.90 0.03706
1182.00 0.03704
1182.10 0.03703
1182.20 0.03702
1182.30 0.03701
1182.40 0.037
1182.50 0.03698
1182.60 0.03697
1182.70 0.03696
1182.80 0.03695
1182.90 0.03693
1183.00 0.03692
1183.10 0.03691
1183.20 0.0369
1183.30 0.03689
1183.40 0.03687
1183.50 0.03686
1183.60 0.03685
1183.70 0.03684
1183.80 0.03682
1183.90 0.03681
1184.00 0.0368
1184.10 0.03679
1184.20 0.03678
1184.30 0.03676
1184.40 0.03675
1184.50 0.03674
1184.60 0.03673
1184.70 0.03671
1184.80 0.0367
1184.90 0.03669
1185.00 0.03668
1185.10 0.03667
1185.20 0.03665
1185.30 0.03664
1185.40 0.03663
1185.50 0.03662
1185.60 0.0366
1185.70 0.03659
1185.80 0.03658
1185.90 0.03657
1186.00 0.03656
1186.10 0.03654
1186.20 0.03653
1186.30 0.03652
1186.40 0.03651
1186.50 0.0365
1186.60 0.03648
1186.70 0.03647
1186.80 0.03646
1186.90 0.03645
1187.00 0.03644
1187.10 0.03642
1187.20 0.03641
1187.30 0.0364
1187.40 0.03639
1187.50 0.03637
1187.60 0.03636
1187.70 0.03635
1187.80 0.03634
1187.90 0.03633
1188.00 0.03631
1188.10 0.0363
1188.20 0.03629
1188.30 0.03628
1188.40 0.03627
1188.50 0.03625
1188.60 0.03624
1188.70 0.03623
1188.80 0.03622
1188.90 0.03621
1189.00 0.03619
1189.10 0.03618
1189.20 0.03617
1189.30 0.03616
1189.40 0.03615
1189.50 0.03613
1189.60 0.03612
1189.70 0.03611
1189.80 0.0361
1189.90 0.03609
1190.00 0.03608
1190.10 0.03606
1190.20 0.03605
1190.30 0.03604
1190.40 0.03603
1190.50 0.03602
1190.60 0.036
1190.70 0.03599
1190.80 0.03598
1190.90 0.03597
1191.00 0.03596
1191.10 0.03594
1191.20 0.03593
1191.30 0.03592
1191.40 0.03591
1191.50 0.0359
1191.60 0.03588
1191.70 0.03587
1191.80 0.03586
1191.90 0.03585
1192.00 0.03584
1192.10 0.03583
1192.20 0.03581
1192.30 0.0358
1192.40 0.03579
1192.50 0.03578
1192.60 0.03577
1192.70 0.03575
1192.80 0.03574
1192.90 0.03573
1193.00 0.03572
1193.10 0.03571
1193.20 0.0357
1193.30 0.03568
1193.40 0.03567
1193.50 0.03566
1193.60 0.03565
1193.70 0.03564
1193.80 0.03562
1193.90 0.03561
1194.00 0.0356
1194.10 0.03559
1194.20 0.03558
1194.30 0.03557
1194.40 0.03555
1194.50 0.03554
1194.60 0.03553
1194.70 0.03552
1194.80 0.03551
1194.90 0.0355
1195.00 0.03548
1195.10 0.03547
1195.20 0.03546
1195.30 0.03545
1195.40 0.03544
1195.50 0.03542
1195.60 0.03541
1195.70 0.0354
1195.80 0.03539
1195.90 0.03538
1196.00 0.03537
1196.10 0.03535
1196.20 0.03534
1196.30 0.03533
1196.40 0.03532
1196.50 0.03531
1196.60 0.0353
1196.70 0.03528
1196.80 0.03527
1196.90 0.03526
1197.00 0.03525
1197.10 0.03524
1197.20 0.03523
1197.30 0.03521
1197.40 0.0352
1197.50 0.03519
1197.60 0.03518
1197.70 0.03517
1197.80 0.03516
1197.90 0.03514
1198.00 0.03513
1198.10 0.03512
1198.20 0.03511
1198.30 0.0351
1198.40 0.03509
1198.50 0.03508
1198.60 0.03506
1198.70 0.03505
1198.80 0.03504
1198.90 0.03503
1199.00 0.03502
1199.10 0.03501
1199.20 0.03499
1199.30 0.03498
1199.40 0.03497
1199.50 0.03496
1199.60 0.03495
1199.70 0.03494
1199.80 0.03493
1199.90 0.03491
1200.00 0
