# Version 2.1 - nm, norm@500 to 1, cut digits, bergeron_1750_95.dat_1750
# Wavelength(nm)  Flambda(ergs/cm^s/s/nm)
300.00 0.05186
300.10 0.05202
300.20 0.05219
300.30 0.05236
300.40 0.05253
300.50 0.0527
300.60 0.05286
300.70 0.05303
300.80 0.0532
300.90 0.05337
301.00 0.05353
301.10 0.0537
301.20 0.05387
301.30 0.05403
301.40 0.0542
301.50 0.05437
301.60 0.05453
301.70 0.0547
301.80 0.05486
301.90 0.05503
302.00 0.0552
302.10 0.05537
302.20 0.05554
302.30 0.05572
302.40 0.05589
302.50 0.05607
302.60 0.05624
302.70 0.05642
302.80 0.05659
302.90 0.05676
303.00 0.05694
303.10 0.05711
303.20 0.05728
303.30 0.05746
303.40 0.05763
303.50 0.0578
303.60 0.05797
303.70 0.05814
303.80 0.05832
303.90 0.05849
304.00 0.05866
304.10 0.05884
304.20 0.05902
304.30 0.0592
304.40 0.05938
304.50 0.05956
304.60 0.05975
304.70 0.05993
304.80 0.06011
304.90 0.06029
305.00 0.06047
305.10 0.06064
305.20 0.06082
305.30 0.061
305.40 0.06118
305.50 0.06136
305.60 0.06154
305.70 0.06172
305.80 0.06189
305.90 0.06207
306.00 0.06226
306.10 0.06244
306.20 0.06263
306.30 0.06281
306.40 0.063
306.50 0.06319
306.60 0.06338
306.70 0.06356
306.80 0.06375
306.90 0.06394
307.00 0.06412
307.10 0.06431
307.20 0.06449
307.30 0.06468
307.40 0.06486
307.50 0.06505
307.60 0.06523
307.70 0.06542
307.80 0.0656
307.90 0.06578
308.00 0.06598
308.10 0.06617
308.20 0.06636
308.30 0.06655
308.40 0.06675
308.50 0.06694
308.60 0.06714
308.70 0.06733
308.80 0.06752
308.90 0.06772
309.00 0.06791
309.10 0.0681
309.20 0.06829
309.30 0.06849
309.40 0.06868
309.50 0.06887
309.60 0.06906
309.70 0.06925
309.80 0.06944
309.90 0.06963
310.00 0.06983
310.10 0.07003
310.20 0.07023
310.30 0.07043
310.40 0.07063
310.50 0.07083
310.60 0.07104
310.70 0.07124
310.80 0.07144
310.90 0.07164
311.00 0.07184
311.10 0.07204
311.20 0.07224
311.30 0.07244
311.40 0.07264
311.50 0.07284
311.60 0.07303
311.70 0.07323
311.80 0.07343
311.90 0.07363
312.00 0.07383
312.10 0.07402
312.20 0.07423
312.30 0.07443
312.40 0.07464
312.50 0.07485
312.60 0.07506
312.70 0.07527
312.80 0.07547
312.90 0.07568
313.00 0.07589
313.10 0.0761
313.20 0.0763
313.30 0.07651
313.40 0.07671
313.50 0.07692
313.60 0.07713
313.70 0.07733
313.80 0.07754
313.90 0.07774
314.00 0.07796
314.10 0.07816
314.20 0.07838
314.30 0.0786
314.40 0.07881
314.50 0.07903
314.60 0.07924
314.70 0.07946
314.80 0.07967
314.90 0.07988
315.00 0.0801
315.10 0.08031
315.20 0.08053
315.30 0.08074
315.40 0.08095
315.50 0.08116
315.60 0.08138
315.70 0.08159
315.80 0.0818
315.90 0.08201
316.00 0.08223
316.10 0.08245
316.20 0.08267
316.30 0.08289
316.40 0.08312
316.50 0.08334
316.60 0.08356
316.70 0.08378
316.80 0.08401
316.90 0.08423
317.00 0.08445
317.10 0.08467
317.20 0.08489
317.30 0.08511
317.40 0.08533
317.50 0.08555
317.60 0.08577
317.70 0.08599
317.80 0.08621
317.90 0.08643
318.00 0.08665
318.10 0.08688
318.20 0.08711
318.30 0.08734
318.40 0.08757
318.50 0.0878
318.60 0.08803
318.70 0.08826
318.80 0.08849
318.90 0.08872
319.00 0.08894
319.10 0.08917
319.20 0.0894
319.30 0.08963
319.40 0.08986
319.50 0.09008
319.60 0.09031
319.70 0.09054
319.80 0.09076
319.90 0.09099
320.00 0.09122
320.10 0.09146
320.20 0.09169
320.30 0.09193
320.40 0.09217
320.50 0.0924
320.60 0.09264
320.70 0.09288
320.80 0.09312
320.90 0.09335
321.00 0.09359
321.10 0.09382
321.20 0.09406
321.30 0.09429
321.40 0.09453
321.50 0.09476
321.60 0.095
321.70 0.09523
321.80 0.09546
321.90 0.0957
322.00 0.09594
322.10 0.09618
322.20 0.09642
322.30 0.09667
322.40 0.09692
322.50 0.09716
322.60 0.09741
322.70 0.09765
322.80 0.09789
322.90 0.09814
323.00 0.09838
323.10 0.09862
323.20 0.09887
323.30 0.09911
323.40 0.09935
323.50 0.09959
323.60 0.09984
323.70 0.1001
323.80 0.1003
323.90 0.1006
324.00 0.1008
324.10 0.1011
324.20 0.1013
324.30 0.1016
324.40 0.1018
324.50 0.1021
324.60 0.1023
324.70 0.1026
324.80 0.1028
324.90 0.1031
325.00 0.1033
325.10 0.1036
325.20 0.1038
325.30 0.1041
325.40 0.1043
325.50 0.1046
325.60 0.1048
325.70 0.1051
325.80 0.1053
325.90 0.1056
326.00 0.1058
326.10 0.1061
326.20 0.1063
326.30 0.1066
326.40 0.1069
326.50 0.1071
326.60 0.1074
326.70 0.1076
326.80 0.1079
326.90 0.1082
327.00 0.1084
327.10 0.1087
327.20 0.1089
327.30 0.1092
327.40 0.1095
327.50 0.1097
327.60 0.11
327.70 0.1102
327.80 0.1105
327.90 0.1107
328.00 0.111
328.10 0.1113
328.20 0.1115
328.30 0.1118
328.40 0.1121
328.50 0.1123
328.60 0.1126
328.70 0.1129
328.80 0.1131
328.90 0.1134
329.00 0.1137
329.10 0.1139
329.20 0.1142
329.30 0.1145
329.40 0.1147
329.50 0.115
329.60 0.1153
329.70 0.1155
329.80 0.1158
329.90 0.1161
330.00 0.1163
330.10 0.1166
330.20 0.1169
330.30 0.1172
330.40 0.1174
330.50 0.1177
330.60 0.118
330.70 0.1183
330.80 0.1185
330.90 0.1188
331.00 0.1191
331.10 0.1194
331.20 0.1196
331.30 0.1199
331.40 0.1202
331.50 0.1205
331.60 0.1207
331.70 0.121
331.80 0.1213
331.90 0.1215
332.00 0.1218
332.10 0.1221
332.20 0.1224
332.30 0.1227
332.40 0.123
332.50 0.1232
332.60 0.1235
332.70 0.1238
332.80 0.1241
332.90 0.1244
333.00 0.1247
333.10 0.1249
333.20 0.1252
333.30 0.1255
333.40 0.1258
333.50 0.1261
333.60 0.1263
333.70 0.1266
333.80 0.1269
333.90 0.1272
334.00 0.1275
334.10 0.1278
334.20 0.128
334.30 0.1283
334.40 0.1286
334.50 0.1289
334.60 0.1292
334.70 0.1295
334.80 0.1298
334.90 0.1301
335.00 0.1304
335.10 0.1307
335.20 0.131
335.30 0.1312
335.40 0.1315
335.50 0.1318
335.60 0.1321
335.70 0.1324
335.80 0.1327
335.90 0.133
336.00 0.1333
336.10 0.1336
336.20 0.1339
336.30 0.1342
336.40 0.1345
336.50 0.1348
336.60 0.1351
336.70 0.1354
336.80 0.1357
336.90 0.136
337.00 0.1363
337.10 0.1366
337.20 0.1369
337.30 0.1372
337.40 0.1375
337.50 0.1377
337.60 0.138
337.70 0.1383
337.80 0.1386
337.90 0.1389
338.00 0.1392
338.10 0.1395
338.20 0.1398
338.30 0.1402
338.40 0.1405
338.50 0.1408
338.60 0.1411
338.70 0.1414
338.80 0.1417
338.90 0.142
339.00 0.1423
339.10 0.1426
339.20 0.1429
339.30 0.1432
339.40 0.1435
339.50 0.1438
339.60 0.1441
339.70 0.1444
339.80 0.1447
339.90 0.145
340.00 0.1453
340.10 0.1457
340.20 0.146
340.30 0.1463
340.40 0.1466
340.50 0.1469
340.60 0.1472
340.70 0.1476
340.80 0.1479
340.90 0.1482
341.00 0.1485
341.10 0.1488
341.20 0.1491
341.30 0.1494
341.40 0.1498
341.50 0.1501
341.60 0.1504
341.70 0.1507
341.80 0.151
341.90 0.1513
342.00 0.1516
342.10 0.1519
342.20 0.1523
342.30 0.1526
342.40 0.1529
342.50 0.1532
342.60 0.1536
342.70 0.1539
342.80 0.1542
342.90 0.1545
343.00 0.1549
343.10 0.1552
343.20 0.1555
343.30 0.1558
343.40 0.1561
343.50 0.1565
343.60 0.1568
343.70 0.1571
343.80 0.1574
343.90 0.1577
344.00 0.1581
344.10 0.1584
344.20 0.1587
344.30 0.1591
344.40 0.1594
344.50 0.1597
344.60 0.16
344.70 0.1604
344.80 0.1607
344.90 0.161
345.00 0.1614
345.10 0.1617
345.20 0.162
345.30 0.1624
345.40 0.1627
345.50 0.163
345.60 0.1633
345.70 0.1637
345.80 0.164
345.90 0.1643
346.00 0.1646
346.10 0.165
346.20 0.1653
346.30 0.1657
346.40 0.166
346.50 0.1664
346.60 0.1667
346.70 0.167
346.80 0.1674
346.90 0.1677
347.00 0.168
347.10 0.1684
347.20 0.1687
347.30 0.1691
347.40 0.1694
347.50 0.1697
347.60 0.1701
347.70 0.1704
347.80 0.1707
347.90 0.1711
348.00 0.1714
348.10 0.1717
348.20 0.1721
348.30 0.1724
348.40 0.1728
348.50 0.1731
348.60 0.1735
348.70 0.1738
348.80 0.1742
348.90 0.1745
349.00 0.1749
349.10 0.1752
349.20 0.1756
349.30 0.1759
349.40 0.1763
349.50 0.1766
349.60 0.1769
349.70 0.1773
349.80 0.1776
349.90 0.178
350.00 0.1783
350.10 0.1787
350.20 0.179
350.30 0.1794
350.40 0.1797
350.50 0.1801
350.60 0.1805
350.70 0.1808
350.80 0.1812
350.90 0.1815
351.00 0.1819
351.10 0.1822
351.20 0.1826
351.30 0.1829
351.40 0.1833
351.50 0.1836
351.60 0.184
351.70 0.1843
351.80 0.1847
351.90 0.185
352.00 0.1854
352.10 0.1857
352.20 0.1861
352.30 0.1865
352.40 0.1868
352.50 0.1872
352.60 0.1876
352.70 0.1879
352.80 0.1883
352.90 0.1886
353.00 0.189
353.10 0.1894
353.20 0.1897
353.30 0.1901
353.40 0.1905
353.50 0.1908
353.60 0.1912
353.70 0.1915
353.80 0.1919
353.90 0.1922
354.00 0.1926
354.10 0.193
354.20 0.1933
354.30 0.1937
354.40 0.1941
354.50 0.1945
354.60 0.1948
354.70 0.1952
354.80 0.1956
354.90 0.1959
355.00 0.1963
355.10 0.1967
355.20 0.1971
355.30 0.1974
355.40 0.1978
355.50 0.1982
355.60 0.1985
355.70 0.1989
355.80 0.1993
355.90 0.1996
356.00 0.2
356.10 0.2004
356.20 0.2007
356.30 0.2011
356.40 0.2015
356.50 0.2019
356.60 0.2023
356.70 0.2026
356.80 0.203
356.90 0.2034
357.00 0.2038
357.10 0.2042
357.20 0.2045
357.30 0.2049
357.40 0.2053
357.50 0.2057
357.60 0.206
357.70 0.2064
357.80 0.2068
357.90 0.2072
358.00 0.2075
358.10 0.2079
358.20 0.2083
358.30 0.2087
358.40 0.2091
358.50 0.2095
358.60 0.2099
358.70 0.2102
358.80 0.2106
358.90 0.211
359.00 0.2114
359.10 0.2118
359.20 0.2122
359.30 0.2125
359.40 0.2129
359.50 0.2133
359.60 0.2137
359.70 0.2141
359.80 0.2145
359.90 0.2148
360.00 0.2152
360.10 0.2156
360.20 0.216
360.30 0.2164
360.40 0.2168
360.50 0.2172
360.60 0.2176
360.70 0.218
360.80 0.2184
360.90 0.2188
361.00 0.2192
361.10 0.2196
361.20 0.22
361.30 0.2203
361.40 0.2207
361.50 0.2211
361.60 0.2215
361.70 0.2219
361.80 0.2223
361.90 0.2227
362.00 0.2231
362.10 0.2235
362.20 0.2239
362.30 0.2243
362.40 0.2247
362.50 0.2251
362.60 0.2255
362.70 0.2259
362.80 0.2263
362.90 0.2267
363.00 0.2271
363.10 0.2275
363.20 0.2279
363.30 0.2283
363.40 0.2287
363.50 0.2291
363.60 0.2295
363.70 0.2299
363.80 0.2303
363.90 0.2307
364.00 0.2311
364.10 0.2315
364.20 0.2319
364.30 0.2323
364.40 0.2327
364.50 0.2331
364.60 0.2335
364.70 0.2339
364.80 0.2343
364.90 0.2347
365.00 0.2352
365.10 0.2356
365.20 0.236
365.30 0.2364
365.40 0.2368
365.50 0.2372
365.60 0.2376
365.70 0.238
365.80 0.2384
365.90 0.2388
366.00 0.2392
366.10 0.2397
366.20 0.2401
366.30 0.2405
366.40 0.2409
366.50 0.2413
366.60 0.2417
366.70 0.2422
366.80 0.2426
366.90 0.243
367.00 0.2434
367.10 0.2438
367.20 0.2442
367.30 0.2447
367.40 0.2451
367.50 0.2455
367.60 0.2459
367.70 0.2463
367.80 0.2467
367.90 0.2471
368.00 0.2475
368.10 0.248
368.20 0.2484
368.30 0.2488
368.40 0.2492
368.50 0.2497
368.60 0.2501
368.70 0.2505
368.80 0.2509
368.90 0.2514
369.00 0.2518
369.10 0.2522
369.20 0.2526
369.30 0.2531
369.40 0.2535
369.50 0.2539
369.60 0.2543
369.70 0.2547
369.80 0.2552
369.90 0.2556
370.00 0.256
370.10 0.2564
370.20 0.2569
370.30 0.2573
370.40 0.2577
370.50 0.2582
370.60 0.2586
370.70 0.259
370.80 0.2595
370.90 0.2599
371.00 0.2603
371.10 0.2607
371.20 0.2612
371.30 0.2616
371.40 0.262
371.50 0.2625
371.60 0.2629
371.70 0.2633
371.80 0.2637
371.90 0.2642
372.00 0.2646
372.10 0.265
372.20 0.2655
372.30 0.2659
372.40 0.2664
372.50 0.2668
372.60 0.2672
372.70 0.2677
372.80 0.2681
372.90 0.2686
373.00 0.269
373.10 0.2694
373.20 0.2699
373.30 0.2703
373.40 0.2707
373.50 0.2712
373.60 0.2716
373.70 0.272
373.80 0.2725
373.90 0.2729
374.00 0.2733
374.10 0.2738
374.20 0.2742
374.30 0.2747
374.40 0.2751
374.50 0.2756
374.60 0.276
374.70 0.2765
374.80 0.2769
374.90 0.2774
375.00 0.2778
375.10 0.2783
375.20 0.2787
375.30 0.2792
375.40 0.2796
375.50 0.28
375.60 0.2805
375.70 0.2809
375.80 0.2814
375.90 0.2818
376.00 0.2822
376.10 0.2827
376.20 0.2831
376.30 0.2836
376.40 0.284
376.50 0.2845
376.60 0.2849
376.70 0.2854
376.80 0.2858
376.90 0.2863
377.00 0.2867
377.10 0.2872
377.20 0.2877
377.30 0.2881
377.40 0.2886
377.50 0.289
377.60 0.2895
377.70 0.2899
377.80 0.2904
377.90 0.2908
378.00 0.2913
378.10 0.2917
378.20 0.2922
378.30 0.2927
378.40 0.2931
378.50 0.2936
378.60 0.294
378.70 0.2945
378.80 0.295
378.90 0.2954
379.00 0.2959
379.10 0.2963
379.20 0.2968
379.30 0.2973
379.40 0.2977
379.50 0.2982
379.60 0.2986
379.70 0.2991
379.80 0.2996
379.90 0.3
380.00 0.3005
380.10 0.3009
380.20 0.3014
380.30 0.3019
380.40 0.3023
380.50 0.3028
380.60 0.3033
380.70 0.3037
380.80 0.3042
380.90 0.3046
381.00 0.3051
381.10 0.3056
381.20 0.306
381.30 0.3065
381.40 0.307
381.50 0.3074
381.60 0.3079
381.70 0.3084
381.80 0.3088
381.90 0.3093
382.00 0.3098
382.10 0.3102
382.20 0.3107
382.30 0.3112
382.40 0.3117
382.50 0.3121
382.60 0.3126
382.70 0.3131
382.80 0.3136
382.90 0.314
383.00 0.3145
383.10 0.315
383.20 0.3154
383.30 0.3159
383.40 0.3164
383.50 0.3169
383.60 0.3173
383.70 0.3178
383.80 0.3183
383.90 0.3188
384.00 0.3192
384.10 0.3197
384.20 0.3202
384.30 0.3207
384.40 0.3211
384.50 0.3216
384.60 0.3221
384.70 0.3226
384.80 0.3231
384.90 0.3235
385.00 0.324
385.10 0.3245
385.20 0.325
385.30 0.3255
385.40 0.3259
385.50 0.3264
385.60 0.3269
385.70 0.3274
385.80 0.3279
385.90 0.3284
386.00 0.3288
386.10 0.3293
386.20 0.3298
386.30 0.3303
386.40 0.3308
386.50 0.3313
386.60 0.3317
386.70 0.3322
386.80 0.3327
386.90 0.3332
387.00 0.3337
387.10 0.3342
387.20 0.3347
387.30 0.3351
387.40 0.3356
387.50 0.3361
387.60 0.3366
387.70 0.3371
387.80 0.3376
387.90 0.3381
388.00 0.3386
388.10 0.3391
388.20 0.3396
388.30 0.34
388.40 0.3405
388.50 0.341
388.60 0.3415
388.70 0.342
388.80 0.3425
388.90 0.343
389.00 0.3435
389.10 0.344
389.20 0.3445
389.30 0.345
389.40 0.3455
389.50 0.346
389.60 0.3464
389.70 0.3469
389.80 0.3474
389.90 0.3479
390.00 0.3484
390.10 0.3489
390.20 0.3494
390.30 0.3499
390.40 0.3504
390.50 0.3509
390.60 0.3514
390.70 0.3519
390.80 0.3524
390.90 0.3529
391.00 0.3534
391.10 0.3539
391.20 0.3544
391.30 0.3549
391.40 0.3554
391.50 0.3559
391.60 0.3564
391.70 0.3569
391.80 0.3574
391.90 0.3579
392.00 0.3584
392.10 0.3589
392.20 0.3594
392.30 0.3599
392.40 0.3604
392.50 0.3609
392.60 0.3614
392.70 0.362
392.80 0.3625
392.90 0.363
393.00 0.3635
393.10 0.364
393.20 0.3645
393.30 0.365
393.40 0.3655
393.50 0.366
393.60 0.3665
393.70 0.367
393.80 0.3675
393.90 0.368
394.00 0.3685
394.10 0.3691
394.20 0.3696
394.30 0.3701
394.40 0.3706
394.50 0.3711
394.60 0.3716
394.70 0.3721
394.80 0.3726
394.90 0.3731
395.00 0.3736
395.10 0.3742
395.20 0.3747
395.30 0.3752
395.40 0.3757
395.50 0.3762
395.60 0.3767
395.70 0.3772
395.80 0.3778
395.90 0.3783
396.00 0.3788
396.10 0.3793
396.20 0.3798
396.30 0.3803
396.40 0.3809
396.50 0.3814
396.60 0.3819
396.70 0.3824
396.80 0.3829
396.90 0.3834
397.00 0.384
397.10 0.3845
397.20 0.385
397.30 0.3855
397.40 0.386
397.50 0.3866
397.60 0.3871
397.70 0.3876
397.80 0.3881
397.90 0.3886
398.00 0.3892
398.10 0.3897
398.20 0.3902
398.30 0.3907
398.40 0.3912
398.50 0.3918
398.60 0.3923
398.70 0.3928
398.80 0.3933
398.90 0.3939
399.00 0.3944
399.10 0.3949
399.20 0.3954
399.30 0.396
399.40 0.3965
399.50 0.397
399.60 0.3975
399.70 0.3981
399.80 0.3986
399.90 0.3991
400.00 0.3996
400.10 0.4002
400.20 0.4007
400.30 0.4012
400.40 0.4018
400.50 0.4023
400.60 0.4028
400.70 0.4033
400.80 0.4039
400.90 0.4044
401.00 0.4049
401.10 0.4055
401.20 0.406
401.30 0.4065
401.40 0.4071
401.50 0.4076
401.60 0.4081
401.70 0.4087
401.80 0.4092
401.90 0.4097
402.00 0.4102
402.10 0.4108
402.20 0.4113
402.30 0.4118
402.40 0.4124
402.50 0.4129
402.60 0.4135
402.70 0.414
402.80 0.4145
402.90 0.4151
403.00 0.4156
403.10 0.4161
403.20 0.4167
403.30 0.4172
403.40 0.4177
403.50 0.4183
403.60 0.4188
403.70 0.4194
403.80 0.4199
403.90 0.4204
404.00 0.421
404.10 0.4215
404.20 0.4221
404.30 0.4226
404.40 0.4231
404.50 0.4237
404.60 0.4242
404.70 0.4247
404.80 0.4253
404.90 0.4258
405.00 0.4264
405.10 0.4269
405.20 0.4275
405.30 0.428
405.40 0.4285
405.50 0.4291
405.60 0.4296
405.70 0.4302
405.80 0.4307
405.90 0.4313
406.00 0.4318
406.10 0.4324
406.20 0.4329
406.30 0.4334
406.40 0.434
406.50 0.4345
406.60 0.4351
406.70 0.4356
406.80 0.4362
406.90 0.4367
407.00 0.4373
407.10 0.4378
407.20 0.4384
407.30 0.4389
407.40 0.4395
407.50 0.44
407.60 0.4406
407.70 0.4411
407.80 0.4417
407.90 0.4422
408.00 0.4428
408.10 0.4433
408.20 0.4439
408.30 0.4444
408.40 0.4449
408.50 0.4455
408.60 0.4461
408.70 0.4466
408.80 0.4472
408.90 0.4477
409.00 0.4483
409.10 0.4488
409.20 0.4494
409.30 0.4499
409.40 0.4505
409.50 0.451
409.60 0.4516
409.70 0.4521
409.80 0.4527
409.90 0.4532
410.00 0.4538
410.10 0.4544
410.20 0.4549
410.30 0.4555
410.40 0.456
410.50 0.4566
410.60 0.4571
410.70 0.4577
410.80 0.4583
410.90 0.4588
411.00 0.4594
411.10 0.4599
411.20 0.4605
411.30 0.461
411.40 0.4616
411.50 0.4622
411.60 0.4627
411.70 0.4633
411.80 0.4638
411.90 0.4644
412.00 0.465
412.10 0.4655
412.20 0.4661
412.30 0.4666
412.40 0.4672
412.50 0.4678
412.60 0.4683
412.70 0.4689
412.80 0.4695
412.90 0.47
413.00 0.4706
413.10 0.4711
413.20 0.4717
413.30 0.4723
413.40 0.4728
413.50 0.4734
413.60 0.474
413.70 0.4745
413.80 0.4751
413.90 0.4757
414.00 0.4762
414.10 0.4768
414.20 0.4774
414.30 0.4779
414.40 0.4785
414.50 0.479
414.60 0.4796
414.70 0.4802
414.80 0.4807
414.90 0.4813
415.00 0.4819
415.10 0.4825
415.20 0.483
415.30 0.4836
415.40 0.4842
415.50 0.4847
415.60 0.4853
415.70 0.4859
415.80 0.4864
415.90 0.487
416.00 0.4876
416.10 0.4881
416.20 0.4887
416.30 0.4893
416.40 0.4899
416.50 0.4904
416.60 0.491
416.70 0.4916
416.80 0.4921
416.90 0.4927
417.00 0.4933
417.10 0.4939
417.20 0.4944
417.30 0.495
417.40 0.4956
417.50 0.4962
417.60 0.4967
417.70 0.4973
417.80 0.4979
417.90 0.4985
418.00 0.499
418.10 0.4996
418.20 0.5002
418.30 0.5008
418.40 0.5013
418.50 0.5019
418.60 0.5025
418.70 0.5031
418.80 0.5036
418.90 0.5042
419.00 0.5048
419.10 0.5054
419.20 0.5059
419.30 0.5065
419.40 0.5071
419.50 0.5077
419.60 0.5083
419.70 0.5088
419.80 0.5094
419.90 0.51
420.00 0.5106
420.10 0.5112
420.20 0.5117
420.30 0.5123
420.40 0.5129
420.50 0.5135
420.60 0.5141
420.70 0.5146
420.80 0.5152
420.90 0.5158
421.00 0.5164
421.10 0.517
421.20 0.5175
421.30 0.5181
421.40 0.5187
421.50 0.5193
421.60 0.5199
421.70 0.5205
421.80 0.521
421.90 0.5216
422.00 0.5222
422.10 0.5228
422.20 0.5234
422.30 0.524
422.40 0.5245
422.50 0.5251
422.60 0.5257
422.70 0.5263
422.80 0.5269
422.90 0.5275
423.00 0.5281
423.10 0.5286
423.20 0.5292
423.30 0.5298
423.40 0.5304
423.50 0.531
423.60 0.5316
423.70 0.5322
423.80 0.5328
423.90 0.5333
424.00 0.5339
424.10 0.5345
424.20 0.5351
424.30 0.5357
424.40 0.5363
424.50 0.5369
424.60 0.5375
424.70 0.5381
424.80 0.5386
424.90 0.5392
425.00 0.5398
425.10 0.5404
425.20 0.541
425.30 0.5416
425.40 0.5422
425.50 0.5428
425.60 0.5434
425.70 0.544
425.80 0.5446
425.90 0.5451
426.00 0.5457
426.10 0.5463
426.20 0.5469
426.30 0.5475
426.40 0.5481
426.50 0.5487
426.60 0.5493
426.70 0.5499
426.80 0.5505
426.90 0.5511
427.00 0.5517
427.10 0.5523
427.20 0.5529
427.30 0.5535
427.40 0.554
427.50 0.5546
427.60 0.5552
427.70 0.5558
427.80 0.5564
427.90 0.557
428.00 0.5576
428.10 0.5582
428.20 0.5588
428.30 0.5594
428.40 0.56
428.50 0.5606
428.60 0.5612
428.70 0.5618
428.80 0.5624
428.90 0.563
429.00 0.5636
429.10 0.5642
429.20 0.5648
429.30 0.5654
429.40 0.566
429.50 0.5666
429.60 0.5672
429.70 0.5678
429.80 0.5684
429.90 0.569
430.00 0.5696
430.10 0.5702
430.20 0.5708
430.30 0.5714
430.40 0.572
430.50 0.5726
430.60 0.5732
430.70 0.5738
430.80 0.5744
430.90 0.575
431.00 0.5756
431.10 0.5762
431.20 0.5768
431.30 0.5774
431.40 0.578
431.50 0.5786
431.60 0.5792
431.70 0.5798
431.80 0.5804
431.90 0.581
432.00 0.5816
432.10 0.5822
432.20 0.5828
432.30 0.5834
432.40 0.584
432.50 0.5846
432.60 0.5852
432.70 0.5858
432.80 0.5865
432.90 0.5871
433.00 0.5877
433.10 0.5883
433.20 0.5889
433.30 0.5895
433.40 0.5901
433.50 0.5907
433.60 0.5913
433.70 0.5919
433.80 0.5925
433.90 0.5931
434.00 0.5937
434.10 0.5943
434.20 0.5949
434.30 0.5955
434.40 0.5961
434.50 0.5968
434.60 0.5974
434.70 0.598
434.80 0.5986
434.90 0.5992
435.00 0.5998
435.10 0.6004
435.20 0.601
435.30 0.6016
435.40 0.6022
435.50 0.6028
435.60 0.6035
435.70 0.6041
435.80 0.6047
435.90 0.6053
436.00 0.6059
436.10 0.6065
436.20 0.6071
436.30 0.6077
436.40 0.6083
436.50 0.6089
436.60 0.6096
436.70 0.6102
436.80 0.6108
436.90 0.6114
437.00 0.612
437.10 0.6126
437.20 0.6132
437.30 0.6138
437.40 0.6145
437.50 0.6151
437.60 0.6157
437.70 0.6163
437.80 0.6169
437.90 0.6175
438.00 0.6181
438.10 0.6187
438.20 0.6194
438.30 0.62
438.40 0.6206
438.50 0.6212
438.60 0.6218
438.70 0.6224
438.80 0.623
438.90 0.6237
439.00 0.6243
439.10 0.6249
439.20 0.6255
439.30 0.6261
439.40 0.6267
439.50 0.6273
439.60 0.628
439.70 0.6286
439.80 0.6292
439.90 0.6298
440.00 0.6304
440.10 0.631
440.20 0.6316
440.30 0.6323
440.40 0.6329
440.50 0.6335
440.60 0.6341
440.70 0.6347
440.80 0.6353
440.90 0.636
441.00 0.6366
441.10 0.6372
441.20 0.6378
441.30 0.6384
441.40 0.6391
441.50 0.6397
441.60 0.6403
441.70 0.6409
441.80 0.6415
441.90 0.6421
442.00 0.6428
442.10 0.6434
442.20 0.644
442.30 0.6446
442.40 0.6452
442.50 0.6459
442.60 0.6465
442.70 0.6471
442.80 0.6477
442.90 0.6483
443.00 0.6489
443.10 0.6496
443.20 0.6502
443.30 0.6508
443.40 0.6514
443.50 0.6521
443.60 0.6527
443.70 0.6533
443.80 0.6539
443.90 0.6545
444.00 0.6552
444.10 0.6558
444.20 0.6564
444.30 0.657
444.40 0.6576
444.50 0.6583
444.60 0.6589
444.70 0.6595
444.80 0.6601
444.90 0.6608
445.00 0.6614
445.10 0.662
445.20 0.6626
445.30 0.6632
445.40 0.6639
445.50 0.6645
445.60 0.6651
445.70 0.6657
445.80 0.6663
445.90 0.667
446.00 0.6676
446.10 0.6682
446.20 0.6688
446.30 0.6695
446.40 0.6701
446.50 0.6707
446.60 0.6713
446.70 0.672
446.80 0.6726
446.90 0.6732
447.00 0.6738
447.10 0.6745
447.20 0.6751
447.30 0.6757
447.40 0.6763
447.50 0.677
447.60 0.6776
447.70 0.6782
447.80 0.6788
447.90 0.6794
448.00 0.6801
448.10 0.6807
448.20 0.6813
448.30 0.6819
448.40 0.6826
448.50 0.6832
448.60 0.6838
448.70 0.6845
448.80 0.6851
448.90 0.6857
449.00 0.6863
449.10 0.687
449.20 0.6876
449.30 0.6882
449.40 0.6888
449.50 0.6895
449.60 0.6901
449.70 0.6907
449.80 0.6913
449.90 0.692
450.00 0.6926
450.10 0.6932
450.20 0.6938
450.30 0.6945
450.40 0.6951
450.50 0.6957
450.60 0.6964
450.70 0.697
450.80 0.6976
450.90 0.6982
451.00 0.6989
451.10 0.6995
451.20 0.7001
451.30 0.7007
451.40 0.7014
451.50 0.702
451.60 0.7026
451.70 0.7033
451.80 0.7039
451.90 0.7045
452.00 0.7051
452.10 0.7058
452.20 0.7064
452.30 0.707
452.40 0.7077
452.50 0.7083
452.60 0.7089
452.70 0.7096
452.80 0.7102
452.90 0.7108
453.00 0.7114
453.10 0.7121
453.20 0.7127
453.30 0.7133
453.40 0.714
453.50 0.7146
453.60 0.7152
453.70 0.7158
453.80 0.7165
453.90 0.7171
454.00 0.7177
454.10 0.7184
454.20 0.719
454.30 0.7196
454.40 0.7202
454.50 0.7209
454.60 0.7215
454.70 0.7221
454.80 0.7228
454.90 0.7234
455.00 0.724
455.10 0.7247
455.20 0.7253
455.30 0.7259
455.40 0.7265
455.50 0.7272
455.60 0.7278
455.70 0.7284
455.80 0.7291
455.90 0.7297
456.00 0.7303
456.10 0.731
456.20 0.7316
456.30 0.7322
456.40 0.7328
456.50 0.7335
456.60 0.7341
456.70 0.7347
456.80 0.7354
456.90 0.736
457.00 0.7366
457.10 0.7373
457.20 0.7379
457.30 0.7385
457.40 0.7392
457.50 0.7398
457.60 0.7404
457.70 0.7411
457.80 0.7417
457.90 0.7423
458.00 0.743
458.10 0.7436
458.20 0.7442
458.30 0.7448
458.40 0.7455
458.50 0.7461
458.60 0.7467
458.70 0.7474
458.80 0.748
458.90 0.7486
459.00 0.7493
459.10 0.7499
459.20 0.7505
459.30 0.7512
459.40 0.7518
459.50 0.7524
459.60 0.7531
459.70 0.7537
459.80 0.7543
459.90 0.755
460.00 0.7556
460.10 0.7562
460.20 0.7568
460.30 0.7575
460.40 0.7581
460.50 0.7587
460.60 0.7594
460.70 0.76
460.80 0.7606
460.90 0.7613
461.00 0.7619
461.10 0.7625
461.20 0.7632
461.30 0.7638
461.40 0.7644
461.50 0.7651
461.60 0.7657
461.70 0.7663
461.80 0.767
461.90 0.7676
462.00 0.7682
462.10 0.7688
462.20 0.7695
462.30 0.7701
462.40 0.7707
462.50 0.7714
462.60 0.772
462.70 0.7726
462.80 0.7733
462.90 0.7739
463.00 0.7745
463.10 0.7752
463.20 0.7758
463.30 0.7764
463.40 0.7771
463.50 0.7777
463.60 0.7783
463.70 0.779
463.80 0.7796
463.90 0.7802
464.00 0.7809
464.10 0.7815
464.20 0.7821
464.30 0.7828
464.40 0.7834
464.50 0.784
464.60 0.7847
464.70 0.7853
464.80 0.7859
464.90 0.7866
465.00 0.7872
465.10 0.7878
465.20 0.7884
465.30 0.7891
465.40 0.7897
465.50 0.7903
465.60 0.791
465.70 0.7916
465.80 0.7922
465.90 0.7929
466.00 0.7935
466.10 0.7941
466.20 0.7948
466.30 0.7954
466.40 0.796
466.50 0.7967
466.60 0.7973
466.70 0.7979
466.80 0.7985
466.90 0.7992
467.00 0.7998
467.10 0.8004
467.20 0.8011
467.30 0.8017
467.40 0.8023
467.50 0.803
467.60 0.8036
467.70 0.8042
467.80 0.8049
467.90 0.8055
468.00 0.8061
468.10 0.8067
468.20 0.8074
468.30 0.808
468.40 0.8086
468.50 0.8093
468.60 0.8099
468.70 0.8105
468.80 0.8112
468.90 0.8118
469.00 0.8124
469.10 0.8131
469.20 0.8137
469.30 0.8143
469.40 0.8149
469.50 0.8156
469.60 0.8162
469.70 0.8168
469.80 0.8175
469.90 0.8181
470.00 0.8187
470.10 0.8193
470.20 0.82
470.30 0.8206
470.40 0.8212
470.50 0.8219
470.60 0.8225
470.70 0.8231
470.80 0.8238
470.90 0.8244
471.00 0.825
471.10 0.8256
471.20 0.8263
471.30 0.8269
471.40 0.8275
471.50 0.8282
471.60 0.8288
471.70 0.8294
471.80 0.83
471.90 0.8307
472.00 0.8313
472.10 0.8319
472.20 0.8326
472.30 0.8332
472.40 0.8338
472.50 0.8344
472.60 0.8351
472.70 0.8357
472.80 0.8363
472.90 0.8369
473.00 0.8376
473.10 0.8382
473.20 0.8388
473.30 0.8395
473.40 0.8401
473.50 0.8407
473.60 0.8413
473.70 0.842
473.80 0.8426
473.90 0.8432
474.00 0.8438
474.10 0.8445
474.20 0.8451
474.30 0.8457
474.40 0.8464
474.50 0.847
474.60 0.8476
474.70 0.8482
474.80 0.8489
474.90 0.8495
475.00 0.8501
475.10 0.8507
475.20 0.8514
475.30 0.852
475.40 0.8526
475.50 0.8532
475.60 0.8539
475.70 0.8545
475.80 0.8551
475.90 0.8557
476.00 0.8564
476.10 0.857
476.20 0.8576
476.30 0.8582
476.40 0.8588
476.50 0.8595
476.60 0.8601
476.70 0.8607
476.80 0.8613
476.90 0.862
477.00 0.8626
477.10 0.8632
477.20 0.8638
477.30 0.8645
477.40 0.8651
477.50 0.8657
477.60 0.8663
477.70 0.8669
477.80 0.8676
477.90 0.8682
478.00 0.8688
478.10 0.8694
478.20 0.87
478.30 0.8707
478.40 0.8713
478.50 0.8719
478.60 0.8725
478.70 0.8731
478.80 0.8738
478.90 0.8744
479.00 0.875
479.10 0.8756
479.20 0.8762
479.30 0.8769
479.40 0.8775
479.50 0.8781
479.60 0.8787
479.70 0.8793
479.80 0.88
479.90 0.8806
480.00 0.8812
480.10 0.8818
480.20 0.8825
480.30 0.8831
480.40 0.8837
480.50 0.8843
480.60 0.8849
480.70 0.8856
480.80 0.8862
480.90 0.8868
481.00 0.8874
481.10 0.888
481.20 0.8887
481.30 0.8893
481.40 0.8899
481.50 0.8905
481.60 0.8911
481.70 0.8917
481.80 0.8923
481.90 0.8929
482.00 0.8935
482.10 0.8941
482.20 0.8947
482.30 0.8954
482.40 0.896
482.50 0.8966
482.60 0.8972
482.70 0.8979
482.80 0.8985
482.90 0.8991
483.00 0.8997
483.10 0.9003
483.20 0.9009
483.30 0.9015
483.40 0.9022
483.50 0.9028
483.60 0.9034
483.70 0.904
483.80 0.9046
483.90 0.9052
484.00 0.9058
484.10 0.9064
484.20 0.907
484.30 0.9076
484.40 0.9082
484.50 0.9089
484.60 0.9095
484.70 0.9101
484.80 0.9107
484.90 0.9113
485.00 0.9119
485.10 0.9125
485.20 0.9132
485.30 0.9138
485.40 0.9144
485.50 0.915
485.60 0.9156
485.70 0.9162
485.80 0.9168
485.90 0.9174
486.00 0.918
486.10 0.9186
486.20 0.9192
486.30 0.9198
486.40 0.9204
486.50 0.921
486.60 0.9217
486.70 0.9223
486.80 0.9228
486.90 0.9234
487.00 0.924
487.10 0.9246
487.20 0.9252
487.30 0.9258
487.40 0.9264
487.50 0.927
487.60 0.9276
487.70 0.9282
487.80 0.9289
487.90 0.9295
488.00 0.9301
488.10 0.9307
488.20 0.9313
488.30 0.9319
488.40 0.9325
488.50 0.9331
488.60 0.9337
488.70 0.9343
488.80 0.9349
488.90 0.9355
489.00 0.9361
489.10 0.9367
489.20 0.9372
489.30 0.9378
489.40 0.9384
489.50 0.939
489.60 0.9396
489.70 0.9402
489.80 0.9408
489.90 0.9414
490.00 0.942
490.10 0.9426
490.20 0.9432
490.30 0.9438
490.40 0.9444
490.50 0.945
490.60 0.9456
490.70 0.9462
490.80 0.9468
490.90 0.9474
491.00 0.948
491.10 0.9486
491.20 0.9492
491.30 0.9498
491.40 0.9504
491.50 0.951
491.60 0.9516
491.70 0.9521
491.80 0.9527
491.90 0.9533
492.00 0.9539
492.10 0.9545
492.20 0.9551
492.30 0.9557
492.40 0.9563
492.50 0.9569
492.60 0.9575
492.70 0.9581
492.80 0.9586
492.90 0.9592
493.00 0.9598
493.10 0.9604
493.20 0.961
493.30 0.9616
493.40 0.9622
493.50 0.9628
493.60 0.9633
493.70 0.9639
493.80 0.9645
493.90 0.9651
494.00 0.9657
494.10 0.9663
494.20 0.9668
494.30 0.9674
494.40 0.968
494.50 0.9686
494.60 0.9692
494.70 0.9698
494.80 0.9704
494.90 0.9709
495.00 0.9715
495.10 0.9721
495.20 0.9727
495.30 0.9733
495.40 0.9738
495.50 0.9744
495.60 0.975
495.70 0.9755
495.80 0.9761
495.90 0.9767
496.00 0.9773
496.10 0.9778
496.20 0.9784
496.30 0.979
496.40 0.9795
496.50 0.9801
496.60 0.9807
496.70 0.9813
496.80 0.9818
496.90 0.9824
497.00 0.983
497.10 0.9836
497.20 0.9841
497.30 0.9847
497.40 0.9853
497.50 0.9859
497.60 0.9865
497.70 0.987
497.80 0.9876
497.90 0.9882
498.00 0.9888
498.10 0.9893
498.20 0.9899
498.30 0.9905
498.40 0.991
498.50 0.9916
498.60 0.9922
498.70 0.9927
498.80 0.9933
498.90 0.9938
499.00 0.9944
499.10 0.995
499.20 0.9955
499.30 0.9961
499.40 0.9967
499.50 0.9972
499.60 0.9978
499.70 0.9983
499.80 0.9989
499.90 0.9994
500.00 1
500.10 1.001
500.20 1.001
500.30 1.002
500.40 1.002
500.50 1.003
500.60 1.003
500.70 1.004
500.80 1.004
500.90 1.005
501.00 1.006
501.10 1.006
501.20 1.007
501.30 1.007
501.40 1.008
501.50 1.008
501.60 1.009
501.70 1.01
501.80 1.01
501.90 1.011
502.00 1.011
502.10 1.012
502.20 1.012
502.30 1.013
502.40 1.013
502.50 1.014
502.60 1.014
502.70 1.015
502.80 1.016
502.90 1.016
503.00 1.017
503.10 1.017
503.20 1.018
503.30 1.018
503.40 1.019
503.50 1.019
503.60 1.02
503.70 1.02
503.80 1.021
503.90 1.021
504.00 1.022
504.10 1.022
504.20 1.023
504.30 1.023
504.40 1.024
504.50 1.024
504.60 1.025
504.70 1.026
504.80 1.026
504.90 1.027
505.00 1.027
505.10 1.028
505.20 1.028
505.30 1.029
505.40 1.029
505.50 1.03
505.60 1.03
505.70 1.031
505.80 1.031
505.90 1.032
506.00 1.032
506.10 1.033
506.20 1.033
506.30 1.034
506.40 1.034
506.50 1.035
506.60 1.035
506.70 1.036
506.80 1.036
506.90 1.037
507.00 1.037
507.10 1.038
507.20 1.038
507.30 1.039
507.40 1.039
507.50 1.04
507.60 1.04
507.70 1.041
507.80 1.041
507.90 1.042
508.00 1.042
508.10 1.043
508.20 1.043
508.30 1.044
508.40 1.044
508.50 1.045
508.60 1.045
508.70 1.046
508.80 1.046
508.90 1.047
509.00 1.047
509.10 1.048
509.20 1.048
509.30 1.049
509.40 1.049
509.50 1.05
509.60 1.051
509.70 1.051
509.80 1.052
509.90 1.052
510.00 1.053
510.10 1.053
510.20 1.054
510.30 1.054
510.40 1.055
510.50 1.055
510.60 1.056
510.70 1.056
510.80 1.057
510.90 1.057
511.00 1.058
511.10 1.058
511.20 1.059
511.30 1.059
511.40 1.06
511.50 1.06
511.60 1.061
511.70 1.061
511.80 1.062
511.90 1.062
512.00 1.063
512.10 1.063
512.20 1.064
512.30 1.064
512.40 1.065
512.50 1.065
512.60 1.066
512.70 1.066
512.80 1.067
512.90 1.067
513.00 1.068
513.10 1.068
513.20 1.069
513.30 1.069
513.40 1.07
513.50 1.07
513.60 1.071
513.70 1.071
513.80 1.071
513.90 1.072
514.00 1.072
514.10 1.073
514.20 1.073
514.30 1.074
514.40 1.074
514.50 1.075
514.60 1.075
514.70 1.076
514.80 1.076
514.90 1.077
515.00 1.077
515.10 1.078
515.20 1.078
515.30 1.079
515.40 1.079
515.50 1.08
515.60 1.08
515.70 1.08
515.80 1.081
515.90 1.081
516.00 1.082
516.10 1.082
516.20 1.083
516.30 1.083
516.40 1.084
516.50 1.084
516.60 1.085
516.70 1.085
516.80 1.085
516.90 1.086
517.00 1.086
517.10 1.087
517.20 1.087
517.30 1.088
517.40 1.088
517.50 1.089
517.60 1.089
517.70 1.089
517.80 1.09
517.90 1.09
518.00 1.091
518.10 1.091
518.20 1.092
518.30 1.092
518.40 1.093
518.50 1.093
518.60 1.093
518.70 1.094
518.80 1.094
518.90 1.095
519.00 1.095
519.10 1.096
519.20 1.096
519.30 1.097
519.40 1.097
519.50 1.097
519.60 1.098
519.70 1.098
519.80 1.099
519.90 1.099
520.00 1.1
520.10 1.1
520.20 1.1
520.30 1.101
520.40 1.101
520.50 1.102
520.60 1.102
520.70 1.103
520.80 1.103
520.90 1.103
521.00 1.104
521.10 1.104
521.20 1.105
521.30 1.105
521.40 1.105
521.50 1.106
521.60 1.106
521.70 1.107
521.80 1.107
521.90 1.108
522.00 1.108
522.10 1.108
522.20 1.109
522.30 1.109
522.40 1.11
522.50 1.11
522.60 1.11
522.70 1.111
522.80 1.111
522.90 1.112
523.00 1.112
523.10 1.112
523.20 1.113
523.30 1.113
523.40 1.114
523.50 1.114
523.60 1.114
523.70 1.115
523.80 1.115
523.90 1.116
524.00 1.116
524.10 1.116
524.20 1.117
524.30 1.117
524.40 1.118
524.50 1.118
524.60 1.118
524.70 1.119
524.80 1.119
524.90 1.12
525.00 1.12
525.10 1.12
525.20 1.121
525.30 1.121
525.40 1.121
525.50 1.122
525.60 1.122
525.70 1.123
525.80 1.123
525.90 1.123
526.00 1.124
526.10 1.124
526.20 1.124
526.30 1.125
526.40 1.125
526.50 1.126
526.60 1.126
526.70 1.126
526.80 1.127
526.90 1.127
527.00 1.127
527.10 1.128
527.20 1.128
527.30 1.128
527.40 1.129
527.50 1.129
527.60 1.13
527.70 1.13
527.80 1.13
527.90 1.131
528.00 1.131
528.10 1.131
528.20 1.132
528.30 1.132
528.40 1.132
528.50 1.133
528.60 1.133
528.70 1.133
528.80 1.134
528.90 1.134
529.00 1.134
529.10 1.135
529.20 1.135
529.30 1.135
529.40 1.136
529.50 1.136
529.60 1.136
529.70 1.137
529.80 1.137
529.90 1.137
530.00 1.138
530.10 1.138
530.20 1.138
530.30 1.139
530.40 1.139
530.50 1.139
530.60 1.14
530.70 1.14
530.80 1.14
530.90 1.141
531.00 1.141
531.10 1.141
531.20 1.141
531.30 1.142
531.40 1.142
531.50 1.142
531.60 1.143
531.70 1.143
531.80 1.143
531.90 1.144
532.00 1.144
532.10 1.144
532.20 1.145
532.30 1.145
532.40 1.145
532.50 1.145
532.60 1.146
532.70 1.146
532.80 1.146
532.90 1.147
533.00 1.147
533.10 1.147
533.20 1.147
533.30 1.148
533.40 1.148
533.50 1.148
533.60 1.149
533.70 1.149
533.80 1.149
533.90 1.149
534.00 1.15
534.10 1.15
534.20 1.15
534.30 1.151
534.40 1.151
534.50 1.151
534.60 1.151
534.70 1.152
534.80 1.152
534.90 1.152
535.00 1.152
535.10 1.153
535.20 1.153
535.30 1.153
535.40 1.153
535.50 1.154
535.60 1.154
535.70 1.154
535.80 1.154
535.90 1.155
536.00 1.155
536.10 1.155
536.20 1.155
536.30 1.156
536.40 1.156
536.50 1.156
536.60 1.156
536.70 1.157
536.80 1.157
536.90 1.157
537.00 1.157
537.10 1.158
537.20 1.158
537.30 1.158
537.40 1.158
537.50 1.159
537.60 1.159
537.70 1.159
537.80 1.159
537.90 1.159
538.00 1.16
538.10 1.16
538.20 1.16
538.30 1.16
538.40 1.16
538.50 1.161
538.60 1.161
538.70 1.161
538.80 1.161
538.90 1.162
539.00 1.162
539.10 1.162
539.20 1.162
539.30 1.162
539.40 1.163
539.50 1.163
539.60 1.163
539.70 1.163
539.80 1.163
539.90 1.164
540.00 1.164
540.10 1.164
540.20 1.164
540.30 1.164
540.40 1.164
540.50 1.165
540.60 1.165
540.70 1.165
540.80 1.165
540.90 1.165
541.00 1.165
541.10 1.166
541.20 1.166
541.30 1.166
541.40 1.166
541.50 1.166
541.60 1.166
541.70 1.167
541.80 1.167
541.90 1.167
542.00 1.167
542.10 1.167
542.20 1.167
542.30 1.167
542.40 1.168
542.50 1.168
542.60 1.168
542.70 1.168
542.80 1.168
542.90 1.168
543.00 1.168
543.10 1.169
543.20 1.169
543.30 1.169
543.40 1.169
543.50 1.169
543.60 1.169
543.70 1.169
543.80 1.169
543.90 1.17
544.00 1.17
544.10 1.17
544.20 1.17
544.30 1.17
544.40 1.17
544.50 1.17
544.60 1.17
544.70 1.17
544.80 1.171
544.90 1.171
545.00 1.171
545.10 1.171
545.20 1.171
545.30 1.171
545.40 1.171
545.50 1.171
545.60 1.171
545.70 1.171
545.80 1.171
545.90 1.172
546.00 1.172
546.10 1.172
546.20 1.172
546.30 1.172
546.40 1.172
546.50 1.172
546.60 1.172
546.70 1.172
546.80 1.172
546.90 1.172
547.00 1.172
547.10 1.173
547.20 1.173
547.30 1.173
547.40 1.173
547.50 1.173
547.60 1.173
547.70 1.173
547.80 1.173
547.90 1.173
548.00 1.173
548.10 1.173
548.20 1.173
548.30 1.173
548.40 1.173
548.50 1.173
548.60 1.173
548.70 1.173
548.80 1.173
548.90 1.173
549.00 1.173
549.10 1.174
549.20 1.174
549.30 1.174
549.40 1.174
549.50 1.174
549.60 1.174
549.70 1.174
549.80 1.174
549.90 1.174
550.00 1.174
550.10 1.174
550.20 1.174
550.30 1.174
550.40 1.174
550.50 1.174
550.60 1.174
550.70 1.174
550.80 1.174
550.90 1.174
551.00 1.174
551.10 1.174
551.20 1.174
551.30 1.174
551.40 1.174
551.50 1.174
551.60 1.174
551.70 1.174
551.80 1.174
551.90 1.174
552.00 1.174
552.10 1.173
552.20 1.173
552.30 1.173
552.40 1.173
552.50 1.173
552.60 1.173
552.70 1.173
552.80 1.173
552.90 1.173
553.00 1.173
553.10 1.173
553.20 1.173
553.30 1.173
553.40 1.173
553.50 1.173
553.60 1.173
553.70 1.173
553.80 1.172
553.90 1.172
554.00 1.172
554.10 1.172
554.20 1.172
554.30 1.172
554.40 1.172
554.50 1.172
554.60 1.172
554.70 1.172
554.80 1.171
554.90 1.171
555.00 1.171
555.10 1.171
555.20 1.171
555.30 1.171
555.40 1.171
555.50 1.171
555.60 1.171
555.70 1.17
555.80 1.17
555.90 1.17
556.00 1.17
556.10 1.17
556.20 1.17
556.30 1.17
556.40 1.169
556.50 1.169
556.60 1.169
556.70 1.169
556.80 1.169
556.90 1.169
557.00 1.169
557.10 1.168
557.20 1.168
557.30 1.168
557.40 1.168
557.50 1.168
557.60 1.168
557.70 1.167
557.80 1.167
557.90 1.167
558.00 1.167
558.10 1.167
558.20 1.167
558.30 1.166
558.40 1.166
558.50 1.166
558.60 1.166
558.70 1.166
558.80 1.166
558.90 1.165
559.00 1.165
559.10 1.165
559.20 1.165
559.30 1.165
559.40 1.164
559.50 1.164
559.60 1.164
559.70 1.164
559.80 1.164
559.90 1.163
560.00 1.163
560.10 1.163
560.20 1.163
560.30 1.163
560.40 1.162
560.50 1.162
560.60 1.162
560.70 1.162
560.80 1.162
560.90 1.161
561.00 1.161
561.10 1.161
561.20 1.161
561.30 1.161
561.40 1.16
561.50 1.16
561.60 1.16
561.70 1.16
561.80 1.159
561.90 1.159
562.00 1.159
562.10 1.159
562.20 1.159
562.30 1.158
562.40 1.158
562.50 1.158
562.60 1.158
562.70 1.157
562.80 1.157
562.90 1.157
563.00 1.157
563.10 1.156
563.20 1.156
563.30 1.156
563.40 1.156
563.50 1.155
563.60 1.155
563.70 1.155
563.80 1.155
563.90 1.154
564.00 1.154
564.10 1.154
564.20 1.153
564.30 1.153
564.40 1.153
564.50 1.153
564.60 1.152
564.70 1.152
564.80 1.152
564.90 1.151
565.00 1.151
565.10 1.151
565.20 1.15
565.30 1.15
565.40 1.15
565.50 1.149
565.60 1.149
565.70 1.149
565.80 1.148
565.90 1.148
566.00 1.148
566.10 1.147
566.20 1.147
566.30 1.147
566.40 1.146
566.50 1.146
566.60 1.146
566.70 1.145
566.80 1.145
566.90 1.145
567.00 1.144
567.10 1.144
567.20 1.143
567.30 1.143
567.40 1.143
567.50 1.142
567.60 1.142
567.70 1.141
567.80 1.141
567.90 1.141
568.00 1.14
568.10 1.14
568.20 1.14
568.30 1.139
568.40 1.139
568.50 1.138
568.60 1.138
568.70 1.137
568.80 1.137
568.90 1.137
569.00 1.136
569.10 1.136
569.20 1.135
569.30 1.135
569.40 1.134
569.50 1.134
569.60 1.133
569.70 1.133
569.80 1.132
569.90 1.132
570.00 1.132
570.10 1.131
570.20 1.131
570.30 1.13
570.40 1.13
570.50 1.129
570.60 1.129
570.70 1.128
570.80 1.128
570.90 1.127
571.00 1.127
571.10 1.126
571.20 1.126
571.30 1.125
571.40 1.125
571.50 1.124
571.60 1.124
571.70 1.123
571.80 1.123
571.90 1.122
572.00 1.122
572.10 1.121
572.20 1.121
572.30 1.12
572.40 1.12
572.50 1.119
572.60 1.119
572.70 1.118
572.80 1.118
572.90 1.117
573.00 1.117
573.10 1.116
573.20 1.116
573.30 1.115
573.40 1.115
573.50 1.114
573.60 1.113
573.70 1.113
573.80 1.112
573.90 1.112
574.00 1.111
574.10 1.111
574.20 1.11
574.30 1.11
574.40 1.109
574.50 1.109
574.60 1.108
574.70 1.107
574.80 1.107
574.90 1.106
575.00 1.106
575.10 1.105
575.20 1.105
575.30 1.104
575.40 1.104
575.50 1.103
575.60 1.102
575.70 1.102
575.80 1.101
575.90 1.101
576.00 1.1
576.10 1.1
576.20 1.099
576.30 1.098
576.40 1.098
576.50 1.097
576.60 1.097
576.70 1.096
576.80 1.095
576.90 1.095
577.00 1.094
577.10 1.094
577.20 1.093
577.30 1.092
577.40 1.092
577.50 1.091
577.60 1.091
577.70 1.09
577.80 1.089
577.90 1.089
578.00 1.088
578.10 1.088
578.20 1.087
578.30 1.086
578.40 1.086
578.50 1.085
578.60 1.084
578.70 1.084
578.80 1.083
578.90 1.083
579.00 1.082
579.10 1.081
579.20 1.081
579.30 1.08
579.40 1.079
579.50 1.079
579.60 1.078
579.70 1.078
579.80 1.077
579.90 1.076
580.00 1.076
580.10 1.075
580.20 1.074
580.30 1.074
580.40 1.073
580.50 1.073
580.60 1.072
580.70 1.071
580.80 1.071
580.90 1.07
581.00 1.069
581.10 1.069
581.20 1.068
581.30 1.067
581.40 1.067
581.50 1.066
581.60 1.065
581.70 1.065
581.80 1.064
581.90 1.063
582.00 1.063
582.10 1.062
582.20 1.061
582.30 1.061
582.40 1.06
582.50 1.059
582.60 1.058
582.70 1.058
582.80 1.057
582.90 1.056
583.00 1.056
583.10 1.055
583.20 1.054
583.30 1.054
583.40 1.053
583.50 1.052
583.60 1.051
583.70 1.051
583.80 1.05
583.90 1.049
584.00 1.049
584.10 1.048
584.20 1.047
584.30 1.046
584.40 1.046
584.50 1.045
584.60 1.044
584.70 1.043
584.80 1.043
584.90 1.042
585.00 1.041
585.10 1.04
585.20 1.04
585.30 1.039
585.40 1.038
585.50 1.037
585.60 1.036
585.70 1.036
585.80 1.035
585.90 1.034
586.00 1.033
586.10 1.032
586.20 1.032
586.30 1.031
586.40 1.03
586.50 1.029
586.60 1.028
586.70 1.028
586.80 1.027
586.90 1.026
587.00 1.025
587.10 1.024
587.20 1.023
587.30 1.023
587.40 1.022
587.50 1.021
587.60 1.02
587.70 1.019
587.80 1.018
587.90 1.017
588.00 1.017
588.10 1.016
588.20 1.015
588.30 1.014
588.40 1.013
588.50 1.012
588.60 1.011
588.70 1.011
588.80 1.01
588.90 1.009
589.00 1.008
589.10 1.007
589.20 1.006
589.30 1.005
589.40 1.004
589.50 1.003
589.60 1.003
589.70 1.002
589.80 1.001
589.90 0.9998
590.00 0.9989
590.10 0.998
590.20 0.9971
590.30 0.9962
590.40 0.9953
590.50 0.9944
590.60 0.9935
590.70 0.9926
590.80 0.9917
590.90 0.9908
591.00 0.9899
591.10 0.989
591.20 0.988
591.30 0.9871
591.40 0.9862
591.50 0.9853
591.60 0.9844
591.70 0.9834
591.80 0.9825
591.90 0.9816
592.00 0.9807
592.10 0.9798
592.20 0.9789
592.30 0.9779
592.40 0.977
592.50 0.9761
592.60 0.9752
592.70 0.9742
592.80 0.9733
592.90 0.9724
593.00 0.9715
593.10 0.9705
593.20 0.9696
593.30 0.9687
593.40 0.9678
593.50 0.9668
593.60 0.9659
593.70 0.965
593.80 0.964
593.90 0.9631
594.00 0.9622
594.10 0.9613
594.20 0.9603
594.30 0.9594
594.40 0.9584
594.50 0.9575
594.60 0.9565
594.70 0.9556
594.80 0.9547
594.90 0.9537
595.00 0.9528
595.10 0.9518
595.20 0.9509
595.30 0.95
595.40 0.949
595.50 0.9481
595.60 0.9471
595.70 0.9462
595.80 0.9452
595.90 0.9443
596.00 0.9433
596.10 0.9424
596.20 0.9414
596.30 0.9405
596.40 0.9395
596.50 0.9386
596.60 0.9376
596.70 0.9367
596.80 0.9358
596.90 0.9348
597.00 0.9339
597.10 0.9329
597.20 0.932
597.30 0.931
597.40 0.93
597.50 0.9291
597.60 0.9281
597.70 0.9271
597.80 0.9262
597.90 0.9252
598.00 0.9243
598.10 0.9233
598.20 0.9223
598.30 0.9214
598.40 0.9204
598.50 0.9194
598.60 0.9184
598.70 0.9175
598.80 0.9165
598.90 0.9155
599.00 0.9146
599.10 0.9136
599.20 0.9126
599.30 0.9116
599.40 0.9107
599.50 0.9097
599.60 0.9087
599.70 0.9077
599.80 0.9067
599.90 0.9057
600.00 0.9048
600.10 0.9038
600.20 0.9028
600.30 0.9018
600.40 0.9008
600.50 0.8998
600.60 0.8988
600.70 0.8978
600.80 0.8968
600.90 0.8959
601.00 0.8949
601.10 0.8939
601.20 0.8929
601.30 0.8919
601.40 0.8909
601.50 0.8899
601.60 0.8889
601.70 0.8879
601.80 0.8869
601.90 0.8859
602.00 0.8849
602.10 0.8839
602.20 0.8829
602.30 0.8819
602.40 0.8808
602.50 0.8798
602.60 0.8788
602.70 0.8778
602.80 0.8768
602.90 0.8758
603.00 0.8748
603.10 0.8738
603.20 0.8728
603.30 0.8718
603.40 0.8708
603.50 0.8698
603.60 0.8688
603.70 0.8678
603.80 0.8668
603.90 0.8658
604.00 0.8648
604.10 0.8638
604.20 0.8628
604.30 0.8618
604.40 0.8607
604.50 0.8597
604.60 0.8587
604.70 0.8577
604.80 0.8567
604.90 0.8557
605.00 0.8546
605.10 0.8536
605.20 0.8526
605.30 0.8516
605.40 0.8506
605.50 0.8496
605.60 0.8486
605.70 0.8475
605.80 0.8465
605.90 0.8455
606.00 0.8445
606.10 0.8435
606.20 0.8425
606.30 0.8415
606.40 0.8404
606.50 0.8394
606.60 0.8384
606.70 0.8374
606.80 0.8364
606.90 0.8353
607.00 0.8343
607.10 0.8333
607.20 0.8323
607.30 0.8313
607.40 0.8303
607.50 0.8293
607.60 0.8283
607.70 0.8273
607.80 0.8263
607.90 0.8252
608.00 0.8242
608.10 0.8232
608.20 0.8222
608.30 0.8212
608.40 0.8202
608.50 0.8192
608.60 0.8181
608.70 0.8171
608.80 0.8161
608.90 0.8151
609.00 0.8141
609.10 0.8131
609.20 0.8121
609.30 0.811
609.40 0.81
609.50 0.809
609.60 0.808
609.70 0.807
609.80 0.806
609.90 0.805
610.00 0.804
610.10 0.803
610.20 0.8019
610.30 0.8009
610.40 0.7999
610.50 0.7989
610.60 0.7979
610.70 0.7969
610.80 0.7959
610.90 0.7949
611.00 0.7939
611.10 0.7929
611.20 0.7918
611.30 0.7908
611.40 0.7898
611.50 0.7888
611.60 0.7878
611.70 0.7868
611.80 0.7858
611.90 0.7848
612.00 0.7838
612.10 0.7828
612.20 0.7818
612.30 0.7808
612.40 0.7798
612.50 0.7788
612.60 0.7778
612.70 0.7768
612.80 0.7757
612.90 0.7747
613.00 0.7737
613.10 0.7727
613.20 0.7717
613.30 0.7707
613.40 0.7697
613.50 0.7687
613.60 0.7677
613.70 0.7667
613.80 0.7657
613.90 0.7647
614.00 0.7637
614.10 0.7627
614.20 0.7616
614.30 0.7606
614.40 0.7596
614.50 0.7586
614.60 0.7576
614.70 0.7566
614.80 0.7556
614.90 0.7546
615.00 0.7536
615.10 0.7526
615.20 0.7516
615.30 0.7506
615.40 0.7496
615.50 0.7486
615.60 0.7475
615.70 0.7465
615.80 0.7455
615.90 0.7445
616.00 0.7435
616.10 0.7425
616.20 0.7415
616.30 0.7405
616.40 0.7395
616.50 0.7385
616.60 0.7375
616.70 0.7365
616.80 0.7356
616.90 0.7346
617.00 0.7336
617.10 0.7326
617.20 0.7316
617.30 0.7306
617.40 0.7296
617.50 0.7286
617.60 0.7276
617.70 0.7266
617.80 0.7256
617.90 0.7247
618.00 0.7237
618.10 0.7227
618.20 0.7217
618.30 0.7207
618.40 0.7197
618.50 0.7187
618.60 0.7178
618.70 0.7168
618.80 0.7158
618.90 0.7148
619.00 0.7138
619.10 0.7129
619.20 0.7119
619.30 0.7109
619.40 0.7099
619.50 0.7089
619.60 0.708
619.70 0.707
619.80 0.706
619.90 0.705
620.00 0.7041
620.10 0.7031
620.20 0.7021
620.30 0.7012
620.40 0.7002
620.50 0.6993
620.60 0.6983
620.70 0.6973
620.80 0.6964
620.90 0.6954
621.00 0.6945
621.10 0.6935
621.20 0.6926
621.30 0.6916
621.40 0.6907
621.50 0.6897
621.60 0.6888
621.70 0.6878
621.80 0.6869
621.90 0.686
622.00 0.685
622.10 0.6841
622.20 0.6831
622.30 0.6822
622.40 0.6813
622.50 0.6804
622.60 0.6795
622.70 0.6786
622.80 0.6776
622.90 0.6767
623.00 0.6758
623.10 0.6749
623.20 0.674
623.30 0.6731
623.40 0.6721
623.50 0.6712
623.60 0.6703
623.70 0.6694
623.80 0.6684
623.90 0.6675
624.00 0.6666
624.10 0.6657
624.20 0.6648
624.30 0.6638
624.40 0.6629
624.50 0.662
624.60 0.6611
624.70 0.6602
624.80 0.6593
624.90 0.6584
625.00 0.6575
625.10 0.6566
625.20 0.6556
625.30 0.6547
625.40 0.6538
625.50 0.6529
625.60 0.652
625.70 0.6511
625.80 0.6502
625.90 0.6493
626.00 0.6483
626.10 0.6474
626.20 0.6465
626.30 0.6456
626.40 0.6447
626.50 0.6438
626.60 0.6429
626.70 0.642
626.80 0.6411
626.90 0.6401
627.00 0.6392
627.10 0.6383
627.20 0.6374
627.30 0.6365
627.40 0.6356
627.50 0.6348
627.60 0.6339
627.70 0.633
627.80 0.6321
627.90 0.6312
628.00 0.6303
628.10 0.6294
628.20 0.6285
628.30 0.6276
628.40 0.6268
628.50 0.6259
628.60 0.625
628.70 0.6241
628.80 0.6232
628.90 0.6223
629.00 0.6214
629.10 0.6206
629.20 0.6197
629.30 0.6188
629.40 0.6179
629.50 0.617
629.60 0.6162
629.70 0.6153
629.80 0.6144
629.90 0.6135
630.00 0.6126
630.10 0.6118
630.20 0.6109
630.30 0.61
630.40 0.6092
630.50 0.6083
630.60 0.6075
630.70 0.6066
630.80 0.6057
630.90 0.6049
631.00 0.604
631.10 0.6032
631.20 0.6023
631.30 0.6014
631.40 0.6006
631.50 0.5997
631.60 0.5988
631.70 0.598
631.80 0.5971
631.90 0.5963
632.00 0.5954
632.10 0.5946
632.20 0.5937
632.30 0.5928
632.40 0.592
632.50 0.5911
632.60 0.5903
632.70 0.5894
632.80 0.5886
632.90 0.5877
633.00 0.5869
633.10 0.586
633.20 0.5852
633.30 0.5843
633.40 0.5835
633.50 0.5826
633.60 0.5818
633.70 0.5809
633.80 0.5801
633.90 0.5792
634.00 0.5784
634.10 0.5776
634.20 0.5767
634.30 0.5759
634.40 0.575
634.50 0.5742
634.60 0.5733
634.70 0.5725
634.80 0.5717
634.90 0.5708
635.00 0.57
635.10 0.5691
635.20 0.5683
635.30 0.5674
635.40 0.5666
635.50 0.5658
635.60 0.5649
635.70 0.5641
635.80 0.5633
635.90 0.5624
636.00 0.5616
636.10 0.5608
636.20 0.5599
636.30 0.5591
636.40 0.5583
636.50 0.5575
636.60 0.5566
636.70 0.5558
636.80 0.555
636.90 0.5541
637.00 0.5533
637.10 0.5525
637.20 0.5517
637.30 0.5508
637.40 0.55
637.50 0.5492
637.60 0.5484
637.70 0.5475
637.80 0.5467
637.90 0.5459
638.00 0.5451
638.10 0.5442
638.20 0.5434
638.30 0.5426
638.40 0.5418
638.50 0.541
638.60 0.5402
638.70 0.5394
638.80 0.5386
638.90 0.5378
639.00 0.537
639.10 0.5362
639.20 0.5354
639.30 0.5346
639.40 0.5338
639.50 0.533
639.60 0.5322
639.70 0.5314
639.80 0.5305
639.90 0.5297
640.00 0.5289
640.10 0.5281
640.20 0.5273
640.30 0.5265
640.40 0.5257
640.50 0.5248
640.60 0.524
640.70 0.5232
640.80 0.5224
640.90 0.5216
641.00 0.5208
641.10 0.52
641.20 0.5192
641.30 0.5183
641.40 0.5175
641.50 0.5167
641.60 0.5159
641.70 0.5151
641.80 0.5143
641.90 0.5135
642.00 0.5127
642.10 0.5119
642.20 0.5111
642.30 0.5102
642.40 0.5094
642.50 0.5086
642.60 0.5078
642.70 0.5069
642.80 0.5061
642.90 0.5053
643.00 0.5044
643.10 0.5036
643.20 0.5028
643.30 0.502
643.40 0.5012
643.50 0.5004
643.60 0.4996
643.70 0.4988
643.80 0.498
643.90 0.4972
644.00 0.4964
644.10 0.4956
644.20 0.4948
644.30 0.494
644.40 0.4932
644.50 0.4924
644.60 0.4916
644.70 0.4908
644.80 0.49
644.90 0.4892
645.00 0.4884
645.10 0.4876
645.20 0.4868
645.30 0.486
645.40 0.4852
645.50 0.4844
645.60 0.4837
645.70 0.4829
645.80 0.4821
645.90 0.4813
646.00 0.4805
646.10 0.4797
646.20 0.4789
646.30 0.4781
646.40 0.4774
646.50 0.4766
646.60 0.4758
646.70 0.4751
646.80 0.4743
646.90 0.4735
647.00 0.4728
647.10 0.472
647.20 0.4712
647.30 0.4705
647.40 0.4697
647.50 0.4689
647.60 0.4681
647.70 0.4674
647.80 0.4666
647.90 0.4658
648.00 0.465
648.10 0.4643
648.20 0.4635
648.30 0.4627
648.40 0.462
648.50 0.4612
648.60 0.4604
648.70 0.4597
648.80 0.4589
648.90 0.4581
649.00 0.4574
649.10 0.4566
649.20 0.4558
649.30 0.4551
649.40 0.4543
649.50 0.4536
649.60 0.4528
649.70 0.452
649.80 0.4513
649.90 0.4505
650.00 0.4498
650.10 0.449
650.20 0.4482
650.30 0.4475
650.40 0.4467
650.50 0.446
650.60 0.4452
650.70 0.4445
650.80 0.4437
650.90 0.4429
651.00 0.4422
651.10 0.4414
651.20 0.4407
651.30 0.4399
651.40 0.4392
651.50 0.4384
651.60 0.4377
651.70 0.4369
651.80 0.4362
651.90 0.4354
652.00 0.4347
652.10 0.4339
652.20 0.4332
652.30 0.4324
652.40 0.4317
652.50 0.4309
652.60 0.4302
652.70 0.4295
652.80 0.4287
652.90 0.428
653.00 0.4272
653.10 0.4265
653.20 0.4258
653.30 0.425
653.40 0.4243
653.50 0.4235
653.60 0.4228
653.70 0.4221
653.80 0.4213
653.90 0.4206
654.00 0.4199
654.10 0.4191
654.20 0.4184
654.30 0.4177
654.40 0.4169
654.50 0.4162
654.60 0.4155
654.70 0.4148
654.80 0.414
654.90 0.4133
655.00 0.4126
655.10 0.4118
655.20 0.4111
655.30 0.4104
655.40 0.4097
655.50 0.409
655.60 0.4082
655.70 0.4075
655.80 0.4068
655.90 0.4061
656.00 0.4054
656.10 0.4047
656.20 0.4039
656.30 0.4032
656.40 0.4025
656.50 0.4018
656.60 0.4011
656.70 0.4004
656.80 0.3997
656.90 0.3989
657.00 0.3982
657.10 0.3975
657.20 0.3968
657.30 0.3961
657.40 0.3954
657.50 0.3947
657.60 0.394
657.70 0.3933
657.80 0.3926
657.90 0.3919
658.00 0.3912
658.10 0.3905
658.20 0.3897
658.30 0.389
658.40 0.3883
658.50 0.3876
658.60 0.3869
658.70 0.3863
658.80 0.3856
658.90 0.3849
659.00 0.3842
659.10 0.3835
659.20 0.3828
659.30 0.3821
659.40 0.3814
659.50 0.3807
659.60 0.38
659.70 0.3793
659.80 0.3786
659.90 0.3779
660.00 0.3772
660.10 0.3765
660.20 0.3759
660.30 0.3752
660.40 0.3745
660.50 0.3738
660.60 0.3731
660.70 0.3724
660.80 0.3717
660.90 0.3711
661.00 0.3704
661.10 0.3697
661.20 0.369
661.30 0.3683
661.40 0.3677
661.50 0.367
661.60 0.3663
661.70 0.3656
661.80 0.3649
661.90 0.3643
662.00 0.3636
662.10 0.3629
662.20 0.3622
662.30 0.3616
662.40 0.3609
662.50 0.3602
662.60 0.3596
662.70 0.3589
662.80 0.3582
662.90 0.3576
663.00 0.3569
663.10 0.3562
663.20 0.3555
663.30 0.3549
663.40 0.3542
663.50 0.3536
663.60 0.3529
663.70 0.3522
663.80 0.3516
663.90 0.3509
664.00 0.3502
664.10 0.3496
664.20 0.3489
664.30 0.3483
664.40 0.3476
664.50 0.347
664.60 0.3463
664.70 0.3457
664.80 0.345
664.90 0.3443
665.00 0.3437
665.10 0.343
665.20 0.3424
665.30 0.3417
665.40 0.3411
665.50 0.3404
665.60 0.3398
665.70 0.3391
665.80 0.3385
665.90 0.3378
666.00 0.3372
666.10 0.3366
666.20 0.3359
666.30 0.3353
666.40 0.3346
666.50 0.334
666.60 0.3333
666.70 0.3327
666.80 0.3321
666.90 0.3314
667.00 0.3308
667.10 0.3301
667.20 0.3295
667.30 0.3289
667.40 0.3282
667.50 0.3276
667.60 0.327
667.70 0.3263
667.80 0.3257
667.90 0.3251
668.00 0.3244
668.10 0.3238
668.20 0.3232
668.30 0.3225
668.40 0.3219
668.50 0.3213
668.60 0.3207
668.70 0.32
668.80 0.3194
668.90 0.3188
669.00 0.3182
669.10 0.3175
669.20 0.3169
669.30 0.3163
669.40 0.3157
669.50 0.3151
669.60 0.3144
669.70 0.3138
669.80 0.3132
669.90 0.3126
670.00 0.312
670.10 0.3113
670.20 0.3107
670.30 0.3101
670.40 0.3095
670.50 0.3089
670.60 0.3083
670.70 0.3077
670.80 0.307
670.90 0.3064
671.00 0.3058
671.10 0.3052
671.20 0.3046
671.30 0.304
671.40 0.3034
671.50 0.3028
671.60 0.3022
671.70 0.3016
671.80 0.3009
671.90 0.3003
672.00 0.2997
672.10 0.2991
672.20 0.2985
672.30 0.2979
672.40 0.2973
672.50 0.2967
672.60 0.2961
672.70 0.2955
672.80 0.2949
672.90 0.2943
673.00 0.2937
673.10 0.2931
673.20 0.2925
673.30 0.2919
673.40 0.2913
673.50 0.2907
673.60 0.2902
673.70 0.2896
673.80 0.289
673.90 0.2884
674.00 0.2878
674.10 0.2872
674.20 0.2866
674.30 0.286
674.40 0.2854
674.50 0.2848
674.60 0.2842
674.70 0.2837
674.80 0.2831
674.90 0.2825
675.00 0.2819
675.10 0.2813
675.20 0.2807
675.30 0.2801
675.40 0.2796
675.50 0.279
675.60 0.2784
675.70 0.2778
675.80 0.2772
675.90 0.2767
676.00 0.2761
676.10 0.2755
676.20 0.2749
676.30 0.2744
676.40 0.2738
676.50 0.2732
676.60 0.2726
676.70 0.2721
676.80 0.2715
676.90 0.2709
677.00 0.2703
677.10 0.2698
677.20 0.2692
677.30 0.2686
677.40 0.2681
677.50 0.2675
677.60 0.2669
677.70 0.2664
677.80 0.2658
677.90 0.2652
678.00 0.2647
678.10 0.2641
678.20 0.2636
678.30 0.263
678.40 0.2624
678.50 0.2619
678.60 0.2613
678.70 0.2607
678.80 0.2602
678.90 0.2596
679.00 0.2591
679.10 0.2585
679.20 0.2579
679.30 0.2574
679.40 0.2568
679.50 0.2563
679.60 0.2557
679.70 0.2552
679.80 0.2546
679.90 0.254
680.00 0.2535
680.10 0.2529
680.20 0.2524
680.30 0.2518
680.40 0.2513
680.50 0.2507
680.60 0.2502
680.70 0.2496
680.80 0.2491
680.90 0.2485
681.00 0.248
681.10 0.2474
681.20 0.2469
681.30 0.2463
681.40 0.2458
681.50 0.2453
681.60 0.2447
681.70 0.2442
681.80 0.2436
681.90 0.2431
682.00 0.2425
682.10 0.242
682.20 0.2414
682.30 0.2409
682.40 0.2404
682.50 0.2398
682.60 0.2393
682.70 0.2387
682.80 0.2382
682.90 0.2377
683.00 0.2371
683.10 0.2366
683.20 0.2361
683.30 0.2355
683.40 0.235
683.50 0.2344
683.60 0.2339
683.70 0.2334
683.80 0.2329
683.90 0.2323
684.00 0.2318
684.10 0.2313
684.20 0.2307
684.30 0.2302
684.40 0.2297
684.50 0.2291
684.60 0.2286
684.70 0.2281
684.80 0.2276
684.90 0.227
685.00 0.2265
685.10 0.226
685.20 0.2255
685.30 0.2249
685.40 0.2244
685.50 0.2239
685.60 0.2234
685.70 0.2229
685.80 0.2223
685.90 0.2218
686.00 0.2213
686.10 0.2208
686.20 0.2203
686.30 0.2198
686.40 0.2192
686.50 0.2187
686.60 0.2182
686.70 0.2177
686.80 0.2172
686.90 0.2167
687.00 0.2162
687.10 0.2156
687.20 0.2151
687.30 0.2146
687.40 0.2141
687.50 0.2136
687.60 0.2131
687.70 0.2126
687.80 0.2121
687.90 0.2116
688.00 0.2111
688.10 0.2106
688.20 0.2101
688.30 0.2096
688.40 0.2091
688.50 0.2086
688.60 0.2081
688.70 0.2076
688.80 0.2071
688.90 0.2066
689.00 0.2061
689.10 0.2056
689.20 0.2051
689.30 0.2046
689.40 0.2041
689.50 0.2036
689.60 0.2031
689.70 0.2026
689.80 0.2021
689.90 0.2017
690.00 0.2012
690.10 0.2007
690.20 0.2002
690.30 0.1997
690.40 0.1993
690.50 0.1988
690.60 0.1983
690.70 0.1978
690.80 0.1973
690.90 0.1968
691.00 0.1964
691.10 0.1959
691.20 0.1954
691.30 0.1949
691.40 0.1945
691.50 0.194
691.60 0.1935
691.70 0.193
691.80 0.1925
691.90 0.1921
692.00 0.1916
692.10 0.1911
692.20 0.1906
692.30 0.1902
692.40 0.1897
692.50 0.1892
692.60 0.1887
692.70 0.1883
692.80 0.1878
692.90 0.1873
693.00 0.1868
693.10 0.1864
693.20 0.1859
693.30 0.1854
693.40 0.1849
693.50 0.1845
693.60 0.184
693.70 0.1835
693.80 0.183
693.90 0.1826
694.00 0.1821
694.10 0.1816
694.20 0.1812
694.30 0.1807
694.40 0.1802
694.50 0.1797
694.60 0.1793
694.70 0.1788
694.80 0.1783
694.90 0.1779
695.00 0.1774
695.10 0.177
695.20 0.1765
695.30 0.1761
695.40 0.1756
695.50 0.1752
695.60 0.1747
695.70 0.1743
695.80 0.1739
695.90 0.1734
696.00 0.173
696.10 0.1725
696.20 0.1721
696.30 0.1717
696.40 0.1712
696.50 0.1708
696.60 0.1703
696.70 0.1699
696.80 0.1695
696.90 0.169
697.00 0.1686
697.10 0.1682
697.20 0.1677
697.30 0.1673
697.40 0.1669
697.50 0.1664
697.60 0.166
697.70 0.1655
697.80 0.1651
697.90 0.1647
698.00 0.1642
698.10 0.1638
698.20 0.1634
698.30 0.1629
698.40 0.1625
698.50 0.1621
698.60 0.1616
698.70 0.1612
698.80 0.1608
698.90 0.1603
699.00 0.1599
699.10 0.1595
699.20 0.159
699.30 0.1586
699.40 0.1582
699.50 0.1577
699.60 0.1573
699.70 0.1569
699.80 0.1565
699.90 0.156
700.00 0.1556
700.10 0.1552
700.20 0.1548
700.30 0.1544
700.40 0.154
700.50 0.1536
700.60 0.1532
700.70 0.1528
700.80 0.1524
700.90 0.152
701.00 0.1516
701.10 0.1512
701.20 0.1508
701.30 0.1504
701.40 0.15
701.50 0.1496
701.60 0.1492
701.70 0.1488
701.80 0.1484
701.90 0.148
702.00 0.1476
702.10 0.1472
702.20 0.1468
702.30 0.1464
702.40 0.146
702.50 0.1456
702.60 0.1452
702.70 0.1448
702.80 0.1444
702.90 0.144
703.00 0.1437
703.10 0.1433
703.20 0.1429
703.30 0.1425
703.40 0.1421
703.50 0.1417
703.60 0.1413
703.70 0.1409
703.80 0.1405
703.90 0.1401
704.00 0.1397
704.10 0.1393
704.20 0.1389
704.30 0.1385
704.40 0.1381
704.50 0.1378
704.60 0.1374
704.70 0.137
704.80 0.1366
704.90 0.1362
705.00 0.1358
705.10 0.1354
705.20 0.1351
705.30 0.1347
705.40 0.1344
705.50 0.134
705.60 0.1337
705.70 0.1333
705.80 0.1329
705.90 0.1326
706.00 0.1322
706.10 0.1319
706.20 0.1315
706.30 0.1312
706.40 0.1308
706.50 0.1305
706.60 0.1301
706.70 0.1297
706.80 0.1294
706.90 0.129
707.00 0.1287
707.10 0.1283
707.20 0.128
707.30 0.1276
707.40 0.1273
707.50 0.1269
707.60 0.1266
707.70 0.1262
707.80 0.1259
707.90 0.1255
708.00 0.1252
708.10 0.1248
708.20 0.1245
708.30 0.1241
708.40 0.1237
708.50 0.1234
708.60 0.123
708.70 0.1227
708.80 0.1223
708.90 0.122
709.00 0.1216
709.10 0.1213
709.20 0.1209
709.30 0.1206
709.40 0.1202
709.50 0.1199
709.60 0.1196
709.70 0.1192
709.80 0.1189
709.90 0.1185
710.00 0.1182
710.10 0.1178
710.20 0.1175
710.30 0.1172
710.40 0.1169
710.50 0.1166
710.60 0.1163
710.70 0.116
710.80 0.1156
710.90 0.1153
711.00 0.115
711.10 0.1147
711.20 0.1144
711.30 0.1141
711.40 0.1138
711.50 0.1134
711.60 0.1131
711.70 0.1128
711.80 0.1125
711.90 0.1122
712.00 0.1119
712.10 0.1116
712.20 0.1113
712.30 0.1109
712.40 0.1106
712.50 0.1103
712.60 0.11
712.70 0.1097
712.80 0.1094
712.90 0.1091
713.00 0.1088
713.10 0.1085
713.20 0.1081
713.30 0.1078
713.40 0.1075
713.50 0.1072
713.60 0.1069
713.70 0.1066
713.80 0.1063
713.90 0.106
714.00 0.1057
714.10 0.1054
714.20 0.105
714.30 0.1047
714.40 0.1044
714.50 0.1041
714.60 0.1038
714.70 0.1035
714.80 0.1032
714.90 0.1029
715.00 0.1026
715.10 0.1023
715.20 0.102
715.30 0.1018
715.40 0.1015
715.50 0.1012
715.60 0.1009
715.70 0.1007
715.80 0.1004
715.90 0.1001
716.00 0.09986
716.10 0.09959
716.20 0.09931
716.30 0.09904
716.40 0.09877
716.50 0.0985
716.60 0.09823
716.70 0.09796
716.80 0.09769
716.90 0.09741
717.00 0.09714
717.10 0.09687
717.20 0.0966
717.30 0.09633
717.40 0.09606
717.50 0.09579
717.60 0.09552
717.70 0.09525
717.80 0.09498
717.90 0.09471
718.00 0.09444
718.10 0.09417
718.20 0.09391
718.30 0.09364
718.40 0.09337
718.50 0.0931
718.60 0.09283
718.70 0.09256
718.80 0.09229
718.90 0.09203
719.00 0.09176
719.10 0.09149
719.20 0.09122
719.30 0.09096
719.40 0.09069
719.50 0.09042
719.60 0.09015
719.70 0.08989
719.80 0.08962
719.90 0.08935
720.00 0.08909
720.10 0.08886
720.20 0.08862
720.30 0.08839
720.40 0.08816
720.50 0.08792
720.60 0.08769
720.70 0.08746
720.80 0.08723
720.90 0.08699
721.00 0.08676
721.10 0.08653
721.20 0.0863
721.30 0.08606
721.40 0.08583
721.50 0.0856
721.60 0.08537
721.70 0.08514
721.80 0.08491
721.90 0.08468
722.00 0.08445
722.10 0.08421
722.20 0.08398
722.30 0.08375
722.40 0.08352
722.50 0.08329
722.60 0.08306
722.70 0.08283
722.80 0.0826
722.90 0.08237
723.00 0.08214
723.10 0.08191
723.20 0.08168
723.30 0.08145
723.40 0.08123
723.50 0.081
723.60 0.08077
723.70 0.08054
723.80 0.08031
723.90 0.08008
724.00 0.07985
724.10 0.07962
724.20 0.0794
724.30 0.07917
724.40 0.07894
724.50 0.07871
724.60 0.07848
724.70 0.07826
724.80 0.07803
724.90 0.0778
725.00 0.07757
725.10 0.07738
725.20 0.07718
725.30 0.07699
725.40 0.07679
725.50 0.0766
725.60 0.0764
725.70 0.07621
725.80 0.07601
725.90 0.07582
726.00 0.07562
726.10 0.07543
726.20 0.07523
726.30 0.07504
726.40 0.07485
726.50 0.07465
726.60 0.07446
726.70 0.07426
726.80 0.07407
726.90 0.07388
727.00 0.07368
727.10 0.07349
727.20 0.0733
727.30 0.0731
727.40 0.07291
727.50 0.07272
727.60 0.07252
727.70 0.07233
727.80 0.07214
727.90 0.07194
728.00 0.07175
728.10 0.07156
728.20 0.07137
728.30 0.07117
728.40 0.07098
728.50 0.07079
728.60 0.0706
728.70 0.07041
728.80 0.07021
728.90 0.07002
729.00 0.06983
729.10 0.06964
729.20 0.06945
729.30 0.06926
729.40 0.06907
729.50 0.06887
729.60 0.06868
729.70 0.06849
729.80 0.0683
729.90 0.06811
730.00 0.06792
730.10 0.06778
730.20 0.06764
730.30 0.0675
730.40 0.06736
730.50 0.06722
730.60 0.06709
730.70 0.06695
730.80 0.06681
730.90 0.06667
731.00 0.06653
731.10 0.06639
731.20 0.06625
731.30 0.06612
731.40 0.06598
731.50 0.06584
731.60 0.0657
731.70 0.06556
731.80 0.06543
731.90 0.06529
732.00 0.06515
732.10 0.06501
732.20 0.06487
732.30 0.06474
732.40 0.0646
732.50 0.06446
732.60 0.06433
732.70 0.06419
732.80 0.06405
732.90 0.06391
733.00 0.06378
733.10 0.06364
733.20 0.0635
733.30 0.06337
733.40 0.06323
733.50 0.06309
733.60 0.06296
733.70 0.06282
733.80 0.06268
733.90 0.06255
734.00 0.06241
734.10 0.06227
734.20 0.06214
734.30 0.062
734.40 0.06187
734.50 0.06173
734.60 0.06159
734.70 0.06146
734.80 0.06132
734.90 0.06119
735.00 0.06105
735.10 0.06092
735.20 0.06078
735.30 0.06064
735.40 0.06051
735.50 0.06037
735.60 0.06024
735.70 0.0601
735.80 0.05997
735.90 0.05983
736.00 0.0597
736.10 0.05956
736.20 0.05943
736.30 0.05929
736.40 0.05916
736.50 0.05903
736.60 0.05889
736.70 0.05876
736.80 0.05862
736.90 0.05849
737.00 0.05835
737.10 0.05822
737.20 0.05809
737.30 0.05795
737.40 0.05782
737.50 0.05768
737.60 0.05755
737.70 0.05742
737.80 0.05728
737.90 0.05715
738.00 0.05702
738.10 0.05688
738.20 0.05675
738.30 0.05662
738.40 0.05648
738.50 0.05635
738.60 0.05622
738.70 0.05608
738.80 0.05595
738.90 0.05582
739.00 0.05569
739.10 0.05555
739.20 0.05542
739.30 0.05529
739.40 0.05516
739.50 0.05502
739.60 0.05489
739.70 0.05476
739.80 0.05463
739.90 0.05449
740.00 0.05436
740.10 0.05428
740.20 0.0542
740.30 0.05411
740.40 0.05403
740.50 0.05395
740.60 0.05387
740.70 0.05379
740.80 0.0537
740.90 0.05362
741.00 0.05354
741.10 0.05346
741.20 0.05338
741.30 0.0533
741.40 0.05321
741.50 0.05313
741.60 0.05305
741.70 0.05297
741.80 0.05289
741.90 0.05281
742.00 0.05272
742.10 0.05264
742.20 0.05256
742.30 0.05248
742.40 0.0524
742.50 0.05232
742.60 0.05224
742.70 0.05215
742.80 0.05207
742.90 0.05199
743.00 0.05191
743.10 0.05183
743.20 0.05175
743.30 0.05167
743.40 0.05159
743.50 0.05151
743.60 0.05143
743.70 0.05135
743.80 0.05126
743.90 0.05118
744.00 0.0511
744.10 0.05102
744.20 0.05094
744.30 0.05086
744.40 0.05078
744.50 0.0507
744.60 0.05062
744.70 0.05054
744.80 0.05046
744.90 0.05038
745.00 0.0503
745.10 0.05022
745.20 0.05014
745.30 0.05006
745.40 0.04998
745.50 0.0499
745.60 0.04982
745.70 0.04974
745.80 0.04966
745.90 0.04958
746.00 0.0495
746.10 0.04942
746.20 0.04934
746.30 0.04926
746.40 0.04918
746.50 0.0491
746.60 0.04902
746.70 0.04894
746.80 0.04886
746.90 0.04878
747.00 0.0487
747.10 0.04862
747.20 0.04854
747.30 0.04847
747.40 0.04839
747.50 0.04831
747.60 0.04823
747.70 0.04815
747.80 0.04807
747.90 0.04799
748.00 0.04791
748.10 0.04783
748.20 0.04775
748.30 0.04767
748.40 0.0476
748.50 0.04752
748.60 0.04744
748.70 0.04736
748.80 0.04728
748.90 0.0472
749.00 0.04712
749.10 0.04704
749.20 0.04697
749.30 0.04689
749.40 0.04681
749.50 0.04673
749.60 0.04665
749.70 0.04657
749.80 0.0465
749.90 0.04642
750.00 0.04634
750.10 0.04629
750.20 0.04625
750.30 0.0462
750.40 0.04615
750.50 0.0461
750.60 0.04606
750.70 0.04601
750.80 0.04596
750.90 0.04592
751.00 0.04587
751.10 0.04582
751.20 0.04577
751.30 0.04573
751.40 0.04568
751.50 0.04563
751.60 0.04559
751.70 0.04554
751.80 0.04549
751.90 0.04545
752.00 0.0454
752.10 0.04535
752.20 0.04531
752.30 0.04526
752.40 0.04521
752.50 0.04517
752.60 0.04512
752.70 0.04507
752.80 0.04503
752.90 0.04498
753.00 0.04493
753.10 0.04489
753.20 0.04484
753.30 0.04479
753.40 0.04475
753.50 0.0447
753.60 0.04465
753.70 0.04461
753.80 0.04456
753.90 0.04452
754.00 0.04447
754.10 0.04442
754.20 0.04438
754.30 0.04433
754.40 0.04428
754.50 0.04424
754.60 0.04419
754.70 0.04415
754.80 0.0441
754.90 0.04405
755.00 0.04401
755.10 0.04396
755.20 0.04392
755.30 0.04387
755.40 0.04382
755.50 0.04378
755.60 0.04373
755.70 0.04369
755.80 0.04364
755.90 0.04359
756.00 0.04355
756.10 0.0435
756.20 0.04346
756.30 0.04341
756.40 0.04337
756.50 0.04332
756.60 0.04327
756.70 0.04323
756.80 0.04318
756.90 0.04314
757.00 0.04309
757.10 0.04305
757.20 0.043
757.30 0.04295
757.40 0.04291
757.50 0.04286
757.60 0.04282
757.70 0.04277
757.80 0.04273
757.90 0.04268
758.00 0.04264
758.10 0.04259
758.20 0.04255
758.30 0.0425
758.40 0.04246
758.50 0.04241
758.60 0.04236
758.70 0.04232
758.80 0.04227
758.90 0.04223
759.00 0.04218
759.10 0.04214
759.20 0.04209
759.30 0.04205
759.40 0.042
759.50 0.04196
759.60 0.04191
759.70 0.04187
759.80 0.04182
759.90 0.04178
760.00 0.04173
760.10 0.04171
760.20 0.04168
760.30 0.04165
760.40 0.04163
760.50 0.0416
760.60 0.04157
760.70 0.04155
760.80 0.04152
760.90 0.04149
761.00 0.04147
761.10 0.04144
761.20 0.04142
761.30 0.04139
761.40 0.04136
761.50 0.04134
761.60 0.04131
761.70 0.04128
761.80 0.04126
761.90 0.04123
762.00 0.0412
762.10 0.04118
762.20 0.04115
762.30 0.04112
762.40 0.0411
762.50 0.04107
762.60 0.04105
762.70 0.04102
762.80 0.04099
762.90 0.04097
763.00 0.04094
763.10 0.04091
763.20 0.04089
763.30 0.04086
763.40 0.04084
763.50 0.04081
763.60 0.04078
763.70 0.04076
763.80 0.04073
763.90 0.04071
764.00 0.04068
764.10 0.04065
764.20 0.04063
764.30 0.0406
764.40 0.04058
764.50 0.04055
764.60 0.04052
764.70 0.0405
764.80 0.04047
764.90 0.04045
765.00 0.04042
765.10 0.04039
765.20 0.04037
765.30 0.04034
765.40 0.04032
765.50 0.04029
765.60 0.04026
765.70 0.04024
765.80 0.04021
765.90 0.04019
766.00 0.04016
766.10 0.04013
766.20 0.04011
766.30 0.04008
766.40 0.04006
766.50 0.04003
766.60 0.04
766.70 0.03998
766.80 0.03995
766.90 0.03993
767.00 0.0399
767.10 0.03988
767.20 0.03985
767.30 0.03982
767.40 0.0398
767.50 0.03977
767.60 0.03975
767.70 0.03972
767.80 0.0397
767.90 0.03967
768.00 0.03965
768.10 0.03962
768.20 0.03959
768.30 0.03957
768.40 0.03954
768.50 0.03952
768.60 0.03949
768.70 0.03947
768.80 0.03944
768.90 0.03941
769.00 0.03939
769.10 0.03936
769.20 0.03934
769.30 0.03931
769.40 0.03929
769.50 0.03926
769.60 0.03924
769.70 0.03921
769.80 0.03919
769.90 0.03916
770.00 0.03914
770.10 0.03912
770.20 0.03911
770.30 0.0391
770.40 0.03908
770.50 0.03907
770.60 0.03906
770.70 0.03905
770.80 0.03903
770.90 0.03902
771.00 0.03901
771.10 0.039
771.20 0.03898
771.30 0.03897
771.40 0.03896
771.50 0.03895
771.60 0.03893
771.70 0.03892
771.80 0.03891
771.90 0.0389
772.00 0.03888
772.10 0.03887
772.20 0.03886
772.30 0.03885
772.40 0.03883
772.50 0.03882
772.60 0.03881
772.70 0.0388
772.80 0.03879
772.90 0.03877
773.00 0.03876
773.10 0.03875
773.20 0.03874
773.30 0.03872
773.40 0.03871
773.50 0.0387
773.60 0.03869
773.70 0.03867
773.80 0.03866
773.90 0.03865
774.00 0.03864
774.10 0.03862
774.20 0.03861
774.30 0.0386
774.40 0.03859
774.50 0.03857
774.60 0.03856
774.70 0.03855
774.80 0.03854
774.90 0.03853
775.00 0.03851
775.10 0.0385
775.20 0.03849
775.30 0.03848
775.40 0.03846
775.50 0.03845
775.60 0.03844
775.70 0.03843
775.80 0.03841
775.90 0.0384
776.00 0.03839
776.10 0.03838
776.20 0.03837
776.30 0.03835
776.40 0.03834
776.50 0.03833
776.60 0.03832
776.70 0.0383
776.80 0.03829
776.90 0.03828
777.00 0.03827
777.10 0.03826
777.20 0.03824
777.30 0.03823
777.40 0.03822
777.50 0.03821
777.60 0.03819
777.70 0.03818
777.80 0.03817
777.90 0.03816
778.00 0.03815
778.10 0.03813
778.20 0.03812
778.30 0.03811
778.40 0.0381
778.50 0.03809
778.60 0.03807
778.70 0.03806
778.80 0.03805
778.90 0.03804
779.00 0.03802
779.10 0.03801
779.20 0.038
779.30 0.03799
779.40 0.03798
779.50 0.03796
779.60 0.03795
779.70 0.03794
779.80 0.03793
779.90 0.03792
780.00 0.0379
780.10 0.03792
780.20 0.03793
780.30 0.03794
780.40 0.03796
780.50 0.03797
780.60 0.03798
780.70 0.038
780.80 0.03801
780.90 0.03802
781.00 0.03804
781.10 0.03805
781.20 0.03806
781.30 0.03808
781.40 0.03809
781.50 0.0381
781.60 0.03812
781.70 0.03813
781.80 0.03814
781.90 0.03816
782.00 0.03817
782.10 0.03818
782.20 0.0382
782.30 0.03821
782.40 0.03822
782.50 0.03824
782.60 0.03825
782.70 0.03826
782.80 0.03828
782.90 0.03829
783.00 0.0383
783.10 0.03832
783.20 0.03833
783.30 0.03834
783.40 0.03835
783.50 0.03837
783.60 0.03838
783.70 0.03839
783.80 0.03841
783.90 0.03842
784.00 0.03843
784.10 0.03845
784.20 0.03846
784.30 0.03847
784.40 0.03849
784.50 0.0385
784.60 0.03851
784.70 0.03852
784.80 0.03854
784.90 0.03855
785.00 0.03856
785.10 0.03858
785.20 0.03859
785.30 0.0386
785.40 0.03862
785.50 0.03863
785.60 0.03864
785.70 0.03865
785.80 0.03867
785.90 0.03868
786.00 0.03869
786.10 0.03871
786.20 0.03872
786.30 0.03873
786.40 0.03874
786.50 0.03876
786.60 0.03877
786.70 0.03878
786.80 0.0388
786.90 0.03881
787.00 0.03882
787.10 0.03883
787.20 0.03885
787.30 0.03886
787.40 0.03887
787.50 0.03889
787.60 0.0389
787.70 0.03891
787.80 0.03892
787.90 0.03894
788.00 0.03895
788.10 0.03896
788.20 0.03898
788.30 0.03899
788.40 0.039
788.50 0.03901
788.60 0.03903
788.70 0.03904
788.80 0.03905
788.90 0.03906
789.00 0.03908
789.10 0.03909
789.20 0.0391
789.30 0.03911
789.40 0.03913
789.50 0.03914
789.60 0.03915
789.70 0.03917
789.80 0.03918
789.90 0.03919
790.00 0.0392
790.10 0.03923
790.20 0.03926
790.30 0.03929
790.40 0.03931
790.50 0.03934
790.60 0.03937
790.70 0.0394
790.80 0.03943
790.90 0.03945
791.00 0.03948
791.10 0.03951
791.20 0.03954
791.30 0.03956
791.40 0.03959
791.50 0.03962
791.60 0.03965
791.70 0.03967
791.80 0.0397
791.90 0.03973
792.00 0.03976
792.10 0.03978
792.20 0.03981
792.30 0.03984
792.40 0.03987
792.50 0.03989
792.60 0.03992
792.70 0.03995
792.80 0.03997
792.90 0.04
793.00 0.04003
793.10 0.04006
793.20 0.04008
793.30 0.04011
793.40 0.04014
793.50 0.04017
793.60 0.04019
793.70 0.04022
793.80 0.04025
793.90 0.04027
794.00 0.0403
794.10 0.04033
794.20 0.04036
794.30 0.04038
794.40 0.04041
794.50 0.04044
794.60 0.04046
794.70 0.04049
794.80 0.04052
794.90 0.04055
795.00 0.04057
795.10 0.0406
795.20 0.04063
795.30 0.04065
795.40 0.04068
795.50 0.04071
795.60 0.04073
795.70 0.04076
795.80 0.04079
795.90 0.04082
796.00 0.04084
796.10 0.04087
796.20 0.0409
796.30 0.04092
796.40 0.04095
796.50 0.04098
796.60 0.041
796.70 0.04103
796.80 0.04106
796.90 0.04108
797.00 0.04111
797.10 0.04114
797.20 0.04116
797.30 0.04119
797.40 0.04122
797.50 0.04124
797.60 0.04127
797.70 0.0413
797.80 0.04132
797.90 0.04135
798.00 0.04138
798.10 0.0414
798.20 0.04143
798.30 0.04146
798.40 0.04148
798.50 0.04151
798.60 0.04154
798.70 0.04156
798.80 0.04159
798.90 0.04162
799.00 0.04164
799.10 0.04167
799.20 0.04169
799.30 0.04172
799.40 0.04175
799.50 0.04177
799.60 0.0418
799.70 0.04183
799.80 0.04185
799.90 0.04188
800.00 0.04191
800.10 0.04192
800.20 0.04194
800.30 0.04195
800.40 0.04197
800.50 0.04199
800.60 0.042
800.70 0.04202
800.80 0.04203
800.90 0.04205
801.00 0.04207
801.10 0.04208
801.20 0.0421
801.30 0.04211
801.40 0.04213
801.50 0.04215
801.60 0.04216
801.70 0.04218
801.80 0.04219
801.90 0.04221
802.00 0.04223
802.10 0.04224
802.20 0.04226
802.30 0.04227
802.40 0.04229
802.50 0.04231
802.60 0.04232
802.70 0.04234
802.80 0.04235
802.90 0.04237
803.00 0.04239
803.10 0.0424
803.20 0.04242
803.30 0.04243
803.40 0.04245
803.50 0.04246
803.60 0.04248
803.70 0.0425
803.80 0.04251
803.90 0.04253
804.00 0.04254
804.10 0.04256
804.20 0.04257
804.30 0.04259
804.40 0.04261
804.50 0.04262
804.60 0.04264
804.70 0.04265
804.80 0.04267
804.90 0.04269
805.00 0.0427
805.10 0.04272
805.20 0.04273
805.30 0.04275
805.40 0.04276
805.50 0.04278
805.60 0.04279
805.70 0.04281
805.80 0.04283
805.90 0.04284
806.00 0.04286
806.10 0.04287
806.20 0.04289
806.30 0.0429
806.40 0.04292
806.50 0.04293
806.60 0.04295
806.70 0.04297
806.80 0.04298
806.90 0.043
807.00 0.04301
807.10 0.04303
807.20 0.04304
807.30 0.04306
807.40 0.04307
807.50 0.04309
807.60 0.04311
807.70 0.04312
807.80 0.04314
807.90 0.04315
808.00 0.04317
808.10 0.04318
808.20 0.0432
808.30 0.04321
808.40 0.04323
808.50 0.04324
808.60 0.04326
808.70 0.04327
808.80 0.04329
808.90 0.04331
809.00 0.04332
809.10 0.04334
809.20 0.04335
809.30 0.04337
809.40 0.04338
809.50 0.0434
809.60 0.04341
809.70 0.04343
809.80 0.04344
809.90 0.04346
810.00 0.04347
810.10 0.04348
810.20 0.04349
810.30 0.0435
810.40 0.04351
810.50 0.04352
810.60 0.04353
810.70 0.04354
810.80 0.04355
810.90 0.04356
811.00 0.04357
811.10 0.04358
811.20 0.04359
811.30 0.0436
811.40 0.04361
811.50 0.04362
811.60 0.04363
811.70 0.04364
811.80 0.04365
811.90 0.04366
812.00 0.04368
812.10 0.04369
812.20 0.0437
812.30 0.04371
812.40 0.04372
812.50 0.04373
812.60 0.04373
812.70 0.04374
812.80 0.04375
812.90 0.04376
813.00 0.04377
813.10 0.04378
813.20 0.04379
813.30 0.0438
813.40 0.04381
813.50 0.04382
813.60 0.04383
813.70 0.04384
813.80 0.04385
813.90 0.04386
814.00 0.04387
814.10 0.04388
814.20 0.04389
814.30 0.0439
814.40 0.04391
814.50 0.04392
814.60 0.04393
814.70 0.04394
814.80 0.04395
814.90 0.04396
815.00 0.04397
815.10 0.04398
815.20 0.04399
815.30 0.044
815.40 0.04401
815.50 0.04402
815.60 0.04403
815.70 0.04404
815.80 0.04405
815.90 0.04406
816.00 0.04407
816.10 0.04408
816.20 0.04409
816.30 0.0441
816.40 0.04411
816.50 0.04412
816.60 0.04413
816.70 0.04414
816.80 0.04415
816.90 0.04416
817.00 0.04417
817.10 0.04418
817.20 0.04419
817.30 0.0442
817.40 0.04421
817.50 0.04422
817.60 0.04423
817.70 0.04424
817.80 0.04425
817.90 0.04426
818.00 0.04426
818.10 0.04427
818.20 0.04428
818.30 0.04429
818.40 0.0443
818.50 0.04431
818.60 0.04432
818.70 0.04433
818.80 0.04434
818.90 0.04435
819.00 0.04436
819.10 0.04437
819.20 0.04438
819.30 0.04439
819.40 0.0444
819.50 0.04441
819.60 0.04442
819.70 0.04443
819.80 0.04444
819.90 0.04445
820.00 0.04446
820.10 0.04447
820.20 0.04449
820.30 0.04451
820.40 0.04453
820.50 0.04455
820.60 0.04457
820.70 0.04459
820.80 0.04462
820.90 0.04464
821.00 0.04466
821.10 0.04468
821.20 0.0447
821.30 0.04472
821.40 0.04474
821.50 0.04477
821.60 0.04479
821.70 0.04481
821.80 0.04483
821.90 0.04485
822.00 0.04487
822.10 0.0449
822.20 0.04493
822.30 0.04496
822.40 0.04499
822.50 0.04502
822.60 0.04505
822.70 0.04508
822.80 0.0451
822.90 0.04513
823.00 0.04516
823.10 0.04519
823.20 0.04522
823.30 0.04525
823.40 0.04528
823.50 0.04531
823.60 0.04534
823.70 0.04537
823.80 0.04539
823.90 0.04542
824.00 0.04545
824.10 0.04548
824.20 0.04551
824.30 0.04554
824.40 0.04557
824.50 0.0456
824.60 0.04563
824.70 0.04565
824.80 0.04568
824.90 0.04571
825.00 0.04574
825.10 0.04577
825.20 0.0458
825.30 0.04583
825.40 0.04586
825.50 0.04588
825.60 0.04591
825.70 0.04594
825.80 0.04597
825.90 0.046
826.00 0.04603
826.10 0.04606
826.20 0.04609
826.30 0.04611
826.40 0.04614
826.50 0.04617
826.60 0.0462
826.70 0.04623
826.80 0.04626
826.90 0.04628
827.00 0.04631
827.10 0.04635
827.20 0.04638
827.30 0.04641
827.40 0.04645
827.50 0.04648
827.60 0.04652
827.70 0.04655
827.80 0.04658
827.90 0.04662
828.00 0.04665
828.10 0.04668
828.20 0.04672
828.30 0.04675
828.40 0.04678
828.50 0.04682
828.60 0.04685
828.70 0.04688
828.80 0.04692
828.90 0.04695
829.00 0.04698
829.10 0.04702
829.20 0.04705
829.30 0.04708
829.40 0.04712
829.50 0.04715
829.60 0.04718
829.70 0.04722
829.80 0.04725
829.90 0.04728
830.00 0.04732
830.10 0.04735
830.20 0.04738
830.30 0.04742
830.40 0.04745
830.50 0.04748
830.60 0.04751
830.70 0.04755
830.80 0.04758
830.90 0.04761
831.00 0.04765
831.10 0.04768
831.20 0.04771
831.30 0.04775
831.40 0.04778
831.50 0.04781
831.60 0.04784
831.70 0.04788
831.80 0.04791
831.90 0.04794
832.00 0.04798
832.10 0.048
832.20 0.04803
832.30 0.04805
832.40 0.04808
832.50 0.0481
832.60 0.04813
832.70 0.04816
832.80 0.04818
832.90 0.04821
833.00 0.04823
833.10 0.04826
833.20 0.04829
833.30 0.04831
833.40 0.04834
833.50 0.04836
833.60 0.04839
833.70 0.04841
833.80 0.04844
833.90 0.04847
834.00 0.04849
834.10 0.04852
834.20 0.04854
834.30 0.04857
834.40 0.04859
834.50 0.04862
834.60 0.04864
834.70 0.04867
834.80 0.0487
834.90 0.04872
835.00 0.04875
835.10 0.04877
835.20 0.0488
835.30 0.04882
835.40 0.04885
835.50 0.04887
835.60 0.0489
835.70 0.04892
835.80 0.04895
835.90 0.04898
836.00 0.049
836.10 0.04903
836.20 0.04905
836.30 0.04908
836.40 0.0491
836.50 0.04913
836.60 0.04915
836.70 0.04918
836.80 0.0492
836.90 0.04923
837.00 0.04925
837.10 0.04927
837.20 0.04929
837.30 0.04932
837.40 0.04934
837.50 0.04936
837.60 0.04938
837.70 0.0494
837.80 0.04942
837.90 0.04944
838.00 0.04946
838.10 0.04948
838.20 0.0495
838.30 0.04952
838.40 0.04954
838.50 0.04956
838.60 0.04958
838.70 0.0496
838.80 0.04962
838.90 0.04964
839.00 0.04966
839.10 0.04968
839.20 0.0497
839.30 0.04972
839.40 0.04974
839.50 0.04976
839.60 0.04978
839.70 0.0498
839.80 0.04982
839.90 0.04984
840.00 0.04986
840.10 0.04988
840.20 0.0499
840.30 0.04992
840.40 0.04994
840.50 0.04997
840.60 0.04999
840.70 0.05001
840.80 0.05003
840.90 0.05005
841.00 0.05007
841.10 0.05009
841.20 0.05011
841.30 0.05013
841.40 0.05015
841.50 0.05017
841.60 0.05019
841.70 0.05021
841.80 0.05023
841.90 0.05025
842.00 0.05027
842.10 0.05028
842.20 0.0503
842.30 0.05031
842.40 0.05033
842.50 0.05034
842.60 0.05036
842.70 0.05037
842.80 0.05039
842.90 0.0504
843.00 0.05042
843.10 0.05043
843.20 0.05045
843.30 0.05046
843.40 0.05048
843.50 0.05049
843.60 0.05051
843.70 0.05052
843.80 0.05054
843.90 0.05055
844.00 0.05057
844.10 0.05058
844.20 0.0506
844.30 0.05061
844.40 0.05063
844.50 0.05064
844.60 0.05066
844.70 0.05067
844.80 0.05069
844.90 0.0507
845.00 0.05072
845.10 0.05073
845.20 0.05075
845.30 0.05076
845.40 0.05078
845.50 0.05079
845.60 0.05081
845.70 0.05082
845.80 0.05084
845.90 0.05085
846.00 0.05087
846.10 0.05088
846.20 0.0509
846.30 0.05091
846.40 0.05093
846.50 0.05094
846.60 0.05096
846.70 0.05097
846.80 0.05099
846.90 0.051
847.00 0.05102
847.10 0.05103
847.20 0.05105
847.30 0.05107
847.40 0.05108
847.50 0.0511
847.60 0.05112
847.70 0.05113
847.80 0.05115
847.90 0.05117
848.00 0.05118
848.10 0.0512
848.20 0.05122
848.30 0.05123
848.40 0.05125
848.50 0.05127
848.60 0.05128
848.70 0.0513
848.80 0.05132
848.90 0.05133
849.00 0.05135
849.10 0.05137
849.20 0.05139
849.30 0.0514
849.40 0.05142
849.50 0.05144
849.60 0.05145
849.70 0.05147
849.80 0.05149
849.90 0.0515
850.00 0.05152
850.10 0.05154
850.20 0.05155
850.30 0.05157
850.40 0.05158
850.50 0.0516
850.60 0.05162
850.70 0.05163
850.80 0.05165
850.90 0.05167
851.00 0.05168
851.10 0.0517
851.20 0.05172
851.30 0.05173
851.40 0.05175
851.50 0.05177
851.60 0.05178
851.70 0.0518
851.80 0.05182
851.90 0.05183
852.00 0.05185
852.10 0.05187
852.20 0.05189
852.30 0.05191
852.40 0.05193
852.50 0.05195
852.60 0.05197
852.70 0.05199
852.80 0.05201
852.90 0.05203
853.00 0.05205
853.10 0.05207
853.20 0.05209
853.30 0.05211
853.40 0.05213
853.50 0.05215
853.60 0.05217
853.70 0.05219
853.80 0.05221
853.90 0.05222
854.00 0.05224
854.10 0.05226
854.20 0.05228
854.30 0.0523
854.40 0.05232
854.50 0.05234
854.60 0.05236
854.70 0.05238
854.80 0.0524
854.90 0.05242
855.00 0.05244
855.10 0.05246
855.20 0.05248
855.30 0.0525
855.40 0.05252
855.50 0.05254
855.60 0.05256
855.70 0.05258
855.80 0.0526
855.90 0.05262
856.00 0.05264
856.10 0.05266
856.20 0.05267
856.30 0.05269
856.40 0.05271
856.50 0.05273
856.60 0.05275
856.70 0.05277
856.80 0.05279
856.90 0.05281
857.00 0.05283
857.10 0.05285
857.20 0.05288
857.30 0.0529
857.40 0.05292
857.50 0.05294
857.60 0.05297
857.70 0.05299
857.80 0.05301
857.90 0.05304
858.00 0.05306
858.10 0.05308
858.20 0.05311
858.30 0.05313
858.40 0.05315
858.50 0.05317
858.60 0.0532
858.70 0.05322
858.80 0.05324
858.90 0.05327
859.00 0.05329
859.10 0.05331
859.20 0.05333
859.30 0.05336
859.40 0.05338
859.50 0.0534
859.60 0.05343
859.70 0.05345
859.80 0.05347
859.90 0.05349
860.00 0.05352
860.10 0.05354
860.20 0.05356
860.30 0.05358
860.40 0.05361
860.50 0.05363
860.60 0.05365
860.70 0.05367
860.80 0.0537
860.90 0.05372
861.00 0.05374
861.10 0.05377
861.20 0.05379
861.30 0.05381
861.40 0.05383
861.50 0.05386
861.60 0.05388
861.70 0.0539
861.80 0.05392
861.90 0.05395
862.00 0.05397
862.10 0.054
862.20 0.05402
862.30 0.05405
862.40 0.05408
862.50 0.05411
862.60 0.05414
862.70 0.05417
862.80 0.0542
862.90 0.05422
863.00 0.05425
863.10 0.05428
863.20 0.05431
863.30 0.05434
863.40 0.05436
863.50 0.05439
863.60 0.05442
863.70 0.05445
863.80 0.05448
863.90 0.05451
864.00 0.05453
864.10 0.05456
864.20 0.05459
864.30 0.05462
864.40 0.05465
864.50 0.05467
864.60 0.0547
864.70 0.05473
864.80 0.05476
864.90 0.05479
865.00 0.05482
865.10 0.05484
865.20 0.05487
865.30 0.0549
865.40 0.05493
865.50 0.05496
865.60 0.05498
865.70 0.05501
865.80 0.05504
865.90 0.05507
866.00 0.05509
866.10 0.05512
866.20 0.05515
866.30 0.05518
866.40 0.05521
866.50 0.05523
866.60 0.05526
866.70 0.05529
866.80 0.05532
866.90 0.05535
867.00 0.05537
867.10 0.0554
867.20 0.05542
867.30 0.05545
867.40 0.05547
867.50 0.0555
867.60 0.05552
867.70 0.05555
867.80 0.05557
867.90 0.05559
868.00 0.05562
868.10 0.05564
868.20 0.05567
868.30 0.05569
868.40 0.05572
868.50 0.05574
868.60 0.05577
868.70 0.05579
868.80 0.05582
868.90 0.05584
869.00 0.05586
869.10 0.05589
869.20 0.05591
869.30 0.05594
869.40 0.05596
869.50 0.05599
869.60 0.05601
869.70 0.05604
869.80 0.05606
869.90 0.05608
870.00 0.05611
870.10 0.05613
870.20 0.05616
870.30 0.05618
870.40 0.05621
870.50 0.05623
870.60 0.05625
870.70 0.05628
870.80 0.0563
870.90 0.05633
871.00 0.05635
871.10 0.05637
871.20 0.0564
871.30 0.05642
871.40 0.05645
871.50 0.05647
871.60 0.0565
871.70 0.05652
871.80 0.05654
871.90 0.05657
872.00 0.05659
872.10 0.05661
872.20 0.05663
872.30 0.05666
872.40 0.05668
872.50 0.0567
872.60 0.05672
872.70 0.05674
872.80 0.05676
872.90 0.05678
873.00 0.0568
873.10 0.05682
873.20 0.05684
873.30 0.05687
873.40 0.05689
873.50 0.05691
873.60 0.05693
873.70 0.05695
873.80 0.05697
873.90 0.05699
874.00 0.05701
874.10 0.05703
874.20 0.05705
874.30 0.05707
874.40 0.0571
874.50 0.05712
874.60 0.05714
874.70 0.05716
874.80 0.05718
874.90 0.0572
875.00 0.05722
875.10 0.05724
875.20 0.05726
875.30 0.05728
875.40 0.0573
875.50 0.05732
875.60 0.05734
875.70 0.05737
875.80 0.05739
875.90 0.05741
876.00 0.05743
876.10 0.05745
876.20 0.05747
876.30 0.05749
876.40 0.05751
876.50 0.05753
876.60 0.05755
876.70 0.05757
876.80 0.05759
876.90 0.05761
877.00 0.05763
877.10 0.05764
877.20 0.05765
877.30 0.05765
877.40 0.05766
877.50 0.05767
877.60 0.05768
877.70 0.05768
877.80 0.05769
877.90 0.0577
878.00 0.0577
878.10 0.05771
878.20 0.05772
878.30 0.05773
878.40 0.05773
878.50 0.05774
878.60 0.05775
878.70 0.05775
878.80 0.05776
878.90 0.05777
879.00 0.05777
879.10 0.05778
879.20 0.05779
879.30 0.0578
879.40 0.0578
879.50 0.05781
879.60 0.05782
879.70 0.05782
879.80 0.05783
879.90 0.05784
880.00 0.05784
880.10 0.05785
880.20 0.05786
880.30 0.05787
880.40 0.05787
880.50 0.05788
880.60 0.05789
880.70 0.05789
880.80 0.0579
880.90 0.05791
881.00 0.05791
881.10 0.05792
881.20 0.05793
881.30 0.05794
881.40 0.05794
881.50 0.05795
881.60 0.05796
881.70 0.05796
881.80 0.05797
881.90 0.05798
882.00 0.05798
882.10 0.05798
882.20 0.05798
882.30 0.05798
882.40 0.05798
882.50 0.05797
882.60 0.05797
882.70 0.05797
882.80 0.05797
882.90 0.05797
883.00 0.05797
883.10 0.05796
883.20 0.05796
883.30 0.05796
883.40 0.05796
883.50 0.05796
883.60 0.05795
883.70 0.05795
883.80 0.05795
883.90 0.05795
884.00 0.05795
884.10 0.05795
884.20 0.05794
884.30 0.05794
884.40 0.05794
884.50 0.05794
884.60 0.05794
884.70 0.05794
884.80 0.05793
884.90 0.05793
885.00 0.05793
885.10 0.05793
885.20 0.05793
885.30 0.05792
885.40 0.05792
885.50 0.05792
885.60 0.05792
885.70 0.05792
885.80 0.05792
885.90 0.05791
886.00 0.05791
886.10 0.05791
886.20 0.05791
886.30 0.05791
886.40 0.0579
886.50 0.0579
886.60 0.0579
886.70 0.0579
886.80 0.0579
886.90 0.0579
887.00 0.05789
887.10 0.05788
887.20 0.05787
887.30 0.05786
887.40 0.05785
887.50 0.05784
887.60 0.05783
887.70 0.05782
887.80 0.05781
887.90 0.0578
888.00 0.05779
888.10 0.05778
888.20 0.05777
888.30 0.05776
888.40 0.05775
888.50 0.05773
888.60 0.05772
888.70 0.05771
888.80 0.0577
888.90 0.05769
889.00 0.05768
889.10 0.05767
889.20 0.05766
889.30 0.05765
889.40 0.05764
889.50 0.05763
889.60 0.05762
889.70 0.05761
889.80 0.0576
889.90 0.05759
890.00 0.05758
890.10 0.05757
890.20 0.05756
890.30 0.05755
890.40 0.05753
890.50 0.05752
890.60 0.05751
890.70 0.0575
890.80 0.05749
890.90 0.05748
891.00 0.05747
891.10 0.05746
891.20 0.05745
891.30 0.05744
891.40 0.05743
891.50 0.05742
891.60 0.05741
891.70 0.0574
891.80 0.05739
891.90 0.05738
892.00 0.05737
892.10 0.05735
892.20 0.05734
892.30 0.05733
892.40 0.05732
892.50 0.0573
892.60 0.05729
892.70 0.05728
892.80 0.05726
892.90 0.05725
893.00 0.05724
893.10 0.05723
893.20 0.05721
893.30 0.0572
893.40 0.05719
893.50 0.05717
893.60 0.05716
893.70 0.05715
893.80 0.05714
893.90 0.05712
894.00 0.05711
894.10 0.0571
894.20 0.05708
894.30 0.05707
894.40 0.05706
894.50 0.05705
894.60 0.05703
894.70 0.05702
894.80 0.05701
894.90 0.05699
895.00 0.05698
895.10 0.05697
895.20 0.05696
895.30 0.05694
895.40 0.05693
895.50 0.05692
895.60 0.05691
895.70 0.05689
895.80 0.05688
895.90 0.05687
896.00 0.05685
896.10 0.05684
896.20 0.05683
896.30 0.05682
896.40 0.0568
896.50 0.05679
896.60 0.05678
896.70 0.05677
896.80 0.05675
896.90 0.05674
897.00 0.05673
897.10 0.05671
897.20 0.05669
897.30 0.05667
897.40 0.05665
897.50 0.05663
897.60 0.05662
897.70 0.0566
897.80 0.05658
897.90 0.05656
898.00 0.05654
898.10 0.05652
898.20 0.05651
898.30 0.05649
898.40 0.05647
898.50 0.05645
898.60 0.05643
898.70 0.05641
898.80 0.05639
898.90 0.05638
899.00 0.05636
899.10 0.05634
899.20 0.05632
899.30 0.0563
899.40 0.05628
899.50 0.05627
899.60 0.05625
899.70 0.05623
899.80 0.05621
899.90 0.05619
900.00 0.05617
900.10 0.05616
900.20 0.05614
900.30 0.05612
900.40 0.0561
900.50 0.05608
900.60 0.05606
900.70 0.05605
900.80 0.05603
900.90 0.05601
901.00 0.05599
901.10 0.05597
901.20 0.05595
901.30 0.05594
901.40 0.05592
901.50 0.0559
901.60 0.05588
901.70 0.05586
901.80 0.05585
901.90 0.05583
902.00 0.05581
902.10 0.05578
902.20 0.05576
902.30 0.05574
902.40 0.05571
902.50 0.05569
902.60 0.05567
902.70 0.05564
902.80 0.05562
902.90 0.0556
903.00 0.05557
903.10 0.05555
903.20 0.05552
903.30 0.0555
903.40 0.05548
903.50 0.05545
903.60 0.05543
903.70 0.05541
903.80 0.05538
903.90 0.05536
904.00 0.05534
904.10 0.05531
904.20 0.05529
904.30 0.05527
904.40 0.05524
904.50 0.05522
904.60 0.05519
904.70 0.05517
904.80 0.05515
904.90 0.05512
905.00 0.0551
905.10 0.05508
905.20 0.05505
905.30 0.05503
905.40 0.05501
905.50 0.05498
905.60 0.05496
905.70 0.05494
905.80 0.05491
905.90 0.05489
906.00 0.05487
906.10 0.05484
906.20 0.05482
906.30 0.0548
906.40 0.05477
906.50 0.05475
906.60 0.05473
906.70 0.0547
906.80 0.05468
906.90 0.05466
907.00 0.05463
907.10 0.0546
907.20 0.05457
907.30 0.05454
907.40 0.05451
907.50 0.05448
907.60 0.05445
907.70 0.05442
907.80 0.05439
907.90 0.05436
908.00 0.05434
908.10 0.05431
908.20 0.05428
908.30 0.05425
908.40 0.05422
908.50 0.05419
908.60 0.05416
908.70 0.05413
908.80 0.0541
908.90 0.05407
909.00 0.05404
909.10 0.05401
909.20 0.05398
909.30 0.05395
909.40 0.05392
909.50 0.05389
909.60 0.05386
909.70 0.05383
909.80 0.0538
909.90 0.05377
910.00 0.05374
910.10 0.05371
910.20 0.05368
910.30 0.05365
910.40 0.05362
910.50 0.0536
910.60 0.05357
910.70 0.05354
910.80 0.05351
910.90 0.05348
911.00 0.05345
911.10 0.05342
911.20 0.05339
911.30 0.05336
911.40 0.05333
911.50 0.0533
911.60 0.05327
911.70 0.05324
911.80 0.05321
911.90 0.05318
912.00 0.05315
912.10 0.05312
912.20 0.05308
912.30 0.05305
912.40 0.05301
912.50 0.05298
912.60 0.05294
912.70 0.05291
912.80 0.05287
912.90 0.05284
913.00 0.0528
913.10 0.05277
913.20 0.05273
913.30 0.0527
913.40 0.05267
913.50 0.05263
913.60 0.0526
913.70 0.05256
913.80 0.05253
913.90 0.05249
914.00 0.05246
914.10 0.05242
914.20 0.05239
914.30 0.05235
914.40 0.05232
914.50 0.05228
914.60 0.05225
914.70 0.05221
914.80 0.05218
914.90 0.05214
915.00 0.05211
915.10 0.05207
915.20 0.05204
915.30 0.05201
915.40 0.05197
915.50 0.05194
915.60 0.0519
915.70 0.05187
915.80 0.05183
915.90 0.0518
916.00 0.05176
916.10 0.05173
916.20 0.0517
916.30 0.05166
916.40 0.05163
916.50 0.05159
916.60 0.05156
916.70 0.05152
916.80 0.05149
916.90 0.05145
917.00 0.05142
917.10 0.05138
917.20 0.05134
917.30 0.0513
917.40 0.05126
917.50 0.05122
917.60 0.05117
917.70 0.05113
917.80 0.05109
917.90 0.05105
918.00 0.05101
918.10 0.05097
918.20 0.05093
918.30 0.05089
918.40 0.05085
918.50 0.05081
918.60 0.05077
918.70 0.05073
918.80 0.05069
918.90 0.05065
919.00 0.0506
919.10 0.05056
919.20 0.05052
919.30 0.05048
919.40 0.05044
919.50 0.0504
919.60 0.05036
919.70 0.05032
919.80 0.05028
919.90 0.05024
920.00 0.0502
920.10 0.05016
920.20 0.05012
920.30 0.05008
920.40 0.05004
920.50 0.05
920.60 0.04996
920.70 0.04992
920.80 0.04988
920.90 0.04984
921.00 0.0498
921.10 0.04976
921.20 0.04972
921.30 0.04968
921.40 0.04963
921.50 0.04959
921.60 0.04955
921.70 0.04951
921.80 0.04947
921.90 0.04943
922.00 0.04939
922.10 0.04935
922.20 0.0493
922.30 0.04926
922.40 0.04921
922.50 0.04917
922.60 0.04912
922.70 0.04908
922.80 0.04903
922.90 0.04899
923.00 0.04894
923.10 0.0489
923.20 0.04886
923.30 0.04881
923.40 0.04877
923.50 0.04872
923.60 0.04868
923.70 0.04863
923.80 0.04859
923.90 0.04854
924.00 0.0485
924.10 0.04845
924.20 0.04841
924.30 0.04836
924.40 0.04832
924.50 0.04828
924.60 0.04823
924.70 0.04819
924.80 0.04814
924.90 0.0481
925.00 0.04805
925.10 0.04801
925.20 0.04796
925.30 0.04792
925.40 0.04788
925.50 0.04783
925.60 0.04779
925.70 0.04774
925.80 0.0477
925.90 0.04765
926.00 0.04761
926.10 0.04756
926.20 0.04752
926.30 0.04748
926.40 0.04743
926.50 0.04739
926.60 0.04734
926.70 0.0473
926.80 0.04726
926.90 0.04721
927.00 0.04717
927.10 0.04712
927.20 0.04707
927.30 0.04702
927.40 0.04697
927.50 0.04692
927.60 0.04688
927.70 0.04683
927.80 0.04678
927.90 0.04673
928.00 0.04668
928.10 0.04663
928.20 0.04658
928.30 0.04654
928.40 0.04649
928.50 0.04644
928.60 0.04639
928.70 0.04634
928.80 0.04629
928.90 0.04624
929.00 0.0462
929.10 0.04615
929.20 0.0461
929.30 0.04605
929.40 0.046
929.50 0.04595
929.60 0.04591
929.70 0.04586
929.80 0.04581
929.90 0.04576
930.00 0.04571
930.10 0.04567
930.20 0.04562
930.30 0.04557
930.40 0.04552
930.50 0.04547
930.60 0.04543
930.70 0.04538
930.80 0.04533
930.90 0.04528
931.00 0.04523
931.10 0.04519
931.20 0.04514
931.30 0.04509
931.40 0.04504
931.50 0.04499
931.60 0.04495
931.70 0.0449
931.80 0.04485
931.90 0.0448
932.00 0.04475
932.10 0.04471
932.20 0.04466
932.30 0.04461
932.40 0.04456
932.50 0.04451
932.60 0.04446
932.70 0.04441
932.80 0.04436
932.90 0.04431
933.00 0.04426
933.10 0.04421
933.20 0.04416
933.30 0.04411
933.40 0.04406
933.50 0.04402
933.60 0.04397
933.70 0.04392
933.80 0.04387
933.90 0.04382
934.00 0.04377
934.10 0.04372
934.20 0.04367
934.30 0.04362
934.40 0.04357
934.50 0.04352
934.60 0.04347
934.70 0.04342
934.80 0.04337
934.90 0.04332
935.00 0.04327
935.10 0.04322
935.20 0.04317
935.30 0.04312
935.40 0.04307
935.50 0.04302
935.60 0.04297
935.70 0.04292
935.80 0.04287
935.90 0.04282
936.00 0.04277
936.10 0.04273
936.20 0.04268
936.30 0.04263
936.40 0.04258
936.50 0.04253
936.60 0.04248
936.70 0.04243
936.80 0.04238
936.90 0.04233
937.00 0.04228
937.10 0.04223
937.20 0.04218
937.30 0.04213
937.40 0.04208
937.50 0.04203
937.60 0.04198
937.70 0.04193
937.80 0.04188
937.90 0.04183
938.00 0.04178
938.10 0.04173
938.20 0.04168
938.30 0.04163
938.40 0.04158
938.50 0.04152
938.60 0.04147
938.70 0.04142
938.80 0.04137
938.90 0.04132
939.00 0.04127
939.10 0.04121
939.20 0.04116
939.30 0.04111
939.40 0.04106
939.50 0.04101
939.60 0.04096
939.70 0.04091
939.80 0.04085
939.90 0.0408
940.00 0.04075
940.10 0.0407
940.20 0.04065
940.30 0.0406
940.40 0.04055
940.50 0.0405
940.60 0.04045
940.70 0.0404
940.80 0.04035
940.90 0.0403
941.00 0.04025
941.10 0.0402
941.20 0.04014
941.30 0.04009
941.40 0.04004
941.50 0.03999
941.60 0.03994
941.70 0.03989
941.80 0.03984
941.90 0.03979
942.00 0.03974
942.10 0.03969
942.20 0.03964
942.30 0.03959
942.40 0.03954
942.50 0.03949
942.60 0.03944
942.70 0.03939
942.80 0.03934
942.90 0.03929
943.00 0.03924
943.10 0.03919
943.20 0.03914
943.30 0.03909
943.40 0.03904
943.50 0.03899
943.60 0.03894
943.70 0.03889
943.80 0.03884
943.90 0.03879
944.00 0.03874
944.10 0.03869
944.20 0.03864
944.30 0.03859
944.40 0.03854
944.50 0.03849
944.60 0.03844
944.70 0.03839
944.80 0.03834
944.90 0.03829
945.00 0.03824
945.10 0.03819
945.20 0.03814
945.30 0.03809
945.40 0.03804
945.50 0.03799
945.60 0.03794
945.70 0.03789
945.80 0.03784
945.90 0.03779
946.00 0.03774
946.10 0.03769
946.20 0.03764
946.30 0.03759
946.40 0.03754
946.50 0.03749
946.60 0.03744
946.70 0.03739
946.80 0.03735
946.90 0.0373
947.00 0.03725
947.10 0.0372
947.20 0.03715
947.30 0.0371
947.40 0.03705
947.50 0.037
947.60 0.03695
947.70 0.0369
947.80 0.03685
947.90 0.0368
948.00 0.03675
948.10 0.0367
948.20 0.03665
948.30 0.0366
948.40 0.03655
948.50 0.0365
948.60 0.03646
948.70 0.03641
948.80 0.03636
948.90 0.03631
949.00 0.03626
949.10 0.03621
949.20 0.03616
949.30 0.03611
949.40 0.03606
949.50 0.03601
949.60 0.03596
949.70 0.03591
949.80 0.03586
949.90 0.03582
950.00 0.03577
950.10 0.03572
950.20 0.03567
950.30 0.03562
950.40 0.03557
950.50 0.03552
950.60 0.03547
950.70 0.03542
950.80 0.03537
950.90 0.03532
951.00 0.03527
951.10 0.03523
951.20 0.03518
951.30 0.03513
951.40 0.03508
951.50 0.03503
951.60 0.03498
951.70 0.03493
951.80 0.03488
951.90 0.03483
952.00 0.03478
952.10 0.03473
952.20 0.03469
952.30 0.03464
952.40 0.03459
952.50 0.03454
952.60 0.03449
952.70 0.03444
952.80 0.03439
952.90 0.03434
953.00 0.03429
953.10 0.03424
953.20 0.0342
953.30 0.03415
953.40 0.0341
953.50 0.03405
953.60 0.034
953.70 0.03395
953.80 0.0339
953.90 0.03385
954.00 0.0338
954.10 0.03376
954.20 0.03371
954.30 0.03366
954.40 0.03361
954.50 0.03356
954.60 0.03351
954.70 0.03346
954.80 0.03342
954.90 0.03337
955.00 0.03332
955.10 0.03327
955.20 0.03322
955.30 0.03317
955.40 0.03312
955.50 0.03308
955.60 0.03303
955.70 0.03298
955.80 0.03293
955.90 0.03288
956.00 0.03283
956.10 0.03278
956.20 0.03273
956.30 0.03268
956.40 0.03264
956.50 0.03259
956.60 0.03254
956.70 0.03249
956.80 0.03244
956.90 0.03239
957.00 0.03234
957.10 0.03229
957.20 0.03225
957.30 0.0322
957.40 0.03215
957.50 0.0321
957.60 0.03205
957.70 0.03201
957.80 0.03196
957.90 0.03191
958.00 0.03186
958.10 0.03181
958.20 0.03177
958.30 0.03172
958.40 0.03167
958.50 0.03162
958.60 0.03157
958.70 0.03153
958.80 0.03148
958.90 0.03143
959.00 0.03138
959.10 0.03133
959.20 0.03129
959.30 0.03124
959.40 0.03119
959.50 0.03114
959.60 0.0311
959.70 0.03105
959.80 0.031
959.90 0.03095
960.00 0.0309
960.10 0.03086
960.20 0.03081
960.30 0.03076
960.40 0.03071
960.50 0.03067
960.60 0.03062
960.70 0.03057
960.80 0.03052
960.90 0.03048
961.00 0.03043
961.10 0.03038
961.20 0.03033
961.30 0.03029
961.40 0.03024
961.50 0.03019
961.60 0.03015
961.70 0.0301
961.80 0.03005
961.90 0.03
962.00 0.02996
962.10 0.02991
962.20 0.02986
962.30 0.02982
962.40 0.02977
962.50 0.02972
962.60 0.02968
962.70 0.02963
962.80 0.02958
962.90 0.02953
963.00 0.02949
963.10 0.02944
963.20 0.02939
963.30 0.02935
963.40 0.0293
963.50 0.02925
963.60 0.02921
963.70 0.02916
963.80 0.02911
963.90 0.02907
964.00 0.02902
964.10 0.02897
964.20 0.02893
964.30 0.02888
964.40 0.02883
964.50 0.02878
964.60 0.02874
964.70 0.02869
964.80 0.02864
964.90 0.02859
965.00 0.02855
965.10 0.0285
965.20 0.02845
965.30 0.0284
965.40 0.02836
965.50 0.02831
965.60 0.02826
965.70 0.02821
965.80 0.02817
965.90 0.02812
966.00 0.02807
966.10 0.02802
966.20 0.02798
966.30 0.02793
966.40 0.02788
966.50 0.02784
966.60 0.02779
966.70 0.02775
966.80 0.0277
966.90 0.02765
967.00 0.02761
967.10 0.02756
967.20 0.02752
967.30 0.02747
967.40 0.02743
967.50 0.02738
967.60 0.02734
967.70 0.02729
967.80 0.02725
967.90 0.0272
968.00 0.02715
968.10 0.02711
968.20 0.02706
968.30 0.02702
968.40 0.02697
968.50 0.02693
968.60 0.02688
968.70 0.02684
968.80 0.02679
968.90 0.02675
969.00 0.02671
969.10 0.02666
969.20 0.02662
969.30 0.02657
969.40 0.02653
969.50 0.02648
969.60 0.02644
969.70 0.02639
969.80 0.02635
969.90 0.02631
970.00 0.02626
970.10 0.02622
970.20 0.02617
970.30 0.02613
970.40 0.02608
970.50 0.02604
970.60 0.026
970.70 0.02595
970.80 0.02591
970.90 0.02587
971.00 0.02582
971.10 0.02578
971.20 0.02573
971.30 0.02569
971.40 0.02565
971.50 0.0256
971.60 0.02556
971.70 0.02552
971.80 0.02547
971.90 0.02543
972.00 0.02538
972.10 0.02534
972.20 0.0253
972.30 0.02526
972.40 0.02521
972.50 0.02517
972.60 0.02513
972.70 0.02508
972.80 0.02504
972.90 0.025
973.00 0.02495
973.10 0.02491
973.20 0.02487
973.30 0.02483
973.40 0.02478
973.50 0.02474
973.60 0.0247
973.70 0.02466
973.80 0.02461
973.90 0.02457
974.00 0.02453
974.10 0.02448
974.20 0.02444
974.30 0.0244
974.40 0.02436
974.50 0.02431
974.60 0.02427
974.70 0.02423
974.80 0.02419
974.90 0.02414
975.00 0.0241
975.10 0.02406
975.20 0.02402
975.30 0.02397
975.40 0.02393
975.50 0.02389
975.60 0.02385
975.70 0.0238
975.80 0.02376
975.90 0.02372
976.00 0.02368
976.10 0.02364
976.20 0.02359
976.30 0.02355
976.40 0.02351
976.50 0.02347
976.60 0.02342
976.70 0.02338
976.80 0.02334
976.90 0.0233
977.00 0.02326
977.10 0.02322
977.20 0.02318
977.30 0.02314
977.40 0.0231
977.50 0.02306
977.60 0.02302
977.70 0.02298
977.80 0.02294
977.90 0.0229
978.00 0.02286
978.10 0.02282
978.20 0.02278
978.30 0.02274
978.40 0.0227
978.50 0.02266
978.60 0.02262
978.70 0.02258
978.80 0.02254
978.90 0.0225
979.00 0.02246
979.10 0.02242
979.20 0.02238
979.30 0.02234
979.40 0.0223
979.50 0.02226
979.60 0.02222
979.70 0.02218
979.80 0.02214
979.90 0.0221
980.00 0.02206
980.10 0.02202
980.20 0.02198
980.30 0.02194
980.40 0.0219
980.50 0.02186
980.60 0.02183
980.70 0.02179
980.80 0.02175
980.90 0.02171
981.00 0.02167
981.10 0.02163
981.20 0.02159
981.30 0.02155
981.40 0.02151
981.50 0.02147
981.60 0.02143
981.70 0.02139
981.80 0.02135
981.90 0.02131
982.00 0.02127
982.10 0.02124
982.20 0.0212
982.30 0.02116
982.40 0.02112
982.50 0.02109
982.60 0.02105
982.70 0.02101
982.80 0.02097
982.90 0.02093
983.00 0.0209
983.10 0.02086
983.20 0.02082
983.30 0.02078
983.40 0.02075
983.50 0.02071
983.60 0.02067
983.70 0.02063
983.80 0.0206
983.90 0.02056
984.00 0.02052
984.10 0.02048
984.20 0.02044
984.30 0.02041
984.40 0.02037
984.50 0.02033
984.60 0.02029
984.70 0.02026
984.80 0.02022
984.90 0.02019
985.00 0.02015
985.10 0.02012
985.20 0.02008
985.30 0.02005
985.40 0.02001
985.50 0.01998
985.60 0.01994
985.70 0.01991
985.80 0.01987
985.90 0.01984
986.00 0.0198
986.10 0.01977
986.20 0.01973
986.30 0.0197
986.40 0.01966
986.50 0.01963
986.60 0.01959
986.70 0.01956
986.80 0.01952
986.90 0.01949
987.00 0.01945
987.10 0.01942
987.20 0.01938
987.30 0.01934
987.40 0.01931
987.50 0.01927
987.60 0.01923
987.70 0.0192
987.80 0.01916
987.90 0.01913
988.00 0.01909
988.10 0.01905
988.20 0.01902
988.30 0.01898
988.40 0.01894
988.50 0.01891
988.60 0.01887
988.70 0.01883
988.80 0.0188
988.90 0.01876
989.00 0.01873
989.10 0.01869
989.20 0.01865
989.30 0.01862
989.40 0.01858
989.50 0.01854
989.60 0.01851
989.70 0.01847
989.80 0.01844
989.90 0.0184
990.00 0.01836
990.10 0.01833
990.20 0.01829
990.30 0.01825
990.40 0.01822
990.50 0.01818
990.60 0.01815
990.70 0.01811
990.80 0.01807
990.90 0.01804
991.00 0.018
991.10 0.01797
991.20 0.01793
991.30 0.01789
991.40 0.01786
991.50 0.01782
991.60 0.01779
991.70 0.01775
991.80 0.01772
991.90 0.01768
992.00 0.01764
992.10 0.01761
992.20 0.01757
992.30 0.01754
992.40 0.0175
992.50 0.01746
992.60 0.01743
992.70 0.01739
992.80 0.01736
992.90 0.01732
993.00 0.01729
993.10 0.01725
993.20 0.01722
993.30 0.01718
993.40 0.01714
993.50 0.01711
993.60 0.01707
993.70 0.01704
993.80 0.017
993.90 0.01697
994.00 0.01693
994.10 0.0169
994.20 0.01686
994.30 0.01683
994.40 0.01679
994.50 0.01675
994.60 0.01672
994.70 0.01668
994.80 0.01663
994.90 0.01659
995.00 0.01654
995.10 0.0165
995.20 0.01646
995.30 0.01641
995.40 0.01637
995.50 0.01632
995.60 0.01628
995.70 0.01624
995.80 0.01621
995.90 0.01617
996.00 0.01614
996.10 0.01611
996.20 0.01607
996.30 0.01604
996.40 0.016
996.50 0.01597
996.60 0.01594
996.70 0.0159
996.80 0.01587
996.90 0.01584
997.00 0.0158
997.10 0.01577
997.20 0.01574
997.30 0.0157
997.40 0.01567
997.50 0.01564
997.60 0.0156
997.70 0.01557
997.80 0.01554
997.90 0.01551
998.00 0.01548
998.10 0.01544
998.20 0.01541
998.30 0.01538
998.40 0.01535
998.50 0.01532
998.60 0.01528
998.70 0.01525
998.80 0.01522
998.90 0.01519
999.00 0.01516
999.10 0.01513
999.20 0.01509
999.30 0.01506
999.40 0.01503
999.50 0.015
999.60 0.01497
999.70 0.01494
999.80 0.01491
999.90 0.01487
1000.00 0.01484
1000.10 0.01481
1000.20 0.01478
1000.30 0.01475
1000.40 0.01472
1000.50 0.01469
1000.60 0.01466
1000.70 0.01463
1000.80 0.0146
1000.90 0.01457
1001.00 0.01454
1001.10 0.01451
1001.20 0.01448
1001.30 0.01445
1001.40 0.01442
1001.50 0.01439
1001.60 0.01436
1001.70 0.01433
1001.80 0.0143
1001.90 0.01427
1002.00 0.01424
1002.10 0.01422
1002.20 0.01419
1002.30 0.01416
1002.40 0.01413
1002.50 0.0141
1002.60 0.01407
1002.70 0.01404
1002.80 0.01402
1002.90 0.01399
1003.00 0.01396
1003.10 0.01393
1003.20 0.0139
1003.30 0.01387
1003.40 0.01385
1003.50 0.01382
1003.60 0.01379
1003.70 0.01376
1003.80 0.01373
1003.90 0.01371
1004.00 0.01368
1004.10 0.01365
1004.20 0.01362
1004.30 0.0136
1004.40 0.01357
1004.50 0.01354
1004.60 0.01351
1004.70 0.01349
1004.80 0.01346
1004.90 0.01342
1005.00 0.01338
1005.10 0.01335
1005.20 0.01333
1005.30 0.0133
1005.40 0.01327
1005.50 0.01325
1005.60 0.01322
1005.70 0.0132
1005.80 0.01317
1005.90 0.01314
1006.00 0.01312
1006.10 0.01309
1006.20 0.01307
1006.30 0.01304
1006.40 0.01301
1006.50 0.01299
1006.60 0.01296
1006.70 0.01294
1006.80 0.01291
1006.90 0.01289
1007.00 0.01286
1007.10 0.01284
1007.20 0.01281
1007.30 0.01279
1007.40 0.01276
1007.50 0.01274
1007.60 0.01271
1007.70 0.01269
1007.80 0.01266
1007.90 0.01264
1008.00 0.01262
1008.10 0.01259
1008.20 0.01257
1008.30 0.01255
1008.40 0.01252
1008.50 0.0125
1008.60 0.01247
1008.70 0.01245
1008.80 0.01243
1008.90 0.0124
1009.00 0.01238
1009.10 0.01236
1009.20 0.01233
1009.30 0.01231
1009.40 0.01228
1009.50 0.01226
1009.60 0.01224
1009.70 0.01221
1009.80 0.01219
1009.90 0.01217
1010.00 0.01215
1010.10 0.01213
1010.20 0.0121
1010.30 0.01208
1010.40 0.01206
1010.50 0.01204
1010.60 0.01201
1010.70 0.01199
1010.80 0.01197
1010.90 0.01195
1011.00 0.01193
1011.10 0.0119
1011.20 0.01188
1011.30 0.01186
1011.40 0.01184
1011.50 0.01182
1011.60 0.01179
1011.70 0.01177
1011.80 0.01175
1011.90 0.01173
1012.00 0.01171
1012.10 0.01169
1012.20 0.01167
1012.30 0.01165
1012.40 0.01163
1012.50 0.0116
1012.60 0.01158
1012.70 0.01156
1012.80 0.01154
1012.90 0.01152
1013.00 0.0115
1013.10 0.01148
1013.20 0.01146
1013.30 0.01144
1013.40 0.01142
1013.50 0.0114
1013.60 0.01138
1013.70 0.01136
1013.80 0.01134
1013.90 0.01132
1014.00 0.0113
1014.10 0.01128
1014.20 0.01126
1014.30 0.01124
1014.40 0.01122
1014.50 0.0112
1014.60 0.01118
1014.70 0.01116
1014.80 0.01115
1014.90 0.01113
1015.00 0.01111
1015.10 0.0111
1015.20 0.01108
1015.30 0.01106
1015.40 0.01105
1015.50 0.01103
1015.60 0.01101
1015.70 0.01099
1015.80 0.01098
1015.90 0.01096
1016.00 0.01094
1016.10 0.01093
1016.20 0.01091
1016.30 0.01089
1016.40 0.01088
1016.50 0.01086
1016.60 0.01084
1016.70 0.01083
1016.80 0.01081
1016.90 0.01079
1017.00 0.01077
1017.10 0.01075
1017.20 0.01073
1017.30 0.01072
1017.40 0.0107
1017.50 0.01068
1017.60 0.01066
1017.70 0.01064
1017.80 0.01063
1017.90 0.01061
1018.00 0.01059
1018.10 0.01057
1018.20 0.01055
1018.30 0.01054
1018.40 0.01052
1018.50 0.0105
1018.60 0.01048
1018.70 0.01046
1018.80 0.01045
1018.90 0.01043
1019.00 0.01041
1019.10 0.01039
1019.20 0.01038
1019.30 0.01036
1019.40 0.01034
1019.50 0.01032
1019.60 0.01031
1019.70 0.01029
1019.80 0.01027
1019.90 0.01025
1020.00 0.01024
1020.10 0.01022
1020.20 0.0102
1020.30 0.01018
1020.40 0.01017
1020.50 0.01015
1020.60 0.01013
1020.70 0.01012
1020.80 0.0101
1020.90 0.01008
1021.00 0.01006
1021.10 0.01005
1021.20 0.01003
1021.30 0.01001
1021.40 0.009997
1021.50 0.00998
1021.60 0.009963
1021.70 0.009946
1021.80 0.009929
1021.90 0.009912
1022.00 0.009895
1022.10 0.009879
1022.20 0.009863
1022.30 0.009846
1022.40 0.00983
1022.50 0.009814
1022.60 0.009797
1022.70 0.009781
1022.80 0.009765
1022.90 0.009749
1023.00 0.009732
1023.10 0.009716
1023.20 0.0097
1023.30 0.009683
1023.40 0.009667
1023.50 0.009651
1023.60 0.009635
1023.70 0.009618
1023.80 0.009602
1023.90 0.009586
1024.00 0.00957
1024.10 0.009554
1024.20 0.009537
1024.30 0.009521
1024.40 0.009505
1024.50 0.009489
1024.60 0.009473
1024.70 0.009456
1024.80 0.00944
1024.90 0.009424
1025.00 0.009408
1025.10 0.009392
1025.20 0.009376
1025.30 0.00936
1025.40 0.009344
1025.50 0.009328
1025.60 0.009312
1025.70 0.009296
1025.80 0.00928
1025.90 0.009264
1026.00 0.009248
1026.10 0.009232
1026.20 0.009216
1026.30 0.0092
1026.40 0.009184
1026.50 0.009168
1026.60 0.009152
1026.70 0.009136
1026.80 0.00912
1026.90 0.009104
1027.00 0.009088
1027.10 0.009074
1027.20 0.00906
1027.30 0.009045
1027.40 0.009031
1027.50 0.009017
1027.60 0.009003
1027.70 0.008988
1027.80 0.008974
1027.90 0.00896
1028.00 0.008946
1028.10 0.008931
1028.20 0.008917
1028.30 0.008903
1028.40 0.008889
1028.50 0.008874
1028.60 0.00886
1028.70 0.008846
1028.80 0.008832
1028.90 0.008818
1029.00 0.008804
1029.10 0.008789
1029.20 0.008775
1029.30 0.008761
1029.40 0.008747
1029.50 0.008733
1029.60 0.008719
1029.70 0.008704
1029.80 0.00869
1029.90 0.008676
1030.00 0.008662
1030.10 0.008648
1030.20 0.008634
1030.30 0.00862
1030.40 0.008606
1030.50 0.008591
1030.60 0.008577
1030.70 0.008563
1030.80 0.008549
1030.90 0.008535
1031.00 0.008521
1031.10 0.008507
1031.20 0.008493
1031.30 0.008479
1031.40 0.008465
1031.50 0.008451
1031.60 0.008437
1031.70 0.008423
1031.80 0.008409
1031.90 0.008395
1032.00 0.008381
1032.10 0.008368
1032.20 0.008355
1032.30 0.008342
1032.40 0.00833
1032.50 0.008317
1032.60 0.008304
1032.70 0.008291
1032.80 0.008279
1032.90 0.008266
1033.00 0.008253
1033.10 0.00824
1033.20 0.008228
1033.30 0.008215
1033.40 0.008202
1033.50 0.00819
1033.60 0.008177
1033.70 0.008164
1033.80 0.008152
1033.90 0.008139
1034.00 0.008126
1034.10 0.008114
1034.20 0.008101
1034.30 0.008088
1034.40 0.008076
1034.50 0.008063
1034.60 0.00805
1034.70 0.008038
1034.80 0.008025
1034.90 0.008012
1035.00 0.008
1035.10 0.007987
1035.20 0.007974
1035.30 0.007962
1035.40 0.007949
1035.50 0.007937
1035.60 0.007924
1035.70 0.007911
1035.80 0.007899
1035.90 0.007886
1036.00 0.007874
1036.10 0.007861
1036.20 0.007849
1036.30 0.007836
1036.40 0.007823
1036.50 0.007811
1036.60 0.007798
1036.70 0.007786
1036.80 0.007773
1036.90 0.007761
1037.00 0.007748
1037.10 0.007737
1037.20 0.007726
1037.30 0.007715
1037.40 0.007704
1037.50 0.007693
1037.60 0.007683
1037.70 0.007672
1037.80 0.007661
1037.90 0.00765
1038.00 0.007639
1038.10 0.007628
1038.20 0.007617
1038.30 0.007606
1038.40 0.007595
1038.50 0.007584
1038.60 0.007573
1038.70 0.007563
1038.80 0.007552
1038.90 0.007541
1039.00 0.00753
1039.10 0.007519
1039.20 0.007508
1039.30 0.007497
1039.40 0.007487
1039.50 0.007476
1039.60 0.007465
1039.70 0.007454
1039.80 0.007443
1039.90 0.007432
1040.00 0.007421
1040.10 0.007411
1040.20 0.0074
1040.30 0.007389
1040.40 0.007378
1040.50 0.007367
1040.60 0.007357
1040.70 0.007346
1040.80 0.007335
1040.90 0.007324
1041.00 0.007313
1041.10 0.007303
1041.20 0.007292
1041.30 0.007281
1041.40 0.00727
1041.50 0.007259
1041.60 0.007249
1041.70 0.007238
1041.80 0.007227
1041.90 0.007216
1042.00 0.007206
1042.10 0.007196
1042.20 0.007187
1042.30 0.007177
1042.40 0.007168
1042.50 0.007159
1042.60 0.007149
1042.70 0.00714
1042.80 0.007131
1042.90 0.007121
1043.00 0.007112
1043.10 0.007103
1043.20 0.007093
1043.30 0.007084
1043.40 0.007074
1043.50 0.007065
1043.60 0.007056
1043.70 0.007046
1043.80 0.007037
1043.90 0.007028
1044.00 0.007018
1044.10 0.007009
1044.20 0.007
1044.30 0.00699
1044.40 0.006981
1044.50 0.006972
1044.60 0.006962
1044.70 0.006953
1044.80 0.006944
1044.90 0.006935
1045.00 0.006925
1045.10 0.006916
1045.20 0.006907
1045.30 0.006897
1045.40 0.006888
1045.50 0.006879
1045.60 0.00687
1045.70 0.00686
1045.80 0.006851
1045.90 0.006842
1046.00 0.006833
1046.10 0.006823
1046.20 0.006814
1046.30 0.006805
1046.40 0.006795
1046.50 0.006786
1046.60 0.006777
1046.70 0.006768
1046.80 0.006759
1046.90 0.006749
1047.00 0.00674
1047.10 0.006732
1047.20 0.006724
1047.30 0.006716
1047.40 0.006708
1047.50 0.0067
1047.60 0.006692
1047.70 0.006684
1047.80 0.006676
1047.90 0.006668
1048.00 0.00666
1048.10 0.006653
1048.20 0.006645
1048.30 0.006637
1048.40 0.006629
1048.50 0.006621
1048.60 0.006613
1048.70 0.006605
1048.80 0.006597
1048.90 0.006589
1049.00 0.006581
1049.10 0.006573
1049.20 0.006565
1049.30 0.006557
1049.40 0.00655
1049.50 0.006542
1049.60 0.006534
1049.70 0.006526
1049.80 0.006518
1049.90 0.00651
1050.00 0.006502
1050.10 0.006494
1050.20 0.006486
1050.30 0.006479
1050.40 0.006471
1050.50 0.006463
1050.60 0.006455
1050.70 0.006447
1050.80 0.006439
1050.90 0.006431
1051.00 0.006423
1051.10 0.006416
1051.20 0.006408
1051.30 0.0064
1051.40 0.006392
1051.50 0.006384
1051.60 0.006376
1051.70 0.006369
1051.80 0.006361
1051.90 0.006353
1052.00 0.006345
1052.10 0.006338
1052.20 0.006331
1052.30 0.006323
1052.40 0.006316
1052.50 0.006309
1052.60 0.006302
1052.70 0.006295
1052.80 0.006287
1052.90 0.00628
1053.00 0.006273
1053.10 0.006266
1053.20 0.006259
1053.30 0.006251
1053.40 0.006244
1053.50 0.006237
1053.60 0.00623
1053.70 0.006223
1053.80 0.006215
1053.90 0.006208
1054.00 0.006201
1054.10 0.006194
1054.20 0.006187
1054.30 0.00618
1054.40 0.006172
1054.50 0.006165
1054.60 0.006158
1054.70 0.006151
1054.80 0.006144
1054.90 0.006137
1055.00 0.006129
1055.10 0.006122
1055.20 0.006115
1055.30 0.006108
1055.40 0.006101
1055.50 0.006094
1055.60 0.006087
1055.70 0.006079
1055.80 0.006072
1055.90 0.006065
1056.00 0.006058
1056.10 0.006051
1056.20 0.006044
1056.30 0.006037
1056.40 0.00603
1056.50 0.006023
1056.60 0.006015
1056.70 0.006008
1056.80 0.006001
1056.90 0.005994
1057.00 0.005987
1057.10 0.005981
1057.20 0.005974
1057.30 0.005968
1057.40 0.005961
1057.50 0.005955
1057.60 0.005949
1057.70 0.005942
1057.80 0.005936
1057.90 0.005929
1058.00 0.005923
1058.10 0.005917
1058.20 0.00591
1058.30 0.005904
1058.40 0.005898
1058.50 0.005891
1058.60 0.005885
1058.70 0.005878
1058.80 0.005872
1058.90 0.005866
1059.00 0.005859
1059.10 0.005853
1059.20 0.005847
1059.30 0.00584
1059.40 0.005834
1059.50 0.005828
1059.60 0.005821
1059.70 0.005815
1059.80 0.005809
1059.90 0.005802
1060.00 0.005796
1060.10 0.00579
1060.20 0.005783
1060.30 0.005777
1060.40 0.005771
1060.50 0.005764
1060.60 0.005758
1060.70 0.005752
1060.80 0.005745
1060.90 0.005739
1061.00 0.005733
1061.10 0.005726
1061.20 0.00572
1061.30 0.005714
1061.40 0.005707
1061.50 0.005701
1061.60 0.005695
1061.70 0.005689
1061.80 0.005682
1061.90 0.005676
1062.00 0.00567
1062.10 0.005664
1062.20 0.005659
1062.30 0.005653
1062.40 0.005647
1062.50 0.005642
1062.60 0.005636
1062.70 0.005631
1062.80 0.005625
1062.90 0.00562
1063.00 0.005614
1063.10 0.005609
1063.20 0.005603
1063.30 0.005598
1063.40 0.005592
1063.50 0.005587
1063.60 0.005581
1063.70 0.005576
1063.80 0.00557
1063.90 0.005565
1064.00 0.005559
1064.10 0.005554
1064.20 0.005548
1064.30 0.005543
1064.40 0.005537
1064.50 0.005532
1064.60 0.005526
1064.70 0.005521
1064.80 0.005515
1064.90 0.00551
1065.00 0.005504
1065.10 0.005499
1065.20 0.005493
1065.30 0.005488
1065.40 0.005482
1065.50 0.005477
1065.60 0.005471
1065.70 0.005466
1065.80 0.00546
1065.90 0.005455
1066.00 0.005449
1066.10 0.005444
1066.20 0.005438
1066.30 0.005433
1066.40 0.005428
1066.50 0.005422
1066.60 0.005417
1066.70 0.005411
1066.80 0.005406
1066.90 0.0054
1067.00 0.005395
1067.10 0.00539
1067.20 0.005385
1067.30 0.00538
1067.40 0.005374
1067.50 0.005369
1067.60 0.005364
1067.70 0.005359
1067.80 0.005354
1067.90 0.005349
1068.00 0.005344
1068.10 0.005339
1068.20 0.005334
1068.30 0.005329
1068.40 0.005324
1068.50 0.005319
1068.60 0.005314
1068.70 0.005309
1068.80 0.005304
1068.90 0.005298
1069.00 0.005293
1069.10 0.005288
1069.20 0.005283
1069.30 0.005278
1069.40 0.005273
1069.50 0.005268
1069.60 0.005263
1069.70 0.005258
1069.80 0.005253
1069.90 0.005248
1070.00 0.005243
1070.10 0.005238
1070.20 0.005233
1070.30 0.005228
1070.40 0.005223
1070.50 0.005218
1070.60 0.005213
1070.70 0.005208
1070.80 0.005203
1070.90 0.005198
1071.00 0.005193
1071.10 0.005188
1071.20 0.005183
1071.30 0.005178
1071.40 0.005173
1071.50 0.005168
1071.60 0.005163
1071.70 0.005158
1071.80 0.005153
1071.90 0.005148
1072.00 0.005143
1072.10 0.005139
1072.20 0.005135
1072.30 0.005131
1072.40 0.005127
1072.50 0.005123
1072.60 0.005119
1072.70 0.005115
1072.80 0.005111
1072.90 0.005107
1073.00 0.005103
1073.10 0.005099
1073.20 0.005095
1073.30 0.005091
1073.40 0.005087
1073.50 0.005083
1073.60 0.005079
1073.70 0.005076
1073.80 0.005073
1073.90 0.005069
1074.00 0.005066
1074.10 0.005062
1074.20 0.005059
1074.30 0.005055
1074.40 0.005052
1074.50 0.005049
1074.60 0.005045
1074.70 0.005042
1074.80 0.005038
1074.90 0.005035
1075.00 0.005031
1075.10 0.005028
1075.20 0.005025
1075.30 0.005021
1075.40 0.005018
1075.50 0.005014
1075.60 0.005011
1075.70 0.005008
1075.80 0.005004
1075.90 0.005001
1076.00 0.004997
1076.10 0.004994
1076.20 0.004991
1076.30 0.004987
1076.40 0.004984
1076.50 0.00498
1076.60 0.004977
1076.70 0.004973
1076.80 0.00497
1076.90 0.004967
1077.00 0.004963
1077.10 0.00496
1077.20 0.004957
1077.30 0.004954
1077.40 0.004951
1077.50 0.004948
1077.60 0.004946
1077.70 0.004943
1077.80 0.00494
1077.90 0.004938
1078.00 0.004935
1078.10 0.004932
1078.20 0.004929
1078.30 0.004927
1078.40 0.004924
1078.50 0.004921
1078.60 0.004919
1078.70 0.004916
1078.80 0.004913
1078.90 0.00491
1079.00 0.004908
1079.10 0.004905
1079.20 0.004902
1079.30 0.0049
1079.40 0.004897
1079.50 0.004894
1079.60 0.004892
1079.70 0.00489
1079.80 0.004888
1079.90 0.004886
1080.00 0.004884
1080.10 0.004882
1080.20 0.00488
1080.30 0.004878
1080.40 0.004876
1080.50 0.004874
1080.60 0.004872
1080.70 0.00487
1080.80 0.004868
1080.90 0.004866
1081.00 0.004864
1081.10 0.004862
1081.20 0.00486
1081.30 0.004858
1081.40 0.004856
1081.50 0.004854
1081.60 0.004852
1081.70 0.00485
1081.80 0.004848
1081.90 0.004846
1082.00 0.004844
1082.10 0.004842
1082.20 0.00484
1082.30 0.004838
1082.40 0.004836
1082.50 0.004834
1082.60 0.004833
1082.70 0.004831
1082.80 0.004829
1082.90 0.004827
1083.00 0.004825
1083.10 0.004823
1083.20 0.004821
1083.30 0.004819
1083.40 0.004818
1083.50 0.004816
1083.60 0.004814
1083.70 0.004812
1083.80 0.004811
1083.90 0.004809
1084.00 0.004807
1084.10 0.004806
1084.20 0.004804
1084.30 0.004802
1084.40 0.004801
1084.50 0.004799
1084.60 0.004798
1084.70 0.004796
1084.80 0.004795
1084.90 0.004793
1085.00 0.004792
1085.10 0.004791
1085.20 0.004789
1085.30 0.004788
1085.40 0.004786
1085.50 0.004785
1085.60 0.004783
1085.70 0.004782
1085.80 0.004781
1085.90 0.004779
1086.00 0.004778
1086.10 0.004776
1086.20 0.004775
1086.30 0.004774
1086.40 0.004772
1086.50 0.004771
1086.60 0.00477
1086.70 0.004768
1086.80 0.004767
1086.90 0.004766
1087.00 0.004765
1087.10 0.004764
1087.20 0.004762
1087.30 0.004761
1087.40 0.00476
1087.50 0.004759
1087.60 0.004758
1087.70 0.004757
1087.80 0.004756
1087.90 0.004755
1088.00 0.004754
1088.10 0.004753
1088.20 0.004752
1088.30 0.004751
1088.40 0.00475
1088.50 0.004749
1088.60 0.004748
1088.70 0.004747
1088.80 0.004747
1088.90 0.004746
1089.00 0.004745
1089.10 0.004744
1089.20 0.004744
1089.30 0.004743
1089.40 0.004742
1089.50 0.004741
1089.60 0.00474
1089.70 0.00474
1089.80 0.004739
1089.90 0.004738
1090.00 0.004737
1090.10 0.004737
1090.20 0.004736
1090.30 0.004735
1090.40 0.004734
1090.50 0.004733
1090.60 0.004733
1090.70 0.004733
1090.80 0.004732
1090.90 0.004732
1091.00 0.004731
1091.10 0.004731
1091.20 0.00473
1091.30 0.00473
1091.40 0.004729
1091.50 0.004729
1091.60 0.004728
1091.70 0.004728
1091.80 0.004727
1091.90 0.004727
1092.00 0.004726
1092.10 0.004726
1092.20 0.004725
1092.30 0.004725
1092.40 0.004725
1092.50 0.004725
1092.60 0.004724
1092.70 0.004725
1092.80 0.004729
1092.90 0.004733
1093.00 0.004737
1093.10 0.00474
1093.20 0.00474
1093.30 0.004739
1093.40 0.004739
1093.50 0.004739
1093.60 0.004739
1093.70 0.004739
1093.80 0.004738
1093.90 0.004738
1094.00 0.004738
1094.10 0.004738
1094.20 0.004738
1094.30 0.004738
1094.40 0.004738
1094.50 0.004738
1094.60 0.004737
1094.70 0.004737
1094.80 0.004737
1094.90 0.004737
1095.00 0.004737
1095.10 0.004737
1095.20 0.004737
1095.30 0.004737
1095.40 0.004737
1095.50 0.004737
1095.60 0.004737
1095.70 0.004737
1095.80 0.004737
1095.90 0.004737
1096.00 0.004737
1096.10 0.004736
1096.20 0.004736
1096.30 0.004736
1096.40 0.004736
1096.50 0.004736
1096.60 0.004736
1096.70 0.004736
1096.80 0.004736
1096.90 0.004736
1097.00 0.004736
1097.10 0.004736
1097.20 0.004737
1097.30 0.004737
1097.40 0.004737
1097.50 0.004737
1097.60 0.004737
1097.70 0.004737
1097.80 0.004737
1097.90 0.004737
1098.00 0.004737
1098.10 0.004737
1098.20 0.004737
1098.30 0.004737
1098.40 0.004737
1098.50 0.004738
1098.60 0.004738
1098.70 0.004738
1098.80 0.004738
1098.90 0.004738
1099.00 0.004739
1099.10 0.004739
1099.20 0.004739
1099.30 0.004739
1099.40 0.004739
1099.50 0.00474
1099.60 0.00474
1099.70 0.00474
1099.80 0.00474
1099.90 0.00474
1100.00 0.004741
1100.10 0.004741
1100.20 0.004741
1100.30 0.004741
1100.40 0.004741
1100.50 0.004742
1100.60 0.004742
1100.70 0.004742
1100.80 0.004742
1100.90 0.004743
1101.00 0.004743
1101.10 0.004743
1101.20 0.004744
1101.30 0.004744
1101.40 0.004744
1101.50 0.004744
1101.60 0.004745
1101.70 0.004745
1101.80 0.004745
1101.90 0.004746
1102.00 0.004746
1102.10 0.004746
1102.20 0.004747
1102.30 0.004747
1102.40 0.004747
1102.50 0.004748
1102.60 0.004748
1102.70 0.004749
1102.80 0.004749
1102.90 0.004749
1103.00 0.00475
1103.10 0.00475
1103.20 0.004751
1103.30 0.004751
1103.40 0.004752
1103.50 0.004752
1103.60 0.004752
1103.70 0.004753
1103.80 0.004753
1103.90 0.004753
1104.00 0.004754
1104.10 0.004754
1104.20 0.004754
1104.30 0.004755
1104.40 0.004755
1104.50 0.004755
1104.60 0.004756
1104.70 0.004756
1104.80 0.004756
1104.90 0.004757
1105.00 0.004757
1105.10 0.004757
1105.20 0.004758
1105.30 0.004758
1105.40 0.004758
1105.50 0.004759
1105.60 0.004759
1105.70 0.00476
1105.80 0.004761
1105.90 0.004761
1106.00 0.004762
1106.10 0.004763
1106.20 0.004763
1106.30 0.004764
1106.40 0.004764
1106.50 0.004765
1106.60 0.004766
1106.70 0.004766
1106.80 0.004767
1106.90 0.004768
1107.00 0.004768
1107.10 0.004769
1107.20 0.00477
1107.30 0.00477
1107.40 0.004771
1107.50 0.004772
1107.60 0.004773
1107.70 0.004773
1107.80 0.004774
1107.90 0.004775
1108.00 0.004776
1108.10 0.004777
1108.20 0.004777
1108.30 0.004778
1108.40 0.004779
1108.50 0.00478
1108.60 0.004781
1108.70 0.004782
1108.80 0.004782
1108.90 0.004783
1109.00 0.004784
1109.10 0.004785
1109.20 0.004786
1109.30 0.004786
1109.40 0.004787
1109.50 0.004788
1109.60 0.004789
1109.70 0.00479
1109.80 0.004791
1109.90 0.004792
1110.00 0.004793
1110.10 0.004794
1110.20 0.004795
1110.30 0.004796
1110.40 0.004797
1110.50 0.004798
1110.60 0.004799
1110.70 0.0048
1110.80 0.004801
1110.90 0.004802
1111.00 0.004803
1111.10 0.004804
1111.20 0.004805
1111.30 0.004806
1111.40 0.004807
1111.50 0.004808
1111.60 0.004809
1111.70 0.00481
1111.80 0.004811
1111.90 0.004812
1112.00 0.004813
1112.10 0.004814
1112.20 0.004815
1112.30 0.004816
1112.40 0.004817
1112.50 0.004818
1112.60 0.00482
1112.70 0.004821
1112.80 0.004822
1112.90 0.004823
1113.00 0.004824
1113.10 0.004825
1113.20 0.004826
1113.30 0.004828
1113.40 0.004829
1113.50 0.00483
1113.60 0.004831
1113.70 0.004833
1113.80 0.004834
1113.90 0.004835
1114.00 0.004837
1114.10 0.004838
1114.20 0.004839
1114.30 0.004841
1114.40 0.004842
1114.50 0.004843
1114.60 0.004845
1114.70 0.004846
1114.80 0.004847
1114.90 0.004849
1115.00 0.00485
1115.10 0.004852
1115.20 0.004853
1115.30 0.004854
1115.40 0.004856
1115.50 0.004857
1115.60 0.004858
1115.70 0.00486
1115.80 0.004861
1115.90 0.004862
1116.00 0.004864
1116.10 0.004865
1116.20 0.004866
1116.30 0.004868
1116.40 0.004869
1116.50 0.00487
1116.60 0.004872
1116.70 0.004873
1116.80 0.004874
1116.90 0.004876
1117.00 0.004877
1117.10 0.004879
1117.20 0.00488
1117.30 0.004882
1117.40 0.004883
1117.50 0.004885
1117.60 0.004886
1117.70 0.004888
1117.80 0.00489
1117.90 0.004891
1118.00 0.004893
1118.10 0.004894
1118.20 0.004896
1118.30 0.004898
1118.40 0.004899
1118.50 0.004901
1118.60 0.004902
1118.70 0.004904
1118.80 0.004905
1118.90 0.004907
1119.00 0.004909
1119.10 0.00491
1119.20 0.004912
1119.30 0.004913
1119.40 0.004915
1119.50 0.004917
1119.60 0.004918
1119.70 0.00492
1119.80 0.004921
1119.90 0.004923
1120.00 0.004924
1120.10 0.004926
1120.20 0.004928
1120.30 0.004929
1120.40 0.004931
1120.50 0.004932
1120.60 0.004934
1120.70 0.004935
1120.80 0.004937
1120.90 0.004938
1121.00 0.00494
1121.10 0.004942
1121.20 0.004943
1121.30 0.004945
1121.40 0.004946
1121.50 0.004948
1121.60 0.004949
1121.70 0.004951
1121.80 0.004953
1121.90 0.004954
1122.00 0.004956
1122.10 0.004958
1122.20 0.004961
1122.30 0.004963
1122.40 0.004966
1122.50 0.004969
1122.60 0.004971
1122.70 0.004974
1122.80 0.004977
1122.90 0.004979
1123.00 0.004982
1123.10 0.004984
1123.20 0.004987
1123.30 0.00499
1123.40 0.004992
1123.50 0.004995
1123.60 0.004997
1123.70 0.005
1123.80 0.005003
1123.90 0.005005
1124.00 0.005008
1124.10 0.00501
1124.20 0.005013
1124.30 0.005015
1124.40 0.005018
1124.50 0.005021
1124.60 0.005023
1124.70 0.005026
1124.80 0.005028
1124.90 0.005031
1125.00 0.005034
1125.10 0.005036
1125.20 0.005039
1125.30 0.005041
1125.40 0.005044
1125.50 0.005046
1125.60 0.005049
1125.70 0.005052
1125.80 0.005054
1125.90 0.005057
1126.00 0.005059
1126.10 0.005062
1126.20 0.005064
1126.30 0.005067
1126.40 0.00507
1126.50 0.005072
1126.60 0.005075
1126.70 0.005077
1126.80 0.00508
1126.90 0.005082
1127.00 0.005085
1127.10 0.005089
1127.20 0.005092
1127.30 0.005096
1127.40 0.0051
1127.50 0.005103
1127.60 0.005107
1127.70 0.005111
1127.80 0.005114
1127.90 0.005118
1128.00 0.005122
1128.10 0.005125
1128.20 0.005129
1128.30 0.005133
1128.40 0.005136
1128.50 0.00514
1128.60 0.005143
1128.70 0.005147
1128.80 0.005151
1128.90 0.005154
1129.00 0.005158
1129.10 0.005162
1129.20 0.005165
1129.30 0.005169
1129.40 0.005173
1129.50 0.005176
1129.60 0.00518
1129.70 0.005183
1129.80 0.005187
1129.90 0.005191
1130.00 0.005194
1130.10 0.005198
1130.20 0.005202
1130.30 0.005205
1130.40 0.005209
1130.50 0.005212
1130.60 0.005216
1130.70 0.00522
1130.80 0.005223
1130.90 0.005227
1131.00 0.005231
1131.10 0.005234
1131.20 0.005238
1131.30 0.005241
1131.40 0.005245
1131.50 0.005249
1131.60 0.005252
1131.70 0.005256
1131.80 0.005259
1131.90 0.005263
1132.00 0.005267
1132.10 0.00527
1132.20 0.005274
1132.30 0.005278
1132.40 0.005282
1132.50 0.005286
1132.60 0.00529
1132.70 0.005294
1132.80 0.005298
1132.90 0.005301
1133.00 0.005305
1133.10 0.005309
1133.20 0.005313
1133.30 0.005317
1133.40 0.005321
1133.50 0.005325
1133.60 0.005329
1133.70 0.005332
1133.80 0.005336
1133.90 0.00534
1134.00 0.005344
1134.10 0.005348
1134.20 0.005352
1134.30 0.005356
1134.40 0.005359
1134.50 0.005363
1134.60 0.005367
1134.70 0.005371
1134.80 0.005375
1134.90 0.005379
1135.00 0.005383
1135.10 0.005386
1135.20 0.00539
1135.30 0.005394
1135.40 0.005398
1135.50 0.005402
1135.60 0.005406
1135.70 0.005409
1135.80 0.005413
1135.90 0.005417
1136.00 0.005421
1136.10 0.005425
1136.20 0.005429
1136.30 0.005432
1136.40 0.005436
1136.50 0.00544
1136.60 0.005444
1136.70 0.005448
1136.80 0.005452
1136.90 0.005455
1137.00 0.005459
1137.10 0.005464
1137.20 0.005468
1137.30 0.005472
1137.40 0.005477
1137.50 0.005481
1137.60 0.005485
1137.70 0.00549
1137.80 0.005494
1137.90 0.005498
1138.00 0.005503
1138.10 0.005507
1138.20 0.005511
1138.30 0.005516
1138.40 0.00552
1138.50 0.005524
1138.60 0.005529
1138.70 0.005533
1138.80 0.005537
1138.90 0.005542
1139.00 0.005546
1139.10 0.00555
1139.20 0.005555
1139.30 0.005559
1139.40 0.005563
1139.50 0.005568
1139.60 0.005572
1139.70 0.005576
1139.80 0.005581
1139.90 0.005585
1140.00 0.005589
1140.10 0.005594
1140.20 0.005598
1140.30 0.005602
1140.40 0.005607
1140.50 0.005611
1140.60 0.005615
1140.70 0.00562
1140.80 0.005624
1140.90 0.005628
1141.00 0.005632
1141.10 0.005637
1141.20 0.005641
1141.30 0.005645
1141.40 0.00565
1141.50 0.005654
1141.60 0.005658
1141.70 0.005662
1141.80 0.005667
1141.90 0.005671
1142.00 0.005675
1142.10 0.00568
1142.20 0.005686
1142.30 0.005691
1142.40 0.005696
1142.50 0.005701
1142.60 0.005706
1142.70 0.005711
1142.80 0.005716
1142.90 0.005721
1143.00 0.005727
1143.10 0.005732
1143.20 0.005737
1143.30 0.005742
1143.40 0.005747
1143.50 0.005752
1143.60 0.005757
1143.70 0.005762
1143.80 0.005767
1143.90 0.005772
1144.00 0.005777
1144.10 0.005783
1144.20 0.005788
1144.30 0.005793
1144.40 0.005798
1144.50 0.005803
1144.60 0.005808
1144.70 0.005813
1144.80 0.005818
1144.90 0.005823
1145.00 0.005828
1145.10 0.005833
1145.20 0.005838
1145.30 0.005843
1145.40 0.005849
1145.50 0.005854
1145.60 0.005859
1145.70 0.005864
1145.80 0.005869
1145.90 0.005874
1146.00 0.005879
1146.10 0.005884
1146.20 0.005889
1146.30 0.005894
1146.40 0.005899
1146.50 0.005904
1146.60 0.005909
1146.70 0.005914
1146.80 0.005919
1146.90 0.005924
1147.00 0.005929
1147.10 0.005934
1147.20 0.005939
1147.30 0.005943
1147.40 0.005948
1147.50 0.005953
1147.60 0.005957
1147.70 0.005962
1147.80 0.005966
1147.90 0.005971
1148.00 0.005976
1148.10 0.00598
1148.20 0.005985
1148.30 0.00599
1148.40 0.005994
1148.50 0.005999
1148.60 0.006004
1148.70 0.006008
1148.80 0.006013
1148.90 0.006017
1149.00 0.006022
1149.10 0.006027
1149.20 0.006031
1149.30 0.006036
1149.40 0.006041
1149.50 0.006045
1149.60 0.00605
1149.70 0.006054
1149.80 0.006059
1149.90 0.006064
1150.00 0.006068
1150.10 0.006073
1150.20 0.006077
1150.30 0.006082
1150.40 0.006087
1150.50 0.006091
1150.60 0.006096
1150.70 0.0061
1150.80 0.006105
1150.90 0.00611
1151.00 0.006114
1151.10 0.006119
1151.20 0.006123
1151.30 0.006128
1151.40 0.006133
1151.50 0.006137
1151.60 0.006142
1151.70 0.006146
1151.80 0.006151
1151.90 0.006155
1152.00 0.00616
1152.10 0.006165
1152.20 0.00617
1152.30 0.006175
1152.40 0.00618
1152.50 0.006185
1152.60 0.00619
1152.70 0.006195
1152.80 0.0062
1152.90 0.006205
1153.00 0.00621
1153.10 0.006215
1153.20 0.00622
1153.30 0.006224
1153.40 0.006229
1153.50 0.006234
1153.60 0.006239
1153.70 0.006244
1153.80 0.006249
1153.90 0.006254
1154.00 0.006259
1154.10 0.006264
1154.20 0.006269
1154.30 0.006274
1154.40 0.006279
1154.50 0.006284
1154.60 0.006289
1154.70 0.006294
1154.80 0.006298
1154.90 0.006303
1155.00 0.006308
1155.10 0.006313
1155.20 0.006318
1155.30 0.006323
1155.40 0.006328
1155.50 0.006333
1155.60 0.006338
1155.70 0.006343
1155.80 0.006348
1155.90 0.006352
1156.00 0.006357
1156.10 0.006362
1156.20 0.006367
1156.30 0.006372
1156.40 0.006377
1156.50 0.006382
1156.60 0.006387
1156.70 0.006392
1156.80 0.006396
1156.90 0.006401
1157.00 0.006406
1157.10 0.00641
1157.20 0.006415
1157.30 0.006419
1157.40 0.006423
1157.50 0.006428
1157.60 0.006432
1157.70 0.006436
1157.80 0.00644
1157.90 0.006445
1158.00 0.006449
1158.10 0.006453
1158.20 0.006457
1158.30 0.006462
1158.40 0.006466
1158.50 0.00647
1158.60 0.006475
1158.70 0.006479
1158.80 0.006483
1158.90 0.006487
1159.00 0.006492
1159.10 0.006496
1159.20 0.0065
1159.30 0.006504
1159.40 0.006509
1159.50 0.006513
1159.60 0.006517
1159.70 0.006521
1159.80 0.006526
1159.90 0.00653
1160.00 0.006534
1160.10 0.006538
1160.20 0.006543
1160.30 0.006547
1160.40 0.006551
1160.50 0.006555
1160.60 0.006559
1160.70 0.006564
1160.80 0.006568
1160.90 0.006572
1161.00 0.006576
1161.10 0.006581
1161.20 0.006585
1161.30 0.006589
1161.40 0.006593
1161.50 0.006597
1161.60 0.006602
1161.70 0.006606
1161.80 0.00661
1161.90 0.006614
1162.00 0.006619
1162.10 0.006622
1162.20 0.006626
1162.30 0.00663
1162.40 0.006634
1162.50 0.006638
1162.60 0.006641
1162.70 0.006645
1162.80 0.006649
1162.90 0.006653
1163.00 0.006656
1163.10 0.00666
1163.20 0.006664
1163.30 0.006668
1163.40 0.006672
1163.50 0.006675
1163.60 0.006679
1163.70 0.006683
1163.80 0.006687
1163.90 0.00669
1164.00 0.006694
1164.10 0.006698
1164.20 0.006702
1164.30 0.006706
1164.40 0.006709
1164.50 0.006713
1164.60 0.006717
1164.70 0.006721
1164.80 0.006724
1164.90 0.006728
1165.00 0.006732
1165.10 0.006736
1165.20 0.006739
1165.30 0.006743
1165.40 0.006747
1165.50 0.006751
1165.60 0.006754
1165.70 0.006758
1165.80 0.006762
1165.90 0.006766
1166.00 0.006769
1166.10 0.006773
1166.20 0.006777
1166.30 0.006781
1166.40 0.006784
1166.50 0.006788
1166.60 0.006792
1166.70 0.006796
1166.80 0.006799
1166.90 0.006803
1167.00 0.006807
1167.10 0.006811
1167.20 0.006815
1167.30 0.006818
1167.40 0.006822
1167.50 0.006826
1167.60 0.00683
1167.70 0.006834
1167.80 0.006838
1167.90 0.006841
1168.00 0.006845
1168.10 0.006849
1168.20 0.006853
1168.30 0.006857
1168.40 0.006861
1168.50 0.006864
1168.60 0.006868
1168.70 0.006872
1168.80 0.006876
1168.90 0.00688
1169.00 0.006883
1169.10 0.006887
1169.20 0.006891
1169.30 0.006895
1169.40 0.006899
1169.50 0.006903
1169.60 0.006906
1169.70 0.00691
1169.80 0.006914
1169.90 0.006918
1170.00 0.006922
1170.10 0.006925
1170.20 0.006929
1170.30 0.006933
1170.40 0.006937
1170.50 0.006941
1170.60 0.006944
1170.70 0.006948
1170.80 0.006952
1170.90 0.006956
1171.00 0.00696
1171.10 0.006963
1171.20 0.006967
1171.30 0.006971
1171.40 0.006975
1171.50 0.006979
1171.60 0.006982
1171.70 0.006986
1171.80 0.00699
1171.90 0.006994
1172.00 0.006997
1172.10 0.007
1172.20 0.007002
1172.30 0.007004
1172.40 0.007006
1172.50 0.007008
1172.60 0.00701
1172.70 0.007012
1172.80 0.007014
1172.90 0.007017
1173.00 0.007019
1173.10 0.007021
1173.20 0.007023
1173.30 0.007025
1173.40 0.007027
1173.50 0.007029
1173.60 0.007031
1173.70 0.007033
1173.80 0.007035
1173.90 0.007038
1174.00 0.00704
1174.10 0.007042
1174.20 0.007044
1174.30 0.007046
1174.40 0.007048
1174.50 0.00705
1174.60 0.007052
1174.70 0.007054
1174.80 0.007056
1174.90 0.007059
1175.00 0.007061
1175.10 0.007063
1175.20 0.007065
1175.30 0.007067
1175.40 0.007069
1175.50 0.007071
1175.60 0.007073
1175.70 0.007075
1175.80 0.007077
1175.90 0.007079
1176.00 0.007082
1176.10 0.007084
1176.20 0.007086
1176.30 0.007088
1176.40 0.00709
1176.50 0.007092
1176.60 0.007094
1176.70 0.007096
1176.80 0.007098
1176.90 0.0071
1177.00 0.007102
1177.10 0.007103
1177.20 0.007104
1177.30 0.007105
1177.40 0.007106
1177.50 0.007107
1177.60 0.007108
1177.70 0.007109
1177.80 0.00711
1177.90 0.00711
1178.00 0.007111
1178.10 0.007112
1178.20 0.007113
1178.30 0.007114
1178.40 0.007115
1178.50 0.007116
1178.60 0.007117
1178.70 0.007118
1178.80 0.007119
1178.90 0.00712
1179.00 0.00712
1179.10 0.007121
1179.20 0.007122
1179.30 0.007123
1179.40 0.007124
1179.50 0.007125
1179.60 0.007126
1179.70 0.007127
1179.80 0.007128
1179.90 0.007129
1180.00 0.007129
1180.10 0.00713
1180.20 0.007131
1180.30 0.007132
1180.40 0.007133
1180.50 0.007134
1180.60 0.007135
1180.70 0.007136
1180.80 0.007137
1180.90 0.007138
1181.00 0.007138
1181.10 0.007139
1181.20 0.00714
1181.30 0.007141
1181.40 0.007142
1181.50 0.007143
1181.60 0.007144
1181.70 0.007145
1181.80 0.007146
1181.90 0.007146
1182.00 0.007147
1182.10 0.007146
1182.20 0.007145
1182.30 0.007145
1182.40 0.007144
1182.50 0.007143
1182.60 0.007142
1182.70 0.007141
1182.80 0.00714
1182.90 0.007139
1183.00 0.007138
1183.10 0.007137
1183.20 0.007136
1183.30 0.007135
1183.40 0.007134
1183.50 0.007133
1183.60 0.007132
1183.70 0.007131
1183.80 0.00713
1183.90 0.00713
1184.00 0.007129
1184.10 0.007128
1184.20 0.007127
1184.30 0.007126
1184.40 0.007125
1184.50 0.007124
1184.60 0.007123
1184.70 0.007122
1184.80 0.007121
1184.90 0.00712
1185.00 0.007119
1185.10 0.007118
1185.20 0.007117
1185.30 0.007116
1185.40 0.007116
1185.50 0.007115
1185.60 0.007114
1185.70 0.007113
1185.80 0.007112
1185.90 0.007111
1186.00 0.00711
1186.10 0.007109
1186.20 0.007108
1186.30 0.007107
1186.40 0.007106
1186.50 0.007105
1186.60 0.007104
1186.70 0.007103
1186.80 0.007103
1186.90 0.007102
1187.00 0.007101
1187.10 0.0071
1187.20 0.0071
1187.30 0.0071
1187.40 0.007099
1187.50 0.007099
1187.60 0.007098
1187.70 0.007098
1187.80 0.007098
1187.90 0.007097
1188.00 0.007097
1188.10 0.007097
1188.20 0.007096
1188.30 0.007096
1188.40 0.007096
1188.50 0.007095
1188.60 0.007095
1188.70 0.007094
1188.80 0.007094
1188.90 0.007094
1189.00 0.007093
1189.10 0.007093
1189.20 0.007093
1189.30 0.007092
1189.40 0.007092
1189.50 0.007091
1189.60 0.007091
1189.70 0.007091
1189.80 0.00709
1189.90 0.00709
1190.00 0.00709
1190.10 0.007089
1190.20 0.007089
1190.30 0.007089
1190.40 0.007088
1190.50 0.007088
1190.60 0.007087
1190.70 0.007087
1190.80 0.007087
1190.90 0.007086
1191.00 0.007086
1191.10 0.007086
1191.20 0.007085
1191.30 0.007085
1191.40 0.007085
1191.50 0.007084
1191.60 0.007084
1191.70 0.007083
1191.80 0.007083
1191.90 0.007083
1192.00 0.007082
1192.10 0.007082
1192.20 0.007081
1192.30 0.00708
1192.40 0.00708
1192.50 0.007079
1192.60 0.007079
1192.70 0.007078
1192.80 0.007077
1192.90 0.007077
1193.00 0.007076
1193.10 0.007075
1193.20 0.007075
1193.30 0.007074
1193.40 0.007073
1193.50 0.007073
1193.60 0.007072
1193.70 0.007072
1193.80 0.007071
1193.90 0.00707
1194.00 0.00707
1194.10 0.007069
1194.20 0.007068
1194.30 0.007068
1194.40 0.007067
1194.50 0.007066
1194.60 0.007066
1194.70 0.007065
1194.80 0.007065
1194.90 0.007064
1195.00 0.007063
1195.10 0.007063
1195.20 0.007062
1195.30 0.007061
1195.40 0.007061
1195.50 0.00706
1195.60 0.007059
1195.70 0.007059
1195.80 0.007058
1195.90 0.007058
1196.00 0.007057
1196.10 0.007056
1196.20 0.007056
1196.30 0.007055
1196.40 0.007054
1196.50 0.007054
1196.60 0.007053
1196.70 0.007053
1196.80 0.007052
1196.90 0.007051
1197.00 0.007051
1197.10 0.007049
1197.20 0.007047
1197.30 0.007045
1197.40 0.007044
1197.50 0.007042
1197.60 0.00704
1197.70 0.007038
1197.80 0.007037
1197.90 0.007035
1198.00 0.007033
1198.10 0.007032
1198.20 0.00703
1198.30 0.007028
1198.40 0.007026
1198.50 0.007025
1198.60 0.007023
1198.70 0.007021
1198.80 0.007019
1198.90 0.007018
1199.00 0.007016
1199.10 0.007014
1199.20 0.007013
1199.30 0.007011
1199.40 0.007009
1199.50 0.007007
1199.60 0.007006
1199.70 0.007004
1199.80 0.007002
1199.90 0.007
1200.00 0
