# Version 2.1 - nm, norm@500 to 1, cut digits, bergeron_16500_70.dat_16500
# Wavelength(nm)  Flambda(ergs/cm^s/s/nm)
300.00 2.464
300.10 2.462
300.20 2.459
300.30 2.457
300.40 2.455
300.50 2.453
300.60 2.451
300.70 2.449
300.80 2.447
300.90 2.445
301.00 2.443
301.10 2.441
301.20 2.439
301.30 2.437
301.40 2.435
301.50 2.433
301.60 2.431
301.70 2.429
301.80 2.427
301.90 2.425
302.00 2.423
302.10 2.421
302.20 2.419
302.30 2.417
302.40 2.415
302.50 2.413
302.60 2.411
302.70 2.409
302.80 2.407
302.90 2.405
303.00 2.404
303.10 2.402
303.20 2.4
303.30 2.398
303.40 2.396
303.50 2.394
303.60 2.392
303.70 2.39
303.80 2.388
303.90 2.386
304.00 2.384
304.10 2.382
304.20 2.38
304.30 2.378
304.40 2.376
304.50 2.374
304.60 2.372
304.70 2.37
304.80 2.368
304.90 2.366
305.00 2.365
305.10 2.363
305.20 2.361
305.30 2.359
305.40 2.357
305.50 2.355
305.60 2.353
305.70 2.351
305.80 2.349
305.90 2.347
306.00 2.345
306.10 2.343
306.20 2.342
306.30 2.34
306.40 2.338
306.50 2.336
306.60 2.334
306.70 2.332
306.80 2.33
306.90 2.328
307.00 2.326
307.10 2.324
307.20 2.323
307.30 2.321
307.40 2.319
307.50 2.317
307.60 2.315
307.70 2.313
307.80 2.311
307.90 2.309
308.00 2.308
308.10 2.306
308.20 2.304
308.30 2.302
308.40 2.3
308.50 2.298
308.60 2.296
308.70 2.295
308.80 2.293
308.90 2.291
309.00 2.289
309.10 2.287
309.20 2.285
309.30 2.283
309.40 2.282
309.50 2.28
309.60 2.278
309.70 2.276
309.80 2.274
309.90 2.272
310.00 2.271
310.10 2.269
310.20 2.267
310.30 2.265
310.40 2.263
310.50 2.261
310.60 2.26
310.70 2.258
310.80 2.256
310.90 2.254
311.00 2.252
311.10 2.251
311.20 2.249
311.30 2.247
311.40 2.245
311.50 2.243
311.60 2.242
311.70 2.24
311.80 2.238
311.90 2.236
312.00 2.234
312.10 2.233
312.20 2.231
312.30 2.229
312.40 2.227
312.50 2.226
312.60 2.224
312.70 2.222
312.80 2.22
312.90 2.218
313.00 2.217
313.10 2.215
313.20 2.213
313.30 2.211
313.40 2.21
313.50 2.208
313.60 2.206
313.70 2.204
313.80 2.203
313.90 2.201
314.00 2.199
314.10 2.197
314.20 2.196
314.30 2.194
314.40 2.192
314.50 2.19
314.60 2.189
314.70 2.187
314.80 2.185
314.90 2.183
315.00 2.182
315.10 2.18
315.20 2.178
315.30 2.177
315.40 2.175
315.50 2.173
315.60 2.171
315.70 2.17
315.80 2.168
315.90 2.166
316.00 2.165
316.10 2.163
316.20 2.161
316.30 2.159
316.40 2.158
316.50 2.156
316.60 2.154
316.70 2.153
316.80 2.151
316.90 2.149
317.00 2.147
317.10 2.146
317.20 2.144
317.30 2.142
317.40 2.141
317.50 2.139
317.60 2.137
317.70 2.136
317.80 2.134
317.90 2.132
318.00 2.131
318.10 2.129
318.20 2.127
318.30 2.126
318.40 2.124
318.50 2.122
318.60 2.121
318.70 2.119
318.80 2.117
318.90 2.116
319.00 2.114
319.10 2.112
319.20 2.111
319.30 2.109
319.40 2.107
319.50 2.106
319.60 2.104
319.70 2.102
319.80 2.101
319.90 2.099
320.00 2.097
320.10 2.096
320.20 2.094
320.30 2.092
320.40 2.091
320.50 2.089
320.60 2.088
320.70 2.086
320.80 2.084
320.90 2.083
321.00 2.081
321.10 2.079
321.20 2.078
321.30 2.076
321.40 2.074
321.50 2.073
321.60 2.071
321.70 2.07
321.80 2.068
321.90 2.066
322.00 2.065
322.10 2.063
322.20 2.062
322.30 2.06
322.40 2.058
322.50 2.057
322.60 2.055
322.70 2.054
322.80 2.052
322.90 2.05
323.00 2.049
323.10 2.047
323.20 2.046
323.30 2.044
323.40 2.042
323.50 2.041
323.60 2.039
323.70 2.038
323.80 2.036
323.90 2.035
324.00 2.033
324.10 2.031
324.20 2.03
324.30 2.028
324.40 2.027
324.50 2.025
324.60 2.024
324.70 2.022
324.80 2.02
324.90 2.019
325.00 2.017
325.10 2.016
325.20 2.014
325.30 2.013
325.40 2.011
325.50 2.01
325.60 2.008
325.70 2.006
325.80 2.005
325.90 2.003
326.00 2.002
326.10 2
326.20 1.999
326.30 1.997
326.40 1.996
326.50 1.994
326.60 1.993
326.70 1.991
326.80 1.989
326.90 1.988
327.00 1.986
327.10 1.985
327.20 1.983
327.30 1.982
327.40 1.98
327.50 1.979
327.60 1.977
327.70 1.976
327.80 1.974
327.90 1.973
328.00 1.971
328.10 1.97
328.20 1.968
328.30 1.967
328.40 1.965
328.50 1.964
328.60 1.962
328.70 1.961
328.80 1.959
328.90 1.958
329.00 1.956
329.10 1.955
329.20 1.953
329.30 1.952
329.40 1.95
329.50 1.949
329.60 1.947
329.70 1.946
329.80 1.944
329.90 1.943
330.00 1.941
330.10 1.94
330.20 1.938
330.30 1.937
330.40 1.935
330.50 1.934
330.60 1.932
330.70 1.931
330.80 1.929
330.90 1.928
331.00 1.926
331.10 1.925
331.20 1.923
331.30 1.922
331.40 1.921
331.50 1.919
331.60 1.918
331.70 1.916
331.80 1.915
331.90 1.913
332.00 1.912
332.10 1.91
332.20 1.909
332.30 1.907
332.40 1.906
332.50 1.905
332.60 1.903
332.70 1.902
332.80 1.9
332.90 1.899
333.00 1.897
333.10 1.896
333.20 1.895
333.30 1.893
333.40 1.892
333.50 1.89
333.60 1.889
333.70 1.887
333.80 1.886
333.90 1.885
334.00 1.883
334.10 1.882
334.20 1.88
334.30 1.879
334.40 1.877
334.50 1.876
334.60 1.875
334.70 1.873
334.80 1.872
334.90 1.87
335.00 1.869
335.10 1.868
335.20 1.866
335.30 1.865
335.40 1.863
335.50 1.862
335.60 1.861
335.70 1.859
335.80 1.858
335.90 1.856
336.00 1.855
336.10 1.854
336.20 1.852
336.30 1.851
336.40 1.849
336.50 1.848
336.60 1.847
336.70 1.845
336.80 1.844
336.90 1.842
337.00 1.841
337.10 1.84
337.20 1.838
337.30 1.837
337.40 1.836
337.50 1.834
337.60 1.833
337.70 1.831
337.80 1.83
337.90 1.829
338.00 1.827
338.10 1.826
338.20 1.825
338.30 1.823
338.40 1.822
338.50 1.82
338.60 1.819
338.70 1.818
338.80 1.816
338.90 1.815
339.00 1.814
339.10 1.812
339.20 1.811
339.30 1.81
339.40 1.808
339.50 1.807
339.60 1.806
339.70 1.804
339.80 1.803
339.90 1.801
340.00 1.8
340.10 1.799
340.20 1.797
340.30 1.796
340.40 1.795
340.50 1.793
340.60 1.792
340.70 1.791
340.80 1.789
340.90 1.788
341.00 1.787
341.10 1.785
341.20 1.784
341.30 1.783
341.40 1.781
341.50 1.78
341.60 1.779
341.70 1.778
341.80 1.776
341.90 1.775
342.00 1.774
342.10 1.772
342.20 1.771
342.30 1.77
342.40 1.768
342.50 1.767
342.60 1.766
342.70 1.764
342.80 1.763
342.90 1.762
343.00 1.761
343.10 1.759
343.20 1.758
343.30 1.757
343.40 1.755
343.50 1.754
343.60 1.753
343.70 1.751
343.80 1.75
343.90 1.749
344.00 1.748
344.10 1.746
344.20 1.745
344.30 1.744
344.40 1.742
344.50 1.741
344.60 1.74
344.70 1.739
344.80 1.737
344.90 1.736
345.00 1.735
345.10 1.733
345.20 1.732
345.30 1.731
345.40 1.73
345.50 1.728
345.60 1.727
345.70 1.726
345.80 1.725
345.90 1.723
346.00 1.722
346.10 1.721
346.20 1.719
346.30 1.718
346.40 1.717
346.50 1.716
346.60 1.714
346.70 1.713
346.80 1.712
346.90 1.711
347.00 1.709
347.10 1.708
347.20 1.707
347.30 1.706
347.40 1.704
347.50 1.703
347.60 1.702
347.70 1.701
347.80 1.699
347.90 1.698
348.00 1.697
348.10 1.696
348.20 1.694
348.30 1.693
348.40 1.692
348.50 1.691
348.60 1.689
348.70 1.688
348.80 1.687
348.90 1.686
349.00 1.685
349.10 1.683
349.20 1.682
349.30 1.681
349.40 1.68
349.50 1.678
349.60 1.677
349.70 1.676
349.80 1.675
349.90 1.673
350.00 1.672
350.10 1.671
350.20 1.67
350.30 1.669
350.40 1.667
350.50 1.666
350.60 1.665
350.70 1.664
350.80 1.663
350.90 1.661
351.00 1.66
351.10 1.659
351.20 1.658
351.30 1.657
351.40 1.655
351.50 1.654
351.60 1.653
351.70 1.652
351.80 1.651
351.90 1.649
352.00 1.648
352.10 1.647
352.20 1.646
352.30 1.645
352.40 1.643
352.50 1.642
352.60 1.641
352.70 1.64
352.80 1.639
352.90 1.637
353.00 1.636
353.10 1.635
353.20 1.634
353.30 1.633
353.40 1.632
353.50 1.63
353.60 1.629
353.70 1.628
353.80 1.627
353.90 1.626
354.00 1.624
354.10 1.623
354.20 1.622
354.30 1.621
354.40 1.62
354.50 1.619
354.60 1.617
354.70 1.616
354.80 1.615
354.90 1.614
355.00 1.613
355.10 1.612
355.20 1.611
355.30 1.609
355.40 1.608
355.50 1.607
355.60 1.606
355.70 1.605
355.80 1.604
355.90 1.602
356.00 1.601
356.10 1.6
356.20 1.599
356.30 1.598
356.40 1.597
356.50 1.596
356.60 1.594
356.70 1.593
356.80 1.592
356.90 1.591
357.00 1.59
357.10 1.589
357.20 1.587
357.30 1.586
357.40 1.585
357.50 1.584
357.60 1.583
357.70 1.582
357.80 1.581
357.90 1.58
358.00 1.578
358.10 1.577
358.20 1.576
358.30 1.575
358.40 1.574
358.50 1.573
358.60 1.572
358.70 1.571
358.80 1.569
358.90 1.568
359.00 1.567
359.10 1.566
359.20 1.565
359.30 1.564
359.40 1.563
359.50 1.562
359.60 1.56
359.70 1.559
359.80 1.558
359.90 1.557
360.00 1.556
360.10 1.555
360.20 1.554
360.30 1.553
360.40 1.552
360.50 1.551
360.60 1.549
360.70 1.548
360.80 1.547
360.90 1.546
361.00 1.545
361.10 1.544
361.20 1.543
361.30 1.542
361.40 1.541
361.50 1.54
361.60 1.538
361.70 1.537
361.80 1.536
361.90 1.535
362.00 1.534
362.10 1.533
362.20 1.532
362.30 1.531
362.40 1.53
362.50 1.529
362.60 1.528
362.70 1.526
362.80 1.525
362.90 1.524
363.00 1.523
363.10 1.522
363.20 1.521
363.30 1.52
363.40 1.519
363.50 1.518
363.60 1.517
363.70 1.515
363.80 1.514
363.90 1.513
364.00 1.512
364.10 1.511
364.20 1.51
364.30 1.509
364.40 1.508
364.50 1.507
364.60 1.506
364.70 1.504
364.80 1.503
364.90 1.502
365.00 1.501
365.10 1.5
365.20 1.499
365.30 1.498
365.40 1.497
365.50 1.496
365.60 1.495
365.70 1.494
365.80 1.493
365.90 1.492
366.00 1.491
366.10 1.49
366.20 1.488
366.30 1.487
366.40 1.486
366.50 1.485
366.60 1.484
366.70 1.483
366.80 1.482
366.90 1.481
367.00 1.48
367.10 1.479
367.20 1.478
367.30 1.477
367.40 1.476
367.50 1.475
367.60 1.474
367.70 1.473
367.80 1.472
367.90 1.471
368.00 1.47
368.10 1.47
368.20 1.47
368.30 1.469
368.40 1.469
368.50 1.469
368.60 1.468
368.70 1.468
368.80 1.468
368.90 1.467
369.00 1.467
369.10 1.467
369.20 1.467
369.30 1.466
369.40 1.466
369.50 1.466
369.60 1.465
369.70 1.465
369.80 1.465
369.90 1.464
370.00 1.464
370.10 1.465
370.20 1.467
370.30 1.468
370.40 1.469
370.50 1.471
370.60 1.472
370.70 1.473
370.80 1.475
370.90 1.476
371.00 1.478
371.10 1.479
371.20 1.48
371.30 1.482
371.40 1.483
371.50 1.484
371.60 1.486
371.70 1.487
371.80 1.488
371.90 1.49
372.00 1.491
372.10 1.494
372.20 1.497
372.30 1.501
372.40 1.504
372.50 1.507
372.60 1.51
372.70 1.513
372.80 1.517
372.90 1.52
373.00 1.523
373.10 1.526
373.20 1.529
373.30 1.533
373.40 1.536
373.50 1.539
373.60 1.542
373.70 1.545
373.80 1.549
373.90 1.552
374.00 1.555
374.10 1.559
374.20 1.562
374.30 1.566
374.40 1.57
374.50 1.574
374.60 1.577
374.70 1.581
374.80 1.585
374.90 1.589
375.00 1.592
375.10 1.596
375.20 1.6
375.30 1.603
375.40 1.607
375.50 1.611
375.60 1.615
375.70 1.618
375.80 1.622
375.90 1.626
376.00 1.629
376.10 1.631
376.20 1.633
376.30 1.635
376.40 1.637
376.50 1.638
376.60 1.64
376.70 1.642
376.80 1.644
376.90 1.646
377.00 1.647
377.10 1.644
377.20 1.64
377.30 1.637
377.40 1.633
377.50 1.63
377.60 1.627
377.70 1.623
377.80 1.62
377.90 1.616
378.00 1.613
378.10 1.594
378.20 1.575
378.30 1.556
378.40 1.537
378.50 1.519
378.60 1.5
378.70 1.481
378.80 1.462
378.90 1.444
379.00 1.425
379.10 1.411
379.20 1.397
379.30 1.382
379.40 1.368
379.50 1.354
379.60 1.34
379.70 1.326
379.80 1.312
379.90 1.298
380.00 1.284
380.10 1.306
380.20 1.328
380.30 1.351
380.40 1.373
380.50 1.395
380.60 1.417
380.70 1.439
380.80 1.462
380.90 1.484
381.00 1.506
381.10 1.515
381.20 1.525
381.30 1.534
381.40 1.544
381.50 1.553
381.60 1.553
381.70 1.551
381.80 1.545
381.90 1.536
382.00 1.524
382.10 1.509
382.20 1.49
382.30 1.457
382.40 1.424
382.50 1.391
382.60 1.358
382.70 1.325
382.80 1.292
382.90 1.26
383.00 1.227
383.10 1.194
383.20 1.162
383.30 1.131
383.40 1.098
383.50 1.062
383.60 1.069
383.70 1.104
383.80 1.136
383.90 1.167
384.00 1.199
384.10 1.235
384.20 1.272
384.30 1.312
384.40 1.351
384.50 1.389
384.60 1.424
384.70 1.457
384.80 1.486
384.90 1.513
385.00 1.537
385.10 1.557
385.20 1.575
385.30 1.591
385.40 1.603
385.50 1.614
385.60 1.624
385.70 1.631
385.80 1.636
385.90 1.64
386.00 1.642
386.10 1.642
386.20 1.641
386.30 1.637
386.40 1.632
386.50 1.626
386.60 1.617
386.70 1.607
386.80 1.596
386.90 1.582
387.00 1.567
387.10 1.55
387.20 1.53
387.30 1.509
387.40 1.486
387.50 1.458
387.60 1.429
387.70 1.398
387.80 1.362
387.90 1.324
388.00 1.283
388.10 1.239
388.20 1.194
388.30 1.148
388.40 1.104
388.50 1.061
388.60 1.021
388.70 0.981
388.80 0.9408
388.90 0.9004
389.00 0.9371
389.10 0.9752
389.20 1.014
389.30 1.054
389.40 1.095
389.50 1.138
389.60 1.183
389.70 1.227
389.80 1.271
389.90 1.312
390.00 1.35
390.10 1.387
390.20 1.42
390.30 1.45
390.40 1.479
390.50 1.505
390.60 1.529
390.70 1.552
390.80 1.573
390.90 1.592
391.00 1.611
391.10 1.628
391.20 1.644
391.30 1.659
391.40 1.673
391.50 1.686
391.60 1.698
391.70 1.709
391.80 1.719
391.90 1.728
392.00 1.736
392.10 1.744
392.20 1.75
392.30 1.755
392.40 1.759
392.50 1.763
392.60 1.765
392.70 1.766
392.80 1.767
392.90 1.766
393.00 1.765
393.10 1.763
393.20 1.759
393.30 1.754
393.40 1.749
393.50 1.743
393.60 1.735
393.70 1.727
393.80 1.717
393.90 1.707
394.00 1.695
394.10 1.682
394.20 1.668
394.30 1.654
394.40 1.638
394.50 1.621
394.60 1.603
394.70 1.584
394.80 1.564
394.90 1.543
395.00 1.521
395.10 1.498
395.20 1.474
395.30 1.448
395.40 1.421
395.50 1.394
395.60 1.363
395.70 1.332
395.80 1.299
395.90 1.264
396.00 1.227
396.10 1.188
396.20 1.147
396.30 1.104
396.40 1.059
396.50 1.014
396.60 0.9706
396.70 0.9277
396.80 0.884
396.90 0.8315
397.00 0.7702
397.10 0.8262
397.20 0.876
397.30 0.9195
397.40 0.9611
397.50 1.004
397.60 1.047
397.70 1.09
397.80 1.132
397.90 1.173
398.00 1.21
398.10 1.246
398.20 1.28
398.30 1.311
398.40 1.342
398.50 1.371
398.60 1.398
398.70 1.423
398.80 1.448
398.90 1.471
399.00 1.494
399.10 1.515
399.20 1.536
399.30 1.556
399.40 1.575
399.50 1.593
399.60 1.61
399.70 1.627
399.80 1.643
399.90 1.658
400.00 1.672
400.10 1.686
400.20 1.698
400.30 1.711
400.40 1.722
400.50 1.733
400.60 1.743
400.70 1.753
400.80 1.762
400.90 1.77
401.00 1.778
401.10 1.785
401.20 1.792
401.30 1.798
401.40 1.804
401.50 1.81
401.60 1.815
401.70 1.819
401.80 1.824
401.90 1.827
402.00 1.831
402.10 1.834
402.20 1.837
402.30 1.839
402.40 1.841
402.50 1.843
402.60 1.844
402.70 1.845
402.80 1.846
402.90 1.847
403.00 1.847
403.10 1.847
403.20 1.847
403.30 1.846
403.40 1.845
403.50 1.844
403.60 1.843
403.70 1.841
403.80 1.84
403.90 1.838
404.00 1.835
404.10 1.833
404.20 1.83
404.30 1.826
404.40 1.823
404.50 1.819
404.60 1.815
404.70 1.811
404.80 1.807
404.90 1.802
405.00 1.796
405.10 1.791
405.20 1.785
405.30 1.779
405.40 1.772
405.50 1.765
405.60 1.758
405.70 1.75
405.80 1.741
405.90 1.733
406.00 1.724
406.10 1.714
406.20 1.704
406.30 1.694
406.40 1.683
406.50 1.671
406.60 1.659
406.70 1.646
406.80 1.633
406.90 1.619
407.00 1.604
407.10 1.589
407.20 1.573
407.30 1.555
407.40 1.538
407.50 1.519
407.60 1.5
407.70 1.48
407.80 1.459
407.90 1.438
408.00 1.415
408.10 1.393
408.20 1.369
408.30 1.345
408.40 1.32
408.50 1.295
408.60 1.268
408.70 1.242
408.80 1.214
408.90 1.185
409.00 1.156
409.10 1.125
409.20 1.093
409.30 1.061
409.40 1.025
409.50 0.9883
409.60 0.9501
409.70 0.9107
409.80 0.8714
409.90 0.8322
410.00 0.7852
410.10 0.7345
410.20 0.6799
410.30 0.7528
410.40 0.8098
410.50 0.8509
410.60 0.8892
410.70 0.9273
410.80 0.9653
410.90 1.001
411.00 1.036
411.10 1.069
411.20 1.099
411.30 1.128
411.40 1.157
411.50 1.184
411.60 1.21
411.70 1.236
411.80 1.261
411.90 1.284
412.00 1.308
412.10 1.33
412.20 1.352
412.30 1.373
412.40 1.393
412.50 1.412
412.60 1.431
412.70 1.449
412.80 1.467
412.90 1.483
413.00 1.499
413.10 1.514
413.20 1.529
413.30 1.542
413.40 1.555
413.50 1.567
413.60 1.578
413.70 1.589
413.80 1.6
413.90 1.609
414.00 1.619
414.10 1.627
414.20 1.636
414.30 1.643
414.40 1.651
414.50 1.658
414.60 1.665
414.70 1.671
414.80 1.677
414.90 1.682
415.00 1.688
415.10 1.692
415.20 1.697
415.30 1.701
415.40 1.705
415.50 1.709
415.60 1.713
415.70 1.716
415.80 1.719
415.90 1.722
416.00 1.725
416.10 1.727
416.20 1.73
416.30 1.732
416.40 1.734
416.50 1.736
416.60 1.738
416.70 1.739
416.80 1.741
416.90 1.742
417.00 1.743
417.10 1.745
417.20 1.746
417.30 1.747
417.40 1.747
417.50 1.748
417.60 1.749
417.70 1.749
417.80 1.75
417.90 1.75
418.00 1.75
418.10 1.751
418.20 1.751
418.30 1.751
418.40 1.751
418.50 1.751
418.60 1.751
418.70 1.751
418.80 1.751
418.90 1.75
419.00 1.75
419.10 1.75
419.20 1.75
419.30 1.749
419.40 1.749
419.50 1.748
419.60 1.748
419.70 1.747
419.80 1.746
419.90 1.746
420.00 1.745
420.10 1.744
420.20 1.744
420.30 1.743
420.40 1.742
420.50 1.741
420.60 1.74
420.70 1.739
420.80 1.738
420.90 1.738
421.00 1.737
421.10 1.736
421.20 1.735
421.30 1.733
421.40 1.732
421.50 1.731
421.60 1.73
421.70 1.729
421.80 1.728
421.90 1.727
422.00 1.725
422.10 1.724
422.20 1.723
422.30 1.721
422.40 1.72
422.50 1.719
422.60 1.717
422.70 1.716
422.80 1.714
422.90 1.713
423.00 1.712
423.10 1.71
423.20 1.709
423.30 1.707
423.40 1.705
423.50 1.704
423.60 1.702
423.70 1.7
423.80 1.699
423.90 1.697
424.00 1.695
424.10 1.693
424.20 1.691
424.30 1.689
424.40 1.688
424.50 1.686
424.60 1.684
424.70 1.681
424.80 1.679
424.90 1.677
425.00 1.675
425.10 1.673
425.20 1.671
425.30 1.668
425.40 1.666
425.50 1.663
425.60 1.661
425.70 1.658
425.80 1.656
425.90 1.653
426.00 1.651
426.10 1.648
426.20 1.644
426.30 1.641
426.40 1.638
426.50 1.635
426.60 1.632
426.70 1.629
426.80 1.626
426.90 1.622
427.00 1.619
427.10 1.615
427.20 1.612
427.30 1.608
427.40 1.604
427.50 1.6
427.60 1.596
427.70 1.592
427.80 1.587
427.90 1.583
428.00 1.578
428.10 1.574
428.20 1.569
428.30 1.564
428.40 1.558
428.50 1.553
428.60 1.547
428.70 1.542
428.80 1.536
428.90 1.53
429.00 1.523
429.10 1.517
429.20 1.51
429.30 1.503
429.40 1.496
429.50 1.488
429.60 1.48
429.70 1.472
429.80 1.464
429.90 1.455
430.00 1.446
430.10 1.437
430.20 1.428
430.30 1.418
430.40 1.407
430.50 1.397
430.60 1.386
430.70 1.374
430.80 1.362
430.90 1.35
431.00 1.337
431.10 1.324
431.20 1.311
431.30 1.297
431.40 1.282
431.50 1.267
431.60 1.252
431.70 1.235
431.80 1.219
431.90 1.201
432.00 1.183
432.10 1.164
432.20 1.143
432.30 1.122
432.40 1.101
432.50 1.077
432.60 1.053
432.70 1.028
432.80 1.003
432.90 0.9771
433.00 0.9517
433.10 0.927
433.20 0.9019
433.30 0.8763
433.40 0.8483
433.50 0.819
433.60 0.7886
433.70 0.7561
433.80 0.7205
433.90 0.6818
434.00 0.591
434.10 0.5921
434.20 0.6848
434.30 0.7219
434.40 0.7563
434.50 0.7878
434.60 0.8171
434.70 0.8452
434.80 0.872
434.90 0.8963
435.00 0.9202
435.10 0.9436
435.20 0.9676
435.30 0.9917
435.40 1.016
435.50 1.039
435.60 1.061
435.70 1.083
435.80 1.103
435.90 1.122
436.00 1.14
436.10 1.157
436.20 1.173
436.30 1.189
436.40 1.204
436.50 1.218
436.60 1.231
436.70 1.244
436.80 1.256
436.90 1.268
437.00 1.279
437.10 1.29
437.20 1.3
437.30 1.31
437.40 1.319
437.50 1.328
437.60 1.337
437.70 1.345
437.80 1.353
437.90 1.36
438.00 1.367
438.10 1.374
438.20 1.38
438.30 1.386
438.40 1.392
438.50 1.398
438.60 1.403
438.70 1.408
438.80 1.413
438.90 1.417
439.00 1.421
439.10 1.425
439.20 1.429
439.30 1.432
439.40 1.436
439.50 1.439
439.60 1.442
439.70 1.445
439.80 1.447
439.90 1.45
440.00 1.452
440.10 1.454
440.20 1.456
440.30 1.458
440.40 1.46
440.50 1.462
440.60 1.463
440.70 1.464
440.80 1.466
440.90 1.467
441.00 1.468
441.10 1.469
441.20 1.47
441.30 1.471
441.40 1.472
441.50 1.473
441.60 1.473
441.70 1.474
441.80 1.474
441.90 1.475
442.00 1.475
442.10 1.476
442.20 1.476
442.30 1.476
442.40 1.476
442.50 1.476
442.60 1.476
442.70 1.476
442.80 1.476
442.90 1.476
443.00 1.476
443.10 1.476
443.20 1.476
443.30 1.476
443.40 1.475
443.50 1.475
443.60 1.475
443.70 1.475
443.80 1.474
443.90 1.474
444.00 1.473
444.10 1.473
444.20 1.472
444.30 1.472
444.40 1.472
444.50 1.471
444.60 1.47
444.70 1.47
444.80 1.469
444.90 1.469
445.00 1.468
445.10 1.467
445.20 1.467
445.30 1.466
445.40 1.465
445.50 1.465
445.60 1.464
445.70 1.463
445.80 1.462
445.90 1.462
446.00 1.461
446.10 1.46
446.20 1.459
446.30 1.459
446.40 1.458
446.50 1.457
446.60 1.456
446.70 1.455
446.80 1.455
446.90 1.454
447.00 1.453
447.10 1.452
447.20 1.451
447.30 1.45
447.40 1.45
447.50 1.449
447.60 1.448
447.70 1.447
447.80 1.446
447.90 1.445
448.00 1.444
448.10 1.443
448.20 1.443
448.30 1.442
448.40 1.441
448.50 1.44
448.60 1.439
448.70 1.438
448.80 1.437
448.90 1.436
449.00 1.435
449.10 1.435
449.20 1.434
449.30 1.433
449.40 1.432
449.50 1.431
449.60 1.43
449.70 1.429
449.80 1.428
449.90 1.427
450.00 1.426
450.10 1.425
450.20 1.424
450.30 1.423
450.40 1.422
450.50 1.421
450.60 1.421
450.70 1.42
450.80 1.419
450.90 1.418
451.00 1.417
451.10 1.416
451.20 1.415
451.30 1.414
451.40 1.413
451.50 1.412
451.60 1.411
451.70 1.41
451.80 1.409
451.90 1.408
452.00 1.407
452.10 1.406
452.20 1.405
452.30 1.404
452.40 1.403
452.50 1.402
452.60 1.401
452.70 1.4
452.80 1.399
452.90 1.398
453.00 1.397
453.10 1.396
453.20 1.395
453.30 1.395
453.40 1.394
453.50 1.393
453.60 1.392
453.70 1.391
453.80 1.39
453.90 1.389
454.00 1.388
454.10 1.387
454.20 1.386
454.30 1.385
454.40 1.384
454.50 1.383
454.60 1.382
454.70 1.381
454.80 1.38
454.90 1.379
455.00 1.378
455.10 1.377
455.20 1.376
455.30 1.375
455.40 1.374
455.50 1.373
455.60 1.372
455.70 1.371
455.80 1.37
455.90 1.369
456.00 1.368
456.10 1.367
456.20 1.366
456.30 1.365
456.40 1.364
456.50 1.363
456.60 1.362
456.70 1.361
456.80 1.361
456.90 1.36
457.00 1.359
457.10 1.358
457.20 1.357
457.30 1.356
457.40 1.355
457.50 1.354
457.60 1.353
457.70 1.352
457.80 1.351
457.90 1.35
458.00 1.349
458.10 1.348
458.20 1.347
458.30 1.346
458.40 1.345
458.50 1.344
458.60 1.343
458.70 1.342
458.80 1.341
458.90 1.34
459.00 1.339
459.10 1.338
459.20 1.337
459.30 1.336
459.40 1.335
459.50 1.334
459.60 1.333
459.70 1.332
459.80 1.331
459.90 1.33
460.00 1.329
460.10 1.328
460.20 1.327
460.30 1.327
460.40 1.326
460.50 1.325
460.60 1.324
460.70 1.323
460.80 1.322
460.90 1.321
461.00 1.32
461.10 1.319
461.20 1.318
461.30 1.317
461.40 1.316
461.50 1.315
461.60 1.314
461.70 1.313
461.80 1.312
461.90 1.311
462.00 1.31
462.10 1.309
462.20 1.308
462.30 1.307
462.40 1.306
462.50 1.305
462.60 1.304
462.70 1.303
462.80 1.302
462.90 1.301
463.00 1.3
463.10 1.299
463.20 1.298
463.30 1.297
463.40 1.296
463.50 1.295
463.60 1.294
463.70 1.294
463.80 1.293
463.90 1.292
464.00 1.291
464.10 1.29
464.20 1.289
464.30 1.288
464.40 1.287
464.50 1.286
464.60 1.285
464.70 1.284
464.80 1.283
464.90 1.282
465.00 1.281
465.10 1.28
465.20 1.279
465.30 1.278
465.40 1.277
465.50 1.276
465.60 1.275
465.70 1.274
465.80 1.273
465.90 1.272
466.00 1.271
466.10 1.27
466.20 1.269
466.30 1.268
466.40 1.267
466.50 1.266
466.60 1.265
466.70 1.264
466.80 1.263
466.90 1.262
467.00 1.261
467.10 1.26
467.20 1.259
467.30 1.258
467.40 1.257
467.50 1.256
467.60 1.255
467.70 1.254
467.80 1.253
467.90 1.252
468.00 1.252
468.10 1.251
468.20 1.25
468.30 1.249
468.40 1.248
468.50 1.247
468.60 1.246
468.70 1.245
468.80 1.244
468.90 1.243
469.00 1.242
469.10 1.241
469.20 1.24
469.30 1.239
469.40 1.238
469.50 1.237
469.60 1.235
469.70 1.234
469.80 1.233
469.90 1.232
470.00 1.231
470.10 1.23
470.20 1.229
470.30 1.228
470.40 1.227
470.50 1.226
470.60 1.225
470.70 1.224
470.80 1.223
470.90 1.222
471.00 1.221
471.10 1.22
471.20 1.219
471.30 1.218
471.40 1.217
471.50 1.216
471.60 1.215
471.70 1.214
471.80 1.213
471.90 1.212
472.00 1.211
472.10 1.209
472.20 1.208
472.30 1.207
472.40 1.206
472.50 1.205
472.60 1.204
472.70 1.203
472.80 1.202
472.90 1.201
473.00 1.199
473.10 1.198
473.20 1.197
473.30 1.196
473.40 1.195
473.50 1.194
473.60 1.192
473.70 1.191
473.80 1.19
473.90 1.189
474.00 1.188
474.10 1.187
474.20 1.185
474.30 1.184
474.40 1.183
474.50 1.182
474.60 1.18
474.70 1.179
474.80 1.178
474.90 1.176
475.00 1.175
475.10 1.174
475.20 1.173
475.30 1.171
475.40 1.17
475.50 1.168
475.60 1.167
475.70 1.166
475.80 1.164
475.90 1.163
476.00 1.161
476.10 1.16
476.20 1.159
476.30 1.157
476.40 1.155
476.50 1.154
476.60 1.152
476.70 1.151
476.80 1.149
476.90 1.148
477.00 1.146
477.10 1.144
477.20 1.143
477.30 1.141
477.40 1.139
477.50 1.137
477.60 1.135
477.70 1.133
477.80 1.132
477.90 1.13
478.00 1.128
478.10 1.126
478.20 1.124
478.30 1.122
478.40 1.12
478.50 1.117
478.60 1.115
478.70 1.113
478.80 1.111
478.90 1.108
479.00 1.106
479.10 1.104
479.20 1.101
479.30 1.098
479.40 1.096
479.50 1.093
479.60 1.09
479.70 1.087
479.80 1.084
479.90 1.081
480.00 1.079
480.10 1.076
480.20 1.072
480.30 1.068
480.40 1.065
480.50 1.061
480.60 1.057
480.70 1.053
480.80 1.05
480.90 1.046
481.00 1.042
481.10 1.039
481.20 1.034
481.30 1.029
481.40 1.023
481.50 1.018
481.60 1.013
481.70 1.008
481.80 1.003
481.90 0.9976
482.00 0.9925
482.10 0.9873
482.20 0.9807
482.30 0.9735
482.40 0.9662
482.50 0.959
482.60 0.9518
482.70 0.9446
482.80 0.9373
482.90 0.9301
483.00 0.9229
483.10 0.9157
483.20 0.9066
483.30 0.8965
483.40 0.8864
483.50 0.8764
483.60 0.8663
483.70 0.8563
483.80 0.8462
483.90 0.8362
484.00 0.8262
484.10 0.8161
484.20 0.8046
484.30 0.7923
484.40 0.78
484.50 0.7677
484.60 0.7554
484.70 0.7422
484.80 0.7285
484.90 0.7149
485.00 0.7012
485.10 0.6876
485.20 0.6735
485.30 0.6591
485.40 0.644
485.50 0.6285
485.60 0.6118
485.70 0.5946
485.80 0.5743
485.90 0.5525
486.00 0.5231
486.10 0.4276
486.20 0.4774
486.30 0.5346
486.40 0.5584
486.50 0.5797
486.60 0.5978
486.70 0.6144
486.80 0.6298
486.90 0.6446
487.00 0.6585
487.10 0.672
487.20 0.685
487.30 0.6977
487.40 0.7105
487.50 0.7232
487.60 0.7359
487.70 0.7475
487.80 0.7587
487.90 0.7699
488.00 0.7811
488.10 0.7922
488.20 0.8017
488.30 0.8105
488.40 0.8192
488.50 0.8279
488.60 0.8367
488.70 0.8454
488.80 0.8541
488.90 0.8628
489.00 0.8715
489.10 0.8802
489.20 0.8868
489.30 0.8925
489.40 0.8982
489.50 0.9039
489.60 0.9096
489.70 0.9153
489.80 0.921
489.90 0.9267
490.00 0.9324
490.10 0.938
490.20 0.9423
490.30 0.9458
490.40 0.9493
490.50 0.9529
490.60 0.9564
490.70 0.9599
490.80 0.9635
490.90 0.967
491.00 0.9705
491.10 0.974
491.20 0.9766
491.30 0.9786
491.40 0.9807
491.50 0.9828
491.60 0.9849
491.70 0.987
491.80 0.989
491.90 0.9911
492.00 0.9932
492.10 0.9952
492.20 0.9967
492.30 0.9978
492.40 0.999
492.50 1
492.60 1.001
492.70 1.002
492.80 1.004
492.90 1.005
493.00 1.006
493.10 1.007
493.20 1.008
493.30 1.008
493.40 1.009
493.50 1.01
493.60 1.01
493.70 1.011
493.80 1.011
493.90 1.012
494.00 1.012
494.10 1.013
494.20 1.013
494.30 1.014
494.40 1.014
494.50 1.014
494.60 1.014
494.70 1.014
494.80 1.014
494.90 1.015
495.00 1.015
495.10 1.015
495.20 1.015
495.30 1.015
495.40 1.015
495.50 1.015
495.60 1.015
495.70 1.015
495.80 1.015
495.90 1.015
496.00 1.014
496.10 1.014
496.20 1.014
496.30 1.014
496.40 1.014
496.50 1.013
496.60 1.013
496.70 1.013
496.80 1.013
496.90 1.013
497.00 1.012
497.10 1.012
497.20 1.012
497.30 1.011
497.40 1.011
497.50 1.011
497.60 1.01
497.70 1.01
497.80 1.01
497.90 1.009
498.00 1.009
498.10 1.009
498.20 1.008
498.30 1.008
498.40 1.007
498.50 1.007
498.60 1.006
498.70 1.006
498.80 1.006
498.90 1.005
499.00 1.005
499.10 1.004
499.20 1.004
499.30 1.003
499.40 1.003
499.50 1.002
499.60 1.002
499.70 1.001
499.80 1.001
499.90 1
500.00 1
500.10 0.9995
500.20 0.999
500.30 0.9985
500.40 0.998
500.50 0.9974
500.60 0.9969
500.70 0.9964
500.80 0.9959
500.90 0.9953
501.00 0.9948
501.10 0.9943
501.20 0.9937
501.30 0.9932
501.40 0.9926
501.50 0.9921
501.60 0.9915
501.70 0.991
501.80 0.9904
501.90 0.9899
502.00 0.9893
502.10 0.9888
502.20 0.9882
502.30 0.9877
502.40 0.9871
502.50 0.9865
502.60 0.986
502.70 0.9854
502.80 0.9848
502.90 0.9843
503.00 0.9837
503.10 0.9831
503.20 0.9825
503.30 0.982
503.40 0.9814
503.50 0.9808
503.60 0.9802
503.70 0.9796
503.80 0.9791
503.90 0.9785
504.00 0.9779
504.10 0.9773
504.20 0.9767
504.30 0.9762
504.40 0.9756
504.50 0.975
504.60 0.9744
504.70 0.9738
504.80 0.9732
504.90 0.9726
505.00 0.972
505.10 0.9714
505.20 0.9708
505.30 0.9703
505.40 0.9697
505.50 0.9691
505.60 0.9685
505.70 0.9679
505.80 0.9673
505.90 0.9667
506.00 0.9661
506.10 0.9655
506.20 0.9649
506.30 0.9643
506.40 0.9637
506.50 0.9631
506.60 0.9625
506.70 0.9619
506.80 0.9613
506.90 0.9607
507.00 0.9601
507.10 0.9595
507.20 0.9589
507.30 0.9583
507.40 0.9577
507.50 0.9571
507.60 0.9565
507.70 0.9559
507.80 0.9553
507.90 0.9547
508.00 0.9541
508.10 0.9535
508.20 0.9529
508.30 0.9523
508.40 0.9517
508.50 0.9511
508.60 0.9505
508.70 0.9499
508.80 0.9492
508.90 0.9486
509.00 0.948
509.10 0.9474
509.20 0.9468
509.30 0.9462
509.40 0.9456
509.50 0.945
509.60 0.9444
509.70 0.9438
509.80 0.9432
509.90 0.9426
510.00 0.9421
510.10 0.9415
510.20 0.9409
510.30 0.9402
510.40 0.9396
510.50 0.939
510.60 0.9384
510.70 0.9378
510.80 0.9372
510.90 0.9366
511.00 0.936
511.10 0.9354
511.20 0.9348
511.30 0.9342
511.40 0.9336
511.50 0.933
511.60 0.9324
511.70 0.9318
511.80 0.9312
511.90 0.9306
512.00 0.93
512.10 0.9294
512.20 0.9289
512.30 0.9283
512.40 0.9277
512.50 0.9271
512.60 0.9265
512.70 0.9259
512.80 0.9253
512.90 0.9247
513.00 0.9241
513.10 0.9235
513.20 0.9229
513.30 0.9223
513.40 0.9217
513.50 0.9211
513.60 0.9206
513.70 0.92
513.80 0.9194
513.90 0.9188
514.00 0.9182
514.10 0.9176
514.20 0.917
514.30 0.9164
514.40 0.9158
514.50 0.9152
514.60 0.9146
514.70 0.914
514.80 0.9134
514.90 0.9129
515.00 0.9123
515.10 0.9117
515.20 0.9111
515.30 0.9105
515.40 0.9099
515.50 0.9093
515.60 0.9088
515.70 0.9082
515.80 0.9076
515.90 0.907
516.00 0.9064
516.10 0.9058
516.20 0.9053
516.30 0.9047
516.40 0.9041
516.50 0.9035
516.60 0.9029
516.70 0.9023
516.80 0.9017
516.90 0.9012
517.00 0.9006
517.10 0.9
517.20 0.8994
517.30 0.8988
517.40 0.8982
517.50 0.8977
517.60 0.8971
517.70 0.8965
517.80 0.8959
517.90 0.8953
518.00 0.8947
518.10 0.8942
518.20 0.8936
518.30 0.893
518.40 0.8924
518.50 0.8919
518.60 0.8913
518.70 0.8907
518.80 0.8902
518.90 0.8896
519.00 0.889
519.10 0.8885
519.20 0.8879
519.30 0.8873
519.40 0.8867
519.50 0.8862
519.60 0.8856
519.70 0.885
519.80 0.8844
519.90 0.8839
520.00 0.8833
520.10 0.8827
520.20 0.8821
520.30 0.8816
520.40 0.881
520.50 0.8805
520.60 0.8799
520.70 0.8793
520.80 0.8788
520.90 0.8782
521.00 0.8776
521.10 0.8771
521.20 0.8765
521.30 0.8759
521.40 0.8754
521.50 0.8748
521.60 0.8742
521.70 0.8737
521.80 0.8731
521.90 0.8725
522.00 0.872
522.10 0.8714
522.20 0.8708
522.30 0.8703
522.40 0.8697
522.50 0.8692
522.60 0.8686
522.70 0.8681
522.80 0.8675
522.90 0.8669
523.00 0.8664
523.10 0.8658
523.20 0.8653
523.30 0.8647
523.40 0.8642
523.50 0.8636
523.60 0.863
523.70 0.8625
523.80 0.8619
523.90 0.8614
524.00 0.8608
524.10 0.8602
524.20 0.8597
524.30 0.8591
524.40 0.8586
524.50 0.858
524.60 0.8575
524.70 0.8569
524.80 0.8564
524.90 0.8558
525.00 0.8553
525.10 0.8548
525.20 0.8542
525.30 0.8537
525.40 0.8531
525.50 0.8526
525.60 0.852
525.70 0.8515
525.80 0.8509
525.90 0.8504
526.00 0.8498
526.10 0.8493
526.20 0.8488
526.30 0.8482
526.40 0.8477
526.50 0.8471
526.60 0.8466
526.70 0.846
526.80 0.8455
526.90 0.845
527.00 0.8444
527.10 0.8439
527.20 0.8433
527.30 0.8428
527.40 0.8423
527.50 0.8417
527.60 0.8412
527.70 0.8406
527.80 0.8401
527.90 0.8396
528.00 0.839
528.10 0.8385
528.20 0.838
528.30 0.8374
528.40 0.8369
528.50 0.8363
528.60 0.8358
528.70 0.8353
528.80 0.8347
528.90 0.8342
529.00 0.8337
529.10 0.8331
529.20 0.8326
529.30 0.8321
529.40 0.8315
529.50 0.831
529.60 0.8305
529.70 0.8299
529.80 0.8294
529.90 0.8289
530.00 0.8283
530.10 0.8278
530.20 0.8273
530.30 0.8268
530.40 0.8262
530.50 0.8257
530.60 0.8252
530.70 0.8246
530.80 0.8241
530.90 0.8236
531.00 0.8231
531.10 0.8225
531.20 0.822
531.30 0.8215
531.40 0.821
531.50 0.8204
531.60 0.8199
531.70 0.8194
531.80 0.8189
531.90 0.8183
532.00 0.8178
532.10 0.8173
532.20 0.8168
532.30 0.8162
532.40 0.8157
532.50 0.8152
532.60 0.8147
532.70 0.8142
532.80 0.8137
532.90 0.8132
533.00 0.8126
533.10 0.8121
533.20 0.8116
533.30 0.8111
533.40 0.8106
533.50 0.8101
533.60 0.8095
533.70 0.809
533.80 0.8085
533.90 0.808
534.00 0.8075
534.10 0.807
534.20 0.8064
534.30 0.8059
534.40 0.8054
534.50 0.8049
534.60 0.8044
534.70 0.8039
534.80 0.8034
534.90 0.8029
535.00 0.8024
535.10 0.8019
535.20 0.8014
535.30 0.8009
535.40 0.8003
535.50 0.7998
535.60 0.7993
535.70 0.7988
535.80 0.7983
535.90 0.7978
536.00 0.7973
536.10 0.7968
536.20 0.7963
536.30 0.7958
536.40 0.7953
536.50 0.7948
536.60 0.7943
536.70 0.7938
536.80 0.7933
536.90 0.7928
537.00 0.7923
537.10 0.7918
537.20 0.7913
537.30 0.7908
537.40 0.7903
537.50 0.7898
537.60 0.7893
537.70 0.7888
537.80 0.7883
537.90 0.7878
538.00 0.7873
538.10 0.7868
538.20 0.7863
538.30 0.7858
538.40 0.7853
538.50 0.7848
538.60 0.7843
538.70 0.7838
538.80 0.7833
538.90 0.7828
539.00 0.7823
539.10 0.7818
539.20 0.7814
539.30 0.7809
539.40 0.7804
539.50 0.7799
539.60 0.7794
539.70 0.7789
539.80 0.7784
539.90 0.7779
540.00 0.7774
540.10 0.7769
540.20 0.7764
540.30 0.7759
540.40 0.7754
540.50 0.775
540.60 0.7745
540.70 0.774
540.80 0.7735
540.90 0.773
541.00 0.7725
541.10 0.772
541.20 0.7715
541.30 0.7711
541.40 0.7706
541.50 0.7701
541.60 0.7696
541.70 0.7691
541.80 0.7687
541.90 0.7682
542.00 0.7677
542.10 0.7672
542.20 0.7667
542.30 0.7663
542.40 0.7658
542.50 0.7653
542.60 0.7648
542.70 0.7643
542.80 0.7638
542.90 0.7634
543.00 0.7629
543.10 0.7624
543.20 0.7619
543.30 0.7614
543.40 0.761
543.50 0.7605
543.60 0.76
543.70 0.7595
543.80 0.7591
543.90 0.7586
544.00 0.7581
544.10 0.7576
544.20 0.7572
544.30 0.7567
544.40 0.7562
544.50 0.7558
544.60 0.7553
544.70 0.7548
544.80 0.7543
544.90 0.7539
545.00 0.7534
545.10 0.7529
545.20 0.7525
545.30 0.752
545.40 0.7515
545.50 0.7511
545.60 0.7506
545.70 0.7501
545.80 0.7497
545.90 0.7492
546.00 0.7487
546.10 0.7483
546.20 0.7478
546.30 0.7473
546.40 0.7469
546.50 0.7464
546.60 0.746
546.70 0.7455
546.80 0.7451
546.90 0.7446
547.00 0.7442
547.10 0.7437
547.20 0.7433
547.30 0.7428
547.40 0.7423
547.50 0.7419
547.60 0.7414
547.70 0.7409
547.80 0.7405
547.90 0.74
548.00 0.7396
548.10 0.7391
548.20 0.7386
548.30 0.7382
548.40 0.7377
548.50 0.7373
548.60 0.7368
548.70 0.7363
548.80 0.7359
548.90 0.7354
549.00 0.735
549.10 0.7345
549.20 0.734
549.30 0.7336
549.40 0.7331
549.50 0.7327
549.60 0.7322
549.70 0.7318
549.80 0.7313
549.90 0.7308
550.00 0.7304
550.10 0.7299
550.20 0.7295
550.30 0.729
550.40 0.7286
550.50 0.7281
550.60 0.7277
550.70 0.7272
550.80 0.7268
550.90 0.7263
551.00 0.7259
551.10 0.7255
551.20 0.725
551.30 0.7246
551.40 0.7241
551.50 0.7236
551.60 0.7232
551.70 0.7227
551.80 0.7223
551.90 0.7218
552.00 0.7214
552.10 0.7209
552.20 0.7205
552.30 0.7201
552.40 0.7196
552.50 0.7192
552.60 0.7187
552.70 0.7183
552.80 0.7178
552.90 0.7174
553.00 0.717
553.10 0.7165
553.20 0.7161
553.30 0.7156
553.40 0.7152
553.50 0.7148
553.60 0.7143
553.70 0.7139
553.80 0.7134
553.90 0.713
554.00 0.7126
554.10 0.7121
554.20 0.7117
554.30 0.7113
554.40 0.7108
554.50 0.7104
554.60 0.7099
554.70 0.7095
554.80 0.7091
554.90 0.7086
555.00 0.7082
555.10 0.7078
555.20 0.7073
555.30 0.7069
555.40 0.7065
555.50 0.706
555.60 0.7056
555.70 0.7052
555.80 0.7047
555.90 0.7043
556.00 0.7039
556.10 0.7034
556.20 0.703
556.30 0.7026
556.40 0.7021
556.50 0.7017
556.60 0.7013
556.70 0.7008
556.80 0.7004
556.90 0.7
557.00 0.6995
557.10 0.6991
557.20 0.6987
557.30 0.6982
557.40 0.6978
557.50 0.6974
557.60 0.697
557.70 0.6965
557.80 0.6961
557.90 0.6957
558.00 0.6952
558.10 0.6948
558.20 0.6944
558.30 0.694
558.40 0.6935
558.50 0.6931
558.60 0.6927
558.70 0.6923
558.80 0.6918
558.90 0.6914
559.00 0.691
559.10 0.6906
559.20 0.6901
559.30 0.6897
559.40 0.6893
559.50 0.6889
559.60 0.6885
559.70 0.688
559.80 0.6876
559.90 0.6872
560.00 0.6868
560.10 0.6864
560.20 0.686
560.30 0.6855
560.40 0.6851
560.50 0.6847
560.60 0.6843
560.70 0.6838
560.80 0.6834
560.90 0.683
561.00 0.6826
561.10 0.6822
561.20 0.6817
561.30 0.6813
561.40 0.6809
561.50 0.6805
561.60 0.6801
561.70 0.6797
561.80 0.6793
561.90 0.6789
562.00 0.6784
562.10 0.678
562.20 0.6776
562.30 0.6772
562.40 0.6768
562.50 0.6764
562.60 0.676
562.70 0.6756
562.80 0.6752
562.90 0.6748
563.00 0.6743
563.10 0.6739
563.20 0.6735
563.30 0.6731
563.40 0.6727
563.50 0.6723
563.60 0.6719
563.70 0.6715
563.80 0.6711
563.90 0.6707
564.00 0.6703
564.10 0.6699
564.20 0.6695
564.30 0.669
564.40 0.6686
564.50 0.6682
564.60 0.6678
564.70 0.6674
564.80 0.667
564.90 0.6666
565.00 0.6662
565.10 0.6658
565.20 0.6654
565.30 0.665
565.40 0.6646
565.50 0.6642
565.60 0.6638
565.70 0.6634
565.80 0.663
565.90 0.6626
566.00 0.6622
566.10 0.6618
566.20 0.6614
566.30 0.661
566.40 0.6606
566.50 0.6602
566.60 0.6598
566.70 0.6594
566.80 0.659
566.90 0.6586
567.00 0.6582
567.10 0.6578
567.20 0.6574
567.30 0.657
567.40 0.6566
567.50 0.6562
567.60 0.6558
567.70 0.6554
567.80 0.655
567.90 0.6546
568.00 0.6542
568.10 0.6538
568.20 0.6535
568.30 0.6531
568.40 0.6527
568.50 0.6523
568.60 0.6519
568.70 0.6515
568.80 0.6511
568.90 0.6507
569.00 0.6503
569.10 0.6499
569.20 0.6495
569.30 0.6491
569.40 0.6487
569.50 0.6483
569.60 0.648
569.70 0.6476
569.80 0.6472
569.90 0.6468
570.00 0.6464
570.10 0.646
570.20 0.6456
570.30 0.6452
570.40 0.6448
570.50 0.6445
570.60 0.6441
570.70 0.6437
570.80 0.6433
570.90 0.6429
571.00 0.6425
571.10 0.6421
571.20 0.6417
571.30 0.6413
571.40 0.641
571.50 0.6406
571.60 0.6402
571.70 0.6398
571.80 0.6394
571.90 0.639
572.00 0.6387
572.10 0.6383
572.20 0.6379
572.30 0.6375
572.40 0.6371
572.50 0.6368
572.60 0.6364
572.70 0.636
572.80 0.6356
572.90 0.6352
573.00 0.6349
573.10 0.6345
573.20 0.6341
573.30 0.6337
573.40 0.6333
573.50 0.633
573.60 0.6326
573.70 0.6322
573.80 0.6318
573.90 0.6314
574.00 0.6311
574.10 0.6307
574.20 0.6303
574.30 0.6299
574.40 0.6296
574.50 0.6292
574.60 0.6288
574.70 0.6284
574.80 0.6281
574.90 0.6277
575.00 0.6273
575.10 0.6269
575.20 0.6266
575.30 0.6262
575.40 0.6258
575.50 0.6255
575.60 0.6251
575.70 0.6247
575.80 0.6243
575.90 0.624
576.00 0.6236
576.10 0.6232
576.20 0.6229
576.30 0.6225
576.40 0.6221
576.50 0.6218
576.60 0.6214
576.70 0.621
576.80 0.6206
576.90 0.6203
577.00 0.6199
577.10 0.6195
577.20 0.6192
577.30 0.6188
577.40 0.6184
577.50 0.6181
577.60 0.6177
577.70 0.6173
577.80 0.6169
577.90 0.6166
578.00 0.6162
578.10 0.6158
578.20 0.6155
578.30 0.6151
578.40 0.6147
578.50 0.6144
578.60 0.614
578.70 0.6137
578.80 0.6133
578.90 0.6129
579.00 0.6126
579.10 0.6122
579.20 0.6119
579.30 0.6115
579.40 0.6111
579.50 0.6108
579.60 0.6104
579.70 0.6101
579.80 0.6097
579.90 0.6093
580.00 0.609
580.10 0.6086
580.20 0.6083
580.30 0.6079
580.40 0.6075
580.50 0.6072
580.60 0.6068
580.70 0.6064
580.80 0.6061
580.90 0.6057
581.00 0.6054
581.10 0.605
581.20 0.6046
581.30 0.6043
581.40 0.6039
581.50 0.6036
581.60 0.6032
581.70 0.6029
581.80 0.6025
581.90 0.6021
582.00 0.6018
582.10 0.6014
582.20 0.6011
582.30 0.6007
582.40 0.6004
582.50 0.6
582.60 0.5997
582.70 0.5993
582.80 0.599
582.90 0.5986
583.00 0.5983
583.10 0.5979
583.20 0.5976
583.30 0.5972
583.40 0.5968
583.50 0.5965
583.60 0.5961
583.70 0.5958
583.80 0.5954
583.90 0.5951
584.00 0.5947
584.10 0.5944
584.20 0.594
584.30 0.5937
584.40 0.5933
584.50 0.593
584.60 0.5926
584.70 0.5923
584.80 0.5919
584.90 0.5916
585.00 0.5912
585.10 0.5909
585.20 0.5906
585.30 0.5902
585.40 0.5899
585.50 0.5895
585.60 0.5892
585.70 0.5888
585.80 0.5885
585.90 0.5882
586.00 0.5878
586.10 0.5875
586.20 0.5871
586.30 0.5868
586.40 0.5864
586.50 0.5861
586.60 0.5858
586.70 0.5854
586.80 0.5851
586.90 0.5847
587.00 0.5844
587.10 0.584
587.20 0.5837
587.30 0.5833
587.40 0.583
587.50 0.5827
587.60 0.5823
587.70 0.582
587.80 0.5816
587.90 0.5813
588.00 0.5809
588.10 0.5806
588.20 0.5803
588.30 0.5799
588.40 0.5796
588.50 0.5793
588.60 0.5789
588.70 0.5786
588.80 0.5782
588.90 0.5779
589.00 0.5776
589.10 0.5772
589.20 0.5769
589.30 0.5766
589.40 0.5762
589.50 0.5759
589.60 0.5756
589.70 0.5752
589.80 0.5749
589.90 0.5746
590.00 0.5742
590.10 0.5739
590.20 0.5736
590.30 0.5732
590.40 0.5729
590.50 0.5725
590.60 0.5722
590.70 0.5719
590.80 0.5715
590.90 0.5712
591.00 0.5709
591.10 0.5705
591.20 0.5702
591.30 0.5699
591.40 0.5695
591.50 0.5692
591.60 0.5689
591.70 0.5685
591.80 0.5682
591.90 0.5679
592.00 0.5676
592.10 0.5672
592.20 0.5669
592.30 0.5666
592.40 0.5662
592.50 0.5659
592.60 0.5656
592.70 0.5653
592.80 0.5649
592.90 0.5646
593.00 0.5643
593.10 0.5639
593.20 0.5636
593.30 0.5633
593.40 0.563
593.50 0.5626
593.60 0.5623
593.70 0.562
593.80 0.5617
593.90 0.5613
594.00 0.561
594.10 0.5607
594.20 0.5604
594.30 0.56
594.40 0.5597
594.50 0.5594
594.60 0.5591
594.70 0.5587
594.80 0.5584
594.90 0.5581
595.00 0.5578
595.10 0.5574
595.20 0.5571
595.30 0.5568
595.40 0.5565
595.50 0.5562
595.60 0.5558
595.70 0.5555
595.80 0.5552
595.90 0.5549
596.00 0.5546
596.10 0.5543
596.20 0.5539
596.30 0.5536
596.40 0.5532
596.50 0.5529
596.60 0.5526
596.70 0.5522
596.80 0.5519
596.90 0.5515
597.00 0.5512
597.10 0.5509
597.20 0.5505
597.30 0.5502
597.40 0.5499
597.50 0.5496
597.60 0.5493
597.70 0.5489
597.80 0.5486
597.90 0.5483
598.00 0.548
598.10 0.5477
598.20 0.5473
598.30 0.547
598.40 0.5467
598.50 0.5464
598.60 0.5461
598.70 0.5458
598.80 0.5454
598.90 0.5451
599.00 0.5448
599.10 0.5445
599.20 0.5442
599.30 0.5439
599.40 0.5436
599.50 0.5432
599.60 0.5429
599.70 0.5426
599.80 0.5423
599.90 0.542
600.00 0.5417
600.10 0.5414
600.20 0.5411
600.30 0.5408
600.40 0.5405
600.50 0.5401
600.60 0.5398
600.70 0.5395
600.80 0.5392
600.90 0.5389
601.00 0.5386
601.10 0.5383
601.20 0.5379
601.30 0.5376
601.40 0.5373
601.50 0.537
601.60 0.5367
601.70 0.5364
601.80 0.5361
601.90 0.5358
602.00 0.5355
602.10 0.5352
602.20 0.5349
602.30 0.5346
602.40 0.5343
602.50 0.534
602.60 0.5337
602.70 0.5334
602.80 0.5331
602.90 0.5328
603.00 0.5324
603.10 0.5321
603.20 0.5318
603.30 0.5315
603.40 0.5312
603.50 0.5309
603.60 0.5306
603.70 0.5303
603.80 0.53
603.90 0.5297
604.00 0.5294
604.10 0.5291
604.20 0.5288
604.30 0.5285
604.40 0.5282
604.50 0.5279
604.60 0.5276
604.70 0.5273
604.80 0.527
604.90 0.5267
605.00 0.5264
605.10 0.5261
605.20 0.5258
605.30 0.5254
605.40 0.5251
605.50 0.5248
605.60 0.5246
605.70 0.5243
605.80 0.524
605.90 0.5237
606.00 0.5234
606.10 0.5231
606.20 0.5228
606.30 0.5225
606.40 0.5222
606.50 0.5219
606.60 0.5216
606.70 0.5213
606.80 0.521
606.90 0.5207
607.00 0.5204
607.10 0.5201
607.20 0.5198
607.30 0.5195
607.40 0.5192
607.50 0.5189
607.60 0.5186
607.70 0.5183
607.80 0.518
607.90 0.5177
608.00 0.5175
608.10 0.5172
608.20 0.5169
608.30 0.5166
608.40 0.5163
608.50 0.516
608.60 0.5157
608.70 0.5154
608.80 0.5151
608.90 0.5148
609.00 0.5145
609.10 0.5142
609.20 0.5139
609.30 0.5136
609.40 0.5133
609.50 0.513
609.60 0.5128
609.70 0.5125
609.80 0.5122
609.90 0.5119
610.00 0.5116
610.10 0.5113
610.20 0.511
610.30 0.5107
610.40 0.5104
610.50 0.5101
610.60 0.5098
610.70 0.5095
610.80 0.5092
610.90 0.509
611.00 0.5087
611.10 0.5084
611.20 0.5081
611.30 0.5078
611.40 0.5075
611.50 0.5072
611.60 0.5069
611.70 0.5067
611.80 0.5064
611.90 0.5061
612.00 0.5058
612.10 0.5055
612.20 0.5052
612.30 0.5049
612.40 0.5047
612.50 0.5044
612.60 0.5041
612.70 0.5038
612.80 0.5035
612.90 0.5032
613.00 0.5029
613.10 0.5026
613.20 0.5024
613.30 0.5021
613.40 0.5018
613.50 0.5015
613.60 0.5012
613.70 0.501
613.80 0.5007
613.90 0.5004
614.00 0.5001
614.10 0.4998
614.20 0.4995
614.30 0.4993
614.40 0.499
614.50 0.4987
614.60 0.4984
614.70 0.4981
614.80 0.4978
614.90 0.4976
615.00 0.4973
615.10 0.497
615.20 0.4967
615.30 0.4964
615.40 0.4961
615.50 0.4959
615.60 0.4956
615.70 0.4953
615.80 0.495
615.90 0.4948
616.00 0.4945
616.10 0.4942
616.20 0.4939
616.30 0.4936
616.40 0.4934
616.50 0.4931
616.60 0.4928
616.70 0.4925
616.80 0.4922
616.90 0.4919
617.00 0.4917
617.10 0.4914
617.20 0.4911
617.30 0.4908
617.40 0.4906
617.50 0.4903
617.60 0.49
617.70 0.4897
617.80 0.4895
617.90 0.4892
618.00 0.4889
618.10 0.4886
618.20 0.4884
618.30 0.4881
618.40 0.4878
618.50 0.4875
618.60 0.4873
618.70 0.487
618.80 0.4867
618.90 0.4864
619.00 0.4862
619.10 0.4859
619.20 0.4856
619.30 0.4853
619.40 0.4851
619.50 0.4848
619.60 0.4845
619.70 0.4842
619.80 0.4839
619.90 0.4837
620.00 0.4834
620.10 0.4831
620.20 0.4828
620.30 0.4826
620.40 0.4823
620.50 0.482
620.60 0.4818
620.70 0.4815
620.80 0.4812
620.90 0.481
621.00 0.4807
621.10 0.4804
621.20 0.4801
621.30 0.4799
621.40 0.4796
621.50 0.4793
621.60 0.4791
621.70 0.4788
621.80 0.4785
621.90 0.4783
622.00 0.478
622.10 0.4777
622.20 0.4774
622.30 0.4772
622.40 0.4769
622.50 0.4766
622.60 0.4764
622.70 0.4761
622.80 0.4758
622.90 0.4756
623.00 0.4753
623.10 0.475
623.20 0.4748
623.30 0.4745
623.40 0.4742
623.50 0.474
623.60 0.4737
623.70 0.4734
623.80 0.4732
623.90 0.4729
624.00 0.4726
624.10 0.4724
624.20 0.4721
624.30 0.4718
624.40 0.4716
624.50 0.4713
624.60 0.471
624.70 0.4708
624.80 0.4705
624.90 0.4702
625.00 0.47
625.10 0.4697
625.20 0.4694
625.30 0.4692
625.40 0.4689
625.50 0.4686
625.60 0.4684
625.70 0.4681
625.80 0.4678
625.90 0.4676
626.00 0.4673
626.10 0.467
626.20 0.4668
626.30 0.4665
626.40 0.4663
626.50 0.466
626.60 0.4657
626.70 0.4655
626.80 0.4652
626.90 0.4649
627.00 0.4647
627.10 0.4644
627.20 0.4641
627.30 0.4639
627.40 0.4636
627.50 0.4634
627.60 0.4631
627.70 0.4628
627.80 0.4626
627.90 0.4623
628.00 0.4621
628.10 0.4618
628.20 0.4615
628.30 0.4613
628.40 0.461
628.50 0.4607
628.60 0.4605
628.70 0.4602
628.80 0.46
628.90 0.4597
629.00 0.4594
629.10 0.4592
629.20 0.4589
629.30 0.4587
629.40 0.4584
629.50 0.4581
629.60 0.4579
629.70 0.4576
629.80 0.4574
629.90 0.4571
630.00 0.4568
630.10 0.4566
630.20 0.4563
630.30 0.4561
630.40 0.4558
630.50 0.4555
630.60 0.4553
630.70 0.455
630.80 0.4548
630.90 0.4545
631.00 0.4542
631.10 0.454
631.20 0.4537
631.30 0.4535
631.40 0.4532
631.50 0.4529
631.60 0.4527
631.70 0.4524
631.80 0.4522
631.90 0.4519
632.00 0.4516
632.10 0.4514
632.20 0.4511
632.30 0.4509
632.40 0.4506
632.50 0.4503
632.60 0.4501
632.70 0.4498
632.80 0.4496
632.90 0.4493
633.00 0.4491
633.10 0.4488
633.20 0.4485
633.30 0.4483
633.40 0.448
633.50 0.4478
633.60 0.4475
633.70 0.4472
633.80 0.447
633.90 0.4467
634.00 0.4465
634.10 0.4462
634.20 0.4459
634.30 0.4457
634.40 0.4454
634.50 0.4452
634.60 0.4449
634.70 0.4446
634.80 0.4444
634.90 0.4441
635.00 0.4439
635.10 0.4436
635.20 0.4433
635.30 0.4431
635.40 0.4428
635.50 0.4426
635.60 0.4423
635.70 0.442
635.80 0.4418
635.90 0.4415
636.00 0.4413
636.10 0.441
636.20 0.4407
636.30 0.4405
636.40 0.4402
636.50 0.4399
636.60 0.4397
636.70 0.4394
636.80 0.4392
636.90 0.4389
637.00 0.4386
637.10 0.4384
637.20 0.4381
637.30 0.4378
637.40 0.4376
637.50 0.4373
637.60 0.437
637.70 0.4368
637.80 0.4365
637.90 0.4363
638.00 0.436
638.10 0.4357
638.20 0.4355
638.30 0.4352
638.40 0.4349
638.50 0.4347
638.60 0.4344
638.70 0.4341
638.80 0.4338
638.90 0.4336
639.00 0.4333
639.10 0.433
639.20 0.4328
639.30 0.4325
639.40 0.4322
639.50 0.432
639.60 0.4317
639.70 0.4314
639.80 0.4311
639.90 0.4309
640.00 0.4306
640.10 0.4303
640.20 0.43
640.30 0.4298
640.40 0.4295
640.50 0.4292
640.60 0.4289
640.70 0.4286
640.80 0.4284
640.90 0.4281
641.00 0.4278
641.10 0.4275
641.20 0.4272
641.30 0.427
641.40 0.4267
641.50 0.4264
641.60 0.4261
641.70 0.4258
641.80 0.4255
641.90 0.4252
642.00 0.4249
642.10 0.4246
642.20 0.4244
642.30 0.4241
642.40 0.4238
642.50 0.4235
642.60 0.4232
642.70 0.4229
642.80 0.4226
642.90 0.4222
643.00 0.4219
643.10 0.4216
643.20 0.4213
643.30 0.421
643.40 0.4207
643.50 0.4204
643.60 0.4201
643.70 0.4198
643.80 0.4194
643.90 0.4191
644.00 0.4188
644.10 0.4185
644.20 0.4182
644.30 0.4178
644.40 0.4175
644.50 0.4172
644.60 0.4168
644.70 0.4165
644.80 0.4161
644.90 0.4158
645.00 0.4154
645.10 0.4151
645.20 0.4148
645.30 0.4144
645.40 0.414
645.50 0.4136
645.60 0.4133
645.70 0.4129
645.80 0.4125
645.90 0.4121
646.00 0.4118
646.10 0.4114
646.20 0.411
646.30 0.4106
646.40 0.4102
646.50 0.4098
646.60 0.4094
646.70 0.4089
646.80 0.4085
646.90 0.4081
647.00 0.4077
647.10 0.4072
647.20 0.4068
647.30 0.4064
647.40 0.4059
647.50 0.4054
647.60 0.4049
647.70 0.4044
647.80 0.4039
647.90 0.4034
648.00 0.4029
648.10 0.4024
648.20 0.402
648.30 0.4014
648.40 0.4009
648.50 0.4003
648.60 0.3997
648.70 0.3991
648.80 0.3985
648.90 0.3979
649.00 0.3973
649.10 0.3967
649.20 0.3961
649.30 0.3955
649.40 0.3948
649.50 0.394
649.60 0.3933
649.70 0.3925
649.80 0.3918
649.90 0.3911
650.00 0.3903
650.10 0.3896
650.20 0.3889
650.30 0.3881
650.40 0.3871
650.50 0.3862
650.60 0.3852
650.70 0.3842
650.80 0.3833
650.90 0.3823
651.00 0.3814
651.10 0.3804
651.20 0.3794
651.30 0.3784
651.40 0.3771
651.50 0.3758
651.60 0.3745
651.70 0.3732
651.80 0.3719
651.90 0.3706
652.00 0.3693
652.10 0.368
652.20 0.3667
652.30 0.3653
652.40 0.3636
652.50 0.3618
652.60 0.36
652.70 0.3582
652.80 0.3565
652.90 0.3547
653.00 0.3529
653.10 0.3511
653.20 0.3494
653.30 0.3475
653.40 0.3451
653.50 0.3426
653.60 0.3402
653.70 0.3378
653.80 0.3354
653.90 0.333
654.00 0.3306
654.10 0.3282
654.20 0.3258
654.30 0.3232
654.40 0.3203
654.50 0.3173
654.60 0.3143
654.70 0.3114
654.80 0.3083
654.90 0.3048
655.00 0.3013
655.10 0.2977
655.20 0.2942
655.30 0.2906
655.40 0.2868
655.50 0.2828
655.60 0.2785
655.70 0.274
655.80 0.269
655.90 0.2635
656.00 0.2563
656.10 0.2483
656.20 0.2185
656.30 0.1876
656.40 0.2375
656.50 0.2512
656.60 0.2583
656.70 0.265
656.80 0.2697
656.90 0.2744
657.00 0.2784
657.10 0.2824
657.20 0.286
657.30 0.2895
657.40 0.2927
657.50 0.2959
657.60 0.2991
657.70 0.3023
657.80 0.3054
657.90 0.3081
658.00 0.3107
658.10 0.3133
658.20 0.316
658.30 0.3185
658.40 0.3205
658.50 0.3226
658.60 0.3246
658.70 0.3266
658.80 0.3287
658.90 0.3307
659.00 0.3327
659.10 0.3348
659.20 0.3368
659.30 0.3387
659.40 0.3401
659.50 0.3414
659.60 0.3428
659.70 0.3441
659.80 0.3455
659.90 0.3469
660.00 0.3482
660.10 0.3496
660.20 0.3509
660.30 0.3522
660.40 0.353
660.50 0.3539
660.60 0.3548
660.70 0.3556
660.80 0.3565
660.90 0.3573
661.00 0.3582
661.10 0.3591
661.20 0.3599
661.30 0.3607
661.40 0.3612
661.50 0.3618
661.60 0.3623
661.70 0.3628
661.80 0.3633
661.90 0.3638
662.00 0.3643
662.10 0.3649
662.20 0.3654
662.30 0.3658
662.40 0.3661
662.50 0.3664
662.60 0.3667
662.70 0.367
662.80 0.3673
662.90 0.3676
663.00 0.3679
663.10 0.3682
663.20 0.3684
663.30 0.3687
663.40 0.3688
663.50 0.369
663.60 0.3691
663.70 0.3693
663.80 0.3694
663.90 0.3696
664.00 0.3697
664.10 0.3699
664.20 0.37
664.30 0.3701
664.40 0.3702
664.50 0.3702
664.60 0.3703
664.70 0.3703
664.80 0.3704
664.90 0.3704
665.00 0.3705
665.10 0.3705
665.20 0.3706
665.30 0.3706
665.40 0.3706
665.50 0.3705
665.60 0.3705
665.70 0.3705
665.80 0.3705
665.90 0.3705
666.00 0.3705
666.10 0.3704
666.20 0.3704
666.30 0.3704
666.40 0.3703
666.50 0.3703
666.60 0.3702
666.70 0.3701
666.80 0.3701
666.90 0.37
667.00 0.3699
667.10 0.3699
667.20 0.3698
667.30 0.3697
667.40 0.3697
667.50 0.3696
667.60 0.3695
667.70 0.3694
667.80 0.3693
667.90 0.3692
668.00 0.3691
668.10 0.369
668.20 0.3689
668.30 0.3688
668.40 0.3687
668.50 0.3686
668.60 0.3684
668.70 0.3683
668.80 0.3682
668.90 0.3681
669.00 0.368
669.10 0.3679
669.20 0.3677
669.30 0.3676
669.40 0.3675
669.50 0.3674
669.60 0.3672
669.70 0.3671
669.80 0.367
669.90 0.3668
670.00 0.3667
670.10 0.3666
670.20 0.3664
670.30 0.3663
670.40 0.3662
670.50 0.366
670.60 0.3659
670.70 0.3657
670.80 0.3656
670.90 0.3654
671.00 0.3653
671.10 0.3651
671.20 0.365
671.30 0.3649
671.40 0.3647
671.50 0.3646
671.60 0.3644
671.70 0.3642
671.80 0.3641
671.90 0.3639
672.00 0.3638
672.10 0.3636
672.20 0.3635
672.30 0.3633
672.40 0.3632
672.50 0.363
672.60 0.3629
672.70 0.3627
672.80 0.3625
672.90 0.3624
673.00 0.3622
673.10 0.3621
673.20 0.3619
673.30 0.3618
673.40 0.3616
673.50 0.3614
673.60 0.3613
673.70 0.3611
673.80 0.3609
673.90 0.3608
674.00 0.3606
674.10 0.3605
674.20 0.3603
674.30 0.3601
674.40 0.36
674.50 0.3598
674.60 0.3596
674.70 0.3595
674.80 0.3593
674.90 0.3591
675.00 0.359
675.10 0.3588
675.20 0.3586
675.30 0.3585
675.40 0.3583
675.50 0.3581
675.60 0.358
675.70 0.3578
675.80 0.3576
675.90 0.3575
676.00 0.3573
676.10 0.3571
676.20 0.357
676.30 0.3568
676.40 0.3566
676.50 0.3565
676.60 0.3563
676.70 0.3561
676.80 0.3559
676.90 0.3558
677.00 0.3556
677.10 0.3554
677.20 0.3553
677.30 0.3551
677.40 0.3549
677.50 0.3548
677.60 0.3546
677.70 0.3544
677.80 0.3542
677.90 0.3541
678.00 0.3539
678.10 0.3537
678.20 0.3536
678.30 0.3534
678.40 0.3532
678.50 0.353
678.60 0.3529
678.70 0.3527
678.80 0.3525
678.90 0.3524
679.00 0.3522
679.10 0.352
679.20 0.3518
679.30 0.3517
679.40 0.3515
679.50 0.3513
679.60 0.3512
679.70 0.351
679.80 0.3508
679.90 0.3506
680.00 0.3505
680.10 0.3503
680.20 0.3501
680.30 0.35
680.40 0.3498
680.50 0.3496
680.60 0.3494
680.70 0.3493
680.80 0.3491
680.90 0.3489
681.00 0.3488
681.10 0.3486
681.20 0.3484
681.30 0.3483
681.40 0.3481
681.50 0.3479
681.60 0.3477
681.70 0.3476
681.80 0.3474
681.90 0.3472
682.00 0.347
682.10 0.3469
682.20 0.3467
682.30 0.3465
682.40 0.3464
682.50 0.3462
682.60 0.346
682.70 0.3458
682.80 0.3457
682.90 0.3455
683.00 0.3453
683.10 0.3452
683.20 0.345
683.30 0.3448
683.40 0.3446
683.50 0.3445
683.60 0.3443
683.70 0.3441
683.80 0.344
683.90 0.3438
684.00 0.3436
684.10 0.3435
684.20 0.3433
684.30 0.3431
684.40 0.3429
684.50 0.3428
684.60 0.3426
684.70 0.3424
684.80 0.3423
684.90 0.3421
685.00 0.3419
685.10 0.3418
685.20 0.3416
685.30 0.3414
685.40 0.3412
685.50 0.3411
685.60 0.3409
685.70 0.3407
685.80 0.3406
685.90 0.3404
686.00 0.3402
686.10 0.3401
686.20 0.3399
686.30 0.3397
686.40 0.3395
686.50 0.3394
686.60 0.3392
686.70 0.339
686.80 0.3389
686.90 0.3387
687.00 0.3385
687.10 0.3384
687.20 0.3382
687.30 0.338
687.40 0.3379
687.50 0.3377
687.60 0.3375
687.70 0.3374
687.80 0.3372
687.90 0.337
688.00 0.3369
688.10 0.3367
688.20 0.3365
688.30 0.3363
688.40 0.3362
688.50 0.336
688.60 0.3358
688.70 0.3357
688.80 0.3355
688.90 0.3353
689.00 0.3352
689.10 0.335
689.20 0.3348
689.30 0.3347
689.40 0.3345
689.50 0.3343
689.60 0.3342
689.70 0.334
689.80 0.3338
689.90 0.3337
690.00 0.3335
690.10 0.3333
690.20 0.3332
690.30 0.333
690.40 0.3328
690.50 0.3327
690.60 0.3325
690.70 0.3323
690.80 0.3322
690.90 0.332
691.00 0.3319
691.10 0.3317
691.20 0.3315
691.30 0.3314
691.40 0.3312
691.50 0.331
691.60 0.3309
691.70 0.3307
691.80 0.3305
691.90 0.3304
692.00 0.3302
692.10 0.33
692.20 0.3299
692.30 0.3297
692.40 0.3295
692.50 0.3294
692.60 0.3292
692.70 0.3291
692.80 0.3289
692.90 0.3287
693.00 0.3286
693.10 0.3284
693.20 0.3282
693.30 0.3281
693.40 0.3279
693.50 0.3277
693.60 0.3276
693.70 0.3274
693.80 0.3273
693.90 0.3271
694.00 0.3269
694.10 0.3268
694.20 0.3266
694.30 0.3264
694.40 0.3263
694.50 0.3261
694.60 0.326
694.70 0.3258
694.80 0.3256
694.90 0.3255
695.00 0.3253
695.10 0.3251
695.20 0.325
695.30 0.3248
695.40 0.3247
695.50 0.3245
695.60 0.3243
695.70 0.3242
695.80 0.324
695.90 0.3238
696.00 0.3237
696.10 0.3235
696.20 0.3234
696.30 0.3232
696.40 0.323
696.50 0.3229
696.60 0.3227
696.70 0.3226
696.80 0.3224
696.90 0.3222
697.00 0.3221
697.10 0.3219
697.20 0.3218
697.30 0.3216
697.40 0.3214
697.50 0.3213
697.60 0.3211
697.70 0.321
697.80 0.3208
697.90 0.3206
698.00 0.3205
698.10 0.3203
698.20 0.3202
698.30 0.32
698.40 0.3198
698.50 0.3197
698.60 0.3195
698.70 0.3194
698.80 0.3192
698.90 0.319
699.00 0.3189
699.10 0.3187
699.20 0.3186
699.30 0.3184
699.40 0.3182
699.50 0.3181
699.60 0.3179
699.70 0.3178
699.80 0.3176
699.90 0.3175
700.00 0.3173
700.10 0.3171
700.20 0.3169
700.30 0.3167
700.40 0.3166
700.50 0.3164
700.60 0.3162
700.70 0.316
700.80 0.3158
700.90 0.3157
701.00 0.3155
701.10 0.3153
701.20 0.3151
701.30 0.3149
701.40 0.3147
701.50 0.3146
701.60 0.3144
701.70 0.3142
701.80 0.314
701.90 0.3138
702.00 0.3136
702.10 0.3135
702.20 0.3133
702.30 0.3131
702.40 0.3129
702.50 0.3127
702.60 0.3126
702.70 0.3124
702.80 0.3122
702.90 0.312
703.00 0.3118
703.10 0.3117
703.20 0.3115
703.30 0.3113
703.40 0.3111
703.50 0.3109
703.60 0.3108
703.70 0.3106
703.80 0.3104
703.90 0.3102
704.00 0.31
704.10 0.3099
704.20 0.3097
704.30 0.3095
704.40 0.3093
704.50 0.3091
704.60 0.309
704.70 0.3088
704.80 0.3086
704.90 0.3084
705.00 0.3082
705.10 0.3081
705.20 0.3079
705.30 0.3078
705.40 0.3076
705.50 0.3075
705.60 0.3073
705.70 0.3072
705.80 0.307
705.90 0.3069
706.00 0.3067
706.10 0.3066
706.20 0.3064
706.30 0.3063
706.40 0.3061
706.50 0.306
706.60 0.3058
706.70 0.3057
706.80 0.3055
706.90 0.3054
707.00 0.3052
707.10 0.3051
707.20 0.3049
707.30 0.3048
707.40 0.3046
707.50 0.3045
707.60 0.3043
707.70 0.3042
707.80 0.304
707.90 0.3039
708.00 0.3037
708.10 0.3036
708.20 0.3034
708.30 0.3033
708.40 0.3031
708.50 0.303
708.60 0.3028
708.70 0.3027
708.80 0.3025
708.90 0.3024
709.00 0.3022
709.10 0.3021
709.20 0.3019
709.30 0.3018
709.40 0.3016
709.50 0.3015
709.60 0.3013
709.70 0.3012
709.80 0.301
709.90 0.3009
710.00 0.3007
710.10 0.3006
710.20 0.3004
710.30 0.3003
710.40 0.3001
710.50 0.3
710.60 0.2999
710.70 0.2997
710.80 0.2996
710.90 0.2994
711.00 0.2993
711.10 0.2991
711.20 0.299
711.30 0.2988
711.40 0.2987
711.50 0.2985
711.60 0.2984
711.70 0.2982
711.80 0.2981
711.90 0.2979
712.00 0.2978
712.10 0.2977
712.20 0.2975
712.30 0.2974
712.40 0.2972
712.50 0.2971
712.60 0.2969
712.70 0.2968
712.80 0.2966
712.90 0.2965
713.00 0.2963
713.10 0.2962
713.20 0.296
713.30 0.2959
713.40 0.2958
713.50 0.2956
713.60 0.2955
713.70 0.2953
713.80 0.2952
713.90 0.295
714.00 0.2949
714.10 0.2947
714.20 0.2946
714.30 0.2945
714.40 0.2943
714.50 0.2942
714.60 0.294
714.70 0.2939
714.80 0.2937
714.90 0.2936
715.00 0.2934
715.10 0.2933
715.20 0.2932
715.30 0.293
715.40 0.2929
715.50 0.2927
715.60 0.2926
715.70 0.2924
715.80 0.2923
715.90 0.2922
716.00 0.292
716.10 0.2919
716.20 0.2917
716.30 0.2916
716.40 0.2915
716.50 0.2913
716.60 0.2912
716.70 0.291
716.80 0.2909
716.90 0.2908
717.00 0.2906
717.10 0.2905
717.20 0.2903
717.30 0.2902
717.40 0.29
717.50 0.2899
717.60 0.2898
717.70 0.2896
717.80 0.2895
717.90 0.2893
718.00 0.2892
718.10 0.2891
718.20 0.2889
718.30 0.2888
718.40 0.2886
718.50 0.2885
718.60 0.2884
718.70 0.2882
718.80 0.2881
718.90 0.2879
719.00 0.2878
719.10 0.2877
719.20 0.2875
719.30 0.2874
719.40 0.2872
719.50 0.2871
719.60 0.287
719.70 0.2868
719.80 0.2867
719.90 0.2865
720.00 0.2864
720.10 0.2863
720.20 0.2861
720.30 0.286
720.40 0.2859
720.50 0.2857
720.60 0.2856
720.70 0.2854
720.80 0.2853
720.90 0.2852
721.00 0.285
721.10 0.2849
721.20 0.2847
721.30 0.2846
721.40 0.2845
721.50 0.2843
721.60 0.2842
721.70 0.2841
721.80 0.2839
721.90 0.2838
722.00 0.2836
722.10 0.2835
722.20 0.2834
722.30 0.2832
722.40 0.2831
722.50 0.283
722.60 0.2828
722.70 0.2827
722.80 0.2825
722.90 0.2824
723.00 0.2823
723.10 0.2821
723.20 0.282
723.30 0.2819
723.40 0.2817
723.50 0.2816
723.60 0.2814
723.70 0.2813
723.80 0.2812
723.90 0.281
724.00 0.2809
724.10 0.2808
724.20 0.2806
724.30 0.2805
724.40 0.2804
724.50 0.2802
724.60 0.2801
724.70 0.2799
724.80 0.2798
724.90 0.2797
725.00 0.2795
725.10 0.2794
725.20 0.2793
725.30 0.2791
725.40 0.279
725.50 0.2789
725.60 0.2787
725.70 0.2786
725.80 0.2785
725.90 0.2783
726.00 0.2782
726.10 0.2781
726.20 0.2779
726.30 0.2778
726.40 0.2777
726.50 0.2775
726.60 0.2774
726.70 0.2773
726.80 0.2771
726.90 0.277
727.00 0.2769
727.10 0.2767
727.20 0.2766
727.30 0.2765
727.40 0.2763
727.50 0.2762
727.60 0.2761
727.70 0.2759
727.80 0.2758
727.90 0.2757
728.00 0.2755
728.10 0.2754
728.20 0.2753
728.30 0.2751
728.40 0.275
728.50 0.2749
728.60 0.2747
728.70 0.2746
728.80 0.2745
728.90 0.2743
729.00 0.2742
729.10 0.2741
729.20 0.2739
729.30 0.2738
729.40 0.2737
729.50 0.2735
729.60 0.2734
729.70 0.2733
729.80 0.2731
729.90 0.273
730.00 0.2729
730.10 0.2727
730.20 0.2726
730.30 0.2725
730.40 0.2724
730.50 0.2722
730.60 0.2721
730.70 0.272
730.80 0.2718
730.90 0.2717
731.00 0.2716
731.10 0.2714
731.20 0.2713
731.30 0.2712
731.40 0.2711
731.50 0.2709
731.60 0.2708
731.70 0.2707
731.80 0.2705
731.90 0.2704
732.00 0.2703
732.10 0.2701
732.20 0.27
732.30 0.2699
732.40 0.2698
732.50 0.2696
732.60 0.2695
732.70 0.2694
732.80 0.2692
732.90 0.2691
733.00 0.269
733.10 0.2689
733.20 0.2687
733.30 0.2686
733.40 0.2685
733.50 0.2683
733.60 0.2682
733.70 0.2681
733.80 0.268
733.90 0.2678
734.00 0.2677
734.10 0.2676
734.20 0.2675
734.30 0.2673
734.40 0.2672
734.50 0.2671
734.60 0.2669
734.70 0.2668
734.80 0.2667
734.90 0.2666
735.00 0.2664
735.10 0.2663
735.20 0.2662
735.30 0.266
735.40 0.2659
735.50 0.2658
735.60 0.2657
735.70 0.2655
735.80 0.2654
735.90 0.2653
736.00 0.2652
736.10 0.265
736.20 0.2649
736.30 0.2648
736.40 0.2647
736.50 0.2645
736.60 0.2644
736.70 0.2643
736.80 0.2641
736.90 0.264
737.00 0.2639
737.10 0.2638
737.20 0.2636
737.30 0.2635
737.40 0.2634
737.50 0.2633
737.60 0.2631
737.70 0.263
737.80 0.2629
737.90 0.2628
738.00 0.2626
738.10 0.2625
738.20 0.2624
738.30 0.2623
738.40 0.2621
738.50 0.262
738.60 0.2619
738.70 0.2618
738.80 0.2616
738.90 0.2615
739.00 0.2614
739.10 0.2613
739.20 0.2611
739.30 0.261
739.40 0.2609
739.50 0.2608
739.60 0.2606
739.70 0.2605
739.80 0.2604
739.90 0.2603
740.00 0.2601
740.10 0.26
740.20 0.2599
740.30 0.2598
740.40 0.2596
740.50 0.2595
740.60 0.2594
740.70 0.2593
740.80 0.2592
740.90 0.259
741.00 0.2589
741.10 0.2588
741.20 0.2587
741.30 0.2585
741.40 0.2584
741.50 0.2583
741.60 0.2582
741.70 0.2581
741.80 0.2579
741.90 0.2578
742.00 0.2577
742.10 0.2576
742.20 0.2574
742.30 0.2573
742.40 0.2572
742.50 0.2571
742.60 0.257
742.70 0.2568
742.80 0.2567
742.90 0.2566
743.00 0.2565
743.10 0.2564
743.20 0.2562
743.30 0.2561
743.40 0.256
743.50 0.2559
743.60 0.2558
743.70 0.2556
743.80 0.2555
743.90 0.2554
744.00 0.2553
744.10 0.2551
744.20 0.255
744.30 0.2549
744.40 0.2548
744.50 0.2547
744.60 0.2545
744.70 0.2544
744.80 0.2543
744.90 0.2542
745.00 0.2541
745.10 0.2539
745.20 0.2538
745.30 0.2537
745.40 0.2536
745.50 0.2535
745.60 0.2533
745.70 0.2532
745.80 0.2531
745.90 0.253
746.00 0.2529
746.10 0.2528
746.20 0.2526
746.30 0.2525
746.40 0.2524
746.50 0.2523
746.60 0.2522
746.70 0.252
746.80 0.2519
746.90 0.2518
747.00 0.2517
747.10 0.2516
747.20 0.2514
747.30 0.2513
747.40 0.2512
747.50 0.2511
747.60 0.251
747.70 0.2508
747.80 0.2507
747.90 0.2506
748.00 0.2505
748.10 0.2504
748.20 0.2503
748.30 0.2501
748.40 0.25
748.50 0.2499
748.60 0.2498
748.70 0.2497
748.80 0.2495
748.90 0.2494
749.00 0.2493
749.10 0.2492
749.20 0.2491
749.30 0.249
749.40 0.2488
749.50 0.2487
749.60 0.2486
749.70 0.2485
749.80 0.2484
749.90 0.2483
750.00 0.2481
750.10 0.248
750.20 0.2479
750.30 0.2478
750.40 0.2477
750.50 0.2476
750.60 0.2474
750.70 0.2473
750.80 0.2472
750.90 0.2471
751.00 0.247
751.10 0.2469
751.20 0.2468
751.30 0.2466
751.40 0.2465
751.50 0.2464
751.60 0.2463
751.70 0.2462
751.80 0.2461
751.90 0.246
752.00 0.2458
752.10 0.2457
752.20 0.2456
752.30 0.2455
752.40 0.2454
752.50 0.2453
752.60 0.2451
752.70 0.245
752.80 0.2449
752.90 0.2448
753.00 0.2447
753.10 0.2446
753.20 0.2445
753.30 0.2443
753.40 0.2442
753.50 0.2441
753.60 0.244
753.70 0.2439
753.80 0.2438
753.90 0.2437
754.00 0.2436
754.10 0.2434
754.20 0.2433
754.30 0.2432
754.40 0.2431
754.50 0.243
754.60 0.2429
754.70 0.2428
754.80 0.2426
754.90 0.2425
755.00 0.2424
755.10 0.2423
755.20 0.2422
755.30 0.2421
755.40 0.242
755.50 0.2419
755.60 0.2417
755.70 0.2416
755.80 0.2415
755.90 0.2414
756.00 0.2413
756.10 0.2412
756.20 0.2411
756.30 0.241
756.40 0.2408
756.50 0.2407
756.60 0.2406
756.70 0.2405
756.80 0.2404
756.90 0.2403
757.00 0.2402
757.10 0.2401
757.20 0.2399
757.30 0.2398
757.40 0.2397
757.50 0.2396
757.60 0.2395
757.70 0.2394
757.80 0.2393
757.90 0.2392
758.00 0.239
758.10 0.2389
758.20 0.2388
758.30 0.2387
758.40 0.2386
758.50 0.2385
758.60 0.2384
758.70 0.2383
758.80 0.2382
758.90 0.238
759.00 0.2379
759.10 0.2378
759.20 0.2377
759.30 0.2376
759.40 0.2375
759.50 0.2374
759.60 0.2373
759.70 0.2372
759.80 0.237
759.90 0.2369
760.00 0.2368
760.10 0.2367
760.20 0.2366
760.30 0.2365
760.40 0.2364
760.50 0.2363
760.60 0.2362
760.70 0.2361
760.80 0.236
760.90 0.2358
761.00 0.2357
761.10 0.2356
761.20 0.2355
761.30 0.2354
761.40 0.2353
761.50 0.2352
761.60 0.2351
761.70 0.235
761.80 0.2349
761.90 0.2348
762.00 0.2347
762.10 0.2345
762.20 0.2344
762.30 0.2343
762.40 0.2342
762.50 0.2341
762.60 0.234
762.70 0.2339
762.80 0.2338
762.90 0.2337
763.00 0.2336
763.10 0.2335
763.20 0.2334
763.30 0.2333
763.40 0.2331
763.50 0.233
763.60 0.2329
763.70 0.2328
763.80 0.2327
763.90 0.2326
764.00 0.2325
764.10 0.2324
764.20 0.2323
764.30 0.2322
764.40 0.2321
764.50 0.232
764.60 0.2319
764.70 0.2318
764.80 0.2316
764.90 0.2315
765.00 0.2314
765.10 0.2313
765.20 0.2312
765.30 0.2311
765.40 0.231
765.50 0.2309
765.60 0.2308
765.70 0.2307
765.80 0.2306
765.90 0.2305
766.00 0.2304
766.10 0.2303
766.20 0.2302
766.30 0.2301
766.40 0.2299
766.50 0.2298
766.60 0.2297
766.70 0.2296
766.80 0.2295
766.90 0.2294
767.00 0.2293
767.10 0.2292
767.20 0.2291
767.30 0.229
767.40 0.2289
767.50 0.2288
767.60 0.2287
767.70 0.2286
767.80 0.2285
767.90 0.2284
768.00 0.2283
768.10 0.2282
768.20 0.228
768.30 0.2279
768.40 0.2278
768.50 0.2277
768.60 0.2276
768.70 0.2275
768.80 0.2274
768.90 0.2273
769.00 0.2272
769.10 0.2271
769.20 0.227
769.30 0.2269
769.40 0.2268
769.50 0.2267
769.60 0.2266
769.70 0.2265
769.80 0.2264
769.90 0.2263
770.00 0.2262
770.10 0.2261
770.20 0.226
770.30 0.2259
770.40 0.2258
770.50 0.2256
770.60 0.2255
770.70 0.2254
770.80 0.2253
770.90 0.2252
771.00 0.2251
771.10 0.225
771.20 0.2249
771.30 0.2248
771.40 0.2247
771.50 0.2246
771.60 0.2245
771.70 0.2244
771.80 0.2243
771.90 0.2242
772.00 0.2241
772.10 0.224
772.20 0.2239
772.30 0.2238
772.40 0.2237
772.50 0.2236
772.60 0.2235
772.70 0.2234
772.80 0.2233
772.90 0.2232
773.00 0.2231
773.10 0.223
773.20 0.2229
773.30 0.2228
773.40 0.2227
773.50 0.2226
773.60 0.2225
773.70 0.2224
773.80 0.2223
773.90 0.2222
774.00 0.2221
774.10 0.222
774.20 0.2219
774.30 0.2218
774.40 0.2217
774.50 0.2216
774.60 0.2215
774.70 0.2214
774.80 0.2213
774.90 0.2212
775.00 0.2211
775.10 0.221
775.20 0.2209
775.30 0.2208
775.40 0.2207
775.50 0.2206
775.60 0.2205
775.70 0.2204
775.80 0.2203
775.90 0.2202
776.00 0.2201
776.10 0.22
776.20 0.2199
776.30 0.2198
776.40 0.2197
776.50 0.2196
776.60 0.2195
776.70 0.2194
776.80 0.2193
776.90 0.2192
777.00 0.2191
777.10 0.219
777.20 0.2189
777.30 0.2188
777.40 0.2187
777.50 0.2186
777.60 0.2185
777.70 0.2184
777.80 0.2183
777.90 0.2182
778.00 0.2181
778.10 0.218
778.20 0.2179
778.30 0.2178
778.40 0.2177
778.50 0.2176
778.60 0.2175
778.70 0.2174
778.80 0.2173
778.90 0.2172
779.00 0.2171
779.10 0.217
779.20 0.2169
779.30 0.2168
779.40 0.2167
779.50 0.2166
779.60 0.2165
779.70 0.2164
779.80 0.2163
779.90 0.2162
780.00 0.2161
780.10 0.216
780.20 0.2159
780.30 0.2158
780.40 0.2157
780.50 0.2156
780.60 0.2155
780.70 0.2154
780.80 0.2153
780.90 0.2152
781.00 0.2151
781.10 0.215
781.20 0.2149
781.30 0.2148
781.40 0.2147
781.50 0.2146
781.60 0.2145
781.70 0.2144
781.80 0.2144
781.90 0.2143
782.00 0.2142
782.10 0.2141
782.20 0.214
782.30 0.2139
782.40 0.2138
782.50 0.2137
782.60 0.2136
782.70 0.2135
782.80 0.2134
782.90 0.2133
783.00 0.2132
783.10 0.2131
783.20 0.213
783.30 0.2129
783.40 0.2128
783.50 0.2127
783.60 0.2126
783.70 0.2125
783.80 0.2124
783.90 0.2123
784.00 0.2122
784.10 0.2121
784.20 0.212
784.30 0.212
784.40 0.2119
784.50 0.2118
784.60 0.2117
784.70 0.2116
784.80 0.2115
784.90 0.2114
785.00 0.2113
785.10 0.2112
785.20 0.2111
785.30 0.211
785.40 0.2109
785.50 0.2108
785.60 0.2107
785.70 0.2106
785.80 0.2105
785.90 0.2104
786.00 0.2103
786.10 0.2102
786.20 0.2101
786.30 0.2101
786.40 0.21
786.50 0.2099
786.60 0.2098
786.70 0.2097
786.80 0.2096
786.90 0.2095
787.00 0.2094
787.10 0.2093
787.20 0.2092
787.30 0.2091
787.40 0.209
787.50 0.2089
787.60 0.2088
787.70 0.2087
787.80 0.2086
787.90 0.2085
788.00 0.2085
788.10 0.2084
788.20 0.2083
788.30 0.2082
788.40 0.2081
788.50 0.208
788.60 0.2079
788.70 0.2078
788.80 0.2077
788.90 0.2076
789.00 0.2075
789.10 0.2074
789.20 0.2073
789.30 0.2072
789.40 0.2071
789.50 0.2071
789.60 0.207
789.70 0.2069
789.80 0.2068
789.90 0.2067
790.00 0.2066
790.10 0.2065
790.20 0.2064
790.30 0.2063
790.40 0.2062
790.50 0.2061
790.60 0.206
790.70 0.2059
790.80 0.2059
790.90 0.2058
791.00 0.2057
791.10 0.2056
791.20 0.2055
791.30 0.2054
791.40 0.2053
791.50 0.2052
791.60 0.2051
791.70 0.205
791.80 0.2049
791.90 0.2048
792.00 0.2048
792.10 0.2047
792.20 0.2046
792.30 0.2045
792.40 0.2044
792.50 0.2043
792.60 0.2042
792.70 0.2041
792.80 0.204
792.90 0.2039
793.00 0.2038
793.10 0.2038
793.20 0.2037
793.30 0.2036
793.40 0.2035
793.50 0.2034
793.60 0.2033
793.70 0.2032
793.80 0.2031
793.90 0.203
794.00 0.2029
794.10 0.2029
794.20 0.2028
794.30 0.2027
794.40 0.2026
794.50 0.2025
794.60 0.2024
794.70 0.2023
794.80 0.2022
794.90 0.2021
795.00 0.202
795.10 0.202
795.20 0.2019
795.30 0.2018
795.40 0.2017
795.50 0.2016
795.60 0.2015
795.70 0.2014
795.80 0.2013
795.90 0.2012
796.00 0.2011
796.10 0.2011
796.20 0.201
796.30 0.2009
796.40 0.2008
796.50 0.2007
796.60 0.2006
796.70 0.2005
796.80 0.2004
796.90 0.2003
797.00 0.2003
797.10 0.2002
797.20 0.2001
797.30 0.2
797.40 0.1999
797.50 0.1998
797.60 0.1997
797.70 0.1996
797.80 0.1995
797.90 0.1995
798.00 0.1994
798.10 0.1993
798.20 0.1992
798.30 0.1991
798.40 0.199
798.50 0.1989
798.60 0.1988
798.70 0.1987
798.80 0.1987
798.90 0.1986
799.00 0.1985
799.10 0.1984
799.20 0.1983
799.30 0.1982
799.40 0.1981
799.50 0.198
799.60 0.1979
799.70 0.1979
799.80 0.1978
799.90 0.1977
800.00 0.1976
800.10 0.1975
800.20 0.1974
800.30 0.1973
800.40 0.1972
800.50 0.1972
800.60 0.1971
800.70 0.197
800.80 0.1969
800.90 0.1968
801.00 0.1967
801.10 0.1966
801.20 0.1966
801.30 0.1965
801.40 0.1964
801.50 0.1963
801.60 0.1962
801.70 0.1961
801.80 0.196
801.90 0.196
802.00 0.1959
802.10 0.1958
802.20 0.1957
802.30 0.1956
802.40 0.1955
802.50 0.1954
802.60 0.1953
802.70 0.1953
802.80 0.1952
802.90 0.1951
803.00 0.195
803.10 0.1949
803.20 0.1948
803.30 0.1947
803.40 0.1947
803.50 0.1946
803.60 0.1945
803.70 0.1944
803.80 0.1943
803.90 0.1942
804.00 0.1941
804.10 0.1941
804.20 0.194
804.30 0.1939
804.40 0.1938
804.50 0.1937
804.60 0.1936
804.70 0.1936
804.80 0.1935
804.90 0.1934
805.00 0.1933
805.10 0.1932
805.20 0.1931
805.30 0.193
805.40 0.193
805.50 0.1929
805.60 0.1928
805.70 0.1927
805.80 0.1926
805.90 0.1925
806.00 0.1924
806.10 0.1924
806.20 0.1923
806.30 0.1922
806.40 0.1921
806.50 0.192
806.60 0.1919
806.70 0.1919
806.80 0.1918
806.90 0.1917
807.00 0.1916
807.10 0.1915
807.20 0.1914
807.30 0.1914
807.40 0.1913
807.50 0.1912
807.60 0.1911
807.70 0.191
807.80 0.1909
807.90 0.1908
808.00 0.1908
808.10 0.1907
808.20 0.1906
808.30 0.1905
808.40 0.1904
808.50 0.1903
808.60 0.1903
808.70 0.1902
808.80 0.1901
808.90 0.19
809.00 0.1899
809.10 0.1898
809.20 0.1898
809.30 0.1897
809.40 0.1896
809.50 0.1895
809.60 0.1894
809.70 0.1893
809.80 0.1893
809.90 0.1892
810.00 0.1891
810.10 0.189
810.20 0.1889
810.30 0.1888
810.40 0.1888
810.50 0.1887
810.60 0.1886
810.70 0.1885
810.80 0.1884
810.90 0.1884
811.00 0.1883
811.10 0.1882
811.20 0.1881
811.30 0.188
811.40 0.1879
811.50 0.1879
811.60 0.1878
811.70 0.1877
811.80 0.1876
811.90 0.1875
812.00 0.1875
812.10 0.1874
812.20 0.1873
812.30 0.1872
812.40 0.1871
812.50 0.187
812.60 0.187
812.70 0.1869
812.80 0.1868
812.90 0.1867
813.00 0.1866
813.10 0.1866
813.20 0.1865
813.30 0.1864
813.40 0.1863
813.50 0.1862
813.60 0.1862
813.70 0.1861
813.80 0.186
813.90 0.1859
814.00 0.1858
814.10 0.1858
814.20 0.1857
814.30 0.1856
814.40 0.1855
814.50 0.1854
814.60 0.1853
814.70 0.1853
814.80 0.1852
814.90 0.1851
815.00 0.185
815.10 0.1849
815.20 0.1849
815.30 0.1848
815.40 0.1847
815.50 0.1846
815.60 0.1845
815.70 0.1845
815.80 0.1844
815.90 0.1843
816.00 0.1842
816.10 0.1841
816.20 0.1841
816.30 0.184
816.40 0.1839
816.50 0.1838
816.60 0.1837
816.70 0.1837
816.80 0.1836
816.90 0.1835
817.00 0.1834
817.10 0.1833
817.20 0.1833
817.30 0.1832
817.40 0.1831
817.50 0.183
817.60 0.1829
817.70 0.1829
817.80 0.1828
817.90 0.1827
818.00 0.1826
818.10 0.1825
818.20 0.1825
818.30 0.1824
818.40 0.1823
818.50 0.1822
818.60 0.1822
818.70 0.1821
818.80 0.182
818.90 0.1819
819.00 0.1818
819.10 0.1818
819.20 0.1817
819.30 0.1816
819.40 0.1815
819.50 0.1814
819.60 0.1814
819.70 0.1813
819.80 0.1812
819.90 0.1811
820.00 0.181
820.10 0.181
820.20 0.1809
820.30 0.1808
820.40 0.1807
820.50 0.1807
820.60 0.1806
820.70 0.1805
820.80 0.1804
820.90 0.1803
821.00 0.1803
821.10 0.1802
821.20 0.1801
821.30 0.18
821.40 0.18
821.50 0.1799
821.60 0.1798
821.70 0.1797
821.80 0.1796
821.90 0.1796
822.00 0.1795
822.10 0.1794
822.20 0.1793
822.30 0.1793
822.40 0.1792
822.50 0.1791
822.60 0.179
822.70 0.179
822.80 0.1789
822.90 0.1788
823.00 0.1787
823.10 0.1786
823.20 0.1786
823.30 0.1785
823.40 0.1784
823.50 0.1783
823.60 0.1783
823.70 0.1782
823.80 0.1781
823.90 0.178
824.00 0.178
824.10 0.1779
824.20 0.1778
824.30 0.1777
824.40 0.1776
824.50 0.1776
824.60 0.1775
824.70 0.1774
824.80 0.1773
824.90 0.1773
825.00 0.1772
825.10 0.1771
825.20 0.177
825.30 0.177
825.40 0.1769
825.50 0.1768
825.60 0.1767
825.70 0.1767
825.80 0.1766
825.90 0.1765
826.00 0.1764
826.10 0.1764
826.20 0.1763
826.30 0.1762
826.40 0.1761
826.50 0.176
826.60 0.176
826.70 0.1759
826.80 0.1758
826.90 0.1757
827.00 0.1757
827.10 0.1756
827.20 0.1755
827.30 0.1754
827.40 0.1754
827.50 0.1753
827.60 0.1752
827.70 0.1751
827.80 0.1751
827.90 0.175
828.00 0.1749
828.10 0.1748
828.20 0.1748
828.30 0.1747
828.40 0.1746
828.50 0.1745
828.60 0.1745
828.70 0.1744
828.80 0.1743
828.90 0.1742
829.00 0.1742
829.10 0.1741
829.20 0.174
829.30 0.174
829.40 0.1739
829.50 0.1738
829.60 0.1737
829.70 0.1737
829.80 0.1736
829.90 0.1735
830.00 0.1734
830.10 0.1734
830.20 0.1733
830.30 0.1732
830.40 0.1731
830.50 0.1731
830.60 0.173
830.70 0.1729
830.80 0.1728
830.90 0.1728
831.00 0.1727
831.10 0.1726
831.20 0.1725
831.30 0.1725
831.40 0.1724
831.50 0.1723
831.60 0.1722
831.70 0.1722
831.80 0.1721
831.90 0.172
832.00 0.172
832.10 0.1719
832.20 0.1718
832.30 0.1717
832.40 0.1717
832.50 0.1716
832.60 0.1715
832.70 0.1714
832.80 0.1714
832.90 0.1713
833.00 0.1712
833.10 0.1712
833.20 0.1711
833.30 0.171
833.40 0.1709
833.50 0.1709
833.60 0.1708
833.70 0.1707
833.80 0.1706
833.90 0.1706
834.00 0.1705
834.10 0.1704
834.20 0.1704
834.30 0.1703
834.40 0.1702
834.50 0.1701
834.60 0.1701
834.70 0.17
834.80 0.1699
834.90 0.1698
835.00 0.1698
835.10 0.1697
835.20 0.1696
835.30 0.1696
835.40 0.1695
835.50 0.1694
835.60 0.1693
835.70 0.1693
835.80 0.1692
835.90 0.1691
836.00 0.1691
836.10 0.169
836.20 0.1689
836.30 0.1688
836.40 0.1688
836.50 0.1687
836.60 0.1686
836.70 0.1685
836.80 0.1685
836.90 0.1684
837.00 0.1683
837.10 0.1683
837.20 0.1682
837.30 0.1681
837.40 0.168
837.50 0.168
837.60 0.1679
837.70 0.1678
837.80 0.1678
837.90 0.1677
838.00 0.1676
838.10 0.1676
838.20 0.1675
838.30 0.1674
838.40 0.1673
838.50 0.1673
838.60 0.1672
838.70 0.1671
838.80 0.1671
838.90 0.167
839.00 0.1669
839.10 0.1668
839.20 0.1668
839.30 0.1667
839.40 0.1666
839.50 0.1666
839.60 0.1665
839.70 0.1664
839.80 0.1664
839.90 0.1663
840.00 0.1662
840.10 0.1661
840.20 0.1661
840.30 0.166
840.40 0.1659
840.50 0.1659
840.60 0.1658
840.70 0.1657
840.80 0.1656
840.90 0.1656
841.00 0.1655
841.10 0.1654
841.20 0.1654
841.30 0.1653
841.40 0.1652
841.50 0.1652
841.60 0.1651
841.70 0.165
841.80 0.1649
841.90 0.1649
842.00 0.1648
842.10 0.1647
842.20 0.1647
842.30 0.1646
842.40 0.1645
842.50 0.1645
842.60 0.1644
842.70 0.1643
842.80 0.1643
842.90 0.1642
843.00 0.1641
843.10 0.164
843.20 0.164
843.30 0.1639
843.40 0.1638
843.50 0.1638
843.60 0.1637
843.70 0.1636
843.80 0.1636
843.90 0.1635
844.00 0.1634
844.10 0.1634
844.20 0.1633
844.30 0.1632
844.40 0.1631
844.50 0.1631
844.60 0.163
844.70 0.1629
844.80 0.1629
844.90 0.1628
845.00 0.1627
845.10 0.1627
845.20 0.1626
845.30 0.1625
845.40 0.1625
845.50 0.1624
845.60 0.1623
845.70 0.1622
845.80 0.1622
845.90 0.1621
846.00 0.162
846.10 0.162
846.20 0.1619
846.30 0.1618
846.40 0.1618
846.50 0.1617
846.60 0.1616
846.70 0.1616
846.80 0.1615
846.90 0.1614
847.00 0.1614
847.10 0.1613
847.20 0.1613
847.30 0.1612
847.40 0.1612
847.50 0.1611
847.60 0.1611
847.70 0.161
847.80 0.161
847.90 0.1609
848.00 0.1609
848.10 0.1608
848.20 0.1608
848.30 0.1607
848.40 0.1607
848.50 0.1606
848.60 0.1606
848.70 0.1605
848.80 0.1605
848.90 0.1604
849.00 0.1604
849.10 0.1603
849.20 0.1603
849.30 0.1602
849.40 0.1602
849.50 0.1601
849.60 0.1601
849.70 0.1601
849.80 0.16
849.90 0.16
850.00 0.1599
850.10 0.1599
850.20 0.1598
850.30 0.1598
850.40 0.1597
850.50 0.1597
850.60 0.1596
850.70 0.1596
850.80 0.1595
850.90 0.1595
851.00 0.1594
851.10 0.1594
851.20 0.1593
851.30 0.1593
851.40 0.1592
851.50 0.1592
851.60 0.1591
851.70 0.1591
851.80 0.159
851.90 0.159
852.00 0.159
852.10 0.1589
852.20 0.1589
852.30 0.1588
852.40 0.1587
852.50 0.1587
852.60 0.1586
852.70 0.1586
852.80 0.1585
852.90 0.1585
853.00 0.1584
853.10 0.1584
853.20 0.1583
853.30 0.1583
853.40 0.1582
853.50 0.1582
853.60 0.1581
853.70 0.1581
853.80 0.158
853.90 0.158
854.00 0.1579
854.10 0.1579
854.20 0.1578
854.30 0.1578
854.40 0.1577
854.50 0.1577
854.60 0.1576
854.70 0.1576
854.80 0.1575
854.90 0.1575
855.00 0.1574
855.10 0.1574
855.20 0.1573
855.30 0.1573
855.40 0.1572
855.50 0.1572
855.60 0.1571
855.70 0.1571
855.80 0.157
855.90 0.157
856.00 0.1569
856.10 0.1569
856.20 0.1568
856.30 0.1568
856.40 0.1567
856.50 0.1567
856.60 0.1566
856.70 0.1566
856.80 0.1565
856.90 0.1565
857.00 0.1564
857.10 0.1564
857.20 0.1563
857.30 0.1563
857.40 0.1563
857.50 0.1562
857.60 0.1562
857.70 0.1561
857.80 0.1561
857.90 0.156
858.00 0.156
858.10 0.1559
858.20 0.1559
858.30 0.1559
858.40 0.1558
858.50 0.1558
858.60 0.1557
858.70 0.1557
858.80 0.1556
858.90 0.1556
859.00 0.1555
859.10 0.1555
859.20 0.1555
859.30 0.1554
859.40 0.1554
859.50 0.1553
859.60 0.1553
859.70 0.1552
859.80 0.1552
859.90 0.1551
860.00 0.1551
860.10 0.1551
860.20 0.155
860.30 0.155
860.40 0.1549
860.50 0.1549
860.60 0.1548
860.70 0.1548
860.80 0.1547
860.90 0.1547
861.00 0.1547
861.10 0.1546
861.20 0.1546
861.30 0.1545
861.40 0.1545
861.50 0.1544
861.60 0.1544
861.70 0.1543
861.80 0.1543
861.90 0.1543
862.00 0.1542
862.10 0.1541
862.20 0.1541
862.30 0.154
862.40 0.1539
862.50 0.1539
862.60 0.1538
862.70 0.1537
862.80 0.1537
862.90 0.1536
863.00 0.1535
863.10 0.1535
863.20 0.1534
863.30 0.1533
863.40 0.1533
863.50 0.1532
863.60 0.1531
863.70 0.1531
863.80 0.153
863.90 0.1529
864.00 0.1529
864.10 0.1528
864.20 0.1527
864.30 0.1527
864.40 0.1526
864.50 0.1525
864.60 0.1525
864.70 0.1524
864.80 0.1523
864.90 0.1523
865.00 0.1522
865.10 0.1521
865.20 0.1521
865.30 0.152
865.40 0.1519
865.50 0.1519
865.60 0.1518
865.70 0.1517
865.80 0.1517
865.90 0.1516
866.00 0.1515
866.10 0.1515
866.20 0.1514
866.30 0.1513
866.40 0.1513
866.50 0.1512
866.60 0.1511
866.70 0.1511
866.80 0.151
866.90 0.1509
867.00 0.1509
867.10 0.1508
867.20 0.1508
867.30 0.1508
867.40 0.1508
867.50 0.1508
867.60 0.1508
867.70 0.1508
867.80 0.1507
867.90 0.1507
868.00 0.1507
868.10 0.1507
868.20 0.1507
868.30 0.1507
868.40 0.1507
868.50 0.1506
868.60 0.1506
868.70 0.1506
868.80 0.1506
868.90 0.1506
869.00 0.1506
869.10 0.1506
869.20 0.1505
869.30 0.1505
869.40 0.1505
869.50 0.1505
869.60 0.1505
869.70 0.1505
869.80 0.1505
869.90 0.1504
870.00 0.1504
870.10 0.1504
870.20 0.1504
870.30 0.1504
870.40 0.1504
870.50 0.1504
870.60 0.1503
870.70 0.1503
870.80 0.1503
870.90 0.1503
871.00 0.1503
871.10 0.1503
871.20 0.1503
871.30 0.1502
871.40 0.1502
871.50 0.1502
871.60 0.1502
871.70 0.1502
871.80 0.1502
871.90 0.1502
872.00 0.1501
872.10 0.1501
872.20 0.15
872.30 0.1499
872.40 0.1498
872.50 0.1498
872.60 0.1497
872.70 0.1496
872.80 0.1495
872.90 0.1495
873.00 0.1494
873.10 0.1493
873.20 0.1492
873.30 0.1492
873.40 0.1491
873.50 0.149
873.60 0.1489
873.70 0.1488
873.80 0.1488
873.90 0.1487
874.00 0.1486
874.10 0.1485
874.20 0.1485
874.30 0.1484
874.40 0.1483
874.50 0.1482
874.60 0.1482
874.70 0.1481
874.80 0.148
874.90 0.1479
875.00 0.1479
875.10 0.1478
875.20 0.1477
875.30 0.1476
875.40 0.1476
875.50 0.1475
875.60 0.1474
875.70 0.1473
875.80 0.1473
875.90 0.1472
876.00 0.1471
876.10 0.147
876.20 0.147
876.30 0.1469
876.40 0.1468
876.50 0.1467
876.60 0.1467
876.70 0.1466
876.80 0.1465
876.90 0.1464
877.00 0.1464
877.10 0.1464
877.20 0.1463
877.30 0.1463
877.40 0.1463
877.50 0.1463
877.60 0.1463
877.70 0.1463
877.80 0.1463
877.90 0.1463
878.00 0.1463
878.10 0.1462
878.20 0.1462
878.30 0.1462
878.40 0.1462
878.50 0.1462
878.60 0.1462
878.70 0.1462
878.80 0.1462
878.90 0.1462
879.00 0.1462
879.10 0.1461
879.20 0.1461
879.30 0.1461
879.40 0.1461
879.50 0.1461
879.60 0.1461
879.70 0.1461
879.80 0.1461
879.90 0.1461
880.00 0.146
880.10 0.146
880.20 0.146
880.30 0.146
880.40 0.146
880.50 0.146
880.60 0.146
880.70 0.146
880.80 0.146
880.90 0.1459
881.00 0.1459
881.10 0.1459
881.20 0.1459
881.30 0.1459
881.40 0.1459
881.50 0.1459
881.60 0.1459
881.70 0.1459
881.80 0.1459
881.90 0.1458
882.00 0.1458
882.10 0.1456
882.20 0.1454
882.30 0.1451
882.40 0.1449
882.50 0.1446
882.60 0.1444
882.70 0.1442
882.80 0.1439
882.90 0.1437
883.00 0.1435
883.10 0.1432
883.20 0.143
883.30 0.1427
883.40 0.1425
883.50 0.1423
883.60 0.142
883.70 0.1418
883.80 0.1416
883.90 0.1413
884.00 0.1411
884.10 0.1409
884.20 0.1406
884.30 0.1404
884.40 0.1401
884.50 0.1399
884.60 0.1397
884.70 0.1394
884.80 0.1392
884.90 0.139
885.00 0.1387
885.10 0.1385
885.20 0.1383
885.30 0.138
885.40 0.1378
885.50 0.1376
885.60 0.1373
885.70 0.1371
885.80 0.1369
885.90 0.1366
886.00 0.1364
886.10 0.1362
886.20 0.1359
886.30 0.1357
886.40 0.1354
886.50 0.1352
886.60 0.135
886.70 0.1347
886.80 0.1345
886.90 0.1343
887.00 0.134
887.10 0.1342
887.20 0.1343
887.30 0.1345
887.40 0.1346
887.50 0.1347
887.60 0.1349
887.70 0.135
887.80 0.1352
887.90 0.1353
888.00 0.1354
888.10 0.1356
888.20 0.1357
888.30 0.1358
888.40 0.136
888.50 0.1361
888.60 0.1362
888.70 0.1364
888.80 0.1365
888.90 0.1367
889.00 0.1368
889.10 0.1369
889.20 0.1371
889.30 0.1372
889.40 0.1373
889.50 0.1375
889.60 0.1376
889.70 0.1377
889.80 0.1379
889.90 0.138
890.00 0.1382
890.10 0.1383
890.20 0.1384
890.30 0.1386
890.40 0.1387
890.50 0.1388
890.60 0.139
890.70 0.1391
890.80 0.1392
890.90 0.1394
891.00 0.1395
891.10 0.1396
891.20 0.1398
891.30 0.1399
891.40 0.1401
891.50 0.1402
891.60 0.1403
891.70 0.1405
891.80 0.1406
891.90 0.1407
892.00 0.1409
892.10 0.1408
892.20 0.1407
892.30 0.1406
892.40 0.1405
892.50 0.1404
892.60 0.1403
892.70 0.1402
892.80 0.1401
892.90 0.14
893.00 0.14
893.10 0.1399
893.20 0.1398
893.30 0.1397
893.40 0.1396
893.50 0.1395
893.60 0.1394
893.70 0.1393
893.80 0.1392
893.90 0.1391
894.00 0.139
894.10 0.139
894.20 0.1389
894.30 0.1388
894.40 0.1387
894.50 0.1386
894.60 0.1385
894.70 0.1384
894.80 0.1383
894.90 0.1382
895.00 0.1381
895.10 0.138
895.20 0.138
895.30 0.1379
895.40 0.1378
895.50 0.1377
895.60 0.1376
895.70 0.1375
895.80 0.1374
895.90 0.1373
896.00 0.1372
896.10 0.1371
896.20 0.1371
896.30 0.137
896.40 0.1369
896.50 0.1368
896.60 0.1367
896.70 0.1366
896.80 0.1365
896.90 0.1364
897.00 0.1363
897.10 0.136
897.20 0.1356
897.30 0.1352
897.40 0.1348
897.50 0.1344
897.60 0.134
897.70 0.1337
897.80 0.1333
897.90 0.1329
898.00 0.1325
898.10 0.1321
898.20 0.1318
898.30 0.1314
898.40 0.131
898.50 0.1306
898.60 0.1302
898.70 0.1299
898.80 0.1295
898.90 0.1291
899.00 0.1287
899.10 0.1283
899.20 0.128
899.30 0.1276
899.40 0.1272
899.50 0.1268
899.60 0.1264
899.70 0.1261
899.80 0.1257
899.90 0.1253
900.00 0.1249
900.10 0.1246
900.20 0.1242
900.30 0.1238
900.40 0.1234
900.50 0.123
900.60 0.1227
900.70 0.1223
900.80 0.1219
900.90 0.1215
901.00 0.1212
901.10 0.1208
901.20 0.1204
901.30 0.12
901.40 0.1197
901.50 0.1193
901.60 0.1189
901.70 0.1185
901.80 0.1182
901.90 0.1178
902.00 0.1174
902.10 0.1176
902.20 0.1179
902.30 0.1181
902.40 0.1183
902.50 0.1185
902.60 0.1187
902.70 0.119
902.80 0.1192
902.90 0.1194
903.00 0.1196
903.10 0.1198
903.20 0.12
903.30 0.1203
903.40 0.1205
903.50 0.1207
903.60 0.1209
903.70 0.1211
903.80 0.1214
903.90 0.1216
904.00 0.1218
904.10 0.122
904.20 0.1222
904.30 0.1224
904.40 0.1227
904.50 0.1229
904.60 0.1231
904.70 0.1233
904.80 0.1235
904.90 0.1237
905.00 0.124
905.10 0.1242
905.20 0.1244
905.30 0.1246
905.40 0.1248
905.50 0.1251
905.60 0.1253
905.70 0.1255
905.80 0.1257
905.90 0.1259
906.00 0.1261
906.10 0.1263
906.20 0.1266
906.30 0.1268
906.40 0.127
906.50 0.1272
906.60 0.1274
906.70 0.1276
906.80 0.1279
906.90 0.1281
907.00 0.1283
907.10 0.1283
907.20 0.1283
907.30 0.1284
907.40 0.1284
907.50 0.1284
907.60 0.1285
907.70 0.1285
907.80 0.1285
907.90 0.1286
908.00 0.1286
908.10 0.1286
908.20 0.1287
908.30 0.1287
908.40 0.1287
908.50 0.1288
908.60 0.1288
908.70 0.1288
908.80 0.1289
908.90 0.1289
909.00 0.1289
909.10 0.129
909.20 0.129
909.30 0.129
909.40 0.129
909.50 0.1291
909.60 0.1291
909.70 0.1291
909.80 0.1292
909.90 0.1292
910.00 0.1292
910.10 0.1293
910.20 0.1293
910.30 0.1293
910.40 0.1294
910.50 0.1294
910.60 0.1294
910.70 0.1295
910.80 0.1295
910.90 0.1295
911.00 0.1295
911.10 0.1296
911.20 0.1296
911.30 0.1296
911.40 0.1297
911.50 0.1297
911.60 0.1297
911.70 0.1298
911.80 0.1298
911.90 0.1298
912.00 0.1299
912.10 0.1297
912.20 0.1295
912.30 0.1293
912.40 0.1292
912.50 0.129
912.60 0.1288
912.70 0.1287
912.80 0.1285
912.90 0.1283
913.00 0.1282
913.10 0.128
913.20 0.1278
913.30 0.1276
913.40 0.1275
913.50 0.1273
913.60 0.1271
913.70 0.127
913.80 0.1268
913.90 0.1266
914.00 0.1265
914.10 0.1263
914.20 0.1261
914.30 0.1259
914.40 0.1258
914.50 0.1256
914.60 0.1254
914.70 0.1253
914.80 0.1251
914.90 0.1249
915.00 0.1248
915.10 0.1246
915.20 0.1244
915.30 0.1243
915.40 0.1241
915.50 0.1239
915.60 0.1238
915.70 0.1236
915.80 0.1234
915.90 0.1232
916.00 0.1231
916.10 0.1229
916.20 0.1227
916.30 0.1226
916.40 0.1224
916.50 0.1222
916.60 0.1221
916.70 0.1219
916.80 0.1217
916.90 0.1216
917.00 0.1214
917.10 0.121
917.20 0.1206
917.30 0.1203
917.40 0.1199
917.50 0.1195
917.60 0.1191
917.70 0.1187
917.80 0.1184
917.90 0.118
918.00 0.1176
918.10 0.1172
918.20 0.1168
918.30 0.1164
918.40 0.1161
918.50 0.1157
918.60 0.1153
918.70 0.1149
918.80 0.1145
918.90 0.1142
919.00 0.1138
919.10 0.1134
919.20 0.113
919.30 0.1127
919.40 0.1123
919.50 0.1119
919.60 0.1115
919.70 0.1111
919.80 0.1108
919.90 0.1104
920.00 0.11
920.10 0.1096
920.20 0.1093
920.30 0.1089
920.40 0.1085
920.50 0.1081
920.60 0.1077
920.70 0.1074
920.80 0.107
920.90 0.1066
921.00 0.1062
921.10 0.1059
921.20 0.1055
921.30 0.1051
921.40 0.1047
921.50 0.1044
921.60 0.104
921.70 0.1036
921.80 0.1032
921.90 0.1029
922.00 0.1025
922.10 0.1027
922.20 0.1029
922.30 0.1031
922.40 0.1033
922.50 0.1035
922.60 0.1037
922.70 0.1039
922.80 0.1041
922.90 0.1043
923.00 0.1045
923.10 0.1047
923.20 0.1049
923.30 0.1051
923.40 0.1053
923.50 0.1055
923.60 0.1057
923.70 0.1059
923.80 0.1061
923.90 0.1063
924.00 0.1065
924.10 0.1067
924.20 0.1069
924.30 0.1071
924.40 0.1073
924.50 0.1075
924.60 0.1076
924.70 0.1078
924.80 0.108
924.90 0.1082
925.00 0.1084
925.10 0.1086
925.20 0.1088
925.30 0.109
925.40 0.1092
925.50 0.1094
925.60 0.1096
925.70 0.1098
925.80 0.11
925.90 0.1102
926.00 0.1104
926.10 0.1106
926.20 0.1108
926.30 0.111
926.40 0.1112
926.50 0.1114
926.60 0.1116
926.70 0.1118
926.80 0.112
926.90 0.1122
927.00 0.1124
927.10 0.1125
927.20 0.1126
927.30 0.1128
927.40 0.1129
927.50 0.1131
927.60 0.1132
927.70 0.1134
927.80 0.1135
927.90 0.1136
928.00 0.1138
928.10 0.1139
928.20 0.1141
928.30 0.1142
928.40 0.1143
928.50 0.1145
928.60 0.1146
928.70 0.1148
928.80 0.1149
928.90 0.115
929.00 0.1152
929.10 0.1153
929.20 0.1155
929.30 0.1156
929.40 0.1157
929.50 0.1159
929.60 0.116
929.70 0.1162
929.80 0.1163
929.90 0.1164
930.00 0.1166
930.10 0.1167
930.20 0.1169
930.30 0.117
930.40 0.1171
930.50 0.1173
930.60 0.1174
930.70 0.1176
930.80 0.1177
930.90 0.1178
931.00 0.118
931.10 0.1181
931.20 0.1183
931.30 0.1184
931.40 0.1185
931.50 0.1187
931.60 0.1188
931.70 0.119
931.80 0.1191
931.90 0.1192
932.00 0.1194
932.10 0.1194
932.20 0.1194
932.30 0.1195
932.40 0.1195
932.50 0.1195
932.60 0.1196
932.70 0.1196
932.80 0.1196
932.90 0.1197
933.00 0.1197
933.10 0.1197
933.20 0.1197
933.30 0.1198
933.40 0.1198
933.50 0.1198
933.60 0.1199
933.70 0.1199
933.80 0.1199
933.90 0.12
934.00 0.12
934.10 0.12
934.20 0.1201
934.30 0.1201
934.40 0.1201
934.50 0.1201
934.60 0.12
934.70 0.12
934.80 0.12
934.90 0.12
935.00 0.12
935.10 0.12
935.20 0.12
935.30 0.12
935.40 0.12
935.50 0.12
935.60 0.1199
935.70 0.1199
935.80 0.1199
935.90 0.1199
936.00 0.1199
936.10 0.1199
936.20 0.1199
936.30 0.1199
936.40 0.1199
936.50 0.1198
936.60 0.1198
936.70 0.1198
936.80 0.1198
936.90 0.1198
937.00 0.1198
937.10 0.1198
937.20 0.1197
937.30 0.1197
937.40 0.1196
937.50 0.1196
937.60 0.1196
937.70 0.1195
937.80 0.1195
937.90 0.1195
938.00 0.1194
938.10 0.1194
938.20 0.1194
938.30 0.1193
938.40 0.1193
938.50 0.1192
938.60 0.1192
938.70 0.1191
938.80 0.119
938.90 0.119
939.00 0.1189
939.10 0.1189
939.20 0.1188
939.30 0.1188
939.40 0.1187
939.50 0.1187
939.60 0.1186
939.70 0.1186
939.80 0.1185
939.90 0.1184
940.00 0.1184
940.10 0.1183
940.20 0.1183
940.30 0.1182
940.40 0.1182
940.50 0.1181
940.60 0.118
940.70 0.1179
940.80 0.1178
940.90 0.1178
941.00 0.1177
941.10 0.1176
941.20 0.1175
941.30 0.1175
941.40 0.1174
941.50 0.1173
941.60 0.1172
941.70 0.1171
941.80 0.1171
941.90 0.117
942.00 0.1169
942.10 0.1168
942.20 0.1167
942.30 0.1166
942.40 0.1165
942.50 0.1164
942.60 0.1163
942.70 0.1162
942.80 0.1161
942.90 0.116
943.00 0.1159
943.10 0.1157
943.20 0.1156
943.30 0.1155
943.40 0.1154
943.50 0.1153
943.60 0.1152
943.70 0.1151
943.80 0.115
943.90 0.1149
944.00 0.1147
944.10 0.1146
944.20 0.1145
944.30 0.1144
944.40 0.1143
944.50 0.1141
944.60 0.114
944.70 0.1138
944.80 0.1137
944.90 0.1135
945.00 0.1134
945.10 0.1133
945.20 0.1131
945.30 0.113
945.40 0.1128
945.50 0.1126
945.60 0.1124
945.70 0.1123
945.80 0.1121
945.90 0.1119
946.00 0.1117
946.10 0.1115
946.20 0.1114
946.30 0.1112
946.40 0.111
946.50 0.1108
946.60 0.1106
946.70 0.1105
946.80 0.1103
946.90 0.1101
947.00 0.1099
947.10 0.1097
947.20 0.1095
947.30 0.1093
947.40 0.109
947.50 0.1088
947.60 0.1085
947.70 0.1082
947.80 0.108
947.90 0.1077
948.00 0.1075
948.10 0.1072
948.20 0.107
948.30 0.1067
948.40 0.1064
948.50 0.1062
948.60 0.1059
948.70 0.1057
948.80 0.1054
948.90 0.1052
949.00 0.1049
949.10 0.1047
949.20 0.1044
949.30 0.1041
949.40 0.1038
949.50 0.1035
949.60 0.1031
949.70 0.1028
949.80 0.1024
949.90 0.1021
950.00 0.1017
950.10 0.1014
950.20 0.1011
950.30 0.1007
950.40 0.1004
950.50 0.1
950.60 0.0997
950.70 0.09936
950.80 0.09902
950.90 0.09868
951.00 0.09834
951.10 0.098
951.20 0.09766
951.30 0.09732
951.40 0.09692
951.50 0.09653
951.60 0.09613
951.70 0.09574
951.80 0.09534
951.90 0.09495
952.00 0.09456
952.10 0.09414
952.20 0.09373
952.30 0.09331
952.40 0.0929
952.50 0.09248
952.60 0.09207
952.70 0.09166
952.80 0.09124
952.90 0.09083
953.00 0.09043
953.10 0.09002
953.20 0.08961
953.30 0.08921
953.40 0.0888
953.50 0.0884
953.60 0.08806
953.70 0.08773
953.80 0.08739
953.90 0.08706
954.00 0.08697
954.10 0.08688
954.20 0.08737
954.30 0.08872
954.40 0.0873
954.50 0.08677
954.60 0.0868
954.70 0.08683
954.80 0.0871
954.90 0.08738
955.00 0.08765
955.10 0.08792
955.20 0.08826
955.30 0.08861
955.40 0.08895
955.50 0.08929
955.60 0.08963
955.70 0.08997
955.80 0.09031
955.90 0.09065
956.00 0.09099
956.10 0.09133
956.20 0.09166
956.30 0.092
956.40 0.09234
956.50 0.09267
956.60 0.09301
956.70 0.09335
956.80 0.09368
956.90 0.09402
957.00 0.09436
957.10 0.09467
957.20 0.09498
957.30 0.09529
957.40 0.09555
957.50 0.09581
957.60 0.09607
957.70 0.09633
957.80 0.09659
957.90 0.09685
958.00 0.09711
958.10 0.09737
958.20 0.09763
958.30 0.09789
958.40 0.09815
958.50 0.0984
958.60 0.09866
958.70 0.09892
958.80 0.09918
958.90 0.09944
959.00 0.0997
959.10 0.09996
959.20 0.1002
959.30 0.1005
959.40 0.1006
959.50 0.1008
959.60 0.101
959.70 0.1012
959.80 0.1013
959.90 0.1015
960.00 0.1017
960.10 0.1018
960.20 0.102
960.30 0.1022
960.40 0.1024
960.50 0.1025
960.60 0.1027
960.70 0.1029
960.80 0.103
960.90 0.1032
961.00 0.1034
961.10 0.1035
961.20 0.1037
961.30 0.1039
961.40 0.104
961.50 0.1041
961.60 0.1042
961.70 0.1044
961.80 0.1045
961.90 0.1046
962.00 0.1047
962.10 0.1048
962.20 0.1049
962.30 0.105
962.40 0.1051
962.50 0.1052
962.60 0.1053
962.70 0.1054
962.80 0.1054
962.90 0.1055
963.00 0.1056
963.10 0.1057
963.20 0.1058
963.30 0.1059
963.40 0.106
963.50 0.106
963.60 0.1061
963.70 0.1061
963.80 0.1062
963.90 0.1063
964.00 0.1063
964.10 0.1064
964.20 0.1064
964.30 0.1065
964.40 0.1065
964.50 0.1066
964.60 0.1066
964.70 0.1066
964.80 0.1067
964.90 0.1067
965.00 0.1067
965.10 0.1068
965.20 0.1068
965.30 0.1068
965.40 0.1068
965.50 0.1069
965.60 0.1069
965.70 0.1069
965.80 0.107
965.90 0.107
966.00 0.107
966.10 0.1071
966.20 0.1071
966.30 0.1071
966.40 0.1071
966.50 0.1072
966.60 0.1072
966.70 0.1072
966.80 0.1072
966.90 0.1072
967.00 0.1072
967.10 0.1072
967.20 0.1072
967.30 0.1072
967.40 0.1072
967.50 0.1072
967.60 0.1072
967.70 0.1073
967.80 0.1073
967.90 0.1073
968.00 0.1073
968.10 0.1073
968.20 0.1073
968.30 0.1073
968.40 0.1073
968.50 0.1072
968.60 0.1072
968.70 0.1072
968.80 0.1072
968.90 0.1072
969.00 0.1072
969.10 0.1072
969.20 0.1072
969.30 0.1072
969.40 0.1072
969.50 0.1071
969.60 0.1071
969.70 0.1071
969.80 0.1071
969.90 0.1071
970.00 0.1071
970.10 0.1071
970.20 0.1071
970.30 0.1071
970.40 0.107
970.50 0.107
970.60 0.107
970.70 0.107
970.80 0.107
970.90 0.1069
971.00 0.1069
971.10 0.1069
971.20 0.1069
971.30 0.1069
971.40 0.1068
971.50 0.1068
971.60 0.1068
971.70 0.1068
971.80 0.1068
971.90 0.1067
972.00 0.1067
972.10 0.1067
972.20 0.1067
972.30 0.1066
972.40 0.1066
972.50 0.1066
972.60 0.1066
972.70 0.1065
972.80 0.1065
972.90 0.1065
973.00 0.1064
973.10 0.1064
973.20 0.1064
973.30 0.1064
973.40 0.1063
973.50 0.1063
973.60 0.1063
973.70 0.1063
973.80 0.1062
973.90 0.1062
974.00 0.1062
974.10 0.1061
974.20 0.1061
974.30 0.1061
974.40 0.1061
974.50 0.106
974.60 0.106
974.70 0.106
974.80 0.1059
974.90 0.1059
975.00 0.1059
975.10 0.1058
975.20 0.1058
975.30 0.1058
975.40 0.1057
975.50 0.1057
975.60 0.1057
975.70 0.1056
975.80 0.1056
975.90 0.1056
976.00 0.1055
976.10 0.1055
976.20 0.1055
976.30 0.1054
976.40 0.1054
976.50 0.1054
976.60 0.1053
976.70 0.1053
976.80 0.1053
976.90 0.1052
977.00 0.1052
977.10 0.1052
977.20 0.1051
977.30 0.1051
977.40 0.105
977.50 0.105
977.60 0.105
977.70 0.1049
977.80 0.1049
977.90 0.1048
978.00 0.1048
978.10 0.1048
978.20 0.1047
978.30 0.1047
978.40 0.1046
978.50 0.1046
978.60 0.1046
978.70 0.1045
978.80 0.1045
978.90 0.1044
979.00 0.1044
979.10 0.1044
979.20 0.1043
979.30 0.1043
979.40 0.1043
979.50 0.1042
979.60 0.1042
979.70 0.1041
979.80 0.1041
979.90 0.1041
980.00 0.104
980.10 0.104
980.20 0.1039
980.30 0.1039
980.40 0.1039
980.50 0.1038
980.60 0.1038
980.70 0.1037
980.80 0.1037
980.90 0.1037
981.00 0.1036
981.10 0.1036
981.20 0.1035
981.30 0.1035
981.40 0.1035
981.50 0.1034
981.60 0.1034
981.70 0.1034
981.80 0.1033
981.90 0.1033
982.00 0.1032
982.10 0.1032
982.20 0.1031
982.30 0.1031
982.40 0.1031
982.50 0.103
982.60 0.103
982.70 0.1029
982.80 0.1029
982.90 0.1028
983.00 0.1028
983.10 0.1027
983.20 0.1027
983.30 0.1026
983.40 0.1026
983.50 0.1026
983.60 0.1025
983.70 0.1025
983.80 0.1024
983.90 0.1024
984.00 0.1023
984.10 0.1023
984.20 0.1022
984.30 0.1022
984.40 0.1021
984.50 0.1021
984.60 0.1021
984.70 0.102
984.80 0.102
984.90 0.1019
985.00 0.1019
985.10 0.1018
985.20 0.1018
985.30 0.1017
985.40 0.1016
985.50 0.1016
985.60 0.1015
985.70 0.1015
985.80 0.1014
985.90 0.1014
986.00 0.1013
986.10 0.1013
986.20 0.1012
986.30 0.1012
986.40 0.1011
986.50 0.1011
986.60 0.101
986.70 0.101
986.80 0.1009
986.90 0.1009
987.00 0.1008
987.10 0.1008
987.20 0.1007
987.30 0.1007
987.40 0.1006
987.50 0.1005
987.60 0.1005
987.70 0.1004
987.80 0.1004
987.90 0.1003
988.00 0.1003
988.10 0.1002
988.20 0.1001
988.30 0.1001
988.40 0.1
988.50 0.09996
988.60 0.0999
988.70 0.09984
988.80 0.09977
988.90 0.0997
989.00 0.09963
989.10 0.09957
989.20 0.0995
989.30 0.09943
989.40 0.09936
989.50 0.0993
989.60 0.09923
989.70 0.09916
989.80 0.0991
989.90 0.09903
990.00 0.09896
990.10 0.09889
990.20 0.09883
990.30 0.09876
990.40 0.09869
990.50 0.09863
990.60 0.09856
990.70 0.09848
990.80 0.0984
990.90 0.09832
991.00 0.09824
991.10 0.09816
991.20 0.09808
991.30 0.098
991.40 0.09792
991.50 0.09784
991.60 0.09776
991.70 0.09768
991.80 0.0976
991.90 0.09752
992.00 0.09745
992.10 0.09735
992.20 0.09726
992.30 0.09717
992.40 0.09708
992.50 0.09699
992.60 0.0969
992.70 0.0968
992.80 0.09669
992.90 0.09659
993.00 0.09648
993.10 0.09638
993.20 0.09627
993.30 0.09617
993.40 0.09606
993.50 0.09596
993.60 0.09585
993.70 0.09575
993.80 0.09564
993.90 0.09554
994.00 0.09543
994.10 0.09533
994.20 0.09522
994.30 0.09512
994.40 0.09501
994.50 0.09491
994.60 0.09481
994.70 0.09468
994.80 0.09455
994.90 0.09442
995.00 0.09429
995.10 0.09416
995.20 0.09403
995.30 0.09391
995.40 0.09378
995.50 0.09365
995.60 0.09352
995.70 0.09337
995.80 0.09321
995.90 0.09306
996.00 0.09291
996.10 0.09275
996.20 0.0926
996.30 0.09244
996.40 0.09229
996.50 0.09214
996.60 0.09198
996.70 0.09183
996.80 0.09167
996.90 0.09152
997.00 0.09137
997.10 0.09119
997.20 0.09101
997.30 0.09083
997.40 0.09065
997.50 0.09047
997.60 0.09029
997.70 0.09009
997.80 0.08987
997.90 0.08965
998.00 0.08944
998.10 0.08922
998.20 0.089
998.30 0.08879
998.40 0.08857
998.50 0.08835
998.60 0.08814
998.70 0.08792
998.80 0.0877
998.90 0.08749
999.00 0.08727
999.10 0.08706
999.20 0.08684
999.30 0.08662
999.40 0.08641
999.50 0.08619
999.60 0.08598
999.70 0.08571
999.80 0.08543
999.90 0.08514
1000.00 0.08486
1000.10 0.08458
1000.20 0.08429
1000.30 0.08401
1000.40 0.08373
1000.50 0.08344
1000.60 0.08316
1000.70 0.08288
1000.80 0.0826
1000.90 0.08231
1001.00 0.08203
1001.10 0.08175
1001.20 0.08147
1001.30 0.08119
1001.40 0.0809
1001.50 0.08062
1001.60 0.08034
1001.70 0.08003
1001.80 0.0797
1001.90 0.07938
1002.00 0.07906
1002.10 0.0787
1002.20 0.07835
1002.30 0.078
1002.40 0.07764
1002.50 0.07729
1002.60 0.07694
1002.70 0.07658
1002.80 0.07623
1002.90 0.07588
1003.00 0.07553
1003.10 0.07518
1003.20 0.07479
1003.30 0.07439
1003.40 0.07399
1003.50 0.07359
1003.60 0.07319
1003.70 0.07279
1003.80 0.07239
1003.90 0.07194
1004.00 0.07148
1004.10 0.07102
1004.20 0.07056
1004.30 0.07009
1004.40 0.06963
1004.50 0.06929
1004.60 0.06982
1004.70 0.06931
1004.80 0.06933
1004.90 0.06975
1005.00 0.07017
1005.10 0.07058
1005.20 0.071
1005.30 0.07141
1005.40 0.07182
1005.50 0.07218
1005.60 0.07253
1005.70 0.07288
1005.80 0.07323
1005.90 0.07357
1006.00 0.07392
1006.10 0.07427
1006.20 0.07458
1006.30 0.07488
1006.40 0.07518
1006.50 0.07549
1006.60 0.07579
1006.70 0.07609
1006.80 0.07639
1006.90 0.07669
1007.00 0.07699
1007.10 0.07726
1007.20 0.07753
1007.30 0.0778
1007.40 0.07806
1007.50 0.07833
1007.60 0.0786
1007.70 0.07883
1007.80 0.07905
1007.90 0.07927
1008.00 0.07949
1008.10 0.0797
1008.20 0.07992
1008.30 0.08014
1008.40 0.08036
1008.50 0.08057
1008.60 0.08079
1008.70 0.08101
1008.80 0.08123
1008.90 0.08144
1009.00 0.08166
1009.10 0.08188
1009.20 0.08209
1009.30 0.08231
1009.40 0.08253
1009.50 0.08274
1009.60 0.08296
1009.70 0.08312
1009.80 0.08327
1009.90 0.08342
1010.00 0.08356
1010.10 0.08371
1010.20 0.08386
1010.30 0.084
1010.40 0.08415
1010.50 0.0843
1010.60 0.08444
1010.70 0.08459
1010.80 0.08473
1010.90 0.08488
1011.00 0.08503
1011.10 0.08517
1011.20 0.08532
1011.30 0.08546
1011.40 0.08561
1011.50 0.08576
1011.60 0.0859
1011.70 0.08602
1011.80 0.08613
1011.90 0.08624
1012.00 0.08635
1012.10 0.08644
1012.20 0.08653
1012.30 0.08661
1012.40 0.0867
1012.50 0.08678
1012.60 0.08687
1012.70 0.08695
1012.80 0.08703
1012.90 0.08712
1013.00 0.0872
1013.10 0.08729
1013.20 0.08737
1013.30 0.08746
1013.40 0.08754
1013.50 0.08763
1013.60 0.08771
1013.70 0.08778
1013.80 0.08783
1013.90 0.08789
1014.00 0.08795
1014.10 0.088
1014.20 0.08806
1014.30 0.08812
1014.40 0.08817
1014.50 0.08823
1014.60 0.08829
1014.70 0.08833
1014.80 0.08836
1014.90 0.08839
1015.00 0.08842
1015.10 0.08846
1015.20 0.08849
1015.30 0.08852
1015.40 0.08855
1015.50 0.08859
1015.60 0.08862
1015.70 0.08865
1015.80 0.08869
1015.90 0.08872
1016.00 0.08875
1016.10 0.08878
1016.20 0.08881
1016.30 0.08885
1016.40 0.08888
1016.50 0.08891
1016.60 0.08894
1016.70 0.08897
1016.80 0.08898
1016.90 0.089
1017.00 0.08902
1017.10 0.08903
1017.20 0.08904
1017.30 0.08905
1017.40 0.08906
1017.50 0.08907
1017.60 0.08908
1017.70 0.08909
1017.80 0.0891
1017.90 0.08911
1018.00 0.08912
1018.10 0.08913
1018.20 0.08914
1018.30 0.08915
1018.40 0.08916
1018.50 0.08917
1018.60 0.08918
1018.70 0.08918
1018.80 0.08917
1018.90 0.08917
1019.00 0.08917
1019.10 0.08916
1019.20 0.08916
1019.30 0.08915
1019.40 0.08915
1019.50 0.08915
1019.60 0.08914
1019.70 0.08914
1019.80 0.08914
1019.90 0.08913
1020.00 0.08913
1020.10 0.08912
1020.20 0.08912
1020.30 0.08912
1020.40 0.08911
1020.50 0.08911
1020.60 0.0891
1020.70 0.08909
1020.80 0.08908
1020.90 0.08907
1021.00 0.08906
1021.10 0.08904
1021.20 0.08903
1021.30 0.08902
1021.40 0.08901
1021.50 0.08899
1021.60 0.08898
1021.70 0.08897
1021.80 0.08895
1021.90 0.08894
1022.00 0.08893
1022.10 0.08891
1022.20 0.08889
1022.30 0.08888
1022.40 0.08886
1022.50 0.08884
1022.60 0.08882
1022.70 0.08881
1022.80 0.08879
1022.90 0.08877
1023.00 0.08875
1023.10 0.08874
1023.20 0.08872
1023.30 0.0887
1023.40 0.08868
1023.50 0.08866
1023.60 0.08865
1023.70 0.08863
1023.80 0.08861
1023.90 0.08859
1024.00 0.08858
1024.10 0.08856
1024.20 0.08854
1024.30 0.08852
1024.40 0.08851
1024.50 0.08849
1024.60 0.08847
1024.70 0.08845
1024.80 0.08843
1024.90 0.0884
1025.00 0.08838
1025.10 0.08836
1025.20 0.08833
1025.30 0.08831
1025.40 0.08829
1025.50 0.08826
1025.60 0.08824
1025.70 0.08822
1025.80 0.08819
1025.90 0.08817
1026.00 0.08815
1026.10 0.08812
1026.20 0.0881
1026.30 0.08808
1026.40 0.08805
1026.50 0.08803
1026.60 0.08801
1026.70 0.08798
1026.80 0.08796
1026.90 0.08794
1027.00 0.08791
1027.10 0.08789
1027.20 0.08786
1027.30 0.08783
1027.40 0.08781
1027.50 0.08778
1027.60 0.08776
1027.70 0.08773
1027.80 0.0877
1027.90 0.08768
1028.00 0.08765
1028.10 0.08762
1028.20 0.0876
1028.30 0.08757
1028.40 0.08754
1028.50 0.08752
1028.60 0.08749
1028.70 0.08746
1028.80 0.08744
1028.90 0.08741
1029.00 0.08738
1029.10 0.08736
1029.20 0.08733
1029.30 0.08731
1029.40 0.08728
1029.50 0.08725
1029.60 0.08723
1029.70 0.0872
1029.80 0.08717
1029.90 0.08715
1030.00 0.08712
1030.10 0.08709
1030.20 0.08707
1030.30 0.08704
1030.40 0.08702
1030.50 0.08699
1030.60 0.08696
1030.70 0.08694
1030.80 0.08691
1030.90 0.08688
1031.00 0.08686
1031.10 0.08683
1031.20 0.08681
1031.30 0.08678
1031.40 0.08675
1031.50 0.08673
1031.60 0.0867
1031.70 0.08667
1031.80 0.08665
1031.90 0.08662
1032.00 0.0866
1032.10 0.08657
1032.20 0.08654
1032.30 0.08651
1032.40 0.08648
1032.50 0.08645
1032.60 0.08642
1032.70 0.0864
1032.80 0.08637
1032.90 0.08634
1033.00 0.08631
1033.10 0.08628
1033.20 0.08625
1033.30 0.08623
1033.40 0.0862
1033.50 0.08617
1033.60 0.08614
1033.70 0.08611
1033.80 0.08608
1033.90 0.08605
1034.00 0.08603
1034.10 0.086
1034.20 0.08597
1034.30 0.08594
1034.40 0.08591
1034.50 0.08588
1034.60 0.08586
1034.70 0.08583
1034.80 0.0858
1034.90 0.08577
1035.00 0.08574
1035.10 0.08571
1035.20 0.08569
1035.30 0.08566
1035.40 0.08563
1035.50 0.0856
1035.60 0.08557
1035.70 0.08554
1035.80 0.08552
1035.90 0.08549
1036.00 0.08546
1036.10 0.08543
1036.20 0.0854
1036.30 0.08537
1036.40 0.08535
1036.50 0.08532
1036.60 0.08529
1036.70 0.08526
1036.80 0.08523
1036.90 0.08521
1037.00 0.08518
1037.10 0.08515
1037.20 0.08512
1037.30 0.08509
1037.40 0.08506
1037.50 0.08503
1037.60 0.085
1037.70 0.08497
1037.80 0.08494
1037.90 0.08491
1038.00 0.08489
1038.10 0.08486
1038.20 0.08483
1038.30 0.0848
1038.40 0.08477
1038.50 0.08474
1038.60 0.08471
1038.70 0.08468
1038.80 0.08465
1038.90 0.08462
1039.00 0.0846
1039.10 0.08457
1039.20 0.08454
1039.30 0.08451
1039.40 0.08448
1039.50 0.08445
1039.60 0.08442
1039.70 0.08439
1039.80 0.08436
1039.90 0.08433
1040.00 0.08431
1040.10 0.08428
1040.20 0.08425
1040.30 0.08422
1040.40 0.08419
1040.50 0.08416
1040.60 0.08413
1040.70 0.0841
1040.80 0.08408
1040.90 0.08405
1041.00 0.08402
1041.10 0.08399
1041.20 0.08396
1041.30 0.08393
1041.40 0.0839
1041.50 0.08387
1041.60 0.08384
1041.70 0.08382
1041.80 0.08379
1041.90 0.08376
1042.00 0.08373
1042.10 0.0837
1042.20 0.08367
1042.30 0.08364
1042.40 0.08361
1042.50 0.08358
1042.60 0.08355
1042.70 0.08353
1042.80 0.0835
1042.90 0.08347
1043.00 0.08344
1043.10 0.08341
1043.20 0.08338
1043.30 0.08335
1043.40 0.08332
1043.50 0.08329
1043.60 0.08326
1043.70 0.08323
1043.80 0.08321
1043.90 0.08318
1044.00 0.08315
1044.10 0.08312
1044.20 0.08309
1044.30 0.08306
1044.40 0.08303
1044.50 0.083
1044.60 0.08297
1044.70 0.08294
1044.80 0.08292
1044.90 0.08289
1045.00 0.08286
1045.10 0.08283
1045.20 0.0828
1045.30 0.08277
1045.40 0.08274
1045.50 0.08271
1045.60 0.08268
1045.70 0.08266
1045.80 0.08263
1045.90 0.0826
1046.00 0.08257
1046.10 0.08254
1046.20 0.08251
1046.30 0.08248
1046.40 0.08245
1046.50 0.08242
1046.60 0.0824
1046.70 0.08237
1046.80 0.08234
1046.90 0.08231
1047.00 0.08228
1047.10 0.08225
1047.20 0.08222
1047.30 0.08219
1047.40 0.08216
1047.50 0.08214
1047.60 0.08211
1047.70 0.08208
1047.80 0.08205
1047.90 0.08202
1048.00 0.08199
1048.10 0.08196
1048.20 0.08193
1048.30 0.0819
1048.40 0.08187
1048.50 0.08185
1048.60 0.08182
1048.70 0.08179
1048.80 0.08176
1048.90 0.08173
1049.00 0.0817
1049.10 0.08167
1049.20 0.08164
1049.30 0.08161
1049.40 0.08159
1049.50 0.08156
1049.60 0.08153
1049.70 0.0815
1049.80 0.08147
1049.90 0.08144
1050.00 0.08141
1050.10 0.08138
1050.20 0.08136
1050.30 0.08133
1050.40 0.0813
1050.50 0.08127
1050.60 0.08124
1050.70 0.08121
1050.80 0.08118
1050.90 0.08115
1051.00 0.08113
1051.10 0.0811
1051.20 0.08107
1051.30 0.08104
1051.40 0.08101
1051.50 0.08098
1051.60 0.08095
1051.70 0.08092
1051.80 0.0809
1051.90 0.08087
1052.00 0.08084
1052.10 0.08081
1052.20 0.08078
1052.30 0.08075
1052.40 0.08072
1052.50 0.08069
1052.60 0.08067
1052.70 0.08064
1052.80 0.08061
1052.90 0.08058
1053.00 0.08055
1053.10 0.08052
1053.20 0.08049
1053.30 0.08046
1053.40 0.08043
1053.50 0.08041
1053.60 0.08038
1053.70 0.08035
1053.80 0.08032
1053.90 0.08029
1054.00 0.08026
1054.10 0.08023
1054.20 0.0802
1054.30 0.08018
1054.40 0.08015
1054.50 0.08012
1054.60 0.08009
1054.70 0.08006
1054.80 0.08003
1054.90 0.08
1055.00 0.07998
1055.10 0.07995
1055.20 0.07992
1055.30 0.07989
1055.40 0.07986
1055.50 0.07983
1055.60 0.0798
1055.70 0.07977
1055.80 0.07975
1055.90 0.07972
1056.00 0.07969
1056.10 0.07966
1056.20 0.07963
1056.30 0.0796
1056.40 0.07958
1056.50 0.07955
1056.60 0.07952
1056.70 0.07949
1056.80 0.07946
1056.90 0.07943
1057.00 0.0794
1057.10 0.07938
1057.20 0.07935
1057.30 0.07932
1057.40 0.07929
1057.50 0.07926
1057.60 0.07923
1057.70 0.0792
1057.80 0.07917
1057.90 0.07914
1058.00 0.07911
1058.10 0.07909
1058.20 0.07906
1058.30 0.07903
1058.40 0.079
1058.50 0.07897
1058.60 0.07894
1058.70 0.07891
1058.80 0.07888
1058.90 0.07885
1059.00 0.07883
1059.10 0.0788
1059.20 0.07877
1059.30 0.07874
1059.40 0.07871
1059.50 0.07868
1059.60 0.07865
1059.70 0.07862
1059.80 0.0786
1059.90 0.07857
1060.00 0.07854
1060.10 0.07851
1060.20 0.07848
1060.30 0.07845
1060.40 0.07842
1060.50 0.0784
1060.60 0.07837
1060.70 0.07834
1060.80 0.07831
1060.90 0.07828
1061.00 0.07825
1061.10 0.07822
1061.20 0.07819
1061.30 0.07817
1061.40 0.07814
1061.50 0.07811
1061.60 0.07808
1061.70 0.07805
1061.80 0.07802
1061.90 0.07799
1062.00 0.07797
1062.10 0.07794
1062.20 0.07791
1062.30 0.07788
1062.40 0.07785
1062.50 0.07782
1062.60 0.07779
1062.70 0.07776
1062.80 0.07773
1062.90 0.0777
1063.00 0.07767
1063.10 0.07764
1063.20 0.07761
1063.30 0.07758
1063.40 0.07755
1063.50 0.07752
1063.60 0.0775
1063.70 0.07747
1063.80 0.07744
1063.90 0.07741
1064.00 0.07738
1064.10 0.07735
1064.20 0.07732
1064.30 0.07729
1064.40 0.07726
1064.50 0.07723
1064.60 0.0772
1064.70 0.07717
1064.80 0.07714
1064.90 0.07711
1065.00 0.07709
1065.10 0.07706
1065.20 0.07703
1065.30 0.077
1065.40 0.07697
1065.50 0.07694
1065.60 0.07691
1065.70 0.07688
1065.80 0.07685
1065.90 0.07682
1066.00 0.07679
1066.10 0.07676
1066.20 0.07674
1066.30 0.07671
1066.40 0.07668
1066.50 0.07665
1066.60 0.07662
1066.70 0.07659
1066.80 0.07656
1066.90 0.07653
1067.00 0.0765
1067.10 0.07647
1067.20 0.07644
1067.30 0.07641
1067.40 0.07638
1067.50 0.07635
1067.60 0.07632
1067.70 0.07628
1067.80 0.07625
1067.90 0.07622
1068.00 0.07619
1068.10 0.07616
1068.20 0.07613
1068.30 0.0761
1068.40 0.07607
1068.50 0.07604
1068.60 0.076
1068.70 0.07597
1068.80 0.07594
1068.90 0.07591
1069.00 0.07588
1069.10 0.07585
1069.20 0.07582
1069.30 0.07579
1069.40 0.07576
1069.50 0.07572
1069.60 0.07569
1069.70 0.07566
1069.80 0.07563
1069.90 0.0756
1070.00 0.07557
1070.10 0.07554
1070.20 0.07551
1070.30 0.07548
1070.40 0.07545
1070.50 0.07542
1070.60 0.07538
1070.70 0.07535
1070.80 0.07532
1070.90 0.07529
1071.00 0.07526
1071.10 0.07523
1071.20 0.0752
1071.30 0.07517
1071.40 0.07514
1071.50 0.07511
1071.60 0.07508
1071.70 0.07505
1071.80 0.07502
1071.90 0.07498
1072.00 0.07495
1072.10 0.07492
1072.20 0.07489
1072.30 0.07485
1072.40 0.07482
1072.50 0.07479
1072.60 0.07475
1072.70 0.07472
1072.80 0.07469
1072.90 0.07466
1073.00 0.07462
1073.10 0.07459
1073.20 0.07456
1073.30 0.07452
1073.40 0.07449
1073.50 0.07446
1073.60 0.07442
1073.70 0.07438
1073.80 0.07434
1073.90 0.07431
1074.00 0.07427
1074.10 0.07423
1074.20 0.07419
1074.30 0.07416
1074.40 0.07412
1074.50 0.07408
1074.60 0.07404
1074.70 0.07401
1074.80 0.07397
1074.90 0.07393
1075.00 0.0739
1075.10 0.07386
1075.20 0.07382
1075.30 0.07378
1075.40 0.07375
1075.50 0.07371
1075.60 0.07367
1075.70 0.07364
1075.80 0.0736
1075.90 0.07356
1076.00 0.07352
1076.10 0.07349
1076.20 0.07345
1076.30 0.07341
1076.40 0.07338
1076.50 0.07334
1076.60 0.0733
1076.70 0.07326
1076.80 0.07323
1076.90 0.07319
1077.00 0.07315
1077.10 0.07311
1077.20 0.07307
1077.30 0.07303
1077.40 0.07299
1077.50 0.07295
1077.60 0.0729
1077.70 0.07286
1077.80 0.07281
1077.90 0.07276
1078.00 0.07272
1078.10 0.07267
1078.20 0.07263
1078.30 0.07258
1078.40 0.07253
1078.50 0.07249
1078.60 0.07244
1078.70 0.0724
1078.80 0.07235
1078.90 0.07231
1079.00 0.07226
1079.10 0.07221
1079.20 0.07217
1079.30 0.07212
1079.40 0.07208
1079.50 0.07203
1079.60 0.07197
1079.70 0.07191
1079.80 0.07186
1079.90 0.0718
1080.00 0.07174
1080.10 0.07169
1080.20 0.07163
1080.30 0.07157
1080.40 0.07152
1080.50 0.07146
1080.60 0.07141
1080.70 0.07135
1080.80 0.07129
1080.90 0.07124
1081.00 0.07118
1081.10 0.07112
1081.20 0.07107
1081.30 0.07101
1081.40 0.07095
1081.50 0.0709
1081.60 0.07083
1081.70 0.07077
1081.80 0.07071
1081.90 0.07064
1082.00 0.07058
1082.10 0.07051
1082.20 0.07044
1082.30 0.07036
1082.40 0.07029
1082.50 0.07022
1082.60 0.07014
1082.70 0.07007
1082.80 0.07
1082.90 0.06992
1083.00 0.06985
1083.10 0.06978
1083.20 0.0697
1083.30 0.06963
1083.40 0.06956
1083.50 0.06948
1083.60 0.06939
1083.70 0.06931
1083.80 0.06922
1083.90 0.06913
1084.00 0.06905
1084.10 0.06896
1084.20 0.06887
1084.30 0.06878
1084.40 0.0687
1084.50 0.0686
1084.60 0.06849
1084.70 0.06838
1084.80 0.06827
1084.90 0.06817
1085.00 0.06806
1085.10 0.06795
1085.20 0.06784
1085.30 0.06773
1085.40 0.06762
1085.50 0.06751
1085.60 0.0674
1085.70 0.06729
1085.80 0.06718
1085.90 0.06707
1086.00 0.06696
1086.10 0.06685
1086.20 0.06674
1086.30 0.06664
1086.40 0.06653
1086.50 0.06641
1086.60 0.06628
1086.70 0.06615
1086.80 0.06603
1086.90 0.0659
1087.00 0.06577
1087.10 0.06562
1087.20 0.06546
1087.30 0.06531
1087.40 0.06516
1087.50 0.065
1087.60 0.06485
1087.70 0.0647
1087.80 0.06455
1087.90 0.06439
1088.00 0.06424
1088.10 0.06409
1088.20 0.06394
1088.30 0.06379
1088.40 0.06363
1088.50 0.06347
1088.60 0.06327
1088.70 0.06308
1088.80 0.06289
1088.90 0.06269
1089.00 0.0625
1089.10 0.06231
1089.20 0.06211
1089.30 0.06192
1089.40 0.06173
1089.50 0.06154
1089.60 0.06134
1089.70 0.06115
1089.80 0.06096
1089.90 0.06076
1090.00 0.06057
1090.10 0.06038
1090.20 0.06019
1090.30 0.05999
1090.40 0.0598
1090.50 0.05959
1090.60 0.05935
1090.70 0.05911
1090.80 0.05886
1090.90 0.05862
1091.00 0.05838
1091.10 0.05813
1091.20 0.05789
1091.30 0.05765
1091.40 0.0574
1091.50 0.05716
1091.60 0.05692
1091.70 0.05667
1091.80 0.05643
1091.90 0.05619
1092.00 0.05594
1092.10 0.05563
1092.20 0.05532
1092.30 0.05501
1092.40 0.0547
1092.50 0.05439
1092.60 0.05408
1092.70 0.05374
1092.80 0.05331
1092.90 0.05288
1093.00 0.05245
1093.10 0.05196
1093.20 0.05132
1093.30 0.05068
1093.40 0.05016
1093.50 0.05021
1093.60 0.0504
1093.70 0.05102
1093.80 0.05162
1093.90 0.05216
1094.00 0.05255
1094.10 0.05295
1094.20 0.05334
1094.30 0.0537
1094.40 0.05397
1094.50 0.05424
1094.60 0.05451
1094.70 0.05478
1094.80 0.05505
1094.90 0.05532
1095.00 0.05557
1095.10 0.05577
1095.20 0.05598
1095.30 0.05618
1095.40 0.05638
1095.50 0.05659
1095.60 0.05679
1095.70 0.05699
1095.80 0.0572
1095.90 0.0574
1096.00 0.0576
1096.10 0.05781
1096.20 0.05801
1096.30 0.05821
1096.40 0.05841
1096.50 0.05861
1096.60 0.05877
1096.70 0.05894
1096.80 0.05911
1096.90 0.05928
1097.00 0.05945
1097.10 0.05959
1097.20 0.05973
1097.30 0.05987
1097.40 0.06001
1097.50 0.06016
1097.60 0.0603
1097.70 0.06044
1097.80 0.06058
1097.90 0.06072
1098.00 0.06086
1098.10 0.061
1098.20 0.06114
1098.30 0.06128
1098.40 0.06142
1098.50 0.06155
1098.60 0.06165
1098.70 0.06175
1098.80 0.06184
1098.90 0.06194
1099.00 0.06204
1099.10 0.06214
1099.20 0.06224
1099.30 0.06234
1099.40 0.06243
1099.50 0.06253
1099.60 0.06263
1099.70 0.06273
1099.80 0.06283
1099.90 0.06292
1100.00 0.06302
1100.10 0.06312
1100.20 0.06322
1100.30 0.06332
1100.40 0.06341
1100.50 0.0635
1100.60 0.06356
1100.70 0.06363
1100.80 0.06369
1100.90 0.06375
1101.00 0.06382
1101.10 0.06388
1101.20 0.06394
1101.30 0.06401
1101.40 0.06407
1101.50 0.06413
1101.60 0.0642
1101.70 0.06426
1101.80 0.06432
1101.90 0.06439
1102.00 0.06445
1102.10 0.0645
1102.20 0.06455
1102.30 0.0646
1102.40 0.06465
1102.50 0.06469
1102.60 0.06473
1102.70 0.06477
1102.80 0.0648
1102.90 0.06484
1103.00 0.06488
1103.10 0.06492
1103.20 0.06495
1103.30 0.06499
1103.40 0.06503
1103.50 0.06506
1103.60 0.06508
1103.70 0.0651
1103.80 0.06512
1103.90 0.06514
1104.00 0.06516
1104.10 0.06518
1104.20 0.0652
1104.30 0.06522
1104.40 0.06524
1104.50 0.06526
1104.60 0.06529
1104.70 0.06531
1104.80 0.06533
1104.90 0.06535
1105.00 0.06537
1105.10 0.06539
1105.20 0.06541
1105.30 0.06543
1105.40 0.06545
1105.50 0.06547
1105.60 0.06547
1105.70 0.06548
1105.80 0.06549
1105.90 0.0655
1106.00 0.0655
1106.10 0.06551
1106.20 0.06552
1106.30 0.06553
1106.40 0.06553
1106.50 0.06554
1106.60 0.06555
1106.70 0.06556
1106.80 0.06556
1106.90 0.06557
1107.00 0.06558
1107.10 0.06558
1107.20 0.06559
1107.30 0.06559
1107.40 0.0656
1107.50 0.0656
1107.60 0.0656
1107.70 0.06559
1107.80 0.06559
1107.90 0.06558
1108.00 0.06558
1108.10 0.06558
1108.20 0.06557
1108.30 0.06557
1108.40 0.06557
1108.50 0.06556
1108.60 0.06556
1108.70 0.06556
1108.80 0.06555
1108.90 0.06555
1109.00 0.06555
1109.10 0.06554
1109.20 0.06554
1109.30 0.06554
1109.40 0.06553
1109.50 0.06553
1109.60 0.06552
1109.70 0.06551
1109.80 0.0655
1109.90 0.06549
1110.00 0.06548
1110.10 0.06546
1110.20 0.06545
1110.30 0.06544
1110.40 0.06543
1110.50 0.06542
1110.60 0.06541
1110.70 0.0654
1110.80 0.06539
1110.90 0.06538
1111.00 0.06537
1111.10 0.06536
1111.20 0.06535
1111.30 0.06534
1111.40 0.06533
1111.50 0.06532
1111.60 0.06531
1111.70 0.0653
1111.80 0.06529
1111.90 0.06528
1112.00 0.06527
1112.10 0.06526
1112.20 0.06525
1112.30 0.06523
1112.40 0.06522
1112.50 0.0652
1112.60 0.06519
1112.70 0.06518
1112.80 0.06516
1112.90 0.06515
1113.00 0.06514
1113.10 0.06512
1113.20 0.06511
1113.30 0.06509
1113.40 0.06508
1113.50 0.06507
1113.60 0.06505
1113.70 0.06503
1113.80 0.06502
1113.90 0.065
1114.00 0.06499
1114.10 0.06497
1114.20 0.06495
1114.30 0.06494
1114.40 0.06492
1114.50 0.0649
1114.60 0.06489
1114.70 0.06487
1114.80 0.06486
1114.90 0.06484
1115.00 0.06482
1115.10 0.06481
1115.20 0.06479
1115.30 0.06478
1115.40 0.06476
1115.50 0.06474
1115.60 0.06473
1115.70 0.06471
1115.80 0.0647
1115.90 0.06468
1116.00 0.06466
1116.10 0.06465
1116.20 0.06463
1116.30 0.06461
1116.40 0.0646
1116.50 0.06458
1116.60 0.06457
1116.70 0.06455
1116.80 0.06453
1116.90 0.06452
1117.00 0.0645
1117.10 0.06448
1117.20 0.06447
1117.30 0.06445
1117.40 0.06443
1117.50 0.06441
1117.60 0.06439
1117.70 0.06437
1117.80 0.06435
1117.90 0.06434
1118.00 0.06432
1118.10 0.0643
1118.20 0.06428
1118.30 0.06426
1118.40 0.06424
1118.50 0.06423
1118.60 0.06421
1118.70 0.06419
1118.80 0.06417
1118.90 0.06415
1119.00 0.06413
1119.10 0.06412
1119.20 0.0641
1119.30 0.06408
1119.40 0.06406
1119.50 0.06404
1119.60 0.06402
1119.70 0.06401
1119.80 0.06399
1119.90 0.06397
1120.00 0.06395
1120.10 0.06393
1120.20 0.06391
1120.30 0.0639
1120.40 0.06388
1120.50 0.06386
1120.60 0.06384
1120.70 0.06382
1120.80 0.0638
1120.90 0.06379
1121.00 0.06377
1121.10 0.06375
1121.20 0.06373
1121.30 0.06371
1121.40 0.06369
1121.50 0.06368
1121.60 0.06366
1121.70 0.06364
1121.80 0.06362
1121.90 0.0636
1122.00 0.06358
1122.10 0.06357
1122.20 0.06355
1122.30 0.06353
1122.40 0.06351
1122.50 0.06349
1122.60 0.06347
1122.70 0.06345
1122.80 0.06343
1122.90 0.06341
1123.00 0.06339
1123.10 0.06337
1123.20 0.06335
1123.30 0.06333
1123.40 0.06331
1123.50 0.06329
1123.60 0.06327
1123.70 0.06325
1123.80 0.06324
1123.90 0.06322
1124.00 0.0632
1124.10 0.06318
1124.20 0.06316
1124.30 0.06314
1124.40 0.06312
1124.50 0.0631
1124.60 0.06308
1124.70 0.06306
1124.80 0.06304
1124.90 0.06302
1125.00 0.063
1125.10 0.06298
1125.20 0.06296
1125.30 0.06295
1125.40 0.06293
1125.50 0.06291
1125.60 0.06289
1125.70 0.06287
1125.80 0.06285
1125.90 0.06283
1126.00 0.06281
1126.10 0.06279
1126.20 0.06277
1126.30 0.06275
1126.40 0.06273
1126.50 0.06271
1126.60 0.0627
1126.70 0.06268
1126.80 0.06266
1126.90 0.06264
1127.00 0.06262
1127.10 0.0626
1127.20 0.06258
1127.30 0.06256
1127.40 0.06254
1127.50 0.06252
1127.60 0.0625
1127.70 0.06248
1127.80 0.06246
1127.90 0.06244
1128.00 0.06242
1128.10 0.0624
1128.20 0.06238
1128.30 0.06236
1128.40 0.06234
1128.50 0.06232
1128.60 0.0623
1128.70 0.06228
1128.80 0.06227
1128.90 0.06225
1129.00 0.06223
1129.10 0.06221
1129.20 0.06219
1129.30 0.06217
1129.40 0.06215
1129.50 0.06213
1129.60 0.06211
1129.70 0.06209
1129.80 0.06207
1129.90 0.06205
1130.00 0.06203
1130.10 0.06201
1130.20 0.06199
1130.30 0.06197
1130.40 0.06195
1130.50 0.06193
1130.60 0.06191
1130.70 0.06189
1130.80 0.06187
1130.90 0.06186
1131.00 0.06184
1131.10 0.06182
1131.20 0.0618
1131.30 0.06178
1131.40 0.06176
1131.50 0.06174
1131.60 0.06172
1131.70 0.0617
1131.80 0.06168
1131.90 0.06166
1132.00 0.06164
1132.10 0.06162
1132.20 0.0616
1132.30 0.06158
1132.40 0.06156
1132.50 0.06154
1132.60 0.06152
1132.70 0.0615
1132.80 0.06148
1132.90 0.06146
1133.00 0.06144
1133.10 0.06143
1133.20 0.06141
1133.30 0.06139
1133.40 0.06137
1133.50 0.06135
1133.60 0.06133
1133.70 0.06131
1133.80 0.06129
1133.90 0.06127
1134.00 0.06125
1134.10 0.06123
1134.20 0.06121
1134.30 0.06119
1134.40 0.06117
1134.50 0.06115
1134.60 0.06113
1134.70 0.06111
1134.80 0.06109
1134.90 0.06107
1135.00 0.06105
1135.10 0.06103
1135.20 0.06101
1135.30 0.061
1135.40 0.06098
1135.50 0.06096
1135.60 0.06094
1135.70 0.06092
1135.80 0.0609
1135.90 0.06088
1136.00 0.06086
1136.10 0.06084
1136.20 0.06082
1136.30 0.0608
1136.40 0.06078
1136.50 0.06076
1136.60 0.06074
1136.70 0.06072
1136.80 0.0607
1136.90 0.06068
1137.00 0.06066
1137.10 0.06065
1137.20 0.06063
1137.30 0.06061
1137.40 0.06059
1137.50 0.06057
1137.60 0.06055
1137.70 0.06053
1137.80 0.06051
1137.90 0.06049
1138.00 0.06047
1138.10 0.06045
1138.20 0.06043
1138.30 0.06041
1138.40 0.06039
1138.50 0.06037
1138.60 0.06035
1138.70 0.06033
1138.80 0.06032
1138.90 0.0603
1139.00 0.06028
1139.10 0.06026
1139.20 0.06024
1139.30 0.06022
1139.40 0.0602
1139.50 0.06018
1139.60 0.06016
1139.70 0.06014
1139.80 0.06012
1139.90 0.0601
1140.00 0.06008
1140.10 0.06006
1140.20 0.06005
1140.30 0.06003
1140.40 0.06001
1140.50 0.05999
1140.60 0.05997
1140.70 0.05995
1140.80 0.05993
1140.90 0.05991
1141.00 0.05989
1141.10 0.05987
1141.20 0.05985
1141.30 0.05983
1141.40 0.05981
1141.50 0.0598
1141.60 0.05978
1141.70 0.05976
1141.80 0.05974
1141.90 0.05972
1142.00 0.0597
1142.10 0.05968
1142.20 0.05966
1142.30 0.05964
1142.40 0.05962
1142.50 0.0596
1142.60 0.05958
1142.70 0.05957
1142.80 0.05955
1142.90 0.05953
1143.00 0.05951
1143.10 0.05949
1143.20 0.05947
1143.30 0.05945
1143.40 0.05943
1143.50 0.05941
1143.60 0.05939
1143.70 0.05937
1143.80 0.05936
1143.90 0.05934
1144.00 0.05932
1144.10 0.0593
1144.20 0.05928
1144.30 0.05926
1144.40 0.05924
1144.50 0.05922
1144.60 0.0592
1144.70 0.05918
1144.80 0.05916
1144.90 0.05915
1145.00 0.05913
1145.10 0.05911
1145.20 0.05909
1145.30 0.05907
1145.40 0.05905
1145.50 0.05903
1145.60 0.05901
1145.70 0.05899
1145.80 0.05897
1145.90 0.05896
1146.00 0.05894
1146.10 0.05892
1146.20 0.0589
1146.30 0.05888
1146.40 0.05886
1146.50 0.05884
1146.60 0.05882
1146.70 0.0588
1146.80 0.05879
1146.90 0.05877
1147.00 0.05875
1147.10 0.05873
1147.20 0.05871
1147.30 0.05869
1147.40 0.05867
1147.50 0.05865
1147.60 0.05863
1147.70 0.05862
1147.80 0.0586
1147.90 0.05858
1148.00 0.05856
1148.10 0.05854
1148.20 0.05852
1148.30 0.0585
1148.40 0.05848
1148.50 0.05847
1148.60 0.05845
1148.70 0.05843
1148.80 0.05841
1148.90 0.05839
1149.00 0.05837
1149.10 0.05835
1149.20 0.05833
1149.30 0.05832
1149.40 0.0583
1149.50 0.05828
1149.60 0.05826
1149.70 0.05824
1149.80 0.05822
1149.90 0.0582
1150.00 0.05818
1150.10 0.05817
1150.20 0.05815
1150.30 0.05813
1150.40 0.05811
1150.50 0.05809
1150.60 0.05807
1150.70 0.05805
1150.80 0.05803
1150.90 0.05802
1151.00 0.058
1151.10 0.05798
1151.20 0.05796
1151.30 0.05794
1151.40 0.05792
1151.50 0.0579
1151.60 0.05789
1151.70 0.05787
1151.80 0.05785
1151.90 0.05783
1152.00 0.05781
1152.10 0.05779
1152.20 0.05777
1152.30 0.05776
1152.40 0.05774
1152.50 0.05772
1152.60 0.0577
1152.70 0.05768
1152.80 0.05766
1152.90 0.05764
1153.00 0.05763
1153.10 0.05761
1153.20 0.05759
1153.30 0.05757
1153.40 0.05755
1153.50 0.05753
1153.60 0.05752
1153.70 0.0575
1153.80 0.05748
1153.90 0.05746
1154.00 0.05744
1154.10 0.05742
1154.20 0.0574
1154.30 0.05739
1154.40 0.05737
1154.50 0.05735
1154.60 0.05733
1154.70 0.05731
1154.80 0.05729
1154.90 0.05728
1155.00 0.05726
1155.10 0.05724
1155.20 0.05722
1155.30 0.0572
1155.40 0.05718
1155.50 0.05717
1155.60 0.05715
1155.70 0.05713
1155.80 0.05711
1155.90 0.05709
1156.00 0.05707
1156.10 0.05706
1156.20 0.05704
1156.30 0.05702
1156.40 0.057
1156.50 0.05698
1156.60 0.05696
1156.70 0.05695
1156.80 0.05693
1156.90 0.05691
1157.00 0.05689
1157.10 0.05687
1157.20 0.05686
1157.30 0.05684
1157.40 0.05682
1157.50 0.0568
1157.60 0.05678
1157.70 0.05676
1157.80 0.05675
1157.90 0.05673
1158.00 0.05671
1158.10 0.05669
1158.20 0.05667
1158.30 0.05666
1158.40 0.05664
1158.50 0.05662
1158.60 0.0566
1158.70 0.05658
1158.80 0.05656
1158.90 0.05655
1159.00 0.05653
1159.10 0.05651
1159.20 0.05649
1159.30 0.05647
1159.40 0.05646
1159.50 0.05644
1159.60 0.05642
1159.70 0.0564
1159.80 0.05638
1159.90 0.05637
1160.00 0.05635
1160.10 0.05633
1160.20 0.05631
1160.30 0.05629
1160.40 0.05628
1160.50 0.05626
1160.60 0.05624
1160.70 0.05622
1160.80 0.0562
1160.90 0.05619
1161.00 0.05617
1161.10 0.05615
1161.20 0.05613
1161.30 0.05611
1161.40 0.0561
1161.50 0.05608
1161.60 0.05606
1161.70 0.05604
1161.80 0.05602
1161.90 0.05601
1162.00 0.05599
1162.10 0.05597
1162.20 0.05595
1162.30 0.05593
1162.40 0.05592
1162.50 0.0559
1162.60 0.05588
1162.70 0.05586
1162.80 0.05585
1162.90 0.05583
1163.00 0.05581
1163.10 0.05579
1163.20 0.05577
1163.30 0.05576
1163.40 0.05574
1163.50 0.05572
1163.60 0.0557
1163.70 0.05569
1163.80 0.05567
1163.90 0.05565
1164.00 0.05563
1164.10 0.05561
1164.20 0.0556
1164.30 0.05558
1164.40 0.05556
1164.50 0.05554
1164.60 0.05553
1164.70 0.05551
1164.80 0.05549
1164.90 0.05547
1165.00 0.05545
1165.10 0.05544
1165.20 0.05542
1165.30 0.0554
1165.40 0.05538
1165.50 0.05537
1165.60 0.05535
1165.70 0.05533
1165.80 0.05531
1165.90 0.0553
1166.00 0.05528
1166.10 0.05526
1166.20 0.05524
1166.30 0.05522
1166.40 0.05521
1166.50 0.05519
1166.60 0.05517
1166.70 0.05515
1166.80 0.05514
1166.90 0.05512
1167.00 0.0551
1167.10 0.05508
1167.20 0.05507
1167.30 0.05505
1167.40 0.05503
1167.50 0.05501
1167.60 0.055
1167.70 0.05498
1167.80 0.05496
1167.90 0.05494
1168.00 0.05493
1168.10 0.05491
1168.20 0.05489
1168.30 0.05487
1168.40 0.05486
1168.50 0.05484
1168.60 0.05482
1168.70 0.0548
1168.80 0.05479
1168.90 0.05477
1169.00 0.05475
1169.10 0.05473
1169.20 0.05472
1169.30 0.0547
1169.40 0.05468
1169.50 0.05466
1169.60 0.05465
1169.70 0.05463
1169.80 0.05461
1169.90 0.0546
1170.00 0.05458
1170.10 0.05456
1170.20 0.05454
1170.30 0.05453
1170.40 0.05451
1170.50 0.05449
1170.60 0.05447
1170.70 0.05446
1170.80 0.05444
1170.90 0.05442
1171.00 0.0544
1171.10 0.05439
1171.20 0.05437
1171.30 0.05435
1171.40 0.05434
1171.50 0.05432
1171.60 0.0543
1171.70 0.05428
1171.80 0.05427
1171.90 0.05425
1172.00 0.05423
1172.10 0.05421
1172.20 0.0542
1172.30 0.05418
1172.40 0.05416
1172.50 0.05415
1172.60 0.05413
1172.70 0.05411
1172.80 0.05409
1172.90 0.05408
1173.00 0.05406
1173.10 0.05404
1173.20 0.05403
1173.30 0.05401
1173.40 0.05399
1173.50 0.05397
1173.60 0.05396
1173.70 0.05394
1173.80 0.05392
1173.90 0.05391
1174.00 0.05389
1174.10 0.05387
1174.20 0.05385
1174.30 0.05384
1174.40 0.05382
1174.50 0.0538
1174.60 0.05379
1174.70 0.05377
1174.80 0.05375
1174.90 0.05373
1175.00 0.05372
1175.10 0.0537
1175.20 0.05368
1175.30 0.05367
1175.40 0.05365
1175.50 0.05363
1175.60 0.05361
1175.70 0.0536
1175.80 0.05358
1175.90 0.05356
1176.00 0.05355
1176.10 0.05353
1176.20 0.05351
1176.30 0.0535
1176.40 0.05348
1176.50 0.05346
1176.60 0.05344
1176.70 0.05343
1176.80 0.05341
1176.90 0.05339
1177.00 0.05338
1177.10 0.05336
1177.20 0.05334
1177.30 0.05333
1177.40 0.05331
1177.50 0.05329
1177.60 0.05328
1177.70 0.05326
1177.80 0.05324
1177.90 0.05323
1178.00 0.05321
1178.10 0.05319
1178.20 0.05317
1178.30 0.05316
1178.40 0.05314
1178.50 0.05312
1178.60 0.05311
1178.70 0.05309
1178.80 0.05307
1178.90 0.05306
1179.00 0.05304
1179.10 0.05302
1179.20 0.05301
1179.30 0.05299
1179.40 0.05297
1179.50 0.05296
1179.60 0.05294
1179.70 0.05292
1179.80 0.05291
1179.90 0.05289
1180.00 0.05287
1180.10 0.05286
1180.20 0.05284
1180.30 0.05282
1180.40 0.05281
1180.50 0.05279
1180.60 0.05277
1180.70 0.05276
1180.80 0.05274
1180.90 0.05272
1181.00 0.05271
1181.10 0.05269
1181.20 0.05267
1181.30 0.05266
1181.40 0.05264
1181.50 0.05262
1181.60 0.05261
1181.70 0.05259
1181.80 0.05257
1181.90 0.05256
1182.00 0.05254
1182.10 0.05252
1182.20 0.05251
1182.30 0.05249
1182.40 0.05247
1182.50 0.05246
1182.60 0.05244
1182.70 0.05242
1182.80 0.05241
1182.90 0.05239
1183.00 0.05237
1183.10 0.05236
1183.20 0.05234
1183.30 0.05233
1183.40 0.05231
1183.50 0.05229
1183.60 0.05228
1183.70 0.05226
1183.80 0.05224
1183.90 0.05223
1184.00 0.05221
1184.10 0.05219
1184.20 0.05218
1184.30 0.05216
1184.40 0.05214
1184.50 0.05213
1184.60 0.05211
1184.70 0.05209
1184.80 0.05208
1184.90 0.05206
1185.00 0.05205
1185.10 0.05203
1185.20 0.05201
1185.30 0.052
1185.40 0.05198
1185.50 0.05196
1185.60 0.05195
1185.70 0.05193
1185.80 0.05191
1185.90 0.0519
1186.00 0.05188
1186.10 0.05187
1186.20 0.05185
1186.30 0.05183
1186.40 0.05182
1186.50 0.0518
1186.60 0.05178
1186.70 0.05177
1186.80 0.05175
1186.90 0.05173
1187.00 0.05172
1187.10 0.0517
1187.20 0.05169
1187.30 0.05167
1187.40 0.05165
1187.50 0.05164
1187.60 0.05162
1187.70 0.0516
1187.80 0.05159
1187.90 0.05157
1188.00 0.05156
1188.10 0.05154
1188.20 0.05152
1188.30 0.05151
1188.40 0.05149
1188.50 0.05147
1188.60 0.05146
1188.70 0.05144
1188.80 0.05143
1188.90 0.05141
1189.00 0.05139
1189.10 0.05138
1189.20 0.05136
1189.30 0.05135
1189.40 0.05133
1189.50 0.05131
1189.60 0.0513
1189.70 0.05128
1189.80 0.05126
1189.90 0.05125
1190.00 0.05123
1190.10 0.05122
1190.20 0.0512
1190.30 0.05118
1190.40 0.05117
1190.50 0.05115
1190.60 0.05114
1190.70 0.05112
1190.80 0.0511
1190.90 0.05109
1191.00 0.05107
1191.10 0.05106
1191.20 0.05104
1191.30 0.05102
1191.40 0.05101
1191.50 0.05099
1191.60 0.05097
1191.70 0.05096
1191.80 0.05094
1191.90 0.05093
1192.00 0.05091
1192.10 0.05089
1192.20 0.05088
1192.30 0.05086
1192.40 0.05085
1192.50 0.05083
1192.60 0.05082
1192.70 0.0508
1192.80 0.05078
1192.90 0.05077
1193.00 0.05075
1193.10 0.05074
1193.20 0.05072
1193.30 0.0507
1193.40 0.05069
1193.50 0.05067
1193.60 0.05066
1193.70 0.05064
1193.80 0.05062
1193.90 0.05061
1194.00 0.05059
1194.10 0.05058
1194.20 0.05056
1194.30 0.05055
1194.40 0.05053
1194.50 0.05051
1194.60 0.0505
1194.70 0.05048
1194.80 0.05047
1194.90 0.05045
1195.00 0.05043
1195.10 0.05042
1195.20 0.0504
1195.30 0.05039
1195.40 0.05037
1195.50 0.05036
1195.60 0.05034
1195.70 0.05032
1195.80 0.05031
1195.90 0.05029
1196.00 0.05028
1196.10 0.05026
1196.20 0.05025
1196.30 0.05023
1196.40 0.05021
1196.50 0.0502
1196.60 0.05018
1196.70 0.05017
1196.80 0.05015
1196.90 0.05014
1197.00 0.05012
1197.10 0.0501
1197.20 0.05009
1197.30 0.05007
1197.40 0.05006
1197.50 0.05004
1197.60 0.05003
1197.70 0.05001
1197.80 0.05
1197.90 0.04998
1198.00 0.04996
1198.10 0.04995
1198.20 0.04993
1198.30 0.04992
1198.40 0.0499
1198.50 0.04989
1198.60 0.04987
1198.70 0.04985
1198.80 0.04984
1198.90 0.04982
1199.00 0.04981
1199.10 0.04979
1199.20 0.04978
1199.30 0.04976
1199.40 0.04975
1199.50 0.04973
1199.60 0.04971
1199.70 0.0497
1199.80 0.04968
1199.90 0.04967
1200.00 0
