# Version 2.1 - nm, norm@500 to 1, cut digits, bergeron_2000_95.dat_2000
# Wavelength(nm)  Flambda(ergs/cm^s/s/nm)
300.00 0.06502
300.10 0.0652
300.20 0.06538
300.30 0.06557
300.40 0.06576
300.50 0.06595
300.60 0.06614
300.70 0.06632
300.80 0.06651
300.90 0.0667
301.00 0.06688
301.10 0.06707
301.20 0.06726
301.30 0.06744
301.40 0.06763
301.50 0.06781
301.60 0.068
301.70 0.06818
301.80 0.06837
301.90 0.06855
302.00 0.06874
302.10 0.06893
302.20 0.06913
302.30 0.06932
302.40 0.06952
302.50 0.06971
302.60 0.0699
302.70 0.0701
302.80 0.07029
302.90 0.07049
303.00 0.07068
303.10 0.07087
303.20 0.07107
303.30 0.07126
303.40 0.07145
303.50 0.07164
303.60 0.07183
303.70 0.07203
303.80 0.07222
303.90 0.07241
304.00 0.0726
304.10 0.0728
304.20 0.073
304.30 0.07321
304.40 0.07341
304.50 0.07361
304.60 0.07381
304.70 0.07401
304.80 0.07421
304.90 0.07441
305.00 0.07461
305.10 0.07481
305.20 0.07501
305.30 0.07521
305.40 0.07541
305.50 0.07561
305.60 0.07581
305.70 0.07601
305.80 0.07621
305.90 0.0764
306.00 0.07661
306.10 0.07681
306.20 0.07702
306.30 0.07723
306.40 0.07744
306.50 0.07765
306.60 0.07786
306.70 0.07806
306.80 0.07827
306.90 0.07848
307.00 0.07869
307.10 0.07889
307.20 0.0791
307.30 0.07931
307.40 0.07951
307.50 0.07972
307.60 0.07993
307.70 0.08013
307.80 0.08034
307.90 0.08054
308.00 0.08075
308.10 0.08097
308.20 0.08118
308.30 0.0814
308.40 0.08161
308.50 0.08183
308.60 0.08204
308.70 0.08226
308.80 0.08247
308.90 0.08269
309.00 0.0829
309.10 0.08312
309.20 0.08333
309.30 0.08355
309.40 0.08376
309.50 0.08397
309.60 0.08418
309.70 0.0844
309.80 0.08461
309.90 0.08482
310.00 0.08504
310.10 0.08526
310.20 0.08548
310.30 0.08571
310.40 0.08593
310.50 0.08615
310.60 0.08638
310.70 0.0866
310.80 0.08682
310.90 0.08705
311.00 0.08727
311.10 0.08749
311.20 0.08771
311.30 0.08793
311.40 0.08816
311.50 0.08838
311.60 0.0886
311.70 0.08882
311.80 0.08904
311.90 0.08926
312.00 0.08948
312.10 0.08969
312.20 0.08992
312.30 0.09015
312.40 0.09038
312.50 0.09061
312.60 0.09084
312.70 0.09107
312.80 0.0913
312.90 0.09153
313.00 0.09176
313.10 0.09199
313.20 0.09222
313.30 0.09245
313.40 0.09267
313.50 0.0929
313.60 0.09313
313.70 0.09336
313.80 0.09358
313.90 0.09381
314.00 0.09405
314.10 0.09428
314.20 0.09452
314.30 0.09475
314.40 0.09499
314.50 0.09523
314.60 0.09547
314.70 0.0957
314.80 0.09594
314.90 0.09618
315.00 0.09641
315.10 0.09665
315.20 0.09689
315.30 0.09712
315.40 0.09736
315.50 0.09759
315.60 0.09782
315.70 0.09806
315.80 0.09829
315.90 0.09853
316.00 0.09877
316.10 0.09901
316.20 0.09925
316.30 0.0995
316.40 0.09974
316.50 0.09999
316.60 0.1002
316.70 0.1005
316.80 0.1007
316.90 0.101
317.00 0.1012
317.10 0.1015
317.20 0.1017
317.30 0.1019
317.40 0.1022
317.50 0.1024
317.60 0.1027
317.70 0.1029
317.80 0.1031
317.90 0.1034
318.00 0.1036
318.10 0.1039
318.20 0.1041
318.30 0.1044
318.40 0.1046
318.50 0.1049
318.60 0.1051
318.70 0.1054
318.80 0.1057
318.90 0.1059
319.00 0.1062
319.10 0.1064
319.20 0.1067
319.30 0.1069
319.40 0.1072
319.50 0.1074
319.60 0.1077
319.70 0.1079
319.80 0.1081
319.90 0.1084
320.00 0.1087
320.10 0.1089
320.20 0.1092
320.30 0.1094
320.40 0.1097
320.50 0.1099
320.60 0.1102
320.70 0.1105
320.80 0.1107
320.90 0.111
321.00 0.1112
321.10 0.1115
321.20 0.1118
321.30 0.112
321.40 0.1123
321.50 0.1125
321.60 0.1128
321.70 0.113
321.80 0.1133
321.90 0.1136
322.00 0.1138
322.10 0.1141
322.20 0.1143
322.30 0.1146
322.40 0.1149
322.50 0.1152
322.60 0.1154
322.70 0.1157
322.80 0.116
322.90 0.1162
323.00 0.1165
323.10 0.1167
323.20 0.117
323.30 0.1173
323.40 0.1175
323.50 0.1178
323.60 0.1181
323.70 0.1183
323.80 0.1186
323.90 0.1189
324.00 0.1191
324.10 0.1194
324.20 0.1197
324.30 0.12
324.40 0.1202
324.50 0.1205
324.60 0.1208
324.70 0.1211
324.80 0.1213
324.90 0.1216
325.00 0.1219
325.10 0.1221
325.20 0.1224
325.30 0.1227
325.40 0.123
325.50 0.1232
325.60 0.1235
325.70 0.1238
325.80 0.124
325.90 0.1243
326.00 0.1246
326.10 0.1249
326.20 0.1252
326.30 0.1254
326.40 0.1257
326.50 0.126
326.60 0.1263
326.70 0.1266
326.80 0.1269
326.90 0.1271
327.00 0.1274
327.10 0.1277
327.20 0.128
327.30 0.1283
327.40 0.1285
327.50 0.1288
327.60 0.1291
327.70 0.1294
327.80 0.1296
327.90 0.1299
328.00 0.1302
328.10 0.1305
328.20 0.1308
328.30 0.1311
328.40 0.1314
328.50 0.1317
328.60 0.1319
328.70 0.1322
328.80 0.1325
328.90 0.1328
329.00 0.1331
329.10 0.1334
329.20 0.1337
329.30 0.134
329.40 0.1343
329.50 0.1345
329.60 0.1348
329.70 0.1351
329.80 0.1354
329.90 0.1357
330.00 0.136
330.10 0.1363
330.20 0.1366
330.30 0.1369
330.40 0.1372
330.50 0.1375
330.60 0.1378
330.70 0.1381
330.80 0.1383
330.90 0.1386
331.00 0.1389
331.10 0.1392
331.20 0.1395
331.30 0.1398
331.40 0.1401
331.50 0.1404
331.60 0.1407
331.70 0.141
331.80 0.1413
331.90 0.1416
332.00 0.1419
332.10 0.1422
332.20 0.1425
332.30 0.1428
332.40 0.1431
332.50 0.1434
332.60 0.1437
332.70 0.144
332.80 0.1443
332.90 0.1446
333.00 0.1449
333.10 0.1452
333.20 0.1455
333.30 0.1458
333.40 0.1461
333.50 0.1464
333.60 0.1467
333.70 0.147
333.80 0.1473
333.90 0.1476
334.00 0.1479
334.10 0.1483
334.20 0.1486
334.30 0.1489
334.40 0.1492
334.50 0.1495
334.60 0.1498
334.70 0.1501
334.80 0.1504
334.90 0.1508
335.00 0.1511
335.10 0.1514
335.20 0.1517
335.30 0.152
335.40 0.1523
335.50 0.1526
335.60 0.1529
335.70 0.1532
335.80 0.1535
335.90 0.1539
336.00 0.1542
336.10 0.1545
336.20 0.1548
336.30 0.1551
336.40 0.1554
336.50 0.1558
336.60 0.1561
336.70 0.1564
336.80 0.1567
336.90 0.157
337.00 0.1574
337.10 0.1577
337.20 0.158
337.30 0.1583
337.40 0.1586
337.50 0.1589
337.60 0.1593
337.70 0.1596
337.80 0.1599
337.90 0.1602
338.00 0.1605
338.10 0.1608
338.20 0.1612
338.30 0.1615
338.40 0.1618
338.50 0.1622
338.60 0.1625
338.70 0.1628
338.80 0.1631
338.90 0.1635
339.00 0.1638
339.10 0.1641
339.20 0.1644
339.30 0.1648
339.40 0.1651
339.50 0.1654
339.60 0.1657
339.70 0.1661
339.80 0.1664
339.90 0.1667
340.00 0.167
340.10 0.1674
340.20 0.1677
340.30 0.168
340.40 0.1684
340.50 0.1687
340.60 0.169
340.70 0.1694
340.80 0.1697
340.90 0.17
341.00 0.1704
341.10 0.1707
341.20 0.171
341.30 0.1714
341.40 0.1717
341.50 0.172
341.60 0.1724
341.70 0.1727
341.80 0.173
341.90 0.1734
342.00 0.1737
342.10 0.174
342.20 0.1744
342.30 0.1747
342.40 0.1751
342.50 0.1754
342.60 0.1757
342.70 0.1761
342.80 0.1764
342.90 0.1768
343.00 0.1771
343.10 0.1775
343.20 0.1778
343.30 0.1781
343.40 0.1785
343.50 0.1788
343.60 0.1792
343.70 0.1795
343.80 0.1798
343.90 0.1802
344.00 0.1805
344.10 0.1809
344.20 0.1812
344.30 0.1816
344.40 0.1819
344.50 0.1823
344.60 0.1826
344.70 0.183
344.80 0.1833
344.90 0.1837
345.00 0.184
345.10 0.1844
345.20 0.1847
345.30 0.185
345.40 0.1854
345.50 0.1857
345.60 0.1861
345.70 0.1864
345.80 0.1868
345.90 0.1871
346.00 0.1875
346.10 0.1878
346.20 0.1882
346.30 0.1885
346.40 0.1889
346.50 0.1893
346.60 0.1896
346.70 0.19
346.80 0.1903
346.90 0.1907
347.00 0.191
347.10 0.1914
347.20 0.1917
347.30 0.1921
347.40 0.1924
347.50 0.1928
347.60 0.1932
347.70 0.1935
347.80 0.1939
347.90 0.1942
348.00 0.1946
348.10 0.1949
348.20 0.1953
348.30 0.1957
348.40 0.196
348.50 0.1964
348.60 0.1968
348.70 0.1971
348.80 0.1975
348.90 0.1978
349.00 0.1982
349.10 0.1986
349.20 0.1989
349.30 0.1993
349.40 0.1997
349.50 0.2
349.60 0.2004
349.70 0.2007
349.80 0.2011
349.90 0.2015
350.00 0.2018
350.10 0.2022
350.20 0.2026
350.30 0.2029
350.40 0.2033
350.50 0.2037
350.60 0.204
350.70 0.2044
350.80 0.2048
350.90 0.2052
351.00 0.2055
351.10 0.2059
351.20 0.2063
351.30 0.2066
351.40 0.207
351.50 0.2074
351.60 0.2077
351.70 0.2081
351.80 0.2085
351.90 0.2088
352.00 0.2092
352.10 0.2096
352.20 0.21
352.30 0.2103
352.40 0.2107
352.50 0.2111
352.60 0.2115
352.70 0.2119
352.80 0.2122
352.90 0.2126
353.00 0.213
353.10 0.2134
353.20 0.2137
353.30 0.2141
353.40 0.2145
353.50 0.2149
353.60 0.2152
353.70 0.2156
353.80 0.216
353.90 0.2164
354.00 0.2167
354.10 0.2171
354.20 0.2175
354.30 0.2179
354.40 0.2183
354.50 0.2187
354.60 0.2191
354.70 0.2194
354.80 0.2198
354.90 0.2202
355.00 0.2206
355.10 0.221
355.20 0.2214
355.30 0.2217
355.40 0.2221
355.50 0.2225
355.60 0.2229
355.70 0.2233
355.80 0.2237
355.90 0.224
356.00 0.2244
356.10 0.2248
356.20 0.2252
356.30 0.2256
356.40 0.226
356.50 0.2264
356.60 0.2268
356.70 0.2272
356.80 0.2276
356.90 0.228
357.00 0.2283
357.10 0.2287
357.20 0.2291
357.30 0.2295
357.40 0.2299
357.50 0.2303
357.60 0.2307
357.70 0.2311
357.80 0.2315
357.90 0.2318
358.00 0.2322
358.10 0.2326
358.20 0.233
358.30 0.2334
358.40 0.2338
358.50 0.2342
358.60 0.2346
358.70 0.235
358.80 0.2354
358.90 0.2358
359.00 0.2362
359.10 0.2366
359.20 0.237
359.30 0.2374
359.40 0.2378
359.50 0.2382
359.60 0.2386
359.70 0.239
359.80 0.2394
359.90 0.2398
360.00 0.2402
360.10 0.2406
360.20 0.241
360.30 0.2414
360.40 0.2418
360.50 0.2422
360.60 0.2426
360.70 0.243
360.80 0.2434
360.90 0.2438
361.00 0.2443
361.10 0.2447
361.20 0.2451
361.30 0.2455
361.40 0.2459
361.50 0.2463
361.60 0.2467
361.70 0.2471
361.80 0.2475
361.90 0.2479
362.00 0.2483
362.10 0.2487
362.20 0.2491
362.30 0.2495
362.40 0.2499
362.50 0.2503
362.60 0.2507
362.70 0.2511
362.80 0.2516
362.90 0.252
363.00 0.2524
363.10 0.2528
363.20 0.2532
363.30 0.2536
363.40 0.254
363.50 0.2545
363.60 0.2549
363.70 0.2553
363.80 0.2557
363.90 0.2561
364.00 0.2565
364.10 0.2569
364.20 0.2573
364.30 0.2578
364.40 0.2582
364.50 0.2586
364.60 0.259
364.70 0.2594
364.80 0.2599
364.90 0.2603
365.00 0.2607
365.10 0.2611
365.20 0.2615
365.30 0.262
365.40 0.2624
365.50 0.2628
365.60 0.2632
365.70 0.2636
365.80 0.264
365.90 0.2645
366.00 0.2649
366.10 0.2653
366.20 0.2657
366.30 0.2662
366.40 0.2666
366.50 0.267
366.60 0.2674
366.70 0.2679
366.80 0.2683
366.90 0.2687
367.00 0.2691
367.10 0.2696
367.20 0.27
367.30 0.2704
367.40 0.2708
367.50 0.2713
367.60 0.2717
367.70 0.2721
367.80 0.2725
367.90 0.2729
368.00 0.2734
368.10 0.2738
368.20 0.2742
368.30 0.2747
368.40 0.2751
368.50 0.2755
368.60 0.276
368.70 0.2764
368.80 0.2768
368.90 0.2773
369.00 0.2777
369.10 0.2781
369.20 0.2786
369.30 0.279
369.40 0.2794
369.50 0.2799
369.60 0.2803
369.70 0.2807
369.80 0.2811
369.90 0.2816
370.00 0.282
370.10 0.2824
370.20 0.2829
370.30 0.2833
370.40 0.2838
370.50 0.2842
370.60 0.2846
370.70 0.2851
370.80 0.2855
370.90 0.286
371.00 0.2864
371.10 0.2868
371.20 0.2873
371.30 0.2877
371.40 0.2881
371.50 0.2886
371.60 0.289
371.70 0.2894
371.80 0.2899
371.90 0.2903
372.00 0.2907
372.10 0.2912
372.20 0.2916
372.30 0.2921
372.40 0.2925
372.50 0.293
372.60 0.2934
372.70 0.2939
372.80 0.2943
372.90 0.2948
373.00 0.2952
373.10 0.2957
373.20 0.2961
373.30 0.2965
373.40 0.297
373.50 0.2974
373.60 0.2979
373.70 0.2983
373.80 0.2987
373.90 0.2992
374.00 0.2996
374.10 0.3001
374.20 0.3005
374.30 0.301
374.40 0.3014
374.50 0.3019
374.60 0.3024
374.70 0.3028
374.80 0.3033
374.90 0.3037
375.00 0.3042
375.10 0.3046
375.20 0.3051
375.30 0.3055
375.40 0.306
375.50 0.3064
375.60 0.3069
375.70 0.3073
375.80 0.3077
375.90 0.3082
376.00 0.3086
376.10 0.3091
376.20 0.3096
376.30 0.31
376.40 0.3105
376.50 0.3109
376.60 0.3114
376.70 0.3118
376.80 0.3123
376.90 0.3127
377.00 0.3132
377.10 0.3136
377.20 0.3141
377.30 0.3146
377.40 0.315
377.50 0.3155
377.60 0.3159
377.70 0.3164
377.80 0.3168
377.90 0.3173
378.00 0.3178
378.10 0.3182
378.20 0.3187
378.30 0.3192
378.40 0.3196
378.50 0.3201
378.60 0.3205
378.70 0.321
378.80 0.3215
378.90 0.3219
379.00 0.3224
379.10 0.3228
379.20 0.3233
379.30 0.3238
379.40 0.3242
379.50 0.3247
379.60 0.3252
379.70 0.3256
379.80 0.3261
379.90 0.3266
380.00 0.327
380.10 0.3275
380.20 0.328
380.30 0.3284
380.40 0.3289
380.50 0.3294
380.60 0.3298
380.70 0.3303
380.80 0.3308
380.90 0.3312
381.00 0.3317
381.10 0.3322
381.20 0.3326
381.30 0.3331
381.40 0.3336
381.50 0.334
381.60 0.3345
381.70 0.335
381.80 0.3354
381.90 0.3359
382.00 0.3364
382.10 0.3369
382.20 0.3373
382.30 0.3378
382.40 0.3383
382.50 0.3388
382.60 0.3392
382.70 0.3397
382.80 0.3402
382.90 0.3407
383.00 0.3411
383.10 0.3416
383.20 0.3421
383.30 0.3425
383.40 0.343
383.50 0.3435
383.60 0.344
383.70 0.3444
383.80 0.3449
383.90 0.3454
384.00 0.3459
384.10 0.3463
384.20 0.3468
384.30 0.3473
384.40 0.3478
384.50 0.3483
384.60 0.3487
384.70 0.3492
384.80 0.3497
384.90 0.3502
385.00 0.3507
385.10 0.3511
385.20 0.3516
385.30 0.3521
385.40 0.3526
385.50 0.3531
385.60 0.3535
385.70 0.354
385.80 0.3545
385.90 0.355
386.00 0.3555
386.10 0.356
386.20 0.3564
386.30 0.3569
386.40 0.3574
386.50 0.3579
386.60 0.3584
386.70 0.3589
386.80 0.3593
386.90 0.3598
387.00 0.3603
387.10 0.3608
387.20 0.3613
387.30 0.3618
387.40 0.3623
387.50 0.3627
387.60 0.3632
387.70 0.3637
387.80 0.3642
387.90 0.3647
388.00 0.3652
388.10 0.3657
388.20 0.3662
388.30 0.3666
388.40 0.3671
388.50 0.3676
388.60 0.3681
388.70 0.3686
388.80 0.3691
388.90 0.3696
389.00 0.3701
389.10 0.3706
389.20 0.3711
389.30 0.3715
389.40 0.372
389.50 0.3725
389.60 0.373
389.70 0.3735
389.80 0.374
389.90 0.3745
390.00 0.375
390.10 0.3755
390.20 0.376
390.30 0.3765
390.40 0.377
390.50 0.3775
390.60 0.378
390.70 0.3785
390.80 0.379
390.90 0.3795
391.00 0.38
391.10 0.3804
391.20 0.3809
391.30 0.3814
391.40 0.3819
391.50 0.3824
391.60 0.3829
391.70 0.3834
391.80 0.3839
391.90 0.3844
392.00 0.3849
392.10 0.3854
392.20 0.3859
392.30 0.3864
392.40 0.3869
392.50 0.3874
392.60 0.3879
392.70 0.3884
392.80 0.3889
392.90 0.3894
393.00 0.3899
393.10 0.3904
393.20 0.3909
393.30 0.3914
393.40 0.3919
393.50 0.3924
393.60 0.3929
393.70 0.3934
393.80 0.3939
393.90 0.3944
394.00 0.395
394.10 0.3955
394.20 0.396
394.30 0.3965
394.40 0.397
394.50 0.3975
394.60 0.398
394.70 0.3985
394.80 0.399
394.90 0.3995
395.00 0.4
395.10 0.4005
395.20 0.401
395.30 0.4015
395.40 0.402
395.50 0.4025
395.60 0.4031
395.70 0.4036
395.80 0.4041
395.90 0.4046
396.00 0.4051
396.10 0.4056
396.20 0.4061
396.30 0.4066
396.40 0.4071
396.50 0.4076
396.60 0.4081
396.70 0.4087
396.80 0.4092
396.90 0.4097
397.00 0.4102
397.10 0.4107
397.20 0.4112
397.30 0.4117
397.40 0.4122
397.50 0.4128
397.60 0.4133
397.70 0.4138
397.80 0.4143
397.90 0.4148
398.00 0.4153
398.10 0.4158
398.20 0.4163
398.30 0.4169
398.40 0.4174
398.50 0.4179
398.60 0.4184
398.70 0.4189
398.80 0.4194
398.90 0.4199
399.00 0.4205
399.10 0.421
399.20 0.4215
399.30 0.422
399.40 0.4225
399.50 0.4231
399.60 0.4236
399.70 0.4241
399.80 0.4246
399.90 0.4251
400.00 0.4256
400.10 0.4262
400.20 0.4267
400.30 0.4272
400.40 0.4277
400.50 0.4282
400.60 0.4288
400.70 0.4293
400.80 0.4298
400.90 0.4303
401.00 0.4308
401.10 0.4314
401.20 0.4319
401.30 0.4324
401.40 0.4329
401.50 0.4335
401.60 0.434
401.70 0.4345
401.80 0.435
401.90 0.4355
402.00 0.4361
402.10 0.4366
402.20 0.4371
402.30 0.4376
402.40 0.4382
402.50 0.4387
402.60 0.4392
402.70 0.4397
402.80 0.4403
402.90 0.4408
403.00 0.4413
403.10 0.4418
403.20 0.4424
403.30 0.4429
403.40 0.4434
403.50 0.4439
403.60 0.4445
403.70 0.445
403.80 0.4455
403.90 0.446
404.00 0.4466
404.10 0.4471
404.20 0.4476
404.30 0.4482
404.40 0.4487
404.50 0.4492
404.60 0.4497
404.70 0.4503
404.80 0.4508
404.90 0.4513
405.00 0.4519
405.10 0.4524
405.20 0.4529
405.30 0.4535
405.40 0.454
405.50 0.4545
405.60 0.455
405.70 0.4556
405.80 0.4561
405.90 0.4566
406.00 0.4572
406.10 0.4577
406.20 0.4582
406.30 0.4588
406.40 0.4593
406.50 0.4598
406.60 0.4604
406.70 0.4609
406.80 0.4614
406.90 0.462
407.00 0.4625
407.10 0.463
407.20 0.4636
407.30 0.4641
407.40 0.4646
407.50 0.4652
407.60 0.4657
407.70 0.4662
407.80 0.4668
407.90 0.4673
408.00 0.4679
408.10 0.4684
408.20 0.4689
408.30 0.4695
408.40 0.47
408.50 0.4705
408.60 0.4711
408.70 0.4716
408.80 0.4722
408.90 0.4727
409.00 0.4732
409.10 0.4738
409.20 0.4743
409.30 0.4748
409.40 0.4754
409.50 0.4759
409.60 0.4765
409.70 0.477
409.80 0.4775
409.90 0.4781
410.00 0.4786
410.10 0.4792
410.20 0.4797
410.30 0.4802
410.40 0.4808
410.50 0.4813
410.60 0.4819
410.70 0.4824
410.80 0.483
410.90 0.4835
411.00 0.484
411.10 0.4846
411.20 0.4851
411.30 0.4857
411.40 0.4862
411.50 0.4868
411.60 0.4873
411.70 0.4878
411.80 0.4884
411.90 0.4889
412.00 0.4895
412.10 0.49
412.20 0.4906
412.30 0.4911
412.40 0.4917
412.50 0.4922
412.60 0.4927
412.70 0.4933
412.80 0.4938
412.90 0.4944
413.00 0.4949
413.10 0.4955
413.20 0.496
413.30 0.4966
413.40 0.4971
413.50 0.4977
413.60 0.4982
413.70 0.4988
413.80 0.4993
413.90 0.4999
414.00 0.5004
414.10 0.501
414.20 0.5015
414.30 0.5021
414.40 0.5026
414.50 0.5031
414.60 0.5037
414.70 0.5042
414.80 0.5048
414.90 0.5053
415.00 0.5059
415.10 0.5064
415.20 0.507
415.30 0.5075
415.40 0.5081
415.50 0.5086
415.60 0.5092
415.70 0.5097
415.80 0.5103
415.90 0.5108
416.00 0.5114
416.10 0.512
416.20 0.5125
416.30 0.5131
416.40 0.5136
416.50 0.5142
416.60 0.5147
416.70 0.5153
416.80 0.5158
416.90 0.5164
417.00 0.5169
417.10 0.5175
417.20 0.518
417.30 0.5186
417.40 0.5192
417.50 0.5197
417.60 0.5203
417.70 0.5208
417.80 0.5214
417.90 0.5219
418.00 0.5225
418.10 0.523
418.20 0.5236
418.30 0.5241
418.40 0.5247
418.50 0.5253
418.60 0.5258
418.70 0.5264
418.80 0.5269
418.90 0.5275
419.00 0.528
419.10 0.5286
419.20 0.5292
419.30 0.5297
419.40 0.5303
419.50 0.5308
419.60 0.5314
419.70 0.5319
419.80 0.5325
419.90 0.5331
420.00 0.5336
420.10 0.5342
420.20 0.5347
420.30 0.5353
420.40 0.5359
420.50 0.5364
420.60 0.537
420.70 0.5375
420.80 0.5381
420.90 0.5387
421.00 0.5392
421.10 0.5398
421.20 0.5403
421.30 0.5409
421.40 0.5415
421.50 0.542
421.60 0.5426
421.70 0.5431
421.80 0.5437
421.90 0.5443
422.00 0.5448
422.10 0.5454
422.20 0.546
422.30 0.5465
422.40 0.5471
422.50 0.5476
422.60 0.5482
422.70 0.5488
422.80 0.5493
422.90 0.5499
423.00 0.5505
423.10 0.551
423.20 0.5516
423.30 0.5521
423.40 0.5527
423.50 0.5533
423.60 0.5538
423.70 0.5544
423.80 0.555
423.90 0.5555
424.00 0.5561
424.10 0.5567
424.20 0.5572
424.30 0.5578
424.40 0.5584
424.50 0.5589
424.60 0.5595
424.70 0.5601
424.80 0.5606
424.90 0.5612
425.00 0.5618
425.10 0.5623
425.20 0.5629
425.30 0.5635
425.40 0.564
425.50 0.5646
425.60 0.5652
425.70 0.5657
425.80 0.5663
425.90 0.5669
426.00 0.5674
426.10 0.568
426.20 0.5686
426.30 0.5691
426.40 0.5697
426.50 0.5703
426.60 0.5708
426.70 0.5714
426.80 0.572
426.90 0.5726
427.00 0.5731
427.10 0.5737
427.20 0.5743
427.30 0.5748
427.40 0.5754
427.50 0.576
427.60 0.5765
427.70 0.5771
427.80 0.5777
427.90 0.5782
428.00 0.5788
428.10 0.5794
428.20 0.58
428.30 0.5805
428.40 0.5811
428.50 0.5817
428.60 0.5823
428.70 0.5828
428.80 0.5834
428.90 0.584
429.00 0.5845
429.10 0.5851
429.20 0.5857
429.30 0.5863
429.40 0.5868
429.50 0.5874
429.60 0.588
429.70 0.5885
429.80 0.5891
429.90 0.5897
430.00 0.5903
430.10 0.5908
430.20 0.5914
430.30 0.592
430.40 0.5926
430.50 0.5931
430.60 0.5937
430.70 0.5943
430.80 0.5949
430.90 0.5954
431.00 0.596
431.10 0.5966
431.20 0.5972
431.30 0.5977
431.40 0.5983
431.50 0.5989
431.60 0.5995
431.70 0.6
431.80 0.6006
431.90 0.6012
432.00 0.6018
432.10 0.6023
432.20 0.6029
432.30 0.6035
432.40 0.6041
432.50 0.6046
432.60 0.6052
432.70 0.6058
432.80 0.6064
432.90 0.607
433.00 0.6075
433.10 0.6081
433.20 0.6087
433.30 0.6093
433.40 0.6098
433.50 0.6104
433.60 0.611
433.70 0.6116
433.80 0.6122
433.90 0.6127
434.00 0.6133
434.10 0.6139
434.20 0.6145
434.30 0.615
434.40 0.6156
434.50 0.6162
434.60 0.6168
434.70 0.6174
434.80 0.6179
434.90 0.6185
435.00 0.6191
435.10 0.6197
435.20 0.6203
435.30 0.6208
435.40 0.6214
435.50 0.622
435.60 0.6226
435.70 0.6232
435.80 0.6237
435.90 0.6243
436.00 0.6249
436.10 0.6255
436.20 0.6261
436.30 0.6266
436.40 0.6272
436.50 0.6278
436.60 0.6284
436.70 0.629
436.80 0.6296
436.90 0.6301
437.00 0.6307
437.10 0.6313
437.20 0.6319
437.30 0.6325
437.40 0.633
437.50 0.6336
437.60 0.6342
437.70 0.6348
437.80 0.6354
437.90 0.636
438.00 0.6365
438.10 0.6371
438.20 0.6377
438.30 0.6383
438.40 0.6389
438.50 0.6395
438.60 0.64
438.70 0.6406
438.80 0.6412
438.90 0.6418
439.00 0.6424
439.10 0.6429
439.20 0.6435
439.30 0.6441
439.40 0.6447
439.50 0.6453
439.60 0.6459
439.70 0.6465
439.80 0.647
439.90 0.6476
440.00 0.6482
440.10 0.6488
440.20 0.6494
440.30 0.65
440.40 0.6505
440.50 0.6511
440.60 0.6517
440.70 0.6523
440.80 0.6529
440.90 0.6535
441.00 0.6541
441.10 0.6546
441.20 0.6552
441.30 0.6558
441.40 0.6564
441.50 0.657
441.60 0.6576
441.70 0.6582
441.80 0.6587
441.90 0.6593
442.00 0.6599
442.10 0.6605
442.20 0.6611
442.30 0.6617
442.40 0.6623
442.50 0.6629
442.60 0.6634
442.70 0.664
442.80 0.6646
442.90 0.6652
443.00 0.6658
443.10 0.6664
443.20 0.667
443.30 0.6675
443.40 0.6681
443.50 0.6687
443.60 0.6693
443.70 0.6699
443.80 0.6705
443.90 0.6711
444.00 0.6717
444.10 0.6723
444.20 0.6728
444.30 0.6734
444.40 0.674
444.50 0.6746
444.60 0.6752
444.70 0.6758
444.80 0.6764
444.90 0.677
445.00 0.6775
445.10 0.6781
445.20 0.6787
445.30 0.6793
445.40 0.6799
445.50 0.6805
445.60 0.6811
445.70 0.6817
445.80 0.6823
445.90 0.6828
446.00 0.6834
446.10 0.684
446.20 0.6846
446.30 0.6852
446.40 0.6858
446.50 0.6864
446.60 0.687
446.70 0.6876
446.80 0.6882
446.90 0.6887
447.00 0.6893
447.10 0.6899
447.20 0.6905
447.30 0.6911
447.40 0.6917
447.50 0.6923
447.60 0.6929
447.70 0.6935
447.80 0.6941
447.90 0.6946
448.00 0.6952
448.10 0.6958
448.20 0.6964
448.30 0.697
448.40 0.6976
448.50 0.6982
448.60 0.6988
448.70 0.6994
448.80 0.7
448.90 0.7006
449.00 0.7011
449.10 0.7017
449.20 0.7023
449.30 0.7029
449.40 0.7035
449.50 0.7041
449.60 0.7047
449.70 0.7053
449.80 0.7059
449.90 0.7065
450.00 0.7071
450.10 0.7077
450.20 0.7082
450.30 0.7088
450.40 0.7094
450.50 0.71
450.60 0.7106
450.70 0.7112
450.80 0.7118
450.90 0.7124
451.00 0.713
451.10 0.7135
451.20 0.7142
451.30 0.7148
451.40 0.7154
451.50 0.7159
451.60 0.7165
451.70 0.7171
451.80 0.7177
451.90 0.7183
452.00 0.7189
452.10 0.7195
452.20 0.7201
452.30 0.7207
452.40 0.7213
452.50 0.7219
452.60 0.7225
452.70 0.7231
452.80 0.7236
452.90 0.7242
453.00 0.7248
453.10 0.7254
453.20 0.726
453.30 0.7266
453.40 0.7272
453.50 0.7278
453.60 0.7284
453.70 0.729
453.80 0.7296
453.90 0.7302
454.00 0.7308
454.10 0.7314
454.20 0.732
454.30 0.7326
454.40 0.7332
454.50 0.7338
454.60 0.7344
454.70 0.735
454.80 0.7355
454.90 0.7361
455.00 0.7367
455.10 0.7373
455.20 0.7379
455.30 0.7385
455.40 0.7391
455.50 0.7397
455.60 0.7403
455.70 0.7409
455.80 0.7415
455.90 0.742
456.00 0.7426
456.10 0.7432
456.20 0.7438
456.30 0.7444
456.40 0.745
456.50 0.7456
456.60 0.7462
456.70 0.7468
456.80 0.7474
456.90 0.748
457.00 0.7486
457.10 0.7492
457.20 0.7498
457.30 0.7504
457.40 0.751
457.50 0.7516
457.60 0.7522
457.70 0.7528
457.80 0.7534
457.90 0.754
458.00 0.7546
458.10 0.7551
458.20 0.7557
458.30 0.7563
458.40 0.7569
458.50 0.7575
458.60 0.7581
458.70 0.7587
458.80 0.7593
458.90 0.7599
459.00 0.7605
459.10 0.7611
459.20 0.7617
459.30 0.7623
459.40 0.7629
459.50 0.7635
459.60 0.764
459.70 0.7646
459.80 0.7652
459.90 0.7658
460.00 0.7664
460.10 0.767
460.20 0.7676
460.30 0.7682
460.40 0.7688
460.50 0.7694
460.60 0.77
460.70 0.7706
460.80 0.7712
460.90 0.7718
461.00 0.7724
461.10 0.773
461.20 0.7736
461.30 0.7742
461.40 0.7748
461.50 0.7754
461.60 0.776
461.70 0.7766
461.80 0.7772
461.90 0.7778
462.00 0.7784
462.10 0.779
462.20 0.7796
462.30 0.7802
462.40 0.7808
462.50 0.7813
462.60 0.7819
462.70 0.7825
462.80 0.7831
462.90 0.7837
463.00 0.7843
463.10 0.7849
463.20 0.7855
463.30 0.7861
463.40 0.7867
463.50 0.7873
463.60 0.7879
463.70 0.7885
463.80 0.7891
463.90 0.7896
464.00 0.7902
464.10 0.7908
464.20 0.7914
464.30 0.792
464.40 0.7926
464.50 0.7932
464.60 0.7938
464.70 0.7944
464.80 0.795
464.90 0.7956
465.00 0.7962
465.10 0.7968
465.20 0.7974
465.30 0.798
465.40 0.7986
465.50 0.7992
465.60 0.7998
465.70 0.8004
465.80 0.8009
465.90 0.8015
466.00 0.8021
466.10 0.8027
466.20 0.8033
466.30 0.8039
466.40 0.8045
466.50 0.8051
466.60 0.8057
466.70 0.8063
466.80 0.8069
466.90 0.8075
467.00 0.8081
467.10 0.8087
467.20 0.8093
467.30 0.8099
467.40 0.8105
467.50 0.8111
467.60 0.8117
467.70 0.8122
467.80 0.8128
467.90 0.8134
468.00 0.814
468.10 0.8146
468.20 0.8152
468.30 0.8158
468.40 0.8164
468.50 0.817
468.60 0.8176
468.70 0.8182
468.80 0.8188
468.90 0.8194
469.00 0.82
469.10 0.8206
469.20 0.8212
469.30 0.8218
469.40 0.8224
469.50 0.823
469.60 0.8235
469.70 0.8241
469.80 0.8247
469.90 0.8253
470.00 0.8259
470.10 0.8265
470.20 0.8271
470.30 0.8277
470.40 0.8283
470.50 0.8289
470.60 0.8295
470.70 0.8301
470.80 0.8307
470.90 0.8312
471.00 0.8318
471.10 0.8324
471.20 0.833
471.30 0.8336
471.40 0.8342
471.50 0.8348
471.60 0.8354
471.70 0.836
471.80 0.8366
471.90 0.8372
472.00 0.8378
472.10 0.8384
472.20 0.8389
472.30 0.8395
472.40 0.8401
472.50 0.8407
472.60 0.8413
472.70 0.8419
472.80 0.8425
472.90 0.8431
473.00 0.8437
473.10 0.8443
473.20 0.8449
473.30 0.8455
473.40 0.8461
473.50 0.8467
473.60 0.8473
473.70 0.8479
473.80 0.8485
473.90 0.8491
474.00 0.8496
474.10 0.8502
474.20 0.8508
474.30 0.8514
474.40 0.852
474.50 0.8526
474.60 0.8532
474.70 0.8538
474.80 0.8544
474.90 0.855
475.00 0.8555
475.10 0.8561
475.20 0.8567
475.30 0.8573
475.40 0.8579
475.50 0.8585
475.60 0.8591
475.70 0.8597
475.80 0.8603
475.90 0.8609
476.00 0.8614
476.10 0.862
476.20 0.8626
476.30 0.8632
476.40 0.8638
476.50 0.8644
476.60 0.865
476.70 0.8656
476.80 0.8662
476.90 0.8668
477.00 0.8673
477.10 0.8679
477.20 0.8685
477.30 0.8691
477.40 0.8697
477.50 0.8703
477.60 0.8709
477.70 0.8715
477.80 0.8721
477.90 0.8727
478.00 0.8732
478.10 0.8738
478.20 0.8744
478.30 0.875
478.40 0.8756
478.50 0.8762
478.60 0.8768
478.70 0.8774
478.80 0.878
478.90 0.8786
479.00 0.8792
479.10 0.8798
479.20 0.8803
479.30 0.8809
479.40 0.8815
479.50 0.8821
479.60 0.8827
479.70 0.8833
479.80 0.8839
479.90 0.8845
480.00 0.885
480.10 0.8856
480.20 0.8862
480.30 0.8868
480.40 0.8874
480.50 0.888
480.60 0.8886
480.70 0.8891
480.80 0.8897
480.90 0.8903
481.00 0.8909
481.10 0.8915
481.20 0.8921
481.30 0.8927
481.40 0.8932
481.50 0.8938
481.60 0.8944
481.70 0.895
481.80 0.8956
481.90 0.8962
482.00 0.8968
482.10 0.8973
482.20 0.8979
482.30 0.8985
482.40 0.8991
482.50 0.8997
482.60 0.9003
482.70 0.9009
482.80 0.9015
482.90 0.9021
483.00 0.9026
483.10 0.9032
483.20 0.9038
483.30 0.9044
483.40 0.905
483.50 0.9056
483.60 0.9061
483.70 0.9067
483.80 0.9073
483.90 0.9079
484.00 0.9085
484.10 0.909
484.20 0.9096
484.30 0.9102
484.40 0.9108
484.50 0.9114
484.60 0.912
484.70 0.9125
484.80 0.9131
484.90 0.9137
485.00 0.9143
485.10 0.9149
485.20 0.9154
485.30 0.916
485.40 0.9166
485.50 0.9172
485.60 0.9178
485.70 0.9184
485.80 0.9189
485.90 0.9195
486.00 0.9201
486.10 0.9207
486.20 0.9213
486.30 0.9219
486.40 0.9224
486.50 0.923
486.60 0.9236
486.70 0.9242
486.80 0.9248
486.90 0.9253
487.00 0.9259
487.10 0.9265
487.20 0.9271
487.30 0.9276
487.40 0.9282
487.50 0.9288
487.60 0.9294
487.70 0.93
487.80 0.9306
487.90 0.9311
488.00 0.9317
488.10 0.9323
488.20 0.9329
488.30 0.9335
488.40 0.934
488.50 0.9346
488.60 0.9352
488.70 0.9358
488.80 0.9363
488.90 0.9369
489.00 0.9375
489.10 0.938
489.20 0.9386
489.30 0.9392
489.40 0.9398
489.50 0.9404
489.60 0.9409
489.70 0.9415
489.80 0.9421
489.90 0.9427
490.00 0.9433
490.10 0.9438
490.20 0.9444
490.30 0.945
490.40 0.9456
490.50 0.9461
490.60 0.9467
490.70 0.9473
490.80 0.9479
490.90 0.9484
491.00 0.949
491.10 0.9496
491.20 0.9502
491.30 0.9507
491.40 0.9513
491.50 0.9519
491.60 0.9525
491.70 0.953
491.80 0.9536
491.90 0.9542
492.00 0.9548
492.10 0.9553
492.20 0.9559
492.30 0.9565
492.40 0.9571
492.50 0.9576
492.60 0.9582
492.70 0.9588
492.80 0.9594
492.90 0.9599
493.00 0.9605
493.10 0.9611
493.20 0.9616
493.30 0.9622
493.40 0.9628
493.50 0.9633
493.60 0.9639
493.70 0.9645
493.80 0.9651
493.90 0.9656
494.00 0.9662
494.10 0.9668
494.20 0.9673
494.30 0.9679
494.40 0.9685
494.50 0.969
494.60 0.9696
494.70 0.9702
494.80 0.9707
494.90 0.9713
495.00 0.9718
495.10 0.9724
495.20 0.973
495.30 0.9735
495.40 0.9741
495.50 0.9747
495.60 0.9753
495.70 0.9758
495.80 0.9764
495.90 0.977
496.00 0.9775
496.10 0.9781
496.20 0.9787
496.30 0.9792
496.40 0.9798
496.50 0.9804
496.60 0.9809
496.70 0.9815
496.80 0.9821
496.90 0.9826
497.00 0.9832
497.10 0.9838
497.20 0.9843
497.30 0.9849
497.40 0.9854
497.50 0.986
497.60 0.9866
497.70 0.9871
497.80 0.9877
497.90 0.9882
498.00 0.9888
498.10 0.9894
498.20 0.9899
498.30 0.9905
498.40 0.991
498.50 0.9916
498.60 0.9922
498.70 0.9927
498.80 0.9933
498.90 0.9938
499.00 0.9944
499.10 0.995
499.20 0.9955
499.30 0.9961
499.40 0.9966
499.50 0.9972
499.60 0.9978
499.70 0.9983
499.80 0.9989
499.90 0.9994
500.00 1
500.10 1.001
500.20 1.001
500.30 1.002
500.40 1.002
500.50 1.003
500.60 1.003
500.70 1.004
500.80 1.004
500.90 1.005
501.00 1.006
501.10 1.006
501.20 1.007
501.30 1.007
501.40 1.008
501.50 1.008
501.60 1.009
501.70 1.009
501.80 1.01
501.90 1.011
502.00 1.011
502.10 1.012
502.20 1.012
502.30 1.013
502.40 1.013
502.50 1.014
502.60 1.014
502.70 1.015
502.80 1.016
502.90 1.016
503.00 1.017
503.10 1.017
503.20 1.018
503.30 1.018
503.40 1.019
503.50 1.019
503.60 1.02
503.70 1.02
503.80 1.021
503.90 1.021
504.00 1.022
504.10 1.023
504.20 1.023
504.30 1.024
504.40 1.024
504.50 1.025
504.60 1.025
504.70 1.026
504.80 1.026
504.90 1.027
505.00 1.027
505.10 1.028
505.20 1.028
505.30 1.029
505.40 1.03
505.50 1.03
505.60 1.031
505.70 1.031
505.80 1.032
505.90 1.032
506.00 1.033
506.10 1.033
506.20 1.034
506.30 1.034
506.40 1.035
506.50 1.035
506.60 1.036
506.70 1.036
506.80 1.037
506.90 1.038
507.00 1.038
507.10 1.039
507.20 1.039
507.30 1.04
507.40 1.04
507.50 1.041
507.60 1.041
507.70 1.042
507.80 1.042
507.90 1.043
508.00 1.043
508.10 1.044
508.20 1.044
508.30 1.045
508.40 1.045
508.50 1.046
508.60 1.047
508.70 1.047
508.80 1.048
508.90 1.048
509.00 1.049
509.10 1.049
509.20 1.05
509.30 1.05
509.40 1.051
509.50 1.051
509.60 1.052
509.70 1.052
509.80 1.053
509.90 1.053
510.00 1.054
510.10 1.055
510.20 1.055
510.30 1.056
510.40 1.056
510.50 1.057
510.60 1.057
510.70 1.058
510.80 1.058
510.90 1.059
511.00 1.059
511.10 1.06
511.20 1.06
511.30 1.061
511.40 1.061
511.50 1.062
511.60 1.062
511.70 1.063
511.80 1.064
511.90 1.064
512.00 1.065
512.10 1.065
512.20 1.066
512.30 1.066
512.40 1.067
512.50 1.067
512.60 1.068
512.70 1.068
512.80 1.069
512.90 1.069
513.00 1.07
513.10 1.07
513.20 1.071
513.30 1.071
513.40 1.072
513.50 1.072
513.60 1.073
513.70 1.073
513.80 1.074
513.90 1.075
514.00 1.075
514.10 1.076
514.20 1.076
514.30 1.077
514.40 1.077
514.50 1.078
514.60 1.078
514.70 1.079
514.80 1.079
514.90 1.08
515.00 1.08
515.10 1.081
515.20 1.081
515.30 1.082
515.40 1.082
515.50 1.083
515.60 1.083
515.70 1.084
515.80 1.084
515.90 1.085
516.00 1.085
516.10 1.086
516.20 1.086
516.30 1.087
516.40 1.087
516.50 1.088
516.60 1.088
516.70 1.089
516.80 1.089
516.90 1.09
517.00 1.09
517.10 1.091
517.20 1.091
517.30 1.092
517.40 1.092
517.50 1.093
517.60 1.093
517.70 1.094
517.80 1.094
517.90 1.095
518.00 1.095
518.10 1.096
518.20 1.096
518.30 1.097
518.40 1.097
518.50 1.098
518.60 1.098
518.70 1.099
518.80 1.099
518.90 1.1
519.00 1.1
519.10 1.101
519.20 1.101
519.30 1.102
519.40 1.102
519.50 1.103
519.60 1.103
519.70 1.104
519.80 1.104
519.90 1.105
520.00 1.105
520.10 1.106
520.20 1.106
520.30 1.107
520.40 1.107
520.50 1.108
520.60 1.108
520.70 1.109
520.80 1.109
520.90 1.11
521.00 1.11
521.10 1.111
521.20 1.111
521.30 1.112
521.40 1.112
521.50 1.113
521.60 1.113
521.70 1.114
521.80 1.114
521.90 1.115
522.00 1.115
522.10 1.115
522.20 1.116
522.30 1.116
522.40 1.117
522.50 1.117
522.60 1.118
522.70 1.118
522.80 1.119
522.90 1.119
523.00 1.12
523.10 1.12
523.20 1.121
523.30 1.121
523.40 1.122
523.50 1.122
523.60 1.123
523.70 1.123
523.80 1.124
523.90 1.124
524.00 1.125
524.10 1.125
524.20 1.126
524.30 1.126
524.40 1.126
524.50 1.127
524.60 1.127
524.70 1.128
524.80 1.128
524.90 1.129
525.00 1.129
525.10 1.13
525.20 1.13
525.30 1.131
525.40 1.131
525.50 1.132
525.60 1.132
525.70 1.133
525.80 1.133
525.90 1.134
526.00 1.134
526.10 1.134
526.20 1.135
526.30 1.135
526.40 1.136
526.50 1.136
526.60 1.137
526.70 1.137
526.80 1.138
526.90 1.138
527.00 1.139
527.10 1.139
527.20 1.14
527.30 1.14
527.40 1.14
527.50 1.141
527.60 1.141
527.70 1.142
527.80 1.142
527.90 1.143
528.00 1.143
528.10 1.144
528.20 1.144
528.30 1.144
528.40 1.145
528.50 1.145
528.60 1.146
528.70 1.146
528.80 1.147
528.90 1.147
529.00 1.148
529.10 1.148
529.20 1.149
529.30 1.149
529.40 1.149
529.50 1.15
529.60 1.15
529.70 1.151
529.80 1.151
529.90 1.152
530.00 1.152
530.10 1.152
530.20 1.153
530.30 1.153
530.40 1.154
530.50 1.154
530.60 1.155
530.70 1.155
530.80 1.156
530.90 1.156
531.00 1.156
531.10 1.157
531.20 1.157
531.30 1.158
531.40 1.158
531.50 1.159
531.60 1.159
531.70 1.159
531.80 1.16
531.90 1.16
532.00 1.161
532.10 1.161
532.20 1.162
532.30 1.162
532.40 1.162
532.50 1.163
532.60 1.163
532.70 1.164
532.80 1.164
532.90 1.165
533.00 1.165
533.10 1.165
533.20 1.166
533.30 1.166
533.40 1.167
533.50 1.167
533.60 1.168
533.70 1.168
533.80 1.168
533.90 1.169
534.00 1.169
534.10 1.17
534.20 1.17
534.30 1.17
534.40 1.171
534.50 1.171
534.60 1.172
534.70 1.172
534.80 1.172
534.90 1.173
535.00 1.173
535.10 1.174
535.20 1.174
535.30 1.175
535.40 1.175
535.50 1.175
535.60 1.176
535.70 1.176
535.80 1.177
535.90 1.177
536.00 1.177
536.10 1.178
536.20 1.178
536.30 1.179
536.40 1.179
536.50 1.179
536.60 1.18
536.70 1.18
536.80 1.181
536.90 1.181
537.00 1.181
537.10 1.182
537.20 1.182
537.30 1.182
537.40 1.183
537.50 1.183
537.60 1.184
537.70 1.184
537.80 1.184
537.90 1.185
538.00 1.185
538.10 1.186
538.20 1.186
538.30 1.186
538.40 1.187
538.50 1.187
538.60 1.187
538.70 1.188
538.80 1.188
538.90 1.189
539.00 1.189
539.10 1.189
539.20 1.19
539.30 1.19
539.40 1.19
539.50 1.191
539.60 1.191
539.70 1.192
539.80 1.192
539.90 1.192
540.00 1.193
540.10 1.193
540.20 1.193
540.30 1.194
540.40 1.194
540.50 1.195
540.60 1.195
540.70 1.195
540.80 1.196
540.90 1.196
541.00 1.196
541.10 1.197
541.20 1.197
541.30 1.197
541.40 1.198
541.50 1.198
541.60 1.198
541.70 1.199
541.80 1.199
541.90 1.2
542.00 1.2
542.10 1.2
542.20 1.201
542.30 1.201
542.40 1.201
542.50 1.202
542.60 1.202
542.70 1.202
542.80 1.203
542.90 1.203
543.00 1.203
543.10 1.204
543.20 1.204
543.30 1.204
543.40 1.205
543.50 1.205
543.60 1.205
543.70 1.206
543.80 1.206
543.90 1.206
544.00 1.207
544.10 1.207
544.20 1.207
544.30 1.208
544.40 1.208
544.50 1.208
544.60 1.209
544.70 1.209
544.80 1.209
544.90 1.21
545.00 1.21
545.10 1.21
545.20 1.211
545.30 1.211
545.40 1.211
545.50 1.212
545.60 1.212
545.70 1.212
545.80 1.212
545.90 1.213
546.00 1.213
546.10 1.213
546.20 1.214
546.30 1.214
546.40 1.214
546.50 1.215
546.60 1.215
546.70 1.215
546.80 1.216
546.90 1.216
547.00 1.216
547.10 1.216
547.20 1.217
547.30 1.217
547.40 1.217
547.50 1.218
547.60 1.218
547.70 1.218
547.80 1.219
547.90 1.219
548.00 1.219
548.10 1.22
548.20 1.22
548.30 1.22
548.40 1.22
548.50 1.221
548.60 1.221
548.70 1.221
548.80 1.222
548.90 1.222
549.00 1.222
549.10 1.222
549.20 1.223
549.30 1.223
549.40 1.223
549.50 1.224
549.60 1.224
549.70 1.224
549.80 1.224
549.90 1.225
550.00 1.225
550.10 1.225
550.20 1.225
550.30 1.226
550.40 1.226
550.50 1.226
550.60 1.226
550.70 1.227
550.80 1.227
550.90 1.227
551.00 1.228
551.10 1.228
551.20 1.228
551.30 1.228
551.40 1.229
551.50 1.229
551.60 1.229
551.70 1.229
551.80 1.23
551.90 1.23
552.00 1.23
552.10 1.23
552.20 1.231
552.30 1.231
552.40 1.231
552.50 1.231
552.60 1.232
552.70 1.232
552.80 1.232
552.90 1.232
553.00 1.233
553.10 1.233
553.20 1.233
553.30 1.233
553.40 1.233
553.50 1.234
553.60 1.234
553.70 1.234
553.80 1.234
553.90 1.234
554.00 1.235
554.10 1.235
554.20 1.235
554.30 1.235
554.40 1.236
554.50 1.236
554.60 1.236
554.70 1.236
554.80 1.236
554.90 1.237
555.00 1.237
555.10 1.237
555.20 1.237
555.30 1.237
555.40 1.238
555.50 1.238
555.60 1.238
555.70 1.238
555.80 1.238
555.90 1.239
556.00 1.239
556.10 1.239
556.20 1.239
556.30 1.239
556.40 1.24
556.50 1.24
556.60 1.24
556.70 1.24
556.80 1.24
556.90 1.24
557.00 1.241
557.10 1.241
557.20 1.241
557.30 1.241
557.40 1.241
557.50 1.241
557.60 1.242
557.70 1.242
557.80 1.242
557.90 1.242
558.00 1.242
558.10 1.243
558.20 1.243
558.30 1.243
558.40 1.243
558.50 1.243
558.60 1.243
558.70 1.243
558.80 1.244
558.90 1.244
559.00 1.244
559.10 1.244
559.20 1.244
559.30 1.244
559.40 1.245
559.50 1.245
559.60 1.245
559.70 1.245
559.80 1.245
559.90 1.245
560.00 1.246
560.10 1.246
560.20 1.246
560.30 1.246
560.40 1.246
560.50 1.246
560.60 1.246
560.70 1.247
560.80 1.247
560.90 1.247
561.00 1.247
561.10 1.247
561.20 1.247
561.30 1.247
561.40 1.248
561.50 1.248
561.60 1.248
561.70 1.248
561.80 1.248
561.90 1.248
562.00 1.248
562.10 1.248
562.20 1.249
562.30 1.249
562.40 1.249
562.50 1.249
562.60 1.249
562.70 1.249
562.80 1.249
562.90 1.249
563.00 1.25
563.10 1.25
563.20 1.25
563.30 1.25
563.40 1.25
563.50 1.25
563.60 1.25
563.70 1.25
563.80 1.25
563.90 1.25
564.00 1.251
564.10 1.251
564.20 1.251
564.30 1.251
564.40 1.251
564.50 1.251
564.60 1.251
564.70 1.251
564.80 1.251
564.90 1.251
565.00 1.251
565.10 1.252
565.20 1.252
565.30 1.252
565.40 1.252
565.50 1.252
565.60 1.252
565.70 1.252
565.80 1.252
565.90 1.252
566.00 1.252
566.10 1.252
566.20 1.252
566.30 1.252
566.40 1.252
566.50 1.252
566.60 1.252
566.70 1.252
566.80 1.253
566.90 1.253
567.00 1.253
567.10 1.253
567.20 1.253
567.30 1.253
567.40 1.253
567.50 1.253
567.60 1.253
567.70 1.253
567.80 1.253
567.90 1.253
568.00 1.253
568.10 1.253
568.20 1.253
568.30 1.253
568.40 1.253
568.50 1.253
568.60 1.253
568.70 1.253
568.80 1.253
568.90 1.253
569.00 1.253
569.10 1.253
569.20 1.253
569.30 1.253
569.40 1.253
569.50 1.253
569.60 1.253
569.70 1.253
569.80 1.253
569.90 1.253
570.00 1.253
570.10 1.253
570.20 1.253
570.30 1.253
570.40 1.253
570.50 1.253
570.60 1.253
570.70 1.253
570.80 1.253
570.90 1.253
571.00 1.253
571.10 1.253
571.20 1.253
571.30 1.253
571.40 1.252
571.50 1.252
571.60 1.252
571.70 1.252
571.80 1.252
571.90 1.252
572.00 1.252
572.10 1.252
572.20 1.252
572.30 1.252
572.40 1.252
572.50 1.252
572.60 1.252
572.70 1.252
572.80 1.252
572.90 1.252
573.00 1.252
573.10 1.252
573.20 1.252
573.30 1.251
573.40 1.251
573.50 1.251
573.60 1.251
573.70 1.251
573.80 1.251
573.90 1.251
574.00 1.251
574.10 1.251
574.20 1.251
574.30 1.251
574.40 1.251
574.50 1.251
574.60 1.25
574.70 1.25
574.80 1.25
574.90 1.25
575.00 1.25
575.10 1.25
575.20 1.25
575.30 1.25
575.40 1.25
575.50 1.25
575.60 1.25
575.70 1.249
575.80 1.249
575.90 1.249
576.00 1.249
576.10 1.249
576.20 1.249
576.30 1.249
576.40 1.249
576.50 1.249
576.60 1.248
576.70 1.248
576.80 1.248
576.90 1.248
577.00 1.248
577.10 1.248
577.20 1.248
577.30 1.248
577.40 1.247
577.50 1.247
577.60 1.247
577.70 1.247
577.80 1.247
577.90 1.247
578.00 1.247
578.10 1.247
578.20 1.246
578.30 1.246
578.40 1.246
578.50 1.246
578.60 1.246
578.70 1.246
578.80 1.245
578.90 1.245
579.00 1.245
579.10 1.245
579.20 1.245
579.30 1.245
579.40 1.245
579.50 1.244
579.60 1.244
579.70 1.244
579.80 1.244
579.90 1.244
580.00 1.244
580.10 1.243
580.20 1.243
580.30 1.243
580.40 1.243
580.50 1.243
580.60 1.242
580.70 1.242
580.80 1.242
580.90 1.242
581.00 1.242
581.10 1.241
581.20 1.241
581.30 1.241
581.40 1.241
581.50 1.241
581.60 1.24
581.70 1.24
581.80 1.24
581.90 1.24
582.00 1.24
582.10 1.239
582.20 1.239
582.30 1.239
582.40 1.239
582.50 1.239
582.60 1.238
582.70 1.238
582.80 1.238
582.90 1.238
583.00 1.237
583.10 1.237
583.20 1.237
583.30 1.237
583.40 1.236
583.50 1.236
583.60 1.236
583.70 1.236
583.80 1.235
583.90 1.235
584.00 1.235
584.10 1.235
584.20 1.234
584.30 1.234
584.40 1.234
584.50 1.234
584.60 1.233
584.70 1.233
584.80 1.233
584.90 1.232
585.00 1.232
585.10 1.232
585.20 1.232
585.30 1.231
585.40 1.231
585.50 1.231
585.60 1.23
585.70 1.23
585.80 1.23
585.90 1.23
586.00 1.229
586.10 1.229
586.20 1.229
586.30 1.228
586.40 1.228
586.50 1.228
586.60 1.227
586.70 1.227
586.80 1.227
586.90 1.226
587.00 1.226
587.10 1.226
587.20 1.225
587.30 1.225
587.40 1.225
587.50 1.224
587.60 1.224
587.70 1.224
587.80 1.223
587.90 1.223
588.00 1.222
588.10 1.222
588.20 1.222
588.30 1.221
588.40 1.221
588.50 1.221
588.60 1.22
588.70 1.22
588.80 1.22
588.90 1.219
589.00 1.219
589.10 1.218
589.20 1.218
589.30 1.218
589.40 1.217
589.50 1.217
589.60 1.216
589.70 1.216
589.80 1.216
589.90 1.215
590.00 1.215
590.10 1.214
590.20 1.214
590.30 1.214
590.40 1.213
590.50 1.213
590.60 1.212
590.70 1.212
590.80 1.212
590.90 1.211
591.00 1.211
591.10 1.21
591.20 1.21
591.30 1.21
591.40 1.209
591.50 1.209
591.60 1.208
591.70 1.208
591.80 1.207
591.90 1.207
592.00 1.206
592.10 1.206
592.20 1.206
592.30 1.205
592.40 1.205
592.50 1.204
592.60 1.204
592.70 1.203
592.80 1.203
592.90 1.203
593.00 1.202
593.10 1.202
593.20 1.201
593.30 1.201
593.40 1.2
593.50 1.2
593.60 1.199
593.70 1.199
593.80 1.198
593.90 1.198
594.00 1.197
594.10 1.197
594.20 1.197
594.30 1.196
594.40 1.196
594.50 1.195
594.60 1.195
594.70 1.194
594.80 1.194
594.90 1.193
595.00 1.193
595.10 1.192
595.20 1.192
595.30 1.191
595.40 1.191
595.50 1.19
595.60 1.19
595.70 1.189
595.80 1.189
595.90 1.188
596.00 1.188
596.10 1.187
596.20 1.187
596.30 1.186
596.40 1.186
596.50 1.185
596.60 1.185
596.70 1.184
596.80 1.184
596.90 1.183
597.00 1.183
597.10 1.182
597.20 1.182
597.30 1.181
597.40 1.181
597.50 1.18
597.60 1.18
597.70 1.179
597.80 1.178
597.90 1.178
598.00 1.177
598.10 1.177
598.20 1.176
598.30 1.176
598.40 1.175
598.50 1.175
598.60 1.174
598.70 1.174
598.80 1.173
598.90 1.172
599.00 1.172
599.10 1.171
599.20 1.171
599.30 1.17
599.40 1.17
599.50 1.169
599.60 1.168
599.70 1.168
599.80 1.167
599.90 1.167
600.00 1.166
600.10 1.166
600.20 1.165
600.30 1.164
600.40 1.164
600.50 1.163
600.60 1.163
600.70 1.162
600.80 1.161
600.90 1.161
601.00 1.16
601.10 1.16
601.20 1.159
601.30 1.158
601.40 1.158
601.50 1.157
601.60 1.157
601.70 1.156
601.80 1.155
601.90 1.155
602.00 1.154
602.10 1.153
602.20 1.153
602.30 1.152
602.40 1.152
602.50 1.151
602.60 1.15
602.70 1.15
602.80 1.149
602.90 1.148
603.00 1.148
603.10 1.147
603.20 1.146
603.30 1.146
603.40 1.145
603.50 1.144
603.60 1.144
603.70 1.143
603.80 1.143
603.90 1.142
604.00 1.141
604.10 1.141
604.20 1.14
604.30 1.139
604.40 1.139
604.50 1.138
604.60 1.137
604.70 1.137
604.80 1.136
604.90 1.135
605.00 1.135
605.10 1.134
605.20 1.133
605.30 1.132
605.40 1.132
605.50 1.131
605.60 1.13
605.70 1.13
605.80 1.129
605.90 1.128
606.00 1.128
606.10 1.127
606.20 1.126
606.30 1.125
606.40 1.125
606.50 1.124
606.60 1.123
606.70 1.123
606.80 1.122
606.90 1.121
607.00 1.121
607.10 1.12
607.20 1.119
607.30 1.118
607.40 1.118
607.50 1.117
607.60 1.116
607.70 1.115
607.80 1.115
607.90 1.114
608.00 1.113
608.10 1.113
608.20 1.112
608.30 1.111
608.40 1.11
608.50 1.11
608.60 1.109
608.70 1.108
608.80 1.107
608.90 1.107
609.00 1.106
609.10 1.105
609.20 1.104
609.30 1.104
609.40 1.103
609.50 1.102
609.60 1.101
609.70 1.1
609.80 1.1
609.90 1.099
610.00 1.098
610.10 1.097
610.20 1.097
610.30 1.096
610.40 1.095
610.50 1.094
610.60 1.094
610.70 1.093
610.80 1.092
610.90 1.091
611.00 1.09
611.10 1.09
611.20 1.089
611.30 1.088
611.40 1.087
611.50 1.086
611.60 1.086
611.70 1.085
611.80 1.084
611.90 1.083
612.00 1.082
612.10 1.082
612.20 1.081
612.30 1.08
612.40 1.079
612.50 1.078
612.60 1.078
612.70 1.077
612.80 1.076
612.90 1.075
613.00 1.074
613.10 1.073
613.20 1.073
613.30 1.072
613.40 1.071
613.50 1.07
613.60 1.069
613.70 1.068
613.80 1.068
613.90 1.067
614.00 1.066
614.10 1.065
614.20 1.064
614.30 1.063
614.40 1.063
614.50 1.062
614.60 1.061
614.70 1.06
614.80 1.059
614.90 1.058
615.00 1.057
615.10 1.057
615.20 1.056
615.30 1.055
615.40 1.054
615.50 1.053
615.60 1.052
615.70 1.051
615.80 1.05
615.90 1.049
616.00 1.049
616.10 1.048
616.20 1.047
616.30 1.046
616.40 1.045
616.50 1.044
616.60 1.043
616.70 1.042
616.80 1.041
616.90 1.041
617.00 1.04
617.10 1.039
617.20 1.038
617.30 1.037
617.40 1.036
617.50 1.035
617.60 1.034
617.70 1.033
617.80 1.033
617.90 1.032
618.00 1.031
618.10 1.03
618.20 1.029
618.30 1.028
618.40 1.027
618.50 1.026
618.60 1.025
618.70 1.024
618.80 1.023
618.90 1.022
619.00 1.022
619.10 1.021
619.20 1.02
619.30 1.019
619.40 1.018
619.50 1.017
619.60 1.016
619.70 1.015
619.80 1.014
619.90 1.013
620.00 1.012
620.10 1.011
620.20 1.01
620.30 1.009
620.40 1.009
620.50 1.008
620.60 1.007
620.70 1.006
620.80 1.005
620.90 1.004
621.00 1.003
621.10 1.002
621.20 1.001
621.30 1
621.40 0.9992
621.50 0.9983
621.60 0.9973
621.70 0.9964
621.80 0.9954
621.90 0.9945
622.00 0.9936
622.10 0.9926
622.20 0.9917
622.30 0.9908
622.40 0.9898
622.50 0.9889
622.60 0.988
622.70 0.987
622.80 0.9861
622.90 0.9852
623.00 0.9842
623.10 0.9833
623.20 0.9823
623.30 0.9814
623.40 0.9804
623.50 0.9795
623.60 0.9785
623.70 0.9776
623.80 0.9766
623.90 0.9757
624.00 0.9747
624.10 0.9738
624.20 0.9728
624.30 0.9718
624.40 0.9709
624.50 0.9699
624.60 0.969
624.70 0.968
624.80 0.967
624.90 0.9661
625.00 0.9651
625.10 0.9642
625.20 0.9632
625.30 0.9622
625.40 0.9612
625.50 0.9603
625.60 0.9593
625.70 0.9583
625.80 0.9574
625.90 0.9564
626.00 0.9554
626.10 0.9545
626.20 0.9535
626.30 0.9525
626.40 0.9515
626.50 0.9505
626.60 0.9495
626.70 0.9486
626.80 0.9476
626.90 0.9466
627.00 0.9456
627.10 0.9446
627.20 0.9436
627.30 0.9427
627.40 0.9417
627.50 0.9407
627.60 0.9397
627.70 0.9387
627.80 0.9377
627.90 0.9367
628.00 0.9358
628.10 0.9348
628.20 0.9338
628.30 0.9328
628.40 0.9318
628.50 0.9308
628.60 0.9298
628.70 0.9289
628.80 0.9279
628.90 0.9269
629.00 0.9259
629.10 0.9249
629.20 0.9239
629.30 0.9229
629.40 0.9219
629.50 0.921
629.60 0.92
629.70 0.919
629.80 0.918
629.90 0.917
630.00 0.916
630.10 0.915
630.20 0.914
630.30 0.913
630.40 0.912
630.50 0.911
630.60 0.9101
630.70 0.9091
630.80 0.9081
630.90 0.9071
631.00 0.9061
631.10 0.9051
631.20 0.9041
631.30 0.9031
631.40 0.9021
631.50 0.9011
631.60 0.9001
631.70 0.8991
631.80 0.8981
631.90 0.8971
632.00 0.8961
632.10 0.8951
632.20 0.8941
632.30 0.8932
632.40 0.8921
632.50 0.8911
632.60 0.8901
632.70 0.8891
632.80 0.8881
632.90 0.8871
633.00 0.8861
633.10 0.8851
633.20 0.8841
633.30 0.8831
633.40 0.8821
633.50 0.8811
633.60 0.8801
633.70 0.8791
633.80 0.8781
633.90 0.8771
634.00 0.8761
634.10 0.8751
634.20 0.8741
634.30 0.8731
634.40 0.8721
634.50 0.8711
634.60 0.8701
634.70 0.8691
634.80 0.868
634.90 0.867
635.00 0.866
635.10 0.865
635.20 0.864
635.30 0.863
635.40 0.862
635.50 0.861
635.60 0.86
635.70 0.859
635.80 0.858
635.90 0.857
636.00 0.856
636.10 0.855
636.20 0.854
636.30 0.853
636.40 0.852
636.50 0.8509
636.60 0.8499
636.70 0.8489
636.80 0.8479
636.90 0.8469
637.00 0.8459
637.10 0.8449
637.20 0.8439
637.30 0.8429
637.40 0.8419
637.50 0.8409
637.60 0.8399
637.70 0.8389
637.80 0.8379
637.90 0.8369
638.00 0.8359
638.10 0.8349
638.20 0.8339
638.30 0.8329
638.40 0.8319
638.50 0.8309
638.60 0.8299
638.70 0.8289
638.80 0.8279
638.90 0.8269
639.00 0.826
639.10 0.825
639.20 0.824
639.30 0.823
639.40 0.822
639.50 0.821
639.60 0.82
639.70 0.819
639.80 0.818
639.90 0.817
640.00 0.816
640.10 0.815
640.20 0.814
640.30 0.813
640.40 0.8119
640.50 0.8109
640.60 0.8099
640.70 0.8089
640.80 0.8079
640.90 0.8069
641.00 0.8059
641.10 0.8049
641.20 0.8039
641.30 0.8029
641.40 0.8019
641.50 0.8008
641.60 0.7998
641.70 0.7988
641.80 0.7978
641.90 0.7968
642.00 0.7958
642.10 0.7948
642.20 0.7938
642.30 0.7927
642.40 0.7917
642.50 0.7907
642.60 0.7896
642.70 0.7886
642.80 0.7876
642.90 0.7865
643.00 0.7855
643.10 0.7845
643.20 0.7834
643.30 0.7824
643.40 0.7814
643.50 0.7804
643.60 0.7794
643.70 0.7783
643.80 0.7773
643.90 0.7763
644.00 0.7753
644.10 0.7743
644.20 0.7733
644.30 0.7723
644.40 0.7713
644.50 0.7703
644.60 0.7693
644.70 0.7683
644.80 0.7673
644.90 0.7662
645.00 0.7652
645.10 0.7642
645.20 0.7632
645.30 0.7622
645.40 0.7612
645.50 0.7602
645.60 0.7592
645.70 0.7582
645.80 0.7572
645.90 0.7562
646.00 0.7552
646.10 0.7542
646.20 0.7532
646.30 0.7522
646.40 0.7512
646.50 0.7502
646.60 0.7492
646.70 0.7483
646.80 0.7473
646.90 0.7463
647.00 0.7453
647.10 0.7443
647.20 0.7433
647.30 0.7424
647.40 0.7414
647.50 0.7404
647.60 0.7394
647.70 0.7384
647.80 0.7374
647.90 0.7364
648.00 0.7354
648.10 0.7345
648.20 0.7335
648.30 0.7325
648.40 0.7315
648.50 0.7305
648.60 0.7295
648.70 0.7285
648.80 0.7275
648.90 0.7266
649.00 0.7256
649.10 0.7246
649.20 0.7236
649.30 0.7226
649.40 0.7216
649.50 0.7207
649.60 0.7197
649.70 0.7187
649.80 0.7177
649.90 0.7167
650.00 0.7157
650.10 0.7148
650.20 0.7138
650.30 0.7128
650.40 0.7118
650.50 0.7108
650.60 0.7098
650.70 0.7089
650.80 0.7079
650.90 0.7069
651.00 0.7059
651.10 0.7049
651.20 0.704
651.30 0.703
651.40 0.702
651.50 0.701
651.60 0.7
651.70 0.6991
651.80 0.6981
651.90 0.6971
652.00 0.6961
652.10 0.6951
652.20 0.6942
652.30 0.6932
652.40 0.6922
652.50 0.6912
652.60 0.6903
652.70 0.6893
652.80 0.6883
652.90 0.6874
653.00 0.6864
653.10 0.6854
653.20 0.6845
653.30 0.6835
653.40 0.6825
653.50 0.6816
653.60 0.6806
653.70 0.6796
653.80 0.6786
653.90 0.6777
654.00 0.6767
654.10 0.6757
654.20 0.6748
654.30 0.6738
654.40 0.6728
654.50 0.6719
654.60 0.6709
654.70 0.6699
654.80 0.669
654.90 0.668
655.00 0.6671
655.10 0.6661
655.20 0.6651
655.30 0.6642
655.40 0.6632
655.50 0.6622
655.60 0.6613
655.70 0.6603
655.80 0.6594
655.90 0.6584
656.00 0.6575
656.10 0.6565
656.20 0.6556
656.30 0.6546
656.40 0.6536
656.50 0.6527
656.60 0.6517
656.70 0.6508
656.80 0.6498
656.90 0.6489
657.00 0.6479
657.10 0.647
657.20 0.646
657.30 0.6451
657.40 0.6441
657.50 0.6432
657.60 0.6422
657.70 0.6413
657.80 0.6403
657.90 0.6394
658.00 0.6384
658.10 0.6375
658.20 0.6365
658.30 0.6356
658.40 0.6346
658.50 0.6337
658.60 0.6327
658.70 0.6318
658.80 0.6308
658.90 0.6299
659.00 0.629
659.10 0.628
659.20 0.6271
659.30 0.6261
659.40 0.6252
659.50 0.6243
659.60 0.6233
659.70 0.6224
659.80 0.6215
659.90 0.6205
660.00 0.6196
660.10 0.6187
660.20 0.6177
660.30 0.6168
660.40 0.6158
660.50 0.6149
660.60 0.614
660.70 0.613
660.80 0.6121
660.90 0.6112
661.00 0.6102
661.10 0.6093
661.20 0.6084
661.30 0.6074
661.40 0.6065
661.50 0.6056
661.60 0.6046
661.70 0.6037
661.80 0.6028
661.90 0.6018
662.00 0.6009
662.10 0.6
662.20 0.5991
662.30 0.5981
662.40 0.5972
662.50 0.5963
662.60 0.5953
662.70 0.5944
662.80 0.5935
662.90 0.5925
663.00 0.5916
663.10 0.5907
663.20 0.5898
663.30 0.5888
663.40 0.5879
663.50 0.587
663.60 0.5861
663.70 0.5852
663.80 0.5842
663.90 0.5833
664.00 0.5824
664.10 0.5815
664.20 0.5806
664.30 0.5796
664.40 0.5787
664.50 0.5778
664.60 0.5769
664.70 0.576
664.80 0.575
664.90 0.5741
665.00 0.5732
665.10 0.5723
665.20 0.5714
665.30 0.5705
665.40 0.5695
665.50 0.5686
665.60 0.5677
665.70 0.5668
665.80 0.5659
665.90 0.565
666.00 0.5641
666.10 0.5632
666.20 0.5622
666.30 0.5613
666.40 0.5604
666.50 0.5595
666.60 0.5586
666.70 0.5577
666.80 0.5568
666.90 0.5559
667.00 0.555
667.10 0.5541
667.20 0.5532
667.30 0.5523
667.40 0.5514
667.50 0.5505
667.60 0.5495
667.70 0.5486
667.80 0.5477
667.90 0.5468
668.00 0.5459
668.10 0.545
668.20 0.5441
668.30 0.5432
668.40 0.5423
668.50 0.5414
668.60 0.5405
668.70 0.5396
668.80 0.5387
668.90 0.5379
669.00 0.537
669.10 0.5361
669.20 0.5352
669.30 0.5343
669.40 0.5334
669.50 0.5325
669.60 0.5316
669.70 0.5307
669.80 0.5298
669.90 0.5289
670.00 0.528
670.10 0.5271
670.20 0.5262
670.30 0.5253
670.40 0.5244
670.50 0.5235
670.60 0.5227
670.70 0.5218
670.80 0.5209
670.90 0.52
671.00 0.5191
671.10 0.5182
671.20 0.5173
671.30 0.5164
671.40 0.5156
671.50 0.5147
671.60 0.5138
671.70 0.5129
671.80 0.512
671.90 0.5111
672.00 0.5102
672.10 0.5094
672.20 0.5085
672.30 0.5076
672.40 0.5067
672.50 0.5058
672.60 0.505
672.70 0.5041
672.80 0.5032
672.90 0.5023
673.00 0.5015
673.10 0.5006
673.20 0.4997
673.30 0.4988
673.40 0.498
673.50 0.4971
673.60 0.4962
673.70 0.4953
673.80 0.4945
673.90 0.4936
674.00 0.4927
674.10 0.4919
674.20 0.491
674.30 0.4901
674.40 0.4892
674.50 0.4884
674.60 0.4875
674.70 0.4866
674.80 0.4858
674.90 0.4849
675.00 0.484
675.10 0.4832
675.20 0.4823
675.30 0.4814
675.40 0.4806
675.50 0.4797
675.60 0.4789
675.70 0.478
675.80 0.4771
675.90 0.4763
676.00 0.4754
676.10 0.4746
676.20 0.4737
676.30 0.4729
676.40 0.472
676.50 0.4711
676.60 0.4703
676.70 0.4694
676.80 0.4686
676.90 0.4677
677.00 0.4669
677.10 0.466
677.20 0.4652
677.30 0.4643
677.40 0.4635
677.50 0.4626
677.60 0.4618
677.70 0.4609
677.80 0.4601
677.90 0.4593
678.00 0.4584
678.10 0.4576
678.20 0.4567
678.30 0.4559
678.40 0.455
678.50 0.4542
678.60 0.4534
678.70 0.4525
678.80 0.4517
678.90 0.4508
679.00 0.45
679.10 0.4492
679.20 0.4483
679.30 0.4475
679.40 0.4466
679.50 0.4458
679.60 0.445
679.70 0.4441
679.80 0.4433
679.90 0.4425
680.00 0.4416
680.10 0.4408
680.20 0.4399
680.30 0.4391
680.40 0.4383
680.50 0.4375
680.60 0.4366
680.70 0.4358
680.80 0.435
680.90 0.4341
681.00 0.4333
681.10 0.4325
681.20 0.4317
681.30 0.4308
681.40 0.43
681.50 0.4292
681.60 0.4284
681.70 0.4275
681.80 0.4267
681.90 0.4259
682.00 0.4251
682.10 0.4243
682.20 0.4234
682.30 0.4226
682.40 0.4218
682.50 0.421
682.60 0.4202
682.70 0.4193
682.80 0.4185
682.90 0.4177
683.00 0.4169
683.10 0.4161
683.20 0.4153
683.30 0.4145
683.40 0.4136
683.50 0.4128
683.60 0.412
683.70 0.4112
683.80 0.4104
683.90 0.4096
684.00 0.4088
684.10 0.408
684.20 0.4072
684.30 0.4064
684.40 0.4056
684.50 0.4048
684.60 0.404
684.70 0.4032
684.80 0.4024
684.90 0.4016
685.00 0.4008
685.10 0.4
685.20 0.3992
685.30 0.3984
685.40 0.3976
685.50 0.3968
685.60 0.396
685.70 0.3952
685.80 0.3944
685.90 0.3936
686.00 0.3928
686.10 0.392
686.20 0.3912
686.30 0.3904
686.40 0.3896
686.50 0.3888
686.60 0.3881
686.70 0.3873
686.80 0.3865
686.90 0.3857
687.00 0.3849
687.10 0.3841
687.20 0.3833
687.30 0.3826
687.40 0.3818
687.50 0.381
687.60 0.3802
687.70 0.3794
687.80 0.3787
687.90 0.3779
688.00 0.3771
688.10 0.3763
688.20 0.3756
688.30 0.3748
688.40 0.374
688.50 0.3732
688.60 0.3725
688.70 0.3717
688.80 0.3709
688.90 0.3701
689.00 0.3694
689.10 0.3686
689.20 0.3678
689.30 0.3671
689.40 0.3663
689.50 0.3656
689.60 0.3648
689.70 0.3641
689.80 0.3633
689.90 0.3626
690.00 0.3618
690.10 0.3611
690.20 0.3603
690.30 0.3596
690.40 0.3588
690.50 0.3581
690.60 0.3573
690.70 0.3566
690.80 0.3558
690.90 0.3551
691.00 0.3543
691.10 0.3536
691.20 0.3528
691.30 0.3521
691.40 0.3514
691.50 0.3506
691.60 0.3499
691.70 0.3491
691.80 0.3484
691.90 0.3476
692.00 0.3469
692.10 0.3462
692.20 0.3454
692.30 0.3447
692.40 0.3439
692.50 0.3432
692.60 0.3425
692.70 0.3417
692.80 0.341
692.90 0.3402
693.00 0.3395
693.10 0.3388
693.20 0.338
693.30 0.3373
693.40 0.3365
693.50 0.3358
693.60 0.3351
693.70 0.3343
693.80 0.3336
693.90 0.3329
694.00 0.3321
694.10 0.3314
694.20 0.3307
694.30 0.3299
694.40 0.3292
694.50 0.3285
694.60 0.3277
694.70 0.327
694.80 0.3263
694.90 0.3256
695.00 0.3248
695.10 0.3241
695.20 0.3234
695.30 0.3227
695.40 0.322
695.50 0.3213
695.60 0.3206
695.70 0.3199
695.80 0.3193
695.90 0.3186
696.00 0.3179
696.10 0.3172
696.20 0.3165
696.30 0.3158
696.40 0.3151
696.50 0.3144
696.60 0.3137
696.70 0.313
696.80 0.3123
696.90 0.3116
697.00 0.3109
697.10 0.3103
697.20 0.3096
697.30 0.3089
697.40 0.3082
697.50 0.3075
697.60 0.3068
697.70 0.3061
697.80 0.3054
697.90 0.3047
698.00 0.3041
698.10 0.3034
698.20 0.3027
698.30 0.302
698.40 0.3013
698.50 0.3006
698.60 0.2999
698.70 0.2993
698.80 0.2986
698.90 0.2979
699.00 0.2972
699.10 0.2965
699.20 0.2958
699.30 0.2952
699.40 0.2945
699.50 0.2938
699.60 0.2931
699.70 0.2924
699.80 0.2918
699.90 0.2911
700.00 0.2904
700.10 0.2898
700.20 0.2891
700.30 0.2885
700.40 0.2878
700.50 0.2872
700.60 0.2865
700.70 0.2859
700.80 0.2853
700.90 0.2846
701.00 0.284
701.10 0.2833
701.20 0.2827
701.30 0.282
701.40 0.2814
701.50 0.2808
701.60 0.2801
701.70 0.2795
701.80 0.2789
701.90 0.2782
702.00 0.2776
702.10 0.2769
702.20 0.2763
702.30 0.2757
702.40 0.275
702.50 0.2744
702.60 0.2738
702.70 0.2731
702.80 0.2725
702.90 0.2719
703.00 0.2712
703.10 0.2706
703.20 0.27
703.30 0.2693
703.40 0.2687
703.50 0.2681
703.60 0.2674
703.70 0.2668
703.80 0.2662
703.90 0.2655
704.00 0.2649
704.10 0.2643
704.20 0.2636
704.30 0.263
704.40 0.2624
704.50 0.2617
704.60 0.2611
704.70 0.2605
704.80 0.2599
704.90 0.2592
705.00 0.2586
705.10 0.258
705.20 0.2574
705.30 0.2569
705.40 0.2563
705.50 0.2557
705.60 0.2551
705.70 0.2545
705.80 0.254
705.90 0.2534
706.00 0.2528
706.10 0.2522
706.20 0.2516
706.30 0.2511
706.40 0.2505
706.50 0.2499
706.60 0.2493
706.70 0.2487
706.80 0.2482
706.90 0.2476
707.00 0.247
707.10 0.2464
707.20 0.2459
707.30 0.2453
707.40 0.2447
707.50 0.2441
707.60 0.2436
707.70 0.243
707.80 0.2424
707.90 0.2418
708.00 0.2413
708.10 0.2407
708.20 0.2401
708.30 0.2395
708.40 0.239
708.50 0.2384
708.60 0.2378
708.70 0.2372
708.80 0.2367
708.90 0.2361
709.00 0.2355
709.10 0.235
709.20 0.2344
709.30 0.2338
709.40 0.2333
709.50 0.2327
709.60 0.2321
709.70 0.2315
709.80 0.231
709.90 0.2304
710.00 0.2298
710.10 0.2293
710.20 0.2288
710.30 0.2283
710.40 0.2278
710.50 0.2272
710.60 0.2267
710.70 0.2262
710.80 0.2257
710.90 0.2252
711.00 0.2246
711.10 0.2241
711.20 0.2236
711.30 0.2231
711.40 0.2226
711.50 0.2221
711.60 0.2215
711.70 0.221
711.80 0.2205
711.90 0.22
712.00 0.2195
712.10 0.219
712.20 0.2184
712.30 0.2179
712.40 0.2174
712.50 0.2169
712.60 0.2164
712.70 0.2159
712.80 0.2154
712.90 0.2149
713.00 0.2143
713.10 0.2138
713.20 0.2133
713.30 0.2128
713.40 0.2123
713.50 0.2118
713.60 0.2113
713.70 0.2108
713.80 0.2102
713.90 0.2097
714.00 0.2092
714.10 0.2087
714.20 0.2082
714.30 0.2077
714.40 0.2072
714.50 0.2067
714.60 0.2062
714.70 0.2057
714.80 0.2052
714.90 0.2047
715.00 0.2041
715.10 0.2037
715.20 0.2032
715.30 0.2028
715.40 0.2023
715.50 0.2019
715.60 0.2014
715.70 0.2009
715.80 0.2005
715.90 0.2
716.00 0.1996
716.10 0.1991
716.20 0.1987
716.30 0.1982
716.40 0.1978
716.50 0.1973
716.60 0.1969
716.70 0.1964
716.80 0.1959
716.90 0.1955
717.00 0.195
717.10 0.1946
717.20 0.1941
717.30 0.1937
717.40 0.1932
717.50 0.1928
717.60 0.1923
717.70 0.1919
717.80 0.1914
717.90 0.191
718.00 0.1905
718.10 0.1901
718.20 0.1896
718.30 0.1892
718.40 0.1887
718.50 0.1883
718.60 0.1878
718.70 0.1874
718.80 0.1869
718.90 0.1865
719.00 0.186
719.10 0.1856
719.20 0.1851
719.30 0.1847
719.40 0.1842
719.50 0.1838
719.60 0.1834
719.70 0.1829
719.80 0.1825
719.90 0.182
720.00 0.1816
720.10 0.1812
720.20 0.1808
720.30 0.1804
720.40 0.18
720.50 0.1796
720.60 0.1792
720.70 0.1788
720.80 0.1784
720.90 0.178
721.00 0.1777
721.10 0.1773
721.20 0.1769
721.30 0.1765
721.40 0.1761
721.50 0.1757
721.60 0.1753
721.70 0.1749
721.80 0.1745
721.90 0.1741
722.00 0.1738
722.10 0.1734
722.20 0.173
722.30 0.1726
722.40 0.1722
722.50 0.1718
722.60 0.1714
722.70 0.171
722.80 0.1707
722.90 0.1703
723.00 0.1699
723.10 0.1695
723.20 0.1691
723.30 0.1687
723.40 0.1683
723.50 0.168
723.60 0.1676
723.70 0.1672
723.80 0.1668
723.90 0.1664
724.00 0.166
724.10 0.1656
724.20 0.1653
724.30 0.1649
724.40 0.1645
724.50 0.1641
724.60 0.1637
724.70 0.1633
724.80 0.163
724.90 0.1626
725.00 0.1622
725.10 0.1619
725.20 0.1615
725.30 0.1612
725.40 0.1609
725.50 0.1605
725.60 0.1602
725.70 0.1599
725.80 0.1595
725.90 0.1592
726.00 0.1589
726.10 0.1585
726.20 0.1582
726.30 0.1579
726.40 0.1576
726.50 0.1572
726.60 0.1569
726.70 0.1566
726.80 0.1562
726.90 0.1559
727.00 0.1556
727.10 0.1553
727.20 0.1549
727.30 0.1546
727.40 0.1543
727.50 0.1539
727.60 0.1536
727.70 0.1533
727.80 0.153
727.90 0.1526
728.00 0.1523
728.10 0.152
728.20 0.1517
728.30 0.1513
728.40 0.151
728.50 0.1507
728.60 0.1503
728.70 0.15
728.80 0.1497
728.90 0.1494
729.00 0.149
729.10 0.1487
729.20 0.1484
729.30 0.1481
729.40 0.1477
729.50 0.1474
729.60 0.1471
729.70 0.1468
729.80 0.1464
729.90 0.1461
730.00 0.1458
730.10 0.1456
730.20 0.1453
730.30 0.1451
730.40 0.1448
730.50 0.1446
730.60 0.1444
730.70 0.1441
730.80 0.1439
730.90 0.1436
731.00 0.1434
731.10 0.1432
731.20 0.1429
731.30 0.1427
731.40 0.1425
731.50 0.1422
731.60 0.142
731.70 0.1417
731.80 0.1415
731.90 0.1413
732.00 0.141
732.10 0.1408
732.20 0.1406
732.30 0.1403
732.40 0.1401
732.50 0.1398
732.60 0.1396
732.70 0.1394
732.80 0.1391
732.90 0.1389
733.00 0.1387
733.10 0.1384
733.20 0.1382
733.30 0.138
733.40 0.1377
733.50 0.1375
733.60 0.1373
733.70 0.137
733.80 0.1368
733.90 0.1365
734.00 0.1363
734.10 0.1361
734.20 0.1358
734.30 0.1356
734.40 0.1354
734.50 0.1351
734.60 0.1349
734.70 0.1347
734.80 0.1344
734.90 0.1342
735.00 0.134
735.10 0.1337
735.20 0.1335
735.30 0.1333
735.40 0.133
735.50 0.1328
735.60 0.1326
735.70 0.1323
735.80 0.1321
735.90 0.1319
736.00 0.1316
736.10 0.1314
736.20 0.1312
736.30 0.1309
736.40 0.1307
736.50 0.1305
736.60 0.1303
736.70 0.13
736.80 0.1298
736.90 0.1296
737.00 0.1293
737.10 0.1291
737.20 0.1289
737.30 0.1286
737.40 0.1284
737.50 0.1282
737.60 0.1279
737.70 0.1277
737.80 0.1275
737.90 0.1273
738.00 0.127
738.10 0.1268
738.20 0.1266
738.30 0.1263
738.40 0.1261
738.50 0.1259
738.60 0.1256
738.70 0.1254
738.80 0.1252
738.90 0.125
739.00 0.1247
739.10 0.1245
739.20 0.1243
739.30 0.124
739.40 0.1238
739.50 0.1236
739.60 0.1234
739.70 0.1231
739.80 0.1229
739.90 0.1227
740.00 0.1225
740.10 0.1223
740.20 0.1222
740.30 0.122
740.40 0.1219
740.50 0.1217
740.60 0.1216
740.70 0.1215
740.80 0.1213
740.90 0.1212
741.00 0.121
741.10 0.1209
741.20 0.1208
741.30 0.1206
741.40 0.1205
741.50 0.1203
741.60 0.1202
741.70 0.1201
741.80 0.1199
741.90 0.1198
742.00 0.1196
742.10 0.1195
742.20 0.1194
742.30 0.1192
742.40 0.1191
742.50 0.1189
742.60 0.1188
742.70 0.1187
742.80 0.1185
742.90 0.1184
743.00 0.1182
743.10 0.1181
743.20 0.118
743.30 0.1178
743.40 0.1177
743.50 0.1175
743.60 0.1174
743.70 0.1173
743.80 0.1171
743.90 0.117
744.00 0.1169
744.10 0.1167
744.20 0.1166
744.30 0.1164
744.40 0.1163
744.50 0.1162
744.60 0.116
744.70 0.1159
744.80 0.1157
744.90 0.1156
745.00 0.1155
745.10 0.1153
745.20 0.1152
745.30 0.1151
745.40 0.1149
745.50 0.1148
745.60 0.1146
745.70 0.1145
745.80 0.1144
745.90 0.1142
746.00 0.1141
746.10 0.114
746.20 0.1138
746.30 0.1137
746.40 0.1135
746.50 0.1134
746.60 0.1133
746.70 0.1131
746.80 0.113
746.90 0.1129
747.00 0.1127
747.10 0.1126
747.20 0.1125
747.30 0.1123
747.40 0.1122
747.50 0.112
747.60 0.1119
747.70 0.1118
747.80 0.1116
747.90 0.1115
748.00 0.1114
748.10 0.1112
748.20 0.1111
748.30 0.111
748.40 0.1108
748.50 0.1107
748.60 0.1106
748.70 0.1104
748.80 0.1103
748.90 0.1101
749.00 0.11
749.10 0.1099
749.20 0.1097
749.30 0.1096
749.40 0.1095
749.50 0.1093
749.60 0.1092
749.70 0.1091
749.80 0.1089
749.90 0.1088
750.00 0.1087
750.10 0.1086
750.20 0.1085
750.30 0.1084
750.40 0.1083
750.50 0.1082
750.60 0.1082
750.70 0.1081
750.80 0.108
750.90 0.1079
751.00 0.1078
751.10 0.1077
751.20 0.1077
751.30 0.1076
751.40 0.1075
751.50 0.1074
751.60 0.1073
751.70 0.1072
751.80 0.1071
751.90 0.1071
752.00 0.107
752.10 0.1069
752.20 0.1068
752.30 0.1067
752.40 0.1066
752.50 0.1066
752.60 0.1065
752.70 0.1064
752.80 0.1063
752.90 0.1062
753.00 0.1061
753.10 0.1061
753.20 0.106
753.30 0.1059
753.40 0.1058
753.50 0.1057
753.60 0.1056
753.70 0.1056
753.80 0.1055
753.90 0.1054
754.00 0.1053
754.10 0.1052
754.20 0.1051
754.30 0.1051
754.40 0.105
754.50 0.1049
754.60 0.1048
754.70 0.1047
754.80 0.1047
754.90 0.1046
755.00 0.1045
755.10 0.1044
755.20 0.1043
755.30 0.1042
755.40 0.1042
755.50 0.1041
755.60 0.104
755.70 0.1039
755.80 0.1038
755.90 0.1037
756.00 0.1037
756.10 0.1036
756.20 0.1035
756.30 0.1034
756.40 0.1033
756.50 0.1033
756.60 0.1032
756.70 0.1031
756.80 0.103
756.90 0.1029
757.00 0.1028
757.10 0.1028
757.20 0.1027
757.30 0.1026
757.40 0.1025
757.50 0.1024
757.60 0.1024
757.70 0.1023
757.80 0.1022
757.90 0.1021
758.00 0.102
758.10 0.1019
758.20 0.1019
758.30 0.1018
758.40 0.1017
758.50 0.1016
758.60 0.1015
758.70 0.1015
758.80 0.1014
758.90 0.1013
759.00 0.1012
759.10 0.1011
759.20 0.1011
759.30 0.101
759.40 0.1009
759.50 0.1008
759.60 0.1007
759.70 0.1007
759.80 0.1006
759.90 0.1005
760.00 0.1004
760.10 0.1004
760.20 0.1003
760.30 0.1003
760.40 0.1002
760.50 0.1001
760.60 0.1001
760.70 0.1
760.80 0.09999
760.90 0.09994
761.00 0.09989
761.10 0.09984
761.20 0.09978
761.30 0.09973
761.40 0.09968
761.50 0.09963
761.60 0.09958
761.70 0.09952
761.80 0.09947
761.90 0.09942
762.00 0.09937
762.10 0.09932
762.20 0.09926
762.30 0.09921
762.40 0.09916
762.50 0.09911
762.60 0.09906
762.70 0.09901
762.80 0.09895
762.90 0.0989
763.00 0.09885
763.10 0.0988
763.20 0.09875
763.30 0.0987
763.40 0.09864
763.50 0.09859
763.60 0.09854
763.70 0.09849
763.80 0.09844
763.90 0.09839
764.00 0.09834
764.10 0.09828
764.20 0.09823
764.30 0.09818
764.40 0.09813
764.50 0.09808
764.60 0.09803
764.70 0.09798
764.80 0.09793
764.90 0.09787
765.00 0.09782
765.10 0.09777
765.20 0.09772
765.30 0.09767
765.40 0.09762
765.50 0.09757
765.60 0.09752
765.70 0.09747
765.80 0.09742
765.90 0.09736
766.00 0.09731
766.10 0.09726
766.20 0.09721
766.30 0.09716
766.40 0.09711
766.50 0.09706
766.60 0.09701
766.70 0.09696
766.80 0.09691
766.90 0.09686
767.00 0.09681
767.10 0.09675
767.20 0.0967
767.30 0.09665
767.40 0.0966
767.50 0.09655
767.60 0.0965
767.70 0.09645
767.80 0.0964
767.90 0.09635
768.00 0.0963
768.10 0.09625
768.20 0.0962
768.30 0.09615
768.40 0.0961
768.50 0.09605
768.60 0.096
768.70 0.09595
768.80 0.0959
768.90 0.09585
769.00 0.0958
769.10 0.09575
769.20 0.0957
769.30 0.09565
769.40 0.0956
769.50 0.09555
769.60 0.0955
769.70 0.09545
769.80 0.0954
769.90 0.09535
770.00 0.0953
770.10 0.09527
770.20 0.09525
770.30 0.09523
770.40 0.09521
770.50 0.09518
770.60 0.09516
770.70 0.09514
770.80 0.09512
770.90 0.09509
771.00 0.09507
771.10 0.09505
771.20 0.09503
771.30 0.095
771.40 0.09498
771.50 0.09496
771.60 0.09494
771.70 0.09491
771.80 0.09489
771.90 0.09487
772.00 0.09485
772.10 0.09482
772.20 0.0948
772.30 0.09478
772.40 0.09476
772.50 0.09473
772.60 0.09471
772.70 0.09469
772.80 0.09467
772.90 0.09465
773.00 0.09462
773.10 0.0946
773.20 0.09458
773.30 0.09456
773.40 0.09453
773.50 0.09451
773.60 0.09449
773.70 0.09447
773.80 0.09444
773.90 0.09442
774.00 0.0944
774.10 0.09438
774.20 0.09436
774.30 0.09433
774.40 0.09431
774.50 0.09429
774.60 0.09427
774.70 0.09424
774.80 0.09422
774.90 0.0942
775.00 0.09418
775.10 0.09416
775.20 0.09413
775.30 0.09411
775.40 0.09409
775.50 0.09407
775.60 0.09405
775.70 0.09402
775.80 0.094
775.90 0.09398
776.00 0.09396
776.10 0.09394
776.20 0.09391
776.30 0.09389
776.40 0.09387
776.50 0.09385
776.60 0.09383
776.70 0.0938
776.80 0.09378
776.90 0.09376
777.00 0.09374
777.10 0.09372
777.20 0.09369
777.30 0.09367
777.40 0.09365
777.50 0.09363
777.60 0.09361
777.70 0.09358
777.80 0.09356
777.90 0.09354
778.00 0.09352
778.10 0.0935
778.20 0.09347
778.30 0.09345
778.40 0.09343
778.50 0.09341
778.60 0.09339
778.70 0.09336
778.80 0.09334
778.90 0.09332
779.00 0.0933
779.10 0.09328
779.20 0.09326
779.30 0.09323
779.40 0.09321
779.50 0.09319
779.60 0.09317
779.70 0.09315
779.80 0.09313
779.90 0.0931
780.00 0.09308
780.10 0.0931
780.20 0.09313
780.30 0.09315
780.40 0.09317
780.50 0.09319
780.60 0.09322
780.70 0.09324
780.80 0.09326
780.90 0.09328
781.00 0.09331
781.10 0.09333
781.20 0.09335
781.30 0.09337
781.40 0.0934
781.50 0.09342
781.60 0.09344
781.70 0.09346
781.80 0.09349
781.90 0.09351
782.00 0.09353
782.10 0.09355
782.20 0.09358
782.30 0.0936
782.40 0.09362
782.50 0.09364
782.60 0.09367
782.70 0.09369
782.80 0.09371
782.90 0.09373
783.00 0.09375
783.10 0.09378
783.20 0.0938
783.30 0.09382
783.40 0.09384
783.50 0.09387
783.60 0.09389
783.70 0.09391
783.80 0.09393
783.90 0.09395
784.00 0.09398
784.10 0.094
784.20 0.09402
784.30 0.09404
784.40 0.09406
784.50 0.09409
784.60 0.09411
784.70 0.09413
784.80 0.09415
784.90 0.09417
785.00 0.0942
785.10 0.09422
785.20 0.09424
785.30 0.09426
785.40 0.09428
785.50 0.09431
785.60 0.09433
785.70 0.09435
785.80 0.09437
785.90 0.09439
786.00 0.09441
786.10 0.09444
786.20 0.09446
786.30 0.09448
786.40 0.0945
786.50 0.09452
786.60 0.09454
786.70 0.09457
786.80 0.09459
786.90 0.09461
787.00 0.09463
787.10 0.09465
787.20 0.09467
787.30 0.0947
787.40 0.09472
787.50 0.09474
787.60 0.09476
787.70 0.09478
787.80 0.0948
787.90 0.09483
788.00 0.09485
788.10 0.09487
788.20 0.09489
788.30 0.09491
788.40 0.09493
788.50 0.09495
788.60 0.09498
788.70 0.095
788.80 0.09502
788.90 0.09504
789.00 0.09506
789.10 0.09508
789.20 0.0951
789.30 0.09513
789.40 0.09515
789.50 0.09517
789.60 0.09519
789.70 0.09521
789.80 0.09523
789.90 0.09525
790.00 0.09527
790.10 0.09532
790.20 0.09537
790.30 0.09541
790.40 0.09546
790.50 0.0955
790.60 0.09555
790.70 0.0956
790.80 0.09564
790.90 0.09569
791.00 0.09573
791.10 0.09578
791.20 0.09583
791.30 0.09587
791.40 0.09592
791.50 0.09596
791.60 0.09601
791.70 0.09605
791.80 0.0961
791.90 0.09614
792.00 0.09619
792.10 0.09624
792.20 0.09628
792.30 0.09633
792.40 0.09637
792.50 0.09642
792.60 0.09646
792.70 0.09651
792.80 0.09655
792.90 0.0966
793.00 0.09664
793.10 0.09669
793.20 0.09673
793.30 0.09678
793.40 0.09682
793.50 0.09687
793.60 0.09692
793.70 0.09696
793.80 0.09701
793.90 0.09705
794.00 0.0971
794.10 0.09714
794.20 0.09719
794.30 0.09723
794.40 0.09728
794.50 0.09732
794.60 0.09736
794.70 0.09741
794.80 0.09745
794.90 0.0975
795.00 0.09754
795.10 0.09759
795.20 0.09763
795.30 0.09768
795.40 0.09772
795.50 0.09777
795.60 0.09781
795.70 0.09786
795.80 0.0979
795.90 0.09795
796.00 0.09799
796.10 0.09803
796.20 0.09808
796.30 0.09812
796.40 0.09817
796.50 0.09821
796.60 0.09826
796.70 0.0983
796.80 0.09835
796.90 0.09839
797.00 0.09843
797.10 0.09848
797.20 0.09852
797.30 0.09857
797.40 0.09861
797.50 0.09865
797.60 0.0987
797.70 0.09874
797.80 0.09879
797.90 0.09883
798.00 0.09888
798.10 0.09892
798.20 0.09896
798.30 0.09901
798.40 0.09905
798.50 0.09909
798.60 0.09914
798.70 0.09918
798.80 0.09923
798.90 0.09927
799.00 0.09931
799.10 0.09936
799.20 0.0994
799.30 0.09944
799.40 0.09949
799.50 0.09953
799.60 0.09958
799.70 0.09962
799.80 0.09966
799.90 0.09971
800.00 0.09975
800.10 0.09978
800.20 0.0998
800.30 0.09983
800.40 0.09986
800.50 0.09989
800.60 0.09991
800.70 0.09994
800.80 0.09997
800.90 0.09999
801.00 0.1
801.10 0.1
801.20 0.1001
801.30 0.1001
801.40 0.1001
801.50 0.1002
801.60 0.1002
801.70 0.1002
801.80 0.1002
801.90 0.1003
802.00 0.1003
802.10 0.1003
802.20 0.1003
802.30 0.1004
802.40 0.1004
802.50 0.1004
802.60 0.1005
802.70 0.1005
802.80 0.1005
802.90 0.1005
803.00 0.1006
803.10 0.1006
803.20 0.1006
803.30 0.1006
803.40 0.1007
803.50 0.1007
803.60 0.1007
803.70 0.1007
803.80 0.1008
803.90 0.1008
804.00 0.1008
804.10 0.1009
804.20 0.1009
804.30 0.1009
804.40 0.1009
804.50 0.101
804.60 0.101
804.70 0.101
804.80 0.101
804.90 0.1011
805.00 0.1011
805.10 0.1011
805.20 0.1011
805.30 0.1012
805.40 0.1012
805.50 0.1012
805.60 0.1013
805.70 0.1013
805.80 0.1013
805.90 0.1013
806.00 0.1014
806.10 0.1014
806.20 0.1014
806.30 0.1014
806.40 0.1015
806.50 0.1015
806.60 0.1015
806.70 0.1015
806.80 0.1016
806.90 0.1016
807.00 0.1016
807.10 0.1016
807.20 0.1017
807.30 0.1017
807.40 0.1017
807.50 0.1017
807.60 0.1018
807.70 0.1018
807.80 0.1018
807.90 0.1019
808.00 0.1019
808.10 0.1019
808.20 0.1019
808.30 0.102
808.40 0.102
808.50 0.102
808.60 0.102
808.70 0.1021
808.80 0.1021
808.90 0.1021
809.00 0.1021
809.10 0.1022
809.20 0.1022
809.30 0.1022
809.40 0.1022
809.50 0.1023
809.60 0.1023
809.70 0.1023
809.80 0.1023
809.90 0.1024
810.00 0.1024
810.10 0.1024
810.20 0.1024
810.30 0.1024
810.40 0.1024
810.50 0.1024
810.60 0.1025
810.70 0.1025
810.80 0.1025
810.90 0.1025
811.00 0.1025
811.10 0.1025
811.20 0.1025
811.30 0.1025
811.40 0.1025
811.50 0.1025
811.60 0.1026
811.70 0.1026
811.80 0.1026
811.90 0.1026
812.00 0.1026
812.10 0.1026
812.20 0.1026
812.30 0.1026
812.40 0.1026
812.50 0.1026
812.60 0.1027
812.70 0.1027
812.80 0.1027
812.90 0.1027
813.00 0.1027
813.10 0.1027
813.20 0.1027
813.30 0.1027
813.40 0.1027
813.50 0.1027
813.60 0.1028
813.70 0.1028
813.80 0.1028
813.90 0.1028
814.00 0.1028
814.10 0.1028
814.20 0.1028
814.30 0.1028
814.40 0.1028
814.50 0.1028
814.60 0.1029
814.70 0.1029
814.80 0.1029
814.90 0.1029
815.00 0.1029
815.10 0.1029
815.20 0.1029
815.30 0.1029
815.40 0.1029
815.50 0.1029
815.60 0.103
815.70 0.103
815.80 0.103
815.90 0.103
816.00 0.103
816.10 0.103
816.20 0.103
816.30 0.103
816.40 0.103
816.50 0.103
816.60 0.103
816.70 0.1031
816.80 0.1031
816.90 0.1031
817.00 0.1031
817.10 0.1031
817.20 0.1031
817.30 0.1031
817.40 0.1031
817.50 0.1031
817.60 0.1031
817.70 0.1032
817.80 0.1032
817.90 0.1032
818.00 0.1032
818.10 0.1032
818.20 0.1032
818.30 0.1032
818.40 0.1032
818.50 0.1032
818.60 0.1032
818.70 0.1033
818.80 0.1033
818.90 0.1033
819.00 0.1033
819.10 0.1033
819.20 0.1033
819.30 0.1033
819.40 0.1033
819.50 0.1033
819.60 0.1033
819.70 0.1033
819.80 0.1034
819.90 0.1034
820.00 0.1034
820.10 0.1034
820.20 0.1034
820.30 0.1034
820.40 0.1034
820.50 0.1035
820.60 0.1035
820.70 0.1035
820.80 0.1035
820.90 0.1035
821.00 0.1035
821.10 0.1036
821.20 0.1036
821.30 0.1036
821.40 0.1036
821.50 0.1036
821.60 0.1036
821.70 0.1037
821.80 0.1037
821.90 0.1037
822.00 0.1037
822.10 0.1037
822.20 0.1038
822.30 0.1038
822.40 0.1038
822.50 0.1038
822.60 0.1039
822.70 0.1039
822.80 0.1039
822.90 0.1039
823.00 0.1039
823.10 0.104
823.20 0.104
823.30 0.104
823.40 0.104
823.50 0.1041
823.60 0.1041
823.70 0.1041
823.80 0.1041
823.90 0.1042
824.00 0.1042
824.10 0.1042
824.20 0.1042
824.30 0.1042
824.40 0.1043
824.50 0.1043
824.60 0.1043
824.70 0.1043
824.80 0.1044
824.90 0.1044
825.00 0.1044
825.10 0.1044
825.20 0.1045
825.30 0.1045
825.40 0.1045
825.50 0.1045
825.60 0.1045
825.70 0.1046
825.80 0.1046
825.90 0.1046
826.00 0.1046
826.10 0.1047
826.20 0.1047
826.30 0.1047
826.40 0.1047
826.50 0.1048
826.60 0.1048
826.70 0.1048
826.80 0.1048
826.90 0.1048
827.00 0.1049
827.10 0.1049
827.20 0.1049
827.30 0.105
827.40 0.105
827.50 0.105
827.60 0.105
827.70 0.1051
827.80 0.1051
827.90 0.1051
828.00 0.1051
828.10 0.1052
828.20 0.1052
828.30 0.1052
828.40 0.1053
828.50 0.1053
828.60 0.1053
828.70 0.1053
828.80 0.1054
828.90 0.1054
829.00 0.1054
829.10 0.1054
829.20 0.1055
829.30 0.1055
829.40 0.1055
829.50 0.1056
829.60 0.1056
829.70 0.1056
829.80 0.1056
829.90 0.1057
830.00 0.1057
830.10 0.1057
830.20 0.1057
830.30 0.1058
830.40 0.1058
830.50 0.1058
830.60 0.1058
830.70 0.1059
830.80 0.1059
830.90 0.1059
831.00 0.106
831.10 0.106
831.20 0.106
831.30 0.106
831.40 0.1061
831.50 0.1061
831.60 0.1061
831.70 0.1061
831.80 0.1062
831.90 0.1062
832.00 0.1062
832.10 0.1062
832.20 0.1063
832.30 0.1063
832.40 0.1063
832.50 0.1063
832.60 0.1064
832.70 0.1064
832.80 0.1064
832.90 0.1064
833.00 0.1064
833.10 0.1065
833.20 0.1065
833.30 0.1065
833.40 0.1065
833.50 0.1065
833.60 0.1066
833.70 0.1066
833.80 0.1066
833.90 0.1066
834.00 0.1067
834.10 0.1067
834.20 0.1067
834.30 0.1067
834.40 0.1067
834.50 0.1068
834.60 0.1068
834.70 0.1068
834.80 0.1068
834.90 0.1068
835.00 0.1069
835.10 0.1069
835.20 0.1069
835.30 0.1069
835.40 0.107
835.50 0.107
835.60 0.107
835.70 0.107
835.80 0.107
835.90 0.1071
836.00 0.1071
836.10 0.1071
836.20 0.1071
836.30 0.1071
836.40 0.1072
836.50 0.1072
836.60 0.1072
836.70 0.1072
836.80 0.1072
836.90 0.1073
837.00 0.1073
837.10 0.1073
837.20 0.1073
837.30 0.1073
837.40 0.1074
837.50 0.1074
837.60 0.1074
837.70 0.1074
837.80 0.1074
837.90 0.1074
838.00 0.1075
838.10 0.1075
838.20 0.1075
838.30 0.1075
838.40 0.1075
838.50 0.1076
838.60 0.1076
838.70 0.1076
838.80 0.1076
838.90 0.1076
839.00 0.1076
839.10 0.1077
839.20 0.1077
839.30 0.1077
839.40 0.1077
839.50 0.1077
839.60 0.1077
839.70 0.1078
839.80 0.1078
839.90 0.1078
840.00 0.1078
840.10 0.1078
840.20 0.1078
840.30 0.1079
840.40 0.1079
840.50 0.1079
840.60 0.1079
840.70 0.1079
840.80 0.1079
840.90 0.108
841.00 0.108
841.10 0.108
841.20 0.108
841.30 0.108
841.40 0.108
841.50 0.1081
841.60 0.1081
841.70 0.1081
841.80 0.1081
841.90 0.1081
842.00 0.1081
842.10 0.1082
842.20 0.1082
842.30 0.1082
842.40 0.1082
842.50 0.1082
842.60 0.1082
842.70 0.1082
842.80 0.1082
842.90 0.1083
843.00 0.1083
843.10 0.1083
843.20 0.1083
843.30 0.1083
843.40 0.1083
843.50 0.1083
843.60 0.1084
843.70 0.1084
843.80 0.1084
843.90 0.1084
844.00 0.1084
844.10 0.1084
844.20 0.1084
844.30 0.1084
844.40 0.1085
844.50 0.1085
844.60 0.1085
844.70 0.1085
844.80 0.1085
844.90 0.1085
845.00 0.1085
845.10 0.1085
845.20 0.1086
845.30 0.1086
845.40 0.1086
845.50 0.1086
845.60 0.1086
845.70 0.1086
845.80 0.1086
845.90 0.1086
846.00 0.1087
846.10 0.1087
846.20 0.1087
846.30 0.1087
846.40 0.1087
846.50 0.1087
846.60 0.1087
846.70 0.1087
846.80 0.1088
846.90 0.1088
847.00 0.1088
847.10 0.1088
847.20 0.1088
847.30 0.1088
847.40 0.1088
847.50 0.1088
847.60 0.1089
847.70 0.1089
847.80 0.1089
847.90 0.1089
848.00 0.1089
848.10 0.1089
848.20 0.1089
848.30 0.1089
848.40 0.109
848.50 0.109
848.60 0.109
848.70 0.109
848.80 0.109
848.90 0.109
849.00 0.109
849.10 0.109
849.20 0.1091
849.30 0.1091
849.40 0.1091
849.50 0.1091
849.60 0.1091
849.70 0.1091
849.80 0.1091
849.90 0.1091
850.00 0.1092
850.10 0.1092
850.20 0.1092
850.30 0.1092
850.40 0.1092
850.50 0.1092
850.60 0.1092
850.70 0.1092
850.80 0.1093
850.90 0.1093
851.00 0.1093
851.10 0.1093
851.20 0.1093
851.30 0.1093
851.40 0.1093
851.50 0.1093
851.60 0.1094
851.70 0.1094
851.80 0.1094
851.90 0.1094
852.00 0.1094
852.10 0.1094
852.20 0.1094
852.30 0.1094
852.40 0.1095
852.50 0.1095
852.60 0.1095
852.70 0.1095
852.80 0.1095
852.90 0.1095
853.00 0.1095
853.10 0.1096
853.20 0.1096
853.30 0.1096
853.40 0.1096
853.50 0.1096
853.60 0.1096
853.70 0.1096
853.80 0.1096
853.90 0.1097
854.00 0.1097
854.10 0.1097
854.20 0.1097
854.30 0.1097
854.40 0.1097
854.50 0.1097
854.60 0.1097
854.70 0.1098
854.80 0.1098
854.90 0.1098
855.00 0.1098
855.10 0.1098
855.20 0.1098
855.30 0.1098
855.40 0.1099
855.50 0.1099
855.60 0.1099
855.70 0.1099
855.80 0.1099
855.90 0.1099
856.00 0.1099
856.10 0.1099
856.20 0.11
856.30 0.11
856.40 0.11
856.50 0.11
856.60 0.11
856.70 0.11
856.80 0.11
856.90 0.11
857.00 0.1101
857.10 0.1101
857.20 0.1101
857.30 0.1101
857.40 0.1101
857.50 0.1101
857.60 0.1101
857.70 0.1102
857.80 0.1102
857.90 0.1102
858.00 0.1102
858.10 0.1102
858.20 0.1102
858.30 0.1102
858.40 0.1103
858.50 0.1103
858.60 0.1103
858.70 0.1103
858.80 0.1103
858.90 0.1103
859.00 0.1103
859.10 0.1103
859.20 0.1104
859.30 0.1104
859.40 0.1104
859.50 0.1104
859.60 0.1104
859.70 0.1104
859.80 0.1104
859.90 0.1105
860.00 0.1105
860.10 0.1105
860.20 0.1105
860.30 0.1105
860.40 0.1105
860.50 0.1105
860.60 0.1106
860.70 0.1106
860.80 0.1106
860.90 0.1106
861.00 0.1106
861.10 0.1106
861.20 0.1106
861.30 0.1106
861.40 0.1107
861.50 0.1107
861.60 0.1107
861.70 0.1107
861.80 0.1107
861.90 0.1107
862.00 0.1107
862.10 0.1108
862.20 0.1108
862.30 0.1108
862.40 0.1108
862.50 0.1108
862.60 0.1108
862.70 0.1109
862.80 0.1109
862.90 0.1109
863.00 0.1109
863.10 0.1109
863.20 0.1109
863.30 0.111
863.40 0.111
863.50 0.111
863.60 0.111
863.70 0.111
863.80 0.111
863.90 0.1111
864.00 0.1111
864.10 0.1111
864.20 0.1111
864.30 0.1111
864.40 0.1111
864.50 0.1112
864.60 0.1112
864.70 0.1112
864.80 0.1112
864.90 0.1112
865.00 0.1112
865.10 0.1113
865.20 0.1113
865.30 0.1113
865.40 0.1113
865.50 0.1113
865.60 0.1113
865.70 0.1114
865.80 0.1114
865.90 0.1114
866.00 0.1114
866.10 0.1114
866.20 0.1114
866.30 0.1114
866.40 0.1115
866.50 0.1115
866.60 0.1115
866.70 0.1115
866.80 0.1115
866.90 0.1115
867.00 0.1116
867.10 0.1116
867.20 0.1116
867.30 0.1116
867.40 0.1116
867.50 0.1116
867.60 0.1116
867.70 0.1116
867.80 0.1116
867.90 0.1116
868.00 0.1117
868.10 0.1117
868.20 0.1117
868.30 0.1117
868.40 0.1117
868.50 0.1117
868.60 0.1117
868.70 0.1117
868.80 0.1117
868.90 0.1117
869.00 0.1118
869.10 0.1118
869.20 0.1118
869.30 0.1118
869.40 0.1118
869.50 0.1118
869.60 0.1118
869.70 0.1118
869.80 0.1118
869.90 0.1118
870.00 0.1118
870.10 0.1119
870.20 0.1119
870.30 0.1119
870.40 0.1119
870.50 0.1119
870.60 0.1119
870.70 0.1119
870.80 0.1119
870.90 0.1119
871.00 0.1119
871.10 0.112
871.20 0.112
871.30 0.112
871.40 0.112
871.50 0.112
871.60 0.112
871.70 0.112
871.80 0.112
871.90 0.112
872.00 0.112
872.10 0.112
872.20 0.112
872.30 0.112
872.40 0.112
872.50 0.1121
872.60 0.1121
872.70 0.1121
872.80 0.1121
872.90 0.1121
873.00 0.1121
873.10 0.1121
873.20 0.1121
873.30 0.1121
873.40 0.1121
873.50 0.1121
873.60 0.1121
873.70 0.1121
873.80 0.1121
873.90 0.1121
874.00 0.1121
874.10 0.1121
874.20 0.1121
874.30 0.1121
874.40 0.1121
874.50 0.1121
874.60 0.1121
874.70 0.1121
874.80 0.1121
874.90 0.1121
875.00 0.1121
875.10 0.1121
875.20 0.1121
875.30 0.1121
875.40 0.1121
875.50 0.1121
875.60 0.1121
875.70 0.1121
875.80 0.1121
875.90 0.1122
876.00 0.1122
876.10 0.1122
876.20 0.1122
876.30 0.1122
876.40 0.1122
876.50 0.1122
876.60 0.1122
876.70 0.1122
876.80 0.1122
876.90 0.1122
877.00 0.1122
877.10 0.1122
877.20 0.1122
877.30 0.1121
877.40 0.1121
877.50 0.1121
877.60 0.1121
877.70 0.1121
877.80 0.1121
877.90 0.1121
878.00 0.1121
878.10 0.112
878.20 0.112
878.30 0.112
878.40 0.112
878.50 0.112
878.60 0.112
878.70 0.112
878.80 0.112
878.90 0.1119
879.00 0.1119
879.10 0.1119
879.20 0.1119
879.30 0.1119
879.40 0.1119
879.50 0.1119
879.60 0.1119
879.70 0.1119
879.80 0.1118
879.90 0.1118
880.00 0.1118
880.10 0.1118
880.20 0.1118
880.30 0.1118
880.40 0.1118
880.50 0.1118
880.60 0.1117
880.70 0.1117
880.80 0.1117
880.90 0.1117
881.00 0.1117
881.10 0.1117
881.20 0.1117
881.30 0.1117
881.40 0.1116
881.50 0.1116
881.60 0.1116
881.70 0.1116
881.80 0.1116
881.90 0.1116
882.00 0.1116
882.10 0.1115
882.20 0.1115
882.30 0.1115
882.40 0.1115
882.50 0.1114
882.60 0.1114
882.70 0.1114
882.80 0.1114
882.90 0.1114
883.00 0.1113
883.10 0.1113
883.20 0.1113
883.30 0.1113
883.40 0.1112
883.50 0.1112
883.60 0.1112
883.70 0.1112
883.80 0.1111
883.90 0.1111
884.00 0.1111
884.10 0.1111
884.20 0.111
884.30 0.111
884.40 0.111
884.50 0.111
884.60 0.1109
884.70 0.1109
884.80 0.1109
884.90 0.1109
885.00 0.1108
885.10 0.1108
885.20 0.1108
885.30 0.1108
885.40 0.1108
885.50 0.1107
885.60 0.1107
885.70 0.1107
885.80 0.1107
885.90 0.1106
886.00 0.1106
886.10 0.1106
886.20 0.1106
886.30 0.1105
886.40 0.1105
886.50 0.1105
886.60 0.1105
886.70 0.1104
886.80 0.1104
886.90 0.1104
887.00 0.1104
887.10 0.1103
887.20 0.1103
887.30 0.1103
887.40 0.1102
887.50 0.1102
887.60 0.1102
887.70 0.1101
887.80 0.1101
887.90 0.1101
888.00 0.11
888.10 0.11
888.20 0.11
888.30 0.1099
888.40 0.1099
888.50 0.1098
888.60 0.1098
888.70 0.1098
888.80 0.1097
888.90 0.1097
889.00 0.1097
889.10 0.1096
889.20 0.1096
889.30 0.1096
889.40 0.1095
889.50 0.1095
889.60 0.1095
889.70 0.1094
889.80 0.1094
889.90 0.1094
890.00 0.1093
890.10 0.1093
890.20 0.1093
890.30 0.1092
890.40 0.1092
890.50 0.1092
890.60 0.1091
890.70 0.1091
890.80 0.109
890.90 0.109
891.00 0.109
891.10 0.1089
891.20 0.1089
891.30 0.1089
891.40 0.1088
891.50 0.1088
891.60 0.1088
891.70 0.1087
891.80 0.1087
891.90 0.1087
892.00 0.1086
892.10 0.1086
892.20 0.1085
892.30 0.1085
892.40 0.1085
892.50 0.1084
892.60 0.1084
892.70 0.1083
892.80 0.1083
892.90 0.1083
893.00 0.1082
893.10 0.1082
893.20 0.1081
893.30 0.1081
893.40 0.108
893.50 0.108
893.60 0.108
893.70 0.1079
893.80 0.1079
893.90 0.1078
894.00 0.1078
894.10 0.1078
894.20 0.1077
894.30 0.1077
894.40 0.1076
894.50 0.1076
894.60 0.1075
894.70 0.1075
894.80 0.1075
894.90 0.1074
895.00 0.1074
895.10 0.1073
895.20 0.1073
895.30 0.1073
895.40 0.1072
895.50 0.1072
895.60 0.1071
895.70 0.1071
895.80 0.1071
895.90 0.107
896.00 0.107
896.10 0.1069
896.20 0.1069
896.30 0.1068
896.40 0.1068
896.50 0.1068
896.60 0.1067
896.70 0.1067
896.80 0.1066
896.90 0.1066
897.00 0.1066
897.10 0.1065
897.20 0.1065
897.30 0.1064
897.40 0.1064
897.50 0.1063
897.60 0.1063
897.70 0.1062
897.80 0.1062
897.90 0.1061
898.00 0.1061
898.10 0.106
898.20 0.106
898.30 0.1059
898.40 0.1059
898.50 0.1058
898.60 0.1058
898.70 0.1057
898.80 0.1057
898.90 0.1056
899.00 0.1056
899.10 0.1055
899.20 0.1055
899.30 0.1054
899.40 0.1054
899.50 0.1053
899.60 0.1053
899.70 0.1052
899.80 0.1052
899.90 0.1051
900.00 0.1051
900.10 0.105
900.20 0.105
900.30 0.1049
900.40 0.1049
900.50 0.1048
900.60 0.1048
900.70 0.1047
900.80 0.1047
900.90 0.1046
901.00 0.1046
901.10 0.1046
901.20 0.1045
901.30 0.1045
901.40 0.1044
901.50 0.1044
901.60 0.1043
901.70 0.1043
901.80 0.1042
901.90 0.1042
902.00 0.1041
902.10 0.1041
902.20 0.104
902.30 0.1039
902.40 0.1039
902.50 0.1038
902.60 0.1038
902.70 0.1037
902.80 0.1037
902.90 0.1036
903.00 0.1036
903.10 0.1035
903.20 0.1034
903.30 0.1034
903.40 0.1033
903.50 0.1033
903.60 0.1032
903.70 0.1032
903.80 0.1031
903.90 0.1031
904.00 0.103
904.10 0.1029
904.20 0.1029
904.30 0.1028
904.40 0.1028
904.50 0.1027
904.60 0.1027
904.70 0.1026
904.80 0.1026
904.90 0.1025
905.00 0.1024
905.10 0.1024
905.20 0.1023
905.30 0.1023
905.40 0.1022
905.50 0.1022
905.60 0.1021
905.70 0.1021
905.80 0.102
905.90 0.1019
906.00 0.1019
906.10 0.1018
906.20 0.1018
906.30 0.1017
906.40 0.1017
906.50 0.1016
906.60 0.1016
906.70 0.1015
906.80 0.1015
906.90 0.1014
907.00 0.1013
907.10 0.1013
907.20 0.1012
907.30 0.1012
907.40 0.1011
907.50 0.101
907.60 0.101
907.70 0.1009
907.80 0.1008
907.90 0.1008
908.00 0.1007
908.10 0.1006
908.20 0.1006
908.30 0.1005
908.40 0.1004
908.50 0.1004
908.60 0.1003
908.70 0.1003
908.80 0.1002
908.90 0.1001
909.00 0.1001
909.10 0.1
909.20 0.09993
909.30 0.09987
909.40 0.09981
909.50 0.09974
909.60 0.09968
909.70 0.09961
909.80 0.09955
909.90 0.09949
910.00 0.09942
910.10 0.09936
910.20 0.0993
910.30 0.09923
910.40 0.09917
910.50 0.09911
910.60 0.09904
910.70 0.09898
910.80 0.09892
910.90 0.09885
911.00 0.09879
911.10 0.09873
911.20 0.09866
911.30 0.0986
911.40 0.09854
911.50 0.09847
911.60 0.09841
911.70 0.09835
911.80 0.09828
911.90 0.09822
912.00 0.09816
912.10 0.09808
912.20 0.09801
912.30 0.09794
912.40 0.09787
912.50 0.0978
912.60 0.09773
912.70 0.09766
912.80 0.09759
912.90 0.09752
913.00 0.09744
913.10 0.09737
913.20 0.0973
913.30 0.09723
913.40 0.09716
913.50 0.09709
913.60 0.09702
913.70 0.09695
913.80 0.09688
913.90 0.09681
914.00 0.09674
914.10 0.09666
914.20 0.09659
914.30 0.09652
914.40 0.09645
914.50 0.09638
914.60 0.09631
914.70 0.09624
914.80 0.09617
914.90 0.0961
915.00 0.09603
915.10 0.09596
915.20 0.09589
915.30 0.09582
915.40 0.09575
915.50 0.09568
915.60 0.09561
915.70 0.09554
915.80 0.09547
915.90 0.0954
916.00 0.09533
916.10 0.09526
916.20 0.09519
916.30 0.09512
916.40 0.09505
916.50 0.09498
916.60 0.09491
916.70 0.09484
916.80 0.09477
916.90 0.0947
917.00 0.09463
917.10 0.09455
917.20 0.09447
917.30 0.09439
917.40 0.09432
917.50 0.09424
917.60 0.09416
917.70 0.09409
917.80 0.09401
917.90 0.09393
918.00 0.09385
918.10 0.09378
918.20 0.0937
918.30 0.09362
918.40 0.09355
918.50 0.09347
918.60 0.09339
918.70 0.09331
918.80 0.09324
918.90 0.09316
919.00 0.09308
919.10 0.09301
919.20 0.09293
919.30 0.09285
919.40 0.09278
919.50 0.0927
919.60 0.09262
919.70 0.09255
919.80 0.09247
919.90 0.09239
920.00 0.09232
920.10 0.09224
920.20 0.09216
920.30 0.09209
920.40 0.09201
920.50 0.09194
920.60 0.09186
920.70 0.09178
920.80 0.09171
920.90 0.09163
921.00 0.09155
921.10 0.09148
921.20 0.0914
921.30 0.09133
921.40 0.09125
921.50 0.09117
921.60 0.0911
921.70 0.09102
921.80 0.09095
921.90 0.09087
922.00 0.09079
922.10 0.09071
922.20 0.09063
922.30 0.09055
922.40 0.09047
922.50 0.09038
922.60 0.0903
922.70 0.09022
922.80 0.09014
922.90 0.09006
923.00 0.08998
923.10 0.08989
923.20 0.08981
923.30 0.08973
923.40 0.08965
923.50 0.08957
923.60 0.08949
923.70 0.0894
923.80 0.08932
923.90 0.08924
924.00 0.08916
924.10 0.08908
924.20 0.089
924.30 0.08892
924.40 0.08884
924.50 0.08875
924.60 0.08867
924.70 0.08859
924.80 0.08851
924.90 0.08843
925.00 0.08835
925.10 0.08827
925.20 0.08819
925.30 0.08811
925.40 0.08803
925.50 0.08794
925.60 0.08786
925.70 0.08778
925.80 0.0877
925.90 0.08762
926.00 0.08754
926.10 0.08746
926.20 0.08738
926.30 0.0873
926.40 0.08722
926.50 0.08714
926.60 0.08706
926.70 0.08698
926.80 0.0869
926.90 0.08682
927.00 0.08674
927.10 0.08665
927.20 0.08656
927.30 0.08648
927.40 0.08639
927.50 0.08631
927.60 0.08622
927.70 0.08613
927.80 0.08605
927.90 0.08596
928.00 0.08588
928.10 0.08579
928.20 0.0857
928.30 0.08562
928.40 0.08553
928.50 0.08545
928.60 0.08536
928.70 0.08528
928.80 0.08519
928.90 0.0851
929.00 0.08502
929.10 0.08493
929.20 0.08485
929.30 0.08476
929.40 0.08468
929.50 0.08459
929.60 0.08451
929.70 0.08442
929.80 0.08434
929.90 0.08425
930.00 0.08417
930.10 0.08408
930.20 0.084
930.30 0.08391
930.40 0.08383
930.50 0.08374
930.60 0.08366
930.70 0.08357
930.80 0.08349
930.90 0.0834
931.00 0.08332
931.10 0.08323
931.20 0.08315
931.30 0.08306
931.40 0.08298
931.50 0.08289
931.60 0.08281
931.70 0.08272
931.80 0.08264
931.90 0.08255
932.00 0.08247
932.10 0.08238
932.20 0.0823
932.30 0.08221
932.40 0.08212
932.50 0.08204
932.60 0.08195
932.70 0.08186
932.80 0.08178
932.90 0.08169
933.00 0.08161
933.10 0.08152
933.20 0.08143
933.30 0.08135
933.40 0.08126
933.50 0.08118
933.60 0.08109
933.70 0.081
933.80 0.08092
933.90 0.08083
934.00 0.08075
934.10 0.08066
934.20 0.08057
934.30 0.08049
934.40 0.0804
934.50 0.08031
934.60 0.08023
934.70 0.08014
934.80 0.08005
934.90 0.07997
935.00 0.07988
935.10 0.07979
935.20 0.07971
935.30 0.07962
935.40 0.07953
935.50 0.07945
935.60 0.07936
935.70 0.07927
935.80 0.07919
935.90 0.0791
936.00 0.07901
936.10 0.07893
936.20 0.07884
936.30 0.07875
936.40 0.07867
936.50 0.07858
936.60 0.07849
936.70 0.07841
936.80 0.07832
936.90 0.07823
937.00 0.07815
937.10 0.07806
937.20 0.07797
937.30 0.07789
937.40 0.0778
937.50 0.07771
937.60 0.07763
937.70 0.07754
937.80 0.07745
937.90 0.07737
938.00 0.07728
938.10 0.07719
938.20 0.0771
938.30 0.07702
938.40 0.07693
938.50 0.07684
938.60 0.07675
938.70 0.07666
938.80 0.07657
938.90 0.07649
939.00 0.0764
939.10 0.07631
939.20 0.07622
939.30 0.07613
939.40 0.07604
939.50 0.07595
939.60 0.07587
939.70 0.07578
939.80 0.07569
939.90 0.0756
940.00 0.07551
940.10 0.07542
940.20 0.07534
940.30 0.07525
940.40 0.07516
940.50 0.07507
940.60 0.07499
940.70 0.0749
940.80 0.07481
940.90 0.07473
941.00 0.07464
941.10 0.07455
941.20 0.07447
941.30 0.07438
941.40 0.07429
941.50 0.07421
941.60 0.07412
941.70 0.07403
941.80 0.07395
941.90 0.07386
942.00 0.07377
942.10 0.07369
942.20 0.0736
942.30 0.07351
942.40 0.07342
942.50 0.07334
942.60 0.07325
942.70 0.07316
942.80 0.07308
942.90 0.07299
943.00 0.07291
943.10 0.07282
943.20 0.07273
943.30 0.07265
943.40 0.07256
943.50 0.07247
943.60 0.07239
943.70 0.0723
943.80 0.07221
943.90 0.07213
944.00 0.07204
944.10 0.07196
944.20 0.07187
944.30 0.07178
944.40 0.0717
944.50 0.07161
944.60 0.07153
944.70 0.07144
944.80 0.07135
944.90 0.07127
945.00 0.07118
945.10 0.07109
945.20 0.07101
945.30 0.07092
945.40 0.07084
945.50 0.07075
945.60 0.07066
945.70 0.07058
945.80 0.07049
945.90 0.07041
946.00 0.07032
946.10 0.07024
946.20 0.07015
946.30 0.07006
946.40 0.06998
946.50 0.06989
946.60 0.06981
946.70 0.06972
946.80 0.06964
946.90 0.06955
947.00 0.06946
947.10 0.06938
947.20 0.06929
947.30 0.06921
947.40 0.06912
947.50 0.06904
947.60 0.06895
947.70 0.06887
947.80 0.06878
947.90 0.0687
948.00 0.06861
948.10 0.06853
948.20 0.06844
948.30 0.06835
948.40 0.06827
948.50 0.06818
948.60 0.0681
948.70 0.06801
948.80 0.06793
948.90 0.06784
949.00 0.06776
949.10 0.06767
949.20 0.06759
949.30 0.0675
949.40 0.06742
949.50 0.06733
949.60 0.06725
949.70 0.06716
949.80 0.06708
949.90 0.06699
950.00 0.06691
950.10 0.06683
950.20 0.06674
950.30 0.06666
950.40 0.06657
950.50 0.06649
950.60 0.0664
950.70 0.06632
950.80 0.06623
950.90 0.06615
951.00 0.06607
951.10 0.06598
951.20 0.0659
951.30 0.06581
951.40 0.06573
951.50 0.06564
951.60 0.06556
951.70 0.06548
951.80 0.06539
951.90 0.06531
952.00 0.06522
952.10 0.06514
952.20 0.06506
952.30 0.06497
952.40 0.06489
952.50 0.0648
952.60 0.06472
952.70 0.06464
952.80 0.06455
952.90 0.06447
953.00 0.06439
953.10 0.0643
953.20 0.06422
953.30 0.06414
953.40 0.06405
953.50 0.06397
953.60 0.06389
953.70 0.0638
953.80 0.06372
953.90 0.06363
954.00 0.06355
954.10 0.06347
954.20 0.06338
954.30 0.0633
954.40 0.06322
954.50 0.06313
954.60 0.06305
954.70 0.06297
954.80 0.06289
954.90 0.0628
955.00 0.06272
955.10 0.06264
955.20 0.06255
955.30 0.06247
955.40 0.06239
955.50 0.06231
955.60 0.06222
955.70 0.06214
955.80 0.06206
955.90 0.06197
956.00 0.06189
956.10 0.0618
956.20 0.06172
956.30 0.06164
956.40 0.06155
956.50 0.06147
956.60 0.06138
956.70 0.0613
956.80 0.06122
956.90 0.06113
957.00 0.06105
957.10 0.06097
957.20 0.06088
957.30 0.0608
957.40 0.06072
957.50 0.06064
957.60 0.06056
957.70 0.06048
957.80 0.06039
957.90 0.06031
958.00 0.06023
958.10 0.06015
958.20 0.06007
958.30 0.05999
958.40 0.0599
958.50 0.05982
958.60 0.05974
958.70 0.05966
958.80 0.05958
958.90 0.0595
959.00 0.05942
959.10 0.05934
959.20 0.05925
959.30 0.05917
959.40 0.05909
959.50 0.05901
959.60 0.05893
959.70 0.05885
959.80 0.05877
959.90 0.05869
960.00 0.05861
960.10 0.05853
960.20 0.05845
960.30 0.05837
960.40 0.05829
960.50 0.05821
960.60 0.05813
960.70 0.05804
960.80 0.05796
960.90 0.05788
961.00 0.0578
961.10 0.05772
961.20 0.05764
961.30 0.05756
961.40 0.05748
961.50 0.0574
961.60 0.05732
961.70 0.05724
961.80 0.05717
961.90 0.05709
962.00 0.05701
962.10 0.05693
962.20 0.05685
962.30 0.05677
962.40 0.05669
962.50 0.05661
962.60 0.05653
962.70 0.05645
962.80 0.05637
962.90 0.05629
963.00 0.05621
963.10 0.05613
963.20 0.05605
963.30 0.05598
963.40 0.0559
963.50 0.05582
963.60 0.05574
963.70 0.05566
963.80 0.05558
963.90 0.0555
964.00 0.05542
964.10 0.05535
964.20 0.05527
964.30 0.05519
964.40 0.05511
964.50 0.05503
964.60 0.05495
964.70 0.05487
964.80 0.05479
964.90 0.05471
965.00 0.05463
965.10 0.05455
965.20 0.05447
965.30 0.05439
965.40 0.05431
965.50 0.05423
965.60 0.05415
965.70 0.05407
965.80 0.05399
965.90 0.05391
966.00 0.05383
966.10 0.05375
966.20 0.05367
966.30 0.05359
966.40 0.05351
966.50 0.05344
966.60 0.05336
966.70 0.05328
966.80 0.05321
966.90 0.05313
967.00 0.05305
967.10 0.05298
967.20 0.0529
967.30 0.05282
967.40 0.05275
967.50 0.05267
967.60 0.05259
967.70 0.05252
967.80 0.05244
967.90 0.05237
968.00 0.05229
968.10 0.05221
968.20 0.05214
968.30 0.05206
968.40 0.05199
968.50 0.05191
968.60 0.05184
968.70 0.05176
968.80 0.05169
968.90 0.05161
969.00 0.05154
969.10 0.05146
969.20 0.05139
969.30 0.05131
969.40 0.05124
969.50 0.05116
969.60 0.05109
969.70 0.05101
969.80 0.05094
969.90 0.05087
970.00 0.05079
970.10 0.05072
970.20 0.05064
970.30 0.05057
970.40 0.05049
970.50 0.05042
970.60 0.05035
970.70 0.05027
970.80 0.0502
970.90 0.05013
971.00 0.05005
971.10 0.04998
971.20 0.04991
971.30 0.04983
971.40 0.04976
971.50 0.04969
971.60 0.04961
971.70 0.04954
971.80 0.04947
971.90 0.04939
972.00 0.04932
972.10 0.04925
972.20 0.04918
972.30 0.04911
972.40 0.04903
972.50 0.04896
972.60 0.04889
972.70 0.04882
972.80 0.04875
972.90 0.04867
973.00 0.0486
973.10 0.04853
973.20 0.04846
973.30 0.04839
973.40 0.04831
973.50 0.04824
973.60 0.04817
973.70 0.0481
973.80 0.04803
973.90 0.04796
974.00 0.04788
974.10 0.04781
974.20 0.04774
974.30 0.04767
974.40 0.0476
974.50 0.04753
974.60 0.04746
974.70 0.04739
974.80 0.04732
974.90 0.04724
975.00 0.04717
975.10 0.0471
975.20 0.04703
975.30 0.04696
975.40 0.04689
975.50 0.04682
975.60 0.04675
975.70 0.04668
975.80 0.04661
975.90 0.04654
976.00 0.04647
976.10 0.0464
976.20 0.04632
976.30 0.04625
976.40 0.04618
976.50 0.04611
976.60 0.04604
976.70 0.04597
976.80 0.0459
976.90 0.04583
977.00 0.04576
977.10 0.04569
977.20 0.04563
977.30 0.04556
977.40 0.04549
977.50 0.04543
977.60 0.04536
977.70 0.04529
977.80 0.04522
977.90 0.04516
978.00 0.04509
978.10 0.04502
978.20 0.04496
978.30 0.04489
978.40 0.04482
978.50 0.04476
978.60 0.04469
978.70 0.04462
978.80 0.04456
978.90 0.04449
979.00 0.04442
979.10 0.04436
979.20 0.04429
979.30 0.04422
979.40 0.04416
979.50 0.04409
979.60 0.04403
979.70 0.04396
979.80 0.04389
979.90 0.04383
980.00 0.04376
980.10 0.04369
980.20 0.04363
980.30 0.04356
980.40 0.04349
980.50 0.04343
980.60 0.04336
980.70 0.0433
980.80 0.04323
980.90 0.04316
981.00 0.0431
981.10 0.04303
981.20 0.04297
981.30 0.0429
981.40 0.04283
981.50 0.04277
981.60 0.0427
981.70 0.04264
981.80 0.04257
981.90 0.0425
982.00 0.04244
982.10 0.04238
982.20 0.04231
982.30 0.04225
982.40 0.04219
982.50 0.04212
982.60 0.04206
982.70 0.04199
982.80 0.04193
982.90 0.04187
983.00 0.0418
983.10 0.04174
983.20 0.04168
983.30 0.04161
983.40 0.04155
983.50 0.04149
983.60 0.04142
983.70 0.04136
983.80 0.0413
983.90 0.04124
984.00 0.04117
984.10 0.04111
984.20 0.04105
984.30 0.04098
984.40 0.04092
984.50 0.04086
984.60 0.04079
984.70 0.04073
984.80 0.04068
984.90 0.04062
985.00 0.04056
985.10 0.0405
985.20 0.04044
985.30 0.04038
985.40 0.04032
985.50 0.04026
985.60 0.0402
985.70 0.04014
985.80 0.04008
985.90 0.04003
986.00 0.03997
986.10 0.03991
986.20 0.03985
986.30 0.03979
986.40 0.03973
986.50 0.03967
986.60 0.03961
986.70 0.03956
986.80 0.0395
986.90 0.03944
987.00 0.03938
987.10 0.03932
987.20 0.03926
987.30 0.0392
987.40 0.03913
987.50 0.03907
987.60 0.03901
987.70 0.03895
987.80 0.03889
987.90 0.03883
988.00 0.03877
988.10 0.0387
988.20 0.03864
988.30 0.03858
988.40 0.03852
988.50 0.03846
988.60 0.0384
988.70 0.03834
988.80 0.03828
988.90 0.03822
989.00 0.03815
989.10 0.03809
989.20 0.03803
989.30 0.03797
989.40 0.03791
989.50 0.03785
989.60 0.03779
989.70 0.03773
989.80 0.03767
989.90 0.03761
990.00 0.03755
990.10 0.03748
990.20 0.03742
990.30 0.03736
990.40 0.0373
990.50 0.03724
990.60 0.03718
990.70 0.03712
990.80 0.03706
990.90 0.037
991.00 0.03694
991.10 0.03688
991.20 0.03682
991.30 0.03676
991.40 0.0367
991.50 0.03663
991.60 0.03657
991.70 0.03651
991.80 0.03645
991.90 0.03639
992.00 0.03633
992.10 0.03627
992.20 0.03621
992.30 0.03615
992.40 0.03609
992.50 0.03603
992.60 0.03597
992.70 0.03591
992.80 0.03585
992.90 0.03579
993.00 0.03573
993.10 0.03567
993.20 0.03561
993.30 0.03555
993.40 0.03549
993.50 0.03543
993.60 0.03537
993.70 0.03531
993.80 0.03525
993.90 0.03519
994.00 0.03513
994.10 0.03507
994.20 0.03501
994.30 0.03495
994.40 0.03489
994.50 0.03483
994.60 0.03477
994.70 0.0347
994.80 0.03462
994.90 0.03455
995.00 0.03448
995.10 0.0344
995.20 0.03433
995.30 0.03425
995.40 0.03418
995.50 0.0341
995.60 0.03403
995.70 0.03397
995.80 0.03391
995.90 0.03385
996.00 0.03379
996.10 0.03374
996.20 0.03368
996.30 0.03362
996.40 0.03356
996.50 0.03351
996.60 0.03345
996.70 0.03339
996.80 0.03333
996.90 0.03328
997.00 0.03322
997.10 0.03316
997.20 0.03311
997.30 0.03305
997.40 0.03299
997.50 0.03294
997.60 0.03288
997.70 0.03283
997.80 0.03277
997.90 0.03272
998.00 0.03266
998.10 0.03261
998.20 0.03255
998.30 0.0325
998.40 0.03244
998.50 0.03239
998.60 0.03233
998.70 0.03228
998.80 0.03222
998.90 0.03217
999.00 0.03212
999.10 0.03206
999.20 0.03201
999.30 0.03195
999.40 0.0319
999.50 0.03184
999.60 0.03179
999.70 0.03174
999.80 0.03168
999.90 0.03163
1000.00 0.03158
1000.10 0.03153
1000.20 0.03148
1000.30 0.03142
1000.40 0.03137
1000.50 0.03132
1000.60 0.03127
1000.70 0.03122
1000.80 0.03117
1000.90 0.03111
1001.00 0.03106
1001.10 0.03101
1001.20 0.03096
1001.30 0.03091
1001.40 0.03085
1001.50 0.0308
1001.60 0.03075
1001.70 0.0307
1001.80 0.03065
1001.90 0.0306
1002.00 0.03055
1002.10 0.0305
1002.20 0.03045
1002.30 0.0304
1002.40 0.03035
1002.50 0.0303
1002.60 0.03025
1002.70 0.0302
1002.80 0.03015
1002.90 0.0301
1003.00 0.03005
1003.10 0.03
1003.20 0.02996
1003.30 0.02991
1003.40 0.02986
1003.50 0.02981
1003.60 0.02976
1003.70 0.02971
1003.80 0.02967
1003.90 0.02962
1004.00 0.02957
1004.10 0.02952
1004.20 0.02947
1004.30 0.02943
1004.40 0.02938
1004.50 0.02933
1004.60 0.02928
1004.70 0.02924
1004.80 0.02919
1004.90 0.02913
1005.00 0.02906
1005.10 0.02901
1005.20 0.02896
1005.30 0.02892
1005.40 0.02887
1005.50 0.02883
1005.60 0.02878
1005.70 0.02873
1005.80 0.02869
1005.90 0.02864
1006.00 0.0286
1006.10 0.02855
1006.20 0.02851
1006.30 0.02846
1006.40 0.02842
1006.50 0.02837
1006.60 0.02833
1006.70 0.02829
1006.80 0.02824
1006.90 0.0282
1007.00 0.02815
1007.10 0.02811
1007.20 0.02806
1007.30 0.02802
1007.40 0.02798
1007.50 0.02793
1007.60 0.02789
1007.70 0.02785
1007.80 0.02781
1007.90 0.02777
1008.00 0.02772
1008.10 0.02768
1008.20 0.02764
1008.30 0.0276
1008.40 0.02756
1008.50 0.02752
1008.60 0.02747
1008.70 0.02743
1008.80 0.02739
1008.90 0.02735
1009.00 0.02731
1009.10 0.02727
1009.20 0.02722
1009.30 0.02718
1009.40 0.02714
1009.50 0.0271
1009.60 0.02706
1009.70 0.02702
1009.80 0.02698
1009.90 0.02694
1010.00 0.0269
1010.10 0.02686
1010.20 0.02682
1010.30 0.02678
1010.40 0.02674
1010.50 0.02671
1010.60 0.02667
1010.70 0.02663
1010.80 0.02659
1010.90 0.02655
1011.00 0.02651
1011.10 0.02647
1011.20 0.02643
1011.30 0.02639
1011.40 0.02635
1011.50 0.02632
1011.60 0.02628
1011.70 0.02624
1011.80 0.0262
1011.90 0.02616
1012.00 0.02612
1012.10 0.02609
1012.20 0.02605
1012.30 0.02602
1012.40 0.02598
1012.50 0.02594
1012.60 0.02591
1012.70 0.02587
1012.80 0.02583
1012.90 0.0258
1013.00 0.02576
1013.10 0.02572
1013.20 0.02569
1013.30 0.02565
1013.40 0.02562
1013.50 0.02558
1013.60 0.02554
1013.70 0.02551
1013.80 0.02547
1013.90 0.02544
1014.00 0.0254
1014.10 0.02537
1014.20 0.02533
1014.30 0.0253
1014.40 0.02526
1014.50 0.02523
1014.60 0.02519
1014.70 0.02516
1014.80 0.02513
1014.90 0.0251
1015.00 0.02507
1015.10 0.02504
1015.20 0.02501
1015.30 0.02498
1015.40 0.02495
1015.50 0.02492
1015.60 0.02489
1015.70 0.02486
1015.80 0.02483
1015.90 0.0248
1016.00 0.02477
1016.10 0.02474
1016.20 0.02471
1016.30 0.02468
1016.40 0.02465
1016.50 0.02462
1016.60 0.02459
1016.70 0.02456
1016.80 0.02453
1016.90 0.02449
1017.00 0.02446
1017.10 0.02443
1017.20 0.0244
1017.30 0.02436
1017.40 0.02433
1017.50 0.0243
1017.60 0.02427
1017.70 0.02423
1017.80 0.0242
1017.90 0.02417
1018.00 0.02414
1018.10 0.02411
1018.20 0.02407
1018.30 0.02404
1018.40 0.02401
1018.50 0.02398
1018.60 0.02394
1018.70 0.02391
1018.80 0.02388
1018.90 0.02385
1019.00 0.02382
1019.10 0.02379
1019.20 0.02376
1019.30 0.02373
1019.40 0.02369
1019.50 0.02366
1019.60 0.02363
1019.70 0.0236
1019.80 0.02357
1019.90 0.02354
1020.00 0.02351
1020.10 0.02348
1020.20 0.02344
1020.30 0.02341
1020.40 0.02338
1020.50 0.02335
1020.60 0.02332
1020.70 0.02329
1020.80 0.02326
1020.90 0.02323
1021.00 0.0232
1021.10 0.02317
1021.20 0.02314
1021.30 0.02311
1021.40 0.02308
1021.50 0.02305
1021.60 0.02302
1021.70 0.02299
1021.80 0.02295
1021.90 0.02292
1022.00 0.02289
1022.10 0.02286
1022.20 0.02284
1022.30 0.02281
1022.40 0.02278
1022.50 0.02275
1022.60 0.02272
1022.70 0.02269
1022.80 0.02266
1022.90 0.02263
1023.00 0.0226
1023.10 0.02257
1023.20 0.02254
1023.30 0.02251
1023.40 0.02248
1023.50 0.02245
1023.60 0.02242
1023.70 0.02239
1023.80 0.02236
1023.90 0.02234
1024.00 0.02231
1024.10 0.02228
1024.20 0.02225
1024.30 0.02222
1024.40 0.02219
1024.50 0.02216
1024.60 0.02213
1024.70 0.0221
1024.80 0.02207
1024.90 0.02204
1025.00 0.02201
1025.10 0.02199
1025.20 0.02196
1025.30 0.02193
1025.40 0.0219
1025.50 0.02187
1025.60 0.02184
1025.70 0.02181
1025.80 0.02178
1025.90 0.02175
1026.00 0.02173
1026.10 0.0217
1026.20 0.02167
1026.30 0.02164
1026.40 0.02161
1026.50 0.02158
1026.60 0.02155
1026.70 0.02152
1026.80 0.02149
1026.90 0.02147
1027.00 0.02144
1027.10 0.02141
1027.20 0.02138
1027.30 0.02136
1027.40 0.02133
1027.50 0.02131
1027.60 0.02128
1027.70 0.02125
1027.80 0.02123
1027.90 0.0212
1028.00 0.02118
1028.10 0.02115
1028.20 0.02112
1028.30 0.0211
1028.40 0.02107
1028.50 0.02104
1028.60 0.02102
1028.70 0.02099
1028.80 0.02097
1028.90 0.02094
1029.00 0.02091
1029.10 0.02089
1029.20 0.02086
1029.30 0.02084
1029.40 0.02081
1029.50 0.02078
1029.60 0.02076
1029.70 0.02073
1029.80 0.02071
1029.90 0.02068
1030.00 0.02066
1030.10 0.02063
1030.20 0.0206
1030.30 0.02058
1030.40 0.02055
1030.50 0.02053
1030.60 0.0205
1030.70 0.02047
1030.80 0.02045
1030.90 0.02042
1031.00 0.0204
1031.10 0.02037
1031.20 0.02034
1031.30 0.02032
1031.40 0.02029
1031.50 0.02027
1031.60 0.02024
1031.70 0.02022
1031.80 0.02019
1031.90 0.02016
1032.00 0.02014
1032.10 0.02011
1032.20 0.02009
1032.30 0.02007
1032.40 0.02004
1032.50 0.02002
1032.60 0.02
1032.70 0.01997
1032.80 0.01995
1032.90 0.01993
1033.00 0.0199
1033.10 0.01988
1033.20 0.01985
1033.30 0.01983
1033.40 0.01981
1033.50 0.01978
1033.60 0.01976
1033.70 0.01974
1033.80 0.01971
1033.90 0.01969
1034.00 0.01967
1034.10 0.01964
1034.20 0.01962
1034.30 0.01959
1034.40 0.01957
1034.50 0.01955
1034.60 0.01952
1034.70 0.0195
1034.80 0.01948
1034.90 0.01945
1035.00 0.01943
1035.10 0.01941
1035.20 0.01938
1035.30 0.01936
1035.40 0.01934
1035.50 0.01931
1035.60 0.01929
1035.70 0.01927
1035.80 0.01924
1035.90 0.01922
1036.00 0.0192
1036.10 0.01917
1036.20 0.01915
1036.30 0.01913
1036.40 0.0191
1036.50 0.01908
1036.60 0.01906
1036.70 0.01903
1036.80 0.01901
1036.90 0.01899
1037.00 0.01896
1037.10 0.01894
1037.20 0.01892
1037.30 0.0189
1037.40 0.01888
1037.50 0.01886
1037.60 0.01884
1037.70 0.01882
1037.80 0.0188
1037.90 0.01878
1038.00 0.01876
1038.10 0.01874
1038.20 0.01871
1038.30 0.01869
1038.40 0.01867
1038.50 0.01865
1038.60 0.01863
1038.70 0.01861
1038.80 0.01859
1038.90 0.01857
1039.00 0.01855
1039.10 0.01853
1039.20 0.01851
1039.30 0.01849
1039.40 0.01847
1039.50 0.01845
1039.60 0.01843
1039.70 0.01841
1039.80 0.01839
1039.90 0.01837
1040.00 0.01835
1040.10 0.01833
1040.20 0.0183
1040.30 0.01828
1040.40 0.01826
1040.50 0.01824
1040.60 0.01822
1040.70 0.0182
1040.80 0.01818
1040.90 0.01816
1041.00 0.01814
1041.10 0.01812
1041.20 0.0181
1041.30 0.01808
1041.40 0.01806
1041.50 0.01804
1041.60 0.01802
1041.70 0.018
1041.80 0.01798
1041.90 0.01796
1042.00 0.01794
1042.10 0.01792
1042.20 0.0179
1042.30 0.01788
1042.40 0.01787
1042.50 0.01785
1042.60 0.01783
1042.70 0.01781
1042.80 0.0178
1042.90 0.01778
1043.00 0.01776
1043.10 0.01774
1043.20 0.01772
1043.30 0.01771
1043.40 0.01769
1043.50 0.01767
1043.60 0.01765
1043.70 0.01763
1043.80 0.01762
1043.90 0.0176
1044.00 0.01758
1044.10 0.01756
1044.20 0.01755
1044.30 0.01753
1044.40 0.01751
1044.50 0.01749
1044.60 0.01747
1044.70 0.01746
1044.80 0.01744
1044.90 0.01742
1045.00 0.0174
1045.10 0.01738
1045.20 0.01737
1045.30 0.01735
1045.40 0.01733
1045.50 0.01731
1045.60 0.0173
1045.70 0.01728
1045.80 0.01726
1045.90 0.01724
1046.00 0.01723
1046.10 0.01721
1046.20 0.01719
1046.30 0.01717
1046.40 0.01715
1046.50 0.01714
1046.60 0.01712
1046.70 0.0171
1046.80 0.01708
1046.90 0.01707
1047.00 0.01705
1047.10 0.01703
1047.20 0.01702
1047.30 0.017
1047.40 0.01699
1047.50 0.01697
1047.60 0.01696
1047.70 0.01694
1047.80 0.01693
1047.90 0.01691
1048.00 0.01689
1048.10 0.01688
1048.20 0.01686
1048.30 0.01685
1048.40 0.01683
1048.50 0.01682
1048.60 0.0168
1048.70 0.01679
1048.80 0.01677
1048.90 0.01676
1049.00 0.01674
1049.10 0.01673
1049.20 0.01671
1049.30 0.01669
1049.40 0.01668
1049.50 0.01666
1049.60 0.01665
1049.70 0.01663
1049.80 0.01662
1049.90 0.0166
1050.00 0.01659
1050.10 0.01657
1050.20 0.01656
1050.30 0.01654
1050.40 0.01653
1050.50 0.01651
1050.60 0.0165
1050.70 0.01648
1050.80 0.01647
1050.90 0.01645
1051.00 0.01643
1051.10 0.01642
1051.20 0.0164
1051.30 0.01639
1051.40 0.01637
1051.50 0.01636
1051.60 0.01634
1051.70 0.01633
1051.80 0.01631
1051.90 0.0163
1052.00 0.01628
1052.10 0.01627
1052.20 0.01626
1052.30 0.01624
1052.40 0.01623
1052.50 0.01621
1052.60 0.0162
1052.70 0.01619
1052.80 0.01617
1052.90 0.01616
1053.00 0.01614
1053.10 0.01613
1053.20 0.01612
1053.30 0.0161
1053.40 0.01609
1053.50 0.01608
1053.60 0.01606
1053.70 0.01605
1053.80 0.01603
1053.90 0.01602
1054.00 0.01601
1054.10 0.01599
1054.20 0.01598
1054.30 0.01596
1054.40 0.01595
1054.50 0.01594
1054.60 0.01592
1054.70 0.01591
1054.80 0.0159
1054.90 0.01588
1055.00 0.01587
1055.10 0.01585
1055.20 0.01584
1055.30 0.01583
1055.40 0.01581
1055.50 0.0158
1055.60 0.01579
1055.70 0.01577
1055.80 0.01576
1055.90 0.01574
1056.00 0.01573
1056.10 0.01572
1056.20 0.0157
1056.30 0.01569
1056.40 0.01568
1056.50 0.01566
1056.60 0.01565
1056.70 0.01564
1056.80 0.01562
1056.90 0.01561
1057.00 0.01559
1057.10 0.01558
1057.20 0.01557
1057.30 0.01556
1057.40 0.01555
1057.50 0.01553
1057.60 0.01552
1057.70 0.01551
1057.80 0.0155
1057.90 0.01548
1058.00 0.01547
1058.10 0.01546
1058.20 0.01545
1058.30 0.01543
1058.40 0.01542
1058.50 0.01541
1058.60 0.0154
1058.70 0.01539
1058.80 0.01537
1058.90 0.01536
1059.00 0.01535
1059.10 0.01534
1059.20 0.01533
1059.30 0.01531
1059.40 0.0153
1059.50 0.01529
1059.60 0.01528
1059.70 0.01526
1059.80 0.01525
1059.90 0.01524
1060.00 0.01523
1060.10 0.01522
1060.20 0.0152
1060.30 0.01519
1060.40 0.01518
1060.50 0.01517
1060.60 0.01515
1060.70 0.01514
1060.80 0.01513
1060.90 0.01512
1061.00 0.01511
1061.10 0.01509
1061.20 0.01508
1061.30 0.01507
1061.40 0.01506
1061.50 0.01505
1061.60 0.01503
1061.70 0.01502
1061.80 0.01501
1061.90 0.015
1062.00 0.01499
1062.10 0.01498
1062.20 0.01496
1062.30 0.01495
1062.40 0.01494
1062.50 0.01493
1062.60 0.01492
1062.70 0.01491
1062.80 0.0149
1062.90 0.01489
1063.00 0.01488
1063.10 0.01487
1063.20 0.01486
1063.30 0.01485
1063.40 0.01484
1063.50 0.01483
1063.60 0.01482
1063.70 0.01481
1063.80 0.0148
1063.90 0.01479
1064.00 0.01477
1064.10 0.01476
1064.20 0.01475
1064.30 0.01474
1064.40 0.01473
1064.50 0.01472
1064.60 0.01471
1064.70 0.0147
1064.80 0.01469
1064.90 0.01468
1065.00 0.01467
1065.10 0.01466
1065.20 0.01465
1065.30 0.01464
1065.40 0.01463
1065.50 0.01462
1065.60 0.01461
1065.70 0.0146
1065.80 0.01459
1065.90 0.01458
1066.00 0.01457
1066.10 0.01455
1066.20 0.01454
1066.30 0.01453
1066.40 0.01452
1066.50 0.01451
1066.60 0.0145
1066.70 0.01449
1066.80 0.01448
1066.90 0.01447
1067.00 0.01446
1067.10 0.01445
1067.20 0.01444
1067.30 0.01443
1067.40 0.01442
1067.50 0.01441
1067.60 0.0144
1067.70 0.01439
1067.80 0.01438
1067.90 0.01437
1068.00 0.01437
1068.10 0.01436
1068.20 0.01435
1068.30 0.01434
1068.40 0.01433
1068.50 0.01432
1068.60 0.01431
1068.70 0.0143
1068.80 0.01429
1068.90 0.01428
1069.00 0.01427
1069.10 0.01426
1069.20 0.01425
1069.30 0.01424
1069.40 0.01423
1069.50 0.01422
1069.60 0.01421
1069.70 0.0142
1069.80 0.01419
1069.90 0.01418
1070.00 0.01417
1070.10 0.01416
1070.20 0.01416
1070.30 0.01415
1070.40 0.01414
1070.50 0.01413
1070.60 0.01412
1070.70 0.01411
1070.80 0.0141
1070.90 0.01409
1071.00 0.01408
1071.10 0.01407
1071.20 0.01406
1071.30 0.01405
1071.40 0.01404
1071.50 0.01403
1071.60 0.01402
1071.70 0.01401
1071.80 0.014
1071.90 0.01399
1072.00 0.01398
1072.10 0.01398
1072.20 0.01397
1072.30 0.01396
1072.40 0.01395
1072.50 0.01395
1072.60 0.01394
1072.70 0.01393
1072.80 0.01392
1072.90 0.01392
1073.00 0.01391
1073.10 0.0139
1073.20 0.01389
1073.30 0.01389
1073.40 0.01388
1073.50 0.01387
1073.60 0.01387
1073.70 0.01386
1073.80 0.01385
1073.90 0.01385
1074.00 0.01384
1074.10 0.01383
1074.20 0.01383
1074.30 0.01382
1074.40 0.01381
1074.50 0.01381
1074.60 0.0138
1074.70 0.01379
1074.80 0.01379
1074.90 0.01378
1075.00 0.01377
1075.10 0.01377
1075.20 0.01376
1075.30 0.01375
1075.40 0.01375
1075.50 0.01374
1075.60 0.01373
1075.70 0.01373
1075.80 0.01372
1075.90 0.01372
1076.00 0.01371
1076.10 0.0137
1076.20 0.0137
1076.30 0.01369
1076.40 0.01368
1076.50 0.01368
1076.60 0.01367
1076.70 0.01366
1076.80 0.01366
1076.90 0.01365
1077.00 0.01364
1077.10 0.01364
1077.20 0.01363
1077.30 0.01363
1077.40 0.01362
1077.50 0.01362
1077.60 0.01361
1077.70 0.01361
1077.80 0.0136
1077.90 0.0136
1078.00 0.01359
1078.10 0.01359
1078.20 0.01358
1078.30 0.01358
1078.40 0.01357
1078.50 0.01357
1078.60 0.01356
1078.70 0.01356
1078.80 0.01355
1078.90 0.01354
1079.00 0.01354
1079.10 0.01353
1079.20 0.01353
1079.30 0.01352
1079.40 0.01352
1079.50 0.01351
1079.60 0.01351
1079.70 0.01351
1079.80 0.0135
1079.90 0.0135
1080.00 0.0135
1080.10 0.01349
1080.20 0.01349
1080.30 0.01348
1080.40 0.01348
1080.50 0.01348
1080.60 0.01347
1080.70 0.01347
1080.80 0.01347
1080.90 0.01346
1081.00 0.01346
1081.10 0.01345
1081.20 0.01345
1081.30 0.01345
1081.40 0.01344
1081.50 0.01344
1081.60 0.01343
1081.70 0.01343
1081.80 0.01343
1081.90 0.01342
1082.00 0.01342
1082.10 0.01342
1082.20 0.01341
1082.30 0.01341
1082.40 0.01341
1082.50 0.0134
1082.60 0.0134
1082.70 0.01339
1082.80 0.01339
1082.90 0.01339
1083.00 0.01338
1083.10 0.01338
1083.20 0.01338
1083.30 0.01337
1083.40 0.01337
1083.50 0.01337
1083.60 0.01336
1083.70 0.01336
1083.80 0.01336
1083.90 0.01335
1084.00 0.01335
1084.10 0.01335
1084.20 0.01335
1084.30 0.01334
1084.40 0.01334
1084.50 0.01334
1084.60 0.01333
1084.70 0.01333
1084.80 0.01333
1084.90 0.01333
1085.00 0.01332
1085.10 0.01332
1085.20 0.01332
1085.30 0.01332
1085.40 0.01331
1085.50 0.01331
1085.60 0.01331
1085.70 0.01331
1085.80 0.0133
1085.90 0.0133
1086.00 0.0133
1086.10 0.0133
1086.20 0.01329
1086.30 0.01329
1086.40 0.01329
1086.50 0.01329
1086.60 0.01328
1086.70 0.01328
1086.80 0.01328
1086.90 0.01328
1087.00 0.01328
1087.10 0.01327
1087.20 0.01327
1087.30 0.01327
1087.40 0.01327
1087.50 0.01327
1087.60 0.01326
1087.70 0.01326
1087.80 0.01326
1087.90 0.01326
1088.00 0.01326
1088.10 0.01326
1088.20 0.01325
1088.30 0.01325
1088.40 0.01325
1088.50 0.01325
1088.60 0.01325
1088.70 0.01325
1088.80 0.01325
1088.90 0.01324
1089.00 0.01324
1089.10 0.01324
1089.20 0.01324
1089.30 0.01324
1089.40 0.01324
1089.50 0.01324
1089.60 0.01323
1089.70 0.01323
1089.80 0.01323
1089.90 0.01323
1090.00 0.01323
1090.10 0.01323
1090.20 0.01323
1090.30 0.01323
1090.40 0.01322
1090.50 0.01322
1090.60 0.01322
1090.70 0.01322
1090.80 0.01322
1090.90 0.01322
1091.00 0.01322
1091.10 0.01322
1091.20 0.01322
1091.30 0.01322
1091.40 0.01322
1091.50 0.01322
1091.60 0.01322
1091.70 0.01322
1091.80 0.01322
1091.90 0.01321
1092.00 0.01321
1092.10 0.01321
1092.20 0.01321
1092.30 0.01321
1092.40 0.01321
1092.50 0.01321
1092.60 0.01321
1092.70 0.01321
1092.80 0.01322
1092.90 0.01323
1093.00 0.01324
1093.10 0.01324
1093.20 0.01324
1093.30 0.01324
1093.40 0.01324
1093.50 0.01324
1093.60 0.01324
1093.70 0.01324
1093.80 0.01324
1093.90 0.01324
1094.00 0.01324
1094.10 0.01324
1094.20 0.01324
1094.30 0.01324
1094.40 0.01324
1094.50 0.01324
1094.60 0.01324
1094.70 0.01324
1094.80 0.01324
1094.90 0.01324
1095.00 0.01324
1095.10 0.01324
1095.20 0.01324
1095.30 0.01325
1095.40 0.01325
1095.50 0.01325
1095.60 0.01325
1095.70 0.01325
1095.80 0.01325
1095.90 0.01325
1096.00 0.01325
1096.10 0.01325
1096.20 0.01325
1096.30 0.01325
1096.40 0.01325
1096.50 0.01325
1096.60 0.01325
1096.70 0.01325
1096.80 0.01325
1096.90 0.01325
1097.00 0.01325
1097.10 0.01325
1097.20 0.01325
1097.30 0.01325
1097.40 0.01325
1097.50 0.01325
1097.60 0.01325
1097.70 0.01326
1097.80 0.01326
1097.90 0.01326
1098.00 0.01326
1098.10 0.01326
1098.20 0.01326
1098.30 0.01326
1098.40 0.01326
1098.50 0.01326
1098.60 0.01326
1098.70 0.01326
1098.80 0.01326
1098.90 0.01326
1099.00 0.01326
1099.10 0.01326
1099.20 0.01327
1099.30 0.01327
1099.40 0.01327
1099.50 0.01327
1099.60 0.01327
1099.70 0.01327
1099.80 0.01327
1099.90 0.01327
1100.00 0.01327
1100.10 0.01327
1100.20 0.01327
1100.30 0.01328
1100.40 0.01328
1100.50 0.01328
1100.60 0.01328
1100.70 0.01328
1100.80 0.01328
1100.90 0.01328
1101.00 0.01328
1101.10 0.01328
1101.20 0.01328
1101.30 0.01329
1101.40 0.01329
1101.50 0.01329
1101.60 0.01329
1101.70 0.01329
1101.80 0.01329
1101.90 0.01329
1102.00 0.01329
1102.10 0.01329
1102.20 0.0133
1102.30 0.0133
1102.40 0.0133
1102.50 0.0133
1102.60 0.0133
1102.70 0.0133
1102.80 0.0133
1102.90 0.01331
1103.00 0.01331
1103.10 0.01331
1103.20 0.01331
1103.30 0.01331
1103.40 0.01331
1103.50 0.01331
1103.60 0.01331
1103.70 0.01332
1103.80 0.01332
1103.90 0.01332
1104.00 0.01332
1104.10 0.01332
1104.20 0.01332
1104.30 0.01332
1104.40 0.01333
1104.50 0.01333
1104.60 0.01333
1104.70 0.01333
1104.80 0.01333
1104.90 0.01333
1105.00 0.01333
1105.10 0.01333
1105.20 0.01334
1105.30 0.01334
1105.40 0.01334
1105.50 0.01334
1105.60 0.01334
1105.70 0.01334
1105.80 0.01335
1105.90 0.01335
1106.00 0.01335
1106.10 0.01335
1106.20 0.01335
1106.30 0.01336
1106.40 0.01336
1106.50 0.01336
1106.60 0.01336
1106.70 0.01336
1106.80 0.01337
1106.90 0.01337
1107.00 0.01337
1107.10 0.01337
1107.20 0.01337
1107.30 0.01337
1107.40 0.01338
1107.50 0.01338
1107.60 0.01338
1107.70 0.01338
1107.80 0.01339
1107.90 0.01339
1108.00 0.01339
1108.10 0.01339
1108.20 0.01339
1108.30 0.0134
1108.40 0.0134
1108.50 0.0134
1108.60 0.0134
1108.70 0.01341
1108.80 0.01341
1108.90 0.01341
1109.00 0.01341
1109.10 0.01341
1109.20 0.01342
1109.30 0.01342
1109.40 0.01342
1109.50 0.01342
1109.60 0.01343
1109.70 0.01343
1109.80 0.01343
1109.90 0.01343
1110.00 0.01344
1110.10 0.01344
1110.20 0.01344
1110.30 0.01344
1110.40 0.01345
1110.50 0.01345
1110.60 0.01345
1110.70 0.01345
1110.80 0.01346
1110.90 0.01346
1111.00 0.01346
1111.10 0.01346
1111.20 0.01347
1111.30 0.01347
1111.40 0.01347
1111.50 0.01347
1111.60 0.01348
1111.70 0.01348
1111.80 0.01348
1111.90 0.01348
1112.00 0.01349
1112.10 0.01349
1112.20 0.01349
1112.30 0.0135
1112.40 0.0135
1112.50 0.0135
1112.60 0.0135
1112.70 0.01351
1112.80 0.01351
1112.90 0.01351
1113.00 0.01352
1113.10 0.01352
1113.20 0.01352
1113.30 0.01352
1113.40 0.01353
1113.50 0.01353
1113.60 0.01353
1113.70 0.01354
1113.80 0.01354
1113.90 0.01354
1114.00 0.01355
1114.10 0.01355
1114.20 0.01355
1114.30 0.01356
1114.40 0.01356
1114.50 0.01356
1114.60 0.01357
1114.70 0.01357
1114.80 0.01357
1114.90 0.01358
1115.00 0.01358
1115.10 0.01358
1115.20 0.01359
1115.30 0.01359
1115.40 0.01359
1115.50 0.0136
1115.60 0.0136
1115.70 0.0136
1115.80 0.01361
1115.90 0.01361
1116.00 0.01361
1116.10 0.01362
1116.20 0.01362
1116.30 0.01362
1116.40 0.01363
1116.50 0.01363
1116.60 0.01363
1116.70 0.01364
1116.80 0.01364
1116.90 0.01364
1117.00 0.01365
1117.10 0.01365
1117.20 0.01365
1117.30 0.01366
1117.40 0.01366
1117.50 0.01367
1117.60 0.01367
1117.70 0.01367
1117.80 0.01368
1117.90 0.01368
1118.00 0.01369
1118.10 0.01369
1118.20 0.01369
1118.30 0.0137
1118.40 0.0137
1118.50 0.0137
1118.60 0.01371
1118.70 0.01371
1118.80 0.01372
1118.90 0.01372
1119.00 0.01372
1119.10 0.01373
1119.20 0.01373
1119.30 0.01374
1119.40 0.01374
1119.50 0.01374
1119.60 0.01375
1119.70 0.01375
1119.80 0.01375
1119.90 0.01376
1120.00 0.01376
1120.10 0.01377
1120.20 0.01377
1120.30 0.01377
1120.40 0.01378
1120.50 0.01378
1120.60 0.01379
1120.70 0.01379
1120.80 0.01379
1120.90 0.0138
1121.00 0.0138
1121.10 0.0138
1121.20 0.01381
1121.30 0.01381
1121.40 0.01382
1121.50 0.01382
1121.60 0.01382
1121.70 0.01383
1121.80 0.01383
1121.90 0.01383
1122.00 0.01384
1122.10 0.01384
1122.20 0.01385
1122.30 0.01386
1122.40 0.01386
1122.50 0.01387
1122.60 0.01387
1122.70 0.01388
1122.80 0.01388
1122.90 0.01389
1123.00 0.01389
1123.10 0.0139
1123.20 0.01391
1123.30 0.01391
1123.40 0.01392
1123.50 0.01392
1123.60 0.01393
1123.70 0.01393
1123.80 0.01394
1123.90 0.01395
1124.00 0.01395
1124.10 0.01396
1124.20 0.01396
1124.30 0.01397
1124.40 0.01397
1124.50 0.01398
1124.60 0.01398
1124.70 0.01399
1124.80 0.014
1124.90 0.014
1125.00 0.01401
1125.10 0.01401
1125.20 0.01402
1125.30 0.01402
1125.40 0.01403
1125.50 0.01403
1125.60 0.01404
1125.70 0.01405
1125.80 0.01405
1125.90 0.01406
1126.00 0.01406
1126.10 0.01407
1126.20 0.01407
1126.30 0.01408
1126.40 0.01408
1126.50 0.01409
1126.60 0.0141
1126.70 0.0141
1126.80 0.01411
1126.90 0.01411
1127.00 0.01412
1127.10 0.01412
1127.20 0.01413
1127.30 0.01414
1127.40 0.01415
1127.50 0.01415
1127.60 0.01416
1127.70 0.01417
1127.80 0.01418
1127.90 0.01418
1128.00 0.01419
1128.10 0.0142
1128.20 0.01421
1128.30 0.01421
1128.40 0.01422
1128.50 0.01423
1128.60 0.01424
1128.70 0.01424
1128.80 0.01425
1128.90 0.01426
1129.00 0.01427
1129.10 0.01427
1129.20 0.01428
1129.30 0.01429
1129.40 0.0143
1129.50 0.0143
1129.60 0.01431
1129.70 0.01432
1129.80 0.01433
1129.90 0.01433
1130.00 0.01434
1130.10 0.01435
1130.20 0.01436
1130.30 0.01436
1130.40 0.01437
1130.50 0.01438
1130.60 0.01439
1130.70 0.01439
1130.80 0.0144
1130.90 0.01441
1131.00 0.01442
1131.10 0.01442
1131.20 0.01443
1131.30 0.01444
1131.40 0.01445
1131.50 0.01445
1131.60 0.01446
1131.70 0.01447
1131.80 0.01448
1131.90 0.01448
1132.00 0.01449
1132.10 0.0145
1132.20 0.01451
1132.30 0.01451
1132.40 0.01452
1132.50 0.01453
1132.60 0.01454
1132.70 0.01454
1132.80 0.01455
1132.90 0.01456
1133.00 0.01457
1133.10 0.01458
1133.20 0.01458
1133.30 0.01459
1133.40 0.0146
1133.50 0.01461
1133.60 0.01461
1133.70 0.01462
1133.80 0.01463
1133.90 0.01464
1134.00 0.01464
1134.10 0.01465
1134.20 0.01466
1134.30 0.01467
1134.40 0.01468
1134.50 0.01468
1134.60 0.01469
1134.70 0.0147
1134.80 0.01471
1134.90 0.01471
1135.00 0.01472
1135.10 0.01473
1135.20 0.01474
1135.30 0.01474
1135.40 0.01475
1135.50 0.01476
1135.60 0.01477
1135.70 0.01477
1135.80 0.01478
1135.90 0.01479
1136.00 0.0148
1136.10 0.01481
1136.20 0.01481
1136.30 0.01482
1136.40 0.01483
1136.50 0.01484
1136.60 0.01484
1136.70 0.01485
1136.80 0.01486
1136.90 0.01487
1137.00 0.01487
1137.10 0.01488
1137.20 0.01489
1137.30 0.0149
1137.40 0.01491
1137.50 0.01492
1137.60 0.01492
1137.70 0.01493
1137.80 0.01494
1137.90 0.01495
1138.00 0.01496
1138.10 0.01497
1138.20 0.01498
1138.30 0.01498
1138.40 0.01499
1138.50 0.015
1138.60 0.01501
1138.70 0.01502
1138.80 0.01503
1138.90 0.01503
1139.00 0.01504
1139.10 0.01505
1139.20 0.01506
1139.30 0.01507
1139.40 0.01508
1139.50 0.01508
1139.60 0.01509
1139.70 0.0151
1139.80 0.01511
1139.90 0.01512
1140.00 0.01513
1140.10 0.01513
1140.20 0.01514
1140.30 0.01515
1140.40 0.01516
1140.50 0.01517
1140.60 0.01518
1140.70 0.01518
1140.80 0.01519
1140.90 0.0152
1141.00 0.01521
1141.10 0.01522
1141.20 0.01523
1141.30 0.01523
1141.40 0.01524
1141.50 0.01525
1141.60 0.01526
1141.70 0.01527
1141.80 0.01528
1141.90 0.01528
1142.00 0.01529
1142.10 0.0153
1142.20 0.01531
1142.30 0.01532
1142.40 0.01533
1142.50 0.01534
1142.60 0.01535
1142.70 0.01536
1142.80 0.01537
1142.90 0.01538
1143.00 0.01539
1143.10 0.0154
1143.20 0.01541
1143.30 0.01542
1143.40 0.01543
1143.50 0.01544
1143.60 0.01545
1143.70 0.01546
1143.80 0.01547
1143.90 0.01547
1144.00 0.01548
1144.10 0.01549
1144.20 0.0155
1144.30 0.01551
1144.40 0.01552
1144.50 0.01553
1144.60 0.01554
1144.70 0.01555
1144.80 0.01556
1144.90 0.01557
1145.00 0.01558
1145.10 0.01559
1145.20 0.0156
1145.30 0.01561
1145.40 0.01562
1145.50 0.01563
1145.60 0.01564
1145.70 0.01565
1145.80 0.01566
1145.90 0.01567
1146.00 0.01567
1146.10 0.01568
1146.20 0.01569
1146.30 0.0157
1146.40 0.01571
1146.50 0.01572
1146.60 0.01573
1146.70 0.01574
1146.80 0.01575
1146.90 0.01576
1147.00 0.01577
1147.10 0.01578
1147.20 0.01579
1147.30 0.01579
1147.40 0.0158
1147.50 0.01581
1147.60 0.01582
1147.70 0.01583
1147.80 0.01584
1147.90 0.01585
1148.00 0.01585
1148.10 0.01586
1148.20 0.01587
1148.30 0.01588
1148.40 0.01589
1148.50 0.0159
1148.60 0.01591
1148.70 0.01591
1148.80 0.01592
1148.90 0.01593
1149.00 0.01594
1149.10 0.01595
1149.20 0.01596
1149.30 0.01596
1149.40 0.01597
1149.50 0.01598
1149.60 0.01599
1149.70 0.016
1149.80 0.01601
1149.90 0.01601
1150.00 0.01602
1150.10 0.01603
1150.20 0.01604
1150.30 0.01605
1150.40 0.01606
1150.50 0.01607
1150.60 0.01607
1150.70 0.01608
1150.80 0.01609
1150.90 0.0161
1151.00 0.01611
1151.10 0.01612
1151.20 0.01612
1151.30 0.01613
1151.40 0.01614
1151.50 0.01615
1151.60 0.01616
1151.70 0.01617
1151.80 0.01617
1151.90 0.01618
1152.00 0.01619
1152.10 0.0162
1152.20 0.01621
1152.30 0.01622
1152.40 0.01623
1152.50 0.01624
1152.60 0.01624
1152.70 0.01625
1152.80 0.01626
1152.90 0.01627
1153.00 0.01628
1153.10 0.01629
1153.20 0.0163
1153.30 0.01631
1153.40 0.01631
1153.50 0.01632
1153.60 0.01633
1153.70 0.01634
1153.80 0.01635
1153.90 0.01636
1154.00 0.01637
1154.10 0.01638
1154.20 0.01638
1154.30 0.01639
1154.40 0.0164
1154.50 0.01641
1154.60 0.01642
1154.70 0.01643
1154.80 0.01644
1154.90 0.01645
1155.00 0.01645
1155.10 0.01646
1155.20 0.01647
1155.30 0.01648
1155.40 0.01649
1155.50 0.0165
1155.60 0.01651
1155.70 0.01652
1155.80 0.01652
1155.90 0.01653
1156.00 0.01654
1156.10 0.01655
1156.20 0.01656
1156.30 0.01657
1156.40 0.01658
1156.50 0.01658
1156.60 0.01659
1156.70 0.0166
1156.80 0.01661
1156.90 0.01662
1157.00 0.01663
1157.10 0.01664
1157.20 0.01664
1157.30 0.01665
1157.40 0.01666
1157.50 0.01667
1157.60 0.01667
1157.70 0.01668
1157.80 0.01669
1157.90 0.01669
1158.00 0.0167
1158.10 0.01671
1158.20 0.01672
1158.30 0.01672
1158.40 0.01673
1158.50 0.01674
1158.60 0.01675
1158.70 0.01675
1158.80 0.01676
1158.90 0.01677
1159.00 0.01678
1159.10 0.01678
1159.20 0.01679
1159.30 0.0168
1159.40 0.0168
1159.50 0.01681
1159.60 0.01682
1159.70 0.01683
1159.80 0.01683
1159.90 0.01684
1160.00 0.01685
1160.10 0.01686
1160.20 0.01686
1160.30 0.01687
1160.40 0.01688
1160.50 0.01688
1160.60 0.01689
1160.70 0.0169
1160.80 0.01691
1160.90 0.01691
1161.00 0.01692
1161.10 0.01693
1161.20 0.01694
1161.30 0.01694
1161.40 0.01695
1161.50 0.01696
1161.60 0.01696
1161.70 0.01697
1161.80 0.01698
1161.90 0.01699
1162.00 0.01699
1162.10 0.017
1162.20 0.01701
1162.30 0.01701
1162.40 0.01702
1162.50 0.01702
1162.60 0.01703
1162.70 0.01704
1162.80 0.01704
1162.90 0.01705
1163.00 0.01706
1163.10 0.01706
1163.20 0.01707
1163.30 0.01707
1163.40 0.01708
1163.50 0.01709
1163.60 0.01709
1163.70 0.0171
1163.80 0.01711
1163.90 0.01711
1164.00 0.01712
1164.10 0.01712
1164.20 0.01713
1164.30 0.01714
1164.40 0.01714
1164.50 0.01715
1164.60 0.01716
1164.70 0.01716
1164.80 0.01717
1164.90 0.01717
1165.00 0.01718
1165.10 0.01719
1165.20 0.01719
1165.30 0.0172
1165.40 0.01721
1165.50 0.01721
1165.60 0.01722
1165.70 0.01722
1165.80 0.01723
1165.90 0.01724
1166.00 0.01724
1166.10 0.01725
1166.20 0.01725
1166.30 0.01726
1166.40 0.01727
1166.50 0.01727
1166.60 0.01728
1166.70 0.01729
1166.80 0.01729
1166.90 0.0173
1167.00 0.0173
1167.10 0.01731
1167.20 0.01732
1167.30 0.01732
1167.40 0.01733
1167.50 0.01733
1167.60 0.01734
1167.70 0.01735
1167.80 0.01735
1167.90 0.01736
1168.00 0.01736
1168.10 0.01737
1168.20 0.01738
1168.30 0.01738
1168.40 0.01739
1168.50 0.01739
1168.60 0.0174
1168.70 0.01741
1168.80 0.01741
1168.90 0.01742
1169.00 0.01742
1169.10 0.01743
1169.20 0.01744
1169.30 0.01744
1169.40 0.01745
1169.50 0.01745
1169.60 0.01746
1169.70 0.01747
1169.80 0.01747
1169.90 0.01748
1170.00 0.01748
1170.10 0.01749
1170.20 0.0175
1170.30 0.0175
1170.40 0.01751
1170.50 0.01751
1170.60 0.01752
1170.70 0.01753
1170.80 0.01753
1170.90 0.01754
1171.00 0.01754
1171.10 0.01755
1171.20 0.01756
1171.30 0.01756
1171.40 0.01757
1171.50 0.01757
1171.60 0.01758
1171.70 0.01759
1171.80 0.01759
1171.90 0.0176
1172.00 0.0176
1172.10 0.01761
1172.20 0.01761
1172.30 0.01761
1172.40 0.01762
1172.50 0.01762
1172.60 0.01762
1172.70 0.01763
1172.80 0.01763
1172.90 0.01763
1173.00 0.01763
1173.10 0.01764
1173.20 0.01764
1173.30 0.01764
1173.40 0.01765
1173.50 0.01765
1173.60 0.01765
1173.70 0.01766
1173.80 0.01766
1173.90 0.01766
1174.00 0.01766
1174.10 0.01767
1174.20 0.01767
1174.30 0.01767
1174.40 0.01768
1174.50 0.01768
1174.60 0.01768
1174.70 0.01769
1174.80 0.01769
1174.90 0.01769
1175.00 0.01769
1175.10 0.0177
1175.20 0.0177
1175.30 0.0177
1175.40 0.01771
1175.50 0.01771
1175.60 0.01771
1175.70 0.01772
1175.80 0.01772
1175.90 0.01772
1176.00 0.01772
1176.10 0.01773
1176.20 0.01773
1176.30 0.01773
1176.40 0.01774
1176.50 0.01774
1176.60 0.01774
1176.70 0.01775
1176.80 0.01775
1176.90 0.01775
1177.00 0.01775
1177.10 0.01776
1177.20 0.01776
1177.30 0.01776
1177.40 0.01776
1177.50 0.01776
1177.60 0.01776
1177.70 0.01776
1177.80 0.01776
1177.90 0.01776
1178.00 0.01776
1178.10 0.01776
1178.20 0.01776
1178.30 0.01777
1178.40 0.01777
1178.50 0.01777
1178.60 0.01777
1178.70 0.01777
1178.80 0.01777
1178.90 0.01777
1179.00 0.01777
1179.10 0.01777
1179.20 0.01777
1179.30 0.01777
1179.40 0.01778
1179.50 0.01778
1179.60 0.01778
1179.70 0.01778
1179.80 0.01778
1179.90 0.01778
1180.00 0.01778
1180.10 0.01778
1180.20 0.01778
1180.30 0.01778
1180.40 0.01778
1180.50 0.01778
1180.60 0.01779
1180.70 0.01779
1180.80 0.01779
1180.90 0.01779
1181.00 0.01779
1181.10 0.01779
1181.20 0.01779
1181.30 0.01779
1181.40 0.01779
1181.50 0.01779
1181.60 0.01779
1181.70 0.0178
1181.80 0.0178
1181.90 0.0178
1182.00 0.0178
1182.10 0.0178
1182.20 0.01779
1182.30 0.01779
1182.40 0.01779
1182.50 0.01779
1182.60 0.01778
1182.70 0.01778
1182.80 0.01778
1182.90 0.01778
1183.00 0.01777
1183.10 0.01777
1183.20 0.01777
1183.30 0.01777
1183.40 0.01777
1183.50 0.01776
1183.60 0.01776
1183.70 0.01776
1183.80 0.01776
1183.90 0.01775
1184.00 0.01775
1184.10 0.01775
1184.20 0.01775
1184.30 0.01774
1184.40 0.01774
1184.50 0.01774
1184.60 0.01774
1184.70 0.01774
1184.80 0.01773
1184.90 0.01773
1185.00 0.01773
1185.10 0.01773
1185.20 0.01772
1185.30 0.01772
1185.40 0.01772
1185.50 0.01772
1185.60 0.01771
1185.70 0.01771
1185.80 0.01771
1185.90 0.01771
1186.00 0.01771
1186.10 0.0177
1186.20 0.0177
1186.30 0.0177
1186.40 0.0177
1186.50 0.01769
1186.60 0.01769
1186.70 0.01769
1186.80 0.01769
1186.90 0.01769
1187.00 0.01768
1187.10 0.01768
1187.20 0.01768
1187.30 0.01768
1187.40 0.01768
1187.50 0.01768
1187.60 0.01767
1187.70 0.01767
1187.80 0.01767
1187.90 0.01767
1188.00 0.01767
1188.10 0.01767
1188.20 0.01767
1188.30 0.01766
1188.40 0.01766
1188.50 0.01766
1188.60 0.01766
1188.70 0.01766
1188.80 0.01766
1188.90 0.01766
1189.00 0.01765
1189.10 0.01765
1189.20 0.01765
1189.30 0.01765
1189.40 0.01765
1189.50 0.01765
1189.60 0.01765
1189.70 0.01764
1189.80 0.01764
1189.90 0.01764
1190.00 0.01764
1190.10 0.01764
1190.20 0.01764
1190.30 0.01764
1190.40 0.01763
1190.50 0.01763
1190.60 0.01763
1190.70 0.01763
1190.80 0.01763
1190.90 0.01763
1191.00 0.01763
1191.10 0.01762
1191.20 0.01762
1191.30 0.01762
1191.40 0.01762
1191.50 0.01762
1191.60 0.01762
1191.70 0.01762
1191.80 0.01761
1191.90 0.01761
1192.00 0.01761
1192.10 0.01761
1192.20 0.01761
1192.30 0.01761
1192.40 0.0176
1192.50 0.0176
1192.60 0.0176
1192.70 0.0176
1192.80 0.0176
1192.90 0.01759
1193.00 0.01759
1193.10 0.01759
1193.20 0.01759
1193.30 0.01759
1193.40 0.01758
1193.50 0.01758
1193.60 0.01758
1193.70 0.01758
1193.80 0.01758
1193.90 0.01757
1194.00 0.01757
1194.10 0.01757
1194.20 0.01757
1194.30 0.01757
1194.40 0.01756
1194.50 0.01756
1194.60 0.01756
1194.70 0.01756
1194.80 0.01756
1194.90 0.01755
1195.00 0.01755
1195.10 0.01755
1195.20 0.01755
1195.30 0.01755
1195.40 0.01754
1195.50 0.01754
1195.60 0.01754
1195.70 0.01754
1195.80 0.01754
1195.90 0.01754
1196.00 0.01753
1196.10 0.01753
1196.20 0.01753
1196.30 0.01753
1196.40 0.01753
1196.50 0.01752
1196.60 0.01752
1196.70 0.01752
1196.80 0.01752
1196.90 0.01752
1197.00 0.01751
1197.10 0.01751
1197.20 0.01751
1197.30 0.0175
1197.40 0.0175
1197.50 0.01749
1197.60 0.01749
1197.70 0.01749
1197.80 0.01748
1197.90 0.01748
1198.00 0.01747
1198.10 0.01747
1198.20 0.01747
1198.30 0.01746
1198.40 0.01746
1198.50 0.01745
1198.60 0.01745
1198.70 0.01745
1198.80 0.01744
1198.90 0.01744
1199.00 0.01744
1199.10 0.01743
1199.20 0.01743
1199.30 0.01742
1199.40 0.01742
1199.50 0.01742
1199.60 0.01741
1199.70 0.01741
1199.80 0.0174
1199.90 0.0174
1200.00 0
