# Version 2.1 - nm, norm@500 to 1, cut digits, bergeron_40000_70.dat_40000
# Wavelength(nm)  Flambda(ergs/cm^s/s/nm)
300.00 5.818
300.10 5.812
300.20 5.805
300.30 5.798
300.40 5.791
300.50 5.784
300.60 5.777
300.70 5.771
300.80 5.764
300.90 5.757
301.00 5.75
301.10 5.743
301.20 5.737
301.30 5.73
301.40 5.723
301.50 5.716
301.60 5.71
301.70 5.703
301.80 5.696
301.90 5.69
302.00 5.683
302.10 5.676
302.20 5.67
302.30 5.663
302.40 5.656
302.50 5.65
302.60 5.643
302.70 5.637
302.80 5.63
302.90 5.623
303.00 5.617
303.10 5.61
303.20 5.604
303.30 5.597
303.40 5.591
303.50 5.584
303.60 5.578
303.70 5.571
303.80 5.564
303.90 5.558
304.00 5.552
304.10 5.545
304.20 5.539
304.30 5.532
304.40 5.526
304.50 5.519
304.60 5.513
304.70 5.506
304.80 5.5
304.90 5.494
305.00 5.487
305.10 5.481
305.20 5.474
305.30 5.468
305.40 5.462
305.50 5.455
305.60 5.449
305.70 5.443
305.80 5.436
305.90 5.43
306.00 5.424
306.10 5.418
306.20 5.411
306.30 5.405
306.40 5.399
306.50 5.392
306.60 5.386
306.70 5.38
306.80 5.374
306.90 5.368
307.00 5.361
307.10 5.355
307.20 5.349
307.30 5.343
307.40 5.337
307.50 5.33
307.60 5.324
307.70 5.318
307.80 5.312
307.90 5.306
308.00 5.3
308.10 5.294
308.20 5.288
308.30 5.281
308.40 5.275
308.50 5.269
308.60 5.263
308.70 5.257
308.80 5.251
308.90 5.245
309.00 5.239
309.10 5.233
309.20 5.227
309.30 5.221
309.40 5.215
309.50 5.209
309.60 5.203
309.70 5.197
309.80 5.191
309.90 5.185
310.00 5.179
310.10 5.173
310.20 5.167
310.30 5.162
310.40 5.156
310.50 5.15
310.60 5.144
310.70 5.138
310.80 5.132
310.90 5.126
311.00 5.12
311.10 5.114
311.20 5.109
311.30 5.103
311.40 5.097
311.50 5.091
311.60 5.085
311.70 5.08
311.80 5.074
311.90 5.068
312.00 5.062
312.10 5.056
312.20 5.051
312.30 5.045
312.40 5.039
312.50 5.033
312.60 5.028
312.70 5.022
312.80 5.016
312.90 5.011
313.00 5.005
313.10 4.999
313.20 4.994
313.30 4.988
313.40 4.982
313.50 4.977
313.60 4.971
313.70 4.965
313.80 4.96
313.90 4.954
314.00 4.948
314.10 4.943
314.20 4.937
314.30 4.932
314.40 4.926
314.50 4.92
314.60 4.915
314.70 4.909
314.80 4.904
314.90 4.898
315.00 4.893
315.10 4.887
315.20 4.882
315.30 4.876
315.40 4.871
315.50 4.865
315.60 4.86
315.70 4.854
315.80 4.849
315.90 4.843
316.00 4.838
316.10 4.832
316.20 4.827
316.30 4.822
316.40 4.816
316.50 4.811
316.60 4.805
316.70 4.8
316.80 4.794
316.90 4.789
317.00 4.784
317.10 4.778
317.20 4.773
317.30 4.768
317.40 4.762
317.50 4.757
317.60 4.752
317.70 4.746
317.80 4.741
317.90 4.736
318.00 4.73
318.10 4.725
318.20 4.72
318.30 4.714
318.40 4.709
318.50 4.704
318.60 4.699
318.70 4.693
318.80 4.688
318.90 4.683
319.00 4.678
319.10 4.672
319.20 4.667
319.30 4.662
319.40 4.657
319.50 4.652
319.60 4.647
319.70 4.641
319.80 4.636
319.90 4.631
320.00 4.626
320.10 4.621
320.20 4.616
320.30 4.61
320.40 4.605
320.50 4.6
320.60 4.595
320.70 4.59
320.80 4.585
320.90 4.58
321.00 4.575
321.10 4.57
321.20 4.565
321.30 4.559
321.40 4.554
321.50 4.549
321.60 4.544
321.70 4.539
321.80 4.534
321.90 4.529
322.00 4.524
322.10 4.519
322.20 4.514
322.30 4.509
322.40 4.504
322.50 4.499
322.60 4.494
322.70 4.489
322.80 4.484
322.90 4.479
323.00 4.474
323.10 4.469
323.20 4.465
323.30 4.46
323.40 4.455
323.50 4.45
323.60 4.445
323.70 4.44
323.80 4.435
323.90 4.43
324.00 4.425
324.10 4.42
324.20 4.416
324.30 4.411
324.40 4.406
324.50 4.401
324.60 4.396
324.70 4.391
324.80 4.387
324.90 4.382
325.00 4.377
325.10 4.372
325.20 4.367
325.30 4.363
325.40 4.358
325.50 4.353
325.60 4.348
325.70 4.343
325.80 4.339
325.90 4.334
326.00 4.329
326.10 4.324
326.20 4.32
326.30 4.315
326.40 4.31
326.50 4.306
326.60 4.301
326.70 4.296
326.80 4.291
326.90 4.287
327.00 4.282
327.10 4.277
327.20 4.273
327.30 4.268
327.40 4.263
327.50 4.259
327.60 4.254
327.70 4.25
327.80 4.245
327.90 4.24
328.00 4.236
328.10 4.231
328.20 4.226
328.30 4.222
328.40 4.217
328.50 4.213
328.60 4.208
328.70 4.204
328.80 4.199
328.90 4.194
329.00 4.19
329.10 4.185
329.20 4.181
329.30 4.176
329.40 4.172
329.50 4.167
329.60 4.163
329.70 4.158
329.80 4.154
329.90 4.149
330.00 4.145
330.10 4.14
330.20 4.136
330.30 4.131
330.40 4.127
330.50 4.122
330.60 4.118
330.70 4.113
330.80 4.109
330.90 4.105
331.00 4.1
331.10 4.096
331.20 4.091
331.30 4.087
331.40 4.082
331.50 4.078
331.60 4.074
331.70 4.069
331.80 4.065
331.90 4.06
332.00 4.056
332.10 4.052
332.20 4.047
332.30 4.043
332.40 4.039
332.50 4.034
332.60 4.03
332.70 4.026
332.80 4.021
332.90 4.017
333.00 4.013
333.10 4.008
333.20 4.004
333.30 4
333.40 3.996
333.50 3.991
333.60 3.987
333.70 3.983
333.80 3.978
333.90 3.974
334.00 3.97
334.10 3.966
334.20 3.961
334.30 3.957
334.40 3.953
334.50 3.949
334.60 3.945
334.70 3.94
334.80 3.936
334.90 3.932
335.00 3.928
335.10 3.924
335.20 3.919
335.30 3.915
335.40 3.911
335.50 3.907
335.60 3.903
335.70 3.898
335.80 3.894
335.90 3.89
336.00 3.886
336.10 3.882
336.20 3.878
336.30 3.874
336.40 3.869
336.50 3.865
336.60 3.861
336.70 3.857
336.80 3.853
336.90 3.849
337.00 3.845
337.10 3.841
337.20 3.837
337.30 3.833
337.40 3.829
337.50 3.825
337.60 3.82
337.70 3.816
337.80 3.812
337.90 3.808
338.00 3.804
338.10 3.8
338.20 3.796
338.30 3.792
338.40 3.788
338.50 3.784
338.60 3.78
338.70 3.776
338.80 3.772
338.90 3.768
339.00 3.764
339.10 3.76
339.20 3.756
339.30 3.752
339.40 3.748
339.50 3.744
339.60 3.74
339.70 3.737
339.80 3.733
339.90 3.729
340.00 3.725
340.10 3.721
340.20 3.717
340.30 3.713
340.40 3.709
340.50 3.705
340.60 3.701
340.70 3.697
340.80 3.694
340.90 3.69
341.00 3.686
341.10 3.682
341.20 3.678
341.30 3.674
341.40 3.67
341.50 3.666
341.60 3.663
341.70 3.659
341.80 3.655
341.90 3.651
342.00 3.647
342.10 3.643
342.20 3.64
342.30 3.636
342.40 3.632
342.50 3.628
342.60 3.624
342.70 3.621
342.80 3.617
342.90 3.613
343.00 3.609
343.10 3.605
343.20 3.602
343.30 3.598
343.40 3.594
343.50 3.59
343.60 3.587
343.70 3.583
343.80 3.579
343.90 3.575
344.00 3.572
344.10 3.568
344.20 3.564
344.30 3.561
344.40 3.557
344.50 3.553
344.60 3.549
344.70 3.546
344.80 3.542
344.90 3.538
345.00 3.535
345.10 3.531
345.20 3.527
345.30 3.524
345.40 3.52
345.50 3.516
345.60 3.513
345.70 3.509
345.80 3.505
345.90 3.502
346.00 3.498
346.10 3.495
346.20 3.491
346.30 3.487
346.40 3.484
346.50 3.48
346.60 3.477
346.70 3.473
346.80 3.469
346.90 3.466
347.00 3.462
347.10 3.459
347.20 3.455
347.30 3.451
347.40 3.448
347.50 3.444
347.60 3.441
347.70 3.437
347.80 3.434
347.90 3.43
348.00 3.427
348.10 3.423
348.20 3.419
348.30 3.416
348.40 3.412
348.50 3.409
348.60 3.405
348.70 3.402
348.80 3.398
348.90 3.395
349.00 3.391
349.10 3.388
349.20 3.384
349.30 3.381
349.40 3.378
349.50 3.374
349.60 3.371
349.70 3.367
349.80 3.364
349.90 3.36
350.00 3.357
350.10 3.353
350.20 3.35
350.30 3.346
350.40 3.343
350.50 3.34
350.60 3.336
350.70 3.333
350.80 3.329
350.90 3.326
351.00 3.323
351.10 3.319
351.20 3.316
351.30 3.312
351.40 3.309
351.50 3.306
351.60 3.302
351.70 3.299
351.80 3.295
351.90 3.292
352.00 3.289
352.10 3.285
352.20 3.282
352.30 3.279
352.40 3.275
352.50 3.272
352.60 3.269
352.70 3.265
352.80 3.262
352.90 3.259
353.00 3.255
353.10 3.252
353.20 3.249
353.30 3.245
353.40 3.242
353.50 3.239
353.60 3.236
353.70 3.232
353.80 3.229
353.90 3.226
354.00 3.222
354.10 3.219
354.20 3.216
354.30 3.213
354.40 3.209
354.50 3.206
354.60 3.203
354.70 3.2
354.80 3.196
354.90 3.193
355.00 3.19
355.10 3.187
355.20 3.183
355.30 3.18
355.40 3.177
355.50 3.174
355.60 3.171
355.70 3.167
355.80 3.164
355.90 3.161
356.00 3.158
356.10 3.155
356.20 3.151
356.30 3.148
356.40 3.145
356.50 3.142
356.60 3.139
356.70 3.136
356.80 3.132
356.90 3.129
357.00 3.126
357.10 3.123
357.20 3.12
357.30 3.117
357.40 3.114
357.50 3.11
357.60 3.107
357.70 3.104
357.80 3.101
357.90 3.098
358.00 3.095
358.10 3.092
358.20 3.089
358.30 3.085
358.40 3.082
358.50 3.079
358.60 3.076
358.70 3.073
358.80 3.07
358.90 3.067
359.00 3.064
359.10 3.061
359.20 3.058
359.30 3.055
359.40 3.052
359.50 3.049
359.60 3.045
359.70 3.042
359.80 3.039
359.90 3.036
360.00 3.033
360.10 3.03
360.20 3.027
360.30 3.024
360.40 3.021
360.50 3.018
360.60 3.015
360.70 3.012
360.80 3.009
360.90 3.006
361.00 3.003
361.10 3
361.20 2.997
361.30 2.994
361.40 2.991
361.50 2.988
361.60 2.985
361.70 2.982
361.80 2.979
361.90 2.976
362.00 2.973
362.10 2.97
362.20 2.967
362.30 2.965
362.40 2.962
362.50 2.959
362.60 2.956
362.70 2.953
362.80 2.95
362.90 2.947
363.00 2.944
363.10 2.941
363.20 2.938
363.30 2.935
363.40 2.932
363.50 2.929
363.60 2.927
363.70 2.924
363.80 2.921
363.90 2.918
364.00 2.915
364.10 2.912
364.20 2.909
364.30 2.906
364.40 2.903
364.50 2.901
364.60 2.898
364.70 2.895
364.80 2.892
364.90 2.889
365.00 2.886
365.10 2.883
365.20 2.881
365.30 2.878
365.40 2.875
365.50 2.872
365.60 2.869
365.70 2.866
365.80 2.864
365.90 2.861
366.00 2.858
366.10 2.855
366.20 2.852
366.30 2.849
366.40 2.846
366.50 2.843
366.60 2.84
366.70 2.837
366.80 2.834
366.90 2.831
367.00 2.828
367.10 2.825
367.20 2.822
367.30 2.819
367.40 2.816
367.50 2.813
367.60 2.81
367.70 2.807
367.80 2.804
367.90 2.801
368.00 2.798
368.10 2.796
368.20 2.793
368.30 2.79
368.40 2.787
368.50 2.784
368.60 2.781
368.70 2.778
368.80 2.775
368.90 2.772
369.00 2.77
369.10 2.767
369.20 2.764
369.30 2.761
369.40 2.758
369.50 2.755
369.60 2.752
369.70 2.75
369.80 2.747
369.90 2.744
370.00 2.741
370.10 2.738
370.20 2.735
370.30 2.733
370.40 2.73
370.50 2.727
370.60 2.724
370.70 2.722
370.80 2.719
370.90 2.716
371.00 2.713
371.10 2.71
371.20 2.708
371.30 2.705
371.40 2.702
371.50 2.699
371.60 2.697
371.70 2.694
371.80 2.691
371.90 2.688
372.00 2.686
372.10 2.683
372.20 2.681
372.30 2.678
372.40 2.676
372.50 2.673
372.60 2.671
372.70 2.668
372.80 2.666
372.90 2.663
373.00 2.661
373.10 2.658
373.20 2.656
373.30 2.653
373.40 2.651
373.50 2.648
373.60 2.646
373.70 2.643
373.80 2.641
373.90 2.638
374.00 2.636
374.10 2.634
374.20 2.631
374.30 2.629
374.40 2.627
374.50 2.625
374.60 2.623
374.70 2.62
374.80 2.618
374.90 2.616
375.00 2.614
375.10 2.611
375.20 2.609
375.30 2.607
375.40 2.605
375.50 2.603
375.60 2.6
375.70 2.598
375.80 2.596
375.90 2.594
376.00 2.592
376.10 2.589
376.20 2.586
376.30 2.583
376.40 2.581
376.50 2.578
376.60 2.575
376.70 2.573
376.80 2.57
376.90 2.567
377.00 2.565
377.10 2.563
377.20 2.562
377.30 2.561
377.40 2.56
377.50 2.559
377.60 2.557
377.70 2.556
377.80 2.555
377.90 2.554
378.00 2.552
378.10 2.55
378.20 2.547
378.30 2.544
378.40 2.541
378.50 2.538
378.60 2.535
378.70 2.532
378.80 2.53
378.90 2.527
379.00 2.524
379.10 2.521
379.20 2.518
379.30 2.514
379.40 2.511
379.50 2.508
379.60 2.505
379.70 2.502
379.80 2.499
379.90 2.496
380.00 2.493
380.10 2.493
380.20 2.494
380.30 2.495
380.40 2.495
380.50 2.496
380.60 2.497
380.70 2.497
380.80 2.498
380.90 2.499
381.00 2.499
381.10 2.498
381.20 2.496
381.30 2.495
381.40 2.493
381.50 2.491
381.60 2.489
381.70 2.485
381.80 2.482
381.90 2.477
382.00 2.473
382.10 2.468
382.20 2.462
382.30 2.454
382.40 2.447
382.50 2.439
382.60 2.431
382.70 2.423
382.80 2.416
382.90 2.408
383.00 2.4
383.10 2.392
383.20 2.385
383.30 2.376
383.40 2.368
383.50 2.361
383.60 2.361
383.70 2.365
383.80 2.37
383.90 2.376
384.00 2.383
384.10 2.389
384.20 2.395
384.30 2.4
384.40 2.406
384.50 2.411
384.60 2.415
384.70 2.42
384.80 2.423
384.90 2.427
385.00 2.43
385.10 2.432
385.20 2.434
385.30 2.435
385.40 2.436
385.50 2.437
385.60 2.437
385.70 2.436
385.80 2.435
385.90 2.434
386.00 2.432
386.10 2.43
386.20 2.427
386.30 2.423
386.40 2.419
386.50 2.415
386.60 2.41
386.70 2.404
386.80 2.398
386.90 2.391
387.00 2.384
387.10 2.376
387.20 2.367
387.30 2.358
387.40 2.348
387.50 2.337
387.60 2.326
387.70 2.314
387.80 2.301
387.90 2.288
388.00 2.274
388.10 2.259
388.20 2.243
388.30 2.227
388.40 2.211
388.50 2.195
388.60 2.178
388.70 2.164
388.80 2.153
388.90 2.145
389.00 2.149
389.10 2.156
389.20 2.167
389.30 2.18
389.40 2.193
389.50 2.206
389.60 2.219
389.70 2.231
389.80 2.243
389.90 2.254
390.00 2.265
390.10 2.275
390.20 2.284
390.30 2.293
390.40 2.301
390.50 2.308
390.60 2.315
390.70 2.321
390.80 2.327
390.90 2.332
391.00 2.336
391.10 2.341
391.20 2.344
391.30 2.348
391.40 2.35
391.50 2.353
391.60 2.355
391.70 2.356
391.80 2.358
391.90 2.359
392.00 2.359
392.10 2.36
392.20 2.36
392.30 2.359
392.40 2.359
392.50 2.358
392.60 2.357
392.70 2.355
392.80 2.353
392.90 2.351
393.00 2.349
393.10 2.346
393.20 2.343
393.30 2.34
393.40 2.336
393.50 2.332
393.60 2.328
393.70 2.323
393.80 2.318
393.90 2.313
394.00 2.307
394.10 2.301
394.20 2.294
394.30 2.287
394.40 2.28
394.50 2.272
394.60 2.263
394.70 2.254
394.80 2.245
394.90 2.235
395.00 2.224
395.10 2.212
395.20 2.2
395.30 2.187
395.40 2.173
395.50 2.159
395.60 2.143
395.70 2.126
395.80 2.109
395.90 2.091
396.00 2.072
396.10 2.052
396.20 2.03
396.30 2.008
396.40 1.986
396.50 1.962
396.60 1.938
396.70 1.914
396.80 1.889
396.90 1.865
397.00 1.841
397.10 1.86
397.20 1.879
397.30 1.901
397.40 1.922
397.50 1.943
397.60 1.963
397.70 1.983
397.80 2.001
397.90 2.019
398.00 2.036
398.10 2.051
398.20 2.066
398.30 2.08
398.40 2.092
398.50 2.105
398.60 2.115
398.70 2.126
398.80 2.135
398.90 2.144
399.00 2.152
399.10 2.16
399.20 2.166
399.30 2.172
399.40 2.178
399.50 2.183
399.60 2.188
399.70 2.192
399.80 2.196
399.90 2.199
400.00 2.203
400.10 2.205
400.20 2.208
400.30 2.21
400.40 2.212
400.50 2.213
400.60 2.215
400.70 2.216
400.80 2.217
400.90 2.217
401.00 2.218
401.10 2.218
401.20 2.219
401.30 2.219
401.40 2.218
401.50 2.218
401.60 2.218
401.70 2.217
401.80 2.217
401.90 2.216
402.00 2.215
402.10 2.214
402.20 2.213
402.30 2.212
402.40 2.211
402.50 2.21
402.60 2.209
402.70 2.207
402.80 2.206
402.90 2.204
403.00 2.203
403.10 2.201
403.20 2.199
403.30 2.197
403.40 2.196
403.50 2.194
403.60 2.192
403.70 2.19
403.80 2.187
403.90 2.185
404.00 2.183
404.10 2.181
404.20 2.178
404.30 2.176
404.40 2.173
404.50 2.171
404.60 2.168
404.70 2.166
404.80 2.163
404.90 2.16
405.00 2.157
405.10 2.154
405.20 2.151
405.30 2.147
405.40 2.144
405.50 2.141
405.60 2.137
405.70 2.133
405.80 2.129
405.90 2.125
406.00 2.121
406.10 2.117
406.20 2.112
406.30 2.108
406.40 2.103
406.50 2.098
406.60 2.093
406.70 2.087
406.80 2.081
406.90 2.075
407.00 2.069
407.10 2.062
407.20 2.055
407.30 2.048
407.40 2.04
407.50 2.032
407.60 2.023
407.70 2.014
407.80 2.005
407.90 1.995
408.00 1.984
408.10 1.973
408.20 1.96
408.30 1.948
408.40 1.935
408.50 1.92
408.60 1.905
408.70 1.889
408.80 1.872
408.90 1.854
409.00 1.835
409.10 1.815
409.20 1.794
409.30 1.772
409.40 1.748
409.50 1.723
409.60 1.697
409.70 1.67
409.80 1.642
409.90 1.612
410.00 1.583
410.10 1.563
410.20 1.554
410.30 1.571
410.40 1.593
410.50 1.62
410.60 1.645
410.70 1.67
410.80 1.694
410.90 1.716
411.00 1.737
411.10 1.757
411.20 1.775
411.30 1.792
411.40 1.809
411.50 1.823
411.60 1.837
411.70 1.85
411.80 1.862
411.90 1.873
412.00 1.883
412.10 1.893
412.20 1.901
412.30 1.909
412.40 1.917
412.50 1.923
412.60 1.929
412.70 1.935
412.80 1.94
412.90 1.945
413.00 1.949
413.10 1.953
413.20 1.956
413.30 1.959
413.40 1.962
413.50 1.964
413.60 1.966
413.70 1.968
413.80 1.97
413.90 1.971
414.00 1.973
414.10 1.974
414.20 1.975
414.30 1.975
414.40 1.976
414.50 1.976
414.60 1.977
414.70 1.977
414.80 1.977
414.90 1.977
415.00 1.977
415.10 1.976
415.20 1.976
415.30 1.976
415.40 1.975
415.50 1.975
415.60 1.974
415.70 1.973
415.80 1.972
415.90 1.972
416.00 1.971
416.10 1.97
416.20 1.969
416.30 1.968
416.40 1.967
416.50 1.966
416.60 1.965
416.70 1.964
416.80 1.962
416.90 1.961
417.00 1.96
417.10 1.959
417.20 1.957
417.30 1.956
417.40 1.955
417.50 1.954
417.60 1.952
417.70 1.951
417.80 1.949
417.90 1.948
418.00 1.947
418.10 1.945
418.20 1.944
418.30 1.942
418.40 1.941
418.50 1.939
418.60 1.938
418.70 1.936
418.80 1.935
418.90 1.933
419.00 1.932
419.10 1.93
419.20 1.929
419.30 1.927
419.40 1.926
419.50 1.924
419.60 1.923
419.70 1.921
419.80 1.919
419.90 1.918
420.00 1.916
420.10 1.915
420.20 1.913
420.30 1.911
420.40 1.91
420.50 1.908
420.60 1.907
420.70 1.905
420.80 1.903
420.90 1.902
421.00 1.9
421.10 1.899
421.20 1.897
421.30 1.895
421.40 1.894
421.50 1.892
421.60 1.89
421.70 1.889
421.80 1.887
421.90 1.885
422.00 1.884
422.10 1.882
422.20 1.88
422.30 1.879
422.40 1.877
422.50 1.875
422.60 1.874
422.70 1.872
422.80 1.87
422.90 1.869
423.00 1.867
423.10 1.865
423.20 1.864
423.30 1.862
423.40 1.86
423.50 1.858
423.60 1.857
423.70 1.855
423.80 1.853
423.90 1.852
424.00 1.85
424.10 1.848
424.20 1.846
424.30 1.845
424.40 1.843
424.50 1.841
424.60 1.839
424.70 1.838
424.80 1.836
424.90 1.834
425.00 1.832
425.10 1.831
425.20 1.829
425.30 1.827
425.40 1.825
425.50 1.823
425.60 1.822
425.70 1.82
425.80 1.818
425.90 1.816
426.00 1.814
426.10 1.812
426.20 1.811
426.30 1.809
426.40 1.807
426.50 1.805
426.60 1.803
426.70 1.801
426.80 1.799
426.90 1.797
427.00 1.795
427.10 1.793
427.20 1.791
427.30 1.789
427.40 1.787
427.50 1.785
427.60 1.783
427.70 1.78
427.80 1.778
427.90 1.776
428.00 1.774
428.10 1.772
428.20 1.769
428.30 1.767
428.40 1.765
428.50 1.762
428.60 1.76
428.70 1.757
428.80 1.755
428.90 1.752
429.00 1.749
429.10 1.747
429.20 1.744
429.30 1.741
429.40 1.738
429.50 1.735
429.60 1.732
429.70 1.728
429.80 1.725
429.90 1.722
430.00 1.718
430.10 1.714
430.20 1.71
430.30 1.706
430.40 1.702
430.50 1.698
430.60 1.693
430.70 1.688
430.80 1.683
430.90 1.678
431.00 1.673
431.10 1.667
431.20 1.661
431.30 1.654
431.40 1.648
431.50 1.641
431.60 1.633
431.70 1.625
431.80 1.617
431.90 1.608
432.00 1.598
432.10 1.588
432.20 1.577
432.30 1.566
432.40 1.554
432.50 1.541
432.60 1.527
432.70 1.513
432.80 1.497
432.90 1.481
433.00 1.464
433.10 1.445
433.20 1.425
433.30 1.405
433.40 1.382
433.50 1.359
433.60 1.335
433.70 1.309
433.80 1.283
433.90 1.256
434.00 1.228
434.10 1.228
434.20 1.255
434.30 1.28
434.40 1.304
434.50 1.328
434.60 1.349
434.70 1.37
434.80 1.39
434.90 1.408
435.00 1.425
435.10 1.441
435.20 1.456
435.30 1.469
435.40 1.482
435.50 1.494
435.60 1.505
435.70 1.515
435.80 1.524
435.90 1.532
436.00 1.54
436.10 1.547
436.20 1.554
436.30 1.56
436.40 1.565
436.50 1.57
436.60 1.574
436.70 1.578
436.80 1.582
436.90 1.586
437.00 1.589
437.10 1.591
437.20 1.594
437.30 1.596
437.40 1.598
437.50 1.6
437.60 1.601
437.70 1.602
437.80 1.604
437.90 1.605
438.00 1.605
438.10 1.606
438.20 1.607
438.30 1.607
438.40 1.607
438.50 1.608
438.60 1.608
438.70 1.608
438.80 1.608
438.90 1.608
439.00 1.607
439.10 1.607
439.20 1.607
439.30 1.606
439.40 1.606
439.50 1.606
439.60 1.605
439.70 1.604
439.80 1.604
439.90 1.603
440.00 1.602
440.10 1.602
440.20 1.601
440.30 1.6
440.40 1.599
440.50 1.599
440.60 1.598
440.70 1.597
440.80 1.596
440.90 1.595
441.00 1.594
441.10 1.593
441.20 1.592
441.30 1.591
441.40 1.59
441.50 1.589
441.60 1.588
441.70 1.587
441.80 1.586
441.90 1.585
442.00 1.584
442.10 1.583
442.20 1.582
442.30 1.58
442.40 1.579
442.50 1.578
442.60 1.577
442.70 1.576
442.80 1.575
442.90 1.574
443.00 1.572
443.10 1.571
443.20 1.57
443.30 1.569
443.40 1.568
443.50 1.567
443.60 1.565
443.70 1.564
443.80 1.563
443.90 1.562
444.00 1.561
444.10 1.559
444.20 1.558
444.30 1.557
444.40 1.556
444.50 1.555
444.60 1.553
444.70 1.552
444.80 1.551
444.90 1.55
445.00 1.549
445.10 1.547
445.20 1.546
445.30 1.545
445.40 1.544
445.50 1.542
445.60 1.541
445.70 1.54
445.80 1.539
445.90 1.537
446.00 1.536
446.10 1.535
446.20 1.534
446.30 1.533
446.40 1.531
446.50 1.53
446.60 1.529
446.70 1.528
446.80 1.526
446.90 1.525
447.00 1.524
447.10 1.523
447.20 1.521
447.30 1.52
447.40 1.519
447.50 1.518
447.60 1.516
447.70 1.515
447.80 1.514
447.90 1.513
448.00 1.512
448.10 1.51
448.20 1.509
448.30 1.508
448.40 1.507
448.50 1.505
448.60 1.504
448.70 1.503
448.80 1.502
448.90 1.5
449.00 1.499
449.10 1.498
449.20 1.497
449.30 1.496
449.40 1.494
449.50 1.493
449.60 1.492
449.70 1.491
449.80 1.489
449.90 1.488
450.00 1.487
450.10 1.486
450.20 1.485
450.30 1.483
450.40 1.482
450.50 1.481
450.60 1.48
450.70 1.478
450.80 1.477
450.90 1.476
451.00 1.475
451.10 1.474
451.20 1.472
451.30 1.471
451.40 1.47
451.50 1.469
451.60 1.468
451.70 1.466
451.80 1.465
451.90 1.464
452.00 1.463
452.10 1.462
452.20 1.46
452.30 1.459
452.40 1.458
452.50 1.457
452.60 1.456
452.70 1.454
452.80 1.453
452.90 1.452
453.00 1.451
453.10 1.45
453.20 1.448
453.30 1.447
453.40 1.446
453.50 1.445
453.60 1.444
453.70 1.442
453.80 1.441
453.90 1.44
454.00 1.439
454.10 1.438
454.20 1.437
454.30 1.435
454.40 1.434
454.50 1.433
454.60 1.432
454.70 1.431
454.80 1.429
454.90 1.428
455.00 1.427
455.10 1.426
455.20 1.425
455.30 1.424
455.40 1.422
455.50 1.421
455.60 1.42
455.70 1.419
455.80 1.418
455.90 1.417
456.00 1.415
456.10 1.414
456.20 1.413
456.30 1.412
456.40 1.411
456.50 1.41
456.60 1.409
456.70 1.407
456.80 1.406
456.90 1.405
457.00 1.404
457.10 1.403
457.20 1.402
457.30 1.4
457.40 1.399
457.50 1.398
457.60 1.397
457.70 1.396
457.80 1.395
457.90 1.394
458.00 1.392
458.10 1.391
458.20 1.39
458.30 1.389
458.40 1.388
458.50 1.387
458.60 1.386
458.70 1.384
458.80 1.383
458.90 1.382
459.00 1.381
459.10 1.38
459.20 1.379
459.30 1.378
459.40 1.377
459.50 1.375
459.60 1.374
459.70 1.373
459.80 1.372
459.90 1.371
460.00 1.37
460.10 1.369
460.20 1.368
460.30 1.366
460.40 1.365
460.50 1.364
460.60 1.363
460.70 1.362
460.80 1.361
460.90 1.36
461.00 1.359
461.10 1.358
461.20 1.356
461.30 1.355
461.40 1.354
461.50 1.353
461.60 1.352
461.70 1.351
461.80 1.35
461.90 1.349
462.00 1.348
462.10 1.347
462.20 1.345
462.30 1.344
462.40 1.343
462.50 1.342
462.60 1.341
462.70 1.34
462.80 1.339
462.90 1.338
463.00 1.337
463.10 1.336
463.20 1.334
463.30 1.333
463.40 1.332
463.50 1.331
463.60 1.33
463.70 1.329
463.80 1.328
463.90 1.327
464.00 1.326
464.10 1.325
464.20 1.324
464.30 1.323
464.40 1.322
464.50 1.32
464.60 1.319
464.70 1.318
464.80 1.317
464.90 1.316
465.00 1.315
465.10 1.314
465.20 1.313
465.30 1.312
465.40 1.311
465.50 1.31
465.60 1.309
465.70 1.308
465.80 1.307
465.90 1.305
466.00 1.304
466.10 1.303
466.20 1.302
466.30 1.301
466.40 1.3
466.50 1.299
466.60 1.298
466.70 1.297
466.80 1.296
466.90 1.295
467.00 1.294
467.10 1.293
467.20 1.292
467.30 1.291
467.40 1.29
467.50 1.289
467.60 1.288
467.70 1.286
467.80 1.285
467.90 1.284
468.00 1.283
468.10 1.282
468.20 1.281
468.30 1.28
468.40 1.279
468.50 1.278
468.60 1.277
468.70 1.276
468.80 1.275
468.90 1.274
469.00 1.273
469.10 1.272
469.20 1.271
469.30 1.27
469.40 1.269
469.50 1.268
469.60 1.267
469.70 1.266
469.80 1.265
469.90 1.264
470.00 1.263
470.10 1.262
470.20 1.26
470.30 1.259
470.40 1.258
470.50 1.257
470.60 1.256
470.70 1.255
470.80 1.254
470.90 1.253
471.00 1.252
471.10 1.251
471.20 1.25
471.30 1.249
471.40 1.248
471.50 1.247
471.60 1.246
471.70 1.245
471.80 1.244
471.90 1.243
472.00 1.242
472.10 1.241
472.20 1.24
472.30 1.239
472.40 1.238
472.50 1.237
472.60 1.236
472.70 1.235
472.80 1.234
472.90 1.233
473.00 1.232
473.10 1.231
473.20 1.23
473.30 1.229
473.40 1.228
473.50 1.227
473.60 1.226
473.70 1.225
473.80 1.224
473.90 1.223
474.00 1.222
474.10 1.22
474.20 1.219
474.30 1.218
474.40 1.217
474.50 1.216
474.60 1.215
474.70 1.214
474.80 1.213
474.90 1.212
475.00 1.211
475.10 1.21
475.20 1.209
475.30 1.208
475.40 1.207
475.50 1.206
475.60 1.205
475.70 1.204
475.80 1.203
475.90 1.202
476.00 1.201
476.10 1.2
476.20 1.199
476.30 1.198
476.40 1.197
476.50 1.195
476.60 1.194
476.70 1.193
476.80 1.192
476.90 1.191
477.00 1.19
477.10 1.189
477.20 1.188
477.30 1.187
477.40 1.186
477.50 1.185
477.60 1.184
477.70 1.182
477.80 1.181
477.90 1.18
478.00 1.179
478.10 1.178
478.20 1.177
478.30 1.176
478.40 1.175
478.50 1.173
478.60 1.172
478.70 1.171
478.80 1.17
478.90 1.169
479.00 1.167
479.10 1.166
479.20 1.165
479.30 1.164
479.40 1.162
479.50 1.161
479.60 1.16
479.70 1.158
479.80 1.157
479.90 1.156
480.00 1.155
480.10 1.153
480.20 1.152
480.30 1.15
480.40 1.149
480.50 1.147
480.60 1.146
480.70 1.144
480.80 1.143
480.90 1.141
481.00 1.14
481.10 1.138
481.20 1.136
481.30 1.134
481.40 1.132
481.50 1.13
481.60 1.128
481.70 1.126
481.80 1.124
481.90 1.122
482.00 1.12
482.10 1.118
482.20 1.116
482.30 1.113
482.40 1.11
482.50 1.107
482.60 1.105
482.70 1.102
482.80 1.099
482.90 1.096
483.00 1.093
483.10 1.09
483.20 1.086
483.30 1.082
483.40 1.077
483.50 1.073
483.60 1.068
483.70 1.063
483.80 1.059
483.90 1.054
484.00 1.05
484.10 1.045
484.20 1.039
484.30 1.032
484.40 1.025
484.50 1.018
484.60 1.011
484.70 1.002
484.80 0.9927
484.90 0.9833
485.00 0.9738
485.10 0.9644
485.20 0.9535
485.30 0.9418
485.40 0.9293
485.50 0.9163
485.60 0.9022
485.70 0.8877
485.80 0.8718
485.90 0.8552
486.00 0.835
486.10 0.8053
486.20 0.8141
486.30 0.841
486.40 0.8575
486.50 0.8729
486.60 0.8868
486.70 0.9
486.80 0.9121
486.90 0.9237
487.00 0.9343
487.10 0.9444
487.20 0.953
487.30 0.9609
487.40 0.9688
487.50 0.9766
487.60 0.9845
487.70 0.9906
487.80 0.9959
487.90 1.001
488.00 1.007
488.10 1.012
488.20 1.015
488.30 1.018
488.40 1.021
488.50 1.024
488.60 1.027
488.70 1.03
488.80 1.033
488.90 1.035
489.00 1.038
489.10 1.041
489.20 1.043
489.30 1.044
489.40 1.045
489.50 1.046
489.60 1.047
489.70 1.048
489.80 1.049
489.90 1.05
490.00 1.051
490.10 1.052
490.20 1.053
490.30 1.053
490.40 1.053
490.50 1.053
490.60 1.053
490.70 1.053
490.80 1.054
490.90 1.054
491.00 1.054
491.10 1.054
491.20 1.054
491.30 1.054
491.40 1.054
491.50 1.053
491.60 1.053
491.70 1.053
491.80 1.053
491.90 1.052
492.00 1.052
492.10 1.052
492.20 1.051
492.30 1.051
492.40 1.05
492.50 1.05
492.60 1.05
492.70 1.049
492.80 1.049
492.90 1.048
493.00 1.048
493.10 1.047
493.20 1.047
493.30 1.046
493.40 1.046
493.50 1.045
493.60 1.044
493.70 1.044
493.80 1.043
493.90 1.043
494.00 1.042
494.10 1.041
494.20 1.041
494.30 1.04
494.40 1.04
494.50 1.039
494.60 1.038
494.70 1.038
494.80 1.037
494.90 1.036
495.00 1.036
495.10 1.035
495.20 1.034
495.30 1.034
495.40 1.033
495.50 1.032
495.60 1.032
495.70 1.031
495.80 1.03
495.90 1.029
496.00 1.029
496.10 1.028
496.20 1.027
496.30 1.027
496.40 1.026
496.50 1.025
496.60 1.025
496.70 1.024
496.80 1.023
496.90 1.022
497.00 1.022
497.10 1.021
497.20 1.02
497.30 1.02
497.40 1.019
497.50 1.018
497.60 1.017
497.70 1.017
497.80 1.016
497.90 1.015
498.00 1.015
498.10 1.014
498.20 1.013
498.30 1.012
498.40 1.012
498.50 1.011
498.60 1.01
498.70 1.009
498.80 1.009
498.90 1.008
499.00 1.007
499.10 1.007
499.20 1.006
499.30 1.005
499.40 1.004
499.50 1.004
499.60 1.003
499.70 1.002
499.80 1.001
499.90 1.001
500.00 1
500.10 0.9993
500.20 0.9985
500.30 0.9978
500.40 0.9971
500.50 0.9964
500.60 0.9956
500.70 0.9949
500.80 0.9942
500.90 0.9934
501.00 0.9927
501.10 0.992
501.20 0.9913
501.30 0.9905
501.40 0.9898
501.50 0.9891
501.60 0.9884
501.70 0.9876
501.80 0.9869
501.90 0.9862
502.00 0.9855
502.10 0.9847
502.20 0.984
502.30 0.9833
502.40 0.9826
502.50 0.9818
502.60 0.9811
502.70 0.9804
502.80 0.9797
502.90 0.9789
503.00 0.9782
503.10 0.9775
503.20 0.9768
503.30 0.9761
503.40 0.9753
503.50 0.9746
503.60 0.9739
503.70 0.9732
503.80 0.9725
503.90 0.9717
504.00 0.971
504.10 0.9703
504.20 0.9696
504.30 0.9689
504.40 0.9682
504.50 0.9675
504.60 0.9667
504.70 0.966
504.80 0.9653
504.90 0.9646
505.00 0.9639
505.10 0.9632
505.20 0.9625
505.30 0.9618
505.40 0.961
505.50 0.9603
505.60 0.9596
505.70 0.9589
505.80 0.9582
505.90 0.9575
506.00 0.9568
506.10 0.9561
506.20 0.9554
506.30 0.9547
506.40 0.954
506.50 0.9533
506.60 0.9526
506.70 0.9519
506.80 0.9512
506.90 0.9505
507.00 0.9497
507.10 0.949
507.20 0.9483
507.30 0.9476
507.40 0.9469
507.50 0.9462
507.60 0.9456
507.70 0.9449
507.80 0.9442
507.90 0.9435
508.00 0.9428
508.10 0.9421
508.20 0.9414
508.30 0.9407
508.40 0.94
508.50 0.9393
508.60 0.9386
508.70 0.9379
508.80 0.9372
508.90 0.9365
509.00 0.9358
509.10 0.9351
509.20 0.9344
509.30 0.9338
509.40 0.9331
509.50 0.9324
509.60 0.9317
509.70 0.931
509.80 0.9303
509.90 0.9296
510.00 0.929
510.10 0.9283
510.20 0.9276
510.30 0.9269
510.40 0.9262
510.50 0.9255
510.60 0.9249
510.70 0.9242
510.80 0.9235
510.90 0.9228
511.00 0.9221
511.10 0.9215
511.20 0.9208
511.30 0.9201
511.40 0.9194
511.50 0.9188
511.60 0.9181
511.70 0.9174
511.80 0.9167
511.90 0.9161
512.00 0.9154
512.10 0.9147
512.20 0.914
512.30 0.9134
512.40 0.9127
512.50 0.912
512.60 0.9114
512.70 0.9107
512.80 0.91
512.90 0.9094
513.00 0.9087
513.10 0.908
513.20 0.9073
513.30 0.9067
513.40 0.906
513.50 0.9054
513.60 0.9047
513.70 0.904
513.80 0.9034
513.90 0.9027
514.00 0.902
514.10 0.9014
514.20 0.9007
514.30 0.9001
514.40 0.8994
514.50 0.8987
514.60 0.8981
514.70 0.8974
514.80 0.8968
514.90 0.8961
515.00 0.8955
515.10 0.8948
515.20 0.8941
515.30 0.8935
515.40 0.8928
515.50 0.8922
515.60 0.8915
515.70 0.8909
515.80 0.8902
515.90 0.8896
516.00 0.8889
516.10 0.8883
516.20 0.8876
516.30 0.887
516.40 0.8863
516.50 0.8857
516.60 0.885
516.70 0.8844
516.80 0.8838
516.90 0.8831
517.00 0.8825
517.10 0.8818
517.20 0.8812
517.30 0.8805
517.40 0.8799
517.50 0.8793
517.60 0.8786
517.70 0.878
517.80 0.8773
517.90 0.8767
518.00 0.8761
518.10 0.8754
518.20 0.8748
518.30 0.8741
518.40 0.8735
518.50 0.8729
518.60 0.8722
518.70 0.8716
518.80 0.871
518.90 0.8703
519.00 0.8697
519.10 0.8691
519.20 0.8684
519.30 0.8678
519.40 0.8672
519.50 0.8666
519.60 0.8659
519.70 0.8653
519.80 0.8647
519.90 0.864
520.00 0.8634
520.10 0.8628
520.20 0.8622
520.30 0.8615
520.40 0.8609
520.50 0.8603
520.60 0.8597
520.70 0.859
520.80 0.8584
520.90 0.8578
521.00 0.8572
521.10 0.8565
521.20 0.8559
521.30 0.8553
521.40 0.8547
521.50 0.8541
521.60 0.8535
521.70 0.8528
521.80 0.8522
521.90 0.8516
522.00 0.851
522.10 0.8504
522.20 0.8498
522.30 0.8491
522.40 0.8485
522.50 0.8479
522.60 0.8473
522.70 0.8467
522.80 0.8461
522.90 0.8455
523.00 0.8449
523.10 0.8442
523.20 0.8436
523.30 0.843
523.40 0.8424
523.50 0.8418
523.60 0.8412
523.70 0.8406
523.80 0.84
523.90 0.8394
524.00 0.8388
524.10 0.8382
524.20 0.8376
524.30 0.837
524.40 0.8364
524.50 0.8358
524.60 0.8352
524.70 0.8346
524.80 0.834
524.90 0.8334
525.00 0.8328
525.10 0.8322
525.20 0.8316
525.30 0.831
525.40 0.8304
525.50 0.8298
525.60 0.8292
525.70 0.8286
525.80 0.828
525.90 0.8274
526.00 0.8268
526.10 0.8262
526.20 0.8256
526.30 0.825
526.40 0.8244
526.50 0.8238
526.60 0.8232
526.70 0.8226
526.80 0.8221
526.90 0.8215
527.00 0.8209
527.10 0.8203
527.20 0.8197
527.30 0.8191
527.40 0.8185
527.50 0.8179
527.60 0.8174
527.70 0.8168
527.80 0.8162
527.90 0.8156
528.00 0.815
528.10 0.8144
528.20 0.8138
528.30 0.8133
528.40 0.8127
528.50 0.8121
528.60 0.8115
528.70 0.8109
528.80 0.8104
528.90 0.8098
529.00 0.8092
529.10 0.8086
529.20 0.808
529.30 0.8075
529.40 0.8069
529.50 0.8063
529.60 0.8057
529.70 0.8052
529.80 0.8046
529.90 0.804
530.00 0.8034
530.10 0.8029
530.20 0.8023
530.30 0.8017
530.40 0.8012
530.50 0.8006
530.60 0.8
530.70 0.7994
530.80 0.7989
530.90 0.7983
531.00 0.7977
531.10 0.7972
531.20 0.7966
531.30 0.796
531.40 0.7955
531.50 0.7949
531.60 0.7943
531.70 0.7938
531.80 0.7932
531.90 0.7926
532.00 0.7921
532.10 0.7915
532.20 0.7909
532.30 0.7904
532.40 0.7898
532.50 0.7893
532.60 0.7887
532.70 0.7881
532.80 0.7876
532.90 0.787
533.00 0.7865
533.10 0.7859
533.20 0.7854
533.30 0.7848
533.40 0.7842
533.50 0.7837
533.60 0.7831
533.70 0.7826
533.80 0.782
533.90 0.7815
534.00 0.7809
534.10 0.7804
534.20 0.7798
534.30 0.7793
534.40 0.7787
534.50 0.7782
534.60 0.7776
534.70 0.7771
534.80 0.7765
534.90 0.776
535.00 0.7754
535.10 0.7749
535.20 0.7743
535.30 0.7738
535.40 0.7732
535.50 0.7727
535.60 0.7721
535.70 0.7716
535.80 0.771
535.90 0.7705
536.00 0.7699
536.10 0.7694
536.20 0.7689
536.30 0.7683
536.40 0.7678
536.50 0.7672
536.60 0.7667
536.70 0.7661
536.80 0.7656
536.90 0.7651
537.00 0.7645
537.10 0.764
537.20 0.7634
537.30 0.7629
537.40 0.7624
537.50 0.7618
537.60 0.7613
537.70 0.7608
537.80 0.7602
537.90 0.7597
538.00 0.7592
538.10 0.7586
538.20 0.7581
538.30 0.7576
538.40 0.757
538.50 0.7565
538.60 0.756
538.70 0.7554
538.80 0.7549
538.90 0.7544
539.00 0.7538
539.10 0.7533
539.20 0.7528
539.30 0.7523
539.40 0.7517
539.50 0.7512
539.60 0.7507
539.70 0.7501
539.80 0.7496
539.90 0.7491
540.00 0.7486
540.10 0.748
540.20 0.7475
540.30 0.747
540.40 0.7465
540.50 0.746
540.60 0.7454
540.70 0.7449
540.80 0.7444
540.90 0.7439
541.00 0.7433
541.10 0.7428
541.20 0.7423
541.30 0.7418
541.40 0.7413
541.50 0.7407
541.60 0.7402
541.70 0.7397
541.80 0.7392
541.90 0.7387
542.00 0.7382
542.10 0.7376
542.20 0.7371
542.30 0.7366
542.40 0.7361
542.50 0.7356
542.60 0.7351
542.70 0.7346
542.80 0.7341
542.90 0.7335
543.00 0.733
543.10 0.7325
543.20 0.732
543.30 0.7315
543.40 0.731
543.50 0.7305
543.60 0.73
543.70 0.7295
543.80 0.729
543.90 0.7284
544.00 0.7279
544.10 0.7274
544.20 0.7269
544.30 0.7264
544.40 0.7259
544.50 0.7254
544.60 0.7249
544.70 0.7244
544.80 0.7239
544.90 0.7234
545.00 0.7229
545.10 0.7224
545.20 0.7219
545.30 0.7214
545.40 0.7209
545.50 0.7204
545.60 0.7199
545.70 0.7194
545.80 0.7189
545.90 0.7184
546.00 0.7179
546.10 0.7174
546.20 0.7169
546.30 0.7164
546.40 0.7159
546.50 0.7154
546.60 0.7149
546.70 0.7144
546.80 0.7139
546.90 0.7134
547.00 0.7129
547.10 0.7124
547.20 0.7119
547.30 0.7114
547.40 0.711
547.50 0.7105
547.60 0.71
547.70 0.7095
547.80 0.709
547.90 0.7085
548.00 0.708
548.10 0.7075
548.20 0.707
548.30 0.7065
548.40 0.7061
548.50 0.7056
548.60 0.7051
548.70 0.7046
548.80 0.7041
548.90 0.7036
549.00 0.7031
549.10 0.7026
549.20 0.7022
549.30 0.7017
549.40 0.7012
549.50 0.7007
549.60 0.7002
549.70 0.6997
549.80 0.6993
549.90 0.6988
550.00 0.6983
550.10 0.6978
550.20 0.6973
550.30 0.6969
550.40 0.6964
550.50 0.6959
550.60 0.6954
550.70 0.6949
550.80 0.6945
550.90 0.694
551.00 0.6935
551.10 0.693
551.20 0.6926
551.30 0.6921
551.40 0.6916
551.50 0.6911
551.60 0.6907
551.70 0.6902
551.80 0.6897
551.90 0.6892
552.00 0.6888
552.10 0.6883
552.20 0.6878
552.30 0.6873
552.40 0.6869
552.50 0.6864
552.60 0.6859
552.70 0.6855
552.80 0.685
552.90 0.6845
553.00 0.684
553.10 0.6836
553.20 0.6831
553.30 0.6826
553.40 0.6822
553.50 0.6817
553.60 0.6812
553.70 0.6808
553.80 0.6803
553.90 0.6798
554.00 0.6794
554.10 0.6789
554.20 0.6784
554.30 0.678
554.40 0.6775
554.50 0.6771
554.60 0.6766
554.70 0.6761
554.80 0.6757
554.90 0.6752
555.00 0.6747
555.10 0.6743
555.20 0.6738
555.30 0.6734
555.40 0.6729
555.50 0.6724
555.60 0.672
555.70 0.6715
555.80 0.6711
555.90 0.6706
556.00 0.6702
556.10 0.6697
556.20 0.6692
556.30 0.6688
556.40 0.6683
556.50 0.6679
556.60 0.6674
556.70 0.667
556.80 0.6665
556.90 0.6661
557.00 0.6656
557.10 0.6651
557.20 0.6647
557.30 0.6642
557.40 0.6638
557.50 0.6633
557.60 0.6629
557.70 0.6624
557.80 0.662
557.90 0.6615
558.00 0.6611
558.10 0.6606
558.20 0.6602
558.30 0.6597
558.40 0.6593
558.50 0.6588
558.60 0.6584
558.70 0.658
558.80 0.6575
558.90 0.6571
559.00 0.6566
559.10 0.6562
559.20 0.6557
559.30 0.6553
559.40 0.6548
559.50 0.6544
559.60 0.654
559.70 0.6535
559.80 0.6531
559.90 0.6526
560.00 0.6522
560.10 0.6517
560.20 0.6513
560.30 0.6509
560.40 0.6504
560.50 0.65
560.60 0.6495
560.70 0.6491
560.80 0.6487
560.90 0.6482
561.00 0.6478
561.10 0.6473
561.20 0.6469
561.30 0.6465
561.40 0.646
561.50 0.6456
561.60 0.6452
561.70 0.6447
561.80 0.6443
561.90 0.6439
562.00 0.6434
562.10 0.643
562.20 0.6425
562.30 0.6421
562.40 0.6417
562.50 0.6412
562.60 0.6408
562.70 0.6404
562.80 0.64
562.90 0.6395
563.00 0.6391
563.10 0.6387
563.20 0.6382
563.30 0.6378
563.40 0.6374
563.50 0.6369
563.60 0.6365
563.70 0.6361
563.80 0.6357
563.90 0.6352
564.00 0.6348
564.10 0.6344
564.20 0.6339
564.30 0.6335
564.40 0.6331
564.50 0.6327
564.60 0.6322
564.70 0.6318
564.80 0.6314
564.90 0.631
565.00 0.6305
565.10 0.6301
565.20 0.6297
565.30 0.6293
565.40 0.6289
565.50 0.6284
565.60 0.628
565.70 0.6276
565.80 0.6272
565.90 0.6267
566.00 0.6263
566.10 0.6259
566.20 0.6255
566.30 0.6251
566.40 0.6247
566.50 0.6242
566.60 0.6238
566.70 0.6234
566.80 0.623
566.90 0.6226
567.00 0.6221
567.10 0.6217
567.20 0.6213
567.30 0.6209
567.40 0.6205
567.50 0.6201
567.60 0.6197
567.70 0.6192
567.80 0.6188
567.90 0.6184
568.00 0.618
568.10 0.6176
568.20 0.6172
568.30 0.6168
568.40 0.6163
568.50 0.6159
568.60 0.6155
568.70 0.6151
568.80 0.6147
568.90 0.6143
569.00 0.6139
569.10 0.6135
569.20 0.6131
569.30 0.6127
569.40 0.6122
569.50 0.6118
569.60 0.6114
569.70 0.611
569.80 0.6106
569.90 0.6102
570.00 0.6098
570.10 0.6094
570.20 0.609
570.30 0.6086
570.40 0.6082
570.50 0.6078
570.60 0.6074
570.70 0.607
570.80 0.6066
570.90 0.6062
571.00 0.6058
571.10 0.6054
571.20 0.605
571.30 0.6046
571.40 0.6042
571.50 0.6038
571.60 0.6033
571.70 0.6029
571.80 0.6025
571.90 0.6021
572.00 0.6017
572.10 0.6013
572.20 0.6009
572.30 0.6006
572.40 0.6002
572.50 0.5998
572.60 0.5994
572.70 0.599
572.80 0.5986
572.90 0.5982
573.00 0.5978
573.10 0.5974
573.20 0.597
573.30 0.5966
573.40 0.5962
573.50 0.5958
573.60 0.5954
573.70 0.595
573.80 0.5946
573.90 0.5942
574.00 0.5938
574.10 0.5934
574.20 0.593
574.30 0.5926
574.40 0.5923
574.50 0.5919
574.60 0.5915
574.70 0.5911
574.80 0.5907
574.90 0.5903
575.00 0.5899
575.10 0.5895
575.20 0.5891
575.30 0.5887
575.40 0.5884
575.50 0.588
575.60 0.5876
575.70 0.5872
575.80 0.5868
575.90 0.5864
576.00 0.586
576.10 0.5856
576.20 0.5853
576.30 0.5849
576.40 0.5845
576.50 0.5841
576.60 0.5837
576.70 0.5833
576.80 0.5829
576.90 0.5826
577.00 0.5822
577.10 0.5818
577.20 0.5814
577.30 0.581
577.40 0.5806
577.50 0.5803
577.60 0.5799
577.70 0.5795
577.80 0.5791
577.90 0.5787
578.00 0.5784
578.10 0.578
578.20 0.5776
578.30 0.5772
578.40 0.5768
578.50 0.5765
578.60 0.5761
578.70 0.5757
578.80 0.5753
578.90 0.575
579.00 0.5746
579.10 0.5742
579.20 0.5738
579.30 0.5734
579.40 0.5731
579.50 0.5727
579.60 0.5723
579.70 0.5719
579.80 0.5716
579.90 0.5712
580.00 0.5708
580.10 0.5704
580.20 0.5701
580.30 0.5697
580.40 0.5693
580.50 0.569
580.60 0.5686
580.70 0.5682
580.80 0.5678
580.90 0.5675
581.00 0.5671
581.10 0.5667
581.20 0.5664
581.30 0.566
581.40 0.5656
581.50 0.5652
581.60 0.5649
581.70 0.5645
581.80 0.5641
581.90 0.5638
582.00 0.5634
582.10 0.563
582.20 0.5627
582.30 0.5623
582.40 0.5619
582.50 0.5616
582.60 0.5612
582.70 0.5608
582.80 0.5605
582.90 0.5601
583.00 0.5597
583.10 0.5594
583.20 0.559
583.30 0.5586
583.40 0.5583
583.50 0.5579
583.60 0.5576
583.70 0.5572
583.80 0.5568
583.90 0.5565
584.00 0.5561
584.10 0.5557
584.20 0.5554
584.30 0.555
584.40 0.5547
584.50 0.5543
584.60 0.5539
584.70 0.5536
584.80 0.5532
584.90 0.5529
585.00 0.5525
585.10 0.5521
585.20 0.5518
585.30 0.5514
585.40 0.5511
585.50 0.5507
585.60 0.5503
585.70 0.55
585.80 0.5496
585.90 0.5493
586.00 0.5489
586.10 0.5486
586.20 0.5482
586.30 0.5479
586.40 0.5475
586.50 0.5471
586.60 0.5468
586.70 0.5464
586.80 0.5461
586.90 0.5457
587.00 0.5454
587.10 0.545
587.20 0.5447
587.30 0.5443
587.40 0.544
587.50 0.5436
587.60 0.5433
587.70 0.5429
587.80 0.5426
587.90 0.5422
588.00 0.5419
588.10 0.5415
588.20 0.5412
588.30 0.5408
588.40 0.5405
588.50 0.5401
588.60 0.5398
588.70 0.5394
588.80 0.5391
588.90 0.5387
589.00 0.5384
589.10 0.538
589.20 0.5377
589.30 0.5373
589.40 0.537
589.50 0.5366
589.60 0.5363
589.70 0.5359
589.80 0.5356
589.90 0.5352
590.00 0.5349
590.10 0.5346
590.20 0.5342
590.30 0.5339
590.40 0.5335
590.50 0.5332
590.60 0.5328
590.70 0.5325
590.80 0.5321
590.90 0.5318
591.00 0.5315
591.10 0.5311
591.20 0.5308
591.30 0.5304
591.40 0.5301
591.50 0.5298
591.60 0.5294
591.70 0.5291
591.80 0.5287
591.90 0.5284
592.00 0.5281
592.10 0.5277
592.20 0.5274
592.30 0.527
592.40 0.5267
592.50 0.5264
592.60 0.526
592.70 0.5257
592.80 0.5254
592.90 0.525
593.00 0.5247
593.10 0.5243
593.20 0.524
593.30 0.5237
593.40 0.5233
593.50 0.523
593.60 0.5227
593.70 0.5223
593.80 0.522
593.90 0.5217
594.00 0.5213
594.10 0.521
594.20 0.5207
594.30 0.5203
594.40 0.52
594.50 0.5197
594.60 0.5193
594.70 0.519
594.80 0.5187
594.90 0.5183
595.00 0.518
595.10 0.5177
595.20 0.5173
595.30 0.517
595.40 0.5167
595.50 0.5163
595.60 0.516
595.70 0.5157
595.80 0.5154
595.90 0.515
596.00 0.5147
596.10 0.5144
596.20 0.514
596.30 0.5137
596.40 0.5134
596.50 0.5131
596.60 0.5127
596.70 0.5124
596.80 0.5121
596.90 0.5118
597.00 0.5114
597.10 0.5111
597.20 0.5108
597.30 0.5105
597.40 0.5101
597.50 0.5098
597.60 0.5095
597.70 0.5092
597.80 0.5088
597.90 0.5085
598.00 0.5082
598.10 0.5079
598.20 0.5075
598.30 0.5072
598.40 0.5069
598.50 0.5066
598.60 0.5062
598.70 0.5059
598.80 0.5056
598.90 0.5053
599.00 0.505
599.10 0.5046
599.20 0.5043
599.30 0.504
599.40 0.5037
599.50 0.5034
599.60 0.503
599.70 0.5027
599.80 0.5024
599.90 0.5021
600.00 0.5018
600.10 0.5014
600.20 0.5011
600.30 0.5008
600.40 0.5005
600.50 0.5002
600.60 0.4999
600.70 0.4995
600.80 0.4992
600.90 0.4989
601.00 0.4986
601.10 0.4983
601.20 0.498
601.30 0.4976
601.40 0.4973
601.50 0.497
601.60 0.4967
601.70 0.4964
601.80 0.4961
601.90 0.4958
602.00 0.4954
602.10 0.4951
602.20 0.4948
602.30 0.4945
602.40 0.4942
602.50 0.4939
602.60 0.4936
602.70 0.4933
602.80 0.4929
602.90 0.4926
603.00 0.4923
603.10 0.492
603.20 0.4917
603.30 0.4914
603.40 0.4911
603.50 0.4908
603.60 0.4905
603.70 0.4902
603.80 0.4898
603.90 0.4895
604.00 0.4892
604.10 0.4889
604.20 0.4886
604.30 0.4883
604.40 0.488
604.50 0.4877
604.60 0.4874
604.70 0.4871
604.80 0.4868
604.90 0.4865
605.00 0.4862
605.10 0.4858
605.20 0.4855
605.30 0.4852
605.40 0.4849
605.50 0.4846
605.60 0.4843
605.70 0.484
605.80 0.4837
605.90 0.4834
606.00 0.4831
606.10 0.4828
606.20 0.4825
606.30 0.4822
606.40 0.4819
606.50 0.4816
606.60 0.4813
606.70 0.481
606.80 0.4807
606.90 0.4804
607.00 0.4801
607.10 0.4798
607.20 0.4795
607.30 0.4792
607.40 0.4789
607.50 0.4786
607.60 0.4783
607.70 0.478
607.80 0.4777
607.90 0.4774
608.00 0.4771
608.10 0.4768
608.20 0.4765
608.30 0.4762
608.40 0.4759
608.50 0.4756
608.60 0.4753
608.70 0.475
608.80 0.4747
608.90 0.4744
609.00 0.4741
609.10 0.4738
609.20 0.4735
609.30 0.4732
609.40 0.4729
609.50 0.4726
609.60 0.4723
609.70 0.472
609.80 0.4717
609.90 0.4714
610.00 0.4711
610.10 0.4709
610.20 0.4706
610.30 0.4703
610.40 0.47
610.50 0.4697
610.60 0.4694
610.70 0.4691
610.80 0.4688
610.90 0.4685
611.00 0.4682
611.10 0.4679
611.20 0.4676
611.30 0.4673
611.40 0.467
611.50 0.4668
611.60 0.4665
611.70 0.4662
611.80 0.4659
611.90 0.4656
612.00 0.4653
612.10 0.465
612.20 0.4647
612.30 0.4644
612.40 0.4641
612.50 0.4639
612.60 0.4636
612.70 0.4633
612.80 0.463
612.90 0.4627
613.00 0.4624
613.10 0.4621
613.20 0.4618
613.30 0.4616
613.40 0.4613
613.50 0.461
613.60 0.4607
613.70 0.4604
613.80 0.4601
613.90 0.4598
614.00 0.4596
614.10 0.4593
614.20 0.459
614.30 0.4587
614.40 0.4584
614.50 0.4581
614.60 0.4578
614.70 0.4576
614.80 0.4573
614.90 0.457
615.00 0.4567
615.10 0.4564
615.20 0.4561
615.30 0.4559
615.40 0.4556
615.50 0.4553
615.60 0.455
615.70 0.4547
615.80 0.4545
615.90 0.4542
616.00 0.4539
616.10 0.4536
616.20 0.4533
616.30 0.453
616.40 0.4528
616.50 0.4525
616.60 0.4522
616.70 0.4519
616.80 0.4516
616.90 0.4514
617.00 0.4511
617.10 0.4508
617.20 0.4505
617.30 0.4503
617.40 0.45
617.50 0.4497
617.60 0.4494
617.70 0.4491
617.80 0.4489
617.90 0.4486
618.00 0.4483
618.10 0.448
618.20 0.4478
618.30 0.4475
618.40 0.4472
618.50 0.4469
618.60 0.4467
618.70 0.4464
618.80 0.4461
618.90 0.4458
619.00 0.4456
619.10 0.4453
619.20 0.445
619.30 0.4447
619.40 0.4445
619.50 0.4442
619.60 0.4439
619.70 0.4436
619.80 0.4434
619.90 0.4431
620.00 0.4428
620.10 0.4425
620.20 0.4423
620.30 0.442
620.40 0.4417
620.50 0.4415
620.60 0.4412
620.70 0.4409
620.80 0.4406
620.90 0.4404
621.00 0.4401
621.10 0.4398
621.20 0.4396
621.30 0.4393
621.40 0.439
621.50 0.4388
621.60 0.4385
621.70 0.4382
621.80 0.4379
621.90 0.4377
622.00 0.4374
622.10 0.4371
622.20 0.4369
622.30 0.4366
622.40 0.4363
622.50 0.4361
622.60 0.4358
622.70 0.4355
622.80 0.4353
622.90 0.435
623.00 0.4347
623.10 0.4345
623.20 0.4342
623.30 0.4339
623.40 0.4337
623.50 0.4334
623.60 0.4331
623.70 0.4329
623.80 0.4326
623.90 0.4323
624.00 0.4321
624.10 0.4318
624.20 0.4315
624.30 0.4313
624.40 0.431
624.50 0.4308
624.60 0.4305
624.70 0.4302
624.80 0.43
624.90 0.4297
625.00 0.4294
625.10 0.4292
625.20 0.4289
625.30 0.4287
625.40 0.4284
625.50 0.4281
625.60 0.4279
625.70 0.4276
625.80 0.4273
625.90 0.4271
626.00 0.4268
626.10 0.4266
626.20 0.4263
626.30 0.426
626.40 0.4258
626.50 0.4255
626.60 0.4253
626.70 0.425
626.80 0.4247
626.90 0.4245
627.00 0.4242
627.10 0.424
627.20 0.4237
627.30 0.4234
627.40 0.4232
627.50 0.4229
627.60 0.4227
627.70 0.4224
627.80 0.4222
627.90 0.4219
628.00 0.4216
628.10 0.4214
628.20 0.4211
628.30 0.4209
628.40 0.4206
628.50 0.4204
628.60 0.4201
628.70 0.4199
628.80 0.4196
628.90 0.4193
629.00 0.4191
629.10 0.4188
629.20 0.4186
629.30 0.4183
629.40 0.4181
629.50 0.4178
629.60 0.4176
629.70 0.4173
629.80 0.417
629.90 0.4168
630.00 0.4165
630.10 0.4163
630.20 0.416
630.30 0.4158
630.40 0.4155
630.50 0.4153
630.60 0.415
630.70 0.4148
630.80 0.4145
630.90 0.4143
631.00 0.414
631.10 0.4138
631.20 0.4135
631.30 0.4133
631.40 0.413
631.50 0.4128
631.60 0.4125
631.70 0.4123
631.80 0.412
631.90 0.4118
632.00 0.4115
632.10 0.4113
632.20 0.411
632.30 0.4108
632.40 0.4105
632.50 0.4103
632.60 0.41
632.70 0.4098
632.80 0.4095
632.90 0.4093
633.00 0.409
633.10 0.4088
633.20 0.4085
633.30 0.4083
633.40 0.408
633.50 0.4078
633.60 0.4075
633.70 0.4073
633.80 0.407
633.90 0.4068
634.00 0.4065
634.10 0.4063
634.20 0.4061
634.30 0.4058
634.40 0.4056
634.50 0.4053
634.60 0.4051
634.70 0.4048
634.80 0.4046
634.90 0.4043
635.00 0.4041
635.10 0.4038
635.20 0.4036
635.30 0.4034
635.40 0.4031
635.50 0.4029
635.60 0.4026
635.70 0.4024
635.80 0.4021
635.90 0.4019
636.00 0.4016
636.10 0.4014
636.20 0.4012
636.30 0.4009
636.40 0.4007
636.50 0.4004
636.60 0.4002
636.70 0.3999
636.80 0.3997
636.90 0.3995
637.00 0.3992
637.10 0.399
637.20 0.3987
637.30 0.3985
637.40 0.3982
637.50 0.398
637.60 0.3978
637.70 0.3975
637.80 0.3973
637.90 0.397
638.00 0.3968
638.10 0.3966
638.20 0.3963
638.30 0.3961
638.40 0.3958
638.50 0.3956
638.60 0.3954
638.70 0.3951
638.80 0.3949
638.90 0.3946
639.00 0.3944
639.10 0.3942
639.20 0.3939
639.30 0.3937
639.40 0.3934
639.50 0.3932
639.60 0.393
639.70 0.3927
639.80 0.3925
639.90 0.3922
640.00 0.392
640.10 0.3918
640.20 0.3915
640.30 0.3913
640.40 0.391
640.50 0.3908
640.60 0.3906
640.70 0.3903
640.80 0.3901
640.90 0.3898
641.00 0.3896
641.10 0.3894
641.20 0.3891
641.30 0.3889
641.40 0.3887
641.50 0.3884
641.60 0.3882
641.70 0.3879
641.80 0.3877
641.90 0.3875
642.00 0.3872
642.10 0.387
642.20 0.3867
642.30 0.3865
642.40 0.3863
642.50 0.386
642.60 0.3858
642.70 0.3856
642.80 0.3853
642.90 0.3851
643.00 0.3848
643.10 0.3846
643.20 0.3844
643.30 0.3841
643.40 0.3839
643.50 0.3836
643.60 0.3834
643.70 0.3832
643.80 0.3829
643.90 0.3827
644.00 0.3824
644.10 0.3822
644.20 0.382
644.30 0.3817
644.40 0.3815
644.50 0.3812
644.60 0.381
644.70 0.3808
644.80 0.3805
644.90 0.3803
645.00 0.38
645.10 0.3798
645.20 0.3795
645.30 0.3793
645.40 0.3791
645.50 0.3788
645.60 0.3786
645.70 0.3783
645.80 0.3781
645.90 0.3778
646.00 0.3776
646.10 0.3773
646.20 0.3771
646.30 0.3769
646.40 0.3766
646.50 0.3763
646.60 0.3761
646.70 0.3758
646.80 0.3756
646.90 0.3753
647.00 0.3751
647.10 0.3748
647.20 0.3746
647.30 0.3743
647.40 0.3741
647.50 0.3738
647.60 0.3736
647.70 0.3733
647.80 0.373
647.90 0.3728
648.00 0.3725
648.10 0.3722
648.20 0.372
648.30 0.3717
648.40 0.3714
648.50 0.3712
648.60 0.3709
648.70 0.3706
648.80 0.3703
648.90 0.37
649.00 0.3698
649.10 0.3695
649.20 0.3692
649.30 0.3689
649.40 0.3686
649.50 0.3683
649.60 0.368
649.70 0.3677
649.80 0.3674
649.90 0.3671
650.00 0.3668
650.10 0.3665
650.20 0.3661
650.30 0.3658
650.40 0.3655
650.50 0.3651
650.60 0.3647
650.70 0.3644
650.80 0.364
650.90 0.3636
651.00 0.3633
651.10 0.3629
651.20 0.3626
651.30 0.3622
651.40 0.3617
651.50 0.3612
651.60 0.3608
651.70 0.3603
651.80 0.3598
651.90 0.3594
652.00 0.3589
652.10 0.3585
652.20 0.358
652.30 0.3575
652.40 0.3568
652.50 0.3561
652.60 0.3555
652.70 0.3548
652.80 0.3541
652.90 0.3535
653.00 0.3528
653.10 0.3521
653.20 0.3515
653.30 0.3507
653.40 0.3496
653.50 0.3485
653.60 0.3474
653.70 0.3463
653.80 0.3452
653.90 0.3441
654.00 0.343
654.10 0.3419
654.20 0.3408
654.30 0.3396
654.40 0.3379
654.50 0.3362
654.60 0.3346
654.70 0.3329
654.80 0.3311
654.90 0.3288
655.00 0.3265
655.10 0.3242
655.20 0.322
655.30 0.3196
655.40 0.3168
655.50 0.3138
655.60 0.3106
655.70 0.3073
655.80 0.3036
655.90 0.2995
656.00 0.2941
656.10 0.2881
656.20 0.2707
656.30 0.2632
656.40 0.279
656.50 0.29
656.60 0.2951
656.70 0.2999
656.80 0.3033
656.90 0.3066
657.00 0.3094
657.10 0.3122
657.20 0.3146
657.30 0.317
657.40 0.3189
657.50 0.3208
657.60 0.3227
657.70 0.3245
657.80 0.3263
657.90 0.3276
658.00 0.3289
658.10 0.3301
658.20 0.3314
658.30 0.3326
658.40 0.3332
658.50 0.3339
658.60 0.3346
658.70 0.3353
658.80 0.336
658.90 0.3366
659.00 0.3373
659.10 0.338
659.20 0.3387
659.30 0.3393
659.40 0.3395
659.50 0.3398
659.60 0.34
659.70 0.3402
659.80 0.3405
659.90 0.3407
660.00 0.341
660.10 0.3412
660.20 0.3415
660.30 0.3417
660.40 0.3417
660.50 0.3417
660.60 0.3418
660.70 0.3418
660.80 0.3419
660.90 0.3419
661.00 0.3419
661.10 0.342
661.20 0.342
661.30 0.342
661.40 0.342
661.50 0.3419
661.60 0.3419
661.70 0.3418
661.80 0.3417
661.90 0.3417
662.00 0.3416
662.10 0.3415
662.20 0.3415
662.30 0.3414
662.40 0.3413
662.50 0.3412
662.60 0.3411
662.70 0.341
662.80 0.3408
662.90 0.3407
663.00 0.3406
663.10 0.3405
663.20 0.3404
663.30 0.3403
663.40 0.3401
663.50 0.34
663.60 0.3398
663.70 0.3397
663.80 0.3396
663.90 0.3394
664.00 0.3393
664.10 0.3391
664.20 0.339
664.30 0.3388
664.40 0.3387
664.50 0.3385
664.60 0.3384
664.70 0.3382
664.80 0.3381
664.90 0.3379
665.00 0.3377
665.10 0.3376
665.20 0.3374
665.30 0.3373
665.40 0.3371
665.50 0.3369
665.60 0.3368
665.70 0.3366
665.80 0.3364
665.90 0.3362
666.00 0.3361
666.10 0.3359
666.20 0.3357
666.30 0.3356
666.40 0.3354
666.50 0.3352
666.60 0.3351
666.70 0.3349
666.80 0.3347
666.90 0.3345
667.00 0.3344
667.10 0.3342
667.20 0.334
667.30 0.3338
667.40 0.3337
667.50 0.3335
667.60 0.3333
667.70 0.3331
667.80 0.3329
667.90 0.3328
668.00 0.3326
668.10 0.3324
668.20 0.3322
668.30 0.3321
668.40 0.3319
668.50 0.3317
668.60 0.3315
668.70 0.3313
668.80 0.3312
668.90 0.331
669.00 0.3308
669.10 0.3306
669.20 0.3304
669.30 0.3303
669.40 0.3301
669.50 0.3299
669.60 0.3297
669.70 0.3295
669.80 0.3294
669.90 0.3292
670.00 0.329
670.10 0.3288
670.20 0.3286
670.30 0.3285
670.40 0.3283
670.50 0.3281
670.60 0.3279
670.70 0.3277
670.80 0.3276
670.90 0.3274
671.00 0.3272
671.10 0.327
671.20 0.3268
671.30 0.3267
671.40 0.3265
671.50 0.3263
671.60 0.3261
671.70 0.3259
671.80 0.3257
671.90 0.3256
672.00 0.3254
672.10 0.3252
672.20 0.325
672.30 0.3248
672.40 0.3247
672.50 0.3245
672.60 0.3243
672.70 0.3241
672.80 0.3239
672.90 0.3238
673.00 0.3236
673.10 0.3234
673.20 0.3232
673.30 0.323
673.40 0.3229
673.50 0.3227
673.60 0.3225
673.70 0.3223
673.80 0.3221
673.90 0.322
674.00 0.3218
674.10 0.3216
674.20 0.3214
674.30 0.3212
674.40 0.3211
674.50 0.3209
674.60 0.3207
674.70 0.3205
674.80 0.3204
674.90 0.3202
675.00 0.32
675.10 0.3198
675.20 0.3196
675.30 0.3195
675.40 0.3193
675.50 0.3191
675.60 0.3189
675.70 0.3187
675.80 0.3186
675.90 0.3184
676.00 0.3182
676.10 0.318
676.20 0.3179
676.30 0.3177
676.40 0.3175
676.50 0.3173
676.60 0.3171
676.70 0.317
676.80 0.3168
676.90 0.3166
677.00 0.3164
677.10 0.3163
677.20 0.3161
677.30 0.3159
677.40 0.3157
677.50 0.3155
677.60 0.3154
677.70 0.3152
677.80 0.315
677.90 0.3148
678.00 0.3147
678.10 0.3145
678.20 0.3143
678.30 0.3141
678.40 0.314
678.50 0.3138
678.60 0.3136
678.70 0.3134
678.80 0.3133
678.90 0.3131
679.00 0.3129
679.10 0.3127
679.20 0.3126
679.30 0.3124
679.40 0.3122
679.50 0.312
679.60 0.3119
679.70 0.3117
679.80 0.3115
679.90 0.3113
680.00 0.3112
680.10 0.311
680.20 0.3108
680.30 0.3106
680.40 0.3105
680.50 0.3103
680.60 0.3101
680.70 0.31
680.80 0.3098
680.90 0.3096
681.00 0.3094
681.10 0.3093
681.20 0.3091
681.30 0.3089
681.40 0.3087
681.50 0.3086
681.60 0.3084
681.70 0.3082
681.80 0.3081
681.90 0.3079
682.00 0.3077
682.10 0.3075
682.20 0.3074
682.30 0.3072
682.40 0.307
682.50 0.3069
682.60 0.3067
682.70 0.3065
682.80 0.3063
682.90 0.3062
683.00 0.306
683.10 0.3058
683.20 0.3057
683.30 0.3055
683.40 0.3053
683.50 0.3051
683.60 0.305
683.70 0.3048
683.80 0.3046
683.90 0.3045
684.00 0.3043
684.10 0.3041
684.20 0.304
684.30 0.3038
684.40 0.3036
684.50 0.3034
684.60 0.3033
684.70 0.3031
684.80 0.3029
684.90 0.3028
685.00 0.3026
685.10 0.3024
685.20 0.3023
685.30 0.3021
685.40 0.3019
685.50 0.3018
685.60 0.3016
685.70 0.3014
685.80 0.3013
685.90 0.3011
686.00 0.3009
686.10 0.3008
686.20 0.3006
686.30 0.3004
686.40 0.3003
686.50 0.3001
686.60 0.2999
686.70 0.2998
686.80 0.2996
686.90 0.2994
687.00 0.2993
687.10 0.2991
687.20 0.2989
687.30 0.2988
687.40 0.2986
687.50 0.2984
687.60 0.2983
687.70 0.2981
687.80 0.2979
687.90 0.2978
688.00 0.2976
688.10 0.2974
688.20 0.2973
688.30 0.2971
688.40 0.2969
688.50 0.2968
688.60 0.2966
688.70 0.2964
688.80 0.2963
688.90 0.2961
689.00 0.296
689.10 0.2958
689.20 0.2956
689.30 0.2955
689.40 0.2953
689.50 0.2951
689.60 0.295
689.70 0.2948
689.80 0.2946
689.90 0.2945
690.00 0.2943
690.10 0.2942
690.20 0.294
690.30 0.2938
690.40 0.2937
690.50 0.2935
690.60 0.2933
690.70 0.2932
690.80 0.293
690.90 0.2929
691.00 0.2927
691.10 0.2925
691.20 0.2924
691.30 0.2922
691.40 0.2921
691.50 0.2919
691.60 0.2917
691.70 0.2916
691.80 0.2914
691.90 0.2913
692.00 0.2911
692.10 0.2909
692.20 0.2908
692.30 0.2906
692.40 0.2904
692.50 0.2903
692.60 0.2901
692.70 0.29
692.80 0.2898
692.90 0.2896
693.00 0.2895
693.10 0.2893
693.20 0.2892
693.30 0.289
693.40 0.2888
693.50 0.2887
693.60 0.2885
693.70 0.2884
693.80 0.2882
693.90 0.2881
694.00 0.2879
694.10 0.2877
694.20 0.2876
694.30 0.2874
694.40 0.2873
694.50 0.2871
694.60 0.2869
694.70 0.2868
694.80 0.2866
694.90 0.2865
695.00 0.2863
695.10 0.2861
695.20 0.286
695.30 0.2858
695.40 0.2857
695.50 0.2855
695.60 0.2854
695.70 0.2852
695.80 0.2851
695.90 0.2849
696.00 0.2847
696.10 0.2846
696.20 0.2844
696.30 0.2843
696.40 0.2841
696.50 0.284
696.60 0.2838
696.70 0.2836
696.80 0.2835
696.90 0.2833
697.00 0.2832
697.10 0.283
697.20 0.2829
697.30 0.2827
697.40 0.2826
697.50 0.2824
697.60 0.2823
697.70 0.2821
697.80 0.2819
697.90 0.2818
698.00 0.2816
698.10 0.2815
698.20 0.2813
698.30 0.2812
698.40 0.281
698.50 0.2809
698.60 0.2807
698.70 0.2806
698.80 0.2804
698.90 0.2802
699.00 0.2801
699.10 0.2799
699.20 0.2798
699.30 0.2796
699.40 0.2795
699.50 0.2793
699.60 0.2792
699.70 0.279
699.80 0.2789
699.90 0.2787
700.00 0.2786
700.10 0.2784
700.20 0.2783
700.30 0.2781
700.40 0.278
700.50 0.2778
700.60 0.2777
700.70 0.2775
700.80 0.2773
700.90 0.2772
701.00 0.277
701.10 0.2769
701.20 0.2767
701.30 0.2766
701.40 0.2764
701.50 0.2763
701.60 0.2761
701.70 0.276
701.80 0.2758
701.90 0.2757
702.00 0.2755
702.10 0.2754
702.20 0.2752
702.30 0.2751
702.40 0.2749
702.50 0.2748
702.60 0.2746
702.70 0.2745
702.80 0.2743
702.90 0.2742
703.00 0.274
703.10 0.2739
703.20 0.2737
703.30 0.2736
703.40 0.2734
703.50 0.2733
703.60 0.2732
703.70 0.273
703.80 0.2729
703.90 0.2727
704.00 0.2726
704.10 0.2724
704.20 0.2723
704.30 0.2721
704.40 0.272
704.50 0.2718
704.60 0.2717
704.70 0.2715
704.80 0.2714
704.90 0.2712
705.00 0.2711
705.10 0.2709
705.20 0.2708
705.30 0.2706
705.40 0.2705
705.50 0.2703
705.60 0.2702
705.70 0.27
705.80 0.2699
705.90 0.2698
706.00 0.2696
706.10 0.2695
706.20 0.2693
706.30 0.2692
706.40 0.269
706.50 0.2689
706.60 0.2687
706.70 0.2686
706.80 0.2684
706.90 0.2683
707.00 0.2682
707.10 0.268
707.20 0.2679
707.30 0.2677
707.40 0.2676
707.50 0.2674
707.60 0.2673
707.70 0.2671
707.80 0.267
707.90 0.2669
708.00 0.2667
708.10 0.2666
708.20 0.2664
708.30 0.2663
708.40 0.2661
708.50 0.266
708.60 0.2658
708.70 0.2657
708.80 0.2656
708.90 0.2654
709.00 0.2653
709.10 0.2651
709.20 0.265
709.30 0.2648
709.40 0.2647
709.50 0.2646
709.60 0.2644
709.70 0.2643
709.80 0.2641
709.90 0.264
710.00 0.2638
710.10 0.2637
710.20 0.2636
710.30 0.2634
710.40 0.2633
710.50 0.2631
710.60 0.263
710.70 0.2628
710.80 0.2627
710.90 0.2626
711.00 0.2624
711.10 0.2623
711.20 0.2621
711.30 0.262
711.40 0.2619
711.50 0.2617
711.60 0.2616
711.70 0.2614
711.80 0.2613
711.90 0.2612
712.00 0.261
712.10 0.2609
712.20 0.2607
712.30 0.2606
712.40 0.2605
712.50 0.2603
712.60 0.2602
712.70 0.26
712.80 0.2599
712.90 0.2598
713.00 0.2596
713.10 0.2595
713.20 0.2593
713.30 0.2592
713.40 0.2591
713.50 0.2589
713.60 0.2588
713.70 0.2586
713.80 0.2585
713.90 0.2584
714.00 0.2582
714.10 0.2581
714.20 0.2579
714.30 0.2578
714.40 0.2577
714.50 0.2575
714.60 0.2574
714.70 0.2573
714.80 0.2571
714.90 0.257
715.00 0.2568
715.10 0.2567
715.20 0.2566
715.30 0.2564
715.40 0.2563
715.50 0.2562
715.60 0.256
715.70 0.2559
715.80 0.2557
715.90 0.2556
716.00 0.2555
716.10 0.2553
716.20 0.2552
716.30 0.2551
716.40 0.2549
716.50 0.2548
716.60 0.2547
716.70 0.2545
716.80 0.2544
716.90 0.2542
717.00 0.2541
717.10 0.254
717.20 0.2538
717.30 0.2537
717.40 0.2536
717.50 0.2534
717.60 0.2533
717.70 0.2532
717.80 0.253
717.90 0.2529
718.00 0.2528
718.10 0.2526
718.20 0.2525
718.30 0.2524
718.40 0.2522
718.50 0.2521
718.60 0.2519
718.70 0.2518
718.80 0.2517
718.90 0.2515
719.00 0.2514
719.10 0.2513
719.20 0.2511
719.30 0.251
719.40 0.2509
719.50 0.2507
719.60 0.2506
719.70 0.2505
719.80 0.2503
719.90 0.2502
720.00 0.2501
720.10 0.2499
720.20 0.2498
720.30 0.2497
720.40 0.2495
720.50 0.2494
720.60 0.2493
720.70 0.2491
720.80 0.249
720.90 0.2489
721.00 0.2487
721.10 0.2486
721.20 0.2485
721.30 0.2484
721.40 0.2482
721.50 0.2481
721.60 0.248
721.70 0.2478
721.80 0.2477
721.90 0.2476
722.00 0.2474
722.10 0.2473
722.20 0.2472
722.30 0.247
722.40 0.2469
722.50 0.2468
722.60 0.2466
722.70 0.2465
722.80 0.2464
722.90 0.2463
723.00 0.2461
723.10 0.246
723.20 0.2459
723.30 0.2457
723.40 0.2456
723.50 0.2455
723.60 0.2453
723.70 0.2452
723.80 0.2451
723.90 0.2449
724.00 0.2448
724.10 0.2447
724.20 0.2446
724.30 0.2444
724.40 0.2443
724.50 0.2442
724.60 0.244
724.70 0.2439
724.80 0.2438
724.90 0.2437
725.00 0.2435
725.10 0.2434
725.20 0.2433
725.30 0.2431
725.40 0.243
725.50 0.2429
725.60 0.2428
725.70 0.2426
725.80 0.2425
725.90 0.2424
726.00 0.2422
726.10 0.2421
726.20 0.242
726.30 0.2419
726.40 0.2417
726.50 0.2416
726.60 0.2415
726.70 0.2414
726.80 0.2412
726.90 0.2411
727.00 0.241
727.10 0.2408
727.20 0.2407
727.30 0.2406
727.40 0.2405
727.50 0.2403
727.60 0.2402
727.70 0.2401
727.80 0.24
727.90 0.2398
728.00 0.2397
728.10 0.2396
728.20 0.2395
728.30 0.2393
728.40 0.2392
728.50 0.2391
728.60 0.2389
728.70 0.2388
728.80 0.2387
728.90 0.2386
729.00 0.2384
729.10 0.2383
729.20 0.2382
729.30 0.2381
729.40 0.2379
729.50 0.2378
729.60 0.2377
729.70 0.2376
729.80 0.2374
729.90 0.2373
730.00 0.2372
730.10 0.2371
730.20 0.2369
730.30 0.2368
730.40 0.2367
730.50 0.2366
730.60 0.2364
730.70 0.2363
730.80 0.2362
730.90 0.2361
731.00 0.236
731.10 0.2358
731.20 0.2357
731.30 0.2356
731.40 0.2355
731.50 0.2353
731.60 0.2352
731.70 0.2351
731.80 0.235
731.90 0.2349
732.00 0.2347
732.10 0.2346
732.20 0.2345
732.30 0.2344
732.40 0.2342
732.50 0.2341
732.60 0.234
732.70 0.2339
732.80 0.2338
732.90 0.2336
733.00 0.2335
733.10 0.2334
733.20 0.2333
733.30 0.2331
733.40 0.233
733.50 0.2329
733.60 0.2328
733.70 0.2327
733.80 0.2325
733.90 0.2324
734.00 0.2323
734.10 0.2322
734.20 0.2321
734.30 0.2319
734.40 0.2318
734.50 0.2317
734.60 0.2316
734.70 0.2314
734.80 0.2313
734.90 0.2312
735.00 0.2311
735.10 0.231
735.20 0.2308
735.30 0.2307
735.40 0.2306
735.50 0.2305
735.60 0.2304
735.70 0.2302
735.80 0.2301
735.90 0.23
736.00 0.2299
736.10 0.2298
736.20 0.2296
736.30 0.2295
736.40 0.2294
736.50 0.2293
736.60 0.2292
736.70 0.229
736.80 0.2289
736.90 0.2288
737.00 0.2287
737.10 0.2286
737.20 0.2284
737.30 0.2283
737.40 0.2282
737.50 0.2281
737.60 0.228
737.70 0.2279
737.80 0.2277
737.90 0.2276
738.00 0.2275
738.10 0.2274
738.20 0.2273
738.30 0.2271
738.40 0.227
738.50 0.2269
738.60 0.2268
738.70 0.2267
738.80 0.2265
738.90 0.2264
739.00 0.2263
739.10 0.2262
739.20 0.2261
739.30 0.226
739.40 0.2258
739.50 0.2257
739.60 0.2256
739.70 0.2255
739.80 0.2254
739.90 0.2252
740.00 0.2251
740.10 0.225
740.20 0.2249
740.30 0.2248
740.40 0.2247
740.50 0.2246
740.60 0.2244
740.70 0.2243
740.80 0.2242
740.90 0.2241
741.00 0.224
741.10 0.2239
741.20 0.2237
741.30 0.2236
741.40 0.2235
741.50 0.2234
741.60 0.2233
741.70 0.2232
741.80 0.2231
741.90 0.2229
742.00 0.2228
742.10 0.2227
742.20 0.2226
742.30 0.2225
742.40 0.2224
742.50 0.2223
742.60 0.2221
742.70 0.222
742.80 0.2219
742.90 0.2218
743.00 0.2217
743.10 0.2216
743.20 0.2215
743.30 0.2213
743.40 0.2212
743.50 0.2211
743.60 0.221
743.70 0.2209
743.80 0.2208
743.90 0.2207
744.00 0.2205
744.10 0.2204
744.20 0.2203
744.30 0.2202
744.40 0.2201
744.50 0.22
744.60 0.2199
744.70 0.2197
744.80 0.2196
744.90 0.2195
745.00 0.2194
745.10 0.2193
745.20 0.2192
745.30 0.2191
745.40 0.219
745.50 0.2188
745.60 0.2187
745.70 0.2186
745.80 0.2185
745.90 0.2184
746.00 0.2183
746.10 0.2182
746.20 0.2181
746.30 0.2179
746.40 0.2178
746.50 0.2177
746.60 0.2176
746.70 0.2175
746.80 0.2174
746.90 0.2173
747.00 0.2172
747.10 0.217
747.20 0.2169
747.30 0.2168
747.40 0.2167
747.50 0.2166
747.60 0.2165
747.70 0.2164
747.80 0.2163
747.90 0.2162
748.00 0.216
748.10 0.2159
748.20 0.2158
748.30 0.2157
748.40 0.2156
748.50 0.2155
748.60 0.2154
748.70 0.2153
748.80 0.2152
748.90 0.215
749.00 0.2149
749.10 0.2148
749.20 0.2147
749.30 0.2146
749.40 0.2145
749.50 0.2144
749.60 0.2143
749.70 0.2142
749.80 0.214
749.90 0.2139
750.00 0.2138
750.10 0.2137
750.20 0.2136
750.30 0.2135
750.40 0.2134
750.50 0.2133
750.60 0.2132
750.70 0.2131
750.80 0.213
750.90 0.2128
751.00 0.2127
751.10 0.2126
751.20 0.2125
751.30 0.2124
751.40 0.2123
751.50 0.2122
751.60 0.2121
751.70 0.212
751.80 0.2119
751.90 0.2118
752.00 0.2117
752.10 0.2116
752.20 0.2114
752.30 0.2113
752.40 0.2112
752.50 0.2111
752.60 0.211
752.70 0.2109
752.80 0.2108
752.90 0.2107
753.00 0.2106
753.10 0.2105
753.20 0.2104
753.30 0.2103
753.40 0.2102
753.50 0.2101
753.60 0.21
753.70 0.2098
753.80 0.2097
753.90 0.2096
754.00 0.2095
754.10 0.2094
754.20 0.2093
754.30 0.2092
754.40 0.2091
754.50 0.209
754.60 0.2089
754.70 0.2088
754.80 0.2087
754.90 0.2086
755.00 0.2085
755.10 0.2084
755.20 0.2082
755.30 0.2081
755.40 0.208
755.50 0.2079
755.60 0.2078
755.70 0.2077
755.80 0.2076
755.90 0.2075
756.00 0.2074
756.10 0.2073
756.20 0.2072
756.30 0.2071
756.40 0.207
756.50 0.2069
756.60 0.2068
756.70 0.2067
756.80 0.2066
756.90 0.2065
757.00 0.2064
757.10 0.2062
757.20 0.2061
757.30 0.206
757.40 0.2059
757.50 0.2058
757.60 0.2057
757.70 0.2056
757.80 0.2055
757.90 0.2054
758.00 0.2053
758.10 0.2052
758.20 0.2051
758.30 0.205
758.40 0.2049
758.50 0.2048
758.60 0.2047
758.70 0.2046
758.80 0.2045
758.90 0.2044
759.00 0.2043
759.10 0.2042
759.20 0.2041
759.30 0.2039
759.40 0.2038
759.50 0.2037
759.60 0.2036
759.70 0.2035
759.80 0.2034
759.90 0.2033
760.00 0.2032
760.10 0.2031
760.20 0.203
760.30 0.2029
760.40 0.2028
760.50 0.2027
760.60 0.2026
760.70 0.2025
760.80 0.2024
760.90 0.2023
761.00 0.2022
761.10 0.2021
761.20 0.202
761.30 0.2019
761.40 0.2018
761.50 0.2017
761.60 0.2016
761.70 0.2015
761.80 0.2014
761.90 0.2013
762.00 0.2012
762.10 0.2011
762.20 0.201
762.30 0.2009
762.40 0.2008
762.50 0.2007
762.60 0.2006
762.70 0.2005
762.80 0.2004
762.90 0.2003
763.00 0.2002
763.10 0.2001
763.20 0.2
763.30 0.1999
763.40 0.1998
763.50 0.1997
763.60 0.1996
763.70 0.1995
763.80 0.1994
763.90 0.1993
764.00 0.1992
764.10 0.1991
764.20 0.199
764.30 0.1989
764.40 0.1988
764.50 0.1987
764.60 0.1986
764.70 0.1985
764.80 0.1984
764.90 0.1983
765.00 0.1982
765.10 0.1981
765.20 0.198
765.30 0.1979
765.40 0.1978
765.50 0.1977
765.60 0.1976
765.70 0.1975
765.80 0.1974
765.90 0.1973
766.00 0.1972
766.10 0.1971
766.20 0.197
766.30 0.1969
766.40 0.1968
766.50 0.1967
766.60 0.1966
766.70 0.1965
766.80 0.1964
766.90 0.1963
767.00 0.1962
767.10 0.1961
767.20 0.196
767.30 0.1959
767.40 0.1958
767.50 0.1957
767.60 0.1956
767.70 0.1955
767.80 0.1954
767.90 0.1953
768.00 0.1952
768.10 0.1951
768.20 0.195
768.30 0.1949
768.40 0.1948
768.50 0.1947
768.60 0.1946
768.70 0.1945
768.80 0.1944
768.90 0.1943
769.00 0.1942
769.10 0.1941
769.20 0.194
769.30 0.1939
769.40 0.1939
769.50 0.1938
769.60 0.1937
769.70 0.1936
769.80 0.1935
769.90 0.1934
770.00 0.1933
770.10 0.1932
770.20 0.1931
770.30 0.193
770.40 0.1929
770.50 0.1928
770.60 0.1927
770.70 0.1926
770.80 0.1925
770.90 0.1924
771.00 0.1923
771.10 0.1922
771.20 0.1921
771.30 0.192
771.40 0.1919
771.50 0.1918
771.60 0.1917
771.70 0.1916
771.80 0.1916
771.90 0.1915
772.00 0.1914
772.10 0.1913
772.20 0.1912
772.30 0.1911
772.40 0.191
772.50 0.1909
772.60 0.1908
772.70 0.1907
772.80 0.1906
772.90 0.1905
773.00 0.1904
773.10 0.1903
773.20 0.1902
773.30 0.1901
773.40 0.19
773.50 0.1899
773.60 0.1899
773.70 0.1898
773.80 0.1897
773.90 0.1896
774.00 0.1895
774.10 0.1894
774.20 0.1893
774.30 0.1892
774.40 0.1891
774.50 0.189
774.60 0.1889
774.70 0.1888
774.80 0.1887
774.90 0.1886
775.00 0.1885
775.10 0.1884
775.20 0.1884
775.30 0.1883
775.40 0.1882
775.50 0.1881
775.60 0.188
775.70 0.1879
775.80 0.1878
775.90 0.1877
776.00 0.1876
776.10 0.1875
776.20 0.1874
776.30 0.1873
776.40 0.1872
776.50 0.1871
776.60 0.187
776.70 0.187
776.80 0.1869
776.90 0.1868
777.00 0.1867
777.10 0.1866
777.20 0.1865
777.30 0.1864
777.40 0.1863
777.50 0.1862
777.60 0.1861
777.70 0.186
777.80 0.1859
777.90 0.1858
778.00 0.1858
778.10 0.1857
778.20 0.1856
778.30 0.1855
778.40 0.1854
778.50 0.1853
778.60 0.1852
778.70 0.1851
778.80 0.185
778.90 0.1849
779.00 0.1848
779.10 0.1847
779.20 0.1846
779.30 0.1846
779.40 0.1845
779.50 0.1844
779.60 0.1843
779.70 0.1842
779.80 0.1841
779.90 0.184
780.00 0.1839
780.10 0.1838
780.20 0.1837
780.30 0.1836
780.40 0.1836
780.50 0.1835
780.60 0.1834
780.70 0.1833
780.80 0.1832
780.90 0.1831
781.00 0.183
781.10 0.1829
781.20 0.1828
781.30 0.1828
781.40 0.1827
781.50 0.1826
781.60 0.1825
781.70 0.1824
781.80 0.1823
781.90 0.1822
782.00 0.1821
782.10 0.182
782.20 0.1819
782.30 0.1819
782.40 0.1818
782.50 0.1817
782.60 0.1816
782.70 0.1815
782.80 0.1814
782.90 0.1813
783.00 0.1812
783.10 0.1811
783.20 0.1811
783.30 0.181
783.40 0.1809
783.50 0.1808
783.60 0.1807
783.70 0.1806
783.80 0.1805
783.90 0.1804
784.00 0.1804
784.10 0.1803
784.20 0.1802
784.30 0.1801
784.40 0.18
784.50 0.1799
784.60 0.1798
784.70 0.1797
784.80 0.1796
784.90 0.1796
785.00 0.1795
785.10 0.1794
785.20 0.1793
785.30 0.1792
785.40 0.1791
785.50 0.179
785.60 0.1789
785.70 0.1789
785.80 0.1788
785.90 0.1787
786.00 0.1786
786.10 0.1785
786.20 0.1784
786.30 0.1783
786.40 0.1782
786.50 0.1782
786.60 0.1781
786.70 0.178
786.80 0.1779
786.90 0.1778
787.00 0.1777
787.10 0.1776
787.20 0.1775
787.30 0.1775
787.40 0.1774
787.50 0.1773
787.60 0.1772
787.70 0.1771
787.80 0.177
787.90 0.1769
788.00 0.1769
788.10 0.1768
788.20 0.1767
788.30 0.1766
788.40 0.1765
788.50 0.1764
788.60 0.1763
788.70 0.1762
788.80 0.1762
788.90 0.1761
789.00 0.176
789.10 0.1759
789.20 0.1758
789.30 0.1757
789.40 0.1756
789.50 0.1756
789.60 0.1755
789.70 0.1754
789.80 0.1753
789.90 0.1752
790.00 0.1751
790.10 0.175
790.20 0.175
790.30 0.1749
790.40 0.1748
790.50 0.1747
790.60 0.1746
790.70 0.1745
790.80 0.1745
790.90 0.1744
791.00 0.1743
791.10 0.1742
791.20 0.1741
791.30 0.174
791.40 0.1739
791.50 0.1739
791.60 0.1738
791.70 0.1737
791.80 0.1736
791.90 0.1735
792.00 0.1734
792.10 0.1734
792.20 0.1733
792.30 0.1732
792.40 0.1731
792.50 0.173
792.60 0.1729
792.70 0.1729
792.80 0.1728
792.90 0.1727
793.00 0.1726
793.10 0.1725
793.20 0.1724
793.30 0.1724
793.40 0.1723
793.50 0.1722
793.60 0.1721
793.70 0.172
793.80 0.1719
793.90 0.1719
794.00 0.1718
794.10 0.1717
794.20 0.1716
794.30 0.1715
794.40 0.1714
794.50 0.1714
794.60 0.1713
794.70 0.1712
794.80 0.1711
794.90 0.171
795.00 0.1709
795.10 0.1709
795.20 0.1708
795.30 0.1707
795.40 0.1706
795.50 0.1705
795.60 0.1704
795.70 0.1704
795.80 0.1703
795.90 0.1702
796.00 0.1701
796.10 0.17
796.20 0.17
796.30 0.1699
796.40 0.1698
796.50 0.1697
796.60 0.1696
796.70 0.1695
796.80 0.1695
796.90 0.1694
797.00 0.1693
797.10 0.1692
797.20 0.1691
797.30 0.1691
797.40 0.169
797.50 0.1689
797.60 0.1688
797.70 0.1687
797.80 0.1686
797.90 0.1686
798.00 0.1685
798.10 0.1684
798.20 0.1683
798.30 0.1682
798.40 0.1682
798.50 0.1681
798.60 0.168
798.70 0.1679
798.80 0.1678
798.90 0.1677
799.00 0.1677
799.10 0.1676
799.20 0.1675
799.30 0.1674
799.40 0.1673
799.50 0.1673
799.60 0.1672
799.70 0.1671
799.80 0.167
799.90 0.1669
800.00 0.1669
800.10 0.1668
800.20 0.1667
800.30 0.1666
800.40 0.1665
800.50 0.1665
800.60 0.1664
800.70 0.1663
800.80 0.1662
800.90 0.1661
801.00 0.1661
801.10 0.166
801.20 0.1659
801.30 0.1658
801.40 0.1657
801.50 0.1657
801.60 0.1656
801.70 0.1655
801.80 0.1654
801.90 0.1653
802.00 0.1653
802.10 0.1652
802.20 0.1651
802.30 0.165
802.40 0.165
802.50 0.1649
802.60 0.1648
802.70 0.1647
802.80 0.1646
802.90 0.1646
803.00 0.1645
803.10 0.1644
803.20 0.1643
803.30 0.1642
803.40 0.1642
803.50 0.1641
803.60 0.164
803.70 0.1639
803.80 0.1639
803.90 0.1638
804.00 0.1637
804.10 0.1636
804.20 0.1635
804.30 0.1635
804.40 0.1634
804.50 0.1633
804.60 0.1632
804.70 0.1632
804.80 0.1631
804.90 0.163
805.00 0.1629
805.10 0.1628
805.20 0.1628
805.30 0.1627
805.40 0.1626
805.50 0.1625
805.60 0.1625
805.70 0.1624
805.80 0.1623
805.90 0.1622
806.00 0.1621
806.10 0.1621
806.20 0.162
806.30 0.1619
806.40 0.1618
806.50 0.1618
806.60 0.1617
806.70 0.1616
806.80 0.1615
806.90 0.1614
807.00 0.1614
807.10 0.1613
807.20 0.1612
807.30 0.1611
807.40 0.1611
807.50 0.161
807.60 0.1609
807.70 0.1608
807.80 0.1607
807.90 0.1607
808.00 0.1606
808.10 0.1605
808.20 0.1604
808.30 0.1604
808.40 0.1603
808.50 0.1602
808.60 0.1601
808.70 0.1601
808.80 0.16
808.90 0.1599
809.00 0.1598
809.10 0.1598
809.20 0.1597
809.30 0.1596
809.40 0.1595
809.50 0.1594
809.60 0.1594
809.70 0.1593
809.80 0.1592
809.90 0.1591
810.00 0.1591
810.10 0.159
810.20 0.1589
810.30 0.1588
810.40 0.1588
810.50 0.1587
810.60 0.1586
810.70 0.1585
810.80 0.1585
810.90 0.1584
811.00 0.1583
811.10 0.1582
811.20 0.1582
811.30 0.1581
811.40 0.158
811.50 0.1579
811.60 0.1579
811.70 0.1578
811.80 0.1577
811.90 0.1576
812.00 0.1576
812.10 0.1575
812.20 0.1574
812.30 0.1573
812.40 0.1573
812.50 0.1572
812.60 0.1571
812.70 0.1571
812.80 0.157
812.90 0.1569
813.00 0.1568
813.10 0.1568
813.20 0.1567
813.30 0.1566
813.40 0.1565
813.50 0.1565
813.60 0.1564
813.70 0.1563
813.80 0.1562
813.90 0.1562
814.00 0.1561
814.10 0.156
814.20 0.1559
814.30 0.1559
814.40 0.1558
814.50 0.1557
814.60 0.1557
814.70 0.1556
814.80 0.1555
814.90 0.1554
815.00 0.1554
815.10 0.1553
815.20 0.1552
815.30 0.1551
815.40 0.1551
815.50 0.155
815.60 0.1549
815.70 0.1548
815.80 0.1548
815.90 0.1547
816.00 0.1546
816.10 0.1546
816.20 0.1545
816.30 0.1544
816.40 0.1543
816.50 0.1543
816.60 0.1542
816.70 0.1541
816.80 0.154
816.90 0.154
817.00 0.1539
817.10 0.1538
817.20 0.1537
817.30 0.1537
817.40 0.1536
817.50 0.1535
817.60 0.1535
817.70 0.1534
817.80 0.1533
817.90 0.1532
818.00 0.1532
818.10 0.1531
818.20 0.153
818.30 0.153
818.40 0.1529
818.50 0.1528
818.60 0.1527
818.70 0.1527
818.80 0.1526
818.90 0.1525
819.00 0.1524
819.10 0.1524
819.20 0.1523
819.30 0.1522
819.40 0.1522
819.50 0.1521
819.60 0.152
819.70 0.1519
819.80 0.1519
819.90 0.1518
820.00 0.1517
820.10 0.1517
820.20 0.1516
820.30 0.1515
820.40 0.1514
820.50 0.1514
820.60 0.1513
820.70 0.1512
820.80 0.1512
820.90 0.1511
821.00 0.151
821.10 0.1509
821.20 0.1509
821.30 0.1508
821.40 0.1507
821.50 0.1507
821.60 0.1506
821.70 0.1505
821.80 0.1505
821.90 0.1504
822.00 0.1503
822.10 0.1502
822.20 0.1502
822.30 0.1501
822.40 0.15
822.50 0.15
822.60 0.1499
822.70 0.1498
822.80 0.1497
822.90 0.1497
823.00 0.1496
823.10 0.1495
823.20 0.1495
823.30 0.1494
823.40 0.1493
823.50 0.1493
823.60 0.1492
823.70 0.1491
823.80 0.1491
823.90 0.149
824.00 0.1489
824.10 0.1488
824.20 0.1488
824.30 0.1487
824.40 0.1486
824.50 0.1486
824.60 0.1485
824.70 0.1484
824.80 0.1484
824.90 0.1483
825.00 0.1482
825.10 0.1481
825.20 0.1481
825.30 0.148
825.40 0.1479
825.50 0.1479
825.60 0.1478
825.70 0.1477
825.80 0.1477
825.90 0.1476
826.00 0.1475
826.10 0.1475
826.20 0.1474
826.30 0.1473
826.40 0.1473
826.50 0.1472
826.60 0.1471
826.70 0.147
826.80 0.147
826.90 0.1469
827.00 0.1468
827.10 0.1468
827.20 0.1467
827.30 0.1466
827.40 0.1466
827.50 0.1465
827.60 0.1464
827.70 0.1464
827.80 0.1463
827.90 0.1462
828.00 0.1462
828.10 0.1461
828.20 0.146
828.30 0.146
828.40 0.1459
828.50 0.1458
828.60 0.1457
828.70 0.1457
828.80 0.1456
828.90 0.1455
829.00 0.1455
829.10 0.1454
829.20 0.1453
829.30 0.1453
829.40 0.1452
829.50 0.1451
829.60 0.1451
829.70 0.145
829.80 0.1449
829.90 0.1449
830.00 0.1448
830.10 0.1447
830.20 0.1447
830.30 0.1446
830.40 0.1445
830.50 0.1445
830.60 0.1444
830.70 0.1443
830.80 0.1443
830.90 0.1442
831.00 0.1441
831.10 0.1441
831.20 0.144
831.30 0.1439
831.40 0.1439
831.50 0.1438
831.60 0.1437
831.70 0.1437
831.80 0.1436
831.90 0.1435
832.00 0.1435
832.10 0.1434
832.20 0.1433
832.30 0.1433
832.40 0.1432
832.50 0.1431
832.60 0.1431
832.70 0.143
832.80 0.1429
832.90 0.1429
833.00 0.1428
833.10 0.1427
833.20 0.1427
833.30 0.1426
833.40 0.1425
833.50 0.1425
833.60 0.1424
833.70 0.1423
833.80 0.1423
833.90 0.1422
834.00 0.1421
834.10 0.1421
834.20 0.142
834.30 0.1419
834.40 0.1419
834.50 0.1418
834.60 0.1417
834.70 0.1417
834.80 0.1416
834.90 0.1415
835.00 0.1415
835.10 0.1414
835.20 0.1413
835.30 0.1413
835.40 0.1412
835.50 0.1411
835.60 0.1411
835.70 0.141
835.80 0.1409
835.90 0.1409
836.00 0.1408
836.10 0.1407
836.20 0.1407
836.30 0.1406
836.40 0.1405
836.50 0.1405
836.60 0.1404
836.70 0.1403
836.80 0.1403
836.90 0.1402
837.00 0.1402
837.10 0.1401
837.20 0.14
837.30 0.14
837.40 0.1399
837.50 0.1398
837.60 0.1398
837.70 0.1397
837.80 0.1396
837.90 0.1396
838.00 0.1395
838.10 0.1394
838.20 0.1394
838.30 0.1393
838.40 0.1392
838.50 0.1392
838.60 0.1391
838.70 0.1391
838.80 0.139
838.90 0.1389
839.00 0.1389
839.10 0.1388
839.20 0.1387
839.30 0.1387
839.40 0.1386
839.50 0.1385
839.60 0.1385
839.70 0.1384
839.80 0.1383
839.90 0.1383
840.00 0.1382
840.10 0.1382
840.20 0.1381
840.30 0.138
840.40 0.138
840.50 0.1379
840.60 0.1378
840.70 0.1378
840.80 0.1377
840.90 0.1376
841.00 0.1376
841.10 0.1375
841.20 0.1375
841.30 0.1374
841.40 0.1373
841.50 0.1373
841.60 0.1372
841.70 0.1371
841.80 0.1371
841.90 0.137
842.00 0.1369
842.10 0.1369
842.20 0.1368
842.30 0.1368
842.40 0.1367
842.50 0.1366
842.60 0.1366
842.70 0.1365
842.80 0.1364
842.90 0.1364
843.00 0.1363
843.10 0.1363
843.20 0.1362
843.30 0.1361
843.40 0.1361
843.50 0.136
843.60 0.1359
843.70 0.1359
843.80 0.1358
843.90 0.1358
844.00 0.1357
844.10 0.1356
844.20 0.1356
844.30 0.1355
844.40 0.1354
844.50 0.1354
844.60 0.1353
844.70 0.1353
844.80 0.1352
844.90 0.1351
845.00 0.1351
845.10 0.135
845.20 0.1349
845.30 0.1349
845.40 0.1348
845.50 0.1348
845.60 0.1347
845.70 0.1346
845.80 0.1346
845.90 0.1345
846.00 0.1345
846.10 0.1344
846.20 0.1343
846.30 0.1343
846.40 0.1342
846.50 0.1341
846.60 0.1341
846.70 0.134
846.80 0.134
846.90 0.1339
847.00 0.1338
847.10 0.1338
847.20 0.1337
847.30 0.1337
847.40 0.1336
847.50 0.1335
847.60 0.1335
847.70 0.1334
847.80 0.1333
847.90 0.1333
848.00 0.1332
848.10 0.1332
848.20 0.1331
848.30 0.133
848.40 0.133
848.50 0.1329
848.60 0.1329
848.70 0.1328
848.80 0.1327
848.90 0.1327
849.00 0.1326
849.10 0.1326
849.20 0.1325
849.30 0.1324
849.40 0.1324
849.50 0.1323
849.60 0.1323
849.70 0.1322
849.80 0.1321
849.90 0.1321
850.00 0.132
850.10 0.132
850.20 0.1319
850.30 0.1318
850.40 0.1318
850.50 0.1317
850.60 0.1317
850.70 0.1316
850.80 0.1315
850.90 0.1315
851.00 0.1314
851.10 0.1314
851.20 0.1313
851.30 0.1312
851.40 0.1312
851.50 0.1311
851.60 0.1311
851.70 0.131
851.80 0.1309
851.90 0.1309
852.00 0.1308
852.10 0.1308
852.20 0.1307
852.30 0.1306
852.40 0.1306
852.50 0.1305
852.60 0.1305
852.70 0.1304
852.80 0.1303
852.90 0.1303
853.00 0.1302
853.10 0.1302
853.20 0.1301
853.30 0.1301
853.40 0.13
853.50 0.1299
853.60 0.1299
853.70 0.1298
853.80 0.1298
853.90 0.1297
854.00 0.1296
854.10 0.1296
854.20 0.1295
854.30 0.1295
854.40 0.1294
854.50 0.1293
854.60 0.1293
854.70 0.1292
854.80 0.1292
854.90 0.1291
855.00 0.1291
855.10 0.129
855.20 0.1289
855.30 0.1289
855.40 0.1288
855.50 0.1288
855.60 0.1287
855.70 0.1286
855.80 0.1286
855.90 0.1285
856.00 0.1285
856.10 0.1284
856.20 0.1284
856.30 0.1283
856.40 0.1282
856.50 0.1282
856.60 0.1281
856.70 0.1281
856.80 0.128
856.90 0.1279
857.00 0.1279
857.10 0.1278
857.20 0.1278
857.30 0.1277
857.40 0.1277
857.50 0.1276
857.60 0.1275
857.70 0.1275
857.80 0.1274
857.90 0.1274
858.00 0.1273
858.10 0.1273
858.20 0.1272
858.30 0.1272
858.40 0.1271
858.50 0.127
858.60 0.127
858.70 0.1269
858.80 0.1269
858.90 0.1268
859.00 0.1268
859.10 0.1267
859.20 0.1266
859.30 0.1266
859.40 0.1265
859.50 0.1265
859.60 0.1264
859.70 0.1264
859.80 0.1263
859.90 0.1262
860.00 0.1262
860.10 0.1261
860.20 0.1261
860.30 0.126
860.40 0.126
860.50 0.1259
860.60 0.1259
860.70 0.1258
860.80 0.1257
860.90 0.1257
861.00 0.1256
861.10 0.1256
861.20 0.1255
861.30 0.1255
861.40 0.1254
861.50 0.1253
861.60 0.1253
861.70 0.1252
861.80 0.1252
861.90 0.1251
862.00 0.1251
862.10 0.125
862.20 0.125
862.30 0.1249
862.40 0.1248
862.50 0.1248
862.60 0.1247
862.70 0.1247
862.80 0.1246
862.90 0.1246
863.00 0.1245
863.10 0.1245
863.20 0.1244
863.30 0.1243
863.40 0.1243
863.50 0.1242
863.60 0.1242
863.70 0.1241
863.80 0.1241
863.90 0.124
864.00 0.124
864.10 0.1239
864.20 0.1239
864.30 0.1238
864.40 0.1237
864.50 0.1237
864.60 0.1236
864.70 0.1236
864.80 0.1235
864.90 0.1235
865.00 0.1234
865.10 0.1234
865.20 0.1233
865.30 0.1233
865.40 0.1232
865.50 0.1231
865.60 0.1231
865.70 0.123
865.80 0.123
865.90 0.1229
866.00 0.1229
866.10 0.1228
866.20 0.1228
866.30 0.1227
866.40 0.1227
866.50 0.1226
866.60 0.1225
866.70 0.1225
866.80 0.1224
866.90 0.1224
867.00 0.1223
867.10 0.1223
867.20 0.1222
867.30 0.1222
867.40 0.1221
867.50 0.1221
867.60 0.122
867.70 0.122
867.80 0.1219
867.90 0.1218
868.00 0.1218
868.10 0.1217
868.20 0.1217
868.30 0.1216
868.40 0.1216
868.50 0.1215
868.60 0.1215
868.70 0.1214
868.80 0.1214
868.90 0.1213
869.00 0.1213
869.10 0.1212
869.20 0.1212
869.30 0.1211
869.40 0.121
869.50 0.121
869.60 0.1209
869.70 0.1209
869.80 0.1208
869.90 0.1208
870.00 0.1207
870.10 0.1207
870.20 0.1206
870.30 0.1206
870.40 0.1205
870.50 0.1205
870.60 0.1204
870.70 0.1204
870.80 0.1203
870.90 0.1203
871.00 0.1202
871.10 0.1201
871.20 0.1201
871.30 0.12
871.40 0.12
871.50 0.1199
871.60 0.1199
871.70 0.1198
871.80 0.1198
871.90 0.1197
872.00 0.1197
872.10 0.1196
872.20 0.1196
872.30 0.1195
872.40 0.1195
872.50 0.1194
872.60 0.1194
872.70 0.1193
872.80 0.1193
872.90 0.1192
873.00 0.1192
873.10 0.1191
873.20 0.1191
873.30 0.119
873.40 0.1189
873.50 0.1189
873.60 0.1188
873.70 0.1188
873.80 0.1187
873.90 0.1187
874.00 0.1186
874.10 0.1186
874.20 0.1185
874.30 0.1185
874.40 0.1184
874.50 0.1184
874.60 0.1183
874.70 0.1183
874.80 0.1182
874.90 0.1182
875.00 0.1181
875.10 0.1181
875.20 0.118
875.30 0.118
875.40 0.1179
875.50 0.1179
875.60 0.1178
875.70 0.1178
875.80 0.1177
875.90 0.1177
876.00 0.1176
876.10 0.1176
876.20 0.1175
876.30 0.1175
876.40 0.1174
876.50 0.1174
876.60 0.1173
876.70 0.1173
876.80 0.1172
876.90 0.1172
877.00 0.1171
877.10 0.1171
877.20 0.117
877.30 0.117
877.40 0.1169
877.50 0.1169
877.60 0.1168
877.70 0.1168
877.80 0.1167
877.90 0.1167
878.00 0.1166
878.10 0.1166
878.20 0.1165
878.30 0.1165
878.40 0.1164
878.50 0.1163
878.60 0.1163
878.70 0.1162
878.80 0.1162
878.90 0.1161
879.00 0.1161
879.10 0.116
879.20 0.116
879.30 0.1159
879.40 0.1159
879.50 0.1158
879.60 0.1158
879.70 0.1157
879.80 0.1157
879.90 0.1156
880.00 0.1156
880.10 0.1155
880.20 0.1155
880.30 0.1154
880.40 0.1154
880.50 0.1153
880.60 0.1153
880.70 0.1152
880.80 0.1152
880.90 0.1151
881.00 0.1151
881.10 0.115
881.20 0.115
881.30 0.1149
881.40 0.1149
881.50 0.1148
881.60 0.1148
881.70 0.1147
881.80 0.1147
881.90 0.1147
882.00 0.1146
882.10 0.1146
882.20 0.1145
882.30 0.1145
882.40 0.1144
882.50 0.1144
882.60 0.1143
882.70 0.1143
882.80 0.1142
882.90 0.1142
883.00 0.1141
883.10 0.1141
883.20 0.114
883.30 0.114
883.40 0.1139
883.50 0.1139
883.60 0.1138
883.70 0.1138
883.80 0.1137
883.90 0.1137
884.00 0.1136
884.10 0.1136
884.20 0.1135
884.30 0.1135
884.40 0.1134
884.50 0.1134
884.60 0.1133
884.70 0.1133
884.80 0.1132
884.90 0.1132
885.00 0.1131
885.10 0.1131
885.20 0.113
885.30 0.113
885.40 0.1129
885.50 0.1129
885.60 0.1128
885.70 0.1128
885.80 0.1127
885.90 0.1127
886.00 0.1126
886.10 0.1126
886.20 0.1125
886.30 0.1125
886.40 0.1124
886.50 0.1124
886.60 0.1123
886.70 0.1123
886.80 0.1122
886.90 0.1122
887.00 0.1121
887.10 0.1121
887.20 0.112
887.30 0.112
887.40 0.1119
887.50 0.1119
887.60 0.1118
887.70 0.1118
887.80 0.1118
887.90 0.1117
888.00 0.1117
888.10 0.1116
888.20 0.1116
888.30 0.1115
888.40 0.1115
888.50 0.1114
888.60 0.1114
888.70 0.1113
888.80 0.1113
888.90 0.1113
889.00 0.1112
889.10 0.1112
889.20 0.1111
889.30 0.1111
889.40 0.111
889.50 0.111
889.60 0.1109
889.70 0.1109
889.80 0.1108
889.90 0.1108
890.00 0.1108
890.10 0.1107
890.20 0.1107
890.30 0.1106
890.40 0.1106
890.50 0.1105
890.60 0.1105
890.70 0.1104
890.80 0.1104
890.90 0.1104
891.00 0.1103
891.10 0.1103
891.20 0.1102
891.30 0.1102
891.40 0.1101
891.50 0.1101
891.60 0.11
891.70 0.11
891.80 0.1099
891.90 0.1099
892.00 0.1099
892.10 0.1098
892.20 0.1098
892.30 0.1097
892.40 0.1097
892.50 0.1096
892.60 0.1096
892.70 0.1095
892.80 0.1095
892.90 0.1094
893.00 0.1094
893.10 0.1093
893.20 0.1093
893.30 0.1092
893.40 0.1092
893.50 0.1091
893.60 0.1091
893.70 0.109
893.80 0.109
893.90 0.1089
894.00 0.1089
894.10 0.1088
894.20 0.1088
894.30 0.1087
894.40 0.1087
894.50 0.1086
894.60 0.1086
894.70 0.1085
894.80 0.1085
894.90 0.1084
895.00 0.1084
895.10 0.1083
895.20 0.1083
895.30 0.1082
895.40 0.1082
895.50 0.1081
895.60 0.1081
895.70 0.108
895.80 0.108
895.90 0.1079
896.00 0.1079
896.10 0.1078
896.20 0.1078
896.30 0.1077
896.40 0.1077
896.50 0.1076
896.60 0.1076
896.70 0.1075
896.80 0.1075
896.90 0.1074
897.00 0.1074
897.10 0.1073
897.20 0.1073
897.30 0.1072
897.40 0.1072
897.50 0.1071
897.60 0.1071
897.70 0.107
897.80 0.107
897.90 0.1069
898.00 0.1069
898.10 0.1068
898.20 0.1068
898.30 0.1067
898.40 0.1067
898.50 0.1066
898.60 0.1066
898.70 0.1065
898.80 0.1065
898.90 0.1064
899.00 0.1064
899.10 0.1063
899.20 0.1063
899.30 0.1062
899.40 0.1062
899.50 0.1061
899.60 0.1061
899.70 0.106
899.80 0.106
899.90 0.1059
900.00 0.1059
900.10 0.1058
900.20 0.1058
900.30 0.1057
900.40 0.1057
900.50 0.1056
900.60 0.1056
900.70 0.1055
900.80 0.1055
900.90 0.1054
901.00 0.1054
901.10 0.1053
901.20 0.1053
901.30 0.1052
901.40 0.1052
901.50 0.1051
901.60 0.1051
901.70 0.105
901.80 0.105
901.90 0.1049
902.00 0.1049
902.10 0.1048
902.20 0.1048
902.30 0.1048
902.40 0.1047
902.50 0.1047
902.60 0.1047
902.70 0.1046
902.80 0.1046
902.90 0.1045
903.00 0.1045
903.10 0.1045
903.20 0.1044
903.30 0.1044
903.40 0.1044
903.50 0.1043
903.60 0.1043
903.70 0.1043
903.80 0.1042
903.90 0.1042
904.00 0.1042
904.10 0.1041
904.20 0.1041
904.30 0.1041
904.40 0.104
904.50 0.104
904.60 0.104
904.70 0.1039
904.80 0.1039
904.90 0.1038
905.00 0.1038
905.10 0.1038
905.20 0.1037
905.30 0.1037
905.40 0.1037
905.50 0.1036
905.60 0.1036
905.70 0.1036
905.80 0.1035
905.90 0.1035
906.00 0.1035
906.10 0.1034
906.20 0.1034
906.30 0.1034
906.40 0.1033
906.50 0.1033
906.60 0.1033
906.70 0.1032
906.80 0.1032
906.90 0.1032
907.00 0.1031
907.10 0.1031
907.20 0.103
907.30 0.103
907.40 0.103
907.50 0.1029
907.60 0.1029
907.70 0.1028
907.80 0.1028
907.90 0.1028
908.00 0.1027
908.10 0.1027
908.20 0.1026
908.30 0.1026
908.40 0.1026
908.50 0.1025
908.60 0.1025
908.70 0.1024
908.80 0.1024
908.90 0.1024
909.00 0.1023
909.10 0.1023
909.20 0.1022
909.30 0.1022
909.40 0.1022
909.50 0.1021
909.60 0.1021
909.70 0.102
909.80 0.102
909.90 0.102
910.00 0.1019
910.10 0.1019
910.20 0.1018
910.30 0.1018
910.40 0.1018
910.50 0.1017
910.60 0.1017
910.70 0.1016
910.80 0.1016
910.90 0.1016
911.00 0.1015
911.10 0.1015
911.20 0.1014
911.30 0.1014
911.40 0.1014
911.50 0.1013
911.60 0.1013
911.70 0.1012
911.80 0.1012
911.90 0.1012
912.00 0.1011
912.10 0.1011
912.20 0.101
912.30 0.101
912.40 0.1009
912.50 0.1009
912.60 0.1008
912.70 0.1008
912.80 0.1007
912.90 0.1007
913.00 0.1006
913.10 0.1006
913.20 0.1005
913.30 0.1005
913.40 0.1004
913.50 0.1004
913.60 0.1003
913.70 0.1003
913.80 0.1002
913.90 0.1002
914.00 0.1001
914.10 0.1001
914.20 0.1
914.30 0.09996
914.40 0.09991
914.50 0.09986
914.60 0.09981
914.70 0.09976
914.80 0.09971
914.90 0.09966
915.00 0.09961
915.10 0.09956
915.20 0.09951
915.30 0.09946
915.40 0.09941
915.50 0.09937
915.60 0.09932
915.70 0.09927
915.80 0.09922
915.90 0.09917
916.00 0.09912
916.10 0.09907
916.20 0.09902
916.30 0.09897
916.40 0.09892
916.50 0.09887
916.60 0.09882
916.70 0.09877
916.80 0.09872
916.90 0.09867
917.00 0.09862
917.10 0.09857
917.20 0.09851
917.30 0.09845
917.40 0.09839
917.50 0.09833
917.60 0.09827
917.70 0.09821
917.80 0.09815
917.90 0.09809
918.00 0.09803
918.10 0.09797
918.20 0.09792
918.30 0.09786
918.40 0.0978
918.50 0.09774
918.60 0.09768
918.70 0.09762
918.80 0.09756
918.90 0.0975
919.00 0.09744
919.10 0.09739
919.20 0.09733
919.30 0.09727
919.40 0.09721
919.50 0.09715
919.60 0.09709
919.70 0.09703
919.80 0.09697
919.90 0.09692
920.00 0.09686
920.10 0.0968
920.20 0.09674
920.30 0.09668
920.40 0.09662
920.50 0.09656
920.60 0.09651
920.70 0.09645
920.80 0.09639
920.90 0.09633
921.00 0.09627
921.10 0.09621
921.20 0.09616
921.30 0.0961
921.40 0.09604
921.50 0.09598
921.60 0.09592
921.70 0.09587
921.80 0.09581
921.90 0.09575
922.00 0.09569
922.10 0.09567
922.20 0.09564
922.30 0.09561
922.40 0.09559
922.50 0.09556
922.60 0.09554
922.70 0.09551
922.80 0.09548
922.90 0.09546
923.00 0.09543
923.10 0.09541
923.20 0.09538
923.30 0.09536
923.40 0.09533
923.50 0.0953
923.60 0.09528
923.70 0.09525
923.80 0.09523
923.90 0.0952
924.00 0.09518
924.10 0.09515
924.20 0.09513
924.30 0.0951
924.40 0.09507
924.50 0.09505
924.60 0.09502
924.70 0.095
924.80 0.09497
924.90 0.09495
925.00 0.09492
925.10 0.0949
925.20 0.09487
925.30 0.09484
925.40 0.09482
925.50 0.09479
925.60 0.09477
925.70 0.09474
925.80 0.09472
925.90 0.09469
926.00 0.09467
926.10 0.09464
926.20 0.09462
926.30 0.09459
926.40 0.09456
926.50 0.09454
926.60 0.09451
926.70 0.09449
926.80 0.09446
926.90 0.09444
927.00 0.09441
927.10 0.09439
927.20 0.09436
927.30 0.09434
927.40 0.09431
927.50 0.09429
927.60 0.09426
927.70 0.09424
927.80 0.09421
927.90 0.09419
928.00 0.09416
928.10 0.09414
928.20 0.09412
928.30 0.09409
928.40 0.09407
928.50 0.09404
928.60 0.09402
928.70 0.09399
928.80 0.09397
928.90 0.09394
929.00 0.09392
929.10 0.09389
929.20 0.09387
929.30 0.09384
929.40 0.09382
929.50 0.0938
929.60 0.09377
929.70 0.09375
929.80 0.09372
929.90 0.0937
930.00 0.09367
930.10 0.09365
930.20 0.09362
930.30 0.0936
930.40 0.09357
930.50 0.09355
930.60 0.09353
930.70 0.0935
930.80 0.09348
930.90 0.09345
931.00 0.09343
931.10 0.0934
931.20 0.09338
931.30 0.09335
931.40 0.09333
931.50 0.09331
931.60 0.09328
931.70 0.09326
931.80 0.09323
931.90 0.09321
932.00 0.09318
932.10 0.09315
932.20 0.09312
932.30 0.09309
932.40 0.09306
932.50 0.09303
932.60 0.09299
932.70 0.09296
932.80 0.09293
932.90 0.0929
933.00 0.09287
933.10 0.09284
933.20 0.0928
933.30 0.09277
933.40 0.09274
933.50 0.09271
933.60 0.09268
933.70 0.09265
933.80 0.09261
933.90 0.09258
934.00 0.09255
934.10 0.09252
934.20 0.09249
934.30 0.09246
934.40 0.09242
934.50 0.09239
934.60 0.09235
934.70 0.09232
934.80 0.09228
934.90 0.09225
935.00 0.09221
935.10 0.09218
935.20 0.09214
935.30 0.09211
935.40 0.09207
935.50 0.09204
935.60 0.092
935.70 0.09197
935.80 0.09193
935.90 0.0919
936.00 0.09186
936.10 0.09183
936.20 0.09179
936.30 0.09176
936.40 0.09172
936.50 0.09169
936.60 0.09165
936.70 0.09162
936.80 0.09158
936.90 0.09155
937.00 0.09151
937.10 0.09148
937.20 0.09144
937.30 0.0914
937.40 0.09136
937.50 0.09133
937.60 0.09129
937.70 0.09125
937.80 0.09122
937.90 0.09118
938.00 0.09114
938.10 0.0911
938.20 0.09107
938.30 0.09103
938.40 0.09099
938.50 0.09095
938.60 0.09091
938.70 0.09087
938.80 0.09083
938.90 0.0908
939.00 0.09076
939.10 0.09072
939.20 0.09068
939.30 0.09064
939.40 0.0906
939.50 0.09056
939.60 0.09052
939.70 0.09048
939.80 0.09044
939.90 0.09041
940.00 0.09037
940.10 0.09033
940.20 0.09029
940.30 0.09025
940.40 0.09021
940.50 0.09017
940.60 0.09013
940.70 0.09008
940.80 0.09004
940.90 0.09
941.00 0.08996
941.10 0.08992
941.20 0.08988
941.30 0.08984
941.40 0.0898
941.50 0.08975
941.60 0.08971
941.70 0.08967
941.80 0.08963
941.90 0.08959
942.00 0.08955
942.10 0.08951
942.20 0.08946
942.30 0.08942
942.40 0.08938
942.50 0.08933
942.60 0.08929
942.70 0.08924
942.80 0.0892
942.90 0.08915
943.00 0.08911
943.10 0.08906
943.20 0.08902
943.30 0.08897
943.40 0.08893
943.50 0.08889
943.60 0.08884
943.70 0.0888
943.80 0.08875
943.90 0.08871
944.00 0.08866
944.10 0.08862
944.20 0.08857
944.30 0.08853
944.40 0.08848
944.50 0.08843
944.60 0.08839
944.70 0.08834
944.80 0.08829
944.90 0.08824
945.00 0.0882
945.10 0.08815
945.20 0.0881
945.30 0.08805
945.40 0.088
945.50 0.08795
945.60 0.0879
945.70 0.08785
945.80 0.0878
945.90 0.08774
946.00 0.08769
946.10 0.08764
946.20 0.08759
946.30 0.08754
946.40 0.08749
946.50 0.08744
946.60 0.08739
946.70 0.08733
946.80 0.08728
946.90 0.08723
947.00 0.08718
947.10 0.08713
947.20 0.08707
947.30 0.08702
947.40 0.08696
947.50 0.0869
947.60 0.08684
947.70 0.08678
947.80 0.08672
947.90 0.08667
948.00 0.08661
948.10 0.08655
948.20 0.08649
948.30 0.08643
948.40 0.08637
948.50 0.08631
948.60 0.08625
948.70 0.0862
948.80 0.08614
948.90 0.08608
949.00 0.08602
949.10 0.08596
949.20 0.0859
949.30 0.08585
949.40 0.08578
949.50 0.08571
949.60 0.08564
949.70 0.08558
949.80 0.08551
949.90 0.08544
950.00 0.08537
950.10 0.08531
950.20 0.08524
950.30 0.08517
950.40 0.0851
950.50 0.08504
950.60 0.08497
950.70 0.0849
950.80 0.08484
950.90 0.08477
951.00 0.0847
951.10 0.08464
951.20 0.08457
951.30 0.0845
951.40 0.08443
951.50 0.08436
951.60 0.08428
951.70 0.08421
951.80 0.08414
951.90 0.08407
952.00 0.08399
952.10 0.08392
952.20 0.08385
952.30 0.08377
952.40 0.0837
952.50 0.08363
952.60 0.08355
952.70 0.08348
952.80 0.08341
952.90 0.08333
953.00 0.08326
953.10 0.08319
953.20 0.08312
953.30 0.08305
953.40 0.08298
953.50 0.08291
953.60 0.08284
953.70 0.08277
953.80 0.08271
953.90 0.08264
954.00 0.08258
954.10 0.08252
954.20 0.08247
954.30 0.08242
954.40 0.08238
954.50 0.08234
954.60 0.08231
954.70 0.08228
954.80 0.08226
954.90 0.08224
955.00 0.08222
955.10 0.0822
955.20 0.0822
955.30 0.0822
955.40 0.0822
955.50 0.0822
955.60 0.0822
955.70 0.0822
955.80 0.0822
955.90 0.08221
956.00 0.08221
956.10 0.08222
956.20 0.08223
956.30 0.08223
956.40 0.08224
956.50 0.08225
956.60 0.08225
956.70 0.08226
956.80 0.08227
956.90 0.08227
957.00 0.08228
957.10 0.08229
957.20 0.08229
957.30 0.0823
957.40 0.0823
957.50 0.0823
957.60 0.08231
957.70 0.08231
957.80 0.08231
957.90 0.08231
958.00 0.08231
958.10 0.08232
958.20 0.08232
958.30 0.08232
958.40 0.08232
958.50 0.08232
958.60 0.08233
958.70 0.08233
958.80 0.08233
958.90 0.08233
959.00 0.08234
959.10 0.08234
959.20 0.08234
959.30 0.08234
959.40 0.08233
959.50 0.08233
959.60 0.08232
959.70 0.08231
959.80 0.0823
959.90 0.0823
960.00 0.08229
960.10 0.08228
960.20 0.08228
960.30 0.08227
960.40 0.08226
960.50 0.08225
960.60 0.08225
960.70 0.08224
960.80 0.08223
960.90 0.08222
961.00 0.08222
961.10 0.08221
961.20 0.0822
961.30 0.08219
961.40 0.08218
961.50 0.08217
961.60 0.08216
961.70 0.08214
961.80 0.08213
961.90 0.08212
962.00 0.0821
962.10 0.08209
962.20 0.08207
962.30 0.08205
962.40 0.08204
962.50 0.08202
962.60 0.082
962.70 0.08199
962.80 0.08197
962.90 0.08196
963.00 0.08194
963.10 0.08192
963.20 0.08191
963.30 0.08189
963.40 0.08187
963.50 0.08185
963.60 0.08183
963.70 0.08181
963.80 0.08179
963.90 0.08177
964.00 0.08175
964.10 0.08173
964.20 0.08171
964.30 0.08169
964.40 0.08167
964.50 0.08165
964.60 0.08162
964.70 0.0816
964.80 0.08158
964.90 0.08156
965.00 0.08153
965.10 0.08151
965.20 0.08149
965.30 0.08146
965.40 0.08144
965.50 0.08142
965.60 0.0814
965.70 0.08137
965.80 0.08135
965.90 0.08133
966.00 0.0813
966.10 0.08128
966.20 0.08126
966.30 0.08124
966.40 0.08121
966.50 0.08119
966.60 0.08116
966.70 0.08114
966.80 0.08111
966.90 0.08109
967.00 0.08106
967.10 0.08103
967.20 0.08101
967.30 0.08098
967.40 0.08096
967.50 0.08093
967.60 0.0809
967.70 0.08088
967.80 0.08085
967.90 0.08082
968.00 0.0808
968.10 0.08077
968.20 0.08075
968.30 0.08072
968.40 0.08069
968.50 0.08066
968.60 0.08064
968.70 0.08061
968.80 0.08058
968.90 0.08055
969.00 0.08053
969.10 0.0805
969.20 0.08047
969.30 0.08044
969.40 0.08041
969.50 0.08039
969.60 0.08036
969.70 0.08033
969.80 0.0803
969.90 0.08028
970.00 0.08025
970.10 0.08022
970.20 0.08019
970.30 0.08017
970.40 0.08014
970.50 0.08011
970.60 0.08008
970.70 0.08005
970.80 0.08002
970.90 0.07999
971.00 0.07996
971.10 0.07993
971.20 0.07991
971.30 0.07988
971.40 0.07985
971.50 0.07982
971.60 0.07979
971.70 0.07976
971.80 0.07973
971.90 0.0797
972.00 0.07967
972.10 0.07964
972.20 0.07962
972.30 0.07959
972.40 0.07956
972.50 0.07953
972.60 0.0795
972.70 0.07947
972.80 0.07944
972.90 0.07941
973.00 0.07938
973.10 0.07935
973.20 0.07932
973.30 0.07929
973.40 0.07926
973.50 0.07923
973.60 0.0792
973.70 0.07917
973.80 0.07914
973.90 0.07911
974.00 0.07908
974.10 0.07905
974.20 0.07902
974.30 0.07899
974.40 0.07896
974.50 0.07893
974.60 0.0789
974.70 0.07887
974.80 0.07884
974.90 0.07881
975.00 0.07878
975.10 0.07875
975.20 0.07872
975.30 0.07869
975.40 0.07866
975.50 0.07863
975.60 0.0786
975.70 0.07857
975.80 0.07854
975.90 0.07851
976.00 0.07848
976.10 0.07845
976.20 0.07842
976.30 0.07839
976.40 0.07836
976.50 0.07833
976.60 0.0783
976.70 0.07827
976.80 0.07824
976.90 0.07821
977.00 0.07818
977.10 0.07815
977.20 0.07812
977.30 0.07809
977.40 0.07805
977.50 0.07802
977.60 0.07799
977.70 0.07796
977.80 0.07793
977.90 0.0779
978.00 0.07787
978.10 0.07784
978.20 0.07781
978.30 0.07778
978.40 0.07775
978.50 0.07771
978.60 0.07768
978.70 0.07765
978.80 0.07762
978.90 0.07759
979.00 0.07756
979.10 0.07753
979.20 0.0775
979.30 0.07747
979.40 0.07744
979.50 0.07741
979.60 0.07738
979.70 0.07735
979.80 0.07732
979.90 0.07729
980.00 0.07725
980.10 0.07722
980.20 0.07719
980.30 0.07716
980.40 0.07713
980.50 0.0771
980.60 0.07707
980.70 0.07704
980.80 0.07701
980.90 0.07698
981.00 0.07695
981.10 0.07692
981.20 0.07689
981.30 0.07686
981.40 0.07683
981.50 0.0768
981.60 0.07677
981.70 0.07674
981.80 0.0767
981.90 0.07667
982.00 0.07664
982.10 0.07661
982.20 0.07658
982.30 0.07655
982.40 0.07652
982.50 0.07649
982.60 0.07646
982.70 0.07643
982.80 0.07639
982.90 0.07636
983.00 0.07633
983.10 0.0763
983.20 0.07627
983.30 0.07624
983.40 0.07621
983.50 0.07618
983.60 0.07615
983.70 0.07611
983.80 0.07608
983.90 0.07605
984.00 0.07602
984.10 0.07599
984.20 0.07596
984.30 0.07593
984.40 0.0759
984.50 0.07587
984.60 0.07583
984.70 0.0758
984.80 0.07577
984.90 0.07574
985.00 0.07571
985.10 0.07568
985.20 0.07564
985.30 0.07561
985.40 0.07558
985.50 0.07555
985.60 0.07552
985.70 0.07549
985.80 0.07545
985.90 0.07542
986.00 0.07539
986.10 0.07536
986.20 0.07533
986.30 0.0753
986.40 0.07526
986.50 0.07523
986.60 0.0752
986.70 0.07517
986.80 0.07514
986.90 0.07511
987.00 0.07507
987.10 0.07504
987.20 0.07501
987.30 0.07498
987.40 0.07494
987.50 0.07491
987.60 0.07488
987.70 0.07485
987.80 0.07482
987.90 0.07478
988.00 0.07475
988.10 0.07472
988.20 0.07469
988.30 0.07465
988.40 0.07462
988.50 0.07459
988.60 0.07456
988.70 0.07452
988.80 0.07449
988.90 0.07446
989.00 0.07442
989.10 0.07439
989.20 0.07436
989.30 0.07432
989.40 0.07429
989.50 0.07426
989.60 0.07422
989.70 0.07419
989.80 0.07416
989.90 0.07412
990.00 0.07409
990.10 0.07406
990.20 0.07402
990.30 0.07399
990.40 0.07396
990.50 0.07392
990.60 0.07389
990.70 0.07385
990.80 0.07382
990.90 0.07378
991.00 0.07375
991.10 0.07371
991.20 0.07368
991.30 0.07364
991.40 0.07361
991.50 0.07357
991.60 0.07354
991.70 0.0735
991.80 0.07347
991.90 0.07343
992.00 0.0734
992.10 0.07336
992.20 0.07333
992.30 0.07329
992.40 0.07326
992.50 0.07322
992.60 0.07318
992.70 0.07314
992.80 0.07311
992.90 0.07307
993.00 0.07303
993.10 0.07299
993.20 0.07295
993.30 0.07291
993.40 0.07288
993.50 0.07284
993.60 0.0728
993.70 0.07276
993.80 0.07272
993.90 0.07268
994.00 0.07265
994.10 0.07261
994.20 0.07257
994.30 0.07253
994.40 0.07249
994.50 0.07245
994.60 0.07242
994.70 0.07237
994.80 0.07233
994.90 0.07229
995.00 0.07225
995.10 0.07221
995.20 0.07217
995.30 0.07212
995.40 0.07208
995.50 0.07204
995.60 0.072
995.70 0.07195
995.80 0.07191
995.90 0.07186
996.00 0.07182
996.10 0.07177
996.20 0.07172
996.30 0.07168
996.40 0.07163
996.50 0.07159
996.60 0.07154
996.70 0.07149
996.80 0.07145
996.90 0.0714
997.00 0.07136
997.10 0.07131
997.20 0.07126
997.30 0.07121
997.40 0.07116
997.50 0.07111
997.60 0.07106
997.70 0.071
997.80 0.07094
997.90 0.07089
998.00 0.07083
998.10 0.07077
998.20 0.07071
998.30 0.07066
998.40 0.0706
998.50 0.07054
998.60 0.07048
998.70 0.07043
998.80 0.07037
998.90 0.07031
999.00 0.07025
999.10 0.0702
999.20 0.07014
999.30 0.07008
999.40 0.07002
999.50 0.06997
999.60 0.06991
999.70 0.06984
999.80 0.06977
999.90 0.06969
1000.00 0.06962
1000.10 0.06955
1000.20 0.06947
1000.30 0.0694
1000.40 0.06933
1000.50 0.06925
1000.60 0.06918
1000.70 0.06911
1000.80 0.06904
1000.90 0.06896
1001.00 0.06889
1001.10 0.06882
1001.20 0.06874
1001.30 0.06867
1001.40 0.0686
1001.50 0.06853
1001.60 0.06845
1001.70 0.06837
1001.80 0.06829
1001.90 0.06821
1002.00 0.06812
1002.10 0.06803
1002.20 0.06794
1002.30 0.06786
1002.40 0.06777
1002.50 0.06768
1002.60 0.06759
1002.70 0.0675
1002.80 0.06741
1002.90 0.06732
1003.00 0.06723
1003.10 0.06714
1003.20 0.06705
1003.30 0.06697
1003.40 0.06688
1003.50 0.06679
1003.60 0.0667
1003.70 0.06661
1003.80 0.06652
1003.90 0.06644
1004.00 0.06637
1004.10 0.0663
1004.20 0.06622
1004.30 0.06617
1004.40 0.06613
1004.50 0.06611
1004.60 0.06612
1004.70 0.06616
1004.80 0.06624
1004.90 0.06624
1005.00 0.06623
1005.10 0.06616
1005.20 0.06607
1005.30 0.06598
1005.40 0.06589
1005.50 0.06588
1005.60 0.0659
1005.70 0.06591
1005.80 0.06593
1005.90 0.06594
1006.00 0.06596
1006.10 0.06597
1006.20 0.06601
1006.30 0.06605
1006.40 0.06609
1006.50 0.06613
1006.60 0.06617
1006.70 0.06621
1006.80 0.06625
1006.90 0.06629
1007.00 0.06633
1007.10 0.06636
1007.20 0.0664
1007.30 0.06644
1007.40 0.06647
1007.50 0.06651
1007.60 0.06655
1007.70 0.06658
1007.80 0.0666
1007.90 0.06663
1008.00 0.06665
1008.10 0.06668
1008.20 0.0667
1008.30 0.06673
1008.40 0.06675
1008.50 0.06678
1008.60 0.0668
1008.70 0.06683
1008.80 0.06685
1008.90 0.06688
1009.00 0.0669
1009.10 0.06693
1009.20 0.06695
1009.30 0.06698
1009.40 0.067
1009.50 0.06703
1009.60 0.06705
1009.70 0.06706
1009.80 0.06707
1009.90 0.06708
1010.00 0.06708
1010.10 0.06709
1010.20 0.0671
1010.30 0.06711
1010.40 0.06711
1010.50 0.06712
1010.60 0.06713
1010.70 0.06714
1010.80 0.06714
1010.90 0.06715
1011.00 0.06716
1011.10 0.06716
1011.20 0.06717
1011.30 0.06718
1011.40 0.06719
1011.50 0.06719
1011.60 0.0672
1011.70 0.0672
1011.80 0.0672
1011.90 0.0672
1012.00 0.0672
1012.10 0.06719
1012.20 0.06719
1012.30 0.06718
1012.40 0.06717
1012.50 0.06717
1012.60 0.06716
1012.70 0.06716
1012.80 0.06715
1012.90 0.06714
1013.00 0.06714
1013.10 0.06713
1013.20 0.06713
1013.30 0.06712
1013.40 0.06711
1013.50 0.06711
1013.60 0.0671
1013.70 0.06709
1013.80 0.06708
1013.90 0.06707
1014.00 0.06706
1014.10 0.06705
1014.20 0.06704
1014.30 0.06702
1014.40 0.06701
1014.50 0.067
1014.60 0.06699
1014.70 0.06698
1014.80 0.06696
1014.90 0.06695
1015.00 0.06693
1015.10 0.06692
1015.20 0.0669
1015.30 0.06688
1015.40 0.06687
1015.50 0.06685
1015.60 0.06684
1015.70 0.06682
1015.80 0.06681
1015.90 0.06679
1016.00 0.06678
1016.10 0.06676
1016.20 0.06675
1016.30 0.06673
1016.40 0.06672
1016.50 0.0667
1016.60 0.06669
1016.70 0.06667
1016.80 0.06665
1016.90 0.06663
1017.00 0.06662
1017.10 0.0666
1017.20 0.06658
1017.30 0.06656
1017.40 0.06654
1017.50 0.06652
1017.60 0.0665
1017.70 0.06648
1017.80 0.06646
1017.90 0.06644
1018.00 0.06643
1018.10 0.06641
1018.20 0.06639
1018.30 0.06637
1018.40 0.06635
1018.50 0.06633
1018.60 0.06631
1018.70 0.06629
1018.80 0.06627
1018.90 0.06625
1019.00 0.06623
1019.10 0.06621
1019.20 0.06619
1019.30 0.06617
1019.40 0.06614
1019.50 0.06612
1019.60 0.0661
1019.70 0.06608
1019.80 0.06606
1019.90 0.06604
1020.00 0.06602
1020.10 0.066
1020.20 0.06598
1020.30 0.06596
1020.40 0.06594
1020.50 0.06591
1020.60 0.06589
1020.70 0.06587
1020.80 0.06585
1020.90 0.06583
1021.00 0.06581
1021.10 0.06578
1021.20 0.06576
1021.30 0.06574
1021.40 0.06572
1021.50 0.0657
1021.60 0.06567
1021.70 0.06565
1021.80 0.06563
1021.90 0.06561
1022.00 0.06559
1022.10 0.06556
1022.20 0.06554
1022.30 0.06552
1022.40 0.0655
1022.50 0.06547
1022.60 0.06545
1022.70 0.06543
1022.80 0.06541
1022.90 0.06538
1023.00 0.06536
1023.10 0.06534
1023.20 0.06531
1023.30 0.06529
1023.40 0.06527
1023.50 0.06525
1023.60 0.06522
1023.70 0.0652
1023.80 0.06518
1023.90 0.06516
1024.00 0.06513
1024.10 0.06511
1024.20 0.06509
1024.30 0.06507
1024.40 0.06504
1024.50 0.06502
1024.60 0.065
1024.70 0.06497
1024.80 0.06495
1024.90 0.06493
1025.00 0.06491
1025.10 0.06488
1025.20 0.06486
1025.30 0.06484
1025.40 0.06481
1025.50 0.06479
1025.60 0.06477
1025.70 0.06474
1025.80 0.06472
1025.90 0.0647
1026.00 0.06467
1026.10 0.06465
1026.20 0.06463
1026.30 0.0646
1026.40 0.06458
1026.50 0.06456
1026.60 0.06453
1026.70 0.06451
1026.80 0.06449
1026.90 0.06447
1027.00 0.06444
1027.10 0.06442
1027.20 0.0644
1027.30 0.06437
1027.40 0.06435
1027.50 0.06432
1027.60 0.0643
1027.70 0.06428
1027.80 0.06425
1027.90 0.06423
1028.00 0.06421
1028.10 0.06418
1028.20 0.06416
1028.30 0.06414
1028.40 0.06411
1028.50 0.06409
1028.60 0.06407
1028.70 0.06404
1028.80 0.06402
1028.90 0.064
1029.00 0.06397
1029.10 0.06395
1029.20 0.06393
1029.30 0.0639
1029.40 0.06388
1029.50 0.06386
1029.60 0.06383
1029.70 0.06381
1029.80 0.06379
1029.90 0.06376
1030.00 0.06374
1030.10 0.06372
1030.20 0.06369
1030.30 0.06367
1030.40 0.06365
1030.50 0.06362
1030.60 0.0636
1030.70 0.06358
1030.80 0.06355
1030.90 0.06353
1031.00 0.06351
1031.10 0.06348
1031.20 0.06346
1031.30 0.06344
1031.40 0.06341
1031.50 0.06339
1031.60 0.06337
1031.70 0.06335
1031.80 0.06332
1031.90 0.0633
1032.00 0.06328
1032.10 0.06325
1032.20 0.06323
1032.30 0.06321
1032.40 0.06318
1032.50 0.06316
1032.60 0.06314
1032.70 0.06311
1032.80 0.06309
1032.90 0.06307
1033.00 0.06304
1033.10 0.06302
1033.20 0.063
1033.30 0.06297
1033.40 0.06295
1033.50 0.06293
1033.60 0.0629
1033.70 0.06288
1033.80 0.06286
1033.90 0.06283
1034.00 0.06281
1034.10 0.06279
1034.20 0.06276
1034.30 0.06274
1034.40 0.06272
1034.50 0.06269
1034.60 0.06267
1034.70 0.06265
1034.80 0.06262
1034.90 0.0626
1035.00 0.06258
1035.10 0.06256
1035.20 0.06253
1035.30 0.06251
1035.40 0.06249
1035.50 0.06246
1035.60 0.06244
1035.70 0.06242
1035.80 0.06239
1035.90 0.06237
1036.00 0.06235
1036.10 0.06232
1036.20 0.0623
1036.30 0.06228
1036.40 0.06225
1036.50 0.06223
1036.60 0.06221
1036.70 0.06219
1036.80 0.06216
1036.90 0.06214
1037.00 0.06212
1037.10 0.06209
1037.20 0.06207
1037.30 0.06205
1037.40 0.06202
1037.50 0.062
1037.60 0.06198
1037.70 0.06196
1037.80 0.06193
1037.90 0.06191
1038.00 0.06189
1038.10 0.06186
1038.20 0.06184
1038.30 0.06182
1038.40 0.0618
1038.50 0.06177
1038.60 0.06175
1038.70 0.06173
1038.80 0.0617
1038.90 0.06168
1039.00 0.06166
1039.10 0.06163
1039.20 0.06161
1039.30 0.06159
1039.40 0.06157
1039.50 0.06154
1039.60 0.06152
1039.70 0.0615
1039.80 0.06148
1039.90 0.06145
1040.00 0.06143
1040.10 0.06141
1040.20 0.06138
1040.30 0.06136
1040.40 0.06134
1040.50 0.06132
1040.60 0.06129
1040.70 0.06127
1040.80 0.06125
1040.90 0.06122
1041.00 0.0612
1041.10 0.06118
1041.20 0.06116
1041.30 0.06113
1041.40 0.06111
1041.50 0.06109
1041.60 0.06107
1041.70 0.06104
1041.80 0.06102
1041.90 0.061
1042.00 0.06097
1042.10 0.06095
1042.20 0.06093
1042.30 0.06091
1042.40 0.06088
1042.50 0.06086
1042.60 0.06084
1042.70 0.06082
1042.80 0.06079
1042.90 0.06077
1043.00 0.06075
1043.10 0.06073
1043.20 0.0607
1043.30 0.06068
1043.40 0.06066
1043.50 0.06064
1043.60 0.06061
1043.70 0.06059
1043.80 0.06057
1043.90 0.06055
1044.00 0.06052
1044.10 0.0605
1044.20 0.06048
1044.30 0.06046
1044.40 0.06043
1044.50 0.06041
1044.60 0.06039
1044.70 0.06037
1044.80 0.06034
1044.90 0.06032
1045.00 0.0603
1045.10 0.06028
1045.20 0.06026
1045.30 0.06023
1045.40 0.06021
1045.50 0.06019
1045.60 0.06017
1045.70 0.06014
1045.80 0.06012
1045.90 0.0601
1046.00 0.06008
1046.10 0.06005
1046.20 0.06003
1046.30 0.06001
1046.40 0.05999
1046.50 0.05997
1046.60 0.05994
1046.70 0.05992
1046.80 0.0599
1046.90 0.05988
1047.00 0.05985
1047.10 0.05983
1047.20 0.05981
1047.30 0.05979
1047.40 0.05977
1047.50 0.05974
1047.60 0.05972
1047.70 0.0597
1047.80 0.05968
1047.90 0.05965
1048.00 0.05963
1048.10 0.05961
1048.20 0.05959
1048.30 0.05957
1048.40 0.05954
1048.50 0.05952
1048.60 0.0595
1048.70 0.05948
1048.80 0.05946
1048.90 0.05943
1049.00 0.05941
1049.10 0.05939
1049.20 0.05937
1049.30 0.05935
1049.40 0.05932
1049.50 0.0593
1049.60 0.05928
1049.70 0.05926
1049.80 0.05924
1049.90 0.05921
1050.00 0.05919
1050.10 0.05917
1050.20 0.05915
1050.30 0.05913
1050.40 0.0591
1050.50 0.05908
1050.60 0.05906
1050.70 0.05904
1050.80 0.05902
1050.90 0.05899
1051.00 0.05897
1051.10 0.05895
1051.20 0.05893
1051.30 0.05891
1051.40 0.05888
1051.50 0.05886
1051.60 0.05884
1051.70 0.05882
1051.80 0.0588
1051.90 0.05878
1052.00 0.05875
1052.10 0.05873
1052.20 0.05871
1052.30 0.05869
1052.40 0.05867
1052.50 0.05864
1052.60 0.05862
1052.70 0.0586
1052.80 0.05858
1052.90 0.05856
1053.00 0.05854
1053.10 0.05851
1053.20 0.05849
1053.30 0.05847
1053.40 0.05845
1053.50 0.05843
1053.60 0.05841
1053.70 0.05838
1053.80 0.05836
1053.90 0.05834
1054.00 0.05832
1054.10 0.0583
1054.20 0.05828
1054.30 0.05826
1054.40 0.05823
1054.50 0.05821
1054.60 0.05819
1054.70 0.05817
1054.80 0.05815
1054.90 0.05813
1055.00 0.0581
1055.10 0.05808
1055.20 0.05806
1055.30 0.05804
1055.40 0.05802
1055.50 0.058
1055.60 0.05798
1055.70 0.05795
1055.80 0.05793
1055.90 0.05791
1056.00 0.05789
1056.10 0.05787
1056.20 0.05785
1056.30 0.05782
1056.40 0.0578
1056.50 0.05778
1056.60 0.05776
1056.70 0.05774
1056.80 0.05772
1056.90 0.0577
1057.00 0.05768
1057.10 0.05765
1057.20 0.05763
1057.30 0.05761
1057.40 0.05759
1057.50 0.05757
1057.60 0.05755
1057.70 0.05753
1057.80 0.0575
1057.90 0.05748
1058.00 0.05746
1058.10 0.05744
1058.20 0.05742
1058.30 0.0574
1058.40 0.05738
1058.50 0.05736
1058.60 0.05733
1058.70 0.05731
1058.80 0.05729
1058.90 0.05727
1059.00 0.05725
1059.10 0.05723
1059.20 0.05721
1059.30 0.05719
1059.40 0.05716
1059.50 0.05714
1059.60 0.05712
1059.70 0.0571
1059.80 0.05708
1059.90 0.05706
1060.00 0.05704
1060.10 0.05702
1060.20 0.05699
1060.30 0.05697
1060.40 0.05695
1060.50 0.05693
1060.60 0.05691
1060.70 0.05689
1060.80 0.05687
1060.90 0.05685
1061.00 0.05683
1061.10 0.0568
1061.20 0.05678
1061.30 0.05676
1061.40 0.05674
1061.50 0.05672
1061.60 0.0567
1061.70 0.05668
1061.80 0.05666
1061.90 0.05664
1062.00 0.05661
1062.10 0.05659
1062.20 0.05657
1062.30 0.05655
1062.40 0.05653
1062.50 0.05651
1062.60 0.05649
1062.70 0.05647
1062.80 0.05645
1062.90 0.05642
1063.00 0.0564
1063.10 0.05638
1063.20 0.05636
1063.30 0.05634
1063.40 0.05632
1063.50 0.0563
1063.60 0.05628
1063.70 0.05626
1063.80 0.05624
1063.90 0.05622
1064.00 0.05619
1064.10 0.05617
1064.20 0.05615
1064.30 0.05613
1064.40 0.05611
1064.50 0.05609
1064.60 0.05607
1064.70 0.05605
1064.80 0.05603
1064.90 0.05601
1065.00 0.05598
1065.10 0.05596
1065.20 0.05594
1065.30 0.05592
1065.40 0.0559
1065.50 0.05588
1065.60 0.05586
1065.70 0.05584
1065.80 0.05582
1065.90 0.0558
1066.00 0.05578
1066.10 0.05576
1066.20 0.05573
1066.30 0.05571
1066.40 0.05569
1066.50 0.05567
1066.60 0.05565
1066.70 0.05563
1066.80 0.05561
1066.90 0.05559
1067.00 0.05557
1067.10 0.05555
1067.20 0.05553
1067.30 0.05551
1067.40 0.05548
1067.50 0.05546
1067.60 0.05544
1067.70 0.05542
1067.80 0.0554
1067.90 0.05538
1068.00 0.05536
1068.10 0.05534
1068.20 0.05532
1068.30 0.0553
1068.40 0.05527
1068.50 0.05525
1068.60 0.05523
1068.70 0.05521
1068.80 0.05519
1068.90 0.05517
1069.00 0.05515
1069.10 0.05513
1069.20 0.05511
1069.30 0.05509
1069.40 0.05507
1069.50 0.05505
1069.60 0.05502
1069.70 0.055
1069.80 0.05498
1069.90 0.05496
1070.00 0.05494
1070.10 0.05492
1070.20 0.0549
1070.30 0.05488
1070.40 0.05486
1070.50 0.05484
1070.60 0.05482
1070.70 0.0548
1070.80 0.05477
1070.90 0.05475
1071.00 0.05473
1071.10 0.05471
1071.20 0.05469
1071.30 0.05467
1071.40 0.05465
1071.50 0.05463
1071.60 0.05461
1071.70 0.05459
1071.80 0.05457
1071.90 0.05455
1072.00 0.05453
1072.10 0.05451
1072.20 0.05448
1072.30 0.05446
1072.40 0.05444
1072.50 0.05442
1072.60 0.0544
1072.70 0.05438
1072.80 0.05436
1072.90 0.05434
1073.00 0.05432
1073.10 0.0543
1073.20 0.05427
1073.30 0.05425
1073.40 0.05423
1073.50 0.05421
1073.60 0.05419
1073.70 0.05417
1073.80 0.05415
1073.90 0.05413
1074.00 0.0541
1074.10 0.05408
1074.20 0.05406
1074.30 0.05404
1074.40 0.05402
1074.50 0.054
1074.60 0.05397
1074.70 0.05395
1074.80 0.05393
1074.90 0.05391
1075.00 0.05389
1075.10 0.05387
1075.20 0.05385
1075.30 0.05382
1075.40 0.0538
1075.50 0.05378
1075.60 0.05376
1075.70 0.05374
1075.80 0.05372
1075.90 0.0537
1076.00 0.05368
1076.10 0.05365
1076.20 0.05363
1076.30 0.05361
1076.40 0.05359
1076.50 0.05357
1076.60 0.05355
1076.70 0.05353
1076.80 0.0535
1076.90 0.05348
1077.00 0.05346
1077.10 0.05344
1077.20 0.05342
1077.30 0.0534
1077.40 0.05337
1077.50 0.05335
1077.60 0.05333
1077.70 0.05331
1077.80 0.05328
1077.90 0.05326
1078.00 0.05324
1078.10 0.05322
1078.20 0.05319
1078.30 0.05317
1078.40 0.05315
1078.50 0.05313
1078.60 0.0531
1078.70 0.05308
1078.80 0.05306
1078.90 0.05304
1079.00 0.05301
1079.10 0.05299
1079.20 0.05297
1079.30 0.05295
1079.40 0.05292
1079.50 0.0529
1079.60 0.05288
1079.70 0.05285
1079.80 0.05283
1079.90 0.0528
1080.00 0.05278
1080.10 0.05275
1080.20 0.05273
1080.30 0.05271
1080.40 0.05268
1080.50 0.05266
1080.60 0.05263
1080.70 0.05261
1080.80 0.05259
1080.90 0.05256
1081.00 0.05254
1081.10 0.05251
1081.20 0.05249
1081.30 0.05247
1081.40 0.05244
1081.50 0.05242
1081.60 0.05239
1081.70 0.05237
1081.80 0.05234
1081.90 0.05232
1082.00 0.05229
1082.10 0.05226
1082.20 0.05224
1082.30 0.05221
1082.40 0.05218
1082.50 0.05215
1082.60 0.05213
1082.70 0.0521
1082.80 0.05207
1082.90 0.05205
1083.00 0.05202
1083.10 0.05199
1083.20 0.05197
1083.30 0.05194
1083.40 0.05191
1083.50 0.05188
1083.60 0.05185
1083.70 0.05182
1083.80 0.05179
1083.90 0.05177
1084.00 0.05174
1084.10 0.05171
1084.20 0.05168
1084.30 0.05165
1084.40 0.05162
1084.50 0.05159
1084.60 0.05155
1084.70 0.05152
1084.80 0.05148
1084.90 0.05145
1085.00 0.05141
1085.10 0.05138
1085.20 0.05134
1085.30 0.05131
1085.40 0.05128
1085.50 0.05124
1085.60 0.05121
1085.70 0.05117
1085.80 0.05114
1085.90 0.0511
1086.00 0.05107
1086.10 0.05104
1086.20 0.051
1086.30 0.05097
1086.40 0.05093
1086.50 0.0509
1086.60 0.05086
1086.70 0.05082
1086.80 0.05078
1086.90 0.05074
1087.00 0.0507
1087.10 0.05065
1087.20 0.0506
1087.30 0.05056
1087.40 0.05051
1087.50 0.05047
1087.60 0.05042
1087.70 0.05037
1087.80 0.05033
1087.90 0.05028
1088.00 0.05024
1088.10 0.05019
1088.20 0.05015
1088.30 0.0501
1088.40 0.05005
1088.50 0.05
1088.60 0.04994
1088.70 0.04988
1088.80 0.04982
1088.90 0.04976
1089.00 0.0497
1089.10 0.04964
1089.20 0.04958
1089.30 0.04953
1089.40 0.04947
1089.50 0.04941
1089.60 0.04935
1089.70 0.04929
1089.80 0.04923
1089.90 0.04917
1090.00 0.04911
1090.10 0.04905
1090.20 0.04899
1090.30 0.04893
1090.40 0.04887
1090.50 0.04881
1090.60 0.04873
1090.70 0.04866
1090.80 0.04858
1090.90 0.04851
1091.00 0.04843
1091.10 0.04836
1091.20 0.04829
1091.30 0.04821
1091.40 0.04814
1091.50 0.04806
1091.60 0.04799
1091.70 0.04792
1091.80 0.04784
1091.90 0.04777
1092.00 0.04769
1092.10 0.04762
1092.20 0.04755
1092.30 0.04747
1092.40 0.0474
1092.50 0.04733
1092.60 0.04725
1092.70 0.04718
1092.80 0.04712
1092.90 0.04706
1093.00 0.047
1093.10 0.04695
1093.20 0.04691
1093.30 0.04686
1093.40 0.04684
1093.50 0.04682
1093.60 0.04683
1093.70 0.04685
1093.80 0.04687
1093.90 0.04687
1094.00 0.04683
1094.10 0.04678
1094.20 0.04673
1094.30 0.04671
1094.40 0.04673
1094.50 0.04675
1094.60 0.04677
1094.70 0.04679
1094.80 0.04681
1094.90 0.04683
1095.00 0.04686
1095.10 0.0469
1095.20 0.04694
1095.30 0.04698
1095.40 0.04703
1095.50 0.04707
1095.60 0.04711
1095.70 0.04715
1095.80 0.04719
1095.90 0.04723
1096.00 0.04727
1096.10 0.04732
1096.20 0.04736
1096.30 0.0474
1096.40 0.04744
1096.50 0.04748
1096.60 0.04752
1096.70 0.04756
1096.80 0.04759
1096.90 0.04763
1097.00 0.04767
1097.10 0.0477
1097.20 0.04773
1097.30 0.04775
1097.40 0.04778
1097.50 0.04781
1097.60 0.04784
1097.70 0.04787
1097.80 0.04789
1097.90 0.04792
1098.00 0.04795
1098.10 0.04798
1098.20 0.04801
1098.30 0.04803
1098.40 0.04806
1098.50 0.04808
1098.60 0.0481
1098.70 0.04811
1098.80 0.04812
1098.90 0.04814
1099.00 0.04815
1099.10 0.04816
1099.20 0.04817
1099.30 0.04819
1099.40 0.0482
1099.50 0.04821
1099.60 0.04823
1099.70 0.04824
1099.80 0.04825
1099.90 0.04826
1100.00 0.04828
1100.10 0.04829
1100.20 0.0483
1100.30 0.04832
1100.40 0.04833
1100.50 0.04834
1100.60 0.04834
1100.70 0.04834
1100.80 0.04834
1100.90 0.04834
1101.00 0.04835
1101.10 0.04835
1101.20 0.04835
1101.30 0.04835
1101.40 0.04835
1101.50 0.04835
1101.60 0.04836
1101.70 0.04836
1101.80 0.04836
1101.90 0.04836
1102.00 0.04836
1102.10 0.04836
1102.20 0.04836
1102.30 0.04836
1102.40 0.04835
1102.50 0.04835
1102.60 0.04834
1102.70 0.04834
1102.80 0.04833
1102.90 0.04833
1103.00 0.04832
1103.10 0.04832
1103.20 0.04831
1103.30 0.04831
1103.40 0.0483
1103.50 0.0483
1103.60 0.04829
1103.70 0.04828
1103.80 0.04827
1103.90 0.04826
1104.00 0.04825
1104.10 0.04825
1104.20 0.04824
1104.30 0.04823
1104.40 0.04822
1104.50 0.04821
1104.60 0.0482
1104.70 0.04819
1104.80 0.04818
1104.90 0.04818
1105.00 0.04817
1105.10 0.04816
1105.20 0.04815
1105.30 0.04814
1105.40 0.04813
1105.50 0.04812
1105.60 0.04811
1105.70 0.0481
1105.80 0.04809
1105.90 0.04808
1106.00 0.04807
1106.10 0.04805
1106.20 0.04804
1106.30 0.04803
1106.40 0.04802
1106.50 0.04801
1106.60 0.048
1106.70 0.04799
1106.80 0.04797
1106.90 0.04796
1107.00 0.04795
1107.10 0.04794
1107.20 0.04793
1107.30 0.04791
1107.40 0.0479
1107.50 0.04789
1107.60 0.04787
1107.70 0.04786
1107.80 0.04785
1107.90 0.04783
1108.00 0.04782
1108.10 0.04781
1108.20 0.04779
1108.30 0.04778
1108.40 0.04777
1108.50 0.04775
1108.60 0.04774
1108.70 0.04773
1108.80 0.04771
1108.90 0.0477
1109.00 0.04769
1109.10 0.04767
1109.20 0.04766
1109.30 0.04765
1109.40 0.04763
1109.50 0.04762
1109.60 0.0476
1109.70 0.04759
1109.80 0.04758
1109.90 0.04756
1110.00 0.04755
1110.10 0.04753
1110.20 0.04752
1110.30 0.0475
1110.40 0.04749
1110.50 0.04747
1110.60 0.04746
1110.70 0.04744
1110.80 0.04743
1110.90 0.04742
1111.00 0.0474
1111.10 0.04739
1111.20 0.04737
1111.30 0.04736
1111.40 0.04734
1111.50 0.04733
1111.60 0.04731
1111.70 0.0473
1111.80 0.04728
1111.90 0.04727
1112.00 0.04726
1112.10 0.04724
1112.20 0.04723
1112.30 0.04721
1112.40 0.0472
1112.50 0.04718
1112.60 0.04717
1112.70 0.04715
1112.80 0.04714
1112.90 0.04712
1113.00 0.04711
1113.10 0.04709
1113.20 0.04708
1113.30 0.04706
1113.40 0.04704
1113.50 0.04703
1113.60 0.04701
1113.70 0.047
1113.80 0.04698
1113.90 0.04697
1114.00 0.04695
1114.10 0.04694
1114.20 0.04692
1114.30 0.04691
1114.40 0.04689
1114.50 0.04688
1114.60 0.04686
1114.70 0.04684
1114.80 0.04683
1114.90 0.04681
1115.00 0.0468
1115.10 0.04678
1115.20 0.04677
1115.30 0.04675
1115.40 0.04674
1115.50 0.04672
1115.60 0.04671
1115.70 0.04669
1115.80 0.04668
1115.90 0.04666
1116.00 0.04664
1116.10 0.04663
1116.20 0.04661
1116.30 0.0466
1116.40 0.04658
1116.50 0.04657
1116.60 0.04655
1116.70 0.04654
1116.80 0.04652
1116.90 0.04651
1117.00 0.04649
1117.10 0.04648
1117.20 0.04646
1117.30 0.04644
1117.40 0.04643
1117.50 0.04641
1117.60 0.0464
1117.70 0.04638
1117.80 0.04637
1117.90 0.04635
1118.00 0.04634
1118.10 0.04632
1118.20 0.0463
1118.30 0.04629
1118.40 0.04627
1118.50 0.04626
1118.60 0.04624
1118.70 0.04623
1118.80 0.04621
1118.90 0.0462
1119.00 0.04618
1119.10 0.04616
1119.20 0.04615
1119.30 0.04613
1119.40 0.04612
1119.50 0.0461
1119.60 0.04609
1119.70 0.04607
1119.80 0.04606
1119.90 0.04604
1120.00 0.04602
1120.10 0.04601
1120.20 0.04599
1120.30 0.04598
1120.40 0.04596
1120.50 0.04595
1120.60 0.04593
1120.70 0.04592
1120.80 0.0459
1120.90 0.04589
1121.00 0.04587
1121.10 0.04585
1121.20 0.04584
1121.30 0.04582
1121.40 0.04581
1121.50 0.04579
1121.60 0.04578
1121.70 0.04576
1121.80 0.04575
1121.90 0.04573
1122.00 0.04572
1122.10 0.0457
1122.20 0.04568
1122.30 0.04567
1122.40 0.04565
1122.50 0.04564
1122.60 0.04562
1122.70 0.04561
1122.80 0.04559
1122.90 0.04558
1123.00 0.04556
1123.10 0.04554
1123.20 0.04553
1123.30 0.04551
1123.40 0.0455
1123.50 0.04548
1123.60 0.04547
1123.70 0.04545
1123.80 0.04544
1123.90 0.04542
1124.00 0.04541
1124.10 0.04539
1124.20 0.04537
1124.30 0.04536
1124.40 0.04534
1124.50 0.04533
1124.60 0.04531
1124.70 0.0453
1124.80 0.04528
1124.90 0.04527
1125.00 0.04525
1125.10 0.04524
1125.20 0.04522
1125.30 0.0452
1125.40 0.04519
1125.50 0.04517
1125.60 0.04516
1125.70 0.04514
1125.80 0.04513
1125.90 0.04511
1126.00 0.0451
1126.10 0.04508
1126.20 0.04507
1126.30 0.04505
1126.40 0.04504
1126.50 0.04502
1126.60 0.045
1126.70 0.04499
1126.80 0.04497
1126.90 0.04496
1127.00 0.04494
1127.10 0.04493
1127.20 0.04491
1127.30 0.0449
1127.40 0.04488
1127.50 0.04487
1127.60 0.04485
1127.70 0.04484
1127.80 0.04482
1127.90 0.04481
1128.00 0.04479
1128.10 0.04478
1128.20 0.04476
1128.30 0.04474
1128.40 0.04473
1128.50 0.04471
1128.60 0.0447
1128.70 0.04468
1128.80 0.04467
1128.90 0.04465
1129.00 0.04464
1129.10 0.04462
1129.20 0.04461
1129.30 0.04459
1129.40 0.04458
1129.50 0.04456
1129.60 0.04455
1129.70 0.04453
1129.80 0.04452
1129.90 0.0445
1130.00 0.04449
1130.10 0.04447
1130.20 0.04446
1130.30 0.04444
1130.40 0.04442
1130.50 0.04441
1130.60 0.04439
1130.70 0.04438
1130.80 0.04436
1130.90 0.04435
1131.00 0.04433
1131.10 0.04432
1131.20 0.0443
1131.30 0.04429
1131.40 0.04427
1131.50 0.04426
1131.60 0.04424
1131.70 0.04423
1131.80 0.04421
1131.90 0.0442
1132.00 0.04418
1132.10 0.04417
1132.20 0.04415
1132.30 0.04414
1132.40 0.04412
1132.50 0.04411
1132.60 0.04409
1132.70 0.04408
1132.80 0.04406
1132.90 0.04405
1133.00 0.04403
1133.10 0.04402
1133.20 0.044
1133.30 0.04399
1133.40 0.04397
1133.50 0.04396
1133.60 0.04394
1133.70 0.04393
1133.80 0.04391
1133.90 0.0439
1134.00 0.04388
1134.10 0.04387
1134.20 0.04385
1134.30 0.04384
1134.40 0.04382
1134.50 0.04381
1134.60 0.04379
1134.70 0.04378
1134.80 0.04376
1134.90 0.04375
1135.00 0.04373
1135.10 0.04372
1135.20 0.0437
1135.30 0.04369
1135.40 0.04367
1135.50 0.04366
1135.60 0.04364
1135.70 0.04363
1135.80 0.04361
1135.90 0.0436
1136.00 0.04358
1136.10 0.04357
1136.20 0.04355
1136.30 0.04354
1136.40 0.04352
1136.50 0.04351
1136.60 0.04349
1136.70 0.04348
1136.80 0.04346
1136.90 0.04345
1137.00 0.04343
1137.10 0.04342
1137.20 0.04341
1137.30 0.04339
1137.40 0.04338
1137.50 0.04336
1137.60 0.04335
1137.70 0.04333
1137.80 0.04332
1137.90 0.0433
1138.00 0.04329
1138.10 0.04327
1138.20 0.04326
1138.30 0.04324
1138.40 0.04323
1138.50 0.04321
1138.60 0.0432
1138.70 0.04318
1138.80 0.04317
1138.90 0.04315
1139.00 0.04314
1139.10 0.04313
1139.20 0.04311
1139.30 0.0431
1139.40 0.04308
1139.50 0.04307
1139.60 0.04305
1139.70 0.04304
1139.80 0.04302
1139.90 0.04301
1140.00 0.04299
1140.10 0.04298
1140.20 0.04296
1140.30 0.04295
1140.40 0.04293
1140.50 0.04292
1140.60 0.04291
1140.70 0.04289
1140.80 0.04288
1140.90 0.04286
1141.00 0.04285
1141.10 0.04283
1141.20 0.04282
1141.30 0.0428
1141.40 0.04279
1141.50 0.04277
1141.60 0.04276
1141.70 0.04274
1141.80 0.04273
1141.90 0.04272
1142.00 0.0427
1142.10 0.04269
1142.20 0.04267
1142.30 0.04266
1142.40 0.04264
1142.50 0.04263
1142.60 0.04261
1142.70 0.0426
1142.80 0.04259
1142.90 0.04257
1143.00 0.04256
1143.10 0.04254
1143.20 0.04253
1143.30 0.04251
1143.40 0.0425
1143.50 0.04248
1143.60 0.04247
1143.70 0.04246
1143.80 0.04244
1143.90 0.04243
1144.00 0.04241
1144.10 0.0424
1144.20 0.04238
1144.30 0.04237
1144.40 0.04235
1144.50 0.04234
1144.60 0.04233
1144.70 0.04231
1144.80 0.0423
1144.90 0.04228
1145.00 0.04227
1145.10 0.04225
1145.20 0.04224
1145.30 0.04223
1145.40 0.04221
1145.50 0.0422
1145.60 0.04218
1145.70 0.04217
1145.80 0.04215
1145.90 0.04214
1146.00 0.04212
1146.10 0.04211
1146.20 0.0421
1146.30 0.04208
1146.40 0.04207
1146.50 0.04205
1146.60 0.04204
1146.70 0.04202
1146.80 0.04201
1146.90 0.042
1147.00 0.04198
1147.10 0.04197
1147.20 0.04195
1147.30 0.04194
1147.40 0.04193
1147.50 0.04191
1147.60 0.0419
1147.70 0.04188
1147.80 0.04187
1147.90 0.04185
1148.00 0.04184
1148.10 0.04183
1148.20 0.04181
1148.30 0.0418
1148.40 0.04178
1148.50 0.04177
1148.60 0.04176
1148.70 0.04174
1148.80 0.04173
1148.90 0.04171
1149.00 0.0417
1149.10 0.04168
1149.20 0.04167
1149.30 0.04166
1149.40 0.04164
1149.50 0.04163
1149.60 0.04161
1149.70 0.0416
1149.80 0.04159
1149.90 0.04157
1150.00 0.04156
1150.10 0.04154
1150.20 0.04153
1150.30 0.04152
1150.40 0.0415
1150.50 0.04149
1150.60 0.04147
1150.70 0.04146
1150.80 0.04145
1150.90 0.04143
1151.00 0.04142
1151.10 0.0414
1151.20 0.04139
1151.30 0.04138
1151.40 0.04136
1151.50 0.04135
1151.60 0.04133
1151.70 0.04132
1151.80 0.04131
1151.90 0.04129
1152.00 0.04128
1152.10 0.04126
1152.20 0.04125
1152.30 0.04124
1152.40 0.04122
1152.50 0.04121
1152.60 0.04119
1152.70 0.04118
1152.80 0.04117
1152.90 0.04115
1153.00 0.04114
1153.10 0.04112
1153.20 0.04111
1153.30 0.0411
1153.40 0.04108
1153.50 0.04107
1153.60 0.04106
1153.70 0.04104
1153.80 0.04103
1153.90 0.04101
1154.00 0.041
1154.10 0.04099
1154.20 0.04097
1154.30 0.04096
1154.40 0.04094
1154.50 0.04093
1154.60 0.04092
1154.70 0.0409
1154.80 0.04089
1154.90 0.04088
1155.00 0.04086
1155.10 0.04085
1155.20 0.04083
1155.30 0.04082
1155.40 0.04081
1155.50 0.04079
1155.60 0.04078
1155.70 0.04077
1155.80 0.04075
1155.90 0.04074
1156.00 0.04072
1156.10 0.04071
1156.20 0.0407
1156.30 0.04068
1156.40 0.04067
1156.50 0.04066
1156.60 0.04064
1156.70 0.04063
1156.80 0.04061
1156.90 0.0406
1157.00 0.04059
1157.10 0.04057
1157.20 0.04056
1157.30 0.04055
1157.40 0.04053
1157.50 0.04052
1157.60 0.04051
1157.70 0.04049
1157.80 0.04048
1157.90 0.04046
1158.00 0.04045
1158.10 0.04044
1158.20 0.04042
1158.30 0.04041
1158.40 0.0404
1158.50 0.04038
1158.60 0.04037
1158.70 0.04036
1158.80 0.04034
1158.90 0.04033
1159.00 0.04032
1159.10 0.0403
1159.20 0.04029
1159.30 0.04027
1159.40 0.04026
1159.50 0.04025
1159.60 0.04023
1159.70 0.04022
1159.80 0.04021
1159.90 0.04019
1160.00 0.04018
1160.10 0.04017
1160.20 0.04015
1160.30 0.04014
1160.40 0.04013
1160.50 0.04011
1160.60 0.0401
1160.70 0.04009
1160.80 0.04007
1160.90 0.04006
1161.00 0.04005
1161.10 0.04003
1161.20 0.04002
1161.30 0.04001
1161.40 0.03999
1161.50 0.03998
1161.60 0.03996
1161.70 0.03995
1161.80 0.03994
1161.90 0.03992
1162.00 0.03991
1162.10 0.0399
1162.20 0.03988
1162.30 0.03987
1162.40 0.03986
1162.50 0.03984
1162.60 0.03983
1162.70 0.03982
1162.80 0.0398
1162.90 0.03979
1163.00 0.03978
1163.10 0.03976
1163.20 0.03975
1163.30 0.03974
1163.40 0.03972
1163.50 0.03971
1163.60 0.0397
1163.70 0.03968
1163.80 0.03967
1163.90 0.03966
1164.00 0.03964
1164.10 0.03963
1164.20 0.03962
1164.30 0.03961
1164.40 0.03959
1164.50 0.03958
1164.60 0.03957
1164.70 0.03955
1164.80 0.03954
1164.90 0.03953
1165.00 0.03951
1165.10 0.0395
1165.20 0.03949
1165.30 0.03947
1165.40 0.03946
1165.50 0.03945
1165.60 0.03943
1165.70 0.03942
1165.80 0.03941
1165.90 0.03939
1166.00 0.03938
1166.10 0.03937
1166.20 0.03935
1166.30 0.03934
1166.40 0.03933
1166.50 0.03931
1166.60 0.0393
1166.70 0.03929
1166.80 0.03928
1166.90 0.03926
1167.00 0.03925
1167.10 0.03924
1167.20 0.03922
1167.30 0.03921
1167.40 0.0392
1167.50 0.03918
1167.60 0.03917
1167.70 0.03916
1167.80 0.03914
1167.90 0.03913
1168.00 0.03912
1168.10 0.03911
1168.20 0.03909
1168.30 0.03908
1168.40 0.03907
1168.50 0.03905
1168.60 0.03904
1168.70 0.03903
1168.80 0.03901
1168.90 0.039
1169.00 0.03899
1169.10 0.03898
1169.20 0.03896
1169.30 0.03895
1169.40 0.03894
1169.50 0.03892
1169.60 0.03891
1169.70 0.0389
1169.80 0.03888
1169.90 0.03887
1170.00 0.03886
1170.10 0.03885
1170.20 0.03883
1170.30 0.03882
1170.40 0.03881
1170.50 0.03879
1170.60 0.03878
1170.70 0.03877
1170.80 0.03875
1170.90 0.03874
1171.00 0.03873
1171.10 0.03872
1171.20 0.0387
1171.30 0.03869
1171.40 0.03868
1171.50 0.03866
1171.60 0.03865
1171.70 0.03864
1171.80 0.03863
1171.90 0.03861
1172.00 0.0386
1172.10 0.03859
1172.20 0.03857
1172.30 0.03856
1172.40 0.03855
1172.50 0.03854
1172.60 0.03852
1172.70 0.03851
1172.80 0.0385
1172.90 0.03848
1173.00 0.03847
1173.10 0.03846
1173.20 0.03845
1173.30 0.03843
1173.40 0.03842
1173.50 0.03841
1173.60 0.0384
1173.70 0.03838
1173.80 0.03837
1173.90 0.03836
1174.00 0.03834
1174.10 0.03833
1174.20 0.03832
1174.30 0.03831
1174.40 0.03829
1174.50 0.03828
1174.60 0.03827
1174.70 0.03826
1174.80 0.03824
1174.90 0.03823
1175.00 0.03822
1175.10 0.0382
1175.20 0.03819
1175.30 0.03818
1175.40 0.03817
1175.50 0.03815
1175.60 0.03814
1175.70 0.03813
1175.80 0.03812
1175.90 0.0381
1176.00 0.03809
1176.10 0.03808
1176.20 0.03807
1176.30 0.03805
1176.40 0.03804
1176.50 0.03803
1176.60 0.03802
1176.70 0.038
1176.80 0.03799
1176.90 0.03798
1177.00 0.03796
1177.10 0.03795
1177.20 0.03794
1177.30 0.03793
1177.40 0.03791
1177.50 0.0379
1177.60 0.03789
1177.70 0.03788
1177.80 0.03786
1177.90 0.03785
1178.00 0.03784
1178.10 0.03783
1178.20 0.03781
1178.30 0.0378
1178.40 0.03779
1178.50 0.03778
1178.60 0.03776
1178.70 0.03775
1178.80 0.03774
1178.90 0.03773
1179.00 0.03771
1179.10 0.0377
1179.20 0.03769
1179.30 0.03768
1179.40 0.03766
1179.50 0.03765
1179.60 0.03764
1179.70 0.03763
1179.80 0.03761
1179.90 0.0376
1180.00 0.03759
1180.10 0.03758
1180.20 0.03757
1180.30 0.03755
1180.40 0.03754
1180.50 0.03753
1180.60 0.03752
1180.70 0.0375
1180.80 0.03749
1180.90 0.03748
1181.00 0.03747
1181.10 0.03745
1181.20 0.03744
1181.30 0.03743
1181.40 0.03742
1181.50 0.0374
1181.60 0.03739
1181.70 0.03738
1181.80 0.03737
1181.90 0.03735
1182.00 0.03734
1182.10 0.03733
1182.20 0.03732
1182.30 0.03731
1182.40 0.03729
1182.50 0.03728
1182.60 0.03727
1182.70 0.03726
1182.80 0.03724
1182.90 0.03723
1183.00 0.03722
1183.10 0.03721
1183.20 0.03719
1183.30 0.03718
1183.40 0.03717
1183.50 0.03716
1183.60 0.03715
1183.70 0.03713
1183.80 0.03712
1183.90 0.03711
1184.00 0.0371
1184.10 0.03708
1184.20 0.03707
1184.30 0.03706
1184.40 0.03705
1184.50 0.03704
1184.60 0.03702
1184.70 0.03701
1184.80 0.037
1184.90 0.03699
1185.00 0.03698
1185.10 0.03696
1185.20 0.03695
1185.30 0.03694
1185.40 0.03693
1185.50 0.03691
1185.60 0.0369
1185.70 0.03689
1185.80 0.03688
1185.90 0.03687
1186.00 0.03685
1186.10 0.03684
1186.20 0.03683
1186.30 0.03682
1186.40 0.03681
1186.50 0.03679
1186.60 0.03678
1186.70 0.03677
1186.80 0.03676
1186.90 0.03674
1187.00 0.03673
1187.10 0.03672
1187.20 0.03671
1187.30 0.0367
1187.40 0.03668
1187.50 0.03667
1187.60 0.03666
1187.70 0.03665
1187.80 0.03664
1187.90 0.03662
1188.00 0.03661
1188.10 0.0366
1188.20 0.03659
1188.30 0.03658
1188.40 0.03656
1188.50 0.03655
1188.60 0.03654
1188.70 0.03653
1188.80 0.03652
1188.90 0.0365
1189.00 0.03649
1189.10 0.03648
1189.20 0.03647
1189.30 0.03646
1189.40 0.03644
1189.50 0.03643
1189.60 0.03642
1189.70 0.03641
1189.80 0.0364
1189.90 0.03638
1190.00 0.03637
1190.10 0.03636
1190.20 0.03635
1190.30 0.03634
1190.40 0.03632
1190.50 0.03631
1190.60 0.0363
1190.70 0.03629
1190.80 0.03628
1190.90 0.03627
1191.00 0.03625
1191.10 0.03624
1191.20 0.03623
1191.30 0.03622
1191.40 0.03621
1191.50 0.03619
1191.60 0.03618
1191.70 0.03617
1191.80 0.03616
1191.90 0.03615
1192.00 0.03613
1192.10 0.03612
1192.20 0.03611
1192.30 0.0361
1192.40 0.03609
1192.50 0.03608
1192.60 0.03606
1192.70 0.03605
1192.80 0.03604
1192.90 0.03603
1193.00 0.03602
1193.10 0.03601
1193.20 0.03599
1193.30 0.03598
1193.40 0.03597
1193.50 0.03596
1193.60 0.03595
1193.70 0.03593
1193.80 0.03592
1193.90 0.03591
1194.00 0.0359
1194.10 0.03589
1194.20 0.03588
1194.30 0.03586
1194.40 0.03585
1194.50 0.03584
1194.60 0.03583
1194.70 0.03582
1194.80 0.03581
1194.90 0.03579
1195.00 0.03578
1195.10 0.03577
1195.20 0.03576
1195.30 0.03575
1195.40 0.03574
1195.50 0.03572
1195.60 0.03571
1195.70 0.0357
1195.80 0.03569
1195.90 0.03568
1196.00 0.03567
1196.10 0.03565
1196.20 0.03564
1196.30 0.03563
1196.40 0.03562
1196.50 0.03561
1196.60 0.0356
1196.70 0.03558
1196.80 0.03557
1196.90 0.03556
1197.00 0.03555
1197.10 0.03554
1197.20 0.03553
1197.30 0.03551
1197.40 0.0355
1197.50 0.03549
1197.60 0.03548
1197.70 0.03547
1197.80 0.03546
1197.90 0.03545
1198.00 0.03543
1198.10 0.03542
1198.20 0.03541
1198.30 0.0354
1198.40 0.03539
1198.50 0.03538
1198.60 0.03536
1198.70 0.03535
1198.80 0.03534
1198.90 0.03533
1199.00 0.03532
1199.10 0.03531
1199.20 0.0353
1199.30 0.03528
1199.40 0.03527
1199.50 0.03526
1199.60 0.03525
1199.70 0.03524
1199.80 0.03523
1199.90 0.03522
1200.00 0
