# Version 2.1 - nm, norm@500 to 1, cut digits, bergeron_12000_80.dat_12000
# Wavelength(nm)  Flambda(ergs/cm^s/s/nm)
300.00 1.86
300.10 1.858
300.20 1.857
300.30 1.856
300.40 1.855
300.50 1.854
300.60 1.853
300.70 1.852
300.80 1.85
300.90 1.849
301.00 1.848
301.10 1.847
301.20 1.846
301.30 1.845
301.40 1.844
301.50 1.842
301.60 1.841
301.70 1.84
301.80 1.839
301.90 1.838
302.00 1.837
302.10 1.836
302.20 1.834
302.30 1.833
302.40 1.832
302.50 1.831
302.60 1.83
302.70 1.829
302.80 1.828
302.90 1.826
303.00 1.825
303.10 1.824
303.20 1.823
303.30 1.822
303.40 1.821
303.50 1.82
303.60 1.819
303.70 1.817
303.80 1.816
303.90 1.815
304.00 1.814
304.10 1.813
304.20 1.812
304.30 1.811
304.40 1.81
304.50 1.808
304.60 1.807
304.70 1.806
304.80 1.805
304.90 1.804
305.00 1.803
305.10 1.802
305.20 1.801
305.30 1.799
305.40 1.798
305.50 1.797
305.60 1.796
305.70 1.795
305.80 1.794
305.90 1.793
306.00 1.792
306.10 1.791
306.20 1.789
306.30 1.788
306.40 1.787
306.50 1.786
306.60 1.785
306.70 1.784
306.80 1.783
306.90 1.782
307.00 1.781
307.10 1.78
307.20 1.778
307.30 1.777
307.40 1.776
307.50 1.775
307.60 1.774
307.70 1.773
307.80 1.772
307.90 1.771
308.00 1.77
308.10 1.769
308.20 1.767
308.30 1.766
308.40 1.765
308.50 1.764
308.60 1.763
308.70 1.762
308.80 1.761
308.90 1.76
309.00 1.759
309.10 1.758
309.20 1.757
309.30 1.756
309.40 1.754
309.50 1.753
309.60 1.752
309.70 1.751
309.80 1.75
309.90 1.749
310.00 1.748
310.10 1.747
310.20 1.746
310.30 1.745
310.40 1.744
310.50 1.743
310.60 1.741
310.70 1.74
310.80 1.739
310.90 1.738
311.00 1.737
311.10 1.736
311.20 1.735
311.30 1.734
311.40 1.733
311.50 1.732
311.60 1.731
311.70 1.73
311.80 1.729
311.90 1.728
312.00 1.727
312.10 1.725
312.20 1.724
312.30 1.723
312.40 1.722
312.50 1.721
312.60 1.72
312.70 1.719
312.80 1.718
312.90 1.717
313.00 1.716
313.10 1.715
313.20 1.714
313.30 1.713
313.40 1.712
313.50 1.711
313.60 1.71
313.70 1.709
313.80 1.708
313.90 1.706
314.00 1.705
314.10 1.704
314.20 1.703
314.30 1.702
314.40 1.701
314.50 1.7
314.60 1.699
314.70 1.698
314.80 1.697
314.90 1.696
315.00 1.695
315.10 1.694
315.20 1.693
315.30 1.692
315.40 1.691
315.50 1.69
315.60 1.689
315.70 1.688
315.80 1.687
315.90 1.686
316.00 1.685
316.10 1.684
316.20 1.683
316.30 1.681
316.40 1.68
316.50 1.679
316.60 1.678
316.70 1.677
316.80 1.676
316.90 1.675
317.00 1.674
317.10 1.673
317.20 1.672
317.30 1.671
317.40 1.67
317.50 1.669
317.60 1.668
317.70 1.667
317.80 1.666
317.90 1.665
318.00 1.664
318.10 1.663
318.20 1.662
318.30 1.661
318.40 1.66
318.50 1.659
318.60 1.658
318.70 1.657
318.80 1.656
318.90 1.655
319.00 1.654
319.10 1.653
319.20 1.652
319.30 1.651
319.40 1.65
319.50 1.649
319.60 1.648
319.70 1.647
319.80 1.646
319.90 1.645
320.00 1.644
320.10 1.643
320.20 1.642
320.30 1.641
320.40 1.64
320.50 1.639
320.60 1.638
320.70 1.637
320.80 1.636
320.90 1.635
321.00 1.634
321.10 1.633
321.20 1.632
321.30 1.631
321.40 1.63
321.50 1.629
321.60 1.628
321.70 1.627
321.80 1.626
321.90 1.625
322.00 1.624
322.10 1.623
322.20 1.622
322.30 1.621
322.40 1.62
322.50 1.619
322.60 1.618
322.70 1.617
322.80 1.616
322.90 1.615
323.00 1.614
323.10 1.613
323.20 1.612
323.30 1.611
323.40 1.61
323.50 1.609
323.60 1.608
323.70 1.607
323.80 1.606
323.90 1.605
324.00 1.604
324.10 1.603
324.20 1.602
324.30 1.601
324.40 1.6
324.50 1.599
324.60 1.598
324.70 1.597
324.80 1.596
324.90 1.595
325.00 1.594
325.10 1.593
325.20 1.592
325.30 1.592
325.40 1.591
325.50 1.59
325.60 1.589
325.70 1.588
325.80 1.587
325.90 1.586
326.00 1.585
326.10 1.584
326.20 1.583
326.30 1.582
326.40 1.581
326.50 1.58
326.60 1.579
326.70 1.578
326.80 1.577
326.90 1.576
327.00 1.575
327.10 1.574
327.20 1.573
327.30 1.572
327.40 1.571
327.50 1.57
327.60 1.569
327.70 1.568
327.80 1.568
327.90 1.567
328.00 1.566
328.10 1.565
328.20 1.564
328.30 1.563
328.40 1.562
328.50 1.561
328.60 1.56
328.70 1.559
328.80 1.558
328.90 1.557
329.00 1.556
329.10 1.555
329.20 1.554
329.30 1.553
329.40 1.552
329.50 1.551
329.60 1.55
329.70 1.55
329.80 1.549
329.90 1.548
330.00 1.547
330.10 1.546
330.20 1.545
330.30 1.544
330.40 1.543
330.50 1.542
330.60 1.541
330.70 1.54
330.80 1.539
330.90 1.538
331.00 1.537
331.10 1.536
331.20 1.536
331.30 1.535
331.40 1.534
331.50 1.533
331.60 1.532
331.70 1.531
331.80 1.53
331.90 1.529
332.00 1.528
332.10 1.527
332.20 1.526
332.30 1.525
332.40 1.524
332.50 1.524
332.60 1.523
332.70 1.522
332.80 1.521
332.90 1.52
333.00 1.519
333.10 1.518
333.20 1.517
333.30 1.516
333.40 1.515
333.50 1.514
333.60 1.513
333.70 1.513
333.80 1.512
333.90 1.511
334.00 1.51
334.10 1.509
334.20 1.508
334.30 1.507
334.40 1.506
334.50 1.505
334.60 1.504
334.70 1.503
334.80 1.503
334.90 1.502
335.00 1.501
335.10 1.5
335.20 1.499
335.30 1.498
335.40 1.497
335.50 1.496
335.60 1.495
335.70 1.494
335.80 1.494
335.90 1.493
336.00 1.492
336.10 1.491
336.20 1.49
336.30 1.489
336.40 1.488
336.50 1.487
336.60 1.486
336.70 1.485
336.80 1.485
336.90 1.484
337.00 1.483
337.10 1.482
337.20 1.481
337.30 1.48
337.40 1.479
337.50 1.478
337.60 1.477
337.70 1.477
337.80 1.476
337.90 1.475
338.00 1.474
338.10 1.473
338.20 1.472
338.30 1.471
338.40 1.47
338.50 1.469
338.60 1.469
338.70 1.468
338.80 1.467
338.90 1.466
339.00 1.465
339.10 1.464
339.20 1.463
339.30 1.462
339.40 1.462
339.50 1.461
339.60 1.46
339.70 1.459
339.80 1.458
339.90 1.457
340.00 1.456
340.10 1.455
340.20 1.455
340.30 1.454
340.40 1.453
340.50 1.452
340.60 1.451
340.70 1.45
340.80 1.449
340.90 1.448
341.00 1.448
341.10 1.447
341.20 1.446
341.30 1.445
341.40 1.444
341.50 1.443
341.60 1.442
341.70 1.442
341.80 1.441
341.90 1.44
342.00 1.439
342.10 1.438
342.20 1.437
342.30 1.436
342.40 1.436
342.50 1.435
342.60 1.434
342.70 1.433
342.80 1.432
342.90 1.431
343.00 1.43
343.10 1.43
343.20 1.429
343.30 1.428
343.40 1.427
343.50 1.426
343.60 1.425
343.70 1.424
343.80 1.424
343.90 1.423
344.00 1.422
344.10 1.421
344.20 1.42
344.30 1.419
344.40 1.418
344.50 1.418
344.60 1.417
344.70 1.416
344.80 1.415
344.90 1.414
345.00 1.413
345.10 1.413
345.20 1.412
345.30 1.411
345.40 1.41
345.50 1.409
345.60 1.408
345.70 1.408
345.80 1.407
345.90 1.406
346.00 1.405
346.10 1.404
346.20 1.403
346.30 1.403
346.40 1.402
346.50 1.401
346.60 1.4
346.70 1.399
346.80 1.398
346.90 1.398
347.00 1.397
347.10 1.396
347.20 1.395
347.30 1.394
347.40 1.393
347.50 1.393
347.60 1.392
347.70 1.391
347.80 1.39
347.90 1.389
348.00 1.388
348.10 1.388
348.20 1.387
348.30 1.386
348.40 1.385
348.50 1.384
348.60 1.383
348.70 1.383
348.80 1.382
348.90 1.381
349.00 1.38
349.10 1.379
349.20 1.379
349.30 1.378
349.40 1.377
349.50 1.376
349.60 1.375
349.70 1.374
349.80 1.374
349.90 1.373
350.00 1.372
350.10 1.371
350.20 1.37
350.30 1.37
350.40 1.369
350.50 1.368
350.60 1.367
350.70 1.366
350.80 1.366
350.90 1.365
351.00 1.364
351.10 1.363
351.20 1.362
351.30 1.362
351.40 1.361
351.50 1.36
351.60 1.359
351.70 1.358
351.80 1.358
351.90 1.357
352.00 1.356
352.10 1.355
352.20 1.354
352.30 1.353
352.40 1.353
352.50 1.352
352.60 1.351
352.70 1.35
352.80 1.35
352.90 1.349
353.00 1.348
353.10 1.347
353.20 1.346
353.30 1.346
353.40 1.345
353.50 1.344
353.60 1.343
353.70 1.342
353.80 1.342
353.90 1.341
354.00 1.34
354.10 1.339
354.20 1.338
354.30 1.338
354.40 1.337
354.50 1.336
354.60 1.335
354.70 1.334
354.80 1.334
354.90 1.333
355.00 1.332
355.10 1.331
355.20 1.331
355.30 1.33
355.40 1.329
355.50 1.328
355.60 1.327
355.70 1.327
355.80 1.326
355.90 1.325
356.00 1.324
356.10 1.324
356.20 1.323
356.30 1.322
356.40 1.321
356.50 1.32
356.60 1.32
356.70 1.319
356.80 1.318
356.90 1.317
357.00 1.317
357.10 1.316
357.20 1.315
357.30 1.314
357.40 1.313
357.50 1.313
357.60 1.312
357.70 1.311
357.80 1.31
357.90 1.31
358.00 1.309
358.10 1.308
358.20 1.307
358.30 1.307
358.40 1.306
358.50 1.305
358.60 1.304
358.70 1.303
358.80 1.303
358.90 1.302
359.00 1.301
359.10 1.3
359.20 1.3
359.30 1.299
359.40 1.298
359.50 1.297
359.60 1.297
359.70 1.296
359.80 1.295
359.90 1.294
360.00 1.294
360.10 1.293
360.20 1.292
360.30 1.291
360.40 1.291
360.50 1.29
360.60 1.289
360.70 1.288
360.80 1.288
360.90 1.287
361.00 1.286
361.10 1.285
361.20 1.284
361.30 1.284
361.40 1.283
361.50 1.282
361.60 1.281
361.70 1.281
361.80 1.28
361.90 1.279
362.00 1.279
362.10 1.278
362.20 1.277
362.30 1.276
362.40 1.276
362.50 1.275
362.60 1.274
362.70 1.273
362.80 1.273
362.90 1.272
363.00 1.271
363.10 1.27
363.20 1.269
363.30 1.269
363.40 1.268
363.50 1.267
363.60 1.266
363.70 1.265
363.80 1.264
363.90 1.264
364.00 1.263
364.10 1.262
364.20 1.261
364.30 1.26
364.40 1.26
364.50 1.259
364.60 1.258
364.70 1.257
364.80 1.256
364.90 1.255
365.00 1.254
365.10 1.254
365.20 1.253
365.30 1.252
365.40 1.251
365.50 1.25
365.60 1.249
365.70 1.249
365.80 1.248
365.90 1.247
366.00 1.246
366.10 1.245
366.20 1.245
366.30 1.244
366.40 1.243
366.50 1.242
366.60 1.242
366.70 1.241
366.80 1.24
366.90 1.239
367.00 1.239
367.10 1.238
367.20 1.237
367.30 1.236
367.40 1.236
367.50 1.235
367.60 1.234
367.70 1.233
367.80 1.233
367.90 1.232
368.00 1.231
368.10 1.231
368.20 1.23
368.30 1.229
368.40 1.229
368.50 1.228
368.60 1.228
368.70 1.227
368.80 1.227
368.90 1.226
369.00 1.226
369.10 1.225
369.20 1.225
369.30 1.224
369.40 1.223
369.50 1.223
369.60 1.222
369.70 1.222
369.80 1.221
369.90 1.221
370.00 1.22
370.10 1.22
370.20 1.22
370.30 1.22
370.40 1.22
370.50 1.221
370.60 1.221
370.70 1.221
370.80 1.221
370.90 1.221
371.00 1.221
371.10 1.221
371.20 1.221
371.30 1.221
371.40 1.221
371.50 1.221
371.60 1.221
371.70 1.221
371.80 1.222
371.90 1.222
372.00 1.222
372.10 1.223
372.20 1.224
372.30 1.224
372.40 1.225
372.50 1.226
372.60 1.227
372.70 1.228
372.80 1.229
372.90 1.23
373.00 1.231
373.10 1.232
373.20 1.233
373.30 1.234
373.40 1.235
373.50 1.236
373.60 1.237
373.70 1.238
373.80 1.238
373.90 1.239
374.00 1.24
374.10 1.242
374.20 1.243
374.30 1.244
374.40 1.246
374.50 1.247
374.60 1.248
374.70 1.25
374.80 1.251
374.90 1.252
375.00 1.254
375.10 1.255
375.20 1.256
375.30 1.257
375.40 1.259
375.50 1.26
375.60 1.261
375.70 1.263
375.80 1.264
375.90 1.265
376.00 1.267
376.10 1.267
376.20 1.268
376.30 1.269
376.40 1.269
376.50 1.27
376.60 1.271
376.70 1.271
376.80 1.272
376.90 1.273
377.00 1.273
377.10 1.272
377.20 1.271
377.30 1.27
377.40 1.269
377.50 1.268
377.60 1.267
377.70 1.266
377.80 1.265
377.90 1.263
378.00 1.262
378.10 1.256
378.20 1.249
378.30 1.242
378.40 1.236
378.50 1.229
378.60 1.222
378.70 1.216
378.80 1.209
378.90 1.202
379.00 1.196
379.10 1.191
379.20 1.186
379.30 1.181
379.40 1.176
379.50 1.171
379.60 1.166
379.70 1.161
379.80 1.156
379.90 1.151
380.00 1.146
380.10 1.154
380.20 1.162
380.30 1.17
380.40 1.178
380.50 1.186
380.60 1.194
380.70 1.202
380.80 1.21
380.90 1.218
381.00 1.226
381.10 1.229
381.20 1.231
381.30 1.234
381.40 1.237
381.50 1.239
381.60 1.239
381.70 1.237
381.80 1.234
381.90 1.23
382.00 1.225
382.10 1.218
382.20 1.21
382.30 1.194
382.40 1.178
382.50 1.162
382.60 1.147
382.70 1.131
382.80 1.115
382.90 1.099
383.00 1.083
383.10 1.067
383.20 1.051
383.30 1.039
383.40 1.024
383.50 1.009
383.60 1.012
383.70 1.028
383.80 1.043
383.90 1.056
384.00 1.073
384.10 1.093
384.20 1.114
384.30 1.134
384.40 1.154
384.50 1.173
384.60 1.19
384.70 1.205
384.80 1.218
384.90 1.228
385.00 1.238
385.10 1.245
385.20 1.252
385.30 1.258
385.40 1.263
385.50 1.267
385.60 1.27
385.70 1.272
385.80 1.273
385.90 1.274
386.00 1.274
386.10 1.272
386.20 1.271
386.30 1.268
386.40 1.264
386.50 1.26
386.60 1.254
386.70 1.248
386.80 1.242
386.90 1.234
387.00 1.225
387.10 1.216
387.20 1.205
387.30 1.193
387.40 1.181
387.50 1.166
387.60 1.151
387.70 1.134
387.80 1.114
387.90 1.092
388.00 1.069
388.10 1.041
388.20 1.012
388.30 0.9804
388.40 0.9475
388.50 0.9174
388.60 0.8901
388.70 0.8676
388.80 0.8472
388.90 0.8289
389.00 0.8457
389.10 0.8653
389.20 0.8877
389.30 0.9146
389.40 0.9446
389.50 0.9777
389.60 1.01
389.70 1.04
389.80 1.069
389.90 1.094
390.00 1.117
390.10 1.139
390.20 1.157
390.30 1.175
390.40 1.191
390.50 1.206
390.60 1.219
390.70 1.233
390.80 1.245
390.90 1.257
391.00 1.268
391.10 1.277
391.20 1.287
391.30 1.296
391.40 1.303
391.50 1.311
391.60 1.318
391.70 1.324
391.80 1.329
391.90 1.334
392.00 1.338
392.10 1.342
392.20 1.345
392.30 1.347
392.40 1.349
392.50 1.35
392.60 1.351
392.70 1.351
392.80 1.35
392.90 1.349
393.00 1.347
393.10 1.345
393.20 1.341
393.30 1.338
393.40 1.333
393.50 1.328
393.60 1.322
393.70 1.316
393.80 1.309
393.90 1.301
394.00 1.293
394.10 1.283
394.20 1.274
394.30 1.263
394.40 1.252
394.50 1.24
394.60 1.227
394.70 1.214
394.80 1.2
394.90 1.186
395.00 1.171
395.10 1.155
395.20 1.138
395.30 1.121
395.40 1.103
395.50 1.084
395.60 1.063
395.70 1.042
395.80 1.02
395.90 0.9966
396.00 0.9723
396.10 0.947
396.20 0.9182
396.30 0.8869
396.40 0.8532
396.50 0.816
396.60 0.7794
396.70 0.7434
396.80 0.7132
396.90 0.6805
397.00 0.6453
397.10 0.6776
397.20 0.7084
397.30 0.7377
397.40 0.7727
397.50 0.8087
397.60 0.8455
397.70 0.8791
397.80 0.9103
397.90 0.9391
398.00 0.9641
398.10 0.9883
398.20 1.012
398.30 1.033
398.40 1.055
398.50 1.075
398.60 1.094
398.70 1.113
398.80 1.13
398.90 1.147
399.00 1.163
399.10 1.179
399.20 1.194
399.30 1.209
399.40 1.224
399.50 1.238
399.60 1.251
399.70 1.264
399.80 1.276
399.90 1.288
400.00 1.3
400.10 1.311
400.20 1.321
400.30 1.331
400.40 1.341
400.50 1.35
400.60 1.359
400.70 1.367
400.80 1.375
400.90 1.383
401.00 1.39
401.10 1.396
401.20 1.403
401.30 1.409
401.40 1.414
401.50 1.42
401.60 1.425
401.70 1.429
401.80 1.434
401.90 1.438
402.00 1.441
402.10 1.445
402.20 1.448
402.30 1.451
402.40 1.453
402.50 1.455
402.60 1.457
402.70 1.459
402.80 1.46
402.90 1.461
403.00 1.462
403.10 1.462
403.20 1.462
403.30 1.462
403.40 1.461
403.50 1.461
403.60 1.46
403.70 1.458
403.80 1.457
403.90 1.455
404.00 1.453
404.10 1.45
404.20 1.447
404.30 1.444
404.40 1.441
404.50 1.437
404.60 1.433
404.70 1.429
404.80 1.424
404.90 1.419
405.00 1.414
405.10 1.409
405.20 1.403
405.30 1.397
405.40 1.39
405.50 1.383
405.60 1.376
405.70 1.369
405.80 1.361
405.90 1.352
406.00 1.344
406.10 1.335
406.20 1.326
406.30 1.316
406.40 1.306
406.50 1.296
406.60 1.285
406.70 1.274
406.80 1.262
406.90 1.25
407.00 1.237
407.10 1.224
407.20 1.211
407.30 1.197
407.40 1.182
407.50 1.167
407.60 1.152
407.70 1.136
407.80 1.12
407.90 1.103
408.00 1.086
408.10 1.069
408.20 1.051
408.30 1.032
408.40 1.014
408.50 0.9945
408.60 0.9747
408.70 0.9543
408.80 0.9331
408.90 0.9116
409.00 0.89
409.10 0.8678
409.20 0.8453
409.30 0.8222
409.40 0.7966
409.50 0.7695
409.60 0.7408
409.70 0.7091
409.80 0.6769
409.90 0.6443
410.00 0.6097
410.10 0.5769
410.20 0.5457
410.30 0.59
410.40 0.6283
410.50 0.6605
410.60 0.6926
410.70 0.7238
410.80 0.7539
410.90 0.7808
411.00 0.8061
411.10 0.8298
411.20 0.8516
411.30 0.8731
411.40 0.8941
411.50 0.9148
411.60 0.9351
411.70 0.9551
411.80 0.9741
411.90 0.9927
412.00 1.011
412.10 1.028
412.20 1.045
412.30 1.062
412.40 1.078
412.50 1.094
412.60 1.109
412.70 1.124
412.80 1.139
412.90 1.153
413.00 1.167
413.10 1.18
413.20 1.193
413.30 1.205
413.40 1.217
413.50 1.229
413.60 1.24
413.70 1.251
413.80 1.261
413.90 1.271
414.00 1.281
414.10 1.29
414.20 1.299
414.30 1.308
414.40 1.317
414.50 1.325
414.60 1.333
414.70 1.341
414.80 1.348
414.90 1.356
415.00 1.363
415.10 1.369
415.20 1.376
415.30 1.382
415.40 1.388
415.50 1.394
415.60 1.4
415.70 1.405
415.80 1.41
415.90 1.416
416.00 1.42
416.10 1.425
416.20 1.43
416.30 1.434
416.40 1.438
416.50 1.442
416.60 1.446
416.70 1.45
416.80 1.454
416.90 1.457
417.00 1.461
417.10 1.464
417.20 1.467
417.30 1.47
417.40 1.473
417.50 1.475
417.60 1.478
417.70 1.48
417.80 1.483
417.90 1.485
418.00 1.487
418.10 1.489
418.20 1.491
418.30 1.493
418.40 1.495
418.50 1.496
418.60 1.498
418.70 1.499
418.80 1.501
418.90 1.502
419.00 1.503
419.10 1.504
419.20 1.505
419.30 1.506
419.40 1.507
419.50 1.508
419.60 1.509
419.70 1.509
419.80 1.51
419.90 1.51
420.00 1.511
420.10 1.511
420.20 1.512
420.30 1.512
420.40 1.512
420.50 1.512
420.60 1.512
420.70 1.512
420.80 1.512
420.90 1.512
421.00 1.511
421.10 1.511
421.20 1.511
421.30 1.51
421.40 1.51
421.50 1.509
421.60 1.509
421.70 1.508
421.80 1.507
421.90 1.507
422.00 1.506
422.10 1.505
422.20 1.504
422.30 1.503
422.40 1.502
422.50 1.501
422.60 1.499
422.70 1.498
422.80 1.497
422.90 1.495
423.00 1.494
423.10 1.492
423.20 1.491
423.30 1.489
423.40 1.487
423.50 1.486
423.60 1.484
423.70 1.482
423.80 1.48
423.90 1.478
424.00 1.476
424.10 1.474
424.20 1.472
424.30 1.469
424.40 1.467
424.50 1.465
424.60 1.462
424.70 1.46
424.80 1.457
424.90 1.454
425.00 1.452
425.10 1.449
425.20 1.446
425.30 1.443
425.40 1.44
425.50 1.437
425.60 1.433
425.70 1.43
425.80 1.427
425.90 1.423
426.00 1.42
426.10 1.416
426.20 1.411
426.30 1.407
426.40 1.403
426.50 1.399
426.60 1.395
426.70 1.391
426.80 1.386
426.90 1.382
427.00 1.377
427.10 1.373
427.20 1.368
427.30 1.363
427.40 1.358
427.50 1.353
427.60 1.348
427.70 1.342
427.80 1.337
427.90 1.331
428.00 1.325
428.10 1.319
428.20 1.313
428.30 1.307
428.40 1.301
428.50 1.294
428.60 1.287
428.70 1.28
428.80 1.274
428.90 1.266
429.00 1.259
429.10 1.251
429.20 1.244
429.30 1.236
429.40 1.227
429.50 1.219
429.60 1.21
429.70 1.202
429.80 1.193
429.90 1.183
430.00 1.174
430.10 1.164
430.20 1.155
430.30 1.144
430.40 1.134
430.50 1.123
430.60 1.113
430.70 1.101
430.80 1.09
430.90 1.078
431.00 1.066
431.10 1.054
431.20 1.042
431.30 1.029
431.40 1.016
431.50 1.002
431.60 0.9887
431.70 0.9747
431.80 0.9604
431.90 0.9456
432.00 0.9304
432.10 0.9149
432.20 0.8985
432.30 0.8816
432.40 0.8642
432.50 0.8456
432.60 0.8263
432.70 0.8064
432.80 0.786
432.90 0.7658
433.00 0.7458
433.10 0.7269
433.20 0.7081
433.30 0.6895
433.40 0.6694
433.50 0.6478
433.60 0.6247
433.70 0.5974
433.80 0.5672
433.90 0.5342
434.00 0.4716
434.10 0.4725
434.20 0.5369
434.30 0.569
434.40 0.5983
434.50 0.6249
434.60 0.6472
434.70 0.6681
434.80 0.6875
434.90 0.7055
435.00 0.7236
435.10 0.7418
435.20 0.7611
435.30 0.7804
435.40 0.8
435.50 0.8189
435.60 0.8371
435.70 0.8547
435.80 0.871
435.90 0.8868
436.00 0.902
436.10 0.9163
436.20 0.9304
436.30 0.944
436.40 0.957
436.50 0.9698
436.60 0.9823
436.70 0.9943
436.80 1.006
436.90 1.018
437.00 1.029
437.10 1.039
437.20 1.05
437.30 1.06
437.40 1.07
437.50 1.08
437.60 1.089
437.70 1.099
437.80 1.108
437.90 1.116
438.00 1.124
438.10 1.133
438.20 1.14
438.30 1.148
438.40 1.156
438.50 1.163
438.60 1.17
438.70 1.177
438.80 1.183
438.90 1.19
439.00 1.196
439.10 1.202
439.20 1.208
439.30 1.213
439.40 1.219
439.50 1.224
439.60 1.229
439.70 1.234
439.80 1.239
439.90 1.244
440.00 1.248
440.10 1.252
440.20 1.257
440.30 1.261
440.40 1.265
440.50 1.269
440.60 1.272
440.70 1.276
440.80 1.28
440.90 1.283
441.00 1.286
441.10 1.29
441.20 1.293
441.30 1.296
441.40 1.299
441.50 1.301
441.60 1.304
441.70 1.307
441.80 1.309
441.90 1.312
442.00 1.314
442.10 1.316
442.20 1.318
442.30 1.321
442.40 1.323
442.50 1.325
442.60 1.326
442.70 1.328
442.80 1.33
442.90 1.332
443.00 1.333
443.10 1.335
443.20 1.336
443.30 1.338
443.40 1.339
443.50 1.341
443.60 1.342
443.70 1.343
443.80 1.345
443.90 1.346
444.00 1.347
444.10 1.348
444.20 1.349
444.30 1.35
444.40 1.351
444.50 1.352
444.60 1.353
444.70 1.353
444.80 1.354
444.90 1.355
445.00 1.356
445.10 1.356
445.20 1.357
445.30 1.358
445.40 1.358
445.50 1.359
445.60 1.359
445.70 1.36
445.80 1.36
445.90 1.361
446.00 1.361
446.10 1.361
446.20 1.362
446.30 1.362
446.40 1.362
446.50 1.362
446.60 1.363
446.70 1.363
446.80 1.363
446.90 1.363
447.00 1.363
447.10 1.363
447.20 1.364
447.30 1.364
447.40 1.364
447.50 1.364
447.60 1.364
447.70 1.364
447.80 1.364
447.90 1.364
448.00 1.364
448.10 1.363
448.20 1.363
448.30 1.363
448.40 1.363
448.50 1.363
448.60 1.363
448.70 1.363
448.80 1.363
448.90 1.362
449.00 1.362
449.10 1.362
449.20 1.362
449.30 1.362
449.40 1.361
449.50 1.361
449.60 1.361
449.70 1.361
449.80 1.36
449.90 1.36
450.00 1.36
450.10 1.359
450.20 1.359
450.30 1.359
450.40 1.358
450.50 1.358
450.60 1.357
450.70 1.357
450.80 1.357
450.90 1.356
451.00 1.356
451.10 1.355
451.20 1.355
451.30 1.354
451.40 1.354
451.50 1.354
451.60 1.353
451.70 1.353
451.80 1.352
451.90 1.352
452.00 1.351
452.10 1.351
452.20 1.35
452.30 1.35
452.40 1.349
452.50 1.348
452.60 1.348
452.70 1.347
452.80 1.347
452.90 1.346
453.00 1.346
453.10 1.345
453.20 1.344
453.30 1.344
453.40 1.343
453.50 1.343
453.60 1.342
453.70 1.341
453.80 1.341
453.90 1.34
454.00 1.34
454.10 1.339
454.20 1.338
454.30 1.338
454.40 1.337
454.50 1.336
454.60 1.336
454.70 1.335
454.80 1.334
454.90 1.334
455.00 1.333
455.10 1.332
455.20 1.332
455.30 1.331
455.40 1.33
455.50 1.33
455.60 1.329
455.70 1.328
455.80 1.328
455.90 1.327
456.00 1.326
456.10 1.326
456.20 1.325
456.30 1.324
456.40 1.323
456.50 1.323
456.60 1.322
456.70 1.321
456.80 1.321
456.90 1.32
457.00 1.319
457.10 1.319
457.20 1.318
457.30 1.317
457.40 1.317
457.50 1.316
457.60 1.315
457.70 1.314
457.80 1.314
457.90 1.313
458.00 1.312
458.10 1.311
458.20 1.31
458.30 1.31
458.40 1.309
458.50 1.308
458.60 1.307
458.70 1.306
458.80 1.306
458.90 1.305
459.00 1.304
459.10 1.303
459.20 1.303
459.30 1.302
459.40 1.301
459.50 1.3
459.60 1.299
459.70 1.298
459.80 1.298
459.90 1.297
460.00 1.296
460.10 1.295
460.20 1.294
460.30 1.293
460.40 1.293
460.50 1.292
460.60 1.291
460.70 1.29
460.80 1.289
460.90 1.288
461.00 1.288
461.10 1.287
461.20 1.286
461.30 1.285
461.40 1.284
461.50 1.283
461.60 1.282
461.70 1.282
461.80 1.281
461.90 1.28
462.00 1.279
462.10 1.278
462.20 1.277
462.30 1.276
462.40 1.275
462.50 1.274
462.60 1.274
462.70 1.273
462.80 1.272
462.90 1.271
463.00 1.27
463.10 1.269
463.20 1.268
463.30 1.267
463.40 1.266
463.50 1.265
463.60 1.264
463.70 1.263
463.80 1.263
463.90 1.262
464.00 1.261
464.10 1.26
464.20 1.259
464.30 1.258
464.40 1.257
464.50 1.256
464.60 1.255
464.70 1.254
464.80 1.253
464.90 1.252
465.00 1.251
465.10 1.25
465.20 1.249
465.30 1.248
465.40 1.247
465.50 1.246
465.60 1.245
465.70 1.244
465.80 1.243
465.90 1.242
466.00 1.241
466.10 1.24
466.20 1.239
466.30 1.238
466.40 1.237
466.50 1.236
466.60 1.235
466.70 1.234
466.80 1.233
466.90 1.232
467.00 1.231
467.10 1.23
467.20 1.229
467.30 1.227
467.40 1.226
467.50 1.225
467.60 1.224
467.70 1.223
467.80 1.222
467.90 1.221
468.00 1.22
468.10 1.219
468.20 1.218
468.30 1.216
468.40 1.215
468.50 1.214
468.60 1.213
468.70 1.212
468.80 1.211
468.90 1.209
469.00 1.208
469.10 1.207
469.20 1.206
469.30 1.205
469.40 1.203
469.50 1.202
469.60 1.201
469.70 1.2
469.80 1.198
469.90 1.197
470.00 1.196
470.10 1.195
470.20 1.193
470.30 1.192
470.40 1.191
470.50 1.19
470.60 1.188
470.70 1.187
470.80 1.186
470.90 1.185
471.00 1.183
471.10 1.182
471.20 1.181
471.30 1.179
471.40 1.178
471.50 1.176
471.60 1.175
471.70 1.173
471.80 1.172
471.90 1.171
472.00 1.169
472.10 1.168
472.20 1.166
472.30 1.165
472.40 1.163
472.50 1.162
472.60 1.16
472.70 1.158
472.80 1.157
472.90 1.155
473.00 1.154
473.10 1.152
473.20 1.151
473.30 1.149
473.40 1.147
473.50 1.145
473.60 1.144
473.70 1.142
473.80 1.14
473.90 1.138
474.00 1.137
474.10 1.135
474.20 1.133
474.30 1.131
474.40 1.129
474.50 1.127
474.60 1.125
474.70 1.123
474.80 1.122
474.90 1.12
475.00 1.118
475.10 1.116
475.20 1.114
475.30 1.111
475.40 1.109
475.50 1.107
475.60 1.105
475.70 1.103
475.80 1.1
475.90 1.098
476.00 1.096
476.10 1.094
476.20 1.092
476.30 1.089
476.40 1.087
476.50 1.084
476.60 1.082
476.70 1.079
476.80 1.077
476.90 1.074
477.00 1.072
477.10 1.069
477.20 1.066
477.30 1.063
477.40 1.06
477.50 1.058
477.60 1.055
477.70 1.052
477.80 1.049
477.90 1.046
478.00 1.043
478.10 1.04
478.20 1.037
478.30 1.034
478.40 1.03
478.50 1.027
478.60 1.023
478.70 1.02
478.80 1.016
478.90 1.013
479.00 1.01
479.10 1.006
479.20 1.002
479.30 0.9983
479.40 0.9943
479.50 0.9902
479.60 0.9862
479.70 0.9821
479.80 0.9781
479.90 0.974
480.00 0.97
480.10 0.9659
480.20 0.9613
480.30 0.9564
480.40 0.9515
480.50 0.9467
480.60 0.9418
480.70 0.9369
480.80 0.932
480.90 0.9272
481.00 0.9223
481.10 0.9175
481.20 0.9118
481.30 0.9058
481.40 0.8998
481.50 0.8938
481.60 0.8878
481.70 0.8818
481.80 0.8758
481.90 0.8698
482.00 0.8639
482.10 0.8579
482.20 0.8509
482.30 0.8434
482.40 0.836
482.50 0.8285
482.60 0.821
482.70 0.8136
482.80 0.8061
482.90 0.7987
483.00 0.7913
483.10 0.7838
483.20 0.775
483.30 0.7654
483.40 0.7559
483.50 0.7464
483.60 0.7368
483.70 0.7273
483.80 0.7178
483.90 0.7083
484.00 0.6988
484.10 0.6894
484.20 0.6787
484.30 0.6674
484.40 0.6562
484.50 0.6449
484.60 0.6337
484.70 0.622
484.80 0.6101
484.90 0.5983
485.00 0.5864
485.10 0.5745
485.20 0.5628
485.30 0.551
485.40 0.539
485.50 0.5267
485.60 0.5134
485.70 0.4995
485.80 0.4817
485.90 0.462
486.00 0.4335
486.10 0.3608
486.20 0.3935
486.30 0.4452
486.40 0.4676
486.50 0.4871
486.60 0.5026
486.70 0.516
486.80 0.5284
486.90 0.5402
487.00 0.5516
487.10 0.5628
487.20 0.574
487.30 0.5853
487.40 0.5966
487.50 0.6078
487.60 0.6191
487.70 0.6298
487.80 0.6403
487.90 0.6508
488.00 0.6613
488.10 0.6718
488.20 0.681
488.30 0.6897
488.40 0.6983
488.50 0.7069
488.60 0.7156
488.70 0.7242
488.80 0.7328
488.90 0.7414
489.00 0.75
489.10 0.7586
489.20 0.7657
489.30 0.7721
489.40 0.7785
489.50 0.7849
489.60 0.7913
489.70 0.7977
489.80 0.8041
489.90 0.8105
490.00 0.8169
490.10 0.8232
490.20 0.8286
490.30 0.8334
490.40 0.8382
490.50 0.843
490.60 0.8479
490.70 0.8527
490.80 0.8575
490.90 0.8623
491.00 0.8671
491.10 0.8719
491.20 0.8759
491.30 0.8795
491.40 0.8832
491.50 0.8868
491.60 0.8904
491.70 0.894
491.80 0.8976
491.90 0.9012
492.00 0.9048
492.10 0.9084
492.20 0.9114
492.30 0.9142
492.40 0.9169
492.50 0.9196
492.60 0.9223
492.70 0.9251
492.80 0.9278
492.90 0.9305
493.00 0.9332
493.10 0.9359
493.20 0.9382
493.30 0.9403
493.40 0.9424
493.50 0.9444
493.60 0.9465
493.70 0.9486
493.80 0.9506
493.90 0.9527
494.00 0.9547
494.10 0.9568
494.20 0.9585
494.30 0.96
494.40 0.9615
494.50 0.963
494.60 0.9645
494.70 0.966
494.80 0.9675
494.90 0.969
495.00 0.9705
495.10 0.972
495.20 0.9732
495.30 0.9743
495.40 0.9754
495.50 0.9765
495.60 0.9775
495.70 0.9786
495.80 0.9797
495.90 0.9808
496.00 0.9819
496.10 0.9829
496.20 0.9838
496.30 0.9846
496.40 0.9853
496.50 0.9861
496.60 0.9868
496.70 0.9876
496.80 0.9884
496.90 0.9891
497.00 0.9899
497.10 0.9906
497.20 0.9912
497.30 0.9917
497.40 0.9922
497.50 0.9927
497.60 0.9932
497.70 0.9937
497.80 0.9942
497.90 0.9947
498.00 0.9952
498.10 0.9957
498.20 0.9961
498.30 0.9964
498.40 0.9967
498.50 0.997
498.60 0.9973
498.70 0.9976
498.80 0.9979
498.90 0.9982
499.00 0.9985
499.10 0.9987
499.20 0.9989
499.30 0.9991
499.40 0.9992
499.50 0.9993
499.60 0.9995
499.70 0.9996
499.80 0.9997
499.90 0.9999
500.00 1
500.10 1
500.20 1
500.30 1
500.40 1
500.50 1
500.60 1
500.70 1
500.80 1
500.90 1
501.00 1
501.10 1
501.20 1
501.30 1
501.40 1
501.50 0.9999
501.60 0.9998
501.70 0.9997
501.80 0.9996
501.90 0.9995
502.00 0.9994
502.10 0.9993
502.20 0.9992
502.30 0.999
502.40 0.9989
502.50 0.9987
502.60 0.9985
502.70 0.9983
502.80 0.9982
502.90 0.998
503.00 0.9978
503.10 0.9977
503.20 0.9974
503.30 0.9972
503.40 0.997
503.50 0.9967
503.60 0.9965
503.70 0.9963
503.80 0.996
503.90 0.9958
504.00 0.9956
504.10 0.9953
504.20 0.9951
504.30 0.9948
504.40 0.9945
504.50 0.9942
504.60 0.9939
504.70 0.9936
504.80 0.9933
504.90 0.9931
505.00 0.9928
505.10 0.9925
505.20 0.9922
505.30 0.9918
505.40 0.9915
505.50 0.9912
505.60 0.9908
505.70 0.9905
505.80 0.9902
505.90 0.9899
506.00 0.9895
506.10 0.9892
506.20 0.9888
506.30 0.9885
506.40 0.9881
506.50 0.9877
506.60 0.9874
506.70 0.987
506.80 0.9867
506.90 0.9863
507.00 0.9859
507.10 0.9856
507.20 0.9852
507.30 0.9848
507.40 0.9844
507.50 0.984
507.60 0.9836
507.70 0.9832
507.80 0.9828
507.90 0.9824
508.00 0.982
508.10 0.9816
508.20 0.9812
508.30 0.9808
508.40 0.9804
508.50 0.98
508.60 0.9796
508.70 0.9792
508.80 0.9787
508.90 0.9783
509.00 0.9779
509.10 0.9775
509.20 0.9771
509.30 0.9766
509.40 0.9762
509.50 0.9758
509.60 0.9753
509.70 0.9749
509.80 0.9745
509.90 0.974
510.00 0.9736
510.10 0.9732
510.20 0.9727
510.30 0.9723
510.40 0.9718
510.50 0.9714
510.60 0.9709
510.70 0.9705
510.80 0.97
510.90 0.9696
511.00 0.9691
511.10 0.9687
511.20 0.9682
511.30 0.9678
511.40 0.9673
511.50 0.9668
511.60 0.9664
511.70 0.9659
511.80 0.9655
511.90 0.965
512.00 0.9646
512.10 0.9641
512.20 0.9636
512.30 0.9632
512.40 0.9627
512.50 0.9622
512.60 0.9617
512.70 0.9613
512.80 0.9608
512.90 0.9603
513.00 0.9599
513.10 0.9594
513.20 0.9589
513.30 0.9584
513.40 0.958
513.50 0.9575
513.60 0.957
513.70 0.9565
513.80 0.9561
513.90 0.9556
514.00 0.9551
514.10 0.9546
514.20 0.9542
514.30 0.9537
514.40 0.9532
514.50 0.9527
514.60 0.9522
514.70 0.9517
514.80 0.9513
514.90 0.9508
515.00 0.9503
515.10 0.9498
515.20 0.9493
515.30 0.9489
515.40 0.9484
515.50 0.9479
515.60 0.9474
515.70 0.9469
515.80 0.9464
515.90 0.9459
516.00 0.9455
516.10 0.945
516.20 0.9445
516.30 0.944
516.40 0.9435
516.50 0.943
516.60 0.9425
516.70 0.942
516.80 0.9415
516.90 0.9411
517.00 0.9406
517.10 0.9401
517.20 0.9396
517.30 0.9391
517.40 0.9386
517.50 0.9381
517.60 0.9376
517.70 0.9371
517.80 0.9366
517.90 0.9361
518.00 0.9357
518.10 0.9352
518.20 0.9347
518.30 0.9342
518.40 0.9337
518.50 0.9332
518.60 0.9327
518.70 0.9322
518.80 0.9317
518.90 0.9312
519.00 0.9307
519.10 0.9302
519.20 0.9297
519.30 0.9293
519.40 0.9288
519.50 0.9283
519.60 0.9278
519.70 0.9273
519.80 0.9268
519.90 0.9263
520.00 0.9258
520.10 0.9253
520.20 0.9248
520.30 0.9243
520.40 0.9238
520.50 0.9233
520.60 0.9228
520.70 0.9223
520.80 0.9218
520.90 0.9214
521.00 0.9209
521.10 0.9204
521.20 0.9199
521.30 0.9194
521.40 0.9189
521.50 0.9184
521.60 0.9179
521.70 0.9174
521.80 0.9169
521.90 0.9164
522.00 0.9159
522.10 0.9154
522.20 0.9149
522.30 0.9144
522.40 0.9139
522.50 0.9134
522.60 0.913
522.70 0.9125
522.80 0.912
522.90 0.9115
523.00 0.911
523.10 0.9105
523.20 0.91
523.30 0.9095
523.40 0.909
523.50 0.9085
523.60 0.908
523.70 0.9075
523.80 0.907
523.90 0.9065
524.00 0.9061
524.10 0.9056
524.20 0.9051
524.30 0.9046
524.40 0.9041
524.50 0.9036
524.60 0.9031
524.70 0.9026
524.80 0.9021
524.90 0.9016
525.00 0.9011
525.10 0.9007
525.20 0.9002
525.30 0.8997
525.40 0.8992
525.50 0.8987
525.60 0.8982
525.70 0.8977
525.80 0.8972
525.90 0.8967
526.00 0.8962
526.10 0.8957
526.20 0.8953
526.30 0.8948
526.40 0.8943
526.50 0.8938
526.60 0.8933
526.70 0.8928
526.80 0.8923
526.90 0.8918
527.00 0.8913
527.10 0.8909
527.20 0.8904
527.30 0.8899
527.40 0.8894
527.50 0.8889
527.60 0.8884
527.70 0.8879
527.80 0.8874
527.90 0.887
528.00 0.8865
528.10 0.886
528.20 0.8855
528.30 0.885
528.40 0.8845
528.50 0.884
528.60 0.8835
528.70 0.8831
528.80 0.8826
528.90 0.8821
529.00 0.8816
529.10 0.8811
529.20 0.8806
529.30 0.8802
529.40 0.8797
529.50 0.8792
529.60 0.8787
529.70 0.8782
529.80 0.8777
529.90 0.8773
530.00 0.8768
530.10 0.8763
530.20 0.8758
530.30 0.8753
530.40 0.8748
530.50 0.8744
530.60 0.8739
530.70 0.8734
530.80 0.8729
530.90 0.8724
531.00 0.872
531.10 0.8715
531.20 0.871
531.30 0.8705
531.40 0.87
531.50 0.8696
531.60 0.8691
531.70 0.8686
531.80 0.8681
531.90 0.8676
532.00 0.8672
532.10 0.8667
532.20 0.8662
532.30 0.8657
532.40 0.8653
532.50 0.8648
532.60 0.8643
532.70 0.8638
532.80 0.8634
532.90 0.8629
533.00 0.8624
533.10 0.8619
533.20 0.8614
533.30 0.861
533.40 0.8605
533.50 0.86
533.60 0.8596
533.70 0.8591
533.80 0.8586
533.90 0.8581
534.00 0.8577
534.10 0.8572
534.20 0.8567
534.30 0.8562
534.40 0.8558
534.50 0.8553
534.60 0.8548
534.70 0.8543
534.80 0.8539
534.90 0.8534
535.00 0.8529
535.10 0.8525
535.20 0.852
535.30 0.8515
535.40 0.8511
535.50 0.8506
535.60 0.8501
535.70 0.8496
535.80 0.8492
535.90 0.8487
536.00 0.8482
536.10 0.8478
536.20 0.8473
536.30 0.8468
536.40 0.8464
536.50 0.8459
536.60 0.8454
536.70 0.845
536.80 0.8445
536.90 0.844
537.00 0.8436
537.10 0.8431
537.20 0.8426
537.30 0.8422
537.40 0.8417
537.50 0.8412
537.60 0.8408
537.70 0.8403
537.80 0.8399
537.90 0.8394
538.00 0.8389
538.10 0.8385
538.20 0.838
538.30 0.8375
538.40 0.8371
538.50 0.8366
538.60 0.8362
538.70 0.8357
538.80 0.8352
538.90 0.8348
539.00 0.8343
539.10 0.8339
539.20 0.8334
539.30 0.8329
539.40 0.8325
539.50 0.832
539.60 0.8316
539.70 0.8311
539.80 0.8306
539.90 0.8302
540.00 0.8297
540.10 0.8293
540.20 0.8288
540.30 0.8284
540.40 0.8279
540.50 0.8274
540.60 0.827
540.70 0.8265
540.80 0.8261
540.90 0.8256
541.00 0.8252
541.10 0.8247
541.20 0.8243
541.30 0.8238
541.40 0.8233
541.50 0.8229
541.60 0.8224
541.70 0.822
541.80 0.8215
541.90 0.8211
542.00 0.8206
542.10 0.8202
542.20 0.8197
542.30 0.8193
542.40 0.8188
542.50 0.8184
542.60 0.8179
542.70 0.8175
542.80 0.817
542.90 0.8166
543.00 0.8161
543.10 0.8157
543.20 0.8152
543.30 0.8148
543.40 0.8143
543.50 0.8139
543.60 0.8134
543.70 0.813
543.80 0.8125
543.90 0.8121
544.00 0.8116
544.10 0.8112
544.20 0.8107
544.30 0.8103
544.40 0.8099
544.50 0.8094
544.60 0.809
544.70 0.8085
544.80 0.8081
544.90 0.8076
545.00 0.8072
545.10 0.8067
545.20 0.8063
545.30 0.8059
545.40 0.8054
545.50 0.805
545.60 0.8045
545.70 0.8041
545.80 0.8036
545.90 0.8032
546.00 0.8028
546.10 0.8023
546.20 0.8019
546.30 0.8016
546.40 0.8012
546.50 0.8008
546.60 0.8004
546.70 0.8001
546.80 0.7997
546.90 0.7993
547.00 0.799
547.10 0.7986
547.20 0.7982
547.30 0.7977
547.40 0.7973
547.50 0.7968
547.60 0.7964
547.70 0.796
547.80 0.7955
547.90 0.7951
548.00 0.7946
548.10 0.7942
548.20 0.7938
548.30 0.7933
548.40 0.7929
548.50 0.7925
548.60 0.792
548.70 0.7916
548.80 0.7911
548.90 0.7907
549.00 0.7903
549.10 0.7898
549.20 0.7894
549.30 0.789
549.40 0.7885
549.50 0.7881
549.60 0.7877
549.70 0.7872
549.80 0.7868
549.90 0.7864
550.00 0.7859
550.10 0.7855
550.20 0.7851
550.30 0.7846
550.40 0.7842
550.50 0.7838
550.60 0.7833
550.70 0.7829
550.80 0.7825
550.90 0.782
551.00 0.7816
551.10 0.7812
551.20 0.7808
551.30 0.7803
551.40 0.7799
551.50 0.7795
551.60 0.779
551.70 0.7786
551.80 0.7782
551.90 0.7777
552.00 0.7773
552.10 0.7769
552.20 0.7765
552.30 0.776
552.40 0.7756
552.50 0.7752
552.60 0.7748
552.70 0.7743
552.80 0.7739
552.90 0.7735
553.00 0.7731
553.10 0.7726
553.20 0.7722
553.30 0.7718
553.40 0.7714
553.50 0.7709
553.60 0.7705
553.70 0.7701
553.80 0.7697
553.90 0.7692
554.00 0.7688
554.10 0.7684
554.20 0.768
554.30 0.7676
554.40 0.7671
554.50 0.7667
554.60 0.7663
554.70 0.7659
554.80 0.7655
554.90 0.765
555.00 0.7646
555.10 0.7642
555.20 0.7638
555.30 0.7634
555.40 0.7629
555.50 0.7625
555.60 0.7621
555.70 0.7617
555.80 0.7613
555.90 0.7609
556.00 0.7604
556.10 0.76
556.20 0.7596
556.30 0.7592
556.40 0.7588
556.50 0.7584
556.60 0.7579
556.70 0.7575
556.80 0.7571
556.90 0.7567
557.00 0.7563
557.10 0.7559
557.20 0.7555
557.30 0.755
557.40 0.7546
557.50 0.7542
557.60 0.7538
557.70 0.7534
557.80 0.753
557.90 0.7526
558.00 0.7522
558.10 0.7518
558.20 0.7513
558.30 0.7509
558.40 0.7505
558.50 0.7501
558.60 0.7497
558.70 0.7493
558.80 0.7489
558.90 0.7485
559.00 0.7481
559.10 0.7477
559.20 0.7473
559.30 0.7469
559.40 0.7464
559.50 0.746
559.60 0.7456
559.70 0.7452
559.80 0.7448
559.90 0.7444
560.00 0.744
560.10 0.7436
560.20 0.7432
560.30 0.7428
560.40 0.7424
560.50 0.742
560.60 0.7416
560.70 0.7412
560.80 0.7408
560.90 0.7404
561.00 0.74
561.10 0.7396
561.20 0.7392
561.30 0.7388
561.40 0.7384
561.50 0.738
561.60 0.7376
561.70 0.7372
561.80 0.7368
561.90 0.7364
562.00 0.736
562.10 0.7356
562.20 0.7352
562.30 0.7348
562.40 0.7344
562.50 0.734
562.60 0.7336
562.70 0.7332
562.80 0.7328
562.90 0.7324
563.00 0.732
563.10 0.7316
563.20 0.7312
563.30 0.7308
563.40 0.7304
563.50 0.73
563.60 0.7296
563.70 0.7292
563.80 0.7288
563.90 0.7284
564.00 0.728
564.10 0.7276
564.20 0.7272
564.30 0.7268
564.40 0.7264
564.50 0.726
564.60 0.7256
564.70 0.7253
564.80 0.7249
564.90 0.7245
565.00 0.7241
565.10 0.7237
565.20 0.7233
565.30 0.7229
565.40 0.7225
565.50 0.7221
565.60 0.7217
565.70 0.7213
565.80 0.7209
565.90 0.7206
566.00 0.7202
566.10 0.7198
566.20 0.7194
566.30 0.719
566.40 0.7186
566.50 0.7182
566.60 0.7178
566.70 0.7174
566.80 0.7171
566.90 0.7167
567.00 0.7163
567.10 0.7159
567.20 0.7155
567.30 0.7151
567.40 0.7147
567.50 0.7143
567.60 0.714
567.70 0.7136
567.80 0.7132
567.90 0.7128
568.00 0.7124
568.10 0.712
568.20 0.7117
568.30 0.7113
568.40 0.7109
568.50 0.7105
568.60 0.7101
568.70 0.7097
568.80 0.7094
568.90 0.709
569.00 0.7086
569.10 0.7082
569.20 0.7078
569.30 0.7074
569.40 0.7071
569.50 0.7067
569.60 0.7063
569.70 0.7059
569.80 0.7055
569.90 0.7052
570.00 0.7048
570.10 0.7044
570.20 0.704
570.30 0.7036
570.40 0.7033
570.50 0.7029
570.60 0.7025
570.70 0.7021
570.80 0.7018
570.90 0.7014
571.00 0.701
571.10 0.7006
571.20 0.7002
571.30 0.6999
571.40 0.6995
571.50 0.6991
571.60 0.6987
571.70 0.6984
571.80 0.698
571.90 0.6976
572.00 0.6972
572.10 0.6969
572.20 0.6965
572.30 0.6961
572.40 0.6958
572.50 0.6954
572.60 0.695
572.70 0.6946
572.80 0.6943
572.90 0.6939
573.00 0.6935
573.10 0.6931
573.20 0.6928
573.30 0.6924
573.40 0.692
573.50 0.6917
573.60 0.6913
573.70 0.6909
573.80 0.6905
573.90 0.6902
574.00 0.6898
574.10 0.6894
574.20 0.6891
574.30 0.6887
574.40 0.6883
574.50 0.688
574.60 0.6876
574.70 0.6872
574.80 0.6869
574.90 0.6865
575.00 0.6861
575.10 0.6858
575.20 0.6854
575.30 0.685
575.40 0.6847
575.50 0.6843
575.60 0.6839
575.70 0.6836
575.80 0.6832
575.90 0.6828
576.00 0.6825
576.10 0.6821
576.20 0.6817
576.30 0.6814
576.40 0.681
576.50 0.6806
576.60 0.6803
576.70 0.6799
576.80 0.6796
576.90 0.6792
577.00 0.6788
577.10 0.6785
577.20 0.6781
577.30 0.6777
577.40 0.6774
577.50 0.677
577.60 0.6767
577.70 0.6763
577.80 0.6759
577.90 0.6756
578.00 0.6752
578.10 0.6749
578.20 0.6745
578.30 0.6741
578.40 0.6738
578.50 0.6734
578.60 0.6731
578.70 0.6727
578.80 0.6723
578.90 0.672
579.00 0.6716
579.10 0.6713
579.20 0.6709
579.30 0.6706
579.40 0.6702
579.50 0.6698
579.60 0.6695
579.70 0.6691
579.80 0.6688
579.90 0.6684
580.00 0.6681
580.10 0.6677
580.20 0.6674
580.30 0.667
580.40 0.6666
580.50 0.6663
580.60 0.6659
580.70 0.6656
580.80 0.6652
580.90 0.6649
581.00 0.6645
581.10 0.6642
581.20 0.6638
581.30 0.6635
581.40 0.6631
581.50 0.6628
581.60 0.6624
581.70 0.6621
581.80 0.6617
581.90 0.6614
582.00 0.661
582.10 0.6607
582.20 0.6603
582.30 0.66
582.40 0.6596
582.50 0.6593
582.60 0.6589
582.70 0.6586
582.80 0.6582
582.90 0.6579
583.00 0.6575
583.10 0.6572
583.20 0.6568
583.30 0.6565
583.40 0.6561
583.50 0.6558
583.60 0.6554
583.70 0.6551
583.80 0.6547
583.90 0.6544
584.00 0.654
584.10 0.6537
584.20 0.6533
584.30 0.653
584.40 0.6527
584.50 0.6523
584.60 0.652
584.70 0.6516
584.80 0.6513
584.90 0.6509
585.00 0.6506
585.10 0.6502
585.20 0.6499
585.30 0.6496
585.40 0.6492
585.50 0.6489
585.60 0.6485
585.70 0.6482
585.80 0.6478
585.90 0.6475
586.00 0.6472
586.10 0.6468
586.20 0.6465
586.30 0.6461
586.40 0.6458
586.50 0.6455
586.60 0.6451
586.70 0.6448
586.80 0.6444
586.90 0.6441
587.00 0.6438
587.10 0.6434
587.20 0.6431
587.30 0.6427
587.40 0.6424
587.50 0.6421
587.60 0.6417
587.70 0.6414
587.80 0.641
587.90 0.6407
588.00 0.6404
588.10 0.64
588.20 0.6397
588.30 0.6393
588.40 0.639
588.50 0.6387
588.60 0.6383
588.70 0.638
588.80 0.6377
588.90 0.6373
589.00 0.637
589.10 0.6367
589.20 0.6363
589.30 0.636
589.40 0.6357
589.50 0.6353
589.60 0.635
589.70 0.6347
589.80 0.6343
589.90 0.634
590.00 0.6337
590.10 0.6333
590.20 0.633
590.30 0.6327
590.40 0.6323
590.50 0.632
590.60 0.6317
590.70 0.6313
590.80 0.631
590.90 0.6307
591.00 0.6303
591.10 0.63
591.20 0.6297
591.30 0.6293
591.40 0.629
591.50 0.6287
591.60 0.6284
591.70 0.628
591.80 0.6277
591.90 0.6274
592.00 0.627
592.10 0.6267
592.20 0.6264
592.30 0.6261
592.40 0.6257
592.50 0.6254
592.60 0.6251
592.70 0.6247
592.80 0.6244
592.90 0.6241
593.00 0.6238
593.10 0.6234
593.20 0.6231
593.30 0.6228
593.40 0.6225
593.50 0.6221
593.60 0.6218
593.70 0.6215
593.80 0.6212
593.90 0.6208
594.00 0.6205
594.10 0.6202
594.20 0.6199
594.30 0.6195
594.40 0.6192
594.50 0.6189
594.60 0.6186
594.70 0.6182
594.80 0.6179
594.90 0.6176
595.00 0.6173
595.10 0.6169
595.20 0.6166
595.30 0.6163
595.40 0.616
595.50 0.6157
595.60 0.6153
595.70 0.615
595.80 0.6147
595.90 0.6144
596.00 0.6141
596.10 0.6137
596.20 0.6133
596.30 0.6129
596.40 0.6124
596.50 0.612
596.60 0.6115
596.70 0.611
596.80 0.6106
596.90 0.6101
597.00 0.6097
597.10 0.6092
597.20 0.6089
597.30 0.6085
597.40 0.6082
597.50 0.6079
597.60 0.6076
597.70 0.6072
597.80 0.6069
597.90 0.6066
598.00 0.6063
598.10 0.606
598.20 0.6056
598.30 0.6053
598.40 0.605
598.50 0.6047
598.60 0.6044
598.70 0.604
598.80 0.6037
598.90 0.6034
599.00 0.6031
599.10 0.6028
599.20 0.6024
599.30 0.6021
599.40 0.6018
599.50 0.6015
599.60 0.6012
599.70 0.6009
599.80 0.6005
599.90 0.6002
600.00 0.5999
600.10 0.5996
600.20 0.5993
600.30 0.599
600.40 0.5986
600.50 0.5983
600.60 0.598
600.70 0.5977
600.80 0.5974
600.90 0.5971
601.00 0.5967
601.10 0.5964
601.20 0.5961
601.30 0.5958
601.40 0.5955
601.50 0.5952
601.60 0.5949
601.70 0.5945
601.80 0.5942
601.90 0.5939
602.00 0.5936
602.10 0.5933
602.20 0.593
602.30 0.5927
602.40 0.5924
602.50 0.592
602.60 0.5917
602.70 0.5914
602.80 0.5911
602.90 0.5908
603.00 0.5905
603.10 0.5902
603.20 0.5899
603.30 0.5895
603.40 0.5892
603.50 0.5889
603.60 0.5886
603.70 0.5883
603.80 0.588
603.90 0.5877
604.00 0.5874
604.10 0.5871
604.20 0.5867
604.30 0.5864
604.40 0.5861
604.50 0.5858
604.60 0.5855
604.70 0.5852
604.80 0.5849
604.90 0.5846
605.00 0.5843
605.10 0.584
605.20 0.5837
605.30 0.5833
605.40 0.583
605.50 0.5827
605.60 0.5824
605.70 0.5821
605.80 0.5818
605.90 0.5815
606.00 0.5812
606.10 0.5809
606.20 0.5806
606.30 0.5803
606.40 0.58
606.50 0.5797
606.60 0.5794
606.70 0.579
606.80 0.5787
606.90 0.5784
607.00 0.5781
607.10 0.5778
607.20 0.5775
607.30 0.5772
607.40 0.5769
607.50 0.5766
607.60 0.5763
607.70 0.576
607.80 0.5757
607.90 0.5754
608.00 0.5751
608.10 0.5748
608.20 0.5745
608.30 0.5742
608.40 0.5739
608.50 0.5736
608.60 0.5733
608.70 0.573
608.80 0.5726
608.90 0.5723
609.00 0.572
609.10 0.5717
609.20 0.5714
609.30 0.5711
609.40 0.5708
609.50 0.5705
609.60 0.5702
609.70 0.5699
609.80 0.5696
609.90 0.5693
610.00 0.569
610.10 0.5687
610.20 0.5684
610.30 0.5681
610.40 0.5678
610.50 0.5675
610.60 0.5672
610.70 0.5669
610.80 0.5666
610.90 0.5663
611.00 0.566
611.10 0.5657
611.20 0.5654
611.30 0.5651
611.40 0.5648
611.50 0.5645
611.60 0.5642
611.70 0.5639
611.80 0.5636
611.90 0.5633
612.00 0.563
612.10 0.5627
612.20 0.5624
612.30 0.5621
612.40 0.5618
612.50 0.5615
612.60 0.5612
612.70 0.5609
612.80 0.5606
612.90 0.5603
613.00 0.56
613.10 0.5597
613.20 0.5594
613.30 0.5591
613.40 0.5588
613.50 0.5585
613.60 0.5582
613.70 0.5579
613.80 0.5577
613.90 0.5574
614.00 0.5571
614.10 0.5568
614.20 0.5565
614.30 0.5562
614.40 0.5559
614.50 0.5556
614.60 0.5553
614.70 0.555
614.80 0.5547
614.90 0.5544
615.00 0.5541
615.10 0.5538
615.20 0.5535
615.30 0.5532
615.40 0.5529
615.50 0.5526
615.60 0.5523
615.70 0.552
615.80 0.5517
615.90 0.5514
616.00 0.5511
616.10 0.5508
616.20 0.5505
616.30 0.5502
616.40 0.5499
616.50 0.5497
616.60 0.5494
616.70 0.5491
616.80 0.5488
616.90 0.5485
617.00 0.5482
617.10 0.5479
617.20 0.5476
617.30 0.5473
617.40 0.547
617.50 0.5467
617.60 0.5464
617.70 0.5461
617.80 0.5458
617.90 0.5455
618.00 0.5452
618.10 0.5449
618.20 0.5446
618.30 0.5443
618.40 0.544
618.50 0.5438
618.60 0.5435
618.70 0.5432
618.80 0.5429
618.90 0.5426
619.00 0.5423
619.10 0.542
619.20 0.5417
619.30 0.5414
619.40 0.5411
619.50 0.5408
619.60 0.5405
619.70 0.5402
619.80 0.5399
619.90 0.5396
620.00 0.5393
620.10 0.539
620.20 0.5387
620.30 0.5385
620.40 0.5382
620.50 0.5379
620.60 0.5376
620.70 0.5373
620.80 0.537
620.90 0.5367
621.00 0.5364
621.10 0.5361
621.20 0.5358
621.30 0.5355
621.40 0.5352
621.50 0.5349
621.60 0.5346
621.70 0.5343
621.80 0.534
621.90 0.5337
622.00 0.5334
622.10 0.5332
622.20 0.5329
622.30 0.5326
622.40 0.5323
622.50 0.532
622.60 0.5317
622.70 0.5314
622.80 0.5311
622.90 0.5308
623.00 0.5305
623.10 0.5302
623.20 0.5299
623.30 0.5296
623.40 0.5293
623.50 0.529
623.60 0.5287
623.70 0.5284
623.80 0.5281
623.90 0.5278
624.00 0.5275
624.10 0.5272
624.20 0.527
624.30 0.5267
624.40 0.5264
624.50 0.5261
624.60 0.5258
624.70 0.5255
624.80 0.5252
624.90 0.5249
625.00 0.5246
625.10 0.5243
625.20 0.524
625.30 0.5237
625.40 0.5234
625.50 0.5231
625.60 0.5228
625.70 0.5225
625.80 0.5222
625.90 0.5219
626.00 0.5216
626.10 0.5213
626.20 0.521
626.30 0.5207
626.40 0.5204
626.50 0.5201
626.60 0.5198
626.70 0.5195
626.80 0.5192
626.90 0.5189
627.00 0.5186
627.10 0.5183
627.20 0.518
627.30 0.5177
627.40 0.5174
627.50 0.5171
627.60 0.5168
627.70 0.5165
627.80 0.5162
627.90 0.5159
628.00 0.5156
628.10 0.5153
628.20 0.515
628.30 0.5147
628.40 0.5144
628.50 0.5141
628.60 0.5138
628.70 0.5135
628.80 0.5132
628.90 0.5129
629.00 0.5126
629.10 0.5123
629.20 0.512
629.30 0.5117
629.40 0.5114
629.50 0.5111
629.60 0.5108
629.70 0.5105
629.80 0.5102
629.90 0.5099
630.00 0.5096
630.10 0.5093
630.20 0.509
630.30 0.5086
630.40 0.5083
630.50 0.508
630.60 0.5077
630.70 0.5074
630.80 0.5071
630.90 0.5068
631.00 0.5065
631.10 0.5062
631.20 0.5059
631.30 0.5055
631.40 0.5052
631.50 0.5049
631.60 0.5046
631.70 0.5043
631.80 0.504
631.90 0.5036
632.00 0.5033
632.10 0.503
632.20 0.5027
632.30 0.5024
632.40 0.5021
632.50 0.5017
632.60 0.5014
632.70 0.5011
632.80 0.5008
632.90 0.5005
633.00 0.5001
633.10 0.4998
633.20 0.4995
633.30 0.4992
633.40 0.4988
633.50 0.4985
633.60 0.4982
633.70 0.4979
633.80 0.4975
633.90 0.4972
634.00 0.4969
634.10 0.4965
634.20 0.4962
634.30 0.4959
634.40 0.4956
634.50 0.4952
634.60 0.4949
634.70 0.4945
634.80 0.4942
634.90 0.4939
635.00 0.4935
635.10 0.4932
635.20 0.4928
635.30 0.4925
635.40 0.4922
635.50 0.4918
635.60 0.4915
635.70 0.4911
635.80 0.4908
635.90 0.4904
636.00 0.4901
636.10 0.4897
636.20 0.4894
636.30 0.489
636.40 0.4887
636.50 0.4883
636.60 0.4879
636.70 0.4876
636.80 0.4872
636.90 0.4868
637.00 0.4865
637.10 0.4861
637.20 0.4858
637.30 0.4854
637.40 0.485
637.50 0.4846
637.60 0.4843
637.70 0.4839
637.80 0.4835
637.90 0.4831
638.00 0.4827
638.10 0.4824
638.20 0.482
638.30 0.4816
638.40 0.4812
638.50 0.4808
638.60 0.4804
638.70 0.48
638.80 0.4796
638.90 0.4792
639.00 0.4788
639.10 0.4784
639.20 0.478
639.30 0.4776
639.40 0.4772
639.50 0.4768
639.60 0.4764
639.70 0.4759
639.80 0.4755
639.90 0.4751
640.00 0.4747
640.10 0.4743
640.20 0.4739
640.30 0.4734
640.40 0.473
640.50 0.4725
640.60 0.4721
640.70 0.4716
640.80 0.4712
640.90 0.4707
641.00 0.4703
641.10 0.4698
641.20 0.4694
641.30 0.4689
641.40 0.4685
641.50 0.468
641.60 0.4675
641.70 0.467
641.80 0.4665
641.90 0.4661
642.00 0.4656
642.10 0.4651
642.20 0.4646
642.30 0.4641
642.40 0.4636
642.50 0.4631
642.60 0.4626
642.70 0.4621
642.80 0.4615
642.90 0.461
643.00 0.4605
643.10 0.46
643.20 0.4595
643.30 0.4589
643.40 0.4584
643.50 0.4578
643.60 0.4572
643.70 0.4566
643.80 0.4561
643.90 0.4555
644.00 0.4549
644.10 0.4544
644.20 0.4538
644.30 0.4532
644.40 0.4526
644.50 0.4519
644.60 0.4513
644.70 0.4507
644.80 0.45
644.90 0.4494
645.00 0.4488
645.10 0.4481
645.20 0.4475
645.30 0.4469
645.40 0.4461
645.50 0.4454
645.60 0.4447
645.70 0.444
645.80 0.4433
645.90 0.4426
646.00 0.4419
646.10 0.4412
646.20 0.4405
646.30 0.4397
646.40 0.4389
646.50 0.4381
646.60 0.4373
646.70 0.4365
646.80 0.4357
646.90 0.4349
647.00 0.4341
647.10 0.4333
647.20 0.4325
647.30 0.4317
647.40 0.4308
647.50 0.4298
647.60 0.4289
647.70 0.428
647.80 0.427
647.90 0.4261
648.00 0.4252
648.10 0.4243
648.20 0.4233
648.30 0.4224
648.40 0.4213
648.50 0.4202
648.60 0.4191
648.70 0.418
648.80 0.4169
648.90 0.4158
649.00 0.4147
649.10 0.4136
649.20 0.4125
649.30 0.4114
649.40 0.4101
649.50 0.4089
649.60 0.4076
649.70 0.4063
649.80 0.405
649.90 0.4038
650.00 0.4025
650.10 0.4012
650.20 0.3999
650.30 0.3986
650.40 0.397
650.50 0.3955
650.60 0.3939
650.70 0.3924
650.80 0.3908
650.90 0.3893
651.00 0.3877
651.10 0.3862
651.20 0.3846
651.30 0.383
651.40 0.3812
651.50 0.3793
651.60 0.3774
651.70 0.3756
651.80 0.3737
651.90 0.3719
652.00 0.37
652.10 0.3682
652.20 0.3663
652.30 0.3644
652.40 0.3621
652.50 0.3598
652.60 0.3576
652.70 0.3553
652.80 0.3531
652.90 0.3508
653.00 0.3485
653.10 0.3463
653.20 0.344
653.30 0.3417
653.40 0.3389
653.50 0.3362
653.60 0.3334
653.70 0.3306
653.80 0.3279
653.90 0.3251
654.00 0.3224
654.10 0.3196
654.20 0.3169
654.30 0.3141
654.40 0.311
654.50 0.3079
654.60 0.3049
654.70 0.3018
654.80 0.2987
654.90 0.2953
655.00 0.292
655.10 0.2887
655.20 0.2853
655.30 0.2819
655.40 0.2783
655.50 0.2746
655.60 0.2705
655.70 0.2663
655.80 0.2613
655.90 0.2557
656.00 0.2476
656.10 0.2387
656.20 0.2132
656.30 0.1933
656.40 0.2272
656.50 0.2422
656.60 0.2501
656.70 0.2574
656.80 0.2622
656.90 0.2668
657.00 0.2707
657.10 0.2744
657.20 0.2778
657.30 0.2811
657.40 0.2842
657.50 0.2873
657.60 0.2904
657.70 0.2935
657.80 0.2965
657.90 0.2993
658.00 0.3021
658.10 0.3048
658.20 0.3076
658.30 0.3103
658.40 0.3128
658.50 0.3152
658.60 0.3177
658.70 0.3201
658.80 0.3225
658.90 0.325
659.00 0.3274
659.10 0.3298
659.20 0.3322
659.30 0.3346
659.40 0.3365
659.50 0.3384
659.60 0.3403
659.70 0.3422
659.80 0.3441
659.90 0.346
660.00 0.3478
660.10 0.3497
660.20 0.3516
660.30 0.3534
660.40 0.3549
660.50 0.3564
660.60 0.3578
660.70 0.3593
660.80 0.3608
660.90 0.3622
661.00 0.3637
661.10 0.3652
661.20 0.3666
661.30 0.368
661.40 0.3691
661.50 0.3703
661.60 0.3714
661.70 0.3725
661.80 0.3737
661.90 0.3748
662.00 0.3759
662.10 0.3771
662.20 0.3782
662.30 0.3793
662.40 0.3801
662.50 0.381
662.60 0.3818
662.70 0.3826
662.80 0.3835
662.90 0.3843
663.00 0.3852
663.10 0.386
663.20 0.3868
663.30 0.3876
663.40 0.3883
663.50 0.3889
663.60 0.3896
663.70 0.3902
663.80 0.3909
663.90 0.3915
664.00 0.3922
664.10 0.3928
664.20 0.3934
664.30 0.3941
664.40 0.3945
664.50 0.395
664.60 0.3955
664.70 0.396
664.80 0.3964
664.90 0.3969
665.00 0.3974
665.10 0.3978
665.20 0.3983
665.30 0.3988
665.40 0.3991
665.50 0.3994
665.60 0.3998
665.70 0.4001
665.80 0.4005
665.90 0.4008
666.00 0.4012
666.10 0.4015
666.20 0.4018
666.30 0.4022
666.40 0.4024
666.50 0.4027
666.60 0.4029
666.70 0.4031
666.80 0.4034
666.90 0.4036
667.00 0.4039
667.10 0.4041
667.20 0.4044
667.30 0.4046
667.40 0.4048
667.50 0.4049
667.60 0.4051
667.70 0.4053
667.80 0.4054
667.90 0.4056
668.00 0.4058
668.10 0.4059
668.20 0.4061
668.30 0.4063
668.40 0.4064
668.50 0.4065
668.60 0.4066
668.70 0.4067
668.80 0.4068
668.90 0.4069
669.00 0.407
669.10 0.4071
669.20 0.4072
669.30 0.4073
669.40 0.4073
669.50 0.4074
669.60 0.4074
669.70 0.4075
669.80 0.4075
669.90 0.4076
670.00 0.4076
670.10 0.4077
670.20 0.4077
670.30 0.4078
670.40 0.4078
670.50 0.4078
670.60 0.4078
670.70 0.4078
670.80 0.4078
670.90 0.4078
671.00 0.4078
671.10 0.4079
671.20 0.4079
671.30 0.4079
671.40 0.4078
671.50 0.4078
671.60 0.4078
671.70 0.4078
671.80 0.4078
671.90 0.4077
672.00 0.4077
672.10 0.4077
672.20 0.4077
672.30 0.4076
672.40 0.4076
672.50 0.4075
672.60 0.4075
672.70 0.4074
672.80 0.4074
672.90 0.4074
673.00 0.4073
673.10 0.4073
673.20 0.4072
673.30 0.4072
673.40 0.4071
673.50 0.407
673.60 0.4069
673.70 0.4069
673.80 0.4068
673.90 0.4067
674.00 0.4067
674.10 0.4066
674.20 0.4065
674.30 0.4064
674.40 0.4064
674.50 0.4063
674.60 0.4062
674.70 0.4061
674.80 0.406
674.90 0.4059
675.00 0.4058
675.10 0.4057
675.20 0.4057
675.30 0.4056
675.40 0.4055
675.50 0.4054
675.60 0.4052
675.70 0.4051
675.80 0.405
675.90 0.4049
676.00 0.4048
676.10 0.4047
676.20 0.4046
676.30 0.4045
676.40 0.4044
676.50 0.4043
676.60 0.4042
676.70 0.4041
676.80 0.4039
676.90 0.4038
677.00 0.4037
677.10 0.4036
677.20 0.4035
677.30 0.4034
677.40 0.4032
677.50 0.4031
677.60 0.403
677.70 0.4029
677.80 0.4027
677.90 0.4026
678.00 0.4025
678.10 0.4024
678.20 0.4022
678.30 0.4021
678.40 0.402
678.50 0.4018
678.60 0.4017
678.70 0.4016
678.80 0.4014
678.90 0.4013
679.00 0.4012
679.10 0.401
679.20 0.4009
679.30 0.4008
679.40 0.4006
679.50 0.4005
679.60 0.4003
679.70 0.4002
679.80 0.4001
679.90 0.3999
680.00 0.3998
680.10 0.3996
680.20 0.3995
680.30 0.3994
680.40 0.3992
680.50 0.3991
680.60 0.3989
680.70 0.3988
680.80 0.3986
680.90 0.3985
681.00 0.3983
681.10 0.3982
681.20 0.398
681.30 0.3979
681.40 0.3977
681.50 0.3976
681.60 0.3974
681.70 0.3973
681.80 0.3971
681.90 0.397
682.00 0.3968
682.10 0.3967
682.20 0.3965
682.30 0.3964
682.40 0.3962
682.50 0.3961
682.60 0.3959
682.70 0.3958
682.80 0.3956
682.90 0.3955
683.00 0.3953
683.10 0.3952
683.20 0.395
683.30 0.3948
683.40 0.3947
683.50 0.3945
683.60 0.3944
683.70 0.3942
683.80 0.3941
683.90 0.3939
684.00 0.3937
684.10 0.3936
684.20 0.3934
684.30 0.3933
684.40 0.3931
684.50 0.393
684.60 0.3928
684.70 0.3926
684.80 0.3925
684.90 0.3923
685.00 0.3922
685.10 0.392
685.20 0.3918
685.30 0.3917
685.40 0.3915
685.50 0.3914
685.60 0.3912
685.70 0.391
685.80 0.3909
685.90 0.3907
686.00 0.3905
686.10 0.3904
686.20 0.3902
686.30 0.3901
686.40 0.3899
686.50 0.3897
686.60 0.3896
686.70 0.3894
686.80 0.3893
686.90 0.3891
687.00 0.3889
687.10 0.3888
687.20 0.3886
687.30 0.3884
687.40 0.3883
687.50 0.3881
687.60 0.3879
687.70 0.3878
687.80 0.3876
687.90 0.3875
688.00 0.3873
688.10 0.3871
688.20 0.387
688.30 0.3868
688.40 0.3866
688.50 0.3865
688.60 0.3863
688.70 0.3861
688.80 0.386
688.90 0.3858
689.00 0.3856
689.10 0.3855
689.20 0.3853
689.30 0.3852
689.40 0.385
689.50 0.3848
689.60 0.3846
689.70 0.3845
689.80 0.3843
689.90 0.3841
690.00 0.384
690.10 0.3838
690.20 0.3836
690.30 0.3835
690.40 0.3833
690.50 0.3831
690.60 0.3829
690.70 0.3828
690.80 0.3826
690.90 0.3824
691.00 0.3823
691.10 0.3821
691.20 0.3819
691.30 0.3818
691.40 0.3816
691.50 0.3814
691.60 0.3813
691.70 0.3811
691.80 0.3809
691.90 0.3808
692.00 0.3806
692.10 0.3804
692.20 0.3803
692.30 0.3801
692.40 0.3799
692.50 0.3797
692.60 0.3796
692.70 0.3794
692.80 0.3792
692.90 0.3791
693.00 0.3789
693.10 0.3787
693.20 0.3786
693.30 0.3784
693.40 0.3782
693.50 0.3781
693.60 0.3779
693.70 0.3777
693.80 0.3776
693.90 0.3774
694.00 0.3772
694.10 0.3771
694.20 0.3769
694.30 0.3767
694.40 0.3766
694.50 0.3764
694.60 0.3762
694.70 0.3761
694.80 0.3759
694.90 0.3757
695.00 0.3756
695.10 0.3754
695.20 0.3753
695.30 0.3751
695.40 0.3749
695.50 0.3748
695.60 0.3746
695.70 0.3744
695.80 0.3743
695.90 0.3741
696.00 0.3739
696.10 0.3738
696.20 0.3736
696.30 0.3734
696.40 0.3733
696.50 0.3731
696.60 0.3729
696.70 0.3728
696.80 0.3726
696.90 0.3725
697.00 0.3723
697.10 0.3721
697.20 0.372
697.30 0.3718
697.40 0.3716
697.50 0.3715
697.60 0.3713
697.70 0.3711
697.80 0.371
697.90 0.3708
698.00 0.3707
698.10 0.3705
698.20 0.3703
698.30 0.3702
698.40 0.37
698.50 0.3698
698.60 0.3697
698.70 0.3695
698.80 0.3693
698.90 0.3692
699.00 0.369
699.10 0.3689
699.20 0.3687
699.30 0.3685
699.40 0.3684
699.50 0.3682
699.60 0.368
699.70 0.3679
699.80 0.3677
699.90 0.3676
700.00 0.3674
700.10 0.3673
700.20 0.3671
700.30 0.367
700.40 0.3668
700.50 0.3667
700.60 0.3666
700.70 0.3664
700.80 0.3663
700.90 0.3661
701.00 0.366
701.10 0.3659
701.20 0.3657
701.30 0.3656
701.40 0.3654
701.50 0.3653
701.60 0.3652
701.70 0.365
701.80 0.3649
701.90 0.3648
702.00 0.3646
702.10 0.3645
702.20 0.3643
702.30 0.3642
702.40 0.3641
702.50 0.3639
702.60 0.3638
702.70 0.3636
702.80 0.3635
702.90 0.3634
703.00 0.3632
703.10 0.3631
703.20 0.363
703.30 0.3628
703.40 0.3627
703.50 0.3625
703.60 0.3624
703.70 0.3623
703.80 0.3621
703.90 0.362
704.00 0.3619
704.10 0.3617
704.20 0.3616
704.30 0.3614
704.40 0.3613
704.50 0.3612
704.60 0.361
704.70 0.3609
704.80 0.3608
704.90 0.3606
705.00 0.3605
705.10 0.3603
705.20 0.3602
705.30 0.36
705.40 0.3598
705.50 0.3597
705.60 0.3595
705.70 0.3593
705.80 0.3592
705.90 0.359
706.00 0.3589
706.10 0.3587
706.20 0.3585
706.30 0.3584
706.40 0.3582
706.50 0.358
706.60 0.3579
706.70 0.3577
706.80 0.3576
706.90 0.3574
707.00 0.3572
707.10 0.3571
707.20 0.3569
707.30 0.3568
707.40 0.3566
707.50 0.3564
707.60 0.3563
707.70 0.3561
707.80 0.356
707.90 0.3558
708.00 0.3556
708.10 0.3555
708.20 0.3553
708.30 0.3552
708.40 0.355
708.50 0.3548
708.60 0.3547
708.70 0.3545
708.80 0.3544
708.90 0.3542
709.00 0.354
709.10 0.3539
709.20 0.3537
709.30 0.3536
709.40 0.3534
709.50 0.3532
709.60 0.3531
709.70 0.3529
709.80 0.3528
709.90 0.3526
710.00 0.3524
710.10 0.3523
710.20 0.3521
710.30 0.352
710.40 0.3518
710.50 0.3516
710.60 0.3515
710.70 0.3513
710.80 0.3512
710.90 0.351
711.00 0.3508
711.10 0.3507
711.20 0.3505
711.30 0.3504
711.40 0.3502
711.50 0.3501
711.60 0.3499
711.70 0.3497
711.80 0.3496
711.90 0.3494
712.00 0.3493
712.10 0.3491
712.20 0.349
712.30 0.3488
712.40 0.3486
712.50 0.3485
712.60 0.3483
712.70 0.3482
712.80 0.348
712.90 0.3479
713.00 0.3477
713.10 0.3475
713.20 0.3474
713.30 0.3472
713.40 0.3471
713.50 0.3469
713.60 0.3468
713.70 0.3466
713.80 0.3464
713.90 0.3463
714.00 0.3461
714.10 0.346
714.20 0.3458
714.30 0.3457
714.40 0.3455
714.50 0.3454
714.60 0.3452
714.70 0.345
714.80 0.3449
714.90 0.3447
715.00 0.3446
715.10 0.3444
715.20 0.3443
715.30 0.3441
715.40 0.344
715.50 0.3438
715.60 0.3437
715.70 0.3435
715.80 0.3434
715.90 0.3432
716.00 0.3431
716.10 0.3429
716.20 0.3428
716.30 0.3426
716.40 0.3425
716.50 0.3423
716.60 0.3422
716.70 0.342
716.80 0.3419
716.90 0.3417
717.00 0.3416
717.10 0.3414
717.20 0.3413
717.30 0.3411
717.40 0.341
717.50 0.3409
717.60 0.3407
717.70 0.3406
717.80 0.3404
717.90 0.3403
718.00 0.3401
718.10 0.34
718.20 0.3398
718.30 0.3397
718.40 0.3395
718.50 0.3394
718.60 0.3392
718.70 0.3391
718.80 0.3389
718.90 0.3388
719.00 0.3386
719.10 0.3385
719.20 0.3383
719.30 0.3382
719.40 0.338
719.50 0.3379
719.60 0.3378
719.70 0.3376
719.80 0.3375
719.90 0.3373
720.00 0.3372
720.10 0.337
720.20 0.3369
720.30 0.3367
720.40 0.3366
720.50 0.3364
720.60 0.3363
720.70 0.3361
720.80 0.336
720.90 0.3358
721.00 0.3356
721.10 0.3355
721.20 0.3353
721.30 0.3352
721.40 0.335
721.50 0.3349
721.60 0.3347
721.70 0.3346
721.80 0.3344
721.90 0.3343
722.00 0.3341
722.10 0.334
722.20 0.3338
722.30 0.3337
722.40 0.3335
722.50 0.3334
722.60 0.3332
722.70 0.3331
722.80 0.3329
722.90 0.3328
723.00 0.3326
723.10 0.3325
723.20 0.3323
723.30 0.3322
723.40 0.332
723.50 0.3319
723.60 0.3317
723.70 0.3316
723.80 0.3314
723.90 0.3313
724.00 0.3311
724.10 0.331
724.20 0.3308
724.30 0.3307
724.40 0.3305
724.50 0.3304
724.60 0.3302
724.70 0.3301
724.80 0.3299
724.90 0.3298
725.00 0.3296
725.10 0.3295
725.20 0.3293
725.30 0.3292
725.40 0.329
725.50 0.3289
725.60 0.3287
725.70 0.3286
725.80 0.3284
725.90 0.3283
726.00 0.3282
726.10 0.328
726.20 0.3279
726.30 0.3277
726.40 0.3276
726.50 0.3274
726.60 0.3273
726.70 0.3271
726.80 0.327
726.90 0.3268
727.00 0.3267
727.10 0.3265
727.20 0.3264
727.30 0.3262
727.40 0.3261
727.50 0.3259
727.60 0.3258
727.70 0.3257
727.80 0.3255
727.90 0.3254
728.00 0.3252
728.10 0.3251
728.20 0.3249
728.30 0.3248
728.40 0.3246
728.50 0.3245
728.60 0.3243
728.70 0.3242
728.80 0.324
728.90 0.3239
729.00 0.3238
729.10 0.3236
729.20 0.3235
729.30 0.3233
729.40 0.3232
729.50 0.323
729.60 0.3229
729.70 0.3227
729.80 0.3226
729.90 0.3224
730.00 0.3223
730.10 0.3222
730.20 0.322
730.30 0.3219
730.40 0.3217
730.50 0.3216
730.60 0.3214
730.70 0.3213
730.80 0.3212
730.90 0.321
731.00 0.3209
731.10 0.3207
731.20 0.3206
731.30 0.3204
731.40 0.3203
731.50 0.3201
731.60 0.32
731.70 0.3199
731.80 0.3197
731.90 0.3196
732.00 0.3194
732.10 0.3193
732.20 0.3191
732.30 0.319
732.40 0.3189
732.50 0.3187
732.60 0.3186
732.70 0.3184
732.80 0.3183
732.90 0.3182
733.00 0.318
733.10 0.3179
733.20 0.3177
733.30 0.3176
733.40 0.3174
733.50 0.3173
733.60 0.3172
733.70 0.317
733.80 0.3169
733.90 0.3167
734.00 0.3166
734.10 0.3165
734.20 0.3163
734.30 0.3162
734.40 0.316
734.50 0.3159
734.60 0.3157
734.70 0.3156
734.80 0.3155
734.90 0.3153
735.00 0.3152
735.10 0.315
735.20 0.3149
735.30 0.3148
735.40 0.3146
735.50 0.3145
735.60 0.3143
735.70 0.3142
735.80 0.3141
735.90 0.3139
736.00 0.3138
736.10 0.3136
736.20 0.3135
736.30 0.3134
736.40 0.3132
736.50 0.3131
736.60 0.3129
736.70 0.3128
736.80 0.3127
736.90 0.3125
737.00 0.3124
737.10 0.3122
737.20 0.3121
737.30 0.312
737.40 0.3118
737.50 0.3117
737.60 0.3115
737.70 0.3114
737.80 0.3113
737.90 0.3111
738.00 0.311
738.10 0.3109
738.20 0.3107
738.30 0.3106
738.40 0.3104
738.50 0.3103
738.60 0.3102
738.70 0.31
738.80 0.3099
738.90 0.3097
739.00 0.3096
739.10 0.3095
739.20 0.3093
739.30 0.3092
739.40 0.3091
739.50 0.3089
739.60 0.3088
739.70 0.3086
739.80 0.3085
739.90 0.3084
740.00 0.3082
740.10 0.3081
740.20 0.308
740.30 0.3078
740.40 0.3077
740.50 0.3076
740.60 0.3074
740.70 0.3073
740.80 0.3071
740.90 0.307
741.00 0.3069
741.10 0.3067
741.20 0.3066
741.30 0.3065
741.40 0.3063
741.50 0.3062
741.60 0.3061
741.70 0.3059
741.80 0.3058
741.90 0.3057
742.00 0.3055
742.10 0.3054
742.20 0.3052
742.30 0.3051
742.40 0.305
742.50 0.3048
742.60 0.3047
742.70 0.3046
742.80 0.3044
742.90 0.3043
743.00 0.3042
743.10 0.304
743.20 0.3039
743.30 0.3038
743.40 0.3036
743.50 0.3035
743.60 0.3034
743.70 0.3032
743.80 0.3031
743.90 0.303
744.00 0.3028
744.10 0.3027
744.20 0.3026
744.30 0.3024
744.40 0.3023
744.50 0.3022
744.60 0.302
744.70 0.3019
744.80 0.3018
744.90 0.3016
745.00 0.3015
745.10 0.3014
745.20 0.3012
745.30 0.3011
745.40 0.301
745.50 0.3008
745.60 0.3007
745.70 0.3006
745.80 0.3004
745.90 0.3003
746.00 0.3002
746.10 0.3
746.20 0.2999
746.30 0.2998
746.40 0.2996
746.50 0.2995
746.60 0.2994
746.70 0.2992
746.80 0.2991
746.90 0.299
747.00 0.2988
747.10 0.2987
747.20 0.2986
747.30 0.2984
747.40 0.2983
747.50 0.2982
747.60 0.2981
747.70 0.2979
747.80 0.2978
747.90 0.2977
748.00 0.2975
748.10 0.2974
748.20 0.2973
748.30 0.2971
748.40 0.297
748.50 0.2969
748.60 0.2967
748.70 0.2966
748.80 0.2965
748.90 0.2963
749.00 0.2962
749.10 0.2961
749.20 0.296
749.30 0.2958
749.40 0.2957
749.50 0.2956
749.60 0.2954
749.70 0.2953
749.80 0.2952
749.90 0.295
750.00 0.2949
750.10 0.2948
750.20 0.2947
750.30 0.2945
750.40 0.2944
750.50 0.2943
750.60 0.2941
750.70 0.294
750.80 0.2939
750.90 0.2938
751.00 0.2936
751.10 0.2935
751.20 0.2934
751.30 0.2932
751.40 0.2931
751.50 0.293
751.60 0.2929
751.70 0.2927
751.80 0.2926
751.90 0.2925
752.00 0.2923
752.10 0.2922
752.20 0.2921
752.30 0.292
752.40 0.2918
752.50 0.2917
752.60 0.2916
752.70 0.2915
752.80 0.2913
752.90 0.2912
753.00 0.2911
753.10 0.2909
753.20 0.2908
753.30 0.2907
753.40 0.2906
753.50 0.2904
753.60 0.2903
753.70 0.2902
753.80 0.2901
753.90 0.2899
754.00 0.2898
754.10 0.2897
754.20 0.2895
754.30 0.2894
754.40 0.2893
754.50 0.2892
754.60 0.289
754.70 0.2889
754.80 0.2888
754.90 0.2887
755.00 0.2885
755.10 0.2884
755.20 0.2883
755.30 0.2882
755.40 0.288
755.50 0.2879
755.60 0.2878
755.70 0.2877
755.80 0.2875
755.90 0.2874
756.00 0.2873
756.10 0.2872
756.20 0.287
756.30 0.2869
756.40 0.2868
756.50 0.2867
756.60 0.2865
756.70 0.2864
756.80 0.2863
756.90 0.2862
757.00 0.286
757.10 0.2859
757.20 0.2858
757.30 0.2857
757.40 0.2855
757.50 0.2854
757.60 0.2853
757.70 0.2852
757.80 0.285
757.90 0.2849
758.00 0.2848
758.10 0.2847
758.20 0.2845
758.30 0.2844
758.40 0.2843
758.50 0.2842
758.60 0.284
758.70 0.2839
758.80 0.2838
758.90 0.2837
759.00 0.2835
759.10 0.2834
759.20 0.2833
759.30 0.2832
759.40 0.283
759.50 0.2829
759.60 0.2828
759.70 0.2827
759.80 0.2825
759.90 0.2824
760.00 0.2823
760.10 0.2822
760.20 0.2821
760.30 0.2819
760.40 0.2818
760.50 0.2817
760.60 0.2816
760.70 0.2814
760.80 0.2813
760.90 0.2812
761.00 0.2811
761.10 0.281
761.20 0.2808
761.30 0.2807
761.40 0.2806
761.50 0.2805
761.60 0.2804
761.70 0.2802
761.80 0.2801
761.90 0.28
762.00 0.2799
762.10 0.2797
762.20 0.2796
762.30 0.2795
762.40 0.2794
762.50 0.2793
762.60 0.2791
762.70 0.279
762.80 0.2789
762.90 0.2788
763.00 0.2787
763.10 0.2785
763.20 0.2784
763.30 0.2783
763.40 0.2782
763.50 0.2781
763.60 0.2779
763.70 0.2778
763.80 0.2777
763.90 0.2776
764.00 0.2775
764.10 0.2773
764.20 0.2772
764.30 0.2771
764.40 0.277
764.50 0.2769
764.60 0.2767
764.70 0.2766
764.80 0.2765
764.90 0.2764
765.00 0.2763
765.10 0.2761
765.20 0.276
765.30 0.2759
765.40 0.2758
765.50 0.2757
765.60 0.2755
765.70 0.2754
765.80 0.2753
765.90 0.2752
766.00 0.2751
766.10 0.2749
766.20 0.2748
766.30 0.2747
766.40 0.2746
766.50 0.2745
766.60 0.2744
766.70 0.2742
766.80 0.2741
766.90 0.274
767.00 0.2739
767.10 0.2738
767.20 0.2736
767.30 0.2735
767.40 0.2734
767.50 0.2733
767.60 0.2732
767.70 0.2731
767.80 0.2729
767.90 0.2728
768.00 0.2727
768.10 0.2726
768.20 0.2725
768.30 0.2723
768.40 0.2722
768.50 0.2721
768.60 0.272
768.70 0.2719
768.80 0.2718
768.90 0.2716
769.00 0.2715
769.10 0.2714
769.20 0.2713
769.30 0.2712
769.40 0.2711
769.50 0.2709
769.60 0.2708
769.70 0.2707
769.80 0.2706
769.90 0.2705
770.00 0.2703
770.10 0.2702
770.20 0.2701
770.30 0.27
770.40 0.2699
770.50 0.2698
770.60 0.2697
770.70 0.2695
770.80 0.2694
770.90 0.2693
771.00 0.2692
771.10 0.2691
771.20 0.269
771.30 0.2688
771.40 0.2687
771.50 0.2686
771.60 0.2685
771.70 0.2684
771.80 0.2683
771.90 0.2682
772.00 0.268
772.10 0.2679
772.20 0.2678
772.30 0.2677
772.40 0.2676
772.50 0.2675
772.60 0.2674
772.70 0.2672
772.80 0.2671
772.90 0.267
773.00 0.2669
773.10 0.2668
773.20 0.2667
773.30 0.2666
773.40 0.2664
773.50 0.2663
773.60 0.2662
773.70 0.2661
773.80 0.266
773.90 0.2659
774.00 0.2658
774.10 0.2656
774.20 0.2655
774.30 0.2654
774.40 0.2653
774.50 0.2652
774.60 0.2651
774.70 0.265
774.80 0.2649
774.90 0.2647
775.00 0.2646
775.10 0.2645
775.20 0.2644
775.30 0.2643
775.40 0.2642
775.50 0.2641
775.60 0.2639
775.70 0.2638
775.80 0.2637
775.90 0.2636
776.00 0.2635
776.10 0.2634
776.20 0.2633
776.30 0.2632
776.40 0.263
776.50 0.2629
776.60 0.2628
776.70 0.2627
776.80 0.2626
776.90 0.2625
777.00 0.2624
777.10 0.2623
777.20 0.2621
777.30 0.262
777.40 0.2619
777.50 0.2618
777.60 0.2617
777.70 0.2616
777.80 0.2615
777.90 0.2614
778.00 0.2612
778.10 0.2611
778.20 0.261
778.30 0.2609
778.40 0.2608
778.50 0.2607
778.60 0.2606
778.70 0.2605
778.80 0.2604
778.90 0.2602
779.00 0.2601
779.10 0.26
779.20 0.2599
779.30 0.2598
779.40 0.2597
779.50 0.2596
779.60 0.2595
779.70 0.2594
779.80 0.2592
779.90 0.2591
780.00 0.259
780.10 0.2589
780.20 0.2588
780.30 0.2587
780.40 0.2586
780.50 0.2585
780.60 0.2584
780.70 0.2583
780.80 0.2581
780.90 0.258
781.00 0.2579
781.10 0.2578
781.20 0.2577
781.30 0.2576
781.40 0.2575
781.50 0.2574
781.60 0.2573
781.70 0.2572
781.80 0.2571
781.90 0.2569
782.00 0.2568
782.10 0.2567
782.20 0.2566
782.30 0.2565
782.40 0.2564
782.50 0.2563
782.60 0.2562
782.70 0.2561
782.80 0.256
782.90 0.2559
783.00 0.2557
783.10 0.2556
783.20 0.2555
783.30 0.2554
783.40 0.2553
783.50 0.2552
783.60 0.2551
783.70 0.255
783.80 0.2549
783.90 0.2548
784.00 0.2547
784.10 0.2546
784.20 0.2545
784.30 0.2543
784.40 0.2542
784.50 0.2541
784.60 0.254
784.70 0.2539
784.80 0.2538
784.90 0.2537
785.00 0.2536
785.10 0.2535
785.20 0.2534
785.30 0.2533
785.40 0.2532
785.50 0.2531
785.60 0.2529
785.70 0.2528
785.80 0.2527
785.90 0.2526
786.00 0.2525
786.10 0.2524
786.20 0.2523
786.30 0.2522
786.40 0.2521
786.50 0.252
786.60 0.2519
786.70 0.2518
786.80 0.2517
786.90 0.2516
787.00 0.2515
787.10 0.2513
787.20 0.2512
787.30 0.2511
787.40 0.251
787.50 0.2509
787.60 0.2508
787.70 0.2507
787.80 0.2506
787.90 0.2505
788.00 0.2504
788.10 0.2503
788.20 0.2502
788.30 0.2501
788.40 0.25
788.50 0.2499
788.60 0.2498
788.70 0.2496
788.80 0.2495
788.90 0.2494
789.00 0.2493
789.10 0.2492
789.20 0.2491
789.30 0.249
789.40 0.2489
789.50 0.2488
789.60 0.2487
789.70 0.2486
789.80 0.2485
789.90 0.2484
790.00 0.2483
790.10 0.2482
790.20 0.2481
790.30 0.248
790.40 0.2479
790.50 0.2478
790.60 0.2477
790.70 0.2475
790.80 0.2474
790.90 0.2473
791.00 0.2472
791.10 0.2471
791.20 0.247
791.30 0.2469
791.40 0.2468
791.50 0.2467
791.60 0.2466
791.70 0.2465
791.80 0.2464
791.90 0.2463
792.00 0.2462
792.10 0.2461
792.20 0.246
792.30 0.2459
792.40 0.2458
792.50 0.2457
792.60 0.2456
792.70 0.2455
792.80 0.2454
792.90 0.2453
793.00 0.2452
793.10 0.2451
793.20 0.245
793.30 0.2449
793.40 0.2448
793.50 0.2447
793.60 0.2446
793.70 0.2444
793.80 0.2443
793.90 0.2442
794.00 0.2441
794.10 0.244
794.20 0.2439
794.30 0.2438
794.40 0.2437
794.50 0.2436
794.60 0.2435
794.70 0.2434
794.80 0.2433
794.90 0.2432
795.00 0.2431
795.10 0.243
795.20 0.2429
795.30 0.2428
795.40 0.2427
795.50 0.2426
795.60 0.2425
795.70 0.2424
795.80 0.2423
795.90 0.2422
796.00 0.2421
796.10 0.242
796.20 0.2419
796.30 0.2418
796.40 0.2417
796.50 0.2416
796.60 0.2415
796.70 0.2414
796.80 0.2413
796.90 0.2412
797.00 0.2411
797.10 0.241
797.20 0.2409
797.30 0.2408
797.40 0.2407
797.50 0.2406
797.60 0.2405
797.70 0.2404
797.80 0.2403
797.90 0.2402
798.00 0.2401
798.10 0.24
798.20 0.2399
798.30 0.2398
798.40 0.2397
798.50 0.2396
798.60 0.2395
798.70 0.2394
798.80 0.2393
798.90 0.2392
799.00 0.2391
799.10 0.239
799.20 0.2389
799.30 0.2388
799.40 0.2387
799.50 0.2386
799.60 0.2385
799.70 0.2384
799.80 0.2383
799.90 0.2382
800.00 0.2381
800.10 0.238
800.20 0.2379
800.30 0.2378
800.40 0.2377
800.50 0.2376
800.60 0.2375
800.70 0.2374
800.80 0.2373
800.90 0.2372
801.00 0.2371
801.10 0.237
801.20 0.2369
801.30 0.2368
801.40 0.2367
801.50 0.2366
801.60 0.2365
801.70 0.2364
801.80 0.2363
801.90 0.2362
802.00 0.2361
802.10 0.236
802.20 0.2359
802.30 0.2358
802.40 0.2357
802.50 0.2356
802.60 0.2355
802.70 0.2354
802.80 0.2353
802.90 0.2352
803.00 0.2351
803.10 0.235
803.20 0.2349
803.30 0.2348
803.40 0.2347
803.50 0.2346
803.60 0.2345
803.70 0.2344
803.80 0.2343
803.90 0.2342
804.00 0.2341
804.10 0.2341
804.20 0.234
804.30 0.2339
804.40 0.2338
804.50 0.2337
804.60 0.2336
804.70 0.2335
804.80 0.2334
804.90 0.2333
805.00 0.2332
805.10 0.2331
805.20 0.233
805.30 0.2329
805.40 0.2328
805.50 0.2327
805.60 0.2326
805.70 0.2325
805.80 0.2324
805.90 0.2323
806.00 0.2322
806.10 0.2321
806.20 0.232
806.30 0.2319
806.40 0.2318
806.50 0.2317
806.60 0.2316
806.70 0.2315
806.80 0.2314
806.90 0.2313
807.00 0.2312
807.10 0.2312
807.20 0.2311
807.30 0.231
807.40 0.2309
807.50 0.2308
807.60 0.2307
807.70 0.2306
807.80 0.2305
807.90 0.2304
808.00 0.2303
808.10 0.2302
808.20 0.2301
808.30 0.23
808.40 0.2299
808.50 0.2298
808.60 0.2297
808.70 0.2296
808.80 0.2295
808.90 0.2294
809.00 0.2293
809.10 0.2292
809.20 0.2291
809.30 0.229
809.40 0.229
809.50 0.2289
809.60 0.2288
809.70 0.2287
809.80 0.2286
809.90 0.2285
810.00 0.2284
810.10 0.2283
810.20 0.2282
810.30 0.2281
810.40 0.228
810.50 0.2279
810.60 0.2278
810.70 0.2277
810.80 0.2276
810.90 0.2275
811.00 0.2274
811.10 0.2274
811.20 0.2273
811.30 0.2272
811.40 0.2271
811.50 0.227
811.60 0.2269
811.70 0.2268
811.80 0.2267
811.90 0.2266
812.00 0.2265
812.10 0.2264
812.20 0.2263
812.30 0.2262
812.40 0.2261
812.50 0.226
812.60 0.226
812.70 0.2259
812.80 0.2258
812.90 0.2257
813.00 0.2256
813.10 0.2255
813.20 0.2254
813.30 0.2253
813.40 0.2252
813.50 0.2251
813.60 0.225
813.70 0.2249
813.80 0.2248
813.90 0.2248
814.00 0.2247
814.10 0.2246
814.20 0.2245
814.30 0.2244
814.40 0.2243
814.50 0.2242
814.60 0.2241
814.70 0.224
814.80 0.2239
814.90 0.2238
815.00 0.2237
815.10 0.2236
815.20 0.2236
815.30 0.2235
815.40 0.2234
815.50 0.2233
815.60 0.2232
815.70 0.2231
815.80 0.223
815.90 0.2229
816.00 0.2228
816.10 0.2227
816.20 0.2226
816.30 0.2225
816.40 0.2225
816.50 0.2224
816.60 0.2223
816.70 0.2222
816.80 0.2221
816.90 0.222
817.00 0.2219
817.10 0.2218
817.20 0.2217
817.30 0.2216
817.40 0.2215
817.50 0.2214
817.60 0.2214
817.70 0.2213
817.80 0.2212
817.90 0.2211
818.00 0.221
818.10 0.2209
818.20 0.2208
818.30 0.2207
818.40 0.2206
818.50 0.2205
818.60 0.2204
818.70 0.2204
818.80 0.2203
818.90 0.2202
819.00 0.2201
819.10 0.22
819.20 0.2199
819.30 0.2198
819.40 0.2197
819.50 0.2196
819.60 0.2195
819.70 0.2195
819.80 0.2194
819.90 0.2193
820.00 0.2192
820.10 0.2191
820.20 0.219
820.30 0.2189
820.40 0.2188
820.50 0.2187
820.60 0.2187
820.70 0.2186
820.80 0.2185
820.90 0.2184
821.00 0.2183
821.10 0.2182
821.20 0.2181
821.30 0.218
821.40 0.2179
821.50 0.2179
821.60 0.2178
821.70 0.2177
821.80 0.2176
821.90 0.2175
822.00 0.2174
822.10 0.2173
822.20 0.2172
822.30 0.2171
822.40 0.2171
822.50 0.217
822.60 0.2169
822.70 0.2168
822.80 0.2167
822.90 0.2166
823.00 0.2165
823.10 0.2164
823.20 0.2163
823.30 0.2163
823.40 0.2162
823.50 0.2161
823.60 0.216
823.70 0.2159
823.80 0.2158
823.90 0.2157
824.00 0.2156
824.10 0.2156
824.20 0.2155
824.30 0.2154
824.40 0.2153
824.50 0.2152
824.60 0.2151
824.70 0.215
824.80 0.2149
824.90 0.2149
825.00 0.2148
825.10 0.2147
825.20 0.2146
825.30 0.2145
825.40 0.2144
825.50 0.2143
825.60 0.2142
825.70 0.2142
825.80 0.2141
825.90 0.214
826.00 0.2139
826.10 0.2138
826.20 0.2137
826.30 0.2136
826.40 0.2135
826.50 0.2135
826.60 0.2134
826.70 0.2133
826.80 0.2132
826.90 0.2131
827.00 0.213
827.10 0.2129
827.20 0.2129
827.30 0.2128
827.40 0.2127
827.50 0.2126
827.60 0.2125
827.70 0.2124
827.80 0.2123
827.90 0.2122
828.00 0.2122
828.10 0.2121
828.20 0.212
828.30 0.2119
828.40 0.2118
828.50 0.2117
828.60 0.2116
828.70 0.2116
828.80 0.2115
828.90 0.2114
829.00 0.2113
829.10 0.2112
829.20 0.2111
829.30 0.211
829.40 0.211
829.50 0.2109
829.60 0.2108
829.70 0.2107
829.80 0.2106
829.90 0.2105
830.00 0.2104
830.10 0.2104
830.20 0.2103
830.30 0.2102
830.40 0.2101
830.50 0.21
830.60 0.2099
830.70 0.2099
830.80 0.2098
830.90 0.2097
831.00 0.2096
831.10 0.2095
831.20 0.2094
831.30 0.2093
831.40 0.2093
831.50 0.2092
831.60 0.2091
831.70 0.209
831.80 0.2089
831.90 0.2088
832.00 0.2087
832.10 0.2087
832.20 0.2086
832.30 0.2085
832.40 0.2084
832.50 0.2083
832.60 0.2082
832.70 0.2082
832.80 0.2081
832.90 0.208
833.00 0.2079
833.10 0.2078
833.20 0.2077
833.30 0.2077
833.40 0.2076
833.50 0.2075
833.60 0.2074
833.70 0.2073
833.80 0.2072
833.90 0.2072
834.00 0.2071
834.10 0.207
834.20 0.2069
834.30 0.2068
834.40 0.2067
834.50 0.2067
834.60 0.2066
834.70 0.2065
834.80 0.2064
834.90 0.2063
835.00 0.2062
835.10 0.2062
835.20 0.2061
835.30 0.206
835.40 0.2059
835.50 0.2058
835.60 0.2057
835.70 0.2057
835.80 0.2056
835.90 0.2055
836.00 0.2054
836.10 0.2053
836.20 0.2052
836.30 0.2052
836.40 0.2051
836.50 0.205
836.60 0.2049
836.70 0.2048
836.80 0.2047
836.90 0.2047
837.00 0.2046
837.10 0.2045
837.20 0.2044
837.30 0.2043
837.40 0.2042
837.50 0.2042
837.60 0.2041
837.70 0.204
837.80 0.2039
837.90 0.2038
838.00 0.2038
838.10 0.2037
838.20 0.2036
838.30 0.2035
838.40 0.2034
838.50 0.2033
838.60 0.2033
838.70 0.2032
838.80 0.2031
838.90 0.203
839.00 0.2029
839.10 0.2029
839.20 0.2028
839.30 0.2027
839.40 0.2026
839.50 0.2025
839.60 0.2025
839.70 0.2024
839.80 0.2023
839.90 0.2022
840.00 0.2021
840.10 0.202
840.20 0.202
840.30 0.2019
840.40 0.2018
840.50 0.2017
840.60 0.2016
840.70 0.2016
840.80 0.2015
840.90 0.2014
841.00 0.2013
841.10 0.2012
841.20 0.2012
841.30 0.2011
841.40 0.201
841.50 0.2009
841.60 0.2008
841.70 0.2008
841.80 0.2007
841.90 0.2006
842.00 0.2005
842.10 0.2004
842.20 0.2004
842.30 0.2003
842.40 0.2002
842.50 0.2001
842.60 0.2
842.70 0.2
842.80 0.1999
842.90 0.1998
843.00 0.1997
843.10 0.1996
843.20 0.1996
843.30 0.1995
843.40 0.1994
843.50 0.1993
843.60 0.1992
843.70 0.1992
843.80 0.1991
843.90 0.199
844.00 0.1989
844.10 0.1988
844.20 0.1988
844.30 0.1987
844.40 0.1986
844.50 0.1985
844.60 0.1984
844.70 0.1984
844.80 0.1983
844.90 0.1982
845.00 0.1981
845.10 0.198
845.20 0.198
845.30 0.1979
845.40 0.1978
845.50 0.1977
845.60 0.1976
845.70 0.1976
845.80 0.1975
845.90 0.1974
846.00 0.1973
846.10 0.1972
846.20 0.1972
846.30 0.1971
846.40 0.197
846.50 0.1969
846.60 0.1969
846.70 0.1968
846.80 0.1967
846.90 0.1966
847.00 0.1965
847.10 0.1965
847.20 0.1964
847.30 0.1963
847.40 0.1963
847.50 0.1962
847.60 0.1961
847.70 0.196
847.80 0.196
847.90 0.1959
848.00 0.1958
848.10 0.1958
848.20 0.1957
848.30 0.1956
848.40 0.1955
848.50 0.1955
848.60 0.1954
848.70 0.1953
848.80 0.1953
848.90 0.1952
849.00 0.1951
849.10 0.195
849.20 0.195
849.30 0.1949
849.40 0.1948
849.50 0.1948
849.60 0.1947
849.70 0.1946
849.80 0.1945
849.90 0.1945
850.00 0.1944
850.10 0.1943
850.20 0.1943
850.30 0.1942
850.40 0.1941
850.50 0.194
850.60 0.194
850.70 0.1939
850.80 0.1938
850.90 0.1938
851.00 0.1937
851.10 0.1936
851.20 0.1936
851.30 0.1935
851.40 0.1934
851.50 0.1933
851.60 0.1933
851.70 0.1932
851.80 0.1931
851.90 0.1931
852.00 0.193
852.10 0.1929
852.20 0.1929
852.30 0.1928
852.40 0.1927
852.50 0.1926
852.60 0.1926
852.70 0.1925
852.80 0.1924
852.90 0.1924
853.00 0.1923
853.10 0.1922
853.20 0.1922
853.30 0.1921
853.40 0.192
853.50 0.1919
853.60 0.1919
853.70 0.1918
853.80 0.1917
853.90 0.1917
854.00 0.1916
854.10 0.1915
854.20 0.1915
854.30 0.1914
854.40 0.1913
854.50 0.1912
854.60 0.1912
854.70 0.1911
854.80 0.191
854.90 0.191
855.00 0.1909
855.10 0.1908
855.20 0.1908
855.30 0.1907
855.40 0.1906
855.50 0.1906
855.60 0.1905
855.70 0.1904
855.80 0.1903
855.90 0.1903
856.00 0.1902
856.10 0.1901
856.20 0.1901
856.30 0.19
856.40 0.1899
856.50 0.1899
856.60 0.1898
856.70 0.1897
856.80 0.1897
856.90 0.1896
857.00 0.1895
857.10 0.1895
857.20 0.1894
857.30 0.1893
857.40 0.1893
857.50 0.1892
857.60 0.1891
857.70 0.1891
857.80 0.189
857.90 0.1889
858.00 0.1889
858.10 0.1888
858.20 0.1887
858.30 0.1887
858.40 0.1886
858.50 0.1886
858.60 0.1885
858.70 0.1884
858.80 0.1884
858.90 0.1883
859.00 0.1882
859.10 0.1882
859.20 0.1881
859.30 0.188
859.40 0.188
859.50 0.1879
859.60 0.1878
859.70 0.1878
859.80 0.1877
859.90 0.1876
860.00 0.1876
860.10 0.1875
860.20 0.1875
860.30 0.1874
860.40 0.1873
860.50 0.1873
860.60 0.1872
860.70 0.1871
860.80 0.1871
860.90 0.187
861.00 0.1869
861.10 0.1869
861.20 0.1868
861.30 0.1868
861.40 0.1867
861.50 0.1866
861.60 0.1866
861.70 0.1865
861.80 0.1864
861.90 0.1864
862.00 0.1863
862.10 0.1862
862.20 0.1862
862.30 0.1861
862.40 0.186
862.50 0.186
862.60 0.1859
862.70 0.1858
862.80 0.1858
862.90 0.1857
863.00 0.1856
863.10 0.1856
863.20 0.1855
863.30 0.1854
863.40 0.1854
863.50 0.1853
863.60 0.1853
863.70 0.1852
863.80 0.1851
863.90 0.1851
864.00 0.185
864.10 0.1849
864.20 0.1849
864.30 0.1848
864.40 0.1847
864.50 0.1847
864.60 0.1846
864.70 0.1845
864.80 0.1845
864.90 0.1844
865.00 0.1843
865.10 0.1843
865.20 0.1842
865.30 0.1841
865.40 0.1841
865.50 0.184
865.60 0.1839
865.70 0.1839
865.80 0.1838
865.90 0.1838
866.00 0.1837
866.10 0.1836
866.20 0.1836
866.30 0.1835
866.40 0.1834
866.50 0.1834
866.60 0.1833
866.70 0.1832
866.80 0.1832
866.90 0.1831
867.00 0.183
867.10 0.183
867.20 0.1829
867.30 0.1829
867.40 0.1828
867.50 0.1828
867.60 0.1827
867.70 0.1827
867.80 0.1826
867.90 0.1826
868.00 0.1825
868.10 0.1825
868.20 0.1824
868.30 0.1824
868.40 0.1823
868.50 0.1823
868.60 0.1822
868.70 0.1822
868.80 0.1821
868.90 0.1821
869.00 0.182
869.10 0.182
869.20 0.1819
869.30 0.1819
869.40 0.1818
869.50 0.1818
869.60 0.1817
869.70 0.1817
869.80 0.1816
869.90 0.1816
870.00 0.1815
870.10 0.1815
870.20 0.1814
870.30 0.1814
870.40 0.1813
870.50 0.1813
870.60 0.1812
870.70 0.1812
870.80 0.1811
870.90 0.1811
871.00 0.181
871.10 0.181
871.20 0.1809
871.30 0.1809
871.40 0.1808
871.50 0.1808
871.60 0.1807
871.70 0.1807
871.80 0.1806
871.90 0.1806
872.00 0.1805
872.10 0.1805
872.20 0.1804
872.30 0.1803
872.40 0.1803
872.50 0.1802
872.60 0.1802
872.70 0.1801
872.80 0.18
872.90 0.18
873.00 0.1799
873.10 0.1799
873.20 0.1798
873.30 0.1797
873.40 0.1797
873.50 0.1796
873.60 0.1796
873.70 0.1795
873.80 0.1794
873.90 0.1794
874.00 0.1793
874.10 0.1793
874.20 0.1792
874.30 0.1791
874.40 0.1791
874.50 0.179
874.60 0.179
874.70 0.1789
874.80 0.1788
874.90 0.1788
875.00 0.1787
875.10 0.1787
875.20 0.1786
875.30 0.1785
875.40 0.1785
875.50 0.1784
875.60 0.1784
875.70 0.1783
875.80 0.1782
875.90 0.1782
876.00 0.1781
876.10 0.1781
876.20 0.178
876.30 0.1779
876.40 0.1779
876.50 0.1778
876.60 0.1778
876.70 0.1777
876.80 0.1776
876.90 0.1776
877.00 0.1775
877.10 0.1775
877.20 0.1774
877.30 0.1774
877.40 0.1774
877.50 0.1773
877.60 0.1773
877.70 0.1772
877.80 0.1772
877.90 0.1771
878.00 0.1771
878.10 0.177
878.20 0.177
878.30 0.177
878.40 0.1769
878.50 0.1769
878.60 0.1768
878.70 0.1768
878.80 0.1767
878.90 0.1767
879.00 0.1767
879.10 0.1766
879.20 0.1766
879.30 0.1765
879.40 0.1765
879.50 0.1764
879.60 0.1764
879.70 0.1764
879.80 0.1763
879.90 0.1763
880.00 0.1762
880.10 0.1762
880.20 0.1761
880.30 0.1761
880.40 0.1761
880.50 0.176
880.60 0.176
880.70 0.1759
880.80 0.1759
880.90 0.1758
881.00 0.1758
881.10 0.1757
881.20 0.1757
881.30 0.1757
881.40 0.1756
881.50 0.1756
881.60 0.1755
881.70 0.1755
881.80 0.1754
881.90 0.1754
882.00 0.1754
882.10 0.1752
882.20 0.1751
882.30 0.175
882.40 0.1749
882.50 0.1748
882.60 0.1747
882.70 0.1746
882.80 0.1745
882.90 0.1743
883.00 0.1742
883.10 0.1741
883.20 0.174
883.30 0.1739
883.40 0.1738
883.50 0.1737
883.60 0.1736
883.70 0.1734
883.80 0.1733
883.90 0.1732
884.00 0.1731
884.10 0.173
884.20 0.1729
884.30 0.1728
884.40 0.1726
884.50 0.1725
884.60 0.1724
884.70 0.1723
884.80 0.1722
884.90 0.1721
885.00 0.172
885.10 0.1719
885.20 0.1718
885.30 0.1716
885.40 0.1715
885.50 0.1714
885.60 0.1713
885.70 0.1712
885.80 0.1711
885.90 0.171
886.00 0.1709
886.10 0.1707
886.20 0.1706
886.30 0.1705
886.40 0.1704
886.50 0.1703
886.60 0.1702
886.70 0.1701
886.80 0.17
886.90 0.1699
887.00 0.1697
887.10 0.1698
887.20 0.1698
887.30 0.1698
887.40 0.1698
887.50 0.1698
887.60 0.1698
887.70 0.1698
887.80 0.1698
887.90 0.1698
888.00 0.1698
888.10 0.1698
888.20 0.1699
888.30 0.1699
888.40 0.1699
888.50 0.1699
888.60 0.1699
888.70 0.1699
888.80 0.1699
888.90 0.1699
889.00 0.1699
889.10 0.1699
889.20 0.1699
889.30 0.17
889.40 0.17
889.50 0.17
889.60 0.17
889.70 0.17
889.80 0.17
889.90 0.17
890.00 0.17
890.10 0.17
890.20 0.17
890.30 0.17
890.40 0.1701
890.50 0.1701
890.60 0.1701
890.70 0.1701
890.80 0.1701
890.90 0.1701
891.00 0.1701
891.10 0.1701
891.20 0.1701
891.30 0.1701
891.40 0.1701
891.50 0.1701
891.60 0.1702
891.70 0.1702
891.80 0.1702
891.90 0.1702
892.00 0.1702
892.10 0.1701
892.20 0.1701
892.30 0.17
892.40 0.1699
892.50 0.1699
892.60 0.1698
892.70 0.1698
892.80 0.1697
892.90 0.1696
893.00 0.1696
893.10 0.1695
893.20 0.1695
893.30 0.1694
893.40 0.1693
893.50 0.1693
893.60 0.1692
893.70 0.1692
893.80 0.1691
893.90 0.169
894.00 0.169
894.10 0.1689
894.20 0.1689
894.30 0.1688
894.40 0.1687
894.50 0.1687
894.60 0.1686
894.70 0.1686
894.80 0.1685
894.90 0.1684
895.00 0.1684
895.10 0.1683
895.20 0.1682
895.30 0.1682
895.40 0.1681
895.50 0.1681
895.60 0.168
895.70 0.1679
895.80 0.1679
895.90 0.1678
896.00 0.1678
896.10 0.1677
896.20 0.1676
896.30 0.1676
896.40 0.1675
896.50 0.1675
896.60 0.1674
896.70 0.1673
896.80 0.1673
896.90 0.1672
897.00 0.1672
897.10 0.1669
897.20 0.1667
897.30 0.1665
897.40 0.1663
897.50 0.166
897.60 0.1658
897.70 0.1656
897.80 0.1654
897.90 0.1652
898.00 0.1649
898.10 0.1647
898.20 0.1645
898.30 0.1643
898.40 0.164
898.50 0.1638
898.60 0.1636
898.70 0.1634
898.80 0.1632
898.90 0.1629
899.00 0.1627
899.10 0.1625
899.20 0.1623
899.30 0.162
899.40 0.1618
899.50 0.1616
899.60 0.1614
899.70 0.1612
899.80 0.1609
899.90 0.1607
900.00 0.1605
900.10 0.1603
900.20 0.1601
900.30 0.1598
900.40 0.1596
900.50 0.1594
900.60 0.1592
900.70 0.159
900.80 0.1587
900.90 0.1585
901.00 0.1583
901.10 0.1581
901.20 0.1579
901.30 0.1576
901.40 0.1574
901.50 0.1572
901.60 0.157
901.70 0.1568
901.80 0.1565
901.90 0.1563
902.00 0.1561
902.10 0.1562
902.20 0.1563
902.30 0.1563
902.40 0.1564
902.50 0.1565
902.60 0.1566
902.70 0.1566
902.80 0.1567
902.90 0.1568
903.00 0.1569
903.10 0.157
903.20 0.157
903.30 0.1571
903.40 0.1572
903.50 0.1573
903.60 0.1574
903.70 0.1574
903.80 0.1575
903.90 0.1576
904.00 0.1577
904.10 0.1577
904.20 0.1578
904.30 0.1579
904.40 0.158
904.50 0.1581
904.60 0.1581
904.70 0.1582
904.80 0.1583
904.90 0.1584
905.00 0.1584
905.10 0.1585
905.20 0.1586
905.30 0.1587
905.40 0.1588
905.50 0.1588
905.60 0.1589
905.70 0.159
905.80 0.1591
905.90 0.1591
906.00 0.1592
906.10 0.1593
906.20 0.1594
906.30 0.1595
906.40 0.1595
906.50 0.1596
906.60 0.1597
906.70 0.1598
906.80 0.1598
906.90 0.1599
907.00 0.16
907.10 0.16
907.20 0.16
907.30 0.16
907.40 0.16
907.50 0.16
907.60 0.1599
907.70 0.1599
907.80 0.1599
907.90 0.1599
908.00 0.1599
908.10 0.1599
908.20 0.1599
908.30 0.1599
908.40 0.1599
908.50 0.1599
908.60 0.1599
908.70 0.1599
908.80 0.1599
908.90 0.1598
909.00 0.1598
909.10 0.1598
909.20 0.1598
909.30 0.1598
909.40 0.1598
909.50 0.1598
909.60 0.1598
909.70 0.1598
909.80 0.1598
909.90 0.1598
910.00 0.1598
910.10 0.1598
910.20 0.1597
910.30 0.1597
910.40 0.1597
910.50 0.1597
910.60 0.1597
910.70 0.1597
910.80 0.1597
910.90 0.1597
911.00 0.1597
911.10 0.1597
911.20 0.1597
911.30 0.1597
911.40 0.1597
911.50 0.1596
911.60 0.1596
911.70 0.1596
911.80 0.1596
911.90 0.1596
912.00 0.1596
912.10 0.1595
912.20 0.1594
912.30 0.1592
912.40 0.1591
912.50 0.159
912.60 0.1589
912.70 0.1588
912.80 0.1586
912.90 0.1585
913.00 0.1584
913.10 0.1583
913.20 0.1582
913.30 0.158
913.40 0.1579
913.50 0.1578
913.60 0.1577
913.70 0.1576
913.80 0.1574
913.90 0.1573
914.00 0.1572
914.10 0.1571
914.20 0.157
914.30 0.1568
914.40 0.1567
914.50 0.1566
914.60 0.1565
914.70 0.1564
914.80 0.1562
914.90 0.1561
915.00 0.156
915.10 0.1559
915.20 0.1558
915.30 0.1557
915.40 0.1555
915.50 0.1554
915.60 0.1553
915.70 0.1552
915.80 0.1551
915.90 0.1549
916.00 0.1548
916.10 0.1547
916.20 0.1546
916.30 0.1545
916.40 0.1543
916.50 0.1542
916.60 0.1541
916.70 0.154
916.80 0.1539
916.90 0.1538
917.00 0.1536
917.10 0.1534
917.20 0.1531
917.30 0.1528
917.40 0.1526
917.50 0.1523
917.60 0.152
917.70 0.1518
917.80 0.1515
917.90 0.1512
918.00 0.1509
918.10 0.1507
918.20 0.1504
918.30 0.1501
918.40 0.1499
918.50 0.1496
918.60 0.1493
918.70 0.1491
918.80 0.1488
918.90 0.1485
919.00 0.1483
919.10 0.148
919.20 0.1477
919.30 0.1475
919.40 0.1472
919.50 0.1469
919.60 0.1467
919.70 0.1464
919.80 0.1461
919.90 0.1459
920.00 0.1456
920.10 0.1453
920.20 0.1451
920.30 0.1448
920.40 0.1445
920.50 0.1443
920.60 0.144
920.70 0.1437
920.80 0.1435
920.90 0.1432
921.00 0.1429
921.10 0.1427
921.20 0.1424
921.30 0.1421
921.40 0.1419
921.50 0.1416
921.60 0.1413
921.70 0.1411
921.80 0.1408
921.90 0.1406
922.00 0.1403
922.10 0.1403
922.20 0.1403
922.30 0.1404
922.40 0.1404
922.50 0.1404
922.60 0.1404
922.70 0.1405
922.80 0.1405
922.90 0.1405
923.00 0.1405
923.10 0.1406
923.20 0.1406
923.30 0.1406
923.40 0.1406
923.50 0.1407
923.60 0.1407
923.70 0.1407
923.80 0.1407
923.90 0.1408
924.00 0.1408
924.10 0.1408
924.20 0.1408
924.30 0.1409
924.40 0.1409
924.50 0.1409
924.60 0.1409
924.70 0.1409
924.80 0.141
924.90 0.141
925.00 0.141
925.10 0.141
925.20 0.1411
925.30 0.1411
925.40 0.1411
925.50 0.1411
925.60 0.1412
925.70 0.1412
925.80 0.1412
925.90 0.1412
926.00 0.1413
926.10 0.1413
926.20 0.1413
926.30 0.1413
926.40 0.1414
926.50 0.1414
926.60 0.1414
926.70 0.1414
926.80 0.1415
926.90 0.1415
927.00 0.1415
927.10 0.1416
927.20 0.1417
927.30 0.1419
927.40 0.142
927.50 0.1421
927.60 0.1422
927.70 0.1424
927.80 0.1425
927.90 0.1426
928.00 0.1427
928.10 0.1428
928.20 0.143
928.30 0.1431
928.40 0.1432
928.50 0.1433
928.60 0.1435
928.70 0.1436
928.80 0.1437
928.90 0.1438
929.00 0.1439
929.10 0.1441
929.20 0.1442
929.30 0.1443
929.40 0.1444
929.50 0.1446
929.60 0.1447
929.70 0.1448
929.80 0.1449
929.90 0.145
930.00 0.1452
930.10 0.1453
930.20 0.1454
930.30 0.1455
930.40 0.1456
930.50 0.1458
930.60 0.1459
930.70 0.146
930.80 0.1461
930.90 0.1463
931.00 0.1464
931.10 0.1465
931.20 0.1466
931.30 0.1467
931.40 0.1469
931.50 0.147
931.60 0.1471
931.70 0.1472
931.80 0.1473
931.90 0.1475
932.00 0.1476
932.10 0.1476
932.20 0.1476
932.30 0.1476
932.40 0.1477
932.50 0.1477
932.60 0.1477
932.70 0.1477
932.80 0.1478
932.90 0.1478
933.00 0.1478
933.10 0.1478
933.20 0.1478
933.30 0.1479
933.40 0.1479
933.50 0.1479
933.60 0.1479
933.70 0.1479
933.80 0.148
933.90 0.148
934.00 0.148
934.10 0.148
934.20 0.1481
934.30 0.1481
934.40 0.1481
934.50 0.148
934.60 0.148
934.70 0.148
934.80 0.148
934.90 0.148
935.00 0.148
935.10 0.1479
935.20 0.1479
935.30 0.1479
935.40 0.1479
935.50 0.1479
935.60 0.1479
935.70 0.1478
935.80 0.1478
935.90 0.1478
936.00 0.1478
936.10 0.1478
936.20 0.1478
936.30 0.1477
936.40 0.1477
936.50 0.1477
936.60 0.1477
936.70 0.1477
936.80 0.1477
936.90 0.1476
937.00 0.1476
937.10 0.1476
937.20 0.1476
937.30 0.1475
937.40 0.1475
937.50 0.1474
937.60 0.1474
937.70 0.1474
937.80 0.1473
937.90 0.1473
938.00 0.1472
938.10 0.1472
938.20 0.1472
938.30 0.1471
938.40 0.1471
938.50 0.147
938.60 0.1469
938.70 0.1469
938.80 0.1468
938.90 0.1468
939.00 0.1467
939.10 0.1467
939.20 0.1466
939.30 0.1465
939.40 0.1465
939.50 0.1464
939.60 0.1464
939.70 0.1463
939.80 0.1462
939.90 0.1462
940.00 0.1461
940.10 0.1461
940.20 0.146
940.30 0.146
940.40 0.1459
940.50 0.1458
940.60 0.1457
940.70 0.1456
940.80 0.1455
940.90 0.1455
941.00 0.1454
941.10 0.1453
941.20 0.1452
941.30 0.1451
941.40 0.1451
941.50 0.145
941.60 0.1449
941.70 0.1448
941.80 0.1447
941.90 0.1447
942.00 0.1446
942.10 0.1445
942.20 0.1444
942.30 0.1443
942.40 0.1441
942.50 0.144
942.60 0.1439
942.70 0.1438
942.80 0.1437
942.90 0.1435
943.00 0.1434
943.10 0.1433
943.20 0.1432
943.30 0.143
943.40 0.1429
943.50 0.1428
943.60 0.1427
943.70 0.1426
943.80 0.1424
943.90 0.1423
944.00 0.1422
944.10 0.1421
944.20 0.1419
944.30 0.1418
944.40 0.1417
944.50 0.1415
944.60 0.1413
944.70 0.1412
944.80 0.141
944.90 0.1408
945.00 0.1407
945.10 0.1405
945.20 0.1403
945.30 0.1402
945.40 0.1399
945.50 0.1397
945.60 0.1395
945.70 0.1393
945.80 0.1391
945.90 0.1389
946.00 0.1386
946.10 0.1384
946.20 0.1382
946.30 0.138
946.40 0.1378
946.50 0.1375
946.60 0.1373
946.70 0.1371
946.80 0.1369
946.90 0.1367
947.00 0.1365
947.10 0.1362
947.20 0.1359
947.30 0.1357
947.40 0.1353
947.50 0.135
947.60 0.1347
947.70 0.1344
947.80 0.134
947.90 0.1337
948.00 0.1334
948.10 0.1331
948.20 0.1327
948.30 0.1324
948.40 0.1321
948.50 0.1318
948.60 0.1314
948.70 0.1311
948.80 0.1308
948.90 0.1305
949.00 0.1301
949.10 0.1298
949.20 0.1295
949.30 0.1292
949.40 0.1288
949.50 0.1284
949.60 0.1279
949.70 0.1275
949.80 0.1271
949.90 0.1267
950.00 0.1263
950.10 0.1259
950.20 0.1255
950.30 0.1251
950.40 0.1247
950.50 0.1243
950.60 0.1239
950.70 0.1235
950.80 0.1231
950.90 0.1227
951.00 0.1223
951.10 0.1219
951.20 0.1215
951.30 0.1211
951.40 0.1206
951.50 0.1202
951.60 0.1198
951.70 0.1194
951.80 0.119
951.90 0.1186
952.00 0.1182
952.10 0.1179
952.20 0.1175
952.30 0.1172
952.40 0.1168
952.50 0.1165
952.60 0.1161
952.70 0.1158
952.80 0.1154
952.90 0.1152
953.00 0.1151
953.10 0.1149
953.20 0.1147
953.30 0.1145
953.40 0.1143
953.50 0.1141
953.60 0.1145
953.70 0.1149
953.80 0.1152
953.90 0.1156
954.00 0.1165
954.10 0.1175
954.20 0.119
954.30 0.1181
954.40 0.1156
954.50 0.1144
954.60 0.1134
954.70 0.1125
954.80 0.1121
954.90 0.1118
955.00 0.1115
955.10 0.1112
955.20 0.1112
955.30 0.1112
955.40 0.1113
955.50 0.1113
955.60 0.1113
955.70 0.1113
955.80 0.1113
955.90 0.1116
956.00 0.1118
956.10 0.112
956.20 0.1122
956.30 0.1124
956.40 0.1127
956.50 0.1129
956.60 0.1131
956.70 0.1133
956.80 0.1135
956.90 0.1137
957.00 0.114
957.10 0.1142
957.20 0.1145
957.30 0.1147
957.40 0.115
957.50 0.1152
957.60 0.1155
957.70 0.1157
957.80 0.1159
957.90 0.1162
958.00 0.1164
958.10 0.1167
958.20 0.1169
958.30 0.1172
958.40 0.1174
958.50 0.1176
958.60 0.1179
958.70 0.1181
958.80 0.1184
958.90 0.1186
959.00 0.1188
959.10 0.1191
959.20 0.1193
959.30 0.1196
959.40 0.1198
959.50 0.1199
959.60 0.1201
959.70 0.1203
959.80 0.1205
959.90 0.1207
960.00 0.1209
960.10 0.1211
960.20 0.1212
960.30 0.1214
960.40 0.1216
960.50 0.1218
960.60 0.122
960.70 0.1222
960.80 0.1224
960.90 0.1225
961.00 0.1227
961.10 0.1229
961.20 0.1231
961.30 0.1233
961.40 0.1234
961.50 0.1236
961.60 0.1237
961.70 0.1239
961.80 0.124
961.90 0.1242
962.00 0.1243
962.10 0.1244
962.20 0.1246
962.30 0.1247
962.40 0.1248
962.50 0.1249
962.60 0.125
962.70 0.1252
962.80 0.1253
962.90 0.1254
963.00 0.1255
963.10 0.1256
963.20 0.1258
963.30 0.1259
963.40 0.126
963.50 0.1261
963.60 0.1262
963.70 0.1263
963.80 0.1264
963.90 0.1265
964.00 0.1266
964.10 0.1267
964.20 0.1267
964.30 0.1268
964.40 0.1269
964.50 0.127
964.60 0.127
964.70 0.1271
964.80 0.1272
964.90 0.1272
965.00 0.1273
965.10 0.1274
965.20 0.1275
965.30 0.1275
965.40 0.1276
965.50 0.1277
965.60 0.1277
965.70 0.1278
965.80 0.1279
965.90 0.1279
966.00 0.128
966.10 0.1281
966.20 0.1281
966.30 0.1282
966.40 0.1282
966.50 0.1283
966.60 0.1283
966.70 0.1284
966.80 0.1284
966.90 0.1285
967.00 0.1285
967.10 0.1286
967.20 0.1286
967.30 0.1286
967.40 0.1287
967.50 0.1287
967.60 0.1287
967.70 0.1288
967.80 0.1288
967.90 0.1288
968.00 0.1289
968.10 0.1289
968.20 0.1289
968.30 0.129
968.40 0.129
968.50 0.129
968.60 0.129
968.70 0.129
968.80 0.129
968.90 0.1291
969.00 0.1291
969.10 0.1291
969.20 0.1291
969.30 0.1291
969.40 0.1291
969.50 0.1292
969.60 0.1292
969.70 0.1292
969.80 0.1292
969.90 0.1292
970.00 0.1292
970.10 0.1292
970.20 0.1293
970.30 0.1293
970.40 0.1293
970.50 0.1293
970.60 0.1293
970.70 0.1293
970.80 0.1293
970.90 0.1293
971.00 0.1293
971.10 0.1293
971.20 0.1293
971.30 0.1293
971.40 0.1293
971.50 0.1293
971.60 0.1293
971.70 0.1293
971.80 0.1293
971.90 0.1293
972.00 0.1293
972.10 0.1293
972.20 0.1292
972.30 0.1292
972.40 0.1292
972.50 0.1292
972.60 0.1292
972.70 0.1292
972.80 0.1292
972.90 0.1291
973.00 0.1291
973.10 0.1291
973.20 0.1291
973.30 0.1291
973.40 0.1291
973.50 0.129
973.60 0.129
973.70 0.129
973.80 0.129
973.90 0.129
974.00 0.129
974.10 0.129
974.20 0.1289
974.30 0.1289
974.40 0.1289
974.50 0.1289
974.60 0.1288
974.70 0.1288
974.80 0.1288
974.90 0.1288
975.00 0.1287
975.10 0.1287
975.20 0.1287
975.30 0.1286
975.40 0.1286
975.50 0.1286
975.60 0.1286
975.70 0.1285
975.80 0.1285
975.90 0.1285
976.00 0.1284
976.10 0.1284
976.20 0.1284
976.30 0.1283
976.40 0.1283
976.50 0.1283
976.60 0.1283
976.70 0.1282
976.80 0.1282
976.90 0.1282
977.00 0.1281
977.10 0.1281
977.20 0.128
977.30 0.128
977.40 0.1279
977.50 0.1279
977.60 0.1278
977.70 0.1278
977.80 0.1278
977.90 0.1277
978.00 0.1277
978.10 0.1276
978.20 0.1276
978.30 0.1275
978.40 0.1275
978.50 0.1274
978.60 0.1274
978.70 0.1273
978.80 0.1273
978.90 0.1272
979.00 0.1272
979.10 0.1271
979.20 0.1271
979.30 0.127
979.40 0.127
979.50 0.1269
979.60 0.1269
979.70 0.1268
979.80 0.1268
979.90 0.1267
980.00 0.1267
980.10 0.1266
980.20 0.1266
980.30 0.1265
980.40 0.1265
980.50 0.1264
980.60 0.1264
980.70 0.1263
980.80 0.1263
980.90 0.1262
981.00 0.1262
981.10 0.1261
981.20 0.1261
981.30 0.126
981.40 0.126
981.50 0.1259
981.60 0.1259
981.70 0.1258
981.80 0.1258
981.90 0.1257
982.00 0.1257
982.10 0.1256
982.20 0.1256
982.30 0.1255
982.40 0.1254
982.50 0.1253
982.60 0.1253
982.70 0.1252
982.80 0.1251
982.90 0.1251
983.00 0.125
983.10 0.1249
983.20 0.1249
983.30 0.1248
983.40 0.1247
983.50 0.1246
983.60 0.1246
983.70 0.1245
983.80 0.1244
983.90 0.1244
984.00 0.1243
984.10 0.1242
984.20 0.1242
984.30 0.1241
984.40 0.124
984.50 0.1239
984.60 0.1239
984.70 0.1238
984.80 0.1237
984.90 0.1236
985.00 0.1235
985.10 0.1235
985.20 0.1234
985.30 0.1233
985.40 0.1232
985.50 0.1231
985.60 0.123
985.70 0.1229
985.80 0.1228
985.90 0.1228
986.00 0.1227
986.10 0.1226
986.20 0.1225
986.30 0.1224
986.40 0.1223
986.50 0.1222
986.60 0.1222
986.70 0.1221
986.80 0.122
986.90 0.1219
987.00 0.1218
987.10 0.1217
987.20 0.1216
987.30 0.1215
987.40 0.1214
987.50 0.1213
987.60 0.1212
987.70 0.1211
987.80 0.121
987.90 0.1209
988.00 0.1208
988.10 0.1207
988.20 0.1206
988.30 0.1205
988.40 0.1204
988.50 0.1203
988.60 0.1202
988.70 0.1201
988.80 0.12
988.90 0.1199
989.00 0.1197
989.10 0.1196
989.20 0.1195
989.30 0.1194
989.40 0.1193
989.50 0.1191
989.60 0.119
989.70 0.1189
989.80 0.1188
989.90 0.1187
990.00 0.1186
990.10 0.1184
990.20 0.1183
990.30 0.1182
990.40 0.1181
990.50 0.118
990.60 0.1178
990.70 0.1177
990.80 0.1176
990.90 0.1174
991.00 0.1173
991.10 0.1172
991.20 0.117
991.30 0.1169
991.40 0.1167
991.50 0.1166
991.60 0.1165
991.70 0.1163
991.80 0.1162
991.90 0.1161
992.00 0.1159
992.10 0.1158
992.20 0.1156
992.30 0.1155
992.40 0.1153
992.50 0.1152
992.60 0.115
992.70 0.1149
992.80 0.1147
992.90 0.1145
993.00 0.1143
993.10 0.1142
993.20 0.114
993.30 0.1138
993.40 0.1137
993.50 0.1135
993.60 0.1133
993.70 0.1132
993.80 0.113
993.90 0.1128
994.00 0.1126
994.10 0.1125
994.20 0.1123
994.30 0.1121
994.40 0.112
994.50 0.1118
994.60 0.1116
994.70 0.1114
994.80 0.1112
994.90 0.111
995.00 0.1108
995.10 0.1106
995.20 0.1105
995.30 0.1103
995.40 0.1101
995.50 0.1099
995.60 0.1097
995.70 0.1095
995.80 0.1092
995.90 0.109
996.00 0.1088
996.10 0.1086
996.20 0.1083
996.30 0.1081
996.40 0.1079
996.50 0.1077
996.60 0.1075
996.70 0.1072
996.80 0.107
996.90 0.1068
997.00 0.1066
997.10 0.1063
997.20 0.1061
997.30 0.1059
997.40 0.1056
997.50 0.1054
997.60 0.1051
997.70 0.1049
997.80 0.1046
997.90 0.1043
998.00 0.104
998.10 0.1037
998.20 0.1035
998.30 0.1032
998.40 0.1029
998.50 0.1026
998.60 0.1024
998.70 0.1021
998.80 0.1018
998.90 0.1015
999.00 0.1013
999.10 0.101
999.20 0.1007
999.30 0.1004
999.40 0.1001
999.50 0.09987
999.60 0.0996
999.70 0.09928
999.80 0.09896
999.90 0.09863
1000.00 0.09831
1000.10 0.09799
1000.20 0.09766
1000.30 0.09734
1000.40 0.09701
1000.50 0.09669
1000.60 0.09637
1000.70 0.09604
1000.80 0.09572
1000.90 0.09539
1001.00 0.09507
1001.10 0.09475
1001.20 0.09443
1001.30 0.0941
1001.40 0.09378
1001.50 0.09346
1001.60 0.09313
1001.70 0.0928
1001.80 0.09246
1001.90 0.09212
1002.00 0.09177
1002.10 0.09144
1002.20 0.0911
1002.30 0.09076
1002.40 0.09043
1002.50 0.09009
1002.60 0.08975
1002.70 0.08942
1002.80 0.08908
1002.90 0.08874
1003.00 0.08841
1003.10 0.08807
1003.20 0.08778
1003.30 0.08749
1003.40 0.08721
1003.50 0.08693
1003.60 0.08664
1003.70 0.08636
1003.80 0.08608
1003.90 0.08592
1004.00 0.0858
1004.10 0.08567
1004.20 0.08555
1004.30 0.08578
1004.40 0.08612
1004.50 0.08669
1004.60 0.08774
1004.70 0.0871
1004.80 0.08619
1004.90 0.08578
1005.00 0.08539
1005.10 0.08535
1005.20 0.08542
1005.30 0.0855
1005.40 0.08557
1005.50 0.08576
1005.60 0.08599
1005.70 0.08621
1005.80 0.08644
1005.90 0.08667
1006.00 0.0869
1006.10 0.08713
1006.20 0.08739
1006.30 0.08766
1006.40 0.08794
1006.50 0.08821
1006.60 0.08849
1006.70 0.08876
1006.80 0.08903
1006.90 0.08931
1007.00 0.08958
1007.10 0.08986
1007.20 0.09013
1007.30 0.09041
1007.40 0.09069
1007.50 0.09096
1007.60 0.09124
1007.70 0.0915
1007.80 0.09175
1007.90 0.092
1008.00 0.09226
1008.10 0.09251
1008.20 0.09276
1008.30 0.09302
1008.40 0.09327
1008.50 0.09352
1008.60 0.09377
1008.70 0.09403
1008.80 0.09428
1008.90 0.09453
1009.00 0.09478
1009.10 0.09503
1009.20 0.09529
1009.30 0.09554
1009.40 0.09579
1009.50 0.09604
1009.60 0.09629
1009.70 0.0965
1009.80 0.0967
1009.90 0.0969
1010.00 0.0971
1010.10 0.0973
1010.20 0.0975
1010.30 0.0977
1010.40 0.0979
1010.50 0.09809
1010.60 0.09829
1010.70 0.09849
1010.80 0.09869
1010.90 0.09889
1011.00 0.09908
1011.10 0.09928
1011.20 0.09948
1011.30 0.09968
1011.40 0.09988
1011.50 0.1001
1011.60 0.1003
1011.70 0.1004
1011.80 0.1006
1011.90 0.1008
1012.00 0.1009
1012.10 0.1011
1012.20 0.1012
1012.30 0.1014
1012.40 0.1015
1012.50 0.1016
1012.60 0.1018
1012.70 0.1019
1012.80 0.1021
1012.90 0.1022
1013.00 0.1024
1013.10 0.1025
1013.20 0.1026
1013.30 0.1028
1013.40 0.1029
1013.50 0.1031
1013.60 0.1032
1013.70 0.1033
1013.80 0.1034
1013.90 0.1035
1014.00 0.1037
1014.10 0.1038
1014.20 0.1039
1014.30 0.104
1014.40 0.1041
1014.50 0.1042
1014.60 0.1043
1014.70 0.1044
1014.80 0.1045
1014.90 0.1046
1015.00 0.1047
1015.10 0.1048
1015.20 0.1049
1015.30 0.105
1015.40 0.105
1015.50 0.1051
1015.60 0.1052
1015.70 0.1053
1015.80 0.1054
1015.90 0.1055
1016.00 0.1056
1016.10 0.1056
1016.20 0.1057
1016.30 0.1058
1016.40 0.1059
1016.50 0.106
1016.60 0.1061
1016.70 0.1062
1016.80 0.1062
1016.90 0.1063
1017.00 0.1064
1017.10 0.1064
1017.20 0.1065
1017.30 0.1065
1017.40 0.1066
1017.50 0.1066
1017.60 0.1067
1017.70 0.1068
1017.80 0.1068
1017.90 0.1069
1018.00 0.1069
1018.10 0.107
1018.20 0.107
1018.30 0.1071
1018.40 0.1072
1018.50 0.1072
1018.60 0.1073
1018.70 0.1073
1018.80 0.1073
1018.90 0.1074
1019.00 0.1074
1019.10 0.1075
1019.20 0.1075
1019.30 0.1075
1019.40 0.1076
1019.50 0.1076
1019.60 0.1076
1019.70 0.1077
1019.80 0.1077
1019.90 0.1078
1020.00 0.1078
1020.10 0.1078
1020.20 0.1079
1020.30 0.1079
1020.40 0.1079
1020.50 0.108
1020.60 0.108
1020.70 0.108
1020.80 0.1081
1020.90 0.1081
1021.00 0.1081
1021.10 0.1081
1021.20 0.1082
1021.30 0.1082
1021.40 0.1082
1021.50 0.1082
1021.60 0.1082
1021.70 0.1083
1021.80 0.1083
1021.90 0.1083
1022.00 0.1083
1022.10 0.1083
1022.20 0.1084
1022.30 0.1084
1022.40 0.1084
1022.50 0.1084
1022.60 0.1084
1022.70 0.1084
1022.80 0.1084
1022.90 0.1084
1023.00 0.1084
1023.10 0.1085
1023.20 0.1085
1023.30 0.1085
1023.40 0.1085
1023.50 0.1085
1023.60 0.1085
1023.70 0.1085
1023.80 0.1085
1023.90 0.1085
1024.00 0.1085
1024.10 0.1086
1024.20 0.1086
1024.30 0.1086
1024.40 0.1086
1024.50 0.1086
1024.60 0.1086
1024.70 0.1086
1024.80 0.1086
1024.90 0.1086
1025.00 0.1086
1025.10 0.1086
1025.20 0.1086
1025.30 0.1086
1025.40 0.1086
1025.50 0.1086
1025.60 0.1086
1025.70 0.1086
1025.80 0.1086
1025.90 0.1086
1026.00 0.1086
1026.10 0.1086
1026.20 0.1086
1026.30 0.1086
1026.40 0.1086
1026.50 0.1086
1026.60 0.1086
1026.70 0.1086
1026.80 0.1086
1026.90 0.1086
1027.00 0.1086
1027.10 0.1086
1027.20 0.1085
1027.30 0.1085
1027.40 0.1085
1027.50 0.1085
1027.60 0.1085
1027.70 0.1085
1027.80 0.1085
1027.90 0.1084
1028.00 0.1084
1028.10 0.1084
1028.20 0.1084
1028.30 0.1084
1028.40 0.1084
1028.50 0.1084
1028.60 0.1083
1028.70 0.1083
1028.80 0.1083
1028.90 0.1083
1029.00 0.1083
1029.10 0.1083
1029.20 0.1083
1029.30 0.1083
1029.40 0.1082
1029.50 0.1082
1029.60 0.1082
1029.70 0.1082
1029.80 0.1082
1029.90 0.1082
1030.00 0.1082
1030.10 0.1081
1030.20 0.1081
1030.30 0.1081
1030.40 0.1081
1030.50 0.1081
1030.60 0.1081
1030.70 0.1081
1030.80 0.108
1030.90 0.108
1031.00 0.108
1031.10 0.108
1031.20 0.108
1031.30 0.108
1031.40 0.108
1031.50 0.1079
1031.60 0.1079
1031.70 0.1079
1031.80 0.1079
1031.90 0.1079
1032.00 0.1079
1032.10 0.1079
1032.20 0.1078
1032.30 0.1078
1032.40 0.1078
1032.50 0.1078
1032.60 0.1077
1032.70 0.1077
1032.80 0.1077
1032.90 0.1077
1033.00 0.1076
1033.10 0.1076
1033.20 0.1076
1033.30 0.1076
1033.40 0.1076
1033.50 0.1075
1033.60 0.1075
1033.70 0.1075
1033.80 0.1075
1033.90 0.1074
1034.00 0.1074
1034.10 0.1074
1034.20 0.1074
1034.30 0.1073
1034.40 0.1073
1034.50 0.1073
1034.60 0.1073
1034.70 0.1072
1034.80 0.1072
1034.90 0.1072
1035.00 0.1072
1035.10 0.1072
1035.20 0.1071
1035.30 0.1071
1035.40 0.1071
1035.50 0.1071
1035.60 0.107
1035.70 0.107
1035.80 0.107
1035.90 0.107
1036.00 0.1069
1036.10 0.1069
1036.20 0.1069
1036.30 0.1069
1036.40 0.1069
1036.50 0.1068
1036.60 0.1068
1036.70 0.1068
1036.80 0.1068
1036.90 0.1067
1037.00 0.1067
1037.10 0.1067
1037.20 0.1067
1037.30 0.1066
1037.40 0.1066
1037.50 0.1066
1037.60 0.1065
1037.70 0.1065
1037.80 0.1065
1037.90 0.1065
1038.00 0.1064
1038.10 0.1064
1038.20 0.1064
1038.30 0.1063
1038.40 0.1063
1038.50 0.1063
1038.60 0.1063
1038.70 0.1062
1038.80 0.1062
1038.90 0.1062
1039.00 0.1061
1039.10 0.1061
1039.20 0.1061
1039.30 0.1061
1039.40 0.106
1039.50 0.106
1039.60 0.106
1039.70 0.1059
1039.80 0.1059
1039.90 0.1059
1040.00 0.1059
1040.10 0.1058
1040.20 0.1058
1040.30 0.1058
1040.40 0.1057
1040.50 0.1057
1040.60 0.1057
1040.70 0.1057
1040.80 0.1056
1040.90 0.1056
1041.00 0.1056
1041.10 0.1055
1041.20 0.1055
1041.30 0.1055
1041.40 0.1055
1041.50 0.1054
1041.60 0.1054
1041.70 0.1054
1041.80 0.1053
1041.90 0.1053
1042.00 0.1053
1042.10 0.1053
1042.20 0.1052
1042.30 0.1052
1042.40 0.1052
1042.50 0.1051
1042.60 0.1051
1042.70 0.1051
1042.80 0.105
1042.90 0.105
1043.00 0.105
1043.10 0.1049
1043.20 0.1049
1043.30 0.1049
1043.40 0.1048
1043.50 0.1048
1043.60 0.1048
1043.70 0.1047
1043.80 0.1047
1043.90 0.1047
1044.00 0.1046
1044.10 0.1046
1044.20 0.1046
1044.30 0.1045
1044.40 0.1045
1044.50 0.1045
1044.60 0.1044
1044.70 0.1044
1044.80 0.1044
1044.90 0.1044
1045.00 0.1043
1045.10 0.1043
1045.20 0.1043
1045.30 0.1042
1045.40 0.1042
1045.50 0.1042
1045.60 0.1041
1045.70 0.1041
1045.80 0.1041
1045.90 0.104
1046.00 0.104
1046.10 0.104
1046.20 0.1039
1046.30 0.1039
1046.40 0.1039
1046.50 0.1038
1046.60 0.1038
1046.70 0.1038
1046.80 0.1037
1046.90 0.1037
1047.00 0.1037
1047.10 0.1036
1047.20 0.1036
1047.30 0.1036
1047.40 0.1035
1047.50 0.1035
1047.60 0.1035
1047.70 0.1034
1047.80 0.1034
1047.90 0.1034
1048.00 0.1033
1048.10 0.1033
1048.20 0.1033
1048.30 0.1032
1048.40 0.1032
1048.50 0.1032
1048.60 0.1031
1048.70 0.1031
1048.80 0.1031
1048.90 0.103
1049.00 0.103
1049.10 0.1029
1049.20 0.1029
1049.30 0.1029
1049.40 0.1028
1049.50 0.1028
1049.60 0.1028
1049.70 0.1027
1049.80 0.1027
1049.90 0.1027
1050.00 0.1026
1050.10 0.1026
1050.20 0.1026
1050.30 0.1025
1050.40 0.1025
1050.50 0.1025
1050.60 0.1024
1050.70 0.1024
1050.80 0.1024
1050.90 0.1023
1051.00 0.1023
1051.10 0.1023
1051.20 0.1022
1051.30 0.1022
1051.40 0.1021
1051.50 0.1021
1051.60 0.1021
1051.70 0.102
1051.80 0.102
1051.90 0.102
1052.00 0.1019
1052.10 0.1019
1052.20 0.1019
1052.30 0.1018
1052.40 0.1018
1052.50 0.1018
1052.60 0.1017
1052.70 0.1017
1052.80 0.1016
1052.90 0.1016
1053.00 0.1016
1053.10 0.1015
1053.20 0.1015
1053.30 0.1015
1053.40 0.1014
1053.50 0.1014
1053.60 0.1013
1053.70 0.1013
1053.80 0.1013
1053.90 0.1012
1054.00 0.1012
1054.10 0.1012
1054.20 0.1011
1054.30 0.1011
1054.40 0.1011
1054.50 0.101
1054.60 0.101
1054.70 0.1009
1054.80 0.1009
1054.90 0.1009
1055.00 0.1008
1055.10 0.1008
1055.20 0.1008
1055.30 0.1007
1055.40 0.1007
1055.50 0.1007
1055.60 0.1006
1055.70 0.1006
1055.80 0.1005
1055.90 0.1005
1056.00 0.1005
1056.10 0.1004
1056.20 0.1004
1056.30 0.1004
1056.40 0.1003
1056.50 0.1003
1056.60 0.1002
1056.70 0.1002
1056.80 0.1002
1056.90 0.1001
1057.00 0.1001
1057.10 0.1001
1057.20 0.1
1057.30 0.09998
1057.40 0.09994
1057.50 0.0999
1057.60 0.09986
1057.70 0.09982
1057.80 0.09978
1057.90 0.09974
1058.00 0.09969
1058.10 0.09965
1058.20 0.09961
1058.30 0.09957
1058.40 0.09953
1058.50 0.09949
1058.60 0.09945
1058.70 0.09941
1058.80 0.09937
1058.90 0.09933
1059.00 0.09929
1059.10 0.09925
1059.20 0.09921
1059.30 0.09916
1059.40 0.09912
1059.50 0.09908
1059.60 0.09904
1059.70 0.099
1059.80 0.09896
1059.90 0.09892
1060.00 0.09888
1060.10 0.09884
1060.20 0.0988
1060.30 0.09876
1060.40 0.09872
1060.50 0.09868
1060.60 0.09864
1060.70 0.0986
1060.80 0.09856
1060.90 0.09852
1061.00 0.09848
1061.10 0.09843
1061.20 0.09839
1061.30 0.09835
1061.40 0.09831
1061.50 0.09827
1061.60 0.09823
1061.70 0.09819
1061.80 0.09815
1061.90 0.09811
1062.00 0.09807
1062.10 0.09803
1062.20 0.09798
1062.30 0.09793
1062.40 0.09789
1062.50 0.09784
1062.60 0.0978
1062.70 0.09775
1062.80 0.0977
1062.90 0.09766
1063.00 0.09761
1063.10 0.09757
1063.20 0.09752
1063.30 0.09748
1063.40 0.09743
1063.50 0.09738
1063.60 0.09734
1063.70 0.09729
1063.80 0.09725
1063.90 0.0972
1064.00 0.09715
1064.10 0.09711
1064.20 0.09706
1064.30 0.09702
1064.40 0.09697
1064.50 0.09693
1064.60 0.09688
1064.70 0.09684
1064.80 0.09679
1064.90 0.09674
1065.00 0.0967
1065.10 0.09665
1065.20 0.09661
1065.30 0.09656
1065.40 0.09652
1065.50 0.09647
1065.60 0.09643
1065.70 0.09638
1065.80 0.09634
1065.90 0.09629
1066.00 0.09624
1066.10 0.0962
1066.20 0.09615
1066.30 0.09611
1066.40 0.09606
1066.50 0.09602
1066.60 0.09597
1066.70 0.09593
1066.80 0.09588
1066.90 0.09584
1067.00 0.09579
1067.10 0.09574
1067.20 0.09568
1067.30 0.09563
1067.40 0.09557
1067.50 0.09552
1067.60 0.09547
1067.70 0.09541
1067.80 0.09536
1067.90 0.0953
1068.00 0.09525
1068.10 0.0952
1068.20 0.09514
1068.30 0.09509
1068.40 0.09503
1068.50 0.09498
1068.60 0.09493
1068.70 0.09487
1068.80 0.09482
1068.90 0.09476
1069.00 0.09471
1069.10 0.09466
1069.20 0.0946
1069.30 0.09455
1069.40 0.09449
1069.50 0.09444
1069.60 0.09439
1069.70 0.09433
1069.80 0.09428
1069.90 0.09423
1070.00 0.09417
1070.10 0.09412
1070.20 0.09406
1070.30 0.09401
1070.40 0.09396
1070.50 0.0939
1070.60 0.09385
1070.70 0.0938
1070.80 0.09374
1070.90 0.09369
1071.00 0.09364
1071.10 0.09358
1071.20 0.09353
1071.30 0.09348
1071.40 0.09342
1071.50 0.09337
1071.60 0.09331
1071.70 0.09326
1071.80 0.09321
1071.90 0.09315
1072.00 0.0931
1072.10 0.09304
1072.20 0.09297
1072.30 0.09291
1072.40 0.09284
1072.50 0.09278
1072.60 0.09271
1072.70 0.09265
1072.80 0.09258
1072.90 0.09252
1073.00 0.09245
1073.10 0.09239
1073.20 0.09232
1073.30 0.09226
1073.40 0.0922
1073.50 0.09213
1073.60 0.09205
1073.70 0.09198
1073.80 0.09191
1073.90 0.09183
1074.00 0.09176
1074.10 0.09169
1074.20 0.09161
1074.30 0.09154
1074.40 0.09147
1074.50 0.09139
1074.60 0.09132
1074.70 0.09125
1074.80 0.09117
1074.90 0.0911
1075.00 0.09103
1075.10 0.09095
1075.20 0.09088
1075.30 0.09081
1075.40 0.09073
1075.50 0.09066
1075.60 0.09059
1075.70 0.09051
1075.80 0.09044
1075.90 0.09037
1076.00 0.0903
1076.10 0.09022
1076.20 0.09015
1076.30 0.09008
1076.40 0.09
1076.50 0.08993
1076.60 0.08986
1076.70 0.08979
1076.80 0.08971
1076.90 0.08964
1077.00 0.08957
1077.10 0.08948
1077.20 0.0894
1077.30 0.08932
1077.40 0.08924
1077.50 0.08915
1077.60 0.08906
1077.70 0.08897
1077.80 0.08888
1077.90 0.08878
1078.00 0.08869
1078.10 0.0886
1078.20 0.08851
1078.30 0.08842
1078.40 0.08833
1078.50 0.08823
1078.60 0.08814
1078.70 0.08805
1078.80 0.08796
1078.90 0.08787
1079.00 0.08778
1079.10 0.08769
1079.20 0.08759
1079.30 0.0875
1079.40 0.08741
1079.50 0.08732
1079.60 0.08721
1079.70 0.0871
1079.80 0.08699
1079.90 0.08689
1080.00 0.08678
1080.10 0.08667
1080.20 0.08656
1080.30 0.08646
1080.40 0.08635
1080.50 0.08624
1080.60 0.08613
1080.70 0.08603
1080.80 0.08592
1080.90 0.08581
1081.00 0.08571
1081.10 0.0856
1081.20 0.08549
1081.30 0.08539
1081.40 0.08528
1081.50 0.08517
1081.60 0.08505
1081.70 0.08493
1081.80 0.08481
1081.90 0.08469
1082.00 0.08457
1082.10 0.08444
1082.20 0.08431
1082.30 0.08418
1082.40 0.08405
1082.50 0.08392
1082.60 0.08379
1082.70 0.08366
1082.80 0.08353
1082.90 0.0834
1083.00 0.08327
1083.10 0.08314
1083.20 0.08301
1083.30 0.08288
1083.40 0.08275
1083.50 0.08261
1083.60 0.08246
1083.70 0.08232
1083.80 0.08217
1083.90 0.08202
1084.00 0.08188
1084.10 0.08173
1084.20 0.08158
1084.30 0.08143
1084.40 0.08129
1084.50 0.08113
1084.60 0.08096
1084.70 0.08079
1084.80 0.08062
1084.90 0.08045
1085.00 0.08028
1085.10 0.08011
1085.20 0.07994
1085.30 0.07977
1085.40 0.0796
1085.50 0.07944
1085.60 0.07927
1085.70 0.0791
1085.80 0.07893
1085.90 0.07876
1086.00 0.07859
1086.10 0.07842
1086.20 0.07825
1086.30 0.07808
1086.40 0.07791
1086.50 0.07774
1086.60 0.07754
1086.70 0.07735
1086.80 0.07716
1086.90 0.07696
1087.00 0.07677
1087.10 0.07656
1087.20 0.07635
1087.30 0.07614
1087.40 0.07593
1087.50 0.07572
1087.60 0.0755
1087.70 0.07529
1087.80 0.07508
1087.90 0.07487
1088.00 0.07466
1088.10 0.07445
1088.20 0.07424
1088.30 0.07403
1088.40 0.07382
1088.50 0.0736
1088.60 0.07336
1088.70 0.07312
1088.80 0.07288
1088.90 0.07264
1089.00 0.0724
1089.10 0.07217
1089.20 0.07193
1089.30 0.07169
1089.40 0.07145
1089.50 0.07121
1089.60 0.07097
1089.70 0.07073
1089.80 0.07049
1089.90 0.07025
1090.00 0.07002
1090.10 0.06978
1090.20 0.06954
1090.30 0.0693
1090.40 0.06906
1090.50 0.06882
1090.60 0.06855
1090.70 0.06828
1090.80 0.06802
1090.90 0.06775
1091.00 0.06749
1091.10 0.06722
1091.20 0.06696
1091.30 0.0667
1091.40 0.06643
1091.50 0.06617
1091.60 0.0659
1091.70 0.06564
1091.80 0.06537
1091.90 0.06511
1092.00 0.06484
1092.10 0.06454
1092.20 0.06425
1092.30 0.06395
1092.40 0.06366
1092.50 0.06336
1092.60 0.06307
1092.70 0.06276
1092.80 0.06245
1092.90 0.06213
1093.00 0.06182
1093.10 0.06152
1093.20 0.06128
1093.30 0.06105
1093.40 0.06124
1093.50 0.06147
1093.60 0.06101
1093.70 0.06111
1093.80 0.06132
1093.90 0.06155
1094.00 0.06183
1094.10 0.06211
1094.20 0.06239
1094.30 0.06266
1094.40 0.06291
1094.50 0.06317
1094.60 0.06343
1094.70 0.06368
1094.80 0.06394
1094.90 0.06419
1095.00 0.06444
1095.10 0.06466
1095.20 0.06488
1095.30 0.0651
1095.40 0.06532
1095.50 0.06555
1095.60 0.06577
1095.70 0.06599
1095.80 0.06621
1095.90 0.06643
1096.00 0.06665
1096.10 0.06687
1096.20 0.06709
1096.30 0.06731
1096.40 0.06753
1096.50 0.06775
1096.60 0.06795
1096.70 0.06815
1096.80 0.06835
1096.90 0.06855
1097.00 0.06876
1097.10 0.06894
1097.20 0.06913
1097.30 0.06931
1097.40 0.0695
1097.50 0.06968
1097.60 0.06987
1097.70 0.07006
1097.80 0.07024
1097.90 0.07043
1098.00 0.07061
1098.10 0.0708
1098.20 0.07098
1098.30 0.07117
1098.40 0.07135
1098.50 0.07153
1098.60 0.07168
1098.70 0.07183
1098.80 0.07198
1098.90 0.07213
1099.00 0.07229
1099.10 0.07244
1099.20 0.07259
1099.30 0.07274
1099.40 0.07289
1099.50 0.07304
1099.60 0.07319
1099.70 0.07335
1099.80 0.0735
1099.90 0.07365
1100.00 0.0738
1100.10 0.07395
1100.20 0.0741
1100.30 0.07425
1100.40 0.0744
1100.50 0.07454
1100.60 0.07466
1100.70 0.07478
1100.80 0.0749
1100.90 0.07501
1101.00 0.07513
1101.10 0.07525
1101.20 0.07537
1101.30 0.07548
1101.40 0.0756
1101.50 0.07572
1101.60 0.07584
1101.70 0.07595
1101.80 0.07607
1101.90 0.07619
1102.00 0.07631
1102.10 0.0764
1102.20 0.0765
1102.30 0.0766
1102.40 0.0767
1102.50 0.0768
1102.60 0.07689
1102.70 0.07698
1102.80 0.07706
1102.90 0.07715
1103.00 0.07724
1103.10 0.07733
1103.20 0.07742
1103.30 0.07751
1103.40 0.0776
1103.50 0.07768
1103.60 0.07775
1103.70 0.07782
1103.80 0.07789
1103.90 0.07795
1104.00 0.07802
1104.10 0.07809
1104.20 0.07816
1104.30 0.07823
1104.40 0.0783
1104.50 0.07837
1104.60 0.07843
1104.70 0.0785
1104.80 0.07857
1104.90 0.07864
1105.00 0.07871
1105.10 0.07878
1105.20 0.07885
1105.30 0.07891
1105.40 0.07898
1105.50 0.07904
1105.60 0.07909
1105.70 0.07914
1105.80 0.07919
1105.90 0.07924
1106.00 0.07929
1106.10 0.07934
1106.20 0.07939
1106.30 0.07944
1106.40 0.07949
1106.50 0.07954
1106.60 0.07959
1106.70 0.07964
1106.80 0.07969
1106.90 0.07974
1107.00 0.07979
1107.10 0.07983
1107.20 0.07987
1107.30 0.07991
1107.40 0.07995
1107.50 0.07999
1107.60 0.08002
1107.70 0.08005
1107.80 0.08008
1107.90 0.08011
1108.00 0.08014
1108.10 0.08018
1108.20 0.08021
1108.30 0.08024
1108.40 0.08027
1108.50 0.0803
1108.60 0.08033
1108.70 0.08036
1108.80 0.0804
1108.90 0.08043
1109.00 0.08046
1109.10 0.08049
1109.20 0.08052
1109.30 0.08055
1109.40 0.08058
1109.50 0.08061
1109.60 0.08063
1109.70 0.08065
1109.80 0.08066
1109.90 0.08068
1110.00 0.0807
1110.10 0.08072
1110.20 0.08074
1110.30 0.08075
1110.40 0.08077
1110.50 0.08079
1110.60 0.08081
1110.70 0.08083
1110.80 0.08084
1110.90 0.08086
1111.00 0.08088
1111.10 0.0809
1111.20 0.08091
1111.30 0.08093
1111.40 0.08095
1111.50 0.08097
1111.60 0.08098
1111.70 0.081
1111.80 0.08102
1111.90 0.08104
1112.00 0.08106
1112.10 0.08106
1112.20 0.08107
1112.30 0.08108
1112.40 0.08109
1112.50 0.08109
1112.60 0.0811
1112.70 0.08111
1112.80 0.08112
1112.90 0.08113
1113.00 0.08113
1113.10 0.08114
1113.20 0.08115
1113.30 0.08116
1113.40 0.08116
1113.50 0.08117
1113.60 0.08117
1113.70 0.08117
1113.80 0.08117
1113.90 0.08117
1114.00 0.08117
1114.10 0.08117
1114.20 0.08117
1114.30 0.08117
1114.40 0.08117
1114.50 0.08117
1114.60 0.08117
1114.70 0.08117
1114.80 0.08117
1114.90 0.08117
1115.00 0.08118
1115.10 0.08118
1115.20 0.08118
1115.30 0.08118
1115.40 0.08118
1115.50 0.08118
1115.60 0.08118
1115.70 0.08118
1115.80 0.08118
1115.90 0.08118
1116.00 0.08118
1116.10 0.08118
1116.20 0.08118
1116.30 0.08118
1116.40 0.08118
1116.50 0.08118
1116.60 0.08118
1116.70 0.08118
1116.80 0.08118
1116.90 0.08118
1117.00 0.08118
1117.10 0.08117
1117.20 0.08116
1117.30 0.08115
1117.40 0.08114
1117.50 0.08113
1117.60 0.08112
1117.70 0.08111
1117.80 0.0811
1117.90 0.08109
1118.00 0.08108
1118.10 0.08107
1118.20 0.08107
1118.30 0.08106
1118.40 0.08105
1118.50 0.08104
1118.60 0.08103
1118.70 0.08102
1118.80 0.08101
1118.90 0.081
1119.00 0.08099
1119.10 0.08098
1119.20 0.08097
1119.30 0.08096
1119.40 0.08095
1119.50 0.08094
1119.60 0.08093
1119.70 0.08092
1119.80 0.08091
1119.90 0.0809
1120.00 0.08089
1120.10 0.08088
1120.20 0.08087
1120.30 0.08086
1120.40 0.08085
1120.50 0.08084
1120.60 0.08083
1120.70 0.08082
1120.80 0.08081
1120.90 0.08081
1121.00 0.0808
1121.10 0.08079
1121.20 0.08078
1121.30 0.08077
1121.40 0.08076
1121.50 0.08075
1121.60 0.08074
1121.70 0.08073
1121.80 0.08072
1121.90 0.08071
1122.00 0.0807
1122.10 0.08068
1122.20 0.08067
1122.30 0.08065
1122.40 0.08064
1122.50 0.08062
1122.60 0.08061
1122.70 0.08059
1122.80 0.08057
1122.90 0.08056
1123.00 0.08054
1123.10 0.08053
1123.20 0.08051
1123.30 0.0805
1123.40 0.08048
1123.50 0.08047
1123.60 0.08045
1123.70 0.08043
1123.80 0.08042
1123.90 0.0804
1124.00 0.08039
1124.10 0.08037
1124.20 0.08036
1124.30 0.08034
1124.40 0.08033
1124.50 0.08031
1124.60 0.08029
1124.70 0.08028
1124.80 0.08026
1124.90 0.08025
1125.00 0.08023
1125.10 0.08022
1125.20 0.0802
1125.30 0.08019
1125.40 0.08017
1125.50 0.08016
1125.60 0.08014
1125.70 0.08012
1125.80 0.08011
1125.90 0.08009
1126.00 0.08008
1126.10 0.08006
1126.20 0.08005
1126.30 0.08003
1126.40 0.08002
1126.50 0.08
1126.60 0.07999
1126.70 0.07997
1126.80 0.07995
1126.90 0.07994
1127.00 0.07992
1127.10 0.0799
1127.20 0.07989
1127.30 0.07987
1127.40 0.07985
1127.50 0.07983
1127.60 0.07981
1127.70 0.07979
1127.80 0.07977
1127.90 0.07975
1128.00 0.07973
1128.10 0.07971
1128.20 0.0797
1128.30 0.07968
1128.40 0.07966
1128.50 0.07964
1128.60 0.07962
1128.70 0.0796
1128.80 0.07958
1128.90 0.07956
1129.00 0.07954
1129.10 0.07953
1129.20 0.07951
1129.30 0.07949
1129.40 0.07947
1129.50 0.07945
1129.60 0.07943
1129.70 0.07941
1129.80 0.07939
1129.90 0.07937
1130.00 0.07936
1130.10 0.07934
1130.20 0.07932
1130.30 0.0793
1130.40 0.07928
1130.50 0.07926
1130.60 0.07924
1130.70 0.07922
1130.80 0.07921
1130.90 0.07919
1131.00 0.07917
1131.10 0.07915
1131.20 0.07913
1131.30 0.07911
1131.40 0.07909
1131.50 0.07907
1131.60 0.07905
1131.70 0.07904
1131.80 0.07902
1131.90 0.079
1132.00 0.07898
1132.10 0.07896
1132.20 0.07894
1132.30 0.07892
1132.40 0.0789
1132.50 0.07887
1132.60 0.07885
1132.70 0.07883
1132.80 0.07881
1132.90 0.07879
1133.00 0.07877
1133.10 0.07875
1133.20 0.07873
1133.30 0.07871
1133.40 0.07868
1133.50 0.07866
1133.60 0.07864
1133.70 0.07862
1133.80 0.0786
1133.90 0.07858
1134.00 0.07856
1134.10 0.07854
1134.20 0.07852
1134.30 0.0785
1134.40 0.07847
1134.50 0.07845
1134.60 0.07843
1134.70 0.07841
1134.80 0.07839
1134.90 0.07837
1135.00 0.07835
1135.10 0.07833
1135.20 0.07831
1135.30 0.07829
1135.40 0.07826
1135.50 0.07824
1135.60 0.07822
1135.70 0.0782
1135.80 0.07818
1135.90 0.07816
1136.00 0.07814
1136.10 0.07812
1136.20 0.0781
1136.30 0.07808
1136.40 0.07806
1136.50 0.07803
1136.60 0.07801
1136.70 0.07799
1136.80 0.07797
1136.90 0.07795
1137.00 0.07793
1137.10 0.07791
1137.20 0.07789
1137.30 0.07786
1137.40 0.07784
1137.50 0.07782
1137.60 0.0778
1137.70 0.07778
1137.80 0.07776
1137.90 0.07773
1138.00 0.07771
1138.10 0.07769
1138.20 0.07767
1138.30 0.07765
1138.40 0.07762
1138.50 0.0776
1138.60 0.07758
1138.70 0.07756
1138.80 0.07754
1138.90 0.07752
1139.00 0.07749
1139.10 0.07747
1139.20 0.07745
1139.30 0.07743
1139.40 0.07741
1139.50 0.07738
1139.60 0.07736
1139.70 0.07734
1139.80 0.07732
1139.90 0.0773
1140.00 0.07728
1140.10 0.07725
1140.20 0.07723
1140.30 0.07721
1140.40 0.07719
1140.50 0.07717
1140.60 0.07715
1140.70 0.07712
1140.80 0.0771
1140.90 0.07708
1141.00 0.07706
1141.10 0.07704
1141.20 0.07702
1141.30 0.07699
1141.40 0.07697
1141.50 0.07695
1141.60 0.07693
1141.70 0.07691
1141.80 0.07689
1141.90 0.07686
1142.00 0.07684
1142.10 0.07682
1142.20 0.0768
1142.30 0.07678
1142.40 0.07675
1142.50 0.07673
1142.60 0.07671
1142.70 0.07669
1142.80 0.07667
1142.90 0.07664
1143.00 0.07662
1143.10 0.0766
1143.20 0.07658
1143.30 0.07655
1143.40 0.07653
1143.50 0.07651
1143.60 0.07649
1143.70 0.07647
1143.80 0.07644
1143.90 0.07642
1144.00 0.0764
1144.10 0.07638
1144.20 0.07636
1144.30 0.07633
1144.40 0.07631
1144.50 0.07629
1144.60 0.07627
1144.70 0.07625
1144.80 0.07622
1144.90 0.0762
1145.00 0.07618
1145.10 0.07616
1145.20 0.07614
1145.30 0.07611
1145.40 0.07609
1145.50 0.07607
1145.60 0.07605
1145.70 0.07603
1145.80 0.076
1145.90 0.07598
1146.00 0.07596
1146.10 0.07594
1146.20 0.07592
1146.30 0.07589
1146.40 0.07587
1146.50 0.07585
1146.60 0.07583
1146.70 0.07581
1146.80 0.07578
1146.90 0.07576
1147.00 0.07574
1147.10 0.07572
1147.20 0.0757
1147.30 0.07567
1147.40 0.07565
1147.50 0.07563
1147.60 0.07561
1147.70 0.07558
1147.80 0.07556
1147.90 0.07554
1148.00 0.07552
1148.10 0.07549
1148.20 0.07547
1148.30 0.07545
1148.40 0.07543
1148.50 0.07541
1148.60 0.07538
1148.70 0.07536
1148.80 0.07534
1148.90 0.07532
1149.00 0.07529
1149.10 0.07527
1149.20 0.07525
1149.30 0.07523
1149.40 0.0752
1149.50 0.07518
1149.60 0.07516
1149.70 0.07514
1149.80 0.07512
1149.90 0.07509
1150.00 0.07507
1150.10 0.07505
1150.20 0.07503
1150.30 0.075
1150.40 0.07498
1150.50 0.07496
1150.60 0.07494
1150.70 0.07492
1150.80 0.07489
1150.90 0.07487
1151.00 0.07485
1151.10 0.07483
1151.20 0.0748
1151.30 0.07478
1151.40 0.07476
1151.50 0.07474
1151.60 0.07472
1151.70 0.07469
1151.80 0.07467
1151.90 0.07465
1152.00 0.07463
1152.10 0.07461
1152.20 0.07458
1152.30 0.07456
1152.40 0.07454
1152.50 0.07452
1152.60 0.07449
1152.70 0.07447
1152.80 0.07445
1152.90 0.07443
1153.00 0.0744
1153.10 0.07438
1153.20 0.07436
1153.30 0.07434
1153.40 0.07432
1153.50 0.07429
1153.60 0.07427
1153.70 0.07425
1153.80 0.07423
1153.90 0.0742
1154.00 0.07418
1154.10 0.07416
1154.20 0.07414
1154.30 0.07412
1154.40 0.07409
1154.50 0.07407
1154.60 0.07405
1154.70 0.07403
1154.80 0.074
1154.90 0.07398
1155.00 0.07396
1155.10 0.07394
1155.20 0.07392
1155.30 0.07389
1155.40 0.07387
1155.50 0.07385
1155.60 0.07383
1155.70 0.0738
1155.80 0.07378
1155.90 0.07376
1156.00 0.07374
1156.10 0.07372
1156.20 0.07369
1156.30 0.07367
1156.40 0.07365
1156.50 0.07363
1156.60 0.07361
1156.70 0.07358
1156.80 0.07356
1156.90 0.07354
1157.00 0.07352
1157.10 0.0735
1157.20 0.07347
1157.30 0.07345
1157.40 0.07343
1157.50 0.07341
1157.60 0.07338
1157.70 0.07336
1157.80 0.07334
1157.90 0.07332
1158.00 0.0733
1158.10 0.07327
1158.20 0.07325
1158.30 0.07323
1158.40 0.07321
1158.50 0.07319
1158.60 0.07316
1158.70 0.07314
1158.80 0.07312
1158.90 0.0731
1159.00 0.07308
1159.10 0.07305
1159.20 0.07303
1159.30 0.07301
1159.40 0.07299
1159.50 0.07297
1159.60 0.07294
1159.70 0.07292
1159.80 0.0729
1159.90 0.07288
1160.00 0.07286
1160.10 0.07283
1160.20 0.07281
1160.30 0.07279
1160.40 0.07277
1160.50 0.07275
1160.60 0.07273
1160.70 0.0727
1160.80 0.07268
1160.90 0.07266
1161.00 0.07264
1161.10 0.07262
1161.20 0.07259
1161.30 0.07257
1161.40 0.07255
1161.50 0.07253
1161.60 0.07251
1161.70 0.07248
1161.80 0.07246
1161.90 0.07244
1162.00 0.07242
1162.10 0.0724
1162.20 0.07238
1162.30 0.07235
1162.40 0.07233
1162.50 0.07231
1162.60 0.07229
1162.70 0.07227
1162.80 0.07224
1162.90 0.07222
1163.00 0.0722
1163.10 0.07218
1163.20 0.07216
1163.30 0.07213
1163.40 0.07211
1163.50 0.07209
1163.60 0.07207
1163.70 0.07205
1163.80 0.07203
1163.90 0.072
1164.00 0.07198
1164.10 0.07196
1164.20 0.07194
1164.30 0.07192
1164.40 0.0719
1164.50 0.07187
1164.60 0.07185
1164.70 0.07183
1164.80 0.07181
1164.90 0.07179
1165.00 0.07176
1165.10 0.07174
1165.20 0.07172
1165.30 0.0717
1165.40 0.07168
1165.50 0.07166
1165.60 0.07163
1165.70 0.07161
1165.80 0.07159
1165.90 0.07157
1166.00 0.07155
1166.10 0.07153
1166.20 0.0715
1166.30 0.07148
1166.40 0.07146
1166.50 0.07144
1166.60 0.07142
1166.70 0.0714
1166.80 0.07137
1166.90 0.07135
1167.00 0.07133
1167.10 0.07131
1167.20 0.07129
1167.30 0.07127
1167.40 0.07125
1167.50 0.07122
1167.60 0.0712
1167.70 0.07118
1167.80 0.07116
1167.90 0.07114
1168.00 0.07112
1168.10 0.07109
1168.20 0.07107
1168.30 0.07105
1168.40 0.07103
1168.50 0.07101
1168.60 0.07099
1168.70 0.07096
1168.80 0.07094
1168.90 0.07092
1169.00 0.0709
1169.10 0.07088
1169.20 0.07086
1169.30 0.07084
1169.40 0.07081
1169.50 0.07079
1169.60 0.07077
1169.70 0.07075
1169.80 0.07073
1169.90 0.07071
1170.00 0.07069
1170.10 0.07066
1170.20 0.07064
1170.30 0.07062
1170.40 0.0706
1170.50 0.07058
1170.60 0.07056
1170.70 0.07054
1170.80 0.07051
1170.90 0.07049
1171.00 0.07047
1171.10 0.07045
1171.20 0.07043
1171.30 0.07041
1171.40 0.07039
1171.50 0.07036
1171.60 0.07034
1171.70 0.07032
1171.80 0.0703
1171.90 0.07028
1172.00 0.07026
1172.10 0.07024
1172.20 0.07022
1172.30 0.07019
1172.40 0.07017
1172.50 0.07015
1172.60 0.07013
1172.70 0.07011
1172.80 0.07009
1172.90 0.07007
1173.00 0.07004
1173.10 0.07002
1173.20 0.07
1173.30 0.06998
1173.40 0.06996
1173.50 0.06994
1173.60 0.06992
1173.70 0.0699
1173.80 0.06987
1173.90 0.06985
1174.00 0.06983
1174.10 0.06981
1174.20 0.06979
1174.30 0.06977
1174.40 0.06975
1174.50 0.06973
1174.60 0.0697
1174.70 0.06968
1174.80 0.06966
1174.90 0.06964
1175.00 0.06962
1175.10 0.0696
1175.20 0.06958
1175.30 0.06956
1175.40 0.06954
1175.50 0.06951
1175.60 0.06949
1175.70 0.06947
1175.80 0.06945
1175.90 0.06943
1176.00 0.06941
1176.10 0.06939
1176.20 0.06937
1176.30 0.06935
1176.40 0.06932
1176.50 0.0693
1176.60 0.06928
1176.70 0.06926
1176.80 0.06924
1176.90 0.06922
1177.00 0.0692
1177.10 0.06918
1177.20 0.06916
1177.30 0.06913
1177.40 0.06911
1177.50 0.06909
1177.60 0.06907
1177.70 0.06905
1177.80 0.06903
1177.90 0.06901
1178.00 0.06899
1178.10 0.06897
1178.20 0.06895
1178.30 0.06893
1178.40 0.0689
1178.50 0.06888
1178.60 0.06886
1178.70 0.06884
1178.80 0.06882
1178.90 0.0688
1179.00 0.06878
1179.10 0.06876
1179.20 0.06874
1179.30 0.06872
1179.40 0.0687
1179.50 0.06867
1179.60 0.06865
1179.70 0.06863
1179.80 0.06861
1179.90 0.06859
1180.00 0.06857
1180.10 0.06855
1180.20 0.06853
1180.30 0.06851
1180.40 0.06849
1180.50 0.06847
1180.60 0.06845
1180.70 0.06842
1180.80 0.0684
1180.90 0.06838
1181.00 0.06836
1181.10 0.06834
1181.20 0.06832
1181.30 0.0683
1181.40 0.06828
1181.50 0.06826
1181.60 0.06824
1181.70 0.06822
1181.80 0.0682
1181.90 0.06818
1182.00 0.06816
1182.10 0.06813
1182.20 0.06811
1182.30 0.06809
1182.40 0.06807
1182.50 0.06805
1182.60 0.06803
1182.70 0.06801
1182.80 0.06799
1182.90 0.06797
1183.00 0.06795
1183.10 0.06793
1183.20 0.06791
1183.30 0.06789
1183.40 0.06787
1183.50 0.06784
1183.60 0.06782
1183.70 0.0678
1183.80 0.06778
1183.90 0.06776
1184.00 0.06774
1184.10 0.06772
1184.20 0.0677
1184.30 0.06768
1184.40 0.06766
1184.50 0.06764
1184.60 0.06762
1184.70 0.0676
1184.80 0.06758
1184.90 0.06756
1185.00 0.06754
1185.10 0.06751
1185.20 0.06749
1185.30 0.06747
1185.40 0.06745
1185.50 0.06743
1185.60 0.06741
1185.70 0.06739
1185.80 0.06737
1185.90 0.06735
1186.00 0.06733
1186.10 0.06731
1186.20 0.06729
1186.30 0.06727
1186.40 0.06725
1186.50 0.06723
1186.60 0.06721
1186.70 0.06719
1186.80 0.06717
1186.90 0.06715
1187.00 0.06713
1187.10 0.0671
1187.20 0.06708
1187.30 0.06706
1187.40 0.06704
1187.50 0.06702
1187.60 0.067
1187.70 0.06698
1187.80 0.06696
1187.90 0.06694
1188.00 0.06692
1188.10 0.0669
1188.20 0.06688
1188.30 0.06686
1188.40 0.06684
1188.50 0.06682
1188.60 0.0668
1188.70 0.06678
1188.80 0.06676
1188.90 0.06674
1189.00 0.06672
1189.10 0.0667
1189.20 0.06668
1189.30 0.06666
1189.40 0.06664
1189.50 0.06662
1189.60 0.0666
1189.70 0.06658
1189.80 0.06656
1189.90 0.06654
1190.00 0.06652
1190.10 0.0665
1190.20 0.06648
1190.30 0.06646
1190.40 0.06644
1190.50 0.06641
1190.60 0.06639
1190.70 0.06637
1190.80 0.06635
1190.90 0.06633
1191.00 0.06631
1191.10 0.06629
1191.20 0.06627
1191.30 0.06625
1191.40 0.06623
1191.50 0.06621
1191.60 0.06619
1191.70 0.06617
1191.80 0.06615
1191.90 0.06613
1192.00 0.06611
1192.10 0.06609
1192.20 0.06607
1192.30 0.06605
1192.40 0.06603
1192.50 0.06601
1192.60 0.06599
1192.70 0.06597
1192.80 0.06595
1192.90 0.06593
1193.00 0.06591
1193.10 0.06589
1193.20 0.06587
1193.30 0.06585
1193.40 0.06583
1193.50 0.06581
1193.60 0.06579
1193.70 0.06577
1193.80 0.06575
1193.90 0.06573
1194.00 0.06571
1194.10 0.06569
1194.20 0.06567
1194.30 0.06565
1194.40 0.06563
1194.50 0.06561
1194.60 0.06559
1194.70 0.06557
1194.80 0.06555
1194.90 0.06553
1195.00 0.06551
1195.10 0.06549
1195.20 0.06547
1195.30 0.06545
1195.40 0.06543
1195.50 0.06541
1195.60 0.06539
1195.70 0.06537
1195.80 0.06535
1195.90 0.06533
1196.00 0.06531
1196.10 0.06529
1196.20 0.06527
1196.30 0.06525
1196.40 0.06523
1196.50 0.06521
1196.60 0.06519
1196.70 0.06517
1196.80 0.06515
1196.90 0.06513
1197.00 0.06511
1197.10 0.06509
1197.20 0.06507
1197.30 0.06505
1197.40 0.06503
1197.50 0.06501
1197.60 0.06499
1197.70 0.06497
1197.80 0.06495
1197.90 0.06493
1198.00 0.06491
1198.10 0.06489
1198.20 0.06487
1198.30 0.06485
1198.40 0.06483
1198.50 0.06481
1198.60 0.0648
1198.70 0.06478
1198.80 0.06476
1198.90 0.06474
1199.00 0.06472
1199.10 0.0647
1199.20 0.06468
1199.30 0.06466
1199.40 0.06464
1199.50 0.06462
1199.60 0.0646
1199.70 0.06458
1199.80 0.06456
1199.90 0.06454
1200.00 0
