# Version 2.1 - nm, norm@500 to 1, cut digits, bergeron_30000_75.dat_30000
# Wavelength(nm)  Flambda(ergs/cm^s/s/nm)
300.00 4.948
300.10 4.942
300.20 4.937
300.30 4.931
300.40 4.926
300.50 4.92
300.60 4.915
300.70 4.909
300.80 4.904
300.90 4.898
301.00 4.892
301.10 4.887
301.20 4.881
301.30 4.876
301.40 4.87
301.50 4.865
301.60 4.859
301.70 4.854
301.80 4.848
301.90 4.843
302.00 4.838
302.10 4.832
302.20 4.827
302.30 4.821
302.40 4.816
302.50 4.81
302.60 4.805
302.70 4.8
302.80 4.794
302.90 4.789
303.00 4.784
303.10 4.778
303.20 4.773
303.30 4.767
303.40 4.762
303.50 4.757
303.60 4.751
303.70 4.746
303.80 4.741
303.90 4.735
304.00 4.73
304.10 4.725
304.20 4.72
304.30 4.714
304.40 4.709
304.50 4.704
304.60 4.699
304.70 4.693
304.80 4.688
304.90 4.683
305.00 4.678
305.10 4.672
305.20 4.667
305.30 4.662
305.40 4.657
305.50 4.652
305.60 4.646
305.70 4.641
305.80 4.636
305.90 4.631
306.00 4.626
306.10 4.621
306.20 4.616
306.30 4.61
306.40 4.605
306.50 4.6
306.60 4.595
306.70 4.59
306.80 4.585
306.90 4.58
307.00 4.575
307.10 4.57
307.20 4.565
307.30 4.56
307.40 4.555
307.50 4.549
307.60 4.544
307.70 4.539
307.80 4.534
307.90 4.529
308.00 4.524
308.10 4.519
308.20 4.514
308.30 4.509
308.40 4.504
308.50 4.499
308.60 4.494
308.70 4.49
308.80 4.485
308.90 4.48
309.00 4.475
309.10 4.47
309.20 4.465
309.30 4.46
309.40 4.455
309.50 4.45
309.60 4.445
309.70 4.44
309.80 4.435
309.90 4.431
310.00 4.426
310.10 4.421
310.20 4.416
310.30 4.411
310.40 4.406
310.50 4.401
310.60 4.397
310.70 4.392
310.80 4.387
310.90 4.382
311.00 4.377
311.10 4.373
311.20 4.368
311.30 4.363
311.40 4.358
311.50 4.354
311.60 4.349
311.70 4.344
311.80 4.339
311.90 4.335
312.00 4.33
312.10 4.325
312.20 4.32
312.30 4.316
312.40 4.311
312.50 4.306
312.60 4.302
312.70 4.297
312.80 4.292
312.90 4.287
313.00 4.283
313.10 4.278
313.20 4.273
313.30 4.269
313.40 4.264
313.50 4.26
313.60 4.255
313.70 4.25
313.80 4.246
313.90 4.241
314.00 4.236
314.10 4.232
314.20 4.227
314.30 4.223
314.40 4.218
314.50 4.214
314.60 4.209
314.70 4.204
314.80 4.2
314.90 4.195
315.00 4.191
315.10 4.186
315.20 4.182
315.30 4.177
315.40 4.173
315.50 4.168
315.60 4.164
315.70 4.159
315.80 4.155
315.90 4.15
316.00 4.146
316.10 4.141
316.20 4.137
316.30 4.132
316.40 4.128
316.50 4.123
316.60 4.119
316.70 4.114
316.80 4.11
316.90 4.106
317.00 4.101
317.10 4.097
317.20 4.092
317.30 4.088
317.40 4.084
317.50 4.079
317.60 4.075
317.70 4.07
317.80 4.066
317.90 4.062
318.00 4.057
318.10 4.053
318.20 4.049
318.30 4.044
318.40 4.04
318.50 4.036
318.60 4.031
318.70 4.027
318.80 4.023
318.90 4.018
319.00 4.014
319.10 4.01
319.20 4.006
319.30 4.001
319.40 3.997
319.50 3.993
319.60 3.988
319.70 3.984
319.80 3.98
319.90 3.976
320.00 3.971
320.10 3.967
320.20 3.963
320.30 3.959
320.40 3.954
320.50 3.95
320.60 3.946
320.70 3.942
320.80 3.938
320.90 3.933
321.00 3.929
321.10 3.925
321.20 3.921
321.30 3.917
321.40 3.913
321.50 3.908
321.60 3.904
321.70 3.9
321.80 3.896
321.90 3.892
322.00 3.888
322.10 3.884
322.20 3.879
322.30 3.875
322.40 3.871
322.50 3.867
322.60 3.863
322.70 3.859
322.80 3.855
322.90 3.851
323.00 3.847
323.10 3.843
323.20 3.839
323.30 3.835
323.40 3.831
323.50 3.826
323.60 3.822
323.70 3.818
323.80 3.814
323.90 3.81
324.00 3.806
324.10 3.802
324.20 3.798
324.30 3.794
324.40 3.79
324.50 3.786
324.60 3.782
324.70 3.778
324.80 3.774
324.90 3.77
325.00 3.766
325.10 3.762
325.20 3.758
325.30 3.755
325.40 3.751
325.50 3.747
325.60 3.743
325.70 3.739
325.80 3.735
325.90 3.731
326.00 3.727
326.10 3.723
326.20 3.719
326.30 3.715
326.40 3.711
326.50 3.708
326.60 3.704
326.70 3.7
326.80 3.696
326.90 3.692
327.00 3.688
327.10 3.684
327.20 3.68
327.30 3.677
327.40 3.673
327.50 3.669
327.60 3.665
327.70 3.661
327.80 3.657
327.90 3.654
328.00 3.65
328.10 3.646
328.20 3.642
328.30 3.638
328.40 3.635
328.50 3.631
328.60 3.627
328.70 3.623
328.80 3.62
328.90 3.616
329.00 3.612
329.10 3.608
329.20 3.604
329.30 3.601
329.40 3.597
329.50 3.593
329.60 3.59
329.70 3.586
329.80 3.582
329.90 3.578
330.00 3.575
330.10 3.571
330.20 3.567
330.30 3.564
330.40 3.56
330.50 3.556
330.60 3.552
330.70 3.549
330.80 3.545
330.90 3.541
331.00 3.538
331.10 3.534
331.20 3.53
331.30 3.527
331.40 3.523
331.50 3.52
331.60 3.516
331.70 3.512
331.80 3.509
331.90 3.505
332.00 3.501
332.10 3.498
332.20 3.494
332.30 3.491
332.40 3.487
332.50 3.483
332.60 3.48
332.70 3.476
332.80 3.473
332.90 3.469
333.00 3.466
333.10 3.462
333.20 3.458
333.30 3.455
333.40 3.451
333.50 3.448
333.60 3.444
333.70 3.441
333.80 3.437
333.90 3.434
334.00 3.43
334.10 3.427
334.20 3.423
334.30 3.42
334.40 3.416
334.50 3.413
334.60 3.409
334.70 3.406
334.80 3.402
334.90 3.399
335.00 3.395
335.10 3.392
335.20 3.388
335.30 3.385
335.40 3.381
335.50 3.378
335.60 3.374
335.70 3.371
335.80 3.367
335.90 3.364
336.00 3.361
336.10 3.357
336.20 3.354
336.30 3.35
336.40 3.347
336.50 3.343
336.60 3.34
336.70 3.337
336.80 3.333
336.90 3.33
337.00 3.326
337.10 3.323
337.20 3.32
337.30 3.316
337.40 3.313
337.50 3.31
337.60 3.306
337.70 3.303
337.80 3.299
337.90 3.296
338.00 3.293
338.10 3.289
338.20 3.286
338.30 3.283
338.40 3.279
338.50 3.276
338.60 3.273
338.70 3.27
338.80 3.266
338.90 3.263
339.00 3.26
339.10 3.256
339.20 3.253
339.30 3.25
339.40 3.246
339.50 3.243
339.60 3.24
339.70 3.237
339.80 3.233
339.90 3.23
340.00 3.227
340.10 3.224
340.20 3.22
340.30 3.217
340.40 3.214
340.50 3.211
340.60 3.207
340.70 3.204
340.80 3.201
340.90 3.198
341.00 3.194
341.10 3.191
341.20 3.188
341.30 3.185
341.40 3.182
341.50 3.178
341.60 3.175
341.70 3.172
341.80 3.169
341.90 3.166
342.00 3.162
342.10 3.159
342.20 3.156
342.30 3.153
342.40 3.15
342.50 3.147
342.60 3.143
342.70 3.14
342.80 3.137
342.90 3.134
343.00 3.131
343.10 3.128
343.20 3.125
343.30 3.121
343.40 3.118
343.50 3.115
343.60 3.112
343.70 3.109
343.80 3.106
343.90 3.103
344.00 3.1
344.10 3.097
344.20 3.093
344.30 3.09
344.40 3.087
344.50 3.084
344.60 3.081
344.70 3.078
344.80 3.075
344.90 3.072
345.00 3.069
345.10 3.066
345.20 3.063
345.30 3.06
345.40 3.057
345.50 3.054
345.60 3.051
345.70 3.048
345.80 3.045
345.90 3.042
346.00 3.038
346.10 3.035
346.20 3.032
346.30 3.029
346.40 3.026
346.50 3.023
346.60 3.02
346.70 3.017
346.80 3.014
346.90 3.012
347.00 3.009
347.10 3.006
347.20 3.003
347.30 3
347.40 2.997
347.50 2.994
347.60 2.991
347.70 2.988
347.80 2.985
347.90 2.982
348.00 2.979
348.10 2.976
348.20 2.973
348.30 2.97
348.40 2.967
348.50 2.964
348.60 2.961
348.70 2.958
348.80 2.955
348.90 2.953
349.00 2.95
349.10 2.947
349.20 2.944
349.30 2.941
349.40 2.938
349.50 2.935
349.60 2.932
349.70 2.929
349.80 2.926
349.90 2.924
350.00 2.921
350.10 2.918
350.20 2.915
350.30 2.912
350.40 2.909
350.50 2.906
350.60 2.904
350.70 2.901
350.80 2.898
350.90 2.895
351.00 2.892
351.10 2.889
351.20 2.886
351.30 2.884
351.40 2.881
351.50 2.878
351.60 2.875
351.70 2.872
351.80 2.87
351.90 2.867
352.00 2.864
352.10 2.861
352.20 2.858
352.30 2.856
352.40 2.853
352.50 2.85
352.60 2.847
352.70 2.844
352.80 2.842
352.90 2.839
353.00 2.836
353.10 2.833
353.20 2.831
353.30 2.828
353.40 2.825
353.50 2.822
353.60 2.82
353.70 2.817
353.80 2.814
353.90 2.811
354.00 2.809
354.10 2.806
354.20 2.803
354.30 2.8
354.40 2.798
354.50 2.795
354.60 2.792
354.70 2.79
354.80 2.787
354.90 2.784
355.00 2.781
355.10 2.779
355.20 2.776
355.30 2.773
355.40 2.771
355.50 2.768
355.60 2.765
355.70 2.763
355.80 2.76
355.90 2.757
356.00 2.755
356.10 2.752
356.20 2.749
356.30 2.747
356.40 2.744
356.50 2.741
356.60 2.739
356.70 2.736
356.80 2.733
356.90 2.731
357.00 2.728
357.10 2.725
357.20 2.723
357.30 2.72
357.40 2.718
357.50 2.715
357.60 2.712
357.70 2.71
357.80 2.707
357.90 2.704
358.00 2.702
358.10 2.699
358.20 2.697
358.30 2.694
358.40 2.691
358.50 2.689
358.60 2.686
358.70 2.684
358.80 2.681
358.90 2.679
359.00 2.676
359.10 2.673
359.20 2.671
359.30 2.668
359.40 2.666
359.50 2.663
359.60 2.661
359.70 2.658
359.80 2.656
359.90 2.653
360.00 2.65
360.10 2.648
360.20 2.645
360.30 2.643
360.40 2.64
360.50 2.638
360.60 2.635
360.70 2.633
360.80 2.63
360.90 2.628
361.00 2.625
361.10 2.623
361.20 2.62
361.30 2.618
361.40 2.615
361.50 2.613
361.60 2.61
361.70 2.608
361.80 2.605
361.90 2.603
362.00 2.6
362.10 2.598
362.20 2.595
362.30 2.593
362.40 2.59
362.50 2.588
362.60 2.585
362.70 2.583
362.80 2.58
362.90 2.578
363.00 2.576
363.10 2.573
363.20 2.571
363.30 2.568
363.40 2.566
363.50 2.563
363.60 2.561
363.70 2.558
363.80 2.556
363.90 2.554
364.00 2.551
364.10 2.549
364.20 2.546
364.30 2.544
364.40 2.542
364.50 2.539
364.60 2.537
364.70 2.534
364.80 2.532
364.90 2.53
365.00 2.527
365.10 2.525
365.20 2.522
365.30 2.52
365.40 2.518
365.50 2.515
365.60 2.513
365.70 2.51
365.80 2.508
365.90 2.506
366.00 2.503
366.10 2.501
366.20 2.498
366.30 2.495
366.40 2.493
366.50 2.49
366.60 2.487
366.70 2.485
366.80 2.482
366.90 2.48
367.00 2.477
367.10 2.474
367.20 2.472
367.30 2.469
367.40 2.466
367.50 2.464
367.60 2.461
367.70 2.459
367.80 2.456
367.90 2.453
368.00 2.451
368.10 2.448
368.20 2.446
368.30 2.443
368.40 2.441
368.50 2.438
368.60 2.436
368.70 2.433
368.80 2.43
368.90 2.428
369.00 2.425
369.10 2.423
369.20 2.42
369.30 2.418
369.40 2.415
369.50 2.413
369.60 2.41
369.70 2.408
369.80 2.405
369.90 2.403
370.00 2.4
370.10 2.398
370.20 2.395
370.30 2.393
370.40 2.391
370.50 2.388
370.60 2.386
370.70 2.383
370.80 2.381
370.90 2.378
371.00 2.376
371.10 2.374
371.20 2.371
371.30 2.369
371.40 2.366
371.50 2.364
371.60 2.362
371.70 2.359
371.80 2.357
371.90 2.354
372.00 2.352
372.10 2.35
372.20 2.348
372.30 2.346
372.40 2.344
372.50 2.342
372.60 2.34
372.70 2.337
372.80 2.335
372.90 2.333
373.00 2.331
373.10 2.329
373.20 2.327
373.30 2.325
373.40 2.323
373.50 2.321
373.60 2.319
373.70 2.317
373.80 2.315
373.90 2.313
374.00 2.311
374.10 2.309
374.20 2.307
374.30 2.305
374.40 2.304
374.50 2.302
374.60 2.3
374.70 2.298
374.80 2.296
374.90 2.295
375.00 2.293
375.10 2.291
375.20 2.289
375.30 2.288
375.40 2.286
375.50 2.284
375.60 2.282
375.70 2.281
375.80 2.279
375.90 2.277
376.00 2.275
376.10 2.273
376.20 2.271
376.30 2.268
376.40 2.266
376.50 2.264
376.60 2.261
376.70 2.259
376.80 2.256
376.90 2.254
377.00 2.252
377.10 2.251
377.20 2.251
377.30 2.25
377.40 2.25
377.50 2.25
377.60 2.249
377.70 2.249
377.80 2.248
377.90 2.248
378.00 2.248
378.10 2.245
378.20 2.243
378.30 2.24
378.40 2.238
378.50 2.235
378.60 2.233
378.70 2.23
378.80 2.228
378.90 2.225
379.00 2.223
379.10 2.22
379.20 2.217
379.30 2.214
379.40 2.212
379.50 2.209
379.60 2.206
379.70 2.203
379.80 2.2
379.90 2.197
380.00 2.194
380.10 2.196
380.20 2.198
380.30 2.2
380.40 2.202
380.50 2.204
380.60 2.206
380.70 2.208
380.80 2.209
380.90 2.211
381.00 2.213
381.10 2.212
381.20 2.211
381.30 2.21
381.40 2.209
381.50 2.208
381.60 2.206
381.70 2.203
381.80 2.199
381.90 2.195
382.00 2.19
382.10 2.185
382.20 2.18
382.30 2.171
382.40 2.162
382.50 2.154
382.60 2.145
382.70 2.137
382.80 2.128
382.90 2.12
383.00 2.111
383.10 2.103
383.20 2.094
383.30 2.084
383.40 2.075
383.50 2.068
383.60 2.069
383.70 2.075
383.80 2.083
383.90 2.092
384.00 2.101
384.10 2.109
384.20 2.118
384.30 2.126
384.40 2.134
384.50 2.141
384.60 2.147
384.70 2.154
384.80 2.159
384.90 2.164
385.00 2.169
385.10 2.172
385.20 2.175
385.30 2.178
385.40 2.18
385.50 2.182
385.60 2.182
385.70 2.182
385.80 2.182
385.90 2.181
386.00 2.179
386.10 2.177
386.20 2.174
386.30 2.17
386.40 2.165
386.50 2.16
386.60 2.154
386.70 2.148
386.80 2.141
386.90 2.132
387.00 2.123
387.10 2.114
387.20 2.104
387.30 2.092
387.40 2.081
387.50 2.068
387.60 2.054
387.70 2.04
387.80 2.024
387.90 2.008
388.00 1.992
388.10 1.974
388.20 1.955
388.30 1.937
388.40 1.917
388.50 1.897
388.60 1.878
388.70 1.86
388.80 1.846
388.90 1.836
389.00 1.843
389.10 1.855
389.20 1.87
389.30 1.888
389.40 1.905
389.50 1.923
389.60 1.94
389.70 1.957
389.80 1.973
389.90 1.988
390.00 2.003
390.10 2.017
390.20 2.03
390.30 2.042
390.40 2.054
390.50 2.065
390.60 2.076
390.70 2.086
390.80 2.095
390.90 2.103
391.00 2.111
391.10 2.118
391.20 2.125
391.30 2.131
391.40 2.136
391.50 2.141
391.60 2.146
391.70 2.149
391.80 2.153
391.90 2.156
392.00 2.158
392.10 2.16
392.20 2.161
392.30 2.162
392.40 2.162
392.50 2.162
392.60 2.162
392.70 2.16
392.80 2.159
392.90 2.157
393.00 2.154
393.10 2.151
393.20 2.147
393.30 2.143
393.40 2.139
393.50 2.134
393.60 2.128
393.70 2.122
393.80 2.115
393.90 2.108
394.00 2.1
394.10 2.091
394.20 2.082
394.30 2.072
394.40 2.062
394.50 2.051
394.60 2.039
394.70 2.026
394.80 2.013
394.90 1.999
395.00 1.984
395.10 1.969
395.20 1.952
395.30 1.935
395.40 1.917
395.50 1.898
395.60 1.878
395.70 1.857
395.80 1.836
395.90 1.813
396.00 1.789
396.10 1.764
396.20 1.738
396.30 1.711
396.40 1.683
396.50 1.654
396.60 1.624
396.70 1.593
396.80 1.562
396.90 1.531
397.00 1.5
397.10 1.526
397.20 1.553
397.30 1.582
397.40 1.611
397.50 1.638
397.60 1.665
397.70 1.69
397.80 1.715
397.90 1.739
398.00 1.761
398.10 1.782
398.20 1.802
398.30 1.821
398.40 1.839
398.50 1.857
398.60 1.873
398.70 1.889
398.80 1.904
398.90 1.918
399.00 1.931
399.10 1.944
399.20 1.955
399.30 1.966
399.40 1.977
399.50 1.987
399.60 1.996
399.70 2.005
399.80 2.013
399.90 2.021
400.00 2.028
400.10 2.035
400.20 2.041
400.30 2.047
400.40 2.053
400.50 2.058
400.60 2.063
400.70 2.067
400.80 2.071
400.90 2.075
401.00 2.078
401.10 2.081
401.20 2.084
401.30 2.086
401.40 2.088
401.50 2.09
401.60 2.092
401.70 2.094
401.80 2.095
401.90 2.096
402.00 2.097
402.10 2.098
402.20 2.098
402.30 2.098
402.40 2.098
402.50 2.098
402.60 2.098
402.70 2.098
402.80 2.097
402.90 2.096
403.00 2.095
403.10 2.094
403.20 2.093
403.30 2.092
403.40 2.09
403.50 2.088
403.60 2.086
403.70 2.084
403.80 2.082
403.90 2.08
404.00 2.077
404.10 2.075
404.20 2.072
404.30 2.069
404.40 2.066
404.50 2.063
404.60 2.059
404.70 2.055
404.80 2.052
404.90 2.047
405.00 2.043
405.10 2.039
405.20 2.034
405.30 2.029
405.40 2.024
405.50 2.019
405.60 2.013
405.70 2.008
405.80 2.002
405.90 1.995
406.00 1.989
406.10 1.982
406.20 1.975
406.30 1.967
406.40 1.959
406.50 1.951
406.60 1.942
406.70 1.933
406.80 1.924
406.90 1.914
407.00 1.904
407.10 1.894
407.20 1.883
407.30 1.871
407.40 1.859
407.50 1.846
407.60 1.833
407.70 1.819
407.80 1.805
407.90 1.79
408.00 1.775
408.10 1.759
408.20 1.741
408.30 1.724
408.40 1.706
408.50 1.686
408.60 1.666
408.70 1.645
408.80 1.623
408.90 1.6
409.00 1.577
409.10 1.551
409.20 1.525
409.30 1.498
409.40 1.469
409.50 1.439
409.60 1.407
409.70 1.373
409.80 1.337
409.90 1.3
410.00 1.261
410.10 1.234
410.20 1.22
410.30 1.246
410.40 1.277
410.50 1.314
410.60 1.348
410.70 1.381
410.80 1.411
410.90 1.44
411.00 1.467
411.10 1.492
411.20 1.516
411.30 1.539
411.40 1.561
411.50 1.581
411.60 1.6
411.70 1.619
411.80 1.636
411.90 1.653
412.00 1.669
412.10 1.684
412.20 1.698
412.30 1.711
412.40 1.724
412.50 1.736
412.60 1.748
412.70 1.758
412.80 1.768
412.90 1.778
413.00 1.787
413.10 1.796
413.20 1.804
413.30 1.811
413.40 1.818
413.50 1.825
413.60 1.831
413.70 1.837
413.80 1.843
413.90 1.848
414.00 1.853
414.10 1.858
414.20 1.862
414.30 1.866
414.40 1.87
414.50 1.873
414.60 1.876
414.70 1.879
414.80 1.882
414.90 1.884
415.00 1.887
415.10 1.889
415.20 1.891
415.30 1.893
415.40 1.894
415.50 1.896
415.60 1.897
415.70 1.898
415.80 1.899
415.90 1.9
416.00 1.901
416.10 1.902
416.20 1.902
416.30 1.903
416.40 1.903
416.50 1.903
416.60 1.903
416.70 1.904
416.80 1.904
416.90 1.904
417.00 1.903
417.10 1.903
417.20 1.903
417.30 1.903
417.40 1.902
417.50 1.902
417.60 1.901
417.70 1.901
417.80 1.9
417.90 1.9
418.00 1.899
418.10 1.898
418.20 1.898
418.30 1.897
418.40 1.896
418.50 1.895
418.60 1.894
418.70 1.893
418.80 1.892
418.90 1.891
419.00 1.89
419.10 1.889
419.20 1.888
419.30 1.887
419.40 1.886
419.50 1.885
419.60 1.884
419.70 1.882
419.80 1.881
419.90 1.88
420.00 1.879
420.10 1.877
420.20 1.876
420.30 1.875
420.40 1.873
420.50 1.872
420.60 1.871
420.70 1.869
420.80 1.868
420.90 1.867
421.00 1.865
421.10 1.864
421.20 1.862
421.30 1.861
421.40 1.859
421.50 1.858
421.60 1.856
421.70 1.855
421.80 1.853
421.90 1.852
422.00 1.85
422.10 1.848
422.20 1.847
422.30 1.845
422.40 1.844
422.50 1.842
422.60 1.84
422.70 1.839
422.80 1.837
422.90 1.835
423.00 1.834
423.10 1.832
423.20 1.83
423.30 1.828
423.40 1.827
423.50 1.825
423.60 1.823
423.70 1.821
423.80 1.819
423.90 1.818
424.00 1.816
424.10 1.814
424.20 1.812
424.30 1.81
424.40 1.808
424.50 1.806
424.60 1.804
424.70 1.802
424.80 1.8
424.90 1.798
425.00 1.796
425.10 1.794
425.20 1.792
425.30 1.79
425.40 1.788
425.50 1.786
425.60 1.784
425.70 1.781
425.80 1.779
425.90 1.777
426.00 1.775
426.10 1.772
426.20 1.77
426.30 1.768
426.40 1.765
426.50 1.763
426.60 1.76
426.70 1.758
426.80 1.755
426.90 1.752
427.00 1.75
427.10 1.747
427.20 1.744
427.30 1.741
427.40 1.738
427.50 1.735
427.60 1.732
427.70 1.729
427.80 1.726
427.90 1.723
428.00 1.719
428.10 1.716
428.20 1.712
428.30 1.709
428.40 1.705
428.50 1.701
428.60 1.697
428.70 1.693
428.80 1.689
428.90 1.684
429.00 1.68
429.10 1.675
429.20 1.67
429.30 1.665
429.40 1.66
429.50 1.655
429.60 1.649
429.70 1.644
429.80 1.638
429.90 1.632
430.00 1.625
430.10 1.619
430.20 1.612
430.30 1.605
430.40 1.597
430.50 1.59
430.60 1.582
430.70 1.574
430.80 1.565
430.90 1.556
431.00 1.547
431.10 1.537
431.20 1.527
431.30 1.517
431.40 1.506
431.50 1.495
431.60 1.483
431.70 1.471
431.80 1.458
431.90 1.445
432.00 1.431
432.10 1.417
432.20 1.401
432.30 1.386
432.40 1.369
432.50 1.352
432.60 1.334
432.70 1.315
432.80 1.295
432.90 1.275
433.00 1.253
433.10 1.23
433.20 1.206
433.30 1.181
433.40 1.153
433.50 1.124
433.60 1.094
433.70 1.06
433.80 1.024
433.90 0.9857
434.00 0.9438
434.10 0.9441
434.20 0.9866
434.30 1.023
434.40 1.057
434.50 1.089
434.60 1.118
434.70 1.145
434.80 1.17
434.90 1.193
435.00 1.215
435.10 1.236
435.20 1.255
435.30 1.274
435.40 1.291
435.50 1.308
435.60 1.323
435.70 1.338
435.80 1.352
435.90 1.365
436.00 1.378
436.10 1.389
436.20 1.401
436.30 1.411
436.40 1.421
436.50 1.431
436.60 1.44
436.70 1.448
436.80 1.456
436.90 1.464
437.00 1.471
437.10 1.478
437.20 1.484
437.30 1.49
437.40 1.496
437.50 1.501
437.60 1.506
437.70 1.511
437.80 1.515
437.90 1.519
438.00 1.523
438.10 1.527
438.20 1.53
438.30 1.534
438.40 1.537
438.50 1.539
438.60 1.542
438.70 1.544
438.80 1.546
438.90 1.548
439.00 1.55
439.10 1.552
439.20 1.553
439.30 1.555
439.40 1.556
439.50 1.557
439.60 1.558
439.70 1.559
439.80 1.56
439.90 1.561
440.00 1.561
440.10 1.562
440.20 1.562
440.30 1.563
440.40 1.563
440.50 1.563
440.60 1.563
440.70 1.563
440.80 1.563
440.90 1.563
441.00 1.563
441.10 1.563
441.20 1.563
441.30 1.562
441.40 1.562
441.50 1.562
441.60 1.561
441.70 1.561
441.80 1.561
441.90 1.56
442.00 1.56
442.10 1.559
442.20 1.558
442.30 1.558
442.40 1.557
442.50 1.557
442.60 1.556
442.70 1.555
442.80 1.555
442.90 1.554
443.00 1.553
443.10 1.552
443.20 1.551
443.30 1.551
443.40 1.55
443.50 1.549
443.60 1.548
443.70 1.547
443.80 1.546
443.90 1.545
444.00 1.545
444.10 1.544
444.20 1.543
444.30 1.542
444.40 1.541
444.50 1.54
444.60 1.539
444.70 1.538
444.80 1.537
444.90 1.536
445.00 1.535
445.10 1.534
445.20 1.533
445.30 1.532
445.40 1.531
445.50 1.53
445.60 1.529
445.70 1.528
445.80 1.527
445.90 1.526
446.00 1.525
446.10 1.524
446.20 1.523
446.30 1.521
446.40 1.52
446.50 1.519
446.60 1.518
446.70 1.517
446.80 1.516
446.90 1.515
447.00 1.514
447.10 1.513
447.20 1.512
447.30 1.511
447.40 1.509
447.50 1.508
447.60 1.507
447.70 1.506
447.80 1.505
447.90 1.504
448.00 1.503
448.10 1.502
448.20 1.5
448.30 1.499
448.40 1.498
448.50 1.497
448.60 1.496
448.70 1.495
448.80 1.494
448.90 1.493
449.00 1.491
449.10 1.49
449.20 1.489
449.30 1.488
449.40 1.487
449.50 1.486
449.60 1.485
449.70 1.483
449.80 1.482
449.90 1.481
450.00 1.48
450.10 1.479
450.20 1.478
450.30 1.477
450.40 1.475
450.50 1.474
450.60 1.473
450.70 1.472
450.80 1.471
450.90 1.47
451.00 1.468
451.10 1.467
451.20 1.466
451.30 1.465
451.40 1.464
451.50 1.463
451.60 1.462
451.70 1.46
451.80 1.459
451.90 1.458
452.00 1.457
452.10 1.456
452.20 1.455
452.30 1.454
452.40 1.452
452.50 1.451
452.60 1.45
452.70 1.449
452.80 1.448
452.90 1.447
453.00 1.445
453.10 1.444
453.20 1.443
453.30 1.442
453.40 1.441
453.50 1.44
453.60 1.439
453.70 1.437
453.80 1.436
453.90 1.435
454.00 1.434
454.10 1.433
454.20 1.432
454.30 1.431
454.40 1.429
454.50 1.428
454.60 1.427
454.70 1.426
454.80 1.425
454.90 1.424
455.00 1.423
455.10 1.421
455.20 1.42
455.30 1.419
455.40 1.418
455.50 1.417
455.60 1.416
455.70 1.415
455.80 1.413
455.90 1.412
456.00 1.411
456.10 1.41
456.20 1.409
456.30 1.408
456.40 1.407
456.50 1.406
456.60 1.404
456.70 1.403
456.80 1.402
456.90 1.401
457.00 1.4
457.10 1.399
457.20 1.398
457.30 1.397
457.40 1.395
457.50 1.394
457.60 1.393
457.70 1.392
457.80 1.391
457.90 1.39
458.00 1.389
458.10 1.388
458.20 1.386
458.30 1.385
458.40 1.384
458.50 1.383
458.60 1.382
458.70 1.381
458.80 1.38
458.90 1.379
459.00 1.377
459.10 1.376
459.20 1.375
459.30 1.374
459.40 1.373
459.50 1.372
459.60 1.371
459.70 1.37
459.80 1.369
459.90 1.368
460.00 1.366
460.10 1.365
460.20 1.364
460.30 1.363
460.40 1.362
460.50 1.361
460.60 1.36
460.70 1.359
460.80 1.358
460.90 1.356
461.00 1.355
461.10 1.354
461.20 1.353
461.30 1.352
461.40 1.351
461.50 1.35
461.60 1.349
461.70 1.348
461.80 1.347
461.90 1.346
462.00 1.344
462.10 1.343
462.20 1.342
462.30 1.341
462.40 1.34
462.50 1.339
462.60 1.338
462.70 1.337
462.80 1.336
462.90 1.335
463.00 1.334
463.10 1.332
463.20 1.331
463.30 1.33
463.40 1.329
463.50 1.328
463.60 1.327
463.70 1.326
463.80 1.325
463.90 1.324
464.00 1.323
464.10 1.322
464.20 1.321
464.30 1.32
464.40 1.318
464.50 1.317
464.60 1.316
464.70 1.315
464.80 1.314
464.90 1.313
465.00 1.312
465.10 1.311
465.20 1.31
465.30 1.309
465.40 1.308
465.50 1.307
465.60 1.306
465.70 1.304
465.80 1.303
465.90 1.302
466.00 1.301
466.10 1.3
466.20 1.299
466.30 1.298
466.40 1.297
466.50 1.296
466.60 1.295
466.70 1.294
466.80 1.293
466.90 1.292
467.00 1.291
467.10 1.29
467.20 1.288
467.30 1.287
467.40 1.286
467.50 1.285
467.60 1.284
467.70 1.283
467.80 1.282
467.90 1.281
468.00 1.28
468.10 1.279
468.20 1.278
468.30 1.277
468.40 1.276
468.50 1.275
468.60 1.274
468.70 1.272
468.80 1.271
468.90 1.27
469.00 1.269
469.10 1.268
469.20 1.267
469.30 1.266
469.40 1.265
469.50 1.264
469.60 1.263
469.70 1.262
469.80 1.261
469.90 1.26
470.00 1.259
470.10 1.258
470.20 1.256
470.30 1.255
470.40 1.254
470.50 1.253
470.60 1.252
470.70 1.251
470.80 1.25
470.90 1.249
471.00 1.248
471.10 1.247
471.20 1.246
471.30 1.245
471.40 1.244
471.50 1.242
471.60 1.241
471.70 1.24
471.80 1.239
471.90 1.238
472.00 1.237
472.10 1.236
472.20 1.235
472.30 1.234
472.40 1.233
472.50 1.231
472.60 1.23
472.70 1.229
472.80 1.228
472.90 1.227
473.00 1.226
473.10 1.225
473.20 1.224
473.30 1.223
473.40 1.221
473.50 1.22
473.60 1.219
473.70 1.218
473.80 1.217
473.90 1.216
474.00 1.215
474.10 1.214
474.20 1.212
474.30 1.211
474.40 1.21
474.50 1.209
474.60 1.208
474.70 1.207
474.80 1.205
474.90 1.204
475.00 1.203
475.10 1.202
475.20 1.201
475.30 1.199
475.40 1.198
475.50 1.197
475.60 1.196
475.70 1.194
475.80 1.193
475.90 1.192
476.00 1.191
476.10 1.19
476.20 1.188
476.30 1.187
476.40 1.186
476.50 1.184
476.60 1.183
476.70 1.182
476.80 1.18
476.90 1.179
477.00 1.178
477.10 1.176
477.20 1.175
477.30 1.173
477.40 1.172
477.50 1.17
477.60 1.169
477.70 1.168
477.80 1.166
477.90 1.165
478.00 1.163
478.10 1.162
478.20 1.16
478.30 1.158
478.40 1.157
478.50 1.155
478.60 1.153
478.70 1.152
478.80 1.15
478.90 1.148
479.00 1.147
479.10 1.145
479.20 1.143
479.30 1.141
479.40 1.139
479.50 1.137
479.60 1.135
479.70 1.133
479.80 1.131
479.90 1.129
480.00 1.127
480.10 1.125
480.20 1.123
480.30 1.12
480.40 1.117
480.50 1.115
480.60 1.112
480.70 1.11
480.80 1.107
480.90 1.105
481.00 1.102
481.10 1.1
481.20 1.096
481.30 1.093
481.40 1.09
481.50 1.086
481.60 1.083
481.70 1.079
481.80 1.076
481.90 1.073
482.00 1.069
482.10 1.066
482.20 1.061
482.30 1.057
482.40 1.052
482.50 1.047
482.60 1.042
482.70 1.037
482.80 1.032
482.90 1.028
483.00 1.023
483.10 1.018
483.20 1.012
483.30 1.005
483.40 0.9975
483.50 0.9904
483.60 0.9833
483.70 0.9762
483.80 0.9692
483.90 0.9621
484.00 0.955
484.10 0.948
484.20 0.9392
484.30 0.9296
484.40 0.9199
484.50 0.9103
484.60 0.9007
484.70 0.8894
484.80 0.8772
484.90 0.8651
485.00 0.853
485.10 0.8408
485.20 0.827
485.30 0.8122
485.40 0.7961
485.50 0.7794
485.60 0.7607
485.70 0.7411
485.80 0.7185
485.90 0.6944
486.00 0.6675
486.10 0.63
486.20 0.6447
486.30 0.676
486.40 0.7002
486.50 0.7233
486.60 0.7433
486.70 0.762
486.80 0.7785
486.90 0.7941
487.00 0.8082
487.10 0.8216
487.20 0.8332
487.30 0.844
487.40 0.8549
487.50 0.8657
487.60 0.8765
487.70 0.8854
487.80 0.8936
487.90 0.9017
488.00 0.9098
488.10 0.9179
488.20 0.9242
488.30 0.9297
488.40 0.9351
488.50 0.9406
488.60 0.946
488.70 0.9515
488.80 0.9569
488.90 0.9624
489.00 0.9678
489.10 0.9732
489.20 0.977
489.30 0.9801
489.40 0.9832
489.50 0.9863
489.60 0.9894
489.70 0.9924
489.80 0.9955
489.90 0.9986
490.00 1.002
490.10 1.005
490.20 1.007
490.30 1.008
490.40 1.01
490.50 1.012
490.60 1.013
490.70 1.015
490.80 1.017
490.90 1.018
491.00 1.02
491.10 1.021
491.20 1.022
491.30 1.023
491.40 1.024
491.50 1.025
491.60 1.025
491.70 1.026
491.80 1.027
491.90 1.028
492.00 1.028
492.10 1.029
492.20 1.03
492.30 1.03
492.40 1.03
492.50 1.03
492.60 1.03
492.70 1.031
492.80 1.031
492.90 1.031
493.00 1.031
493.10 1.032
493.20 1.032
493.30 1.031
493.40 1.031
493.50 1.031
493.60 1.031
493.70 1.031
493.80 1.031
493.90 1.031
494.00 1.031
494.10 1.031
494.20 1.03
494.30 1.03
494.40 1.03
494.50 1.029
494.60 1.029
494.70 1.029
494.80 1.028
494.90 1.028
495.00 1.028
495.10 1.028
495.20 1.027
495.30 1.027
495.40 1.026
495.50 1.026
495.60 1.025
495.70 1.025
495.80 1.024
495.90 1.024
496.00 1.024
496.10 1.023
496.20 1.023
496.30 1.022
496.40 1.022
496.50 1.021
496.60 1.02
496.70 1.02
496.80 1.019
496.90 1.019
497.00 1.018
497.10 1.018
497.20 1.017
497.30 1.017
497.40 1.016
497.50 1.016
497.60 1.015
497.70 1.014
497.80 1.014
497.90 1.013
498.00 1.013
498.10 1.012
498.20 1.011
498.30 1.011
498.40 1.01
498.50 1.01
498.60 1.009
498.70 1.008
498.80 1.008
498.90 1.007
499.00 1.006
499.10 1.006
499.20 1.005
499.30 1.005
499.40 1.004
499.50 1.003
499.60 1.003
499.70 1.002
499.80 1.001
499.90 1.001
500.00 1
500.10 0.9994
500.20 0.9987
500.30 0.998
500.40 0.9974
500.50 0.9967
500.60 0.996
500.70 0.9954
500.80 0.9947
500.90 0.9941
501.00 0.9934
501.10 0.9927
501.20 0.9921
501.30 0.9914
501.40 0.9907
501.50 0.9901
501.60 0.9894
501.70 0.9887
501.80 0.988
501.90 0.9874
502.00 0.9867
502.10 0.986
502.20 0.9853
502.30 0.9847
502.40 0.984
502.50 0.9833
502.60 0.9826
502.70 0.982
502.80 0.9813
502.90 0.9806
503.00 0.9799
503.10 0.9792
503.20 0.9786
503.30 0.9779
503.40 0.9772
503.50 0.9765
503.60 0.9758
503.70 0.9752
503.80 0.9745
503.90 0.9738
504.00 0.9731
504.10 0.9724
504.20 0.9717
504.30 0.9711
504.40 0.9704
504.50 0.9697
504.60 0.969
504.70 0.9683
504.80 0.9676
504.90 0.967
505.00 0.9663
505.10 0.9656
505.20 0.9649
505.30 0.9642
505.40 0.9636
505.50 0.9629
505.60 0.9622
505.70 0.9615
505.80 0.9608
505.90 0.9602
506.00 0.9595
506.10 0.9588
506.20 0.9581
506.30 0.9574
506.40 0.9567
506.50 0.9561
506.60 0.9554
506.70 0.9547
506.80 0.954
506.90 0.9534
507.00 0.9527
507.10 0.952
507.20 0.9513
507.30 0.9506
507.40 0.95
507.50 0.9493
507.60 0.9486
507.70 0.9479
507.80 0.9472
507.90 0.9466
508.00 0.9459
508.10 0.9452
508.20 0.9445
508.30 0.9439
508.40 0.9432
508.50 0.9425
508.60 0.9418
508.70 0.9412
508.80 0.9405
508.90 0.9398
509.00 0.9392
509.10 0.9385
509.20 0.9378
509.30 0.9371
509.40 0.9365
509.50 0.9358
509.60 0.9351
509.70 0.9345
509.80 0.9338
509.90 0.9331
510.00 0.9325
510.10 0.9318
510.20 0.9311
510.30 0.9304
510.40 0.9298
510.50 0.9291
510.60 0.9284
510.70 0.9278
510.80 0.9271
510.90 0.9265
511.00 0.9258
511.10 0.9251
511.20 0.9245
511.30 0.9238
511.40 0.9231
511.50 0.9225
511.60 0.9218
511.70 0.9211
511.80 0.9205
511.90 0.9198
512.00 0.9192
512.10 0.9185
512.20 0.9178
512.30 0.9172
512.40 0.9165
512.50 0.9159
512.60 0.9152
512.70 0.9146
512.80 0.9139
512.90 0.9132
513.00 0.9126
513.10 0.9119
513.20 0.9113
513.30 0.9106
513.40 0.91
513.50 0.9093
513.60 0.9087
513.70 0.908
513.80 0.9074
513.90 0.9067
514.00 0.9061
514.10 0.9054
514.20 0.9048
514.30 0.9041
514.40 0.9035
514.50 0.9028
514.60 0.9022
514.70 0.9015
514.80 0.9009
514.90 0.9002
515.00 0.8996
515.10 0.8989
515.20 0.8983
515.30 0.8977
515.40 0.897
515.50 0.8964
515.60 0.8957
515.70 0.8951
515.80 0.8945
515.90 0.8938
516.00 0.8932
516.10 0.8925
516.20 0.8919
516.30 0.8913
516.40 0.8906
516.50 0.89
516.60 0.8893
516.70 0.8887
516.80 0.8881
516.90 0.8874
517.00 0.8868
517.10 0.8862
517.20 0.8855
517.30 0.8849
517.40 0.8843
517.50 0.8836
517.60 0.883
517.70 0.8824
517.80 0.8817
517.90 0.8811
518.00 0.8805
518.10 0.8798
518.20 0.8792
518.30 0.8786
518.40 0.878
518.50 0.8773
518.60 0.8767
518.70 0.8761
518.80 0.8755
518.90 0.8748
519.00 0.8742
519.10 0.8736
519.20 0.873
519.30 0.8723
519.40 0.8717
519.50 0.8711
519.60 0.8705
519.70 0.8698
519.80 0.8692
519.90 0.8686
520.00 0.868
520.10 0.8674
520.20 0.8668
520.30 0.8661
520.40 0.8655
520.50 0.8649
520.60 0.8643
520.70 0.8637
520.80 0.8631
520.90 0.8624
521.00 0.8618
521.10 0.8612
521.20 0.8606
521.30 0.86
521.40 0.8594
521.50 0.8588
521.60 0.8581
521.70 0.8575
521.80 0.8569
521.90 0.8563
522.00 0.8557
522.10 0.8551
522.20 0.8545
522.30 0.8539
522.40 0.8533
522.50 0.8527
522.60 0.8521
522.70 0.8515
522.80 0.8509
522.90 0.8503
523.00 0.8496
523.10 0.849
523.20 0.8484
523.30 0.8478
523.40 0.8472
523.50 0.8466
523.60 0.846
523.70 0.8454
523.80 0.8448
523.90 0.8442
524.00 0.8436
524.10 0.843
524.20 0.8424
524.30 0.8418
524.40 0.8412
524.50 0.8406
524.60 0.8401
524.70 0.8395
524.80 0.8389
524.90 0.8383
525.00 0.8377
525.10 0.8371
525.20 0.8365
525.30 0.8359
525.40 0.8353
525.50 0.8347
525.60 0.8341
525.70 0.8335
525.80 0.8329
525.90 0.8324
526.00 0.8318
526.10 0.8312
526.20 0.8306
526.30 0.83
526.40 0.8294
526.50 0.8288
526.60 0.8282
526.70 0.8277
526.80 0.8271
526.90 0.8265
527.00 0.8259
527.10 0.8253
527.20 0.8247
527.30 0.8242
527.40 0.8236
527.50 0.823
527.60 0.8224
527.70 0.8218
527.80 0.8213
527.90 0.8207
528.00 0.8201
528.10 0.8195
528.20 0.8189
528.30 0.8184
528.40 0.8178
528.50 0.8172
528.60 0.8166
528.70 0.8161
528.80 0.8155
528.90 0.8149
529.00 0.8143
529.10 0.8138
529.20 0.8132
529.30 0.8126
529.40 0.8121
529.50 0.8115
529.60 0.8109
529.70 0.8103
529.80 0.8098
529.90 0.8092
530.00 0.8086
530.10 0.8081
530.20 0.8075
530.30 0.8069
530.40 0.8064
530.50 0.8058
530.60 0.8052
530.70 0.8047
530.80 0.8041
530.90 0.8035
531.00 0.803
531.10 0.8024
531.20 0.8018
531.30 0.8013
531.40 0.8007
531.50 0.8002
531.60 0.7996
531.70 0.799
531.80 0.7985
531.90 0.7979
532.00 0.7974
532.10 0.7968
532.20 0.7962
532.30 0.7957
532.40 0.7951
532.50 0.7946
532.60 0.794
532.70 0.7935
532.80 0.7929
532.90 0.7924
533.00 0.7918
533.10 0.7912
533.20 0.7907
533.30 0.7901
533.40 0.7896
533.50 0.789
533.60 0.7885
533.70 0.7879
533.80 0.7874
533.90 0.7868
534.00 0.7863
534.10 0.7857
534.20 0.7852
534.30 0.7846
534.40 0.7841
534.50 0.7835
534.60 0.783
534.70 0.7825
534.80 0.7819
534.90 0.7814
535.00 0.7808
535.10 0.7803
535.20 0.7797
535.30 0.7792
535.40 0.7786
535.50 0.7781
535.60 0.7776
535.70 0.777
535.80 0.7765
535.90 0.7759
536.00 0.7754
536.10 0.7749
536.20 0.7743
536.30 0.7738
536.40 0.7732
536.50 0.7727
536.60 0.7722
536.70 0.7716
536.80 0.7711
536.90 0.7706
537.00 0.77
537.10 0.7695
537.20 0.769
537.30 0.7684
537.40 0.7679
537.50 0.7674
537.60 0.7668
537.70 0.7663
537.80 0.7658
537.90 0.7652
538.00 0.7647
538.10 0.7642
538.20 0.7636
538.30 0.7631
538.40 0.7626
538.50 0.762
538.60 0.7615
538.70 0.761
538.80 0.7605
538.90 0.7599
539.00 0.7594
539.10 0.7589
539.20 0.7584
539.30 0.7578
539.40 0.7573
539.50 0.7568
539.60 0.7563
539.70 0.7557
539.80 0.7552
539.90 0.7547
540.00 0.7542
540.10 0.7537
540.20 0.7531
540.30 0.7526
540.40 0.7521
540.50 0.7516
540.60 0.7511
540.70 0.7505
540.80 0.75
540.90 0.7495
541.00 0.749
541.10 0.7485
541.20 0.748
541.30 0.7474
541.40 0.7469
541.50 0.7464
541.60 0.7459
541.70 0.7454
541.80 0.7449
541.90 0.7444
542.00 0.7438
542.10 0.7433
542.20 0.7428
542.30 0.7423
542.40 0.7418
542.50 0.7413
542.60 0.7408
542.70 0.7403
542.80 0.7398
542.90 0.7392
543.00 0.7387
543.10 0.7382
543.20 0.7377
543.30 0.7372
543.40 0.7367
543.50 0.7362
543.60 0.7357
543.70 0.7352
543.80 0.7347
543.90 0.7342
544.00 0.7337
544.10 0.7332
544.20 0.7327
544.30 0.7322
544.40 0.7317
544.50 0.7312
544.60 0.7307
544.70 0.7302
544.80 0.7297
544.90 0.7292
545.00 0.7287
545.10 0.7282
545.20 0.7277
545.30 0.7272
545.40 0.7267
545.50 0.7262
545.60 0.7257
545.70 0.7252
545.80 0.7247
545.90 0.7242
546.00 0.7237
546.10 0.7232
546.20 0.7227
546.30 0.7222
546.40 0.7217
546.50 0.7212
546.60 0.7207
546.70 0.7202
546.80 0.7197
546.90 0.7192
547.00 0.7188
547.10 0.7183
547.20 0.7178
547.30 0.7173
547.40 0.7168
547.50 0.7163
547.60 0.7158
547.70 0.7153
547.80 0.7148
547.90 0.7143
548.00 0.7139
548.10 0.7134
548.20 0.7129
548.30 0.7124
548.40 0.7119
548.50 0.7114
548.60 0.7109
548.70 0.7105
548.80 0.71
548.90 0.7095
549.00 0.709
549.10 0.7085
549.20 0.708
549.30 0.7076
549.40 0.7071
549.50 0.7066
549.60 0.7061
549.70 0.7056
549.80 0.7052
549.90 0.7047
550.00 0.7042
550.10 0.7037
550.20 0.7032
550.30 0.7028
550.40 0.7023
550.50 0.7018
550.60 0.7013
550.70 0.7009
550.80 0.7004
550.90 0.6999
551.00 0.6994
551.10 0.699
551.20 0.6985
551.30 0.698
551.40 0.6975
551.50 0.6971
551.60 0.6966
551.70 0.6961
551.80 0.6957
551.90 0.6952
552.00 0.6947
552.10 0.6942
552.20 0.6938
552.30 0.6933
552.40 0.6928
552.50 0.6924
552.60 0.6919
552.70 0.6914
552.80 0.691
552.90 0.6905
553.00 0.69
553.10 0.6896
553.20 0.6891
553.30 0.6886
553.40 0.6882
553.50 0.6877
553.60 0.6872
553.70 0.6868
553.80 0.6863
553.90 0.6858
554.00 0.6854
554.10 0.6849
554.20 0.6845
554.30 0.684
554.40 0.6835
554.50 0.6831
554.60 0.6826
554.70 0.6821
554.80 0.6817
554.90 0.6812
555.00 0.6808
555.10 0.6803
555.20 0.6799
555.30 0.6794
555.40 0.6789
555.50 0.6785
555.60 0.678
555.70 0.6776
555.80 0.6771
555.90 0.6767
556.00 0.6762
556.10 0.6757
556.20 0.6753
556.30 0.6748
556.40 0.6744
556.50 0.6739
556.60 0.6735
556.70 0.673
556.80 0.6726
556.90 0.6721
557.00 0.6717
557.10 0.6712
557.20 0.6708
557.30 0.6703
557.40 0.6699
557.50 0.6694
557.60 0.669
557.70 0.6685
557.80 0.6681
557.90 0.6676
558.00 0.6672
558.10 0.6667
558.20 0.6663
558.30 0.6658
558.40 0.6654
558.50 0.6649
558.60 0.6645
558.70 0.6641
558.80 0.6636
558.90 0.6632
559.00 0.6627
559.10 0.6623
559.20 0.6618
559.30 0.6614
559.40 0.6609
559.50 0.6605
559.60 0.6601
559.70 0.6596
559.80 0.6592
559.90 0.6587
560.00 0.6583
560.10 0.6579
560.20 0.6574
560.30 0.657
560.40 0.6565
560.50 0.6561
560.60 0.6557
560.70 0.6552
560.80 0.6548
560.90 0.6544
561.00 0.6539
561.10 0.6535
561.20 0.653
561.30 0.6526
561.40 0.6522
561.50 0.6517
561.60 0.6513
561.70 0.6509
561.80 0.6504
561.90 0.65
562.00 0.6496
562.10 0.6491
562.20 0.6487
562.30 0.6483
562.40 0.6478
562.50 0.6474
562.60 0.647
562.70 0.6466
562.80 0.6461
562.90 0.6457
563.00 0.6453
563.10 0.6448
563.20 0.6444
563.30 0.644
563.40 0.6435
563.50 0.6431
563.60 0.6427
563.70 0.6423
563.80 0.6418
563.90 0.6414
564.00 0.641
564.10 0.6406
564.20 0.6401
564.30 0.6397
564.40 0.6393
564.50 0.6389
564.60 0.6384
564.70 0.638
564.80 0.6376
564.90 0.6372
565.00 0.6367
565.10 0.6363
565.20 0.6359
565.30 0.6355
565.40 0.6351
565.50 0.6346
565.60 0.6342
565.70 0.6338
565.80 0.6334
565.90 0.633
566.00 0.6325
566.10 0.6321
566.20 0.6317
566.30 0.6313
566.40 0.6309
566.50 0.6305
566.60 0.63
566.70 0.6296
566.80 0.6292
566.90 0.6288
567.00 0.6284
567.10 0.628
567.20 0.6275
567.30 0.6271
567.40 0.6267
567.50 0.6263
567.60 0.6259
567.70 0.6255
567.80 0.6251
567.90 0.6247
568.00 0.6242
568.10 0.6238
568.20 0.6234
568.30 0.623
568.40 0.6226
568.50 0.6222
568.60 0.6218
568.70 0.6214
568.80 0.621
568.90 0.6206
569.00 0.6201
569.10 0.6197
569.20 0.6193
569.30 0.6189
569.40 0.6185
569.50 0.6181
569.60 0.6177
569.70 0.6173
569.80 0.6169
569.90 0.6165
570.00 0.6161
570.10 0.6157
570.20 0.6153
570.30 0.6149
570.40 0.6145
570.50 0.6141
570.60 0.6137
570.70 0.6132
570.80 0.6128
570.90 0.6124
571.00 0.612
571.10 0.6116
571.20 0.6112
571.30 0.6108
571.40 0.6104
571.50 0.61
571.60 0.6096
571.70 0.6092
571.80 0.6088
571.90 0.6084
572.00 0.608
572.10 0.6076
572.20 0.6072
572.30 0.6068
572.40 0.6064
572.50 0.6061
572.60 0.6057
572.70 0.6053
572.80 0.6049
572.90 0.6045
573.00 0.6041
573.10 0.6037
573.20 0.6033
573.30 0.6029
573.40 0.6025
573.50 0.6021
573.60 0.6017
573.70 0.6013
573.80 0.6009
573.90 0.6005
574.00 0.6001
574.10 0.5997
574.20 0.5994
574.30 0.599
574.40 0.5986
574.50 0.5982
574.60 0.5978
574.70 0.5974
574.80 0.597
574.90 0.5966
575.00 0.5962
575.10 0.5958
575.20 0.5955
575.30 0.5951
575.40 0.5947
575.50 0.5943
575.60 0.5939
575.70 0.5935
575.80 0.5931
575.90 0.5927
576.00 0.5924
576.10 0.592
576.20 0.5916
576.30 0.5912
576.40 0.5908
576.50 0.5904
576.60 0.5901
576.70 0.5897
576.80 0.5893
576.90 0.5889
577.00 0.5885
577.10 0.5881
577.20 0.5878
577.30 0.5874
577.40 0.587
577.50 0.5866
577.60 0.5862
577.70 0.5858
577.80 0.5855
577.90 0.5851
578.00 0.5847
578.10 0.5843
578.20 0.5839
578.30 0.5836
578.40 0.5832
578.50 0.5828
578.60 0.5824
578.70 0.5821
578.80 0.5817
578.90 0.5813
579.00 0.5809
579.10 0.5806
579.20 0.5802
579.30 0.5798
579.40 0.5794
579.50 0.5791
579.60 0.5787
579.70 0.5783
579.80 0.5779
579.90 0.5776
580.00 0.5772
580.10 0.5768
580.20 0.5764
580.30 0.5761
580.40 0.5757
580.50 0.5753
580.60 0.5749
580.70 0.5746
580.80 0.5742
580.90 0.5738
581.00 0.5735
581.10 0.5731
581.20 0.5727
581.30 0.5724
581.40 0.572
581.50 0.5716
581.60 0.5712
581.70 0.5709
581.80 0.5705
581.90 0.5701
582.00 0.5698
582.10 0.5694
582.20 0.569
582.30 0.5687
582.40 0.5683
582.50 0.5679
582.60 0.5676
582.70 0.5672
582.80 0.5668
582.90 0.5665
583.00 0.5661
583.10 0.5657
583.20 0.5654
583.30 0.565
583.40 0.5647
583.50 0.5643
583.60 0.5639
583.70 0.5636
583.80 0.5632
583.90 0.5628
584.00 0.5625
584.10 0.5621
584.20 0.5618
584.30 0.5614
584.40 0.561
584.50 0.5607
584.60 0.5603
584.70 0.56
584.80 0.5596
584.90 0.5592
585.00 0.5589
585.10 0.5585
585.20 0.5582
585.30 0.5578
585.40 0.5575
585.50 0.5571
585.60 0.5567
585.70 0.5564
585.80 0.556
585.90 0.5557
586.00 0.5553
586.10 0.555
586.20 0.5546
586.30 0.5542
586.40 0.5539
586.50 0.5535
586.60 0.5532
586.70 0.5528
586.80 0.5525
586.90 0.5521
587.00 0.5518
587.10 0.5514
587.20 0.5511
587.30 0.5507
587.40 0.5504
587.50 0.55
587.60 0.5497
587.70 0.5493
587.80 0.549
587.90 0.5486
588.00 0.5483
588.10 0.5479
588.20 0.5476
588.30 0.5472
588.40 0.5469
588.50 0.5465
588.60 0.5462
588.70 0.5458
588.80 0.5455
588.90 0.5451
589.00 0.5448
589.10 0.5444
589.20 0.5441
589.30 0.5437
589.40 0.5434
589.50 0.543
589.60 0.5427
589.70 0.5423
589.80 0.542
589.90 0.5416
590.00 0.5413
590.10 0.541
590.20 0.5406
590.30 0.5403
590.40 0.5399
590.50 0.5396
590.60 0.5392
590.70 0.5389
590.80 0.5386
590.90 0.5382
591.00 0.5379
591.10 0.5375
591.20 0.5372
591.30 0.5368
591.40 0.5365
591.50 0.5362
591.60 0.5358
591.70 0.5355
591.80 0.5351
591.90 0.5348
592.00 0.5345
592.10 0.5341
592.20 0.5338
592.30 0.5334
592.40 0.5331
592.50 0.5328
592.60 0.5324
592.70 0.5321
592.80 0.5318
592.90 0.5314
593.00 0.5311
593.10 0.5307
593.20 0.5304
593.30 0.5301
593.40 0.5297
593.50 0.5294
593.60 0.5291
593.70 0.5287
593.80 0.5284
593.90 0.5281
594.00 0.5277
594.10 0.5274
594.20 0.5271
594.30 0.5267
594.40 0.5264
594.50 0.5261
594.60 0.5257
594.70 0.5254
594.80 0.5251
594.90 0.5247
595.00 0.5244
595.10 0.5241
595.20 0.5237
595.30 0.5234
595.40 0.5231
595.50 0.5228
595.60 0.5224
595.70 0.5221
595.80 0.5218
595.90 0.5214
596.00 0.5211
596.10 0.5208
596.20 0.5205
596.30 0.5201
596.40 0.5198
596.50 0.5195
596.60 0.5191
596.70 0.5188
596.80 0.5185
596.90 0.5182
597.00 0.5178
597.10 0.5175
597.20 0.5172
597.30 0.5169
597.40 0.5165
597.50 0.5162
597.60 0.5159
597.70 0.5156
597.80 0.5152
597.90 0.5149
598.00 0.5146
598.10 0.5143
598.20 0.5139
598.30 0.5136
598.40 0.5133
598.50 0.513
598.60 0.5127
598.70 0.5123
598.80 0.512
598.90 0.5117
599.00 0.5114
599.10 0.511
599.20 0.5107
599.30 0.5104
599.40 0.5101
599.50 0.5098
599.60 0.5094
599.70 0.5091
599.80 0.5088
599.90 0.5085
600.00 0.5082
600.10 0.5078
600.20 0.5075
600.30 0.5072
600.40 0.5069
600.50 0.5066
600.60 0.5063
600.70 0.5059
600.80 0.5056
600.90 0.5053
601.00 0.505
601.10 0.5047
601.20 0.5044
601.30 0.504
601.40 0.5037
601.50 0.5034
601.60 0.5031
601.70 0.5028
601.80 0.5025
601.90 0.5022
602.00 0.5018
602.10 0.5015
602.20 0.5012
602.30 0.5009
602.40 0.5006
602.50 0.5003
602.60 0.5
602.70 0.4997
602.80 0.4993
602.90 0.499
603.00 0.4987
603.10 0.4984
603.20 0.4981
603.30 0.4978
603.40 0.4975
603.50 0.4972
603.60 0.4969
603.70 0.4965
603.80 0.4962
603.90 0.4959
604.00 0.4956
604.10 0.4953
604.20 0.495
604.30 0.4947
604.40 0.4944
604.50 0.4941
604.60 0.4938
604.70 0.4935
604.80 0.4932
604.90 0.4928
605.00 0.4925
605.10 0.4922
605.20 0.4919
605.30 0.4916
605.40 0.4913
605.50 0.491
605.60 0.4907
605.70 0.4904
605.80 0.4901
605.90 0.4898
606.00 0.4895
606.10 0.4892
606.20 0.4889
606.30 0.4886
606.40 0.4883
606.50 0.488
606.60 0.4877
606.70 0.4874
606.80 0.4871
606.90 0.4868
607.00 0.4865
607.10 0.4862
607.20 0.4859
607.30 0.4856
607.40 0.4852
607.50 0.4849
607.60 0.4846
607.70 0.4843
607.80 0.484
607.90 0.4837
608.00 0.4834
608.10 0.4831
608.20 0.4828
608.30 0.4826
608.40 0.4823
608.50 0.482
608.60 0.4817
608.70 0.4814
608.80 0.4811
608.90 0.4808
609.00 0.4805
609.10 0.4802
609.20 0.4799
609.30 0.4796
609.40 0.4793
609.50 0.479
609.60 0.4787
609.70 0.4784
609.80 0.4781
609.90 0.4778
610.00 0.4775
610.10 0.4772
610.20 0.4769
610.30 0.4766
610.40 0.4763
610.50 0.476
610.60 0.4757
610.70 0.4754
610.80 0.4752
610.90 0.4749
611.00 0.4746
611.10 0.4743
611.20 0.474
611.30 0.4737
611.40 0.4734
611.50 0.4731
611.60 0.4728
611.70 0.4725
611.80 0.4722
611.90 0.4719
612.00 0.4716
612.10 0.4714
612.20 0.4711
612.30 0.4708
612.40 0.4705
612.50 0.4702
612.60 0.4699
612.70 0.4696
612.80 0.4693
612.90 0.469
613.00 0.4688
613.10 0.4685
613.20 0.4682
613.30 0.4679
613.40 0.4676
613.50 0.4673
613.60 0.467
613.70 0.4667
613.80 0.4664
613.90 0.4662
614.00 0.4659
614.10 0.4656
614.20 0.4653
614.30 0.465
614.40 0.4647
614.50 0.4644
614.60 0.4642
614.70 0.4639
614.80 0.4636
614.90 0.4633
615.00 0.463
615.10 0.4627
615.20 0.4625
615.30 0.4622
615.40 0.4619
615.50 0.4616
615.60 0.4613
615.70 0.461
615.80 0.4608
615.90 0.4605
616.00 0.4602
616.10 0.4599
616.20 0.4596
616.30 0.4593
616.40 0.4591
616.50 0.4588
616.60 0.4585
616.70 0.4582
616.80 0.4579
616.90 0.4577
617.00 0.4574
617.10 0.4571
617.20 0.4568
617.30 0.4565
617.40 0.4563
617.50 0.456
617.60 0.4557
617.70 0.4554
617.80 0.4551
617.90 0.4549
618.00 0.4546
618.10 0.4543
618.20 0.454
618.30 0.4538
618.40 0.4535
618.50 0.4532
618.60 0.4529
618.70 0.4526
618.80 0.4524
618.90 0.4521
619.00 0.4518
619.10 0.4515
619.20 0.4513
619.30 0.451
619.40 0.4507
619.50 0.4504
619.60 0.4502
619.70 0.4499
619.80 0.4496
619.90 0.4493
620.00 0.4491
620.10 0.4488
620.20 0.4485
620.30 0.4482
620.40 0.448
620.50 0.4477
620.60 0.4474
620.70 0.4472
620.80 0.4469
620.90 0.4466
621.00 0.4463
621.10 0.4461
621.20 0.4458
621.30 0.4455
621.40 0.4452
621.50 0.445
621.60 0.4447
621.70 0.4444
621.80 0.4442
621.90 0.4439
622.00 0.4436
622.10 0.4434
622.20 0.4431
622.30 0.4428
622.40 0.4425
622.50 0.4423
622.60 0.442
622.70 0.4417
622.80 0.4415
622.90 0.4412
623.00 0.4409
623.10 0.4407
623.20 0.4404
623.30 0.4401
623.40 0.4399
623.50 0.4396
623.60 0.4393
623.70 0.4391
623.80 0.4388
623.90 0.4385
624.00 0.4383
624.10 0.438
624.20 0.4377
624.30 0.4375
624.40 0.4372
624.50 0.4369
624.60 0.4367
624.70 0.4364
624.80 0.4361
624.90 0.4359
625.00 0.4356
625.10 0.4353
625.20 0.4351
625.30 0.4348
625.40 0.4345
625.50 0.4343
625.60 0.434
625.70 0.4337
625.80 0.4335
625.90 0.4332
626.00 0.433
626.10 0.4327
626.20 0.4324
626.30 0.4322
626.40 0.4319
626.50 0.4316
626.60 0.4314
626.70 0.4311
626.80 0.4309
626.90 0.4306
627.00 0.4303
627.10 0.4301
627.20 0.4298
627.30 0.4295
627.40 0.4293
627.50 0.429
627.60 0.4288
627.70 0.4285
627.80 0.4282
627.90 0.428
628.00 0.4277
628.10 0.4275
628.20 0.4272
628.30 0.4269
628.40 0.4267
628.50 0.4264
628.60 0.4262
628.70 0.4259
628.80 0.4256
628.90 0.4254
629.00 0.4251
629.10 0.4249
629.20 0.4246
629.30 0.4244
629.40 0.4241
629.50 0.4238
629.60 0.4236
629.70 0.4233
629.80 0.4231
629.90 0.4228
630.00 0.4226
630.10 0.4223
630.20 0.422
630.30 0.4218
630.40 0.4215
630.50 0.4213
630.60 0.421
630.70 0.4208
630.80 0.4205
630.90 0.4202
631.00 0.42
631.10 0.4197
631.20 0.4195
631.30 0.4192
631.40 0.419
631.50 0.4187
631.60 0.4185
631.70 0.4182
631.80 0.418
631.90 0.4177
632.00 0.4174
632.10 0.4172
632.20 0.4169
632.30 0.4167
632.40 0.4164
632.50 0.4162
632.60 0.4159
632.70 0.4157
632.80 0.4154
632.90 0.4152
633.00 0.4149
633.10 0.4147
633.20 0.4144
633.30 0.4141
633.40 0.4139
633.50 0.4136
633.60 0.4134
633.70 0.4131
633.80 0.4129
633.90 0.4126
634.00 0.4124
634.10 0.4121
634.20 0.4119
634.30 0.4116
634.40 0.4114
634.50 0.4111
634.60 0.4109
634.70 0.4106
634.80 0.4104
634.90 0.4101
635.00 0.4099
635.10 0.4096
635.20 0.4094
635.30 0.4091
635.40 0.4089
635.50 0.4086
635.60 0.4084
635.70 0.4081
635.80 0.4078
635.90 0.4076
636.00 0.4073
636.10 0.4071
636.20 0.4068
636.30 0.4066
636.40 0.4063
636.50 0.4061
636.60 0.4058
636.70 0.4056
636.80 0.4053
636.90 0.4051
637.00 0.4048
637.10 0.4046
637.20 0.4043
637.30 0.4041
637.40 0.4038
637.50 0.4036
637.60 0.4033
637.70 0.4031
637.80 0.4028
637.90 0.4026
638.00 0.4023
638.10 0.4021
638.20 0.4018
638.30 0.4016
638.40 0.4013
638.50 0.4011
638.60 0.4008
638.70 0.4006
638.80 0.4003
638.90 0.4001
639.00 0.3998
639.10 0.3996
639.20 0.3993
639.30 0.3991
639.40 0.3988
639.50 0.3985
639.60 0.3983
639.70 0.398
639.80 0.3978
639.90 0.3975
640.00 0.3973
640.10 0.397
640.20 0.3968
640.30 0.3965
640.40 0.3963
640.50 0.396
640.60 0.3958
640.70 0.3955
640.80 0.3953
640.90 0.395
641.00 0.3947
641.10 0.3945
641.20 0.3942
641.30 0.394
641.40 0.3937
641.50 0.3935
641.60 0.3932
641.70 0.3929
641.80 0.3927
641.90 0.3924
642.00 0.3922
642.10 0.3919
642.20 0.3917
642.30 0.3914
642.40 0.3911
642.50 0.3909
642.60 0.3906
642.70 0.3903
642.80 0.3901
642.90 0.3898
643.00 0.3895
643.10 0.3893
643.20 0.389
643.30 0.3888
643.40 0.3885
643.50 0.3882
643.60 0.3879
643.70 0.3877
643.80 0.3874
643.90 0.3871
644.00 0.3869
644.10 0.3866
644.20 0.3863
644.30 0.3861
644.40 0.3858
644.50 0.3855
644.60 0.3852
644.70 0.3849
644.80 0.3846
644.90 0.3844
645.00 0.3841
645.10 0.3838
645.20 0.3835
645.30 0.3832
645.40 0.3829
645.50 0.3826
645.60 0.3824
645.70 0.3821
645.80 0.3818
645.90 0.3815
646.00 0.3812
646.10 0.3809
646.20 0.3806
646.30 0.3803
646.40 0.38
646.50 0.3796
646.60 0.3793
646.70 0.379
646.80 0.3787
646.90 0.3784
647.00 0.378
647.10 0.3777
647.20 0.3774
647.30 0.3771
647.40 0.3767
647.50 0.3764
647.60 0.376
647.70 0.3757
647.80 0.3753
647.90 0.375
648.00 0.3746
648.10 0.3743
648.20 0.3739
648.30 0.3736
648.40 0.3732
648.50 0.3728
648.60 0.3724
648.70 0.372
648.80 0.3715
648.90 0.3711
649.00 0.3707
649.10 0.3703
649.20 0.3699
649.30 0.3695
649.40 0.369
649.50 0.3686
649.60 0.3681
649.70 0.3676
649.80 0.3671
649.90 0.3666
650.00 0.3661
650.10 0.3657
650.20 0.3652
650.30 0.3647
650.40 0.3641
650.50 0.3635
650.60 0.3628
650.70 0.3622
650.80 0.3616
650.90 0.361
651.00 0.3604
651.10 0.3598
651.20 0.3592
651.30 0.3585
651.40 0.3577
651.50 0.3569
651.60 0.3561
651.70 0.3553
651.80 0.3545
651.90 0.3537
652.00 0.3528
652.10 0.352
652.20 0.3512
652.30 0.3503
652.40 0.3492
652.50 0.348
652.60 0.3469
652.70 0.3457
652.80 0.3445
652.90 0.3434
653.00 0.3422
653.10 0.3411
653.20 0.3399
653.30 0.3387
653.40 0.3369
653.50 0.3352
653.60 0.3335
653.70 0.3317
653.80 0.33
653.90 0.3283
654.00 0.3265
654.10 0.3248
654.20 0.3231
654.30 0.3212
654.40 0.3188
654.50 0.3164
654.60 0.314
654.70 0.3116
654.80 0.309
654.90 0.3059
655.00 0.3028
655.10 0.2997
655.20 0.2965
655.30 0.2933
655.40 0.2894
655.50 0.2855
655.60 0.2811
655.70 0.2765
655.80 0.2713
655.90 0.2659
656.00 0.2594
656.10 0.2527
656.20 0.2388
656.30 0.2119
656.40 0.2459
656.50 0.2547
656.60 0.261
656.70 0.2669
656.80 0.2718
656.90 0.2766
657.00 0.2807
657.10 0.2846
657.20 0.2881
657.30 0.2915
657.40 0.2943
657.50 0.297
657.60 0.2998
657.70 0.3026
657.80 0.3052
657.90 0.3072
658.00 0.3092
658.10 0.3113
658.20 0.3133
658.30 0.3152
658.40 0.3165
658.50 0.3179
658.60 0.3192
658.70 0.3205
658.80 0.3218
658.90 0.3232
659.00 0.3245
659.10 0.3258
659.20 0.3272
659.30 0.3284
659.40 0.3291
659.50 0.3298
659.60 0.3306
659.70 0.3313
659.80 0.332
659.90 0.3328
660.00 0.3335
660.10 0.3342
660.20 0.335
660.30 0.3356
660.40 0.336
660.50 0.3364
660.60 0.3368
660.70 0.3372
660.80 0.3376
660.90 0.3379
661.00 0.3383
661.10 0.3387
661.20 0.3391
661.30 0.3394
661.40 0.3396
661.50 0.3398
661.60 0.34
661.70 0.3401
661.80 0.3403
661.90 0.3405
662.00 0.3407
662.10 0.3408
662.20 0.341
662.30 0.3412
662.40 0.3412
662.50 0.3413
662.60 0.3413
662.70 0.3414
662.80 0.3414
662.90 0.3415
663.00 0.3415
663.10 0.3416
663.20 0.3416
663.30 0.3416
663.40 0.3416
663.50 0.3416
663.60 0.3415
663.70 0.3415
663.80 0.3415
663.90 0.3415
664.00 0.3414
664.10 0.3414
664.20 0.3414
664.30 0.3413
664.40 0.3413
664.50 0.3412
664.60 0.3411
664.70 0.341
664.80 0.3409
664.90 0.3409
665.00 0.3408
665.10 0.3407
665.20 0.3406
665.30 0.3405
665.40 0.3404
665.50 0.3403
665.60 0.3402
665.70 0.3401
665.80 0.34
665.90 0.3399
666.00 0.3398
666.10 0.3397
666.20 0.3395
666.30 0.3394
666.40 0.3393
666.50 0.3392
666.60 0.339
666.70 0.3389
666.80 0.3388
666.90 0.3386
667.00 0.3385
667.10 0.3384
667.20 0.3382
667.30 0.3381
667.40 0.338
667.50 0.3378
667.60 0.3377
667.70 0.3375
667.80 0.3374
667.90 0.3372
668.00 0.3371
668.10 0.3369
668.20 0.3368
668.30 0.3367
668.40 0.3365
668.50 0.3363
668.60 0.3362
668.70 0.336
668.80 0.3359
668.90 0.3357
669.00 0.3356
669.10 0.3354
669.20 0.3353
669.30 0.3351
669.40 0.3349
669.50 0.3348
669.60 0.3346
669.70 0.3345
669.80 0.3343
669.90 0.3341
670.00 0.334
670.10 0.3338
670.20 0.3336
670.30 0.3335
670.40 0.3333
670.50 0.3332
670.60 0.333
670.70 0.3328
670.80 0.3327
670.90 0.3325
671.00 0.3323
671.10 0.3322
671.20 0.332
671.30 0.3318
671.40 0.3317
671.50 0.3315
671.60 0.3313
671.70 0.3311
671.80 0.331
671.90 0.3308
672.00 0.3306
672.10 0.3305
672.20 0.3303
672.30 0.3301
672.40 0.33
672.50 0.3298
672.60 0.3296
672.70 0.3294
672.80 0.3293
672.90 0.3291
673.00 0.3289
673.10 0.3288
673.20 0.3286
673.30 0.3284
673.40 0.3282
673.50 0.3281
673.60 0.3279
673.70 0.3277
673.80 0.3275
673.90 0.3274
674.00 0.3272
674.10 0.327
674.20 0.3269
674.30 0.3267
674.40 0.3265
674.50 0.3263
674.60 0.3262
674.70 0.326
674.80 0.3258
674.90 0.3256
675.00 0.3255
675.10 0.3253
675.20 0.3251
675.30 0.325
675.40 0.3248
675.50 0.3246
675.60 0.3244
675.70 0.3243
675.80 0.3241
675.90 0.3239
676.00 0.3237
676.10 0.3236
676.20 0.3234
676.30 0.3232
676.40 0.323
676.50 0.3229
676.60 0.3227
676.70 0.3225
676.80 0.3223
676.90 0.3222
677.00 0.322
677.10 0.3218
677.20 0.3217
677.30 0.3215
677.40 0.3213
677.50 0.3211
677.60 0.321
677.70 0.3208
677.80 0.3206
677.90 0.3204
678.00 0.3203
678.10 0.3201
678.20 0.3199
678.30 0.3197
678.40 0.3196
678.50 0.3194
678.60 0.3192
678.70 0.3191
678.80 0.3189
678.90 0.3187
679.00 0.3185
679.10 0.3184
679.20 0.3182
679.30 0.318
679.40 0.3178
679.50 0.3177
679.60 0.3175
679.70 0.3173
679.80 0.3172
679.90 0.317
680.00 0.3168
680.10 0.3166
680.20 0.3165
680.30 0.3163
680.40 0.3161
680.50 0.3159
680.60 0.3158
680.70 0.3156
680.80 0.3154
680.90 0.3153
681.00 0.3151
681.10 0.3149
681.20 0.3147
681.30 0.3146
681.40 0.3144
681.50 0.3142
681.60 0.3141
681.70 0.3139
681.80 0.3137
681.90 0.3135
682.00 0.3134
682.10 0.3132
682.20 0.313
682.30 0.3129
682.40 0.3127
682.50 0.3125
682.60 0.3123
682.70 0.3122
682.80 0.312
682.90 0.3118
683.00 0.3117
683.10 0.3115
683.20 0.3113
683.30 0.3112
683.40 0.311
683.50 0.3108
683.60 0.3106
683.70 0.3105
683.80 0.3103
683.90 0.3101
684.00 0.31
684.10 0.3098
684.20 0.3096
684.30 0.3095
684.40 0.3093
684.50 0.3091
684.60 0.309
684.70 0.3088
684.80 0.3086
684.90 0.3085
685.00 0.3083
685.10 0.3081
685.20 0.3079
685.30 0.3078
685.40 0.3076
685.50 0.3074
685.60 0.3073
685.70 0.3071
685.80 0.3069
685.90 0.3068
686.00 0.3066
686.10 0.3064
686.20 0.3063
686.30 0.3061
686.40 0.3059
686.50 0.3058
686.60 0.3056
686.70 0.3054
686.80 0.3053
686.90 0.3051
687.00 0.3049
687.10 0.3048
687.20 0.3046
687.30 0.3044
687.40 0.3043
687.50 0.3041
687.60 0.3039
687.70 0.3038
687.80 0.3036
687.90 0.3034
688.00 0.3033
688.10 0.3031
688.20 0.3029
688.30 0.3028
688.40 0.3026
688.50 0.3025
688.60 0.3023
688.70 0.3021
688.80 0.302
688.90 0.3018
689.00 0.3016
689.10 0.3015
689.20 0.3013
689.30 0.3011
689.40 0.301
689.50 0.3008
689.60 0.3006
689.70 0.3005
689.80 0.3003
689.90 0.3002
690.00 0.3
690.10 0.2998
690.20 0.2997
690.30 0.2995
690.40 0.2993
690.50 0.2992
690.60 0.299
690.70 0.2989
690.80 0.2987
690.90 0.2985
691.00 0.2984
691.10 0.2982
691.20 0.298
691.30 0.2979
691.40 0.2977
691.50 0.2976
691.60 0.2974
691.70 0.2972
691.80 0.2971
691.90 0.2969
692.00 0.2967
692.10 0.2966
692.20 0.2964
692.30 0.2963
692.40 0.2961
692.50 0.2959
692.60 0.2958
692.70 0.2956
692.80 0.2955
692.90 0.2953
693.00 0.2951
693.10 0.295
693.20 0.2948
693.30 0.2947
693.40 0.2945
693.50 0.2943
693.60 0.2942
693.70 0.294
693.80 0.2939
693.90 0.2937
694.00 0.2935
694.10 0.2934
694.20 0.2932
694.30 0.2931
694.40 0.2929
694.50 0.2927
694.60 0.2926
694.70 0.2924
694.80 0.2923
694.90 0.2921
695.00 0.2919
695.10 0.2918
695.20 0.2916
695.30 0.2915
695.40 0.2913
695.50 0.2912
695.60 0.291
695.70 0.2908
695.80 0.2907
695.90 0.2905
696.00 0.2904
696.10 0.2902
696.20 0.2901
696.30 0.2899
696.40 0.2897
696.50 0.2896
696.60 0.2894
696.70 0.2893
696.80 0.2891
696.90 0.289
697.00 0.2888
697.10 0.2886
697.20 0.2885
697.30 0.2883
697.40 0.2882
697.50 0.288
697.60 0.2879
697.70 0.2877
697.80 0.2876
697.90 0.2874
698.00 0.2872
698.10 0.2871
698.20 0.2869
698.30 0.2868
698.40 0.2866
698.50 0.2865
698.60 0.2863
698.70 0.2862
698.80 0.286
698.90 0.2858
699.00 0.2857
699.10 0.2855
699.20 0.2854
699.30 0.2852
699.40 0.2851
699.50 0.2849
699.60 0.2848
699.70 0.2846
699.80 0.2845
699.90 0.2843
700.00 0.2842
700.10 0.284
700.20 0.2838
700.30 0.2837
700.40 0.2835
700.50 0.2834
700.60 0.2832
700.70 0.2831
700.80 0.2829
700.90 0.2828
701.00 0.2826
701.10 0.2825
701.20 0.2823
701.30 0.2822
701.40 0.282
701.50 0.2819
701.60 0.2817
701.70 0.2816
701.80 0.2814
701.90 0.2813
702.00 0.2811
702.10 0.281
702.20 0.2808
702.30 0.2807
702.40 0.2805
702.50 0.2804
702.60 0.2802
702.70 0.2801
702.80 0.2799
702.90 0.2798
703.00 0.2796
703.10 0.2795
703.20 0.2793
703.30 0.2792
703.40 0.279
703.50 0.2789
703.60 0.2787
703.70 0.2786
703.80 0.2784
703.90 0.2783
704.00 0.2781
704.10 0.278
704.20 0.2778
704.30 0.2777
704.40 0.2775
704.50 0.2774
704.60 0.2772
704.70 0.2771
704.80 0.2769
704.90 0.2768
705.00 0.2766
705.10 0.2765
705.20 0.2763
705.30 0.2762
705.40 0.276
705.50 0.2759
705.60 0.2757
705.70 0.2756
705.80 0.2754
705.90 0.2753
706.00 0.2751
706.10 0.275
706.20 0.2748
706.30 0.2747
706.40 0.2746
706.50 0.2744
706.60 0.2743
706.70 0.2741
706.80 0.274
706.90 0.2738
707.00 0.2737
707.10 0.2735
707.20 0.2734
707.30 0.2732
707.40 0.2731
707.50 0.2729
707.60 0.2728
707.70 0.2727
707.80 0.2725
707.90 0.2724
708.00 0.2722
708.10 0.2721
708.20 0.2719
708.30 0.2718
708.40 0.2716
708.50 0.2715
708.60 0.2713
708.70 0.2712
708.80 0.2711
708.90 0.2709
709.00 0.2708
709.10 0.2706
709.20 0.2705
709.30 0.2703
709.40 0.2702
709.50 0.27
709.60 0.2699
709.70 0.2698
709.80 0.2696
709.90 0.2695
710.00 0.2693
710.10 0.2692
710.20 0.269
710.30 0.2689
710.40 0.2687
710.50 0.2686
710.60 0.2685
710.70 0.2683
710.80 0.2682
710.90 0.268
711.00 0.2679
711.10 0.2678
711.20 0.2676
711.30 0.2675
711.40 0.2673
711.50 0.2672
711.60 0.267
711.70 0.2669
711.80 0.2668
711.90 0.2666
712.00 0.2665
712.10 0.2663
712.20 0.2662
712.30 0.2661
712.40 0.2659
712.50 0.2658
712.60 0.2656
712.70 0.2655
712.80 0.2653
712.90 0.2652
713.00 0.2651
713.10 0.2649
713.20 0.2648
713.30 0.2646
713.40 0.2645
713.50 0.2644
713.60 0.2642
713.70 0.2641
713.80 0.2639
713.90 0.2638
714.00 0.2637
714.10 0.2635
714.20 0.2634
714.30 0.2632
714.40 0.2631
714.50 0.263
714.60 0.2628
714.70 0.2627
714.80 0.2625
714.90 0.2624
715.00 0.2623
715.10 0.2621
715.20 0.262
715.30 0.2618
715.40 0.2617
715.50 0.2616
715.60 0.2614
715.70 0.2613
715.80 0.2612
715.90 0.261
716.00 0.2609
716.10 0.2607
716.20 0.2606
716.30 0.2605
716.40 0.2603
716.50 0.2602
716.60 0.2601
716.70 0.2599
716.80 0.2598
716.90 0.2596
717.00 0.2595
717.10 0.2594
717.20 0.2592
717.30 0.2591
717.40 0.259
717.50 0.2588
717.60 0.2587
717.70 0.2586
717.80 0.2584
717.90 0.2583
718.00 0.2581
718.10 0.258
718.20 0.2579
718.30 0.2577
718.40 0.2576
718.50 0.2575
718.60 0.2573
718.70 0.2572
718.80 0.2571
718.90 0.2569
719.00 0.2568
719.10 0.2566
719.20 0.2565
719.30 0.2564
719.40 0.2562
719.50 0.2561
719.60 0.256
719.70 0.2558
719.80 0.2557
719.90 0.2556
720.00 0.2554
720.10 0.2553
720.20 0.2552
720.30 0.255
720.40 0.2549
720.50 0.2548
720.60 0.2546
720.70 0.2545
720.80 0.2544
720.90 0.2542
721.00 0.2541
721.10 0.254
721.20 0.2538
721.30 0.2537
721.40 0.2536
721.50 0.2534
721.60 0.2533
721.70 0.2532
721.80 0.253
721.90 0.2529
722.00 0.2528
722.10 0.2526
722.20 0.2525
722.30 0.2524
722.40 0.2522
722.50 0.2521
722.60 0.252
722.70 0.2518
722.80 0.2517
722.90 0.2516
723.00 0.2514
723.10 0.2513
723.20 0.2512
723.30 0.2511
723.40 0.2509
723.50 0.2508
723.60 0.2507
723.70 0.2505
723.80 0.2504
723.90 0.2503
724.00 0.2501
724.10 0.25
724.20 0.2499
724.30 0.2497
724.40 0.2496
724.50 0.2495
724.60 0.2493
724.70 0.2492
724.80 0.2491
724.90 0.249
725.00 0.2488
725.10 0.2487
725.20 0.2486
725.30 0.2484
725.40 0.2483
725.50 0.2482
725.60 0.248
725.70 0.2479
725.80 0.2478
725.90 0.2477
726.00 0.2475
726.10 0.2474
726.20 0.2473
726.30 0.2471
726.40 0.247
726.50 0.2469
726.60 0.2468
726.70 0.2466
726.80 0.2465
726.90 0.2464
727.00 0.2462
727.10 0.2461
727.20 0.246
727.30 0.2459
727.40 0.2457
727.50 0.2456
727.60 0.2455
727.70 0.2453
727.80 0.2452
727.90 0.2451
728.00 0.245
728.10 0.2448
728.20 0.2447
728.30 0.2446
728.40 0.2445
728.50 0.2443
728.60 0.2442
728.70 0.2441
728.80 0.2439
728.90 0.2438
729.00 0.2437
729.10 0.2436
729.20 0.2434
729.30 0.2433
729.40 0.2432
729.50 0.2431
729.60 0.2429
729.70 0.2428
729.80 0.2427
729.90 0.2425
730.00 0.2424
730.10 0.2423
730.20 0.2422
730.30 0.242
730.40 0.2419
730.50 0.2418
730.60 0.2417
730.70 0.2415
730.80 0.2414
730.90 0.2413
731.00 0.2412
731.10 0.2411
731.20 0.2409
731.30 0.2408
731.40 0.2407
731.50 0.2406
731.60 0.2404
731.70 0.2403
731.80 0.2402
731.90 0.2401
732.00 0.2399
732.10 0.2398
732.20 0.2397
732.30 0.2396
732.40 0.2394
732.50 0.2393
732.60 0.2392
732.70 0.2391
732.80 0.2389
732.90 0.2388
733.00 0.2387
733.10 0.2386
733.20 0.2385
733.30 0.2383
733.40 0.2382
733.50 0.2381
733.60 0.238
733.70 0.2378
733.80 0.2377
733.90 0.2376
734.00 0.2375
734.10 0.2374
734.20 0.2372
734.30 0.2371
734.40 0.237
734.50 0.2369
734.60 0.2367
734.70 0.2366
734.80 0.2365
734.90 0.2364
735.00 0.2363
735.10 0.2361
735.20 0.236
735.30 0.2359
735.40 0.2358
735.50 0.2356
735.60 0.2355
735.70 0.2354
735.80 0.2353
735.90 0.2352
736.00 0.235
736.10 0.2349
736.20 0.2348
736.30 0.2347
736.40 0.2346
736.50 0.2344
736.60 0.2343
736.70 0.2342
736.80 0.2341
736.90 0.2339
737.00 0.2338
737.10 0.2337
737.20 0.2336
737.30 0.2335
737.40 0.2333
737.50 0.2332
737.60 0.2331
737.70 0.233
737.80 0.2329
737.90 0.2327
738.00 0.2326
738.10 0.2325
738.20 0.2324
738.30 0.2323
738.40 0.2321
738.50 0.232
738.60 0.2319
738.70 0.2318
738.80 0.2317
738.90 0.2315
739.00 0.2314
739.10 0.2313
739.20 0.2312
739.30 0.2311
739.40 0.2309
739.50 0.2308
739.60 0.2307
739.70 0.2306
739.80 0.2305
739.90 0.2303
740.00 0.2302
740.10 0.2301
740.20 0.23
740.30 0.2299
740.40 0.2298
740.50 0.2296
740.60 0.2295
740.70 0.2294
740.80 0.2293
740.90 0.2292
741.00 0.2291
741.10 0.2289
741.20 0.2288
741.30 0.2287
741.40 0.2286
741.50 0.2285
741.60 0.2284
741.70 0.2282
741.80 0.2281
741.90 0.228
742.00 0.2279
742.10 0.2278
742.20 0.2277
742.30 0.2276
742.40 0.2274
742.50 0.2273
742.60 0.2272
742.70 0.2271
742.80 0.227
742.90 0.2269
743.00 0.2267
743.10 0.2266
743.20 0.2265
743.30 0.2264
743.40 0.2263
743.50 0.2262
743.60 0.2261
743.70 0.2259
743.80 0.2258
743.90 0.2257
744.00 0.2256
744.10 0.2255
744.20 0.2254
744.30 0.2252
744.40 0.2251
744.50 0.225
744.60 0.2249
744.70 0.2248
744.80 0.2247
744.90 0.2246
745.00 0.2244
745.10 0.2243
745.20 0.2242
745.30 0.2241
745.40 0.224
745.50 0.2239
745.60 0.2238
745.70 0.2236
745.80 0.2235
745.90 0.2234
746.00 0.2233
746.10 0.2232
746.20 0.2231
746.30 0.223
746.40 0.2229
746.50 0.2227
746.60 0.2226
746.70 0.2225
746.80 0.2224
746.90 0.2223
747.00 0.2222
747.10 0.2221
747.20 0.2219
747.30 0.2218
747.40 0.2217
747.50 0.2216
747.60 0.2215
747.70 0.2214
747.80 0.2213
747.90 0.2212
748.00 0.221
748.10 0.2209
748.20 0.2208
748.30 0.2207
748.40 0.2206
748.50 0.2205
748.60 0.2204
748.70 0.2203
748.80 0.2201
748.90 0.22
749.00 0.2199
749.10 0.2198
749.20 0.2197
749.30 0.2196
749.40 0.2195
749.50 0.2194
749.60 0.2192
749.70 0.2191
749.80 0.219
749.90 0.2189
750.00 0.2188
750.10 0.2187
750.20 0.2186
750.30 0.2185
750.40 0.2184
750.50 0.2182
750.60 0.2181
750.70 0.218
750.80 0.2179
750.90 0.2178
751.00 0.2177
751.10 0.2176
751.20 0.2175
751.30 0.2174
751.40 0.2173
751.50 0.2172
751.60 0.217
751.70 0.2169
751.80 0.2168
751.90 0.2167
752.00 0.2166
752.10 0.2165
752.20 0.2164
752.30 0.2163
752.40 0.2162
752.50 0.2161
752.60 0.216
752.70 0.2158
752.80 0.2157
752.90 0.2156
753.00 0.2155
753.10 0.2154
753.20 0.2153
753.30 0.2152
753.40 0.2151
753.50 0.215
753.60 0.2149
753.70 0.2148
753.80 0.2147
753.90 0.2145
754.00 0.2144
754.10 0.2143
754.20 0.2142
754.30 0.2141
754.40 0.214
754.50 0.2139
754.60 0.2138
754.70 0.2137
754.80 0.2136
754.90 0.2135
755.00 0.2134
755.10 0.2133
755.20 0.2132
755.30 0.213
755.40 0.2129
755.50 0.2128
755.60 0.2127
755.70 0.2126
755.80 0.2125
755.90 0.2124
756.00 0.2123
756.10 0.2122
756.20 0.2121
756.30 0.212
756.40 0.2119
756.50 0.2118
756.60 0.2117
756.70 0.2115
756.80 0.2114
756.90 0.2113
757.00 0.2112
757.10 0.2111
757.20 0.211
757.30 0.2109
757.40 0.2108
757.50 0.2107
757.60 0.2106
757.70 0.2105
757.80 0.2104
757.90 0.2103
758.00 0.2102
758.10 0.2101
758.20 0.21
758.30 0.2099
758.40 0.2097
758.50 0.2096
758.60 0.2095
758.70 0.2094
758.80 0.2093
758.90 0.2092
759.00 0.2091
759.10 0.209
759.20 0.2089
759.30 0.2088
759.40 0.2087
759.50 0.2086
759.60 0.2085
759.70 0.2084
759.80 0.2083
759.90 0.2082
760.00 0.2081
760.10 0.208
760.20 0.2079
760.30 0.2078
760.40 0.2076
760.50 0.2075
760.60 0.2074
760.70 0.2073
760.80 0.2072
760.90 0.2071
761.00 0.207
761.10 0.2069
761.20 0.2068
761.30 0.2067
761.40 0.2066
761.50 0.2065
761.60 0.2064
761.70 0.2063
761.80 0.2062
761.90 0.2061
762.00 0.206
762.10 0.2059
762.20 0.2058
762.30 0.2057
762.40 0.2056
762.50 0.2055
762.60 0.2054
762.70 0.2053
762.80 0.2052
762.90 0.2051
763.00 0.205
763.10 0.2049
763.20 0.2048
763.30 0.2047
763.40 0.2046
763.50 0.2045
763.60 0.2044
763.70 0.2043
763.80 0.2042
763.90 0.2041
764.00 0.204
764.10 0.2039
764.20 0.2038
764.30 0.2037
764.40 0.2036
764.50 0.2035
764.60 0.2034
764.70 0.2033
764.80 0.2032
764.90 0.2031
765.00 0.203
765.10 0.2029
765.20 0.2028
765.30 0.2027
765.40 0.2026
765.50 0.2025
765.60 0.2024
765.70 0.2023
765.80 0.2022
765.90 0.2021
766.00 0.202
766.10 0.2019
766.20 0.2018
766.30 0.2017
766.40 0.2016
766.50 0.2015
766.60 0.2014
766.70 0.2013
766.80 0.2012
766.90 0.2011
767.00 0.201
767.10 0.2009
767.20 0.2008
767.30 0.2007
767.40 0.2006
767.50 0.2005
767.60 0.2004
767.70 0.2003
767.80 0.2002
767.90 0.2001
768.00 0.2
768.10 0.1999
768.20 0.1998
768.30 0.1997
768.40 0.1996
768.50 0.1995
768.60 0.1994
768.70 0.1993
768.80 0.1992
768.90 0.1991
769.00 0.199
769.10 0.1989
769.20 0.1988
769.30 0.1987
769.40 0.1986
769.50 0.1985
769.60 0.1984
769.70 0.1983
769.80 0.1982
769.90 0.1981
770.00 0.198
770.10 0.1979
770.20 0.1978
770.30 0.1977
770.40 0.1976
770.50 0.1975
770.60 0.1974
770.70 0.1973
770.80 0.1972
770.90 0.1971
771.00 0.197
771.10 0.1969
771.20 0.1968
771.30 0.1967
771.40 0.1966
771.50 0.1965
771.60 0.1964
771.70 0.1963
771.80 0.1962
771.90 0.1961
772.00 0.196
772.10 0.196
772.20 0.1959
772.30 0.1958
772.40 0.1957
772.50 0.1956
772.60 0.1955
772.70 0.1954
772.80 0.1953
772.90 0.1952
773.00 0.1951
773.10 0.195
773.20 0.1949
773.30 0.1948
773.40 0.1947
773.50 0.1946
773.60 0.1945
773.70 0.1944
773.80 0.1943
773.90 0.1942
774.00 0.1941
774.10 0.194
774.20 0.1939
774.30 0.1938
774.40 0.1938
774.50 0.1937
774.60 0.1936
774.70 0.1935
774.80 0.1934
774.90 0.1933
775.00 0.1932
775.10 0.1931
775.20 0.193
775.30 0.1929
775.40 0.1928
775.50 0.1927
775.60 0.1926
775.70 0.1925
775.80 0.1924
775.90 0.1923
776.00 0.1922
776.10 0.1921
776.20 0.192
776.30 0.192
776.40 0.1919
776.50 0.1918
776.60 0.1917
776.70 0.1916
776.80 0.1915
776.90 0.1914
777.00 0.1913
777.10 0.1912
777.20 0.1911
777.30 0.191
777.40 0.1909
777.50 0.1908
777.60 0.1907
777.70 0.1906
777.80 0.1905
777.90 0.1905
778.00 0.1904
778.10 0.1903
778.20 0.1902
778.30 0.1901
778.40 0.19
778.50 0.1899
778.60 0.1898
778.70 0.1897
778.80 0.1896
778.90 0.1895
779.00 0.1894
779.10 0.1893
779.20 0.1892
779.30 0.1891
779.40 0.1891
779.50 0.189
779.60 0.1889
779.70 0.1888
779.80 0.1887
779.90 0.1886
780.00 0.1885
780.10 0.1884
780.20 0.1883
780.30 0.1882
780.40 0.1881
780.50 0.188
780.60 0.188
780.70 0.1879
780.80 0.1878
780.90 0.1877
781.00 0.1876
781.10 0.1875
781.20 0.1874
781.30 0.1873
781.40 0.1872
781.50 0.1871
781.60 0.187
781.70 0.187
781.80 0.1869
781.90 0.1868
782.00 0.1867
782.10 0.1866
782.20 0.1865
782.30 0.1864
782.40 0.1863
782.50 0.1862
782.60 0.1861
782.70 0.186
782.80 0.186
782.90 0.1859
783.00 0.1858
783.10 0.1857
783.20 0.1856
783.30 0.1855
783.40 0.1854
783.50 0.1853
783.60 0.1852
783.70 0.1852
783.80 0.1851
783.90 0.185
784.00 0.1849
784.10 0.1848
784.20 0.1847
784.30 0.1846
784.40 0.1845
784.50 0.1844
784.60 0.1843
784.70 0.1843
784.80 0.1842
784.90 0.1841
785.00 0.184
785.10 0.1839
785.20 0.1838
785.30 0.1837
785.40 0.1836
785.50 0.1835
785.60 0.1835
785.70 0.1834
785.80 0.1833
785.90 0.1832
786.00 0.1831
786.10 0.183
786.20 0.1829
786.30 0.1828
786.40 0.1827
786.50 0.1827
786.60 0.1826
786.70 0.1825
786.80 0.1824
786.90 0.1823
787.00 0.1822
787.10 0.1821
787.20 0.182
787.30 0.1819
787.40 0.1819
787.50 0.1818
787.60 0.1817
787.70 0.1816
787.80 0.1815
787.90 0.1814
788.00 0.1813
788.10 0.1812
788.20 0.1812
788.30 0.1811
788.40 0.181
788.50 0.1809
788.60 0.1808
788.70 0.1807
788.80 0.1806
788.90 0.1805
789.00 0.1805
789.10 0.1804
789.20 0.1803
789.30 0.1802
789.40 0.1801
789.50 0.18
789.60 0.1799
789.70 0.1798
789.80 0.1798
789.90 0.1797
790.00 0.1796
790.10 0.1795
790.20 0.1794
790.30 0.1793
790.40 0.1792
790.50 0.1791
790.60 0.1791
790.70 0.179
790.80 0.1789
790.90 0.1788
791.00 0.1787
791.10 0.1786
791.20 0.1786
791.30 0.1785
791.40 0.1784
791.50 0.1783
791.60 0.1782
791.70 0.1781
791.80 0.178
791.90 0.178
792.00 0.1779
792.10 0.1778
792.20 0.1777
792.30 0.1776
792.40 0.1775
792.50 0.1774
792.60 0.1774
792.70 0.1773
792.80 0.1772
792.90 0.1771
793.00 0.177
793.10 0.1769
793.20 0.1769
793.30 0.1768
793.40 0.1767
793.50 0.1766
793.60 0.1765
793.70 0.1764
793.80 0.1763
793.90 0.1763
794.00 0.1762
794.10 0.1761
794.20 0.176
794.30 0.1759
794.40 0.1758
794.50 0.1758
794.60 0.1757
794.70 0.1756
794.80 0.1755
794.90 0.1754
795.00 0.1753
795.10 0.1752
795.20 0.1752
795.30 0.1751
795.40 0.175
795.50 0.1749
795.60 0.1748
795.70 0.1747
795.80 0.1747
795.90 0.1746
796.00 0.1745
796.10 0.1744
796.20 0.1743
796.30 0.1742
796.40 0.1742
796.50 0.1741
796.60 0.174
796.70 0.1739
796.80 0.1738
796.90 0.1737
797.00 0.1737
797.10 0.1736
797.20 0.1735
797.30 0.1734
797.40 0.1733
797.50 0.1732
797.60 0.1732
797.70 0.1731
797.80 0.173
797.90 0.1729
798.00 0.1728
798.10 0.1727
798.20 0.1727
798.30 0.1726
798.40 0.1725
798.50 0.1724
798.60 0.1723
798.70 0.1723
798.80 0.1722
798.90 0.1721
799.00 0.172
799.10 0.1719
799.20 0.1718
799.30 0.1718
799.40 0.1717
799.50 0.1716
799.60 0.1715
799.70 0.1714
799.80 0.1713
799.90 0.1713
800.00 0.1712
800.10 0.1711
800.20 0.171
800.30 0.1709
800.40 0.1709
800.50 0.1708
800.60 0.1707
800.70 0.1706
800.80 0.1705
800.90 0.1705
801.00 0.1704
801.10 0.1703
801.20 0.1702
801.30 0.1701
801.40 0.1701
801.50 0.17
801.60 0.1699
801.70 0.1698
801.80 0.1697
801.90 0.1697
802.00 0.1696
802.10 0.1695
802.20 0.1694
802.30 0.1693
802.40 0.1693
802.50 0.1692
802.60 0.1691
802.70 0.169
802.80 0.1689
802.90 0.1689
803.00 0.1688
803.10 0.1687
803.20 0.1686
803.30 0.1685
803.40 0.1685
803.50 0.1684
803.60 0.1683
803.70 0.1682
803.80 0.1681
803.90 0.1681
804.00 0.168
804.10 0.1679
804.20 0.1678
804.30 0.1677
804.40 0.1677
804.50 0.1676
804.60 0.1675
804.70 0.1674
804.80 0.1673
804.90 0.1673
805.00 0.1672
805.10 0.1671
805.20 0.167
805.30 0.1669
805.40 0.1669
805.50 0.1668
805.60 0.1667
805.70 0.1666
805.80 0.1666
805.90 0.1665
806.00 0.1664
806.10 0.1663
806.20 0.1662
806.30 0.1662
806.40 0.1661
806.50 0.166
806.60 0.1659
806.70 0.1658
806.80 0.1658
806.90 0.1657
807.00 0.1656
807.10 0.1655
807.20 0.1655
807.30 0.1654
807.40 0.1653
807.50 0.1652
807.60 0.1651
807.70 0.1651
807.80 0.165
807.90 0.1649
808.00 0.1648
808.10 0.1647
808.20 0.1647
808.30 0.1646
808.40 0.1645
808.50 0.1644
808.60 0.1644
808.70 0.1643
808.80 0.1642
808.90 0.1641
809.00 0.164
809.10 0.164
809.20 0.1639
809.30 0.1638
809.40 0.1637
809.50 0.1637
809.60 0.1636
809.70 0.1635
809.80 0.1634
809.90 0.1633
810.00 0.1633
810.10 0.1632
810.20 0.1631
810.30 0.163
810.40 0.163
810.50 0.1629
810.60 0.1628
810.70 0.1627
810.80 0.1627
810.90 0.1626
811.00 0.1625
811.10 0.1624
811.20 0.1624
811.30 0.1623
811.40 0.1622
811.50 0.1621
811.60 0.1621
811.70 0.162
811.80 0.1619
811.90 0.1618
812.00 0.1618
812.10 0.1617
812.20 0.1616
812.30 0.1615
812.40 0.1614
812.50 0.1614
812.60 0.1613
812.70 0.1612
812.80 0.1611
812.90 0.1611
813.00 0.161
813.10 0.1609
813.20 0.1608
813.30 0.1608
813.40 0.1607
813.50 0.1606
813.60 0.1605
813.70 0.1605
813.80 0.1604
813.90 0.1603
814.00 0.1602
814.10 0.1602
814.20 0.1601
814.30 0.16
814.40 0.1599
814.50 0.1599
814.60 0.1598
814.70 0.1597
814.80 0.1596
814.90 0.1596
815.00 0.1595
815.10 0.1594
815.20 0.1594
815.30 0.1593
815.40 0.1592
815.50 0.1591
815.60 0.1591
815.70 0.159
815.80 0.1589
815.90 0.1588
816.00 0.1588
816.10 0.1587
816.20 0.1586
816.30 0.1585
816.40 0.1585
816.50 0.1584
816.60 0.1583
816.70 0.1582
816.80 0.1582
816.90 0.1581
817.00 0.158
817.10 0.1579
817.20 0.1579
817.30 0.1578
817.40 0.1577
817.50 0.1576
817.60 0.1576
817.70 0.1575
817.80 0.1574
817.90 0.1574
818.00 0.1573
818.10 0.1572
818.20 0.1571
818.30 0.1571
818.40 0.157
818.50 0.1569
818.60 0.1568
818.70 0.1568
818.80 0.1567
818.90 0.1566
819.00 0.1565
819.10 0.1565
819.20 0.1564
819.30 0.1563
819.40 0.1562
819.50 0.1562
819.60 0.1561
819.70 0.156
819.80 0.156
819.90 0.1559
820.00 0.1558
820.10 0.1557
820.20 0.1557
820.30 0.1556
820.40 0.1555
820.50 0.1554
820.60 0.1554
820.70 0.1553
820.80 0.1552
820.90 0.1552
821.00 0.1551
821.10 0.155
821.20 0.1549
821.30 0.1549
821.40 0.1548
821.50 0.1547
821.60 0.1547
821.70 0.1546
821.80 0.1545
821.90 0.1544
822.00 0.1544
822.10 0.1543
822.20 0.1542
822.30 0.1542
822.40 0.1541
822.50 0.154
822.60 0.1539
822.70 0.1539
822.80 0.1538
822.90 0.1537
823.00 0.1537
823.10 0.1536
823.20 0.1535
823.30 0.1534
823.40 0.1534
823.50 0.1533
823.60 0.1532
823.70 0.1532
823.80 0.1531
823.90 0.153
824.00 0.1529
824.10 0.1529
824.20 0.1528
824.30 0.1527
824.40 0.1527
824.50 0.1526
824.60 0.1525
824.70 0.1525
824.80 0.1524
824.90 0.1523
825.00 0.1522
825.10 0.1522
825.20 0.1521
825.30 0.152
825.40 0.152
825.50 0.1519
825.60 0.1518
825.70 0.1518
825.80 0.1517
825.90 0.1516
826.00 0.1515
826.10 0.1515
826.20 0.1514
826.30 0.1513
826.40 0.1513
826.50 0.1512
826.60 0.1511
826.70 0.151
826.80 0.151
826.90 0.1509
827.00 0.1508
827.10 0.1508
827.20 0.1507
827.30 0.1506
827.40 0.1506
827.50 0.1505
827.60 0.1504
827.70 0.1504
827.80 0.1503
827.90 0.1502
828.00 0.1501
828.10 0.1501
828.20 0.15
828.30 0.1499
828.40 0.1499
828.50 0.1498
828.60 0.1497
828.70 0.1497
828.80 0.1496
828.90 0.1495
829.00 0.1495
829.10 0.1494
829.20 0.1493
829.30 0.1492
829.40 0.1492
829.50 0.1491
829.60 0.149
829.70 0.149
829.80 0.1489
829.90 0.1488
830.00 0.1488
830.10 0.1487
830.20 0.1486
830.30 0.1486
830.40 0.1485
830.50 0.1484
830.60 0.1484
830.70 0.1483
830.80 0.1482
830.90 0.1481
831.00 0.1481
831.10 0.148
831.20 0.1479
831.30 0.1479
831.40 0.1478
831.50 0.1477
831.60 0.1477
831.70 0.1476
831.80 0.1475
831.90 0.1475
832.00 0.1474
832.10 0.1473
832.20 0.1473
832.30 0.1472
832.40 0.1471
832.50 0.1471
832.60 0.147
832.70 0.1469
832.80 0.1468
832.90 0.1468
833.00 0.1467
833.10 0.1466
833.20 0.1466
833.30 0.1465
833.40 0.1464
833.50 0.1464
833.60 0.1463
833.70 0.1462
833.80 0.1462
833.90 0.1461
834.00 0.146
834.10 0.146
834.20 0.1459
834.30 0.1458
834.40 0.1458
834.50 0.1457
834.60 0.1456
834.70 0.1455
834.80 0.1455
834.90 0.1454
835.00 0.1453
835.10 0.1453
835.20 0.1452
835.30 0.1451
835.40 0.1451
835.50 0.145
835.60 0.1449
835.70 0.1449
835.80 0.1448
835.90 0.1447
836.00 0.1447
836.10 0.1446
836.20 0.1445
836.30 0.1445
836.40 0.1444
836.50 0.1443
836.60 0.1443
836.70 0.1442
836.80 0.1441
836.90 0.1441
837.00 0.144
837.10 0.1439
837.20 0.1439
837.30 0.1438
837.40 0.1437
837.50 0.1437
837.60 0.1436
837.70 0.1435
837.80 0.1435
837.90 0.1434
838.00 0.1433
838.10 0.1433
838.20 0.1432
838.30 0.1431
838.40 0.1431
838.50 0.143
838.60 0.1429
838.70 0.1429
838.80 0.1428
838.90 0.1427
839.00 0.1427
839.10 0.1426
839.20 0.1425
839.30 0.1425
839.40 0.1424
839.50 0.1423
839.60 0.1423
839.70 0.1422
839.80 0.1421
839.90 0.1421
840.00 0.142
840.10 0.1419
840.20 0.1419
840.30 0.1418
840.40 0.1418
840.50 0.1417
840.60 0.1416
840.70 0.1416
840.80 0.1415
840.90 0.1414
841.00 0.1414
841.10 0.1413
841.20 0.1412
841.30 0.1412
841.40 0.1411
841.50 0.141
841.60 0.141
841.70 0.1409
841.80 0.1408
841.90 0.1408
842.00 0.1407
842.10 0.1406
842.20 0.1406
842.30 0.1405
842.40 0.1404
842.50 0.1404
842.60 0.1403
842.70 0.1403
842.80 0.1402
842.90 0.1401
843.00 0.1401
843.10 0.14
843.20 0.1399
843.30 0.1399
843.40 0.1398
843.50 0.1397
843.60 0.1397
843.70 0.1396
843.80 0.1396
843.90 0.1395
844.00 0.1394
844.10 0.1394
844.20 0.1393
844.30 0.1392
844.40 0.1392
844.50 0.1391
844.60 0.139
844.70 0.139
844.80 0.1389
844.90 0.1388
845.00 0.1388
845.10 0.1387
845.20 0.1387
845.30 0.1386
845.40 0.1385
845.50 0.1385
845.60 0.1384
845.70 0.1383
845.80 0.1383
845.90 0.1382
846.00 0.1382
846.10 0.1381
846.20 0.138
846.30 0.138
846.40 0.1379
846.50 0.1378
846.60 0.1378
846.70 0.1377
846.80 0.1376
846.90 0.1376
847.00 0.1375
847.10 0.1375
847.20 0.1374
847.30 0.1373
847.40 0.1373
847.50 0.1372
847.60 0.1371
847.70 0.1371
847.80 0.137
847.90 0.137
848.00 0.1369
848.10 0.1368
848.20 0.1368
848.30 0.1367
848.40 0.1366
848.50 0.1366
848.60 0.1365
848.70 0.1365
848.80 0.1364
848.90 0.1363
849.00 0.1363
849.10 0.1362
849.20 0.1361
849.30 0.1361
849.40 0.136
849.50 0.136
849.60 0.1359
849.70 0.1358
849.80 0.1358
849.90 0.1357
850.00 0.1357
850.10 0.1356
850.20 0.1355
850.30 0.1355
850.40 0.1354
850.50 0.1353
850.60 0.1353
850.70 0.1352
850.80 0.1352
850.90 0.1351
851.00 0.135
851.10 0.135
851.20 0.1349
851.30 0.1349
851.40 0.1348
851.50 0.1347
851.60 0.1347
851.70 0.1346
851.80 0.1345
851.90 0.1345
852.00 0.1344
852.10 0.1344
852.20 0.1343
852.30 0.1342
852.40 0.1342
852.50 0.1341
852.60 0.1341
852.70 0.134
852.80 0.1339
852.90 0.1339
853.00 0.1338
853.10 0.1338
853.20 0.1337
853.30 0.1336
853.40 0.1336
853.50 0.1335
853.60 0.1335
853.70 0.1334
853.80 0.1333
853.90 0.1333
854.00 0.1332
854.10 0.1332
854.20 0.1331
854.30 0.133
854.40 0.133
854.50 0.1329
854.60 0.1329
854.70 0.1328
854.80 0.1327
854.90 0.1327
855.00 0.1326
855.10 0.1326
855.20 0.1325
855.30 0.1324
855.40 0.1324
855.50 0.1323
855.60 0.1323
855.70 0.1322
855.80 0.1321
855.90 0.1321
856.00 0.132
856.10 0.132
856.20 0.1319
856.30 0.1319
856.40 0.1318
856.50 0.1317
856.60 0.1317
856.70 0.1316
856.80 0.1316
856.90 0.1315
857.00 0.1314
857.10 0.1314
857.20 0.1313
857.30 0.1313
857.40 0.1312
857.50 0.1311
857.60 0.1311
857.70 0.131
857.80 0.131
857.90 0.1309
858.00 0.1309
858.10 0.1308
858.20 0.1307
858.30 0.1307
858.40 0.1306
858.50 0.1306
858.60 0.1305
858.70 0.1305
858.80 0.1304
858.90 0.1303
859.00 0.1303
859.10 0.1302
859.20 0.1302
859.30 0.1301
859.40 0.1301
859.50 0.13
859.60 0.1299
859.70 0.1299
859.80 0.1298
859.90 0.1298
860.00 0.1297
860.10 0.1296
860.20 0.1296
860.30 0.1295
860.40 0.1295
860.50 0.1294
860.60 0.1294
860.70 0.1293
860.80 0.1292
860.90 0.1292
861.00 0.1291
861.10 0.1291
861.20 0.129
861.30 0.129
861.40 0.1289
861.50 0.1288
861.60 0.1288
861.70 0.1287
861.80 0.1287
861.90 0.1286
862.00 0.1286
862.10 0.1285
862.20 0.1285
862.30 0.1284
862.40 0.1283
862.50 0.1283
862.60 0.1282
862.70 0.1282
862.80 0.1281
862.90 0.1281
863.00 0.128
863.10 0.1279
863.20 0.1279
863.30 0.1278
863.40 0.1278
863.50 0.1277
863.60 0.1277
863.70 0.1276
863.80 0.1276
863.90 0.1275
864.00 0.1274
864.10 0.1274
864.20 0.1273
864.30 0.1273
864.40 0.1272
864.50 0.1272
864.60 0.1271
864.70 0.127
864.80 0.127
864.90 0.1269
865.00 0.1269
865.10 0.1268
865.20 0.1268
865.30 0.1267
865.40 0.1267
865.50 0.1266
865.60 0.1265
865.70 0.1265
865.80 0.1264
865.90 0.1264
866.00 0.1263
866.10 0.1263
866.20 0.1262
866.30 0.1262
866.40 0.1261
866.50 0.126
866.60 0.126
866.70 0.1259
866.80 0.1259
866.90 0.1258
867.00 0.1258
867.10 0.1257
867.20 0.1257
867.30 0.1256
867.40 0.1256
867.50 0.1255
867.60 0.1254
867.70 0.1254
867.80 0.1253
867.90 0.1253
868.00 0.1252
868.10 0.1252
868.20 0.1251
868.30 0.1251
868.40 0.125
868.50 0.125
868.60 0.1249
868.70 0.1249
868.80 0.1248
868.90 0.1247
869.00 0.1247
869.10 0.1246
869.20 0.1246
869.30 0.1245
869.40 0.1245
869.50 0.1244
869.60 0.1244
869.70 0.1243
869.80 0.1243
869.90 0.1242
870.00 0.1242
870.10 0.1241
870.20 0.1241
870.30 0.124
870.40 0.1239
870.50 0.1239
870.60 0.1238
870.70 0.1238
870.80 0.1237
870.90 0.1237
871.00 0.1236
871.10 0.1236
871.20 0.1235
871.30 0.1235
871.40 0.1234
871.50 0.1234
871.60 0.1233
871.70 0.1233
871.80 0.1232
871.90 0.1231
872.00 0.1231
872.10 0.123
872.20 0.123
872.30 0.1229
872.40 0.1229
872.50 0.1228
872.60 0.1228
872.70 0.1227
872.80 0.1227
872.90 0.1226
873.00 0.1226
873.10 0.1225
873.20 0.1225
873.30 0.1224
873.40 0.1224
873.50 0.1223
873.60 0.1223
873.70 0.1222
873.80 0.1222
873.90 0.1221
874.00 0.1221
874.10 0.122
874.20 0.1219
874.30 0.1219
874.40 0.1218
874.50 0.1218
874.60 0.1217
874.70 0.1217
874.80 0.1216
874.90 0.1216
875.00 0.1215
875.10 0.1215
875.20 0.1214
875.30 0.1214
875.40 0.1213
875.50 0.1213
875.60 0.1212
875.70 0.1212
875.80 0.1211
875.90 0.1211
876.00 0.121
876.10 0.121
876.20 0.1209
876.30 0.1209
876.40 0.1208
876.50 0.1208
876.60 0.1207
876.70 0.1207
876.80 0.1206
876.90 0.1206
877.00 0.1205
877.10 0.1205
877.20 0.1204
877.30 0.1204
877.40 0.1203
877.50 0.1203
877.60 0.1202
877.70 0.1201
877.80 0.1201
877.90 0.12
878.00 0.12
878.10 0.1199
878.20 0.1199
878.30 0.1198
878.40 0.1198
878.50 0.1197
878.60 0.1197
878.70 0.1196
878.80 0.1196
878.90 0.1195
879.00 0.1195
879.10 0.1194
879.20 0.1194
879.30 0.1193
879.40 0.1193
879.50 0.1192
879.60 0.1192
879.70 0.1191
879.80 0.1191
879.90 0.119
880.00 0.119
880.10 0.1189
880.20 0.1189
880.30 0.1188
880.40 0.1188
880.50 0.1187
880.60 0.1187
880.70 0.1186
880.80 0.1186
880.90 0.1185
881.00 0.1185
881.10 0.1184
881.20 0.1184
881.30 0.1183
881.40 0.1183
881.50 0.1182
881.60 0.1182
881.70 0.1181
881.80 0.1181
881.90 0.118
882.00 0.118
882.10 0.1179
882.20 0.1179
882.30 0.1178
882.40 0.1178
882.50 0.1177
882.60 0.1177
882.70 0.1176
882.80 0.1176
882.90 0.1175
883.00 0.1175
883.10 0.1174
883.20 0.1174
883.30 0.1173
883.40 0.1173
883.50 0.1172
883.60 0.1172
883.70 0.1171
883.80 0.1171
883.90 0.117
884.00 0.117
884.10 0.1169
884.20 0.1169
884.30 0.1168
884.40 0.1168
884.50 0.1167
884.60 0.1167
884.70 0.1166
884.80 0.1166
884.90 0.1165
885.00 0.1165
885.10 0.1164
885.20 0.1164
885.30 0.1163
885.40 0.1162
885.50 0.1162
885.60 0.1161
885.70 0.1161
885.80 0.116
885.90 0.116
886.00 0.1159
886.10 0.1159
886.20 0.1158
886.30 0.1158
886.40 0.1157
886.50 0.1157
886.60 0.1156
886.70 0.1156
886.80 0.1155
886.90 0.1155
887.00 0.1154
887.10 0.1154
887.20 0.1154
887.30 0.1153
887.40 0.1153
887.50 0.1152
887.60 0.1152
887.70 0.1151
887.80 0.1151
887.90 0.115
888.00 0.115
888.10 0.115
888.20 0.1149
888.30 0.1149
888.40 0.1148
888.50 0.1148
888.60 0.1147
888.70 0.1147
888.80 0.1147
888.90 0.1146
889.00 0.1146
889.10 0.1145
889.20 0.1145
889.30 0.1144
889.40 0.1144
889.50 0.1143
889.60 0.1143
889.70 0.1143
889.80 0.1142
889.90 0.1142
890.00 0.1141
890.10 0.1141
890.20 0.114
890.30 0.114
890.40 0.114
890.50 0.1139
890.60 0.1139
890.70 0.1138
890.80 0.1138
890.90 0.1137
891.00 0.1137
891.10 0.1137
891.20 0.1136
891.30 0.1136
891.40 0.1135
891.50 0.1135
891.60 0.1134
891.70 0.1134
891.80 0.1133
891.90 0.1133
892.00 0.1133
892.10 0.1132
892.20 0.1132
892.30 0.1131
892.40 0.1131
892.50 0.113
892.60 0.113
892.70 0.1129
892.80 0.1128
892.90 0.1128
893.00 0.1127
893.10 0.1127
893.20 0.1126
893.30 0.1126
893.40 0.1125
893.50 0.1125
893.60 0.1124
893.70 0.1124
893.80 0.1123
893.90 0.1123
894.00 0.1122
894.10 0.1122
894.20 0.1121
894.30 0.1121
894.40 0.112
894.50 0.112
894.60 0.1119
894.70 0.1119
894.80 0.1118
894.90 0.1118
895.00 0.1117
895.10 0.1117
895.20 0.1116
895.30 0.1116
895.40 0.1115
895.50 0.1115
895.60 0.1114
895.70 0.1113
895.80 0.1113
895.90 0.1112
896.00 0.1112
896.10 0.1111
896.20 0.1111
896.30 0.111
896.40 0.111
896.50 0.1109
896.60 0.1109
896.70 0.1108
896.80 0.1108
896.90 0.1107
897.00 0.1107
897.10 0.1106
897.20 0.1106
897.30 0.1105
897.40 0.1105
897.50 0.1104
897.60 0.1104
897.70 0.1103
897.80 0.1102
897.90 0.1102
898.00 0.1101
898.10 0.1101
898.20 0.11
898.30 0.11
898.40 0.1099
898.50 0.1099
898.60 0.1098
898.70 0.1097
898.80 0.1097
898.90 0.1096
899.00 0.1096
899.10 0.1095
899.20 0.1095
899.30 0.1094
899.40 0.1094
899.50 0.1093
899.60 0.1093
899.70 0.1092
899.80 0.1091
899.90 0.1091
900.00 0.109
900.10 0.109
900.20 0.1089
900.30 0.1089
900.40 0.1088
900.50 0.1088
900.60 0.1087
900.70 0.1087
900.80 0.1086
900.90 0.1085
901.00 0.1085
901.10 0.1084
901.20 0.1084
901.30 0.1083
901.40 0.1083
901.50 0.1082
901.60 0.1082
901.70 0.1081
901.80 0.1081
901.90 0.108
902.00 0.108
902.10 0.1079
902.20 0.1079
902.30 0.1079
902.40 0.1078
902.50 0.1078
902.60 0.1078
902.70 0.1077
902.80 0.1077
902.90 0.1077
903.00 0.1077
903.10 0.1076
903.20 0.1076
903.30 0.1076
903.40 0.1075
903.50 0.1075
903.60 0.1075
903.70 0.1075
903.80 0.1074
903.90 0.1074
904.00 0.1074
904.10 0.1073
904.20 0.1073
904.30 0.1073
904.40 0.1073
904.50 0.1072
904.60 0.1072
904.70 0.1072
904.80 0.1071
904.90 0.1071
905.00 0.1071
905.10 0.1071
905.20 0.107
905.30 0.107
905.40 0.107
905.50 0.1069
905.60 0.1069
905.70 0.1069
905.80 0.1069
905.90 0.1068
906.00 0.1068
906.10 0.1068
906.20 0.1067
906.30 0.1067
906.40 0.1067
906.50 0.1067
906.60 0.1066
906.70 0.1066
906.80 0.1066
906.90 0.1065
907.00 0.1065
907.10 0.1065
907.20 0.1064
907.30 0.1064
907.40 0.1063
907.50 0.1063
907.60 0.1063
907.70 0.1062
907.80 0.1062
907.90 0.1061
908.00 0.1061
908.10 0.1061
908.20 0.106
908.30 0.106
908.40 0.1059
908.50 0.1059
908.60 0.1059
908.70 0.1058
908.80 0.1058
908.90 0.1057
909.00 0.1057
909.10 0.1057
909.20 0.1056
909.30 0.1056
909.40 0.1055
909.50 0.1055
909.60 0.1055
909.70 0.1054
909.80 0.1054
909.90 0.1053
910.00 0.1053
910.10 0.1053
910.20 0.1052
910.30 0.1052
910.40 0.1051
910.50 0.1051
910.60 0.1051
910.70 0.105
910.80 0.105
910.90 0.1049
911.00 0.1049
911.10 0.1049
911.20 0.1048
911.30 0.1048
911.40 0.1048
911.50 0.1047
911.60 0.1047
911.70 0.1046
911.80 0.1046
911.90 0.1046
912.00 0.1045
912.10 0.1045
912.20 0.1044
912.30 0.1043
912.40 0.1043
912.50 0.1042
912.60 0.1042
912.70 0.1041
912.80 0.1041
912.90 0.104
913.00 0.104
913.10 0.1039
913.20 0.1038
913.30 0.1038
913.40 0.1037
913.50 0.1037
913.60 0.1036
913.70 0.1036
913.80 0.1035
913.90 0.1035
914.00 0.1034
914.10 0.1033
914.20 0.1033
914.30 0.1032
914.40 0.1032
914.50 0.1031
914.60 0.1031
914.70 0.103
914.80 0.103
914.90 0.1029
915.00 0.1028
915.10 0.1028
915.20 0.1027
915.30 0.1027
915.40 0.1026
915.50 0.1026
915.60 0.1025
915.70 0.1025
915.80 0.1024
915.90 0.1023
916.00 0.1023
916.10 0.1022
916.20 0.1022
916.30 0.1021
916.40 0.1021
916.50 0.102
916.60 0.102
916.70 0.1019
916.80 0.1018
916.90 0.1018
917.00 0.1017
917.10 0.1017
917.20 0.1016
917.30 0.1015
917.40 0.1015
917.50 0.1014
917.60 0.1013
917.70 0.1012
917.80 0.1012
917.90 0.1011
918.00 0.101
918.10 0.101
918.20 0.1009
918.30 0.1008
918.40 0.1007
918.50 0.1007
918.60 0.1006
918.70 0.1005
918.80 0.1005
918.90 0.1004
919.00 0.1003
919.10 0.1002
919.20 0.1002
919.30 0.1001
919.40 0.1
919.50 0.09996
919.60 0.09989
919.70 0.09982
919.80 0.09975
919.90 0.09967
920.00 0.0996
920.10 0.09953
920.20 0.09946
920.30 0.09939
920.40 0.09932
920.50 0.09925
920.60 0.09918
920.70 0.09911
920.80 0.09904
920.90 0.09897
921.00 0.0989
921.10 0.09883
921.20 0.09876
921.30 0.09869
921.40 0.09862
921.50 0.09855
921.60 0.09848
921.70 0.09841
921.80 0.09834
921.90 0.09827
922.00 0.0982
922.10 0.09818
922.20 0.09816
922.30 0.09815
922.40 0.09813
922.50 0.09812
922.60 0.0981
922.70 0.09808
922.80 0.09807
922.90 0.09805
923.00 0.09804
923.10 0.09802
923.20 0.098
923.30 0.09799
923.40 0.09797
923.50 0.09796
923.60 0.09794
923.70 0.09792
923.80 0.09791
923.90 0.09789
924.00 0.09788
924.10 0.09786
924.20 0.09784
924.30 0.09783
924.40 0.09781
924.50 0.0978
924.60 0.09778
924.70 0.09776
924.80 0.09775
924.90 0.09773
925.00 0.09772
925.10 0.0977
925.20 0.09768
925.30 0.09767
925.40 0.09765
925.50 0.09764
925.60 0.09762
925.70 0.0976
925.80 0.09759
925.90 0.09757
926.00 0.09756
926.10 0.09754
926.20 0.09752
926.30 0.09751
926.40 0.09749
926.50 0.09748
926.60 0.09746
926.70 0.09745
926.80 0.09743
926.90 0.09741
927.00 0.0974
927.10 0.09738
927.20 0.09737
927.30 0.09735
927.40 0.09734
927.50 0.09732
927.60 0.0973
927.70 0.09729
927.80 0.09727
927.90 0.09726
928.00 0.09724
928.10 0.09723
928.20 0.09721
928.30 0.0972
928.40 0.09718
928.50 0.09716
928.60 0.09715
928.70 0.09713
928.80 0.09712
928.90 0.0971
929.00 0.09709
929.10 0.09707
929.20 0.09706
929.30 0.09704
929.40 0.09703
929.50 0.09701
929.60 0.09699
929.70 0.09698
929.80 0.09696
929.90 0.09695
930.00 0.09693
930.10 0.09692
930.20 0.0969
930.30 0.09689
930.40 0.09687
930.50 0.09686
930.60 0.09684
930.70 0.09682
930.80 0.09681
930.90 0.09679
931.00 0.09678
931.10 0.09676
931.20 0.09675
931.30 0.09673
931.40 0.09672
931.50 0.0967
931.60 0.09669
931.70 0.09667
931.80 0.09666
931.90 0.09664
932.00 0.09662
932.10 0.0966
932.20 0.09657
932.30 0.09654
932.40 0.09651
932.50 0.09649
932.60 0.09646
932.70 0.09643
932.80 0.09641
932.90 0.09638
933.00 0.09635
933.10 0.09632
933.20 0.0963
933.30 0.09627
933.40 0.09624
933.50 0.09621
933.60 0.09619
933.70 0.09616
933.80 0.09613
933.90 0.0961
934.00 0.09608
934.10 0.09605
934.20 0.09602
934.30 0.09599
934.40 0.09596
934.50 0.09593
934.60 0.09589
934.70 0.09586
934.80 0.09582
934.90 0.09579
935.00 0.09576
935.10 0.09572
935.20 0.09569
935.30 0.09565
935.40 0.09562
935.50 0.09559
935.60 0.09555
935.70 0.09552
935.80 0.09549
935.90 0.09545
936.00 0.09542
936.10 0.09538
936.20 0.09535
936.30 0.09532
936.40 0.09528
936.50 0.09525
936.60 0.09521
936.70 0.09518
936.80 0.09515
936.90 0.09511
937.00 0.09508
937.10 0.09504
937.20 0.095
937.30 0.09496
937.40 0.09492
937.50 0.09489
937.60 0.09485
937.70 0.09481
937.80 0.09477
937.90 0.09473
938.00 0.09469
938.10 0.09465
938.20 0.09462
938.30 0.09458
938.40 0.09453
938.50 0.09449
938.60 0.09445
938.70 0.09441
938.80 0.09436
938.90 0.09432
939.00 0.09428
939.10 0.09424
939.20 0.09419
939.30 0.09415
939.40 0.09411
939.50 0.09406
939.60 0.09402
939.70 0.09398
939.80 0.09394
939.90 0.09389
940.00 0.09385
940.10 0.09381
940.20 0.09377
940.30 0.09372
940.40 0.09368
940.50 0.09363
940.60 0.09358
940.70 0.09353
940.80 0.09349
940.90 0.09344
941.00 0.09339
941.10 0.09334
941.20 0.0933
941.30 0.09325
941.40 0.0932
941.50 0.09315
941.60 0.09311
941.70 0.09306
941.80 0.09301
941.90 0.09297
942.00 0.09292
942.10 0.09287
942.20 0.09282
942.30 0.09277
942.40 0.09271
942.50 0.09266
942.60 0.0926
942.70 0.09255
942.80 0.0925
942.90 0.09244
943.00 0.09239
943.10 0.09233
943.20 0.09228
943.30 0.09222
943.40 0.09217
943.50 0.09212
943.60 0.09206
943.70 0.09201
943.80 0.09195
943.90 0.0919
944.00 0.09185
944.10 0.09179
944.20 0.09174
944.30 0.09168
944.40 0.09163
944.50 0.09157
944.60 0.09151
944.70 0.09145
944.80 0.09139
944.90 0.09133
945.00 0.09127
945.10 0.09121
945.20 0.09115
945.30 0.09109
945.40 0.09102
945.50 0.09096
945.60 0.09089
945.70 0.09083
945.80 0.09076
945.90 0.09069
946.00 0.09063
946.10 0.09056
946.20 0.0905
946.30 0.09043
946.40 0.09037
946.50 0.0903
946.60 0.09023
946.70 0.09017
946.80 0.0901
946.90 0.09004
947.00 0.08997
947.10 0.0899
947.20 0.08983
947.30 0.08976
947.40 0.08968
947.50 0.0896
947.60 0.08953
947.70 0.08945
947.80 0.08937
947.90 0.08929
948.00 0.08922
948.10 0.08914
948.20 0.08906
948.30 0.08898
948.40 0.08891
948.50 0.08883
948.60 0.08875
948.70 0.08868
948.80 0.0886
948.90 0.08852
949.00 0.08844
949.10 0.08837
949.20 0.08829
949.30 0.08821
949.40 0.08812
949.50 0.08803
949.60 0.08794
949.70 0.08785
949.80 0.08776
949.90 0.08767
950.00 0.08758
950.10 0.08749
950.20 0.0874
950.30 0.08731
950.40 0.08722
950.50 0.08713
950.60 0.08704
950.70 0.08694
950.80 0.08685
950.90 0.08676
951.00 0.08667
951.10 0.08658
951.20 0.08649
951.30 0.0864
951.40 0.0863
951.50 0.08621
951.60 0.08611
951.70 0.08601
951.80 0.08591
951.90 0.08581
952.00 0.08571
952.10 0.08561
952.20 0.0855
952.30 0.0854
952.40 0.0853
952.50 0.0852
952.60 0.08509
952.70 0.08499
952.80 0.08489
952.90 0.08478
953.00 0.08468
953.10 0.08458
953.20 0.08447
953.30 0.08437
953.40 0.08427
953.50 0.08416
953.60 0.08406
953.70 0.08396
953.80 0.08386
953.90 0.08377
954.00 0.08367
954.10 0.08358
954.20 0.08349
954.30 0.0834
954.40 0.08332
954.50 0.08325
954.60 0.08322
954.70 0.08319
954.80 0.08321
954.90 0.08323
955.00 0.08325
955.10 0.08327
955.20 0.0833
955.30 0.08334
955.40 0.08337
955.50 0.08341
955.60 0.08344
955.70 0.08348
955.80 0.08351
955.90 0.08355
956.00 0.08359
956.10 0.08363
956.20 0.08367
956.30 0.0837
956.40 0.08374
956.50 0.08378
956.60 0.08382
956.70 0.08386
956.80 0.08389
956.90 0.08393
957.00 0.08397
957.10 0.084
957.20 0.08404
957.30 0.08408
957.40 0.0841
957.50 0.08413
957.60 0.08416
957.70 0.08418
957.80 0.08421
957.90 0.08424
958.00 0.08426
958.10 0.08429
958.20 0.08432
958.30 0.08435
958.40 0.08437
958.50 0.0844
958.60 0.08443
958.70 0.08445
958.80 0.08448
958.90 0.08451
959.00 0.08453
959.10 0.08456
959.20 0.08459
959.30 0.08461
959.40 0.08463
959.50 0.08464
959.60 0.08465
959.70 0.08466
959.80 0.08468
959.90 0.08469
960.00 0.0847
960.10 0.08471
960.20 0.08473
960.30 0.08474
960.40 0.08475
960.50 0.08476
960.60 0.08478
960.70 0.08479
960.80 0.0848
960.90 0.08481
961.00 0.08483
961.10 0.08484
961.20 0.08485
961.30 0.08486
961.40 0.08487
961.50 0.08487
961.60 0.08487
961.70 0.08488
961.80 0.08488
961.90 0.08489
962.00 0.08489
962.10 0.08489
962.20 0.08489
962.30 0.08488
962.40 0.08488
962.50 0.08488
962.60 0.08488
962.70 0.08488
962.80 0.08488
962.90 0.08487
963.00 0.08487
963.10 0.08487
963.20 0.08487
963.30 0.08487
963.40 0.08486
963.50 0.08485
963.60 0.08485
963.70 0.08484
963.80 0.08483
963.90 0.08483
964.00 0.08482
964.10 0.08481
964.20 0.08481
964.30 0.0848
964.40 0.08479
964.50 0.08477
964.60 0.08476
964.70 0.08475
964.80 0.08473
964.90 0.08472
965.00 0.08471
965.10 0.0847
965.20 0.08468
965.30 0.08467
965.40 0.08466
965.50 0.08465
965.60 0.08463
965.70 0.08462
965.80 0.08461
965.90 0.0846
966.00 0.08458
966.10 0.08457
966.20 0.08456
966.30 0.08455
966.40 0.08453
966.50 0.08451
966.60 0.0845
966.70 0.08448
966.80 0.08446
966.90 0.08445
967.00 0.08443
967.10 0.08441
967.20 0.08439
967.30 0.08437
967.40 0.08435
967.50 0.08433
967.60 0.08431
967.70 0.08429
967.80 0.08428
967.90 0.08426
968.00 0.08424
968.10 0.08422
968.20 0.0842
968.30 0.08418
968.40 0.08416
968.50 0.08413
968.60 0.08411
968.70 0.08409
968.80 0.08407
968.90 0.08404
969.00 0.08402
969.10 0.084
969.20 0.08398
969.30 0.08395
969.40 0.08393
969.50 0.08391
969.60 0.08389
969.70 0.08386
969.80 0.08384
969.90 0.08382
970.00 0.0838
970.10 0.08378
970.20 0.08375
970.30 0.08373
970.40 0.0837
970.50 0.08368
970.60 0.08365
970.70 0.08363
970.80 0.0836
970.90 0.08358
971.00 0.08355
971.10 0.08353
971.20 0.0835
971.30 0.08348
971.40 0.08345
971.50 0.08343
971.60 0.0834
971.70 0.08338
971.80 0.08335
971.90 0.08333
972.00 0.0833
972.10 0.08327
972.20 0.08325
972.30 0.08322
972.40 0.08319
972.50 0.08316
972.60 0.08314
972.70 0.08311
972.80 0.08308
972.90 0.08305
973.00 0.08303
973.10 0.083
973.20 0.08297
973.30 0.08294
973.40 0.08292
973.50 0.08289
973.60 0.08286
973.70 0.08283
973.80 0.08281
973.90 0.08278
974.00 0.08275
974.10 0.08272
974.20 0.0827
974.30 0.08267
974.40 0.08264
974.50 0.08261
974.60 0.08258
974.70 0.08255
974.80 0.08252
974.90 0.08249
975.00 0.08246
975.10 0.08243
975.20 0.0824
975.30 0.08237
975.40 0.08234
975.50 0.08231
975.60 0.08228
975.70 0.08225
975.80 0.08222
975.90 0.08219
976.00 0.08216
976.10 0.08213
976.20 0.0821
976.30 0.08207
976.40 0.08205
976.50 0.08202
976.60 0.08199
976.70 0.08196
976.80 0.08193
976.90 0.0819
977.00 0.08187
977.10 0.08184
977.20 0.0818
977.30 0.08177
977.40 0.08174
977.50 0.08171
977.60 0.08167
977.70 0.08164
977.80 0.08161
977.90 0.08158
978.00 0.08155
978.10 0.08151
978.20 0.08148
978.30 0.08145
978.40 0.08142
978.50 0.08138
978.60 0.08135
978.70 0.08132
978.80 0.08129
978.90 0.08126
979.00 0.08122
979.10 0.08119
979.20 0.08116
979.30 0.08113
979.40 0.08109
979.50 0.08106
979.60 0.08103
979.70 0.081
979.80 0.08097
979.90 0.08093
980.00 0.0809
980.10 0.08087
980.20 0.08084
980.30 0.08081
980.40 0.08077
980.50 0.08074
980.60 0.08071
980.70 0.08068
980.80 0.08065
980.90 0.08061
981.00 0.08058
981.10 0.08055
981.20 0.08052
981.30 0.08049
981.40 0.08046
981.50 0.08042
981.60 0.08039
981.70 0.08036
981.80 0.08033
981.90 0.0803
982.00 0.08026
982.10 0.08023
982.20 0.0802
982.30 0.08016
982.40 0.08013
982.50 0.08009
982.60 0.08006
982.70 0.08002
982.80 0.07999
982.90 0.07995
983.00 0.07992
983.10 0.07988
983.20 0.07985
983.30 0.07981
983.40 0.07978
983.50 0.07975
983.60 0.07971
983.70 0.07968
983.80 0.07964
983.90 0.07961
984.00 0.07957
984.10 0.07954
984.20 0.0795
984.30 0.07947
984.40 0.07944
984.50 0.0794
984.60 0.07937
984.70 0.07933
984.80 0.07929
984.90 0.07926
985.00 0.07922
985.10 0.07918
985.20 0.07915
985.30 0.07911
985.40 0.07907
985.50 0.07904
985.60 0.079
985.70 0.07896
985.80 0.07893
985.90 0.07889
986.00 0.07885
986.10 0.07882
986.20 0.07878
986.30 0.07874
986.40 0.07871
986.50 0.07867
986.60 0.07863
986.70 0.0786
986.80 0.07856
986.90 0.07852
987.00 0.07849
987.10 0.07845
987.20 0.07841
987.30 0.07837
987.40 0.07833
987.50 0.07829
987.60 0.07825
987.70 0.07821
987.80 0.07817
987.90 0.07813
988.00 0.0781
988.10 0.07806
988.20 0.07802
988.30 0.07798
988.40 0.07794
988.50 0.0779
988.60 0.07786
988.70 0.07782
988.80 0.07778
988.90 0.07774
989.00 0.07769
989.10 0.07765
989.20 0.07761
989.30 0.07757
989.40 0.07753
989.50 0.07748
989.60 0.07744
989.70 0.0774
989.80 0.07736
989.90 0.07732
990.00 0.07727
990.10 0.07723
990.20 0.07719
990.30 0.07715
990.40 0.07711
990.50 0.07706
990.60 0.07702
990.70 0.07698
990.80 0.07693
990.90 0.07689
991.00 0.07684
991.10 0.07679
991.20 0.07675
991.30 0.0767
991.40 0.07666
991.50 0.07661
991.60 0.07657
991.70 0.07652
991.80 0.07648
991.90 0.07643
992.00 0.07638
992.10 0.07634
992.20 0.07629
992.30 0.07624
992.40 0.07619
992.50 0.07614
992.60 0.07609
992.70 0.07604
992.80 0.07599
992.90 0.07593
993.00 0.07588
993.10 0.07583
993.20 0.07578
993.30 0.07572
993.40 0.07567
993.50 0.07562
993.60 0.07556
993.70 0.07551
993.80 0.07546
993.90 0.0754
994.00 0.07535
994.10 0.0753
994.20 0.07524
994.30 0.07519
994.40 0.07514
994.50 0.07508
994.60 0.07503
994.70 0.07497
994.80 0.07491
994.90 0.07485
995.00 0.07479
995.10 0.07473
995.20 0.07467
995.30 0.07462
995.40 0.07456
995.50 0.0745
995.60 0.07444
995.70 0.07437
995.80 0.0743
995.90 0.07424
996.00 0.07417
996.10 0.0741
996.20 0.07404
996.30 0.07397
996.40 0.0739
996.50 0.07384
996.60 0.07377
996.70 0.0737
996.80 0.07364
996.90 0.07357
997.00 0.0735
997.10 0.07343
997.20 0.07336
997.30 0.07328
997.40 0.07321
997.50 0.07313
997.60 0.07306
997.70 0.07298
997.80 0.07289
997.90 0.07281
998.00 0.07272
998.10 0.07263
998.20 0.07255
998.30 0.07246
998.40 0.07238
998.50 0.07229
998.60 0.0722
998.70 0.07212
998.80 0.07203
998.90 0.07195
999.00 0.07186
999.10 0.07178
999.20 0.07169
999.30 0.07161
999.40 0.07152
999.50 0.07144
999.60 0.07135
999.70 0.07125
999.80 0.07114
999.90 0.07103
1000.00 0.07092
1000.10 0.07081
1000.20 0.0707
1000.30 0.07059
1000.40 0.07048
1000.50 0.07037
1000.60 0.07026
1000.70 0.07015
1000.80 0.07004
1000.90 0.06993
1001.00 0.06982
1001.10 0.06971
1001.20 0.0696
1001.30 0.06949
1001.40 0.06939
1001.50 0.06928
1001.60 0.06917
1001.70 0.06905
1001.80 0.06892
1001.90 0.06879
1002.00 0.06867
1002.10 0.06853
1002.20 0.06839
1002.30 0.06825
1002.40 0.06811
1002.50 0.06798
1002.60 0.06784
1002.70 0.0677
1002.80 0.06756
1002.90 0.06742
1003.00 0.06729
1003.10 0.06715
1003.20 0.06701
1003.30 0.06686
1003.40 0.06672
1003.50 0.06657
1003.60 0.06643
1003.70 0.06628
1003.80 0.06614
1003.90 0.06601
1004.00 0.06588
1004.10 0.06575
1004.20 0.06562
1004.30 0.06551
1004.40 0.06542
1004.50 0.06534
1004.60 0.0653
1004.70 0.06531
1004.80 0.06536
1004.90 0.06536
1005.00 0.06536
1005.10 0.06532
1005.20 0.06526
1005.30 0.06521
1005.40 0.06516
1005.50 0.0652
1005.60 0.06527
1005.70 0.06535
1005.80 0.06542
1005.90 0.06549
1006.00 0.06556
1006.10 0.06564
1006.20 0.06573
1006.30 0.06582
1006.40 0.06592
1006.50 0.06601
1006.60 0.06611
1006.70 0.0662
1006.80 0.0663
1006.90 0.06639
1007.00 0.06648
1007.10 0.06657
1007.20 0.06666
1007.30 0.06674
1007.40 0.06683
1007.50 0.06692
1007.60 0.067
1007.70 0.06707
1007.80 0.06714
1007.90 0.0672
1008.00 0.06727
1008.10 0.06733
1008.20 0.0674
1008.30 0.06746
1008.40 0.06753
1008.50 0.06759
1008.60 0.06766
1008.70 0.06772
1008.80 0.06779
1008.90 0.06785
1009.00 0.06792
1009.10 0.06798
1009.20 0.06805
1009.30 0.06811
1009.40 0.06818
1009.50 0.06824
1009.60 0.06831
1009.70 0.06835
1009.80 0.06839
1009.90 0.06842
1010.00 0.06846
1010.10 0.0685
1010.20 0.06853
1010.30 0.06857
1010.40 0.06861
1010.50 0.06864
1010.60 0.06868
1010.70 0.06872
1010.80 0.06875
1010.90 0.06879
1011.00 0.06883
1011.10 0.06886
1011.20 0.0689
1011.30 0.06894
1011.40 0.06897
1011.50 0.06901
1011.60 0.06905
1011.70 0.06907
1011.80 0.0691
1011.90 0.06912
1012.00 0.06914
1012.10 0.06916
1012.20 0.06917
1012.30 0.06919
1012.40 0.0692
1012.50 0.06922
1012.60 0.06923
1012.70 0.06925
1012.80 0.06927
1012.90 0.06928
1013.00 0.0693
1013.10 0.06931
1013.20 0.06933
1013.30 0.06934
1013.40 0.06936
1013.50 0.06937
1013.60 0.06939
1013.70 0.0694
1013.80 0.0694
1013.90 0.06941
1014.00 0.06941
1014.10 0.06942
1014.20 0.06943
1014.30 0.06943
1014.40 0.06944
1014.50 0.06944
1014.60 0.06945
1014.70 0.06945
1014.80 0.06945
1014.90 0.06945
1015.00 0.06945
1015.10 0.06944
1015.20 0.06944
1015.30 0.06944
1015.40 0.06944
1015.50 0.06944
1015.60 0.06944
1015.70 0.06943
1015.80 0.06943
1015.90 0.06943
1016.00 0.06943
1016.10 0.06943
1016.20 0.06943
1016.30 0.06942
1016.40 0.06942
1016.50 0.06942
1016.60 0.06942
1016.70 0.06941
1016.80 0.06941
1016.90 0.0694
1017.00 0.06939
1017.10 0.06939
1017.20 0.06938
1017.30 0.06937
1017.40 0.06936
1017.50 0.06935
1017.60 0.06934
1017.70 0.06933
1017.80 0.06932
1017.90 0.06931
1018.00 0.0693
1018.10 0.06929
1018.20 0.06928
1018.30 0.06927
1018.40 0.06926
1018.50 0.06925
1018.60 0.06924
1018.70 0.06923
1018.80 0.06921
1018.90 0.0692
1019.00 0.06919
1019.10 0.06917
1019.20 0.06916
1019.30 0.06914
1019.40 0.06913
1019.50 0.06912
1019.60 0.0691
1019.70 0.06909
1019.80 0.06907
1019.90 0.06906
1020.00 0.06905
1020.10 0.06903
1020.20 0.06902
1020.30 0.069
1020.40 0.06899
1020.50 0.06898
1020.60 0.06896
1020.70 0.06895
1020.80 0.06893
1020.90 0.06891
1021.00 0.0689
1021.10 0.06888
1021.20 0.06886
1021.30 0.06885
1021.40 0.06883
1021.50 0.06881
1021.60 0.06879
1021.70 0.06878
1021.80 0.06876
1021.90 0.06874
1022.00 0.06873
1022.10 0.06871
1022.20 0.06869
1022.30 0.06867
1022.40 0.06865
1022.50 0.06863
1022.60 0.06861
1022.70 0.06859
1022.80 0.06857
1022.90 0.06855
1023.00 0.06853
1023.10 0.06852
1023.20 0.0685
1023.30 0.06848
1023.40 0.06846
1023.50 0.06844
1023.60 0.06842
1023.70 0.0684
1023.80 0.06838
1023.90 0.06836
1024.00 0.06834
1024.10 0.06832
1024.20 0.0683
1024.30 0.06829
1024.40 0.06827
1024.50 0.06825
1024.60 0.06823
1024.70 0.06821
1024.80 0.06819
1024.90 0.06817
1025.00 0.06814
1025.10 0.06812
1025.20 0.0681
1025.30 0.06808
1025.40 0.06806
1025.50 0.06804
1025.60 0.06802
1025.70 0.068
1025.80 0.06798
1025.90 0.06795
1026.00 0.06793
1026.10 0.06791
1026.20 0.06789
1026.30 0.06787
1026.40 0.06785
1026.50 0.06783
1026.60 0.06781
1026.70 0.06779
1026.80 0.06776
1026.90 0.06774
1027.00 0.06772
1027.10 0.0677
1027.20 0.06768
1027.30 0.06765
1027.40 0.06763
1027.50 0.06761
1027.60 0.06759
1027.70 0.06756
1027.80 0.06754
1027.90 0.06752
1028.00 0.0675
1028.10 0.06747
1028.20 0.06745
1028.30 0.06743
1028.40 0.0674
1028.50 0.06738
1028.60 0.06736
1028.70 0.06734
1028.80 0.06731
1028.90 0.06729
1029.00 0.06727
1029.10 0.06725
1029.20 0.06722
1029.30 0.0672
1029.40 0.06718
1029.50 0.06716
1029.60 0.06713
1029.70 0.06711
1029.80 0.06709
1029.90 0.06707
1030.00 0.06704
1030.10 0.06702
1030.20 0.067
1030.30 0.06698
1030.40 0.06695
1030.50 0.06693
1030.60 0.06691
1030.70 0.06689
1030.80 0.06686
1030.90 0.06684
1031.00 0.06682
1031.10 0.0668
1031.20 0.06677
1031.30 0.06675
1031.40 0.06673
1031.50 0.06671
1031.60 0.06668
1031.70 0.06666
1031.80 0.06664
1031.90 0.06662
1032.00 0.0666
1032.10 0.06657
1032.20 0.06655
1032.30 0.06652
1032.40 0.0665
1032.50 0.06648
1032.60 0.06645
1032.70 0.06643
1032.80 0.06641
1032.90 0.06638
1033.00 0.06636
1033.10 0.06634
1033.20 0.06631
1033.30 0.06629
1033.40 0.06627
1033.50 0.06624
1033.60 0.06622
1033.70 0.0662
1033.80 0.06617
1033.90 0.06615
1034.00 0.06613
1034.10 0.0661
1034.20 0.06608
1034.30 0.06606
1034.40 0.06603
1034.50 0.06601
1034.60 0.06599
1034.70 0.06596
1034.80 0.06594
1034.90 0.06592
1035.00 0.06589
1035.10 0.06587
1035.20 0.06585
1035.30 0.06582
1035.40 0.0658
1035.50 0.06578
1035.60 0.06575
1035.70 0.06573
1035.80 0.06571
1035.90 0.06568
1036.00 0.06566
1036.10 0.06564
1036.20 0.06561
1036.30 0.06559
1036.40 0.06557
1036.50 0.06554
1036.60 0.06552
1036.70 0.0655
1036.80 0.06547
1036.90 0.06545
1037.00 0.06543
1037.10 0.0654
1037.20 0.06538
1037.30 0.06536
1037.40 0.06533
1037.50 0.06531
1037.60 0.06529
1037.70 0.06526
1037.80 0.06524
1037.90 0.06522
1038.00 0.06519
1038.10 0.06517
1038.20 0.06514
1038.30 0.06512
1038.40 0.0651
1038.50 0.06507
1038.60 0.06505
1038.70 0.06503
1038.80 0.065
1038.90 0.06498
1039.00 0.06496
1039.10 0.06493
1039.20 0.06491
1039.30 0.06489
1039.40 0.06486
1039.50 0.06484
1039.60 0.06481
1039.70 0.06479
1039.80 0.06477
1039.90 0.06474
1040.00 0.06472
1040.10 0.0647
1040.20 0.06467
1040.30 0.06465
1040.40 0.06463
1040.50 0.0646
1040.60 0.06458
1040.70 0.06456
1040.80 0.06453
1040.90 0.06451
1041.00 0.06449
1041.10 0.06446
1041.20 0.06444
1041.30 0.06442
1041.40 0.06439
1041.50 0.06437
1041.60 0.06435
1041.70 0.06432
1041.80 0.0643
1041.90 0.06428
1042.00 0.06425
1042.10 0.06423
1042.20 0.06421
1042.30 0.06418
1042.40 0.06416
1042.50 0.06414
1042.60 0.06411
1042.70 0.06409
1042.80 0.06407
1042.90 0.06404
1043.00 0.06402
1043.10 0.06399
1043.20 0.06397
1043.30 0.06395
1043.40 0.06392
1043.50 0.0639
1043.60 0.06388
1043.70 0.06385
1043.80 0.06383
1043.90 0.06381
1044.00 0.06378
1044.10 0.06376
1044.20 0.06374
1044.30 0.06371
1044.40 0.06369
1044.50 0.06367
1044.60 0.06364
1044.70 0.06362
1044.80 0.0636
1044.90 0.06357
1045.00 0.06355
1045.10 0.06353
1045.20 0.0635
1045.30 0.06348
1045.40 0.06346
1045.50 0.06343
1045.60 0.06341
1045.70 0.06339
1045.80 0.06336
1045.90 0.06334
1046.00 0.06332
1046.10 0.06329
1046.20 0.06327
1046.30 0.06325
1046.40 0.06322
1046.50 0.0632
1046.60 0.06318
1046.70 0.06316
1046.80 0.06313
1046.90 0.06311
1047.00 0.06309
1047.10 0.06306
1047.20 0.06304
1047.30 0.06302
1047.40 0.06299
1047.50 0.06297
1047.60 0.06295
1047.70 0.06292
1047.80 0.0629
1047.90 0.06288
1048.00 0.06285
1048.10 0.06283
1048.20 0.06281
1048.30 0.06278
1048.40 0.06276
1048.50 0.06274
1048.60 0.06271
1048.70 0.06269
1048.80 0.06267
1048.90 0.06264
1049.00 0.06262
1049.10 0.0626
1049.20 0.06257
1049.30 0.06255
1049.40 0.06253
1049.50 0.0625
1049.60 0.06248
1049.70 0.06246
1049.80 0.06244
1049.90 0.06241
1050.00 0.06239
1050.10 0.06237
1050.20 0.06234
1050.30 0.06232
1050.40 0.0623
1050.50 0.06227
1050.60 0.06225
1050.70 0.06223
1050.80 0.0622
1050.90 0.06218
1051.00 0.06216
1051.10 0.06214
1051.20 0.06211
1051.30 0.06209
1051.40 0.06207
1051.50 0.06204
1051.60 0.06202
1051.70 0.062
1051.80 0.06197
1051.90 0.06195
1052.00 0.06193
1052.10 0.06191
1052.20 0.06188
1052.30 0.06186
1052.40 0.06184
1052.50 0.06181
1052.60 0.06179
1052.70 0.06177
1052.80 0.06174
1052.90 0.06172
1053.00 0.0617
1053.10 0.06167
1053.20 0.06165
1053.30 0.06163
1053.40 0.06161
1053.50 0.06158
1053.60 0.06156
1053.70 0.06154
1053.80 0.06151
1053.90 0.06149
1054.00 0.06147
1054.10 0.06144
1054.20 0.06142
1054.30 0.0614
1054.40 0.06138
1054.50 0.06135
1054.60 0.06133
1054.70 0.06131
1054.80 0.06128
1054.90 0.06126
1055.00 0.06124
1055.10 0.06122
1055.20 0.06119
1055.30 0.06117
1055.40 0.06115
1055.50 0.06112
1055.60 0.0611
1055.70 0.06108
1055.80 0.06106
1055.90 0.06103
1056.00 0.06101
1056.10 0.06099
1056.20 0.06096
1056.30 0.06094
1056.40 0.06092
1056.50 0.0609
1056.60 0.06087
1056.70 0.06085
1056.80 0.06083
1056.90 0.0608
1057.00 0.06078
1057.10 0.06076
1057.20 0.06074
1057.30 0.06071
1057.40 0.06069
1057.50 0.06067
1057.60 0.06064
1057.70 0.06062
1057.80 0.0606
1057.90 0.06057
1058.00 0.06055
1058.10 0.06053
1058.20 0.06051
1058.30 0.06048
1058.40 0.06046
1058.50 0.06044
1058.60 0.06041
1058.70 0.06039
1058.80 0.06037
1058.90 0.06035
1059.00 0.06032
1059.10 0.0603
1059.20 0.06028
1059.30 0.06025
1059.40 0.06023
1059.50 0.06021
1059.60 0.06019
1059.70 0.06016
1059.80 0.06014
1059.90 0.06012
1060.00 0.06009
1060.10 0.06007
1060.20 0.06005
1060.30 0.06003
1060.40 0.06
1060.50 0.05998
1060.60 0.05996
1060.70 0.05994
1060.80 0.05991
1060.90 0.05989
1061.00 0.05987
1061.10 0.05984
1061.20 0.05982
1061.30 0.0598
1061.40 0.05978
1061.50 0.05975
1061.60 0.05973
1061.70 0.05971
1061.80 0.05969
1061.90 0.05966
1062.00 0.05964
1062.10 0.05962
1062.20 0.05959
1062.30 0.05957
1062.40 0.05955
1062.50 0.05952
1062.60 0.0595
1062.70 0.05948
1062.80 0.05946
1062.90 0.05943
1063.00 0.05941
1063.10 0.05939
1063.20 0.05936
1063.30 0.05934
1063.40 0.05932
1063.50 0.05929
1063.60 0.05927
1063.70 0.05925
1063.80 0.05922
1063.90 0.0592
1064.00 0.05918
1064.10 0.05915
1064.20 0.05913
1064.30 0.05911
1064.40 0.05909
1064.50 0.05906
1064.60 0.05904
1064.70 0.05902
1064.80 0.05899
1064.90 0.05897
1065.00 0.05895
1065.10 0.05892
1065.20 0.0589
1065.30 0.05888
1065.40 0.05886
1065.50 0.05883
1065.60 0.05881
1065.70 0.05879
1065.80 0.05876
1065.90 0.05874
1066.00 0.05872
1066.10 0.0587
1066.20 0.05867
1066.30 0.05865
1066.40 0.05863
1066.50 0.0586
1066.60 0.05858
1066.70 0.05856
1066.80 0.05854
1066.90 0.05851
1067.00 0.05849
1067.10 0.05847
1067.20 0.05844
1067.30 0.05842
1067.40 0.05839
1067.50 0.05837
1067.60 0.05835
1067.70 0.05832
1067.80 0.0583
1067.90 0.05827
1068.00 0.05825
1068.10 0.05823
1068.20 0.0582
1068.30 0.05818
1068.40 0.05815
1068.50 0.05813
1068.60 0.05811
1068.70 0.05808
1068.80 0.05806
1068.90 0.05804
1069.00 0.05801
1069.10 0.05799
1069.20 0.05796
1069.30 0.05794
1069.40 0.05792
1069.50 0.05789
1069.60 0.05787
1069.70 0.05784
1069.80 0.05782
1069.90 0.0578
1070.00 0.05777
1070.10 0.05775
1070.20 0.05773
1070.30 0.0577
1070.40 0.05768
1070.50 0.05765
1070.60 0.05763
1070.70 0.05761
1070.80 0.05758
1070.90 0.05756
1071.00 0.05754
1071.10 0.05751
1071.20 0.05749
1071.30 0.05747
1071.40 0.05744
1071.50 0.05742
1071.60 0.05739
1071.70 0.05737
1071.80 0.05735
1071.90 0.05732
1072.00 0.0573
1072.10 0.05727
1072.20 0.05725
1072.30 0.05722
1072.40 0.0572
1072.50 0.05717
1072.60 0.05715
1072.70 0.05712
1072.80 0.0571
1072.90 0.05707
1073.00 0.05705
1073.10 0.05703
1073.20 0.057
1073.30 0.05698
1073.40 0.05695
1073.50 0.05692
1073.60 0.0569
1073.70 0.05687
1073.80 0.05684
1073.90 0.05682
1074.00 0.05679
1074.10 0.05676
1074.20 0.05674
1074.30 0.05671
1074.40 0.05668
1074.50 0.05666
1074.60 0.05663
1074.70 0.0566
1074.80 0.05658
1074.90 0.05655
1075.00 0.05652
1075.10 0.0565
1075.20 0.05647
1075.30 0.05644
1075.40 0.05642
1075.50 0.05639
1075.60 0.05636
1075.70 0.05634
1075.80 0.05631
1075.90 0.05628
1076.00 0.05626
1076.10 0.05623
1076.20 0.0562
1076.30 0.05618
1076.40 0.05615
1076.50 0.05613
1076.60 0.0561
1076.70 0.05607
1076.80 0.05605
1076.90 0.05602
1077.00 0.05599
1077.10 0.05596
1077.20 0.05594
1077.30 0.05591
1077.40 0.05588
1077.50 0.05585
1077.60 0.05582
1077.70 0.05579
1077.80 0.05576
1077.90 0.05573
1078.00 0.0557
1078.10 0.05567
1078.20 0.05564
1078.30 0.05561
1078.40 0.05558
1078.50 0.05555
1078.60 0.05552
1078.70 0.05549
1078.80 0.05546
1078.90 0.05543
1079.00 0.0554
1079.10 0.05536
1079.20 0.05533
1079.30 0.0553
1079.40 0.05527
1079.50 0.05524
1079.60 0.05521
1079.70 0.05517
1079.80 0.05514
1079.90 0.05511
1080.00 0.05507
1080.10 0.05504
1080.20 0.055
1080.30 0.05497
1080.40 0.05493
1080.50 0.0549
1080.60 0.05487
1080.70 0.05483
1080.80 0.0548
1080.90 0.05476
1081.00 0.05473
1081.10 0.0547
1081.20 0.05466
1081.30 0.05463
1081.40 0.05459
1081.50 0.05456
1081.60 0.05452
1081.70 0.05448
1081.80 0.05445
1081.90 0.05441
1082.00 0.05437
1082.10 0.05433
1082.20 0.05429
1082.30 0.05425
1082.40 0.05421
1082.50 0.05417
1082.60 0.05413
1082.70 0.05408
1082.80 0.05404
1082.90 0.054
1083.00 0.05396
1083.10 0.05392
1083.20 0.05388
1083.30 0.05384
1083.40 0.0538
1083.50 0.05376
1083.60 0.05371
1083.70 0.05366
1083.80 0.05362
1083.90 0.05357
1084.00 0.05353
1084.10 0.05348
1084.20 0.05343
1084.30 0.05339
1084.40 0.05334
1084.50 0.05329
1084.60 0.05324
1084.70 0.05318
1084.80 0.05313
1084.90 0.05307
1085.00 0.05302
1085.10 0.05296
1085.20 0.05291
1085.30 0.05285
1085.40 0.0528
1085.50 0.05274
1085.60 0.05269
1085.70 0.05263
1085.80 0.05258
1085.90 0.05252
1086.00 0.05247
1086.10 0.05242
1086.20 0.05236
1086.30 0.05231
1086.40 0.05225
1086.50 0.05219
1086.60 0.05213
1086.70 0.05207
1086.80 0.052
1086.90 0.05194
1087.00 0.05187
1087.10 0.0518
1087.20 0.05173
1087.30 0.05165
1087.40 0.05158
1087.50 0.0515
1087.60 0.05143
1087.70 0.05136
1087.80 0.05128
1087.90 0.05121
1088.00 0.05113
1088.10 0.05106
1088.20 0.05099
1088.30 0.05091
1088.40 0.05084
1088.50 0.05076
1088.60 0.05066
1088.70 0.05057
1088.80 0.05047
1088.90 0.05037
1089.00 0.05028
1089.10 0.05018
1089.20 0.05009
1089.30 0.04999
1089.40 0.04989
1089.50 0.0498
1089.60 0.0497
1089.70 0.04961
1089.80 0.04951
1089.90 0.04942
1090.00 0.04932
1090.10 0.04922
1090.20 0.04913
1090.30 0.04903
1090.40 0.04894
1090.50 0.04883
1090.60 0.04871
1090.70 0.04858
1090.80 0.04846
1090.90 0.04834
1091.00 0.04821
1091.10 0.04809
1091.20 0.04796
1091.30 0.04784
1091.40 0.04771
1091.50 0.04759
1091.60 0.04747
1091.70 0.04734
1091.80 0.04722
1091.90 0.04709
1092.00 0.04697
1092.10 0.04683
1092.20 0.04669
1092.30 0.04655
1092.40 0.04641
1092.50 0.04627
1092.60 0.04613
1092.70 0.04599
1092.80 0.04585
1092.90 0.04571
1093.00 0.04557
1093.10 0.04542
1093.20 0.04528
1093.30 0.04513
1093.40 0.04498
1093.50 0.04481
1093.60 0.04461
1093.70 0.04448
1093.80 0.04441
1093.90 0.0444
1094.00 0.04455
1094.10 0.04469
1094.20 0.04483
1094.30 0.04497
1094.40 0.04508
1094.50 0.04519
1094.60 0.04531
1094.70 0.04542
1094.80 0.04553
1094.90 0.04564
1095.00 0.04575
1095.10 0.04585
1095.20 0.04595
1095.30 0.04606
1095.40 0.04616
1095.50 0.04626
1095.60 0.04636
1095.70 0.04646
1095.80 0.04656
1095.90 0.04666
1096.00 0.04676
1096.10 0.04687
1096.20 0.04697
1096.30 0.04707
1096.40 0.04717
1096.50 0.04726
1096.60 0.04735
1096.70 0.04743
1096.80 0.04752
1096.90 0.0476
1097.00 0.04768
1097.10 0.04775
1097.20 0.04782
1097.30 0.04788
1097.40 0.04795
1097.50 0.04802
1097.60 0.04808
1097.70 0.04815
1097.80 0.04822
1097.90 0.04828
1098.00 0.04835
1098.10 0.04841
1098.20 0.04848
1098.30 0.04855
1098.40 0.04861
1098.50 0.04867
1098.60 0.04871
1098.70 0.04875
1098.80 0.04879
1098.90 0.04884
1099.00 0.04888
1099.10 0.04892
1099.20 0.04896
1099.30 0.049
1099.40 0.04904
1099.50 0.04909
1099.60 0.04913
1099.70 0.04917
1099.80 0.04921
1099.90 0.04925
1100.00 0.04929
1100.10 0.04933
1100.20 0.04937
1100.30 0.04942
1100.40 0.04946
1100.50 0.04949
1100.60 0.04952
1100.70 0.04954
1100.80 0.04956
1100.90 0.04959
1101.00 0.04961
1101.10 0.04963
1101.20 0.04966
1101.30 0.04968
1101.40 0.0497
1101.50 0.04973
1101.60 0.04975
1101.70 0.04977
1101.80 0.0498
1101.90 0.04982
1102.00 0.04984
1102.10 0.04986
1102.20 0.04987
1102.30 0.04989
1102.40 0.04991
1102.50 0.04992
1102.60 0.04993
1102.70 0.04994
1102.80 0.04995
1102.90 0.04996
1103.00 0.04998
1103.10 0.04999
1103.20 0.05
1103.30 0.05001
1103.40 0.05002
1103.50 0.05003
1103.60 0.05003
1103.70 0.05004
1103.80 0.05004
1103.90 0.05004
1104.00 0.05005
1104.10 0.05005
1104.20 0.05006
1104.30 0.05006
1104.40 0.05006
1104.50 0.05007
1104.60 0.05007
1104.70 0.05008
1104.80 0.05008
1104.90 0.05008
1105.00 0.05009
1105.10 0.05009
1105.20 0.0501
1105.30 0.0501
1105.40 0.0501
1105.50 0.0501
1105.60 0.0501
1105.70 0.0501
1105.80 0.0501
1105.90 0.0501
1106.00 0.05009
1106.10 0.05009
1106.20 0.05009
1106.30 0.05009
1106.40 0.05008
1106.50 0.05008
1106.60 0.05008
1106.70 0.05008
1106.80 0.05007
1106.90 0.05007
1107.00 0.05007
1107.10 0.05007
1107.20 0.05006
1107.30 0.05006
1107.40 0.05005
1107.50 0.05004
1107.60 0.05004
1107.70 0.05003
1107.80 0.05002
1107.90 0.05002
1108.00 0.05001
1108.10 0.05
1108.20 0.04999
1108.30 0.04999
1108.40 0.04998
1108.50 0.04997
1108.60 0.04996
1108.70 0.04996
1108.80 0.04995
1108.90 0.04994
1109.00 0.04993
1109.10 0.04993
1109.20 0.04992
1109.30 0.04991
1109.40 0.0499
1109.50 0.0499
1109.60 0.04989
1109.70 0.04988
1109.80 0.04986
1109.90 0.04985
1110.00 0.04984
1110.10 0.04983
1110.20 0.04982
1110.30 0.04981
1110.40 0.0498
1110.50 0.04979
1110.60 0.04978
1110.70 0.04977
1110.80 0.04976
1110.90 0.04975
1111.00 0.04974
1111.10 0.04973
1111.20 0.04972
1111.30 0.04971
1111.40 0.0497
1111.50 0.04969
1111.60 0.04968
1111.70 0.04966
1111.80 0.04965
1111.90 0.04964
1112.00 0.04963
1112.10 0.04962
1112.20 0.04961
1112.30 0.0496
1112.40 0.04958
1112.50 0.04957
1112.60 0.04956
1112.70 0.04955
1112.80 0.04953
1112.90 0.04952
1113.00 0.04951
1113.10 0.0495
1113.20 0.04948
1113.30 0.04947
1113.40 0.04946
1113.50 0.04945
1113.60 0.04943
1113.70 0.04942
1113.80 0.04941
1113.90 0.04939
1114.00 0.04938
1114.10 0.04936
1114.20 0.04935
1114.30 0.04934
1114.40 0.04932
1114.50 0.04931
1114.60 0.04929
1114.70 0.04928
1114.80 0.04927
1114.90 0.04925
1115.00 0.04924
1115.10 0.04923
1115.20 0.04921
1115.30 0.0492
1115.40 0.04918
1115.50 0.04917
1115.60 0.04916
1115.70 0.04914
1115.80 0.04913
1115.90 0.04912
1116.00 0.0491
1116.10 0.04909
1116.20 0.04907
1116.30 0.04906
1116.40 0.04905
1116.50 0.04903
1116.60 0.04902
1116.70 0.04901
1116.80 0.04899
1116.90 0.04898
1117.00 0.04897
1117.10 0.04895
1117.20 0.04894
1117.30 0.04892
1117.40 0.0489
1117.50 0.04889
1117.60 0.04887
1117.70 0.04886
1117.80 0.04884
1117.90 0.04883
1118.00 0.04881
1118.10 0.0488
1118.20 0.04878
1118.30 0.04877
1118.40 0.04875
1118.50 0.04874
1118.60 0.04872
1118.70 0.04871
1118.80 0.04869
1118.90 0.04868
1119.00 0.04866
1119.10 0.04865
1119.20 0.04863
1119.30 0.04862
1119.40 0.0486
1119.50 0.04859
1119.60 0.04857
1119.70 0.04856
1119.80 0.04854
1119.90 0.04853
1120.00 0.04851
1120.10 0.0485
1120.20 0.04848
1120.30 0.04847
1120.40 0.04845
1120.50 0.04844
1120.60 0.04842
1120.70 0.04841
1120.80 0.04839
1120.90 0.04838
1121.00 0.04836
1121.10 0.04835
1121.20 0.04833
1121.30 0.04832
1121.40 0.0483
1121.50 0.04829
1121.60 0.04828
1121.70 0.04826
1121.80 0.04825
1121.90 0.04823
1122.00 0.04822
1122.10 0.0482
1122.20 0.04818
1122.30 0.04817
1122.40 0.04815
1122.50 0.04814
1122.60 0.04812
1122.70 0.04811
1122.80 0.04809
1122.90 0.04807
1123.00 0.04806
1123.10 0.04804
1123.20 0.04803
1123.30 0.04801
1123.40 0.048
1123.50 0.04798
1123.60 0.04797
1123.70 0.04795
1123.80 0.04793
1123.90 0.04792
1124.00 0.0479
1124.10 0.04789
1124.20 0.04787
1124.30 0.04786
1124.40 0.04784
1124.50 0.04783
1124.60 0.04781
1124.70 0.04779
1124.80 0.04778
1124.90 0.04776
1125.00 0.04775
1125.10 0.04773
1125.20 0.04772
1125.30 0.0477
1125.40 0.04769
1125.50 0.04767
1125.60 0.04766
1125.70 0.04764
1125.80 0.04762
1125.90 0.04761
1126.00 0.04759
1126.10 0.04758
1126.20 0.04756
1126.30 0.04755
1126.40 0.04753
1126.50 0.04752
1126.60 0.0475
1126.70 0.04749
1126.80 0.04747
1126.90 0.04745
1127.00 0.04744
1127.10 0.04742
1127.20 0.04741
1127.30 0.04739
1127.40 0.04738
1127.50 0.04736
1127.60 0.04735
1127.70 0.04733
1127.80 0.04731
1127.90 0.0473
1128.00 0.04728
1128.10 0.04727
1128.20 0.04725
1128.30 0.04724
1128.40 0.04722
1128.50 0.0472
1128.60 0.04719
1128.70 0.04717
1128.80 0.04716
1128.90 0.04714
1129.00 0.04713
1129.10 0.04711
1129.20 0.04709
1129.30 0.04708
1129.40 0.04706
1129.50 0.04705
1129.60 0.04703
1129.70 0.04702
1129.80 0.047
1129.90 0.04699
1130.00 0.04697
1130.10 0.04695
1130.20 0.04694
1130.30 0.04692
1130.40 0.04691
1130.50 0.04689
1130.60 0.04688
1130.70 0.04686
1130.80 0.04685
1130.90 0.04683
1131.00 0.04681
1131.10 0.0468
1131.20 0.04678
1131.30 0.04677
1131.40 0.04675
1131.50 0.04674
1131.60 0.04672
1131.70 0.04671
1131.80 0.04669
1131.90 0.04667
1132.00 0.04666
1132.10 0.04664
1132.20 0.04663
1132.30 0.04661
1132.40 0.0466
1132.50 0.04658
1132.60 0.04657
1132.70 0.04655
1132.80 0.04653
1132.90 0.04652
1133.00 0.0465
1133.10 0.04649
1133.20 0.04647
1133.30 0.04646
1133.40 0.04644
1133.50 0.04643
1133.60 0.04641
1133.70 0.04639
1133.80 0.04638
1133.90 0.04636
1134.00 0.04635
1134.10 0.04633
1134.20 0.04632
1134.30 0.0463
1134.40 0.04629
1134.50 0.04627
1134.60 0.04625
1134.70 0.04624
1134.80 0.04622
1134.90 0.04621
1135.00 0.04619
1135.10 0.04618
1135.20 0.04616
1135.30 0.04615
1135.40 0.04613
1135.50 0.04612
1135.60 0.0461
1135.70 0.04608
1135.80 0.04607
1135.90 0.04605
1136.00 0.04604
1136.10 0.04602
1136.20 0.04601
1136.30 0.04599
1136.40 0.04598
1136.50 0.04596
1136.60 0.04595
1136.70 0.04593
1136.80 0.04591
1136.90 0.0459
1137.00 0.04588
1137.10 0.04587
1137.20 0.04585
1137.30 0.04584
1137.40 0.04582
1137.50 0.04581
1137.60 0.04579
1137.70 0.04578
1137.80 0.04576
1137.90 0.04575
1138.00 0.04573
1138.10 0.04572
1138.20 0.0457
1138.30 0.04568
1138.40 0.04567
1138.50 0.04565
1138.60 0.04564
1138.70 0.04562
1138.80 0.04561
1138.90 0.04559
1139.00 0.04558
1139.10 0.04556
1139.20 0.04555
1139.30 0.04553
1139.40 0.04552
1139.50 0.0455
1139.60 0.04549
1139.70 0.04547
1139.80 0.04545
1139.90 0.04544
1140.00 0.04542
1140.10 0.04541
1140.20 0.04539
1140.30 0.04538
1140.40 0.04536
1140.50 0.04535
1140.60 0.04533
1140.70 0.04532
1140.80 0.0453
1140.90 0.04529
1141.00 0.04527
1141.10 0.04526
1141.20 0.04524
1141.30 0.04523
1141.40 0.04521
1141.50 0.0452
1141.60 0.04518
1141.70 0.04517
1141.80 0.04515
1141.90 0.04513
1142.00 0.04512
1142.10 0.0451
1142.20 0.04509
1142.30 0.04507
1142.40 0.04506
1142.50 0.04504
1142.60 0.04503
1142.70 0.04501
1142.80 0.045
1142.90 0.04498
1143.00 0.04497
1143.10 0.04495
1143.20 0.04494
1143.30 0.04492
1143.40 0.04491
1143.50 0.04489
1143.60 0.04488
1143.70 0.04486
1143.80 0.04485
1143.90 0.04483
1144.00 0.04482
1144.10 0.0448
1144.20 0.04479
1144.30 0.04477
1144.40 0.04476
1144.50 0.04474
1144.60 0.04473
1144.70 0.04471
1144.80 0.0447
1144.90 0.04468
1145.00 0.04467
1145.10 0.04465
1145.20 0.04464
1145.30 0.04462
1145.40 0.04461
1145.50 0.04459
1145.60 0.04458
1145.70 0.04456
1145.80 0.04455
1145.90 0.04453
1146.00 0.04452
1146.10 0.0445
1146.20 0.04449
1146.30 0.04447
1146.40 0.04446
1146.50 0.04444
1146.60 0.04443
1146.70 0.04441
1146.80 0.0444
1146.90 0.04438
1147.00 0.04437
1147.10 0.04435
1147.20 0.04434
1147.30 0.04432
1147.40 0.04431
1147.50 0.04429
1147.60 0.04428
1147.70 0.04426
1147.80 0.04425
1147.90 0.04423
1148.00 0.04422
1148.10 0.0442
1148.20 0.04419
1148.30 0.04417
1148.40 0.04416
1148.50 0.04414
1148.60 0.04413
1148.70 0.04411
1148.80 0.0441
1148.90 0.04409
1149.00 0.04407
1149.10 0.04406
1149.20 0.04404
1149.30 0.04403
1149.40 0.04401
1149.50 0.044
1149.60 0.04398
1149.70 0.04397
1149.80 0.04395
1149.90 0.04394
1150.00 0.04392
1150.10 0.04391
1150.20 0.04389
1150.30 0.04388
1150.40 0.04386
1150.50 0.04385
1150.60 0.04383
1150.70 0.04382
1150.80 0.0438
1150.90 0.04379
1151.00 0.04378
1151.10 0.04376
1151.20 0.04375
1151.30 0.04373
1151.40 0.04372
1151.50 0.0437
1151.60 0.04369
1151.70 0.04367
1151.80 0.04366
1151.90 0.04364
1152.00 0.04363
1152.10 0.04361
1152.20 0.0436
1152.30 0.04358
1152.40 0.04357
1152.50 0.04356
1152.60 0.04354
1152.70 0.04353
1152.80 0.04351
1152.90 0.0435
1153.00 0.04348
1153.10 0.04347
1153.20 0.04345
1153.30 0.04344
1153.40 0.04342
1153.50 0.04341
1153.60 0.0434
1153.70 0.04338
1153.80 0.04337
1153.90 0.04335
1154.00 0.04334
1154.10 0.04332
1154.20 0.04331
1154.30 0.04329
1154.40 0.04328
1154.50 0.04326
1154.60 0.04325
1154.70 0.04324
1154.80 0.04322
1154.90 0.04321
1155.00 0.04319
1155.10 0.04318
1155.20 0.04316
1155.30 0.04315
1155.40 0.04313
1155.50 0.04312
1155.60 0.04311
1155.70 0.04309
1155.80 0.04308
1155.90 0.04306
1156.00 0.04305
1156.10 0.04303
1156.20 0.04302
1156.30 0.043
1156.40 0.04299
1156.50 0.04298
1156.60 0.04296
1156.70 0.04295
1156.80 0.04293
1156.90 0.04292
1157.00 0.0429
1157.10 0.04289
1157.20 0.04287
1157.30 0.04286
1157.40 0.04285
1157.50 0.04283
1157.60 0.04282
1157.70 0.0428
1157.80 0.04279
1157.90 0.04277
1158.00 0.04276
1158.10 0.04275
1158.20 0.04273
1158.30 0.04272
1158.40 0.0427
1158.50 0.04269
1158.60 0.04267
1158.70 0.04266
1158.80 0.04265
1158.90 0.04263
1159.00 0.04262
1159.10 0.0426
1159.20 0.04259
1159.30 0.04257
1159.40 0.04256
1159.50 0.04255
1159.60 0.04253
1159.70 0.04252
1159.80 0.0425
1159.90 0.04249
1160.00 0.04248
1160.10 0.04246
1160.20 0.04245
1160.30 0.04243
1160.40 0.04242
1160.50 0.0424
1160.60 0.04239
1160.70 0.04238
1160.80 0.04236
1160.90 0.04235
1161.00 0.04233
1161.10 0.04232
1161.20 0.04231
1161.30 0.04229
1161.40 0.04228
1161.50 0.04226
1161.60 0.04225
1161.70 0.04223
1161.80 0.04222
1161.90 0.04221
1162.00 0.04219
1162.10 0.04218
1162.20 0.04216
1162.30 0.04215
1162.40 0.04214
1162.50 0.04212
1162.60 0.04211
1162.70 0.04209
1162.80 0.04208
1162.90 0.04207
1163.00 0.04205
1163.10 0.04204
1163.20 0.04202
1163.30 0.04201
1163.40 0.042
1163.50 0.04198
1163.60 0.04197
1163.70 0.04195
1163.80 0.04194
1163.90 0.04193
1164.00 0.04191
1164.10 0.0419
1164.20 0.04188
1164.30 0.04187
1164.40 0.04186
1164.50 0.04184
1164.60 0.04183
1164.70 0.04181
1164.80 0.0418
1164.90 0.04179
1165.00 0.04177
1165.10 0.04176
1165.20 0.04174
1165.30 0.04173
1165.40 0.04172
1165.50 0.0417
1165.60 0.04169
1165.70 0.04168
1165.80 0.04166
1165.90 0.04165
1166.00 0.04163
1166.10 0.04162
1166.20 0.04161
1166.30 0.04159
1166.40 0.04158
1166.50 0.04156
1166.60 0.04155
1166.70 0.04154
1166.80 0.04152
1166.90 0.04151
1167.00 0.0415
1167.10 0.04148
1167.20 0.04147
1167.30 0.04145
1167.40 0.04144
1167.50 0.04143
1167.60 0.04141
1167.70 0.0414
1167.80 0.04139
1167.90 0.04137
1168.00 0.04136
1168.10 0.04134
1168.20 0.04133
1168.30 0.04132
1168.40 0.0413
1168.50 0.04129
1168.60 0.04128
1168.70 0.04126
1168.80 0.04125
1168.90 0.04123
1169.00 0.04122
1169.10 0.04121
1169.20 0.04119
1169.30 0.04118
1169.40 0.04117
1169.50 0.04115
1169.60 0.04114
1169.70 0.04112
1169.80 0.04111
1169.90 0.0411
1170.00 0.04108
1170.10 0.04107
1170.20 0.04106
1170.30 0.04104
1170.40 0.04103
1170.50 0.04102
1170.60 0.041
1170.70 0.04099
1170.80 0.04097
1170.90 0.04096
1171.00 0.04095
1171.10 0.04093
1171.20 0.04092
1171.30 0.04091
1171.40 0.04089
1171.50 0.04088
1171.60 0.04087
1171.70 0.04085
1171.80 0.04084
1171.90 0.04083
1172.00 0.04081
1172.10 0.0408
1172.20 0.04078
1172.30 0.04077
1172.40 0.04076
1172.50 0.04074
1172.60 0.04073
1172.70 0.04072
1172.80 0.0407
1172.90 0.04069
1173.00 0.04068
1173.10 0.04066
1173.20 0.04065
1173.30 0.04064
1173.40 0.04062
1173.50 0.04061
1173.60 0.0406
1173.70 0.04058
1173.80 0.04057
1173.90 0.04056
1174.00 0.04054
1174.10 0.04053
1174.20 0.04052
1174.30 0.0405
1174.40 0.04049
1174.50 0.04048
1174.60 0.04046
1174.70 0.04045
1174.80 0.04044
1174.90 0.04042
1175.00 0.04041
1175.10 0.0404
1175.20 0.04038
1175.30 0.04037
1175.40 0.04036
1175.50 0.04034
1175.60 0.04033
1175.70 0.04032
1175.80 0.0403
1175.90 0.04029
1176.00 0.04028
1176.10 0.04026
1176.20 0.04025
1176.30 0.04024
1176.40 0.04022
1176.50 0.04021
1176.60 0.0402
1176.70 0.04018
1176.80 0.04017
1176.90 0.04016
1177.00 0.04014
1177.10 0.04013
1177.20 0.04012
1177.30 0.0401
1177.40 0.04009
1177.50 0.04008
1177.60 0.04006
1177.70 0.04005
1177.80 0.04004
1177.90 0.04002
1178.00 0.04001
1178.10 0.04
1178.20 0.03998
1178.30 0.03997
1178.40 0.03996
1178.50 0.03994
1178.60 0.03993
1178.70 0.03992
1178.80 0.0399
1178.90 0.03989
1179.00 0.03988
1179.10 0.03986
1179.20 0.03985
1179.30 0.03984
1179.40 0.03983
1179.50 0.03981
1179.60 0.0398
1179.70 0.03979
1179.80 0.03977
1179.90 0.03976
1180.00 0.03975
1180.10 0.03973
1180.20 0.03972
1180.30 0.03971
1180.40 0.03969
1180.50 0.03968
1180.60 0.03967
1180.70 0.03966
1180.80 0.03964
1180.90 0.03963
1181.00 0.03962
1181.10 0.0396
1181.20 0.03959
1181.30 0.03958
1181.40 0.03956
1181.50 0.03955
1181.60 0.03954
1181.70 0.03952
1181.80 0.03951
1181.90 0.0395
1182.00 0.03949
1182.10 0.03947
1182.20 0.03946
1182.30 0.03945
1182.40 0.03943
1182.50 0.03942
1182.60 0.03941
1182.70 0.03939
1182.80 0.03938
1182.90 0.03937
1183.00 0.03936
1183.10 0.03934
1183.20 0.03933
1183.30 0.03932
1183.40 0.0393
1183.50 0.03929
1183.60 0.03928
1183.70 0.03927
1183.80 0.03925
1183.90 0.03924
1184.00 0.03923
1184.10 0.03921
1184.20 0.0392
1184.30 0.03919
1184.40 0.03918
1184.50 0.03916
1184.60 0.03915
1184.70 0.03914
1184.80 0.03912
1184.90 0.03911
1185.00 0.0391
1185.10 0.03909
1185.20 0.03907
1185.30 0.03906
1185.40 0.03905
1185.50 0.03903
1185.60 0.03902
1185.70 0.03901
1185.80 0.039
1185.90 0.03898
1186.00 0.03897
1186.10 0.03896
1186.20 0.03894
1186.30 0.03893
1186.40 0.03892
1186.50 0.03891
1186.60 0.03889
1186.70 0.03888
1186.80 0.03887
1186.90 0.03885
1187.00 0.03884
1187.10 0.03883
1187.20 0.03882
1187.30 0.0388
1187.40 0.03879
1187.50 0.03878
1187.60 0.03877
1187.70 0.03875
1187.80 0.03874
1187.90 0.03873
1188.00 0.03871
1188.10 0.0387
1188.20 0.03869
1188.30 0.03868
1188.40 0.03866
1188.50 0.03865
1188.60 0.03864
1188.70 0.03863
1188.80 0.03861
1188.90 0.0386
1189.00 0.03859
1189.10 0.03858
1189.20 0.03856
1189.30 0.03855
1189.40 0.03854
1189.50 0.03853
1189.60 0.03851
1189.70 0.0385
1189.80 0.03849
1189.90 0.03847
1190.00 0.03846
1190.10 0.03845
1190.20 0.03844
1190.30 0.03842
1190.40 0.03841
1190.50 0.0384
1190.60 0.03839
1190.70 0.03837
1190.80 0.03836
1190.90 0.03835
1191.00 0.03834
1191.10 0.03832
1191.20 0.03831
1191.30 0.0383
1191.40 0.03829
1191.50 0.03827
1191.60 0.03826
1191.70 0.03825
1191.80 0.03824
1191.90 0.03822
1192.00 0.03821
1192.10 0.0382
1192.20 0.03819
1192.30 0.03817
1192.40 0.03816
1192.50 0.03815
1192.60 0.03814
1192.70 0.03812
1192.80 0.03811
1192.90 0.0381
1193.00 0.03809
1193.10 0.03807
1193.20 0.03806
1193.30 0.03805
1193.40 0.03804
1193.50 0.03802
1193.60 0.03801
1193.70 0.038
1193.80 0.03799
1193.90 0.03797
1194.00 0.03796
1194.10 0.03795
1194.20 0.03794
1194.30 0.03793
1194.40 0.03791
1194.50 0.0379
1194.60 0.03789
1194.70 0.03788
1194.80 0.03786
1194.90 0.03785
1195.00 0.03784
1195.10 0.03783
1195.20 0.03781
1195.30 0.0378
1195.40 0.03779
1195.50 0.03778
1195.60 0.03776
1195.70 0.03775
1195.80 0.03774
1195.90 0.03773
1196.00 0.03772
1196.10 0.0377
1196.20 0.03769
1196.30 0.03768
1196.40 0.03767
1196.50 0.03765
1196.60 0.03764
1196.70 0.03763
1196.80 0.03762
1196.90 0.0376
1197.00 0.03759
1197.10 0.03758
1197.20 0.03757
1197.30 0.03756
1197.40 0.03754
1197.50 0.03753
1197.60 0.03752
1197.70 0.03751
1197.80 0.03749
1197.90 0.03748
1198.00 0.03747
1198.10 0.03746
1198.20 0.03745
1198.30 0.03743
1198.40 0.03742
1198.50 0.03741
1198.60 0.0374
1198.70 0.03739
1198.80 0.03737
1198.90 0.03736
1199.00 0.03735
1199.10 0.03734
1199.20 0.03732
1199.30 0.03731
1199.40 0.0373
1199.50 0.03729
1199.60 0.03728
1199.70 0.03726
1199.80 0.03725
1199.90 0.03724
1200.00 0
