# Version 2.1 - nm, norm@500 to 1, cut digits, bergeron_17000_85.dat_17000
# Wavelength(nm)  Flambda(ergs/cm^s/s/nm)
300.00 2.781
300.10 2.778
300.20 2.776
300.30 2.773
300.40 2.771
300.50 2.769
300.60 2.766
300.70 2.764
300.80 2.761
300.90 2.759
301.00 2.756
301.10 2.754
301.20 2.752
301.30 2.749
301.40 2.747
301.50 2.744
301.60 2.742
301.70 2.74
301.80 2.737
301.90 2.735
302.00 2.732
302.10 2.73
302.20 2.728
302.30 2.725
302.40 2.723
302.50 2.721
302.60 2.718
302.70 2.716
302.80 2.714
302.90 2.711
303.00 2.709
303.10 2.707
303.20 2.704
303.30 2.702
303.40 2.7
303.50 2.697
303.60 2.695
303.70 2.693
303.80 2.69
303.90 2.688
304.00 2.686
304.10 2.683
304.20 2.681
304.30 2.679
304.40 2.676
304.50 2.674
304.60 2.672
304.70 2.669
304.80 2.667
304.90 2.665
305.00 2.663
305.10 2.66
305.20 2.658
305.30 2.656
305.40 2.653
305.50 2.651
305.60 2.649
305.70 2.647
305.80 2.644
305.90 2.642
306.00 2.64
306.10 2.637
306.20 2.635
306.30 2.633
306.40 2.631
306.50 2.628
306.60 2.626
306.70 2.624
306.80 2.622
306.90 2.619
307.00 2.617
307.10 2.615
307.20 2.613
307.30 2.611
307.40 2.608
307.50 2.606
307.60 2.604
307.70 2.602
307.80 2.599
307.90 2.597
308.00 2.595
308.10 2.593
308.20 2.59
308.30 2.588
308.40 2.586
308.50 2.584
308.60 2.582
308.70 2.579
308.80 2.577
308.90 2.575
309.00 2.573
309.10 2.571
309.20 2.568
309.30 2.566
309.40 2.564
309.50 2.562
309.60 2.56
309.70 2.558
309.80 2.555
309.90 2.553
310.00 2.551
310.10 2.549
310.20 2.547
310.30 2.545
310.40 2.542
310.50 2.54
310.60 2.538
310.70 2.536
310.80 2.534
310.90 2.532
311.00 2.529
311.10 2.527
311.20 2.525
311.30 2.523
311.40 2.521
311.50 2.519
311.60 2.517
311.70 2.515
311.80 2.512
311.90 2.51
312.00 2.508
312.10 2.506
312.20 2.504
312.30 2.502
312.40 2.5
312.50 2.497
312.60 2.495
312.70 2.493
312.80 2.491
312.90 2.489
313.00 2.487
313.10 2.485
313.20 2.483
313.30 2.481
313.40 2.479
313.50 2.477
313.60 2.474
313.70 2.472
313.80 2.47
313.90 2.468
314.00 2.466
314.10 2.464
314.20 2.462
314.30 2.46
314.40 2.458
314.50 2.456
314.60 2.454
314.70 2.452
314.80 2.45
314.90 2.448
315.00 2.446
315.10 2.444
315.20 2.441
315.30 2.439
315.40 2.437
315.50 2.435
315.60 2.433
315.70 2.431
315.80 2.429
315.90 2.427
316.00 2.425
316.10 2.423
316.20 2.421
316.30 2.419
316.40 2.417
316.50 2.415
316.60 2.413
316.70 2.411
316.80 2.409
316.90 2.407
317.00 2.405
317.10 2.403
317.20 2.401
317.30 2.399
317.40 2.397
317.50 2.395
317.60 2.393
317.70 2.391
317.80 2.389
317.90 2.387
318.00 2.385
318.10 2.383
318.20 2.381
318.30 2.379
318.40 2.377
318.50 2.375
318.60 2.373
318.70 2.371
318.80 2.369
318.90 2.367
319.00 2.365
319.10 2.363
319.20 2.361
319.30 2.359
319.40 2.357
319.50 2.355
319.60 2.354
319.70 2.352
319.80 2.35
319.90 2.348
320.00 2.346
320.10 2.344
320.20 2.342
320.30 2.34
320.40 2.338
320.50 2.336
320.60 2.334
320.70 2.332
320.80 2.33
320.90 2.328
321.00 2.327
321.10 2.325
321.20 2.323
321.30 2.321
321.40 2.319
321.50 2.317
321.60 2.315
321.70 2.313
321.80 2.311
321.90 2.309
322.00 2.307
322.10 2.306
322.20 2.304
322.30 2.302
322.40 2.3
322.50 2.298
322.60 2.296
322.70 2.294
322.80 2.292
322.90 2.29
323.00 2.289
323.10 2.287
323.20 2.285
323.30 2.283
323.40 2.281
323.50 2.279
323.60 2.277
323.70 2.276
323.80 2.274
323.90 2.272
324.00 2.27
324.10 2.268
324.20 2.266
324.30 2.264
324.40 2.263
324.50 2.261
324.60 2.259
324.70 2.257
324.80 2.255
324.90 2.253
325.00 2.251
325.10 2.25
325.20 2.248
325.30 2.246
325.40 2.244
325.50 2.242
325.60 2.24
325.70 2.239
325.80 2.237
325.90 2.235
326.00 2.233
326.10 2.231
326.20 2.23
326.30 2.228
326.40 2.226
326.50 2.224
326.60 2.222
326.70 2.22
326.80 2.219
326.90 2.217
327.00 2.215
327.10 2.213
327.20 2.211
327.30 2.21
327.40 2.208
327.50 2.206
327.60 2.204
327.70 2.202
327.80 2.201
327.90 2.199
328.00 2.197
328.10 2.195
328.20 2.194
328.30 2.192
328.40 2.19
328.50 2.188
328.60 2.186
328.70 2.185
328.80 2.183
328.90 2.181
329.00 2.179
329.10 2.178
329.20 2.176
329.30 2.174
329.40 2.172
329.50 2.171
329.60 2.169
329.70 2.167
329.80 2.165
329.90 2.164
330.00 2.162
330.10 2.16
330.20 2.158
330.30 2.157
330.40 2.155
330.50 2.153
330.60 2.151
330.70 2.15
330.80 2.148
330.90 2.146
331.00 2.145
331.10 2.143
331.20 2.141
331.30 2.139
331.40 2.138
331.50 2.136
331.60 2.134
331.70 2.133
331.80 2.131
331.90 2.129
332.00 2.127
332.10 2.126
332.20 2.124
332.30 2.122
332.40 2.121
332.50 2.119
332.60 2.117
332.70 2.115
332.80 2.114
332.90 2.112
333.00 2.11
333.10 2.109
333.20 2.107
333.30 2.105
333.40 2.104
333.50 2.102
333.60 2.1
333.70 2.099
333.80 2.097
333.90 2.095
334.00 2.094
334.10 2.092
334.20 2.09
334.30 2.089
334.40 2.087
334.50 2.085
334.60 2.084
334.70 2.082
334.80 2.08
334.90 2.079
335.00 2.077
335.10 2.075
335.20 2.074
335.30 2.072
335.40 2.07
335.50 2.069
335.60 2.067
335.70 2.065
335.80 2.064
335.90 2.062
336.00 2.061
336.10 2.059
336.20 2.057
336.30 2.056
336.40 2.054
336.50 2.052
336.60 2.051
336.70 2.049
336.80 2.047
336.90 2.046
337.00 2.044
337.10 2.043
337.20 2.041
337.30 2.039
337.40 2.038
337.50 2.036
337.60 2.035
337.70 2.033
337.80 2.031
337.90 2.03
338.00 2.028
338.10 2.027
338.20 2.025
338.30 2.023
338.40 2.022
338.50 2.02
338.60 2.019
338.70 2.017
338.80 2.015
338.90 2.014
339.00 2.012
339.10 2.011
339.20 2.009
339.30 2.007
339.40 2.006
339.50 2.004
339.60 2.003
339.70 2.001
339.80 1.999
339.90 1.998
340.00 1.996
340.10 1.995
340.20 1.993
340.30 1.992
340.40 1.99
340.50 1.989
340.60 1.987
340.70 1.985
340.80 1.984
340.90 1.982
341.00 1.981
341.10 1.979
341.20 1.978
341.30 1.976
341.40 1.975
341.50 1.973
341.60 1.971
341.70 1.97
341.80 1.968
341.90 1.967
342.00 1.965
342.10 1.964
342.20 1.962
342.30 1.961
342.40 1.959
342.50 1.958
342.60 1.956
342.70 1.955
342.80 1.953
342.90 1.952
343.00 1.95
343.10 1.948
343.20 1.947
343.30 1.945
343.40 1.944
343.50 1.942
343.60 1.941
343.70 1.939
343.80 1.938
343.90 1.936
344.00 1.935
344.10 1.933
344.20 1.932
344.30 1.93
344.40 1.929
344.50 1.927
344.60 1.926
344.70 1.924
344.80 1.923
344.90 1.921
345.00 1.92
345.10 1.918
345.20 1.917
345.30 1.915
345.40 1.914
345.50 1.912
345.60 1.911
345.70 1.909
345.80 1.908
345.90 1.906
346.00 1.905
346.10 1.904
346.20 1.902
346.30 1.901
346.40 1.899
346.50 1.898
346.60 1.896
346.70 1.895
346.80 1.893
346.90 1.892
347.00 1.89
347.10 1.889
347.20 1.887
347.30 1.886
347.40 1.885
347.50 1.883
347.60 1.882
347.70 1.88
347.80 1.879
347.90 1.877
348.00 1.876
348.10 1.874
348.20 1.873
348.30 1.871
348.40 1.87
348.50 1.869
348.60 1.867
348.70 1.866
348.80 1.864
348.90 1.863
349.00 1.861
349.10 1.86
349.20 1.858
349.30 1.857
349.40 1.856
349.50 1.854
349.60 1.853
349.70 1.851
349.80 1.85
349.90 1.848
350.00 1.847
350.10 1.846
350.20 1.844
350.30 1.843
350.40 1.841
350.50 1.84
350.60 1.839
350.70 1.837
350.80 1.836
350.90 1.834
351.00 1.833
351.10 1.832
351.20 1.83
351.30 1.829
351.40 1.827
351.50 1.826
351.60 1.825
351.70 1.823
351.80 1.822
351.90 1.82
352.00 1.819
352.10 1.818
352.20 1.816
352.30 1.815
352.40 1.814
352.50 1.812
352.60 1.811
352.70 1.809
352.80 1.808
352.90 1.807
353.00 1.805
353.10 1.804
353.20 1.802
353.30 1.801
353.40 1.8
353.50 1.798
353.60 1.797
353.70 1.796
353.80 1.794
353.90 1.793
354.00 1.791
354.10 1.79
354.20 1.789
354.30 1.787
354.40 1.786
354.50 1.785
354.60 1.783
354.70 1.782
354.80 1.781
354.90 1.779
355.00 1.778
355.10 1.777
355.20 1.775
355.30 1.774
355.40 1.773
355.50 1.771
355.60 1.77
355.70 1.769
355.80 1.767
355.90 1.766
356.00 1.765
356.10 1.763
356.20 1.762
356.30 1.761
356.40 1.759
356.50 1.758
356.60 1.757
356.70 1.755
356.80 1.754
356.90 1.753
357.00 1.751
357.10 1.75
357.20 1.749
357.30 1.747
357.40 1.746
357.50 1.745
357.60 1.743
357.70 1.742
357.80 1.741
357.90 1.739
358.00 1.738
358.10 1.737
358.20 1.735
358.30 1.734
358.40 1.733
358.50 1.732
358.60 1.73
358.70 1.729
358.80 1.728
358.90 1.726
359.00 1.725
359.10 1.724
359.20 1.722
359.30 1.721
359.40 1.72
359.50 1.719
359.60 1.717
359.70 1.716
359.80 1.715
359.90 1.713
360.00 1.712
360.10 1.711
360.20 1.71
360.30 1.708
360.40 1.707
360.50 1.706
360.60 1.704
360.70 1.703
360.80 1.702
360.90 1.701
361.00 1.699
361.10 1.698
361.20 1.697
361.30 1.695
361.40 1.694
361.50 1.693
361.60 1.692
361.70 1.69
361.80 1.689
361.90 1.688
362.00 1.687
362.10 1.685
362.20 1.684
362.30 1.683
362.40 1.682
362.50 1.68
362.60 1.679
362.70 1.678
362.80 1.677
362.90 1.675
363.00 1.674
363.10 1.673
363.20 1.671
363.30 1.67
363.40 1.668
363.50 1.667
363.60 1.666
363.70 1.664
363.80 1.663
363.90 1.662
364.00 1.66
364.10 1.659
364.20 1.657
364.30 1.656
364.40 1.655
364.50 1.653
364.60 1.652
364.70 1.65
364.80 1.649
364.90 1.648
365.00 1.646
365.10 1.645
365.20 1.643
365.30 1.642
365.40 1.641
365.50 1.639
365.60 1.638
365.70 1.636
365.80 1.635
365.90 1.634
366.00 1.632
366.10 1.631
366.20 1.63
366.30 1.628
366.40 1.627
366.50 1.626
366.60 1.625
366.70 1.623
366.80 1.622
366.90 1.621
367.00 1.619
367.10 1.618
367.20 1.617
367.30 1.616
367.40 1.614
367.50 1.613
367.60 1.612
367.70 1.611
367.80 1.609
367.90 1.608
368.00 1.607
368.10 1.606
368.20 1.605
368.30 1.603
368.40 1.602
368.50 1.601
368.60 1.6
368.70 1.598
368.80 1.597
368.90 1.596
369.00 1.595
369.10 1.594
369.20 1.592
369.30 1.591
369.40 1.59
369.50 1.589
369.60 1.587
369.70 1.586
369.80 1.585
369.90 1.584
370.00 1.583
370.10 1.582
370.20 1.581
370.30 1.58
370.40 1.578
370.50 1.577
370.60 1.576
370.70 1.575
370.80 1.574
370.90 1.573
371.00 1.572
371.10 1.571
371.20 1.57
371.30 1.569
371.40 1.568
371.50 1.567
371.60 1.566
371.70 1.565
371.80 1.564
371.90 1.563
372.00 1.562
372.10 1.561
372.20 1.561
372.30 1.56
372.40 1.559
372.50 1.559
372.60 1.558
372.70 1.557
372.80 1.557
372.90 1.556
373.00 1.555
373.10 1.555
373.20 1.554
373.30 1.553
373.40 1.553
373.50 1.552
373.60 1.551
373.70 1.551
373.80 1.55
373.90 1.549
374.00 1.549
374.10 1.548
374.20 1.548
374.30 1.548
374.40 1.547
374.50 1.547
374.60 1.547
374.70 1.546
374.80 1.546
374.90 1.546
375.00 1.545
375.10 1.545
375.20 1.545
375.30 1.544
375.40 1.544
375.50 1.544
375.60 1.543
375.70 1.543
375.80 1.542
375.90 1.542
376.00 1.542
376.10 1.541
376.20 1.541
376.30 1.54
376.40 1.54
376.50 1.54
376.60 1.539
376.70 1.539
376.80 1.538
376.90 1.538
377.00 1.538
377.10 1.537
377.20 1.536
377.30 1.535
377.40 1.534
377.50 1.533
377.60 1.532
377.70 1.531
377.80 1.53
377.90 1.53
378.00 1.529
378.10 1.526
378.20 1.524
378.30 1.521
378.40 1.519
378.50 1.516
378.60 1.514
378.70 1.511
378.80 1.509
378.90 1.506
379.00 1.504
379.10 1.502
379.20 1.5
379.30 1.498
379.40 1.497
379.50 1.495
379.60 1.493
379.70 1.492
379.80 1.49
379.90 1.488
380.00 1.486
380.10 1.488
380.20 1.489
380.30 1.491
380.40 1.493
380.50 1.494
380.60 1.496
380.70 1.497
380.80 1.499
380.90 1.5
381.00 1.502
381.10 1.502
381.20 1.502
381.30 1.502
381.40 1.502
381.50 1.502
381.60 1.501
381.70 1.5
381.80 1.498
381.90 1.496
382.00 1.493
382.10 1.49
382.20 1.487
382.30 1.481
382.40 1.475
382.50 1.469
382.60 1.463
382.70 1.457
382.80 1.451
382.90 1.445
383.00 1.439
383.10 1.434
383.20 1.428
383.30 1.424
383.40 1.42
383.50 1.415
383.60 1.416
383.70 1.421
383.80 1.424
383.90 1.428
384.00 1.433
384.10 1.44
384.20 1.447
384.30 1.454
384.40 1.461
384.50 1.467
384.60 1.473
384.70 1.477
384.80 1.482
384.90 1.485
385.00 1.488
385.10 1.49
385.20 1.492
385.30 1.493
385.40 1.494
385.50 1.495
385.60 1.495
385.70 1.494
385.80 1.493
385.90 1.492
386.00 1.491
386.10 1.489
386.20 1.486
386.30 1.484
386.40 1.48
386.50 1.477
386.60 1.473
386.70 1.469
386.80 1.464
386.90 1.459
387.00 1.453
387.10 1.448
387.20 1.441
387.30 1.434
387.40 1.427
387.50 1.419
387.60 1.411
387.70 1.402
387.80 1.392
387.90 1.382
388.00 1.371
388.10 1.358
388.20 1.344
388.30 1.329
388.40 1.314
388.50 1.3
388.60 1.287
388.70 1.279
388.80 1.273
388.90 1.267
389.00 1.272
389.10 1.278
389.20 1.286
389.30 1.298
389.40 1.312
389.50 1.328
389.60 1.343
389.70 1.357
389.80 1.37
389.90 1.382
390.00 1.393
390.10 1.403
390.20 1.413
390.30 1.422
390.40 1.431
390.50 1.439
390.60 1.447
390.70 1.454
390.80 1.461
390.90 1.467
391.00 1.473
391.10 1.479
391.20 1.484
391.30 1.489
391.40 1.494
391.50 1.498
391.60 1.503
391.70 1.506
391.80 1.509
391.90 1.512
392.00 1.514
392.10 1.516
392.20 1.517
392.30 1.518
392.40 1.518
392.50 1.518
392.60 1.517
392.70 1.516
392.80 1.515
392.90 1.512
393.00 1.51
393.10 1.507
393.20 1.503
393.30 1.499
393.40 1.494
393.50 1.489
393.60 1.483
393.70 1.477
393.80 1.47
393.90 1.463
394.00 1.455
394.10 1.447
394.20 1.438
394.30 1.429
394.40 1.419
394.50 1.409
394.60 1.399
394.70 1.388
394.80 1.376
394.90 1.364
395.00 1.352
395.10 1.34
395.20 1.327
395.30 1.314
395.40 1.3
395.50 1.287
395.60 1.272
395.70 1.257
395.80 1.242
395.90 1.226
396.00 1.211
396.10 1.194
396.20 1.177
396.30 1.157
396.40 1.137
396.50 1.112
396.60 1.087
396.70 1.061
396.80 1.043
396.90 1.024
397.00 1.005
397.10 1.022
397.20 1.039
397.30 1.056
397.40 1.08
397.50 1.105
397.60 1.129
397.70 1.149
397.80 1.167
397.90 1.185
398.00 1.2
398.10 1.215
398.20 1.23
398.30 1.245
398.40 1.259
398.50 1.274
398.60 1.287
398.70 1.301
398.80 1.314
398.90 1.327
399.00 1.339
399.10 1.352
399.20 1.364
399.30 1.376
399.40 1.388
399.50 1.399
399.60 1.41
399.70 1.421
399.80 1.432
399.90 1.442
400.00 1.452
400.10 1.462
400.20 1.471
400.30 1.48
400.40 1.489
400.50 1.497
400.60 1.505
400.70 1.513
400.80 1.52
400.90 1.528
401.00 1.534
401.10 1.541
401.20 1.547
401.30 1.552
401.40 1.558
401.50 1.563
401.60 1.567
401.70 1.572
401.80 1.576
401.90 1.58
402.00 1.583
402.10 1.587
402.20 1.589
402.30 1.592
402.40 1.594
402.50 1.596
402.60 1.598
402.70 1.599
402.80 1.6
402.90 1.601
403.00 1.601
403.10 1.601
403.20 1.601
403.30 1.6
403.40 1.599
403.50 1.598
403.60 1.597
403.70 1.595
403.80 1.593
403.90 1.59
404.00 1.587
404.10 1.584
404.20 1.581
404.30 1.577
404.40 1.573
404.50 1.568
404.60 1.564
404.70 1.559
404.80 1.553
404.90 1.548
405.00 1.542
405.10 1.535
405.20 1.529
405.30 1.522
405.40 1.514
405.50 1.507
405.60 1.499
405.70 1.49
405.80 1.482
405.90 1.473
406.00 1.464
406.10 1.454
406.20 1.444
406.30 1.434
406.40 1.423
406.50 1.412
406.60 1.401
406.70 1.39
406.80 1.378
406.90 1.366
407.00 1.353
407.10 1.34
407.20 1.327
407.30 1.314
407.40 1.3
407.50 1.286
407.60 1.272
407.70 1.257
407.80 1.243
407.90 1.228
408.00 1.213
408.10 1.197
408.20 1.182
408.30 1.166
408.40 1.15
408.50 1.134
408.60 1.118
408.70 1.102
408.80 1.085
408.90 1.068
409.00 1.051
409.10 1.034
409.20 1.017
409.30 1
409.40 0.9822
409.50 0.9626
409.60 0.9419
409.70 0.9173
409.80 0.8909
409.90 0.8628
410.00 0.8367
410.10 0.8168
410.20 0.8031
410.30 0.8248
410.40 0.849
410.50 0.8755
410.60 0.9017
410.70 0.9259
410.80 0.9479
410.90 0.9665
411.00 0.9841
411.10 1.001
411.20 1.016
411.30 1.032
411.40 1.048
411.50 1.063
411.60 1.078
411.70 1.094
411.80 1.109
411.90 1.124
412.00 1.138
412.10 1.152
412.20 1.167
412.30 1.181
412.40 1.194
412.50 1.208
412.60 1.222
412.70 1.235
412.80 1.248
412.90 1.261
413.00 1.273
413.10 1.285
413.20 1.297
413.30 1.309
413.40 1.321
413.50 1.332
413.60 1.343
413.70 1.353
413.80 1.364
413.90 1.374
414.00 1.384
414.10 1.394
414.20 1.403
414.30 1.412
414.40 1.421
414.50 1.43
414.60 1.438
414.70 1.447
414.80 1.455
414.90 1.463
415.00 1.47
415.10 1.478
415.20 1.485
415.30 1.492
415.40 1.498
415.50 1.505
415.60 1.511
415.70 1.518
415.80 1.524
415.90 1.529
416.00 1.535
416.10 1.54
416.20 1.546
416.30 1.551
416.40 1.556
416.50 1.56
416.60 1.565
416.70 1.569
416.80 1.574
416.90 1.578
417.00 1.582
417.10 1.586
417.20 1.589
417.30 1.593
417.40 1.596
417.50 1.599
417.60 1.602
417.70 1.605
417.80 1.608
417.90 1.611
418.00 1.613
418.10 1.615
418.20 1.618
418.30 1.62
418.40 1.622
418.50 1.624
418.60 1.626
418.70 1.627
418.80 1.629
418.90 1.631
419.00 1.632
419.10 1.633
419.20 1.634
419.30 1.636
419.40 1.637
419.50 1.637
419.60 1.638
419.70 1.639
419.80 1.64
419.90 1.64
420.00 1.641
420.10 1.641
420.20 1.641
420.30 1.641
420.40 1.642
420.50 1.642
420.60 1.642
420.70 1.641
420.80 1.641
420.90 1.641
421.00 1.641
421.10 1.64
421.20 1.64
421.30 1.639
421.40 1.638
421.50 1.638
421.60 1.637
421.70 1.636
421.80 1.635
421.90 1.634
422.00 1.633
422.10 1.631
422.20 1.63
422.30 1.629
422.40 1.627
422.50 1.626
422.60 1.624
422.70 1.623
422.80 1.621
422.90 1.619
423.00 1.617
423.10 1.615
423.20 1.613
423.30 1.611
423.40 1.609
423.50 1.607
423.60 1.604
423.70 1.602
423.80 1.599
423.90 1.597
424.00 1.594
424.10 1.592
424.20 1.589
424.30 1.586
424.40 1.583
424.50 1.58
424.60 1.577
424.70 1.574
424.80 1.57
424.90 1.567
425.00 1.563
425.10 1.56
425.20 1.556
425.30 1.552
425.40 1.549
425.50 1.545
425.60 1.541
425.70 1.536
425.80 1.532
425.90 1.528
426.00 1.523
426.10 1.519
426.20 1.513
426.30 1.508
426.40 1.503
426.50 1.498
426.60 1.493
426.70 1.488
426.80 1.482
426.90 1.477
427.00 1.471
427.10 1.466
427.20 1.46
427.30 1.454
427.40 1.448
427.50 1.442
427.60 1.435
427.70 1.429
427.80 1.422
427.90 1.415
428.00 1.409
428.10 1.402
428.20 1.394
428.30 1.387
428.40 1.38
428.50 1.372
428.60 1.364
428.70 1.356
428.80 1.348
428.90 1.34
429.00 1.332
429.10 1.323
429.20 1.314
429.30 1.306
429.40 1.297
429.50 1.287
429.60 1.278
429.70 1.268
429.80 1.259
429.90 1.249
430.00 1.239
430.10 1.229
430.20 1.218
430.30 1.208
430.40 1.197
430.50 1.186
430.60 1.175
430.70 1.164
430.80 1.153
430.90 1.141
431.00 1.13
431.10 1.118
431.20 1.106
431.30 1.093
431.40 1.081
431.50 1.069
431.60 1.056
431.70 1.043
431.80 1.03
431.90 1.017
432.00 1.004
432.10 0.9904
432.20 0.9767
432.30 0.9629
432.40 0.9488
432.50 0.9343
432.60 0.9195
432.70 0.9045
432.80 0.8893
432.90 0.8742
433.00 0.8591
433.10 0.8445
433.20 0.8298
433.30 0.815
433.40 0.7992
433.50 0.7819
433.60 0.7634
433.70 0.7385
433.80 0.7091
433.90 0.675
434.00 0.6289
434.10 0.6296
434.20 0.677
434.30 0.7099
434.40 0.7382
434.50 0.7618
434.60 0.7793
434.70 0.7954
434.80 0.8103
434.90 0.824
435.00 0.8378
435.10 0.8514
435.20 0.8654
435.30 0.8794
435.40 0.8935
435.50 0.9073
435.60 0.9207
435.70 0.9339
435.80 0.9467
435.90 0.9593
436.00 0.9715
436.10 0.9835
436.20 0.9954
436.30 1.007
436.40 1.018
436.50 1.03
436.60 1.041
436.70 1.052
436.80 1.062
436.90 1.073
437.00 1.083
437.10 1.094
437.20 1.104
437.30 1.113
437.40 1.123
437.50 1.132
437.60 1.142
437.70 1.151
437.80 1.159
437.90 1.168
438.00 1.176
438.10 1.185
438.20 1.193
438.30 1.201
438.40 1.208
438.50 1.216
438.60 1.223
438.70 1.231
438.80 1.238
438.90 1.245
439.00 1.251
439.10 1.258
439.20 1.264
439.30 1.27
439.40 1.276
439.50 1.282
439.60 1.288
439.70 1.294
439.80 1.299
439.90 1.304
440.00 1.309
440.10 1.314
440.20 1.319
440.30 1.324
440.40 1.329
440.50 1.333
440.60 1.337
440.70 1.342
440.80 1.346
440.90 1.35
441.00 1.353
441.10 1.357
441.20 1.361
441.30 1.364
441.40 1.368
441.50 1.371
441.60 1.374
441.70 1.377
441.80 1.38
441.90 1.383
442.00 1.386
442.10 1.389
442.20 1.391
442.30 1.394
442.40 1.396
442.50 1.398
442.60 1.401
442.70 1.403
442.80 1.405
442.90 1.407
443.00 1.409
443.10 1.411
443.20 1.412
443.30 1.414
443.40 1.416
443.50 1.417
443.60 1.419
443.70 1.42
443.80 1.422
443.90 1.423
444.00 1.424
444.10 1.426
444.20 1.427
444.30 1.428
444.40 1.429
444.50 1.43
444.60 1.431
444.70 1.432
444.80 1.433
444.90 1.434
445.00 1.435
445.10 1.435
445.20 1.436
445.30 1.437
445.40 1.437
445.50 1.438
445.60 1.438
445.70 1.439
445.80 1.439
445.90 1.44
446.00 1.44
446.10 1.441
446.20 1.441
446.30 1.441
446.40 1.442
446.50 1.442
446.60 1.442
446.70 1.442
446.80 1.442
446.90 1.442
447.00 1.443
447.10 1.443
447.20 1.443
447.30 1.443
447.40 1.443
447.50 1.443
447.60 1.443
447.70 1.443
447.80 1.442
447.90 1.442
448.00 1.442
448.10 1.442
448.20 1.442
448.30 1.442
448.40 1.441
448.50 1.441
448.60 1.441
448.70 1.441
448.80 1.44
448.90 1.44
449.00 1.44
449.10 1.44
449.20 1.439
449.30 1.439
449.40 1.439
449.50 1.438
449.60 1.438
449.70 1.437
449.80 1.437
449.90 1.437
450.00 1.436
450.10 1.436
450.20 1.435
450.30 1.435
450.40 1.434
450.50 1.434
450.60 1.433
450.70 1.433
450.80 1.432
450.90 1.431
451.00 1.431
451.10 1.43
451.20 1.43
451.30 1.429
451.40 1.428
451.50 1.428
451.60 1.427
451.70 1.427
451.80 1.426
451.90 1.425
452.00 1.425
452.10 1.424
452.20 1.423
452.30 1.422
452.40 1.422
452.50 1.421
452.60 1.42
452.70 1.42
452.80 1.419
452.90 1.418
453.00 1.417
453.10 1.417
453.20 1.416
453.30 1.415
453.40 1.414
453.50 1.414
453.60 1.413
453.70 1.412
453.80 1.411
453.90 1.41
454.00 1.41
454.10 1.409
454.20 1.408
454.30 1.407
454.40 1.406
454.50 1.406
454.60 1.405
454.70 1.404
454.80 1.403
454.90 1.402
455.00 1.401
455.10 1.4
455.20 1.4
455.30 1.399
455.40 1.398
455.50 1.397
455.60 1.396
455.70 1.395
455.80 1.394
455.90 1.393
456.00 1.393
456.10 1.392
456.20 1.391
456.30 1.39
456.40 1.389
456.50 1.388
456.60 1.387
456.70 1.386
456.80 1.385
456.90 1.385
457.00 1.384
457.10 1.383
457.20 1.382
457.30 1.381
457.40 1.38
457.50 1.379
457.60 1.378
457.70 1.377
457.80 1.376
457.90 1.375
458.00 1.374
458.10 1.373
458.20 1.373
458.30 1.372
458.40 1.371
458.50 1.37
458.60 1.369
458.70 1.368
458.80 1.367
458.90 1.366
459.00 1.365
459.10 1.364
459.20 1.363
459.30 1.362
459.40 1.361
459.50 1.36
459.60 1.359
459.70 1.358
459.80 1.357
459.90 1.356
460.00 1.354
460.10 1.353
460.20 1.352
460.30 1.351
460.40 1.35
460.50 1.349
460.60 1.348
460.70 1.347
460.80 1.346
460.90 1.345
461.00 1.344
461.10 1.343
461.20 1.342
461.30 1.341
461.40 1.34
461.50 1.339
461.60 1.338
461.70 1.337
461.80 1.336
461.90 1.334
462.00 1.333
462.10 1.332
462.20 1.331
462.30 1.33
462.40 1.329
462.50 1.328
462.60 1.327
462.70 1.326
462.80 1.325
462.90 1.324
463.00 1.322
463.10 1.321
463.20 1.32
463.30 1.319
463.40 1.318
463.50 1.317
463.60 1.316
463.70 1.315
463.80 1.313
463.90 1.312
464.00 1.311
464.10 1.31
464.20 1.309
464.30 1.308
464.40 1.306
464.50 1.305
464.60 1.304
464.70 1.303
464.80 1.302
464.90 1.301
465.00 1.299
465.10 1.298
465.20 1.297
465.30 1.296
465.40 1.295
465.50 1.293
465.60 1.292
465.70 1.291
465.80 1.29
465.90 1.289
466.00 1.287
466.10 1.286
466.20 1.285
466.30 1.284
466.40 1.282
466.50 1.281
466.60 1.28
466.70 1.279
466.80 1.277
466.90 1.276
467.00 1.275
467.10 1.273
467.20 1.272
467.30 1.271
467.40 1.269
467.50 1.268
467.60 1.267
467.70 1.266
467.80 1.264
467.90 1.263
468.00 1.262
468.10 1.26
468.20 1.259
468.30 1.257
468.40 1.256
468.50 1.255
468.60 1.253
468.70 1.252
468.80 1.251
468.90 1.249
469.00 1.248
469.10 1.246
469.20 1.245
469.30 1.243
469.40 1.242
469.50 1.24
469.60 1.239
469.70 1.237
469.80 1.236
469.90 1.235
470.00 1.233
470.10 1.232
470.20 1.23
470.30 1.229
470.40 1.227
470.50 1.226
470.60 1.224
470.70 1.222
470.80 1.221
470.90 1.219
471.00 1.218
471.10 1.216
471.20 1.215
471.30 1.213
471.40 1.211
471.50 1.21
471.60 1.208
471.70 1.206
471.80 1.205
471.90 1.203
472.00 1.201
472.10 1.2
472.20 1.198
472.30 1.196
472.40 1.194
472.50 1.192
472.60 1.19
472.70 1.189
472.80 1.187
472.90 1.185
473.00 1.183
473.10 1.181
473.20 1.179
473.30 1.177
473.40 1.175
473.50 1.173
473.60 1.171
473.70 1.169
473.80 1.167
473.90 1.165
474.00 1.163
474.10 1.161
474.20 1.159
474.30 1.156
474.40 1.154
474.50 1.152
474.60 1.15
474.70 1.147
474.80 1.145
474.90 1.143
475.00 1.141
475.10 1.138
475.20 1.136
475.30 1.133
475.40 1.131
475.50 1.128
475.60 1.126
475.70 1.123
475.80 1.121
475.90 1.118
476.00 1.116
476.10 1.113
476.20 1.11
476.30 1.107
476.40 1.105
476.50 1.102
476.60 1.099
476.70 1.096
476.80 1.093
476.90 1.09
477.00 1.087
477.10 1.084
477.20 1.081
477.30 1.078
477.40 1.075
477.50 1.071
477.60 1.068
477.70 1.065
477.80 1.062
477.90 1.058
478.00 1.055
478.10 1.052
478.20 1.048
478.30 1.044
478.40 1.04
478.50 1.037
478.60 1.033
478.70 1.029
478.80 1.025
478.90 1.021
479.00 1.018
479.10 1.014
479.20 1.01
479.30 1.005
479.40 1.001
479.50 0.9966
479.60 0.9923
479.70 0.9879
479.80 0.9836
479.90 0.9792
480.00 0.9749
480.10 0.9706
480.20 0.9658
480.30 0.9608
480.40 0.9557
480.50 0.9507
480.60 0.9458
480.70 0.9408
480.80 0.9358
480.90 0.9308
481.00 0.9258
481.10 0.9208
481.20 0.9153
481.30 0.9095
481.40 0.9038
481.50 0.898
481.60 0.8922
481.70 0.8865
481.80 0.8807
481.90 0.875
482.00 0.8693
482.10 0.8635
482.20 0.8572
482.30 0.8505
482.40 0.8439
482.50 0.8373
482.60 0.8307
482.70 0.8241
482.80 0.8174
482.90 0.8108
483.00 0.8043
483.10 0.7977
483.20 0.7903
483.30 0.7825
483.40 0.7748
483.50 0.767
483.60 0.7593
483.70 0.7516
483.80 0.7439
483.90 0.7361
484.00 0.7284
484.10 0.7207
484.20 0.7123
484.30 0.7034
484.40 0.6946
484.50 0.6858
484.60 0.6771
484.70 0.6677
484.80 0.658
484.90 0.6484
485.00 0.6388
485.10 0.6291
485.20 0.6192
485.30 0.6092
485.40 0.5987
485.50 0.588
485.60 0.5761
485.70 0.5637
485.80 0.5466
485.90 0.5274
486.00 0.4977
486.10 0.4377
486.20 0.4609
486.30 0.5098
486.40 0.5323
486.50 0.5513
486.60 0.5654
486.70 0.5773
486.80 0.5879
486.90 0.598
487.00 0.6076
487.10 0.6169
487.20 0.6259
487.30 0.6348
487.40 0.6437
487.50 0.6525
487.60 0.6614
487.70 0.6696
487.80 0.6775
487.90 0.6854
488.00 0.6934
488.10 0.7013
488.20 0.7084
488.30 0.7151
488.40 0.7218
488.50 0.7286
488.60 0.7353
488.70 0.742
488.80 0.7487
488.90 0.7554
489.00 0.7621
489.10 0.7688
489.20 0.7746
489.30 0.78
489.40 0.7855
489.50 0.7909
489.60 0.7963
489.70 0.8017
489.80 0.8071
489.90 0.8125
490.00 0.818
490.10 0.8233
490.20 0.8281
490.30 0.8325
490.40 0.837
490.50 0.8414
490.60 0.8458
490.70 0.8502
490.80 0.8546
490.90 0.859
491.00 0.8634
491.10 0.8678
491.20 0.8717
491.30 0.8752
491.40 0.8788
491.50 0.8823
491.60 0.8859
491.70 0.8894
491.80 0.8929
491.90 0.8965
492.00 0.9
492.10 0.9035
492.20 0.9066
492.30 0.9094
492.40 0.9122
492.50 0.915
492.60 0.9178
492.70 0.9205
492.80 0.9233
492.90 0.9261
493.00 0.9289
493.10 0.9317
493.20 0.9341
493.30 0.9363
493.40 0.9385
493.50 0.9407
493.60 0.9429
493.70 0.9451
493.80 0.9473
493.90 0.9494
494.00 0.9516
494.10 0.9538
494.20 0.9556
494.30 0.9572
494.40 0.9589
494.50 0.9605
494.60 0.9621
494.70 0.9637
494.80 0.9653
494.90 0.967
495.00 0.9686
495.10 0.9702
495.20 0.9715
495.30 0.9727
495.40 0.9738
495.50 0.975
495.60 0.9762
495.70 0.9773
495.80 0.9785
495.90 0.9797
496.00 0.9808
496.10 0.982
496.20 0.9829
496.30 0.9838
496.40 0.9846
496.50 0.9854
496.60 0.9862
496.70 0.9871
496.80 0.9879
496.90 0.9887
497.00 0.9895
497.10 0.9904
497.20 0.991
497.30 0.9915
497.40 0.992
497.50 0.9926
497.60 0.9931
497.70 0.9936
497.80 0.9942
497.90 0.9947
498.00 0.9952
498.10 0.9958
498.20 0.9961
498.30 0.9964
498.40 0.9967
498.50 0.997
498.60 0.9973
498.70 0.9976
498.80 0.9979
498.90 0.9982
499.00 0.9985
499.10 0.9988
499.20 0.999
499.30 0.9991
499.40 0.9993
499.50 0.9994
499.60 0.9995
499.70 0.9996
499.80 0.9998
499.90 0.9999
500.00 1
500.10 1
500.20 1
500.30 1
500.40 1
500.50 1
500.60 1
500.70 1
500.80 1
500.90 1
501.00 1
501.10 0.9999
501.20 0.9998
501.30 0.9997
501.40 0.9996
501.50 0.9994
501.60 0.9993
501.70 0.9992
501.80 0.999
501.90 0.9989
502.00 0.9988
502.10 0.9986
502.20 0.9984
502.30 0.9982
502.40 0.998
502.50 0.9977
502.60 0.9975
502.70 0.9973
502.80 0.9971
502.90 0.9968
503.00 0.9966
503.10 0.9964
503.20 0.9961
503.30 0.9958
503.40 0.9955
503.50 0.9952
503.60 0.995
503.70 0.9947
503.80 0.9944
503.90 0.9941
504.00 0.9938
504.10 0.9935
504.20 0.9932
504.30 0.9928
504.40 0.9924
504.50 0.9921
504.60 0.9917
504.70 0.9914
504.80 0.991
504.90 0.9906
505.00 0.9903
505.10 0.9899
505.20 0.9895
505.30 0.9891
505.40 0.9887
505.50 0.9884
505.60 0.988
505.70 0.9876
505.80 0.9872
505.90 0.9868
506.00 0.9864
506.10 0.986
506.20 0.9855
506.30 0.9851
506.40 0.9847
506.50 0.9842
506.60 0.9838
506.70 0.9834
506.80 0.9829
506.90 0.9825
507.00 0.9821
507.10 0.9816
507.20 0.9812
507.30 0.9807
507.40 0.9802
507.50 0.9798
507.60 0.9793
507.70 0.9788
507.80 0.9784
507.90 0.9779
508.00 0.9774
508.10 0.977
508.20 0.9765
508.30 0.976
508.40 0.9755
508.50 0.975
508.60 0.9745
508.70 0.974
508.80 0.9735
508.90 0.973
509.00 0.9726
509.10 0.9721
509.20 0.9716
509.30 0.971
509.40 0.9705
509.50 0.97
509.60 0.9695
509.70 0.969
509.80 0.9685
509.90 0.968
510.00 0.9675
510.10 0.967
510.20 0.9665
510.30 0.9659
510.40 0.9654
510.50 0.9649
510.60 0.9644
510.70 0.9638
510.80 0.9633
510.90 0.9628
511.00 0.9623
511.10 0.9617
511.20 0.9612
511.30 0.9607
511.40 0.9601
511.50 0.9596
511.60 0.959
511.70 0.9585
511.80 0.958
511.90 0.9574
512.00 0.9569
512.10 0.9563
512.20 0.9558
512.30 0.9552
512.40 0.9547
512.50 0.9542
512.60 0.9536
512.70 0.9531
512.80 0.9525
512.90 0.952
513.00 0.9514
513.10 0.9509
513.20 0.9503
513.30 0.9498
513.40 0.9493
513.50 0.9487
513.60 0.9482
513.70 0.9476
513.80 0.9471
513.90 0.9465
514.00 0.946
514.10 0.9454
514.20 0.9449
514.30 0.9443
514.40 0.9438
514.50 0.9432
514.60 0.9426
514.70 0.9421
514.80 0.9415
514.90 0.941
515.00 0.9404
515.10 0.9399
515.20 0.9393
515.30 0.9387
515.40 0.9382
515.50 0.9376
515.60 0.9371
515.70 0.9365
515.80 0.9359
515.90 0.9354
516.00 0.9348
516.10 0.9343
516.20 0.9337
516.30 0.9331
516.40 0.9326
516.50 0.932
516.60 0.9314
516.70 0.9309
516.80 0.9303
516.90 0.9297
517.00 0.9292
517.10 0.9286
517.20 0.9281
517.30 0.9275
517.40 0.9269
517.50 0.9264
517.60 0.9258
517.70 0.9252
517.80 0.9247
517.90 0.9241
518.00 0.9235
518.10 0.923
518.20 0.9224
518.30 0.9218
518.40 0.9213
518.50 0.9207
518.60 0.9202
518.70 0.9196
518.80 0.919
518.90 0.9185
519.00 0.9179
519.10 0.9173
519.20 0.9168
519.30 0.9162
519.40 0.9157
519.50 0.9151
519.60 0.9145
519.70 0.914
519.80 0.9134
519.90 0.9128
520.00 0.9123
520.10 0.9117
520.20 0.9111
520.30 0.9106
520.40 0.91
520.50 0.9095
520.60 0.9089
520.70 0.9083
520.80 0.9078
520.90 0.9072
521.00 0.9066
521.10 0.9061
521.20 0.9055
521.30 0.905
521.40 0.9044
521.50 0.9038
521.60 0.9033
521.70 0.9027
521.80 0.9021
521.90 0.9016
522.00 0.901
522.10 0.9004
522.20 0.8999
522.30 0.8993
522.40 0.8988
522.50 0.8982
522.60 0.8976
522.70 0.8971
522.80 0.8965
522.90 0.896
523.00 0.8954
523.10 0.8948
523.20 0.8943
523.30 0.8937
523.40 0.8932
523.50 0.8926
523.60 0.8921
523.70 0.8915
523.80 0.8909
523.90 0.8904
524.00 0.8898
524.10 0.8893
524.20 0.8887
524.30 0.8882
524.40 0.8876
524.50 0.887
524.60 0.8865
524.70 0.8859
524.80 0.8854
524.90 0.8848
525.00 0.8842
525.10 0.8837
525.20 0.8831
525.30 0.8826
525.40 0.882
525.50 0.8815
525.60 0.8809
525.70 0.8803
525.80 0.8798
525.90 0.8792
526.00 0.8787
526.10 0.8781
526.20 0.8776
526.30 0.877
526.40 0.8765
526.50 0.8759
526.60 0.8754
526.70 0.8748
526.80 0.8742
526.90 0.8737
527.00 0.8731
527.10 0.8726
527.20 0.872
527.30 0.8715
527.40 0.8709
527.50 0.8704
527.60 0.8698
527.70 0.8693
527.80 0.8688
527.90 0.8682
528.00 0.8677
528.10 0.8671
528.20 0.8666
528.30 0.866
528.40 0.8655
528.50 0.8649
528.60 0.8644
528.70 0.8638
528.80 0.8633
528.90 0.8627
529.00 0.8622
529.10 0.8617
529.20 0.8611
529.30 0.8606
529.40 0.86
529.50 0.8595
529.60 0.8589
529.70 0.8584
529.80 0.8579
529.90 0.8573
530.00 0.8568
530.10 0.8562
530.20 0.8557
530.30 0.8551
530.40 0.8546
530.50 0.8541
530.60 0.8535
530.70 0.853
530.80 0.8524
530.90 0.8519
531.00 0.8513
531.10 0.8508
531.20 0.8503
531.30 0.8497
531.40 0.8492
531.50 0.8486
531.60 0.8481
531.70 0.8476
531.80 0.847
531.90 0.8465
532.00 0.846
532.10 0.8454
532.20 0.8449
532.30 0.8444
532.40 0.8438
532.50 0.8433
532.60 0.8428
532.70 0.8422
532.80 0.8417
532.90 0.8412
533.00 0.8407
533.10 0.8401
533.20 0.8396
533.30 0.8391
533.40 0.8385
533.50 0.838
533.60 0.8375
533.70 0.8369
533.80 0.8364
533.90 0.8359
534.00 0.8353
534.10 0.8348
534.20 0.8343
534.30 0.8337
534.40 0.8332
534.50 0.8327
534.60 0.8322
534.70 0.8316
534.80 0.8311
534.90 0.8306
535.00 0.8301
535.10 0.8295
535.20 0.829
535.30 0.8285
535.40 0.828
535.50 0.8274
535.60 0.8269
535.70 0.8264
535.80 0.8259
535.90 0.8254
536.00 0.8248
536.10 0.8243
536.20 0.8238
536.30 0.8233
536.40 0.8227
536.50 0.8222
536.60 0.8217
536.70 0.8212
536.80 0.8207
536.90 0.8201
537.00 0.8196
537.10 0.8191
537.20 0.8186
537.30 0.818
537.40 0.8175
537.50 0.817
537.60 0.8165
537.70 0.816
537.80 0.8155
537.90 0.815
538.00 0.8144
538.10 0.8139
538.20 0.8134
538.30 0.8129
538.40 0.8124
538.50 0.8119
538.60 0.8114
538.70 0.8109
538.80 0.8103
538.90 0.8098
539.00 0.8093
539.10 0.8088
539.20 0.8083
539.30 0.8078
539.40 0.8073
539.50 0.8068
539.60 0.8063
539.70 0.8058
539.80 0.8053
539.90 0.8047
540.00 0.8042
540.10 0.8037
540.20 0.8032
540.30 0.8027
540.40 0.8022
540.50 0.8017
540.60 0.8012
540.70 0.8007
540.80 0.8002
540.90 0.7997
541.00 0.7992
541.10 0.7987
541.20 0.7982
541.30 0.7977
541.40 0.7972
541.50 0.7967
541.60 0.7962
541.70 0.7957
541.80 0.7952
541.90 0.7947
542.00 0.7942
542.10 0.7937
542.20 0.7932
542.30 0.7927
542.40 0.7922
542.50 0.7917
542.60 0.7912
542.70 0.7907
542.80 0.7902
542.90 0.7897
543.00 0.7892
543.10 0.7887
543.20 0.7882
543.30 0.7877
543.40 0.7872
543.50 0.7867
543.60 0.7862
543.70 0.7857
543.80 0.7852
543.90 0.7848
544.00 0.7843
544.10 0.7838
544.20 0.7833
544.30 0.7828
544.40 0.7823
544.50 0.7818
544.60 0.7813
544.70 0.7808
544.80 0.7803
544.90 0.7798
545.00 0.7793
545.10 0.7789
545.20 0.7784
545.30 0.7779
545.40 0.7774
545.50 0.7769
545.60 0.7764
545.70 0.7759
545.80 0.7754
545.90 0.7749
546.00 0.7744
546.10 0.774
546.20 0.7735
546.30 0.7731
546.40 0.7727
546.50 0.7723
546.60 0.7719
546.70 0.7715
546.80 0.7711
546.90 0.7706
547.00 0.7702
547.10 0.7698
547.20 0.7694
547.30 0.7689
547.40 0.7684
547.50 0.7679
547.60 0.7674
547.70 0.7669
547.80 0.7665
547.90 0.766
548.00 0.7655
548.10 0.765
548.20 0.7645
548.30 0.7641
548.40 0.7636
548.50 0.7631
548.60 0.7626
548.70 0.7621
548.80 0.7616
548.90 0.7612
549.00 0.7607
549.10 0.7602
549.20 0.7597
549.30 0.7592
549.40 0.7588
549.50 0.7583
549.60 0.7578
549.70 0.7573
549.80 0.7569
549.90 0.7564
550.00 0.7559
550.10 0.7554
550.20 0.755
550.30 0.7545
550.40 0.754
550.50 0.7535
550.60 0.7531
550.70 0.7526
550.80 0.7521
550.90 0.7517
551.00 0.7512
551.10 0.7507
551.20 0.7503
551.30 0.7498
551.40 0.7493
551.50 0.7488
551.60 0.7484
551.70 0.7479
551.80 0.7474
551.90 0.747
552.00 0.7465
552.10 0.746
552.20 0.7456
552.30 0.7451
552.40 0.7446
552.50 0.7442
552.60 0.7437
552.70 0.7432
552.80 0.7428
552.90 0.7423
553.00 0.7419
553.10 0.7414
553.20 0.7409
553.30 0.7405
553.40 0.74
553.50 0.7395
553.60 0.7391
553.70 0.7386
553.80 0.7382
553.90 0.7377
554.00 0.7372
554.10 0.7368
554.20 0.7363
554.30 0.7359
554.40 0.7354
554.50 0.735
554.60 0.7345
554.70 0.734
554.80 0.7336
554.90 0.7331
555.00 0.7327
555.10 0.7322
555.20 0.7318
555.30 0.7313
555.40 0.7308
555.50 0.7304
555.60 0.7299
555.70 0.7295
555.80 0.729
555.90 0.7286
556.00 0.7281
556.10 0.7277
556.20 0.7272
556.30 0.7268
556.40 0.7263
556.50 0.7259
556.60 0.7254
556.70 0.7249
556.80 0.7245
556.90 0.724
557.00 0.7236
557.10 0.7231
557.20 0.7227
557.30 0.7223
557.40 0.7218
557.50 0.7214
557.60 0.7209
557.70 0.7205
557.80 0.72
557.90 0.7196
558.00 0.7191
558.10 0.7187
558.20 0.7183
558.30 0.7178
558.40 0.7174
558.50 0.7169
558.60 0.7165
558.70 0.716
558.80 0.7156
558.90 0.7151
559.00 0.7147
559.10 0.7142
559.20 0.7138
559.30 0.7134
559.40 0.7129
559.50 0.7125
559.60 0.712
559.70 0.7116
559.80 0.7112
559.90 0.7107
560.00 0.7103
560.10 0.7099
560.20 0.7094
560.30 0.709
560.40 0.7086
560.50 0.7081
560.60 0.7077
560.70 0.7072
560.80 0.7068
560.90 0.7064
561.00 0.7059
561.10 0.7055
561.20 0.7051
561.30 0.7046
561.40 0.7042
561.50 0.7038
561.60 0.7033
561.70 0.7029
561.80 0.7025
561.90 0.702
562.00 0.7016
562.10 0.7012
562.20 0.7007
562.30 0.7003
562.40 0.6999
562.50 0.6995
562.60 0.699
562.70 0.6986
562.80 0.6982
562.90 0.6977
563.00 0.6973
563.10 0.6969
563.20 0.6964
563.30 0.696
563.40 0.6956
563.50 0.6952
563.60 0.6947
563.70 0.6943
563.80 0.6939
563.90 0.6935
564.00 0.693
564.10 0.6926
564.20 0.6922
564.30 0.6917
564.40 0.6913
564.50 0.6909
564.60 0.6905
564.70 0.69
564.80 0.6896
564.90 0.6892
565.00 0.6888
565.10 0.6884
565.20 0.6879
565.30 0.6875
565.40 0.6871
565.50 0.6867
565.60 0.6863
565.70 0.6858
565.80 0.6854
565.90 0.685
566.00 0.6846
566.10 0.6842
566.20 0.6838
566.30 0.6833
566.40 0.6829
566.50 0.6825
566.60 0.6821
566.70 0.6817
566.80 0.6812
566.90 0.6808
567.00 0.6804
567.10 0.68
567.20 0.6796
567.30 0.6792
567.40 0.6787
567.50 0.6783
567.60 0.6779
567.70 0.6775
567.80 0.6771
567.90 0.6767
568.00 0.6763
568.10 0.6759
568.20 0.6755
568.30 0.675
568.40 0.6746
568.50 0.6742
568.60 0.6738
568.70 0.6734
568.80 0.673
568.90 0.6726
569.00 0.6722
569.10 0.6718
569.20 0.6714
569.30 0.671
569.40 0.6705
569.50 0.6701
569.60 0.6697
569.70 0.6693
569.80 0.6689
569.90 0.6685
570.00 0.6681
570.10 0.6677
570.20 0.6673
570.30 0.6669
570.40 0.6665
570.50 0.6661
570.60 0.6657
570.70 0.6653
570.80 0.6649
570.90 0.6645
571.00 0.6641
571.10 0.6637
571.20 0.6632
571.30 0.6628
571.40 0.6624
571.50 0.662
571.60 0.6616
571.70 0.6612
571.80 0.6608
571.90 0.6604
572.00 0.66
572.10 0.6596
572.20 0.6592
572.30 0.6588
572.40 0.6584
572.50 0.658
572.60 0.6576
572.70 0.6572
572.80 0.6568
572.90 0.6564
573.00 0.656
573.10 0.6556
573.20 0.6552
573.30 0.6548
573.40 0.6544
573.50 0.654
573.60 0.6536
573.70 0.6532
573.80 0.6528
573.90 0.6524
574.00 0.6521
574.10 0.6517
574.20 0.6513
574.30 0.6509
574.40 0.6505
574.50 0.6501
574.60 0.6497
574.70 0.6493
574.80 0.6489
574.90 0.6485
575.00 0.6481
575.10 0.6478
575.20 0.6474
575.30 0.647
575.40 0.6466
575.50 0.6462
575.60 0.6458
575.70 0.6454
575.80 0.645
575.90 0.6447
576.00 0.6443
576.10 0.6439
576.20 0.6435
576.30 0.6431
576.40 0.6427
576.50 0.6423
576.60 0.6419
576.70 0.6415
576.80 0.6411
576.90 0.6408
577.00 0.6404
577.10 0.64
577.20 0.6396
577.30 0.6392
577.40 0.6388
577.50 0.6384
577.60 0.6381
577.70 0.6377
577.80 0.6373
577.90 0.6369
578.00 0.6365
578.10 0.6362
578.20 0.6358
578.30 0.6354
578.40 0.635
578.50 0.6346
578.60 0.6342
578.70 0.6339
578.80 0.6335
578.90 0.6331
579.00 0.6327
579.10 0.6323
579.20 0.632
579.30 0.6316
579.40 0.6312
579.50 0.6308
579.60 0.6304
579.70 0.6301
579.80 0.6297
579.90 0.6293
580.00 0.6289
580.10 0.6286
580.20 0.6282
580.30 0.6278
580.40 0.6274
580.50 0.6271
580.60 0.6267
580.70 0.6263
580.80 0.626
580.90 0.6256
581.00 0.6252
581.10 0.6248
581.20 0.6245
581.30 0.6241
581.40 0.6237
581.50 0.6234
581.60 0.623
581.70 0.6226
581.80 0.6222
581.90 0.6219
582.00 0.6215
582.10 0.6211
582.20 0.6207
582.30 0.6204
582.40 0.62
582.50 0.6196
582.60 0.6193
582.70 0.6189
582.80 0.6185
582.90 0.6182
583.00 0.6178
583.10 0.6174
583.20 0.6171
583.30 0.6167
583.40 0.6163
583.50 0.616
583.60 0.6156
583.70 0.6152
583.80 0.6149
583.90 0.6145
584.00 0.6141
584.10 0.6137
584.20 0.6134
584.30 0.613
584.40 0.6127
584.50 0.6123
584.60 0.6119
584.70 0.6116
584.80 0.6112
584.90 0.6108
585.00 0.6105
585.10 0.6101
585.20 0.6098
585.30 0.6094
585.40 0.609
585.50 0.6087
585.60 0.6083
585.70 0.608
585.80 0.6076
585.90 0.6072
586.00 0.6069
586.10 0.6065
586.20 0.6062
586.30 0.6058
586.40 0.6054
586.50 0.6051
586.60 0.6047
586.70 0.6044
586.80 0.604
586.90 0.6037
587.00 0.6033
587.10 0.6029
587.20 0.6026
587.30 0.6022
587.40 0.6019
587.50 0.6015
587.60 0.6012
587.70 0.6008
587.80 0.6004
587.90 0.6001
588.00 0.5997
588.10 0.5994
588.20 0.599
588.30 0.5987
588.40 0.5983
588.50 0.598
588.60 0.5976
588.70 0.5973
588.80 0.5969
588.90 0.5965
589.00 0.5962
589.10 0.5958
589.20 0.5955
589.30 0.5951
589.40 0.5948
589.50 0.5944
589.60 0.5941
589.70 0.5937
589.80 0.5934
589.90 0.593
590.00 0.5927
590.10 0.5923
590.20 0.592
590.30 0.5916
590.40 0.5913
590.50 0.5909
590.60 0.5906
590.70 0.5902
590.80 0.5899
590.90 0.5896
591.00 0.5892
591.10 0.5889
591.20 0.5885
591.30 0.5882
591.40 0.5878
591.50 0.5875
591.60 0.5871
591.70 0.5868
591.80 0.5864
591.90 0.5861
592.00 0.5857
592.10 0.5854
592.20 0.585
592.30 0.5847
592.40 0.5844
592.50 0.584
592.60 0.5837
592.70 0.5833
592.80 0.583
592.90 0.5827
593.00 0.5823
593.10 0.582
593.20 0.5816
593.30 0.5813
593.40 0.581
593.50 0.5806
593.60 0.5803
593.70 0.5799
593.80 0.5796
593.90 0.5792
594.00 0.5789
594.10 0.5785
594.20 0.5782
594.30 0.5779
594.40 0.5775
594.50 0.5772
594.60 0.5769
594.70 0.5765
594.80 0.5762
594.90 0.5758
595.00 0.5755
595.10 0.5752
595.20 0.5748
595.30 0.5745
595.40 0.5742
595.50 0.5738
595.60 0.5735
595.70 0.5732
595.80 0.5728
595.90 0.5725
596.00 0.5722
596.10 0.5718
596.20 0.5714
596.30 0.5709
596.40 0.5705
596.50 0.57
596.60 0.5696
596.70 0.5691
596.80 0.5686
596.90 0.5682
597.00 0.5677
597.10 0.5673
597.20 0.5669
597.30 0.5666
597.40 0.5662
597.50 0.5659
597.60 0.5655
597.70 0.5652
597.80 0.5649
597.90 0.5645
598.00 0.5642
598.10 0.5639
598.20 0.5635
598.30 0.5632
598.40 0.5629
598.50 0.5625
598.60 0.5622
598.70 0.5619
598.80 0.5616
598.90 0.5612
599.00 0.5609
599.10 0.5606
599.20 0.5602
599.30 0.5599
599.40 0.5596
599.50 0.5593
599.60 0.5589
599.70 0.5586
599.80 0.5583
599.90 0.5579
600.00 0.5576
600.10 0.5573
600.20 0.5569
600.30 0.5566
600.40 0.5563
600.50 0.556
600.60 0.5556
600.70 0.5553
600.80 0.555
600.90 0.5547
601.00 0.5543
601.10 0.554
601.20 0.5537
601.30 0.5534
601.40 0.553
601.50 0.5527
601.60 0.5524
601.70 0.552
601.80 0.5517
601.90 0.5514
602.00 0.5511
602.10 0.5507
602.20 0.5504
602.30 0.5501
602.40 0.5498
602.50 0.5494
602.60 0.5491
602.70 0.5488
602.80 0.5485
602.90 0.5482
603.00 0.5478
603.10 0.5475
603.20 0.5472
603.30 0.5469
603.40 0.5465
603.50 0.5462
603.60 0.5459
603.70 0.5456
603.80 0.5452
603.90 0.5449
604.00 0.5446
604.10 0.5443
604.20 0.544
604.30 0.5436
604.40 0.5433
604.50 0.543
604.60 0.5427
604.70 0.5424
604.80 0.542
604.90 0.5417
605.00 0.5414
605.10 0.5411
605.20 0.5408
605.30 0.5405
605.40 0.5401
605.50 0.5398
605.60 0.5395
605.70 0.5392
605.80 0.5389
605.90 0.5386
606.00 0.5382
606.10 0.5379
606.20 0.5376
606.30 0.5373
606.40 0.537
606.50 0.5367
606.60 0.5363
606.70 0.536
606.80 0.5357
606.90 0.5354
607.00 0.5351
607.10 0.5347
607.20 0.5344
607.30 0.5341
607.40 0.5338
607.50 0.5335
607.60 0.5332
607.70 0.5329
607.80 0.5326
607.90 0.5322
608.00 0.5319
608.10 0.5316
608.20 0.5313
608.30 0.531
608.40 0.5307
608.50 0.5304
608.60 0.5301
608.70 0.5298
608.80 0.5294
608.90 0.5291
609.00 0.5288
609.10 0.5285
609.20 0.5282
609.30 0.5279
609.40 0.5276
609.50 0.5273
609.60 0.527
609.70 0.5267
609.80 0.5263
609.90 0.526
610.00 0.5257
610.10 0.5254
610.20 0.5251
610.30 0.5248
610.40 0.5245
610.50 0.5242
610.60 0.5239
610.70 0.5236
610.80 0.5232
610.90 0.5229
611.00 0.5226
611.10 0.5223
611.20 0.522
611.30 0.5217
611.40 0.5214
611.50 0.5211
611.60 0.5208
611.70 0.5205
611.80 0.5202
611.90 0.5199
612.00 0.5196
612.10 0.5192
612.20 0.5189
612.30 0.5186
612.40 0.5183
612.50 0.518
612.60 0.5177
612.70 0.5174
612.80 0.5171
612.90 0.5168
613.00 0.5165
613.10 0.5162
613.20 0.5159
613.30 0.5156
613.40 0.5153
613.50 0.515
613.60 0.5147
613.70 0.5144
613.80 0.5141
613.90 0.5138
614.00 0.5135
614.10 0.5131
614.20 0.5128
614.30 0.5125
614.40 0.5122
614.50 0.5119
614.60 0.5116
614.70 0.5113
614.80 0.511
614.90 0.5107
615.00 0.5104
615.10 0.5101
615.20 0.5098
615.30 0.5095
615.40 0.5092
615.50 0.5089
615.60 0.5086
615.70 0.5083
615.80 0.508
615.90 0.5077
616.00 0.5074
616.10 0.5071
616.20 0.5068
616.30 0.5065
616.40 0.5062
616.50 0.5059
616.60 0.5056
616.70 0.5053
616.80 0.505
616.90 0.5047
617.00 0.5044
617.10 0.5041
617.20 0.5038
617.30 0.5035
617.40 0.5032
617.50 0.5029
617.60 0.5026
617.70 0.5023
617.80 0.502
617.90 0.5017
618.00 0.5014
618.10 0.5011
618.20 0.5008
618.30 0.5005
618.40 0.5002
618.50 0.4999
618.60 0.4996
618.70 0.4993
618.80 0.499
618.90 0.4987
619.00 0.4984
619.10 0.4981
619.20 0.4978
619.30 0.4975
619.40 0.4972
619.50 0.4969
619.60 0.4966
619.70 0.4963
619.80 0.496
619.90 0.4957
620.00 0.4954
620.10 0.4951
620.20 0.4948
620.30 0.4945
620.40 0.4942
620.50 0.4939
620.60 0.4936
620.70 0.4933
620.80 0.493
620.90 0.4927
621.00 0.4924
621.10 0.4921
621.20 0.4918
621.30 0.4915
621.40 0.4912
621.50 0.4909
621.60 0.4906
621.70 0.4903
621.80 0.49
621.90 0.4897
622.00 0.4894
622.10 0.4891
622.20 0.4888
622.30 0.4885
622.40 0.4883
622.50 0.488
622.60 0.4877
622.70 0.4874
622.80 0.4871
622.90 0.4868
623.00 0.4865
623.10 0.4862
623.20 0.4859
623.30 0.4856
623.40 0.4853
623.50 0.485
623.60 0.4847
623.70 0.4844
623.80 0.4841
623.90 0.4838
624.00 0.4835
624.10 0.4832
624.20 0.4829
624.30 0.4826
624.40 0.4823
624.50 0.482
624.60 0.4817
624.70 0.4814
624.80 0.4811
624.90 0.4808
625.00 0.4805
625.10 0.4802
625.20 0.4799
625.30 0.4796
625.40 0.4793
625.50 0.479
625.60 0.4787
625.70 0.4784
625.80 0.4781
625.90 0.4778
626.00 0.4775
626.10 0.4772
626.20 0.4769
626.30 0.4766
626.40 0.4763
626.50 0.476
626.60 0.4757
626.70 0.4754
626.80 0.4751
626.90 0.4748
627.00 0.4745
627.10 0.4742
627.20 0.4739
627.30 0.4736
627.40 0.4733
627.50 0.473
627.60 0.4727
627.70 0.4724
627.80 0.4721
627.90 0.4718
628.00 0.4715
628.10 0.4712
628.20 0.4709
628.30 0.4706
628.40 0.4703
628.50 0.47
628.60 0.4697
628.70 0.4694
628.80 0.4691
628.90 0.4688
629.00 0.4685
629.10 0.4682
629.20 0.4679
629.30 0.4676
629.40 0.4673
629.50 0.467
629.60 0.4667
629.70 0.4664
629.80 0.4661
629.90 0.4658
630.00 0.4655
630.10 0.4652
630.20 0.4649
630.30 0.4646
630.40 0.4642
630.50 0.4639
630.60 0.4636
630.70 0.4633
630.80 0.463
630.90 0.4627
631.00 0.4624
631.10 0.4621
631.20 0.4618
631.30 0.4615
631.40 0.4612
631.50 0.4609
631.60 0.4606
631.70 0.4602
631.80 0.4599
631.90 0.4596
632.00 0.4593
632.10 0.459
632.20 0.4587
632.30 0.4584
632.40 0.4581
632.50 0.4577
632.60 0.4574
632.70 0.4571
632.80 0.4568
632.90 0.4565
633.00 0.4561
633.10 0.4558
633.20 0.4555
633.30 0.4552
633.40 0.4549
633.50 0.4545
633.60 0.4542
633.70 0.4539
633.80 0.4536
633.90 0.4532
634.00 0.4529
634.10 0.4526
634.20 0.4523
634.30 0.4519
634.40 0.4516
634.50 0.4513
634.60 0.4509
634.70 0.4506
634.80 0.4503
634.90 0.4499
635.00 0.4496
635.10 0.4493
635.20 0.4489
635.30 0.4486
635.40 0.4483
635.50 0.4479
635.60 0.4476
635.70 0.4472
635.80 0.4469
635.90 0.4465
636.00 0.4462
636.10 0.4459
636.20 0.4455
636.30 0.4452
636.40 0.4448
636.50 0.4445
636.60 0.4441
636.70 0.4438
636.80 0.4434
636.90 0.443
637.00 0.4427
637.10 0.4423
637.20 0.442
637.30 0.4416
637.40 0.4413
637.50 0.4409
637.60 0.4405
637.70 0.4402
637.80 0.4398
637.90 0.4394
638.00 0.4391
638.10 0.4387
638.20 0.4383
638.30 0.438
638.40 0.4376
638.50 0.4372
638.60 0.4368
638.70 0.4364
638.80 0.436
638.90 0.4356
639.00 0.4353
639.10 0.4349
639.20 0.4345
639.30 0.4341
639.40 0.4337
639.50 0.4333
639.60 0.4329
639.70 0.4325
639.80 0.4321
639.90 0.4317
640.00 0.4313
640.10 0.4309
640.20 0.4305
640.30 0.43
640.40 0.4296
640.50 0.4292
640.60 0.4288
640.70 0.4283
640.80 0.4279
640.90 0.4275
641.00 0.427
641.10 0.4266
641.20 0.4262
641.30 0.4257
641.40 0.4253
641.50 0.4248
641.60 0.4243
641.70 0.4239
641.80 0.4234
641.90 0.423
642.00 0.4225
642.10 0.422
642.20 0.4216
642.30 0.4211
642.40 0.4206
642.50 0.4201
642.60 0.4196
642.70 0.4191
642.80 0.4186
642.90 0.4181
643.00 0.4176
643.10 0.4171
643.20 0.4166
643.30 0.4161
643.40 0.4156
643.50 0.415
643.60 0.4145
643.70 0.414
643.80 0.4134
643.90 0.4129
644.00 0.4123
644.10 0.4118
644.20 0.4113
644.30 0.4107
644.40 0.4101
644.50 0.4095
644.60 0.4089
644.70 0.4083
644.80 0.4077
644.90 0.4071
645.00 0.4065
645.10 0.4059
645.20 0.4054
645.30 0.4047
645.40 0.4041
645.50 0.4034
645.60 0.4028
645.70 0.4021
645.80 0.4015
645.90 0.4008
646.00 0.4001
646.10 0.3995
646.20 0.3988
646.30 0.3982
646.40 0.3974
646.50 0.3967
646.60 0.396
646.70 0.3952
646.80 0.3945
646.90 0.3938
647.00 0.393
647.10 0.3923
647.20 0.3916
647.30 0.3908
647.40 0.39
647.50 0.3892
647.60 0.3883
647.70 0.3875
647.80 0.3867
647.90 0.3858
648.00 0.385
648.10 0.3842
648.20 0.3834
648.30 0.3825
648.40 0.3815
648.50 0.3806
648.60 0.3796
648.70 0.3787
648.80 0.3777
648.90 0.3767
649.00 0.3758
649.10 0.3748
649.20 0.3739
649.30 0.3729
649.40 0.3718
649.50 0.3707
649.60 0.3696
649.70 0.3685
649.80 0.3674
649.90 0.3663
650.00 0.3652
650.10 0.3641
650.20 0.363
650.30 0.3619
650.40 0.3606
650.50 0.3593
650.60 0.358
650.70 0.3567
650.80 0.3555
650.90 0.3542
651.00 0.3529
651.10 0.3516
651.20 0.3503
651.30 0.349
651.40 0.3476
651.50 0.3461
651.60 0.3446
651.70 0.3432
651.80 0.3417
651.90 0.3402
652.00 0.3388
652.10 0.3373
652.20 0.3358
652.30 0.3343
652.40 0.3326
652.50 0.3309
652.60 0.3292
652.70 0.3276
652.80 0.3259
652.90 0.3242
653.00 0.3225
653.10 0.3208
653.20 0.3191
653.30 0.3174
653.40 0.3154
653.50 0.3134
653.60 0.3114
653.70 0.3094
653.80 0.3074
653.90 0.3054
654.00 0.3034
654.10 0.3014
654.20 0.2994
654.30 0.2974
654.40 0.2951
654.50 0.2928
654.60 0.2906
654.70 0.2883
654.80 0.2859
654.90 0.2833
655.00 0.2807
655.10 0.2781
655.20 0.2755
655.30 0.2728
655.40 0.2698
655.50 0.2667
655.60 0.2633
655.70 0.2597
655.80 0.2554
655.90 0.2503
656.00 0.2426
656.10 0.2339
656.20 0.2109
656.30 0.1893
656.40 0.2229
656.50 0.2373
656.60 0.2449
656.70 0.2518
656.80 0.2559
656.90 0.2598
657.00 0.263
657.10 0.2661
657.20 0.2688
657.30 0.2714
657.40 0.2738
657.50 0.2762
657.60 0.2785
657.70 0.2809
657.80 0.2831
657.90 0.2851
658.00 0.2871
658.10 0.2891
658.20 0.2911
658.30 0.293
658.40 0.2946
658.50 0.2963
658.60 0.298
658.70 0.2997
658.80 0.3013
658.90 0.303
659.00 0.3047
659.10 0.3064
659.20 0.308
659.30 0.3096
659.40 0.311
659.50 0.3123
659.60 0.3136
659.70 0.315
659.80 0.3163
659.90 0.3177
660.00 0.319
660.10 0.3203
660.20 0.3217
660.30 0.3229
660.40 0.324
660.50 0.3251
660.60 0.3262
660.70 0.3273
660.80 0.3284
660.90 0.3294
661.00 0.3305
661.10 0.3316
661.20 0.3327
661.30 0.3337
661.40 0.3346
661.50 0.3355
661.60 0.3364
661.70 0.3372
661.80 0.3381
661.90 0.339
662.00 0.3399
662.10 0.3407
662.20 0.3416
662.30 0.3424
662.40 0.3431
662.50 0.3438
662.60 0.3445
662.70 0.3451
662.80 0.3458
662.90 0.3465
663.00 0.3471
663.10 0.3478
663.20 0.3485
663.30 0.3491
663.40 0.3497
663.50 0.3502
663.60 0.3507
663.70 0.3512
663.80 0.3517
663.90 0.3523
664.00 0.3528
664.10 0.3533
664.20 0.3538
664.30 0.3543
664.40 0.3547
664.50 0.3551
664.60 0.3555
664.70 0.3558
664.80 0.3562
664.90 0.3566
665.00 0.357
665.10 0.3574
665.20 0.3578
665.30 0.3581
665.40 0.3584
665.50 0.3587
665.60 0.3589
665.70 0.3592
665.80 0.3595
665.90 0.3598
666.00 0.3601
666.10 0.3603
666.20 0.3606
666.30 0.3609
666.40 0.3611
666.50 0.3613
666.60 0.3615
666.70 0.3616
666.80 0.3618
666.90 0.362
667.00 0.3622
667.10 0.3624
667.20 0.3626
667.30 0.3628
667.40 0.3629
667.50 0.3631
667.60 0.3632
667.70 0.3633
667.80 0.3635
667.90 0.3636
668.00 0.3637
668.10 0.3639
668.20 0.364
668.30 0.3641
668.40 0.3642
668.50 0.3643
668.60 0.3643
668.70 0.3644
668.80 0.3645
668.90 0.3646
669.00 0.3646
669.10 0.3647
669.20 0.3648
669.30 0.3648
669.40 0.3649
669.50 0.3649
669.60 0.3649
669.70 0.365
669.80 0.365
669.90 0.365
670.00 0.3651
670.10 0.3651
670.20 0.3651
670.30 0.3651
670.40 0.3651
670.50 0.3651
670.60 0.3651
670.70 0.3651
670.80 0.3651
670.90 0.3651
671.00 0.3651
671.10 0.3651
671.20 0.3651
671.30 0.3651
671.40 0.365
671.50 0.365
671.60 0.365
671.70 0.3649
671.80 0.3649
671.90 0.3649
672.00 0.3648
672.10 0.3648
672.20 0.3647
672.30 0.3647
672.40 0.3646
672.50 0.3646
672.60 0.3645
672.70 0.3645
672.80 0.3644
672.90 0.3643
673.00 0.3643
673.10 0.3642
673.20 0.3642
673.30 0.3641
673.40 0.364
673.50 0.3639
673.60 0.3639
673.70 0.3638
673.80 0.3637
673.90 0.3636
674.00 0.3635
674.10 0.3635
674.20 0.3634
674.30 0.3633
674.40 0.3632
674.50 0.3631
674.60 0.363
674.70 0.3629
674.80 0.3628
674.90 0.3627
675.00 0.3626
675.10 0.3625
675.20 0.3624
675.30 0.3623
675.40 0.3622
675.50 0.3621
675.60 0.362
675.70 0.3619
675.80 0.3618
675.90 0.3617
676.00 0.3616
676.10 0.3615
676.20 0.3614
676.30 0.3612
676.40 0.3611
676.50 0.361
676.60 0.3609
676.70 0.3608
676.80 0.3606
676.90 0.3605
677.00 0.3604
677.10 0.3603
677.20 0.3602
677.30 0.36
677.40 0.3599
677.50 0.3598
677.60 0.3597
677.70 0.3595
677.80 0.3594
677.90 0.3593
678.00 0.3591
678.10 0.359
678.20 0.3589
678.30 0.3588
678.40 0.3586
678.50 0.3585
678.60 0.3583
678.70 0.3582
678.80 0.3581
678.90 0.3579
679.00 0.3578
679.10 0.3577
679.20 0.3575
679.30 0.3574
679.40 0.3572
679.50 0.3571
679.60 0.357
679.70 0.3568
679.80 0.3567
679.90 0.3565
680.00 0.3564
680.10 0.3562
680.20 0.3561
680.30 0.356
680.40 0.3558
680.50 0.3557
680.60 0.3555
680.70 0.3554
680.80 0.3552
680.90 0.3551
681.00 0.3549
681.10 0.3548
681.20 0.3546
681.30 0.3545
681.40 0.3543
681.50 0.3542
681.60 0.354
681.70 0.3539
681.80 0.3537
681.90 0.3536
682.00 0.3534
682.10 0.3533
682.20 0.3531
682.30 0.353
682.40 0.3528
682.50 0.3527
682.60 0.3525
682.70 0.3524
682.80 0.3522
682.90 0.3521
683.00 0.3519
683.10 0.3518
683.20 0.3516
683.30 0.3515
683.40 0.3513
683.50 0.3511
683.60 0.351
683.70 0.3508
683.80 0.3507
683.90 0.3505
684.00 0.3504
684.10 0.3502
684.20 0.3501
684.30 0.3499
684.40 0.3497
684.50 0.3496
684.60 0.3494
684.70 0.3493
684.80 0.3491
684.90 0.349
685.00 0.3488
685.10 0.3486
685.20 0.3485
685.30 0.3483
685.40 0.3482
685.50 0.348
685.60 0.3478
685.70 0.3477
685.80 0.3475
685.90 0.3474
686.00 0.3472
686.10 0.3471
686.20 0.3469
686.30 0.3467
686.40 0.3466
686.50 0.3464
686.60 0.3463
686.70 0.3461
686.80 0.3459
686.90 0.3458
687.00 0.3456
687.10 0.3455
687.20 0.3453
687.30 0.3451
687.40 0.345
687.50 0.3448
687.60 0.3447
687.70 0.3445
687.80 0.3443
687.90 0.3442
688.00 0.344
688.10 0.3438
688.20 0.3437
688.30 0.3435
688.40 0.3434
688.50 0.3432
688.60 0.343
688.70 0.3429
688.80 0.3427
688.90 0.3426
689.00 0.3424
689.10 0.3422
689.20 0.3421
689.30 0.3419
689.40 0.3417
689.50 0.3416
689.60 0.3414
689.70 0.3413
689.80 0.3411
689.90 0.3409
690.00 0.3408
690.10 0.3406
690.20 0.3404
690.30 0.3403
690.40 0.3401
690.50 0.3399
690.60 0.3398
690.70 0.3396
690.80 0.3394
690.90 0.3393
691.00 0.3391
691.10 0.3389
691.20 0.3388
691.30 0.3386
691.40 0.3385
691.50 0.3383
691.60 0.3381
691.70 0.338
691.80 0.3378
691.90 0.3376
692.00 0.3375
692.10 0.3373
692.20 0.3371
692.30 0.337
692.40 0.3368
692.50 0.3367
692.60 0.3365
692.70 0.3363
692.80 0.3362
692.90 0.336
693.00 0.3358
693.10 0.3357
693.20 0.3355
693.30 0.3354
693.40 0.3352
693.50 0.335
693.60 0.3349
693.70 0.3347
693.80 0.3345
693.90 0.3344
694.00 0.3342
694.10 0.3341
694.20 0.3339
694.30 0.3337
694.40 0.3336
694.50 0.3334
694.60 0.3333
694.70 0.3331
694.80 0.3329
694.90 0.3328
695.00 0.3326
695.10 0.3324
695.20 0.3323
695.30 0.3321
695.40 0.332
695.50 0.3318
695.60 0.3316
695.70 0.3315
695.80 0.3313
695.90 0.3312
696.00 0.331
696.10 0.3308
696.20 0.3307
696.30 0.3305
696.40 0.3304
696.50 0.3302
696.60 0.33
696.70 0.3299
696.80 0.3297
696.90 0.3296
697.00 0.3294
697.10 0.3292
697.20 0.3291
697.30 0.3289
697.40 0.3288
697.50 0.3286
697.60 0.3284
697.70 0.3283
697.80 0.3281
697.90 0.328
698.00 0.3278
698.10 0.3277
698.20 0.3275
698.30 0.3273
698.40 0.3272
698.50 0.327
698.60 0.3269
698.70 0.3267
698.80 0.3265
698.90 0.3264
699.00 0.3262
699.10 0.3261
699.20 0.3259
699.30 0.3258
699.40 0.3256
699.50 0.3254
699.60 0.3253
699.70 0.3251
699.80 0.325
699.90 0.3248
700.00 0.3247
700.10 0.3245
700.20 0.3243
700.30 0.3242
700.40 0.324
700.50 0.3239
700.60 0.3237
700.70 0.3236
700.80 0.3234
700.90 0.3232
701.00 0.3231
701.10 0.3229
701.20 0.3228
701.30 0.3226
701.40 0.3225
701.50 0.3223
701.60 0.3222
701.70 0.322
701.80 0.3218
701.90 0.3217
702.00 0.3215
702.10 0.3214
702.20 0.3212
702.30 0.3211
702.40 0.3209
702.50 0.3208
702.60 0.3206
702.70 0.3205
702.80 0.3203
702.90 0.3201
703.00 0.32
703.10 0.3198
703.20 0.3197
703.30 0.3195
703.40 0.3194
703.50 0.3192
703.60 0.3191
703.70 0.3189
703.80 0.3188
703.90 0.3186
704.00 0.3185
704.10 0.3183
704.20 0.3182
704.30 0.318
704.40 0.3178
704.50 0.3177
704.60 0.3175
704.70 0.3174
704.80 0.3172
704.90 0.3171
705.00 0.3169
705.10 0.3168
705.20 0.3166
705.30 0.3165
705.40 0.3163
705.50 0.3161
705.60 0.316
705.70 0.3158
705.80 0.3157
705.90 0.3155
706.00 0.3154
706.10 0.3152
706.20 0.3151
706.30 0.3149
706.40 0.3147
706.50 0.3146
706.60 0.3144
706.70 0.3143
706.80 0.3141
706.90 0.314
707.00 0.3138
707.10 0.3137
707.20 0.3135
707.30 0.3134
707.40 0.3132
707.50 0.313
707.60 0.3129
707.70 0.3127
707.80 0.3126
707.90 0.3124
708.00 0.3123
708.10 0.3121
708.20 0.312
708.30 0.3118
708.40 0.3117
708.50 0.3115
708.60 0.3114
708.70 0.3112
708.80 0.311
708.90 0.3109
709.00 0.3107
709.10 0.3106
709.20 0.3104
709.30 0.3103
709.40 0.3101
709.50 0.31
709.60 0.3098
709.70 0.3097
709.80 0.3095
709.90 0.3094
710.00 0.3092
710.10 0.3091
710.20 0.3089
710.30 0.3088
710.40 0.3086
710.50 0.3085
710.60 0.3083
710.70 0.3082
710.80 0.308
710.90 0.3078
711.00 0.3077
711.10 0.3075
711.20 0.3074
711.30 0.3072
711.40 0.3071
711.50 0.3069
711.60 0.3068
711.70 0.3066
711.80 0.3065
711.90 0.3063
712.00 0.3062
712.10 0.306
712.20 0.3059
712.30 0.3057
712.40 0.3056
712.50 0.3054
712.60 0.3053
712.70 0.3051
712.80 0.305
712.90 0.3048
713.00 0.3047
713.10 0.3045
713.20 0.3044
713.30 0.3042
713.40 0.3041
713.50 0.3039
713.60 0.3038
713.70 0.3036
713.80 0.3035
713.90 0.3033
714.00 0.3032
714.10 0.303
714.20 0.3029
714.30 0.3027
714.40 0.3026
714.50 0.3024
714.60 0.3023
714.70 0.3022
714.80 0.302
714.90 0.3019
715.00 0.3017
715.10 0.3016
715.20 0.3014
715.30 0.3013
715.40 0.3011
715.50 0.301
715.60 0.3008
715.70 0.3007
715.80 0.3006
715.90 0.3004
716.00 0.3003
716.10 0.3001
716.20 0.3
716.30 0.2999
716.40 0.2997
716.50 0.2996
716.60 0.2994
716.70 0.2993
716.80 0.2991
716.90 0.299
717.00 0.2989
717.10 0.2987
717.20 0.2986
717.30 0.2984
717.40 0.2983
717.50 0.2981
717.60 0.298
717.70 0.2979
717.80 0.2977
717.90 0.2976
718.00 0.2974
718.10 0.2973
718.20 0.2972
718.30 0.297
718.40 0.2969
718.50 0.2967
718.60 0.2966
718.70 0.2965
718.80 0.2963
718.90 0.2962
719.00 0.296
719.10 0.2959
719.20 0.2958
719.30 0.2956
719.40 0.2955
719.50 0.2953
719.60 0.2952
719.70 0.2951
719.80 0.2949
719.90 0.2948
720.00 0.2946
720.10 0.2945
720.20 0.2943
720.30 0.2942
720.40 0.2941
720.50 0.2939
720.60 0.2938
720.70 0.2936
720.80 0.2935
720.90 0.2933
721.00 0.2932
721.10 0.293
721.20 0.2929
721.30 0.2928
721.40 0.2926
721.50 0.2925
721.60 0.2923
721.70 0.2922
721.80 0.292
721.90 0.2919
722.00 0.2918
722.10 0.2916
722.20 0.2915
722.30 0.2913
722.40 0.2912
722.50 0.291
722.60 0.2909
722.70 0.2908
722.80 0.2906
722.90 0.2905
723.00 0.2903
723.10 0.2902
723.20 0.29
723.30 0.2899
723.40 0.2898
723.50 0.2896
723.60 0.2895
723.70 0.2893
723.80 0.2892
723.90 0.289
724.00 0.2889
724.10 0.2888
724.20 0.2886
724.30 0.2885
724.40 0.2883
724.50 0.2882
724.60 0.2881
724.70 0.2879
724.80 0.2878
724.90 0.2876
725.00 0.2875
725.10 0.2873
725.20 0.2872
725.30 0.2871
725.40 0.2869
725.50 0.2868
725.60 0.2866
725.70 0.2865
725.80 0.2864
725.90 0.2862
726.00 0.2861
726.10 0.2859
726.20 0.2858
726.30 0.2857
726.40 0.2855
726.50 0.2854
726.60 0.2852
726.70 0.2851
726.80 0.285
726.90 0.2848
727.00 0.2847
727.10 0.2846
727.20 0.2844
727.30 0.2843
727.40 0.2841
727.50 0.284
727.60 0.2839
727.70 0.2837
727.80 0.2836
727.90 0.2834
728.00 0.2833
728.10 0.2832
728.20 0.283
728.30 0.2829
728.40 0.2828
728.50 0.2826
728.60 0.2825
728.70 0.2823
728.80 0.2822
728.90 0.2821
729.00 0.2819
729.10 0.2818
729.20 0.2817
729.30 0.2815
729.40 0.2814
729.50 0.2812
729.60 0.2811
729.70 0.281
729.80 0.2808
729.90 0.2807
730.00 0.2806
730.10 0.2804
730.20 0.2803
730.30 0.2801
730.40 0.28
730.50 0.2799
730.60 0.2797
730.70 0.2796
730.80 0.2795
730.90 0.2793
731.00 0.2792
731.10 0.2791
731.20 0.2789
731.30 0.2788
731.40 0.2787
731.50 0.2785
731.60 0.2784
731.70 0.2783
731.80 0.2781
731.90 0.278
732.00 0.2779
732.10 0.2777
732.20 0.2776
732.30 0.2775
732.40 0.2773
732.50 0.2772
732.60 0.2771
732.70 0.2769
732.80 0.2768
732.90 0.2766
733.00 0.2765
733.10 0.2764
733.20 0.2762
733.30 0.2761
733.40 0.276
733.50 0.2758
733.60 0.2757
733.70 0.2756
733.80 0.2754
733.90 0.2753
734.00 0.2752
734.10 0.275
734.20 0.2749
734.30 0.2748
734.40 0.2747
734.50 0.2745
734.60 0.2744
734.70 0.2743
734.80 0.2741
734.90 0.274
735.00 0.2739
735.10 0.2737
735.20 0.2736
735.30 0.2735
735.40 0.2733
735.50 0.2732
735.60 0.2731
735.70 0.2729
735.80 0.2728
735.90 0.2727
736.00 0.2725
736.10 0.2724
736.20 0.2723
736.30 0.2721
736.40 0.272
736.50 0.2719
736.60 0.2717
736.70 0.2716
736.80 0.2715
736.90 0.2714
737.00 0.2712
737.10 0.2711
737.20 0.271
737.30 0.2708
737.40 0.2707
737.50 0.2706
737.60 0.2704
737.70 0.2703
737.80 0.2702
737.90 0.27
738.00 0.2699
738.10 0.2698
738.20 0.2696
738.30 0.2695
738.40 0.2694
738.50 0.2693
738.60 0.2691
738.70 0.269
738.80 0.2689
738.90 0.2687
739.00 0.2686
739.10 0.2685
739.20 0.2683
739.30 0.2682
739.40 0.2681
739.50 0.268
739.60 0.2678
739.70 0.2677
739.80 0.2676
739.90 0.2674
740.00 0.2673
740.10 0.2672
740.20 0.2671
740.30 0.2669
740.40 0.2668
740.50 0.2667
740.60 0.2665
740.70 0.2664
740.80 0.2663
740.90 0.2662
741.00 0.266
741.10 0.2659
741.20 0.2658
741.30 0.2657
741.40 0.2655
741.50 0.2654
741.60 0.2653
741.70 0.2652
741.80 0.265
741.90 0.2649
742.00 0.2648
742.10 0.2646
742.20 0.2645
742.30 0.2644
742.40 0.2643
742.50 0.2641
742.60 0.264
742.70 0.2639
742.80 0.2638
742.90 0.2636
743.00 0.2635
743.10 0.2634
743.20 0.2633
743.30 0.2631
743.40 0.263
743.50 0.2629
743.60 0.2628
743.70 0.2626
743.80 0.2625
743.90 0.2624
744.00 0.2623
744.10 0.2621
744.20 0.262
744.30 0.2619
744.40 0.2618
744.50 0.2616
744.60 0.2615
744.70 0.2614
744.80 0.2613
744.90 0.2611
745.00 0.261
745.10 0.2609
745.20 0.2608
745.30 0.2606
745.40 0.2605
745.50 0.2604
745.60 0.2603
745.70 0.2601
745.80 0.26
745.90 0.2599
746.00 0.2598
746.10 0.2596
746.20 0.2595
746.30 0.2594
746.40 0.2593
746.50 0.2591
746.60 0.259
746.70 0.2589
746.80 0.2588
746.90 0.2586
747.00 0.2585
747.10 0.2584
747.20 0.2583
747.30 0.2582
747.40 0.258
747.50 0.2579
747.60 0.2578
747.70 0.2577
747.80 0.2575
747.90 0.2574
748.00 0.2573
748.10 0.2572
748.20 0.257
748.30 0.2569
748.40 0.2568
748.50 0.2567
748.60 0.2566
748.70 0.2564
748.80 0.2563
748.90 0.2562
749.00 0.2561
749.10 0.2559
749.20 0.2558
749.30 0.2557
749.40 0.2556
749.50 0.2555
749.60 0.2553
749.70 0.2552
749.80 0.2551
749.90 0.255
750.00 0.2548
750.10 0.2547
750.20 0.2546
750.30 0.2545
750.40 0.2544
750.50 0.2542
750.60 0.2541
750.70 0.254
750.80 0.2539
750.90 0.2538
751.00 0.2536
751.10 0.2535
751.20 0.2534
751.30 0.2533
751.40 0.2532
751.50 0.253
751.60 0.2529
751.70 0.2528
751.80 0.2527
751.90 0.2526
752.00 0.2525
752.10 0.2523
752.20 0.2522
752.30 0.2521
752.40 0.252
752.50 0.2519
752.60 0.2517
752.70 0.2516
752.80 0.2515
752.90 0.2514
753.00 0.2513
753.10 0.2511
753.20 0.251
753.30 0.2509
753.40 0.2508
753.50 0.2507
753.60 0.2506
753.70 0.2504
753.80 0.2503
753.90 0.2502
754.00 0.2501
754.10 0.25
754.20 0.2498
754.30 0.2497
754.40 0.2496
754.50 0.2495
754.60 0.2494
754.70 0.2493
754.80 0.2491
754.90 0.249
755.00 0.2489
755.10 0.2488
755.20 0.2487
755.30 0.2486
755.40 0.2484
755.50 0.2483
755.60 0.2482
755.70 0.2481
755.80 0.248
755.90 0.2478
756.00 0.2477
756.10 0.2476
756.20 0.2475
756.30 0.2474
756.40 0.2473
756.50 0.2471
756.60 0.247
756.70 0.2469
756.80 0.2468
756.90 0.2467
757.00 0.2466
757.10 0.2464
757.20 0.2463
757.30 0.2462
757.40 0.2461
757.50 0.246
757.60 0.2459
757.70 0.2458
757.80 0.2456
757.90 0.2455
758.00 0.2454
758.10 0.2453
758.20 0.2452
758.30 0.2451
758.40 0.2449
758.50 0.2448
758.60 0.2447
758.70 0.2446
758.80 0.2445
758.90 0.2444
759.00 0.2442
759.10 0.2441
759.20 0.244
759.30 0.2439
759.40 0.2438
759.50 0.2437
759.60 0.2436
759.70 0.2434
759.80 0.2433
759.90 0.2432
760.00 0.2431
760.10 0.243
760.20 0.2429
760.30 0.2428
760.40 0.2426
760.50 0.2425
760.60 0.2424
760.70 0.2423
760.80 0.2422
760.90 0.2421
761.00 0.242
761.10 0.2419
761.20 0.2417
761.30 0.2416
761.40 0.2415
761.50 0.2414
761.60 0.2413
761.70 0.2412
761.80 0.2411
761.90 0.241
762.00 0.2408
762.10 0.2407
762.20 0.2406
762.30 0.2405
762.40 0.2404
762.50 0.2403
762.60 0.2402
762.70 0.2401
762.80 0.2399
762.90 0.2398
763.00 0.2397
763.10 0.2396
763.20 0.2395
763.30 0.2394
763.40 0.2393
763.50 0.2392
763.60 0.2391
763.70 0.2389
763.80 0.2388
763.90 0.2387
764.00 0.2386
764.10 0.2385
764.20 0.2384
764.30 0.2383
764.40 0.2382
764.50 0.2381
764.60 0.2379
764.70 0.2378
764.80 0.2377
764.90 0.2376
765.00 0.2375
765.10 0.2374
765.20 0.2373
765.30 0.2372
765.40 0.2371
765.50 0.2369
765.60 0.2368
765.70 0.2367
765.80 0.2366
765.90 0.2365
766.00 0.2364
766.10 0.2363
766.20 0.2362
766.30 0.2361
766.40 0.236
766.50 0.2358
766.60 0.2357
766.70 0.2356
766.80 0.2355
766.90 0.2354
767.00 0.2353
767.10 0.2352
767.20 0.2351
767.30 0.235
767.40 0.2349
767.50 0.2347
767.60 0.2346
767.70 0.2345
767.80 0.2344
767.90 0.2343
768.00 0.2342
768.10 0.2341
768.20 0.234
768.30 0.2339
768.40 0.2338
768.50 0.2337
768.60 0.2335
768.70 0.2334
768.80 0.2333
768.90 0.2332
769.00 0.2331
769.10 0.233
769.20 0.2329
769.30 0.2328
769.40 0.2327
769.50 0.2326
769.60 0.2325
769.70 0.2323
769.80 0.2322
769.90 0.2321
770.00 0.232
770.10 0.2319
770.20 0.2318
770.30 0.2317
770.40 0.2316
770.50 0.2315
770.60 0.2314
770.70 0.2313
770.80 0.2312
770.90 0.2311
771.00 0.231
771.10 0.2309
771.20 0.2307
771.30 0.2306
771.40 0.2305
771.50 0.2304
771.60 0.2303
771.70 0.2302
771.80 0.2301
771.90 0.23
772.00 0.2299
772.10 0.2298
772.20 0.2297
772.30 0.2296
772.40 0.2295
772.50 0.2294
772.60 0.2293
772.70 0.2292
772.80 0.2291
772.90 0.2289
773.00 0.2288
773.10 0.2287
773.20 0.2286
773.30 0.2285
773.40 0.2284
773.50 0.2283
773.60 0.2282
773.70 0.2281
773.80 0.228
773.90 0.2279
774.00 0.2278
774.10 0.2277
774.20 0.2276
774.30 0.2275
774.40 0.2274
774.50 0.2273
774.60 0.2272
774.70 0.2271
774.80 0.227
774.90 0.2268
775.00 0.2267
775.10 0.2266
775.20 0.2265
775.30 0.2264
775.40 0.2263
775.50 0.2262
775.60 0.2261
775.70 0.226
775.80 0.2259
775.90 0.2258
776.00 0.2257
776.10 0.2256
776.20 0.2255
776.30 0.2254
776.40 0.2253
776.50 0.2252
776.60 0.2251
776.70 0.225
776.80 0.2249
776.90 0.2248
777.00 0.2247
777.10 0.2246
777.20 0.2245
777.30 0.2244
777.40 0.2243
777.50 0.2241
777.60 0.224
777.70 0.2239
777.80 0.2238
777.90 0.2237
778.00 0.2236
778.10 0.2235
778.20 0.2234
778.30 0.2233
778.40 0.2232
778.50 0.2231
778.60 0.223
778.70 0.2229
778.80 0.2228
778.90 0.2227
779.00 0.2226
779.10 0.2225
779.20 0.2224
779.30 0.2223
779.40 0.2222
779.50 0.2221
779.60 0.222
779.70 0.2219
779.80 0.2218
779.90 0.2217
780.00 0.2216
780.10 0.2215
780.20 0.2214
780.30 0.2213
780.40 0.2212
780.50 0.2211
780.60 0.221
780.70 0.2209
780.80 0.2208
780.90 0.2207
781.00 0.2206
781.10 0.2205
781.20 0.2204
781.30 0.2203
781.40 0.2202
781.50 0.2201
781.60 0.22
781.70 0.2199
781.80 0.2198
781.90 0.2197
782.00 0.2196
782.10 0.2195
782.20 0.2194
782.30 0.2193
782.40 0.2192
782.50 0.2191
782.60 0.219
782.70 0.2189
782.80 0.2188
782.90 0.2187
783.00 0.2186
783.10 0.2185
783.20 0.2184
783.30 0.2183
783.40 0.2182
783.50 0.2181
783.60 0.218
783.70 0.2179
783.80 0.2178
783.90 0.2177
784.00 0.2176
784.10 0.2175
784.20 0.2174
784.30 0.2173
784.40 0.2172
784.50 0.2171
784.60 0.217
784.70 0.2169
784.80 0.2168
784.90 0.2167
785.00 0.2166
785.10 0.2165
785.20 0.2164
785.30 0.2163
785.40 0.2162
785.50 0.2161
785.60 0.216
785.70 0.2159
785.80 0.2158
785.90 0.2157
786.00 0.2156
786.10 0.2155
786.20 0.2154
786.30 0.2153
786.40 0.2152
786.50 0.2151
786.60 0.215
786.70 0.2149
786.80 0.2148
786.90 0.2147
787.00 0.2146
787.10 0.2145
787.20 0.2144
787.30 0.2143
787.40 0.2142
787.50 0.2141
787.60 0.214
787.70 0.2139
787.80 0.2138
787.90 0.2138
788.00 0.2137
788.10 0.2136
788.20 0.2135
788.30 0.2134
788.40 0.2133
788.50 0.2132
788.60 0.2131
788.70 0.213
788.80 0.2129
788.90 0.2128
789.00 0.2127
789.10 0.2126
789.20 0.2125
789.30 0.2124
789.40 0.2123
789.50 0.2122
789.60 0.2121
789.70 0.212
789.80 0.2119
789.90 0.2118
790.00 0.2117
790.10 0.2116
790.20 0.2115
790.30 0.2114
790.40 0.2113
790.50 0.2112
790.60 0.2111
790.70 0.2111
790.80 0.211
790.90 0.2109
791.00 0.2108
791.10 0.2107
791.20 0.2106
791.30 0.2105
791.40 0.2104
791.50 0.2103
791.60 0.2102
791.70 0.2101
791.80 0.21
791.90 0.2099
792.00 0.2098
792.10 0.2097
792.20 0.2096
792.30 0.2095
792.40 0.2094
792.50 0.2093
792.60 0.2093
792.70 0.2092
792.80 0.2091
792.90 0.209
793.00 0.2089
793.10 0.2088
793.20 0.2087
793.30 0.2086
793.40 0.2085
793.50 0.2084
793.60 0.2083
793.70 0.2082
793.80 0.2081
793.90 0.208
794.00 0.2079
794.10 0.2078
794.20 0.2078
794.30 0.2077
794.40 0.2076
794.50 0.2075
794.60 0.2074
794.70 0.2073
794.80 0.2072
794.90 0.2071
795.00 0.207
795.10 0.2069
795.20 0.2068
795.30 0.2067
795.40 0.2066
795.50 0.2065
795.60 0.2064
795.70 0.2064
795.80 0.2063
795.90 0.2062
796.00 0.2061
796.10 0.206
796.20 0.2059
796.30 0.2058
796.40 0.2057
796.50 0.2056
796.60 0.2055
796.70 0.2054
796.80 0.2053
796.90 0.2052
797.00 0.2052
797.10 0.2051
797.20 0.205
797.30 0.2049
797.40 0.2048
797.50 0.2047
797.60 0.2046
797.70 0.2045
797.80 0.2044
797.90 0.2043
798.00 0.2042
798.10 0.2041
798.20 0.204
798.30 0.204
798.40 0.2039
798.50 0.2038
798.60 0.2037
798.70 0.2036
798.80 0.2035
798.90 0.2034
799.00 0.2033
799.10 0.2032
799.20 0.2031
799.30 0.203
799.40 0.2029
799.50 0.2029
799.60 0.2028
799.70 0.2027
799.80 0.2026
799.90 0.2025
800.00 0.2024
800.10 0.2023
800.20 0.2022
800.30 0.2021
800.40 0.202
800.50 0.2019
800.60 0.2019
800.70 0.2018
800.80 0.2017
800.90 0.2016
801.00 0.2015
801.10 0.2014
801.20 0.2013
801.30 0.2012
801.40 0.2011
801.50 0.2011
801.60 0.201
801.70 0.2009
801.80 0.2008
801.90 0.2007
802.00 0.2006
802.10 0.2005
802.20 0.2004
802.30 0.2003
802.40 0.2003
802.50 0.2002
802.60 0.2001
802.70 0.2
802.80 0.1999
802.90 0.1998
803.00 0.1997
803.10 0.1996
803.20 0.1995
803.30 0.1995
803.40 0.1994
803.50 0.1993
803.60 0.1992
803.70 0.1991
803.80 0.199
803.90 0.1989
804.00 0.1988
804.10 0.1987
804.20 0.1987
804.30 0.1986
804.40 0.1985
804.50 0.1984
804.60 0.1983
804.70 0.1982
804.80 0.1981
804.90 0.198
805.00 0.1979
805.10 0.1979
805.20 0.1978
805.30 0.1977
805.40 0.1976
805.50 0.1975
805.60 0.1974
805.70 0.1973
805.80 0.1972
805.90 0.1972
806.00 0.1971
806.10 0.197
806.20 0.1969
806.30 0.1968
806.40 0.1967
806.50 0.1966
806.60 0.1965
806.70 0.1965
806.80 0.1964
806.90 0.1963
807.00 0.1962
807.10 0.1961
807.20 0.196
807.30 0.1959
807.40 0.1958
807.50 0.1958
807.60 0.1957
807.70 0.1956
807.80 0.1955
807.90 0.1954
808.00 0.1953
808.10 0.1952
808.20 0.1951
808.30 0.1951
808.40 0.195
808.50 0.1949
808.60 0.1948
808.70 0.1947
808.80 0.1946
808.90 0.1945
809.00 0.1945
809.10 0.1944
809.20 0.1943
809.30 0.1942
809.40 0.1941
809.50 0.194
809.60 0.1939
809.70 0.1939
809.80 0.1938
809.90 0.1937
810.00 0.1936
810.10 0.1935
810.20 0.1934
810.30 0.1933
810.40 0.1933
810.50 0.1932
810.60 0.1931
810.70 0.193
810.80 0.1929
810.90 0.1928
811.00 0.1927
811.10 0.1927
811.20 0.1926
811.30 0.1925
811.40 0.1924
811.50 0.1923
811.60 0.1922
811.70 0.1922
811.80 0.1921
811.90 0.192
812.00 0.1919
812.10 0.1918
812.20 0.1917
812.30 0.1916
812.40 0.1916
812.50 0.1915
812.60 0.1914
812.70 0.1913
812.80 0.1912
812.90 0.1911
813.00 0.1911
813.10 0.191
813.20 0.1909
813.30 0.1908
813.40 0.1907
813.50 0.1906
813.60 0.1906
813.70 0.1905
813.80 0.1904
813.90 0.1903
814.00 0.1902
814.10 0.1901
814.20 0.1901
814.30 0.19
814.40 0.1899
814.50 0.1898
814.60 0.1897
814.70 0.1896
814.80 0.1895
814.90 0.1895
815.00 0.1894
815.10 0.1893
815.20 0.1892
815.30 0.1891
815.40 0.1891
815.50 0.189
815.60 0.1889
815.70 0.1888
815.80 0.1887
815.90 0.1886
816.00 0.1886
816.10 0.1885
816.20 0.1884
816.30 0.1883
816.40 0.1882
816.50 0.1881
816.60 0.1881
816.70 0.188
816.80 0.1879
816.90 0.1878
817.00 0.1877
817.10 0.1876
817.20 0.1876
817.30 0.1875
817.40 0.1874
817.50 0.1873
817.60 0.1872
817.70 0.1871
817.80 0.1871
817.90 0.187
818.00 0.1869
818.10 0.1868
818.20 0.1867
818.30 0.1867
818.40 0.1866
818.50 0.1865
818.60 0.1864
818.70 0.1863
818.80 0.1862
818.90 0.1862
819.00 0.1861
819.10 0.186
819.20 0.1859
819.30 0.1858
819.40 0.1858
819.50 0.1857
819.60 0.1856
819.70 0.1855
819.80 0.1854
819.90 0.1853
820.00 0.1853
820.10 0.1852
820.20 0.1851
820.30 0.185
820.40 0.1849
820.50 0.1849
820.60 0.1848
820.70 0.1847
820.80 0.1846
820.90 0.1845
821.00 0.1845
821.10 0.1844
821.20 0.1843
821.30 0.1842
821.40 0.1841
821.50 0.1841
821.60 0.184
821.70 0.1839
821.80 0.1838
821.90 0.1837
822.00 0.1837
822.10 0.1836
822.20 0.1835
822.30 0.1834
822.40 0.1833
822.50 0.1833
822.60 0.1832
822.70 0.1831
822.80 0.183
822.90 0.1829
823.00 0.1829
823.10 0.1828
823.20 0.1827
823.30 0.1826
823.40 0.1825
823.50 0.1825
823.60 0.1824
823.70 0.1823
823.80 0.1822
823.90 0.1821
824.00 0.1821
824.10 0.182
824.20 0.1819
824.30 0.1818
824.40 0.1817
824.50 0.1817
824.60 0.1816
824.70 0.1815
824.80 0.1814
824.90 0.1814
825.00 0.1813
825.10 0.1812
825.20 0.1811
825.30 0.181
825.40 0.181
825.50 0.1809
825.60 0.1808
825.70 0.1807
825.80 0.1806
825.90 0.1806
826.00 0.1805
826.10 0.1804
826.20 0.1803
826.30 0.1803
826.40 0.1802
826.50 0.1801
826.60 0.18
826.70 0.1799
826.80 0.1799
826.90 0.1798
827.00 0.1797
827.10 0.1796
827.20 0.1795
827.30 0.1795
827.40 0.1794
827.50 0.1793
827.60 0.1792
827.70 0.1792
827.80 0.1791
827.90 0.179
828.00 0.1789
828.10 0.1789
828.20 0.1788
828.30 0.1787
828.40 0.1786
828.50 0.1785
828.60 0.1785
828.70 0.1784
828.80 0.1783
828.90 0.1782
829.00 0.1782
829.10 0.1781
829.20 0.178
829.30 0.1779
829.40 0.1778
829.50 0.1778
829.60 0.1777
829.70 0.1776
829.80 0.1775
829.90 0.1775
830.00 0.1774
830.10 0.1773
830.20 0.1772
830.30 0.1772
830.40 0.1771
830.50 0.177
830.60 0.1769
830.70 0.1768
830.80 0.1768
830.90 0.1767
831.00 0.1766
831.10 0.1765
831.20 0.1765
831.30 0.1764
831.40 0.1763
831.50 0.1762
831.60 0.1762
831.70 0.1761
831.80 0.176
831.90 0.1759
832.00 0.1759
832.10 0.1758
832.20 0.1757
832.30 0.1756
832.40 0.1756
832.50 0.1755
832.60 0.1754
832.70 0.1753
832.80 0.1753
832.90 0.1752
833.00 0.1751
833.10 0.175
833.20 0.175
833.30 0.1749
833.40 0.1748
833.50 0.1747
833.60 0.1746
833.70 0.1746
833.80 0.1745
833.90 0.1744
834.00 0.1743
834.10 0.1743
834.20 0.1742
834.30 0.1741
834.40 0.174
834.50 0.174
834.60 0.1739
834.70 0.1738
834.80 0.1738
834.90 0.1737
835.00 0.1736
835.10 0.1735
835.20 0.1735
835.30 0.1734
835.40 0.1733
835.50 0.1732
835.60 0.1732
835.70 0.1731
835.80 0.173
835.90 0.1729
836.00 0.1729
836.10 0.1728
836.20 0.1727
836.30 0.1726
836.40 0.1726
836.50 0.1725
836.60 0.1724
836.70 0.1723
836.80 0.1723
836.90 0.1722
837.00 0.1721
837.10 0.172
837.20 0.172
837.30 0.1719
837.40 0.1718
837.50 0.1717
837.60 0.1717
837.70 0.1716
837.80 0.1715
837.90 0.1715
838.00 0.1714
838.10 0.1713
838.20 0.1712
838.30 0.1712
838.40 0.1711
838.50 0.171
838.60 0.1709
838.70 0.1709
838.80 0.1708
838.90 0.1707
839.00 0.1706
839.10 0.1706
839.20 0.1705
839.30 0.1704
839.40 0.1704
839.50 0.1703
839.60 0.1702
839.70 0.1701
839.80 0.1701
839.90 0.17
840.00 0.1699
840.10 0.1698
840.20 0.1698
840.30 0.1697
840.40 0.1696
840.50 0.1696
840.60 0.1695
840.70 0.1694
840.80 0.1693
840.90 0.1693
841.00 0.1692
841.10 0.1691
841.20 0.169
841.30 0.169
841.40 0.1689
841.50 0.1688
841.60 0.1688
841.70 0.1687
841.80 0.1686
841.90 0.1685
842.00 0.1685
842.10 0.1684
842.20 0.1683
842.30 0.1683
842.40 0.1682
842.50 0.1681
842.60 0.168
842.70 0.168
842.80 0.1679
842.90 0.1678
843.00 0.1678
843.10 0.1677
843.20 0.1676
843.30 0.1675
843.40 0.1675
843.50 0.1674
843.60 0.1673
843.70 0.1673
843.80 0.1672
843.90 0.1671
844.00 0.167
844.10 0.167
844.20 0.1669
844.30 0.1668
844.40 0.1668
844.50 0.1667
844.60 0.1666
844.70 0.1665
844.80 0.1665
844.90 0.1664
845.00 0.1663
845.10 0.1663
845.20 0.1662
845.30 0.1661
845.40 0.166
845.50 0.166
845.60 0.1659
845.70 0.1658
845.80 0.1658
845.90 0.1657
846.00 0.1656
846.10 0.1656
846.20 0.1655
846.30 0.1654
846.40 0.1653
846.50 0.1653
846.60 0.1652
846.70 0.1651
846.80 0.1651
846.90 0.165
847.00 0.1649
847.10 0.1649
847.20 0.1648
847.30 0.1647
847.40 0.1646
847.50 0.1646
847.60 0.1645
847.70 0.1644
847.80 0.1644
847.90 0.1643
848.00 0.1642
848.10 0.1642
848.20 0.1641
848.30 0.164
848.40 0.164
848.50 0.1639
848.60 0.1638
848.70 0.1638
848.80 0.1637
848.90 0.1636
849.00 0.1636
849.10 0.1635
849.20 0.1634
849.30 0.1634
849.40 0.1633
849.50 0.1632
849.60 0.1632
849.70 0.1631
849.80 0.163
849.90 0.163
850.00 0.1629
850.10 0.1628
850.20 0.1628
850.30 0.1627
850.40 0.1626
850.50 0.1626
850.60 0.1625
850.70 0.1624
850.80 0.1623
850.90 0.1623
851.00 0.1622
851.10 0.1621
851.20 0.1621
851.30 0.162
851.40 0.1619
851.50 0.1619
851.60 0.1618
851.70 0.1617
851.80 0.1617
851.90 0.1616
852.00 0.1615
852.10 0.1615
852.20 0.1614
852.30 0.1613
852.40 0.1613
852.50 0.1612
852.60 0.1612
852.70 0.1611
852.80 0.161
852.90 0.161
853.00 0.1609
853.10 0.1608
853.20 0.1608
853.30 0.1607
853.40 0.1606
853.50 0.1606
853.60 0.1605
853.70 0.1604
853.80 0.1604
853.90 0.1603
854.00 0.1602
854.10 0.1602
854.20 0.1601
854.30 0.16
854.40 0.16
854.50 0.1599
854.60 0.1598
854.70 0.1598
854.80 0.1597
854.90 0.1596
855.00 0.1596
855.10 0.1595
855.20 0.1594
855.30 0.1594
855.40 0.1593
855.50 0.1592
855.60 0.1592
855.70 0.1591
855.80 0.1591
855.90 0.159
856.00 0.1589
856.10 0.1589
856.20 0.1588
856.30 0.1587
856.40 0.1587
856.50 0.1586
856.60 0.1585
856.70 0.1585
856.80 0.1584
856.90 0.1583
857.00 0.1583
857.10 0.1582
857.20 0.1581
857.30 0.1581
857.40 0.158
857.50 0.158
857.60 0.1579
857.70 0.1578
857.80 0.1578
857.90 0.1577
858.00 0.1576
858.10 0.1576
858.20 0.1575
858.30 0.1575
858.40 0.1574
858.50 0.1573
858.60 0.1573
858.70 0.1572
858.80 0.1571
858.90 0.1571
859.00 0.157
859.10 0.157
859.20 0.1569
859.30 0.1568
859.40 0.1568
859.50 0.1567
859.60 0.1566
859.70 0.1566
859.80 0.1565
859.90 0.1565
860.00 0.1564
860.10 0.1563
860.20 0.1563
860.30 0.1562
860.40 0.1561
860.50 0.1561
860.60 0.156
860.70 0.156
860.80 0.1559
860.90 0.1558
861.00 0.1558
861.10 0.1557
861.20 0.1556
861.30 0.1556
861.40 0.1555
861.50 0.1555
861.60 0.1554
861.70 0.1553
861.80 0.1553
861.90 0.1552
862.00 0.1551
862.10 0.1551
862.20 0.155
862.30 0.155
862.40 0.1549
862.50 0.1548
862.60 0.1548
862.70 0.1547
862.80 0.1547
862.90 0.1546
863.00 0.1545
863.10 0.1545
863.20 0.1544
863.30 0.1544
863.40 0.1543
863.50 0.1542
863.60 0.1542
863.70 0.1541
863.80 0.1541
863.90 0.154
864.00 0.1539
864.10 0.1539
864.20 0.1538
864.30 0.1538
864.40 0.1537
864.50 0.1536
864.60 0.1536
864.70 0.1535
864.80 0.1535
864.90 0.1534
865.00 0.1533
865.10 0.1533
865.20 0.1532
865.30 0.1532
865.40 0.1531
865.50 0.153
865.60 0.153
865.70 0.1529
865.80 0.1529
865.90 0.1528
866.00 0.1527
866.10 0.1527
866.20 0.1526
866.30 0.1526
866.40 0.1525
866.50 0.1524
866.60 0.1524
866.70 0.1523
866.80 0.1523
866.90 0.1522
867.00 0.1521
867.10 0.1521
867.20 0.152
867.30 0.152
867.40 0.1519
867.50 0.1519
867.60 0.1518
867.70 0.1517
867.80 0.1517
867.90 0.1516
868.00 0.1516
868.10 0.1515
868.20 0.1515
868.30 0.1514
868.40 0.1514
868.50 0.1513
868.60 0.1512
868.70 0.1512
868.80 0.1511
868.90 0.1511
869.00 0.151
869.10 0.151
869.20 0.1509
869.30 0.1509
869.40 0.1508
869.50 0.1507
869.60 0.1507
869.70 0.1506
869.80 0.1506
869.90 0.1505
870.00 0.1505
870.10 0.1504
870.20 0.1504
870.30 0.1503
870.40 0.1502
870.50 0.1502
870.60 0.1501
870.70 0.1501
870.80 0.15
870.90 0.15
871.00 0.1499
871.10 0.1499
871.20 0.1498
871.30 0.1498
871.40 0.1497
871.50 0.1496
871.60 0.1496
871.70 0.1495
871.80 0.1495
871.90 0.1494
872.00 0.1494
872.10 0.1493
872.20 0.1493
872.30 0.1492
872.40 0.1491
872.50 0.1491
872.60 0.149
872.70 0.149
872.80 0.1489
872.90 0.1489
873.00 0.1488
873.10 0.1488
873.20 0.1487
873.30 0.1487
873.40 0.1486
873.50 0.1485
873.60 0.1485
873.70 0.1484
873.80 0.1484
873.90 0.1483
874.00 0.1483
874.10 0.1482
874.20 0.1482
874.30 0.1481
874.40 0.1481
874.50 0.148
874.60 0.1479
874.70 0.1479
874.80 0.1478
874.90 0.1478
875.00 0.1477
875.10 0.1477
875.20 0.1476
875.30 0.1476
875.40 0.1475
875.50 0.1475
875.60 0.1474
875.70 0.1473
875.80 0.1473
875.90 0.1472
876.00 0.1472
876.10 0.1471
876.20 0.1471
876.30 0.147
876.40 0.147
876.50 0.1469
876.60 0.1469
876.70 0.1468
876.80 0.1467
876.90 0.1467
877.00 0.1466
877.10 0.1466
877.20 0.1465
877.30 0.1465
877.40 0.1464
877.50 0.1464
877.60 0.1463
877.70 0.1463
877.80 0.1462
877.90 0.1462
878.00 0.1461
878.10 0.1461
878.20 0.146
878.30 0.146
878.40 0.1459
878.50 0.1459
878.60 0.1459
878.70 0.1458
878.80 0.1458
878.90 0.1457
879.00 0.1457
879.10 0.1456
879.20 0.1456
879.30 0.1455
879.40 0.1455
879.50 0.1454
879.60 0.1454
879.70 0.1453
879.80 0.1453
879.90 0.1452
880.00 0.1452
880.10 0.1451
880.20 0.1451
880.30 0.145
880.40 0.145
880.50 0.1449
880.60 0.1449
880.70 0.1448
880.80 0.1448
880.90 0.1447
881.00 0.1447
881.10 0.1446
881.20 0.1446
881.30 0.1445
881.40 0.1445
881.50 0.1444
881.60 0.1444
881.70 0.1443
881.80 0.1443
881.90 0.1442
882.00 0.1442
882.10 0.1441
882.20 0.1441
882.30 0.144
882.40 0.144
882.50 0.1439
882.60 0.1438
882.70 0.1438
882.80 0.1437
882.90 0.1437
883.00 0.1436
883.10 0.1435
883.20 0.1435
883.30 0.1434
883.40 0.1433
883.50 0.1433
883.60 0.1432
883.70 0.1432
883.80 0.1431
883.90 0.143
884.00 0.143
884.10 0.1429
884.20 0.1429
884.30 0.1428
884.40 0.1427
884.50 0.1427
884.60 0.1426
884.70 0.1426
884.80 0.1425
884.90 0.1424
885.00 0.1424
885.10 0.1423
885.20 0.1423
885.30 0.1422
885.40 0.1421
885.50 0.1421
885.60 0.142
885.70 0.142
885.80 0.1419
885.90 0.1418
886.00 0.1418
886.10 0.1417
886.20 0.1417
886.30 0.1416
886.40 0.1415
886.50 0.1415
886.60 0.1414
886.70 0.1414
886.80 0.1413
886.90 0.1412
887.00 0.1412
887.10 0.1411
887.20 0.1411
887.30 0.1411
887.40 0.141
887.50 0.141
887.60 0.141
887.70 0.1409
887.80 0.1409
887.90 0.1409
888.00 0.1408
888.10 0.1408
888.20 0.1408
888.30 0.1407
888.40 0.1407
888.50 0.1407
888.60 0.1406
888.70 0.1406
888.80 0.1406
888.90 0.1405
889.00 0.1405
889.10 0.1405
889.20 0.1404
889.30 0.1404
889.40 0.1404
889.50 0.1403
889.60 0.1403
889.70 0.1403
889.80 0.1402
889.90 0.1402
890.00 0.1402
890.10 0.1401
890.20 0.1401
890.30 0.1401
890.40 0.14
890.50 0.14
890.60 0.14
890.70 0.1399
890.80 0.1399
890.90 0.1399
891.00 0.1398
891.10 0.1398
891.20 0.1398
891.30 0.1397
891.40 0.1397
891.50 0.1397
891.60 0.1396
891.70 0.1396
891.80 0.1396
891.90 0.1395
892.00 0.1395
892.10 0.1394
892.20 0.1394
892.30 0.1393
892.40 0.1393
892.50 0.1393
892.60 0.1392
892.70 0.1392
892.80 0.1391
892.90 0.1391
893.00 0.139
893.10 0.139
893.20 0.1389
893.30 0.1389
893.40 0.1388
893.50 0.1388
893.60 0.1387
893.70 0.1387
893.80 0.1386
893.90 0.1386
894.00 0.1386
894.10 0.1385
894.20 0.1385
894.30 0.1384
894.40 0.1384
894.50 0.1383
894.60 0.1383
894.70 0.1382
894.80 0.1382
894.90 0.1381
895.00 0.1381
895.10 0.138
895.20 0.138
895.30 0.1379
895.40 0.1379
895.50 0.1379
895.60 0.1378
895.70 0.1378
895.80 0.1377
895.90 0.1377
896.00 0.1376
896.10 0.1376
896.20 0.1375
896.30 0.1375
896.40 0.1374
896.50 0.1374
896.60 0.1373
896.70 0.1373
896.80 0.1373
896.90 0.1372
897.00 0.1372
897.10 0.1371
897.20 0.137
897.30 0.1369
897.40 0.1368
897.50 0.1368
897.60 0.1367
897.70 0.1366
897.80 0.1365
897.90 0.1364
898.00 0.1364
898.10 0.1363
898.20 0.1362
898.30 0.1361
898.40 0.136
898.50 0.1359
898.60 0.1359
898.70 0.1358
898.80 0.1357
898.90 0.1356
899.00 0.1355
899.10 0.1355
899.20 0.1354
899.30 0.1353
899.40 0.1352
899.50 0.1351
899.60 0.1351
899.70 0.135
899.80 0.1349
899.90 0.1348
900.00 0.1347
900.10 0.1347
900.20 0.1346
900.30 0.1345
900.40 0.1344
900.50 0.1343
900.60 0.1343
900.70 0.1342
900.80 0.1341
900.90 0.134
901.00 0.1339
901.10 0.1338
901.20 0.1338
901.30 0.1337
901.40 0.1336
901.50 0.1335
901.60 0.1334
901.70 0.1334
901.80 0.1333
901.90 0.1332
902.00 0.1331
902.10 0.1331
902.20 0.1331
902.30 0.1331
902.40 0.1331
902.50 0.1331
902.60 0.1331
902.70 0.133
902.80 0.133
902.90 0.133
903.00 0.133
903.10 0.133
903.20 0.133
903.30 0.133
903.40 0.133
903.50 0.1329
903.60 0.1329
903.70 0.1329
903.80 0.1329
903.90 0.1329
904.00 0.1329
904.10 0.1329
904.20 0.1329
904.30 0.1328
904.40 0.1328
904.50 0.1328
904.60 0.1328
904.70 0.1328
904.80 0.1328
904.90 0.1328
905.00 0.1328
905.10 0.1327
905.20 0.1327
905.30 0.1327
905.40 0.1327
905.50 0.1327
905.60 0.1327
905.70 0.1327
905.80 0.1327
905.90 0.1326
906.00 0.1326
906.10 0.1326
906.20 0.1326
906.30 0.1326
906.40 0.1326
906.50 0.1326
906.60 0.1326
906.70 0.1325
906.80 0.1325
906.90 0.1325
907.00 0.1325
907.10 0.1325
907.20 0.1324
907.30 0.1324
907.40 0.1324
907.50 0.1323
907.60 0.1323
907.70 0.1323
907.80 0.1323
907.90 0.1322
908.00 0.1322
908.10 0.1322
908.20 0.1321
908.30 0.1321
908.40 0.1321
908.50 0.132
908.60 0.132
908.70 0.132
908.80 0.1319
908.90 0.1319
909.00 0.1319
909.10 0.1318
909.20 0.1318
909.30 0.1318
909.40 0.1317
909.50 0.1317
909.60 0.1317
909.70 0.1316
909.80 0.1316
909.90 0.1316
910.00 0.1316
910.10 0.1315
910.20 0.1315
910.30 0.1315
910.40 0.1314
910.50 0.1314
910.60 0.1314
910.70 0.1313
910.80 0.1313
910.90 0.1313
911.00 0.1312
911.10 0.1312
911.20 0.1312
911.30 0.1311
911.40 0.1311
911.50 0.1311
911.60 0.131
911.70 0.131
911.80 0.131
911.90 0.131
912.00 0.1309
912.10 0.1309
912.20 0.1308
912.30 0.1308
912.40 0.1307
912.50 0.1306
912.60 0.1306
912.70 0.1305
912.80 0.1305
912.90 0.1304
913.00 0.1304
913.10 0.1303
913.20 0.1303
913.30 0.1302
913.40 0.1301
913.50 0.1301
913.60 0.13
913.70 0.13
913.80 0.1299
913.90 0.1299
914.00 0.1298
914.10 0.1298
914.20 0.1297
914.30 0.1296
914.40 0.1296
914.50 0.1295
914.60 0.1295
914.70 0.1294
914.80 0.1294
914.90 0.1293
915.00 0.1293
915.10 0.1292
915.20 0.1291
915.30 0.1291
915.40 0.129
915.50 0.129
915.60 0.1289
915.70 0.1289
915.80 0.1288
915.90 0.1288
916.00 0.1287
916.10 0.1286
916.20 0.1286
916.30 0.1285
916.40 0.1285
916.50 0.1284
916.60 0.1284
916.70 0.1283
916.80 0.1283
916.90 0.1282
917.00 0.1282
917.10 0.1281
917.20 0.128
917.30 0.1279
917.40 0.1278
917.50 0.1277
917.60 0.1276
917.70 0.1275
917.80 0.1274
917.90 0.1273
918.00 0.1272
918.10 0.1271
918.20 0.127
918.30 0.1269
918.40 0.1268
918.50 0.1267
918.60 0.1266
918.70 0.1265
918.80 0.1264
918.90 0.1263
919.00 0.1262
919.10 0.1261
919.20 0.1261
919.30 0.126
919.40 0.1259
919.50 0.1258
919.60 0.1257
919.70 0.1256
919.80 0.1255
919.90 0.1254
920.00 0.1253
920.10 0.1252
920.20 0.1251
920.30 0.125
920.40 0.1249
920.50 0.1248
920.60 0.1247
920.70 0.1246
920.80 0.1245
920.90 0.1244
921.00 0.1243
921.10 0.1243
921.20 0.1242
921.30 0.1241
921.40 0.124
921.50 0.1239
921.60 0.1238
921.70 0.1237
921.80 0.1236
921.90 0.1235
922.00 0.1234
922.10 0.1233
922.20 0.1232
922.30 0.1231
922.40 0.1231
922.50 0.123
922.60 0.1229
922.70 0.1228
922.80 0.1227
922.90 0.1226
923.00 0.1225
923.10 0.1224
923.20 0.1223
923.30 0.1223
923.40 0.1222
923.50 0.1221
923.60 0.122
923.70 0.1219
923.80 0.1218
923.90 0.1217
924.00 0.1216
924.10 0.1216
924.20 0.1215
924.30 0.1214
924.40 0.1213
924.50 0.1212
924.60 0.1211
924.70 0.121
924.80 0.121
924.90 0.1209
925.00 0.1208
925.10 0.1207
925.20 0.1206
925.30 0.1205
925.40 0.1204
925.50 0.1203
925.60 0.1203
925.70 0.1202
925.80 0.1201
925.90 0.12
926.00 0.1199
926.10 0.1198
926.20 0.1197
926.30 0.1196
926.40 0.1196
926.50 0.1195
926.60 0.1194
926.70 0.1193
926.80 0.1192
926.90 0.1191
927.00 0.119
927.10 0.1191
927.20 0.1191
927.30 0.1191
927.40 0.1192
927.50 0.1192
927.60 0.1192
927.70 0.1192
927.80 0.1193
927.90 0.1193
928.00 0.1193
928.10 0.1194
928.20 0.1194
928.30 0.1194
928.40 0.1194
928.50 0.1195
928.60 0.1195
928.70 0.1195
928.80 0.1196
928.90 0.1196
929.00 0.1196
929.10 0.1197
929.20 0.1197
929.30 0.1197
929.40 0.1197
929.50 0.1198
929.60 0.1198
929.70 0.1198
929.80 0.1199
929.90 0.1199
930.00 0.1199
930.10 0.1199
930.20 0.12
930.30 0.12
930.40 0.12
930.50 0.1201
930.60 0.1201
930.70 0.1201
930.80 0.1201
930.90 0.1202
931.00 0.1202
931.10 0.1202
931.20 0.1203
931.30 0.1203
931.40 0.1203
931.50 0.1203
931.60 0.1204
931.70 0.1204
931.80 0.1204
931.90 0.1205
932.00 0.1205
932.10 0.1205
932.20 0.1205
932.30 0.1205
932.40 0.1205
932.50 0.1205
932.60 0.1205
932.70 0.1204
932.80 0.1204
932.90 0.1204
933.00 0.1204
933.10 0.1204
933.20 0.1204
933.30 0.1204
933.40 0.1204
933.50 0.1204
933.60 0.1204
933.70 0.1204
933.80 0.1204
933.90 0.1204
934.00 0.1204
934.10 0.1204
934.20 0.1204
934.30 0.1204
934.40 0.1203
934.50 0.1203
934.60 0.1203
934.70 0.1203
934.80 0.1202
934.90 0.1202
935.00 0.1202
935.10 0.1202
935.20 0.1201
935.30 0.1201
935.40 0.1201
935.50 0.1201
935.60 0.12
935.70 0.12
935.80 0.12
935.90 0.12
936.00 0.1199
936.10 0.1199
936.20 0.1199
936.30 0.1199
936.40 0.1198
936.50 0.1198
936.60 0.1198
936.70 0.1198
936.80 0.1197
936.90 0.1197
937.00 0.1197
937.10 0.1197
937.20 0.1196
937.30 0.1196
937.40 0.1195
937.50 0.1195
937.60 0.1195
937.70 0.1194
937.80 0.1194
937.90 0.1194
938.00 0.1193
938.10 0.1193
938.20 0.1192
938.30 0.1192
938.40 0.1192
938.50 0.1191
938.60 0.1191
938.70 0.119
938.80 0.119
938.90 0.1189
939.00 0.1189
939.10 0.1188
939.20 0.1188
939.30 0.1187
939.40 0.1187
939.50 0.1186
939.60 0.1186
939.70 0.1186
939.80 0.1185
939.90 0.1185
940.00 0.1184
940.10 0.1184
940.20 0.1183
940.30 0.1183
940.40 0.1182
940.50 0.1182
940.60 0.1181
940.70 0.118
940.80 0.118
940.90 0.1179
941.00 0.1178
941.10 0.1178
941.20 0.1177
941.30 0.1177
941.40 0.1176
941.50 0.1175
941.60 0.1175
941.70 0.1174
941.80 0.1174
941.90 0.1173
942.00 0.1172
942.10 0.1172
942.20 0.1171
942.30 0.117
942.40 0.1169
942.50 0.1169
942.60 0.1168
942.70 0.1167
942.80 0.1166
942.90 0.1165
943.00 0.1164
943.10 0.1164
943.20 0.1163
943.30 0.1162
943.40 0.1161
943.50 0.116
943.60 0.116
943.70 0.1159
943.80 0.1158
943.90 0.1157
944.00 0.1156
944.10 0.1155
944.20 0.1155
944.30 0.1154
944.40 0.1153
944.50 0.1152
944.60 0.1151
944.70 0.115
944.80 0.1149
944.90 0.1147
945.00 0.1146
945.10 0.1145
945.20 0.1144
945.30 0.1143
945.40 0.1142
945.50 0.1141
945.60 0.1139
945.70 0.1138
945.80 0.1137
945.90 0.1136
946.00 0.1134
946.10 0.1133
946.20 0.1132
946.30 0.113
946.40 0.1129
946.50 0.1128
946.60 0.1127
946.70 0.1125
946.80 0.1124
946.90 0.1123
947.00 0.1121
947.10 0.112
947.20 0.1118
947.30 0.1117
947.40 0.1115
947.50 0.1114
947.60 0.1112
947.70 0.111
947.80 0.1109
947.90 0.1107
948.00 0.1105
948.10 0.1104
948.20 0.1102
948.30 0.11
948.40 0.1098
948.50 0.1097
948.60 0.1095
948.70 0.1093
948.80 0.1092
948.90 0.109
949.00 0.1088
949.10 0.1087
949.20 0.1085
949.30 0.1083
949.40 0.1082
949.50 0.108
949.60 0.1078
949.70 0.1076
949.80 0.1074
949.90 0.1072
950.00 0.1071
950.10 0.1069
950.20 0.1067
950.30 0.1065
950.40 0.1063
950.50 0.1062
950.60 0.106
950.70 0.1058
950.80 0.1056
950.90 0.1054
951.00 0.1053
951.10 0.1051
951.20 0.1049
951.30 0.1047
951.40 0.1046
951.50 0.1044
951.60 0.1042
951.70 0.1041
951.80 0.1039
951.90 0.1038
952.00 0.1036
952.10 0.1035
952.20 0.1034
952.30 0.1033
952.40 0.1032
952.50 0.1031
952.60 0.103
952.70 0.1029
952.80 0.1027
952.90 0.1027
953.00 0.1027
953.10 0.1027
953.20 0.1027
953.30 0.1027
953.40 0.1026
953.50 0.1026
953.60 0.1029
953.70 0.1033
953.80 0.1036
953.90 0.1039
954.00 0.1044
954.10 0.105
954.20 0.1055
954.30 0.1037
954.40 0.1016
954.50 0.1011
954.60 0.1006
954.70 0.1
954.80 0.09968
954.90 0.09933
955.00 0.09897
955.10 0.09862
955.20 0.09847
955.30 0.09831
955.40 0.09815
955.50 0.09799
955.60 0.09784
955.70 0.09768
955.80 0.09752
955.90 0.09754
956.00 0.09756
956.10 0.09758
956.20 0.09761
956.30 0.09763
956.40 0.09765
956.50 0.09767
956.60 0.09769
956.70 0.09771
956.80 0.09773
956.90 0.09775
957.00 0.09777
957.10 0.09783
957.20 0.09788
957.30 0.09794
957.40 0.09801
957.50 0.09808
957.60 0.09815
957.70 0.09823
957.80 0.0983
957.90 0.09837
958.00 0.09844
958.10 0.09851
958.20 0.09859
958.30 0.09866
958.40 0.09873
958.50 0.0988
958.60 0.09888
958.70 0.09895
958.80 0.09902
958.90 0.09909
959.00 0.09916
959.10 0.09924
959.20 0.09931
959.30 0.09938
959.40 0.09945
959.50 0.09953
959.60 0.0996
959.70 0.09968
959.80 0.09975
959.90 0.09983
960.00 0.0999
960.10 0.09998
960.20 0.1001
960.30 0.1001
960.40 0.1002
960.50 0.1003
960.60 0.1004
960.70 0.1004
960.80 0.1005
960.90 0.1006
961.00 0.1007
961.10 0.1007
961.20 0.1008
961.30 0.1009
961.40 0.1009
961.50 0.101
961.60 0.1011
961.70 0.1011
961.80 0.1012
961.90 0.1013
962.00 0.1013
962.10 0.1014
962.20 0.1015
962.30 0.1015
962.40 0.1016
962.50 0.1016
962.60 0.1017
962.70 0.1018
962.80 0.1018
962.90 0.1019
963.00 0.1019
963.10 0.102
963.20 0.1021
963.30 0.1021
963.40 0.1022
963.50 0.1022
963.60 0.1023
963.70 0.1023
963.80 0.1024
963.90 0.1024
964.00 0.1025
964.10 0.1025
964.20 0.1026
964.30 0.1026
964.40 0.1027
964.50 0.1027
964.60 0.1027
964.70 0.1028
964.80 0.1028
964.90 0.1028
965.00 0.1029
965.10 0.1029
965.20 0.1029
965.30 0.103
965.40 0.103
965.50 0.1031
965.60 0.1031
965.70 0.1031
965.80 0.1032
965.90 0.1032
966.00 0.1032
966.10 0.1033
966.20 0.1033
966.30 0.1034
966.40 0.1034
966.50 0.1034
966.60 0.1034
966.70 0.1035
966.80 0.1035
966.90 0.1035
967.00 0.1035
967.10 0.1036
967.20 0.1036
967.30 0.1036
967.40 0.1036
967.50 0.1036
967.60 0.1037
967.70 0.1037
967.80 0.1037
967.90 0.1037
968.00 0.1037
968.10 0.1037
968.20 0.1038
968.30 0.1038
968.40 0.1038
968.50 0.1038
968.60 0.1038
968.70 0.1038
968.80 0.1038
968.90 0.1038
969.00 0.1038
969.10 0.1038
969.20 0.1038
969.30 0.1039
969.40 0.1039
969.50 0.1039
969.60 0.1039
969.70 0.1039
969.80 0.1039
969.90 0.1039
970.00 0.1039
970.10 0.1039
970.20 0.1039
970.30 0.1039
970.40 0.1039
970.50 0.1039
970.60 0.1039
970.70 0.1039
970.80 0.1039
970.90 0.1039
971.00 0.1039
971.10 0.1039
971.20 0.1039
971.30 0.1039
971.40 0.1039
971.50 0.1039
971.60 0.1039
971.70 0.1039
971.80 0.1039
971.90 0.1039
972.00 0.1039
972.10 0.1038
972.20 0.1038
972.30 0.1038
972.40 0.1038
972.50 0.1038
972.60 0.1038
972.70 0.1038
972.80 0.1037
972.90 0.1037
973.00 0.1037
973.10 0.1037
973.20 0.1037
973.30 0.1037
973.40 0.1036
973.50 0.1036
973.60 0.1036
973.70 0.1036
973.80 0.1036
973.90 0.1036
974.00 0.1036
974.10 0.1035
974.20 0.1035
974.30 0.1035
974.40 0.1035
974.50 0.1035
974.60 0.1034
974.70 0.1034
974.80 0.1034
974.90 0.1034
975.00 0.1033
975.10 0.1033
975.20 0.1033
975.30 0.1033
975.40 0.1032
975.50 0.1032
975.60 0.1032
975.70 0.1032
975.80 0.1031
975.90 0.1031
976.00 0.1031
976.10 0.103
976.20 0.103
976.30 0.103
976.40 0.103
976.50 0.1029
976.60 0.1029
976.70 0.1029
976.80 0.1029
976.90 0.1028
977.00 0.1028
977.10 0.1028
977.20 0.1027
977.30 0.1027
977.40 0.1026
977.50 0.1026
977.60 0.1026
977.70 0.1025
977.80 0.1025
977.90 0.1024
978.00 0.1024
978.10 0.1023
978.20 0.1023
978.30 0.1023
978.40 0.1022
978.50 0.1022
978.60 0.1021
978.70 0.1021
978.80 0.1021
978.90 0.102
979.00 0.102
979.10 0.1019
979.20 0.1019
979.30 0.1018
979.40 0.1018
979.50 0.1018
979.60 0.1017
979.70 0.1017
979.80 0.1016
979.90 0.1016
980.00 0.1016
980.10 0.1015
980.20 0.1015
980.30 0.1014
980.40 0.1014
980.50 0.1013
980.60 0.1013
980.70 0.1013
980.80 0.1012
980.90 0.1012
981.00 0.1011
981.10 0.1011
981.20 0.101
981.30 0.101
981.40 0.101
981.50 0.1009
981.60 0.1009
981.70 0.1008
981.80 0.1008
981.90 0.1008
982.00 0.1007
982.10 0.1007
982.20 0.1006
982.30 0.1005
982.40 0.1005
982.50 0.1004
982.60 0.1004
982.70 0.1003
982.80 0.1002
982.90 0.1002
983.00 0.1001
983.10 0.1001
983.20 0.1
983.30 0.09995
983.40 0.09989
983.50 0.09983
983.60 0.09977
983.70 0.09971
983.80 0.09965
983.90 0.09959
984.00 0.09953
984.10 0.09947
984.20 0.09941
984.30 0.09936
984.40 0.0993
984.50 0.09924
984.60 0.09918
984.70 0.09911
984.80 0.09904
984.90 0.09896
985.00 0.09889
985.10 0.09882
985.20 0.09875
985.30 0.09867
985.40 0.0986
985.50 0.09853
985.60 0.09845
985.70 0.09838
985.80 0.09831
985.90 0.09824
986.00 0.09816
986.10 0.09809
986.20 0.09802
986.30 0.09795
986.40 0.09787
986.50 0.0978
986.60 0.09773
986.70 0.09766
986.80 0.09758
986.90 0.09751
987.00 0.09744
987.10 0.09735
987.20 0.09727
987.30 0.09718
987.40 0.0971
987.50 0.09701
987.60 0.09693
987.70 0.09684
987.80 0.09676
987.90 0.09667
988.00 0.09658
988.10 0.0965
988.20 0.09641
988.30 0.09633
988.40 0.09624
988.50 0.09616
988.60 0.09607
988.70 0.09598
988.80 0.09588
988.90 0.09578
989.00 0.09568
989.10 0.09558
989.20 0.09548
989.30 0.09538
989.40 0.09529
989.50 0.09519
989.60 0.09509
989.70 0.09499
989.80 0.09489
989.90 0.09479
990.00 0.09469
990.10 0.0946
990.20 0.0945
990.30 0.0944
990.40 0.0943
990.50 0.0942
990.60 0.0941
990.70 0.094
990.80 0.09388
990.90 0.09377
991.00 0.09366
991.10 0.09355
991.20 0.09344
991.30 0.09333
991.40 0.09321
991.50 0.0931
991.60 0.09299
991.70 0.09288
991.80 0.09277
991.90 0.09266
992.00 0.09254
992.10 0.09243
992.20 0.09231
992.30 0.09219
992.40 0.09207
992.50 0.09195
992.60 0.09183
992.70 0.0917
992.80 0.09157
992.90 0.09144
993.00 0.09131
993.10 0.09118
993.20 0.09105
993.30 0.09092
993.40 0.0908
993.50 0.09067
993.60 0.09054
993.70 0.09041
993.80 0.09028
993.90 0.09015
994.00 0.09002
994.10 0.08989
994.20 0.08976
994.30 0.08963
994.40 0.0895
994.50 0.08938
994.60 0.08925
994.70 0.08911
994.80 0.08897
994.90 0.08883
995.00 0.08869
995.10 0.08855
995.20 0.08841
995.30 0.08827
995.40 0.08813
995.50 0.08799
995.60 0.08785
995.70 0.0877
995.80 0.08755
995.90 0.08741
996.00 0.08726
996.10 0.08711
996.20 0.08696
996.30 0.08681
996.40 0.08667
996.50 0.08652
996.60 0.08637
996.70 0.08622
996.80 0.08607
996.90 0.08593
997.00 0.08578
997.10 0.08562
997.20 0.08547
997.30 0.08532
997.40 0.08516
997.50 0.08501
997.60 0.08485
997.70 0.0847
997.80 0.08453
997.90 0.08437
998.00 0.08421
998.10 0.08405
998.20 0.08389
998.30 0.08373
998.40 0.08357
998.50 0.08341
998.60 0.08325
998.70 0.08309
998.80 0.08293
998.90 0.08277
999.00 0.08261
999.10 0.08245
999.20 0.08229
999.30 0.08213
999.40 0.08197
999.50 0.08181
999.60 0.08165
999.70 0.08149
999.80 0.08132
999.90 0.08116
1000.00 0.081
1000.10 0.08084
1000.20 0.08067
1000.30 0.08051
1000.40 0.08035
1000.50 0.08018
1000.60 0.08002
1000.70 0.07986
1000.80 0.0797
1000.90 0.07953
1001.00 0.07937
1001.10 0.07921
1001.20 0.07905
1001.30 0.07889
1001.40 0.07872
1001.50 0.07856
1001.60 0.0784
1001.70 0.07824
1001.80 0.07809
1001.90 0.07793
1002.00 0.07778
1002.10 0.07764
1002.20 0.07751
1002.30 0.07737
1002.40 0.07724
1002.50 0.0771
1002.60 0.07697
1002.70 0.07683
1002.80 0.0767
1002.90 0.07656
1003.00 0.07643
1003.10 0.07629
1003.20 0.07622
1003.30 0.07617
1003.40 0.07612
1003.50 0.07607
1003.60 0.07602
1003.70 0.07597
1003.80 0.07592
1003.90 0.07602
1004.00 0.07617
1004.10 0.07631
1004.20 0.07646
1004.30 0.07682
1004.40 0.07725
1004.50 0.07772
1004.60 0.07814
1004.70 0.07766
1004.80 0.07716
1004.90 0.0767
1005.00 0.07623
1005.10 0.07597
1005.20 0.07579
1005.30 0.07561
1005.40 0.07542
1005.50 0.07538
1005.60 0.07539
1005.70 0.0754
1005.80 0.0754
1005.90 0.07541
1006.00 0.07541
1006.10 0.07542
1006.20 0.07548
1006.30 0.07556
1006.40 0.07564
1006.50 0.07572
1006.60 0.0758
1006.70 0.07587
1006.80 0.07595
1006.90 0.07603
1007.00 0.07611
1007.10 0.07621
1007.20 0.0763
1007.30 0.0764
1007.40 0.0765
1007.50 0.0766
1007.60 0.07669
1007.70 0.07679
1007.80 0.0769
1007.90 0.077
1008.00 0.0771
1008.10 0.0772
1008.20 0.07731
1008.30 0.07741
1008.40 0.07751
1008.50 0.07761
1008.60 0.07772
1008.70 0.07782
1008.80 0.07792
1008.90 0.07802
1009.00 0.07813
1009.10 0.07823
1009.20 0.07833
1009.30 0.07843
1009.40 0.07853
1009.50 0.07864
1009.60 0.07874
1009.70 0.07883
1009.80 0.07893
1009.90 0.07902
1010.00 0.07912
1010.10 0.07921
1010.20 0.0793
1010.30 0.0794
1010.40 0.07949
1010.50 0.07958
1010.60 0.07968
1010.70 0.07977
1010.80 0.07987
1010.90 0.07996
1011.00 0.08005
1011.10 0.08015
1011.20 0.08024
1011.30 0.08033
1011.40 0.08043
1011.50 0.08052
1011.60 0.08061
1011.70 0.0807
1011.80 0.08078
1011.90 0.08087
1012.00 0.08095
1012.10 0.08103
1012.20 0.08111
1012.30 0.08118
1012.40 0.08126
1012.50 0.08134
1012.60 0.08141
1012.70 0.08149
1012.80 0.08157
1012.90 0.08164
1013.00 0.08172
1013.10 0.0818
1013.20 0.08187
1013.30 0.08195
1013.40 0.08202
1013.50 0.0821
1013.60 0.08218
1013.70 0.08224
1013.80 0.08231
1013.90 0.08238
1014.00 0.08244
1014.10 0.08251
1014.20 0.08257
1014.30 0.08264
1014.40 0.0827
1014.50 0.08277
1014.60 0.08283
1014.70 0.08289
1014.80 0.08295
1014.90 0.083
1015.00 0.08305
1015.10 0.08311
1015.20 0.08316
1015.30 0.08322
1015.40 0.08327
1015.50 0.08332
1015.60 0.08338
1015.70 0.08343
1015.80 0.08349
1015.90 0.08354
1016.00 0.08359
1016.10 0.08365
1016.20 0.0837
1016.30 0.08375
1016.40 0.08381
1016.50 0.08386
1016.60 0.08391
1016.70 0.08396
1016.80 0.08401
1016.90 0.08405
1017.00 0.0841
1017.10 0.08414
1017.20 0.08418
1017.30 0.08421
1017.40 0.08425
1017.50 0.08429
1017.60 0.08433
1017.70 0.08437
1017.80 0.08441
1017.90 0.08444
1018.00 0.08448
1018.10 0.08452
1018.20 0.08456
1018.30 0.0846
1018.40 0.08463
1018.50 0.08467
1018.60 0.08471
1018.70 0.08474
1018.80 0.08477
1018.90 0.0848
1019.00 0.08482
1019.10 0.08485
1019.20 0.08488
1019.30 0.0849
1019.40 0.08493
1019.50 0.08496
1019.60 0.08499
1019.70 0.08501
1019.80 0.08504
1019.90 0.08507
1020.00 0.08509
1020.10 0.08512
1020.20 0.08515
1020.30 0.08517
1020.40 0.0852
1020.50 0.08523
1020.60 0.08526
1020.70 0.08528
1020.80 0.08529
1020.90 0.08531
1021.00 0.08533
1021.10 0.08535
1021.20 0.08537
1021.30 0.08538
1021.40 0.0854
1021.50 0.08542
1021.60 0.08544
1021.70 0.08546
1021.80 0.08547
1021.90 0.08549
1022.00 0.08551
1022.10 0.08552
1022.20 0.08553
1022.30 0.08554
1022.40 0.08555
1022.50 0.08556
1022.60 0.08556
1022.70 0.08557
1022.80 0.08558
1022.90 0.08559
1023.00 0.0856
1023.10 0.08561
1023.20 0.08562
1023.30 0.08563
1023.40 0.08564
1023.50 0.08565
1023.60 0.08566
1023.70 0.08567
1023.80 0.08567
1023.90 0.08568
1024.00 0.08569
1024.10 0.0857
1024.20 0.08571
1024.30 0.08572
1024.40 0.08573
1024.50 0.08574
1024.60 0.08575
1024.70 0.08575
1024.80 0.08575
1024.90 0.08575
1025.00 0.08575
1025.10 0.08575
1025.20 0.08575
1025.30 0.08575
1025.40 0.08575
1025.50 0.08575
1025.60 0.08575
1025.70 0.08575
1025.80 0.08575
1025.90 0.08575
1026.00 0.08575
1026.10 0.08575
1026.20 0.08575
1026.30 0.08575
1026.40 0.08575
1026.50 0.08575
1026.60 0.08575
1026.70 0.08575
1026.80 0.08575
1026.90 0.08575
1027.00 0.08575
1027.10 0.08574
1027.20 0.08573
1027.30 0.08572
1027.40 0.08571
1027.50 0.0857
1027.60 0.08569
1027.70 0.08568
1027.80 0.08567
1027.90 0.08566
1028.00 0.08565
1028.10 0.08564
1028.20 0.08563
1028.30 0.08562
1028.40 0.08561
1028.50 0.0856
1028.60 0.08559
1028.70 0.08558
1028.80 0.08557
1028.90 0.08556
1029.00 0.08556
1029.10 0.08555
1029.20 0.08554
1029.30 0.08553
1029.40 0.08552
1029.50 0.08551
1029.60 0.0855
1029.70 0.08549
1029.80 0.08548
1029.90 0.08547
1030.00 0.08546
1030.10 0.08545
1030.20 0.08544
1030.30 0.08543
1030.40 0.08542
1030.50 0.08541
1030.60 0.0854
1030.70 0.08539
1030.80 0.08538
1030.90 0.08537
1031.00 0.08536
1031.10 0.08535
1031.20 0.08534
1031.30 0.08533
1031.40 0.08533
1031.50 0.08532
1031.60 0.08531
1031.70 0.0853
1031.80 0.08529
1031.90 0.08528
1032.00 0.08527
1032.10 0.08525
1032.20 0.08523
1032.30 0.08521
1032.40 0.08519
1032.50 0.08518
1032.60 0.08516
1032.70 0.08514
1032.80 0.08512
1032.90 0.0851
1033.00 0.08509
1033.10 0.08507
1033.20 0.08505
1033.30 0.08503
1033.40 0.08501
1033.50 0.08499
1033.60 0.08498
1033.70 0.08496
1033.80 0.08494
1033.90 0.08492
1034.00 0.0849
1034.10 0.08488
1034.20 0.08487
1034.30 0.08485
1034.40 0.08483
1034.50 0.08481
1034.60 0.08479
1034.70 0.08478
1034.80 0.08476
1034.90 0.08474
1035.00 0.08472
1035.10 0.0847
1035.20 0.08469
1035.30 0.08467
1035.40 0.08465
1035.50 0.08463
1035.60 0.08461
1035.70 0.08459
1035.80 0.08458
1035.90 0.08456
1036.00 0.08454
1036.10 0.08452
1036.20 0.0845
1036.30 0.08449
1036.40 0.08447
1036.50 0.08445
1036.60 0.08443
1036.70 0.08441
1036.80 0.0844
1036.90 0.08438
1037.00 0.08436
1037.10 0.08434
1037.20 0.08431
1037.30 0.08429
1037.40 0.08427
1037.50 0.08424
1037.60 0.08422
1037.70 0.0842
1037.80 0.08417
1037.90 0.08415
1038.00 0.08413
1038.10 0.0841
1038.20 0.08408
1038.30 0.08406
1038.40 0.08403
1038.50 0.08401
1038.60 0.08399
1038.70 0.08396
1038.80 0.08394
1038.90 0.08392
1039.00 0.08389
1039.10 0.08387
1039.20 0.08385
1039.30 0.08382
1039.40 0.0838
1039.50 0.08378
1039.60 0.08375
1039.70 0.08373
1039.80 0.08371
1039.90 0.08369
1040.00 0.08366
1040.10 0.08364
1040.20 0.08362
1040.30 0.08359
1040.40 0.08357
1040.50 0.08355
1040.60 0.08352
1040.70 0.0835
1040.80 0.08348
1040.90 0.08345
1041.00 0.08343
1041.10 0.08341
1041.20 0.08338
1041.30 0.08336
1041.40 0.08334
1041.50 0.08332
1041.60 0.08329
1041.70 0.08327
1041.80 0.08325
1041.90 0.08322
1042.00 0.0832
1042.10 0.08317
1042.20 0.08315
1042.30 0.08312
1042.40 0.08309
1042.50 0.08307
1042.60 0.08304
1042.70 0.08302
1042.80 0.08299
1042.90 0.08296
1043.00 0.08294
1043.10 0.08291
1043.20 0.08288
1043.30 0.08286
1043.40 0.08283
1043.50 0.0828
1043.60 0.08278
1043.70 0.08275
1043.80 0.08272
1043.90 0.0827
1044.00 0.08267
1044.10 0.08264
1044.20 0.08262
1044.30 0.08259
1044.40 0.08257
1044.50 0.08254
1044.60 0.08251
1044.70 0.08249
1044.80 0.08246
1044.90 0.08243
1045.00 0.08241
1045.10 0.08238
1045.20 0.08236
1045.30 0.08233
1045.40 0.0823
1045.50 0.08228
1045.60 0.08225
1045.70 0.08222
1045.80 0.0822
1045.90 0.08217
1046.00 0.08215
1046.10 0.08212
1046.20 0.08209
1046.30 0.08207
1046.40 0.08204
1046.50 0.08201
1046.60 0.08199
1046.70 0.08196
1046.80 0.08194
1046.90 0.08191
1047.00 0.08188
1047.10 0.08185
1047.20 0.08182
1047.30 0.0818
1047.40 0.08177
1047.50 0.08174
1047.60 0.08171
1047.70 0.08168
1047.80 0.08165
1047.90 0.08162
1048.00 0.08159
1048.10 0.08156
1048.20 0.08153
1048.30 0.0815
1048.40 0.08148
1048.50 0.08145
1048.60 0.08142
1048.70 0.08139
1048.80 0.08136
1048.90 0.08133
1049.00 0.0813
1049.10 0.08127
1049.20 0.08124
1049.30 0.08121
1049.40 0.08118
1049.50 0.08116
1049.60 0.08113
1049.70 0.0811
1049.80 0.08107
1049.90 0.08104
1050.00 0.08101
1050.10 0.08098
1050.20 0.08095
1050.30 0.08092
1050.40 0.0809
1050.50 0.08087
1050.60 0.08084
1050.70 0.08081
1050.80 0.08078
1050.90 0.08075
1051.00 0.08072
1051.10 0.08069
1051.20 0.08066
1051.30 0.08064
1051.40 0.08061
1051.50 0.08058
1051.60 0.08055
1051.70 0.08052
1051.80 0.08049
1051.90 0.08046
1052.00 0.08043
1052.10 0.0804
1052.20 0.08037
1052.30 0.08034
1052.40 0.08031
1052.50 0.08028
1052.60 0.08025
1052.70 0.08021
1052.80 0.08018
1052.90 0.08015
1053.00 0.08012
1053.10 0.08009
1053.20 0.08006
1053.30 0.08002
1053.40 0.07999
1053.50 0.07996
1053.60 0.07993
1053.70 0.0799
1053.80 0.07987
1053.90 0.07984
1054.00 0.0798
1054.10 0.07977
1054.20 0.07974
1054.30 0.07971
1054.40 0.07968
1054.50 0.07965
1054.60 0.07962
1054.70 0.07959
1054.80 0.07955
1054.90 0.07952
1055.00 0.07949
1055.10 0.07946
1055.20 0.07943
1055.30 0.0794
1055.40 0.07937
1055.50 0.07933
1055.60 0.0793
1055.70 0.07927
1055.80 0.07924
1055.90 0.07921
1056.00 0.07918
1056.10 0.07915
1056.20 0.07912
1056.30 0.07909
1056.40 0.07905
1056.50 0.07902
1056.60 0.07899
1056.70 0.07896
1056.80 0.07893
1056.90 0.0789
1057.00 0.07887
1057.10 0.07883
1057.20 0.0788
1057.30 0.07876
1057.40 0.07873
1057.50 0.07869
1057.60 0.07866
1057.70 0.07862
1057.80 0.07859
1057.90 0.07855
1058.00 0.07852
1058.10 0.07848
1058.20 0.07845
1058.30 0.07841
1058.40 0.07838
1058.50 0.07834
1058.60 0.07831
1058.70 0.07827
1058.80 0.07824
1058.90 0.07821
1059.00 0.07817
1059.10 0.07814
1059.20 0.0781
1059.30 0.07807
1059.40 0.07803
1059.50 0.078
1059.60 0.07796
1059.70 0.07793
1059.80 0.07789
1059.90 0.07786
1060.00 0.07782
1060.10 0.07779
1060.20 0.07776
1060.30 0.07772
1060.40 0.07769
1060.50 0.07765
1060.60 0.07762
1060.70 0.07758
1060.80 0.07755
1060.90 0.07751
1061.00 0.07748
1061.10 0.07744
1061.20 0.07741
1061.30 0.07738
1061.40 0.07734
1061.50 0.07731
1061.60 0.07727
1061.70 0.07724
1061.80 0.0772
1061.90 0.07717
1062.00 0.07713
1062.10 0.0771
1062.20 0.07706
1062.30 0.07702
1062.40 0.07698
1062.50 0.07694
1062.60 0.0769
1062.70 0.07686
1062.80 0.07682
1062.90 0.07678
1063.00 0.07674
1063.10 0.0767
1063.20 0.07666
1063.30 0.07662
1063.40 0.07658
1063.50 0.07654
1063.60 0.0765
1063.70 0.07646
1063.80 0.07642
1063.90 0.07639
1064.00 0.07635
1064.10 0.07631
1064.20 0.07627
1064.30 0.07623
1064.40 0.07619
1064.50 0.07615
1064.60 0.07611
1064.70 0.07607
1064.80 0.07603
1064.90 0.07599
1065.00 0.07595
1065.10 0.07591
1065.20 0.07588
1065.30 0.07584
1065.40 0.0758
1065.50 0.07576
1065.60 0.07572
1065.70 0.07568
1065.80 0.07564
1065.90 0.0756
1066.00 0.07556
1066.10 0.07552
1066.20 0.07549
1066.30 0.07545
1066.40 0.07541
1066.50 0.07537
1066.60 0.07533
1066.70 0.07529
1066.80 0.07525
1066.90 0.07521
1067.00 0.07517
1067.10 0.07513
1067.20 0.07508
1067.30 0.07503
1067.40 0.07498
1067.50 0.07494
1067.60 0.07489
1067.70 0.07484
1067.80 0.0748
1067.90 0.07475
1068.00 0.0747
1068.10 0.07465
1068.20 0.07461
1068.30 0.07456
1068.40 0.07451
1068.50 0.07447
1068.60 0.07442
1068.70 0.07437
1068.80 0.07433
1068.90 0.07428
1069.00 0.07423
1069.10 0.07418
1069.20 0.07414
1069.30 0.07409
1069.40 0.07404
1069.50 0.074
1069.60 0.07395
1069.70 0.0739
1069.80 0.07386
1069.90 0.07381
1070.00 0.07376
1070.10 0.07372
1070.20 0.07367
1070.30 0.07362
1070.40 0.07358
1070.50 0.07353
1070.60 0.07348
1070.70 0.07344
1070.80 0.07339
1070.90 0.07334
1071.00 0.0733
1071.10 0.07325
1071.20 0.0732
1071.30 0.07316
1071.40 0.07311
1071.50 0.07306
1071.60 0.07302
1071.70 0.07297
1071.80 0.07292
1071.90 0.07288
1072.00 0.07283
1072.10 0.07278
1072.20 0.07272
1072.30 0.07267
1072.40 0.07262
1072.50 0.07256
1072.60 0.07251
1072.70 0.07246
1072.80 0.0724
1072.90 0.07235
1073.00 0.0723
1073.10 0.07224
1073.20 0.07219
1073.30 0.07214
1073.40 0.07209
1073.50 0.07203
1073.60 0.07197
1073.70 0.07191
1073.80 0.07185
1073.90 0.07178
1074.00 0.07172
1074.10 0.07166
1074.20 0.0716
1074.30 0.07154
1074.40 0.07148
1074.50 0.07142
1074.60 0.07136
1074.70 0.0713
1074.80 0.07123
1074.90 0.07117
1075.00 0.07111
1075.10 0.07105
1075.20 0.07099
1075.30 0.07093
1075.40 0.07087
1075.50 0.07081
1075.60 0.07075
1075.70 0.07069
1075.80 0.07063
1075.90 0.07057
1076.00 0.0705
1076.10 0.07044
1076.20 0.07038
1076.30 0.07032
1076.40 0.07026
1076.50 0.0702
1076.60 0.07014
1076.70 0.07008
1076.80 0.07002
1076.90 0.06996
1077.00 0.0699
1077.10 0.06983
1077.20 0.06976
1077.30 0.06969
1077.40 0.06963
1077.50 0.06956
1077.60 0.06948
1077.70 0.06941
1077.80 0.06934
1077.90 0.06927
1078.00 0.0692
1078.10 0.06912
1078.20 0.06905
1078.30 0.06898
1078.40 0.06891
1078.50 0.06883
1078.60 0.06876
1078.70 0.06869
1078.80 0.06862
1078.90 0.06855
1079.00 0.06847
1079.10 0.0684
1079.20 0.06833
1079.30 0.06826
1079.40 0.06819
1079.50 0.06811
1079.60 0.06803
1079.70 0.06795
1079.80 0.06787
1079.90 0.06779
1080.00 0.06771
1080.10 0.06763
1080.20 0.06755
1080.30 0.06747
1080.40 0.06739
1080.50 0.0673
1080.60 0.06722
1080.70 0.06714
1080.80 0.06706
1080.90 0.06698
1081.00 0.0669
1081.10 0.06682
1081.20 0.06674
1081.30 0.06666
1081.40 0.06658
1081.50 0.0665
1081.60 0.06641
1081.70 0.06632
1081.80 0.06624
1081.90 0.06615
1082.00 0.06606
1082.10 0.06597
1082.20 0.06588
1082.30 0.06579
1082.40 0.06569
1082.50 0.0656
1082.60 0.06551
1082.70 0.06542
1082.80 0.06533
1082.90 0.06524
1083.00 0.06514
1083.10 0.06505
1083.20 0.06496
1083.30 0.06487
1083.40 0.06478
1083.50 0.06468
1083.60 0.06458
1083.70 0.06449
1083.80 0.06439
1083.90 0.06429
1084.00 0.06419
1084.10 0.06409
1084.20 0.06399
1084.30 0.06389
1084.40 0.0638
1084.50 0.06369
1084.60 0.06359
1084.70 0.06348
1084.80 0.06337
1084.90 0.06326
1085.00 0.06316
1085.10 0.06305
1085.20 0.06294
1085.30 0.06283
1085.40 0.06272
1085.50 0.06262
1085.60 0.06251
1085.70 0.0624
1085.80 0.0623
1085.90 0.06219
1086.00 0.06208
1086.10 0.06197
1086.20 0.06187
1086.30 0.06176
1086.40 0.06165
1086.50 0.06154
1086.60 0.06143
1086.70 0.06131
1086.80 0.0612
1086.90 0.06108
1087.00 0.06097
1087.10 0.06084
1087.20 0.06072
1087.30 0.0606
1087.40 0.06048
1087.50 0.06036
1087.60 0.06024
1087.70 0.06012
1087.80 0.05999
1087.90 0.05987
1088.00 0.05975
1088.10 0.05963
1088.20 0.05951
1088.30 0.05939
1088.40 0.05927
1088.50 0.05914
1088.60 0.05901
1088.70 0.05888
1088.80 0.05875
1088.90 0.05862
1089.00 0.05849
1089.10 0.05835
1089.20 0.05822
1089.30 0.05809
1089.40 0.05796
1089.50 0.05783
1089.60 0.0577
1089.70 0.05757
1089.80 0.05744
1089.90 0.0573
1090.00 0.05717
1090.10 0.05704
1090.20 0.05691
1090.30 0.05678
1090.40 0.05665
1090.50 0.05652
1090.60 0.05637
1090.70 0.05623
1090.80 0.05609
1090.90 0.05595
1091.00 0.05581
1091.10 0.05567
1091.20 0.05553
1091.30 0.05539
1091.40 0.05525
1091.50 0.05511
1091.60 0.05497
1091.70 0.05483
1091.80 0.05469
1091.90 0.05455
1092.00 0.05441
1092.10 0.05427
1092.20 0.05413
1092.30 0.05399
1092.40 0.05385
1092.50 0.05372
1092.60 0.05358
1092.70 0.05346
1092.80 0.05337
1092.90 0.05328
1093.00 0.0532
1093.10 0.05318
1093.20 0.05329
1093.30 0.05342
1093.40 0.05373
1093.50 0.05387
1093.60 0.0535
1093.70 0.05326
1093.80 0.05311
1093.90 0.05303
1094.00 0.05308
1094.10 0.05314
1094.20 0.05319
1094.30 0.05326
1094.40 0.05336
1094.50 0.05347
1094.60 0.05357
1094.70 0.05368
1094.80 0.05378
1094.90 0.05388
1095.00 0.05399
1095.10 0.05409
1095.20 0.0542
1095.30 0.0543
1095.40 0.0544
1095.50 0.05451
1095.60 0.05461
1095.70 0.05472
1095.80 0.05482
1095.90 0.05492
1096.00 0.05503
1096.10 0.05513
1096.20 0.05524
1096.30 0.05534
1096.40 0.05544
1096.50 0.05555
1096.60 0.05564
1096.70 0.05574
1096.80 0.05584
1096.90 0.05593
1097.00 0.05603
1097.10 0.05612
1097.20 0.05621
1097.30 0.0563
1097.40 0.05639
1097.50 0.05648
1097.60 0.05657
1097.70 0.05666
1097.80 0.05675
1097.90 0.05684
1098.00 0.05693
1098.10 0.05702
1098.20 0.05711
1098.30 0.0572
1098.40 0.05729
1098.50 0.05737
1098.60 0.05745
1098.70 0.05753
1098.80 0.0576
1098.90 0.05768
1099.00 0.05776
1099.10 0.05783
1099.20 0.05791
1099.30 0.05799
1099.40 0.05807
1099.50 0.05814
1099.60 0.05822
1099.70 0.0583
1099.80 0.05837
1099.90 0.05845
1100.00 0.05853
1100.10 0.0586
1100.20 0.05868
1100.30 0.05876
1100.40 0.05883
1100.50 0.05891
1100.60 0.05897
1100.70 0.05903
1100.80 0.0591
1100.90 0.05916
1101.00 0.05923
1101.10 0.05929
1101.20 0.05936
1101.30 0.05942
1101.40 0.05948
1101.50 0.05955
1101.60 0.05961
1101.70 0.05968
1101.80 0.05974
1101.90 0.0598
1102.00 0.05987
1102.10 0.05992
1102.20 0.05998
1102.30 0.06004
1102.40 0.0601
1102.50 0.06015
1102.60 0.0602
1102.70 0.06026
1102.80 0.06031
1102.90 0.06036
1103.00 0.06041
1103.10 0.06046
1103.20 0.06052
1103.30 0.06057
1103.40 0.06062
1103.50 0.06067
1103.60 0.06071
1103.70 0.06076
1103.80 0.0608
1103.90 0.06084
1104.00 0.06089
1104.10 0.06093
1104.20 0.06097
1104.30 0.06102
1104.40 0.06106
1104.50 0.0611
1104.60 0.06115
1104.70 0.06119
1104.80 0.06123
1104.90 0.06128
1105.00 0.06132
1105.10 0.06136
1105.20 0.0614
1105.30 0.06145
1105.40 0.06149
1105.50 0.06153
1105.60 0.06156
1105.70 0.0616
1105.80 0.06163
1105.90 0.06166
1106.00 0.0617
1106.10 0.06173
1106.20 0.06177
1106.30 0.0618
1106.40 0.06183
1106.50 0.06187
1106.60 0.0619
1106.70 0.06193
1106.80 0.06197
1106.90 0.062
1107.00 0.06203
1107.10 0.06206
1107.20 0.06209
1107.30 0.06212
1107.40 0.06215
1107.50 0.06217
1107.60 0.0622
1107.70 0.06222
1107.80 0.06224
1107.90 0.06227
1108.00 0.06229
1108.10 0.06231
1108.20 0.06233
1108.30 0.06236
1108.40 0.06238
1108.50 0.0624
1108.60 0.06243
1108.70 0.06245
1108.80 0.06247
1108.90 0.06249
1109.00 0.06252
1109.10 0.06254
1109.20 0.06256
1109.30 0.06259
1109.40 0.06261
1109.50 0.06263
1109.60 0.06264
1109.70 0.06266
1109.80 0.06267
1109.90 0.06269
1110.00 0.0627
1110.10 0.06272
1110.20 0.06273
1110.30 0.06274
1110.40 0.06276
1110.50 0.06277
1110.60 0.06279
1110.70 0.0628
1110.80 0.06282
1110.90 0.06283
1111.00 0.06285
1111.10 0.06286
1111.20 0.06287
1111.30 0.06289
1111.40 0.0629
1111.50 0.06292
1111.60 0.06293
1111.70 0.06295
1111.80 0.06296
1111.90 0.06297
1112.00 0.06299
1112.10 0.063
1112.20 0.063
1112.30 0.06301
1112.40 0.06302
1112.50 0.06303
1112.60 0.06304
1112.70 0.06304
1112.80 0.06305
1112.90 0.06306
1113.00 0.06307
1113.10 0.06307
1113.20 0.06308
1113.30 0.06309
1113.40 0.0631
1113.50 0.0631
1113.60 0.0631
1113.70 0.06311
1113.80 0.06311
1113.90 0.06311
1114.00 0.06311
1114.10 0.06311
1114.20 0.06311
1114.30 0.06312
1114.40 0.06312
1114.50 0.06312
1114.60 0.06312
1114.70 0.06312
1114.80 0.06312
1114.90 0.06313
1115.00 0.06313
1115.10 0.06313
1115.20 0.06313
1115.30 0.06313
1115.40 0.06313
1115.50 0.06314
1115.60 0.06314
1115.70 0.06314
1115.80 0.06314
1115.90 0.06314
1116.00 0.06314
1116.10 0.06315
1116.20 0.06315
1116.30 0.06315
1116.40 0.06315
1116.50 0.06315
1116.60 0.06315
1116.70 0.06316
1116.80 0.06316
1116.90 0.06316
1117.00 0.06316
1117.10 0.06315
1117.20 0.06315
1117.30 0.06314
1117.40 0.06314
1117.50 0.06313
1117.60 0.06312
1117.70 0.06312
1117.80 0.06311
1117.90 0.06311
1118.00 0.0631
1118.10 0.06309
1118.20 0.06309
1118.30 0.06308
1118.40 0.06307
1118.50 0.06307
1118.60 0.06306
1118.70 0.06306
1118.80 0.06305
1118.90 0.06304
1119.00 0.06304
1119.10 0.06303
1119.20 0.06303
1119.30 0.06302
1119.40 0.06301
1119.50 0.06301
1119.60 0.063
1119.70 0.06299
1119.80 0.06299
1119.90 0.06298
1120.00 0.06298
1120.10 0.06297
1120.20 0.06296
1120.30 0.06296
1120.40 0.06295
1120.50 0.06294
1120.60 0.06294
1120.70 0.06293
1120.80 0.06293
1120.90 0.06292
1121.00 0.06291
1121.10 0.06291
1121.20 0.0629
1121.30 0.0629
1121.40 0.06289
1121.50 0.06288
1121.60 0.06288
1121.70 0.06287
1121.80 0.06287
1121.90 0.06286
1122.00 0.06285
1122.10 0.06284
1122.20 0.06283
1122.30 0.06282
1122.40 0.06281
1122.50 0.06279
1122.60 0.06278
1122.70 0.06277
1122.80 0.06276
1122.90 0.06275
1123.00 0.06274
1123.10 0.06273
1123.20 0.06271
1123.30 0.0627
1123.40 0.06269
1123.50 0.06268
1123.60 0.06267
1123.70 0.06266
1123.80 0.06264
1123.90 0.06263
1124.00 0.06262
1124.10 0.06261
1124.20 0.0626
1124.30 0.06259
1124.40 0.06257
1124.50 0.06256
1124.60 0.06255
1124.70 0.06254
1124.80 0.06253
1124.90 0.06252
1125.00 0.06251
1125.10 0.06249
1125.20 0.06248
1125.30 0.06247
1125.40 0.06246
1125.50 0.06245
1125.60 0.06244
1125.70 0.06242
1125.80 0.06241
1125.90 0.0624
1126.00 0.06239
1126.10 0.06238
1126.20 0.06237
1126.30 0.06236
1126.40 0.06234
1126.50 0.06233
1126.60 0.06232
1126.70 0.06231
1126.80 0.0623
1126.90 0.06229
1127.00 0.06228
1127.10 0.06226
1127.20 0.06225
1127.30 0.06223
1127.40 0.06222
1127.50 0.0622
1127.60 0.06219
1127.70 0.06217
1127.80 0.06216
1127.90 0.06214
1128.00 0.06213
1128.10 0.06211
1128.20 0.0621
1128.30 0.06208
1128.40 0.06207
1128.50 0.06205
1128.60 0.06204
1128.70 0.06202
1128.80 0.06201
1128.90 0.06199
1129.00 0.06198
1129.10 0.06196
1129.20 0.06195
1129.30 0.06193
1129.40 0.06192
1129.50 0.0619
1129.60 0.06189
1129.70 0.06187
1129.80 0.06186
1129.90 0.06184
1130.00 0.06183
1130.10 0.06182
1130.20 0.0618
1130.30 0.06179
1130.40 0.06177
1130.50 0.06176
1130.60 0.06174
1130.70 0.06173
1130.80 0.06171
1130.90 0.0617
1131.00 0.06168
1131.10 0.06167
1131.20 0.06165
1131.30 0.06164
1131.40 0.06162
1131.50 0.06161
1131.60 0.06159
1131.70 0.06158
1131.80 0.06156
1131.90 0.06155
1132.00 0.06154
1132.10 0.06152
1132.20 0.0615
1132.30 0.06148
1132.40 0.06147
1132.50 0.06145
1132.60 0.06143
1132.70 0.06142
1132.80 0.0614
1132.90 0.06138
1133.00 0.06137
1133.10 0.06135
1133.20 0.06133
1133.30 0.06132
1133.40 0.0613
1133.50 0.06128
1133.60 0.06127
1133.70 0.06125
1133.80 0.06123
1133.90 0.06122
1134.00 0.0612
1134.10 0.06118
1134.20 0.06117
1134.30 0.06115
1134.40 0.06113
1134.50 0.06112
1134.60 0.0611
1134.70 0.06108
1134.80 0.06107
1134.90 0.06105
1135.00 0.06103
1135.10 0.06102
1135.20 0.061
1135.30 0.06099
1135.40 0.06097
1135.50 0.06095
1135.60 0.06094
1135.70 0.06092
1135.80 0.0609
1135.90 0.06089
1136.00 0.06087
1136.10 0.06085
1136.20 0.06084
1136.30 0.06082
1136.40 0.0608
1136.50 0.06079
1136.60 0.06077
1136.70 0.06075
1136.80 0.06074
1136.90 0.06072
1137.00 0.0607
1137.10 0.06069
1137.20 0.06067
1137.30 0.06065
1137.40 0.06063
1137.50 0.06062
1137.60 0.0606
1137.70 0.06058
1137.80 0.06056
1137.90 0.06055
1138.00 0.06053
1138.10 0.06051
1138.20 0.06049
1138.30 0.06048
1138.40 0.06046
1138.50 0.06044
1138.60 0.06042
1138.70 0.06041
1138.80 0.06039
1138.90 0.06037
1139.00 0.06035
1139.10 0.06034
1139.20 0.06032
1139.30 0.0603
1139.40 0.06028
1139.50 0.06027
1139.60 0.06025
1139.70 0.06023
1139.80 0.06022
1139.90 0.0602
1140.00 0.06018
1140.10 0.06016
1140.20 0.06015
1140.30 0.06013
1140.40 0.06011
1140.50 0.06009
1140.60 0.06008
1140.70 0.06006
1140.80 0.06004
1140.90 0.06002
1141.00 0.06001
1141.10 0.05999
1141.20 0.05997
1141.30 0.05996
1141.40 0.05994
1141.50 0.05992
1141.60 0.0599
1141.70 0.05989
1141.80 0.05987
1141.90 0.05985
1142.00 0.05983
1142.10 0.05982
1142.20 0.0598
1142.30 0.05978
1142.40 0.05976
1142.50 0.05974
1142.60 0.05973
1142.70 0.05971
1142.80 0.05969
1142.90 0.05967
1143.00 0.05965
1143.10 0.05964
1143.20 0.05962
1143.30 0.0596
1143.40 0.05958
1143.50 0.05957
1143.60 0.05955
1143.70 0.05953
1143.80 0.05951
1143.90 0.05949
1144.00 0.05948
1144.10 0.05946
1144.20 0.05944
1144.30 0.05942
1144.40 0.0594
1144.50 0.05939
1144.60 0.05937
1144.70 0.05935
1144.80 0.05933
1144.90 0.05932
1145.00 0.0593
1145.10 0.05928
1145.20 0.05926
1145.30 0.05924
1145.40 0.05923
1145.50 0.05921
1145.60 0.05919
1145.70 0.05917
1145.80 0.05916
1145.90 0.05914
1146.00 0.05912
1146.10 0.0591
1146.20 0.05908
1146.30 0.05907
1146.40 0.05905
1146.50 0.05903
1146.60 0.05901
1146.70 0.059
1146.80 0.05898
1146.90 0.05896
1147.00 0.05894
1147.10 0.05892
1147.20 0.05891
1147.30 0.05889
1147.40 0.05887
1147.50 0.05885
1147.60 0.05883
1147.70 0.05882
1147.80 0.0588
1147.90 0.05878
1148.00 0.05876
1148.10 0.05874
1148.20 0.05873
1148.30 0.05871
1148.40 0.05869
1148.50 0.05867
1148.60 0.05865
1148.70 0.05864
1148.80 0.05862
1148.90 0.0586
1149.00 0.05858
1149.10 0.05856
1149.20 0.05855
1149.30 0.05853
1149.40 0.05851
1149.50 0.05849
1149.60 0.05847
1149.70 0.05846
1149.80 0.05844
1149.90 0.05842
1150.00 0.0584
1150.10 0.05838
1150.20 0.05837
1150.30 0.05835
1150.40 0.05833
1150.50 0.05831
1150.60 0.05829
1150.70 0.05828
1150.80 0.05826
1150.90 0.05824
1151.00 0.05822
1151.10 0.0582
1151.20 0.05819
1151.30 0.05817
1151.40 0.05815
1151.50 0.05813
1151.60 0.05811
1151.70 0.0581
1151.80 0.05808
1151.90 0.05806
1152.00 0.05804
1152.10 0.05803
1152.20 0.05801
1152.30 0.05799
1152.40 0.05797
1152.50 0.05795
1152.60 0.05793
1152.70 0.05792
1152.80 0.0579
1152.90 0.05788
1153.00 0.05786
1153.10 0.05784
1153.20 0.05783
1153.30 0.05781
1153.40 0.05779
1153.50 0.05777
1153.60 0.05775
1153.70 0.05774
1153.80 0.05772
1153.90 0.0577
1154.00 0.05768
1154.10 0.05766
1154.20 0.05765
1154.30 0.05763
1154.40 0.05761
1154.50 0.05759
1154.60 0.05757
1154.70 0.05756
1154.80 0.05754
1154.90 0.05752
1155.00 0.0575
1155.10 0.05748
1155.20 0.05747
1155.30 0.05745
1155.40 0.05743
1155.50 0.05741
1155.60 0.05739
1155.70 0.05738
1155.80 0.05736
1155.90 0.05734
1156.00 0.05732
1156.10 0.05731
1156.20 0.05729
1156.30 0.05727
1156.40 0.05725
1156.50 0.05723
1156.60 0.05722
1156.70 0.0572
1156.80 0.05718
1156.90 0.05716
1157.00 0.05714
1157.10 0.05713
1157.20 0.05711
1157.30 0.05709
1157.40 0.05707
1157.50 0.05705
1157.60 0.05704
1157.70 0.05702
1157.80 0.057
1157.90 0.05698
1158.00 0.05696
1158.10 0.05695
1158.20 0.05693
1158.30 0.05691
1158.40 0.05689
1158.50 0.05688
1158.60 0.05686
1158.70 0.05684
1158.80 0.05682
1158.90 0.0568
1159.00 0.05679
1159.10 0.05677
1159.20 0.05675
1159.30 0.05673
1159.40 0.05671
1159.50 0.0567
1159.60 0.05668
1159.70 0.05666
1159.80 0.05664
1159.90 0.05663
1160.00 0.05661
1160.10 0.05659
1160.20 0.05657
1160.30 0.05655
1160.40 0.05654
1160.50 0.05652
1160.60 0.0565
1160.70 0.05648
1160.80 0.05647
1160.90 0.05645
1161.00 0.05643
1161.10 0.05641
1161.20 0.05639
1161.30 0.05638
1161.40 0.05636
1161.50 0.05634
1161.60 0.05632
1161.70 0.05631
1161.80 0.05629
1161.90 0.05627
1162.00 0.05625
1162.10 0.05623
1162.20 0.05622
1162.30 0.0562
1162.40 0.05618
1162.50 0.05616
1162.60 0.05615
1162.70 0.05613
1162.80 0.05611
1162.90 0.05609
1163.00 0.05608
1163.10 0.05606
1163.20 0.05604
1163.30 0.05602
1163.40 0.056
1163.50 0.05599
1163.60 0.05597
1163.70 0.05595
1163.80 0.05593
1163.90 0.05592
1164.00 0.0559
1164.10 0.05588
1164.20 0.05586
1164.30 0.05585
1164.40 0.05583
1164.50 0.05581
1164.60 0.05579
1164.70 0.05577
1164.80 0.05576
1164.90 0.05574
1165.00 0.05572
1165.10 0.0557
1165.20 0.05569
1165.30 0.05567
1165.40 0.05565
1165.50 0.05563
1165.60 0.05562
1165.70 0.0556
1165.80 0.05558
1165.90 0.05556
1166.00 0.05555
1166.10 0.05553
1166.20 0.05551
1166.30 0.05549
1166.40 0.05548
1166.50 0.05546
1166.60 0.05544
1166.70 0.05542
1166.80 0.05541
1166.90 0.05539
1167.00 0.05537
1167.10 0.05535
1167.20 0.05534
1167.30 0.05532
1167.40 0.0553
1167.50 0.05528
1167.60 0.05527
1167.70 0.05525
1167.80 0.05523
1167.90 0.05521
1168.00 0.0552
1168.10 0.05518
1168.20 0.05516
1168.30 0.05514
1168.40 0.05513
1168.50 0.05511
1168.60 0.05509
1168.70 0.05507
1168.80 0.05506
1168.90 0.05504
1169.00 0.05502
1169.10 0.055
1169.20 0.05499
1169.30 0.05497
1169.40 0.05495
1169.50 0.05493
1169.60 0.05492
1169.70 0.0549
1169.80 0.05488
1169.90 0.05486
1170.00 0.05485
1170.10 0.05483
1170.20 0.05481
1170.30 0.05479
1170.40 0.05478
1170.50 0.05476
1170.60 0.05474
1170.70 0.05473
1170.80 0.05471
1170.90 0.05469
1171.00 0.05467
1171.10 0.05466
1171.20 0.05464
1171.30 0.05462
1171.40 0.0546
1171.50 0.05459
1171.60 0.05457
1171.70 0.05455
1171.80 0.05453
1171.90 0.05452
1172.00 0.0545
1172.10 0.05448
1172.20 0.05447
1172.30 0.05445
1172.40 0.05443
1172.50 0.05441
1172.60 0.0544
1172.70 0.05438
1172.80 0.05436
1172.90 0.05434
1173.00 0.05433
1173.10 0.05431
1173.20 0.05429
1173.30 0.05428
1173.40 0.05426
1173.50 0.05424
1173.60 0.05422
1173.70 0.05421
1173.80 0.05419
1173.90 0.05417
1174.00 0.05415
1174.10 0.05414
1174.20 0.05412
1174.30 0.0541
1174.40 0.05409
1174.50 0.05407
1174.60 0.05405
1174.70 0.05403
1174.80 0.05402
1174.90 0.054
1175.00 0.05398
1175.10 0.05397
1175.20 0.05395
1175.30 0.05393
1175.40 0.05391
1175.50 0.0539
1175.60 0.05388
1175.70 0.05386
1175.80 0.05385
1175.90 0.05383
1176.00 0.05381
1176.10 0.0538
1176.20 0.05378
1176.30 0.05376
1176.40 0.05374
1176.50 0.05373
1176.60 0.05371
1176.70 0.05369
1176.80 0.05368
1176.90 0.05366
1177.00 0.05364
1177.10 0.05362
1177.20 0.05361
1177.30 0.05359
1177.40 0.05357
1177.50 0.05356
1177.60 0.05354
1177.70 0.05352
1177.80 0.05351
1177.90 0.05349
1178.00 0.05347
1178.10 0.05345
1178.20 0.05344
1178.30 0.05342
1178.40 0.0534
1178.50 0.05339
1178.60 0.05337
1178.70 0.05335
1178.80 0.05334
1178.90 0.05332
1179.00 0.0533
1179.10 0.05329
1179.20 0.05327
1179.30 0.05325
1179.40 0.05323
1179.50 0.05322
1179.60 0.0532
1179.70 0.05318
1179.80 0.05317
1179.90 0.05315
1180.00 0.05313
1180.10 0.05312
1180.20 0.0531
1180.30 0.05308
1180.40 0.05307
1180.50 0.05305
1180.60 0.05303
1180.70 0.05302
1180.80 0.053
1180.90 0.05298
1181.00 0.05296
1181.10 0.05295
1181.20 0.05293
1181.30 0.05291
1181.40 0.0529
1181.50 0.05288
1181.60 0.05286
1181.70 0.05285
1181.80 0.05283
1181.90 0.05281
1182.00 0.0528
1182.10 0.05278
1182.20 0.05276
1182.30 0.05275
1182.40 0.05273
1182.50 0.05271
1182.60 0.0527
1182.70 0.05268
1182.80 0.05266
1182.90 0.05265
1183.00 0.05263
1183.10 0.05261
1183.20 0.0526
1183.30 0.05258
1183.40 0.05256
1183.50 0.05255
1183.60 0.05253
1183.70 0.05251
1183.80 0.0525
1183.90 0.05248
1184.00 0.05246
1184.10 0.05245
1184.20 0.05243
1184.30 0.05241
1184.40 0.0524
1184.50 0.05238
1184.60 0.05236
1184.70 0.05235
1184.80 0.05233
1184.90 0.05231
1185.00 0.0523
1185.10 0.05228
1185.20 0.05226
1185.30 0.05225
1185.40 0.05223
1185.50 0.05221
1185.60 0.0522
1185.70 0.05218
1185.80 0.05216
1185.90 0.05215
1186.00 0.05213
1186.10 0.05211
1186.20 0.0521
1186.30 0.05208
1186.40 0.05206
1186.50 0.05205
1186.60 0.05203
1186.70 0.05201
1186.80 0.052
1186.90 0.05198
1187.00 0.05196
1187.10 0.05195
1187.20 0.05193
1187.30 0.05192
1187.40 0.0519
1187.50 0.05188
1187.60 0.05187
1187.70 0.05185
1187.80 0.05183
1187.90 0.05182
1188.00 0.0518
1188.10 0.05178
1188.20 0.05177
1188.30 0.05175
1188.40 0.05173
1188.50 0.05172
1188.60 0.0517
1188.70 0.05168
1188.80 0.05167
1188.90 0.05165
1189.00 0.05164
1189.10 0.05162
1189.20 0.0516
1189.30 0.05159
1189.40 0.05157
1189.50 0.05155
1189.60 0.05154
1189.70 0.05152
1189.80 0.0515
1189.90 0.05149
1190.00 0.05147
1190.10 0.05145
1190.20 0.05144
1190.30 0.05142
1190.40 0.05141
1190.50 0.05139
1190.60 0.05137
1190.70 0.05136
1190.80 0.05134
1190.90 0.05132
1191.00 0.05131
1191.10 0.05129
1191.20 0.05128
1191.30 0.05126
1191.40 0.05124
1191.50 0.05123
1191.60 0.05121
1191.70 0.05119
1191.80 0.05118
1191.90 0.05116
1192.00 0.05114
1192.10 0.05113
1192.20 0.05111
1192.30 0.0511
1192.40 0.05108
1192.50 0.05106
1192.60 0.05105
1192.70 0.05103
1192.80 0.05101
1192.90 0.051
1193.00 0.05098
1193.10 0.05097
1193.20 0.05095
1193.30 0.05093
1193.40 0.05092
1193.50 0.0509
1193.60 0.05088
1193.70 0.05087
1193.80 0.05085
1193.90 0.05084
1194.00 0.05082
1194.10 0.0508
1194.20 0.05079
1194.30 0.05077
1194.40 0.05076
1194.50 0.05074
1194.60 0.05072
1194.70 0.05071
1194.80 0.05069
1194.90 0.05067
1195.00 0.05066
1195.10 0.05064
1195.20 0.05063
1195.30 0.05061
1195.40 0.05059
1195.50 0.05058
1195.60 0.05056
1195.70 0.05055
1195.80 0.05053
1195.90 0.05051
1196.00 0.0505
1196.10 0.05048
1196.20 0.05046
1196.30 0.05045
1196.40 0.05043
1196.50 0.05042
1196.60 0.0504
1196.70 0.05038
1196.80 0.05037
1196.90 0.05035
1197.00 0.05034
1197.10 0.05032
1197.20 0.0503
1197.30 0.05029
1197.40 0.05027
1197.50 0.05026
1197.60 0.05024
1197.70 0.05022
1197.80 0.05021
1197.90 0.05019
1198.00 0.05018
1198.10 0.05016
1198.20 0.05014
1198.30 0.05013
1198.40 0.05011
1198.50 0.0501
1198.60 0.05008
1198.70 0.05006
1198.80 0.05005
1198.90 0.05003
1199.00 0.05002
1199.10 0.05
1199.20 0.04998
1199.30 0.04997
1199.40 0.04995
1199.50 0.04994
1199.60 0.04992
1199.70 0.04991
1199.80 0.04989
1199.90 0.04987
1200.00 0
