# Version 2.1 - nm, norm@500 to 1, cut digits, bergeron_110000_95.dat_110000
# Wavelength(nm)  Flambda(ergs/cm^s/s/nm)
300.00 6.943
300.10 6.934
300.20 6.925
300.30 6.917
300.40 6.908
300.50 6.899
300.60 6.89
300.70 6.882
300.80 6.873
300.90 6.864
301.00 6.856
301.10 6.847
301.20 6.839
301.30 6.83
301.40 6.821
301.50 6.813
301.60 6.804
301.70 6.796
301.80 6.787
301.90 6.779
302.00 6.77
302.10 6.762
302.20 6.753
302.30 6.745
302.40 6.736
302.50 6.728
302.60 6.719
302.70 6.711
302.80 6.703
302.90 6.694
303.00 6.686
303.10 6.677
303.20 6.669
303.30 6.661
303.40 6.652
303.50 6.644
303.60 6.636
303.70 6.627
303.80 6.619
303.90 6.611
304.00 6.603
304.10 6.595
304.20 6.586
304.30 6.578
304.40 6.57
304.50 6.562
304.60 6.554
304.70 6.545
304.80 6.537
304.90 6.529
305.00 6.521
305.10 6.513
305.20 6.505
305.30 6.497
305.40 6.489
305.50 6.481
305.60 6.473
305.70 6.465
305.80 6.457
305.90 6.448
306.00 6.44
306.10 6.433
306.20 6.425
306.30 6.417
306.40 6.409
306.50 6.401
306.60 6.393
306.70 6.385
306.80 6.377
306.90 6.369
307.00 6.361
307.10 6.353
307.20 6.346
307.30 6.338
307.40 6.33
307.50 6.322
307.60 6.314
307.70 6.307
307.80 6.299
307.90 6.291
308.00 6.283
308.10 6.276
308.20 6.268
308.30 6.26
308.40 6.252
308.50 6.245
308.60 6.237
308.70 6.229
308.80 6.222
308.90 6.214
309.00 6.206
309.10 6.199
309.20 6.191
309.30 6.184
309.40 6.176
309.50 6.168
309.60 6.161
309.70 6.153
309.80 6.146
309.90 6.138
310.00 6.131
310.10 6.123
310.20 6.116
310.30 6.108
310.40 6.101
310.50 6.093
310.60 6.086
310.70 6.078
310.80 6.071
310.90 6.064
311.00 6.056
311.10 6.049
311.20 6.041
311.30 6.034
311.40 6.027
311.50 6.019
311.60 6.012
311.70 6.005
311.80 5.997
311.90 5.99
312.00 5.983
312.10 5.976
312.20 5.968
312.30 5.961
312.40 5.954
312.50 5.947
312.60 5.939
312.70 5.932
312.80 5.925
312.90 5.918
313.00 5.911
313.10 5.903
313.20 5.896
313.30 5.889
313.40 5.882
313.50 5.875
313.60 5.868
313.70 5.861
313.80 5.854
313.90 5.847
314.00 5.839
314.10 5.832
314.20 5.825
314.30 5.818
314.40 5.811
314.50 5.804
314.60 5.797
314.70 5.79
314.80 5.783
314.90 5.776
315.00 5.769
315.10 5.762
315.20 5.755
315.30 5.748
315.40 5.742
315.50 5.735
315.60 5.728
315.70 5.721
315.80 5.714
315.90 5.707
316.00 5.7
316.10 5.693
316.20 5.687
316.30 5.68
316.40 5.673
316.50 5.666
316.60 5.659
316.70 5.653
316.80 5.646
316.90 5.639
317.00 5.632
317.10 5.626
317.20 5.619
317.30 5.612
317.40 5.605
317.50 5.599
317.60 5.592
317.70 5.585
317.80 5.579
317.90 5.572
318.00 5.565
318.10 5.559
318.20 5.552
318.30 5.545
318.40 5.539
318.50 5.532
318.60 5.526
318.70 5.519
318.80 5.512
318.90 5.506
319.00 5.499
319.10 5.493
319.20 5.486
319.30 5.48
319.40 5.473
319.50 5.467
319.60 5.46
319.70 5.454
319.80 5.447
319.90 5.441
320.00 5.434
320.10 5.428
320.20 5.421
320.30 5.415
320.40 5.408
320.50 5.402
320.60 5.396
320.70 5.389
320.80 5.383
320.90 5.377
321.00 5.37
321.10 5.364
321.20 5.357
321.30 5.351
321.40 5.345
321.50 5.338
321.60 5.332
321.70 5.326
321.80 5.32
321.90 5.313
322.00 5.307
322.10 5.301
322.20 5.295
322.30 5.288
322.40 5.282
322.50 5.276
322.60 5.27
322.70 5.263
322.80 5.257
322.90 5.251
323.00 5.245
323.10 5.239
323.20 5.233
323.30 5.226
323.40 5.22
323.50 5.214
323.60 5.208
323.70 5.202
323.80 5.196
323.90 5.19
324.00 5.184
324.10 5.177
324.20 5.171
324.30 5.165
324.40 5.159
324.50 5.153
324.60 5.147
324.70 5.141
324.80 5.135
324.90 5.129
325.00 5.123
325.10 5.117
325.20 5.111
325.30 5.105
325.40 5.099
325.50 5.093
325.60 5.087
325.70 5.081
325.80 5.075
325.90 5.07
326.00 5.064
326.10 5.058
326.20 5.052
326.30 5.046
326.40 5.04
326.50 5.034
326.60 5.028
326.70 5.023
326.80 5.017
326.90 5.011
327.00 5.005
327.10 4.999
327.20 4.993
327.30 4.988
327.40 4.982
327.50 4.976
327.60 4.97
327.70 4.964
327.80 4.959
327.90 4.953
328.00 4.947
328.10 4.941
328.20 4.936
328.30 4.93
328.40 4.924
328.50 4.919
328.60 4.913
328.70 4.907
328.80 4.902
328.90 4.896
329.00 4.89
329.10 4.885
329.20 4.879
329.30 4.873
329.40 4.868
329.50 4.862
329.60 4.856
329.70 4.851
329.80 4.845
329.90 4.84
330.00 4.834
330.10 4.829
330.20 4.823
330.30 4.817
330.40 4.812
330.50 4.806
330.60 4.801
330.70 4.795
330.80 4.79
330.90 4.784
331.00 4.779
331.10 4.773
331.20 4.768
331.30 4.762
331.40 4.757
331.50 4.751
331.60 4.746
331.70 4.741
331.80 4.735
331.90 4.73
332.00 4.724
332.10 4.719
332.20 4.713
332.30 4.708
332.40 4.703
332.50 4.697
332.60 4.692
332.70 4.687
332.80 4.681
332.90 4.676
333.00 4.671
333.10 4.665
333.20 4.66
333.30 4.655
333.40 4.649
333.50 4.644
333.60 4.639
333.70 4.633
333.80 4.628
333.90 4.623
334.00 4.617
334.10 4.612
334.20 4.607
334.30 4.602
334.40 4.597
334.50 4.591
334.60 4.586
334.70 4.581
334.80 4.576
334.90 4.57
335.00 4.565
335.10 4.56
335.20 4.555
335.30 4.55
335.40 4.545
335.50 4.539
335.60 4.534
335.70 4.529
335.80 4.524
335.90 4.519
336.00 4.514
336.10 4.509
336.20 4.504
336.30 4.498
336.40 4.493
336.50 4.488
336.60 4.483
336.70 4.478
336.80 4.473
336.90 4.468
337.00 4.463
337.10 4.458
337.20 4.453
337.30 4.448
337.40 4.443
337.50 4.438
337.60 4.433
337.70 4.428
337.80 4.423
337.90 4.418
338.00 4.413
338.10 4.408
338.20 4.403
338.30 4.398
338.40 4.393
338.50 4.388
338.60 4.383
338.70 4.378
338.80 4.373
338.90 4.368
339.00 4.364
339.10 4.359
339.20 4.354
339.30 4.349
339.40 4.344
339.50 4.339
339.60 4.334
339.70 4.329
339.80 4.325
339.90 4.32
340.00 4.315
340.10 4.31
340.20 4.305
340.30 4.3
340.40 4.296
340.50 4.291
340.60 4.286
340.70 4.281
340.80 4.276
340.90 4.272
341.00 4.267
341.10 4.262
341.20 4.257
341.30 4.253
341.40 4.248
341.50 4.243
341.60 4.238
341.70 4.234
341.80 4.229
341.90 4.224
342.00 4.219
342.10 4.215
342.20 4.21
342.30 4.205
342.40 4.201
342.50 4.196
342.60 4.191
342.70 4.187
342.80 4.182
342.90 4.177
343.00 4.173
343.10 4.168
343.20 4.164
343.30 4.159
343.40 4.154
343.50 4.15
343.60 4.145
343.70 4.141
343.80 4.136
343.90 4.131
344.00 4.127
344.10 4.122
344.20 4.118
344.30 4.113
344.40 4.109
344.50 4.104
344.60 4.099
344.70 4.095
344.80 4.09
344.90 4.086
345.00 4.081
345.10 4.077
345.20 4.072
345.30 4.068
345.40 4.063
345.50 4.059
345.60 4.054
345.70 4.05
345.80 4.046
345.90 4.041
346.00 4.037
346.10 4.032
346.20 4.028
346.30 4.023
346.40 4.019
346.50 4.014
346.60 4.01
346.70 4.006
346.80 4.001
346.90 3.997
347.00 3.993
347.10 3.988
347.20 3.984
347.30 3.979
347.40 3.975
347.50 3.971
347.60 3.966
347.70 3.962
347.80 3.958
347.90 3.953
348.00 3.949
348.10 3.945
348.20 3.94
348.30 3.936
348.40 3.932
348.50 3.927
348.60 3.923
348.70 3.919
348.80 3.915
348.90 3.91
349.00 3.906
349.10 3.902
349.20 3.897
349.30 3.893
349.40 3.889
349.50 3.885
349.60 3.88
349.70 3.876
349.80 3.872
349.90 3.868
350.00 3.864
350.10 3.859
350.20 3.855
350.30 3.851
350.40 3.847
350.50 3.843
350.60 3.838
350.70 3.834
350.80 3.83
350.90 3.826
351.00 3.822
351.10 3.818
351.20 3.814
351.30 3.809
351.40 3.805
351.50 3.801
351.60 3.797
351.70 3.793
351.80 3.789
351.90 3.785
352.00 3.78
352.10 3.776
352.20 3.772
352.30 3.768
352.40 3.764
352.50 3.76
352.60 3.756
352.70 3.752
352.80 3.748
352.90 3.744
353.00 3.74
353.10 3.736
353.20 3.732
353.30 3.728
353.40 3.724
353.50 3.72
353.60 3.716
353.70 3.712
353.80 3.708
353.90 3.704
354.00 3.7
354.10 3.696
354.20 3.692
354.30 3.688
354.40 3.684
354.50 3.68
354.60 3.676
354.70 3.672
354.80 3.668
354.90 3.664
355.00 3.66
355.10 3.656
355.20 3.652
355.30 3.648
355.40 3.644
355.50 3.641
355.60 3.637
355.70 3.633
355.80 3.629
355.90 3.625
356.00 3.621
356.10 3.617
356.20 3.613
356.30 3.609
356.40 3.606
356.50 3.602
356.60 3.598
356.70 3.594
356.80 3.59
356.90 3.586
357.00 3.583
357.10 3.579
357.20 3.575
357.30 3.571
357.40 3.567
357.50 3.563
357.60 3.56
357.70 3.556
357.80 3.552
357.90 3.548
358.00 3.544
358.10 3.541
358.20 3.537
358.30 3.533
358.40 3.529
358.50 3.526
358.60 3.522
358.70 3.518
358.80 3.514
358.90 3.511
359.00 3.507
359.10 3.503
359.20 3.5
359.30 3.496
359.40 3.492
359.50 3.488
359.60 3.485
359.70 3.481
359.80 3.477
359.90 3.474
360.00 3.47
360.10 3.466
360.20 3.463
360.30 3.459
360.40 3.455
360.50 3.452
360.60 3.448
360.70 3.444
360.80 3.441
360.90 3.437
361.00 3.433
361.10 3.43
361.20 3.426
361.30 3.423
361.40 3.419
361.50 3.415
361.60 3.412
361.70 3.408
361.80 3.404
361.90 3.401
362.00 3.397
362.10 3.394
362.20 3.39
362.30 3.387
362.40 3.383
362.50 3.379
362.60 3.376
362.70 3.372
362.80 3.369
362.90 3.365
363.00 3.362
363.10 3.358
363.20 3.355
363.30 3.351
363.40 3.348
363.50 3.344
363.60 3.341
363.70 3.337
363.80 3.334
363.90 3.33
364.00 3.327
364.10 3.323
364.20 3.32
364.30 3.316
364.40 3.313
364.50 3.309
364.60 3.306
364.70 3.302
364.80 3.299
364.90 3.295
365.00 3.292
365.10 3.289
365.20 3.285
365.30 3.282
365.40 3.278
365.50 3.275
365.60 3.271
365.70 3.268
365.80 3.265
365.90 3.261
366.00 3.258
366.10 3.254
366.20 3.251
366.30 3.248
366.40 3.244
366.50 3.241
366.60 3.237
366.70 3.234
366.80 3.231
366.90 3.227
367.00 3.224
367.10 3.221
367.20 3.217
367.30 3.214
367.40 3.211
367.50 3.207
367.60 3.204
367.70 3.2
367.80 3.197
367.90 3.194
368.00 3.19
368.10 3.187
368.20 3.184
368.30 3.18
368.40 3.177
368.50 3.174
368.60 3.17
368.70 3.167
368.80 3.164
368.90 3.16
369.00 3.157
369.10 3.154
369.20 3.15
369.30 3.147
369.40 3.144
369.50 3.141
369.60 3.137
369.70 3.134
369.80 3.131
369.90 3.127
370.00 3.124
370.10 3.121
370.20 3.117
370.30 3.114
370.40 3.111
370.50 3.108
370.60 3.104
370.70 3.101
370.80 3.098
370.90 3.094
371.00 3.091
371.10 3.088
371.20 3.085
371.30 3.081
371.40 3.078
371.50 3.075
371.60 3.072
371.70 3.068
371.80 3.065
371.90 3.062
372.00 3.059
372.10 3.056
372.20 3.053
372.30 3.05
372.40 3.046
372.50 3.043
372.60 3.04
372.70 3.037
372.80 3.034
372.90 3.031
373.00 3.028
373.10 3.025
373.20 3.022
373.30 3.019
373.40 3.016
373.50 3.013
373.60 3.01
373.70 3.007
373.80 3.004
373.90 3.001
374.00 2.998
374.10 2.995
374.20 2.992
374.30 2.988
374.40 2.985
374.50 2.982
374.60 2.979
374.70 2.976
374.80 2.973
374.90 2.97
375.00 2.967
375.10 2.964
375.20 2.961
375.30 2.957
375.40 2.954
375.50 2.951
375.60 2.948
375.70 2.945
375.80 2.942
375.90 2.939
376.00 2.936
376.10 2.933
376.20 2.93
376.30 2.927
376.40 2.924
376.50 2.921
376.60 2.918
376.70 2.915
376.80 2.912
376.90 2.909
377.00 2.905
377.10 2.903
377.20 2.9
377.30 2.897
377.40 2.894
377.50 2.891
377.60 2.888
377.70 2.885
377.80 2.882
377.90 2.879
378.00 2.876
378.10 2.873
378.20 2.87
378.30 2.867
378.40 2.864
378.50 2.861
378.60 2.858
378.70 2.856
378.80 2.853
378.90 2.85
379.00 2.847
379.10 2.844
379.20 2.841
379.30 2.838
379.40 2.835
379.50 2.832
379.60 2.829
379.70 2.827
379.80 2.824
379.90 2.821
380.00 2.818
380.10 2.815
380.20 2.812
380.30 2.809
380.40 2.807
380.50 2.804
380.60 2.801
380.70 2.798
380.80 2.795
380.90 2.792
381.00 2.79
381.10 2.787
381.20 2.784
381.30 2.781
381.40 2.778
381.50 2.775
381.60 2.773
381.70 2.77
381.80 2.767
381.90 2.764
382.00 2.762
382.10 2.759
382.20 2.756
382.30 2.753
382.40 2.75
382.50 2.748
382.60 2.745
382.70 2.742
382.80 2.739
382.90 2.737
383.00 2.734
383.10 2.731
383.20 2.728
383.30 2.726
383.40 2.723
383.50 2.72
383.60 2.718
383.70 2.715
383.80 2.712
383.90 2.709
384.00 2.707
384.10 2.704
384.20 2.701
384.30 2.699
384.40 2.696
384.50 2.693
384.60 2.691
384.70 2.688
384.80 2.685
384.90 2.683
385.00 2.68
385.10 2.677
385.20 2.675
385.30 2.672
385.40 2.669
385.50 2.667
385.60 2.664
385.70 2.661
385.80 2.659
385.90 2.656
386.00 2.654
386.10 2.651
386.20 2.648
386.30 2.646
386.40 2.643
386.50 2.641
386.60 2.638
386.70 2.635
386.80 2.633
386.90 2.63
387.00 2.628
387.10 2.625
387.20 2.622
387.30 2.62
387.40 2.617
387.50 2.615
387.60 2.612
387.70 2.61
387.80 2.607
387.90 2.605
388.00 2.602
388.10 2.599
388.20 2.597
388.30 2.594
388.40 2.592
388.50 2.589
388.60 2.587
388.70 2.584
388.80 2.582
388.90 2.579
389.00 2.577
389.10 2.574
389.20 2.572
389.30 2.569
389.40 2.567
389.50 2.564
389.60 2.562
389.70 2.559
389.80 2.557
389.90 2.555
390.00 2.552
390.10 2.55
390.20 2.547
390.30 2.545
390.40 2.542
390.50 2.54
390.60 2.537
390.70 2.535
390.80 2.532
390.90 2.53
391.00 2.528
391.10 2.525
391.20 2.523
391.30 2.52
391.40 2.518
391.50 2.516
391.60 2.513
391.70 2.511
391.80 2.508
391.90 2.506
392.00 2.503
392.10 2.501
392.20 2.499
392.30 2.496
392.40 2.494
392.50 2.491
392.60 2.489
392.70 2.487
392.80 2.484
392.90 2.482
393.00 2.48
393.10 2.477
393.20 2.475
393.30 2.472
393.40 2.47
393.50 2.468
393.60 2.465
393.70 2.463
393.80 2.46
393.90 2.458
394.00 2.456
394.10 2.453
394.20 2.451
394.30 2.449
394.40 2.446
394.50 2.444
394.60 2.442
394.70 2.439
394.80 2.437
394.90 2.434
395.00 2.432
395.10 2.43
395.20 2.427
395.30 2.425
395.40 2.423
395.50 2.42
395.60 2.418
395.70 2.416
395.80 2.413
395.90 2.411
396.00 2.409
396.10 2.406
396.20 2.404
396.30 2.402
396.40 2.4
396.50 2.397
396.60 2.395
396.70 2.393
396.80 2.391
396.90 2.388
397.00 2.386
397.10 2.384
397.20 2.382
397.30 2.38
397.40 2.377
397.50 2.375
397.60 2.373
397.70 2.371
397.80 2.369
397.90 2.367
398.00 2.365
398.10 2.362
398.20 2.36
398.30 2.358
398.40 2.356
398.50 2.354
398.60 2.352
398.70 2.35
398.80 2.348
398.90 2.346
399.00 2.343
399.10 2.341
399.20 2.339
399.30 2.337
399.40 2.335
399.50 2.333
399.60 2.331
399.70 2.329
399.80 2.327
399.90 2.325
400.00 2.323
400.10 2.32
400.20 2.318
400.30 2.316
400.40 2.314
400.50 2.312
400.60 2.31
400.70 2.308
400.80 2.306
400.90 2.304
401.00 2.301
401.10 2.299
401.20 2.297
401.30 2.295
401.40 2.293
401.50 2.291
401.60 2.289
401.70 2.287
401.80 2.284
401.90 2.282
402.00 2.28
402.10 2.278
402.20 2.276
402.30 2.274
402.40 2.272
402.50 2.269
402.60 2.267
402.70 2.265
402.80 2.263
402.90 2.261
403.00 2.259
403.10 2.256
403.20 2.254
403.30 2.252
403.40 2.25
403.50 2.248
403.60 2.245
403.70 2.243
403.80 2.241
403.90 2.239
404.00 2.237
404.10 2.234
404.20 2.232
404.30 2.23
404.40 2.228
404.50 2.225
404.60 2.223
404.70 2.221
404.80 2.219
404.90 2.216
405.00 2.214
405.10 2.212
405.20 2.21
405.30 2.207
405.40 2.205
405.50 2.203
405.60 2.201
405.70 2.198
405.80 2.196
405.90 2.194
406.00 2.191
406.10 2.189
406.20 2.187
406.30 2.185
406.40 2.182
406.50 2.18
406.60 2.178
406.70 2.175
406.80 2.173
406.90 2.171
407.00 2.168
407.10 2.166
407.20 2.164
407.30 2.162
407.40 2.159
407.50 2.157
407.60 2.155
407.70 2.152
407.80 2.15
407.90 2.148
408.00 2.145
408.10 2.143
408.20 2.141
408.30 2.139
408.40 2.136
408.50 2.134
408.60 2.132
408.70 2.13
408.80 2.127
408.90 2.125
409.00 2.123
409.10 2.121
409.20 2.119
409.30 2.117
409.40 2.115
409.50 2.113
409.60 2.111
409.70 2.109
409.80 2.107
409.90 2.106
410.00 2.104
410.10 2.102
410.20 2.1
410.30 2.098
410.40 2.096
410.50 2.094
410.60 2.092
410.70 2.09
410.80 2.089
410.90 2.087
411.00 2.085
411.10 2.083
411.20 2.082
411.30 2.08
411.40 2.079
411.50 2.077
411.60 2.075
411.70 2.074
411.80 2.072
411.90 2.071
412.00 2.07
412.10 2.068
412.20 2.067
412.30 2.065
412.40 2.064
412.50 2.062
412.60 2.061
412.70 2.059
412.80 2.058
412.90 2.056
413.00 2.055
413.10 2.054
413.20 2.052
413.30 2.051
413.40 2.049
413.50 2.048
413.60 2.046
413.70 2.045
413.80 2.043
413.90 2.042
414.00 2.041
414.10 2.039
414.20 2.038
414.30 2.036
414.40 2.035
414.50 2.033
414.60 2.032
414.70 2.03
414.80 2.029
414.90 2.027
415.00 2.026
415.10 2.024
415.20 2.023
415.30 2.021
415.40 2.02
415.50 2.018
415.60 2.017
415.70 2.015
415.80 2.013
415.90 2.012
416.00 2.01
416.10 2.009
416.20 2.007
416.30 2.006
416.40 2.004
416.50 2.003
416.60 2.001
416.70 1.999
416.80 1.998
416.90 1.996
417.00 1.995
417.10 1.993
417.20 1.991
417.30 1.99
417.40 1.988
417.50 1.987
417.60 1.985
417.70 1.983
417.80 1.982
417.90 1.98
418.00 1.978
418.10 1.977
418.20 1.975
418.30 1.973
418.40 1.972
418.50 1.97
418.60 1.968
418.70 1.967
418.80 1.965
418.90 1.963
419.00 1.962
419.10 1.96
419.20 1.958
419.30 1.957
419.40 1.955
419.50 1.953
419.60 1.952
419.70 1.95
419.80 1.948
419.90 1.946
420.00 1.945
420.10 1.943
420.20 1.941
420.30 1.939
420.40 1.938
420.50 1.936
420.60 1.934
420.70 1.932
420.80 1.931
420.90 1.929
421.00 1.927
421.10 1.925
421.20 1.924
421.30 1.922
421.40 1.92
421.50 1.918
421.60 1.916
421.70 1.915
421.80 1.913
421.90 1.911
422.00 1.909
422.10 1.907
422.20 1.906
422.30 1.904
422.40 1.902
422.50 1.9
422.60 1.898
422.70 1.896
422.80 1.895
422.90 1.893
423.00 1.891
423.10 1.889
423.20 1.887
423.30 1.885
423.40 1.883
423.50 1.882
423.60 1.88
423.70 1.878
423.80 1.876
423.90 1.874
424.00 1.872
424.10 1.87
424.20 1.868
424.30 1.866
424.40 1.864
424.50 1.862
424.60 1.861
424.70 1.859
424.80 1.857
424.90 1.855
425.00 1.853
425.10 1.851
425.20 1.849
425.30 1.847
425.40 1.845
425.50 1.843
425.60 1.841
425.70 1.839
425.80 1.837
425.90 1.835
426.00 1.833
426.10 1.831
426.20 1.829
426.30 1.827
426.40 1.824
426.50 1.822
426.60 1.82
426.70 1.818
426.80 1.816
426.90 1.814
427.00 1.812
427.10 1.81
427.20 1.808
427.30 1.805
427.40 1.803
427.50 1.801
427.60 1.799
427.70 1.797
427.80 1.795
427.90 1.792
428.00 1.79
428.10 1.788
428.20 1.786
428.30 1.783
428.40 1.781
428.50 1.779
428.60 1.777
428.70 1.774
428.80 1.772
428.90 1.77
429.00 1.767
429.10 1.765
429.20 1.763
429.30 1.76
429.40 1.758
429.50 1.756
429.60 1.753
429.70 1.751
429.80 1.748
429.90 1.746
430.00 1.744
430.10 1.741
430.20 1.739
430.30 1.736
430.40 1.734
430.50 1.731
430.60 1.729
430.70 1.726
430.80 1.724
430.90 1.721
431.00 1.719
431.10 1.716
431.20 1.714
431.30 1.711
431.40 1.709
431.50 1.706
431.60 1.703
431.70 1.701
431.80 1.698
431.90 1.696
432.00 1.693
432.10 1.69
432.20 1.688
432.30 1.685
432.40 1.683
432.50 1.68
432.60 1.677
432.70 1.675
432.80 1.672
432.90 1.669
433.00 1.666
433.10 1.663
433.20 1.66
433.30 1.658
433.40 1.654
433.50 1.651
433.60 1.648
433.70 1.645
433.80 1.641
433.90 1.638
434.00 1.636
434.10 1.635
434.20 1.635
434.30 1.636
434.40 1.636
434.50 1.637
434.60 1.637
434.70 1.638
434.80 1.638
434.90 1.638
435.00 1.638
435.10 1.638
435.20 1.638
435.30 1.638
435.40 1.638
435.50 1.638
435.60 1.637
435.70 1.637
435.80 1.637
435.90 1.637
436.00 1.637
436.10 1.636
436.20 1.636
436.30 1.636
436.40 1.635
436.50 1.635
436.60 1.635
436.70 1.634
436.80 1.634
436.90 1.634
437.00 1.633
437.10 1.633
437.20 1.633
437.30 1.632
437.40 1.632
437.50 1.631
437.60 1.631
437.70 1.63
437.80 1.63
437.90 1.629
438.00 1.629
438.10 1.628
438.20 1.628
438.30 1.627
438.40 1.627
438.50 1.626
438.60 1.626
438.70 1.625
438.80 1.624
438.90 1.624
439.00 1.623
439.10 1.622
439.20 1.622
439.30 1.621
439.40 1.62
439.50 1.62
439.60 1.619
439.70 1.618
439.80 1.617
439.90 1.617
440.00 1.616
440.10 1.615
440.20 1.614
440.30 1.614
440.40 1.613
440.50 1.612
440.60 1.611
440.70 1.61
440.80 1.609
440.90 1.609
441.00 1.608
441.10 1.607
441.20 1.606
441.30 1.605
441.40 1.604
441.50 1.603
441.60 1.602
441.70 1.601
441.80 1.6
441.90 1.599
442.00 1.598
442.10 1.597
442.20 1.597
442.30 1.596
442.40 1.595
442.50 1.594
442.60 1.593
442.70 1.592
442.80 1.591
442.90 1.589
443.00 1.588
443.10 1.587
443.20 1.586
443.30 1.585
443.40 1.584
443.50 1.583
443.60 1.582
443.70 1.581
443.80 1.58
443.90 1.579
444.00 1.578
444.10 1.577
444.20 1.576
444.30 1.574
444.40 1.573
444.50 1.572
444.60 1.571
444.70 1.57
444.80 1.569
444.90 1.568
445.00 1.567
445.10 1.566
445.20 1.564
445.30 1.563
445.40 1.562
445.50 1.561
445.60 1.56
445.70 1.559
445.80 1.557
445.90 1.556
446.00 1.555
446.10 1.554
446.20 1.553
446.30 1.552
446.40 1.55
446.50 1.549
446.60 1.548
446.70 1.547
446.80 1.546
446.90 1.545
447.00 1.543
447.10 1.542
447.20 1.541
447.30 1.54
447.40 1.539
447.50 1.537
447.60 1.536
447.70 1.535
447.80 1.534
447.90 1.533
448.00 1.531
448.10 1.53
448.20 1.529
448.30 1.528
448.40 1.527
448.50 1.525
448.60 1.524
448.70 1.523
448.80 1.522
448.90 1.521
449.00 1.519
449.10 1.518
449.20 1.517
449.30 1.516
449.40 1.514
449.50 1.513
449.60 1.512
449.70 1.511
449.80 1.51
449.90 1.508
450.00 1.507
450.10 1.506
450.20 1.505
450.30 1.503
450.40 1.502
450.50 1.501
450.60 1.5
450.70 1.499
450.80 1.497
450.90 1.496
451.00 1.495
451.10 1.494
451.20 1.493
451.30 1.491
451.40 1.49
451.50 1.489
451.60 1.488
451.70 1.486
451.80 1.485
451.90 1.484
452.00 1.483
452.10 1.482
452.20 1.48
452.30 1.479
452.40 1.478
452.50 1.477
452.60 1.475
452.70 1.474
452.80 1.473
452.90 1.472
453.00 1.471
453.10 1.469
453.20 1.468
453.30 1.467
453.40 1.466
453.50 1.464
453.60 1.463
453.70 1.462
453.80 1.461
453.90 1.46
454.00 1.458
454.10 1.457
454.20 1.456
454.30 1.455
454.40 1.453
454.50 1.452
454.60 1.451
454.70 1.45
454.80 1.449
454.90 1.447
455.00 1.446
455.10 1.445
455.20 1.444
455.30 1.443
455.40 1.441
455.50 1.44
455.60 1.439
455.70 1.438
455.80 1.437
455.90 1.435
456.00 1.434
456.10 1.433
456.20 1.432
456.30 1.431
456.40 1.429
456.50 1.428
456.60 1.427
456.70 1.426
456.80 1.425
456.90 1.423
457.00 1.422
457.10 1.421
457.20 1.42
457.30 1.419
457.40 1.417
457.50 1.416
457.60 1.415
457.70 1.414
457.80 1.413
457.90 1.411
458.00 1.41
458.10 1.409
458.20 1.408
458.30 1.407
458.40 1.405
458.50 1.404
458.60 1.403
458.70 1.402
458.80 1.401
458.90 1.399
459.00 1.398
459.10 1.397
459.20 1.396
459.30 1.395
459.40 1.394
459.50 1.392
459.60 1.391
459.70 1.39
459.80 1.389
459.90 1.388
460.00 1.386
460.10 1.385
460.20 1.384
460.30 1.383
460.40 1.382
460.50 1.381
460.60 1.379
460.70 1.378
460.80 1.377
460.90 1.376
461.00 1.375
461.10 1.374
461.20 1.372
461.30 1.371
461.40 1.37
461.50 1.369
461.60 1.368
461.70 1.367
461.80 1.365
461.90 1.364
462.00 1.363
462.10 1.362
462.20 1.361
462.30 1.36
462.40 1.358
462.50 1.357
462.60 1.356
462.70 1.355
462.80 1.354
462.90 1.353
463.00 1.352
463.10 1.35
463.20 1.349
463.30 1.348
463.40 1.347
463.50 1.346
463.60 1.345
463.70 1.343
463.80 1.342
463.90 1.341
464.00 1.34
464.10 1.339
464.20 1.338
464.30 1.337
464.40 1.335
464.50 1.334
464.60 1.333
464.70 1.332
464.80 1.331
464.90 1.33
465.00 1.328
465.10 1.327
465.20 1.326
465.30 1.325
465.40 1.324
465.50 1.323
465.60 1.322
465.70 1.32
465.80 1.319
465.90 1.318
466.00 1.317
466.10 1.316
466.20 1.315
466.30 1.314
466.40 1.312
466.50 1.311
466.60 1.31
466.70 1.309
466.80 1.308
466.90 1.307
467.00 1.306
467.10 1.305
467.20 1.303
467.30 1.302
467.40 1.301
467.50 1.3
467.60 1.299
467.70 1.298
467.80 1.297
467.90 1.295
468.00 1.294
468.10 1.293
468.20 1.292
468.30 1.291
468.40 1.29
468.50 1.289
468.60 1.287
468.70 1.286
468.80 1.285
468.90 1.284
469.00 1.283
469.10 1.282
469.20 1.281
469.30 1.279
469.40 1.278
469.50 1.277
469.60 1.276
469.70 1.275
469.80 1.274
469.90 1.273
470.00 1.271
470.10 1.27
470.20 1.269
470.30 1.268
470.40 1.267
470.50 1.266
470.60 1.265
470.70 1.263
470.80 1.262
470.90 1.261
471.00 1.26
471.10 1.259
471.20 1.258
471.30 1.257
471.40 1.255
471.50 1.254
471.60 1.253
471.70 1.252
471.80 1.251
471.90 1.25
472.00 1.248
472.10 1.247
472.20 1.246
472.30 1.245
472.40 1.244
472.50 1.243
472.60 1.241
472.70 1.24
472.80 1.239
472.90 1.238
473.00 1.237
473.10 1.236
473.20 1.234
473.30 1.233
473.40 1.232
473.50 1.231
473.60 1.23
473.70 1.228
473.80 1.227
473.90 1.226
474.00 1.225
474.10 1.224
474.20 1.222
474.30 1.221
474.40 1.22
474.50 1.219
474.60 1.218
474.70 1.216
474.80 1.215
474.90 1.214
475.00 1.213
475.10 1.212
475.20 1.21
475.30 1.209
475.40 1.208
475.50 1.206
475.60 1.205
475.70 1.204
475.80 1.203
475.90 1.201
476.00 1.2
476.10 1.199
476.20 1.198
476.30 1.196
476.40 1.195
476.50 1.194
476.60 1.192
476.70 1.191
476.80 1.19
476.90 1.189
477.00 1.187
477.10 1.186
477.20 1.185
477.30 1.183
477.40 1.182
477.50 1.18
477.60 1.179
477.70 1.178
477.80 1.176
477.90 1.175
478.00 1.174
478.10 1.172
478.20 1.171
478.30 1.169
478.40 1.168
478.50 1.166
478.60 1.165
478.70 1.164
478.80 1.162
478.90 1.161
479.00 1.159
479.10 1.158
479.20 1.156
479.30 1.155
479.40 1.153
479.50 1.151
479.60 1.15
479.70 1.148
479.80 1.147
479.90 1.145
480.00 1.144
480.10 1.142
480.20 1.14
480.30 1.139
480.40 1.137
480.50 1.135
480.60 1.134
480.70 1.132
480.80 1.13
480.90 1.129
481.00 1.127
481.10 1.125
481.20 1.123
481.30 1.122
481.40 1.12
481.50 1.118
481.60 1.116
481.70 1.114
481.80 1.112
481.90 1.11
482.00 1.109
482.10 1.107
482.20 1.105
482.30 1.103
482.40 1.101
482.50 1.099
482.60 1.097
482.70 1.095
482.80 1.093
482.90 1.09
483.00 1.088
483.10 1.086
483.20 1.084
483.30 1.082
483.40 1.08
483.50 1.078
483.60 1.076
483.70 1.073
483.80 1.071
483.90 1.069
484.00 1.067
484.10 1.065
484.20 1.062
484.30 1.06
484.40 1.058
484.50 1.056
484.60 1.053
484.70 1.051
484.80 1.049
484.90 1.047
485.00 1.045
485.10 1.043
485.20 1.041
485.30 1.04
485.40 1.038
485.50 1.037
485.60 1.037
485.70 1.037
485.80 1.039
485.90 1.042
486.00 1.046
486.10 1.049
486.20 1.047
486.30 1.042
486.40 1.037
486.50 1.032
486.60 1.03
486.70 1.028
486.80 1.027
486.90 1.027
487.00 1.026
487.10 1.027
487.20 1.027
487.30 1.027
487.40 1.028
487.50 1.028
487.60 1.029
487.70 1.029
487.80 1.03
487.90 1.03
488.00 1.031
488.10 1.032
488.20 1.032
488.30 1.033
488.40 1.033
488.50 1.034
488.60 1.034
488.70 1.035
488.80 1.035
488.90 1.036
489.00 1.036
489.10 1.037
489.20 1.037
489.30 1.037
489.40 1.038
489.50 1.038
489.60 1.038
489.70 1.039
489.80 1.039
489.90 1.039
490.00 1.039
490.10 1.04
490.20 1.04
490.30 1.04
490.40 1.04
490.50 1.04
490.60 1.04
490.70 1.04
490.80 1.04
490.90 1.041
491.00 1.041
491.10 1.041
491.20 1.041
491.30 1.041
491.40 1.041
491.50 1.04
491.60 1.04
491.70 1.04
491.80 1.04
491.90 1.04
492.00 1.04
492.10 1.04
492.20 1.04
492.30 1.039
492.40 1.039
492.50 1.039
492.60 1.039
492.70 1.039
492.80 1.038
492.90 1.038
493.00 1.038
493.10 1.038
493.20 1.037
493.30 1.037
493.40 1.037
493.50 1.036
493.60 1.036
493.70 1.035
493.80 1.035
493.90 1.035
494.00 1.034
494.10 1.034
494.20 1.034
494.30 1.033
494.40 1.033
494.50 1.032
494.60 1.032
494.70 1.031
494.80 1.031
494.90 1.03
495.00 1.03
495.10 1.03
495.20 1.029
495.30 1.028
495.40 1.028
495.50 1.027
495.60 1.027
495.70 1.026
495.80 1.026
495.90 1.025
496.00 1.025
496.10 1.024
496.20 1.024
496.30 1.023
496.40 1.023
496.50 1.022
496.60 1.021
496.70 1.021
496.80 1.02
496.90 1.02
497.00 1.019
497.10 1.019
497.20 1.018
497.30 1.017
497.40 1.017
497.50 1.016
497.60 1.015
497.70 1.015
497.80 1.014
497.90 1.014
498.00 1.013
498.10 1.012
498.20 1.012
498.30 1.011
498.40 1.01
498.50 1.01
498.60 1.009
498.70 1.009
498.80 1.008
498.90 1.007
499.00 1.007
499.10 1.006
499.20 1.005
499.30 1.005
499.40 1.004
499.50 1.003
499.60 1.003
499.70 1.002
499.80 1.001
499.90 1.001
500.00 1
500.10 0.9993
500.20 0.9987
500.30 0.998
500.40 0.9973
500.50 0.9966
500.60 0.9959
500.70 0.9953
500.80 0.9946
500.90 0.9939
501.00 0.9932
501.10 0.9925
501.20 0.9919
501.30 0.9912
501.40 0.9905
501.50 0.9898
501.60 0.9891
501.70 0.9884
501.80 0.9877
501.90 0.987
502.00 0.9863
502.10 0.9856
502.20 0.9849
502.30 0.9842
502.40 0.9835
502.50 0.9829
502.60 0.9822
502.70 0.9815
502.80 0.9808
502.90 0.9801
503.00 0.9794
503.10 0.9787
503.20 0.978
503.30 0.9773
503.40 0.9766
503.50 0.9759
503.60 0.9752
503.70 0.9745
503.80 0.9738
503.90 0.9731
504.00 0.9724
504.10 0.9717
504.20 0.971
504.30 0.9703
504.40 0.9696
504.50 0.9688
504.60 0.9681
504.70 0.9674
504.80 0.9667
504.90 0.966
505.00 0.9653
505.10 0.9646
505.20 0.9639
505.30 0.9632
505.40 0.9625
505.50 0.9618
505.60 0.9611
505.70 0.9604
505.80 0.9597
505.90 0.959
506.00 0.9583
506.10 0.9576
506.20 0.9569
506.30 0.9562
506.40 0.9555
506.50 0.9548
506.60 0.9541
506.70 0.9534
506.80 0.9527
506.90 0.952
507.00 0.9513
507.10 0.9506
507.20 0.9499
507.30 0.9492
507.40 0.9485
507.50 0.9478
507.60 0.9471
507.70 0.9464
507.80 0.9457
507.90 0.945
508.00 0.9443
508.10 0.9436
508.20 0.9429
508.30 0.9422
508.40 0.9415
508.50 0.9408
508.60 0.9401
508.70 0.9394
508.80 0.9387
508.90 0.938
509.00 0.9373
509.10 0.9366
509.20 0.9359
509.30 0.9352
509.40 0.9346
509.50 0.9339
509.60 0.9332
509.70 0.9325
509.80 0.9318
509.90 0.9311
510.00 0.9304
510.10 0.9297
510.20 0.929
510.30 0.9283
510.40 0.9276
510.50 0.9269
510.60 0.9263
510.70 0.9256
510.80 0.9249
510.90 0.9242
511.00 0.9235
511.10 0.9228
511.20 0.9221
511.30 0.9215
511.40 0.9208
511.50 0.9201
511.60 0.9194
511.70 0.9187
511.80 0.918
511.90 0.9173
512.00 0.9167
512.10 0.916
512.20 0.9153
512.30 0.9146
512.40 0.9139
512.50 0.9133
512.60 0.9126
512.70 0.9119
512.80 0.9112
512.90 0.9105
513.00 0.9099
513.10 0.9092
513.20 0.9085
513.30 0.9078
513.40 0.9071
513.50 0.9065
513.60 0.9058
513.70 0.9051
513.80 0.9044
513.90 0.9038
514.00 0.9031
514.10 0.9024
514.20 0.9018
514.30 0.9011
514.40 0.9004
514.50 0.8997
514.60 0.8991
514.70 0.8984
514.80 0.8977
514.90 0.8971
515.00 0.8964
515.10 0.8957
515.20 0.8951
515.30 0.8944
515.40 0.8937
515.50 0.8931
515.60 0.8924
515.70 0.8917
515.80 0.8911
515.90 0.8904
516.00 0.8897
516.10 0.8891
516.20 0.8884
516.30 0.8878
516.40 0.8871
516.50 0.8864
516.60 0.8858
516.70 0.8851
516.80 0.8845
516.90 0.8838
517.00 0.8831
517.10 0.8825
517.20 0.8818
517.30 0.8812
517.40 0.8805
517.50 0.8799
517.60 0.8792
517.70 0.8786
517.80 0.8779
517.90 0.8773
518.00 0.8766
518.10 0.8759
518.20 0.8753
518.30 0.8746
518.40 0.874
518.50 0.8733
518.60 0.8727
518.70 0.872
518.80 0.8714
518.90 0.8708
519.00 0.8701
519.10 0.8695
519.20 0.8688
519.30 0.8682
519.40 0.8675
519.50 0.8669
519.60 0.8662
519.70 0.8656
519.80 0.8649
519.90 0.8643
520.00 0.8637
520.10 0.863
520.20 0.8624
520.30 0.8617
520.40 0.8611
520.50 0.8605
520.60 0.8598
520.70 0.8592
520.80 0.8586
520.90 0.8579
521.00 0.8573
521.10 0.8566
521.20 0.856
521.30 0.8554
521.40 0.8547
521.50 0.8541
521.60 0.8535
521.70 0.8528
521.80 0.8522
521.90 0.8516
522.00 0.851
522.10 0.8503
522.20 0.8497
522.30 0.8491
522.40 0.8484
522.50 0.8478
522.60 0.8472
522.70 0.8466
522.80 0.8459
522.90 0.8453
523.00 0.8447
523.10 0.8441
523.20 0.8434
523.30 0.8428
523.40 0.8422
523.50 0.8416
523.60 0.8409
523.70 0.8403
523.80 0.8397
523.90 0.8391
524.00 0.8385
524.10 0.8378
524.20 0.8372
524.30 0.8366
524.40 0.836
524.50 0.8354
524.60 0.8348
524.70 0.8341
524.80 0.8335
524.90 0.8329
525.00 0.8323
525.10 0.8317
525.20 0.8311
525.30 0.8305
525.40 0.8299
525.50 0.8292
525.60 0.8286
525.70 0.828
525.80 0.8274
525.90 0.8268
526.00 0.8262
526.10 0.8256
526.20 0.825
526.30 0.8244
526.40 0.8238
526.50 0.8232
526.60 0.8226
526.70 0.8219
526.80 0.8213
526.90 0.8207
527.00 0.8201
527.10 0.8195
527.20 0.8189
527.30 0.8183
527.40 0.8177
527.50 0.8171
527.60 0.8165
527.70 0.8159
527.80 0.8153
527.90 0.8147
528.00 0.8141
528.10 0.8135
528.20 0.8129
528.30 0.8123
528.40 0.8117
528.50 0.8112
528.60 0.8106
528.70 0.81
528.80 0.8094
528.90 0.8088
529.00 0.8082
529.10 0.8076
529.20 0.807
529.30 0.8064
529.40 0.8058
529.50 0.8052
529.60 0.8046
529.70 0.8041
529.80 0.8035
529.90 0.8029
530.00 0.8023
530.10 0.8017
530.20 0.8011
530.30 0.8005
530.40 0.7999
530.50 0.7994
530.60 0.7988
530.70 0.7982
530.80 0.7976
530.90 0.797
531.00 0.7964
531.10 0.7959
531.20 0.7953
531.30 0.7947
531.40 0.7941
531.50 0.7935
531.60 0.793
531.70 0.7924
531.80 0.7918
531.90 0.7912
532.00 0.7907
532.10 0.7901
532.20 0.7895
532.30 0.7889
532.40 0.7884
532.50 0.7878
532.60 0.7872
532.70 0.7866
532.80 0.7861
532.90 0.7855
533.00 0.7849
533.10 0.7843
533.20 0.7838
533.30 0.7832
533.40 0.7826
533.50 0.7821
533.60 0.7815
533.70 0.7809
533.80 0.7804
533.90 0.7798
534.00 0.7792
534.10 0.7787
534.20 0.7781
534.30 0.7775
534.40 0.777
534.50 0.7764
534.60 0.7758
534.70 0.7753
534.80 0.7747
534.90 0.7741
535.00 0.7736
535.10 0.773
535.20 0.7725
535.30 0.7719
535.40 0.7713
535.50 0.7708
535.60 0.7702
535.70 0.7697
535.80 0.7691
535.90 0.7686
536.00 0.768
536.10 0.7674
536.20 0.7669
536.30 0.7663
536.40 0.7658
536.50 0.7652
536.60 0.7647
536.70 0.7641
536.80 0.7636
536.90 0.763
537.00 0.7625
537.10 0.7619
537.20 0.7613
537.30 0.7608
537.40 0.7602
537.50 0.7597
537.60 0.7592
537.70 0.7586
537.80 0.7581
537.90 0.7575
538.00 0.757
538.10 0.7564
538.20 0.7559
538.30 0.7553
538.40 0.7548
538.50 0.7542
538.60 0.7537
538.70 0.7532
538.80 0.7526
538.90 0.7521
539.00 0.7515
539.10 0.751
539.20 0.7504
539.30 0.7499
539.40 0.7494
539.50 0.7488
539.60 0.7483
539.70 0.7477
539.80 0.7472
539.90 0.7467
540.00 0.7461
540.10 0.7456
540.20 0.7451
540.30 0.7445
540.40 0.744
540.50 0.7435
540.60 0.7429
540.70 0.7424
540.80 0.7419
540.90 0.7413
541.00 0.7408
541.10 0.7403
541.20 0.7397
541.30 0.7392
541.40 0.7387
541.50 0.7381
541.60 0.7376
541.70 0.7371
541.80 0.7365
541.90 0.736
542.00 0.7355
542.10 0.735
542.20 0.7344
542.30 0.7339
542.40 0.7334
542.50 0.7329
542.60 0.7323
542.70 0.7318
542.80 0.7313
542.90 0.7308
543.00 0.7302
543.10 0.7297
543.20 0.7292
543.30 0.7287
543.40 0.7282
543.50 0.7276
543.60 0.7271
543.70 0.7266
543.80 0.7261
543.90 0.7256
544.00 0.725
544.10 0.7245
544.20 0.724
544.30 0.7235
544.40 0.723
544.50 0.7225
544.60 0.7219
544.70 0.7214
544.80 0.7209
544.90 0.7204
545.00 0.7199
545.10 0.7194
545.20 0.7189
545.30 0.7183
545.40 0.7178
545.50 0.7173
545.60 0.7168
545.70 0.7163
545.80 0.7158
545.90 0.7153
546.00 0.7148
546.10 0.7143
546.20 0.7137
546.30 0.7132
546.40 0.7127
546.50 0.7122
546.60 0.7117
546.70 0.7112
546.80 0.7107
546.90 0.7102
547.00 0.7097
547.10 0.7092
547.20 0.7087
547.30 0.7082
547.40 0.7077
547.50 0.7072
547.60 0.7067
547.70 0.7062
547.80 0.7057
547.90 0.7052
548.00 0.7047
548.10 0.7042
548.20 0.7037
548.30 0.7032
548.40 0.7027
548.50 0.7022
548.60 0.7017
548.70 0.7012
548.80 0.7007
548.90 0.7002
549.00 0.6997
549.10 0.6992
549.20 0.6987
549.30 0.6982
549.40 0.6977
549.50 0.6972
549.60 0.6967
549.70 0.6962
549.80 0.6957
549.90 0.6952
550.00 0.6948
550.10 0.6943
550.20 0.6938
550.30 0.6933
550.40 0.6928
550.50 0.6923
550.60 0.6918
550.70 0.6913
550.80 0.6908
550.90 0.6904
551.00 0.6899
551.10 0.6894
551.20 0.6889
551.30 0.6884
551.40 0.6879
551.50 0.6874
551.60 0.687
551.70 0.6865
551.80 0.686
551.90 0.6855
552.00 0.685
552.10 0.6845
552.20 0.6841
552.30 0.6836
552.40 0.6831
552.50 0.6826
552.60 0.6821
552.70 0.6817
552.80 0.6812
552.90 0.6807
553.00 0.6802
553.10 0.6797
553.20 0.6793
553.30 0.6788
553.40 0.6783
553.50 0.6778
553.60 0.6774
553.70 0.6769
553.80 0.6764
553.90 0.6759
554.00 0.6754
554.10 0.675
554.20 0.6745
554.30 0.674
554.40 0.6736
554.50 0.6731
554.60 0.6726
554.70 0.6721
554.80 0.6717
554.90 0.6712
555.00 0.6707
555.10 0.6703
555.20 0.6698
555.30 0.6693
555.40 0.6688
555.50 0.6684
555.60 0.6679
555.70 0.6674
555.80 0.667
555.90 0.6665
556.00 0.666
556.10 0.6656
556.20 0.6651
556.30 0.6646
556.40 0.6642
556.50 0.6637
556.60 0.6633
556.70 0.6628
556.80 0.6623
556.90 0.6619
557.00 0.6614
557.10 0.6609
557.20 0.6605
557.30 0.66
557.40 0.6596
557.50 0.6591
557.60 0.6586
557.70 0.6582
557.80 0.6577
557.90 0.6573
558.00 0.6568
558.10 0.6563
558.20 0.6559
558.30 0.6554
558.40 0.655
558.50 0.6545
558.60 0.6541
558.70 0.6536
558.80 0.6531
558.90 0.6527
559.00 0.6522
559.10 0.6518
559.20 0.6513
559.30 0.6509
559.40 0.6504
559.50 0.65
559.60 0.6495
559.70 0.6491
559.80 0.6486
559.90 0.6482
560.00 0.6477
560.10 0.6473
560.20 0.6468
560.30 0.6464
560.40 0.6459
560.50 0.6455
560.60 0.645
560.70 0.6446
560.80 0.6441
560.90 0.6437
561.00 0.6432
561.10 0.6428
561.20 0.6423
561.30 0.6419
561.40 0.6415
561.50 0.641
561.60 0.6406
561.70 0.6401
561.80 0.6397
561.90 0.6392
562.00 0.6388
562.10 0.6384
562.20 0.6379
562.30 0.6375
562.40 0.637
562.50 0.6366
562.60 0.6361
562.70 0.6357
562.80 0.6353
562.90 0.6348
563.00 0.6344
563.10 0.634
563.20 0.6335
563.30 0.6331
563.40 0.6326
563.50 0.6322
563.60 0.6318
563.70 0.6313
563.80 0.6309
563.90 0.6305
564.00 0.63
564.10 0.6296
564.20 0.6291
564.30 0.6287
564.40 0.6283
564.50 0.6279
564.60 0.6274
564.70 0.627
564.80 0.6266
564.90 0.6261
565.00 0.6257
565.10 0.6253
565.20 0.6248
565.30 0.6244
565.40 0.624
565.50 0.6235
565.60 0.6231
565.70 0.6227
565.80 0.6223
565.90 0.6218
566.00 0.6214
566.10 0.621
566.20 0.6205
566.30 0.6201
566.40 0.6197
566.50 0.6193
566.60 0.6188
566.70 0.6184
566.80 0.618
566.90 0.6176
567.00 0.6171
567.10 0.6167
567.20 0.6163
567.30 0.6159
567.40 0.6154
567.50 0.615
567.60 0.6146
567.70 0.6142
567.80 0.6138
567.90 0.6133
568.00 0.6129
568.10 0.6125
568.20 0.6121
568.30 0.6117
568.40 0.6112
568.50 0.6108
568.60 0.6104
568.70 0.61
568.80 0.6096
568.90 0.6092
569.00 0.6087
569.10 0.6083
569.20 0.6079
569.30 0.6075
569.40 0.6071
569.50 0.6067
569.60 0.6062
569.70 0.6058
569.80 0.6054
569.90 0.605
570.00 0.6046
570.10 0.6042
570.20 0.6038
570.30 0.6033
570.40 0.6029
570.50 0.6025
570.60 0.6021
570.70 0.6017
570.80 0.6013
570.90 0.6009
571.00 0.6005
571.10 0.6001
571.20 0.5997
571.30 0.5992
571.40 0.5988
571.50 0.5984
571.60 0.598
571.70 0.5976
571.80 0.5972
571.90 0.5968
572.00 0.5964
572.10 0.596
572.20 0.5956
572.30 0.5952
572.40 0.5948
572.50 0.5944
572.60 0.594
572.70 0.5936
572.80 0.5932
572.90 0.5928
573.00 0.5924
573.10 0.5919
573.20 0.5915
573.30 0.5911
573.40 0.5907
573.50 0.5903
573.60 0.5899
573.70 0.5895
573.80 0.5891
573.90 0.5887
574.00 0.5883
574.10 0.5879
574.20 0.5875
574.30 0.5871
574.40 0.5867
574.50 0.5864
574.60 0.586
574.70 0.5856
574.80 0.5852
574.90 0.5848
575.00 0.5844
575.10 0.584
575.20 0.5836
575.30 0.5832
575.40 0.5828
575.50 0.5824
575.60 0.582
575.70 0.5816
575.80 0.5812
575.90 0.5808
576.00 0.5804
576.10 0.58
576.20 0.5796
576.30 0.5792
576.40 0.5789
576.50 0.5785
576.60 0.5781
576.70 0.5777
576.80 0.5773
576.90 0.5769
577.00 0.5765
577.10 0.5761
577.20 0.5757
577.30 0.5754
577.40 0.575
577.50 0.5746
577.60 0.5742
577.70 0.5738
577.80 0.5734
577.90 0.573
578.00 0.5726
578.10 0.5723
578.20 0.5719
578.30 0.5715
578.40 0.5711
578.50 0.5707
578.60 0.5703
578.70 0.5699
578.80 0.5696
578.90 0.5692
579.00 0.5688
579.10 0.5684
579.20 0.568
579.30 0.5676
579.40 0.5673
579.50 0.5669
579.60 0.5665
579.70 0.5661
579.80 0.5657
579.90 0.5654
580.00 0.565
580.10 0.5646
580.20 0.5642
580.30 0.5638
580.40 0.5635
580.50 0.5631
580.60 0.5627
580.70 0.5623
580.80 0.562
580.90 0.5616
581.00 0.5612
581.10 0.5608
581.20 0.5605
581.30 0.5601
581.40 0.5597
581.50 0.5593
581.60 0.559
581.70 0.5586
581.80 0.5582
581.90 0.5578
582.00 0.5575
582.10 0.5571
582.20 0.5567
582.30 0.5563
582.40 0.556
582.50 0.5556
582.60 0.5552
582.70 0.5548
582.80 0.5545
582.90 0.5541
583.00 0.5537
583.10 0.5534
583.20 0.553
583.30 0.5526
583.40 0.5523
583.50 0.5519
583.60 0.5515
583.70 0.5512
583.80 0.5508
583.90 0.5504
584.00 0.55
584.10 0.5497
584.20 0.5493
584.30 0.5489
584.40 0.5486
584.50 0.5482
584.60 0.5479
584.70 0.5475
584.80 0.5471
584.90 0.5468
585.00 0.5464
585.10 0.546
585.20 0.5457
585.30 0.5453
585.40 0.5449
585.50 0.5446
585.60 0.5442
585.70 0.5439
585.80 0.5435
585.90 0.5431
586.00 0.5428
586.10 0.5424
586.20 0.542
586.30 0.5417
586.40 0.5413
586.50 0.541
586.60 0.5406
586.70 0.5402
586.80 0.5399
586.90 0.5395
587.00 0.5392
587.10 0.5388
587.20 0.5385
587.30 0.5381
587.40 0.5377
587.50 0.5374
587.60 0.537
587.70 0.5367
587.80 0.5363
587.90 0.536
588.00 0.5356
588.10 0.5352
588.20 0.5349
588.30 0.5345
588.40 0.5342
588.50 0.5338
588.60 0.5335
588.70 0.5331
588.80 0.5328
588.90 0.5324
589.00 0.5321
589.10 0.5317
589.20 0.5314
589.30 0.531
589.40 0.5307
589.50 0.5303
589.60 0.53
589.70 0.5296
589.80 0.5293
589.90 0.5289
590.00 0.5286
590.10 0.5282
590.20 0.5279
590.30 0.5275
590.40 0.5272
590.50 0.5268
590.60 0.5265
590.70 0.5261
590.80 0.5258
590.90 0.5254
591.00 0.5251
591.10 0.5247
591.20 0.5244
591.30 0.524
591.40 0.5237
591.50 0.5234
591.60 0.523
591.70 0.5227
591.80 0.5223
591.90 0.522
592.00 0.5216
592.10 0.5213
592.20 0.5209
592.30 0.5206
592.40 0.5203
592.50 0.5199
592.60 0.5196
592.70 0.5192
592.80 0.5189
592.90 0.5186
593.00 0.5182
593.10 0.5179
593.20 0.5175
593.30 0.5172
593.40 0.5168
593.50 0.5165
593.60 0.5162
593.70 0.5158
593.80 0.5155
593.90 0.5152
594.00 0.5148
594.10 0.5145
594.20 0.5141
594.30 0.5138
594.40 0.5135
594.50 0.5131
594.60 0.5128
594.70 0.5125
594.80 0.5121
594.90 0.5118
595.00 0.5114
595.10 0.5111
595.20 0.5108
595.30 0.5104
595.40 0.5101
595.50 0.5098
595.60 0.5094
595.70 0.5091
595.80 0.5088
595.90 0.5084
596.00 0.5081
596.10 0.5078
596.20 0.5074
596.30 0.5071
596.40 0.5068
596.50 0.5064
596.60 0.5061
596.70 0.5058
596.80 0.5055
596.90 0.5051
597.00 0.5048
597.10 0.5045
597.20 0.5041
597.30 0.5038
597.40 0.5035
597.50 0.5031
597.60 0.5028
597.70 0.5025
597.80 0.5022
597.90 0.5018
598.00 0.5015
598.10 0.5012
598.20 0.5009
598.30 0.5005
598.40 0.5002
598.50 0.4999
598.60 0.4995
598.70 0.4992
598.80 0.4989
598.90 0.4986
599.00 0.4982
599.10 0.4979
599.20 0.4976
599.30 0.4973
599.40 0.497
599.50 0.4966
599.60 0.4963
599.70 0.496
599.80 0.4957
599.90 0.4953
600.00 0.495
600.10 0.4947
600.20 0.4944
600.30 0.494
600.40 0.4937
600.50 0.4934
600.60 0.4931
600.70 0.4928
600.80 0.4924
600.90 0.4921
601.00 0.4918
601.10 0.4915
601.20 0.4912
601.30 0.4908
601.40 0.4905
601.50 0.4902
601.60 0.4899
601.70 0.4896
601.80 0.4893
601.90 0.4889
602.00 0.4886
602.10 0.4883
602.20 0.488
602.30 0.4877
602.40 0.4874
602.50 0.487
602.60 0.4867
602.70 0.4864
602.80 0.4861
602.90 0.4858
603.00 0.4855
603.10 0.4852
603.20 0.4848
603.30 0.4845
603.40 0.4842
603.50 0.4839
603.60 0.4836
603.70 0.4833
603.80 0.483
603.90 0.4826
604.00 0.4823
604.10 0.482
604.20 0.4817
604.30 0.4814
604.40 0.4811
604.50 0.4808
604.60 0.4805
604.70 0.4802
604.80 0.4799
604.90 0.4795
605.00 0.4792
605.10 0.4789
605.20 0.4786
605.30 0.4783
605.40 0.478
605.50 0.4777
605.60 0.4774
605.70 0.4771
605.80 0.4768
605.90 0.4765
606.00 0.4761
606.10 0.4758
606.20 0.4755
606.30 0.4752
606.40 0.4749
606.50 0.4746
606.60 0.4743
606.70 0.474
606.80 0.4737
606.90 0.4734
607.00 0.4731
607.10 0.4728
607.20 0.4725
607.30 0.4722
607.40 0.4719
607.50 0.4716
607.60 0.4713
607.70 0.471
607.80 0.4707
607.90 0.4704
608.00 0.4701
608.10 0.4698
608.20 0.4695
608.30 0.4692
608.40 0.4689
608.50 0.4685
608.60 0.4682
608.70 0.4679
608.80 0.4676
608.90 0.4673
609.00 0.467
609.10 0.4667
609.20 0.4664
609.30 0.4661
609.40 0.4659
609.50 0.4656
609.60 0.4653
609.70 0.465
609.80 0.4647
609.90 0.4644
610.00 0.4641
610.10 0.4638
610.20 0.4635
610.30 0.4632
610.40 0.4629
610.50 0.4626
610.60 0.4623
610.70 0.462
610.80 0.4617
610.90 0.4614
611.00 0.4611
611.10 0.4608
611.20 0.4605
611.30 0.4602
611.40 0.4599
611.50 0.4596
611.60 0.4593
611.70 0.459
611.80 0.4587
611.90 0.4585
612.00 0.4582
612.10 0.4579
612.20 0.4576
612.30 0.4573
612.40 0.457
612.50 0.4567
612.60 0.4564
612.70 0.4561
612.80 0.4558
612.90 0.4555
613.00 0.4552
613.10 0.455
613.20 0.4547
613.30 0.4544
613.40 0.4541
613.50 0.4538
613.60 0.4535
613.70 0.4532
613.80 0.4529
613.90 0.4526
614.00 0.4523
614.10 0.4521
614.20 0.4518
614.30 0.4515
614.40 0.4512
614.50 0.4509
614.60 0.4506
614.70 0.4503
614.80 0.45
614.90 0.4498
615.00 0.4495
615.10 0.4492
615.20 0.4489
615.30 0.4486
615.40 0.4483
615.50 0.448
615.60 0.4478
615.70 0.4475
615.80 0.4472
615.90 0.4469
616.00 0.4466
616.10 0.4463
616.20 0.4461
616.30 0.4458
616.40 0.4455
616.50 0.4452
616.60 0.4449
616.70 0.4446
616.80 0.4444
616.90 0.4441
617.00 0.4438
617.10 0.4435
617.20 0.4432
617.30 0.4429
617.40 0.4427
617.50 0.4424
617.60 0.4421
617.70 0.4418
617.80 0.4415
617.90 0.4413
618.00 0.441
618.10 0.4407
618.20 0.4404
618.30 0.4401
618.40 0.4399
618.50 0.4396
618.60 0.4393
618.70 0.439
618.80 0.4388
618.90 0.4385
619.00 0.4382
619.10 0.4379
619.20 0.4376
619.30 0.4374
619.40 0.4371
619.50 0.4368
619.60 0.4365
619.70 0.4363
619.80 0.436
619.90 0.4357
620.00 0.4354
620.10 0.4352
620.20 0.4349
620.30 0.4346
620.40 0.4343
620.50 0.4341
620.60 0.4338
620.70 0.4335
620.80 0.4332
620.90 0.433
621.00 0.4327
621.10 0.4324
621.20 0.4321
621.30 0.4319
621.40 0.4316
621.50 0.4313
621.60 0.431
621.70 0.4308
621.80 0.4305
621.90 0.4302
622.00 0.43
622.10 0.4297
622.20 0.4294
622.30 0.4291
622.40 0.4289
622.50 0.4286
622.60 0.4283
622.70 0.4281
622.80 0.4278
622.90 0.4275
623.00 0.4272
623.10 0.427
623.20 0.4267
623.30 0.4264
623.40 0.4262
623.50 0.4259
623.60 0.4256
623.70 0.4254
623.80 0.4251
623.90 0.4248
624.00 0.4246
624.10 0.4243
624.20 0.424
624.30 0.4238
624.40 0.4235
624.50 0.4232
624.60 0.423
624.70 0.4227
624.80 0.4224
624.90 0.4222
625.00 0.4219
625.10 0.4216
625.20 0.4214
625.30 0.4211
625.40 0.4208
625.50 0.4206
625.60 0.4203
625.70 0.42
625.80 0.4198
625.90 0.4195
626.00 0.4192
626.10 0.419
626.20 0.4187
626.30 0.4184
626.40 0.4182
626.50 0.4179
626.60 0.4177
626.70 0.4174
626.80 0.4171
626.90 0.4169
627.00 0.4166
627.10 0.4163
627.20 0.4161
627.30 0.4158
627.40 0.4156
627.50 0.4153
627.60 0.415
627.70 0.4148
627.80 0.4145
627.90 0.4142
628.00 0.414
628.10 0.4137
628.20 0.4135
628.30 0.4132
628.40 0.4129
628.50 0.4127
628.60 0.4124
628.70 0.4122
628.80 0.4119
628.90 0.4116
629.00 0.4114
629.10 0.4111
629.20 0.4109
629.30 0.4106
629.40 0.4103
629.50 0.4101
629.60 0.4098
629.70 0.4096
629.80 0.4093
629.90 0.4091
630.00 0.4088
630.10 0.4085
630.20 0.4083
630.30 0.408
630.40 0.4078
630.50 0.4075
630.60 0.4073
630.70 0.407
630.80 0.4067
630.90 0.4065
631.00 0.4062
631.10 0.406
631.20 0.4057
631.30 0.4055
631.40 0.4052
631.50 0.4049
631.60 0.4047
631.70 0.4044
631.80 0.4042
631.90 0.4039
632.00 0.4037
632.10 0.4034
632.20 0.4032
632.30 0.4029
632.40 0.4026
632.50 0.4024
632.60 0.4021
632.70 0.4019
632.80 0.4016
632.90 0.4014
633.00 0.4011
633.10 0.4009
633.20 0.4006
633.30 0.4004
633.40 0.4001
633.50 0.3999
633.60 0.3996
633.70 0.3993
633.80 0.3991
633.90 0.3988
634.00 0.3986
634.10 0.3983
634.20 0.3981
634.30 0.3978
634.40 0.3976
634.50 0.3973
634.60 0.3971
634.70 0.3968
634.80 0.3966
634.90 0.3963
635.00 0.3961
635.10 0.3958
635.20 0.3956
635.30 0.3953
635.40 0.3951
635.50 0.3948
635.60 0.3946
635.70 0.3943
635.80 0.394
635.90 0.3938
636.00 0.3935
636.10 0.3933
636.20 0.393
636.30 0.3928
636.40 0.3925
636.50 0.3923
636.60 0.392
636.70 0.3918
636.80 0.3915
636.90 0.3913
637.00 0.391
637.10 0.3908
637.20 0.3905
637.30 0.3903
637.40 0.39
637.50 0.3898
637.60 0.3895
637.70 0.3893
637.80 0.389
637.90 0.3888
638.00 0.3885
638.10 0.3883
638.20 0.388
638.30 0.3878
638.40 0.3875
638.50 0.3873
638.60 0.387
638.70 0.3868
638.80 0.3865
638.90 0.3863
639.00 0.386
639.10 0.3857
639.20 0.3855
639.30 0.3852
639.40 0.385
639.50 0.3847
639.60 0.3845
639.70 0.3842
639.80 0.384
639.90 0.3837
640.00 0.3835
640.10 0.3832
640.20 0.383
640.30 0.3827
640.40 0.3825
640.50 0.3822
640.60 0.382
640.70 0.3817
640.80 0.3814
640.90 0.3812
641.00 0.3809
641.10 0.3807
641.20 0.3804
641.30 0.3802
641.40 0.3799
641.50 0.3797
641.60 0.3794
641.70 0.3792
641.80 0.3789
641.90 0.3786
642.00 0.3784
642.10 0.3781
642.20 0.3779
642.30 0.3776
642.40 0.3774
642.50 0.3771
642.60 0.3768
642.70 0.3766
642.80 0.3763
642.90 0.3761
643.00 0.3758
643.10 0.3755
643.20 0.3753
643.30 0.375
643.40 0.3747
643.50 0.3745
643.60 0.3742
643.70 0.374
643.80 0.3737
643.90 0.3734
644.00 0.3732
644.10 0.3729
644.20 0.3726
644.30 0.3724
644.40 0.3721
644.50 0.3718
644.60 0.3715
644.70 0.3713
644.80 0.371
644.90 0.3707
645.00 0.3705
645.10 0.3702
645.20 0.3699
645.30 0.3696
645.40 0.3694
645.50 0.3691
645.60 0.3688
645.70 0.3685
645.80 0.3682
645.90 0.368
646.00 0.3677
646.10 0.3674
646.20 0.3671
646.30 0.3668
646.40 0.3665
646.50 0.3662
646.60 0.366
646.70 0.3657
646.80 0.3654
646.90 0.3651
647.00 0.3648
647.10 0.3645
647.20 0.3642
647.30 0.3639
647.40 0.3636
647.50 0.3633
647.60 0.363
647.70 0.3627
647.80 0.3623
647.90 0.362
648.00 0.3617
648.10 0.3614
648.20 0.3611
648.30 0.3608
648.40 0.3605
648.50 0.3601
648.60 0.3598
648.70 0.3595
648.80 0.3591
648.90 0.3588
649.00 0.3585
649.10 0.3581
649.20 0.3578
649.30 0.3575
649.40 0.3571
649.50 0.3568
649.60 0.3564
649.70 0.356
649.80 0.3557
649.90 0.3553
650.00 0.3549
650.10 0.3546
650.20 0.3542
650.30 0.3539
650.40 0.3535
650.50 0.3531
650.60 0.3527
650.70 0.3523
650.80 0.3519
650.90 0.3515
651.00 0.3511
651.10 0.3507
651.20 0.3503
651.30 0.3499
651.40 0.3494
651.50 0.349
651.60 0.3486
651.70 0.3481
651.80 0.3477
651.90 0.3472
652.00 0.3468
652.10 0.3463
652.20 0.3459
652.30 0.3455
652.40 0.345
652.50 0.3445
652.60 0.344
652.70 0.3435
652.80 0.343
652.90 0.3425
653.00 0.342
653.10 0.3415
653.20 0.341
653.30 0.3405
653.40 0.34
653.50 0.3395
653.60 0.3389
653.70 0.3384
653.80 0.3379
653.90 0.3373
654.00 0.3368
654.10 0.3362
654.20 0.3357
654.30 0.3352
654.40 0.3346
654.50 0.3341
654.60 0.3335
654.70 0.333
654.80 0.3324
654.90 0.3319
655.00 0.3314
655.10 0.3309
655.20 0.3304
655.30 0.3299
655.40 0.3296
655.50 0.3292
655.60 0.329
655.70 0.3288
655.80 0.329
655.90 0.3295
656.00 0.3311
656.10 0.3331
656.20 0.3413
656.30 0.3489
656.40 0.3367
656.50 0.3313
656.60 0.3293
656.70 0.3275
656.80 0.327
656.90 0.3265
657.00 0.3263
657.10 0.3262
657.20 0.3262
657.30 0.3262
657.40 0.3264
657.50 0.3265
657.60 0.3266
657.70 0.3267
657.80 0.3268
657.90 0.327
658.00 0.3272
658.10 0.3273
658.20 0.3275
658.30 0.3276
658.40 0.3278
658.50 0.3279
658.60 0.328
658.70 0.3282
658.80 0.3283
658.90 0.3285
659.00 0.3286
659.10 0.3287
659.20 0.3289
659.30 0.329
659.40 0.3291
659.50 0.3292
659.60 0.3293
659.70 0.3294
659.80 0.3294
659.90 0.3295
660.00 0.3296
660.10 0.3297
660.20 0.3298
660.30 0.3299
660.40 0.3299
660.50 0.3299
660.60 0.33
660.70 0.33
660.80 0.33
660.90 0.33
661.00 0.3301
661.10 0.3301
661.20 0.3301
661.30 0.3302
661.40 0.3301
661.50 0.3301
661.60 0.3301
661.70 0.3301
661.80 0.3301
661.90 0.33
662.00 0.33
662.10 0.33
662.20 0.33
662.30 0.33
662.40 0.3299
662.50 0.3299
662.60 0.3298
662.70 0.3297
662.80 0.3297
662.90 0.3296
663.00 0.3296
663.10 0.3295
663.20 0.3295
663.30 0.3294
663.40 0.3293
663.50 0.3292
663.60 0.3291
663.70 0.329
663.80 0.3289
663.90 0.3289
664.00 0.3288
664.10 0.3287
664.20 0.3286
664.30 0.3285
664.40 0.3284
664.50 0.3283
664.60 0.3282
664.70 0.3281
664.80 0.3279
664.90 0.3278
665.00 0.3277
665.10 0.3276
665.20 0.3275
665.30 0.3274
665.40 0.3273
665.50 0.3271
665.60 0.327
665.70 0.3269
665.80 0.3267
665.90 0.3266
666.00 0.3265
666.10 0.3264
666.20 0.3262
666.30 0.3261
666.40 0.326
666.50 0.3258
666.60 0.3257
666.70 0.3255
666.80 0.3254
666.90 0.3253
667.00 0.3251
667.10 0.325
667.20 0.3248
667.30 0.3247
667.40 0.3245
667.50 0.3244
667.60 0.3242
667.70 0.3241
667.80 0.3239
667.90 0.3238
668.00 0.3236
668.10 0.3235
668.20 0.3233
668.30 0.3232
668.40 0.323
668.50 0.3229
668.60 0.3227
668.70 0.3226
668.80 0.3224
668.90 0.3222
669.00 0.3221
669.10 0.3219
669.20 0.3218
669.30 0.3216
669.40 0.3215
669.50 0.3213
669.60 0.3211
669.70 0.321
669.80 0.3208
669.90 0.3206
670.00 0.3205
670.10 0.3203
670.20 0.3202
670.30 0.32
670.40 0.3198
670.50 0.3197
670.60 0.3195
670.70 0.3193
670.80 0.3192
670.90 0.319
671.00 0.3188
671.10 0.3187
671.20 0.3185
671.30 0.3183
671.40 0.3182
671.50 0.318
671.60 0.3178
671.70 0.3177
671.80 0.3175
671.90 0.3173
672.00 0.3172
672.10 0.317
672.20 0.3168
672.30 0.3167
672.40 0.3165
672.50 0.3163
672.60 0.3161
672.70 0.316
672.80 0.3158
672.90 0.3156
673.00 0.3155
673.10 0.3153
673.20 0.3151
673.30 0.315
673.40 0.3148
673.50 0.3146
673.60 0.3144
673.70 0.3143
673.80 0.3141
673.90 0.3139
674.00 0.3138
674.10 0.3136
674.20 0.3134
674.30 0.3132
674.40 0.3131
674.50 0.3129
674.60 0.3127
674.70 0.3126
674.80 0.3124
674.90 0.3122
675.00 0.312
675.10 0.3119
675.20 0.3117
675.30 0.3115
675.40 0.3114
675.50 0.3112
675.60 0.311
675.70 0.3108
675.80 0.3107
675.90 0.3105
676.00 0.3103
676.10 0.3102
676.20 0.31
676.30 0.3098
676.40 0.3096
676.50 0.3095
676.60 0.3093
676.70 0.3091
676.80 0.309
676.90 0.3088
677.00 0.3086
677.10 0.3084
677.20 0.3083
677.30 0.3081
677.40 0.3079
677.50 0.3078
677.60 0.3076
677.70 0.3074
677.80 0.3072
677.90 0.3071
678.00 0.3069
678.10 0.3067
678.20 0.3066
678.30 0.3064
678.40 0.3062
678.50 0.306
678.60 0.3059
678.70 0.3057
678.80 0.3055
678.90 0.3054
679.00 0.3052
679.10 0.305
679.20 0.3048
679.30 0.3047
679.40 0.3045
679.50 0.3043
679.60 0.3042
679.70 0.304
679.80 0.3038
679.90 0.3036
680.00 0.3035
680.10 0.3033
680.20 0.3031
680.30 0.303
680.40 0.3028
680.50 0.3026
680.60 0.3025
680.70 0.3023
680.80 0.3021
680.90 0.3019
681.00 0.3018
681.10 0.3016
681.20 0.3014
681.30 0.3013
681.40 0.3011
681.50 0.3009
681.60 0.3008
681.70 0.3006
681.80 0.3004
681.90 0.3003
682.00 0.3001
682.10 0.2999
682.20 0.2997
682.30 0.2996
682.40 0.2994
682.50 0.2992
682.60 0.2991
682.70 0.2989
682.80 0.2987
682.90 0.2986
683.00 0.2984
683.10 0.2982
683.20 0.2981
683.30 0.2979
683.40 0.2977
683.50 0.2976
683.60 0.2974
683.70 0.2972
683.80 0.2971
683.90 0.2969
684.00 0.2967
684.10 0.2966
684.20 0.2964
684.30 0.2962
684.40 0.2961
684.50 0.2959
684.60 0.2957
684.70 0.2956
684.80 0.2954
684.90 0.2952
685.00 0.2951
685.10 0.2949
685.20 0.2947
685.30 0.2946
685.40 0.2944
685.50 0.2942
685.60 0.2941
685.70 0.2939
685.80 0.2937
685.90 0.2936
686.00 0.2934
686.10 0.2932
686.20 0.2931
686.30 0.2929
686.40 0.2927
686.50 0.2926
686.60 0.2924
686.70 0.2922
686.80 0.2921
686.90 0.2919
687.00 0.2918
687.10 0.2916
687.20 0.2914
687.30 0.2913
687.40 0.2911
687.50 0.2909
687.60 0.2908
687.70 0.2906
687.80 0.2904
687.90 0.2903
688.00 0.2901
688.10 0.29
688.20 0.2898
688.30 0.2896
688.40 0.2895
688.50 0.2893
688.60 0.2891
688.70 0.289
688.80 0.2888
688.90 0.2886
689.00 0.2885
689.10 0.2883
689.20 0.2882
689.30 0.288
689.40 0.2878
689.50 0.2877
689.60 0.2875
689.70 0.2874
689.80 0.2872
689.90 0.287
690.00 0.2869
690.10 0.2867
690.20 0.2866
690.30 0.2864
690.40 0.2862
690.50 0.2861
690.60 0.2859
690.70 0.2857
690.80 0.2856
690.90 0.2854
691.00 0.2853
691.10 0.2851
691.20 0.2849
691.30 0.2848
691.40 0.2846
691.50 0.2845
691.60 0.2843
691.70 0.2842
691.80 0.284
691.90 0.2838
692.00 0.2837
692.10 0.2835
692.20 0.2834
692.30 0.2832
692.40 0.283
692.50 0.2829
692.60 0.2827
692.70 0.2826
692.80 0.2824
692.90 0.2822
693.00 0.2821
693.10 0.2819
693.20 0.2818
693.30 0.2816
693.40 0.2815
693.50 0.2813
693.60 0.2811
693.70 0.281
693.80 0.2808
693.90 0.2807
694.00 0.2805
694.10 0.2803
694.20 0.2802
694.30 0.28
694.40 0.2799
694.50 0.2797
694.60 0.2796
694.70 0.2794
694.80 0.2792
694.90 0.2791
695.00 0.2789
695.10 0.2788
695.20 0.2786
695.30 0.2785
695.40 0.2783
695.50 0.2782
695.60 0.278
695.70 0.2778
695.80 0.2777
695.90 0.2775
696.00 0.2774
696.10 0.2772
696.20 0.2771
696.30 0.2769
696.40 0.2768
696.50 0.2766
696.60 0.2765
696.70 0.2763
696.80 0.2761
696.90 0.276
697.00 0.2758
697.10 0.2757
697.20 0.2755
697.30 0.2754
697.40 0.2752
697.50 0.2751
697.60 0.2749
697.70 0.2748
697.80 0.2746
697.90 0.2745
698.00 0.2743
698.10 0.2741
698.20 0.274
698.30 0.2738
698.40 0.2737
698.50 0.2735
698.60 0.2734
698.70 0.2732
698.80 0.2731
698.90 0.2729
699.00 0.2728
699.10 0.2726
699.20 0.2725
699.30 0.2723
699.40 0.2722
699.50 0.272
699.60 0.2719
699.70 0.2717
699.80 0.2716
699.90 0.2714
700.00 0.2713
700.10 0.2711
700.20 0.271
700.30 0.2708
700.40 0.2707
700.50 0.2705
700.60 0.2704
700.70 0.2702
700.80 0.2701
700.90 0.2699
701.00 0.2698
701.10 0.2696
701.20 0.2695
701.30 0.2693
701.40 0.2692
701.50 0.269
701.60 0.2689
701.70 0.2687
701.80 0.2686
701.90 0.2684
702.00 0.2683
702.10 0.2681
702.20 0.268
702.30 0.2678
702.40 0.2677
702.50 0.2675
702.60 0.2674
702.70 0.2672
702.80 0.2671
702.90 0.2669
703.00 0.2668
703.10 0.2666
703.20 0.2665
703.30 0.2663
703.40 0.2662
703.50 0.266
703.60 0.2659
703.70 0.2657
703.80 0.2656
703.90 0.2654
704.00 0.2653
704.10 0.2652
704.20 0.265
704.30 0.2649
704.40 0.2647
704.50 0.2646
704.60 0.2644
704.70 0.2643
704.80 0.2641
704.90 0.264
705.00 0.2638
705.10 0.2637
705.20 0.2635
705.30 0.2634
705.40 0.2633
705.50 0.2631
705.60 0.263
705.70 0.2628
705.80 0.2627
705.90 0.2625
706.00 0.2624
706.10 0.2622
706.20 0.2621
706.30 0.2619
706.40 0.2618
706.50 0.2617
706.60 0.2615
706.70 0.2614
706.80 0.2612
706.90 0.2611
707.00 0.2609
707.10 0.2608
707.20 0.2607
707.30 0.2605
707.40 0.2604
707.50 0.2602
707.60 0.2601
707.70 0.2599
707.80 0.2598
707.90 0.2596
708.00 0.2595
708.10 0.2594
708.20 0.2592
708.30 0.2591
708.40 0.2589
708.50 0.2588
708.60 0.2586
708.70 0.2585
708.80 0.2584
708.90 0.2582
709.00 0.2581
709.10 0.2579
709.20 0.2578
709.30 0.2577
709.40 0.2575
709.50 0.2574
709.60 0.2572
709.70 0.2571
709.80 0.2569
709.90 0.2568
710.00 0.2567
710.10 0.2565
710.20 0.2564
710.30 0.2562
710.40 0.2561
710.50 0.256
710.60 0.2558
710.70 0.2557
710.80 0.2555
710.90 0.2554
711.00 0.2553
711.10 0.2551
711.20 0.255
711.30 0.2548
711.40 0.2547
711.50 0.2546
711.60 0.2544
711.70 0.2543
711.80 0.2541
711.90 0.254
712.00 0.2539
712.10 0.2537
712.20 0.2536
712.30 0.2534
712.40 0.2533
712.50 0.2532
712.60 0.253
712.70 0.2529
712.80 0.2528
712.90 0.2526
713.00 0.2525
713.10 0.2523
713.20 0.2522
713.30 0.2521
713.40 0.2519
713.50 0.2518
713.60 0.2516
713.70 0.2515
713.80 0.2514
713.90 0.2512
714.00 0.2511
714.10 0.251
714.20 0.2508
714.30 0.2507
714.40 0.2505
714.50 0.2504
714.60 0.2503
714.70 0.2501
714.80 0.25
714.90 0.2499
715.00 0.2497
715.10 0.2496
715.20 0.2494
715.30 0.2493
715.40 0.2492
715.50 0.249
715.60 0.2489
715.70 0.2488
715.80 0.2486
715.90 0.2485
716.00 0.2484
716.10 0.2482
716.20 0.2481
716.30 0.248
716.40 0.2478
716.50 0.2477
716.60 0.2476
716.70 0.2474
716.80 0.2473
716.90 0.2472
717.00 0.247
717.10 0.2469
717.20 0.2467
717.30 0.2466
717.40 0.2465
717.50 0.2463
717.60 0.2462
717.70 0.2461
717.80 0.2459
717.90 0.2458
718.00 0.2457
718.10 0.2455
718.20 0.2454
718.30 0.2453
718.40 0.2451
718.50 0.245
718.60 0.2449
718.70 0.2447
718.80 0.2446
718.90 0.2445
719.00 0.2443
719.10 0.2442
719.20 0.2441
719.30 0.2439
719.40 0.2438
719.50 0.2437
719.60 0.2435
719.70 0.2434
719.80 0.2433
719.90 0.2431
720.00 0.243
720.10 0.2429
720.20 0.2428
720.30 0.2426
720.40 0.2425
720.50 0.2424
720.60 0.2422
720.70 0.2421
720.80 0.242
720.90 0.2418
721.00 0.2417
721.10 0.2416
721.20 0.2414
721.30 0.2413
721.40 0.2412
721.50 0.2411
721.60 0.2409
721.70 0.2408
721.80 0.2407
721.90 0.2405
722.00 0.2404
722.10 0.2403
722.20 0.2401
722.30 0.24
722.40 0.2399
722.50 0.2398
722.60 0.2396
722.70 0.2395
722.80 0.2394
722.90 0.2392
723.00 0.2391
723.10 0.239
723.20 0.2388
723.30 0.2387
723.40 0.2386
723.50 0.2385
723.60 0.2383
723.70 0.2382
723.80 0.2381
723.90 0.2379
724.00 0.2378
724.10 0.2377
724.20 0.2376
724.30 0.2374
724.40 0.2373
724.50 0.2372
724.60 0.237
724.70 0.2369
724.80 0.2368
724.90 0.2367
725.00 0.2365
725.10 0.2364
725.20 0.2363
725.30 0.2362
725.40 0.236
725.50 0.2359
725.60 0.2358
725.70 0.2356
725.80 0.2355
725.90 0.2354
726.00 0.2353
726.10 0.2351
726.20 0.235
726.30 0.2349
726.40 0.2348
726.50 0.2346
726.60 0.2345
726.70 0.2344
726.80 0.2343
726.90 0.2341
727.00 0.234
727.10 0.2339
727.20 0.2338
727.30 0.2336
727.40 0.2335
727.50 0.2334
727.60 0.2333
727.70 0.2331
727.80 0.233
727.90 0.2329
728.00 0.2328
728.10 0.2326
728.20 0.2325
728.30 0.2324
728.40 0.2323
728.50 0.2321
728.60 0.232
728.70 0.2319
728.80 0.2318
728.90 0.2316
729.00 0.2315
729.10 0.2314
729.20 0.2313
729.30 0.2311
729.40 0.231
729.50 0.2309
729.60 0.2308
729.70 0.2306
729.80 0.2305
729.90 0.2304
730.00 0.2303
730.10 0.2301
730.20 0.23
730.30 0.2299
730.40 0.2298
730.50 0.2297
730.60 0.2295
730.70 0.2294
730.80 0.2293
730.90 0.2292
731.00 0.229
731.10 0.2289
731.20 0.2288
731.30 0.2287
731.40 0.2286
731.50 0.2284
731.60 0.2283
731.70 0.2282
731.80 0.2281
731.90 0.228
732.00 0.2278
732.10 0.2277
732.20 0.2276
732.30 0.2275
732.40 0.2273
732.50 0.2272
732.60 0.2271
732.70 0.227
732.80 0.2269
732.90 0.2267
733.00 0.2266
733.10 0.2265
733.20 0.2264
733.30 0.2263
733.40 0.2261
733.50 0.226
733.60 0.2259
733.70 0.2258
733.80 0.2257
733.90 0.2255
734.00 0.2254
734.10 0.2253
734.20 0.2252
734.30 0.2251
734.40 0.2249
734.50 0.2248
734.60 0.2247
734.70 0.2246
734.80 0.2245
734.90 0.2243
735.00 0.2242
735.10 0.2241
735.20 0.224
735.30 0.2239
735.40 0.2238
735.50 0.2236
735.60 0.2235
735.70 0.2234
735.80 0.2233
735.90 0.2232
736.00 0.223
736.10 0.2229
736.20 0.2228
736.30 0.2227
736.40 0.2226
736.50 0.2224
736.60 0.2223
736.70 0.2222
736.80 0.2221
736.90 0.222
737.00 0.2219
737.10 0.2217
737.20 0.2216
737.30 0.2215
737.40 0.2214
737.50 0.2213
737.60 0.2211
737.70 0.221
737.80 0.2209
737.90 0.2208
738.00 0.2207
738.10 0.2206
738.20 0.2204
738.30 0.2203
738.40 0.2202
738.50 0.2201
738.60 0.22
738.70 0.2199
738.80 0.2197
738.90 0.2196
739.00 0.2195
739.10 0.2194
739.20 0.2193
739.30 0.2192
739.40 0.219
739.50 0.2189
739.60 0.2188
739.70 0.2187
739.80 0.2186
739.90 0.2185
740.00 0.2183
740.10 0.2182
740.20 0.2181
740.30 0.218
740.40 0.2179
740.50 0.2178
740.60 0.2177
740.70 0.2175
740.80 0.2174
740.90 0.2173
741.00 0.2172
741.10 0.2171
741.20 0.217
741.30 0.2169
741.40 0.2167
741.50 0.2166
741.60 0.2165
741.70 0.2164
741.80 0.2163
741.90 0.2162
742.00 0.2161
742.10 0.2159
742.20 0.2158
742.30 0.2157
742.40 0.2156
742.50 0.2155
742.60 0.2154
742.70 0.2153
742.80 0.2152
742.90 0.215
743.00 0.2149
743.10 0.2148
743.20 0.2147
743.30 0.2146
743.40 0.2145
743.50 0.2144
743.60 0.2143
743.70 0.2141
743.80 0.214
743.90 0.2139
744.00 0.2138
744.10 0.2137
744.20 0.2136
744.30 0.2135
744.40 0.2134
744.50 0.2132
744.60 0.2131
744.70 0.213
744.80 0.2129
744.90 0.2128
745.00 0.2127
745.10 0.2126
745.20 0.2125
745.30 0.2124
745.40 0.2122
745.50 0.2121
745.60 0.212
745.70 0.2119
745.80 0.2118
745.90 0.2117
746.00 0.2116
746.10 0.2115
746.20 0.2114
746.30 0.2112
746.40 0.2111
746.50 0.211
746.60 0.2109
746.70 0.2108
746.80 0.2107
746.90 0.2106
747.00 0.2105
747.10 0.2104
747.20 0.2102
747.30 0.2101
747.40 0.21
747.50 0.2099
747.60 0.2098
747.70 0.2097
747.80 0.2096
747.90 0.2095
748.00 0.2094
748.10 0.2093
748.20 0.2091
748.30 0.209
748.40 0.2089
748.50 0.2088
748.60 0.2087
748.70 0.2086
748.80 0.2085
748.90 0.2084
749.00 0.2083
749.10 0.2082
749.20 0.208
749.30 0.2079
749.40 0.2078
749.50 0.2077
749.60 0.2076
749.70 0.2075
749.80 0.2074
749.90 0.2073
750.00 0.2072
750.10 0.2071
750.20 0.207
750.30 0.2069
750.40 0.2067
750.50 0.2066
750.60 0.2065
750.70 0.2064
750.80 0.2063
750.90 0.2062
751.00 0.2061
751.10 0.206
751.20 0.2059
751.30 0.2058
751.40 0.2057
751.50 0.2056
751.60 0.2055
751.70 0.2054
751.80 0.2053
751.90 0.2051
752.00 0.205
752.10 0.2049
752.20 0.2048
752.30 0.2047
752.40 0.2046
752.50 0.2045
752.60 0.2044
752.70 0.2043
752.80 0.2042
752.90 0.2041
753.00 0.204
753.10 0.2039
753.20 0.2038
753.30 0.2037
753.40 0.2036
753.50 0.2035
753.60 0.2034
753.70 0.2032
753.80 0.2031
753.90 0.203
754.00 0.2029
754.10 0.2028
754.20 0.2027
754.30 0.2026
754.40 0.2025
754.50 0.2024
754.60 0.2023
754.70 0.2022
754.80 0.2021
754.90 0.202
755.00 0.2019
755.10 0.2018
755.20 0.2017
755.30 0.2016
755.40 0.2015
755.50 0.2014
755.60 0.2013
755.70 0.2012
755.80 0.201
755.90 0.2009
756.00 0.2008
756.10 0.2007
756.20 0.2006
756.30 0.2005
756.40 0.2004
756.50 0.2003
756.60 0.2002
756.70 0.2001
756.80 0.2
756.90 0.1999
757.00 0.1998
757.10 0.1997
757.20 0.1996
757.30 0.1995
757.40 0.1994
757.50 0.1993
757.60 0.1992
757.70 0.1991
757.80 0.199
757.90 0.1989
758.00 0.1988
758.10 0.1987
758.20 0.1986
758.30 0.1985
758.40 0.1984
758.50 0.1983
758.60 0.1981
758.70 0.198
758.80 0.1979
758.90 0.1978
759.00 0.1977
759.10 0.1976
759.20 0.1975
759.30 0.1974
759.40 0.1973
759.50 0.1972
759.60 0.1971
759.70 0.197
759.80 0.1969
759.90 0.1968
760.00 0.1967
760.10 0.1966
760.20 0.1965
760.30 0.1964
760.40 0.1963
760.50 0.1962
760.60 0.1961
760.70 0.196
760.80 0.1959
760.90 0.1958
761.00 0.1957
761.10 0.1956
761.20 0.1955
761.30 0.1954
761.40 0.1953
761.50 0.1952
761.60 0.1951
761.70 0.195
761.80 0.1949
761.90 0.1948
762.00 0.1947
762.10 0.1946
762.20 0.1945
762.30 0.1944
762.40 0.1943
762.50 0.1942
762.60 0.1941
762.70 0.194
762.80 0.1939
762.90 0.1938
763.00 0.1937
763.10 0.1936
763.20 0.1935
763.30 0.1934
763.40 0.1933
763.50 0.1932
763.60 0.1931
763.70 0.193
763.80 0.1929
763.90 0.1928
764.00 0.1927
764.10 0.1926
764.20 0.1925
764.30 0.1924
764.40 0.1923
764.50 0.1922
764.60 0.1921
764.70 0.192
764.80 0.1919
764.90 0.1919
765.00 0.1918
765.10 0.1917
765.20 0.1916
765.30 0.1915
765.40 0.1914
765.50 0.1913
765.60 0.1912
765.70 0.1911
765.80 0.191
765.90 0.1909
766.00 0.1908
766.10 0.1907
766.20 0.1906
766.30 0.1905
766.40 0.1904
766.50 0.1903
766.60 0.1902
766.70 0.1901
766.80 0.19
766.90 0.1899
767.00 0.1898
767.10 0.1897
767.20 0.1896
767.30 0.1895
767.40 0.1894
767.50 0.1893
767.60 0.1892
767.70 0.1891
767.80 0.189
767.90 0.1889
768.00 0.1888
768.10 0.1887
768.20 0.1886
768.30 0.1885
768.40 0.1884
768.50 0.1883
768.60 0.1883
768.70 0.1882
768.80 0.1881
768.90 0.188
769.00 0.1879
769.10 0.1878
769.20 0.1877
769.30 0.1876
769.40 0.1875
769.50 0.1874
769.60 0.1873
769.70 0.1872
769.80 0.1871
769.90 0.187
770.00 0.1869
770.10 0.1868
770.20 0.1867
770.30 0.1866
770.40 0.1865
770.50 0.1864
770.60 0.1863
770.70 0.1862
770.80 0.1862
770.90 0.1861
771.00 0.186
771.10 0.1859
771.20 0.1858
771.30 0.1857
771.40 0.1856
771.50 0.1855
771.60 0.1854
771.70 0.1853
771.80 0.1852
771.90 0.1851
772.00 0.185
772.10 0.1849
772.20 0.1848
772.30 0.1848
772.40 0.1847
772.50 0.1846
772.60 0.1845
772.70 0.1844
772.80 0.1843
772.90 0.1842
773.00 0.1841
773.10 0.184
773.20 0.1839
773.30 0.1838
773.40 0.1837
773.50 0.1836
773.60 0.1835
773.70 0.1835
773.80 0.1834
773.90 0.1833
774.00 0.1832
774.10 0.1831
774.20 0.183
774.30 0.1829
774.40 0.1828
774.50 0.1827
774.60 0.1826
774.70 0.1825
774.80 0.1824
774.90 0.1823
775.00 0.1823
775.10 0.1822
775.20 0.1821
775.30 0.182
775.40 0.1819
775.50 0.1818
775.60 0.1817
775.70 0.1816
775.80 0.1815
775.90 0.1814
776.00 0.1813
776.10 0.1812
776.20 0.1812
776.30 0.1811
776.40 0.181
776.50 0.1809
776.60 0.1808
776.70 0.1807
776.80 0.1806
776.90 0.1805
777.00 0.1804
777.10 0.1803
777.20 0.1802
777.30 0.1801
777.40 0.1801
777.50 0.18
777.60 0.1799
777.70 0.1798
777.80 0.1797
777.90 0.1796
778.00 0.1795
778.10 0.1794
778.20 0.1793
778.30 0.1792
778.40 0.1791
778.50 0.1791
778.60 0.179
778.70 0.1789
778.80 0.1788
778.90 0.1787
779.00 0.1786
779.10 0.1785
779.20 0.1784
779.30 0.1783
779.40 0.1782
779.50 0.1782
779.60 0.1781
779.70 0.178
779.80 0.1779
779.90 0.1778
780.00 0.1777
780.10 0.1776
780.20 0.1775
780.30 0.1774
780.40 0.1773
780.50 0.1773
780.60 0.1772
780.70 0.1771
780.80 0.177
780.90 0.1769
781.00 0.1768
781.10 0.1767
781.20 0.1766
781.30 0.1766
781.40 0.1765
781.50 0.1764
781.60 0.1763
781.70 0.1762
781.80 0.1761
781.90 0.176
782.00 0.1759
782.10 0.1759
782.20 0.1758
782.30 0.1757
782.40 0.1756
782.50 0.1755
782.60 0.1754
782.70 0.1753
782.80 0.1752
782.90 0.1752
783.00 0.1751
783.10 0.175
783.20 0.1749
783.30 0.1748
783.40 0.1747
783.50 0.1746
783.60 0.1745
783.70 0.1745
783.80 0.1744
783.90 0.1743
784.00 0.1742
784.10 0.1741
784.20 0.174
784.30 0.1739
784.40 0.1739
784.50 0.1738
784.60 0.1737
784.70 0.1736
784.80 0.1735
784.90 0.1734
785.00 0.1733
785.10 0.1732
785.20 0.1732
785.30 0.1731
785.40 0.173
785.50 0.1729
785.60 0.1728
785.70 0.1727
785.80 0.1726
785.90 0.1726
786.00 0.1725
786.10 0.1724
786.20 0.1723
786.30 0.1722
786.40 0.1721
786.50 0.172
786.60 0.172
786.70 0.1719
786.80 0.1718
786.90 0.1717
787.00 0.1716
787.10 0.1715
787.20 0.1714
787.30 0.1714
787.40 0.1713
787.50 0.1712
787.60 0.1711
787.70 0.171
787.80 0.1709
787.90 0.1708
788.00 0.1708
788.10 0.1707
788.20 0.1706
788.30 0.1705
788.40 0.1704
788.50 0.1703
788.60 0.1702
788.70 0.1702
788.80 0.1701
788.90 0.17
789.00 0.1699
789.10 0.1698
789.20 0.1697
789.30 0.1697
789.40 0.1696
789.50 0.1695
789.60 0.1694
789.70 0.1693
789.80 0.1692
789.90 0.1691
790.00 0.1691
790.10 0.169
790.20 0.1689
790.30 0.1688
790.40 0.1687
790.50 0.1686
790.60 0.1686
790.70 0.1685
790.80 0.1684
790.90 0.1683
791.00 0.1682
791.10 0.1681
791.20 0.1681
791.30 0.168
791.40 0.1679
791.50 0.1678
791.60 0.1677
791.70 0.1677
791.80 0.1676
791.90 0.1675
792.00 0.1674
792.10 0.1673
792.20 0.1672
792.30 0.1672
792.40 0.1671
792.50 0.167
792.60 0.1669
792.70 0.1668
792.80 0.1667
792.90 0.1667
793.00 0.1666
793.10 0.1665
793.20 0.1664
793.30 0.1663
793.40 0.1663
793.50 0.1662
793.60 0.1661
793.70 0.166
793.80 0.1659
793.90 0.1658
794.00 0.1658
794.10 0.1657
794.20 0.1656
794.30 0.1655
794.40 0.1654
794.50 0.1654
794.60 0.1653
794.70 0.1652
794.80 0.1651
794.90 0.165
795.00 0.165
795.10 0.1649
795.20 0.1648
795.30 0.1647
795.40 0.1646
795.50 0.1645
795.60 0.1645
795.70 0.1644
795.80 0.1643
795.90 0.1642
796.00 0.1641
796.10 0.1641
796.20 0.164
796.30 0.1639
796.40 0.1638
796.50 0.1637
796.60 0.1637
796.70 0.1636
796.80 0.1635
796.90 0.1634
797.00 0.1633
797.10 0.1633
797.20 0.1632
797.30 0.1631
797.40 0.163
797.50 0.1629
797.60 0.1629
797.70 0.1628
797.80 0.1627
797.90 0.1626
798.00 0.1625
798.10 0.1625
798.20 0.1624
798.30 0.1623
798.40 0.1622
798.50 0.1621
798.60 0.1621
798.70 0.162
798.80 0.1619
798.90 0.1618
799.00 0.1617
799.10 0.1617
799.20 0.1616
799.30 0.1615
799.40 0.1614
799.50 0.1613
799.60 0.1613
799.70 0.1612
799.80 0.1611
799.90 0.161
800.00 0.1609
800.10 0.1609
800.20 0.1608
800.30 0.1607
800.40 0.1606
800.50 0.1605
800.60 0.1605
800.70 0.1604
800.80 0.1603
800.90 0.1602
801.00 0.1602
801.10 0.1601
801.20 0.16
801.30 0.1599
801.40 0.1598
801.50 0.1598
801.60 0.1597
801.70 0.1596
801.80 0.1595
801.90 0.1595
802.00 0.1594
802.10 0.1593
802.20 0.1592
802.30 0.1591
802.40 0.1591
802.50 0.159
802.60 0.1589
802.70 0.1588
802.80 0.1588
802.90 0.1587
803.00 0.1586
803.10 0.1585
803.20 0.1585
803.30 0.1584
803.40 0.1583
803.50 0.1582
803.60 0.1581
803.70 0.1581
803.80 0.158
803.90 0.1579
804.00 0.1578
804.10 0.1578
804.20 0.1577
804.30 0.1576
804.40 0.1575
804.50 0.1575
804.60 0.1574
804.70 0.1573
804.80 0.1572
804.90 0.1571
805.00 0.1571
805.10 0.157
805.20 0.1569
805.30 0.1568
805.40 0.1568
805.50 0.1567
805.60 0.1566
805.70 0.1565
805.80 0.1565
805.90 0.1564
806.00 0.1563
806.10 0.1562
806.20 0.1562
806.30 0.1561
806.40 0.156
806.50 0.1559
806.60 0.1559
806.70 0.1558
806.80 0.1557
806.90 0.1556
807.00 0.1556
807.10 0.1555
807.20 0.1554
807.30 0.1553
807.40 0.1552
807.50 0.1552
807.60 0.1551
807.70 0.155
807.80 0.1549
807.90 0.1549
808.00 0.1548
808.10 0.1547
808.20 0.1546
808.30 0.1546
808.40 0.1545
808.50 0.1544
808.60 0.1543
808.70 0.1543
808.80 0.1542
808.90 0.1541
809.00 0.154
809.10 0.154
809.20 0.1539
809.30 0.1538
809.40 0.1537
809.50 0.1537
809.60 0.1536
809.70 0.1535
809.80 0.1534
809.90 0.1534
810.00 0.1533
810.10 0.1532
810.20 0.1531
810.30 0.1531
810.40 0.153
810.50 0.1529
810.60 0.1529
810.70 0.1528
810.80 0.1527
810.90 0.1526
811.00 0.1526
811.10 0.1525
811.20 0.1524
811.30 0.1523
811.40 0.1523
811.50 0.1522
811.60 0.1521
811.70 0.1521
811.80 0.152
811.90 0.1519
812.00 0.1518
812.10 0.1518
812.20 0.1517
812.30 0.1516
812.40 0.1515
812.50 0.1515
812.60 0.1514
812.70 0.1513
812.80 0.1512
812.90 0.1512
813.00 0.1511
813.10 0.151
813.20 0.151
813.30 0.1509
813.40 0.1508
813.50 0.1507
813.60 0.1507
813.70 0.1506
813.80 0.1505
813.90 0.1505
814.00 0.1504
814.10 0.1503
814.20 0.1502
814.30 0.1502
814.40 0.1501
814.50 0.15
814.60 0.1499
814.70 0.1499
814.80 0.1498
814.90 0.1497
815.00 0.1497
815.10 0.1496
815.20 0.1495
815.30 0.1494
815.40 0.1494
815.50 0.1493
815.60 0.1492
815.70 0.1492
815.80 0.1491
815.90 0.149
816.00 0.1489
816.10 0.1489
816.20 0.1488
816.30 0.1487
816.40 0.1487
816.50 0.1486
816.60 0.1485
816.70 0.1484
816.80 0.1484
816.90 0.1483
817.00 0.1482
817.10 0.1482
817.20 0.1481
817.30 0.148
817.40 0.1479
817.50 0.1479
817.60 0.1478
817.70 0.1477
817.80 0.1477
817.90 0.1476
818.00 0.1475
818.10 0.1474
818.20 0.1474
818.30 0.1473
818.40 0.1472
818.50 0.1472
818.60 0.1471
818.70 0.147
818.80 0.147
818.90 0.1469
819.00 0.1468
819.10 0.1467
819.20 0.1467
819.30 0.1466
819.40 0.1465
819.50 0.1465
819.60 0.1464
819.70 0.1463
819.80 0.1462
819.90 0.1462
820.00 0.1461
820.10 0.146
820.20 0.146
820.30 0.1459
820.40 0.1458
820.50 0.1458
820.60 0.1457
820.70 0.1456
820.80 0.1455
820.90 0.1455
821.00 0.1454
821.10 0.1453
821.20 0.1453
821.30 0.1452
821.40 0.1451
821.50 0.1451
821.60 0.145
821.70 0.1449
821.80 0.1449
821.90 0.1448
822.00 0.1447
822.10 0.1446
822.20 0.1446
822.30 0.1445
822.40 0.1444
822.50 0.1444
822.60 0.1443
822.70 0.1442
822.80 0.1442
822.90 0.1441
823.00 0.144
823.10 0.144
823.20 0.1439
823.30 0.1438
823.40 0.1438
823.50 0.1437
823.60 0.1436
823.70 0.1436
823.80 0.1435
823.90 0.1434
824.00 0.1433
824.10 0.1433
824.20 0.1432
824.30 0.1431
824.40 0.1431
824.50 0.143
824.60 0.1429
824.70 0.1429
824.80 0.1428
824.90 0.1427
825.00 0.1427
825.10 0.1426
825.20 0.1425
825.30 0.1425
825.40 0.1424
825.50 0.1423
825.60 0.1423
825.70 0.1422
825.80 0.1421
825.90 0.1421
826.00 0.142
826.10 0.1419
826.20 0.1419
826.30 0.1418
826.40 0.1417
826.50 0.1417
826.60 0.1416
826.70 0.1415
826.80 0.1415
826.90 0.1414
827.00 0.1413
827.10 0.1413
827.20 0.1412
827.30 0.1411
827.40 0.1411
827.50 0.141
827.60 0.1409
827.70 0.1409
827.80 0.1408
827.90 0.1407
828.00 0.1407
828.10 0.1406
828.20 0.1405
828.30 0.1405
828.40 0.1404
828.50 0.1403
828.60 0.1403
828.70 0.1402
828.80 0.1401
828.90 0.1401
829.00 0.14
829.10 0.1399
829.20 0.1399
829.30 0.1398
829.40 0.1397
829.50 0.1397
829.60 0.1396
829.70 0.1395
829.80 0.1395
829.90 0.1394
830.00 0.1393
830.10 0.1393
830.20 0.1392
830.30 0.1391
830.40 0.1391
830.50 0.139
830.60 0.1389
830.70 0.1389
830.80 0.1388
830.90 0.1387
831.00 0.1387
831.10 0.1386
831.20 0.1385
831.30 0.1385
831.40 0.1384
831.50 0.1383
831.60 0.1383
831.70 0.1382
831.80 0.1382
831.90 0.1381
832.00 0.138
832.10 0.138
832.20 0.1379
832.30 0.1378
832.40 0.1378
832.50 0.1377
832.60 0.1376
832.70 0.1376
832.80 0.1375
832.90 0.1374
833.00 0.1374
833.10 0.1373
833.20 0.1372
833.30 0.1372
833.40 0.1371
833.50 0.1371
833.60 0.137
833.70 0.1369
833.80 0.1369
833.90 0.1368
834.00 0.1367
834.10 0.1367
834.20 0.1366
834.30 0.1365
834.40 0.1365
834.50 0.1364
834.60 0.1363
834.70 0.1363
834.80 0.1362
834.90 0.1362
835.00 0.1361
835.10 0.136
835.20 0.136
835.30 0.1359
835.40 0.1358
835.50 0.1358
835.60 0.1357
835.70 0.1356
835.80 0.1356
835.90 0.1355
836.00 0.1355
836.10 0.1354
836.20 0.1353
836.30 0.1353
836.40 0.1352
836.50 0.1351
836.60 0.1351
836.70 0.135
836.80 0.1349
836.90 0.1349
837.00 0.1348
837.10 0.1348
837.20 0.1347
837.30 0.1346
837.40 0.1346
837.50 0.1345
837.60 0.1344
837.70 0.1344
837.80 0.1343
837.90 0.1343
838.00 0.1342
838.10 0.1341
838.20 0.1341
838.30 0.134
838.40 0.1339
838.50 0.1339
838.60 0.1338
838.70 0.1338
838.80 0.1337
838.90 0.1336
839.00 0.1336
839.10 0.1335
839.20 0.1334
839.30 0.1334
839.40 0.1333
839.50 0.1333
839.60 0.1332
839.70 0.1331
839.80 0.1331
839.90 0.133
840.00 0.1329
840.10 0.1329
840.20 0.1328
840.30 0.1328
840.40 0.1327
840.50 0.1326
840.60 0.1326
840.70 0.1325
840.80 0.1324
840.90 0.1324
841.00 0.1323
841.10 0.1323
841.20 0.1322
841.30 0.1321
841.40 0.1321
841.50 0.132
841.60 0.132
841.70 0.1319
841.80 0.1318
841.90 0.1318
842.00 0.1317
842.10 0.1316
842.20 0.1316
842.30 0.1315
842.40 0.1315
842.50 0.1314
842.60 0.1313
842.70 0.1313
842.80 0.1312
842.90 0.1312
843.00 0.1311
843.10 0.131
843.20 0.131
843.30 0.1309
843.40 0.1309
843.50 0.1308
843.60 0.1307
843.70 0.1307
843.80 0.1306
843.90 0.1305
844.00 0.1305
844.10 0.1304
844.20 0.1304
844.30 0.1303
844.40 0.1302
844.50 0.1302
844.60 0.1301
844.70 0.1301
844.80 0.13
844.90 0.1299
845.00 0.1299
845.10 0.1298
845.20 0.1298
845.30 0.1297
845.40 0.1296
845.50 0.1296
845.60 0.1295
845.70 0.1295
845.80 0.1294
845.90 0.1293
846.00 0.1293
846.10 0.1292
846.20 0.1292
846.30 0.1291
846.40 0.129
846.50 0.129
846.60 0.1289
846.70 0.1289
846.80 0.1288
846.90 0.1287
847.00 0.1287
847.10 0.1286
847.20 0.1286
847.30 0.1285
847.40 0.1284
847.50 0.1284
847.60 0.1283
847.70 0.1283
847.80 0.1282
847.90 0.1281
848.00 0.1281
848.10 0.128
848.20 0.128
848.30 0.1279
848.40 0.1279
848.50 0.1278
848.60 0.1277
848.70 0.1277
848.80 0.1276
848.90 0.1276
849.00 0.1275
849.10 0.1274
849.20 0.1274
849.30 0.1273
849.40 0.1273
849.50 0.1272
849.60 0.1271
849.70 0.1271
849.80 0.127
849.90 0.127
850.00 0.1269
850.10 0.1269
850.20 0.1268
850.30 0.1267
850.40 0.1267
850.50 0.1266
850.60 0.1266
850.70 0.1265
850.80 0.1264
850.90 0.1264
851.00 0.1263
851.10 0.1263
851.20 0.1262
851.30 0.1261
851.40 0.1261
851.50 0.126
851.60 0.126
851.70 0.1259
851.80 0.1259
851.90 0.1258
852.00 0.1257
852.10 0.1257
852.20 0.1256
852.30 0.1256
852.40 0.1255
852.50 0.1255
852.60 0.1254
852.70 0.1253
852.80 0.1253
852.90 0.1252
853.00 0.1252
853.10 0.1251
853.20 0.1251
853.30 0.125
853.40 0.1249
853.50 0.1249
853.60 0.1248
853.70 0.1248
853.80 0.1247
853.90 0.1246
854.00 0.1246
854.10 0.1245
854.20 0.1245
854.30 0.1244
854.40 0.1244
854.50 0.1243
854.60 0.1242
854.70 0.1242
854.80 0.1241
854.90 0.1241
855.00 0.124
855.10 0.124
855.20 0.1239
855.30 0.1238
855.40 0.1238
855.50 0.1237
855.60 0.1237
855.70 0.1236
855.80 0.1236
855.90 0.1235
856.00 0.1235
856.10 0.1234
856.20 0.1233
856.30 0.1233
856.40 0.1232
856.50 0.1232
856.60 0.1231
856.70 0.1231
856.80 0.123
856.90 0.1229
857.00 0.1229
857.10 0.1228
857.20 0.1228
857.30 0.1227
857.40 0.1227
857.50 0.1226
857.60 0.1226
857.70 0.1225
857.80 0.1224
857.90 0.1224
858.00 0.1223
858.10 0.1223
858.20 0.1222
858.30 0.1222
858.40 0.1221
858.50 0.1221
858.60 0.122
858.70 0.1219
858.80 0.1219
858.90 0.1218
859.00 0.1218
859.10 0.1217
859.20 0.1217
859.30 0.1216
859.40 0.1216
859.50 0.1215
859.60 0.1214
859.70 0.1214
859.80 0.1213
859.90 0.1213
860.00 0.1212
860.10 0.1212
860.20 0.1211
860.30 0.1211
860.40 0.121
860.50 0.1209
860.60 0.1209
860.70 0.1208
860.80 0.1208
860.90 0.1207
861.00 0.1207
861.10 0.1206
861.20 0.1206
861.30 0.1205
861.40 0.1205
861.50 0.1204
861.60 0.1203
861.70 0.1203
861.80 0.1202
861.90 0.1202
862.00 0.1201
862.10 0.1201
862.20 0.12
862.30 0.12
862.40 0.1199
862.50 0.1199
862.60 0.1198
862.70 0.1197
862.80 0.1197
862.90 0.1196
863.00 0.1196
863.10 0.1195
863.20 0.1195
863.30 0.1194
863.40 0.1194
863.50 0.1193
863.60 0.1193
863.70 0.1192
863.80 0.1191
863.90 0.1191
864.00 0.119
864.10 0.119
864.20 0.1189
864.30 0.1189
864.40 0.1188
864.50 0.1188
864.60 0.1187
864.70 0.1187
864.80 0.1186
864.90 0.1186
865.00 0.1185
865.10 0.1184
865.20 0.1184
865.30 0.1183
865.40 0.1183
865.50 0.1182
865.60 0.1182
865.70 0.1181
865.80 0.1181
865.90 0.118
866.00 0.118
866.10 0.1179
866.20 0.1179
866.30 0.1178
866.40 0.1177
866.50 0.1177
866.60 0.1176
866.70 0.1176
866.80 0.1175
866.90 0.1175
867.00 0.1174
867.10 0.1174
867.20 0.1173
867.30 0.1173
867.40 0.1172
867.50 0.1172
867.60 0.1171
867.70 0.1171
867.80 0.117
867.90 0.1169
868.00 0.1169
868.10 0.1168
868.20 0.1168
868.30 0.1167
868.40 0.1167
868.50 0.1166
868.60 0.1166
868.70 0.1165
868.80 0.1165
868.90 0.1164
869.00 0.1164
869.10 0.1163
869.20 0.1163
869.30 0.1162
869.40 0.1162
869.50 0.1161
869.60 0.1161
869.70 0.116
869.80 0.116
869.90 0.1159
870.00 0.1158
870.10 0.1158
870.20 0.1157
870.30 0.1157
870.40 0.1156
870.50 0.1156
870.60 0.1155
870.70 0.1155
870.80 0.1154
870.90 0.1154
871.00 0.1153
871.10 0.1153
871.20 0.1152
871.30 0.1152
871.40 0.1151
871.50 0.1151
871.60 0.115
871.70 0.115
871.80 0.1149
871.90 0.1149
872.00 0.1148
872.10 0.1148
872.20 0.1147
872.30 0.1147
872.40 0.1146
872.50 0.1145
872.60 0.1145
872.70 0.1144
872.80 0.1144
872.90 0.1143
873.00 0.1143
873.10 0.1142
873.20 0.1142
873.30 0.1141
873.40 0.1141
873.50 0.114
873.60 0.114
873.70 0.1139
873.80 0.1139
873.90 0.1138
874.00 0.1138
874.10 0.1137
874.20 0.1137
874.30 0.1136
874.40 0.1136
874.50 0.1135
874.60 0.1135
874.70 0.1134
874.80 0.1134
874.90 0.1133
875.00 0.1133
875.10 0.1132
875.20 0.1132
875.30 0.1131
875.40 0.1131
875.50 0.113
875.60 0.113
875.70 0.1129
875.80 0.1129
875.90 0.1128
876.00 0.1128
876.10 0.1127
876.20 0.1127
876.30 0.1126
876.40 0.1126
876.50 0.1125
876.60 0.1125
876.70 0.1124
876.80 0.1124
876.90 0.1123
877.00 0.1123
877.10 0.1122
877.20 0.1122
877.30 0.1121
877.40 0.1121
877.50 0.112
877.60 0.112
877.70 0.1119
877.80 0.1119
877.90 0.1118
878.00 0.1118
878.10 0.1117
878.20 0.1117
878.30 0.1116
878.40 0.1116
878.50 0.1115
878.60 0.1115
878.70 0.1114
878.80 0.1114
878.90 0.1113
879.00 0.1113
879.10 0.1112
879.20 0.1112
879.30 0.1111
879.40 0.1111
879.50 0.111
879.60 0.111
879.70 0.1109
879.80 0.1109
879.90 0.1108
880.00 0.1108
880.10 0.1107
880.20 0.1107
880.30 0.1106
880.40 0.1106
880.50 0.1105
880.60 0.1105
880.70 0.1104
880.80 0.1104
880.90 0.1103
881.00 0.1103
881.10 0.1102
881.20 0.1102
881.30 0.1101
881.40 0.1101
881.50 0.11
881.60 0.11
881.70 0.1099
881.80 0.1099
881.90 0.1098
882.00 0.1098
882.10 0.1097
882.20 0.1097
882.30 0.1096
882.40 0.1096
882.50 0.1095
882.60 0.1095
882.70 0.1094
882.80 0.1094
882.90 0.1093
883.00 0.1093
883.10 0.1092
883.20 0.1092
883.30 0.1091
883.40 0.1091
883.50 0.1091
883.60 0.109
883.70 0.109
883.80 0.1089
883.90 0.1089
884.00 0.1088
884.10 0.1088
884.20 0.1087
884.30 0.1087
884.40 0.1086
884.50 0.1086
884.60 0.1085
884.70 0.1085
884.80 0.1084
884.90 0.1084
885.00 0.1083
885.10 0.1083
885.20 0.1082
885.30 0.1082
885.40 0.1081
885.50 0.1081
885.60 0.108
885.70 0.108
885.80 0.1079
885.90 0.1079
886.00 0.1078
886.10 0.1078
886.20 0.1078
886.30 0.1077
886.40 0.1077
886.50 0.1076
886.60 0.1076
886.70 0.1075
886.80 0.1075
886.90 0.1074
887.00 0.1074
887.10 0.1073
887.20 0.1073
887.30 0.1072
887.40 0.1072
887.50 0.1071
887.60 0.1071
887.70 0.107
887.80 0.107
887.90 0.1069
888.00 0.1069
888.10 0.1068
888.20 0.1068
888.30 0.1068
888.40 0.1067
888.50 0.1067
888.60 0.1066
888.70 0.1066
888.80 0.1065
888.90 0.1065
889.00 0.1064
889.10 0.1064
889.20 0.1063
889.30 0.1063
889.40 0.1062
889.50 0.1062
889.60 0.1061
889.70 0.1061
889.80 0.1061
889.90 0.106
890.00 0.106
890.10 0.1059
890.20 0.1059
890.30 0.1058
890.40 0.1058
890.50 0.1057
890.60 0.1057
890.70 0.1056
890.80 0.1056
890.90 0.1055
891.00 0.1055
891.10 0.1054
891.20 0.1054
891.30 0.1054
891.40 0.1053
891.50 0.1053
891.60 0.1052
891.70 0.1052
891.80 0.1051
891.90 0.1051
892.00 0.105
892.10 0.105
892.20 0.1049
892.30 0.1049
892.40 0.1048
892.50 0.1048
892.60 0.1048
892.70 0.1047
892.80 0.1047
892.90 0.1046
893.00 0.1046
893.10 0.1045
893.20 0.1045
893.30 0.1044
893.40 0.1044
893.50 0.1043
893.60 0.1043
893.70 0.1042
893.80 0.1042
893.90 0.1042
894.00 0.1041
894.10 0.1041
894.20 0.104
894.30 0.104
894.40 0.1039
894.50 0.1039
894.60 0.1038
894.70 0.1038
894.80 0.1037
894.90 0.1037
895.00 0.1037
895.10 0.1036
895.20 0.1036
895.30 0.1035
895.40 0.1035
895.50 0.1034
895.60 0.1034
895.70 0.1033
895.80 0.1033
895.90 0.1032
896.00 0.1032
896.10 0.1032
896.20 0.1031
896.30 0.1031
896.40 0.103
896.50 0.103
896.60 0.1029
896.70 0.1029
896.80 0.1028
896.90 0.1028
897.00 0.1027
897.10 0.1027
897.20 0.1027
897.30 0.1026
897.40 0.1026
897.50 0.1025
897.60 0.1025
897.70 0.1024
897.80 0.1024
897.90 0.1023
898.00 0.1023
898.10 0.1023
898.20 0.1022
898.30 0.1022
898.40 0.1021
898.50 0.1021
898.60 0.102
898.70 0.102
898.80 0.1019
898.90 0.1019
899.00 0.1019
899.10 0.1018
899.20 0.1018
899.30 0.1017
899.40 0.1017
899.50 0.1016
899.60 0.1016
899.70 0.1015
899.80 0.1015
899.90 0.1015
900.00 0.1014
900.10 0.1014
900.20 0.1013
900.30 0.1013
900.40 0.1012
900.50 0.1012
900.60 0.1011
900.70 0.1011
900.80 0.1011
900.90 0.101
901.00 0.101
901.10 0.1009
901.20 0.1009
901.30 0.1008
901.40 0.1008
901.50 0.1008
901.60 0.1007
901.70 0.1007
901.80 0.1006
901.90 0.1006
902.00 0.1005
902.10 0.1005
902.20 0.1004
902.30 0.1004
902.40 0.1004
902.50 0.1003
902.60 0.1003
902.70 0.1002
902.80 0.1002
902.90 0.1001
903.00 0.1001
903.10 0.1001
903.20 0.1
903.30 0.09997
903.40 0.09992
903.50 0.09988
903.60 0.09984
903.70 0.09979
903.80 0.09975
903.90 0.09971
904.00 0.09966
904.10 0.09962
904.20 0.09958
904.30 0.09953
904.40 0.09949
904.50 0.09945
904.60 0.0994
904.70 0.09936
904.80 0.09932
904.90 0.09927
905.00 0.09923
905.10 0.09919
905.20 0.09915
905.30 0.0991
905.40 0.09906
905.50 0.09902
905.60 0.09897
905.70 0.09893
905.80 0.09889
905.90 0.09884
906.00 0.0988
906.10 0.09876
906.20 0.09872
906.30 0.09867
906.40 0.09863
906.50 0.09859
906.60 0.09854
906.70 0.0985
906.80 0.09846
906.90 0.09842
907.00 0.09837
907.10 0.09833
907.20 0.09829
907.30 0.09825
907.40 0.0982
907.50 0.09816
907.60 0.09812
907.70 0.09808
907.80 0.09804
907.90 0.09799
908.00 0.09795
908.10 0.09791
908.20 0.09787
908.30 0.09782
908.40 0.09778
908.50 0.09774
908.60 0.0977
908.70 0.09766
908.80 0.09761
908.90 0.09757
909.00 0.09753
909.10 0.09749
909.20 0.09745
909.30 0.0974
909.40 0.09736
909.50 0.09732
909.60 0.09728
909.70 0.09724
909.80 0.09719
909.90 0.09715
910.00 0.09711
910.10 0.09707
910.20 0.09703
910.30 0.09698
910.40 0.09694
910.50 0.0969
910.60 0.09686
910.70 0.09682
910.80 0.09678
910.90 0.09673
911.00 0.09669
911.10 0.09665
911.20 0.09661
911.30 0.09657
911.40 0.09652
911.50 0.09648
911.60 0.09644
911.70 0.0964
911.80 0.09636
911.90 0.09632
912.00 0.09628
912.10 0.09623
912.20 0.09619
912.30 0.09615
912.40 0.09611
912.50 0.09607
912.60 0.09603
912.70 0.09599
912.80 0.09595
912.90 0.0959
913.00 0.09586
913.10 0.09582
913.20 0.09578
913.30 0.09574
913.40 0.0957
913.50 0.09566
913.60 0.09562
913.70 0.09558
913.80 0.09554
913.90 0.09549
914.00 0.09545
914.10 0.09541
914.20 0.09537
914.30 0.09533
914.40 0.09529
914.50 0.09525
914.60 0.09521
914.70 0.09517
914.80 0.09513
914.90 0.09509
915.00 0.09505
915.10 0.095
915.20 0.09496
915.30 0.09492
915.40 0.09488
915.50 0.09484
915.60 0.0948
915.70 0.09476
915.80 0.09472
915.90 0.09468
916.00 0.09464
916.10 0.0946
916.20 0.09456
916.30 0.09452
916.40 0.09448
916.50 0.09444
916.60 0.0944
916.70 0.09435
916.80 0.09431
916.90 0.09427
917.00 0.09423
917.10 0.09419
917.20 0.09415
917.30 0.09411
917.40 0.09407
917.50 0.09403
917.60 0.09399
917.70 0.09395
917.80 0.09391
917.90 0.09387
918.00 0.09383
918.10 0.09379
918.20 0.09375
918.30 0.09371
918.40 0.09367
918.50 0.09363
918.60 0.09359
918.70 0.09355
918.80 0.09351
918.90 0.09347
919.00 0.09343
919.10 0.09339
919.20 0.09336
919.30 0.09332
919.40 0.09328
919.50 0.09324
919.60 0.0932
919.70 0.09316
919.80 0.09312
919.90 0.09308
920.00 0.09304
920.10 0.093
920.20 0.09296
920.30 0.09292
920.40 0.09288
920.50 0.09284
920.60 0.0928
920.70 0.09276
920.80 0.09272
920.90 0.09268
921.00 0.09264
921.10 0.0926
921.20 0.09256
921.30 0.09252
921.40 0.09248
921.50 0.09244
921.60 0.09241
921.70 0.09237
921.80 0.09233
921.90 0.09229
922.00 0.09225
922.10 0.09221
922.20 0.09217
922.30 0.09213
922.40 0.09209
922.50 0.09205
922.60 0.09201
922.70 0.09197
922.80 0.09194
922.90 0.0919
923.00 0.09186
923.10 0.09182
923.20 0.09178
923.30 0.09174
923.40 0.0917
923.50 0.09166
923.60 0.09162
923.70 0.09158
923.80 0.09155
923.90 0.09151
924.00 0.09147
924.10 0.09143
924.20 0.09139
924.30 0.09135
924.40 0.09131
924.50 0.09127
924.60 0.09124
924.70 0.0912
924.80 0.09116
924.90 0.09112
925.00 0.09108
925.10 0.09104
925.20 0.091
925.30 0.09096
925.40 0.09093
925.50 0.09089
925.60 0.09085
925.70 0.09081
925.80 0.09077
925.90 0.09073
926.00 0.09069
926.10 0.09066
926.20 0.09062
926.30 0.09058
926.40 0.09054
926.50 0.0905
926.60 0.09046
926.70 0.09043
926.80 0.09039
926.90 0.09035
927.00 0.09031
927.10 0.09027
927.20 0.09023
927.30 0.0902
927.40 0.09016
927.50 0.09012
927.60 0.09008
927.70 0.09004
927.80 0.09001
927.90 0.08997
928.00 0.08993
928.10 0.08989
928.20 0.08985
928.30 0.08982
928.40 0.08978
928.50 0.08974
928.60 0.0897
928.70 0.08967
928.80 0.08963
928.90 0.08959
929.00 0.08955
929.10 0.08951
929.20 0.08948
929.30 0.08944
929.40 0.0894
929.50 0.08936
929.60 0.08933
929.70 0.08929
929.80 0.08925
929.90 0.08921
930.00 0.08917
930.10 0.08914
930.20 0.0891
930.30 0.08906
930.40 0.08902
930.50 0.08899
930.60 0.08895
930.70 0.08891
930.80 0.08887
930.90 0.08884
931.00 0.0888
931.10 0.08876
931.20 0.08872
931.30 0.08869
931.40 0.08865
931.50 0.08861
931.60 0.08857
931.70 0.08854
931.80 0.0885
931.90 0.08846
932.00 0.08842
932.10 0.08839
932.20 0.08835
932.30 0.08831
932.40 0.08828
932.50 0.08824
932.60 0.0882
932.70 0.08816
932.80 0.08813
932.90 0.08809
933.00 0.08805
933.10 0.08802
933.20 0.08798
933.30 0.08794
933.40 0.08791
933.50 0.08787
933.60 0.08783
933.70 0.08779
933.80 0.08776
933.90 0.08772
934.00 0.08768
934.10 0.08765
934.20 0.08761
934.30 0.08757
934.40 0.08754
934.50 0.0875
934.60 0.08746
934.70 0.08743
934.80 0.08739
934.90 0.08735
935.00 0.08732
935.10 0.08728
935.20 0.08724
935.30 0.08721
935.40 0.08717
935.50 0.08713
935.60 0.0871
935.70 0.08706
935.80 0.08703
935.90 0.08699
936.00 0.08695
936.10 0.08692
936.20 0.08688
936.30 0.08684
936.40 0.08681
936.50 0.08677
936.60 0.08673
936.70 0.0867
936.80 0.08666
936.90 0.08662
937.00 0.08659
937.10 0.08655
937.20 0.08652
937.30 0.08648
937.40 0.08644
937.50 0.08641
937.60 0.08637
937.70 0.08634
937.80 0.0863
937.90 0.08626
938.00 0.08623
938.10 0.08619
938.20 0.08616
938.30 0.08612
938.40 0.08608
938.50 0.08605
938.60 0.08601
938.70 0.08598
938.80 0.08594
938.90 0.0859
939.00 0.08587
939.10 0.08583
939.20 0.0858
939.30 0.08576
939.40 0.08572
939.50 0.08569
939.60 0.08565
939.70 0.08562
939.80 0.08558
939.90 0.08555
940.00 0.08551
940.10 0.08547
940.20 0.08544
940.30 0.0854
940.40 0.08537
940.50 0.08533
940.60 0.0853
940.70 0.08526
940.80 0.08523
940.90 0.08519
941.00 0.08515
941.10 0.08512
941.20 0.08508
941.30 0.08505
941.40 0.08501
941.50 0.08498
941.60 0.08494
941.70 0.08491
941.80 0.08487
941.90 0.08484
942.00 0.0848
942.10 0.08477
942.20 0.08473
942.30 0.0847
942.40 0.08466
942.50 0.08462
942.60 0.08459
942.70 0.08455
942.80 0.08452
942.90 0.08448
943.00 0.08445
943.10 0.08441
943.20 0.08438
943.30 0.08434
943.40 0.08431
943.50 0.08427
943.60 0.08424
943.70 0.0842
943.80 0.08417
943.90 0.08413
944.00 0.0841
944.10 0.08406
944.20 0.08403
944.30 0.08399
944.40 0.08396
944.50 0.08392
944.60 0.08389
944.70 0.08386
944.80 0.08382
944.90 0.08379
945.00 0.08375
945.10 0.08372
945.20 0.08368
945.30 0.08365
945.40 0.08361
945.50 0.08358
945.60 0.08354
945.70 0.08351
945.80 0.08347
945.90 0.08344
946.00 0.08341
946.10 0.08337
946.20 0.08334
946.30 0.0833
946.40 0.08327
946.50 0.08323
946.60 0.0832
946.70 0.08316
946.80 0.08313
946.90 0.08309
947.00 0.08306
947.10 0.08303
947.20 0.08299
947.30 0.08296
947.40 0.08292
947.50 0.08289
947.60 0.08285
947.70 0.08282
947.80 0.08279
947.90 0.08275
948.00 0.08272
948.10 0.08268
948.20 0.08265
948.30 0.08262
948.40 0.08258
948.50 0.08255
948.60 0.08251
948.70 0.08248
948.80 0.08245
948.90 0.08241
949.00 0.08238
949.10 0.08234
949.20 0.08231
949.30 0.08228
949.40 0.08224
949.50 0.08221
949.60 0.08217
949.70 0.08214
949.80 0.08211
949.90 0.08207
950.00 0.08204
950.10 0.08201
950.20 0.08197
950.30 0.08194
950.40 0.0819
950.50 0.08187
950.60 0.08184
950.70 0.0818
950.80 0.08177
950.90 0.08174
951.00 0.0817
951.10 0.08167
951.20 0.08164
951.30 0.0816
951.40 0.08157
951.50 0.08153
951.60 0.0815
951.70 0.08147
951.80 0.08143
951.90 0.0814
952.00 0.08137
952.10 0.08133
952.20 0.0813
952.30 0.08127
952.40 0.08123
952.50 0.0812
952.60 0.08117
952.70 0.08113
952.80 0.0811
952.90 0.08107
953.00 0.08103
953.10 0.081
953.20 0.08097
953.30 0.08094
953.40 0.0809
953.50 0.08087
953.60 0.08084
953.70 0.0808
953.80 0.08077
953.90 0.08074
954.00 0.0807
954.10 0.08067
954.20 0.08064
954.30 0.0806
954.40 0.08057
954.50 0.08054
954.60 0.08051
954.70 0.08047
954.80 0.08044
954.90 0.08041
955.00 0.08037
955.10 0.08034
955.20 0.08031
955.30 0.08027
955.40 0.08024
955.50 0.08021
955.60 0.08018
955.70 0.08014
955.80 0.08011
955.90 0.08008
956.00 0.08004
956.10 0.08001
956.20 0.07998
956.30 0.07994
956.40 0.07991
956.50 0.07988
956.60 0.07985
956.70 0.07981
956.80 0.07978
956.90 0.07975
957.00 0.07971
957.10 0.07968
957.20 0.07965
957.30 0.07962
957.40 0.07958
957.50 0.07955
957.60 0.07952
957.70 0.07949
957.80 0.07945
957.90 0.07942
958.00 0.07939
958.10 0.07936
958.20 0.07932
958.30 0.07929
958.40 0.07926
958.50 0.07923
958.60 0.07919
958.70 0.07916
958.80 0.07913
958.90 0.0791
959.00 0.07906
959.10 0.07903
959.20 0.079
959.30 0.07897
959.40 0.07893
959.50 0.0789
959.60 0.07887
959.70 0.07884
959.80 0.07881
959.90 0.07877
960.00 0.07874
960.10 0.07871
960.20 0.07868
960.30 0.07864
960.40 0.07861
960.50 0.07858
960.60 0.07855
960.70 0.07852
960.80 0.07848
960.90 0.07845
961.00 0.07842
961.10 0.07839
961.20 0.07836
961.30 0.07832
961.40 0.07829
961.50 0.07826
961.60 0.07823
961.70 0.0782
961.80 0.07816
961.90 0.07813
962.00 0.0781
962.10 0.07807
962.20 0.07804
962.30 0.07801
962.40 0.07797
962.50 0.07794
962.60 0.07791
962.70 0.07788
962.80 0.07785
962.90 0.07781
963.00 0.07778
963.10 0.07775
963.20 0.07772
963.30 0.07769
963.40 0.07766
963.50 0.07762
963.60 0.07759
963.70 0.07756
963.80 0.07753
963.90 0.0775
964.00 0.07747
964.10 0.07744
964.20 0.0774
964.30 0.07737
964.40 0.07734
964.50 0.07731
964.60 0.07728
964.70 0.07725
964.80 0.07722
964.90 0.07718
965.00 0.07715
965.10 0.07712
965.20 0.07709
965.30 0.07706
965.40 0.07703
965.50 0.077
965.60 0.07697
965.70 0.07693
965.80 0.0769
965.90 0.07687
966.00 0.07684
966.10 0.07681
966.20 0.07678
966.30 0.07675
966.40 0.07672
966.50 0.07668
966.60 0.07665
966.70 0.07662
966.80 0.07659
966.90 0.07656
967.00 0.07653
967.10 0.0765
967.20 0.07647
967.30 0.07644
967.40 0.07641
967.50 0.07637
967.60 0.07634
967.70 0.07631
967.80 0.07628
967.90 0.07625
968.00 0.07622
968.10 0.07619
968.20 0.07616
968.30 0.07613
968.40 0.0761
968.50 0.07607
968.60 0.07603
968.70 0.076
968.80 0.07597
968.90 0.07594
969.00 0.07591
969.10 0.07588
969.20 0.07585
969.30 0.07582
969.40 0.07579
969.50 0.07576
969.60 0.07573
969.70 0.0757
969.80 0.07567
969.90 0.07564
970.00 0.0756
970.10 0.07557
970.20 0.07554
970.30 0.07551
970.40 0.07548
970.50 0.07545
970.60 0.07542
970.70 0.07539
970.80 0.07536
970.90 0.07533
971.00 0.0753
971.10 0.07527
971.20 0.07524
971.30 0.07521
971.40 0.07518
971.50 0.07515
971.60 0.07512
971.70 0.07509
971.80 0.07506
971.90 0.07503
972.00 0.075
972.10 0.07497
972.20 0.07494
972.30 0.07491
972.40 0.07488
972.50 0.07485
972.60 0.07482
972.70 0.07478
972.80 0.07475
972.90 0.07472
973.00 0.07469
973.10 0.07466
973.20 0.07463
973.30 0.0746
973.40 0.07457
973.50 0.07454
973.60 0.07451
973.70 0.07448
973.80 0.07445
973.90 0.07442
974.00 0.07439
974.10 0.07436
974.20 0.07433
974.30 0.0743
974.40 0.07427
974.50 0.07424
974.60 0.07421
974.70 0.07418
974.80 0.07415
974.90 0.07412
975.00 0.0741
975.10 0.07407
975.20 0.07404
975.30 0.07401
975.40 0.07398
975.50 0.07395
975.60 0.07392
975.70 0.07389
975.80 0.07386
975.90 0.07383
976.00 0.0738
976.10 0.07377
976.20 0.07374
976.30 0.07371
976.40 0.07368
976.50 0.07365
976.60 0.07362
976.70 0.07359
976.80 0.07356
976.90 0.07353
977.00 0.0735
977.10 0.07347
977.20 0.07344
977.30 0.07341
977.40 0.07338
977.50 0.07335
977.60 0.07332
977.70 0.0733
977.80 0.07327
977.90 0.07324
978.00 0.07321
978.10 0.07318
978.20 0.07315
978.30 0.07312
978.40 0.07309
978.50 0.07306
978.60 0.07303
978.70 0.073
978.80 0.07297
978.90 0.07294
979.00 0.07291
979.10 0.07288
979.20 0.07286
979.30 0.07283
979.40 0.0728
979.50 0.07277
979.60 0.07274
979.70 0.07271
979.80 0.07268
979.90 0.07265
980.00 0.07262
980.10 0.07259
980.20 0.07256
980.30 0.07253
980.40 0.07251
980.50 0.07248
980.60 0.07245
980.70 0.07242
980.80 0.07239
980.90 0.07236
981.00 0.07233
981.10 0.0723
981.20 0.07227
981.30 0.07224
981.40 0.07222
981.50 0.07219
981.60 0.07216
981.70 0.07213
981.80 0.0721
981.90 0.07207
982.00 0.07204
982.10 0.07201
982.20 0.07198
982.30 0.07195
982.40 0.07193
982.50 0.0719
982.60 0.07187
982.70 0.07184
982.80 0.07181
982.90 0.07178
983.00 0.07175
983.10 0.07173
983.20 0.0717
983.30 0.07167
983.40 0.07164
983.50 0.07161
983.60 0.07158
983.70 0.07155
983.80 0.07152
983.90 0.0715
984.00 0.07147
984.10 0.07144
984.20 0.07141
984.30 0.07138
984.40 0.07135
984.50 0.07132
984.60 0.0713
984.70 0.07127
984.80 0.07124
984.90 0.07121
985.00 0.07118
985.10 0.07115
985.20 0.07113
985.30 0.0711
985.40 0.07107
985.50 0.07104
985.60 0.07101
985.70 0.07098
985.80 0.07096
985.90 0.07093
986.00 0.0709
986.10 0.07087
986.20 0.07084
986.30 0.07081
986.40 0.07079
986.50 0.07076
986.60 0.07073
986.70 0.0707
986.80 0.07067
986.90 0.07064
987.00 0.07062
987.10 0.07059
987.20 0.07056
987.30 0.07053
987.40 0.0705
987.50 0.07048
987.60 0.07045
987.70 0.07042
987.80 0.07039
987.90 0.07036
988.00 0.07034
988.10 0.07031
988.20 0.07028
988.30 0.07025
988.40 0.07022
988.50 0.0702
988.60 0.07017
988.70 0.07014
988.80 0.07011
988.90 0.07008
989.00 0.07006
989.10 0.07003
989.20 0.07
989.30 0.06997
989.40 0.06994
989.50 0.06992
989.60 0.06989
989.70 0.06986
989.80 0.06983
989.90 0.06981
990.00 0.06978
990.10 0.06975
990.20 0.06972
990.30 0.06969
990.40 0.06967
990.50 0.06964
990.60 0.06961
990.70 0.06958
990.80 0.06956
990.90 0.06953
991.00 0.0695
991.10 0.06947
991.20 0.06945
991.30 0.06942
991.40 0.06939
991.50 0.06936
991.60 0.06934
991.70 0.06931
991.80 0.06928
991.90 0.06925
992.00 0.06922
992.10 0.0692
992.20 0.06917
992.30 0.06914
992.40 0.06912
992.50 0.06909
992.60 0.06906
992.70 0.06903
992.80 0.06901
992.90 0.06898
993.00 0.06895
993.10 0.06892
993.20 0.0689
993.30 0.06887
993.40 0.06884
993.50 0.06882
993.60 0.06879
993.70 0.06876
993.80 0.06873
993.90 0.06871
994.00 0.06868
994.10 0.06865
994.20 0.06862
994.30 0.0686
994.40 0.06857
994.50 0.06854
994.60 0.06852
994.70 0.06849
994.80 0.06846
994.90 0.06844
995.00 0.06841
995.10 0.06838
995.20 0.06835
995.30 0.06833
995.40 0.0683
995.50 0.06827
995.60 0.06825
995.70 0.06822
995.80 0.06819
995.90 0.06817
996.00 0.06814
996.10 0.06811
996.20 0.06809
996.30 0.06806
996.40 0.06803
996.50 0.068
996.60 0.06798
996.70 0.06795
996.80 0.06792
996.90 0.0679
997.00 0.06787
997.10 0.06784
997.20 0.06782
997.30 0.06779
997.40 0.06776
997.50 0.06774
997.60 0.06771
997.70 0.06768
997.80 0.06766
997.90 0.06763
998.00 0.0676
998.10 0.06758
998.20 0.06755
998.30 0.06753
998.40 0.0675
998.50 0.06747
998.60 0.06745
998.70 0.06742
998.80 0.06739
998.90 0.06737
999.00 0.06734
999.10 0.06731
999.20 0.06729
999.30 0.06726
999.40 0.06724
999.50 0.06721
999.60 0.06718
999.70 0.06715
999.80 0.06713
999.90 0.0671
1000.00 0.06707
1000.10 0.06704
1000.20 0.06701
1000.30 0.06698
1000.40 0.06695
1000.50 0.06692
1000.60 0.0669
1000.70 0.06687
1000.80 0.06684
1000.90 0.06681
1001.00 0.06678
1001.10 0.06675
1001.20 0.06672
1001.30 0.06669
1001.40 0.06667
1001.50 0.06664
1001.60 0.06661
1001.70 0.06658
1001.80 0.06656
1001.90 0.06653
1002.00 0.06651
1002.10 0.06648
1002.20 0.06645
1002.30 0.06643
1002.40 0.0664
1002.50 0.06638
1002.60 0.06635
1002.70 0.06633
1002.80 0.0663
1002.90 0.06628
1003.00 0.06625
1003.10 0.06622
1003.20 0.0662
1003.30 0.06617
1003.40 0.06615
1003.50 0.06612
1003.60 0.0661
1003.70 0.06607
1003.80 0.06605
1003.90 0.06602
1004.00 0.066
1004.10 0.06597
1004.20 0.06594
1004.30 0.06592
1004.40 0.06589
1004.50 0.06587
1004.60 0.06584
1004.70 0.06582
1004.80 0.06579
1004.90 0.06577
1005.00 0.06574
1005.10 0.06571
1005.20 0.06569
1005.30 0.06566
1005.40 0.06564
1005.50 0.06561
1005.60 0.06559
1005.70 0.06556
1005.80 0.06553
1005.90 0.06551
1006.00 0.06548
1006.10 0.06546
1006.20 0.06543
1006.30 0.06541
1006.40 0.06538
1006.50 0.06535
1006.60 0.06533
1006.70 0.0653
1006.80 0.06528
1006.90 0.06525
1007.00 0.06523
1007.10 0.0652
1007.20 0.06517
1007.30 0.06515
1007.40 0.06512
1007.50 0.0651
1007.60 0.06507
1007.70 0.06505
1007.80 0.06502
1007.90 0.065
1008.00 0.06497
1008.10 0.06494
1008.20 0.06492
1008.30 0.06489
1008.40 0.06487
1008.50 0.06484
1008.60 0.06482
1008.70 0.06479
1008.80 0.06477
1008.90 0.06474
1009.00 0.06472
1009.10 0.06469
1009.20 0.06467
1009.30 0.06464
1009.40 0.06462
1009.50 0.06459
1009.60 0.06457
1009.70 0.06454
1009.80 0.06451
1009.90 0.06449
1010.00 0.06446
1010.10 0.06444
1010.20 0.06441
1010.30 0.06439
1010.40 0.06436
1010.50 0.06434
1010.60 0.06432
1010.70 0.06429
1010.80 0.06427
1010.90 0.06424
1011.00 0.06422
1011.10 0.06419
1011.20 0.06417
1011.30 0.06414
1011.40 0.06412
1011.50 0.06409
1011.60 0.06407
1011.70 0.06404
1011.80 0.06402
1011.90 0.06399
1012.00 0.06397
1012.10 0.06394
1012.20 0.06392
1012.30 0.06389
1012.40 0.06387
1012.50 0.06384
1012.60 0.06382
1012.70 0.06379
1012.80 0.06377
1012.90 0.06375
1013.00 0.06372
1013.10 0.0637
1013.20 0.06367
1013.30 0.06365
1013.40 0.06362
1013.50 0.0636
1013.60 0.06357
1013.70 0.06355
1013.80 0.06352
1013.90 0.0635
1014.00 0.06348
1014.10 0.06345
1014.20 0.06343
1014.30 0.0634
1014.40 0.06338
1014.50 0.06335
1014.60 0.06333
1014.70 0.06331
1014.80 0.06328
1014.90 0.06326
1015.00 0.06323
1015.10 0.06321
1015.20 0.06318
1015.30 0.06316
1015.40 0.06314
1015.50 0.06311
1015.60 0.06309
1015.70 0.06306
1015.80 0.06304
1015.90 0.06301
1016.00 0.06299
1016.10 0.06297
1016.20 0.06294
1016.30 0.06292
1016.40 0.06289
1016.50 0.06287
1016.60 0.06285
1016.70 0.06282
1016.80 0.0628
1016.90 0.06277
1017.00 0.06275
1017.10 0.06273
1017.20 0.0627
1017.30 0.06268
1017.40 0.06265
1017.50 0.06263
1017.60 0.06261
1017.70 0.06258
1017.80 0.06256
1017.90 0.06253
1018.00 0.06251
1018.10 0.06249
1018.20 0.06246
1018.30 0.06244
1018.40 0.06241
1018.50 0.06239
1018.60 0.06237
1018.70 0.06234
1018.80 0.06232
1018.90 0.0623
1019.00 0.06227
1019.10 0.06225
1019.20 0.06222
1019.30 0.0622
1019.40 0.06218
1019.50 0.06215
1019.60 0.06213
1019.70 0.06211
1019.80 0.06208
1019.90 0.06206
1020.00 0.06203
1020.10 0.06201
1020.20 0.06199
1020.30 0.06196
1020.40 0.06194
1020.50 0.06192
1020.60 0.06189
1020.70 0.06187
1020.80 0.06184
1020.90 0.06182
1021.00 0.0618
1021.10 0.06177
1021.20 0.06175
1021.30 0.06173
1021.40 0.0617
1021.50 0.06168
1021.60 0.06166
1021.70 0.06163
1021.80 0.06161
1021.90 0.06159
1022.00 0.06156
1022.10 0.06154
1022.20 0.06152
1022.30 0.06149
1022.40 0.06147
1022.50 0.06145
1022.60 0.06142
1022.70 0.0614
1022.80 0.06138
1022.90 0.06135
1023.00 0.06133
1023.10 0.06131
1023.20 0.06128
1023.30 0.06126
1023.40 0.06124
1023.50 0.06121
1023.60 0.06119
1023.70 0.06117
1023.80 0.06114
1023.90 0.06112
1024.00 0.0611
1024.10 0.06107
1024.20 0.06105
1024.30 0.06103
1024.40 0.061
1024.50 0.06098
1024.60 0.06096
1024.70 0.06093
1024.80 0.06091
1024.90 0.06089
1025.00 0.06086
1025.10 0.06084
1025.20 0.06082
1025.30 0.06079
1025.40 0.06077
1025.50 0.06075
1025.60 0.06073
1025.70 0.0607
1025.80 0.06068
1025.90 0.06066
1026.00 0.06063
1026.10 0.06061
1026.20 0.06059
1026.30 0.06056
1026.40 0.06054
1026.50 0.06052
1026.60 0.0605
1026.70 0.06047
1026.80 0.06045
1026.90 0.06043
1027.00 0.0604
1027.10 0.06038
1027.20 0.06036
1027.30 0.06033
1027.40 0.06031
1027.50 0.06029
1027.60 0.06027
1027.70 0.06024
1027.80 0.06022
1027.90 0.0602
1028.00 0.06017
1028.10 0.06015
1028.20 0.06013
1028.30 0.06011
1028.40 0.06008
1028.50 0.06006
1028.60 0.06004
1028.70 0.06002
1028.80 0.05999
1028.90 0.05997
1029.00 0.05995
1029.10 0.05992
1029.20 0.0599
1029.30 0.05988
1029.40 0.05986
1029.50 0.05983
1029.60 0.05981
1029.70 0.05979
1029.80 0.05977
1029.90 0.05974
1030.00 0.05972
1030.10 0.0597
1030.20 0.05968
1030.30 0.05965
1030.40 0.05963
1030.50 0.05961
1030.60 0.05958
1030.70 0.05956
1030.80 0.05954
1030.90 0.05952
1031.00 0.05949
1031.10 0.05947
1031.20 0.05945
1031.30 0.05943
1031.40 0.0594
1031.50 0.05938
1031.60 0.05936
1031.70 0.05934
1031.80 0.05931
1031.90 0.05929
1032.00 0.05927
1032.10 0.05925
1032.20 0.05922
1032.30 0.0592
1032.40 0.05918
1032.50 0.05916
1032.60 0.05913
1032.70 0.05911
1032.80 0.05909
1032.90 0.05907
1033.00 0.05905
1033.10 0.05902
1033.20 0.059
1033.30 0.05898
1033.40 0.05896
1033.50 0.05893
1033.60 0.05891
1033.70 0.05889
1033.80 0.05887
1033.90 0.05884
1034.00 0.05882
1034.10 0.0588
1034.20 0.05878
1034.30 0.05876
1034.40 0.05873
1034.50 0.05871
1034.60 0.05869
1034.70 0.05867
1034.80 0.05864
1034.90 0.05862
1035.00 0.0586
1035.10 0.05858
1035.20 0.05856
1035.30 0.05853
1035.40 0.05851
1035.50 0.05849
1035.60 0.05847
1035.70 0.05845
1035.80 0.05842
1035.90 0.0584
1036.00 0.05838
1036.10 0.05836
1036.20 0.05834
1036.30 0.05831
1036.40 0.05829
1036.50 0.05827
1036.60 0.05825
1036.70 0.05822
1036.80 0.0582
1036.90 0.05818
1037.00 0.05816
1037.10 0.05814
1037.20 0.05812
1037.30 0.05809
1037.40 0.05807
1037.50 0.05805
1037.60 0.05803
1037.70 0.05801
1037.80 0.05798
1037.90 0.05796
1038.00 0.05794
1038.10 0.05792
1038.20 0.0579
1038.30 0.05787
1038.40 0.05785
1038.50 0.05783
1038.60 0.05781
1038.70 0.05779
1038.80 0.05777
1038.90 0.05774
1039.00 0.05772
1039.10 0.0577
1039.20 0.05768
1039.30 0.05766
1039.40 0.05763
1039.50 0.05761
1039.60 0.05759
1039.70 0.05757
1039.80 0.05755
1039.90 0.05753
1040.00 0.0575
1040.10 0.05748
1040.20 0.05746
1040.30 0.05744
1040.40 0.05742
1040.50 0.0574
1040.60 0.05737
1040.70 0.05735
1040.80 0.05733
1040.90 0.05731
1041.00 0.05729
1041.10 0.05727
1041.20 0.05724
1041.30 0.05722
1041.40 0.0572
1041.50 0.05718
1041.60 0.05716
1041.70 0.05714
1041.80 0.05712
1041.90 0.05709
1042.00 0.05707
1042.10 0.05705
1042.20 0.05703
1042.30 0.05701
1042.40 0.05699
1042.50 0.05696
1042.60 0.05694
1042.70 0.05692
1042.80 0.0569
1042.90 0.05688
1043.00 0.05686
1043.10 0.05684
1043.20 0.05682
1043.30 0.05679
1043.40 0.05677
1043.50 0.05675
1043.60 0.05673
1043.70 0.05671
1043.80 0.05669
1043.90 0.05667
1044.00 0.05664
1044.10 0.05662
1044.20 0.0566
1044.30 0.05658
1044.40 0.05656
1044.50 0.05654
1044.60 0.05652
1044.70 0.0565
1044.80 0.05647
1044.90 0.05645
1045.00 0.05643
1045.10 0.05641
1045.20 0.05639
1045.30 0.05637
1045.40 0.05635
1045.50 0.05633
1045.60 0.0563
1045.70 0.05628
1045.80 0.05626
1045.90 0.05624
1046.00 0.05622
1046.10 0.0562
1046.20 0.05618
1046.30 0.05616
1046.40 0.05613
1046.50 0.05611
1046.60 0.05609
1046.70 0.05607
1046.80 0.05605
1046.90 0.05603
1047.00 0.05601
1047.10 0.05599
1047.20 0.05597
1047.30 0.05595
1047.40 0.05592
1047.50 0.0559
1047.60 0.05588
1047.70 0.05586
1047.80 0.05584
1047.90 0.05582
1048.00 0.0558
1048.10 0.05578
1048.20 0.05576
1048.30 0.05574
1048.40 0.05571
1048.50 0.05569
1048.60 0.05567
1048.70 0.05565
1048.80 0.05563
1048.90 0.05561
1049.00 0.05559
1049.10 0.05557
1049.20 0.05555
1049.30 0.05553
1049.40 0.05551
1049.50 0.05549
1049.60 0.05546
1049.70 0.05544
1049.80 0.05542
1049.90 0.0554
1050.00 0.05538
1050.10 0.05536
1050.20 0.05534
1050.30 0.05532
1050.40 0.0553
1050.50 0.05528
1050.60 0.05526
1050.70 0.05524
1050.80 0.05521
1050.90 0.05519
1051.00 0.05517
1051.10 0.05515
1051.20 0.05513
1051.30 0.05511
1051.40 0.05509
1051.50 0.05507
1051.60 0.05505
1051.70 0.05503
1051.80 0.05501
1051.90 0.05499
1052.00 0.05497
1052.10 0.05495
1052.20 0.05493
1052.30 0.0549
1052.40 0.05488
1052.50 0.05486
1052.60 0.05484
1052.70 0.05482
1052.80 0.0548
1052.90 0.05478
1053.00 0.05476
1053.10 0.05474
1053.20 0.05472
1053.30 0.0547
1053.40 0.05468
1053.50 0.05466
1053.60 0.05464
1053.70 0.05462
1053.80 0.0546
1053.90 0.05458
1054.00 0.05456
1054.10 0.05454
1054.20 0.05452
1054.30 0.05449
1054.40 0.05447
1054.50 0.05445
1054.60 0.05443
1054.70 0.05441
1054.80 0.05439
1054.90 0.05437
1055.00 0.05435
1055.10 0.05433
1055.20 0.05431
1055.30 0.05429
1055.40 0.05427
1055.50 0.05425
1055.60 0.05423
1055.70 0.05421
1055.80 0.05419
1055.90 0.05417
1056.00 0.05415
1056.10 0.05413
1056.20 0.05411
1056.30 0.05409
1056.40 0.05407
1056.50 0.05405
1056.60 0.05403
1056.70 0.05401
1056.80 0.05399
1056.90 0.05397
1057.00 0.05395
1057.10 0.05393
1057.20 0.05391
1057.30 0.05389
1057.40 0.05386
1057.50 0.05384
1057.60 0.05382
1057.70 0.0538
1057.80 0.05378
1057.90 0.05376
1058.00 0.05374
1058.10 0.05372
1058.20 0.0537
1058.30 0.05368
1058.40 0.05366
1058.50 0.05364
1058.60 0.05362
1058.70 0.0536
1058.80 0.05358
1058.90 0.05356
1059.00 0.05354
1059.10 0.05352
1059.20 0.0535
1059.30 0.05348
1059.40 0.05346
1059.50 0.05344
1059.60 0.05342
1059.70 0.0534
1059.80 0.05338
1059.90 0.05336
1060.00 0.05334
1060.10 0.05332
1060.20 0.0533
1060.30 0.05328
1060.40 0.05326
1060.50 0.05324
1060.60 0.05322
1060.70 0.0532
1060.80 0.05318
1060.90 0.05316
1061.00 0.05314
1061.10 0.05312
1061.20 0.0531
1061.30 0.05308
1061.40 0.05306
1061.50 0.05304
1061.60 0.05302
1061.70 0.053
1061.80 0.05298
1061.90 0.05296
1062.00 0.05295
1062.10 0.05293
1062.20 0.05291
1062.30 0.05289
1062.40 0.05287
1062.50 0.05285
1062.60 0.05283
1062.70 0.05281
1062.80 0.05279
1062.90 0.05277
1063.00 0.05275
1063.10 0.05273
1063.20 0.05271
1063.30 0.05269
1063.40 0.05267
1063.50 0.05265
1063.60 0.05263
1063.70 0.05261
1063.80 0.05259
1063.90 0.05257
1064.00 0.05255
1064.10 0.05253
1064.20 0.05251
1064.30 0.05249
1064.40 0.05247
1064.50 0.05245
1064.60 0.05243
1064.70 0.05241
1064.80 0.05239
1064.90 0.05237
1065.00 0.05235
1065.10 0.05233
1065.20 0.05232
1065.30 0.0523
1065.40 0.05228
1065.50 0.05226
1065.60 0.05224
1065.70 0.05222
1065.80 0.0522
1065.90 0.05218
1066.00 0.05216
1066.10 0.05214
1066.20 0.05212
1066.30 0.0521
1066.40 0.05208
1066.50 0.05206
1066.60 0.05204
1066.70 0.05202
1066.80 0.052
1066.90 0.05198
1067.00 0.05196
1067.10 0.05194
1067.20 0.05193
1067.30 0.05191
1067.40 0.05189
1067.50 0.05187
1067.60 0.05185
1067.70 0.05183
1067.80 0.05181
1067.90 0.05179
1068.00 0.05177
1068.10 0.05175
1068.20 0.05173
1068.30 0.05171
1068.40 0.05169
1068.50 0.05167
1068.60 0.05165
1068.70 0.05164
1068.80 0.05162
1068.90 0.0516
1069.00 0.05158
1069.10 0.05156
1069.20 0.05154
1069.30 0.05152
1069.40 0.0515
1069.50 0.05148
1069.60 0.05146
1069.70 0.05144
1069.80 0.05142
1069.90 0.0514
1070.00 0.05138
1070.10 0.05137
1070.20 0.05135
1070.30 0.05133
1070.40 0.05131
1070.50 0.05129
1070.60 0.05127
1070.70 0.05125
1070.80 0.05123
1070.90 0.05121
1071.00 0.05119
1071.10 0.05117
1071.20 0.05115
1071.30 0.05114
1071.40 0.05112
1071.50 0.0511
1071.60 0.05108
1071.70 0.05106
1071.80 0.05104
1071.90 0.05102
1072.00 0.051
1072.10 0.05098
1072.20 0.05096
1072.30 0.05094
1072.40 0.05093
1072.50 0.05091
1072.60 0.05089
1072.70 0.05087
1072.80 0.05085
1072.90 0.05083
1073.00 0.05081
1073.10 0.05079
1073.20 0.05077
1073.30 0.05075
1073.40 0.05074
1073.50 0.05072
1073.60 0.0507
1073.70 0.05068
1073.80 0.05066
1073.90 0.05064
1074.00 0.05062
1074.10 0.0506
1074.20 0.05058
1074.30 0.05057
1074.40 0.05055
1074.50 0.05053
1074.60 0.05051
1074.70 0.05049
1074.80 0.05047
1074.90 0.05045
1075.00 0.05043
1075.10 0.05041
1075.20 0.0504
1075.30 0.05038
1075.40 0.05036
1075.50 0.05034
1075.60 0.05032
1075.70 0.0503
1075.80 0.05028
1075.90 0.05026
1076.00 0.05025
1076.10 0.05023
1076.20 0.05021
1076.30 0.05019
1076.40 0.05017
1076.50 0.05015
1076.60 0.05013
1076.70 0.05011
1076.80 0.0501
1076.90 0.05008
1077.00 0.05006
1077.10 0.05004
1077.20 0.05002
1077.30 0.05
1077.40 0.04998
1077.50 0.04996
1077.60 0.04995
1077.70 0.04993
1077.80 0.04991
1077.90 0.04989
1078.00 0.04987
1078.10 0.04985
1078.20 0.04983
1078.30 0.04982
1078.40 0.0498
1078.50 0.04978
1078.60 0.04976
1078.70 0.04974
1078.80 0.04972
1078.90 0.0497
1079.00 0.04969
1079.10 0.04967
1079.20 0.04965
1079.30 0.04963
1079.40 0.04961
1079.50 0.04959
1079.60 0.04957
1079.70 0.04956
1079.80 0.04954
1079.90 0.04952
1080.00 0.0495
1080.10 0.04948
1080.20 0.04946
1080.30 0.04945
1080.40 0.04943
1080.50 0.04941
1080.60 0.04939
1080.70 0.04937
1080.80 0.04935
1080.90 0.04934
1081.00 0.04932
1081.10 0.0493
1081.20 0.04928
1081.30 0.04926
1081.40 0.04924
1081.50 0.04923
1081.60 0.04921
1081.70 0.04919
1081.80 0.04917
1081.90 0.04915
1082.00 0.04913
1082.10 0.04912
1082.20 0.0491
1082.30 0.04908
1082.40 0.04906
1082.50 0.04904
1082.60 0.04902
1082.70 0.04901
1082.80 0.04899
1082.90 0.04897
1083.00 0.04895
1083.10 0.04893
1083.20 0.04892
1083.30 0.0489
1083.40 0.04888
1083.50 0.04886
1083.60 0.04884
1083.70 0.04882
1083.80 0.04881
1083.90 0.04879
1084.00 0.04877
1084.10 0.04875
1084.20 0.04873
1084.30 0.04872
1084.40 0.0487
1084.50 0.04868
1084.60 0.04866
1084.70 0.04864
1084.80 0.04863
1084.90 0.04861
1085.00 0.04859
1085.10 0.04857
1085.20 0.04855
1085.30 0.04854
1085.40 0.04852
1085.50 0.0485
1085.60 0.04848
1085.70 0.04846
1085.80 0.04845
1085.90 0.04843
1086.00 0.04841
1086.10 0.04839
1086.20 0.04837
1086.30 0.04836
1086.40 0.04834
1086.50 0.04832
1086.60 0.0483
1086.70 0.04829
1086.80 0.04827
1086.90 0.04825
1087.00 0.04823
1087.10 0.04821
1087.20 0.0482
1087.30 0.04818
1087.40 0.04816
1087.50 0.04814
1087.60 0.04813
1087.70 0.04811
1087.80 0.04809
1087.90 0.04807
1088.00 0.04806
1088.10 0.04804
1088.20 0.04802
1088.30 0.048
1088.40 0.04798
1088.50 0.04797
1088.60 0.04795
1088.70 0.04793
1088.80 0.04791
1088.90 0.0479
1089.00 0.04788
1089.10 0.04786
1089.20 0.04784
1089.30 0.04783
1089.40 0.04781
1089.50 0.04779
1089.60 0.04777
1089.70 0.04776
1089.80 0.04774
1089.90 0.04772
1090.00 0.0477
1090.10 0.04769
1090.20 0.04767
1090.30 0.04765
1090.40 0.04764
1090.50 0.04762
1090.60 0.0476
1090.70 0.04758
1090.80 0.04757
1090.90 0.04755
1091.00 0.04753
1091.10 0.04751
1091.20 0.0475
1091.30 0.04748
1091.40 0.04746
1091.50 0.04745
1091.60 0.04743
1091.70 0.04741
1091.80 0.04739
1091.90 0.04738
1092.00 0.04736
1092.10 0.04734
1092.20 0.04733
1092.30 0.04731
1092.40 0.04729
1092.50 0.04728
1092.60 0.04726
1092.70 0.04724
1092.80 0.04723
1092.90 0.04721
1093.00 0.04719
1093.10 0.04718
1093.20 0.04716
1093.30 0.04715
1093.40 0.04713
1093.50 0.04712
1093.60 0.0471
1093.70 0.04709
1093.80 0.04707
1093.90 0.04706
1094.00 0.04704
1094.10 0.04702
1094.20 0.04701
1094.30 0.04699
1094.40 0.04697
1094.50 0.04696
1094.60 0.04694
1094.70 0.04692
1094.80 0.0469
1094.90 0.04688
1095.00 0.04687
1095.10 0.04685
1095.20 0.04683
1095.30 0.04682
1095.40 0.0468
1095.50 0.04678
1095.60 0.04677
1095.70 0.04675
1095.80 0.04673
1095.90 0.04672
1096.00 0.0467
1096.10 0.04668
1096.20 0.04667
1096.30 0.04665
1096.40 0.04663
1096.50 0.04662
1096.60 0.0466
1096.70 0.04658
1096.80 0.04657
1096.90 0.04655
1097.00 0.04654
1097.10 0.04652
1097.20 0.0465
1097.30 0.04649
1097.40 0.04647
1097.50 0.04645
1097.60 0.04644
1097.70 0.04642
1097.80 0.04641
1097.90 0.04639
1098.00 0.04637
1098.10 0.04636
1098.20 0.04634
1098.30 0.04632
1098.40 0.04631
1098.50 0.04629
1098.60 0.04628
1098.70 0.04626
1098.80 0.04624
1098.90 0.04623
1099.00 0.04621
1099.10 0.0462
1099.20 0.04618
1099.30 0.04616
1099.40 0.04615
1099.50 0.04613
1099.60 0.04611
1099.70 0.0461
1099.80 0.04608
1099.90 0.04607
1100.00 0.04605
1100.10 0.04603
1100.20 0.04602
1100.30 0.046
1100.40 0.04599
1100.50 0.04597
1100.60 0.04595
1100.70 0.04594
1100.80 0.04592
1100.90 0.04591
1101.00 0.04589
1101.10 0.04587
1101.20 0.04586
1101.30 0.04584
1101.40 0.04583
1101.50 0.04581
1101.60 0.04579
1101.70 0.04578
1101.80 0.04576
1101.90 0.04575
1102.00 0.04573
1102.10 0.04572
1102.20 0.0457
1102.30 0.04568
1102.40 0.04567
1102.50 0.04565
1102.60 0.04564
1102.70 0.04562
1102.80 0.0456
1102.90 0.04559
1103.00 0.04557
1103.10 0.04556
1103.20 0.04554
1103.30 0.04553
1103.40 0.04551
1103.50 0.04549
1103.60 0.04548
1103.70 0.04546
1103.80 0.04545
1103.90 0.04543
1104.00 0.04542
1104.10 0.0454
1104.20 0.04538
1104.30 0.04537
1104.40 0.04535
1104.50 0.04534
1104.60 0.04532
1104.70 0.04531
1104.80 0.04529
1104.90 0.04528
1105.00 0.04526
1105.10 0.04524
1105.20 0.04523
1105.30 0.04521
1105.40 0.0452
1105.50 0.04518
1105.60 0.04517
1105.70 0.04515
1105.80 0.04513
1105.90 0.04512
1106.00 0.0451
1106.10 0.04509
1106.20 0.04507
1106.30 0.04506
1106.40 0.04504
1106.50 0.04503
1106.60 0.04501
1106.70 0.045
1106.80 0.04498
1106.90 0.04496
1107.00 0.04495
1107.10 0.04493
1107.20 0.04492
1107.30 0.0449
1107.40 0.04489
1107.50 0.04487
1107.60 0.04486
1107.70 0.04484
1107.80 0.04482
1107.90 0.04481
1108.00 0.04479
1108.10 0.04478
1108.20 0.04476
1108.30 0.04475
1108.40 0.04473
1108.50 0.04472
1108.60 0.0447
1108.70 0.04469
1108.80 0.04467
1108.90 0.04466
1109.00 0.04464
1109.10 0.04462
1109.20 0.04461
1109.30 0.04459
1109.40 0.04458
1109.50 0.04456
1109.60 0.04455
1109.70 0.04453
1109.80 0.04452
1109.90 0.0445
1110.00 0.04449
1110.10 0.04447
1110.20 0.04446
1110.30 0.04444
1110.40 0.04443
1110.50 0.04441
1110.60 0.0444
1110.70 0.04438
1110.80 0.04436
1110.90 0.04435
1111.00 0.04433
1111.10 0.04432
1111.20 0.0443
1111.30 0.04429
1111.40 0.04427
1111.50 0.04426
1111.60 0.04424
1111.70 0.04423
1111.80 0.04421
1111.90 0.0442
1112.00 0.04418
1112.10 0.04417
1112.20 0.04415
1112.30 0.04414
1112.40 0.04412
1112.50 0.04411
1112.60 0.04409
1112.70 0.04408
1112.80 0.04406
1112.90 0.04405
1113.00 0.04403
1113.10 0.04402
1113.20 0.044
1113.30 0.04398
1113.40 0.04397
1113.50 0.04395
1113.60 0.04394
1113.70 0.04392
1113.80 0.04391
1113.90 0.04389
1114.00 0.04388
1114.10 0.04386
1114.20 0.04385
1114.30 0.04383
1114.40 0.04382
1114.50 0.0438
1114.60 0.04379
1114.70 0.04377
1114.80 0.04376
1114.90 0.04374
1115.00 0.04373
1115.10 0.04371
1115.20 0.0437
1115.30 0.04368
1115.40 0.04367
1115.50 0.04365
1115.60 0.04364
1115.70 0.04362
1115.80 0.04361
1115.90 0.04359
1116.00 0.04358
1116.10 0.04356
1116.20 0.04355
1116.30 0.04353
1116.40 0.04352
1116.50 0.0435
1116.60 0.04349
1116.70 0.04347
1116.80 0.04346
1116.90 0.04344
1117.00 0.04343
1117.10 0.04341
1117.20 0.0434
1117.30 0.04338
1117.40 0.04337
1117.50 0.04335
1117.60 0.04334
1117.70 0.04332
1117.80 0.04331
1117.90 0.04329
1118.00 0.04328
1118.10 0.04326
1118.20 0.04325
1118.30 0.04324
1118.40 0.04322
1118.50 0.04321
1118.60 0.04319
1118.70 0.04318
1118.80 0.04316
1118.90 0.04315
1119.00 0.04313
1119.10 0.04312
1119.20 0.0431
1119.30 0.04309
1119.40 0.04307
1119.50 0.04306
1119.60 0.04304
1119.70 0.04303
1119.80 0.04301
1119.90 0.043
1120.00 0.04298
1120.10 0.04297
1120.20 0.04295
1120.30 0.04294
1120.40 0.04292
1120.50 0.04291
1120.60 0.04289
1120.70 0.04288
1120.80 0.04286
1120.90 0.04285
1121.00 0.04284
1121.10 0.04282
1121.20 0.04281
1121.30 0.04279
1121.40 0.04278
1121.50 0.04276
1121.60 0.04275
1121.70 0.04273
1121.80 0.04272
1121.90 0.0427
1122.00 0.04269
1122.10 0.04267
1122.20 0.04266
1122.30 0.04264
1122.40 0.04263
1122.50 0.04261
1122.60 0.0426
1122.70 0.04259
1122.80 0.04257
1122.90 0.04256
1123.00 0.04254
1123.10 0.04253
1123.20 0.04251
1123.30 0.0425
1123.40 0.04248
1123.50 0.04247
1123.60 0.04245
1123.70 0.04244
1123.80 0.04242
1123.90 0.04241
1124.00 0.0424
1124.10 0.04238
1124.20 0.04237
1124.30 0.04235
1124.40 0.04234
1124.50 0.04232
1124.60 0.04231
1124.70 0.04229
1124.80 0.04228
1124.90 0.04226
1125.00 0.04225
1125.10 0.04224
1125.20 0.04222
1125.30 0.04221
1125.40 0.04219
1125.50 0.04218
1125.60 0.04216
1125.70 0.04215
1125.80 0.04213
1125.90 0.04212
1126.00 0.0421
1126.10 0.04209
1126.20 0.04208
1126.30 0.04206
1126.40 0.04205
1126.50 0.04203
1126.60 0.04202
1126.70 0.042
1126.80 0.04199
1126.90 0.04197
1127.00 0.04196
1127.10 0.04195
1127.20 0.04193
1127.30 0.04192
1127.40 0.0419
1127.50 0.04189
1127.60 0.04187
1127.70 0.04186
1127.80 0.04185
1127.90 0.04183
1128.00 0.04182
1128.10 0.0418
1128.20 0.04179
1128.30 0.04177
1128.40 0.04176
1128.50 0.04174
1128.60 0.04173
1128.70 0.04172
1128.80 0.0417
1128.90 0.04169
1129.00 0.04167
1129.10 0.04166
1129.20 0.04164
1129.30 0.04163
1129.40 0.04162
1129.50 0.0416
1129.60 0.04159
1129.70 0.04157
1129.80 0.04156
1129.90 0.04154
1130.00 0.04153
1130.10 0.04152
1130.20 0.0415
1130.30 0.04149
1130.40 0.04147
1130.50 0.04146
1130.60 0.04144
1130.70 0.04143
1130.80 0.04142
1130.90 0.0414
1131.00 0.04139
1131.10 0.04137
1131.20 0.04136
1131.30 0.04134
1131.40 0.04133
1131.50 0.04132
1131.60 0.0413
1131.70 0.04129
1131.80 0.04127
1131.90 0.04126
1132.00 0.04125
1132.10 0.04123
1132.20 0.04122
1132.30 0.0412
1132.40 0.04119
1132.50 0.04117
1132.60 0.04116
1132.70 0.04115
1132.80 0.04113
1132.90 0.04112
1133.00 0.0411
1133.10 0.04109
1133.20 0.04108
1133.30 0.04106
1133.40 0.04105
1133.50 0.04103
1133.60 0.04102
1133.70 0.04101
1133.80 0.04099
1133.90 0.04098
1134.00 0.04096
1134.10 0.04095
1134.20 0.04094
1134.30 0.04092
1134.40 0.04091
1134.50 0.04089
1134.60 0.04088
1134.70 0.04086
1134.80 0.04085
1134.90 0.04084
1135.00 0.04082
1135.10 0.04081
1135.20 0.04079
1135.30 0.04078
1135.40 0.04077
1135.50 0.04075
1135.60 0.04074
1135.70 0.04072
1135.80 0.04071
1135.90 0.0407
1136.00 0.04068
1136.10 0.04067
1136.20 0.04066
1136.30 0.04064
1136.40 0.04063
1136.50 0.04061
1136.60 0.0406
1136.70 0.04059
1136.80 0.04057
1136.90 0.04056
1137.00 0.04054
1137.10 0.04053
1137.20 0.04052
1137.30 0.0405
1137.40 0.04049
1137.50 0.04047
1137.60 0.04046
1137.70 0.04045
1137.80 0.04043
1137.90 0.04042
1138.00 0.0404
1138.10 0.04039
1138.20 0.04038
1138.30 0.04036
1138.40 0.04035
1138.50 0.04034
1138.60 0.04032
1138.70 0.04031
1138.80 0.04029
1138.90 0.04028
1139.00 0.04027
1139.10 0.04025
1139.20 0.04024
1139.30 0.04023
1139.40 0.04021
1139.50 0.0402
1139.60 0.04018
1139.70 0.04017
1139.80 0.04016
1139.90 0.04014
1140.00 0.04013
1140.10 0.04012
1140.20 0.0401
1140.30 0.04009
1140.40 0.04007
1140.50 0.04006
1140.60 0.04005
1140.70 0.04003
1140.80 0.04002
1140.90 0.04001
1141.00 0.03999
1141.10 0.03998
1141.20 0.03996
1141.30 0.03995
1141.40 0.03994
1141.50 0.03992
1141.60 0.03991
1141.70 0.0399
1141.80 0.03988
1141.90 0.03987
1142.00 0.03986
1142.10 0.03984
1142.20 0.03983
1142.30 0.03981
1142.40 0.0398
1142.50 0.03979
1142.60 0.03977
1142.70 0.03976
1142.80 0.03975
1142.90 0.03973
1143.00 0.03972
1143.10 0.03971
1143.20 0.03969
1143.30 0.03968
1143.40 0.03966
1143.50 0.03965
1143.60 0.03964
1143.70 0.03962
1143.80 0.03961
1143.90 0.0396
1144.00 0.03958
1144.10 0.03957
1144.20 0.03956
1144.30 0.03954
1144.40 0.03953
1144.50 0.03952
1144.60 0.0395
1144.70 0.03949
1144.80 0.03948
1144.90 0.03946
1145.00 0.03945
1145.10 0.03944
1145.20 0.03942
1145.30 0.03941
1145.40 0.03939
1145.50 0.03938
1145.60 0.03937
1145.70 0.03935
1145.80 0.03934
1145.90 0.03933
1146.00 0.03931
1146.10 0.0393
1146.20 0.03929
1146.30 0.03927
1146.40 0.03926
1146.50 0.03925
1146.60 0.03923
1146.70 0.03922
1146.80 0.03921
1146.90 0.03919
1147.00 0.03918
1147.10 0.03917
1147.20 0.03915
1147.30 0.03914
1147.40 0.03913
1147.50 0.03911
1147.60 0.0391
1147.70 0.03909
1147.80 0.03907
1147.90 0.03906
1148.00 0.03905
1148.10 0.03903
1148.20 0.03902
1148.30 0.03901
1148.40 0.03899
1148.50 0.03898
1148.60 0.03897
1148.70 0.03895
1148.80 0.03894
1148.90 0.03893
1149.00 0.03891
1149.10 0.0389
1149.20 0.03889
1149.30 0.03887
1149.40 0.03886
1149.50 0.03885
1149.60 0.03883
1149.70 0.03882
1149.80 0.03881
1149.90 0.03879
1150.00 0.03878
1150.10 0.03877
1150.20 0.03876
1150.30 0.03874
1150.40 0.03873
1150.50 0.03872
1150.60 0.0387
1150.70 0.03869
1150.80 0.03868
1150.90 0.03866
1151.00 0.03865
1151.10 0.03864
1151.20 0.03862
1151.30 0.03861
1151.40 0.0386
1151.50 0.03858
1151.60 0.03857
1151.70 0.03856
1151.80 0.03854
1151.90 0.03853
1152.00 0.03852
1152.10 0.0385
1152.20 0.03849
1152.30 0.03848
1152.40 0.03847
1152.50 0.03845
1152.60 0.03844
1152.70 0.03843
1152.80 0.03841
1152.90 0.0384
1153.00 0.03839
1153.10 0.03837
1153.20 0.03836
1153.30 0.03835
1153.40 0.03834
1153.50 0.03832
1153.60 0.03831
1153.70 0.0383
1153.80 0.03828
1153.90 0.03827
1154.00 0.03826
1154.10 0.03824
1154.20 0.03823
1154.30 0.03822
1154.40 0.03821
1154.50 0.03819
1154.60 0.03818
1154.70 0.03817
1154.80 0.03815
1154.90 0.03814
1155.00 0.03813
1155.10 0.03811
1155.20 0.0381
1155.30 0.03809
1155.40 0.03808
1155.50 0.03806
1155.60 0.03805
1155.70 0.03804
1155.80 0.03802
1155.90 0.03801
1156.00 0.038
1156.10 0.03799
1156.20 0.03797
1156.30 0.03796
1156.40 0.03795
1156.50 0.03793
1156.60 0.03792
1156.70 0.03791
1156.80 0.0379
1156.90 0.03788
1157.00 0.03787
1157.10 0.03786
1157.20 0.03784
1157.30 0.03783
1157.40 0.03782
1157.50 0.03781
1157.60 0.03779
1157.70 0.03778
1157.80 0.03777
1157.90 0.03775
1158.00 0.03774
1158.10 0.03773
1158.20 0.03772
1158.30 0.0377
1158.40 0.03769
1158.50 0.03768
1158.60 0.03766
1158.70 0.03765
1158.80 0.03764
1158.90 0.03763
1159.00 0.03761
1159.10 0.0376
1159.20 0.03759
1159.30 0.03758
1159.40 0.03756
1159.50 0.03755
1159.60 0.03754
1159.70 0.03752
1159.80 0.03751
1159.90 0.0375
1160.00 0.03749
1160.10 0.03747
1160.20 0.03746
1160.30 0.03745
1160.40 0.03744
1160.50 0.03742
1160.60 0.03741
1160.70 0.0374
1160.80 0.03739
1160.90 0.03737
1161.00 0.03736
1161.10 0.03735
1161.20 0.03733
1161.30 0.03732
1161.40 0.03731
1161.50 0.0373
1161.60 0.03728
1161.70 0.03727
1161.80 0.03726
1161.90 0.03725
1162.00 0.03723
1162.10 0.03722
1162.20 0.03721
1162.30 0.0372
1162.40 0.03718
1162.50 0.03717
1162.60 0.03716
1162.70 0.03715
1162.80 0.03713
1162.90 0.03712
1163.00 0.03711
1163.10 0.0371
1163.20 0.03708
1163.30 0.03707
1163.40 0.03706
1163.50 0.03705
1163.60 0.03703
1163.70 0.03702
1163.80 0.03701
1163.90 0.037
1164.00 0.03698
1164.10 0.03697
1164.20 0.03696
1164.30 0.03695
1164.40 0.03693
1164.50 0.03692
1164.60 0.03691
1164.70 0.0369
1164.80 0.03688
1164.90 0.03687
1165.00 0.03686
1165.10 0.03685
1165.20 0.03683
1165.30 0.03682
1165.40 0.03681
1165.50 0.0368
1165.60 0.03678
1165.70 0.03677
1165.80 0.03676
1165.90 0.03675
1166.00 0.03673
1166.10 0.03672
1166.20 0.03671
1166.30 0.0367
1166.40 0.03669
1166.50 0.03667
1166.60 0.03666
1166.70 0.03665
1166.80 0.03664
1166.90 0.03662
1167.00 0.03661
1167.10 0.0366
1167.20 0.03659
1167.30 0.03657
1167.40 0.03656
1167.50 0.03655
1167.60 0.03654
1167.70 0.03653
1167.80 0.03651
1167.90 0.0365
1168.00 0.03649
1168.10 0.03648
1168.20 0.03646
1168.30 0.03645
1168.40 0.03644
1168.50 0.03643
1168.60 0.03641
1168.70 0.0364
1168.80 0.03639
1168.90 0.03638
1169.00 0.03637
1169.10 0.03635
1169.20 0.03634
1169.30 0.03633
1169.40 0.03632
1169.50 0.0363
1169.60 0.03629
1169.70 0.03628
1169.80 0.03627
1169.90 0.03626
1170.00 0.03624
1170.10 0.03623
1170.20 0.03622
1170.30 0.03621
1170.40 0.0362
1170.50 0.03618
1170.60 0.03617
1170.70 0.03616
1170.80 0.03615
1170.90 0.03613
1171.00 0.03612
1171.10 0.03611
1171.20 0.0361
1171.30 0.03609
1171.40 0.03607
1171.50 0.03606
1171.60 0.03605
1171.70 0.03604
1171.80 0.03603
1171.90 0.03601
1172.00 0.036
1172.10 0.03599
1172.20 0.03598
1172.30 0.03596
1172.40 0.03595
1172.50 0.03594
1172.60 0.03593
1172.70 0.03592
1172.80 0.0359
1172.90 0.03589
1173.00 0.03588
1173.10 0.03587
1173.20 0.03586
1173.30 0.03584
1173.40 0.03583
1173.50 0.03582
1173.60 0.03581
1173.70 0.0358
1173.80 0.03578
1173.90 0.03577
1174.00 0.03576
1174.10 0.03575
1174.20 0.03574
1174.30 0.03572
1174.40 0.03571
1174.50 0.0357
1174.60 0.03569
1174.70 0.03568
1174.80 0.03567
1174.90 0.03565
1175.00 0.03564
1175.10 0.03563
1175.20 0.03562
1175.30 0.03561
1175.40 0.03559
1175.50 0.03558
1175.60 0.03557
1175.70 0.03556
1175.80 0.03555
1175.90 0.03553
1176.00 0.03552
1176.10 0.03551
1176.20 0.0355
1176.30 0.03549
1176.40 0.03547
1176.50 0.03546
1176.60 0.03545
1176.70 0.03544
1176.80 0.03543
1176.90 0.03542
1177.00 0.0354
1177.10 0.03539
1177.20 0.03538
1177.30 0.03537
1177.40 0.03536
1177.50 0.03534
1177.60 0.03533
1177.70 0.03532
1177.80 0.03531
1177.90 0.0353
1178.00 0.03529
1178.10 0.03527
1178.20 0.03526
1178.30 0.03525
1178.40 0.03524
1178.50 0.03523
1178.60 0.03521
1178.70 0.0352
1178.80 0.03519
1178.90 0.03518
1179.00 0.03517
1179.10 0.03516
1179.20 0.03514
1179.30 0.03513
1179.40 0.03512
1179.50 0.03511
1179.60 0.0351
1179.70 0.03509
1179.80 0.03507
1179.90 0.03506
1180.00 0.03505
1180.10 0.03504
1180.20 0.03503
1180.30 0.03502
1180.40 0.035
1180.50 0.03499
1180.60 0.03498
1180.70 0.03497
1180.80 0.03496
1180.90 0.03495
1181.00 0.03493
1181.10 0.03492
1181.20 0.03491
1181.30 0.0349
1181.40 0.03489
1181.50 0.03488
1181.60 0.03486
1181.70 0.03485
1181.80 0.03484
1181.90 0.03483
1182.00 0.03482
1182.10 0.03481
1182.20 0.03479
1182.30 0.03478
1182.40 0.03477
1182.50 0.03476
1182.60 0.03475
1182.70 0.03474
1182.80 0.03473
1182.90 0.03471
1183.00 0.0347
1183.10 0.03469
1183.20 0.03468
1183.30 0.03467
1183.40 0.03466
1183.50 0.03464
1183.60 0.03463
1183.70 0.03462
1183.80 0.03461
1183.90 0.0346
1184.00 0.03459
1184.10 0.03458
1184.20 0.03456
1184.30 0.03455
1184.40 0.03454
1184.50 0.03453
1184.60 0.03452
1184.70 0.03451
1184.80 0.0345
1184.90 0.03448
1185.00 0.03447
1185.10 0.03446
1185.20 0.03445
1185.30 0.03444
1185.40 0.03443
1185.50 0.03441
1185.60 0.0344
1185.70 0.03439
1185.80 0.03438
1185.90 0.03437
1186.00 0.03436
1186.10 0.03435
1186.20 0.03433
1186.30 0.03432
1186.40 0.03431
1186.50 0.0343
1186.60 0.03429
1186.70 0.03428
1186.80 0.03427
1186.90 0.03426
1187.00 0.03424
1187.10 0.03423
1187.20 0.03422
1187.30 0.03421
1187.40 0.0342
1187.50 0.03419
1187.60 0.03418
1187.70 0.03416
1187.80 0.03415
1187.90 0.03414
1188.00 0.03413
1188.10 0.03412
1188.20 0.03411
1188.30 0.0341
1188.40 0.03409
1188.50 0.03407
1188.60 0.03406
1188.70 0.03405
1188.80 0.03404
1188.90 0.03403
1189.00 0.03402
1189.10 0.03401
1189.20 0.034
1189.30 0.03398
1189.40 0.03397
1189.50 0.03396
1189.60 0.03395
1189.70 0.03394
1189.80 0.03393
1189.90 0.03392
1190.00 0.03391
1190.10 0.03389
1190.20 0.03388
1190.30 0.03387
1190.40 0.03386
1190.50 0.03385
1190.60 0.03384
1190.70 0.03383
1190.80 0.03382
1190.90 0.0338
1191.00 0.03379
1191.10 0.03378
1191.20 0.03377
1191.30 0.03376
1191.40 0.03375
1191.50 0.03374
1191.60 0.03373
1191.70 0.03371
1191.80 0.0337
1191.90 0.03369
1192.00 0.03368
1192.10 0.03367
1192.20 0.03366
1192.30 0.03365
1192.40 0.03364
1192.50 0.03363
1192.60 0.03361
1192.70 0.0336
1192.80 0.03359
1192.90 0.03358
1193.00 0.03357
1193.10 0.03356
1193.20 0.03355
1193.30 0.03354
1193.40 0.03353
1193.50 0.03352
1193.60 0.0335
1193.70 0.03349
1193.80 0.03348
1193.90 0.03347
1194.00 0.03346
1194.10 0.03345
1194.20 0.03344
1194.30 0.03343
1194.40 0.03342
1194.50 0.0334
1194.60 0.03339
1194.70 0.03338
1194.80 0.03337
1194.90 0.03336
1195.00 0.03335
1195.10 0.03334
1195.20 0.03333
1195.30 0.03332
1195.40 0.03331
1195.50 0.03329
1195.60 0.03328
1195.70 0.03327
1195.80 0.03326
1195.90 0.03325
1196.00 0.03324
1196.10 0.03323
1196.20 0.03322
1196.30 0.03321
1196.40 0.0332
1196.50 0.03318
1196.60 0.03317
1196.70 0.03316
1196.80 0.03315
1196.90 0.03314
1197.00 0.03313
1197.10 0.03312
1197.20 0.03311
1197.30 0.0331
1197.40 0.03309
1197.50 0.03308
1197.60 0.03306
1197.70 0.03305
1197.80 0.03304
1197.90 0.03303
1198.00 0.03302
1198.10 0.03301
1198.20 0.033
1198.30 0.03299
1198.40 0.03298
1198.50 0.03297
1198.60 0.03296
1198.70 0.03295
1198.80 0.03293
1198.90 0.03292
1199.00 0.03291
1199.10 0.0329
1199.20 0.03289
1199.30 0.03288
1199.40 0.03287
1199.50 0.03286
1199.60 0.03285
1199.70 0.03284
1199.80 0.03283
1199.90 0.03282
1200.00 0
