# Version 2.1 - nm, norm@500 to 1, cut digits, bergeron_80000_80.dat_80000
# Wavelength(nm)  Flambda(ergs/cm^s/s/nm)
300.00 6.667
300.10 6.659
300.20 6.651
300.30 6.643
300.40 6.634
300.50 6.626
300.60 6.618
300.70 6.61
300.80 6.602
300.90 6.593
301.00 6.585
301.10 6.577
301.20 6.569
301.30 6.561
301.40 6.553
301.50 6.545
301.60 6.536
301.70 6.528
301.80 6.52
301.90 6.512
302.00 6.504
302.10 6.496
302.20 6.488
302.30 6.48
302.40 6.472
302.50 6.464
302.60 6.456
302.70 6.448
302.80 6.44
302.90 6.432
303.00 6.425
303.10 6.417
303.20 6.409
303.30 6.401
303.40 6.393
303.50 6.385
303.60 6.377
303.70 6.369
303.80 6.362
303.90 6.354
304.00 6.346
304.10 6.338
304.20 6.331
304.30 6.323
304.40 6.315
304.50 6.307
304.60 6.3
304.70 6.292
304.80 6.284
304.90 6.276
305.00 6.269
305.10 6.261
305.20 6.254
305.30 6.246
305.40 6.238
305.50 6.231
305.60 6.223
305.70 6.215
305.80 6.208
305.90 6.2
306.00 6.193
306.10 6.185
306.20 6.178
306.30 6.17
306.40 6.163
306.50 6.155
306.60 6.148
306.70 6.14
306.80 6.133
306.90 6.125
307.00 6.118
307.10 6.11
307.20 6.103
307.30 6.096
307.40 6.088
307.50 6.081
307.60 6.073
307.70 6.066
307.80 6.059
307.90 6.051
308.00 6.044
308.10 6.037
308.20 6.029
308.30 6.022
308.40 6.015
308.50 6.007
308.60 6
308.70 5.993
308.80 5.986
308.90 5.978
309.00 5.971
309.10 5.964
309.20 5.957
309.30 5.95
309.40 5.942
309.50 5.935
309.60 5.928
309.70 5.921
309.80 5.914
309.90 5.907
310.00 5.9
310.10 5.893
310.20 5.885
310.30 5.878
310.40 5.871
310.50 5.864
310.60 5.857
310.70 5.85
310.80 5.843
310.90 5.836
311.00 5.829
311.10 5.822
311.20 5.815
311.30 5.808
311.40 5.801
311.50 5.794
311.60 5.787
311.70 5.78
311.80 5.773
311.90 5.767
312.00 5.76
312.10 5.753
312.20 5.746
312.30 5.739
312.40 5.732
312.50 5.725
312.60 5.718
312.70 5.712
312.80 5.705
312.90 5.698
313.00 5.691
313.10 5.684
313.20 5.678
313.30 5.671
313.40 5.664
313.50 5.657
313.60 5.651
313.70 5.644
313.80 5.637
313.90 5.63
314.00 5.624
314.10 5.617
314.20 5.61
314.30 5.604
314.40 5.597
314.50 5.59
314.60 5.584
314.70 5.577
314.80 5.571
314.90 5.564
315.00 5.557
315.10 5.551
315.20 5.544
315.30 5.538
315.40 5.531
315.50 5.524
315.60 5.518
315.70 5.511
315.80 5.505
315.90 5.498
316.00 5.492
316.10 5.485
316.20 5.479
316.30 5.472
316.40 5.466
316.50 5.459
316.60 5.453
316.70 5.447
316.80 5.44
316.90 5.434
317.00 5.427
317.10 5.421
317.20 5.415
317.30 5.408
317.40 5.402
317.50 5.396
317.60 5.389
317.70 5.383
317.80 5.376
317.90 5.37
318.00 5.364
318.10 5.358
318.20 5.351
318.30 5.345
318.40 5.339
318.50 5.332
318.60 5.326
318.70 5.32
318.80 5.314
318.90 5.307
319.00 5.301
319.10 5.295
319.20 5.289
319.30 5.283
319.40 5.276
319.50 5.27
319.60 5.264
319.70 5.258
319.80 5.252
319.90 5.246
320.00 5.24
320.10 5.233
320.20 5.227
320.30 5.221
320.40 5.215
320.50 5.209
320.60 5.203
320.70 5.197
320.80 5.191
320.90 5.185
321.00 5.179
321.10 5.173
321.20 5.167
321.30 5.161
321.40 5.155
321.50 5.149
321.60 5.143
321.70 5.137
321.80 5.131
321.90 5.125
322.00 5.119
322.10 5.113
322.20 5.107
322.30 5.101
322.40 5.095
322.50 5.089
322.60 5.083
322.70 5.077
322.80 5.072
322.90 5.066
323.00 5.06
323.10 5.054
323.20 5.048
323.30 5.042
323.40 5.036
323.50 5.031
323.60 5.025
323.70 5.019
323.80 5.013
323.90 5.007
324.00 5.002
324.10 4.996
324.20 4.99
324.30 4.984
324.40 4.979
324.50 4.973
324.60 4.967
324.70 4.961
324.80 4.956
324.90 4.95
325.00 4.944
325.10 4.939
325.20 4.933
325.30 4.927
325.40 4.922
325.50 4.916
325.60 4.91
325.70 4.905
325.80 4.899
325.90 4.893
326.00 4.888
326.10 4.882
326.20 4.876
326.30 4.871
326.40 4.865
326.50 4.86
326.60 4.854
326.70 4.849
326.80 4.843
326.90 4.838
327.00 4.832
327.10 4.826
327.20 4.821
327.30 4.815
327.40 4.81
327.50 4.804
327.60 4.799
327.70 4.793
327.80 4.788
327.90 4.783
328.00 4.777
328.10 4.772
328.20 4.766
328.30 4.761
328.40 4.755
328.50 4.75
328.60 4.744
328.70 4.739
328.80 4.734
328.90 4.728
329.00 4.723
329.10 4.718
329.20 4.712
329.30 4.707
329.40 4.701
329.50 4.696
329.60 4.691
329.70 4.685
329.80 4.68
329.90 4.675
330.00 4.67
330.10 4.664
330.20 4.659
330.30 4.654
330.40 4.648
330.50 4.643
330.60 4.638
330.70 4.633
330.80 4.627
330.90 4.622
331.00 4.617
331.10 4.612
331.20 4.607
331.30 4.601
331.40 4.596
331.50 4.591
331.60 4.586
331.70 4.581
331.80 4.575
331.90 4.57
332.00 4.565
332.10 4.56
332.20 4.555
332.30 4.55
332.40 4.545
332.50 4.539
332.60 4.534
332.70 4.529
332.80 4.524
332.90 4.519
333.00 4.514
333.10 4.509
333.20 4.504
333.30 4.499
333.40 4.494
333.50 4.489
333.60 4.484
333.70 4.479
333.80 4.473
333.90 4.468
334.00 4.463
334.10 4.458
334.20 4.453
334.30 4.448
334.40 4.443
334.50 4.439
334.60 4.434
334.70 4.429
334.80 4.424
334.90 4.419
335.00 4.414
335.10 4.409
335.20 4.404
335.30 4.399
335.40 4.394
335.50 4.389
335.60 4.384
335.70 4.379
335.80 4.374
335.90 4.37
336.00 4.365
336.10 4.36
336.20 4.355
336.30 4.35
336.40 4.345
336.50 4.34
336.60 4.336
336.70 4.331
336.80 4.326
336.90 4.321
337.00 4.316
337.10 4.312
337.20 4.307
337.30 4.302
337.40 4.297
337.50 4.292
337.60 4.288
337.70 4.283
337.80 4.278
337.90 4.273
338.00 4.269
338.10 4.264
338.20 4.259
338.30 4.254
338.40 4.25
338.50 4.245
338.60 4.24
338.70 4.236
338.80 4.231
338.90 4.226
339.00 4.222
339.10 4.217
339.20 4.212
339.30 4.208
339.40 4.203
339.50 4.198
339.60 4.194
339.70 4.189
339.80 4.184
339.90 4.18
340.00 4.175
340.10 4.171
340.20 4.166
340.30 4.161
340.40 4.157
340.50 4.152
340.60 4.148
340.70 4.143
340.80 4.139
340.90 4.134
341.00 4.129
341.10 4.125
341.20 4.12
341.30 4.116
341.40 4.111
341.50 4.107
341.60 4.102
341.70 4.098
341.80 4.093
341.90 4.089
342.00 4.084
342.10 4.08
342.20 4.075
342.30 4.071
342.40 4.066
342.50 4.062
342.60 4.058
342.70 4.053
342.80 4.049
342.90 4.044
343.00 4.04
343.10 4.035
343.20 4.031
343.30 4.027
343.40 4.022
343.50 4.018
343.60 4.013
343.70 4.009
343.80 4.005
343.90 4
344.00 3.996
344.10 3.992
344.20 3.987
344.30 3.983
344.40 3.979
344.50 3.974
344.60 3.97
344.70 3.966
344.80 3.961
344.90 3.957
345.00 3.953
345.10 3.948
345.20 3.944
345.30 3.94
345.40 3.935
345.50 3.931
345.60 3.927
345.70 3.923
345.80 3.918
345.90 3.914
346.00 3.91
346.10 3.906
346.20 3.901
346.30 3.897
346.40 3.893
346.50 3.889
346.60 3.885
346.70 3.88
346.80 3.876
346.90 3.872
347.00 3.868
347.10 3.864
347.20 3.859
347.30 3.855
347.40 3.851
347.50 3.847
347.60 3.843
347.70 3.839
347.80 3.834
347.90 3.83
348.00 3.826
348.10 3.822
348.20 3.818
348.30 3.814
348.40 3.81
348.50 3.806
348.60 3.802
348.70 3.797
348.80 3.793
348.90 3.789
349.00 3.785
349.10 3.781
349.20 3.777
349.30 3.773
349.40 3.769
349.50 3.765
349.60 3.761
349.70 3.757
349.80 3.753
349.90 3.749
350.00 3.745
350.10 3.741
350.20 3.737
350.30 3.733
350.40 3.729
350.50 3.725
350.60 3.721
350.70 3.717
350.80 3.713
350.90 3.709
351.00 3.705
351.10 3.701
351.20 3.697
351.30 3.693
351.40 3.689
351.50 3.685
351.60 3.681
351.70 3.677
351.80 3.673
351.90 3.669
352.00 3.665
352.10 3.661
352.20 3.658
352.30 3.654
352.40 3.65
352.50 3.646
352.60 3.642
352.70 3.638
352.80 3.634
352.90 3.63
353.00 3.627
353.10 3.623
353.20 3.619
353.30 3.615
353.40 3.611
353.50 3.607
353.60 3.603
353.70 3.6
353.80 3.596
353.90 3.592
354.00 3.588
354.10 3.584
354.20 3.581
354.30 3.577
354.40 3.573
354.50 3.569
354.60 3.565
354.70 3.562
354.80 3.558
354.90 3.554
355.00 3.55
355.10 3.547
355.20 3.543
355.30 3.539
355.40 3.535
355.50 3.532
355.60 3.528
355.70 3.524
355.80 3.52
355.90 3.517
356.00 3.513
356.10 3.509
356.20 3.506
356.30 3.502
356.40 3.498
356.50 3.495
356.60 3.491
356.70 3.487
356.80 3.484
356.90 3.48
357.00 3.476
357.10 3.473
357.20 3.469
357.30 3.465
357.40 3.462
357.50 3.458
357.60 3.454
357.70 3.451
357.80 3.447
357.90 3.443
358.00 3.44
358.10 3.436
358.20 3.433
358.30 3.429
358.40 3.425
358.50 3.422
358.60 3.418
358.70 3.415
358.80 3.411
358.90 3.407
359.00 3.404
359.10 3.4
359.20 3.397
359.30 3.393
359.40 3.39
359.50 3.386
359.60 3.383
359.70 3.379
359.80 3.376
359.90 3.372
360.00 3.368
360.10 3.365
360.20 3.361
360.30 3.358
360.40 3.354
360.50 3.351
360.60 3.347
360.70 3.344
360.80 3.34
360.90 3.337
361.00 3.334
361.10 3.33
361.20 3.327
361.30 3.323
361.40 3.32
361.50 3.316
361.60 3.313
361.70 3.309
361.80 3.306
361.90 3.302
362.00 3.299
362.10 3.296
362.20 3.292
362.30 3.289
362.40 3.285
362.50 3.282
362.60 3.279
362.70 3.275
362.80 3.272
362.90 3.268
363.00 3.265
363.10 3.262
363.20 3.258
363.30 3.255
363.40 3.251
363.50 3.248
363.60 3.245
363.70 3.241
363.80 3.238
363.90 3.235
364.00 3.231
364.10 3.228
364.20 3.225
364.30 3.221
364.40 3.218
364.50 3.215
364.60 3.211
364.70 3.208
364.80 3.205
364.90 3.201
365.00 3.198
365.10 3.195
365.20 3.192
365.30 3.188
365.40 3.185
365.50 3.182
365.60 3.178
365.70 3.175
365.80 3.172
365.90 3.169
366.00 3.165
366.10 3.162
366.20 3.159
366.30 3.155
366.40 3.152
366.50 3.149
366.60 3.146
366.70 3.142
366.80 3.139
366.90 3.136
367.00 3.133
367.10 3.129
367.20 3.126
367.30 3.123
367.40 3.12
367.50 3.116
367.60 3.113
367.70 3.11
367.80 3.107
367.90 3.103
368.00 3.1
368.10 3.097
368.20 3.094
368.30 3.09
368.40 3.087
368.50 3.084
368.60 3.081
368.70 3.077
368.80 3.074
368.90 3.071
369.00 3.068
369.10 3.065
369.20 3.061
369.30 3.058
369.40 3.055
369.50 3.052
369.60 3.049
369.70 3.045
369.80 3.042
369.90 3.039
370.00 3.036
370.10 3.033
370.20 3.03
370.30 3.026
370.40 3.023
370.50 3.02
370.60 3.017
370.70 3.014
370.80 3.011
370.90 3.008
371.00 3.005
371.10 3.002
371.20 2.998
371.30 2.995
371.40 2.992
371.50 2.989
371.60 2.986
371.70 2.983
371.80 2.98
371.90 2.977
372.00 2.974
372.10 2.971
372.20 2.968
372.30 2.965
372.40 2.962
372.50 2.959
372.60 2.956
372.70 2.952
372.80 2.949
372.90 2.946
373.00 2.943
373.10 2.94
373.20 2.937
373.30 2.934
373.40 2.931
373.50 2.928
373.60 2.925
373.70 2.923
373.80 2.92
373.90 2.917
374.00 2.914
374.10 2.911
374.20 2.908
374.30 2.905
374.40 2.902
374.50 2.899
374.60 2.896
374.70 2.893
374.80 2.89
374.90 2.887
375.00 2.884
375.10 2.881
375.20 2.878
375.30 2.875
375.40 2.872
375.50 2.869
375.60 2.866
375.70 2.863
375.80 2.861
375.90 2.858
376.00 2.855
376.10 2.852
376.20 2.849
376.30 2.846
376.40 2.843
376.50 2.84
376.60 2.838
376.70 2.835
376.80 2.832
376.90 2.829
377.00 2.826
377.10 2.823
377.20 2.821
377.30 2.818
377.40 2.815
377.50 2.812
377.60 2.809
377.70 2.807
377.80 2.804
377.90 2.801
378.00 2.798
378.10 2.795
378.20 2.793
378.30 2.79
378.40 2.787
378.50 2.784
378.60 2.782
378.70 2.779
378.80 2.776
378.90 2.774
379.00 2.771
379.10 2.768
379.20 2.765
379.30 2.763
379.40 2.76
379.50 2.757
379.60 2.755
379.70 2.752
379.80 2.749
379.90 2.747
380.00 2.744
380.10 2.741
380.20 2.739
380.30 2.736
380.40 2.734
380.50 2.731
380.60 2.728
380.70 2.726
380.80 2.723
380.90 2.721
381.00 2.718
381.10 2.716
381.20 2.713
381.30 2.71
381.40 2.708
381.50 2.705
381.60 2.703
381.70 2.7
381.80 2.697
381.90 2.695
382.00 2.692
382.10 2.689
382.20 2.687
382.30 2.684
382.40 2.682
382.50 2.679
382.60 2.676
382.70 2.674
382.80 2.671
382.90 2.668
383.00 2.666
383.10 2.663
383.20 2.661
383.30 2.658
383.40 2.656
383.50 2.653
383.60 2.651
383.70 2.648
383.80 2.646
383.90 2.644
384.00 2.641
384.10 2.639
384.20 2.637
384.30 2.635
384.40 2.632
384.50 2.63
384.60 2.628
384.70 2.626
384.80 2.623
384.90 2.621
385.00 2.619
385.10 2.616
385.20 2.614
385.30 2.612
385.40 2.609
385.50 2.607
385.60 2.604
385.70 2.602
385.80 2.599
385.90 2.597
386.00 2.594
386.10 2.592
386.20 2.589
386.30 2.587
386.40 2.584
386.50 2.581
386.60 2.579
386.70 2.576
386.80 2.573
386.90 2.57
387.00 2.568
387.10 2.565
387.20 2.562
387.30 2.559
387.40 2.556
387.50 2.553
387.60 2.551
387.70 2.548
387.80 2.545
387.90 2.542
388.00 2.539
388.10 2.536
388.20 2.533
388.30 2.53
388.40 2.528
388.50 2.525
388.60 2.522
388.70 2.52
388.80 2.518
388.90 2.515
389.00 2.513
389.10 2.511
389.20 2.509
389.30 2.507
389.40 2.506
389.50 2.504
389.60 2.503
389.70 2.501
389.80 2.5
389.90 2.498
390.00 2.497
390.10 2.495
390.20 2.494
390.30 2.492
390.40 2.49
390.50 2.489
390.60 2.487
390.70 2.486
390.80 2.484
390.90 2.482
391.00 2.481
391.10 2.479
391.20 2.477
391.30 2.475
391.40 2.473
391.50 2.471
391.60 2.47
391.70 2.468
391.80 2.465
391.90 2.463
392.00 2.461
392.10 2.459
392.20 2.457
392.30 2.455
392.40 2.452
392.50 2.45
392.60 2.447
392.70 2.445
392.80 2.442
392.90 2.44
393.00 2.437
393.10 2.434
393.20 2.432
393.30 2.429
393.40 2.426
393.50 2.423
393.60 2.42
393.70 2.417
393.80 2.414
393.90 2.411
394.00 2.408
394.10 2.404
394.20 2.401
394.30 2.398
394.40 2.394
394.50 2.391
394.60 2.387
394.70 2.383
394.80 2.38
394.90 2.376
395.00 2.372
395.10 2.368
395.20 2.364
395.30 2.36
395.40 2.356
395.50 2.352
395.60 2.348
395.70 2.344
395.80 2.34
395.90 2.335
396.00 2.331
396.10 2.327
396.20 2.323
396.30 2.318
396.40 2.314
396.50 2.31
396.60 2.306
396.70 2.302
396.80 2.298
396.90 2.295
397.00 2.291
397.10 2.29
397.20 2.29
397.30 2.29
397.40 2.29
397.50 2.29
397.60 2.29
397.70 2.29
397.80 2.29
397.90 2.291
398.00 2.291
398.10 2.291
398.20 2.291
398.30 2.291
398.40 2.292
398.50 2.292
398.60 2.292
398.70 2.292
398.80 2.292
398.90 2.292
399.00 2.291
399.10 2.291
399.20 2.291
399.30 2.291
399.40 2.29
399.50 2.29
399.60 2.289
399.70 2.289
399.80 2.288
399.90 2.288
400.00 2.287
400.10 2.286
400.20 2.285
400.30 2.285
400.40 2.284
400.50 2.283
400.60 2.282
400.70 2.281
400.80 2.28
400.90 2.278
401.00 2.277
401.10 2.276
401.20 2.275
401.30 2.273
401.40 2.272
401.50 2.27
401.60 2.269
401.70 2.267
401.80 2.266
401.90 2.264
402.00 2.263
402.10 2.261
402.20 2.259
402.30 2.258
402.40 2.256
402.50 2.254
402.60 2.252
402.70 2.25
402.80 2.248
402.90 2.246
403.00 2.244
403.10 2.242
403.20 2.24
403.30 2.238
403.40 2.236
403.50 2.234
403.60 2.232
403.70 2.229
403.80 2.227
403.90 2.225
404.00 2.222
404.10 2.22
404.20 2.218
404.30 2.215
404.40 2.213
404.50 2.21
404.60 2.207
404.70 2.205
404.80 2.202
404.90 2.199
405.00 2.196
405.10 2.194
405.20 2.191
405.30 2.188
405.40 2.185
405.50 2.182
405.60 2.178
405.70 2.175
405.80 2.172
405.90 2.169
406.00 2.165
406.10 2.162
406.20 2.158
406.30 2.155
406.40 2.151
406.50 2.147
406.60 2.144
406.70 2.14
406.80 2.136
406.90 2.132
407.00 2.127
407.10 2.123
407.20 2.119
407.30 2.114
407.40 2.11
407.50 2.105
407.60 2.101
407.70 2.096
407.80 2.091
407.90 2.086
408.00 2.081
408.10 2.075
408.20 2.07
408.30 2.064
408.40 2.059
408.50 2.053
408.60 2.047
408.70 2.041
408.80 2.035
408.90 2.029
409.00 2.023
409.10 2.017
409.20 2.011
409.30 2.004
409.40 1.998
409.50 1.992
409.60 1.986
409.70 1.981
409.80 1.976
409.90 1.972
410.00 1.97
410.10 1.97
410.20 1.971
410.30 1.966
410.40 1.963
410.50 1.962
410.60 1.963
410.70 1.965
410.80 1.967
410.90 1.97
411.00 1.972
411.10 1.975
411.20 1.978
411.30 1.98
411.40 1.983
411.50 1.986
411.60 1.988
411.70 1.99
411.80 1.992
411.90 1.995
412.00 1.996
412.10 1.998
412.20 2
412.30 2.002
412.40 2.003
412.50 2.004
412.60 2.006
412.70 2.007
412.80 2.008
412.90 2.009
413.00 2.01
413.10 2.01
413.20 2.011
413.30 2.011
413.40 2.012
413.50 2.012
413.60 2.012
413.70 2.013
413.80 2.013
413.90 2.013
414.00 2.013
414.10 2.013
414.20 2.012
414.30 2.012
414.40 2.012
414.50 2.011
414.60 2.011
414.70 2.01
414.80 2.01
414.90 2.009
415.00 2.009
415.10 2.008
415.20 2.007
415.30 2.006
415.40 2.005
415.50 2.005
415.60 2.004
415.70 2.003
415.80 2.002
415.90 2.001
416.00 2
416.10 1.999
416.20 1.997
416.30 1.996
416.40 1.995
416.50 1.994
416.60 1.993
416.70 1.992
416.80 1.99
416.90 1.989
417.00 1.988
417.10 1.986
417.20 1.985
417.30 1.984
417.40 1.982
417.50 1.981
417.60 1.979
417.70 1.978
417.80 1.977
417.90 1.975
418.00 1.974
418.10 1.972
418.20 1.971
418.30 1.969
418.40 1.968
418.50 1.966
418.60 1.965
418.70 1.963
418.80 1.962
418.90 1.96
419.00 1.959
419.10 1.957
419.20 1.955
419.30 1.954
419.40 1.952
419.50 1.951
419.60 1.949
419.70 1.947
419.80 1.946
419.90 1.944
420.00 1.943
420.10 1.941
420.20 1.939
420.30 1.938
420.40 1.936
420.50 1.934
420.60 1.933
420.70 1.931
420.80 1.929
420.90 1.928
421.00 1.926
421.10 1.924
421.20 1.923
421.30 1.921
421.40 1.919
421.50 1.917
421.60 1.916
421.70 1.914
421.80 1.912
421.90 1.911
422.00 1.909
422.10 1.907
422.20 1.905
422.30 1.904
422.40 1.902
422.50 1.9
422.60 1.898
422.70 1.897
422.80 1.895
422.90 1.893
423.00 1.891
423.10 1.89
423.20 1.888
423.30 1.886
423.40 1.884
423.50 1.883
423.60 1.881
423.70 1.879
423.80 1.877
423.90 1.875
424.00 1.874
424.10 1.872
424.20 1.87
424.30 1.868
424.40 1.866
424.50 1.865
424.60 1.863
424.70 1.861
424.80 1.859
424.90 1.857
425.00 1.855
425.10 1.853
425.20 1.852
425.30 1.85
425.40 1.848
425.50 1.846
425.60 1.844
425.70 1.842
425.80 1.84
425.90 1.838
426.00 1.836
426.10 1.834
426.20 1.832
426.30 1.83
426.40 1.828
426.50 1.826
426.60 1.824
426.70 1.822
426.80 1.82
426.90 1.818
427.00 1.816
427.10 1.814
427.20 1.812
427.30 1.81
427.40 1.808
427.50 1.805
427.60 1.803
427.70 1.801
427.80 1.799
427.90 1.796
428.00 1.794
428.10 1.792
428.20 1.789
428.30 1.787
428.40 1.785
428.50 1.782
428.60 1.78
428.70 1.777
428.80 1.774
428.90 1.772
429.00 1.769
429.10 1.766
429.20 1.764
429.30 1.761
429.40 1.758
429.50 1.755
429.60 1.752
429.70 1.749
429.80 1.746
429.90 1.743
430.00 1.739
430.10 1.736
430.20 1.733
430.30 1.729
430.40 1.726
430.50 1.722
430.60 1.718
430.70 1.714
430.80 1.71
430.90 1.706
431.00 1.702
431.10 1.698
431.20 1.693
431.30 1.689
431.40 1.684
431.50 1.679
431.60 1.674
431.70 1.669
431.80 1.664
431.90 1.659
432.00 1.653
432.10 1.648
432.20 1.642
432.30 1.636
432.40 1.63
432.50 1.624
432.60 1.618
432.70 1.611
432.80 1.605
432.90 1.598
433.00 1.591
433.10 1.585
433.20 1.578
433.30 1.571
433.40 1.565
433.50 1.558
433.60 1.552
433.70 1.546
433.80 1.54
433.90 1.534
434.00 1.529
434.10 1.528
434.20 1.53
434.30 1.534
434.40 1.537
434.50 1.541
434.60 1.544
434.70 1.548
434.80 1.552
434.90 1.556
435.00 1.56
435.10 1.564
435.20 1.568
435.30 1.572
435.40 1.575
435.50 1.579
435.60 1.583
435.70 1.586
435.80 1.589
435.90 1.592
436.00 1.595
436.10 1.598
436.20 1.6
436.30 1.603
436.40 1.605
436.50 1.607
436.60 1.609
436.70 1.611
436.80 1.612
436.90 1.614
437.00 1.615
437.10 1.616
437.20 1.618
437.30 1.619
437.40 1.62
437.50 1.62
437.60 1.621
437.70 1.622
437.80 1.622
437.90 1.623
438.00 1.623
438.10 1.623
438.20 1.623
438.30 1.623
438.40 1.624
438.50 1.624
438.60 1.623
438.70 1.623
438.80 1.623
438.90 1.623
439.00 1.623
439.10 1.622
439.20 1.622
439.30 1.621
439.40 1.621
439.50 1.62
439.60 1.62
439.70 1.619
439.80 1.618
439.90 1.618
440.00 1.617
440.10 1.616
440.20 1.616
440.30 1.615
440.40 1.614
440.50 1.613
440.60 1.612
440.70 1.611
440.80 1.61
440.90 1.609
441.00 1.609
441.10 1.608
441.20 1.607
441.30 1.606
441.40 1.605
441.50 1.604
441.60 1.603
441.70 1.602
441.80 1.6
441.90 1.599
442.00 1.598
442.10 1.597
442.20 1.596
442.30 1.595
442.40 1.594
442.50 1.593
442.60 1.592
442.70 1.59
442.80 1.589
442.90 1.588
443.00 1.587
443.10 1.586
443.20 1.585
443.30 1.583
443.40 1.582
443.50 1.581
443.60 1.58
443.70 1.579
443.80 1.577
443.90 1.576
444.00 1.575
444.10 1.574
444.20 1.573
444.30 1.571
444.40 1.57
444.50 1.569
444.60 1.568
444.70 1.566
444.80 1.565
444.90 1.564
445.00 1.563
445.10 1.561
445.20 1.56
445.30 1.559
445.40 1.558
445.50 1.556
445.60 1.555
445.70 1.554
445.80 1.553
445.90 1.551
446.00 1.55
446.10 1.549
446.20 1.548
446.30 1.546
446.40 1.545
446.50 1.544
446.60 1.543
446.70 1.541
446.80 1.54
446.90 1.539
447.00 1.538
447.10 1.536
447.20 1.535
447.30 1.534
447.40 1.533
447.50 1.531
447.60 1.53
447.70 1.529
447.80 1.527
447.90 1.526
448.00 1.525
448.10 1.524
448.20 1.522
448.30 1.521
448.40 1.52
448.50 1.519
448.60 1.517
448.70 1.516
448.80 1.515
448.90 1.514
449.00 1.512
449.10 1.511
449.20 1.51
449.30 1.509
449.40 1.507
449.50 1.506
449.60 1.505
449.70 1.504
449.80 1.502
449.90 1.501
450.00 1.5
450.10 1.499
450.20 1.497
450.30 1.496
450.40 1.495
450.50 1.493
450.60 1.492
450.70 1.491
450.80 1.49
450.90 1.489
451.00 1.487
451.10 1.486
451.20 1.485
451.30 1.484
451.40 1.482
451.50 1.481
451.60 1.48
451.70 1.479
451.80 1.477
451.90 1.476
452.00 1.475
452.10 1.474
452.20 1.472
452.30 1.471
452.40 1.47
452.50 1.469
452.60 1.467
452.70 1.466
452.80 1.465
452.90 1.464
453.00 1.463
453.10 1.461
453.20 1.46
453.30 1.459
453.40 1.458
453.50 1.456
453.60 1.455
453.70 1.454
453.80 1.453
453.90 1.452
454.00 1.45
454.10 1.449
454.20 1.448
454.30 1.447
454.40 1.445
454.50 1.444
454.60 1.443
454.70 1.442
454.80 1.441
454.90 1.439
455.00 1.438
455.10 1.437
455.20 1.436
455.30 1.435
455.40 1.433
455.50 1.432
455.60 1.431
455.70 1.43
455.80 1.429
455.90 1.427
456.00 1.426
456.10 1.425
456.20 1.424
456.30 1.423
456.40 1.421
456.50 1.42
456.60 1.419
456.70 1.418
456.80 1.417
456.90 1.415
457.00 1.414
457.10 1.413
457.20 1.412
457.30 1.411
457.40 1.41
457.50 1.408
457.60 1.407
457.70 1.406
457.80 1.405
457.90 1.404
458.00 1.402
458.10 1.401
458.20 1.4
458.30 1.399
458.40 1.398
458.50 1.397
458.60 1.395
458.70 1.394
458.80 1.393
458.90 1.392
459.00 1.391
459.10 1.39
459.20 1.388
459.30 1.387
459.40 1.386
459.50 1.385
459.60 1.384
459.70 1.383
459.80 1.381
459.90 1.38
460.00 1.379
460.10 1.378
460.20 1.377
460.30 1.376
460.40 1.375
460.50 1.373
460.60 1.372
460.70 1.371
460.80 1.37
460.90 1.369
461.00 1.368
461.10 1.367
461.20 1.365
461.30 1.364
461.40 1.363
461.50 1.362
461.60 1.361
461.70 1.36
461.80 1.359
461.90 1.357
462.00 1.356
462.10 1.355
462.20 1.354
462.30 1.353
462.40 1.352
462.50 1.351
462.60 1.35
462.70 1.348
462.80 1.347
462.90 1.346
463.00 1.345
463.10 1.344
463.20 1.343
463.30 1.342
463.40 1.341
463.50 1.339
463.60 1.338
463.70 1.337
463.80 1.336
463.90 1.335
464.00 1.334
464.10 1.333
464.20 1.332
464.30 1.331
464.40 1.329
464.50 1.328
464.60 1.327
464.70 1.326
464.80 1.325
464.90 1.324
465.00 1.323
465.10 1.322
465.20 1.321
465.30 1.319
465.40 1.318
465.50 1.317
465.60 1.316
465.70 1.315
465.80 1.314
465.90 1.313
466.00 1.312
466.10 1.311
466.20 1.31
466.30 1.309
466.40 1.307
466.50 1.306
466.60 1.305
466.70 1.304
466.80 1.303
466.90 1.302
467.00 1.301
467.10 1.3
467.20 1.299
467.30 1.298
467.40 1.297
467.50 1.296
467.60 1.294
467.70 1.293
467.80 1.292
467.90 1.291
468.00 1.29
468.10 1.289
468.20 1.288
468.30 1.287
468.40 1.286
468.50 1.285
468.60 1.284
468.70 1.283
468.80 1.282
468.90 1.28
469.00 1.279
469.10 1.278
469.20 1.277
469.30 1.276
469.40 1.275
469.50 1.274
469.60 1.273
469.70 1.272
469.80 1.271
469.90 1.27
470.00 1.269
470.10 1.268
470.20 1.267
470.30 1.266
470.40 1.264
470.50 1.263
470.60 1.262
470.70 1.261
470.80 1.26
470.90 1.259
471.00 1.258
471.10 1.257
471.20 1.256
471.30 1.255
471.40 1.254
471.50 1.253
471.60 1.252
471.70 1.251
471.80 1.25
471.90 1.249
472.00 1.248
472.10 1.246
472.20 1.245
472.30 1.244
472.40 1.243
472.50 1.242
472.60 1.241
472.70 1.24
472.80 1.239
472.90 1.238
473.00 1.237
473.10 1.236
473.20 1.235
473.30 1.234
473.40 1.233
473.50 1.232
473.60 1.231
473.70 1.23
473.80 1.228
473.90 1.227
474.00 1.226
474.10 1.225
474.20 1.224
474.30 1.223
474.40 1.222
474.50 1.221
474.60 1.22
474.70 1.219
474.80 1.218
474.90 1.217
475.00 1.216
475.10 1.215
475.20 1.214
475.30 1.212
475.40 1.211
475.50 1.21
475.60 1.209
475.70 1.208
475.80 1.207
475.90 1.206
476.00 1.205
476.10 1.204
476.20 1.203
476.30 1.202
476.40 1.201
476.50 1.199
476.60 1.198
476.70 1.197
476.80 1.196
476.90 1.195
477.00 1.194
477.10 1.193
477.20 1.192
477.30 1.19
477.40 1.189
477.50 1.188
477.60 1.187
477.70 1.186
477.80 1.185
477.90 1.184
478.00 1.182
478.10 1.181
478.20 1.18
478.30 1.179
478.40 1.178
478.50 1.176
478.60 1.175
478.70 1.174
478.80 1.173
478.90 1.172
479.00 1.17
479.10 1.169
479.20 1.168
479.30 1.166
479.40 1.165
479.50 1.164
479.60 1.162
479.70 1.161
479.80 1.16
479.90 1.159
480.00 1.157
480.10 1.156
480.20 1.154
480.30 1.153
480.40 1.151
480.50 1.15
480.60 1.148
480.70 1.147
480.80 1.145
480.90 1.144
481.00 1.142
481.10 1.141
481.20 1.139
481.30 1.137
481.40 1.135
481.50 1.133
481.60 1.132
481.70 1.13
481.80 1.128
481.90 1.126
482.00 1.124
482.10 1.122
482.20 1.12
482.30 1.118
482.40 1.116
482.50 1.113
482.60 1.111
482.70 1.108
482.80 1.106
482.90 1.104
483.00 1.101
483.10 1.099
483.20 1.096
483.30 1.093
483.40 1.09
483.50 1.087
483.60 1.084
483.70 1.08
483.80 1.077
483.90 1.074
484.00 1.071
484.10 1.068
484.20 1.064
484.30 1.06
484.40 1.056
484.50 1.053
484.60 1.049
484.70 1.044
484.80 1.04
484.90 1.036
485.00 1.031
485.10 1.027
485.20 1.023
485.30 1.018
485.40 1.014
485.50 1.009
485.60 1.005
485.70 1.001
485.80 0.9973
485.90 0.9944
486.00 0.995
486.10 1.007
486.20 1.001
486.30 0.9913
486.40 0.9915
486.50 0.9927
486.60 0.9949
486.70 0.9976
486.80 1
486.90 1.003
487.00 1.006
487.10 1.009
487.20 1.012
487.30 1.015
487.40 1.018
487.50 1.02
487.60 1.023
487.70 1.025
487.80 1.028
487.90 1.03
488.00 1.032
488.10 1.034
488.20 1.036
488.30 1.037
488.40 1.039
488.50 1.04
488.60 1.042
488.70 1.043
488.80 1.044
488.90 1.046
489.00 1.047
489.10 1.049
489.20 1.049
489.30 1.05
489.40 1.05
489.50 1.051
489.60 1.052
489.70 1.052
489.80 1.053
489.90 1.053
490.00 1.054
490.10 1.054
490.20 1.055
490.30 1.055
490.40 1.055
490.50 1.055
490.60 1.055
490.70 1.055
490.80 1.055
490.90 1.055
491.00 1.055
491.10 1.055
491.20 1.055
491.30 1.054
491.40 1.054
491.50 1.054
491.60 1.054
491.70 1.053
491.80 1.053
491.90 1.053
492.00 1.053
492.10 1.052
492.20 1.052
492.30 1.051
492.40 1.051
492.50 1.05
492.60 1.05
492.70 1.049
492.80 1.049
492.90 1.049
493.00 1.048
493.10 1.048
493.20 1.047
493.30 1.046
493.40 1.046
493.50 1.045
493.60 1.045
493.70 1.044
493.80 1.044
493.90 1.043
494.00 1.042
494.10 1.042
494.20 1.041
494.30 1.04
494.40 1.04
494.50 1.039
494.60 1.039
494.70 1.038
494.80 1.037
494.90 1.037
495.00 1.036
495.10 1.035
495.20 1.035
495.30 1.034
495.40 1.033
495.50 1.033
495.60 1.032
495.70 1.031
495.80 1.03
495.90 1.03
496.00 1.029
496.10 1.028
496.20 1.028
496.30 1.027
496.40 1.026
496.50 1.026
496.60 1.025
496.70 1.024
496.80 1.023
496.90 1.023
497.00 1.022
497.10 1.021
497.20 1.021
497.30 1.02
497.40 1.019
497.50 1.018
497.60 1.018
497.70 1.017
497.80 1.016
497.90 1.015
498.00 1.015
498.10 1.014
498.20 1.013
498.30 1.013
498.40 1.012
498.50 1.011
498.60 1.01
498.70 1.01
498.80 1.009
498.90 1.008
499.00 1.007
499.10 1.007
499.20 1.006
499.30 1.005
499.40 1.004
499.50 1.004
499.60 1.003
499.70 1.002
499.80 1.001
499.90 1.001
500.00 1
500.10 0.9993
500.20 0.9985
500.30 0.9978
500.40 0.997
500.50 0.9963
500.60 0.9956
500.70 0.9948
500.80 0.9941
500.90 0.9934
501.00 0.9926
501.10 0.9919
501.20 0.9911
501.30 0.9904
501.40 0.9897
501.50 0.9889
501.60 0.9882
501.70 0.9874
501.80 0.9867
501.90 0.986
502.00 0.9852
502.10 0.9845
502.20 0.9838
502.30 0.983
502.40 0.9823
502.50 0.9816
502.60 0.9808
502.70 0.9801
502.80 0.9794
502.90 0.9786
503.00 0.9779
503.10 0.9772
503.20 0.9764
503.30 0.9757
503.40 0.975
503.50 0.9742
503.60 0.9735
503.70 0.9728
503.80 0.972
503.90 0.9713
504.00 0.9706
504.10 0.9699
504.20 0.9691
504.30 0.9684
504.40 0.9677
504.50 0.9669
504.60 0.9662
504.70 0.9655
504.80 0.9648
504.90 0.964
505.00 0.9633
505.10 0.9626
505.20 0.9619
505.30 0.9611
505.40 0.9604
505.50 0.9597
505.60 0.959
505.70 0.9583
505.80 0.9575
505.90 0.9568
506.00 0.9561
506.10 0.9554
506.20 0.9547
506.30 0.9539
506.40 0.9532
506.50 0.9525
506.60 0.9518
506.70 0.9511
506.80 0.9504
506.90 0.9497
507.00 0.9489
507.10 0.9482
507.20 0.9475
507.30 0.9468
507.40 0.9461
507.50 0.9454
507.60 0.9447
507.70 0.944
507.80 0.9432
507.90 0.9425
508.00 0.9418
508.10 0.9411
508.20 0.9404
508.30 0.9397
508.40 0.939
508.50 0.9383
508.60 0.9376
508.70 0.9369
508.80 0.9362
508.90 0.9355
509.00 0.9348
509.10 0.9341
509.20 0.9334
509.30 0.9327
509.40 0.932
509.50 0.9313
509.60 0.9306
509.70 0.9299
509.80 0.9292
509.90 0.9285
510.00 0.9278
510.10 0.9271
510.20 0.9264
510.30 0.9257
510.40 0.925
510.50 0.9243
510.60 0.9236
510.70 0.9229
510.80 0.9222
510.90 0.9215
511.00 0.9208
511.10 0.9202
511.20 0.9195
511.30 0.9188
511.40 0.9181
511.50 0.9174
511.60 0.9167
511.70 0.916
511.80 0.9153
511.90 0.9147
512.00 0.914
512.10 0.9133
512.20 0.9126
512.30 0.9119
512.40 0.9112
512.50 0.9106
512.60 0.9099
512.70 0.9092
512.80 0.9085
512.90 0.9078
513.00 0.9072
513.10 0.9065
513.20 0.9058
513.30 0.9051
513.40 0.9044
513.50 0.9038
513.60 0.9031
513.70 0.9024
513.80 0.9018
513.90 0.9011
514.00 0.9004
514.10 0.8997
514.20 0.8991
514.30 0.8984
514.40 0.8977
514.50 0.897
514.60 0.8964
514.70 0.8957
514.80 0.895
514.90 0.8944
515.00 0.8937
515.10 0.893
515.20 0.8924
515.30 0.8917
515.40 0.891
515.50 0.8904
515.60 0.8897
515.70 0.8891
515.80 0.8884
515.90 0.8877
516.00 0.8871
516.10 0.8864
516.20 0.8858
516.30 0.8851
516.40 0.8844
516.50 0.8838
516.60 0.8831
516.70 0.8825
516.80 0.8818
516.90 0.8812
517.00 0.8805
517.10 0.8799
517.20 0.8792
517.30 0.8785
517.40 0.8779
517.50 0.8772
517.60 0.8766
517.70 0.8759
517.80 0.8753
517.90 0.8746
518.00 0.874
518.10 0.8733
518.20 0.8727
518.30 0.872
518.40 0.8714
518.50 0.8708
518.60 0.8701
518.70 0.8695
518.80 0.8688
518.90 0.8682
519.00 0.8675
519.10 0.8669
519.20 0.8662
519.30 0.8656
519.40 0.865
519.50 0.8643
519.60 0.8637
519.70 0.863
519.80 0.8624
519.90 0.8618
520.00 0.8611
520.10 0.8605
520.20 0.8599
520.30 0.8592
520.40 0.8586
520.50 0.858
520.60 0.8573
520.70 0.8567
520.80 0.8561
520.90 0.8554
521.00 0.8548
521.10 0.8542
521.20 0.8535
521.30 0.8529
521.40 0.8523
521.50 0.8516
521.60 0.851
521.70 0.8504
521.80 0.8498
521.90 0.8491
522.00 0.8485
522.10 0.8479
522.20 0.8473
522.30 0.8466
522.40 0.846
522.50 0.8454
522.60 0.8448
522.70 0.8441
522.80 0.8435
522.90 0.8429
523.00 0.8423
523.10 0.8416
523.20 0.841
523.30 0.8404
523.40 0.8398
523.50 0.8392
523.60 0.8386
523.70 0.838
523.80 0.8373
523.90 0.8367
524.00 0.8361
524.10 0.8355
524.20 0.8349
524.30 0.8343
524.40 0.8337
524.50 0.833
524.60 0.8324
524.70 0.8318
524.80 0.8312
524.90 0.8306
525.00 0.83
525.10 0.8294
525.20 0.8288
525.30 0.8282
525.40 0.8276
525.50 0.827
525.60 0.8264
525.70 0.8257
525.80 0.8251
525.90 0.8245
526.00 0.8239
526.10 0.8233
526.20 0.8227
526.30 0.8221
526.40 0.8215
526.50 0.8209
526.60 0.8203
526.70 0.8197
526.80 0.8191
526.90 0.8185
527.00 0.8179
527.10 0.8173
527.20 0.8167
527.30 0.8161
527.40 0.8155
527.50 0.8149
527.60 0.8143
527.70 0.8138
527.80 0.8132
527.90 0.8126
528.00 0.812
528.10 0.8114
528.20 0.8108
528.30 0.8102
528.40 0.8096
528.50 0.809
528.60 0.8084
528.70 0.8078
528.80 0.8073
528.90 0.8067
529.00 0.8061
529.10 0.8055
529.20 0.8049
529.30 0.8043
529.40 0.8037
529.50 0.8032
529.60 0.8026
529.70 0.802
529.80 0.8014
529.90 0.8008
530.00 0.8002
530.10 0.7997
530.20 0.7991
530.30 0.7985
530.40 0.7979
530.50 0.7973
530.60 0.7968
530.70 0.7962
530.80 0.7956
530.90 0.795
531.00 0.7944
531.10 0.7939
531.20 0.7933
531.30 0.7927
531.40 0.7921
531.50 0.7916
531.60 0.791
531.70 0.7904
531.80 0.7899
531.90 0.7893
532.00 0.7887
532.10 0.7881
532.20 0.7876
532.30 0.787
532.40 0.7864
532.50 0.7859
532.60 0.7853
532.70 0.7847
532.80 0.7842
532.90 0.7836
533.00 0.783
533.10 0.7825
533.20 0.7819
533.30 0.7813
533.40 0.7808
533.50 0.7802
533.60 0.7796
533.70 0.7791
533.80 0.7785
533.90 0.7779
534.00 0.7774
534.10 0.7768
534.20 0.7763
534.30 0.7757
534.40 0.7751
534.50 0.7746
534.60 0.774
534.70 0.7735
534.80 0.7729
534.90 0.7724
535.00 0.7718
535.10 0.7712
535.20 0.7707
535.30 0.7701
535.40 0.7696
535.50 0.769
535.60 0.7685
535.70 0.7679
535.80 0.7674
535.90 0.7668
536.00 0.7663
536.10 0.7657
536.20 0.7652
536.30 0.7646
536.40 0.7641
536.50 0.7635
536.60 0.763
536.70 0.7624
536.80 0.7619
536.90 0.7613
537.00 0.7608
537.10 0.7602
537.20 0.7597
537.30 0.7591
537.40 0.7586
537.50 0.7581
537.60 0.7575
537.70 0.757
537.80 0.7564
537.90 0.7559
538.00 0.7553
538.10 0.7548
538.20 0.7543
538.30 0.7537
538.40 0.7532
538.50 0.7526
538.60 0.7521
538.70 0.7516
538.80 0.751
538.90 0.7505
539.00 0.75
539.10 0.7494
539.20 0.7489
539.30 0.7483
539.40 0.7478
539.50 0.7473
539.60 0.7467
539.70 0.7462
539.80 0.7457
539.90 0.7451
540.00 0.7446
540.10 0.7441
540.20 0.7436
540.30 0.743
540.40 0.7425
540.50 0.742
540.60 0.7414
540.70 0.7409
540.80 0.7404
540.90 0.7398
541.00 0.7393
541.10 0.7388
541.20 0.7383
541.30 0.7377
541.40 0.7372
541.50 0.7367
541.60 0.7362
541.70 0.7356
541.80 0.7351
541.90 0.7346
542.00 0.7341
542.10 0.7336
542.20 0.733
542.30 0.7325
542.40 0.732
542.50 0.7315
542.60 0.7309
542.70 0.7304
542.80 0.7299
542.90 0.7294
543.00 0.7289
543.10 0.7284
543.20 0.7278
543.30 0.7273
543.40 0.7268
543.50 0.7263
543.60 0.7258
543.70 0.7253
543.80 0.7247
543.90 0.7242
544.00 0.7237
544.10 0.7232
544.20 0.7227
544.30 0.7222
544.40 0.7217
544.50 0.7212
544.60 0.7207
544.70 0.7201
544.80 0.7196
544.90 0.7191
545.00 0.7186
545.10 0.7181
545.20 0.7176
545.30 0.7171
545.40 0.7166
545.50 0.7161
545.60 0.7156
545.70 0.7151
545.80 0.7146
545.90 0.7141
546.00 0.7135
546.10 0.713
546.20 0.7125
546.30 0.712
546.40 0.7115
546.50 0.711
546.60 0.7105
546.70 0.71
546.80 0.7095
546.90 0.709
547.00 0.7085
547.10 0.708
547.20 0.7075
547.30 0.707
547.40 0.7065
547.50 0.706
547.60 0.7055
547.70 0.705
547.80 0.7045
547.90 0.7041
548.00 0.7036
548.10 0.7031
548.20 0.7026
548.30 0.7021
548.40 0.7016
548.50 0.7011
548.60 0.7006
548.70 0.7001
548.80 0.6996
548.90 0.6991
549.00 0.6986
549.10 0.6981
549.20 0.6976
549.30 0.6972
549.40 0.6967
549.50 0.6962
549.60 0.6957
549.70 0.6952
549.80 0.6947
549.90 0.6942
550.00 0.6937
550.10 0.6933
550.20 0.6928
550.30 0.6923
550.40 0.6918
550.50 0.6913
550.60 0.6908
550.70 0.6903
550.80 0.6899
550.90 0.6894
551.00 0.6889
551.10 0.6884
551.20 0.6879
551.30 0.6874
551.40 0.687
551.50 0.6865
551.60 0.686
551.70 0.6855
551.80 0.685
551.90 0.6846
552.00 0.6841
552.10 0.6836
552.20 0.6831
552.30 0.6827
552.40 0.6822
552.50 0.6817
552.60 0.6812
552.70 0.6808
552.80 0.6803
552.90 0.6798
553.00 0.6793
553.10 0.6789
553.20 0.6784
553.30 0.6779
553.40 0.6774
553.50 0.677
553.60 0.6765
553.70 0.676
553.80 0.6756
553.90 0.6751
554.00 0.6746
554.10 0.6741
554.20 0.6737
554.30 0.6732
554.40 0.6727
554.50 0.6723
554.60 0.6718
554.70 0.6713
554.80 0.6709
554.90 0.6704
555.00 0.6699
555.10 0.6695
555.20 0.669
555.30 0.6685
555.40 0.6681
555.50 0.6676
555.60 0.6671
555.70 0.6667
555.80 0.6662
555.90 0.6658
556.00 0.6653
556.10 0.6648
556.20 0.6644
556.30 0.6639
556.40 0.6634
556.50 0.663
556.60 0.6625
556.70 0.6621
556.80 0.6616
556.90 0.6612
557.00 0.6607
557.10 0.6602
557.20 0.6598
557.30 0.6593
557.40 0.6589
557.50 0.6584
557.60 0.658
557.70 0.6575
557.80 0.657
557.90 0.6566
558.00 0.6561
558.10 0.6557
558.20 0.6552
558.30 0.6548
558.40 0.6543
558.50 0.6539
558.60 0.6534
558.70 0.653
558.80 0.6525
558.90 0.6521
559.00 0.6516
559.10 0.6512
559.20 0.6507
559.30 0.6503
559.40 0.6498
559.50 0.6494
559.60 0.6489
559.70 0.6485
559.80 0.648
559.90 0.6476
560.00 0.6471
560.10 0.6467
560.20 0.6462
560.30 0.6458
560.40 0.6454
560.50 0.6449
560.60 0.6445
560.70 0.644
560.80 0.6436
560.90 0.6431
561.00 0.6427
561.10 0.6423
561.20 0.6418
561.30 0.6414
561.40 0.6409
561.50 0.6405
561.60 0.6401
561.70 0.6396
561.80 0.6392
561.90 0.6387
562.00 0.6383
562.10 0.6379
562.20 0.6374
562.30 0.637
562.40 0.6365
562.50 0.6361
562.60 0.6357
562.70 0.6352
562.80 0.6348
562.90 0.6344
563.00 0.6339
563.10 0.6335
563.20 0.6331
563.30 0.6326
563.40 0.6322
563.50 0.6318
563.60 0.6313
563.70 0.6309
563.80 0.6305
563.90 0.63
564.00 0.6296
564.10 0.6292
564.20 0.6287
564.30 0.6283
564.40 0.6279
564.50 0.6274
564.60 0.627
564.70 0.6266
564.80 0.6262
564.90 0.6257
565.00 0.6253
565.10 0.6249
565.20 0.6245
565.30 0.624
565.40 0.6236
565.50 0.6232
565.60 0.6228
565.70 0.6223
565.80 0.6219
565.90 0.6215
566.00 0.6211
566.10 0.6206
566.20 0.6202
566.30 0.6198
566.40 0.6194
566.50 0.6189
566.60 0.6185
566.70 0.6181
566.80 0.6177
566.90 0.6173
567.00 0.6168
567.10 0.6164
567.20 0.616
567.30 0.6156
567.40 0.6152
567.50 0.6147
567.60 0.6143
567.70 0.6139
567.80 0.6135
567.90 0.6131
568.00 0.6127
568.10 0.6122
568.20 0.6118
568.30 0.6114
568.40 0.611
568.50 0.6106
568.60 0.6102
568.70 0.6097
568.80 0.6093
568.90 0.6089
569.00 0.6085
569.10 0.6081
569.20 0.6077
569.30 0.6073
569.40 0.6069
569.50 0.6064
569.60 0.606
569.70 0.6056
569.80 0.6052
569.90 0.6048
570.00 0.6044
570.10 0.604
570.20 0.6036
570.30 0.6032
570.40 0.6028
570.50 0.6023
570.60 0.6019
570.70 0.6015
570.80 0.6011
570.90 0.6007
571.00 0.6003
571.10 0.5999
571.20 0.5995
571.30 0.5991
571.40 0.5987
571.50 0.5983
571.60 0.5979
571.70 0.5975
571.80 0.5971
571.90 0.5967
572.00 0.5963
572.10 0.5959
572.20 0.5955
572.30 0.5951
572.40 0.5947
572.50 0.5943
572.60 0.5939
572.70 0.5935
572.80 0.5931
572.90 0.5927
573.00 0.5923
573.10 0.5919
573.20 0.5915
573.30 0.5911
573.40 0.5907
573.50 0.5903
573.60 0.5899
573.70 0.5895
573.80 0.5891
573.90 0.5887
574.00 0.5883
574.10 0.5879
574.20 0.5875
574.30 0.5871
574.40 0.5867
574.50 0.5863
574.60 0.5859
574.70 0.5855
574.80 0.5851
574.90 0.5847
575.00 0.5843
575.10 0.5839
575.20 0.5836
575.30 0.5832
575.40 0.5828
575.50 0.5824
575.60 0.582
575.70 0.5816
575.80 0.5812
575.90 0.5808
576.00 0.5804
576.10 0.58
576.20 0.5797
576.30 0.5793
576.40 0.5789
576.50 0.5785
576.60 0.5781
576.70 0.5777
576.80 0.5773
576.90 0.5769
577.00 0.5766
577.10 0.5762
577.20 0.5758
577.30 0.5754
577.40 0.575
577.50 0.5746
577.60 0.5742
577.70 0.5739
577.80 0.5735
577.90 0.5731
578.00 0.5727
578.10 0.5723
578.20 0.5719
578.30 0.5716
578.40 0.5712
578.50 0.5708
578.60 0.5704
578.70 0.57
578.80 0.5697
578.90 0.5693
579.00 0.5689
579.10 0.5685
579.20 0.5681
579.30 0.5678
579.40 0.5674
579.50 0.567
579.60 0.5666
579.70 0.5663
579.80 0.5659
579.90 0.5655
580.00 0.5651
580.10 0.5647
580.20 0.5644
580.30 0.564
580.40 0.5636
580.50 0.5632
580.60 0.5629
580.70 0.5625
580.80 0.5621
580.90 0.5617
581.00 0.5614
581.10 0.561
581.20 0.5606
581.30 0.5603
581.40 0.5599
581.50 0.5595
581.60 0.5591
581.70 0.5588
581.80 0.5584
581.90 0.558
582.00 0.5577
582.10 0.5573
582.20 0.5569
582.30 0.5565
582.40 0.5562
582.50 0.5558
582.60 0.5554
582.70 0.5551
582.80 0.5547
582.90 0.5543
583.00 0.554
583.10 0.5536
583.20 0.5532
583.30 0.5529
583.40 0.5525
583.50 0.5521
583.60 0.5518
583.70 0.5514
583.80 0.551
583.90 0.5507
584.00 0.5503
584.10 0.5499
584.20 0.5496
584.30 0.5492
584.40 0.5489
584.50 0.5485
584.60 0.5481
584.70 0.5478
584.80 0.5474
584.90 0.547
585.00 0.5467
585.10 0.5463
585.20 0.546
585.30 0.5456
585.40 0.5452
585.50 0.5449
585.60 0.5445
585.70 0.5442
585.80 0.5438
585.90 0.5434
586.00 0.5431
586.10 0.5427
586.20 0.5424
586.30 0.542
586.40 0.5417
586.50 0.5413
586.60 0.5409
586.70 0.5406
586.80 0.5402
586.90 0.5399
587.00 0.5395
587.10 0.5392
587.20 0.5388
587.30 0.5385
587.40 0.5381
587.50 0.5377
587.60 0.5374
587.70 0.537
587.80 0.5367
587.90 0.5363
588.00 0.536
588.10 0.5356
588.20 0.5353
588.30 0.5349
588.40 0.5346
588.50 0.5342
588.60 0.5339
588.70 0.5335
588.80 0.5332
588.90 0.5328
589.00 0.5325
589.10 0.5321
589.20 0.5318
589.30 0.5314
589.40 0.5311
589.50 0.5307
589.60 0.5304
589.70 0.53
589.80 0.5297
589.90 0.5293
590.00 0.529
590.10 0.5286
590.20 0.5283
590.30 0.528
590.40 0.5276
590.50 0.5273
590.60 0.5269
590.70 0.5266
590.80 0.5262
590.90 0.5259
591.00 0.5255
591.10 0.5252
591.20 0.5249
591.30 0.5245
591.40 0.5242
591.50 0.5238
591.60 0.5235
591.70 0.5231
591.80 0.5228
591.90 0.5225
592.00 0.5221
592.10 0.5218
592.20 0.5214
592.30 0.5211
592.40 0.5208
592.50 0.5204
592.60 0.5201
592.70 0.5197
592.80 0.5194
592.90 0.5191
593.00 0.5187
593.10 0.5184
593.20 0.518
593.30 0.5177
593.40 0.5174
593.50 0.517
593.60 0.5167
593.70 0.5164
593.80 0.516
593.90 0.5157
594.00 0.5154
594.10 0.515
594.20 0.5147
594.30 0.5143
594.40 0.514
594.50 0.5137
594.60 0.5133
594.70 0.513
594.80 0.5127
594.90 0.5123
595.00 0.512
595.10 0.5117
595.20 0.5113
595.30 0.511
595.40 0.5107
595.50 0.5104
595.60 0.51
595.70 0.5097
595.80 0.5094
595.90 0.509
596.00 0.5087
596.10 0.5084
596.20 0.508
596.30 0.5077
596.40 0.5074
596.50 0.5071
596.60 0.5067
596.70 0.5064
596.80 0.5061
596.90 0.5057
597.00 0.5054
597.10 0.5051
597.20 0.5048
597.30 0.5044
597.40 0.5041
597.50 0.5038
597.60 0.5035
597.70 0.5031
597.80 0.5028
597.90 0.5025
598.00 0.5022
598.10 0.5018
598.20 0.5015
598.30 0.5012
598.40 0.5009
598.50 0.5005
598.60 0.5002
598.70 0.4999
598.80 0.4996
598.90 0.4992
599.00 0.4989
599.10 0.4986
599.20 0.4983
599.30 0.498
599.40 0.4976
599.50 0.4973
599.60 0.497
599.70 0.4967
599.80 0.4963
599.90 0.496
600.00 0.4957
600.10 0.4954
600.20 0.4951
600.30 0.4947
600.40 0.4944
600.50 0.4941
600.60 0.4938
600.70 0.4935
600.80 0.4932
600.90 0.4928
601.00 0.4925
601.10 0.4922
601.20 0.4919
601.30 0.4916
601.40 0.4913
601.50 0.4909
601.60 0.4906
601.70 0.4903
601.80 0.49
601.90 0.4897
602.00 0.4894
602.10 0.4891
602.20 0.4887
602.30 0.4884
602.40 0.4881
602.50 0.4878
602.60 0.4875
602.70 0.4872
602.80 0.4869
602.90 0.4865
603.00 0.4862
603.10 0.4859
603.20 0.4856
603.30 0.4853
603.40 0.485
603.50 0.4847
603.60 0.4844
603.70 0.4841
603.80 0.4837
603.90 0.4834
604.00 0.4831
604.10 0.4828
604.20 0.4825
604.30 0.4822
604.40 0.4819
604.50 0.4816
604.60 0.4813
604.70 0.481
604.80 0.4807
604.90 0.4804
605.00 0.48
605.10 0.4797
605.20 0.4794
605.30 0.4791
605.40 0.4788
605.50 0.4785
605.60 0.4782
605.70 0.4779
605.80 0.4776
605.90 0.4773
606.00 0.477
606.10 0.4767
606.20 0.4764
606.30 0.4761
606.40 0.4758
606.50 0.4755
606.60 0.4752
606.70 0.4749
606.80 0.4746
606.90 0.4743
607.00 0.474
607.10 0.4737
607.20 0.4734
607.30 0.473
607.40 0.4727
607.50 0.4724
607.60 0.4721
607.70 0.4718
607.80 0.4715
607.90 0.4712
608.00 0.4709
608.10 0.4706
608.20 0.4703
608.30 0.47
608.40 0.4697
608.50 0.4695
608.60 0.4692
608.70 0.4689
608.80 0.4686
608.90 0.4683
609.00 0.468
609.10 0.4677
609.20 0.4674
609.30 0.4671
609.40 0.4668
609.50 0.4665
609.60 0.4662
609.70 0.4659
609.80 0.4656
609.90 0.4653
610.00 0.465
610.10 0.4647
610.20 0.4644
610.30 0.4641
610.40 0.4638
610.50 0.4635
610.60 0.4632
610.70 0.4629
610.80 0.4626
610.90 0.4624
611.00 0.4621
611.10 0.4618
611.20 0.4615
611.30 0.4612
611.40 0.4609
611.50 0.4606
611.60 0.4603
611.70 0.46
611.80 0.4597
611.90 0.4594
612.00 0.4591
612.10 0.4589
612.20 0.4586
612.30 0.4583
612.40 0.458
612.50 0.4577
612.60 0.4574
612.70 0.4571
612.80 0.4568
612.90 0.4565
613.00 0.4562
613.10 0.456
613.20 0.4557
613.30 0.4554
613.40 0.4551
613.50 0.4548
613.60 0.4545
613.70 0.4542
613.80 0.454
613.90 0.4537
614.00 0.4534
614.10 0.4531
614.20 0.4528
614.30 0.4525
614.40 0.4522
614.50 0.452
614.60 0.4517
614.70 0.4514
614.80 0.4511
614.90 0.4508
615.00 0.4505
615.10 0.4502
615.20 0.45
615.30 0.4497
615.40 0.4494
615.50 0.4491
615.60 0.4488
615.70 0.4486
615.80 0.4483
615.90 0.448
616.00 0.4477
616.10 0.4474
616.20 0.4471
616.30 0.4469
616.40 0.4466
616.50 0.4463
616.60 0.446
616.70 0.4457
616.80 0.4455
616.90 0.4452
617.00 0.4449
617.10 0.4446
617.20 0.4443
617.30 0.4441
617.40 0.4438
617.50 0.4435
617.60 0.4432
617.70 0.443
617.80 0.4427
617.90 0.4424
618.00 0.4421
618.10 0.4418
618.20 0.4416
618.30 0.4413
618.40 0.441
618.50 0.4407
618.60 0.4405
618.70 0.4402
618.80 0.4399
618.90 0.4396
619.00 0.4394
619.10 0.4391
619.20 0.4388
619.30 0.4385
619.40 0.4383
619.50 0.438
619.60 0.4377
619.70 0.4374
619.80 0.4372
619.90 0.4369
620.00 0.4366
620.10 0.4363
620.20 0.4361
620.30 0.4358
620.40 0.4355
620.50 0.4353
620.60 0.435
620.70 0.4347
620.80 0.4344
620.90 0.4342
621.00 0.4339
621.10 0.4336
621.20 0.4334
621.30 0.4331
621.40 0.4328
621.50 0.4325
621.60 0.4323
621.70 0.432
621.80 0.4317
621.90 0.4315
622.00 0.4312
622.10 0.4309
622.20 0.4307
622.30 0.4304
622.40 0.4301
622.50 0.4299
622.60 0.4296
622.70 0.4293
622.80 0.4291
622.90 0.4288
623.00 0.4285
623.10 0.4283
623.20 0.428
623.30 0.4277
623.40 0.4275
623.50 0.4272
623.60 0.4269
623.70 0.4267
623.80 0.4264
623.90 0.4261
624.00 0.4259
624.10 0.4256
624.20 0.4253
624.30 0.4251
624.40 0.4248
624.50 0.4245
624.60 0.4243
624.70 0.424
624.80 0.4238
624.90 0.4235
625.00 0.4232
625.10 0.423
625.20 0.4227
625.30 0.4224
625.40 0.4222
625.50 0.4219
625.60 0.4217
625.70 0.4214
625.80 0.4211
625.90 0.4209
626.00 0.4206
626.10 0.4203
626.20 0.4201
626.30 0.4198
626.40 0.4196
626.50 0.4193
626.60 0.419
626.70 0.4188
626.80 0.4185
626.90 0.4183
627.00 0.418
627.10 0.4178
627.20 0.4175
627.30 0.4172
627.40 0.417
627.50 0.4167
627.60 0.4165
627.70 0.4162
627.80 0.4159
627.90 0.4157
628.00 0.4154
628.10 0.4152
628.20 0.4149
628.30 0.4147
628.40 0.4144
628.50 0.4141
628.60 0.4139
628.70 0.4136
628.80 0.4134
628.90 0.4131
629.00 0.4129
629.10 0.4126
629.20 0.4124
629.30 0.4121
629.40 0.4118
629.50 0.4116
629.60 0.4113
629.70 0.4111
629.80 0.4108
629.90 0.4106
630.00 0.4103
630.10 0.4101
630.20 0.4098
630.30 0.4096
630.40 0.4093
630.50 0.4091
630.60 0.4088
630.70 0.4086
630.80 0.4083
630.90 0.4081
631.00 0.4078
631.10 0.4075
631.20 0.4073
631.30 0.407
631.40 0.4068
631.50 0.4065
631.60 0.4063
631.70 0.406
631.80 0.4058
631.90 0.4055
632.00 0.4053
632.10 0.405
632.20 0.4048
632.30 0.4045
632.40 0.4043
632.50 0.404
632.60 0.4038
632.70 0.4035
632.80 0.4033
632.90 0.4031
633.00 0.4028
633.10 0.4026
633.20 0.4023
633.30 0.4021
633.40 0.4018
633.50 0.4016
633.60 0.4013
633.70 0.4011
633.80 0.4008
633.90 0.4006
634.00 0.4003
634.10 0.4001
634.20 0.3998
634.30 0.3996
634.40 0.3993
634.50 0.3991
634.60 0.3989
634.70 0.3986
634.80 0.3984
634.90 0.3981
635.00 0.3979
635.10 0.3976
635.20 0.3974
635.30 0.3971
635.40 0.3969
635.50 0.3966
635.60 0.3964
635.70 0.3962
635.80 0.3959
635.90 0.3957
636.00 0.3954
636.10 0.3952
636.20 0.3949
636.30 0.3947
636.40 0.3945
636.50 0.3942
636.60 0.394
636.70 0.3937
636.80 0.3935
636.90 0.3932
637.00 0.393
637.10 0.3928
637.20 0.3925
637.30 0.3923
637.40 0.392
637.50 0.3918
637.60 0.3915
637.70 0.3913
637.80 0.3911
637.90 0.3908
638.00 0.3906
638.10 0.3903
638.20 0.3901
638.30 0.3899
638.40 0.3896
638.50 0.3894
638.60 0.3891
638.70 0.3889
638.80 0.3887
638.90 0.3884
639.00 0.3882
639.10 0.3879
639.20 0.3877
639.30 0.3875
639.40 0.3872
639.50 0.387
639.60 0.3867
639.70 0.3865
639.80 0.3863
639.90 0.386
640.00 0.3858
640.10 0.3855
640.20 0.3853
640.30 0.3851
640.40 0.3848
640.50 0.3846
640.60 0.3844
640.70 0.3841
640.80 0.3839
640.90 0.3836
641.00 0.3834
641.10 0.3832
641.20 0.3829
641.30 0.3827
641.40 0.3824
641.50 0.3822
641.60 0.382
641.70 0.3817
641.80 0.3815
641.90 0.3813
642.00 0.381
642.10 0.3808
642.20 0.3805
642.30 0.3803
642.40 0.3801
642.50 0.3798
642.60 0.3796
642.70 0.3793
642.80 0.3791
642.90 0.3789
643.00 0.3786
643.10 0.3784
643.20 0.3782
643.30 0.3779
643.40 0.3777
643.50 0.3774
643.60 0.3772
643.70 0.377
643.80 0.3767
643.90 0.3765
644.00 0.3762
644.10 0.376
644.20 0.3758
644.30 0.3755
644.40 0.3753
644.50 0.375
644.60 0.3748
644.70 0.3746
644.80 0.3743
644.90 0.3741
645.00 0.3738
645.10 0.3736
645.20 0.3733
645.30 0.3731
645.40 0.3729
645.50 0.3726
645.60 0.3724
645.70 0.3721
645.80 0.3719
645.90 0.3716
646.00 0.3714
646.10 0.3711
646.20 0.3709
646.30 0.3707
646.40 0.3704
646.50 0.3702
646.60 0.3699
646.70 0.3697
646.80 0.3694
646.90 0.3691
647.00 0.3689
647.10 0.3686
647.20 0.3684
647.30 0.3681
647.40 0.3679
647.50 0.3676
647.60 0.3674
647.70 0.3671
647.80 0.3668
647.90 0.3666
648.00 0.3663
648.10 0.3661
648.20 0.3658
648.30 0.3655
648.40 0.3653
648.50 0.365
648.60 0.3647
648.70 0.3644
648.80 0.3642
648.90 0.3639
649.00 0.3636
649.10 0.3633
649.20 0.3631
649.30 0.3628
649.40 0.3625
649.50 0.3622
649.60 0.3619
649.70 0.3616
649.80 0.3613
649.90 0.361
650.00 0.3607
650.10 0.3604
650.20 0.3601
650.30 0.3598
650.40 0.3594
650.50 0.3591
650.60 0.3588
650.70 0.3584
650.80 0.3581
650.90 0.3577
651.00 0.3574
651.10 0.3571
651.20 0.3567
651.30 0.3564
651.40 0.356
651.50 0.3555
651.60 0.3551
651.70 0.3547
651.80 0.3543
651.90 0.3539
652.00 0.3535
652.10 0.3531
652.20 0.3527
652.30 0.3522
652.40 0.3517
652.50 0.3512
652.60 0.3506
652.70 0.3501
652.80 0.3496
652.90 0.349
653.00 0.3485
653.10 0.348
653.20 0.3475
653.30 0.3469
653.40 0.3462
653.50 0.3455
653.60 0.3447
653.70 0.344
653.80 0.3433
653.90 0.3426
654.00 0.3419
654.10 0.3411
654.20 0.3404
654.30 0.3397
654.40 0.3388
654.50 0.3378
654.60 0.3369
654.70 0.336
654.80 0.3351
654.90 0.3341
655.00 0.333
655.10 0.332
655.20 0.331
655.30 0.3299
655.40 0.3288
655.50 0.3277
655.60 0.3265
655.70 0.3253
655.80 0.3241
655.90 0.323
656.00 0.3221
656.10 0.3215
656.20 0.3299
656.30 0.3434
656.40 0.324
656.50 0.3208
656.60 0.3213
656.70 0.3218
656.80 0.3227
656.90 0.3235
657.00 0.3243
657.10 0.325
657.20 0.3258
657.30 0.3265
657.40 0.3271
657.50 0.3278
657.60 0.3284
657.70 0.329
657.80 0.3297
657.90 0.3302
658.00 0.3307
658.10 0.3312
658.20 0.3317
658.30 0.3322
658.40 0.3325
658.50 0.3328
658.60 0.3331
658.70 0.3334
658.80 0.3337
658.90 0.334
659.00 0.3343
659.10 0.3347
659.20 0.335
659.30 0.3352
659.40 0.3353
659.50 0.3355
659.60 0.3356
659.70 0.3357
659.80 0.3358
659.90 0.3359
660.00 0.336
660.10 0.3361
660.20 0.3362
660.30 0.3363
660.40 0.3363
660.50 0.3363
660.60 0.3363
660.70 0.3363
660.80 0.3363
660.90 0.3363
661.00 0.3363
661.10 0.3363
661.20 0.3363
661.30 0.3362
661.40 0.3362
661.50 0.3361
661.60 0.336
661.70 0.3359
661.80 0.3358
661.90 0.3358
662.00 0.3357
662.10 0.3356
662.20 0.3355
662.30 0.3354
662.40 0.3353
662.50 0.3352
662.60 0.3351
662.70 0.335
662.80 0.3348
662.90 0.3347
663.00 0.3346
663.10 0.3345
663.20 0.3344
663.30 0.3342
663.40 0.3341
663.50 0.3339
663.60 0.3338
663.70 0.3337
663.80 0.3335
663.90 0.3334
664.00 0.3332
664.10 0.3331
664.20 0.3329
664.30 0.3328
664.40 0.3326
664.50 0.3325
664.60 0.3323
664.70 0.3322
664.80 0.332
664.90 0.3318
665.00 0.3317
665.10 0.3315
665.20 0.3314
665.30 0.3312
665.40 0.331
665.50 0.3309
665.60 0.3307
665.70 0.3305
665.80 0.3304
665.90 0.3302
666.00 0.33
666.10 0.3299
666.20 0.3297
666.30 0.3295
666.40 0.3294
666.50 0.3292
666.60 0.329
666.70 0.3288
666.80 0.3287
666.90 0.3285
667.00 0.3283
667.10 0.3281
667.20 0.328
667.30 0.3278
667.40 0.3276
667.50 0.3274
667.60 0.3273
667.70 0.3271
667.80 0.3269
667.90 0.3267
668.00 0.3266
668.10 0.3264
668.20 0.3262
668.30 0.326
668.40 0.3258
668.50 0.3257
668.60 0.3255
668.70 0.3253
668.80 0.3251
668.90 0.325
669.00 0.3248
669.10 0.3246
669.20 0.3244
669.30 0.3242
669.40 0.3241
669.50 0.3239
669.60 0.3237
669.70 0.3235
669.80 0.3233
669.90 0.3232
670.00 0.323
670.10 0.3228
670.20 0.3226
670.30 0.3225
670.40 0.3223
670.50 0.3221
670.60 0.3219
670.70 0.3217
670.80 0.3216
670.90 0.3214
671.00 0.3212
671.10 0.321
671.20 0.3208
671.30 0.3207
671.40 0.3205
671.50 0.3203
671.60 0.3201
671.70 0.3199
671.80 0.3198
671.90 0.3196
672.00 0.3194
672.10 0.3192
672.20 0.319
672.30 0.3189
672.40 0.3187
672.50 0.3185
672.60 0.3183
672.70 0.3181
672.80 0.318
672.90 0.3178
673.00 0.3176
673.10 0.3174
673.20 0.3172
673.30 0.3171
673.40 0.3169
673.50 0.3167
673.60 0.3165
673.70 0.3164
673.80 0.3162
673.90 0.316
674.00 0.3158
674.10 0.3156
674.20 0.3155
674.30 0.3153
674.40 0.3151
674.50 0.3149
674.60 0.3147
674.70 0.3146
674.80 0.3144
674.90 0.3142
675.00 0.314
675.10 0.3139
675.20 0.3137
675.30 0.3135
675.40 0.3133
675.50 0.3131
675.60 0.313
675.70 0.3128
675.80 0.3126
675.90 0.3124
676.00 0.3123
676.10 0.3121
676.20 0.3119
676.30 0.3117
676.40 0.3116
676.50 0.3114
676.60 0.3112
676.70 0.311
676.80 0.3108
676.90 0.3107
677.00 0.3105
677.10 0.3103
677.20 0.3101
677.30 0.31
677.40 0.3098
677.50 0.3096
677.60 0.3094
677.70 0.3093
677.80 0.3091
677.90 0.3089
678.00 0.3087
678.10 0.3086
678.20 0.3084
678.30 0.3082
678.40 0.308
678.50 0.3079
678.60 0.3077
678.70 0.3075
678.80 0.3073
678.90 0.3072
679.00 0.307
679.10 0.3068
679.20 0.3066
679.30 0.3065
679.40 0.3063
679.50 0.3061
679.60 0.306
679.70 0.3058
679.80 0.3056
679.90 0.3054
680.00 0.3053
680.10 0.3051
680.20 0.3049
680.30 0.3047
680.40 0.3046
680.50 0.3044
680.60 0.3042
680.70 0.3041
680.80 0.3039
680.90 0.3037
681.00 0.3035
681.10 0.3034
681.20 0.3032
681.30 0.303
681.40 0.3029
681.50 0.3027
681.60 0.3025
681.70 0.3023
681.80 0.3022
681.90 0.302
682.00 0.3018
682.10 0.3017
682.20 0.3015
682.30 0.3013
682.40 0.3011
682.50 0.301
682.60 0.3008
682.70 0.3006
682.80 0.3005
682.90 0.3003
683.00 0.3001
683.10 0.3
683.20 0.2998
683.30 0.2996
683.40 0.2994
683.50 0.2993
683.60 0.2991
683.70 0.2989
683.80 0.2988
683.90 0.2986
684.00 0.2984
684.10 0.2983
684.20 0.2981
684.30 0.2979
684.40 0.2978
684.50 0.2976
684.60 0.2974
684.70 0.2973
684.80 0.2971
684.90 0.2969
685.00 0.2968
685.10 0.2966
685.20 0.2964
685.30 0.2962
685.40 0.2961
685.50 0.2959
685.60 0.2957
685.70 0.2956
685.80 0.2954
685.90 0.2952
686.00 0.2951
686.10 0.2949
686.20 0.2947
686.30 0.2946
686.40 0.2944
686.50 0.2943
686.60 0.2941
686.70 0.2939
686.80 0.2938
686.90 0.2936
687.00 0.2934
687.10 0.2933
687.20 0.2931
687.30 0.2929
687.40 0.2928
687.50 0.2926
687.60 0.2924
687.70 0.2923
687.80 0.2921
687.90 0.2919
688.00 0.2918
688.10 0.2916
688.20 0.2915
688.30 0.2913
688.40 0.2911
688.50 0.291
688.60 0.2908
688.70 0.2906
688.80 0.2905
688.90 0.2903
689.00 0.2901
689.10 0.29
689.20 0.2898
689.30 0.2897
689.40 0.2895
689.50 0.2893
689.60 0.2892
689.70 0.289
689.80 0.2888
689.90 0.2887
690.00 0.2885
690.10 0.2884
690.20 0.2882
690.30 0.288
690.40 0.2879
690.50 0.2877
690.60 0.2876
690.70 0.2874
690.80 0.2872
690.90 0.2871
691.00 0.2869
691.10 0.2868
691.20 0.2866
691.30 0.2864
691.40 0.2863
691.50 0.2861
691.60 0.286
691.70 0.2858
691.80 0.2856
691.90 0.2855
692.00 0.2853
692.10 0.2852
692.20 0.285
692.30 0.2848
692.40 0.2847
692.50 0.2845
692.60 0.2844
692.70 0.2842
692.80 0.284
692.90 0.2839
693.00 0.2837
693.10 0.2836
693.20 0.2834
693.30 0.2832
693.40 0.2831
693.50 0.2829
693.60 0.2828
693.70 0.2826
693.80 0.2825
693.90 0.2823
694.00 0.2821
694.10 0.282
694.20 0.2818
694.30 0.2817
694.40 0.2815
694.50 0.2814
694.60 0.2812
694.70 0.281
694.80 0.2809
694.90 0.2807
695.00 0.2806
695.10 0.2804
695.20 0.2803
695.30 0.2801
695.40 0.2799
695.50 0.2798
695.60 0.2796
695.70 0.2795
695.80 0.2793
695.90 0.2792
696.00 0.279
696.10 0.2789
696.20 0.2787
696.30 0.2785
696.40 0.2784
696.50 0.2782
696.60 0.2781
696.70 0.2779
696.80 0.2778
696.90 0.2776
697.00 0.2775
697.10 0.2773
697.20 0.2772
697.30 0.277
697.40 0.2769
697.50 0.2767
697.60 0.2765
697.70 0.2764
697.80 0.2762
697.90 0.2761
698.00 0.2759
698.10 0.2758
698.20 0.2756
698.30 0.2755
698.40 0.2753
698.50 0.2752
698.60 0.275
698.70 0.2749
698.80 0.2747
698.90 0.2746
699.00 0.2744
699.10 0.2742
699.20 0.2741
699.30 0.2739
699.40 0.2738
699.50 0.2736
699.60 0.2735
699.70 0.2733
699.80 0.2732
699.90 0.273
700.00 0.2729
700.10 0.2727
700.20 0.2726
700.30 0.2724
700.40 0.2723
700.50 0.2721
700.60 0.272
700.70 0.2718
700.80 0.2717
700.90 0.2715
701.00 0.2714
701.10 0.2712
701.20 0.2711
701.30 0.2709
701.40 0.2708
701.50 0.2706
701.60 0.2705
701.70 0.2703
701.80 0.2702
701.90 0.27
702.00 0.2699
702.10 0.2697
702.20 0.2696
702.30 0.2694
702.40 0.2693
702.50 0.2691
702.60 0.269
702.70 0.2688
702.80 0.2687
702.90 0.2685
703.00 0.2684
703.10 0.2683
703.20 0.2681
703.30 0.268
703.40 0.2678
703.50 0.2677
703.60 0.2675
703.70 0.2674
703.80 0.2672
703.90 0.2671
704.00 0.2669
704.10 0.2668
704.20 0.2666
704.30 0.2665
704.40 0.2663
704.50 0.2662
704.60 0.266
704.70 0.2659
704.80 0.2657
704.90 0.2656
705.00 0.2655
705.10 0.2653
705.20 0.2652
705.30 0.265
705.40 0.2649
705.50 0.2647
705.60 0.2646
705.70 0.2644
705.80 0.2643
705.90 0.2641
706.00 0.264
706.10 0.2639
706.20 0.2637
706.30 0.2636
706.40 0.2634
706.50 0.2633
706.60 0.2631
706.70 0.263
706.80 0.2628
706.90 0.2627
707.00 0.2626
707.10 0.2624
707.20 0.2623
707.30 0.2621
707.40 0.262
707.50 0.2618
707.60 0.2617
707.70 0.2616
707.80 0.2614
707.90 0.2613
708.00 0.2611
708.10 0.261
708.20 0.2608
708.30 0.2607
708.40 0.2606
708.50 0.2604
708.60 0.2603
708.70 0.2601
708.80 0.26
708.90 0.2598
709.00 0.2597
709.10 0.2596
709.20 0.2594
709.30 0.2593
709.40 0.2591
709.50 0.259
709.60 0.2588
709.70 0.2587
709.80 0.2586
709.90 0.2584
710.00 0.2583
710.10 0.2581
710.20 0.258
710.30 0.2579
710.40 0.2577
710.50 0.2576
710.60 0.2574
710.70 0.2573
710.80 0.2572
710.90 0.257
711.00 0.2569
711.10 0.2567
711.20 0.2566
711.30 0.2565
711.40 0.2563
711.50 0.2562
711.60 0.256
711.70 0.2559
711.80 0.2558
711.90 0.2556
712.00 0.2555
712.10 0.2553
712.20 0.2552
712.30 0.2551
712.40 0.2549
712.50 0.2548
712.60 0.2546
712.70 0.2545
712.80 0.2544
712.90 0.2542
713.00 0.2541
713.10 0.254
713.20 0.2538
713.30 0.2537
713.40 0.2535
713.50 0.2534
713.60 0.2533
713.70 0.2531
713.80 0.253
713.90 0.2529
714.00 0.2527
714.10 0.2526
714.20 0.2524
714.30 0.2523
714.40 0.2522
714.50 0.252
714.60 0.2519
714.70 0.2518
714.80 0.2516
714.90 0.2515
715.00 0.2513
715.10 0.2512
715.20 0.2511
715.30 0.2509
715.40 0.2508
715.50 0.2507
715.60 0.2505
715.70 0.2504
715.80 0.2503
715.90 0.2501
716.00 0.25
716.10 0.2499
716.20 0.2497
716.30 0.2496
716.40 0.2494
716.50 0.2493
716.60 0.2492
716.70 0.249
716.80 0.2489
716.90 0.2488
717.00 0.2486
717.10 0.2485
717.20 0.2484
717.30 0.2482
717.40 0.2481
717.50 0.248
717.60 0.2478
717.70 0.2477
717.80 0.2476
717.90 0.2474
718.00 0.2473
718.10 0.2472
718.20 0.247
718.30 0.2469
718.40 0.2468
718.50 0.2466
718.60 0.2465
718.70 0.2464
718.80 0.2462
718.90 0.2461
719.00 0.246
719.10 0.2458
719.20 0.2457
719.30 0.2456
719.40 0.2454
719.50 0.2453
719.60 0.2452
719.70 0.245
719.80 0.2449
719.90 0.2448
720.00 0.2446
720.10 0.2445
720.20 0.2444
720.30 0.2442
720.40 0.2441
720.50 0.244
720.60 0.2438
720.70 0.2437
720.80 0.2436
720.90 0.2435
721.00 0.2433
721.10 0.2432
721.20 0.2431
721.30 0.2429
721.40 0.2428
721.50 0.2427
721.60 0.2425
721.70 0.2424
721.80 0.2423
721.90 0.2422
722.00 0.242
722.10 0.2419
722.20 0.2418
722.30 0.2416
722.40 0.2415
722.50 0.2414
722.60 0.2412
722.70 0.2411
722.80 0.241
722.90 0.2409
723.00 0.2407
723.10 0.2406
723.20 0.2405
723.30 0.2403
723.40 0.2402
723.50 0.2401
723.60 0.24
723.70 0.2398
723.80 0.2397
723.90 0.2396
724.00 0.2394
724.10 0.2393
724.20 0.2392
724.30 0.2391
724.40 0.2389
724.50 0.2388
724.60 0.2387
724.70 0.2385
724.80 0.2384
724.90 0.2383
725.00 0.2382
725.10 0.238
725.20 0.2379
725.30 0.2378
725.40 0.2376
725.50 0.2375
725.60 0.2374
725.70 0.2373
725.80 0.2371
725.90 0.237
726.00 0.2369
726.10 0.2368
726.20 0.2366
726.30 0.2365
726.40 0.2364
726.50 0.2363
726.60 0.2361
726.70 0.236
726.80 0.2359
726.90 0.2358
727.00 0.2356
727.10 0.2355
727.20 0.2354
727.30 0.2353
727.40 0.2351
727.50 0.235
727.60 0.2349
727.70 0.2347
727.80 0.2346
727.90 0.2345
728.00 0.2344
728.10 0.2342
728.20 0.2341
728.30 0.234
728.40 0.2339
728.50 0.2337
728.60 0.2336
728.70 0.2335
728.80 0.2334
728.90 0.2333
729.00 0.2331
729.10 0.233
729.20 0.2329
729.30 0.2328
729.40 0.2326
729.50 0.2325
729.60 0.2324
729.70 0.2323
729.80 0.2321
729.90 0.232
730.00 0.2319
730.10 0.2318
730.20 0.2316
730.30 0.2315
730.40 0.2314
730.50 0.2313
730.60 0.2312
730.70 0.231
730.80 0.2309
730.90 0.2308
731.00 0.2307
731.10 0.2305
731.20 0.2304
731.30 0.2303
731.40 0.2302
731.50 0.2301
731.60 0.2299
731.70 0.2298
731.80 0.2297
731.90 0.2296
732.00 0.2295
732.10 0.2293
732.20 0.2292
732.30 0.2291
732.40 0.229
732.50 0.2288
732.60 0.2287
732.70 0.2286
732.80 0.2285
732.90 0.2284
733.00 0.2282
733.10 0.2281
733.20 0.228
733.30 0.2279
733.40 0.2278
733.50 0.2276
733.60 0.2275
733.70 0.2274
733.80 0.2273
733.90 0.2272
734.00 0.227
734.10 0.2269
734.20 0.2268
734.30 0.2267
734.40 0.2266
734.50 0.2264
734.60 0.2263
734.70 0.2262
734.80 0.2261
734.90 0.226
735.00 0.2258
735.10 0.2257
735.20 0.2256
735.30 0.2255
735.40 0.2254
735.50 0.2253
735.60 0.2251
735.70 0.225
735.80 0.2249
735.90 0.2248
736.00 0.2247
736.10 0.2245
736.20 0.2244
736.30 0.2243
736.40 0.2242
736.50 0.2241
736.60 0.2239
736.70 0.2238
736.80 0.2237
736.90 0.2236
737.00 0.2235
737.10 0.2234
737.20 0.2232
737.30 0.2231
737.40 0.223
737.50 0.2229
737.60 0.2228
737.70 0.2226
737.80 0.2225
737.90 0.2224
738.00 0.2223
738.10 0.2222
738.20 0.2221
738.30 0.2219
738.40 0.2218
738.50 0.2217
738.60 0.2216
738.70 0.2215
738.80 0.2214
738.90 0.2212
739.00 0.2211
739.10 0.221
739.20 0.2209
739.30 0.2208
739.40 0.2207
739.50 0.2205
739.60 0.2204
739.70 0.2203
739.80 0.2202
739.90 0.2201
740.00 0.22
740.10 0.2198
740.20 0.2197
740.30 0.2196
740.40 0.2195
740.50 0.2194
740.60 0.2193
740.70 0.2192
740.80 0.219
740.90 0.2189
741.00 0.2188
741.10 0.2187
741.20 0.2186
741.30 0.2185
741.40 0.2184
741.50 0.2182
741.60 0.2181
741.70 0.218
741.80 0.2179
741.90 0.2178
742.00 0.2177
742.10 0.2176
742.20 0.2175
742.30 0.2173
742.40 0.2172
742.50 0.2171
742.60 0.217
742.70 0.2169
742.80 0.2168
742.90 0.2167
743.00 0.2165
743.10 0.2164
743.20 0.2163
743.30 0.2162
743.40 0.2161
743.50 0.216
743.60 0.2159
743.70 0.2158
743.80 0.2156
743.90 0.2155
744.00 0.2154
744.10 0.2153
744.20 0.2152
744.30 0.2151
744.40 0.215
744.50 0.2149
744.60 0.2148
744.70 0.2146
744.80 0.2145
744.90 0.2144
745.00 0.2143
745.10 0.2142
745.20 0.2141
745.30 0.214
745.40 0.2139
745.50 0.2137
745.60 0.2136
745.70 0.2135
745.80 0.2134
745.90 0.2133
746.00 0.2132
746.10 0.2131
746.20 0.213
746.30 0.2129
746.40 0.2127
746.50 0.2126
746.60 0.2125
746.70 0.2124
746.80 0.2123
746.90 0.2122
747.00 0.2121
747.10 0.212
747.20 0.2119
747.30 0.2117
747.40 0.2116
747.50 0.2115
747.60 0.2114
747.70 0.2113
747.80 0.2112
747.90 0.2111
748.00 0.211
748.10 0.2109
748.20 0.2108
748.30 0.2106
748.40 0.2105
748.50 0.2104
748.60 0.2103
748.70 0.2102
748.80 0.2101
748.90 0.21
749.00 0.2099
749.10 0.2098
749.20 0.2097
749.30 0.2095
749.40 0.2094
749.50 0.2093
749.60 0.2092
749.70 0.2091
749.80 0.209
749.90 0.2089
750.00 0.2088
750.10 0.2087
750.20 0.2086
750.30 0.2085
750.40 0.2084
750.50 0.2082
750.60 0.2081
750.70 0.208
750.80 0.2079
750.90 0.2078
751.00 0.2077
751.10 0.2076
751.20 0.2075
751.30 0.2074
751.40 0.2073
751.50 0.2072
751.60 0.2071
751.70 0.207
751.80 0.2069
751.90 0.2068
752.00 0.2067
752.10 0.2065
752.20 0.2064
752.30 0.2063
752.40 0.2062
752.50 0.2061
752.60 0.206
752.70 0.2059
752.80 0.2058
752.90 0.2057
753.00 0.2056
753.10 0.2055
753.20 0.2054
753.30 0.2053
753.40 0.2052
753.50 0.2051
753.60 0.205
753.70 0.2049
753.80 0.2047
753.90 0.2046
754.00 0.2045
754.10 0.2044
754.20 0.2043
754.30 0.2042
754.40 0.2041
754.50 0.204
754.60 0.2039
754.70 0.2038
754.80 0.2037
754.90 0.2036
755.00 0.2035
755.10 0.2034
755.20 0.2033
755.30 0.2032
755.40 0.2031
755.50 0.203
755.60 0.2029
755.70 0.2028
755.80 0.2027
755.90 0.2025
756.00 0.2024
756.10 0.2023
756.20 0.2022
756.30 0.2021
756.40 0.202
756.50 0.2019
756.60 0.2018
756.70 0.2017
756.80 0.2016
756.90 0.2015
757.00 0.2014
757.10 0.2013
757.20 0.2012
757.30 0.2011
757.40 0.201
757.50 0.2009
757.60 0.2008
757.70 0.2007
757.80 0.2006
757.90 0.2005
758.00 0.2004
758.10 0.2003
758.20 0.2002
758.30 0.2001
758.40 0.2
758.50 0.1999
758.60 0.1998
758.70 0.1996
758.80 0.1995
758.90 0.1994
759.00 0.1993
759.10 0.1992
759.20 0.1991
759.30 0.199
759.40 0.1989
759.50 0.1988
759.60 0.1987
759.70 0.1986
759.80 0.1985
759.90 0.1984
760.00 0.1983
760.10 0.1982
760.20 0.1981
760.30 0.198
760.40 0.1979
760.50 0.1978
760.60 0.1977
760.70 0.1976
760.80 0.1975
760.90 0.1974
761.00 0.1973
761.10 0.1972
761.20 0.1971
761.30 0.197
761.40 0.1969
761.50 0.1968
761.60 0.1967
761.70 0.1966
761.80 0.1965
761.90 0.1964
762.00 0.1963
762.10 0.1962
762.20 0.1961
762.30 0.196
762.40 0.1959
762.50 0.1958
762.60 0.1957
762.70 0.1956
762.80 0.1955
762.90 0.1954
763.00 0.1953
763.10 0.1952
763.20 0.1951
763.30 0.195
763.40 0.1949
763.50 0.1948
763.60 0.1947
763.70 0.1946
763.80 0.1945
763.90 0.1944
764.00 0.1943
764.10 0.1942
764.20 0.1941
764.30 0.194
764.40 0.1939
764.50 0.1938
764.60 0.1937
764.70 0.1936
764.80 0.1935
764.90 0.1934
765.00 0.1933
765.10 0.1932
765.20 0.1932
765.30 0.1931
765.40 0.193
765.50 0.1929
765.60 0.1928
765.70 0.1927
765.80 0.1926
765.90 0.1925
766.00 0.1924
766.10 0.1923
766.20 0.1922
766.30 0.1921
766.40 0.192
766.50 0.1919
766.60 0.1918
766.70 0.1917
766.80 0.1916
766.90 0.1915
767.00 0.1914
767.10 0.1913
767.20 0.1912
767.30 0.1911
767.40 0.191
767.50 0.1909
767.60 0.1908
767.70 0.1907
767.80 0.1906
767.90 0.1905
768.00 0.1904
768.10 0.1903
768.20 0.1902
768.30 0.1901
768.40 0.19
768.50 0.1899
768.60 0.1898
768.70 0.1897
768.80 0.1896
768.90 0.1896
769.00 0.1895
769.10 0.1894
769.20 0.1893
769.30 0.1892
769.40 0.1891
769.50 0.189
769.60 0.1889
769.70 0.1888
769.80 0.1887
769.90 0.1886
770.00 0.1885
770.10 0.1884
770.20 0.1883
770.30 0.1882
770.40 0.1881
770.50 0.188
770.60 0.1879
770.70 0.1878
770.80 0.1877
770.90 0.1876
771.00 0.1876
771.10 0.1875
771.20 0.1874
771.30 0.1873
771.40 0.1872
771.50 0.1871
771.60 0.187
771.70 0.1869
771.80 0.1868
771.90 0.1867
772.00 0.1866
772.10 0.1865
772.20 0.1864
772.30 0.1863
772.40 0.1862
772.50 0.1861
772.60 0.1861
772.70 0.186
772.80 0.1859
772.90 0.1858
773.00 0.1857
773.10 0.1856
773.20 0.1855
773.30 0.1854
773.40 0.1853
773.50 0.1852
773.60 0.1851
773.70 0.185
773.80 0.1849
773.90 0.1848
774.00 0.1848
774.10 0.1847
774.20 0.1846
774.30 0.1845
774.40 0.1844
774.50 0.1843
774.60 0.1842
774.70 0.1841
774.80 0.184
774.90 0.1839
775.00 0.1838
775.10 0.1837
775.20 0.1836
775.30 0.1836
775.40 0.1835
775.50 0.1834
775.60 0.1833
775.70 0.1832
775.80 0.1831
775.90 0.183
776.00 0.1829
776.10 0.1828
776.20 0.1827
776.30 0.1826
776.40 0.1825
776.50 0.1825
776.60 0.1824
776.70 0.1823
776.80 0.1822
776.90 0.1821
777.00 0.182
777.10 0.1819
777.20 0.1818
777.30 0.1817
777.40 0.1816
777.50 0.1815
777.60 0.1814
777.70 0.1814
777.80 0.1813
777.90 0.1812
778.00 0.1811
778.10 0.181
778.20 0.1809
778.30 0.1808
778.40 0.1807
778.50 0.1806
778.60 0.1805
778.70 0.1804
778.80 0.1804
778.90 0.1803
779.00 0.1802
779.10 0.1801
779.20 0.18
779.30 0.1799
779.40 0.1798
779.50 0.1797
779.60 0.1796
779.70 0.1795
779.80 0.1795
779.90 0.1794
780.00 0.1793
780.10 0.1792
780.20 0.1791
780.30 0.179
780.40 0.1789
780.50 0.1788
780.60 0.1787
780.70 0.1787
780.80 0.1786
780.90 0.1785
781.00 0.1784
781.10 0.1783
781.20 0.1782
781.30 0.1781
781.40 0.178
781.50 0.178
781.60 0.1779
781.70 0.1778
781.80 0.1777
781.90 0.1776
782.00 0.1775
782.10 0.1774
782.20 0.1773
782.30 0.1772
782.40 0.1772
782.50 0.1771
782.60 0.177
782.70 0.1769
782.80 0.1768
782.90 0.1767
783.00 0.1766
783.10 0.1765
783.20 0.1765
783.30 0.1764
783.40 0.1763
783.50 0.1762
783.60 0.1761
783.70 0.176
783.80 0.1759
783.90 0.1759
784.00 0.1758
784.10 0.1757
784.20 0.1756
784.30 0.1755
784.40 0.1754
784.50 0.1753
784.60 0.1752
784.70 0.1752
784.80 0.1751
784.90 0.175
785.00 0.1749
785.10 0.1748
785.20 0.1747
785.30 0.1746
785.40 0.1745
785.50 0.1745
785.60 0.1744
785.70 0.1743
785.80 0.1742
785.90 0.1741
786.00 0.174
786.10 0.1739
786.20 0.1739
786.30 0.1738
786.40 0.1737
786.50 0.1736
786.60 0.1735
786.70 0.1734
786.80 0.1733
786.90 0.1733
787.00 0.1732
787.10 0.1731
787.20 0.173
787.30 0.1729
787.40 0.1728
787.50 0.1727
787.60 0.1727
787.70 0.1726
787.80 0.1725
787.90 0.1724
788.00 0.1723
788.10 0.1722
788.20 0.1721
788.30 0.1721
788.40 0.172
788.50 0.1719
788.60 0.1718
788.70 0.1717
788.80 0.1716
788.90 0.1715
789.00 0.1715
789.10 0.1714
789.20 0.1713
789.30 0.1712
789.40 0.1711
789.50 0.171
789.60 0.171
789.70 0.1709
789.80 0.1708
789.90 0.1707
790.00 0.1706
790.10 0.1705
790.20 0.1704
790.30 0.1704
790.40 0.1703
790.50 0.1702
790.60 0.1701
790.70 0.17
790.80 0.1699
790.90 0.1699
791.00 0.1698
791.10 0.1697
791.20 0.1696
791.30 0.1695
791.40 0.1695
791.50 0.1694
791.60 0.1693
791.70 0.1692
791.80 0.1691
791.90 0.169
792.00 0.169
792.10 0.1689
792.20 0.1688
792.30 0.1687
792.40 0.1686
792.50 0.1685
792.60 0.1685
792.70 0.1684
792.80 0.1683
792.90 0.1682
793.00 0.1681
793.10 0.1681
793.20 0.168
793.30 0.1679
793.40 0.1678
793.50 0.1677
793.60 0.1676
793.70 0.1676
793.80 0.1675
793.90 0.1674
794.00 0.1673
794.10 0.1672
794.20 0.1671
794.30 0.1671
794.40 0.167
794.50 0.1669
794.60 0.1668
794.70 0.1667
794.80 0.1667
794.90 0.1666
795.00 0.1665
795.10 0.1664
795.20 0.1663
795.30 0.1663
795.40 0.1662
795.50 0.1661
795.60 0.166
795.70 0.1659
795.80 0.1658
795.90 0.1658
796.00 0.1657
796.10 0.1656
796.20 0.1655
796.30 0.1654
796.40 0.1654
796.50 0.1653
796.60 0.1652
796.70 0.1651
796.80 0.165
796.90 0.165
797.00 0.1649
797.10 0.1648
797.20 0.1647
797.30 0.1646
797.40 0.1646
797.50 0.1645
797.60 0.1644
797.70 0.1643
797.80 0.1642
797.90 0.1642
798.00 0.1641
798.10 0.164
798.20 0.1639
798.30 0.1638
798.40 0.1637
798.50 0.1637
798.60 0.1636
798.70 0.1635
798.80 0.1634
798.90 0.1633
799.00 0.1633
799.10 0.1632
799.20 0.1631
799.30 0.163
799.40 0.1629
799.50 0.1629
799.60 0.1628
799.70 0.1627
799.80 0.1626
799.90 0.1625
800.00 0.1625
800.10 0.1624
800.20 0.1623
800.30 0.1622
800.40 0.1622
800.50 0.1621
800.60 0.162
800.70 0.1619
800.80 0.1618
800.90 0.1618
801.00 0.1617
801.10 0.1616
801.20 0.1615
801.30 0.1615
801.40 0.1614
801.50 0.1613
801.60 0.1612
801.70 0.1611
801.80 0.1611
801.90 0.161
802.00 0.1609
802.10 0.1608
802.20 0.1608
802.30 0.1607
802.40 0.1606
802.50 0.1605
802.60 0.1604
802.70 0.1604
802.80 0.1603
802.90 0.1602
803.00 0.1601
803.10 0.1601
803.20 0.16
803.30 0.1599
803.40 0.1598
803.50 0.1598
803.60 0.1597
803.70 0.1596
803.80 0.1595
803.90 0.1594
804.00 0.1594
804.10 0.1593
804.20 0.1592
804.30 0.1591
804.40 0.1591
804.50 0.159
804.60 0.1589
804.70 0.1588
804.80 0.1588
804.90 0.1587
805.00 0.1586
805.10 0.1585
805.20 0.1584
805.30 0.1584
805.40 0.1583
805.50 0.1582
805.60 0.1581
805.70 0.1581
805.80 0.158
805.90 0.1579
806.00 0.1578
806.10 0.1578
806.20 0.1577
806.30 0.1576
806.40 0.1575
806.50 0.1575
806.60 0.1574
806.70 0.1573
806.80 0.1572
806.90 0.1571
807.00 0.1571
807.10 0.157
807.20 0.1569
807.30 0.1568
807.40 0.1568
807.50 0.1567
807.60 0.1566
807.70 0.1565
807.80 0.1565
807.90 0.1564
808.00 0.1563
808.10 0.1562
808.20 0.1562
808.30 0.1561
808.40 0.156
808.50 0.1559
808.60 0.1559
808.70 0.1558
808.80 0.1557
808.90 0.1556
809.00 0.1556
809.10 0.1555
809.20 0.1554
809.30 0.1553
809.40 0.1553
809.50 0.1552
809.60 0.1551
809.70 0.155
809.80 0.155
809.90 0.1549
810.00 0.1548
810.10 0.1547
810.20 0.1547
810.30 0.1546
810.40 0.1545
810.50 0.1544
810.60 0.1544
810.70 0.1543
810.80 0.1542
810.90 0.1541
811.00 0.1541
811.10 0.154
811.20 0.1539
811.30 0.1539
811.40 0.1538
811.50 0.1537
811.60 0.1536
811.70 0.1536
811.80 0.1535
811.90 0.1534
812.00 0.1533
812.10 0.1533
812.20 0.1532
812.30 0.1531
812.40 0.153
812.50 0.153
812.60 0.1529
812.70 0.1528
812.80 0.1528
812.90 0.1527
813.00 0.1526
813.10 0.1525
813.20 0.1525
813.30 0.1524
813.40 0.1523
813.50 0.1522
813.60 0.1522
813.70 0.1521
813.80 0.152
813.90 0.152
814.00 0.1519
814.10 0.1518
814.20 0.1517
814.30 0.1517
814.40 0.1516
814.50 0.1515
814.60 0.1515
814.70 0.1514
814.80 0.1513
814.90 0.1512
815.00 0.1512
815.10 0.1511
815.20 0.151
815.30 0.1509
815.40 0.1509
815.50 0.1508
815.60 0.1507
815.70 0.1507
815.80 0.1506
815.90 0.1505
816.00 0.1504
816.10 0.1504
816.20 0.1503
816.30 0.1502
816.40 0.1502
816.50 0.1501
816.60 0.15
816.70 0.1499
816.80 0.1499
816.90 0.1498
817.00 0.1497
817.10 0.1497
817.20 0.1496
817.30 0.1495
817.40 0.1494
817.50 0.1494
817.60 0.1493
817.70 0.1492
817.80 0.1492
817.90 0.1491
818.00 0.149
818.10 0.1489
818.20 0.1489
818.30 0.1488
818.40 0.1487
818.50 0.1487
818.60 0.1486
818.70 0.1485
818.80 0.1484
818.90 0.1484
819.00 0.1483
819.10 0.1482
819.20 0.1482
819.30 0.1481
819.40 0.148
819.50 0.1479
819.60 0.1479
819.70 0.1478
819.80 0.1477
819.90 0.1477
820.00 0.1476
820.10 0.1475
820.20 0.1475
820.30 0.1474
820.40 0.1473
820.50 0.1472
820.60 0.1472
820.70 0.1471
820.80 0.147
820.90 0.147
821.00 0.1469
821.10 0.1468
821.20 0.1468
821.30 0.1467
821.40 0.1466
821.50 0.1465
821.60 0.1465
821.70 0.1464
821.80 0.1463
821.90 0.1463
822.00 0.1462
822.10 0.1461
822.20 0.1461
822.30 0.146
822.40 0.1459
822.50 0.1459
822.60 0.1458
822.70 0.1457
822.80 0.1457
822.90 0.1456
823.00 0.1455
823.10 0.1454
823.20 0.1454
823.30 0.1453
823.40 0.1452
823.50 0.1452
823.60 0.1451
823.70 0.145
823.80 0.145
823.90 0.1449
824.00 0.1448
824.10 0.1448
824.20 0.1447
824.30 0.1446
824.40 0.1446
824.50 0.1445
824.60 0.1444
824.70 0.1444
824.80 0.1443
824.90 0.1442
825.00 0.1441
825.10 0.1441
825.20 0.144
825.30 0.1439
825.40 0.1439
825.50 0.1438
825.60 0.1437
825.70 0.1437
825.80 0.1436
825.90 0.1435
826.00 0.1435
826.10 0.1434
826.20 0.1433
826.30 0.1433
826.40 0.1432
826.50 0.1431
826.60 0.1431
826.70 0.143
826.80 0.1429
826.90 0.1429
827.00 0.1428
827.10 0.1427
827.20 0.1427
827.30 0.1426
827.40 0.1425
827.50 0.1425
827.60 0.1424
827.70 0.1423
827.80 0.1423
827.90 0.1422
828.00 0.1421
828.10 0.1421
828.20 0.142
828.30 0.1419
828.40 0.1419
828.50 0.1418
828.60 0.1417
828.70 0.1417
828.80 0.1416
828.90 0.1415
829.00 0.1415
829.10 0.1414
829.20 0.1413
829.30 0.1413
829.40 0.1412
829.50 0.1411
829.60 0.1411
829.70 0.141
829.80 0.1409
829.90 0.1409
830.00 0.1408
830.10 0.1407
830.20 0.1407
830.30 0.1406
830.40 0.1405
830.50 0.1405
830.60 0.1404
830.70 0.1403
830.80 0.1403
830.90 0.1402
831.00 0.1401
831.10 0.1401
831.20 0.14
831.30 0.1399
831.40 0.1399
831.50 0.1398
831.60 0.1397
831.70 0.1397
831.80 0.1396
831.90 0.1395
832.00 0.1395
832.10 0.1394
832.20 0.1394
832.30 0.1393
832.40 0.1392
832.50 0.1392
832.60 0.1391
832.70 0.139
832.80 0.139
832.90 0.1389
833.00 0.1388
833.10 0.1388
833.20 0.1387
833.30 0.1386
833.40 0.1386
833.50 0.1385
833.60 0.1384
833.70 0.1384
833.80 0.1383
833.90 0.1382
834.00 0.1382
834.10 0.1381
834.20 0.1381
834.30 0.138
834.40 0.1379
834.50 0.1379
834.60 0.1378
834.70 0.1377
834.80 0.1377
834.90 0.1376
835.00 0.1375
835.10 0.1375
835.20 0.1374
835.30 0.1373
835.40 0.1373
835.50 0.1372
835.60 0.1372
835.70 0.1371
835.80 0.137
835.90 0.137
836.00 0.1369
836.10 0.1368
836.20 0.1368
836.30 0.1367
836.40 0.1366
836.50 0.1366
836.60 0.1365
836.70 0.1365
836.80 0.1364
836.90 0.1363
837.00 0.1363
837.10 0.1362
837.20 0.1361
837.30 0.1361
837.40 0.136
837.50 0.1359
837.60 0.1359
837.70 0.1358
837.80 0.1358
837.90 0.1357
838.00 0.1356
838.10 0.1356
838.20 0.1355
838.30 0.1354
838.40 0.1354
838.50 0.1353
838.60 0.1353
838.70 0.1352
838.80 0.1351
838.90 0.1351
839.00 0.135
839.10 0.1349
839.20 0.1349
839.30 0.1348
839.40 0.1348
839.50 0.1347
839.60 0.1346
839.70 0.1346
839.80 0.1345
839.90 0.1344
840.00 0.1344
840.10 0.1343
840.20 0.1343
840.30 0.1342
840.40 0.1341
840.50 0.1341
840.60 0.134
840.70 0.1339
840.80 0.1339
840.90 0.1338
841.00 0.1338
841.10 0.1337
841.20 0.1336
841.30 0.1336
841.40 0.1335
841.50 0.1334
841.60 0.1334
841.70 0.1333
841.80 0.1333
841.90 0.1332
842.00 0.1331
842.10 0.1331
842.20 0.133
842.30 0.1329
842.40 0.1329
842.50 0.1328
842.60 0.1328
842.70 0.1327
842.80 0.1326
842.90 0.1326
843.00 0.1325
843.10 0.1325
843.20 0.1324
843.30 0.1323
843.40 0.1323
843.50 0.1322
843.60 0.1322
843.70 0.1321
843.80 0.132
843.90 0.132
844.00 0.1319
844.10 0.1318
844.20 0.1318
844.30 0.1317
844.40 0.1317
844.50 0.1316
844.60 0.1315
844.70 0.1315
844.80 0.1314
844.90 0.1314
845.00 0.1313
845.10 0.1312
845.20 0.1312
845.30 0.1311
845.40 0.1311
845.50 0.131
845.60 0.1309
845.70 0.1309
845.80 0.1308
845.90 0.1308
846.00 0.1307
846.10 0.1306
846.20 0.1306
846.30 0.1305
846.40 0.1305
846.50 0.1304
846.60 0.1303
846.70 0.1303
846.80 0.1302
846.90 0.1302
847.00 0.1301
847.10 0.13
847.20 0.13
847.30 0.1299
847.40 0.1299
847.50 0.1298
847.60 0.1297
847.70 0.1297
847.80 0.1296
847.90 0.1296
848.00 0.1295
848.10 0.1294
848.20 0.1294
848.30 0.1293
848.40 0.1293
848.50 0.1292
848.60 0.1291
848.70 0.1291
848.80 0.129
848.90 0.129
849.00 0.1289
849.10 0.1288
849.20 0.1288
849.30 0.1287
849.40 0.1287
849.50 0.1286
849.60 0.1286
849.70 0.1285
849.80 0.1284
849.90 0.1284
850.00 0.1283
850.10 0.1283
850.20 0.1282
850.30 0.1281
850.40 0.1281
850.50 0.128
850.60 0.128
850.70 0.1279
850.80 0.1278
850.90 0.1278
851.00 0.1277
851.10 0.1277
851.20 0.1276
851.30 0.1276
851.40 0.1275
851.50 0.1274
851.60 0.1274
851.70 0.1273
851.80 0.1273
851.90 0.1272
852.00 0.1271
852.10 0.1271
852.20 0.127
852.30 0.127
852.40 0.1269
852.50 0.1269
852.60 0.1268
852.70 0.1267
852.80 0.1267
852.90 0.1266
853.00 0.1266
853.10 0.1265
853.20 0.1264
853.30 0.1264
853.40 0.1263
853.50 0.1263
853.60 0.1262
853.70 0.1262
853.80 0.1261
853.90 0.126
854.00 0.126
854.10 0.1259
854.20 0.1259
854.30 0.1258
854.40 0.1258
854.50 0.1257
854.60 0.1256
854.70 0.1256
854.80 0.1255
854.90 0.1255
855.00 0.1254
855.10 0.1254
855.20 0.1253
855.30 0.1252
855.40 0.1252
855.50 0.1251
855.60 0.1251
855.70 0.125
855.80 0.125
855.90 0.1249
856.00 0.1248
856.10 0.1248
856.20 0.1247
856.30 0.1247
856.40 0.1246
856.50 0.1246
856.60 0.1245
856.70 0.1244
856.80 0.1244
856.90 0.1243
857.00 0.1243
857.10 0.1242
857.20 0.1242
857.30 0.1241
857.40 0.124
857.50 0.124
857.60 0.1239
857.70 0.1239
857.80 0.1238
857.90 0.1238
858.00 0.1237
858.10 0.1237
858.20 0.1236
858.30 0.1235
858.40 0.1235
858.50 0.1234
858.60 0.1234
858.70 0.1233
858.80 0.1233
858.90 0.1232
859.00 0.1232
859.10 0.1231
859.20 0.123
859.30 0.123
859.40 0.1229
859.50 0.1229
859.60 0.1228
859.70 0.1228
859.80 0.1227
859.90 0.1227
860.00 0.1226
860.10 0.1225
860.20 0.1225
860.30 0.1224
860.40 0.1224
860.50 0.1223
860.60 0.1223
860.70 0.1222
860.80 0.1222
860.90 0.1221
861.00 0.122
861.10 0.122
861.20 0.1219
861.30 0.1219
861.40 0.1218
861.50 0.1218
861.60 0.1217
861.70 0.1217
861.80 0.1216
861.90 0.1215
862.00 0.1215
862.10 0.1214
862.20 0.1214
862.30 0.1213
862.40 0.1213
862.50 0.1212
862.60 0.1212
862.70 0.1211
862.80 0.1211
862.90 0.121
863.00 0.1209
863.10 0.1209
863.20 0.1208
863.30 0.1208
863.40 0.1207
863.50 0.1207
863.60 0.1206
863.70 0.1206
863.80 0.1205
863.90 0.1205
864.00 0.1204
864.10 0.1203
864.20 0.1203
864.30 0.1202
864.40 0.1202
864.50 0.1201
864.60 0.1201
864.70 0.12
864.80 0.12
864.90 0.1199
865.00 0.1199
865.10 0.1198
865.20 0.1198
865.30 0.1197
865.40 0.1196
865.50 0.1196
865.60 0.1195
865.70 0.1195
865.80 0.1194
865.90 0.1194
866.00 0.1193
866.10 0.1193
866.20 0.1192
866.30 0.1192
866.40 0.1191
866.50 0.119
866.60 0.119
866.70 0.1189
866.80 0.1189
866.90 0.1188
867.00 0.1188
867.10 0.1187
867.20 0.1187
867.30 0.1186
867.40 0.1186
867.50 0.1185
867.60 0.1185
867.70 0.1184
867.80 0.1184
867.90 0.1183
868.00 0.1182
868.10 0.1182
868.20 0.1181
868.30 0.1181
868.40 0.118
868.50 0.118
868.60 0.1179
868.70 0.1179
868.80 0.1178
868.90 0.1178
869.00 0.1177
869.10 0.1177
869.20 0.1176
869.30 0.1176
869.40 0.1175
869.50 0.1175
869.60 0.1174
869.70 0.1174
869.80 0.1173
869.90 0.1172
870.00 0.1172
870.10 0.1171
870.20 0.1171
870.30 0.117
870.40 0.117
870.50 0.1169
870.60 0.1169
870.70 0.1168
870.80 0.1168
870.90 0.1167
871.00 0.1167
871.10 0.1166
871.20 0.1166
871.30 0.1165
871.40 0.1165
871.50 0.1164
871.60 0.1164
871.70 0.1163
871.80 0.1163
871.90 0.1162
872.00 0.1161
872.10 0.1161
872.20 0.116
872.30 0.116
872.40 0.1159
872.50 0.1159
872.60 0.1158
872.70 0.1158
872.80 0.1157
872.90 0.1157
873.00 0.1156
873.10 0.1156
873.20 0.1155
873.30 0.1155
873.40 0.1154
873.50 0.1154
873.60 0.1153
873.70 0.1153
873.80 0.1152
873.90 0.1152
874.00 0.1151
874.10 0.1151
874.20 0.115
874.30 0.115
874.40 0.1149
874.50 0.1149
874.60 0.1148
874.70 0.1148
874.80 0.1147
874.90 0.1147
875.00 0.1146
875.10 0.1146
875.20 0.1145
875.30 0.1145
875.40 0.1144
875.50 0.1144
875.60 0.1143
875.70 0.1142
875.80 0.1142
875.90 0.1141
876.00 0.1141
876.10 0.114
876.20 0.114
876.30 0.1139
876.40 0.1139
876.50 0.1138
876.60 0.1138
876.70 0.1137
876.80 0.1137
876.90 0.1136
877.00 0.1136
877.10 0.1135
877.20 0.1135
877.30 0.1134
877.40 0.1134
877.50 0.1133
877.60 0.1133
877.70 0.1132
877.80 0.1132
877.90 0.1131
878.00 0.1131
878.10 0.113
878.20 0.113
878.30 0.1129
878.40 0.1129
878.50 0.1128
878.60 0.1128
878.70 0.1127
878.80 0.1127
878.90 0.1126
879.00 0.1126
879.10 0.1125
879.20 0.1125
879.30 0.1124
879.40 0.1124
879.50 0.1123
879.60 0.1123
879.70 0.1122
879.80 0.1122
879.90 0.1121
880.00 0.1121
880.10 0.112
880.20 0.112
880.30 0.1119
880.40 0.1119
880.50 0.1118
880.60 0.1118
880.70 0.1117
880.80 0.1117
880.90 0.1116
881.00 0.1116
881.10 0.1115
881.20 0.1115
881.30 0.1114
881.40 0.1114
881.50 0.1113
881.60 0.1113
881.70 0.1112
881.80 0.1112
881.90 0.1112
882.00 0.1111
882.10 0.1111
882.20 0.111
882.30 0.111
882.40 0.1109
882.50 0.1109
882.60 0.1108
882.70 0.1108
882.80 0.1107
882.90 0.1107
883.00 0.1106
883.10 0.1106
883.20 0.1105
883.30 0.1105
883.40 0.1104
883.50 0.1104
883.60 0.1103
883.70 0.1103
883.80 0.1102
883.90 0.1102
884.00 0.1101
884.10 0.1101
884.20 0.11
884.30 0.11
884.40 0.1099
884.50 0.1099
884.60 0.1098
884.70 0.1098
884.80 0.1097
884.90 0.1097
885.00 0.1096
885.10 0.1096
885.20 0.1096
885.30 0.1095
885.40 0.1095
885.50 0.1094
885.60 0.1094
885.70 0.1093
885.80 0.1093
885.90 0.1092
886.00 0.1092
886.10 0.1091
886.20 0.1091
886.30 0.109
886.40 0.109
886.50 0.1089
886.60 0.1089
886.70 0.1088
886.80 0.1088
886.90 0.1087
887.00 0.1087
887.10 0.1086
887.20 0.1086
887.30 0.1085
887.40 0.1085
887.50 0.1085
887.60 0.1084
887.70 0.1084
887.80 0.1083
887.90 0.1083
888.00 0.1082
888.10 0.1082
888.20 0.1081
888.30 0.1081
888.40 0.108
888.50 0.108
888.60 0.1079
888.70 0.1079
888.80 0.1078
888.90 0.1078
889.00 0.1077
889.10 0.1077
889.20 0.1076
889.30 0.1076
889.40 0.1076
889.50 0.1075
889.60 0.1075
889.70 0.1074
889.80 0.1074
889.90 0.1073
890.00 0.1073
890.10 0.1072
890.20 0.1072
890.30 0.1071
890.40 0.1071
890.50 0.107
890.60 0.107
890.70 0.1069
890.80 0.1069
890.90 0.1068
891.00 0.1068
891.10 0.1068
891.20 0.1067
891.30 0.1067
891.40 0.1066
891.50 0.1066
891.60 0.1065
891.70 0.1065
891.80 0.1064
891.90 0.1064
892.00 0.1063
892.10 0.1063
892.20 0.1062
892.30 0.1062
892.40 0.1061
892.50 0.1061
892.60 0.1061
892.70 0.106
892.80 0.106
892.90 0.1059
893.00 0.1059
893.10 0.1058
893.20 0.1058
893.30 0.1057
893.40 0.1057
893.50 0.1056
893.60 0.1056
893.70 0.1055
893.80 0.1055
893.90 0.1055
894.00 0.1054
894.10 0.1054
894.20 0.1053
894.30 0.1053
894.40 0.1052
894.50 0.1052
894.60 0.1051
894.70 0.1051
894.80 0.105
894.90 0.105
895.00 0.105
895.10 0.1049
895.20 0.1049
895.30 0.1048
895.40 0.1048
895.50 0.1047
895.60 0.1047
895.70 0.1046
895.80 0.1046
895.90 0.1045
896.00 0.1045
896.10 0.1045
896.20 0.1044
896.30 0.1044
896.40 0.1043
896.50 0.1043
896.60 0.1042
896.70 0.1042
896.80 0.1041
896.90 0.1041
897.00 0.104
897.10 0.104
897.20 0.104
897.30 0.1039
897.40 0.1039
897.50 0.1038
897.60 0.1038
897.70 0.1037
897.80 0.1037
897.90 0.1036
898.00 0.1036
898.10 0.1036
898.20 0.1035
898.30 0.1035
898.40 0.1034
898.50 0.1034
898.60 0.1033
898.70 0.1033
898.80 0.1032
898.90 0.1032
899.00 0.1032
899.10 0.1031
899.20 0.1031
899.30 0.103
899.40 0.103
899.50 0.1029
899.60 0.1029
899.70 0.1028
899.80 0.1028
899.90 0.1028
900.00 0.1027
900.10 0.1027
900.20 0.1026
900.30 0.1026
900.40 0.1025
900.50 0.1025
900.60 0.1025
900.70 0.1024
900.80 0.1024
900.90 0.1023
901.00 0.1023
901.10 0.1022
901.20 0.1022
901.30 0.1021
901.40 0.1021
901.50 0.1021
901.60 0.102
901.70 0.102
901.80 0.1019
901.90 0.1019
902.00 0.1018
902.10 0.1018
902.20 0.1017
902.30 0.1017
902.40 0.1017
902.50 0.1016
902.60 0.1016
902.70 0.1015
902.80 0.1015
902.90 0.1014
903.00 0.1014
903.10 0.1014
903.20 0.1013
903.30 0.1013
903.40 0.1012
903.50 0.1012
903.60 0.1011
903.70 0.1011
903.80 0.101
903.90 0.101
904.00 0.101
904.10 0.1009
904.20 0.1009
904.30 0.1008
904.40 0.1008
904.50 0.1007
904.60 0.1007
904.70 0.1007
904.80 0.1006
904.90 0.1006
905.00 0.1005
905.10 0.1005
905.20 0.1004
905.30 0.1004
905.40 0.1004
905.50 0.1003
905.60 0.1003
905.70 0.1002
905.80 0.1002
905.90 0.1001
906.00 0.1001
906.10 0.1
906.20 0.1
906.30 0.09996
906.40 0.09992
906.50 0.09988
906.60 0.09983
906.70 0.09979
906.80 0.09975
906.90 0.0997
907.00 0.09966
907.10 0.09962
907.20 0.09957
907.30 0.09953
907.40 0.09949
907.50 0.09945
907.60 0.0994
907.70 0.09936
907.80 0.09932
907.90 0.09928
908.00 0.09923
908.10 0.09919
908.20 0.09915
908.30 0.09911
908.40 0.09907
908.50 0.09902
908.60 0.09898
908.70 0.09894
908.80 0.0989
908.90 0.09885
909.00 0.09881
909.10 0.09877
909.20 0.09873
909.30 0.09868
909.40 0.09864
909.50 0.0986
909.60 0.09856
909.70 0.09852
909.80 0.09847
909.90 0.09843
910.00 0.09839
910.10 0.09835
910.20 0.09831
910.30 0.09826
910.40 0.09822
910.50 0.09818
910.60 0.09814
910.70 0.0981
910.80 0.09805
910.90 0.09801
911.00 0.09797
911.10 0.09793
911.20 0.09789
911.30 0.09784
911.40 0.0978
911.50 0.09776
911.60 0.09772
911.70 0.09768
911.80 0.09763
911.90 0.09759
912.00 0.09755
912.10 0.09751
912.20 0.09747
912.30 0.09743
912.40 0.09738
912.50 0.09734
912.60 0.0973
912.70 0.09726
912.80 0.09722
912.90 0.09718
913.00 0.09714
913.10 0.09709
913.20 0.09705
913.30 0.09701
913.40 0.09697
913.50 0.09693
913.60 0.09689
913.70 0.09685
913.80 0.09681
913.90 0.09676
914.00 0.09672
914.10 0.09668
914.20 0.09664
914.30 0.0966
914.40 0.09656
914.50 0.09652
914.60 0.09648
914.70 0.09644
914.80 0.09639
914.90 0.09635
915.00 0.09631
915.10 0.09627
915.20 0.09623
915.30 0.09619
915.40 0.09615
915.50 0.09611
915.60 0.09607
915.70 0.09602
915.80 0.09598
915.90 0.09594
916.00 0.0959
916.10 0.09586
916.20 0.09582
916.30 0.09578
916.40 0.09574
916.50 0.0957
916.60 0.09566
916.70 0.09562
916.80 0.09558
916.90 0.09553
917.00 0.09549
917.10 0.09545
917.20 0.09541
917.30 0.09537
917.40 0.09533
917.50 0.09529
917.60 0.09525
917.70 0.09521
917.80 0.09517
917.90 0.09514
918.00 0.0951
918.10 0.09506
918.20 0.09502
918.30 0.09498
918.40 0.09494
918.50 0.0949
918.60 0.09486
918.70 0.09482
918.80 0.09478
918.90 0.09474
919.00 0.0947
919.10 0.09466
919.20 0.09462
919.30 0.09458
919.40 0.09454
919.50 0.0945
919.60 0.09446
919.70 0.09442
919.80 0.09438
919.90 0.09434
920.00 0.0943
920.10 0.09426
920.20 0.09422
920.30 0.09418
920.40 0.09414
920.50 0.0941
920.60 0.09407
920.70 0.09403
920.80 0.09399
920.90 0.09395
921.00 0.09391
921.10 0.09387
921.20 0.09383
921.30 0.09379
921.40 0.09375
921.50 0.09371
921.60 0.09367
921.70 0.09363
921.80 0.09359
921.90 0.09355
922.00 0.09352
922.10 0.09348
922.20 0.09344
922.30 0.0934
922.40 0.09336
922.50 0.09332
922.60 0.09328
922.70 0.09324
922.80 0.0932
922.90 0.09316
923.00 0.09312
923.10 0.09308
923.20 0.09304
923.30 0.093
923.40 0.09296
923.50 0.09293
923.60 0.09289
923.70 0.09285
923.80 0.09281
923.90 0.09277
924.00 0.09273
924.10 0.09269
924.20 0.09265
924.30 0.09261
924.40 0.09257
924.50 0.09253
924.60 0.0925
924.70 0.09246
924.80 0.09242
924.90 0.09238
925.00 0.09234
925.10 0.0923
925.20 0.09226
925.30 0.09222
925.40 0.09218
925.50 0.09214
925.60 0.09211
925.70 0.09207
925.80 0.09203
925.90 0.09199
926.00 0.09195
926.10 0.09191
926.20 0.09187
926.30 0.09183
926.40 0.0918
926.50 0.09176
926.60 0.09172
926.70 0.09168
926.80 0.09164
926.90 0.0916
927.00 0.09156
927.10 0.09152
927.20 0.09149
927.30 0.09145
927.40 0.09141
927.50 0.09137
927.60 0.09133
927.70 0.0913
927.80 0.09126
927.90 0.09122
928.00 0.09118
928.10 0.09115
928.20 0.09111
928.30 0.09107
928.40 0.09103
928.50 0.09099
928.60 0.09096
928.70 0.09092
928.80 0.09088
928.90 0.09084
929.00 0.0908
929.10 0.09077
929.20 0.09073
929.30 0.09069
929.40 0.09065
929.50 0.09062
929.60 0.09058
929.70 0.09054
929.80 0.0905
929.90 0.09047
930.00 0.09043
930.10 0.09039
930.20 0.09035
930.30 0.09032
930.40 0.09028
930.50 0.09024
930.60 0.0902
930.70 0.09017
930.80 0.09013
930.90 0.09009
931.00 0.09005
931.10 0.09002
931.20 0.08998
931.30 0.08994
931.40 0.0899
931.50 0.08987
931.60 0.08983
931.70 0.08979
931.80 0.08975
931.90 0.08972
932.00 0.08968
932.10 0.08964
932.20 0.0896
932.30 0.08957
932.40 0.08953
932.50 0.08949
932.60 0.08946
932.70 0.08942
932.80 0.08938
932.90 0.08934
933.00 0.08931
933.10 0.08927
933.20 0.08923
933.30 0.0892
933.40 0.08916
933.50 0.08912
933.60 0.08909
933.70 0.08905
933.80 0.08901
933.90 0.08897
934.00 0.08894
934.10 0.0889
934.20 0.08886
934.30 0.08883
934.40 0.08879
934.50 0.08875
934.60 0.08872
934.70 0.08868
934.80 0.08864
934.90 0.0886
935.00 0.08857
935.10 0.08853
935.20 0.08849
935.30 0.08846
935.40 0.08842
935.50 0.08838
935.60 0.08835
935.70 0.08831
935.80 0.08827
935.90 0.08824
936.00 0.0882
936.10 0.08816
936.20 0.08813
936.30 0.08809
936.40 0.08805
936.50 0.08802
936.60 0.08798
936.70 0.08794
936.80 0.08791
936.90 0.08787
937.00 0.08783
937.10 0.0878
937.20 0.08776
937.30 0.08772
937.40 0.08769
937.50 0.08765
937.60 0.08761
937.70 0.08758
937.80 0.08754
937.90 0.0875
938.00 0.08747
938.10 0.08743
938.20 0.08739
938.30 0.08736
938.40 0.08732
938.50 0.08728
938.60 0.08725
938.70 0.08721
938.80 0.08717
938.90 0.08714
939.00 0.0871
939.10 0.08706
939.20 0.08703
939.30 0.08699
939.40 0.08696
939.50 0.08692
939.60 0.08688
939.70 0.08685
939.80 0.08681
939.90 0.08677
940.00 0.08674
940.10 0.0867
940.20 0.08666
940.30 0.08663
940.40 0.08659
940.50 0.08655
940.60 0.08652
940.70 0.08648
940.80 0.08645
940.90 0.08641
941.00 0.08637
941.10 0.08634
941.20 0.0863
941.30 0.08626
941.40 0.08623
941.50 0.08619
941.60 0.08616
941.70 0.08612
941.80 0.08608
941.90 0.08605
942.00 0.08601
942.10 0.08598
942.20 0.08594
942.30 0.0859
942.40 0.08587
942.50 0.08583
942.60 0.08579
942.70 0.08576
942.80 0.08572
942.90 0.08569
943.00 0.08565
943.10 0.08561
943.20 0.08558
943.30 0.08554
943.40 0.08551
943.50 0.08547
943.60 0.08543
943.70 0.0854
943.80 0.08536
943.90 0.08533
944.00 0.08529
944.10 0.08525
944.20 0.08522
944.30 0.08518
944.40 0.08515
944.50 0.08511
944.60 0.08507
944.70 0.08504
944.80 0.085
944.90 0.08497
945.00 0.08493
945.10 0.08489
945.20 0.08486
945.30 0.08482
945.40 0.08479
945.50 0.08475
945.60 0.08471
945.70 0.08468
945.80 0.08464
945.90 0.08461
946.00 0.08457
946.10 0.08454
946.20 0.0845
946.30 0.08446
946.40 0.08443
946.50 0.08439
946.60 0.08436
946.70 0.08432
946.80 0.08429
946.90 0.08425
947.00 0.08421
947.10 0.08418
947.20 0.08414
947.30 0.08411
947.40 0.08407
947.50 0.08404
947.60 0.084
947.70 0.08397
947.80 0.08393
947.90 0.0839
948.00 0.08386
948.10 0.08382
948.20 0.08379
948.30 0.08375
948.40 0.08372
948.50 0.08368
948.60 0.08365
948.70 0.08361
948.80 0.08358
948.90 0.08354
949.00 0.08351
949.10 0.08347
949.20 0.08344
949.30 0.0834
949.40 0.08337
949.50 0.08333
949.60 0.0833
949.70 0.08326
949.80 0.08323
949.90 0.08319
950.00 0.08316
950.10 0.08312
950.20 0.08309
950.30 0.08305
950.40 0.08302
950.50 0.08299
950.60 0.08295
950.70 0.08292
950.80 0.08288
950.90 0.08285
951.00 0.08281
951.10 0.08278
951.20 0.08274
951.30 0.08271
951.40 0.08267
951.50 0.08264
951.60 0.08261
951.70 0.08257
951.80 0.08254
951.90 0.08251
952.00 0.08247
952.10 0.08244
952.20 0.0824
952.30 0.08237
952.40 0.08234
952.50 0.08231
952.60 0.08227
952.70 0.08224
952.80 0.08221
952.90 0.08217
953.00 0.08214
953.10 0.08211
953.20 0.08208
953.30 0.08204
953.40 0.08201
953.50 0.08198
953.60 0.08195
953.70 0.08192
953.80 0.08188
953.90 0.08185
954.00 0.08182
954.10 0.08179
954.20 0.08176
954.30 0.08173
954.40 0.0817
954.50 0.08167
954.60 0.08164
954.70 0.0816
954.80 0.08157
954.90 0.08153
955.00 0.08149
955.10 0.08146
955.20 0.08142
955.30 0.08139
955.40 0.08135
955.50 0.08132
955.60 0.08129
955.70 0.08125
955.80 0.08122
955.90 0.08118
956.00 0.08115
956.10 0.08112
956.20 0.08108
956.30 0.08105
956.40 0.08102
956.50 0.08098
956.60 0.08095
956.70 0.08092
956.80 0.08088
956.90 0.08085
957.00 0.08082
957.10 0.08078
957.20 0.08075
957.30 0.08072
957.40 0.08069
957.50 0.08066
957.60 0.08062
957.70 0.08059
957.80 0.08056
957.90 0.08053
958.00 0.0805
958.10 0.08046
958.20 0.08043
958.30 0.0804
958.40 0.08037
958.50 0.08034
958.60 0.0803
958.70 0.08027
958.80 0.08024
958.90 0.08021
959.00 0.08018
959.10 0.08015
959.20 0.08011
959.30 0.08008
959.40 0.08005
959.50 0.08002
959.60 0.07999
959.70 0.07996
959.80 0.07993
959.90 0.0799
960.00 0.07986
960.10 0.07983
960.20 0.0798
960.30 0.07977
960.40 0.07974
960.50 0.07971
960.60 0.07968
960.70 0.07965
960.80 0.07961
960.90 0.07958
961.00 0.07955
961.10 0.07952
961.20 0.07949
961.30 0.07946
961.40 0.07943
961.50 0.0794
961.60 0.07937
961.70 0.07934
961.80 0.07931
961.90 0.07927
962.00 0.07924
962.10 0.07921
962.20 0.07918
962.30 0.07915
962.40 0.07912
962.50 0.07909
962.60 0.07906
962.70 0.07903
962.80 0.079
962.90 0.07897
963.00 0.07894
963.10 0.07891
963.20 0.07887
963.30 0.07884
963.40 0.07881
963.50 0.07878
963.60 0.07875
963.70 0.07872
963.80 0.07869
963.90 0.07866
964.00 0.07863
964.10 0.0786
964.20 0.07857
964.30 0.07854
964.40 0.07851
964.50 0.07848
964.60 0.07845
964.70 0.07842
964.80 0.07839
964.90 0.07835
965.00 0.07832
965.10 0.07829
965.20 0.07826
965.30 0.07823
965.40 0.0782
965.50 0.07817
965.60 0.07814
965.70 0.07811
965.80 0.07808
965.90 0.07805
966.00 0.07802
966.10 0.07799
966.20 0.07796
966.30 0.07793
966.40 0.0779
966.50 0.07787
966.60 0.07784
966.70 0.07781
966.80 0.07778
966.90 0.07775
967.00 0.07772
967.10 0.07769
967.20 0.07766
967.30 0.07762
967.40 0.07759
967.50 0.07756
967.60 0.07753
967.70 0.0775
967.80 0.07747
967.90 0.07744
968.00 0.07741
968.10 0.07738
968.20 0.07735
968.30 0.07732
968.40 0.07729
968.50 0.07726
968.60 0.07723
968.70 0.0772
968.80 0.07717
968.90 0.07714
969.00 0.07711
969.10 0.07708
969.20 0.07705
969.30 0.07702
969.40 0.07699
969.50 0.07696
969.60 0.07693
969.70 0.0769
969.80 0.07687
969.90 0.07684
970.00 0.07681
970.10 0.07678
970.20 0.07675
970.30 0.07672
970.40 0.07669
970.50 0.07666
970.60 0.07663
970.70 0.0766
970.80 0.07657
970.90 0.07654
971.00 0.07651
971.10 0.07648
971.20 0.07645
971.30 0.07642
971.40 0.07639
971.50 0.07636
971.60 0.07632
971.70 0.07629
971.80 0.07626
971.90 0.07623
972.00 0.0762
972.10 0.07617
972.20 0.07614
972.30 0.07611
972.40 0.07608
972.50 0.07605
972.60 0.07602
972.70 0.07599
972.80 0.07596
972.90 0.07593
973.00 0.0759
973.10 0.07587
973.20 0.07584
973.30 0.07581
973.40 0.07578
973.50 0.07575
973.60 0.07572
973.70 0.07569
973.80 0.07566
973.90 0.07563
974.00 0.0756
974.10 0.07557
974.20 0.07554
974.30 0.07551
974.40 0.07548
974.50 0.07545
974.60 0.07542
974.70 0.07539
974.80 0.07536
974.90 0.07533
975.00 0.0753
975.10 0.07527
975.20 0.07524
975.30 0.07522
975.40 0.07519
975.50 0.07516
975.60 0.07513
975.70 0.0751
975.80 0.07507
975.90 0.07504
976.00 0.07501
976.10 0.07498
976.20 0.07495
976.30 0.07492
976.40 0.07489
976.50 0.07486
976.60 0.07483
976.70 0.0748
976.80 0.07477
976.90 0.07474
977.00 0.07471
977.10 0.07468
977.20 0.07465
977.30 0.07462
977.40 0.07459
977.50 0.07456
977.60 0.07453
977.70 0.0745
977.80 0.07447
977.90 0.07444
978.00 0.07441
978.10 0.07438
978.20 0.07435
978.30 0.07432
978.40 0.07429
978.50 0.07426
978.60 0.07423
978.70 0.0742
978.80 0.07417
978.90 0.07414
979.00 0.07411
979.10 0.07408
979.20 0.07405
979.30 0.07402
979.40 0.07399
979.50 0.07396
979.60 0.07393
979.70 0.0739
979.80 0.07387
979.90 0.07385
980.00 0.07382
980.10 0.07379
980.20 0.07376
980.30 0.07373
980.40 0.0737
980.50 0.07367
980.60 0.07364
980.70 0.07361
980.80 0.07358
980.90 0.07355
981.00 0.07352
981.10 0.07349
981.20 0.07346
981.30 0.07343
981.40 0.0734
981.50 0.07337
981.60 0.07334
981.70 0.07331
981.80 0.07328
981.90 0.07325
982.00 0.07323
982.10 0.0732
982.20 0.07317
982.30 0.07314
982.40 0.07311
982.50 0.07308
982.60 0.07305
982.70 0.07302
982.80 0.07299
982.90 0.07296
983.00 0.07293
983.10 0.0729
983.20 0.07287
983.30 0.07284
983.40 0.07281
983.50 0.07278
983.60 0.07275
983.70 0.07272
983.80 0.07269
983.90 0.07266
984.00 0.07264
984.10 0.07261
984.20 0.07258
984.30 0.07255
984.40 0.07252
984.50 0.07249
984.60 0.07246
984.70 0.07243
984.80 0.0724
984.90 0.07237
985.00 0.07234
985.10 0.07231
985.20 0.07228
985.30 0.07225
985.40 0.07222
985.50 0.07219
985.60 0.07216
985.70 0.07213
985.80 0.0721
985.90 0.07208
986.00 0.07205
986.10 0.07202
986.20 0.07199
986.30 0.07196
986.40 0.07193
986.50 0.0719
986.60 0.07187
986.70 0.07184
986.80 0.07181
986.90 0.07178
987.00 0.07175
987.10 0.07172
987.20 0.07169
987.30 0.07166
987.40 0.07163
987.50 0.0716
987.60 0.07158
987.70 0.07155
987.80 0.07152
987.90 0.07149
988.00 0.07146
988.10 0.07143
988.20 0.0714
988.30 0.07137
988.40 0.07134
988.50 0.07131
988.60 0.07128
988.70 0.07125
988.80 0.07122
988.90 0.07119
989.00 0.07116
989.10 0.07113
989.20 0.0711
989.30 0.07107
989.40 0.07105
989.50 0.07102
989.60 0.07099
989.70 0.07096
989.80 0.07093
989.90 0.0709
990.00 0.07087
990.10 0.07084
990.20 0.07081
990.30 0.07078
990.40 0.07075
990.50 0.07072
990.60 0.07069
990.70 0.07066
990.80 0.07063
990.90 0.0706
991.00 0.07057
991.10 0.07054
991.20 0.07051
991.30 0.07048
991.40 0.07046
991.50 0.07043
991.60 0.0704
991.70 0.07037
991.80 0.07034
991.90 0.07031
992.00 0.07028
992.10 0.07025
992.20 0.07022
992.30 0.07019
992.40 0.07016
992.50 0.07013
992.60 0.0701
992.70 0.07007
992.80 0.07004
992.90 0.07001
993.00 0.06998
993.10 0.06995
993.20 0.06992
993.30 0.06989
993.40 0.06986
993.50 0.06983
993.60 0.0698
993.70 0.06977
993.80 0.06974
993.90 0.06971
994.00 0.06968
994.10 0.06966
994.20 0.06963
994.30 0.0696
994.40 0.06957
994.50 0.06954
994.60 0.06951
994.70 0.06948
994.80 0.06945
994.90 0.06942
995.00 0.06939
995.10 0.06936
995.20 0.06933
995.30 0.0693
995.40 0.06927
995.50 0.06924
995.60 0.06921
995.70 0.06918
995.80 0.06915
995.90 0.06912
996.00 0.06909
996.10 0.06906
996.20 0.06903
996.30 0.069
996.40 0.06897
996.50 0.06894
996.60 0.06891
996.70 0.06888
996.80 0.06885
996.90 0.06882
997.00 0.06879
997.10 0.06876
997.20 0.06873
997.30 0.0687
997.40 0.06867
997.50 0.06864
997.60 0.06861
997.70 0.06858
997.80 0.06855
997.90 0.06852
998.00 0.06849
998.10 0.06846
998.20 0.06843
998.30 0.0684
998.40 0.06837
998.50 0.06834
998.60 0.06831
998.70 0.06828
998.80 0.06825
998.90 0.06822
999.00 0.0682
999.10 0.06817
999.20 0.06814
999.30 0.06811
999.40 0.06808
999.50 0.06805
999.60 0.06802
999.70 0.06799
999.80 0.06796
999.90 0.06793
1000.00 0.0679
1000.10 0.06787
1000.20 0.06783
1000.30 0.0678
1000.40 0.06777
1000.50 0.06774
1000.60 0.06771
1000.70 0.06768
1000.80 0.06765
1000.90 0.06762
1001.00 0.06759
1001.10 0.06756
1001.20 0.06753
1001.30 0.0675
1001.40 0.06747
1001.50 0.06744
1001.60 0.06741
1001.70 0.06738
1001.80 0.06735
1001.90 0.06733
1002.00 0.0673
1002.10 0.06727
1002.20 0.06725
1002.30 0.06722
1002.40 0.0672
1002.50 0.06717
1002.60 0.06714
1002.70 0.06712
1002.80 0.06709
1002.90 0.06707
1003.00 0.06704
1003.10 0.06702
1003.20 0.06699
1003.30 0.06697
1003.40 0.06695
1003.50 0.06693
1003.60 0.0669
1003.70 0.06688
1003.80 0.06686
1003.90 0.06684
1004.00 0.06682
1004.10 0.0668
1004.20 0.06678
1004.30 0.06677
1004.40 0.06675
1004.50 0.06673
1004.60 0.06672
1004.70 0.06669
1004.80 0.06667
1004.90 0.06664
1005.00 0.06662
1005.10 0.06659
1005.20 0.06656
1005.30 0.06653
1005.40 0.0665
1005.50 0.06647
1005.60 0.06643
1005.70 0.0664
1005.80 0.06637
1005.90 0.06633
1006.00 0.0663
1006.10 0.06627
1006.20 0.06624
1006.30 0.06621
1006.40 0.06618
1006.50 0.06615
1006.60 0.06613
1006.70 0.0661
1006.80 0.06607
1006.90 0.06604
1007.00 0.06601
1007.10 0.06599
1007.20 0.06596
1007.30 0.06594
1007.40 0.06591
1007.50 0.06589
1007.60 0.06586
1007.70 0.06584
1007.80 0.06581
1007.90 0.06579
1008.00 0.06577
1008.10 0.06574
1008.20 0.06572
1008.30 0.0657
1008.40 0.06567
1008.50 0.06565
1008.60 0.06563
1008.70 0.0656
1008.80 0.06558
1008.90 0.06556
1009.00 0.06554
1009.10 0.06551
1009.20 0.06549
1009.30 0.06547
1009.40 0.06544
1009.50 0.06542
1009.60 0.0654
1009.70 0.06537
1009.80 0.06535
1009.90 0.06533
1010.00 0.06531
1010.10 0.06529
1010.20 0.06526
1010.30 0.06524
1010.40 0.06522
1010.50 0.0652
1010.60 0.06518
1010.70 0.06515
1010.80 0.06513
1010.90 0.06511
1011.00 0.06509
1011.10 0.06506
1011.20 0.06504
1011.30 0.06502
1011.40 0.065
1011.50 0.06498
1011.60 0.06495
1011.70 0.06493
1011.80 0.06491
1011.90 0.06489
1012.00 0.06487
1012.10 0.06484
1012.20 0.06482
1012.30 0.0648
1012.40 0.06478
1012.50 0.06476
1012.60 0.06473
1012.70 0.06471
1012.80 0.06469
1012.90 0.06467
1013.00 0.06465
1013.10 0.06462
1013.20 0.0646
1013.30 0.06458
1013.40 0.06456
1013.50 0.06454
1013.60 0.06451
1013.70 0.06449
1013.80 0.06447
1013.90 0.06445
1014.00 0.06443
1014.10 0.0644
1014.20 0.06438
1014.30 0.06436
1014.40 0.06434
1014.50 0.06431
1014.60 0.06429
1014.70 0.06427
1014.80 0.06425
1014.90 0.06423
1015.00 0.0642
1015.10 0.06418
1015.20 0.06416
1015.30 0.06414
1015.40 0.06411
1015.50 0.06409
1015.60 0.06407
1015.70 0.06405
1015.80 0.06402
1015.90 0.064
1016.00 0.06398
1016.10 0.06396
1016.20 0.06393
1016.30 0.06391
1016.40 0.06389
1016.50 0.06387
1016.60 0.06385
1016.70 0.06382
1016.80 0.0638
1016.90 0.06378
1017.00 0.06376
1017.10 0.06373
1017.20 0.06371
1017.30 0.06369
1017.40 0.06367
1017.50 0.06364
1017.60 0.06362
1017.70 0.0636
1017.80 0.06358
1017.90 0.06355
1018.00 0.06353
1018.10 0.06351
1018.20 0.06349
1018.30 0.06346
1018.40 0.06344
1018.50 0.06342
1018.60 0.0634
1018.70 0.06337
1018.80 0.06335
1018.90 0.06333
1019.00 0.0633
1019.10 0.06328
1019.20 0.06326
1019.30 0.06324
1019.40 0.06321
1019.50 0.06319
1019.60 0.06317
1019.70 0.06315
1019.80 0.06312
1019.90 0.0631
1020.00 0.06308
1020.10 0.06305
1020.20 0.06303
1020.30 0.06301
1020.40 0.06299
1020.50 0.06296
1020.60 0.06294
1020.70 0.06292
1020.80 0.0629
1020.90 0.06287
1021.00 0.06285
1021.10 0.06283
1021.20 0.0628
1021.30 0.06278
1021.40 0.06276
1021.50 0.06274
1021.60 0.06271
1021.70 0.06269
1021.80 0.06267
1021.90 0.06265
1022.00 0.06262
1022.10 0.0626
1022.20 0.06258
1022.30 0.06255
1022.40 0.06253
1022.50 0.06251
1022.60 0.06249
1022.70 0.06246
1022.80 0.06244
1022.90 0.06242
1023.00 0.06239
1023.10 0.06237
1023.20 0.06235
1023.30 0.06233
1023.40 0.0623
1023.50 0.06228
1023.60 0.06226
1023.70 0.06224
1023.80 0.06221
1023.90 0.06219
1024.00 0.06217
1024.10 0.06214
1024.20 0.06212
1024.30 0.0621
1024.40 0.06208
1024.50 0.06205
1024.60 0.06203
1024.70 0.06201
1024.80 0.06199
1024.90 0.06196
1025.00 0.06194
1025.10 0.06192
1025.20 0.06189
1025.30 0.06187
1025.40 0.06185
1025.50 0.06183
1025.60 0.0618
1025.70 0.06178
1025.80 0.06176
1025.90 0.06173
1026.00 0.06171
1026.10 0.06169
1026.20 0.06167
1026.30 0.06164
1026.40 0.06162
1026.50 0.0616
1026.60 0.06158
1026.70 0.06155
1026.80 0.06153
1026.90 0.06151
1027.00 0.06148
1027.10 0.06146
1027.20 0.06144
1027.30 0.06142
1027.40 0.06139
1027.50 0.06137
1027.60 0.06135
1027.70 0.06132
1027.80 0.0613
1027.90 0.06128
1028.00 0.06126
1028.10 0.06123
1028.20 0.06121
1028.30 0.06119
1028.40 0.06117
1028.50 0.06114
1028.60 0.06112
1028.70 0.0611
1028.80 0.06108
1028.90 0.06105
1029.00 0.06103
1029.10 0.06101
1029.20 0.06098
1029.30 0.06096
1029.40 0.06094
1029.50 0.06092
1029.60 0.06089
1029.70 0.06087
1029.80 0.06085
1029.90 0.06083
1030.00 0.0608
1030.10 0.06078
1030.20 0.06076
1030.30 0.06074
1030.40 0.06071
1030.50 0.06069
1030.60 0.06067
1030.70 0.06065
1030.80 0.06062
1030.90 0.0606
1031.00 0.06058
1031.10 0.06056
1031.20 0.06053
1031.30 0.06051
1031.40 0.06049
1031.50 0.06047
1031.60 0.06044
1031.70 0.06042
1031.80 0.0604
1031.90 0.06038
1032.00 0.06035
1032.10 0.06033
1032.20 0.06031
1032.30 0.06029
1032.40 0.06026
1032.50 0.06024
1032.60 0.06022
1032.70 0.0602
1032.80 0.06017
1032.90 0.06015
1033.00 0.06013
1033.10 0.06011
1033.20 0.06008
1033.30 0.06006
1033.40 0.06004
1033.50 0.06002
1033.60 0.05999
1033.70 0.05997
1033.80 0.05995
1033.90 0.05993
1034.00 0.05991
1034.10 0.05988
1034.20 0.05986
1034.30 0.05984
1034.40 0.05982
1034.50 0.05979
1034.60 0.05977
1034.70 0.05975
1034.80 0.05973
1034.90 0.0597
1035.00 0.05968
1035.10 0.05966
1035.20 0.05964
1035.30 0.05962
1035.40 0.05959
1035.50 0.05957
1035.60 0.05955
1035.70 0.05953
1035.80 0.0595
1035.90 0.05948
1036.00 0.05946
1036.10 0.05944
1036.20 0.05942
1036.30 0.05939
1036.40 0.05937
1036.50 0.05935
1036.60 0.05933
1036.70 0.0593
1036.80 0.05928
1036.90 0.05926
1037.00 0.05924
1037.10 0.05922
1037.20 0.05919
1037.30 0.05917
1037.40 0.05915
1037.50 0.05913
1037.60 0.05911
1037.70 0.05908
1037.80 0.05906
1037.90 0.05904
1038.00 0.05902
1038.10 0.059
1038.20 0.05897
1038.30 0.05895
1038.40 0.05893
1038.50 0.05891
1038.60 0.05889
1038.70 0.05886
1038.80 0.05884
1038.90 0.05882
1039.00 0.0588
1039.10 0.05878
1039.20 0.05875
1039.30 0.05873
1039.40 0.05871
1039.50 0.05869
1039.60 0.05867
1039.70 0.05864
1039.80 0.05862
1039.90 0.0586
1040.00 0.05858
1040.10 0.05856
1040.20 0.05853
1040.30 0.05851
1040.40 0.05849
1040.50 0.05847
1040.60 0.05845
1040.70 0.05843
1040.80 0.0584
1040.90 0.05838
1041.00 0.05836
1041.10 0.05834
1041.20 0.05832
1041.30 0.05829
1041.40 0.05827
1041.50 0.05825
1041.60 0.05823
1041.70 0.05821
1041.80 0.05819
1041.90 0.05816
1042.00 0.05814
1042.10 0.05812
1042.20 0.0581
1042.30 0.05808
1042.40 0.05806
1042.50 0.05803
1042.60 0.05801
1042.70 0.05799
1042.80 0.05797
1042.90 0.05795
1043.00 0.05793
1043.10 0.0579
1043.20 0.05788
1043.30 0.05786
1043.40 0.05784
1043.50 0.05782
1043.60 0.0578
1043.70 0.05778
1043.80 0.05775
1043.90 0.05773
1044.00 0.05771
1044.10 0.05769
1044.20 0.05767
1044.30 0.05765
1044.40 0.05762
1044.50 0.0576
1044.60 0.05758
1044.70 0.05756
1044.80 0.05754
1044.90 0.05752
1045.00 0.0575
1045.10 0.05747
1045.20 0.05745
1045.30 0.05743
1045.40 0.05741
1045.50 0.05739
1045.60 0.05737
1045.70 0.05735
1045.80 0.05732
1045.90 0.0573
1046.00 0.05728
1046.10 0.05726
1046.20 0.05724
1046.30 0.05722
1046.40 0.0572
1046.50 0.05717
1046.60 0.05715
1046.70 0.05713
1046.80 0.05711
1046.90 0.05709
1047.00 0.05707
1047.10 0.05705
1047.20 0.05703
1047.30 0.057
1047.40 0.05698
1047.50 0.05696
1047.60 0.05694
1047.70 0.05692
1047.80 0.0569
1047.90 0.05688
1048.00 0.05686
1048.10 0.05683
1048.20 0.05681
1048.30 0.05679
1048.40 0.05677
1048.50 0.05675
1048.60 0.05673
1048.70 0.05671
1048.80 0.05669
1048.90 0.05667
1049.00 0.05664
1049.10 0.05662
1049.20 0.0566
1049.30 0.05658
1049.40 0.05656
1049.50 0.05654
1049.60 0.05652
1049.70 0.0565
1049.80 0.05648
1049.90 0.05645
1050.00 0.05643
1050.10 0.05641
1050.20 0.05639
1050.30 0.05637
1050.40 0.05635
1050.50 0.05633
1050.60 0.05631
1050.70 0.05629
1050.80 0.05627
1050.90 0.05624
1051.00 0.05622
1051.10 0.0562
1051.20 0.05618
1051.30 0.05616
1051.40 0.05614
1051.50 0.05612
1051.60 0.0561
1051.70 0.05608
1051.80 0.05606
1051.90 0.05604
1052.00 0.05601
1052.10 0.05599
1052.20 0.05597
1052.30 0.05595
1052.40 0.05593
1052.50 0.05591
1052.60 0.05589
1052.70 0.05587
1052.80 0.05585
1052.90 0.05583
1053.00 0.05581
1053.10 0.05579
1053.20 0.05576
1053.30 0.05574
1053.40 0.05572
1053.50 0.0557
1053.60 0.05568
1053.70 0.05566
1053.80 0.05564
1053.90 0.05562
1054.00 0.0556
1054.10 0.05558
1054.20 0.05556
1054.30 0.05554
1054.40 0.05552
1054.50 0.0555
1054.60 0.05548
1054.70 0.05545
1054.80 0.05543
1054.90 0.05541
1055.00 0.05539
1055.10 0.05537
1055.20 0.05535
1055.30 0.05533
1055.40 0.05531
1055.50 0.05529
1055.60 0.05527
1055.70 0.05525
1055.80 0.05523
1055.90 0.05521
1056.00 0.05519
1056.10 0.05517
1056.20 0.05515
1056.30 0.05513
1056.40 0.0551
1056.50 0.05508
1056.60 0.05506
1056.70 0.05504
1056.80 0.05502
1056.90 0.055
1057.00 0.05498
1057.10 0.05496
1057.20 0.05494
1057.30 0.05492
1057.40 0.0549
1057.50 0.05488
1057.60 0.05486
1057.70 0.05484
1057.80 0.05482
1057.90 0.0548
1058.00 0.05478
1058.10 0.05476
1058.20 0.05474
1058.30 0.05472
1058.40 0.0547
1058.50 0.05468
1058.60 0.05466
1058.70 0.05463
1058.80 0.05461
1058.90 0.05459
1059.00 0.05457
1059.10 0.05455
1059.20 0.05453
1059.30 0.05451
1059.40 0.05449
1059.50 0.05447
1059.60 0.05445
1059.70 0.05443
1059.80 0.05441
1059.90 0.05439
1060.00 0.05437
1060.10 0.05435
1060.20 0.05433
1060.30 0.05431
1060.40 0.05429
1060.50 0.05427
1060.60 0.05425
1060.70 0.05423
1060.80 0.05421
1060.90 0.05419
1061.00 0.05417
1061.10 0.05415
1061.20 0.05413
1061.30 0.05411
1061.40 0.05409
1061.50 0.05407
1061.60 0.05405
1061.70 0.05403
1061.80 0.05401
1061.90 0.05399
1062.00 0.05397
1062.10 0.05395
1062.20 0.05393
1062.30 0.05391
1062.40 0.05389
1062.50 0.05387
1062.60 0.05385
1062.70 0.05383
1062.80 0.05381
1062.90 0.05379
1063.00 0.05377
1063.10 0.05375
1063.20 0.05373
1063.30 0.05371
1063.40 0.05369
1063.50 0.05367
1063.60 0.05365
1063.70 0.05363
1063.80 0.05361
1063.90 0.05359
1064.00 0.05357
1064.10 0.05355
1064.20 0.05353
1064.30 0.05351
1064.40 0.05349
1064.50 0.05347
1064.60 0.05345
1064.70 0.05343
1064.80 0.05341
1064.90 0.05339
1065.00 0.05337
1065.10 0.05335
1065.20 0.05333
1065.30 0.05331
1065.40 0.05329
1065.50 0.05327
1065.60 0.05325
1065.70 0.05323
1065.80 0.05321
1065.90 0.05319
1066.00 0.05317
1066.10 0.05315
1066.20 0.05313
1066.30 0.05311
1066.40 0.05309
1066.50 0.05307
1066.60 0.05305
1066.70 0.05303
1066.80 0.05301
1066.90 0.05299
1067.00 0.05297
1067.10 0.05295
1067.20 0.05293
1067.30 0.05291
1067.40 0.05289
1067.50 0.05287
1067.60 0.05285
1067.70 0.05283
1067.80 0.05281
1067.90 0.05279
1068.00 0.05277
1068.10 0.05275
1068.20 0.05273
1068.30 0.05271
1068.40 0.05269
1068.50 0.05267
1068.60 0.05265
1068.70 0.05263
1068.80 0.05261
1068.90 0.05259
1069.00 0.05257
1069.10 0.05255
1069.20 0.05253
1069.30 0.05251
1069.40 0.05249
1069.50 0.05247
1069.60 0.05245
1069.70 0.05243
1069.80 0.05241
1069.90 0.05239
1070.00 0.05237
1070.10 0.05235
1070.20 0.05233
1070.30 0.05231
1070.40 0.0523
1070.50 0.05228
1070.60 0.05226
1070.70 0.05224
1070.80 0.05222
1070.90 0.0522
1071.00 0.05218
1071.10 0.05216
1071.20 0.05214
1071.30 0.05212
1071.40 0.0521
1071.50 0.05208
1071.60 0.05206
1071.70 0.05204
1071.80 0.05202
1071.90 0.052
1072.00 0.05198
1072.10 0.05196
1072.20 0.05194
1072.30 0.05192
1072.40 0.0519
1072.50 0.05188
1072.60 0.05186
1072.70 0.05184
1072.80 0.05182
1072.90 0.0518
1073.00 0.05178
1073.10 0.05176
1073.20 0.05174
1073.30 0.05172
1073.40 0.0517
1073.50 0.05168
1073.60 0.05166
1073.70 0.05164
1073.80 0.05162
1073.90 0.0516
1074.00 0.05158
1074.10 0.05156
1074.20 0.05154
1074.30 0.05152
1074.40 0.0515
1074.50 0.05148
1074.60 0.05146
1074.70 0.05144
1074.80 0.05143
1074.90 0.05141
1075.00 0.05139
1075.10 0.05137
1075.20 0.05135
1075.30 0.05133
1075.40 0.05131
1075.50 0.05129
1075.60 0.05127
1075.70 0.05125
1075.80 0.05123
1075.90 0.05121
1076.00 0.05119
1076.10 0.05117
1076.20 0.05115
1076.30 0.05113
1076.40 0.05111
1076.50 0.05109
1076.60 0.05107
1076.70 0.05105
1076.80 0.05103
1076.90 0.05101
1077.00 0.05099
1077.10 0.05097
1077.20 0.05095
1077.30 0.05093
1077.40 0.05091
1077.50 0.05089
1077.60 0.05087
1077.70 0.05085
1077.80 0.05083
1077.90 0.05081
1078.00 0.05079
1078.10 0.05077
1078.20 0.05075
1078.30 0.05073
1078.40 0.05071
1078.50 0.05069
1078.60 0.05067
1078.70 0.05065
1078.80 0.05063
1078.90 0.05061
1079.00 0.05059
1079.10 0.05057
1079.20 0.05055
1079.30 0.05053
1079.40 0.05051
1079.50 0.05049
1079.60 0.05047
1079.70 0.05045
1079.80 0.05043
1079.90 0.0504
1080.00 0.05038
1080.10 0.05036
1080.20 0.05034
1080.30 0.05032
1080.40 0.0503
1080.50 0.05028
1080.60 0.05026
1080.70 0.05024
1080.80 0.05022
1080.90 0.0502
1081.00 0.05018
1081.10 0.05016
1081.20 0.05014
1081.30 0.05012
1081.40 0.0501
1081.50 0.05008
1081.60 0.05006
1081.70 0.05004
1081.80 0.05002
1081.90 0.04999
1082.00 0.04997
1082.10 0.04995
1082.20 0.04993
1082.30 0.04991
1082.40 0.04989
1082.50 0.04987
1082.60 0.04985
1082.70 0.04983
1082.80 0.04981
1082.90 0.04979
1083.00 0.04976
1083.10 0.04974
1083.20 0.04972
1083.30 0.0497
1083.40 0.04968
1083.50 0.04966
1083.60 0.04964
1083.70 0.04962
1083.80 0.0496
1083.90 0.04958
1084.00 0.04955
1084.10 0.04953
1084.20 0.04951
1084.30 0.04949
1084.40 0.04947
1084.50 0.04945
1084.60 0.04943
1084.70 0.0494
1084.80 0.04938
1084.90 0.04936
1085.00 0.04934
1085.10 0.04932
1085.20 0.0493
1085.30 0.04927
1085.40 0.04925
1085.50 0.04923
1085.60 0.04921
1085.70 0.04919
1085.80 0.04917
1085.90 0.04914
1086.00 0.04912
1086.10 0.0491
1086.20 0.04908
1086.30 0.04906
1086.40 0.04904
1086.50 0.04902
1086.60 0.04899
1086.70 0.04897
1086.80 0.04895
1086.90 0.04893
1087.00 0.04891
1087.10 0.04888
1087.20 0.04886
1087.30 0.04884
1087.40 0.04882
1087.50 0.0488
1087.60 0.04878
1087.70 0.04875
1087.80 0.04873
1087.90 0.04871
1088.00 0.04869
1088.10 0.04867
1088.20 0.04864
1088.30 0.04862
1088.40 0.0486
1088.50 0.04858
1088.60 0.04856
1088.70 0.04854
1088.80 0.04852
1088.90 0.04849
1089.00 0.04847
1089.10 0.04845
1089.20 0.04843
1089.30 0.04841
1089.40 0.04839
1089.50 0.04837
1089.60 0.04835
1089.70 0.04833
1089.80 0.04831
1089.90 0.04828
1090.00 0.04826
1090.10 0.04824
1090.20 0.04822
1090.30 0.0482
1090.40 0.04818
1090.50 0.04816
1090.60 0.04814
1090.70 0.04812
1090.80 0.0481
1090.90 0.04809
1091.00 0.04807
1091.10 0.04805
1091.20 0.04803
1091.30 0.04801
1091.40 0.04799
1091.50 0.04797
1091.60 0.04796
1091.70 0.04794
1091.80 0.04792
1091.90 0.0479
1092.00 0.04788
1092.10 0.04787
1092.20 0.04785
1092.30 0.04784
1092.40 0.04782
1092.50 0.04781
1092.60 0.04779
1092.70 0.04778
1092.80 0.04776
1092.90 0.04775
1093.00 0.04774
1093.10 0.04772
1093.20 0.04771
1093.30 0.0477
1093.40 0.0477
1093.50 0.0477
1093.60 0.04772
1093.70 0.04773
1093.80 0.04773
1093.90 0.04771
1094.00 0.04767
1094.10 0.04762
1094.20 0.04758
1094.30 0.04754
1094.40 0.04752
1094.50 0.0475
1094.60 0.04747
1094.70 0.04745
1094.80 0.04743
1094.90 0.04741
1095.00 0.04739
1095.10 0.04737
1095.20 0.04735
1095.30 0.04734
1095.40 0.04732
1095.50 0.0473
1095.60 0.04729
1095.70 0.04727
1095.80 0.04725
1095.90 0.04723
1096.00 0.04722
1096.10 0.0472
1096.20 0.04718
1096.30 0.04717
1096.40 0.04715
1096.50 0.04713
1096.60 0.04712
1096.70 0.0471
1096.80 0.04709
1096.90 0.04708
1097.00 0.04706
1097.10 0.04705
1097.20 0.04703
1097.30 0.04702
1097.40 0.04701
1097.50 0.047
1097.60 0.04698
1097.70 0.04697
1097.80 0.04696
1097.90 0.04694
1098.00 0.04693
1098.10 0.04692
1098.20 0.0469
1098.30 0.04689
1098.40 0.04688
1098.50 0.04686
1098.60 0.04685
1098.70 0.04684
1098.80 0.04683
1098.90 0.04681
1099.00 0.0468
1099.10 0.04679
1099.20 0.04678
1099.30 0.04677
1099.40 0.04675
1099.50 0.04674
1099.60 0.04673
1099.70 0.04672
1099.80 0.0467
1099.90 0.04669
1100.00 0.04668
1100.10 0.04667
1100.20 0.04665
1100.30 0.04664
1100.40 0.04663
1100.50 0.04662
1100.60 0.0466
1100.70 0.04659
1100.80 0.04658
1100.90 0.04657
1101.00 0.04655
1101.10 0.04654
1101.20 0.04653
1101.30 0.04652
1101.40 0.0465
1101.50 0.04649
1101.60 0.04648
1101.70 0.04647
1101.80 0.04645
1101.90 0.04644
1102.00 0.04643
1102.10 0.04642
1102.20 0.0464
1102.30 0.04639
1102.40 0.04638
1102.50 0.04637
1102.60 0.04635
1102.70 0.04634
1102.80 0.04633
1102.90 0.04631
1103.00 0.0463
1103.10 0.04629
1103.20 0.04628
1103.30 0.04626
1103.40 0.04625
1103.50 0.04624
1103.60 0.04622
1103.70 0.04621
1103.80 0.0462
1103.90 0.04618
1104.00 0.04617
1104.10 0.04616
1104.20 0.04614
1104.30 0.04613
1104.40 0.04612
1104.50 0.0461
1104.60 0.04609
1104.70 0.04607
1104.80 0.04606
1104.90 0.04605
1105.00 0.04603
1105.10 0.04602
1105.20 0.04601
1105.30 0.04599
1105.40 0.04598
1105.50 0.04597
1105.60 0.04595
1105.70 0.04594
1105.80 0.04593
1105.90 0.04591
1106.00 0.0459
1106.10 0.04588
1106.20 0.04587
1106.30 0.04586
1106.40 0.04584
1106.50 0.04583
1106.60 0.04581
1106.70 0.0458
1106.80 0.04579
1106.90 0.04577
1107.00 0.04576
1107.10 0.04574
1107.20 0.04573
1107.30 0.04572
1107.40 0.0457
1107.50 0.04569
1107.60 0.04567
1107.70 0.04566
1107.80 0.04564
1107.90 0.04563
1108.00 0.04562
1108.10 0.0456
1108.20 0.04559
1108.30 0.04557
1108.40 0.04556
1108.50 0.04554
1108.60 0.04553
1108.70 0.04552
1108.80 0.0455
1108.90 0.04549
1109.00 0.04547
1109.10 0.04546
1109.20 0.04544
1109.30 0.04543
1109.40 0.04541
1109.50 0.0454
1109.60 0.04539
1109.70 0.04537
1109.80 0.04536
1109.90 0.04534
1110.00 0.04533
1110.10 0.04531
1110.20 0.0453
1110.30 0.04528
1110.40 0.04527
1110.50 0.04525
1110.60 0.04524
1110.70 0.04522
1110.80 0.04521
1110.90 0.04519
1111.00 0.04518
1111.10 0.04517
1111.20 0.04515
1111.30 0.04514
1111.40 0.04512
1111.50 0.04511
1111.60 0.04509
1111.70 0.04508
1111.80 0.04506
1111.90 0.04505
1112.00 0.04503
1112.10 0.04502
1112.20 0.045
1112.30 0.04499
1112.40 0.04497
1112.50 0.04496
1112.60 0.04494
1112.70 0.04493
1112.80 0.04491
1112.90 0.0449
1113.00 0.04488
1113.10 0.04487
1113.20 0.04486
1113.30 0.04484
1113.40 0.04483
1113.50 0.04481
1113.60 0.0448
1113.70 0.04478
1113.80 0.04477
1113.90 0.04475
1114.00 0.04474
1114.10 0.04472
1114.20 0.04471
1114.30 0.04469
1114.40 0.04468
1114.50 0.04466
1114.60 0.04465
1114.70 0.04463
1114.80 0.04462
1114.90 0.0446
1115.00 0.04459
1115.10 0.04457
1115.20 0.04456
1115.30 0.04454
1115.40 0.04453
1115.50 0.04451
1115.60 0.0445
1115.70 0.04448
1115.80 0.04447
1115.90 0.04445
1116.00 0.04444
1116.10 0.04442
1116.20 0.04441
1116.30 0.04439
1116.40 0.04438
1116.50 0.04436
1116.60 0.04435
1116.70 0.04433
1116.80 0.04432
1116.90 0.0443
1117.00 0.04429
1117.10 0.04427
1117.20 0.04426
1117.30 0.04424
1117.40 0.04423
1117.50 0.04421
1117.60 0.0442
1117.70 0.04418
1117.80 0.04417
1117.90 0.04415
1118.00 0.04414
1118.10 0.04412
1118.20 0.04411
1118.30 0.04409
1118.40 0.04408
1118.50 0.04406
1118.60 0.04405
1118.70 0.04403
1118.80 0.04402
1118.90 0.044
1119.00 0.04399
1119.10 0.04397
1119.20 0.04396
1119.30 0.04394
1119.40 0.04393
1119.50 0.04391
1119.60 0.0439
1119.70 0.04388
1119.80 0.04387
1119.90 0.04385
1120.00 0.04384
1120.10 0.04382
1120.20 0.04381
1120.30 0.04379
1120.40 0.04378
1120.50 0.04376
1120.60 0.04375
1120.70 0.04373
1120.80 0.04372
1120.90 0.0437
1121.00 0.04369
1121.10 0.04367
1121.20 0.04366
1121.30 0.04364
1121.40 0.04363
1121.50 0.04361
1121.60 0.0436
1121.70 0.04359
1121.80 0.04357
1121.90 0.04356
1122.00 0.04354
1122.10 0.04353
1122.20 0.04351
1122.30 0.0435
1122.40 0.04348
1122.50 0.04347
1122.60 0.04345
1122.70 0.04344
1122.80 0.04342
1122.90 0.04341
1123.00 0.04339
1123.10 0.04338
1123.20 0.04336
1123.30 0.04335
1123.40 0.04333
1123.50 0.04332
1123.60 0.0433
1123.70 0.04329
1123.80 0.04327
1123.90 0.04326
1124.00 0.04324
1124.10 0.04323
1124.20 0.04321
1124.30 0.0432
1124.40 0.04318
1124.50 0.04317
1124.60 0.04315
1124.70 0.04314
1124.80 0.04313
1124.90 0.04311
1125.00 0.0431
1125.10 0.04308
1125.20 0.04307
1125.30 0.04305
1125.40 0.04304
1125.50 0.04302
1125.60 0.04301
1125.70 0.04299
1125.80 0.04298
1125.90 0.04296
1126.00 0.04295
1126.10 0.04293
1126.20 0.04292
1126.30 0.0429
1126.40 0.04289
1126.50 0.04287
1126.60 0.04286
1126.70 0.04285
1126.80 0.04283
1126.90 0.04282
1127.00 0.0428
1127.10 0.04279
1127.20 0.04277
1127.30 0.04276
1127.40 0.04274
1127.50 0.04273
1127.60 0.04271
1127.70 0.0427
1127.80 0.04268
1127.90 0.04267
1128.00 0.04265
1128.10 0.04264
1128.20 0.04263
1128.30 0.04261
1128.40 0.0426
1128.50 0.04258
1128.60 0.04257
1128.70 0.04255
1128.80 0.04254
1128.90 0.04252
1129.00 0.04251
1129.10 0.04249
1129.20 0.04248
1129.30 0.04246
1129.40 0.04245
1129.50 0.04244
1129.60 0.04242
1129.70 0.04241
1129.80 0.04239
1129.90 0.04238
1130.00 0.04236
1130.10 0.04235
1130.20 0.04233
1130.30 0.04232
1130.40 0.0423
1130.50 0.04229
1130.60 0.04228
1130.70 0.04226
1130.80 0.04225
1130.90 0.04223
1131.00 0.04222
1131.10 0.0422
1131.20 0.04219
1131.30 0.04217
1131.40 0.04216
1131.50 0.04215
1131.60 0.04213
1131.70 0.04212
1131.80 0.0421
1131.90 0.04209
1132.00 0.04207
1132.10 0.04206
1132.20 0.04204
1132.30 0.04203
1132.40 0.04202
1132.50 0.042
1132.60 0.04199
1132.70 0.04197
1132.80 0.04196
1132.90 0.04194
1133.00 0.04193
1133.10 0.04191
1133.20 0.0419
1133.30 0.04189
1133.40 0.04187
1133.50 0.04186
1133.60 0.04184
1133.70 0.04183
1133.80 0.04181
1133.90 0.0418
1134.00 0.04179
1134.10 0.04177
1134.20 0.04176
1134.30 0.04174
1134.40 0.04173
1134.50 0.04171
1134.60 0.0417
1134.70 0.04169
1134.80 0.04167
1134.90 0.04166
1135.00 0.04164
1135.10 0.04163
1135.20 0.04161
1135.30 0.0416
1135.40 0.04159
1135.50 0.04157
1135.60 0.04156
1135.70 0.04154
1135.80 0.04153
1135.90 0.04151
1136.00 0.0415
1136.10 0.04149
1136.20 0.04147
1136.30 0.04146
1136.40 0.04144
1136.50 0.04143
1136.60 0.04141
1136.70 0.0414
1136.80 0.04139
1136.90 0.04137
1137.00 0.04136
1137.10 0.04134
1137.20 0.04133
1137.30 0.04132
1137.40 0.0413
1137.50 0.04129
1137.60 0.04127
1137.70 0.04126
1137.80 0.04125
1137.90 0.04123
1138.00 0.04122
1138.10 0.0412
1138.20 0.04119
1138.30 0.04117
1138.40 0.04116
1138.50 0.04115
1138.60 0.04113
1138.70 0.04112
1138.80 0.0411
1138.90 0.04109
1139.00 0.04108
1139.10 0.04106
1139.20 0.04105
1139.30 0.04103
1139.40 0.04102
1139.50 0.04101
1139.60 0.04099
1139.70 0.04098
1139.80 0.04096
1139.90 0.04095
1140.00 0.04094
1140.10 0.04092
1140.20 0.04091
1140.30 0.04089
1140.40 0.04088
1140.50 0.04087
1140.60 0.04085
1140.70 0.04084
1140.80 0.04082
1140.90 0.04081
1141.00 0.0408
1141.10 0.04078
1141.20 0.04077
1141.30 0.04075
1141.40 0.04074
1141.50 0.04073
1141.60 0.04071
1141.70 0.0407
1141.80 0.04068
1141.90 0.04067
1142.00 0.04066
1142.10 0.04064
1142.20 0.04063
1142.30 0.04062
1142.40 0.0406
1142.50 0.04059
1142.60 0.04057
1142.70 0.04056
1142.80 0.04055
1142.90 0.04053
1143.00 0.04052
1143.10 0.0405
1143.20 0.04049
1143.30 0.04048
1143.40 0.04046
1143.50 0.04045
1143.60 0.04044
1143.70 0.04042
1143.80 0.04041
1143.90 0.04039
1144.00 0.04038
1144.10 0.04037
1144.20 0.04035
1144.30 0.04034
1144.40 0.04033
1144.50 0.04031
1144.60 0.0403
1144.70 0.04028
1144.80 0.04027
1144.90 0.04026
1145.00 0.04024
1145.10 0.04023
1145.20 0.04022
1145.30 0.0402
1145.40 0.04019
1145.50 0.04017
1145.60 0.04016
1145.70 0.04015
1145.80 0.04013
1145.90 0.04012
1146.00 0.04011
1146.10 0.04009
1146.20 0.04008
1146.30 0.04007
1146.40 0.04005
1146.50 0.04004
1146.60 0.04002
1146.70 0.04001
1146.80 0.04
1146.90 0.03998
1147.00 0.03997
1147.10 0.03996
1147.20 0.03994
1147.30 0.03993
1147.40 0.03992
1147.50 0.0399
1147.60 0.03989
1147.70 0.03987
1147.80 0.03986
1147.90 0.03985
1148.00 0.03983
1148.10 0.03982
1148.20 0.03981
1148.30 0.03979
1148.40 0.03978
1148.50 0.03977
1148.60 0.03975
1148.70 0.03974
1148.80 0.03973
1148.90 0.03971
1149.00 0.0397
1149.10 0.03969
1149.20 0.03967
1149.30 0.03966
1149.40 0.03965
1149.50 0.03963
1149.60 0.03962
1149.70 0.0396
1149.80 0.03959
1149.90 0.03958
1150.00 0.03956
1150.10 0.03955
1150.20 0.03954
1150.30 0.03952
1150.40 0.03951
1150.50 0.0395
1150.60 0.03948
1150.70 0.03947
1150.80 0.03946
1150.90 0.03944
1151.00 0.03943
1151.10 0.03942
1151.20 0.0394
1151.30 0.03939
1151.40 0.03938
1151.50 0.03936
1151.60 0.03935
1151.70 0.03934
1151.80 0.03932
1151.90 0.03931
1152.00 0.0393
1152.10 0.03928
1152.20 0.03927
1152.30 0.03926
1152.40 0.03924
1152.50 0.03923
1152.60 0.03922
1152.70 0.0392
1152.80 0.03919
1152.90 0.03918
1153.00 0.03916
1153.10 0.03915
1153.20 0.03914
1153.30 0.03912
1153.40 0.03911
1153.50 0.0391
1153.60 0.03908
1153.70 0.03907
1153.80 0.03906
1153.90 0.03904
1154.00 0.03903
1154.10 0.03902
1154.20 0.039
1154.30 0.03899
1154.40 0.03898
1154.50 0.03897
1154.60 0.03895
1154.70 0.03894
1154.80 0.03893
1154.90 0.03891
1155.00 0.0389
1155.10 0.03889
1155.20 0.03887
1155.30 0.03886
1155.40 0.03885
1155.50 0.03883
1155.60 0.03882
1155.70 0.03881
1155.80 0.03879
1155.90 0.03878
1156.00 0.03877
1156.10 0.03875
1156.20 0.03874
1156.30 0.03873
1156.40 0.03872
1156.50 0.0387
1156.60 0.03869
1156.70 0.03868
1156.80 0.03866
1156.90 0.03865
1157.00 0.03864
1157.10 0.03862
1157.20 0.03861
1157.30 0.0386
1157.40 0.03858
1157.50 0.03857
1157.60 0.03856
1157.70 0.03855
1157.80 0.03853
1157.90 0.03852
1158.00 0.03851
1158.10 0.03849
1158.20 0.03848
1158.30 0.03847
1158.40 0.03846
1158.50 0.03844
1158.60 0.03843
1158.70 0.03842
1158.80 0.0384
1158.90 0.03839
1159.00 0.03838
1159.10 0.03836
1159.20 0.03835
1159.30 0.03834
1159.40 0.03833
1159.50 0.03831
1159.60 0.0383
1159.70 0.03829
1159.80 0.03827
1159.90 0.03826
1160.00 0.03825
1160.10 0.03824
1160.20 0.03822
1160.30 0.03821
1160.40 0.0382
1160.50 0.03818
1160.60 0.03817
1160.70 0.03816
1160.80 0.03815
1160.90 0.03813
1161.00 0.03812
1161.10 0.03811
1161.20 0.03809
1161.30 0.03808
1161.40 0.03807
1161.50 0.03806
1161.60 0.03804
1161.70 0.03803
1161.80 0.03802
1161.90 0.038
1162.00 0.03799
1162.10 0.03798
1162.20 0.03797
1162.30 0.03795
1162.40 0.03794
1162.50 0.03793
1162.60 0.03791
1162.70 0.0379
1162.80 0.03789
1162.90 0.03788
1163.00 0.03786
1163.10 0.03785
1163.20 0.03784
1163.30 0.03783
1163.40 0.03781
1163.50 0.0378
1163.60 0.03779
1163.70 0.03777
1163.80 0.03776
1163.90 0.03775
1164.00 0.03774
1164.10 0.03772
1164.20 0.03771
1164.30 0.0377
1164.40 0.03769
1164.50 0.03767
1164.60 0.03766
1164.70 0.03765
1164.80 0.03764
1164.90 0.03762
1165.00 0.03761
1165.10 0.0376
1165.20 0.03759
1165.30 0.03757
1165.40 0.03756
1165.50 0.03755
1165.60 0.03753
1165.70 0.03752
1165.80 0.03751
1165.90 0.0375
1166.00 0.03748
1166.10 0.03747
1166.20 0.03746
1166.30 0.03745
1166.40 0.03743
1166.50 0.03742
1166.60 0.03741
1166.70 0.0374
1166.80 0.03738
1166.90 0.03737
1167.00 0.03736
1167.10 0.03735
1167.20 0.03733
1167.30 0.03732
1167.40 0.03731
1167.50 0.0373
1167.60 0.03728
1167.70 0.03727
1167.80 0.03726
1167.90 0.03725
1168.00 0.03723
1168.10 0.03722
1168.20 0.03721
1168.30 0.0372
1168.40 0.03718
1168.50 0.03717
1168.60 0.03716
1168.70 0.03715
1168.80 0.03713
1168.90 0.03712
1169.00 0.03711
1169.10 0.0371
1169.20 0.03708
1169.30 0.03707
1169.40 0.03706
1169.50 0.03705
1169.60 0.03704
1169.70 0.03702
1169.80 0.03701
1169.90 0.037
1170.00 0.03699
1170.10 0.03697
1170.20 0.03696
1170.30 0.03695
1170.40 0.03694
1170.50 0.03692
1170.60 0.03691
1170.70 0.0369
1170.80 0.03689
1170.90 0.03687
1171.00 0.03686
1171.10 0.03685
1171.20 0.03684
1171.30 0.03683
1171.40 0.03681
1171.50 0.0368
1171.60 0.03679
1171.70 0.03678
1171.80 0.03676
1171.90 0.03675
1172.00 0.03674
1172.10 0.03673
1172.20 0.03671
1172.30 0.0367
1172.40 0.03669
1172.50 0.03668
1172.60 0.03667
1172.70 0.03665
1172.80 0.03664
1172.90 0.03663
1173.00 0.03662
1173.10 0.0366
1173.20 0.03659
1173.30 0.03658
1173.40 0.03657
1173.50 0.03656
1173.60 0.03654
1173.70 0.03653
1173.80 0.03652
1173.90 0.03651
1174.00 0.0365
1174.10 0.03648
1174.20 0.03647
1174.30 0.03646
1174.40 0.03645
1174.50 0.03643
1174.60 0.03642
1174.70 0.03641
1174.80 0.0364
1174.90 0.03639
1175.00 0.03637
1175.10 0.03636
1175.20 0.03635
1175.30 0.03634
1175.40 0.03633
1175.50 0.03631
1175.60 0.0363
1175.70 0.03629
1175.80 0.03628
1175.90 0.03626
1176.00 0.03625
1176.10 0.03624
1176.20 0.03623
1176.30 0.03622
1176.40 0.0362
1176.50 0.03619
1176.60 0.03618
1176.70 0.03617
1176.80 0.03616
1176.90 0.03614
1177.00 0.03613
1177.10 0.03612
1177.20 0.03611
1177.30 0.0361
1177.40 0.03608
1177.50 0.03607
1177.60 0.03606
1177.70 0.03605
1177.80 0.03604
1177.90 0.03602
1178.00 0.03601
1178.10 0.036
1178.20 0.03599
1178.30 0.03598
1178.40 0.03596
1178.50 0.03595
1178.60 0.03594
1178.70 0.03593
1178.80 0.03592
1178.90 0.03591
1179.00 0.03589
1179.10 0.03588
1179.20 0.03587
1179.30 0.03586
1179.40 0.03585
1179.50 0.03583
1179.60 0.03582
1179.70 0.03581
1179.80 0.0358
1179.90 0.03579
1180.00 0.03577
1180.10 0.03576
1180.20 0.03575
1180.30 0.03574
1180.40 0.03573
1180.50 0.03572
1180.60 0.0357
1180.70 0.03569
1180.80 0.03568
1180.90 0.03567
1181.00 0.03566
1181.10 0.03564
1181.20 0.03563
1181.30 0.03562
1181.40 0.03561
1181.50 0.0356
1181.60 0.03558
1181.70 0.03557
1181.80 0.03556
1181.90 0.03555
1182.00 0.03554
1182.10 0.03553
1182.20 0.03551
1182.30 0.0355
1182.40 0.03549
1182.50 0.03548
1182.60 0.03547
1182.70 0.03546
1182.80 0.03544
1182.90 0.03543
1183.00 0.03542
1183.10 0.03541
1183.20 0.0354
1183.30 0.03539
1183.40 0.03537
1183.50 0.03536
1183.60 0.03535
1183.70 0.03534
1183.80 0.03533
1183.90 0.03532
1184.00 0.0353
1184.10 0.03529
1184.20 0.03528
1184.30 0.03527
1184.40 0.03526
1184.50 0.03525
1184.60 0.03523
1184.70 0.03522
1184.80 0.03521
1184.90 0.0352
1185.00 0.03519
1185.10 0.03518
1185.20 0.03516
1185.30 0.03515
1185.40 0.03514
1185.50 0.03513
1185.60 0.03512
1185.70 0.03511
1185.80 0.03509
1185.90 0.03508
1186.00 0.03507
1186.10 0.03506
1186.20 0.03505
1186.30 0.03504
1186.40 0.03502
1186.50 0.03501
1186.60 0.035
1186.70 0.03499
1186.80 0.03498
1186.90 0.03497
1187.00 0.03496
1187.10 0.03494
1187.20 0.03493
1187.30 0.03492
1187.40 0.03491
1187.50 0.0349
1187.60 0.03489
1187.70 0.03488
1187.80 0.03486
1187.90 0.03485
1188.00 0.03484
1188.10 0.03483
1188.20 0.03482
1188.30 0.03481
1188.40 0.03479
1188.50 0.03478
1188.60 0.03477
1188.70 0.03476
1188.80 0.03475
1188.90 0.03474
1189.00 0.03473
1189.10 0.03471
1189.20 0.0347
1189.30 0.03469
1189.40 0.03468
1189.50 0.03467
1189.60 0.03466
1189.70 0.03465
1189.80 0.03463
1189.90 0.03462
1190.00 0.03461
1190.10 0.0346
1190.20 0.03459
1190.30 0.03458
1190.40 0.03457
1190.50 0.03456
1190.60 0.03454
1190.70 0.03453
1190.80 0.03452
1190.90 0.03451
1191.00 0.0345
1191.10 0.03449
1191.20 0.03448
1191.30 0.03446
1191.40 0.03445
1191.50 0.03444
1191.60 0.03443
1191.70 0.03442
1191.80 0.03441
1191.90 0.0344
1192.00 0.03438
1192.10 0.03437
1192.20 0.03436
1192.30 0.03435
1192.40 0.03434
1192.50 0.03433
1192.60 0.03432
1192.70 0.03431
1192.80 0.03429
1192.90 0.03428
1193.00 0.03427
1193.10 0.03426
1193.20 0.03425
1193.30 0.03424
1193.40 0.03423
1193.50 0.03422
1193.60 0.03421
1193.70 0.03419
1193.80 0.03418
1193.90 0.03417
1194.00 0.03416
1194.10 0.03415
1194.20 0.03414
1194.30 0.03413
1194.40 0.03412
1194.50 0.0341
1194.60 0.03409
1194.70 0.03408
1194.80 0.03407
1194.90 0.03406
1195.00 0.03405
1195.10 0.03404
1195.20 0.03403
1195.30 0.03402
1195.40 0.034
1195.50 0.03399
1195.60 0.03398
1195.70 0.03397
1195.80 0.03396
1195.90 0.03395
1196.00 0.03394
1196.10 0.03393
1196.20 0.03391
1196.30 0.0339
1196.40 0.03389
1196.50 0.03388
1196.60 0.03387
1196.70 0.03386
1196.80 0.03385
1196.90 0.03384
1197.00 0.03383
1197.10 0.03381
1197.20 0.0338
1197.30 0.03379
1197.40 0.03378
1197.50 0.03377
1197.60 0.03376
1197.70 0.03375
1197.80 0.03374
1197.90 0.03373
1198.00 0.03372
1198.10 0.0337
1198.20 0.03369
1198.30 0.03368
1198.40 0.03367
1198.50 0.03366
1198.60 0.03365
1198.70 0.03364
1198.80 0.03363
1198.90 0.03362
1199.00 0.03361
1199.10 0.03359
1199.20 0.03358
1199.30 0.03357
1199.40 0.03356
1199.50 0.03355
1199.60 0.03354
1199.70 0.03353
1199.80 0.03352
1199.90 0.03351
1200.00 0
