# Version 2.1 - nm, norm@500 to 1, cut digits, bergeron_130000_80.dat_130000
# Wavelength(nm)  Flambda(ergs/cm^s/s/nm)
300.00 7.006
300.10 6.997
300.20 6.988
300.30 6.979
300.40 6.97
300.50 6.961
300.60 6.952
300.70 6.944
300.80 6.935
300.90 6.926
301.00 6.917
301.10 6.909
301.20 6.9
301.30 6.891
301.40 6.882
301.50 6.874
301.60 6.865
301.70 6.856
301.80 6.848
301.90 6.839
302.00 6.83
302.10 6.822
302.20 6.813
302.30 6.805
302.40 6.796
302.50 6.787
302.60 6.779
302.70 6.77
302.80 6.762
302.90 6.753
303.00 6.745
303.10 6.736
303.20 6.728
303.30 6.719
303.40 6.711
303.50 6.703
303.60 6.694
303.70 6.686
303.80 6.677
303.90 6.669
304.00 6.661
304.10 6.652
304.20 6.644
304.30 6.636
304.40 6.627
304.50 6.619
304.60 6.611
304.70 6.603
304.80 6.594
304.90 6.586
305.00 6.578
305.10 6.57
305.20 6.561
305.30 6.553
305.40 6.545
305.50 6.537
305.60 6.529
305.70 6.521
305.80 6.512
305.90 6.504
306.00 6.496
306.10 6.488
306.20 6.48
306.30 6.472
306.40 6.464
306.50 6.456
306.60 6.448
306.70 6.44
306.80 6.432
306.90 6.424
307.00 6.416
307.10 6.408
307.20 6.4
307.30 6.392
307.40 6.384
307.50 6.376
307.60 6.368
307.70 6.36
307.80 6.353
307.90 6.345
308.00 6.337
308.10 6.329
308.20 6.321
308.30 6.313
308.40 6.306
308.50 6.298
308.60 6.29
308.70 6.282
308.80 6.274
308.90 6.267
309.00 6.259
309.10 6.251
309.20 6.244
309.30 6.236
309.40 6.228
309.50 6.22
309.60 6.213
309.70 6.205
309.80 6.198
309.90 6.19
310.00 6.182
310.10 6.175
310.20 6.167
310.30 6.16
310.40 6.152
310.50 6.144
310.60 6.137
310.70 6.129
310.80 6.122
310.90 6.114
311.00 6.107
311.10 6.099
311.20 6.092
311.30 6.084
311.40 6.077
311.50 6.069
311.60 6.062
311.70 6.055
311.80 6.047
311.90 6.04
312.00 6.032
312.10 6.025
312.20 6.018
312.30 6.01
312.40 6.003
312.50 5.996
312.60 5.988
312.70 5.981
312.80 5.974
312.90 5.966
313.00 5.959
313.10 5.952
313.20 5.945
313.30 5.938
313.40 5.93
313.50 5.923
313.60 5.916
313.70 5.909
313.80 5.902
313.90 5.894
314.00 5.887
314.10 5.88
314.20 5.873
314.30 5.866
314.40 5.859
314.50 5.852
314.60 5.844
314.70 5.837
314.80 5.83
314.90 5.823
315.00 5.816
315.10 5.809
315.20 5.802
315.30 5.795
315.40 5.788
315.50 5.781
315.60 5.774
315.70 5.767
315.80 5.76
315.90 5.753
316.00 5.746
316.10 5.739
316.20 5.732
316.30 5.725
316.40 5.719
316.50 5.712
316.60 5.705
316.70 5.698
316.80 5.691
316.90 5.684
317.00 5.677
317.10 5.67
317.20 5.664
317.30 5.657
317.40 5.65
317.50 5.643
317.60 5.637
317.70 5.63
317.80 5.623
317.90 5.616
318.00 5.609
318.10 5.603
318.20 5.596
318.30 5.589
318.40 5.583
318.50 5.576
318.60 5.569
318.70 5.563
318.80 5.556
318.90 5.549
319.00 5.543
319.10 5.536
319.20 5.529
319.30 5.523
319.40 5.516
319.50 5.51
319.60 5.503
319.70 5.496
319.80 5.49
319.90 5.483
320.00 5.477
320.10 5.47
320.20 5.464
320.30 5.457
320.40 5.451
320.50 5.444
320.60 5.438
320.70 5.431
320.80 5.425
320.90 5.418
321.00 5.412
321.10 5.405
321.20 5.399
321.30 5.393
321.40 5.386
321.50 5.38
321.60 5.373
321.70 5.367
321.80 5.361
321.90 5.354
322.00 5.348
322.10 5.342
322.20 5.335
322.30 5.329
322.40 5.323
322.50 5.316
322.60 5.31
322.70 5.304
322.80 5.298
322.90 5.291
323.00 5.285
323.10 5.279
323.20 5.273
323.30 5.266
323.40 5.26
323.50 5.254
323.60 5.248
323.70 5.242
323.80 5.235
323.90 5.229
324.00 5.223
324.10 5.217
324.20 5.211
324.30 5.205
324.40 5.198
324.50 5.192
324.60 5.186
324.70 5.18
324.80 5.174
324.90 5.168
325.00 5.162
325.10 5.156
325.20 5.15
325.30 5.144
325.40 5.138
325.50 5.132
325.60 5.126
325.70 5.12
325.80 5.114
325.90 5.108
326.00 5.102
326.10 5.096
326.20 5.09
326.30 5.084
326.40 5.078
326.50 5.072
326.60 5.066
326.70 5.06
326.80 5.054
326.90 5.048
327.00 5.042
327.10 5.036
327.20 5.031
327.30 5.025
327.40 5.019
327.50 5.013
327.60 5.007
327.70 5.001
327.80 4.995
327.90 4.99
328.00 4.984
328.10 4.978
328.20 4.972
328.30 4.966
328.40 4.961
328.50 4.955
328.60 4.949
328.70 4.943
328.80 4.938
328.90 4.932
329.00 4.926
329.10 4.92
329.20 4.915
329.30 4.909
329.40 4.903
329.50 4.898
329.60 4.892
329.70 4.886
329.80 4.881
329.90 4.875
330.00 4.869
330.10 4.864
330.20 4.858
330.30 4.853
330.40 4.847
330.50 4.841
330.60 4.836
330.70 4.83
330.80 4.825
330.90 4.819
331.00 4.813
331.10 4.808
331.20 4.802
331.30 4.797
331.40 4.791
331.50 4.786
331.60 4.78
331.70 4.775
331.80 4.769
331.90 4.764
332.00 4.758
332.10 4.753
332.20 4.747
332.30 4.742
332.40 4.736
332.50 4.731
332.60 4.726
332.70 4.72
332.80 4.715
332.90 4.709
333.00 4.704
333.10 4.699
333.20 4.693
333.30 4.688
333.40 4.682
333.50 4.677
333.60 4.672
333.70 4.666
333.80 4.661
333.90 4.656
334.00 4.65
334.10 4.645
334.20 4.64
334.30 4.634
334.40 4.629
334.50 4.624
334.60 4.618
334.70 4.613
334.80 4.608
334.90 4.603
335.00 4.597
335.10 4.592
335.20 4.587
335.30 4.582
335.40 4.576
335.50 4.571
335.60 4.566
335.70 4.561
335.80 4.556
335.90 4.55
336.00 4.545
336.10 4.54
336.20 4.535
336.30 4.53
336.40 4.525
336.50 4.52
336.60 4.514
336.70 4.509
336.80 4.504
336.90 4.499
337.00 4.494
337.10 4.489
337.20 4.484
337.30 4.479
337.40 4.474
337.50 4.469
337.60 4.463
337.70 4.458
337.80 4.453
337.90 4.448
338.00 4.443
338.10 4.438
338.20 4.433
338.30 4.428
338.40 4.423
338.50 4.418
338.60 4.413
338.70 4.408
338.80 4.403
338.90 4.398
339.00 4.393
339.10 4.388
339.20 4.383
339.30 4.379
339.40 4.374
339.50 4.369
339.60 4.364
339.70 4.359
339.80 4.354
339.90 4.349
340.00 4.344
340.10 4.339
340.20 4.334
340.30 4.33
340.40 4.325
340.50 4.32
340.60 4.315
340.70 4.31
340.80 4.305
340.90 4.3
341.00 4.296
341.10 4.291
341.20 4.286
341.30 4.281
341.40 4.276
341.50 4.272
341.60 4.267
341.70 4.262
341.80 4.257
341.90 4.252
342.00 4.248
342.10 4.243
342.20 4.238
342.30 4.234
342.40 4.229
342.50 4.224
342.60 4.219
342.70 4.215
342.80 4.21
342.90 4.205
343.00 4.201
343.10 4.196
343.20 4.191
343.30 4.187
343.40 4.182
343.50 4.177
343.60 4.173
343.70 4.168
343.80 4.163
343.90 4.159
344.00 4.154
344.10 4.149
344.20 4.145
344.30 4.14
344.40 4.136
344.50 4.131
344.60 4.126
344.70 4.122
344.80 4.117
344.90 4.113
345.00 4.108
345.10 4.104
345.20 4.099
345.30 4.095
345.40 4.09
345.50 4.085
345.60 4.081
345.70 4.076
345.80 4.072
345.90 4.067
346.00 4.063
346.10 4.058
346.20 4.054
346.30 4.049
346.40 4.045
346.50 4.04
346.60 4.036
346.70 4.032
346.80 4.027
346.90 4.023
347.00 4.018
347.10 4.014
347.20 4.009
347.30 4.005
347.40 4.001
347.50 3.996
347.60 3.992
347.70 3.987
347.80 3.983
347.90 3.979
348.00 3.974
348.10 3.97
348.20 3.965
348.30 3.961
348.40 3.957
348.50 3.952
348.60 3.948
348.70 3.944
348.80 3.939
348.90 3.935
349.00 3.931
349.10 3.927
349.20 3.922
349.30 3.918
349.40 3.914
349.50 3.909
349.60 3.905
349.70 3.901
349.80 3.896
349.90 3.892
350.00 3.888
350.10 3.884
350.20 3.879
350.30 3.875
350.40 3.871
350.50 3.867
350.60 3.863
350.70 3.858
350.80 3.854
350.90 3.85
351.00 3.846
351.10 3.842
351.20 3.837
351.30 3.833
351.40 3.829
351.50 3.825
351.60 3.821
351.70 3.816
351.80 3.812
351.90 3.808
352.00 3.804
352.10 3.8
352.20 3.796
352.30 3.792
352.40 3.788
352.50 3.783
352.60 3.779
352.70 3.775
352.80 3.771
352.90 3.767
353.00 3.763
353.10 3.759
353.20 3.755
353.30 3.751
353.40 3.747
353.50 3.743
353.60 3.739
353.70 3.735
353.80 3.73
353.90 3.726
354.00 3.722
354.10 3.718
354.20 3.714
354.30 3.71
354.40 3.706
354.50 3.702
354.60 3.698
354.70 3.694
354.80 3.69
354.90 3.686
355.00 3.682
355.10 3.678
355.20 3.674
355.30 3.671
355.40 3.667
355.50 3.663
355.60 3.659
355.70 3.655
355.80 3.651
355.90 3.647
356.00 3.643
356.10 3.639
356.20 3.635
356.30 3.631
356.40 3.627
356.50 3.623
356.60 3.62
356.70 3.616
356.80 3.612
356.90 3.608
357.00 3.604
357.10 3.6
357.20 3.596
357.30 3.592
357.40 3.589
357.50 3.585
357.60 3.581
357.70 3.577
357.80 3.573
357.90 3.569
358.00 3.566
358.10 3.562
358.20 3.558
358.30 3.554
358.40 3.55
358.50 3.547
358.60 3.543
358.70 3.539
358.80 3.535
358.90 3.531
359.00 3.528
359.10 3.524
359.20 3.52
359.30 3.516
359.40 3.513
359.50 3.509
359.60 3.505
359.70 3.501
359.80 3.498
359.90 3.494
360.00 3.49
360.10 3.487
360.20 3.483
360.30 3.479
360.40 3.475
360.50 3.472
360.60 3.468
360.70 3.464
360.80 3.461
360.90 3.457
361.00 3.453
361.10 3.45
361.20 3.446
361.30 3.442
361.40 3.439
361.50 3.435
361.60 3.431
361.70 3.428
361.80 3.424
361.90 3.421
362.00 3.417
362.10 3.413
362.20 3.41
362.30 3.406
362.40 3.403
362.50 3.399
362.60 3.395
362.70 3.392
362.80 3.388
362.90 3.385
363.00 3.381
363.10 3.377
363.20 3.374
363.30 3.37
363.40 3.367
363.50 3.363
363.60 3.36
363.70 3.356
363.80 3.353
363.90 3.349
364.00 3.346
364.10 3.342
364.20 3.339
364.30 3.335
364.40 3.331
364.50 3.328
364.60 3.324
364.70 3.321
364.80 3.318
364.90 3.314
365.00 3.311
365.10 3.307
365.20 3.304
365.30 3.3
365.40 3.297
365.50 3.293
365.60 3.29
365.70 3.286
365.80 3.283
365.90 3.279
366.00 3.276
366.10 3.273
366.20 3.269
366.30 3.266
366.40 3.262
366.50 3.259
366.60 3.255
366.70 3.252
366.80 3.249
366.90 3.245
367.00 3.242
367.10 3.238
367.20 3.235
367.30 3.232
367.40 3.228
367.50 3.225
367.60 3.221
367.70 3.218
367.80 3.215
367.90 3.211
368.00 3.208
368.10 3.204
368.20 3.201
368.30 3.198
368.40 3.194
368.50 3.191
368.60 3.188
368.70 3.184
368.80 3.181
368.90 3.178
369.00 3.174
369.10 3.171
369.20 3.168
369.30 3.164
369.40 3.161
369.50 3.158
369.60 3.154
369.70 3.151
369.80 3.148
369.90 3.144
370.00 3.141
370.10 3.138
370.20 3.134
370.30 3.131
370.40 3.128
370.50 3.125
370.60 3.121
370.70 3.118
370.80 3.115
370.90 3.112
371.00 3.108
371.10 3.105
371.20 3.102
371.30 3.099
371.40 3.095
371.50 3.092
371.60 3.089
371.70 3.086
371.80 3.082
371.90 3.079
372.00 3.076
372.10 3.073
372.20 3.07
372.30 3.066
372.40 3.063
372.50 3.06
372.60 3.057
372.70 3.054
372.80 3.051
372.90 3.048
373.00 3.044
373.10 3.041
373.20 3.038
373.30 3.035
373.40 3.032
373.50 3.029
373.60 3.026
373.70 3.022
373.80 3.019
373.90 3.016
374.00 3.013
374.10 3.01
374.20 3.007
374.30 3.004
374.40 3.001
374.50 2.998
374.60 2.994
374.70 2.991
374.80 2.988
374.90 2.985
375.00 2.982
375.10 2.979
375.20 2.976
375.30 2.973
375.40 2.97
375.50 2.967
375.60 2.964
375.70 2.961
375.80 2.958
375.90 2.955
376.00 2.951
376.10 2.948
376.20 2.945
376.30 2.942
376.40 2.939
376.50 2.936
376.60 2.933
376.70 2.93
376.80 2.927
376.90 2.924
377.00 2.921
377.10 2.918
377.20 2.915
377.30 2.912
377.40 2.91
377.50 2.907
377.60 2.904
377.70 2.901
377.80 2.898
377.90 2.895
378.00 2.892
378.10 2.889
378.20 2.886
378.30 2.883
378.40 2.88
378.50 2.877
378.60 2.874
378.70 2.871
378.80 2.868
378.90 2.866
379.00 2.863
379.10 2.86
379.20 2.857
379.30 2.854
379.40 2.851
379.50 2.848
379.60 2.845
379.70 2.843
379.80 2.84
379.90 2.837
380.00 2.834
380.10 2.831
380.20 2.828
380.30 2.826
380.40 2.823
380.50 2.82
380.60 2.817
380.70 2.814
380.80 2.812
380.90 2.809
381.00 2.806
381.10 2.803
381.20 2.8
381.30 2.798
381.40 2.795
381.50 2.792
381.60 2.789
381.70 2.786
381.80 2.784
381.90 2.781
382.00 2.778
382.10 2.775
382.20 2.773
382.30 2.77
382.40 2.767
382.50 2.764
382.60 2.762
382.70 2.759
382.80 2.756
382.90 2.753
383.00 2.751
383.10 2.748
383.20 2.745
383.30 2.743
383.40 2.74
383.50 2.737
383.60 2.735
383.70 2.732
383.80 2.729
383.90 2.727
384.00 2.724
384.10 2.721
384.20 2.719
384.30 2.716
384.40 2.714
384.50 2.711
384.60 2.708
384.70 2.706
384.80 2.703
384.90 2.701
385.00 2.698
385.10 2.696
385.20 2.693
385.30 2.69
385.40 2.688
385.50 2.685
385.60 2.682
385.70 2.68
385.80 2.677
385.90 2.675
386.00 2.672
386.10 2.669
386.20 2.667
386.30 2.664
386.40 2.661
386.50 2.659
386.60 2.656
386.70 2.653
386.80 2.651
386.90 2.648
387.00 2.645
387.10 2.643
387.20 2.64
387.30 2.637
387.40 2.634
387.50 2.632
387.60 2.629
387.70 2.626
387.80 2.624
387.90 2.621
388.00 2.618
388.10 2.615
388.20 2.613
388.30 2.61
388.40 2.608
388.50 2.605
388.60 2.602
388.70 2.6
388.80 2.598
388.90 2.595
389.00 2.593
389.10 2.59
389.20 2.588
389.30 2.585
389.40 2.583
389.50 2.581
389.60 2.579
389.70 2.576
389.80 2.574
389.90 2.572
390.00 2.57
390.10 2.568
390.20 2.566
390.30 2.563
390.40 2.561
390.50 2.559
390.60 2.557
390.70 2.555
390.80 2.552
390.90 2.55
391.00 2.548
391.10 2.546
391.20 2.543
391.30 2.541
391.40 2.539
391.50 2.536
391.60 2.534
391.70 2.532
391.80 2.529
391.90 2.527
392.00 2.525
392.10 2.522
392.20 2.52
392.30 2.517
392.40 2.515
392.50 2.512
392.60 2.51
392.70 2.507
392.80 2.505
392.90 2.502
393.00 2.5
393.10 2.497
393.20 2.494
393.30 2.492
393.40 2.489
393.50 2.486
393.60 2.484
393.70 2.481
393.80 2.478
393.90 2.475
394.00 2.473
394.10 2.47
394.20 2.467
394.30 2.464
394.40 2.461
394.50 2.458
394.60 2.455
394.70 2.452
394.80 2.449
394.90 2.446
395.00 2.443
395.10 2.44
395.20 2.437
395.30 2.434
395.40 2.431
395.50 2.428
395.60 2.425
395.70 2.422
395.80 2.419
395.90 2.416
396.00 2.413
396.10 2.409
396.20 2.406
396.30 2.403
396.40 2.4
396.50 2.397
396.60 2.394
396.70 2.391
396.80 2.388
396.90 2.385
397.00 2.383
397.10 2.381
397.20 2.379
397.30 2.378
397.40 2.376
397.50 2.375
397.60 2.374
397.70 2.372
397.80 2.371
397.90 2.37
398.00 2.368
398.10 2.367
398.20 2.366
398.30 2.365
398.40 2.363
398.50 2.362
398.60 2.361
398.70 2.359
398.80 2.358
398.90 2.357
399.00 2.355
399.10 2.354
399.20 2.352
399.30 2.351
399.40 2.35
399.50 2.348
399.60 2.347
399.70 2.345
399.80 2.343
399.90 2.342
400.00 2.34
400.10 2.339
400.20 2.337
400.30 2.335
400.40 2.334
400.50 2.332
400.60 2.33
400.70 2.328
400.80 2.327
400.90 2.325
401.00 2.323
401.10 2.321
401.20 2.319
401.30 2.318
401.40 2.316
401.50 2.314
401.60 2.312
401.70 2.31
401.80 2.308
401.90 2.306
402.00 2.304
402.10 2.302
402.20 2.3
402.30 2.298
402.40 2.296
402.50 2.294
402.60 2.292
402.70 2.29
402.80 2.288
402.90 2.286
403.00 2.283
403.10 2.281
403.20 2.279
403.30 2.277
403.40 2.275
403.50 2.272
403.60 2.27
403.70 2.268
403.80 2.266
403.90 2.263
404.00 2.261
404.10 2.259
404.20 2.256
404.30 2.254
404.40 2.252
404.50 2.249
404.60 2.247
404.70 2.244
404.80 2.242
404.90 2.239
405.00 2.237
405.10 2.234
405.20 2.232
405.30 2.229
405.40 2.226
405.50 2.224
405.60 2.221
405.70 2.218
405.80 2.216
405.90 2.213
406.00 2.21
406.10 2.207
406.20 2.204
406.30 2.201
406.40 2.199
406.50 2.196
406.60 2.193
406.70 2.19
406.80 2.186
406.90 2.183
407.00 2.18
407.10 2.177
407.20 2.174
407.30 2.17
407.40 2.167
407.50 2.164
407.60 2.16
407.70 2.157
407.80 2.153
407.90 2.15
408.00 2.146
408.10 2.142
408.20 2.138
408.30 2.135
408.40 2.131
408.50 2.127
408.60 2.123
408.70 2.119
408.80 2.115
408.90 2.111
409.00 2.107
409.10 2.103
409.20 2.099
409.30 2.095
409.40 2.091
409.50 2.087
409.60 2.083
409.70 2.08
409.80 2.077
409.90 2.074
410.00 2.073
410.10 2.073
410.20 2.072
410.30 2.068
410.40 2.065
410.50 2.063
410.60 2.062
410.70 2.062
410.80 2.061
410.90 2.061
411.00 2.062
411.10 2.062
411.20 2.062
411.30 2.062
411.40 2.062
411.50 2.063
411.60 2.063
411.70 2.063
411.80 2.063
411.90 2.063
412.00 2.063
412.10 2.063
412.20 2.063
412.30 2.063
412.40 2.062
412.50 2.062
412.60 2.062
412.70 2.061
412.80 2.061
412.90 2.06
413.00 2.06
413.10 2.059
413.20 2.058
413.30 2.058
413.40 2.057
413.50 2.056
413.60 2.055
413.70 2.054
413.80 2.054
413.90 2.053
414.00 2.052
414.10 2.051
414.20 2.049
414.30 2.048
414.40 2.047
414.50 2.046
414.60 2.045
414.70 2.044
414.80 2.042
414.90 2.041
415.00 2.04
415.10 2.039
415.20 2.037
415.30 2.036
415.40 2.035
415.50 2.033
415.60 2.032
415.70 2.03
415.80 2.029
415.90 2.027
416.00 2.026
416.10 2.025
416.20 2.023
416.30 2.022
416.40 2.02
416.50 2.018
416.60 2.017
416.70 2.015
416.80 2.014
416.90 2.012
417.00 2.011
417.10 2.009
417.20 2.007
417.30 2.006
417.40 2.004
417.50 2.003
417.60 2.001
417.70 1.999
417.80 1.998
417.90 1.996
418.00 1.994
418.10 1.993
418.20 1.991
418.30 1.989
418.40 1.988
418.50 1.986
418.60 1.984
418.70 1.982
418.80 1.981
418.90 1.979
419.00 1.977
419.10 1.976
419.20 1.974
419.30 1.972
419.40 1.97
419.50 1.969
419.60 1.967
419.70 1.965
419.80 1.964
419.90 1.962
420.00 1.96
420.10 1.958
420.20 1.957
420.30 1.955
420.40 1.953
420.50 1.951
420.60 1.95
420.70 1.948
420.80 1.946
420.90 1.944
421.00 1.943
421.10 1.941
421.20 1.939
421.30 1.937
421.40 1.936
421.50 1.934
421.60 1.932
421.70 1.93
421.80 1.929
421.90 1.927
422.00 1.925
422.10 1.923
422.20 1.922
422.30 1.92
422.40 1.918
422.50 1.916
422.60 1.915
422.70 1.913
422.80 1.911
422.90 1.909
423.00 1.907
423.10 1.906
423.20 1.904
423.30 1.902
423.40 1.9
423.50 1.899
423.60 1.897
423.70 1.895
423.80 1.893
423.90 1.891
424.00 1.89
424.10 1.888
424.20 1.886
424.30 1.884
424.40 1.883
424.50 1.881
424.60 1.879
424.70 1.877
424.80 1.875
424.90 1.874
425.00 1.872
425.10 1.87
425.20 1.868
425.30 1.866
425.40 1.864
425.50 1.863
425.60 1.861
425.70 1.859
425.80 1.857
425.90 1.855
426.00 1.853
426.10 1.852
426.20 1.85
426.30 1.848
426.40 1.846
426.50 1.844
426.60 1.842
426.70 1.84
426.80 1.838
426.90 1.837
427.00 1.835
427.10 1.833
427.20 1.831
427.30 1.829
427.40 1.827
427.50 1.825
427.60 1.823
427.70 1.821
427.80 1.819
427.90 1.817
428.00 1.815
428.10 1.813
428.20 1.811
428.30 1.809
428.40 1.807
428.50 1.805
428.60 1.802
428.70 1.8
428.80 1.798
428.90 1.796
429.00 1.794
429.10 1.791
429.20 1.789
429.30 1.787
429.40 1.784
429.50 1.782
429.60 1.78
429.70 1.777
429.80 1.775
429.90 1.772
430.00 1.77
430.10 1.767
430.20 1.764
430.30 1.762
430.40 1.759
430.50 1.756
430.60 1.753
430.70 1.75
430.80 1.747
430.90 1.744
431.00 1.741
431.10 1.738
431.20 1.735
431.30 1.731
431.40 1.728
431.50 1.725
431.60 1.721
431.70 1.717
431.80 1.714
431.90 1.71
432.00 1.706
432.10 1.702
432.20 1.698
432.30 1.694
432.40 1.69
432.50 1.686
432.60 1.681
432.70 1.677
432.80 1.673
432.90 1.668
433.00 1.664
433.10 1.659
433.20 1.655
433.30 1.65
433.40 1.646
433.50 1.642
433.60 1.637
433.70 1.633
433.80 1.628
433.90 1.624
434.00 1.62
434.10 1.618
434.20 1.62
434.30 1.622
434.40 1.623
434.50 1.625
434.60 1.626
434.70 1.628
434.80 1.629
434.90 1.631
435.00 1.632
435.10 1.634
435.20 1.635
435.30 1.637
435.40 1.638
435.50 1.64
435.60 1.641
435.70 1.643
435.80 1.644
435.90 1.645
436.00 1.646
436.10 1.647
436.20 1.648
436.30 1.648
436.40 1.649
436.50 1.65
436.60 1.65
436.70 1.65
436.80 1.651
436.90 1.651
437.00 1.651
437.10 1.651
437.20 1.651
437.30 1.651
437.40 1.651
437.50 1.651
437.60 1.651
437.70 1.65
437.80 1.65
437.90 1.649
438.00 1.649
438.10 1.649
438.20 1.648
438.30 1.647
438.40 1.647
438.50 1.646
438.60 1.645
438.70 1.645
438.80 1.644
438.90 1.643
439.00 1.642
439.10 1.641
439.20 1.64
439.30 1.64
439.40 1.639
439.50 1.638
439.60 1.637
439.70 1.636
439.80 1.635
439.90 1.634
440.00 1.633
440.10 1.631
440.20 1.63
440.30 1.629
440.40 1.628
440.50 1.627
440.60 1.626
440.70 1.625
440.80 1.624
440.90 1.622
441.00 1.621
441.10 1.62
441.20 1.619
441.30 1.618
441.40 1.616
441.50 1.615
441.60 1.614
441.70 1.613
441.80 1.612
441.90 1.61
442.00 1.609
442.10 1.608
442.20 1.607
442.30 1.605
442.40 1.604
442.50 1.603
442.60 1.601
442.70 1.6
442.80 1.599
442.90 1.598
443.00 1.596
443.10 1.595
443.20 1.594
443.30 1.592
443.40 1.591
443.50 1.59
443.60 1.589
443.70 1.587
443.80 1.586
443.90 1.585
444.00 1.583
444.10 1.582
444.20 1.581
444.30 1.579
444.40 1.578
444.50 1.577
444.60 1.576
444.70 1.574
444.80 1.573
444.90 1.572
445.00 1.57
445.10 1.569
445.20 1.568
445.30 1.566
445.40 1.565
445.50 1.564
445.60 1.562
445.70 1.561
445.80 1.56
445.90 1.558
446.00 1.557
446.10 1.556
446.20 1.555
446.30 1.553
446.40 1.552
446.50 1.551
446.60 1.549
446.70 1.548
446.80 1.547
446.90 1.545
447.00 1.544
447.10 1.543
447.20 1.541
447.30 1.54
447.40 1.539
447.50 1.537
447.60 1.536
447.70 1.535
447.80 1.534
447.90 1.532
448.00 1.531
448.10 1.53
448.20 1.528
448.30 1.527
448.40 1.526
448.50 1.524
448.60 1.523
448.70 1.522
448.80 1.521
448.90 1.519
449.00 1.518
449.10 1.517
449.20 1.515
449.30 1.514
449.40 1.513
449.50 1.512
449.60 1.51
449.70 1.509
449.80 1.508
449.90 1.506
450.00 1.505
450.10 1.504
450.20 1.503
450.30 1.501
450.40 1.5
450.50 1.499
450.60 1.497
450.70 1.496
450.80 1.495
450.90 1.494
451.00 1.492
451.10 1.491
451.20 1.49
451.30 1.489
451.40 1.487
451.50 1.486
451.60 1.485
451.70 1.483
451.80 1.482
451.90 1.481
452.00 1.48
452.10 1.478
452.20 1.477
452.30 1.476
452.40 1.475
452.50 1.473
452.60 1.472
452.70 1.471
452.80 1.47
452.90 1.468
453.00 1.467
453.10 1.466
453.20 1.465
453.30 1.463
453.40 1.462
453.50 1.461
453.60 1.46
453.70 1.458
453.80 1.457
453.90 1.456
454.00 1.455
454.10 1.453
454.20 1.452
454.30 1.451
454.40 1.45
454.50 1.449
454.60 1.447
454.70 1.446
454.80 1.445
454.90 1.444
455.00 1.442
455.10 1.441
455.20 1.44
455.30 1.439
455.40 1.437
455.50 1.436
455.60 1.435
455.70 1.434
455.80 1.433
455.90 1.431
456.00 1.43
456.10 1.429
456.20 1.428
456.30 1.427
456.40 1.425
456.50 1.424
456.60 1.423
456.70 1.422
456.80 1.421
456.90 1.419
457.00 1.418
457.10 1.417
457.20 1.416
457.30 1.414
457.40 1.413
457.50 1.412
457.60 1.411
457.70 1.41
457.80 1.409
457.90 1.407
458.00 1.406
458.10 1.405
458.20 1.404
458.30 1.403
458.40 1.401
458.50 1.4
458.60 1.399
458.70 1.398
458.80 1.397
458.90 1.395
459.00 1.394
459.10 1.393
459.20 1.392
459.30 1.391
459.40 1.39
459.50 1.388
459.60 1.387
459.70 1.386
459.80 1.385
459.90 1.384
460.00 1.383
460.10 1.381
460.20 1.38
460.30 1.379
460.40 1.378
460.50 1.377
460.60 1.376
460.70 1.374
460.80 1.373
460.90 1.372
461.00 1.371
461.10 1.37
461.20 1.369
461.30 1.368
461.40 1.366
461.50 1.365
461.60 1.364
461.70 1.363
461.80 1.362
461.90 1.361
462.00 1.359
462.10 1.358
462.20 1.357
462.30 1.356
462.40 1.355
462.50 1.354
462.60 1.353
462.70 1.352
462.80 1.35
462.90 1.349
463.00 1.348
463.10 1.347
463.20 1.346
463.30 1.345
463.40 1.344
463.50 1.342
463.60 1.341
463.70 1.34
463.80 1.339
463.90 1.338
464.00 1.337
464.10 1.336
464.20 1.335
464.30 1.333
464.40 1.332
464.50 1.331
464.60 1.33
464.70 1.329
464.80 1.328
464.90 1.327
465.00 1.326
465.10 1.325
465.20 1.323
465.30 1.322
465.40 1.321
465.50 1.32
465.60 1.319
465.70 1.318
465.80 1.317
465.90 1.316
466.00 1.315
466.10 1.314
466.20 1.312
466.30 1.311
466.40 1.31
466.50 1.309
466.60 1.308
466.70 1.307
466.80 1.306
466.90 1.305
467.00 1.304
467.10 1.303
467.20 1.302
467.30 1.3
467.40 1.299
467.50 1.298
467.60 1.297
467.70 1.296
467.80 1.295
467.90 1.294
468.00 1.293
468.10 1.292
468.20 1.291
468.30 1.29
468.40 1.289
468.50 1.287
468.60 1.286
468.70 1.285
468.80 1.284
468.90 1.283
469.00 1.282
469.10 1.281
469.20 1.28
469.30 1.279
469.40 1.278
469.50 1.277
469.60 1.276
469.70 1.275
469.80 1.274
469.90 1.272
470.00 1.271
470.10 1.27
470.20 1.269
470.30 1.268
470.40 1.267
470.50 1.266
470.60 1.265
470.70 1.264
470.80 1.263
470.90 1.262
471.00 1.261
471.10 1.26
471.20 1.259
471.30 1.258
471.40 1.257
471.50 1.256
471.60 1.254
471.70 1.253
471.80 1.252
471.90 1.251
472.00 1.25
472.10 1.249
472.20 1.248
472.30 1.247
472.40 1.246
472.50 1.245
472.60 1.244
472.70 1.243
472.80 1.242
472.90 1.241
473.00 1.24
473.10 1.239
473.20 1.238
473.30 1.237
473.40 1.236
473.50 1.235
473.60 1.234
473.70 1.233
473.80 1.231
473.90 1.23
474.00 1.229
474.10 1.228
474.20 1.227
474.30 1.226
474.40 1.225
474.50 1.224
474.60 1.223
474.70 1.222
474.80 1.221
474.90 1.22
475.00 1.219
475.10 1.218
475.20 1.217
475.30 1.216
475.40 1.215
475.50 1.214
475.60 1.213
475.70 1.212
475.80 1.211
475.90 1.21
476.00 1.209
476.10 1.208
476.20 1.206
476.30 1.205
476.40 1.204
476.50 1.203
476.60 1.202
476.70 1.201
476.80 1.2
476.90 1.199
477.00 1.198
477.10 1.197
477.20 1.196
477.30 1.195
477.40 1.194
477.50 1.193
477.60 1.192
477.70 1.191
477.80 1.19
477.90 1.188
478.00 1.187
478.10 1.186
478.20 1.185
478.30 1.184
478.40 1.183
478.50 1.182
478.60 1.181
478.70 1.18
478.80 1.179
478.90 1.177
479.00 1.176
479.10 1.175
479.20 1.174
479.30 1.173
479.40 1.172
479.50 1.171
479.60 1.169
479.70 1.168
479.80 1.167
479.90 1.166
480.00 1.165
480.10 1.164
480.20 1.162
480.30 1.161
480.40 1.16
480.50 1.159
480.60 1.157
480.70 1.156
480.80 1.155
480.90 1.153
481.00 1.152
481.10 1.151
481.20 1.15
481.30 1.148
481.40 1.147
481.50 1.145
481.60 1.144
481.70 1.142
481.80 1.141
481.90 1.139
482.00 1.138
482.10 1.136
482.20 1.135
482.30 1.133
482.40 1.131
482.50 1.129
482.60 1.127
482.70 1.126
482.80 1.124
482.90 1.122
483.00 1.12
483.10 1.118
483.20 1.116
483.30 1.114
483.40 1.112
483.50 1.109
483.60 1.107
483.70 1.105
483.80 1.102
483.90 1.1
484.00 1.098
484.10 1.095
484.20 1.092
484.30 1.09
484.40 1.087
484.50 1.084
484.60 1.081
484.70 1.078
484.80 1.075
484.90 1.072
485.00 1.068
485.10 1.065
485.20 1.062
485.30 1.059
485.40 1.056
485.50 1.052
485.60 1.049
485.70 1.046
485.80 1.044
485.90 1.043
486.00 1.045
486.10 1.053
486.20 1.049
486.30 1.04
486.40 1.039
486.50 1.039
486.60 1.04
486.70 1.041
486.80 1.042
486.90 1.044
487.00 1.046
487.10 1.047
487.20 1.049
487.30 1.05
487.40 1.052
487.50 1.053
487.60 1.055
487.70 1.056
487.80 1.057
487.90 1.058
488.00 1.059
488.10 1.06
488.20 1.061
488.30 1.062
488.40 1.062
488.50 1.063
488.60 1.064
488.70 1.064
488.80 1.065
488.90 1.065
489.00 1.066
489.10 1.066
489.20 1.067
489.30 1.067
489.40 1.067
489.50 1.067
489.60 1.067
489.70 1.067
489.80 1.067
489.90 1.067
490.00 1.067
490.10 1.067
490.20 1.066
490.30 1.066
490.40 1.066
490.50 1.065
490.60 1.065
490.70 1.065
490.80 1.064
490.90 1.064
491.00 1.064
491.10 1.063
491.20 1.063
491.30 1.062
491.40 1.062
491.50 1.061
491.60 1.061
491.70 1.06
491.80 1.06
491.90 1.059
492.00 1.058
492.10 1.058
492.20 1.057
492.30 1.057
492.40 1.056
492.50 1.055
492.60 1.055
492.70 1.054
492.80 1.053
492.90 1.053
493.00 1.052
493.10 1.052
493.20 1.051
493.30 1.05
493.40 1.049
493.50 1.049
493.60 1.048
493.70 1.047
493.80 1.047
493.90 1.046
494.00 1.045
494.10 1.045
494.20 1.044
494.30 1.043
494.40 1.042
494.50 1.042
494.60 1.041
494.70 1.04
494.80 1.039
494.90 1.039
495.00 1.038
495.10 1.037
495.20 1.036
495.30 1.036
495.40 1.035
495.50 1.034
495.60 1.033
495.70 1.033
495.80 1.032
495.90 1.031
496.00 1.03
496.10 1.03
496.20 1.029
496.30 1.028
496.40 1.027
496.50 1.027
496.60 1.026
496.70 1.025
496.80 1.024
496.90 1.024
497.00 1.023
497.10 1.022
497.20 1.021
497.30 1.021
497.40 1.02
497.50 1.019
497.60 1.018
497.70 1.018
497.80 1.017
497.90 1.016
498.00 1.015
498.10 1.014
498.20 1.014
498.30 1.013
498.40 1.012
498.50 1.011
498.60 1.011
498.70 1.01
498.80 1.009
498.90 1.008
499.00 1.008
499.10 1.007
499.20 1.006
499.30 1.005
499.40 1.005
499.50 1.004
499.60 1.003
499.70 1.002
499.80 1.002
499.90 1.001
500.00 1
500.10 0.9992
500.20 0.9985
500.30 0.9977
500.40 0.997
500.50 0.9962
500.60 0.9954
500.70 0.9947
500.80 0.9939
500.90 0.9932
501.00 0.9924
501.10 0.9917
501.20 0.9909
501.30 0.9901
501.40 0.9894
501.50 0.9886
501.60 0.9879
501.70 0.9871
501.80 0.9864
501.90 0.9856
502.00 0.9849
502.10 0.9841
502.20 0.9834
502.30 0.9826
502.40 0.9819
502.50 0.9811
502.60 0.9804
502.70 0.9796
502.80 0.9789
502.90 0.9781
503.00 0.9774
503.10 0.9766
503.20 0.9759
503.30 0.9751
503.40 0.9744
503.50 0.9736
503.60 0.9729
503.70 0.9722
503.80 0.9714
503.90 0.9707
504.00 0.9699
504.10 0.9692
504.20 0.9685
504.30 0.9677
504.40 0.967
504.50 0.9662
504.60 0.9655
504.70 0.9648
504.80 0.964
504.90 0.9633
505.00 0.9626
505.10 0.9618
505.20 0.9611
505.30 0.9604
505.40 0.9596
505.50 0.9589
505.60 0.9582
505.70 0.9574
505.80 0.9567
505.90 0.956
506.00 0.9552
506.10 0.9545
506.20 0.9538
506.30 0.9531
506.40 0.9523
506.50 0.9516
506.60 0.9509
506.70 0.9502
506.80 0.9494
506.90 0.9487
507.00 0.948
507.10 0.9473
507.20 0.9465
507.30 0.9458
507.40 0.9451
507.50 0.9444
507.60 0.9437
507.70 0.9429
507.80 0.9422
507.90 0.9415
508.00 0.9408
508.10 0.9401
508.20 0.9394
508.30 0.9386
508.40 0.9379
508.50 0.9372
508.60 0.9365
508.70 0.9358
508.80 0.9351
508.90 0.9344
509.00 0.9337
509.10 0.9329
509.20 0.9322
509.30 0.9315
509.40 0.9308
509.50 0.9301
509.60 0.9294
509.70 0.9287
509.80 0.928
509.90 0.9273
510.00 0.9266
510.10 0.9259
510.20 0.9252
510.30 0.9245
510.40 0.9238
510.50 0.9231
510.60 0.9224
510.70 0.9217
510.80 0.921
510.90 0.9203
511.00 0.9196
511.10 0.9189
511.20 0.9182
511.30 0.9175
511.40 0.9168
511.50 0.9161
511.60 0.9154
511.70 0.9147
511.80 0.914
511.90 0.9133
512.00 0.9126
512.10 0.912
512.20 0.9113
512.30 0.9106
512.40 0.9099
512.50 0.9092
512.60 0.9085
512.70 0.9078
512.80 0.9071
512.90 0.9065
513.00 0.9058
513.10 0.9051
513.20 0.9044
513.30 0.9037
513.40 0.903
513.50 0.9024
513.60 0.9017
513.70 0.901
513.80 0.9003
513.90 0.8996
514.00 0.899
514.10 0.8983
514.20 0.8976
514.30 0.8969
514.40 0.8962
514.50 0.8956
514.60 0.8949
514.70 0.8942
514.80 0.8936
514.90 0.8929
515.00 0.8922
515.10 0.8915
515.20 0.8909
515.30 0.8902
515.40 0.8895
515.50 0.8889
515.60 0.8882
515.70 0.8875
515.80 0.8869
515.90 0.8862
516.00 0.8855
516.10 0.8849
516.20 0.8842
516.30 0.8835
516.40 0.8829
516.50 0.8822
516.60 0.8815
516.70 0.8809
516.80 0.8802
516.90 0.8796
517.00 0.8789
517.10 0.8782
517.20 0.8776
517.30 0.8769
517.40 0.8763
517.50 0.8756
517.60 0.8749
517.70 0.8743
517.80 0.8736
517.90 0.873
518.00 0.8723
518.10 0.8717
518.20 0.871
518.30 0.8704
518.40 0.8697
518.50 0.8691
518.60 0.8684
518.70 0.8678
518.80 0.8671
518.90 0.8665
519.00 0.8658
519.10 0.8652
519.20 0.8645
519.30 0.8639
519.40 0.8632
519.50 0.8626
519.60 0.8619
519.70 0.8613
519.80 0.8607
519.90 0.86
520.00 0.8594
520.10 0.8587
520.20 0.8581
520.30 0.8575
520.40 0.8568
520.50 0.8562
520.60 0.8555
520.70 0.8549
520.80 0.8543
520.90 0.8536
521.00 0.853
521.10 0.8524
521.20 0.8517
521.30 0.8511
521.40 0.8505
521.50 0.8498
521.60 0.8492
521.70 0.8486
521.80 0.8479
521.90 0.8473
522.00 0.8467
522.10 0.846
522.20 0.8454
522.30 0.8448
522.40 0.8442
522.50 0.8435
522.60 0.8429
522.70 0.8423
522.80 0.8417
522.90 0.841
523.00 0.8404
523.10 0.8398
523.20 0.8392
523.30 0.8385
523.40 0.8379
523.50 0.8373
523.60 0.8367
523.70 0.836
523.80 0.8354
523.90 0.8348
524.00 0.8342
524.10 0.8336
524.20 0.833
524.30 0.8323
524.40 0.8317
524.50 0.8311
524.60 0.8305
524.70 0.8299
524.80 0.8293
524.90 0.8286
525.00 0.828
525.10 0.8274
525.20 0.8268
525.30 0.8262
525.40 0.8256
525.50 0.825
525.60 0.8244
525.70 0.8238
525.80 0.8232
525.90 0.8225
526.00 0.8219
526.10 0.8213
526.20 0.8207
526.30 0.8201
526.40 0.8195
526.50 0.8189
526.60 0.8183
526.70 0.8177
526.80 0.8171
526.90 0.8165
527.00 0.8159
527.10 0.8153
527.20 0.8147
527.30 0.8141
527.40 0.8135
527.50 0.8129
527.60 0.8123
527.70 0.8117
527.80 0.8111
527.90 0.8105
528.00 0.8099
528.10 0.8093
528.20 0.8087
528.30 0.8081
528.40 0.8075
528.50 0.8069
528.60 0.8063
528.70 0.8058
528.80 0.8052
528.90 0.8046
529.00 0.804
529.10 0.8034
529.20 0.8028
529.30 0.8022
529.40 0.8016
529.50 0.801
529.60 0.8004
529.70 0.7999
529.80 0.7993
529.90 0.7987
530.00 0.7981
530.10 0.7975
530.20 0.7969
530.30 0.7964
530.40 0.7958
530.50 0.7952
530.60 0.7946
530.70 0.794
530.80 0.7934
530.90 0.7929
531.00 0.7923
531.10 0.7917
531.20 0.7911
531.30 0.7905
531.40 0.79
531.50 0.7894
531.60 0.7888
531.70 0.7882
531.80 0.7877
531.90 0.7871
532.00 0.7865
532.10 0.7859
532.20 0.7854
532.30 0.7848
532.40 0.7842
532.50 0.7836
532.60 0.7831
532.70 0.7825
532.80 0.7819
532.90 0.7814
533.00 0.7808
533.10 0.7802
533.20 0.7797
533.30 0.7791
533.40 0.7785
533.50 0.778
533.60 0.7774
533.70 0.7768
533.80 0.7763
533.90 0.7757
534.00 0.7751
534.10 0.7746
534.20 0.774
534.30 0.7734
534.40 0.7729
534.50 0.7723
534.60 0.7718
534.70 0.7712
534.80 0.7706
534.90 0.7701
535.00 0.7695
535.10 0.769
535.20 0.7684
535.30 0.7678
535.40 0.7673
535.50 0.7667
535.60 0.7662
535.70 0.7656
535.80 0.7651
535.90 0.7645
536.00 0.7639
536.10 0.7634
536.20 0.7628
536.30 0.7623
536.40 0.7617
536.50 0.7612
536.60 0.7606
536.70 0.7601
536.80 0.7595
536.90 0.759
537.00 0.7584
537.10 0.7579
537.20 0.7573
537.30 0.7568
537.40 0.7562
537.50 0.7557
537.60 0.7552
537.70 0.7546
537.80 0.7541
537.90 0.7535
538.00 0.753
538.10 0.7524
538.20 0.7519
538.30 0.7513
538.40 0.7508
538.50 0.7503
538.60 0.7497
538.70 0.7492
538.80 0.7486
538.90 0.7481
539.00 0.7476
539.10 0.747
539.20 0.7465
539.30 0.7459
539.40 0.7454
539.50 0.7449
539.60 0.7443
539.70 0.7438
539.80 0.7433
539.90 0.7427
540.00 0.7422
540.10 0.7417
540.20 0.7411
540.30 0.7406
540.40 0.7401
540.50 0.7395
540.60 0.739
540.70 0.7385
540.80 0.7379
540.90 0.7374
541.00 0.7369
541.10 0.7363
541.20 0.7358
541.30 0.7353
541.40 0.7348
541.50 0.7342
541.60 0.7337
541.70 0.7332
541.80 0.7327
541.90 0.7321
542.00 0.7316
542.10 0.7311
542.20 0.7306
542.30 0.73
542.40 0.7295
542.50 0.729
542.60 0.7285
542.70 0.7279
542.80 0.7274
542.90 0.7269
543.00 0.7264
543.10 0.7259
543.20 0.7253
543.30 0.7248
543.40 0.7243
543.50 0.7238
543.60 0.7233
543.70 0.7228
543.80 0.7222
543.90 0.7217
544.00 0.7212
544.10 0.7207
544.20 0.7202
544.30 0.7197
544.40 0.7191
544.50 0.7186
544.60 0.7181
544.70 0.7176
544.80 0.7171
544.90 0.7166
545.00 0.7161
545.10 0.7156
545.20 0.715
545.30 0.7145
545.40 0.714
545.50 0.7135
545.60 0.713
545.70 0.7125
545.80 0.712
545.90 0.7115
546.00 0.711
546.10 0.7105
546.20 0.71
546.30 0.7095
546.40 0.709
546.50 0.7085
546.60 0.708
546.70 0.7075
546.80 0.707
546.90 0.7065
547.00 0.7059
547.10 0.7054
547.20 0.7049
547.30 0.7044
547.40 0.7039
547.50 0.7034
547.60 0.7029
547.70 0.7024
547.80 0.7019
547.90 0.7014
548.00 0.7009
548.10 0.7005
548.20 0.7
548.30 0.6995
548.40 0.699
548.50 0.6985
548.60 0.698
548.70 0.6975
548.80 0.697
548.90 0.6965
549.00 0.696
549.10 0.6955
549.20 0.695
549.30 0.6945
549.40 0.694
549.50 0.6935
549.60 0.6931
549.70 0.6926
549.80 0.6921
549.90 0.6916
550.00 0.6911
550.10 0.6906
550.20 0.6901
550.30 0.6896
550.40 0.6891
550.50 0.6887
550.60 0.6882
550.70 0.6877
550.80 0.6872
550.90 0.6867
551.00 0.6862
551.10 0.6857
551.20 0.6853
551.30 0.6848
551.40 0.6843
551.50 0.6838
551.60 0.6833
551.70 0.6829
551.80 0.6824
551.90 0.6819
552.00 0.6814
552.10 0.6809
552.20 0.6805
552.30 0.68
552.40 0.6795
552.50 0.679
552.60 0.6785
552.70 0.6781
552.80 0.6776
552.90 0.6771
553.00 0.6766
553.10 0.6762
553.20 0.6757
553.30 0.6752
553.40 0.6747
553.50 0.6743
553.60 0.6738
553.70 0.6733
553.80 0.6728
553.90 0.6724
554.00 0.6719
554.10 0.6714
554.20 0.6709
554.30 0.6705
554.40 0.67
554.50 0.6695
554.60 0.6691
554.70 0.6686
554.80 0.6681
554.90 0.6677
555.00 0.6672
555.10 0.6667
555.20 0.6663
555.30 0.6658
555.40 0.6653
555.50 0.6649
555.60 0.6644
555.70 0.6639
555.80 0.6635
555.90 0.663
556.00 0.6625
556.10 0.6621
556.20 0.6616
556.30 0.6612
556.40 0.6607
556.50 0.6602
556.60 0.6598
556.70 0.6593
556.80 0.6589
556.90 0.6584
557.00 0.6579
557.10 0.6575
557.20 0.657
557.30 0.6566
557.40 0.6561
557.50 0.6556
557.60 0.6552
557.70 0.6547
557.80 0.6543
557.90 0.6538
558.00 0.6534
558.10 0.6529
558.20 0.6524
558.30 0.652
558.40 0.6515
558.50 0.6511
558.60 0.6506
558.70 0.6502
558.80 0.6497
558.90 0.6493
559.00 0.6488
559.10 0.6484
559.20 0.6479
559.30 0.6475
559.40 0.647
559.50 0.6466
559.60 0.6461
559.70 0.6457
559.80 0.6452
559.90 0.6448
560.00 0.6443
560.10 0.6439
560.20 0.6434
560.30 0.643
560.40 0.6425
560.50 0.6421
560.60 0.6417
560.70 0.6412
560.80 0.6408
560.90 0.6403
561.00 0.6399
561.10 0.6394
561.20 0.639
561.30 0.6385
561.40 0.6381
561.50 0.6377
561.60 0.6372
561.70 0.6368
561.80 0.6363
561.90 0.6359
562.00 0.6355
562.10 0.635
562.20 0.6346
562.30 0.6341
562.40 0.6337
562.50 0.6333
562.60 0.6328
562.70 0.6324
562.80 0.632
562.90 0.6315
563.00 0.6311
563.10 0.6306
563.20 0.6302
563.30 0.6298
563.40 0.6293
563.50 0.6289
563.60 0.6285
563.70 0.628
563.80 0.6276
563.90 0.6272
564.00 0.6267
564.10 0.6263
564.20 0.6259
564.30 0.6254
564.40 0.625
564.50 0.6246
564.60 0.6241
564.70 0.6237
564.80 0.6233
564.90 0.6229
565.00 0.6224
565.10 0.622
565.20 0.6216
565.30 0.6212
565.40 0.6207
565.50 0.6203
565.60 0.6199
565.70 0.6194
565.80 0.619
565.90 0.6186
566.00 0.6182
566.10 0.6177
566.20 0.6173
566.30 0.6169
566.40 0.6165
566.50 0.616
566.60 0.6156
566.70 0.6152
566.80 0.6148
566.90 0.6144
567.00 0.6139
567.10 0.6135
567.20 0.6131
567.30 0.6127
567.40 0.6123
567.50 0.6118
567.60 0.6114
567.70 0.611
567.80 0.6106
567.90 0.6102
568.00 0.6097
568.10 0.6093
568.20 0.6089
568.30 0.6085
568.40 0.6081
568.50 0.6077
568.60 0.6072
568.70 0.6068
568.80 0.6064
568.90 0.606
569.00 0.6056
569.10 0.6052
569.20 0.6048
569.30 0.6043
569.40 0.6039
569.50 0.6035
569.60 0.6031
569.70 0.6027
569.80 0.6023
569.90 0.6019
570.00 0.6015
570.10 0.601
570.20 0.6006
570.30 0.6002
570.40 0.5998
570.50 0.5994
570.60 0.599
570.70 0.5986
570.80 0.5982
570.90 0.5978
571.00 0.5974
571.10 0.597
571.20 0.5966
571.30 0.5962
571.40 0.5957
571.50 0.5953
571.60 0.5949
571.70 0.5945
571.80 0.5941
571.90 0.5937
572.00 0.5933
572.10 0.5929
572.20 0.5925
572.30 0.5921
572.40 0.5917
572.50 0.5913
572.60 0.5909
572.70 0.5905
572.80 0.5901
572.90 0.5897
573.00 0.5893
573.10 0.5889
573.20 0.5885
573.30 0.5881
573.40 0.5877
573.50 0.5873
573.60 0.5869
573.70 0.5865
573.80 0.5861
573.90 0.5857
574.00 0.5853
574.10 0.5849
574.20 0.5845
574.30 0.5841
574.40 0.5837
574.50 0.5833
574.60 0.5829
574.70 0.5826
574.80 0.5822
574.90 0.5818
575.00 0.5814
575.10 0.581
575.20 0.5806
575.30 0.5802
575.40 0.5798
575.50 0.5794
575.60 0.579
575.70 0.5786
575.80 0.5782
575.90 0.5778
576.00 0.5774
576.10 0.5771
576.20 0.5767
576.30 0.5763
576.40 0.5759
576.50 0.5755
576.60 0.5751
576.70 0.5747
576.80 0.5743
576.90 0.5739
577.00 0.5736
577.10 0.5732
577.20 0.5728
577.30 0.5724
577.40 0.572
577.50 0.5716
577.60 0.5712
577.70 0.5709
577.80 0.5705
577.90 0.5701
578.00 0.5697
578.10 0.5693
578.20 0.5689
578.30 0.5686
578.40 0.5682
578.50 0.5678
578.60 0.5674
578.70 0.567
578.80 0.5667
578.90 0.5663
579.00 0.5659
579.10 0.5655
579.20 0.5651
579.30 0.5648
579.40 0.5644
579.50 0.564
579.60 0.5636
579.70 0.5632
579.80 0.5629
579.90 0.5625
580.00 0.5621
580.10 0.5617
580.20 0.5614
580.30 0.561
580.40 0.5606
580.50 0.5602
580.60 0.5598
580.70 0.5595
580.80 0.5591
580.90 0.5587
581.00 0.5584
581.10 0.558
581.20 0.5576
581.30 0.5572
581.40 0.5569
581.50 0.5565
581.60 0.5561
581.70 0.5557
581.80 0.5554
581.90 0.555
582.00 0.5546
582.10 0.5543
582.20 0.5539
582.30 0.5535
582.40 0.5531
582.50 0.5528
582.60 0.5524
582.70 0.552
582.80 0.5517
582.90 0.5513
583.00 0.5509
583.10 0.5506
583.20 0.5502
583.30 0.5498
583.40 0.5495
583.50 0.5491
583.60 0.5487
583.70 0.5484
583.80 0.548
583.90 0.5476
584.00 0.5473
584.10 0.5469
584.20 0.5465
584.30 0.5462
584.40 0.5458
584.50 0.5455
584.60 0.5451
584.70 0.5447
584.80 0.5444
584.90 0.544
585.00 0.5436
585.10 0.5433
585.20 0.5429
585.30 0.5426
585.40 0.5422
585.50 0.5418
585.60 0.5415
585.70 0.5411
585.80 0.5408
585.90 0.5404
586.00 0.54
586.10 0.5397
586.20 0.5393
586.30 0.539
586.40 0.5386
586.50 0.5382
586.60 0.5379
586.70 0.5375
586.80 0.5372
586.90 0.5368
587.00 0.5365
587.10 0.5361
587.20 0.5358
587.30 0.5354
587.40 0.535
587.50 0.5347
587.60 0.5343
587.70 0.534
587.80 0.5336
587.90 0.5333
588.00 0.5329
588.10 0.5326
588.20 0.5322
588.30 0.5319
588.40 0.5315
588.50 0.5312
588.60 0.5308
588.70 0.5305
588.80 0.5301
588.90 0.5298
589.00 0.5294
589.10 0.5291
589.20 0.5287
589.30 0.5284
589.40 0.528
589.50 0.5277
589.60 0.5273
589.70 0.527
589.80 0.5266
589.90 0.5263
590.00 0.5259
590.10 0.5256
590.20 0.5252
590.30 0.5249
590.40 0.5245
590.50 0.5242
590.60 0.5239
590.70 0.5235
590.80 0.5232
590.90 0.5228
591.00 0.5225
591.10 0.5221
591.20 0.5218
591.30 0.5214
591.40 0.5211
591.50 0.5208
591.60 0.5204
591.70 0.5201
591.80 0.5197
591.90 0.5194
592.00 0.519
592.10 0.5187
592.20 0.5184
592.30 0.518
592.40 0.5177
592.50 0.5173
592.60 0.517
592.70 0.5167
592.80 0.5163
592.90 0.516
593.00 0.5156
593.10 0.5153
593.20 0.515
593.30 0.5146
593.40 0.5143
593.50 0.514
593.60 0.5136
593.70 0.5133
593.80 0.5129
593.90 0.5126
594.00 0.5123
594.10 0.5119
594.20 0.5116
594.30 0.5113
594.40 0.5109
594.50 0.5106
594.60 0.5103
594.70 0.5099
594.80 0.5096
594.90 0.5093
595.00 0.5089
595.10 0.5086
595.20 0.5083
595.30 0.5079
595.40 0.5076
595.50 0.5073
595.60 0.5069
595.70 0.5066
595.80 0.5063
595.90 0.5059
596.00 0.5056
596.10 0.5053
596.20 0.505
596.30 0.5046
596.40 0.5043
596.50 0.504
596.60 0.5036
596.70 0.5033
596.80 0.503
596.90 0.5027
597.00 0.5023
597.10 0.502
597.20 0.5017
597.30 0.5013
597.40 0.501
597.50 0.5007
597.60 0.5004
597.70 0.5
597.80 0.4997
597.90 0.4994
598.00 0.4991
598.10 0.4987
598.20 0.4984
598.30 0.4981
598.40 0.4978
598.50 0.4974
598.60 0.4971
598.70 0.4968
598.80 0.4965
598.90 0.4961
599.00 0.4958
599.10 0.4955
599.20 0.4952
599.30 0.4949
599.40 0.4945
599.50 0.4942
599.60 0.4939
599.70 0.4936
599.80 0.4933
599.90 0.4929
600.00 0.4926
600.10 0.4923
600.20 0.492
600.30 0.4917
600.40 0.4913
600.50 0.491
600.60 0.4907
600.70 0.4904
600.80 0.4901
600.90 0.4898
601.00 0.4894
601.10 0.4891
601.20 0.4888
601.30 0.4885
601.40 0.4882
601.50 0.4879
601.60 0.4875
601.70 0.4872
601.80 0.4869
601.90 0.4866
602.00 0.4863
602.10 0.486
602.20 0.4856
602.30 0.4853
602.40 0.485
602.50 0.4847
602.60 0.4844
602.70 0.4841
602.80 0.4838
602.90 0.4835
603.00 0.4831
603.10 0.4828
603.20 0.4825
603.30 0.4822
603.40 0.4819
603.50 0.4816
603.60 0.4813
603.70 0.481
603.80 0.4807
603.90 0.4803
604.00 0.48
604.10 0.4797
604.20 0.4794
604.30 0.4791
604.40 0.4788
604.50 0.4785
604.60 0.4782
604.70 0.4779
604.80 0.4776
604.90 0.4773
605.00 0.477
605.10 0.4766
605.20 0.4763
605.30 0.476
605.40 0.4757
605.50 0.4754
605.60 0.4751
605.70 0.4748
605.80 0.4745
605.90 0.4742
606.00 0.4739
606.10 0.4736
606.20 0.4733
606.30 0.473
606.40 0.4727
606.50 0.4724
606.60 0.4721
606.70 0.4718
606.80 0.4715
606.90 0.4712
607.00 0.4709
607.10 0.4706
607.20 0.4703
607.30 0.47
607.40 0.4697
607.50 0.4694
607.60 0.4691
607.70 0.4688
607.80 0.4684
607.90 0.4681
608.00 0.4678
608.10 0.4675
608.20 0.4672
608.30 0.467
608.40 0.4667
608.50 0.4664
608.60 0.4661
608.70 0.4658
608.80 0.4655
608.90 0.4652
609.00 0.4649
609.10 0.4646
609.20 0.4643
609.30 0.464
609.40 0.4637
609.50 0.4634
609.60 0.4631
609.70 0.4628
609.80 0.4625
609.90 0.4622
610.00 0.4619
610.10 0.4616
610.20 0.4613
610.30 0.461
610.40 0.4607
610.50 0.4604
610.60 0.4601
610.70 0.4598
610.80 0.4596
610.90 0.4593
611.00 0.459
611.10 0.4587
611.20 0.4584
611.30 0.4581
611.40 0.4578
611.50 0.4575
611.60 0.4572
611.70 0.4569
611.80 0.4566
611.90 0.4563
612.00 0.4561
612.10 0.4558
612.20 0.4555
612.30 0.4552
612.40 0.4549
612.50 0.4546
612.60 0.4543
612.70 0.454
612.80 0.4537
612.90 0.4534
613.00 0.4532
613.10 0.4529
613.20 0.4526
613.30 0.4523
613.40 0.452
613.50 0.4517
613.60 0.4514
613.70 0.4512
613.80 0.4509
613.90 0.4506
614.00 0.4503
614.10 0.45
614.20 0.4497
614.30 0.4494
614.40 0.4492
614.50 0.4489
614.60 0.4486
614.70 0.4483
614.80 0.448
614.90 0.4477
615.00 0.4474
615.10 0.4472
615.20 0.4469
615.30 0.4466
615.40 0.4463
615.50 0.446
615.60 0.4457
615.70 0.4455
615.80 0.4452
615.90 0.4449
616.00 0.4446
616.10 0.4443
616.20 0.4441
616.30 0.4438
616.40 0.4435
616.50 0.4432
616.60 0.4429
616.70 0.4427
616.80 0.4424
616.90 0.4421
617.00 0.4418
617.10 0.4415
617.20 0.4413
617.30 0.441
617.40 0.4407
617.50 0.4404
617.60 0.4402
617.70 0.4399
617.80 0.4396
617.90 0.4393
618.00 0.439
618.10 0.4388
618.20 0.4385
618.30 0.4382
618.40 0.4379
618.50 0.4377
618.60 0.4374
618.70 0.4371
618.80 0.4368
618.90 0.4366
619.00 0.4363
619.10 0.436
619.20 0.4357
619.30 0.4355
619.40 0.4352
619.50 0.4349
619.60 0.4346
619.70 0.4344
619.80 0.4341
619.90 0.4338
620.00 0.4335
620.10 0.4333
620.20 0.433
620.30 0.4327
620.40 0.4325
620.50 0.4322
620.60 0.4319
620.70 0.4316
620.80 0.4314
620.90 0.4311
621.00 0.4308
621.10 0.4306
621.20 0.4303
621.30 0.43
621.40 0.4297
621.50 0.4295
621.60 0.4292
621.70 0.4289
621.80 0.4287
621.90 0.4284
622.00 0.4281
622.10 0.4279
622.20 0.4276
622.30 0.4273
622.40 0.4271
622.50 0.4268
622.60 0.4265
622.70 0.4263
622.80 0.426
622.90 0.4257
623.00 0.4255
623.10 0.4252
623.20 0.4249
623.30 0.4247
623.40 0.4244
623.50 0.4241
623.60 0.4239
623.70 0.4236
623.80 0.4233
623.90 0.4231
624.00 0.4228
624.10 0.4225
624.20 0.4223
624.30 0.422
624.40 0.4218
624.50 0.4215
624.60 0.4212
624.70 0.421
624.80 0.4207
624.90 0.4204
625.00 0.4202
625.10 0.4199
625.20 0.4197
625.30 0.4194
625.40 0.4191
625.50 0.4189
625.60 0.4186
625.70 0.4183
625.80 0.4181
625.90 0.4178
626.00 0.4176
626.10 0.4173
626.20 0.417
626.30 0.4168
626.40 0.4165
626.50 0.4163
626.60 0.416
626.70 0.4158
626.80 0.4155
626.90 0.4152
627.00 0.415
627.10 0.4147
627.20 0.4145
627.30 0.4142
627.40 0.4139
627.50 0.4137
627.60 0.4134
627.70 0.4132
627.80 0.4129
627.90 0.4127
628.00 0.4124
628.10 0.4121
628.20 0.4119
628.30 0.4116
628.40 0.4114
628.50 0.4111
628.60 0.4109
628.70 0.4106
628.80 0.4104
628.90 0.4101
629.00 0.4098
629.10 0.4096
629.20 0.4093
629.30 0.4091
629.40 0.4088
629.50 0.4086
629.60 0.4083
629.70 0.4081
629.80 0.4078
629.90 0.4076
630.00 0.4073
630.10 0.4071
630.20 0.4068
630.30 0.4066
630.40 0.4063
630.50 0.4061
630.60 0.4058
630.70 0.4055
630.80 0.4053
630.90 0.405
631.00 0.4048
631.10 0.4045
631.20 0.4043
631.30 0.404
631.40 0.4038
631.50 0.4035
631.60 0.4033
631.70 0.403
631.80 0.4028
631.90 0.4025
632.00 0.4023
632.10 0.4021
632.20 0.4018
632.30 0.4016
632.40 0.4013
632.50 0.4011
632.60 0.4008
632.70 0.4006
632.80 0.4003
632.90 0.4001
633.00 0.3998
633.10 0.3996
633.20 0.3993
633.30 0.3991
633.40 0.3988
633.50 0.3986
633.60 0.3983
633.70 0.3981
633.80 0.3978
633.90 0.3976
634.00 0.3974
634.10 0.3971
634.20 0.3969
634.30 0.3966
634.40 0.3964
634.50 0.3961
634.60 0.3959
634.70 0.3956
634.80 0.3954
634.90 0.3952
635.00 0.3949
635.10 0.3947
635.20 0.3944
635.30 0.3942
635.40 0.3939
635.50 0.3937
635.60 0.3935
635.70 0.3932
635.80 0.393
635.90 0.3927
636.00 0.3925
636.10 0.3922
636.20 0.392
636.30 0.3918
636.40 0.3915
636.50 0.3913
636.60 0.391
636.70 0.3908
636.80 0.3906
636.90 0.3903
637.00 0.3901
637.10 0.3898
637.20 0.3896
637.30 0.3894
637.40 0.3891
637.50 0.3889
637.60 0.3886
637.70 0.3884
637.80 0.3882
637.90 0.3879
638.00 0.3877
638.10 0.3874
638.20 0.3872
638.30 0.387
638.40 0.3867
638.50 0.3865
638.60 0.3863
638.70 0.386
638.80 0.3858
638.90 0.3855
639.00 0.3853
639.10 0.3851
639.20 0.3848
639.30 0.3846
639.40 0.3844
639.50 0.3841
639.60 0.3839
639.70 0.3836
639.80 0.3834
639.90 0.3832
640.00 0.3829
640.10 0.3827
640.20 0.3825
640.30 0.3822
640.40 0.382
640.50 0.3818
640.60 0.3815
640.70 0.3813
640.80 0.3811
640.90 0.3808
641.00 0.3806
641.10 0.3804
641.20 0.3801
641.30 0.3799
641.40 0.3796
641.50 0.3794
641.60 0.3792
641.70 0.3789
641.80 0.3787
641.90 0.3785
642.00 0.3782
642.10 0.378
642.20 0.3778
642.30 0.3775
642.40 0.3773
642.50 0.3771
642.60 0.3768
642.70 0.3766
642.80 0.3764
642.90 0.3761
643.00 0.3759
643.10 0.3757
643.20 0.3754
643.30 0.3752
643.40 0.375
643.50 0.3747
643.60 0.3745
643.70 0.3743
643.80 0.374
643.90 0.3738
644.00 0.3736
644.10 0.3733
644.20 0.3731
644.30 0.3729
644.40 0.3726
644.50 0.3724
644.60 0.3722
644.70 0.3719
644.80 0.3717
644.90 0.3715
645.00 0.3712
645.10 0.371
645.20 0.3708
645.30 0.3705
645.40 0.3703
645.50 0.3701
645.60 0.3698
645.70 0.3696
645.80 0.3694
645.90 0.3691
646.00 0.3689
646.10 0.3687
646.20 0.3684
646.30 0.3682
646.40 0.368
646.50 0.3677
646.60 0.3675
646.70 0.3673
646.80 0.367
646.90 0.3668
647.00 0.3665
647.10 0.3663
647.20 0.3661
647.30 0.3658
647.40 0.3656
647.50 0.3654
647.60 0.3651
647.70 0.3649
647.80 0.3646
647.90 0.3644
648.00 0.3642
648.10 0.3639
648.20 0.3637
648.30 0.3634
648.40 0.3632
648.50 0.3629
648.60 0.3627
648.70 0.3624
648.80 0.3622
648.90 0.3619
649.00 0.3617
649.10 0.3614
649.20 0.3612
649.30 0.3609
649.40 0.3607
649.50 0.3604
649.60 0.3602
649.70 0.3599
649.80 0.3596
649.90 0.3594
650.00 0.3591
650.10 0.3589
650.20 0.3586
650.30 0.3583
650.40 0.358
650.50 0.3578
650.60 0.3575
650.70 0.3572
650.80 0.3569
650.90 0.3566
651.00 0.3563
651.10 0.356
651.20 0.3558
651.30 0.3555
651.40 0.3551
651.50 0.3548
651.60 0.3545
651.70 0.3541
651.80 0.3538
651.90 0.3535
652.00 0.3532
652.10 0.3528
652.20 0.3525
652.30 0.3521
652.40 0.3517
652.50 0.3513
652.60 0.3509
652.70 0.3505
652.80 0.3501
652.90 0.3497
653.00 0.3493
653.10 0.3489
653.20 0.3485
653.30 0.348
653.40 0.3475
653.50 0.3469
653.60 0.3464
653.70 0.3458
653.80 0.3453
653.90 0.3447
654.00 0.3442
654.10 0.3436
654.20 0.3431
654.30 0.3425
654.40 0.3418
654.50 0.3411
654.60 0.3403
654.70 0.3396
654.80 0.3389
654.90 0.3381
655.00 0.3372
655.10 0.3364
655.20 0.3356
655.30 0.3347
655.40 0.3338
655.50 0.3328
655.60 0.3318
655.70 0.3307
655.80 0.3296
655.90 0.3286
656.00 0.3281
656.10 0.3281
656.20 0.3369
656.30 0.3457
656.40 0.3315
656.50 0.327
656.60 0.3271
656.70 0.3273
656.80 0.328
656.90 0.3288
657.00 0.3294
657.10 0.33
657.20 0.3306
657.30 0.3311
657.40 0.3315
657.50 0.332
657.60 0.3324
657.70 0.3328
657.80 0.3332
657.90 0.3335
658.00 0.3338
658.10 0.3341
658.20 0.3344
658.30 0.3347
658.40 0.3348
658.50 0.335
658.60 0.3351
658.70 0.3353
658.80 0.3354
658.90 0.3356
659.00 0.3357
659.10 0.3358
659.20 0.336
659.30 0.3361
659.40 0.3361
659.50 0.3361
659.60 0.3361
659.70 0.3361
659.80 0.3361
659.90 0.3361
660.00 0.336
660.10 0.336
660.20 0.336
660.30 0.336
660.40 0.3359
660.50 0.3358
660.60 0.3358
660.70 0.3357
660.80 0.3356
660.90 0.3355
661.00 0.3354
661.10 0.3353
661.20 0.3352
661.30 0.3351
661.40 0.335
661.50 0.3349
661.60 0.3347
661.70 0.3346
661.80 0.3345
661.90 0.3343
662.00 0.3342
662.10 0.3341
662.20 0.334
662.30 0.3338
662.40 0.3337
662.50 0.3335
662.60 0.3334
662.70 0.3332
662.80 0.333
662.90 0.3329
663.00 0.3327
663.10 0.3326
663.20 0.3324
663.30 0.3323
663.40 0.3321
663.50 0.3319
663.60 0.3318
663.70 0.3316
663.80 0.3314
663.90 0.3313
664.00 0.3311
664.10 0.3309
664.20 0.3308
664.30 0.3306
664.40 0.3304
664.50 0.3302
664.60 0.3301
664.70 0.3299
664.80 0.3297
664.90 0.3295
665.00 0.3294
665.10 0.3292
665.20 0.329
665.30 0.3288
665.40 0.3287
665.50 0.3285
665.60 0.3283
665.70 0.3281
665.80 0.3279
665.90 0.3278
666.00 0.3276
666.10 0.3274
666.20 0.3272
666.30 0.327
666.40 0.3269
666.50 0.3267
666.60 0.3265
666.70 0.3263
666.80 0.3261
666.90 0.3259
667.00 0.3258
667.10 0.3256
667.20 0.3254
667.30 0.3252
667.40 0.325
667.50 0.3249
667.60 0.3247
667.70 0.3245
667.80 0.3243
667.90 0.3241
668.00 0.3239
668.10 0.3238
668.20 0.3236
668.30 0.3234
668.40 0.3232
668.50 0.323
668.60 0.3228
668.70 0.3227
668.80 0.3225
668.90 0.3223
669.00 0.3221
669.10 0.3219
669.20 0.3217
669.30 0.3216
669.40 0.3214
669.50 0.3212
669.60 0.321
669.70 0.3208
669.80 0.3207
669.90 0.3205
670.00 0.3203
670.10 0.3201
670.20 0.3199
670.30 0.3197
670.40 0.3196
670.50 0.3194
670.60 0.3192
670.70 0.319
670.80 0.3188
670.90 0.3186
671.00 0.3185
671.10 0.3183
671.20 0.3181
671.30 0.3179
671.40 0.3177
671.50 0.3176
671.60 0.3174
671.70 0.3172
671.80 0.317
671.90 0.3168
672.00 0.3166
672.10 0.3165
672.20 0.3163
672.30 0.3161
672.40 0.3159
672.50 0.3157
672.60 0.3156
672.70 0.3154
672.80 0.3152
672.90 0.315
673.00 0.3148
673.10 0.3147
673.20 0.3145
673.30 0.3143
673.40 0.3141
673.50 0.3139
673.60 0.3138
673.70 0.3136
673.80 0.3134
673.90 0.3132
674.00 0.313
674.10 0.3129
674.20 0.3127
674.30 0.3125
674.40 0.3123
674.50 0.3121
674.60 0.312
674.70 0.3118
674.80 0.3116
674.90 0.3114
675.00 0.3112
675.10 0.3111
675.20 0.3109
675.30 0.3107
675.40 0.3105
675.50 0.3104
675.60 0.3102
675.70 0.31
675.80 0.3098
675.90 0.3096
676.00 0.3095
676.10 0.3093
676.20 0.3091
676.30 0.3089
676.40 0.3088
676.50 0.3086
676.60 0.3084
676.70 0.3082
676.80 0.308
676.90 0.3079
677.00 0.3077
677.10 0.3075
677.20 0.3073
677.30 0.3072
677.40 0.307
677.50 0.3068
677.60 0.3066
677.70 0.3065
677.80 0.3063
677.90 0.3061
678.00 0.3059
678.10 0.3058
678.20 0.3056
678.30 0.3054
678.40 0.3052
678.50 0.3051
678.60 0.3049
678.70 0.3047
678.80 0.3045
678.90 0.3044
679.00 0.3042
679.10 0.304
679.20 0.3038
679.30 0.3037
679.40 0.3035
679.50 0.3033
679.60 0.3032
679.70 0.303
679.80 0.3028
679.90 0.3026
680.00 0.3025
680.10 0.3023
680.20 0.3021
680.30 0.3019
680.40 0.3018
680.50 0.3016
680.60 0.3014
680.70 0.3013
680.80 0.3011
680.90 0.3009
681.00 0.3007
681.10 0.3006
681.20 0.3004
681.30 0.3002
681.40 0.3
681.50 0.2999
681.60 0.2997
681.70 0.2995
681.80 0.2994
681.90 0.2992
682.00 0.299
682.10 0.2989
682.20 0.2987
682.30 0.2985
682.40 0.2983
682.50 0.2982
682.60 0.298
682.70 0.2978
682.80 0.2977
682.90 0.2975
683.00 0.2973
683.10 0.2972
683.20 0.297
683.30 0.2968
683.40 0.2966
683.50 0.2965
683.60 0.2963
683.70 0.2961
683.80 0.296
683.90 0.2958
684.00 0.2956
684.10 0.2955
684.20 0.2953
684.30 0.2951
684.40 0.295
684.50 0.2948
684.60 0.2946
684.70 0.2945
684.80 0.2943
684.90 0.2941
685.00 0.294
685.10 0.2938
685.20 0.2936
685.30 0.2935
685.40 0.2933
685.50 0.2931
685.60 0.293
685.70 0.2928
685.80 0.2926
685.90 0.2925
686.00 0.2923
686.10 0.2921
686.20 0.292
686.30 0.2918
686.40 0.2916
686.50 0.2915
686.60 0.2913
686.70 0.2911
686.80 0.291
686.90 0.2908
687.00 0.2906
687.10 0.2905
687.20 0.2903
687.30 0.2901
687.40 0.29
687.50 0.2898
687.60 0.2897
687.70 0.2895
687.80 0.2893
687.90 0.2892
688.00 0.289
688.10 0.2888
688.20 0.2887
688.30 0.2885
688.40 0.2883
688.50 0.2882
688.60 0.288
688.70 0.2879
688.80 0.2877
688.90 0.2875
689.00 0.2874
689.10 0.2872
689.20 0.287
689.30 0.2869
689.40 0.2867
689.50 0.2866
689.60 0.2864
689.70 0.2862
689.80 0.2861
689.90 0.2859
690.00 0.2858
690.10 0.2856
690.20 0.2854
690.30 0.2853
690.40 0.2851
690.50 0.285
690.60 0.2848
690.70 0.2846
690.80 0.2845
690.90 0.2843
691.00 0.2842
691.10 0.284
691.20 0.2838
691.30 0.2837
691.40 0.2835
691.50 0.2834
691.60 0.2832
691.70 0.283
691.80 0.2829
691.90 0.2827
692.00 0.2826
692.10 0.2824
692.20 0.2822
692.30 0.2821
692.40 0.2819
692.50 0.2818
692.60 0.2816
692.70 0.2814
692.80 0.2813
692.90 0.2811
693.00 0.281
693.10 0.2808
693.20 0.2807
693.30 0.2805
693.40 0.2803
693.50 0.2802
693.60 0.28
693.70 0.2799
693.80 0.2797
693.90 0.2795
694.00 0.2794
694.10 0.2792
694.20 0.2791
694.30 0.2789
694.40 0.2788
694.50 0.2786
694.60 0.2784
694.70 0.2783
694.80 0.2781
694.90 0.278
695.00 0.2778
695.10 0.2777
695.20 0.2775
695.30 0.2774
695.40 0.2772
695.50 0.277
695.60 0.2769
695.70 0.2767
695.80 0.2766
695.90 0.2764
696.00 0.2763
696.10 0.2761
696.20 0.276
696.30 0.2758
696.40 0.2757
696.50 0.2755
696.60 0.2753
696.70 0.2752
696.80 0.275
696.90 0.2749
697.00 0.2747
697.10 0.2746
697.20 0.2744
697.30 0.2743
697.40 0.2741
697.50 0.274
697.60 0.2738
697.70 0.2737
697.80 0.2735
697.90 0.2734
698.00 0.2732
698.10 0.273
698.20 0.2729
698.30 0.2727
698.40 0.2726
698.50 0.2724
698.60 0.2723
698.70 0.2721
698.80 0.272
698.90 0.2718
699.00 0.2717
699.10 0.2715
699.20 0.2714
699.30 0.2712
699.40 0.2711
699.50 0.2709
699.60 0.2708
699.70 0.2706
699.80 0.2705
699.90 0.2703
700.00 0.2702
700.10 0.27
700.20 0.2699
700.30 0.2697
700.40 0.2696
700.50 0.2694
700.60 0.2693
700.70 0.2691
700.80 0.269
700.90 0.2688
701.00 0.2687
701.10 0.2685
701.20 0.2684
701.30 0.2682
701.40 0.2681
701.50 0.2679
701.60 0.2678
701.70 0.2676
701.80 0.2675
701.90 0.2673
702.00 0.2672
702.10 0.267
702.20 0.2669
702.30 0.2667
702.40 0.2666
702.50 0.2664
702.60 0.2663
702.70 0.2661
702.80 0.266
702.90 0.2659
703.00 0.2657
703.10 0.2656
703.20 0.2654
703.30 0.2653
703.40 0.2651
703.50 0.265
703.60 0.2648
703.70 0.2647
703.80 0.2645
703.90 0.2644
704.00 0.2642
704.10 0.2641
704.20 0.2639
704.30 0.2638
704.40 0.2636
704.50 0.2635
704.60 0.2634
704.70 0.2632
704.80 0.2631
704.90 0.2629
705.00 0.2628
705.10 0.2626
705.20 0.2625
705.30 0.2623
705.40 0.2622
705.50 0.262
705.60 0.2619
705.70 0.2618
705.80 0.2616
705.90 0.2615
706.00 0.2613
706.10 0.2612
706.20 0.261
706.30 0.2609
706.40 0.2607
706.50 0.2606
706.60 0.2605
706.70 0.2603
706.80 0.2602
706.90 0.26
707.00 0.2599
707.10 0.2597
707.20 0.2596
707.30 0.2595
707.40 0.2593
707.50 0.2592
707.60 0.259
707.70 0.2589
707.80 0.2587
707.90 0.2586
708.00 0.2585
708.10 0.2583
708.20 0.2582
708.30 0.258
708.40 0.2579
708.50 0.2577
708.60 0.2576
708.70 0.2575
708.80 0.2573
708.90 0.2572
709.00 0.257
709.10 0.2569
709.20 0.2568
709.30 0.2566
709.40 0.2565
709.50 0.2563
709.60 0.2562
709.70 0.256
709.80 0.2559
709.90 0.2558
710.00 0.2556
710.10 0.2555
710.20 0.2553
710.30 0.2552
710.40 0.2551
710.50 0.2549
710.60 0.2548
710.70 0.2546
710.80 0.2545
710.90 0.2544
711.00 0.2542
711.10 0.2541
711.20 0.254
711.30 0.2538
711.40 0.2537
711.50 0.2535
711.60 0.2534
711.70 0.2533
711.80 0.2531
711.90 0.253
712.00 0.2528
712.10 0.2527
712.20 0.2526
712.30 0.2524
712.40 0.2523
712.50 0.2521
712.60 0.252
712.70 0.2519
712.80 0.2517
712.90 0.2516
713.00 0.2515
713.10 0.2513
713.20 0.2512
713.30 0.251
713.40 0.2509
713.50 0.2508
713.60 0.2506
713.70 0.2505
713.80 0.2504
713.90 0.2502
714.00 0.2501
714.10 0.2499
714.20 0.2498
714.30 0.2497
714.40 0.2495
714.50 0.2494
714.60 0.2493
714.70 0.2491
714.80 0.249
714.90 0.2489
715.00 0.2487
715.10 0.2486
715.20 0.2484
715.30 0.2483
715.40 0.2482
715.50 0.248
715.60 0.2479
715.70 0.2478
715.80 0.2476
715.90 0.2475
716.00 0.2474
716.10 0.2472
716.20 0.2471
716.30 0.247
716.40 0.2468
716.50 0.2467
716.60 0.2466
716.70 0.2464
716.80 0.2463
716.90 0.2462
717.00 0.246
717.10 0.2459
717.20 0.2458
717.30 0.2456
717.40 0.2455
717.50 0.2454
717.60 0.2452
717.70 0.2451
717.80 0.245
717.90 0.2448
718.00 0.2447
718.10 0.2446
718.20 0.2444
718.30 0.2443
718.40 0.2442
718.50 0.244
718.60 0.2439
718.70 0.2438
718.80 0.2436
718.90 0.2435
719.00 0.2434
719.10 0.2432
719.20 0.2431
719.30 0.243
719.40 0.2428
719.50 0.2427
719.60 0.2426
719.70 0.2424
719.80 0.2423
719.90 0.2422
720.00 0.242
720.10 0.2419
720.20 0.2418
720.30 0.2417
720.40 0.2415
720.50 0.2414
720.60 0.2413
720.70 0.2411
720.80 0.241
720.90 0.2409
721.00 0.2407
721.10 0.2406
721.20 0.2405
721.30 0.2404
721.40 0.2402
721.50 0.2401
721.60 0.24
721.70 0.2398
721.80 0.2397
721.90 0.2396
722.00 0.2395
722.10 0.2393
722.20 0.2392
722.30 0.2391
722.40 0.2389
722.50 0.2388
722.60 0.2387
722.70 0.2385
722.80 0.2384
722.90 0.2383
723.00 0.2382
723.10 0.238
723.20 0.2379
723.30 0.2378
723.40 0.2376
723.50 0.2375
723.60 0.2374
723.70 0.2373
723.80 0.2371
723.90 0.237
724.00 0.2369
724.10 0.2367
724.20 0.2366
724.30 0.2365
724.40 0.2364
724.50 0.2362
724.60 0.2361
724.70 0.236
724.80 0.2359
724.90 0.2357
725.00 0.2356
725.10 0.2355
725.20 0.2353
725.30 0.2352
725.40 0.2351
725.50 0.235
725.60 0.2348
725.70 0.2347
725.80 0.2346
725.90 0.2345
726.00 0.2343
726.10 0.2342
726.20 0.2341
726.30 0.234
726.40 0.2338
726.50 0.2337
726.60 0.2336
726.70 0.2335
726.80 0.2333
726.90 0.2332
727.00 0.2331
727.10 0.233
727.20 0.2328
727.30 0.2327
727.40 0.2326
727.50 0.2325
727.60 0.2323
727.70 0.2322
727.80 0.2321
727.90 0.232
728.00 0.2318
728.10 0.2317
728.20 0.2316
728.30 0.2315
728.40 0.2313
728.50 0.2312
728.60 0.2311
728.70 0.231
728.80 0.2308
728.90 0.2307
729.00 0.2306
729.10 0.2305
729.20 0.2304
729.30 0.2302
729.40 0.2301
729.50 0.23
729.60 0.2299
729.70 0.2297
729.80 0.2296
729.90 0.2295
730.00 0.2294
730.10 0.2292
730.20 0.2291
730.30 0.229
730.40 0.2289
730.50 0.2288
730.60 0.2286
730.70 0.2285
730.80 0.2284
730.90 0.2283
731.00 0.2282
731.10 0.228
731.20 0.2279
731.30 0.2278
731.40 0.2277
731.50 0.2275
731.60 0.2274
731.70 0.2273
731.80 0.2272
731.90 0.2271
732.00 0.2269
732.10 0.2268
732.20 0.2267
732.30 0.2266
732.40 0.2265
732.50 0.2263
732.60 0.2262
732.70 0.2261
732.80 0.226
732.90 0.2259
733.00 0.2257
733.10 0.2256
733.20 0.2255
733.30 0.2254
733.40 0.2253
733.50 0.2251
733.60 0.225
733.70 0.2249
733.80 0.2248
733.90 0.2247
734.00 0.2246
734.10 0.2244
734.20 0.2243
734.30 0.2242
734.40 0.2241
734.50 0.224
734.60 0.2238
734.70 0.2237
734.80 0.2236
734.90 0.2235
735.00 0.2234
735.10 0.2232
735.20 0.2231
735.30 0.223
735.40 0.2229
735.50 0.2228
735.60 0.2227
735.70 0.2225
735.80 0.2224
735.90 0.2223
736.00 0.2222
736.10 0.2221
736.20 0.2219
736.30 0.2218
736.40 0.2217
736.50 0.2216
736.60 0.2215
736.70 0.2214
736.80 0.2212
736.90 0.2211
737.00 0.221
737.10 0.2209
737.20 0.2208
737.30 0.2207
737.40 0.2205
737.50 0.2204
737.60 0.2203
737.70 0.2202
737.80 0.2201
737.90 0.2199
738.00 0.2198
738.10 0.2197
738.20 0.2196
738.30 0.2195
738.40 0.2194
738.50 0.2192
738.60 0.2191
738.70 0.219
738.80 0.2189
738.90 0.2188
739.00 0.2187
739.10 0.2185
739.20 0.2184
739.30 0.2183
739.40 0.2182
739.50 0.2181
739.60 0.218
739.70 0.2179
739.80 0.2177
739.90 0.2176
740.00 0.2175
740.10 0.2174
740.20 0.2173
740.30 0.2172
740.40 0.217
740.50 0.2169
740.60 0.2168
740.70 0.2167
740.80 0.2166
740.90 0.2165
741.00 0.2164
741.10 0.2163
741.20 0.2161
741.30 0.216
741.40 0.2159
741.50 0.2158
741.60 0.2157
741.70 0.2156
741.80 0.2155
741.90 0.2154
742.00 0.2152
742.10 0.2151
742.20 0.215
742.30 0.2149
742.40 0.2148
742.50 0.2147
742.60 0.2146
742.70 0.2145
742.80 0.2143
742.90 0.2142
743.00 0.2141
743.10 0.214
743.20 0.2139
743.30 0.2138
743.40 0.2137
743.50 0.2136
743.60 0.2134
743.70 0.2133
743.80 0.2132
743.90 0.2131
744.00 0.213
744.10 0.2129
744.20 0.2128
744.30 0.2127
744.40 0.2126
744.50 0.2124
744.60 0.2123
744.70 0.2122
744.80 0.2121
744.90 0.212
745.00 0.2119
745.10 0.2118
745.20 0.2117
745.30 0.2116
745.40 0.2114
745.50 0.2113
745.60 0.2112
745.70 0.2111
745.80 0.211
745.90 0.2109
746.00 0.2108
746.10 0.2107
746.20 0.2106
746.30 0.2104
746.40 0.2103
746.50 0.2102
746.60 0.2101
746.70 0.21
746.80 0.2099
746.90 0.2098
747.00 0.2097
747.10 0.2096
747.20 0.2095
747.30 0.2093
747.40 0.2092
747.50 0.2091
747.60 0.209
747.70 0.2089
747.80 0.2088
747.90 0.2087
748.00 0.2086
748.10 0.2085
748.20 0.2084
748.30 0.2083
748.40 0.2081
748.50 0.208
748.60 0.2079
748.70 0.2078
748.80 0.2077
748.90 0.2076
749.00 0.2075
749.10 0.2074
749.20 0.2073
749.30 0.2072
749.40 0.2071
749.50 0.2069
749.60 0.2068
749.70 0.2067
749.80 0.2066
749.90 0.2065
750.00 0.2064
750.10 0.2063
750.20 0.2062
750.30 0.2061
750.40 0.206
750.50 0.2059
750.60 0.2058
750.70 0.2057
750.80 0.2056
750.90 0.2054
751.00 0.2053
751.10 0.2052
751.20 0.2051
751.30 0.205
751.40 0.2049
751.50 0.2048
751.60 0.2047
751.70 0.2046
751.80 0.2045
751.90 0.2044
752.00 0.2043
752.10 0.2042
752.20 0.2041
752.30 0.204
752.40 0.2039
752.50 0.2038
752.60 0.2036
752.70 0.2035
752.80 0.2034
752.90 0.2033
753.00 0.2032
753.10 0.2031
753.20 0.203
753.30 0.2029
753.40 0.2028
753.50 0.2027
753.60 0.2026
753.70 0.2025
753.80 0.2024
753.90 0.2023
754.00 0.2022
754.10 0.2021
754.20 0.202
754.30 0.2019
754.40 0.2018
754.50 0.2017
754.60 0.2016
754.70 0.2015
754.80 0.2013
754.90 0.2012
755.00 0.2011
755.10 0.201
755.20 0.2009
755.30 0.2008
755.40 0.2007
755.50 0.2006
755.60 0.2005
755.70 0.2004
755.80 0.2003
755.90 0.2002
756.00 0.2001
756.10 0.2
756.20 0.1999
756.30 0.1998
756.40 0.1997
756.50 0.1996
756.60 0.1995
756.70 0.1994
756.80 0.1993
756.90 0.1992
757.00 0.1991
757.10 0.199
757.20 0.1989
757.30 0.1988
757.40 0.1987
757.50 0.1986
757.60 0.1985
757.70 0.1983
757.80 0.1982
757.90 0.1981
758.00 0.198
758.10 0.1979
758.20 0.1978
758.30 0.1977
758.40 0.1976
758.50 0.1975
758.60 0.1974
758.70 0.1973
758.80 0.1972
758.90 0.1971
759.00 0.197
759.10 0.1969
759.20 0.1968
759.30 0.1967
759.40 0.1966
759.50 0.1965
759.60 0.1964
759.70 0.1963
759.80 0.1962
759.90 0.1961
760.00 0.196
760.10 0.1959
760.20 0.1958
760.30 0.1957
760.40 0.1956
760.50 0.1955
760.60 0.1954
760.70 0.1953
760.80 0.1952
760.90 0.1951
761.00 0.195
761.10 0.1949
761.20 0.1948
761.30 0.1947
761.40 0.1946
761.50 0.1945
761.60 0.1944
761.70 0.1943
761.80 0.1942
761.90 0.1941
762.00 0.194
762.10 0.1939
762.20 0.1938
762.30 0.1937
762.40 0.1936
762.50 0.1935
762.60 0.1934
762.70 0.1933
762.80 0.1932
762.90 0.1931
763.00 0.193
763.10 0.1929
763.20 0.1928
763.30 0.1927
763.40 0.1926
763.50 0.1925
763.60 0.1924
763.70 0.1923
763.80 0.1922
763.90 0.1921
764.00 0.192
764.10 0.1919
764.20 0.1918
764.30 0.1917
764.40 0.1917
764.50 0.1916
764.60 0.1915
764.70 0.1914
764.80 0.1913
764.90 0.1912
765.00 0.1911
765.10 0.191
765.20 0.1909
765.30 0.1908
765.40 0.1907
765.50 0.1906
765.60 0.1905
765.70 0.1904
765.80 0.1903
765.90 0.1902
766.00 0.1901
766.10 0.19
766.20 0.1899
766.30 0.1898
766.40 0.1897
766.50 0.1896
766.60 0.1895
766.70 0.1894
766.80 0.1893
766.90 0.1892
767.00 0.1891
767.10 0.189
767.20 0.1889
767.30 0.1888
767.40 0.1887
767.50 0.1886
767.60 0.1885
767.70 0.1884
767.80 0.1884
767.90 0.1883
768.00 0.1882
768.10 0.1881
768.20 0.188
768.30 0.1879
768.40 0.1878
768.50 0.1877
768.60 0.1876
768.70 0.1875
768.80 0.1874
768.90 0.1873
769.00 0.1872
769.10 0.1871
769.20 0.187
769.30 0.1869
769.40 0.1868
769.50 0.1867
769.60 0.1866
769.70 0.1865
769.80 0.1864
769.90 0.1863
770.00 0.1862
770.10 0.1862
770.20 0.1861
770.30 0.186
770.40 0.1859
770.50 0.1858
770.60 0.1857
770.70 0.1856
770.80 0.1855
770.90 0.1854
771.00 0.1853
771.10 0.1852
771.20 0.1851
771.30 0.185
771.40 0.1849
771.50 0.1848
771.60 0.1848
771.70 0.1847
771.80 0.1846
771.90 0.1845
772.00 0.1844
772.10 0.1843
772.20 0.1842
772.30 0.1841
772.40 0.184
772.50 0.1839
772.60 0.1838
772.70 0.1837
772.80 0.1836
772.90 0.1835
773.00 0.1835
773.10 0.1834
773.20 0.1833
773.30 0.1832
773.40 0.1831
773.50 0.183
773.60 0.1829
773.70 0.1828
773.80 0.1827
773.90 0.1826
774.00 0.1825
774.10 0.1824
774.20 0.1824
774.30 0.1823
774.40 0.1822
774.50 0.1821
774.60 0.182
774.70 0.1819
774.80 0.1818
774.90 0.1817
775.00 0.1816
775.10 0.1815
775.20 0.1814
775.30 0.1813
775.40 0.1813
775.50 0.1812
775.60 0.1811
775.70 0.181
775.80 0.1809
775.90 0.1808
776.00 0.1807
776.10 0.1806
776.20 0.1805
776.30 0.1804
776.40 0.1803
776.50 0.1802
776.60 0.1802
776.70 0.1801
776.80 0.18
776.90 0.1799
777.00 0.1798
777.10 0.1797
777.20 0.1796
777.30 0.1795
777.40 0.1794
777.50 0.1793
777.60 0.1793
777.70 0.1792
777.80 0.1791
777.90 0.179
778.00 0.1789
778.10 0.1788
778.20 0.1787
778.30 0.1786
778.40 0.1785
778.50 0.1784
778.60 0.1783
778.70 0.1783
778.80 0.1782
778.90 0.1781
779.00 0.178
779.10 0.1779
779.20 0.1778
779.30 0.1777
779.40 0.1776
779.50 0.1775
779.60 0.1775
779.70 0.1774
779.80 0.1773
779.90 0.1772
780.00 0.1771
780.10 0.177
780.20 0.1769
780.30 0.1768
780.40 0.1767
780.50 0.1767
780.60 0.1766
780.70 0.1765
780.80 0.1764
780.90 0.1763
781.00 0.1762
781.10 0.1761
781.20 0.176
781.30 0.176
781.40 0.1759
781.50 0.1758
781.60 0.1757
781.70 0.1756
781.80 0.1755
781.90 0.1754
782.00 0.1753
782.10 0.1753
782.20 0.1752
782.30 0.1751
782.40 0.175
782.50 0.1749
782.60 0.1748
782.70 0.1747
782.80 0.1746
782.90 0.1746
783.00 0.1745
783.10 0.1744
783.20 0.1743
783.30 0.1742
783.40 0.1741
783.50 0.174
783.60 0.174
783.70 0.1739
783.80 0.1738
783.90 0.1737
784.00 0.1736
784.10 0.1735
784.20 0.1734
784.30 0.1733
784.40 0.1733
784.50 0.1732
784.60 0.1731
784.70 0.173
784.80 0.1729
784.90 0.1728
785.00 0.1727
785.10 0.1727
785.20 0.1726
785.30 0.1725
785.40 0.1724
785.50 0.1723
785.60 0.1722
785.70 0.1721
785.80 0.1721
785.90 0.172
786.00 0.1719
786.10 0.1718
786.20 0.1717
786.30 0.1716
786.40 0.1715
786.50 0.1715
786.60 0.1714
786.70 0.1713
786.80 0.1712
786.90 0.1711
787.00 0.171
787.10 0.1709
787.20 0.1709
787.30 0.1708
787.40 0.1707
787.50 0.1706
787.60 0.1705
787.70 0.1704
787.80 0.1704
787.90 0.1703
788.00 0.1702
788.10 0.1701
788.20 0.17
788.30 0.1699
788.40 0.1698
788.50 0.1698
788.60 0.1697
788.70 0.1696
788.80 0.1695
788.90 0.1694
789.00 0.1693
789.10 0.1693
789.20 0.1692
789.30 0.1691
789.40 0.169
789.50 0.1689
789.60 0.1688
789.70 0.1687
789.80 0.1687
789.90 0.1686
790.00 0.1685
790.10 0.1684
790.20 0.1683
790.30 0.1682
790.40 0.1682
790.50 0.1681
790.60 0.168
790.70 0.1679
790.80 0.1678
790.90 0.1678
791.00 0.1677
791.10 0.1676
791.20 0.1675
791.30 0.1674
791.40 0.1673
791.50 0.1673
791.60 0.1672
791.70 0.1671
791.80 0.167
791.90 0.1669
792.00 0.1669
792.10 0.1668
792.20 0.1667
792.30 0.1666
792.40 0.1665
792.50 0.1664
792.60 0.1664
792.70 0.1663
792.80 0.1662
792.90 0.1661
793.00 0.166
793.10 0.166
793.20 0.1659
793.30 0.1658
793.40 0.1657
793.50 0.1656
793.60 0.1655
793.70 0.1655
793.80 0.1654
793.90 0.1653
794.00 0.1652
794.10 0.1651
794.20 0.1651
794.30 0.165
794.40 0.1649
794.50 0.1648
794.60 0.1647
794.70 0.1647
794.80 0.1646
794.90 0.1645
795.00 0.1644
795.10 0.1643
795.20 0.1643
795.30 0.1642
795.40 0.1641
795.50 0.164
795.60 0.1639
795.70 0.1638
795.80 0.1638
795.90 0.1637
796.00 0.1636
796.10 0.1635
796.20 0.1634
796.30 0.1634
796.40 0.1633
796.50 0.1632
796.60 0.1631
796.70 0.163
796.80 0.163
796.90 0.1629
797.00 0.1628
797.10 0.1627
797.20 0.1626
797.30 0.1626
797.40 0.1625
797.50 0.1624
797.60 0.1623
797.70 0.1622
797.80 0.1622
797.90 0.1621
798.00 0.162
798.10 0.1619
798.20 0.1618
798.30 0.1618
798.40 0.1617
798.50 0.1616
798.60 0.1615
798.70 0.1614
798.80 0.1614
798.90 0.1613
799.00 0.1612
799.10 0.1611
799.20 0.161
799.30 0.161
799.40 0.1609
799.50 0.1608
799.60 0.1607
799.70 0.1607
799.80 0.1606
799.90 0.1605
800.00 0.1604
800.10 0.1603
800.20 0.1603
800.30 0.1602
800.40 0.1601
800.50 0.16
800.60 0.16
800.70 0.1599
800.80 0.1598
800.90 0.1597
801.00 0.1596
801.10 0.1596
801.20 0.1595
801.30 0.1594
801.40 0.1593
801.50 0.1593
801.60 0.1592
801.70 0.1591
801.80 0.159
801.90 0.1589
802.00 0.1589
802.10 0.1588
802.20 0.1587
802.30 0.1586
802.40 0.1586
802.50 0.1585
802.60 0.1584
802.70 0.1583
802.80 0.1583
802.90 0.1582
803.00 0.1581
803.10 0.158
803.20 0.1579
803.30 0.1579
803.40 0.1578
803.50 0.1577
803.60 0.1576
803.70 0.1576
803.80 0.1575
803.90 0.1574
804.00 0.1573
804.10 0.1573
804.20 0.1572
804.30 0.1571
804.40 0.157
804.50 0.157
804.60 0.1569
804.70 0.1568
804.80 0.1567
804.90 0.1567
805.00 0.1566
805.10 0.1565
805.20 0.1564
805.30 0.1563
805.40 0.1563
805.50 0.1562
805.60 0.1561
805.70 0.156
805.80 0.156
805.90 0.1559
806.00 0.1558
806.10 0.1557
806.20 0.1557
806.30 0.1556
806.40 0.1555
806.50 0.1554
806.60 0.1554
806.70 0.1553
806.80 0.1552
806.90 0.1551
807.00 0.1551
807.10 0.155
807.20 0.1549
807.30 0.1548
807.40 0.1548
807.50 0.1547
807.60 0.1546
807.70 0.1545
807.80 0.1545
807.90 0.1544
808.00 0.1543
808.10 0.1542
808.20 0.1542
808.30 0.1541
808.40 0.154
808.50 0.1539
808.60 0.1539
808.70 0.1538
808.80 0.1537
808.90 0.1536
809.00 0.1536
809.10 0.1535
809.20 0.1534
809.30 0.1533
809.40 0.1533
809.50 0.1532
809.60 0.1531
809.70 0.153
809.80 0.153
809.90 0.1529
810.00 0.1528
810.10 0.1527
810.20 0.1527
810.30 0.1526
810.40 0.1525
810.50 0.1525
810.60 0.1524
810.70 0.1523
810.80 0.1522
810.90 0.1522
811.00 0.1521
811.10 0.152
811.20 0.1519
811.30 0.1519
811.40 0.1518
811.50 0.1517
811.60 0.1517
811.70 0.1516
811.80 0.1515
811.90 0.1514
812.00 0.1514
812.10 0.1513
812.20 0.1512
812.30 0.1511
812.40 0.1511
812.50 0.151
812.60 0.1509
812.70 0.1509
812.80 0.1508
812.90 0.1507
813.00 0.1506
813.10 0.1506
813.20 0.1505
813.30 0.1504
813.40 0.1503
813.50 0.1503
813.60 0.1502
813.70 0.1501
813.80 0.1501
813.90 0.15
814.00 0.1499
814.10 0.1498
814.20 0.1498
814.30 0.1497
814.40 0.1496
814.50 0.1496
814.60 0.1495
814.70 0.1494
814.80 0.1493
814.90 0.1493
815.00 0.1492
815.10 0.1491
815.20 0.1491
815.30 0.149
815.40 0.1489
815.50 0.1488
815.60 0.1488
815.70 0.1487
815.80 0.1486
815.90 0.1486
816.00 0.1485
816.10 0.1484
816.20 0.1483
816.30 0.1483
816.40 0.1482
816.50 0.1481
816.60 0.1481
816.70 0.148
816.80 0.1479
816.90 0.1478
817.00 0.1478
817.10 0.1477
817.20 0.1476
817.30 0.1476
817.40 0.1475
817.50 0.1474
817.60 0.1474
817.70 0.1473
817.80 0.1472
817.90 0.1471
818.00 0.1471
818.10 0.147
818.20 0.1469
818.30 0.1469
818.40 0.1468
818.50 0.1467
818.60 0.1466
818.70 0.1466
818.80 0.1465
818.90 0.1464
819.00 0.1464
819.10 0.1463
819.20 0.1462
819.30 0.1462
819.40 0.1461
819.50 0.146
819.60 0.1459
819.70 0.1459
819.80 0.1458
819.90 0.1457
820.00 0.1457
820.10 0.1456
820.20 0.1455
820.30 0.1455
820.40 0.1454
820.50 0.1453
820.60 0.1452
820.70 0.1452
820.80 0.1451
820.90 0.145
821.00 0.145
821.10 0.1449
821.20 0.1448
821.30 0.1448
821.40 0.1447
821.50 0.1446
821.60 0.1446
821.70 0.1445
821.80 0.1444
821.90 0.1444
822.00 0.1443
822.10 0.1442
822.20 0.1441
822.30 0.1441
822.40 0.144
822.50 0.1439
822.60 0.1439
822.70 0.1438
822.80 0.1437
822.90 0.1437
823.00 0.1436
823.10 0.1435
823.20 0.1435
823.30 0.1434
823.40 0.1433
823.50 0.1433
823.60 0.1432
823.70 0.1431
823.80 0.1431
823.90 0.143
824.00 0.1429
824.10 0.1429
824.20 0.1428
824.30 0.1427
824.40 0.1427
824.50 0.1426
824.60 0.1425
824.70 0.1424
824.80 0.1424
824.90 0.1423
825.00 0.1422
825.10 0.1422
825.20 0.1421
825.30 0.142
825.40 0.142
825.50 0.1419
825.60 0.1418
825.70 0.1418
825.80 0.1417
825.90 0.1416
826.00 0.1416
826.10 0.1415
826.20 0.1414
826.30 0.1414
826.40 0.1413
826.50 0.1412
826.60 0.1412
826.70 0.1411
826.80 0.141
826.90 0.141
827.00 0.1409
827.10 0.1408
827.20 0.1408
827.30 0.1407
827.40 0.1406
827.50 0.1406
827.60 0.1405
827.70 0.1404
827.80 0.1404
827.90 0.1403
828.00 0.1402
828.10 0.1402
828.20 0.1401
828.30 0.14
828.40 0.14
828.50 0.1399
828.60 0.1398
828.70 0.1398
828.80 0.1397
828.90 0.1396
829.00 0.1396
829.10 0.1395
829.20 0.1395
829.30 0.1394
829.40 0.1393
829.50 0.1393
829.60 0.1392
829.70 0.1391
829.80 0.1391
829.90 0.139
830.00 0.1389
830.10 0.1389
830.20 0.1388
830.30 0.1387
830.40 0.1387
830.50 0.1386
830.60 0.1385
830.70 0.1385
830.80 0.1384
830.90 0.1383
831.00 0.1383
831.10 0.1382
831.20 0.1381
831.30 0.1381
831.40 0.138
831.50 0.1379
831.60 0.1379
831.70 0.1378
831.80 0.1378
831.90 0.1377
832.00 0.1376
832.10 0.1376
832.20 0.1375
832.30 0.1374
832.40 0.1374
832.50 0.1373
832.60 0.1372
832.70 0.1372
832.80 0.1371
832.90 0.137
833.00 0.137
833.10 0.1369
833.20 0.1369
833.30 0.1368
833.40 0.1367
833.50 0.1367
833.60 0.1366
833.70 0.1365
833.80 0.1365
833.90 0.1364
834.00 0.1363
834.10 0.1363
834.20 0.1362
834.30 0.1361
834.40 0.1361
834.50 0.136
834.60 0.136
834.70 0.1359
834.80 0.1358
834.90 0.1358
835.00 0.1357
835.10 0.1356
835.20 0.1356
835.30 0.1355
835.40 0.1354
835.50 0.1354
835.60 0.1353
835.70 0.1353
835.80 0.1352
835.90 0.1351
836.00 0.1351
836.10 0.135
836.20 0.1349
836.30 0.1349
836.40 0.1348
836.50 0.1348
836.60 0.1347
836.70 0.1346
836.80 0.1346
836.90 0.1345
837.00 0.1344
837.10 0.1344
837.20 0.1343
837.30 0.1342
837.40 0.1342
837.50 0.1341
837.60 0.1341
837.70 0.134
837.80 0.1339
837.90 0.1339
838.00 0.1338
838.10 0.1337
838.20 0.1337
838.30 0.1336
838.40 0.1336
838.50 0.1335
838.60 0.1334
838.70 0.1334
838.80 0.1333
838.90 0.1333
839.00 0.1332
839.10 0.1331
839.20 0.1331
839.30 0.133
839.40 0.1329
839.50 0.1329
839.60 0.1328
839.70 0.1328
839.80 0.1327
839.90 0.1326
840.00 0.1326
840.10 0.1325
840.20 0.1324
840.30 0.1324
840.40 0.1323
840.50 0.1323
840.60 0.1322
840.70 0.1321
840.80 0.1321
840.90 0.132
841.00 0.132
841.10 0.1319
841.20 0.1318
841.30 0.1318
841.40 0.1317
841.50 0.1316
841.60 0.1316
841.70 0.1315
841.80 0.1315
841.90 0.1314
842.00 0.1313
842.10 0.1313
842.20 0.1312
842.30 0.1312
842.40 0.1311
842.50 0.131
842.60 0.131
842.70 0.1309
842.80 0.1309
842.90 0.1308
843.00 0.1307
843.10 0.1307
843.20 0.1306
843.30 0.1306
843.40 0.1305
843.50 0.1304
843.60 0.1304
843.70 0.1303
843.80 0.1303
843.90 0.1302
844.00 0.1301
844.10 0.1301
844.20 0.13
844.30 0.1299
844.40 0.1299
844.50 0.1298
844.60 0.1298
844.70 0.1297
844.80 0.1296
844.90 0.1296
845.00 0.1295
845.10 0.1295
845.20 0.1294
845.30 0.1293
845.40 0.1293
845.50 0.1292
845.60 0.1292
845.70 0.1291
845.80 0.129
845.90 0.129
846.00 0.1289
846.10 0.1289
846.20 0.1288
846.30 0.1288
846.40 0.1287
846.50 0.1286
846.60 0.1286
846.70 0.1285
846.80 0.1285
846.90 0.1284
847.00 0.1283
847.10 0.1283
847.20 0.1282
847.30 0.1282
847.40 0.1281
847.50 0.128
847.60 0.128
847.70 0.1279
847.80 0.1279
847.90 0.1278
848.00 0.1277
848.10 0.1277
848.20 0.1276
848.30 0.1276
848.40 0.1275
848.50 0.1275
848.60 0.1274
848.70 0.1273
848.80 0.1273
848.90 0.1272
849.00 0.1272
849.10 0.1271
849.20 0.127
849.30 0.127
849.40 0.1269
849.50 0.1269
849.60 0.1268
849.70 0.1267
849.80 0.1267
849.90 0.1266
850.00 0.1266
850.10 0.1265
850.20 0.1265
850.30 0.1264
850.40 0.1263
850.50 0.1263
850.60 0.1262
850.70 0.1262
850.80 0.1261
850.90 0.126
851.00 0.126
851.10 0.1259
851.20 0.1259
851.30 0.1258
851.40 0.1258
851.50 0.1257
851.60 0.1256
851.70 0.1256
851.80 0.1255
851.90 0.1255
852.00 0.1254
852.10 0.1254
852.20 0.1253
852.30 0.1252
852.40 0.1252
852.50 0.1251
852.60 0.1251
852.70 0.125
852.80 0.125
852.90 0.1249
853.00 0.1248
853.10 0.1248
853.20 0.1247
853.30 0.1247
853.40 0.1246
853.50 0.1246
853.60 0.1245
853.70 0.1244
853.80 0.1244
853.90 0.1243
854.00 0.1243
854.10 0.1242
854.20 0.1242
854.30 0.1241
854.40 0.124
854.50 0.124
854.60 0.1239
854.70 0.1239
854.80 0.1238
854.90 0.1238
855.00 0.1237
855.10 0.1236
855.20 0.1236
855.30 0.1235
855.40 0.1235
855.50 0.1234
855.60 0.1234
855.70 0.1233
855.80 0.1232
855.90 0.1232
856.00 0.1231
856.10 0.1231
856.20 0.123
856.30 0.123
856.40 0.1229
856.50 0.1229
856.60 0.1228
856.70 0.1227
856.80 0.1227
856.90 0.1226
857.00 0.1226
857.10 0.1225
857.20 0.1225
857.30 0.1224
857.40 0.1224
857.50 0.1223
857.60 0.1222
857.70 0.1222
857.80 0.1221
857.90 0.1221
858.00 0.122
858.10 0.122
858.20 0.1219
858.30 0.1219
858.40 0.1218
858.50 0.1217
858.60 0.1217
858.70 0.1216
858.80 0.1216
858.90 0.1215
859.00 0.1215
859.10 0.1214
859.20 0.1214
859.30 0.1213
859.40 0.1212
859.50 0.1212
859.60 0.1211
859.70 0.1211
859.80 0.121
859.90 0.121
860.00 0.1209
860.10 0.1209
860.20 0.1208
860.30 0.1207
860.40 0.1207
860.50 0.1206
860.60 0.1206
860.70 0.1205
860.80 0.1205
860.90 0.1204
861.00 0.1204
861.10 0.1203
861.20 0.1203
861.30 0.1202
861.40 0.1201
861.50 0.1201
861.60 0.12
861.70 0.12
861.80 0.1199
861.90 0.1199
862.00 0.1198
862.10 0.1198
862.20 0.1197
862.30 0.1197
862.40 0.1196
862.50 0.1195
862.60 0.1195
862.70 0.1194
862.80 0.1194
862.90 0.1193
863.00 0.1193
863.10 0.1192
863.20 0.1192
863.30 0.1191
863.40 0.1191
863.50 0.119
863.60 0.119
863.70 0.1189
863.80 0.1188
863.90 0.1188
864.00 0.1187
864.10 0.1187
864.20 0.1186
864.30 0.1186
864.40 0.1185
864.50 0.1185
864.60 0.1184
864.70 0.1184
864.80 0.1183
864.90 0.1183
865.00 0.1182
865.10 0.1181
865.20 0.1181
865.30 0.118
865.40 0.118
865.50 0.1179
865.60 0.1179
865.70 0.1178
865.80 0.1178
865.90 0.1177
866.00 0.1177
866.10 0.1176
866.20 0.1176
866.30 0.1175
866.40 0.1175
866.50 0.1174
866.60 0.1173
866.70 0.1173
866.80 0.1172
866.90 0.1172
867.00 0.1171
867.10 0.1171
867.20 0.117
867.30 0.117
867.40 0.1169
867.50 0.1169
867.60 0.1168
867.70 0.1168
867.80 0.1167
867.90 0.1167
868.00 0.1166
868.10 0.1166
868.20 0.1165
868.30 0.1165
868.40 0.1164
868.50 0.1163
868.60 0.1163
868.70 0.1162
868.80 0.1162
868.90 0.1161
869.00 0.1161
869.10 0.116
869.20 0.116
869.30 0.1159
869.40 0.1159
869.50 0.1158
869.60 0.1158
869.70 0.1157
869.80 0.1157
869.90 0.1156
870.00 0.1156
870.10 0.1155
870.20 0.1155
870.30 0.1154
870.40 0.1154
870.50 0.1153
870.60 0.1153
870.70 0.1152
870.80 0.1152
870.90 0.1151
871.00 0.115
871.10 0.115
871.20 0.1149
871.30 0.1149
871.40 0.1148
871.50 0.1148
871.60 0.1147
871.70 0.1147
871.80 0.1146
871.90 0.1146
872.00 0.1145
872.10 0.1145
872.20 0.1144
872.30 0.1144
872.40 0.1143
872.50 0.1143
872.60 0.1142
872.70 0.1142
872.80 0.1141
872.90 0.1141
873.00 0.114
873.10 0.114
873.20 0.1139
873.30 0.1139
873.40 0.1138
873.50 0.1138
873.60 0.1137
873.70 0.1137
873.80 0.1136
873.90 0.1136
874.00 0.1135
874.10 0.1135
874.20 0.1134
874.30 0.1134
874.40 0.1133
874.50 0.1133
874.60 0.1132
874.70 0.1132
874.80 0.1131
874.90 0.1131
875.00 0.113
875.10 0.113
875.20 0.1129
875.30 0.1129
875.40 0.1128
875.50 0.1128
875.60 0.1127
875.70 0.1127
875.80 0.1126
875.90 0.1125
876.00 0.1125
876.10 0.1124
876.20 0.1124
876.30 0.1123
876.40 0.1123
876.50 0.1122
876.60 0.1122
876.70 0.1121
876.80 0.1121
876.90 0.112
877.00 0.112
877.10 0.1119
877.20 0.1119
877.30 0.1118
877.40 0.1118
877.50 0.1117
877.60 0.1117
877.70 0.1116
877.80 0.1116
877.90 0.1115
878.00 0.1115
878.10 0.1115
878.20 0.1114
878.30 0.1114
878.40 0.1113
878.50 0.1113
878.60 0.1112
878.70 0.1112
878.80 0.1111
878.90 0.1111
879.00 0.111
879.10 0.111
879.20 0.1109
879.30 0.1109
879.40 0.1108
879.50 0.1108
879.60 0.1107
879.70 0.1107
879.80 0.1106
879.90 0.1106
880.00 0.1105
880.10 0.1105
880.20 0.1104
880.30 0.1104
880.40 0.1103
880.50 0.1103
880.60 0.1102
880.70 0.1102
880.80 0.1101
880.90 0.1101
881.00 0.11
881.10 0.11
881.20 0.1099
881.30 0.1099
881.40 0.1098
881.50 0.1098
881.60 0.1097
881.70 0.1097
881.80 0.1096
881.90 0.1096
882.00 0.1095
882.10 0.1095
882.20 0.1094
882.30 0.1094
882.40 0.1093
882.50 0.1093
882.60 0.1092
882.70 0.1092
882.80 0.1091
882.90 0.1091
883.00 0.1091
883.10 0.109
883.20 0.109
883.30 0.1089
883.40 0.1089
883.50 0.1088
883.60 0.1088
883.70 0.1087
883.80 0.1087
883.90 0.1086
884.00 0.1086
884.10 0.1085
884.20 0.1085
884.30 0.1084
884.40 0.1084
884.50 0.1083
884.60 0.1083
884.70 0.1082
884.80 0.1082
884.90 0.1081
885.00 0.1081
885.10 0.108
885.20 0.108
885.30 0.1079
885.40 0.1079
885.50 0.1079
885.60 0.1078
885.70 0.1078
885.80 0.1077
885.90 0.1077
886.00 0.1076
886.10 0.1076
886.20 0.1075
886.30 0.1075
886.40 0.1074
886.50 0.1074
886.60 0.1073
886.70 0.1073
886.80 0.1072
886.90 0.1072
887.00 0.1071
887.10 0.1071
887.20 0.107
887.30 0.107
887.40 0.107
887.50 0.1069
887.60 0.1069
887.70 0.1068
887.80 0.1068
887.90 0.1067
888.00 0.1067
888.10 0.1066
888.20 0.1066
888.30 0.1065
888.40 0.1065
888.50 0.1064
888.60 0.1064
888.70 0.1063
888.80 0.1063
888.90 0.1062
889.00 0.1062
889.10 0.1062
889.20 0.1061
889.30 0.1061
889.40 0.106
889.50 0.106
889.60 0.1059
889.70 0.1059
889.80 0.1058
889.90 0.1058
890.00 0.1057
890.10 0.1057
890.20 0.1056
890.30 0.1056
890.40 0.1055
890.50 0.1055
890.60 0.1055
890.70 0.1054
890.80 0.1054
890.90 0.1053
891.00 0.1053
891.10 0.1052
891.20 0.1052
891.30 0.1051
891.40 0.1051
891.50 0.105
891.60 0.105
891.70 0.1049
891.80 0.1049
891.90 0.1049
892.00 0.1048
892.10 0.1048
892.20 0.1047
892.30 0.1047
892.40 0.1046
892.50 0.1046
892.60 0.1045
892.70 0.1045
892.80 0.1044
892.90 0.1044
893.00 0.1044
893.10 0.1043
893.20 0.1043
893.30 0.1042
893.40 0.1042
893.50 0.1041
893.60 0.1041
893.70 0.104
893.80 0.104
893.90 0.1039
894.00 0.1039
894.10 0.1039
894.20 0.1038
894.30 0.1038
894.40 0.1037
894.50 0.1037
894.60 0.1036
894.70 0.1036
894.80 0.1035
894.90 0.1035
895.00 0.1034
895.10 0.1034
895.20 0.1034
895.30 0.1033
895.40 0.1033
895.50 0.1032
895.60 0.1032
895.70 0.1031
895.80 0.1031
895.90 0.103
896.00 0.103
896.10 0.1029
896.20 0.1029
896.30 0.1029
896.40 0.1028
896.50 0.1028
896.60 0.1027
896.70 0.1027
896.80 0.1026
896.90 0.1026
897.00 0.1025
897.10 0.1025
897.20 0.1025
897.30 0.1024
897.40 0.1024
897.50 0.1023
897.60 0.1023
897.70 0.1022
897.80 0.1022
897.90 0.1021
898.00 0.1021
898.10 0.1021
898.20 0.102
898.30 0.102
898.40 0.1019
898.50 0.1019
898.60 0.1018
898.70 0.1018
898.80 0.1017
898.90 0.1017
899.00 0.1017
899.10 0.1016
899.20 0.1016
899.30 0.1015
899.40 0.1015
899.50 0.1014
899.60 0.1014
899.70 0.1014
899.80 0.1013
899.90 0.1013
900.00 0.1012
900.10 0.1012
900.20 0.1011
900.30 0.1011
900.40 0.101
900.50 0.101
900.60 0.101
900.70 0.1009
900.80 0.1009
900.90 0.1008
901.00 0.1008
901.10 0.1007
901.20 0.1007
901.30 0.1007
901.40 0.1006
901.50 0.1006
901.60 0.1005
901.70 0.1005
901.80 0.1004
901.90 0.1004
902.00 0.1003
902.10 0.1003
902.20 0.1003
902.30 0.1002
902.40 0.1002
902.50 0.1001
902.60 0.1001
902.70 0.1
902.80 0.1
902.90 0.09996
903.00 0.09991
903.10 0.09987
903.20 0.09983
903.30 0.09978
903.40 0.09974
903.50 0.0997
903.60 0.09965
903.70 0.09961
903.80 0.09957
903.90 0.09952
904.00 0.09948
904.10 0.09944
904.20 0.09939
904.30 0.09935
904.40 0.09931
904.50 0.09927
904.60 0.09922
904.70 0.09918
904.80 0.09914
904.90 0.09909
905.00 0.09905
905.10 0.09901
905.20 0.09896
905.30 0.09892
905.40 0.09888
905.50 0.09883
905.60 0.09879
905.70 0.09875
905.80 0.09871
905.90 0.09866
906.00 0.09862
906.10 0.09858
906.20 0.09853
906.30 0.09849
906.40 0.09845
906.50 0.09841
906.60 0.09836
906.70 0.09832
906.80 0.09828
906.90 0.09824
907.00 0.09819
907.10 0.09815
907.20 0.09811
907.30 0.09807
907.40 0.09802
907.50 0.09798
907.60 0.09794
907.70 0.0979
907.80 0.09786
907.90 0.09781
908.00 0.09777
908.10 0.09773
908.20 0.09769
908.30 0.09765
908.40 0.0976
908.50 0.09756
908.60 0.09752
908.70 0.09748
908.80 0.09744
908.90 0.09739
909.00 0.09735
909.10 0.09731
909.20 0.09727
909.30 0.09723
909.40 0.09718
909.50 0.09714
909.60 0.0971
909.70 0.09706
909.80 0.09702
909.90 0.09698
910.00 0.09693
910.10 0.09689
910.20 0.09685
910.30 0.09681
910.40 0.09677
910.50 0.09673
910.60 0.09668
910.70 0.09664
910.80 0.0966
910.90 0.09656
911.00 0.09652
911.10 0.09648
911.20 0.09643
911.30 0.09639
911.40 0.09635
911.50 0.09631
911.60 0.09627
911.70 0.09623
911.80 0.09619
911.90 0.09614
912.00 0.0961
912.10 0.09606
912.20 0.09602
912.30 0.09598
912.40 0.09594
912.50 0.0959
912.60 0.09586
912.70 0.09582
912.80 0.09578
912.90 0.09573
913.00 0.09569
913.10 0.09565
913.20 0.09561
913.30 0.09557
913.40 0.09553
913.50 0.09549
913.60 0.09545
913.70 0.09541
913.80 0.09537
913.90 0.09533
914.00 0.09529
914.10 0.09525
914.20 0.09521
914.30 0.09516
914.40 0.09512
914.50 0.09508
914.60 0.09504
914.70 0.095
914.80 0.09496
914.90 0.09492
915.00 0.09488
915.10 0.09484
915.20 0.0948
915.30 0.09476
915.40 0.09472
915.50 0.09468
915.60 0.09464
915.70 0.0946
915.80 0.09456
915.90 0.09452
916.00 0.09448
916.10 0.09444
916.20 0.0944
916.30 0.09436
916.40 0.09432
916.50 0.09428
916.60 0.09423
916.70 0.09419
916.80 0.09415
916.90 0.09411
917.00 0.09407
917.10 0.09403
917.20 0.094
917.30 0.09396
917.40 0.09392
917.50 0.09388
917.60 0.09384
917.70 0.0938
917.80 0.09376
917.90 0.09372
918.00 0.09368
918.10 0.09364
918.20 0.0936
918.30 0.09356
918.40 0.09352
918.50 0.09348
918.60 0.09344
918.70 0.0934
918.80 0.09337
918.90 0.09333
919.00 0.09329
919.10 0.09325
919.20 0.09321
919.30 0.09317
919.40 0.09313
919.50 0.09309
919.60 0.09305
919.70 0.09301
919.80 0.09297
919.90 0.09293
920.00 0.0929
920.10 0.09286
920.20 0.09282
920.30 0.09278
920.40 0.09274
920.50 0.0927
920.60 0.09266
920.70 0.09262
920.80 0.09258
920.90 0.09254
921.00 0.0925
921.10 0.09247
921.20 0.09243
921.30 0.09239
921.40 0.09235
921.50 0.09231
921.60 0.09227
921.70 0.09223
921.80 0.09219
921.90 0.09216
922.00 0.09212
922.10 0.09208
922.20 0.09204
922.30 0.092
922.40 0.09196
922.50 0.09192
922.60 0.09188
922.70 0.09184
922.80 0.0918
922.90 0.09176
923.00 0.09173
923.10 0.09169
923.20 0.09165
923.30 0.09161
923.40 0.09157
923.50 0.09153
923.60 0.09149
923.70 0.09145
923.80 0.09141
923.90 0.09137
924.00 0.09134
924.10 0.0913
924.20 0.09126
924.30 0.09122
924.40 0.09118
924.50 0.09114
924.60 0.0911
924.70 0.09106
924.80 0.09102
924.90 0.09099
925.00 0.09095
925.10 0.09091
925.20 0.09087
925.30 0.09083
925.40 0.09079
925.50 0.09075
925.60 0.09071
925.70 0.09068
925.80 0.09064
925.90 0.0906
926.00 0.09056
926.10 0.09052
926.20 0.09048
926.30 0.09044
926.40 0.09041
926.50 0.09037
926.60 0.09033
926.70 0.09029
926.80 0.09025
926.90 0.09021
927.00 0.09018
927.10 0.09014
927.20 0.0901
927.30 0.09006
927.40 0.09002
927.50 0.08999
927.60 0.08995
927.70 0.08991
927.80 0.08987
927.90 0.08983
928.00 0.0898
928.10 0.08976
928.20 0.08972
928.30 0.08968
928.40 0.08964
928.50 0.08961
928.60 0.08957
928.70 0.08953
928.80 0.08949
928.90 0.08946
929.00 0.08942
929.10 0.08938
929.20 0.08934
929.30 0.0893
929.40 0.08927
929.50 0.08923
929.60 0.08919
929.70 0.08915
929.80 0.08912
929.90 0.08908
930.00 0.08904
930.10 0.089
930.20 0.08897
930.30 0.08893
930.40 0.08889
930.50 0.08885
930.60 0.08882
930.70 0.08878
930.80 0.08874
930.90 0.0887
931.00 0.08867
931.10 0.08863
931.20 0.08859
931.30 0.08855
931.40 0.08852
931.50 0.08848
931.60 0.08844
931.70 0.0884
931.80 0.08837
931.90 0.08833
932.00 0.08829
932.10 0.08826
932.20 0.08822
932.30 0.08818
932.40 0.08814
932.50 0.08811
932.60 0.08807
932.70 0.08803
932.80 0.088
932.90 0.08796
933.00 0.08792
933.10 0.08789
933.20 0.08785
933.30 0.08781
933.40 0.08778
933.50 0.08774
933.60 0.0877
933.70 0.08767
933.80 0.08763
933.90 0.08759
934.00 0.08756
934.10 0.08752
934.20 0.08748
934.30 0.08744
934.40 0.08741
934.50 0.08737
934.60 0.08734
934.70 0.0873
934.80 0.08726
934.90 0.08723
935.00 0.08719
935.10 0.08715
935.20 0.08712
935.30 0.08708
935.40 0.08704
935.50 0.08701
935.60 0.08697
935.70 0.08693
935.80 0.0869
935.90 0.08686
936.00 0.08682
936.10 0.08679
936.20 0.08675
936.30 0.08672
936.40 0.08668
936.50 0.08664
936.60 0.08661
936.70 0.08657
936.80 0.08653
936.90 0.0865
937.00 0.08646
937.10 0.08643
937.20 0.08639
937.30 0.08635
937.40 0.08632
937.50 0.08628
937.60 0.08625
937.70 0.08621
937.80 0.08617
937.90 0.08614
938.00 0.0861
938.10 0.08607
938.20 0.08603
938.30 0.08599
938.40 0.08596
938.50 0.08592
938.60 0.08589
938.70 0.08585
938.80 0.08581
938.90 0.08578
939.00 0.08574
939.10 0.08571
939.20 0.08567
939.30 0.08564
939.40 0.0856
939.50 0.08556
939.60 0.08553
939.70 0.08549
939.80 0.08546
939.90 0.08542
940.00 0.08539
940.10 0.08535
940.20 0.08531
940.30 0.08528
940.40 0.08524
940.50 0.08521
940.60 0.08517
940.70 0.08514
940.80 0.0851
940.90 0.08507
941.00 0.08503
941.10 0.08499
941.20 0.08496
941.30 0.08492
941.40 0.08489
941.50 0.08485
941.60 0.08482
941.70 0.08478
941.80 0.08475
941.90 0.08471
942.00 0.08468
942.10 0.08464
942.20 0.08461
942.30 0.08457
942.40 0.08454
942.50 0.0845
942.60 0.08447
942.70 0.08443
942.80 0.08439
942.90 0.08436
943.00 0.08432
943.10 0.08429
943.20 0.08425
943.30 0.08422
943.40 0.08418
943.50 0.08415
943.60 0.08411
943.70 0.08408
943.80 0.08404
943.90 0.08401
944.00 0.08397
944.10 0.08394
944.20 0.0839
944.30 0.08387
944.40 0.08384
944.50 0.0838
944.60 0.08377
944.70 0.08373
944.80 0.0837
944.90 0.08366
945.00 0.08363
945.10 0.08359
945.20 0.08356
945.30 0.08352
945.40 0.08349
945.50 0.08345
945.60 0.08342
945.70 0.08338
945.80 0.08335
945.90 0.08332
946.00 0.08328
946.10 0.08325
946.20 0.08321
946.30 0.08318
946.40 0.08314
946.50 0.08311
946.60 0.08307
946.70 0.08304
946.80 0.083
946.90 0.08297
947.00 0.08294
947.10 0.0829
947.20 0.08287
947.30 0.08283
947.40 0.0828
947.50 0.08277
947.60 0.08273
947.70 0.0827
947.80 0.08266
947.90 0.08263
948.00 0.0826
948.10 0.08256
948.20 0.08253
948.30 0.08249
948.40 0.08246
948.50 0.08243
948.60 0.08239
948.70 0.08236
948.80 0.08232
948.90 0.08229
949.00 0.08226
949.10 0.08222
949.20 0.08219
949.30 0.08215
949.40 0.08212
949.50 0.08209
949.60 0.08205
949.70 0.08202
949.80 0.08199
949.90 0.08195
950.00 0.08192
950.10 0.08189
950.20 0.08185
950.30 0.08182
950.40 0.08179
950.50 0.08175
950.60 0.08172
950.70 0.08169
950.80 0.08165
950.90 0.08162
951.00 0.08159
951.10 0.08155
951.20 0.08152
951.30 0.08149
951.40 0.08146
951.50 0.08142
951.60 0.08139
951.70 0.08136
951.80 0.08132
951.90 0.08129
952.00 0.08126
952.10 0.08123
952.20 0.08119
952.30 0.08116
952.40 0.08113
952.50 0.0811
952.60 0.08107
952.70 0.08103
952.80 0.081
952.90 0.08097
953.00 0.08094
953.10 0.0809
953.20 0.08087
953.30 0.08084
953.40 0.08081
953.50 0.08078
953.60 0.08075
953.70 0.08071
953.80 0.08068
953.90 0.08065
954.00 0.08062
954.10 0.08059
954.20 0.08056
954.30 0.08053
954.40 0.0805
954.50 0.08046
954.60 0.08043
954.70 0.0804
954.80 0.08036
954.90 0.08033
955.00 0.08029
955.10 0.08026
955.20 0.08023
955.30 0.08019
955.40 0.08016
955.50 0.08012
955.60 0.08009
955.70 0.08005
955.80 0.08002
955.90 0.07999
956.00 0.07995
956.10 0.07992
956.20 0.07988
956.30 0.07985
956.40 0.07982
956.50 0.07978
956.60 0.07975
956.70 0.07972
956.80 0.07968
956.90 0.07965
957.00 0.07962
957.10 0.07958
957.20 0.07955
957.30 0.07952
957.40 0.07948
957.50 0.07945
957.60 0.07942
957.70 0.07939
957.80 0.07935
957.90 0.07932
958.00 0.07929
958.10 0.07925
958.20 0.07922
958.30 0.07919
958.40 0.07916
958.50 0.07912
958.60 0.07909
958.70 0.07906
958.80 0.07903
958.90 0.07899
959.00 0.07896
959.10 0.07893
959.20 0.0789
959.30 0.07886
959.40 0.07883
959.50 0.0788
959.60 0.07877
959.70 0.07873
959.80 0.0787
959.90 0.07867
960.00 0.07864
960.10 0.07861
960.20 0.07857
960.30 0.07854
960.40 0.07851
960.50 0.07848
960.60 0.07845
960.70 0.07841
960.80 0.07838
960.90 0.07835
961.00 0.07832
961.10 0.07829
961.20 0.07825
961.30 0.07822
961.40 0.07819
961.50 0.07816
961.60 0.07813
961.70 0.0781
961.80 0.07806
961.90 0.07803
962.00 0.078
962.10 0.07797
962.20 0.07794
962.30 0.07791
962.40 0.07788
962.50 0.07784
962.60 0.07781
962.70 0.07778
962.80 0.07775
962.90 0.07772
963.00 0.07769
963.10 0.07766
963.20 0.07762
963.30 0.07759
963.40 0.07756
963.50 0.07753
963.60 0.0775
963.70 0.07747
963.80 0.07744
963.90 0.0774
964.00 0.07737
964.10 0.07734
964.20 0.07731
964.30 0.07728
964.40 0.07725
964.50 0.07722
964.60 0.07719
964.70 0.07716
964.80 0.07712
964.90 0.07709
965.00 0.07706
965.10 0.07703
965.20 0.077
965.30 0.07697
965.40 0.07694
965.50 0.07691
965.60 0.07688
965.70 0.07685
965.80 0.07681
965.90 0.07678
966.00 0.07675
966.10 0.07672
966.20 0.07669
966.30 0.07666
966.40 0.07663
966.50 0.0766
966.60 0.07657
966.70 0.07654
966.80 0.07651
966.90 0.07648
967.00 0.07644
967.10 0.07641
967.20 0.07638
967.30 0.07635
967.40 0.07632
967.50 0.07629
967.60 0.07626
967.70 0.07623
967.80 0.0762
967.90 0.07617
968.00 0.07614
968.10 0.07611
968.20 0.07608
968.30 0.07605
968.40 0.07602
968.50 0.07599
968.60 0.07596
968.70 0.07592
968.80 0.07589
968.90 0.07586
969.00 0.07583
969.10 0.0758
969.20 0.07577
969.30 0.07574
969.40 0.07571
969.50 0.07568
969.60 0.07565
969.70 0.07562
969.80 0.07559
969.90 0.07556
970.00 0.07553
970.10 0.0755
970.20 0.07547
970.30 0.07544
970.40 0.07541
970.50 0.07538
970.60 0.07535
970.70 0.07532
970.80 0.07529
970.90 0.07526
971.00 0.07523
971.10 0.0752
971.20 0.07517
971.30 0.07514
971.40 0.07511
971.50 0.07508
971.60 0.07505
971.70 0.07502
971.80 0.07499
971.90 0.07496
972.00 0.07493
972.10 0.0749
972.20 0.07487
972.30 0.07484
972.40 0.07481
972.50 0.07478
972.60 0.07475
972.70 0.07472
972.80 0.07469
972.90 0.07466
973.00 0.07463
973.10 0.0746
973.20 0.07457
973.30 0.07454
973.40 0.07451
973.50 0.07448
973.60 0.07445
973.70 0.07442
973.80 0.07439
973.90 0.07436
974.00 0.07433
974.10 0.0743
974.20 0.07427
974.30 0.07424
974.40 0.07421
974.50 0.07418
974.60 0.07415
974.70 0.07412
974.80 0.07409
974.90 0.07406
975.00 0.07403
975.10 0.074
975.20 0.07397
975.30 0.07394
975.40 0.07391
975.50 0.07388
975.60 0.07385
975.70 0.07382
975.80 0.07379
975.90 0.07376
976.00 0.07373
976.10 0.0737
976.20 0.07367
976.30 0.07365
976.40 0.07362
976.50 0.07359
976.60 0.07356
976.70 0.07353
976.80 0.0735
976.90 0.07347
977.00 0.07344
977.10 0.07341
977.20 0.07338
977.30 0.07335
977.40 0.07332
977.50 0.07329
977.60 0.07326
977.70 0.07323
977.80 0.0732
977.90 0.07317
978.00 0.07315
978.10 0.07312
978.20 0.07309
978.30 0.07306
978.40 0.07303
978.50 0.073
978.60 0.07297
978.70 0.07294
978.80 0.07291
978.90 0.07288
979.00 0.07285
979.10 0.07282
979.20 0.07279
979.30 0.07277
979.40 0.07274
979.50 0.07271
979.60 0.07268
979.70 0.07265
979.80 0.07262
979.90 0.07259
980.00 0.07256
980.10 0.07253
980.20 0.0725
980.30 0.07247
980.40 0.07245
980.50 0.07242
980.60 0.07239
980.70 0.07236
980.80 0.07233
980.90 0.0723
981.00 0.07227
981.10 0.07224
981.20 0.07221
981.30 0.07218
981.40 0.07216
981.50 0.07213
981.60 0.0721
981.70 0.07207
981.80 0.07204
981.90 0.07201
982.00 0.07198
982.10 0.07195
982.20 0.07192
982.30 0.0719
982.40 0.07187
982.50 0.07184
982.60 0.07181
982.70 0.07178
982.80 0.07175
982.90 0.07172
983.00 0.07169
983.10 0.07167
983.20 0.07164
983.30 0.07161
983.40 0.07158
983.50 0.07155
983.60 0.07152
983.70 0.07149
983.80 0.07146
983.90 0.07144
984.00 0.07141
984.10 0.07138
984.20 0.07135
984.30 0.07132
984.40 0.07129
984.50 0.07126
984.60 0.07124
984.70 0.07121
984.80 0.07118
984.90 0.07115
985.00 0.07112
985.10 0.07109
985.20 0.07106
985.30 0.07104
985.40 0.07101
985.50 0.07098
985.60 0.07095
985.70 0.07092
985.80 0.07089
985.90 0.07086
986.00 0.07084
986.10 0.07081
986.20 0.07078
986.30 0.07075
986.40 0.07072
986.50 0.07069
986.60 0.07067
986.70 0.07064
986.80 0.07061
986.90 0.07058
987.00 0.07055
987.10 0.07052
987.20 0.0705
987.30 0.07047
987.40 0.07044
987.50 0.07041
987.60 0.07038
987.70 0.07035
987.80 0.07033
987.90 0.0703
988.00 0.07027
988.10 0.07024
988.20 0.07021
988.30 0.07019
988.40 0.07016
988.50 0.07013
988.60 0.0701
988.70 0.07007
988.80 0.07004
988.90 0.07002
989.00 0.06999
989.10 0.06996
989.20 0.06993
989.30 0.0699
989.40 0.06988
989.50 0.06985
989.60 0.06982
989.70 0.06979
989.80 0.06976
989.90 0.06974
990.00 0.06971
990.10 0.06968
990.20 0.06965
990.30 0.06962
990.40 0.06959
990.50 0.06957
990.60 0.06954
990.70 0.06951
990.80 0.06948
990.90 0.06945
991.00 0.06943
991.10 0.0694
991.20 0.06937
991.30 0.06934
991.40 0.06932
991.50 0.06929
991.60 0.06926
991.70 0.06923
991.80 0.0692
991.90 0.06918
992.00 0.06915
992.10 0.06912
992.20 0.06909
992.30 0.06906
992.40 0.06904
992.50 0.06901
992.60 0.06898
992.70 0.06895
992.80 0.06893
992.90 0.0689
993.00 0.06887
993.10 0.06884
993.20 0.06881
993.30 0.06879
993.40 0.06876
993.50 0.06873
993.60 0.0687
993.70 0.06868
993.80 0.06865
993.90 0.06862
994.00 0.06859
994.10 0.06857
994.20 0.06854
994.30 0.06851
994.40 0.06848
994.50 0.06845
994.60 0.06843
994.70 0.0684
994.80 0.06837
994.90 0.06834
995.00 0.06832
995.10 0.06829
995.20 0.06826
995.30 0.06823
995.40 0.06821
995.50 0.06818
995.60 0.06815
995.70 0.06812
995.80 0.0681
995.90 0.06807
996.00 0.06804
996.10 0.06802
996.20 0.06799
996.30 0.06796
996.40 0.06793
996.50 0.06791
996.60 0.06788
996.70 0.06785
996.80 0.06782
996.90 0.0678
997.00 0.06777
997.10 0.06774
997.20 0.06772
997.30 0.06769
997.40 0.06766
997.50 0.06763
997.60 0.06761
997.70 0.06758
997.80 0.06755
997.90 0.06753
998.00 0.0675
998.10 0.06747
998.20 0.06745
998.30 0.06742
998.40 0.06739
998.50 0.06736
998.60 0.06734
998.70 0.06731
998.80 0.06728
998.90 0.06726
999.00 0.06723
999.10 0.0672
999.20 0.06718
999.30 0.06715
999.40 0.06712
999.50 0.0671
999.60 0.06707
999.70 0.06704
999.80 0.06702
999.90 0.06699
1000.00 0.06696
1000.10 0.06694
1000.20 0.06691
1000.30 0.06688
1000.40 0.06685
1000.50 0.06683
1000.60 0.0668
1000.70 0.06677
1000.80 0.06675
1000.90 0.06672
1001.00 0.06669
1001.10 0.06667
1001.20 0.06664
1001.30 0.06661
1001.40 0.06659
1001.50 0.06656
1001.60 0.06653
1001.70 0.06651
1001.80 0.06648
1001.90 0.06646
1002.00 0.06643
1002.10 0.06641
1002.20 0.06638
1002.30 0.06636
1002.40 0.06634
1002.50 0.06631
1002.60 0.06629
1002.70 0.06626
1002.80 0.06624
1002.90 0.06622
1003.00 0.06619
1003.10 0.06617
1003.20 0.06615
1003.30 0.06613
1003.40 0.0661
1003.50 0.06608
1003.60 0.06606
1003.70 0.06604
1003.80 0.06602
1003.90 0.06599
1004.00 0.06597
1004.10 0.06595
1004.20 0.06593
1004.30 0.06591
1004.40 0.06589
1004.50 0.06587
1004.60 0.06584
1004.70 0.06582
1004.80 0.06579
1004.90 0.06576
1005.00 0.06574
1005.10 0.06571
1005.20 0.06569
1005.30 0.06566
1005.40 0.06563
1005.50 0.06561
1005.60 0.06558
1005.70 0.06555
1005.80 0.06552
1005.90 0.06549
1006.00 0.06546
1006.10 0.06543
1006.20 0.0654
1006.30 0.06537
1006.40 0.06534
1006.50 0.06531
1006.60 0.06528
1006.70 0.06525
1006.80 0.06523
1006.90 0.0652
1007.00 0.06517
1007.10 0.06514
1007.20 0.06511
1007.30 0.06509
1007.40 0.06506
1007.50 0.06503
1007.60 0.06501
1007.70 0.06498
1007.80 0.06495
1007.90 0.06493
1008.00 0.0649
1008.10 0.06488
1008.20 0.06485
1008.30 0.06483
1008.40 0.0648
1008.50 0.06477
1008.60 0.06475
1008.70 0.06472
1008.80 0.0647
1008.90 0.06467
1009.00 0.06465
1009.10 0.06462
1009.20 0.06459
1009.30 0.06457
1009.40 0.06454
1009.50 0.06452
1009.60 0.06449
1009.70 0.06447
1009.80 0.06444
1009.90 0.06442
1010.00 0.06439
1010.10 0.06437
1010.20 0.06434
1010.30 0.06432
1010.40 0.06429
1010.50 0.06427
1010.60 0.06425
1010.70 0.06422
1010.80 0.0642
1010.90 0.06417
1011.00 0.06415
1011.10 0.06412
1011.20 0.0641
1011.30 0.06407
1011.40 0.06405
1011.50 0.06402
1011.60 0.064
1011.70 0.06398
1011.80 0.06395
1011.90 0.06393
1012.00 0.0639
1012.10 0.06388
1012.20 0.06386
1012.30 0.06383
1012.40 0.06381
1012.50 0.06378
1012.60 0.06376
1012.70 0.06374
1012.80 0.06371
1012.90 0.06369
1013.00 0.06366
1013.10 0.06364
1013.20 0.06362
1013.30 0.06359
1013.40 0.06357
1013.50 0.06354
1013.60 0.06352
1013.70 0.0635
1013.80 0.06347
1013.90 0.06345
1014.00 0.06342
1014.10 0.0634
1014.20 0.06338
1014.30 0.06335
1014.40 0.06333
1014.50 0.0633
1014.60 0.06328
1014.70 0.06326
1014.80 0.06323
1014.90 0.06321
1015.00 0.06319
1015.10 0.06316
1015.20 0.06314
1015.30 0.06311
1015.40 0.06309
1015.50 0.06307
1015.60 0.06304
1015.70 0.06302
1015.80 0.063
1015.90 0.06297
1016.00 0.06295
1016.10 0.06292
1016.20 0.0629
1016.30 0.06288
1016.40 0.06285
1016.50 0.06283
1016.60 0.06281
1016.70 0.06278
1016.80 0.06276
1016.90 0.06274
1017.00 0.06271
1017.10 0.06269
1017.20 0.06267
1017.30 0.06264
1017.40 0.06262
1017.50 0.06259
1017.60 0.06257
1017.70 0.06255
1017.80 0.06252
1017.90 0.0625
1018.00 0.06248
1018.10 0.06245
1018.20 0.06243
1018.30 0.06241
1018.40 0.06238
1018.50 0.06236
1018.60 0.06234
1018.70 0.06231
1018.80 0.06229
1018.90 0.06227
1019.00 0.06224
1019.10 0.06222
1019.20 0.0622
1019.30 0.06217
1019.40 0.06215
1019.50 0.06212
1019.60 0.0621
1019.70 0.06208
1019.80 0.06205
1019.90 0.06203
1020.00 0.06201
1020.10 0.06198
1020.20 0.06196
1020.30 0.06194
1020.40 0.06191
1020.50 0.06189
1020.60 0.06187
1020.70 0.06184
1020.80 0.06182
1020.90 0.0618
1021.00 0.06177
1021.10 0.06175
1021.20 0.06173
1021.30 0.0617
1021.40 0.06168
1021.50 0.06166
1021.60 0.06164
1021.70 0.06161
1021.80 0.06159
1021.90 0.06157
1022.00 0.06154
1022.10 0.06152
1022.20 0.0615
1022.30 0.06147
1022.40 0.06145
1022.50 0.06143
1022.60 0.0614
1022.70 0.06138
1022.80 0.06136
1022.90 0.06133
1023.00 0.06131
1023.10 0.06129
1023.20 0.06126
1023.30 0.06124
1023.40 0.06122
1023.50 0.06119
1023.60 0.06117
1023.70 0.06115
1023.80 0.06113
1023.90 0.0611
1024.00 0.06108
1024.10 0.06106
1024.20 0.06103
1024.30 0.06101
1024.40 0.06099
1024.50 0.06096
1024.60 0.06094
1024.70 0.06092
1024.80 0.06089
1024.90 0.06087
1025.00 0.06085
1025.10 0.06083
1025.20 0.0608
1025.30 0.06078
1025.40 0.06076
1025.50 0.06073
1025.60 0.06071
1025.70 0.06069
1025.80 0.06067
1025.90 0.06064
1026.00 0.06062
1026.10 0.0606
1026.20 0.06057
1026.30 0.06055
1026.40 0.06053
1026.50 0.06051
1026.60 0.06048
1026.70 0.06046
1026.80 0.06044
1026.90 0.06041
1027.00 0.06039
1027.10 0.06037
1027.20 0.06035
1027.30 0.06032
1027.40 0.0603
1027.50 0.06028
1027.60 0.06025
1027.70 0.06023
1027.80 0.06021
1027.90 0.06019
1028.00 0.06016
1028.10 0.06014
1028.20 0.06012
1028.30 0.0601
1028.40 0.06007
1028.50 0.06005
1028.60 0.06003
1028.70 0.06
1028.80 0.05998
1028.90 0.05996
1029.00 0.05994
1029.10 0.05991
1029.20 0.05989
1029.30 0.05987
1029.40 0.05985
1029.50 0.05982
1029.60 0.0598
1029.70 0.05978
1029.80 0.05976
1029.90 0.05973
1030.00 0.05971
1030.10 0.05969
1030.20 0.05967
1030.30 0.05964
1030.40 0.05962
1030.50 0.0596
1030.60 0.05958
1030.70 0.05955
1030.80 0.05953
1030.90 0.05951
1031.00 0.05949
1031.10 0.05946
1031.20 0.05944
1031.30 0.05942
1031.40 0.0594
1031.50 0.05937
1031.60 0.05935
1031.70 0.05933
1031.80 0.05931
1031.90 0.05928
1032.00 0.05926
1032.10 0.05924
1032.20 0.05922
1032.30 0.05919
1032.40 0.05917
1032.50 0.05915
1032.60 0.05913
1032.70 0.05911
1032.80 0.05908
1032.90 0.05906
1033.00 0.05904
1033.10 0.05902
1033.20 0.05899
1033.30 0.05897
1033.40 0.05895
1033.50 0.05893
1033.60 0.05891
1033.70 0.05888
1033.80 0.05886
1033.90 0.05884
1034.00 0.05882
1034.10 0.05879
1034.20 0.05877
1034.30 0.05875
1034.40 0.05873
1034.50 0.05871
1034.60 0.05868
1034.70 0.05866
1034.80 0.05864
1034.90 0.05862
1035.00 0.0586
1035.10 0.05857
1035.20 0.05855
1035.30 0.05853
1035.40 0.05851
1035.50 0.05849
1035.60 0.05846
1035.70 0.05844
1035.80 0.05842
1035.90 0.0584
1036.00 0.05837
1036.10 0.05835
1036.20 0.05833
1036.30 0.05831
1036.40 0.05829
1036.50 0.05826
1036.60 0.05824
1036.70 0.05822
1036.80 0.0582
1036.90 0.05818
1037.00 0.05816
1037.10 0.05813
1037.20 0.05811
1037.30 0.05809
1037.40 0.05807
1037.50 0.05805
1037.60 0.05802
1037.70 0.058
1037.80 0.05798
1037.90 0.05796
1038.00 0.05794
1038.10 0.05792
1038.20 0.05789
1038.30 0.05787
1038.40 0.05785
1038.50 0.05783
1038.60 0.05781
1038.70 0.05779
1038.80 0.05776
1038.90 0.05774
1039.00 0.05772
1039.10 0.0577
1039.20 0.05768
1039.30 0.05765
1039.40 0.05763
1039.50 0.05761
1039.60 0.05759
1039.70 0.05757
1039.80 0.05755
1039.90 0.05753
1040.00 0.0575
1040.10 0.05748
1040.20 0.05746
1040.30 0.05744
1040.40 0.05742
1040.50 0.0574
1040.60 0.05737
1040.70 0.05735
1040.80 0.05733
1040.90 0.05731
1041.00 0.05729
1041.10 0.05727
1041.20 0.05724
1041.30 0.05722
1041.40 0.0572
1041.50 0.05718
1041.60 0.05716
1041.70 0.05714
1041.80 0.05712
1041.90 0.05709
1042.00 0.05707
1042.10 0.05705
1042.20 0.05703
1042.30 0.05701
1042.40 0.05699
1042.50 0.05697
1042.60 0.05694
1042.70 0.05692
1042.80 0.0569
1042.90 0.05688
1043.00 0.05686
1043.10 0.05684
1043.20 0.05682
1043.30 0.0568
1043.40 0.05677
1043.50 0.05675
1043.60 0.05673
1043.70 0.05671
1043.80 0.05669
1043.90 0.05667
1044.00 0.05665
1044.10 0.05663
1044.20 0.0566
1044.30 0.05658
1044.40 0.05656
1044.50 0.05654
1044.60 0.05652
1044.70 0.0565
1044.80 0.05648
1044.90 0.05646
1045.00 0.05644
1045.10 0.05641
1045.20 0.05639
1045.30 0.05637
1045.40 0.05635
1045.50 0.05633
1045.60 0.05631
1045.70 0.05629
1045.80 0.05627
1045.90 0.05625
1046.00 0.05622
1046.10 0.0562
1046.20 0.05618
1046.30 0.05616
1046.40 0.05614
1046.50 0.05612
1046.60 0.0561
1046.70 0.05608
1046.80 0.05606
1046.90 0.05603
1047.00 0.05601
1047.10 0.05599
1047.20 0.05597
1047.30 0.05595
1047.40 0.05593
1047.50 0.05591
1047.60 0.05589
1047.70 0.05587
1047.80 0.05585
1047.90 0.05583
1048.00 0.05581
1048.10 0.05578
1048.20 0.05576
1048.30 0.05574
1048.40 0.05572
1048.50 0.0557
1048.60 0.05568
1048.70 0.05566
1048.80 0.05564
1048.90 0.05562
1049.00 0.0556
1049.10 0.05558
1049.20 0.05556
1049.30 0.05554
1049.40 0.05551
1049.50 0.05549
1049.60 0.05547
1049.70 0.05545
1049.80 0.05543
1049.90 0.05541
1050.00 0.05539
1050.10 0.05537
1050.20 0.05535
1050.30 0.05533
1050.40 0.05531
1050.50 0.05529
1050.60 0.05527
1050.70 0.05525
1050.80 0.05522
1050.90 0.0552
1051.00 0.05518
1051.10 0.05516
1051.20 0.05514
1051.30 0.05512
1051.40 0.0551
1051.50 0.05508
1051.60 0.05506
1051.70 0.05504
1051.80 0.05502
1051.90 0.055
1052.00 0.05498
1052.10 0.05496
1052.20 0.05494
1052.30 0.05492
1052.40 0.0549
1052.50 0.05488
1052.60 0.05486
1052.70 0.05483
1052.80 0.05481
1052.90 0.05479
1053.00 0.05477
1053.10 0.05475
1053.20 0.05473
1053.30 0.05471
1053.40 0.05469
1053.50 0.05467
1053.60 0.05465
1053.70 0.05463
1053.80 0.05461
1053.90 0.05459
1054.00 0.05457
1054.10 0.05455
1054.20 0.05453
1054.30 0.05451
1054.40 0.05449
1054.50 0.05447
1054.60 0.05445
1054.70 0.05443
1054.80 0.05441
1054.90 0.05439
1055.00 0.05437
1055.10 0.05435
1055.20 0.05433
1055.30 0.05431
1055.40 0.05429
1055.50 0.05427
1055.60 0.05425
1055.70 0.05423
1055.80 0.05421
1055.90 0.05419
1056.00 0.05417
1056.10 0.05415
1056.20 0.05413
1056.30 0.05411
1056.40 0.05409
1056.50 0.05406
1056.60 0.05404
1056.70 0.05402
1056.80 0.054
1056.90 0.05398
1057.00 0.05396
1057.10 0.05394
1057.20 0.05392
1057.30 0.0539
1057.40 0.05388
1057.50 0.05386
1057.60 0.05384
1057.70 0.05382
1057.80 0.0538
1057.90 0.05378
1058.00 0.05376
1058.10 0.05374
1058.20 0.05372
1058.30 0.05371
1058.40 0.05369
1058.50 0.05367
1058.60 0.05365
1058.70 0.05363
1058.80 0.05361
1058.90 0.05359
1059.00 0.05357
1059.10 0.05355
1059.20 0.05353
1059.30 0.05351
1059.40 0.05349
1059.50 0.05347
1059.60 0.05345
1059.70 0.05343
1059.80 0.05341
1059.90 0.05339
1060.00 0.05337
1060.10 0.05335
1060.20 0.05333
1060.30 0.05331
1060.40 0.05329
1060.50 0.05327
1060.60 0.05325
1060.70 0.05323
1060.80 0.05321
1060.90 0.05319
1061.00 0.05317
1061.10 0.05315
1061.20 0.05313
1061.30 0.05311
1061.40 0.05309
1061.50 0.05307
1061.60 0.05305
1061.70 0.05303
1061.80 0.05301
1061.90 0.05299
1062.00 0.05297
1062.10 0.05295
1062.20 0.05293
1062.30 0.05291
1062.40 0.05289
1062.50 0.05288
1062.60 0.05286
1062.70 0.05284
1062.80 0.05282
1062.90 0.0528
1063.00 0.05278
1063.10 0.05276
1063.20 0.05274
1063.30 0.05272
1063.40 0.0527
1063.50 0.05268
1063.60 0.05266
1063.70 0.05264
1063.80 0.05262
1063.90 0.0526
1064.00 0.05258
1064.10 0.05256
1064.20 0.05254
1064.30 0.05252
1064.40 0.0525
1064.50 0.05249
1064.60 0.05247
1064.70 0.05245
1064.80 0.05243
1064.90 0.05241
1065.00 0.05239
1065.10 0.05237
1065.20 0.05235
1065.30 0.05233
1065.40 0.05231
1065.50 0.05229
1065.60 0.05227
1065.70 0.05225
1065.80 0.05223
1065.90 0.05221
1066.00 0.05219
1066.10 0.05218
1066.20 0.05216
1066.30 0.05214
1066.40 0.05212
1066.50 0.0521
1066.60 0.05208
1066.70 0.05206
1066.80 0.05204
1066.90 0.05202
1067.00 0.052
1067.10 0.05198
1067.20 0.05196
1067.30 0.05194
1067.40 0.05192
1067.50 0.05191
1067.60 0.05189
1067.70 0.05187
1067.80 0.05185
1067.90 0.05183
1068.00 0.05181
1068.10 0.05179
1068.20 0.05177
1068.30 0.05175
1068.40 0.05173
1068.50 0.05171
1068.60 0.05169
1068.70 0.05168
1068.80 0.05166
1068.90 0.05164
1069.00 0.05162
1069.10 0.0516
1069.20 0.05158
1069.30 0.05156
1069.40 0.05154
1069.50 0.05152
1069.60 0.0515
1069.70 0.05148
1069.80 0.05147
1069.90 0.05145
1070.00 0.05143
1070.10 0.05141
1070.20 0.05139
1070.30 0.05137
1070.40 0.05135
1070.50 0.05133
1070.60 0.05131
1070.70 0.05129
1070.80 0.05128
1070.90 0.05126
1071.00 0.05124
1071.10 0.05122
1071.20 0.0512
1071.30 0.05118
1071.40 0.05116
1071.50 0.05114
1071.60 0.05112
1071.70 0.0511
1071.80 0.05109
1071.90 0.05107
1072.00 0.05105
1072.10 0.05103
1072.20 0.05101
1072.30 0.05099
1072.40 0.05097
1072.50 0.05095
1072.60 0.05093
1072.70 0.05092
1072.80 0.0509
1072.90 0.05088
1073.00 0.05086
1073.10 0.05084
1073.20 0.05082
1073.30 0.0508
1073.40 0.05078
1073.50 0.05076
1073.60 0.05075
1073.70 0.05073
1073.80 0.05071
1073.90 0.05069
1074.00 0.05067
1074.10 0.05065
1074.20 0.05063
1074.30 0.05061
1074.40 0.05059
1074.50 0.05058
1074.60 0.05056
1074.70 0.05054
1074.80 0.05052
1074.90 0.0505
1075.00 0.05048
1075.10 0.05046
1075.20 0.05044
1075.30 0.05043
1075.40 0.05041
1075.50 0.05039
1075.60 0.05037
1075.70 0.05035
1075.80 0.05033
1075.90 0.05031
1076.00 0.05029
1076.10 0.05028
1076.20 0.05026
1076.30 0.05024
1076.40 0.05022
1076.50 0.0502
1076.60 0.05018
1076.70 0.05016
1076.80 0.05014
1076.90 0.05013
1077.00 0.05011
1077.10 0.05009
1077.20 0.05007
1077.30 0.05005
1077.40 0.05003
1077.50 0.05001
1077.60 0.04999
1077.70 0.04998
1077.80 0.04996
1077.90 0.04994
1078.00 0.04992
1078.10 0.0499
1078.20 0.04988
1078.30 0.04986
1078.40 0.04985
1078.50 0.04983
1078.60 0.04981
1078.70 0.04979
1078.80 0.04977
1078.90 0.04975
1079.00 0.04973
1079.10 0.04971
1079.20 0.0497
1079.30 0.04968
1079.40 0.04966
1079.50 0.04964
1079.60 0.04962
1079.70 0.0496
1079.80 0.04958
1079.90 0.04957
1080.00 0.04955
1080.10 0.04953
1080.20 0.04951
1080.30 0.04949
1080.40 0.04947
1080.50 0.04945
1080.60 0.04943
1080.70 0.04942
1080.80 0.0494
1080.90 0.04938
1081.00 0.04936
1081.10 0.04934
1081.20 0.04932
1081.30 0.0493
1081.40 0.04929
1081.50 0.04927
1081.60 0.04925
1081.70 0.04923
1081.80 0.04921
1081.90 0.04919
1082.00 0.04917
1082.10 0.04916
1082.20 0.04914
1082.30 0.04912
1082.40 0.0491
1082.50 0.04908
1082.60 0.04906
1082.70 0.04904
1082.80 0.04902
1082.90 0.04901
1083.00 0.04899
1083.10 0.04897
1083.20 0.04895
1083.30 0.04893
1083.40 0.04891
1083.50 0.04889
1083.60 0.04888
1083.70 0.04886
1083.80 0.04884
1083.90 0.04882
1084.00 0.0488
1084.10 0.04878
1084.20 0.04876
1084.30 0.04875
1084.40 0.04873
1084.50 0.04871
1084.60 0.04869
1084.70 0.04867
1084.80 0.04865
1084.90 0.04863
1085.00 0.04862
1085.10 0.0486
1085.20 0.04858
1085.30 0.04856
1085.40 0.04854
1085.50 0.04852
1085.60 0.04851
1085.70 0.04849
1085.80 0.04847
1085.90 0.04845
1086.00 0.04843
1086.10 0.04841
1086.20 0.04839
1086.30 0.04838
1086.40 0.04836
1086.50 0.04834
1086.60 0.04832
1086.70 0.0483
1086.80 0.04828
1086.90 0.04827
1087.00 0.04825
1087.10 0.04823
1087.20 0.04821
1087.30 0.04819
1087.40 0.04818
1087.50 0.04816
1087.60 0.04814
1087.70 0.04812
1087.80 0.0481
1087.90 0.04809
1088.00 0.04807
1088.10 0.04805
1088.20 0.04803
1088.30 0.04801
1088.40 0.04799
1088.50 0.04798
1088.60 0.04796
1088.70 0.04794
1088.80 0.04793
1088.90 0.04791
1089.00 0.04789
1089.10 0.04788
1089.20 0.04786
1089.30 0.04784
1089.40 0.04782
1089.50 0.04781
1089.60 0.04779
1089.70 0.04777
1089.80 0.04776
1089.90 0.04774
1090.00 0.04772
1090.10 0.04771
1090.20 0.04769
1090.30 0.04767
1090.40 0.04765
1090.50 0.04764
1090.60 0.04762
1090.70 0.04761
1090.80 0.04759
1090.90 0.04758
1091.00 0.04756
1091.10 0.04755
1091.20 0.04754
1091.30 0.04752
1091.40 0.04751
1091.50 0.04749
1091.60 0.04748
1091.70 0.04746
1091.80 0.04745
1091.90 0.04743
1092.00 0.04742
1092.10 0.04741
1092.20 0.04739
1092.30 0.04738
1092.40 0.04737
1092.50 0.04736
1092.60 0.04734
1092.70 0.04733
1092.80 0.04732
1092.90 0.04731
1093.00 0.0473
1093.10 0.04729
1093.20 0.04729
1093.30 0.04728
1093.40 0.04728
1093.50 0.04728
1093.60 0.04729
1093.70 0.0473
1093.80 0.04729
1093.90 0.04727
1094.00 0.04723
1094.10 0.04719
1094.20 0.04715
1094.30 0.04711
1094.40 0.04709
1094.50 0.04706
1094.60 0.04704
1094.70 0.04701
1094.80 0.04699
1094.90 0.04696
1095.00 0.04694
1095.10 0.04692
1095.20 0.0469
1095.30 0.04688
1095.40 0.04686
1095.50 0.04684
1095.60 0.04682
1095.70 0.0468
1095.80 0.04678
1095.90 0.04676
1096.00 0.04674
1096.10 0.04672
1096.20 0.0467
1096.30 0.04668
1096.40 0.04666
1096.50 0.04664
1096.60 0.04662
1096.70 0.0466
1096.80 0.04658
1096.90 0.04657
1097.00 0.04655
1097.10 0.04653
1097.20 0.04651
1097.30 0.0465
1097.40 0.04648
1097.50 0.04646
1097.60 0.04645
1097.70 0.04643
1097.80 0.04641
1097.90 0.04639
1098.00 0.04638
1098.10 0.04636
1098.20 0.04634
1098.30 0.04633
1098.40 0.04631
1098.50 0.04629
1098.60 0.04628
1098.70 0.04626
1098.80 0.04624
1098.90 0.04623
1099.00 0.04621
1099.10 0.0462
1099.20 0.04618
1099.30 0.04617
1099.40 0.04615
1099.50 0.04613
1099.60 0.04612
1099.70 0.0461
1099.80 0.04609
1099.90 0.04607
1100.00 0.04605
1100.10 0.04604
1100.20 0.04602
1100.30 0.04601
1100.40 0.04599
1100.50 0.04598
1100.60 0.04596
1100.70 0.04595
1100.80 0.04593
1100.90 0.04591
1101.00 0.0459
1101.10 0.04588
1101.20 0.04587
1101.30 0.04585
1101.40 0.04584
1101.50 0.04582
1101.60 0.04581
1101.70 0.04579
1101.80 0.04578
1101.90 0.04576
1102.00 0.04575
1102.10 0.04573
1102.20 0.04571
1102.30 0.0457
1102.40 0.04568
1102.50 0.04567
1102.60 0.04565
1102.70 0.04564
1102.80 0.04562
1102.90 0.04561
1103.00 0.04559
1103.10 0.04558
1103.20 0.04556
1103.30 0.04555
1103.40 0.04553
1103.50 0.04552
1103.60 0.0455
1103.70 0.04549
1103.80 0.04547
1103.90 0.04546
1104.00 0.04544
1104.10 0.04542
1104.20 0.04541
1104.30 0.04539
1104.40 0.04538
1104.50 0.04536
1104.60 0.04535
1104.70 0.04533
1104.80 0.04532
1104.90 0.0453
1105.00 0.04529
1105.10 0.04527
1105.20 0.04526
1105.30 0.04524
1105.40 0.04523
1105.50 0.04521
1105.60 0.0452
1105.70 0.04518
1105.80 0.04517
1105.90 0.04515
1106.00 0.04514
1106.10 0.04512
1106.20 0.0451
1106.30 0.04509
1106.40 0.04507
1106.50 0.04506
1106.60 0.04504
1106.70 0.04503
1106.80 0.04501
1106.90 0.045
1107.00 0.04498
1107.10 0.04497
1107.20 0.04495
1107.30 0.04494
1107.40 0.04492
1107.50 0.04491
1107.60 0.04489
1107.70 0.04488
1107.80 0.04486
1107.90 0.04485
1108.00 0.04483
1108.10 0.04481
1108.20 0.0448
1108.30 0.04478
1108.40 0.04477
1108.50 0.04475
1108.60 0.04474
1108.70 0.04472
1108.80 0.04471
1108.90 0.04469
1109.00 0.04468
1109.10 0.04466
1109.20 0.04465
1109.30 0.04463
1109.40 0.04462
1109.50 0.0446
1109.60 0.04459
1109.70 0.04457
1109.80 0.04456
1109.90 0.04454
1110.00 0.04452
1110.10 0.04451
1110.20 0.04449
1110.30 0.04448
1110.40 0.04446
1110.50 0.04445
1110.60 0.04443
1110.70 0.04442
1110.80 0.0444
1110.90 0.04439
1111.00 0.04437
1111.10 0.04436
1111.20 0.04434
1111.30 0.04433
1111.40 0.04431
1111.50 0.0443
1111.60 0.04428
1111.70 0.04427
1111.80 0.04425
1111.90 0.04424
1112.00 0.04422
1112.10 0.0442
1112.20 0.04419
1112.30 0.04417
1112.40 0.04416
1112.50 0.04414
1112.60 0.04413
1112.70 0.04411
1112.80 0.0441
1112.90 0.04408
1113.00 0.04407
1113.10 0.04405
1113.20 0.04404
1113.30 0.04402
1113.40 0.04401
1113.50 0.04399
1113.60 0.04398
1113.70 0.04396
1113.80 0.04395
1113.90 0.04393
1114.00 0.04392
1114.10 0.0439
1114.20 0.04389
1114.30 0.04387
1114.40 0.04386
1114.50 0.04384
1114.60 0.04382
1114.70 0.04381
1114.80 0.04379
1114.90 0.04378
1115.00 0.04376
1115.10 0.04375
1115.20 0.04373
1115.30 0.04372
1115.40 0.0437
1115.50 0.04369
1115.60 0.04367
1115.70 0.04366
1115.80 0.04364
1115.90 0.04363
1116.00 0.04361
1116.10 0.0436
1116.20 0.04358
1116.30 0.04357
1116.40 0.04355
1116.50 0.04354
1116.60 0.04352
1116.70 0.04351
1116.80 0.04349
1116.90 0.04348
1117.00 0.04346
1117.10 0.04345
1117.20 0.04343
1117.30 0.04342
1117.40 0.0434
1117.50 0.04339
1117.60 0.04337
1117.70 0.04336
1117.80 0.04334
1117.90 0.04333
1118.00 0.04331
1118.10 0.0433
1118.20 0.04328
1118.30 0.04327
1118.40 0.04325
1118.50 0.04324
1118.60 0.04322
1118.70 0.04321
1118.80 0.04319
1118.90 0.04318
1119.00 0.04316
1119.10 0.04315
1119.20 0.04313
1119.30 0.04312
1119.40 0.0431
1119.50 0.04309
1119.60 0.04307
1119.70 0.04306
1119.80 0.04304
1119.90 0.04303
1120.00 0.04301
1120.10 0.043
1120.20 0.04298
1120.30 0.04297
1120.40 0.04295
1120.50 0.04294
1120.60 0.04292
1120.70 0.04291
1120.80 0.04289
1120.90 0.04288
1121.00 0.04286
1121.10 0.04285
1121.20 0.04283
1121.30 0.04282
1121.40 0.0428
1121.50 0.04279
1121.60 0.04277
1121.70 0.04276
1121.80 0.04274
1121.90 0.04273
1122.00 0.04272
1122.10 0.0427
1122.20 0.04269
1122.30 0.04267
1122.40 0.04266
1122.50 0.04264
1122.60 0.04263
1122.70 0.04261
1122.80 0.0426
1122.90 0.04258
1123.00 0.04257
1123.10 0.04255
1123.20 0.04254
1123.30 0.04252
1123.40 0.04251
1123.50 0.04249
1123.60 0.04248
1123.70 0.04246
1123.80 0.04245
1123.90 0.04243
1124.00 0.04242
1124.10 0.04241
1124.20 0.04239
1124.30 0.04238
1124.40 0.04236
1124.50 0.04235
1124.60 0.04233
1124.70 0.04232
1124.80 0.0423
1124.90 0.04229
1125.00 0.04227
1125.10 0.04226
1125.20 0.04224
1125.30 0.04223
1125.40 0.04221
1125.50 0.0422
1125.60 0.04219
1125.70 0.04217
1125.80 0.04216
1125.90 0.04214
1126.00 0.04213
1126.10 0.04211
1126.20 0.0421
1126.30 0.04208
1126.40 0.04207
1126.50 0.04205
1126.60 0.04204
1126.70 0.04202
1126.80 0.04201
1126.90 0.042
1127.00 0.04198
1127.10 0.04197
1127.20 0.04195
1127.30 0.04194
1127.40 0.04192
1127.50 0.04191
1127.60 0.04189
1127.70 0.04188
1127.80 0.04187
1127.90 0.04185
1128.00 0.04184
1128.10 0.04182
1128.20 0.04181
1128.30 0.04179
1128.40 0.04178
1128.50 0.04176
1128.60 0.04175
1128.70 0.04174
1128.80 0.04172
1128.90 0.04171
1129.00 0.04169
1129.10 0.04168
1129.20 0.04166
1129.30 0.04165
1129.40 0.04163
1129.50 0.04162
1129.60 0.04161
1129.70 0.04159
1129.80 0.04158
1129.90 0.04156
1130.00 0.04155
1130.10 0.04153
1130.20 0.04152
1130.30 0.04151
1130.40 0.04149
1130.50 0.04148
1130.60 0.04146
1130.70 0.04145
1130.80 0.04143
1130.90 0.04142
1131.00 0.0414
1131.10 0.04139
1131.20 0.04138
1131.30 0.04136
1131.40 0.04135
1131.50 0.04133
1131.60 0.04132
1131.70 0.0413
1131.80 0.04129
1131.90 0.04128
1132.00 0.04126
1132.10 0.04125
1132.20 0.04123
1132.30 0.04122
1132.40 0.0412
1132.50 0.04119
1132.60 0.04118
1132.70 0.04116
1132.80 0.04115
1132.90 0.04113
1133.00 0.04112
1133.10 0.04111
1133.20 0.04109
1133.30 0.04108
1133.40 0.04106
1133.50 0.04105
1133.60 0.04103
1133.70 0.04102
1133.80 0.04101
1133.90 0.04099
1134.00 0.04098
1134.10 0.04096
1134.20 0.04095
1134.30 0.04094
1134.40 0.04092
1134.50 0.04091
1134.60 0.04089
1134.70 0.04088
1134.80 0.04087
1134.90 0.04085
1135.00 0.04084
1135.10 0.04082
1135.20 0.04081
1135.30 0.0408
1135.40 0.04078
1135.50 0.04077
1135.60 0.04075
1135.70 0.04074
1135.80 0.04072
1135.90 0.04071
1136.00 0.0407
1136.10 0.04068
1136.20 0.04067
1136.30 0.04065
1136.40 0.04064
1136.50 0.04063
1136.60 0.04061
1136.70 0.0406
1136.80 0.04058
1136.90 0.04057
1137.00 0.04056
1137.10 0.04054
1137.20 0.04053
1137.30 0.04051
1137.40 0.0405
1137.50 0.04049
1137.60 0.04047
1137.70 0.04046
1137.80 0.04045
1137.90 0.04043
1138.00 0.04042
1138.10 0.0404
1138.20 0.04039
1138.30 0.04038
1138.40 0.04036
1138.50 0.04035
1138.60 0.04033
1138.70 0.04032
1138.80 0.04031
1138.90 0.04029
1139.00 0.04028
1139.10 0.04027
1139.20 0.04025
1139.30 0.04024
1139.40 0.04022
1139.50 0.04021
1139.60 0.0402
1139.70 0.04018
1139.80 0.04017
1139.90 0.04015
1140.00 0.04014
1140.10 0.04013
1140.20 0.04011
1140.30 0.0401
1140.40 0.04009
1140.50 0.04007
1140.60 0.04006
1140.70 0.04004
1140.80 0.04003
1140.90 0.04002
1141.00 0.04
1141.10 0.03999
1141.20 0.03998
1141.30 0.03996
1141.40 0.03995
1141.50 0.03993
1141.60 0.03992
1141.70 0.03991
1141.80 0.03989
1141.90 0.03988
1142.00 0.03987
1142.10 0.03985
1142.20 0.03984
1142.30 0.03983
1142.40 0.03981
1142.50 0.0398
1142.60 0.03978
1142.70 0.03977
1142.80 0.03976
1142.90 0.03974
1143.00 0.03973
1143.10 0.03972
1143.20 0.0397
1143.30 0.03969
1143.40 0.03968
1143.50 0.03966
1143.60 0.03965
1143.70 0.03963
1143.80 0.03962
1143.90 0.03961
1144.00 0.03959
1144.10 0.03958
1144.20 0.03957
1144.30 0.03955
1144.40 0.03954
1144.50 0.03953
1144.60 0.03951
1144.70 0.0395
1144.80 0.03949
1144.90 0.03947
1145.00 0.03946
1145.10 0.03945
1145.20 0.03943
1145.30 0.03942
1145.40 0.03941
1145.50 0.03939
1145.60 0.03938
1145.70 0.03936
1145.80 0.03935
1145.90 0.03934
1146.00 0.03932
1146.10 0.03931
1146.20 0.0393
1146.30 0.03928
1146.40 0.03927
1146.50 0.03926
1146.60 0.03924
1146.70 0.03923
1146.80 0.03922
1146.90 0.0392
1147.00 0.03919
1147.10 0.03918
1147.20 0.03916
1147.30 0.03915
1147.40 0.03914
1147.50 0.03912
1147.60 0.03911
1147.70 0.0391
1147.80 0.03908
1147.90 0.03907
1148.00 0.03906
1148.10 0.03904
1148.20 0.03903
1148.30 0.03902
1148.40 0.039
1148.50 0.03899
1148.60 0.03898
1148.70 0.03896
1148.80 0.03895
1148.90 0.03894
1149.00 0.03892
1149.10 0.03891
1149.20 0.0389
1149.30 0.03888
1149.40 0.03887
1149.50 0.03886
1149.60 0.03884
1149.70 0.03883
1149.80 0.03882
1149.90 0.0388
1150.00 0.03879
1150.10 0.03878
1150.20 0.03877
1150.30 0.03875
1150.40 0.03874
1150.50 0.03873
1150.60 0.03871
1150.70 0.0387
1150.80 0.03869
1150.90 0.03867
1151.00 0.03866
1151.10 0.03865
1151.20 0.03863
1151.30 0.03862
1151.40 0.03861
1151.50 0.03859
1151.60 0.03858
1151.70 0.03857
1151.80 0.03855
1151.90 0.03854
1152.00 0.03853
1152.10 0.03851
1152.20 0.0385
1152.30 0.03849
1152.40 0.03848
1152.50 0.03846
1152.60 0.03845
1152.70 0.03844
1152.80 0.03842
1152.90 0.03841
1153.00 0.0384
1153.10 0.03838
1153.20 0.03837
1153.30 0.03836
1153.40 0.03835
1153.50 0.03833
1153.60 0.03832
1153.70 0.03831
1153.80 0.03829
1153.90 0.03828
1154.00 0.03827
1154.10 0.03825
1154.20 0.03824
1154.30 0.03823
1154.40 0.03822
1154.50 0.0382
1154.60 0.03819
1154.70 0.03818
1154.80 0.03816
1154.90 0.03815
1155.00 0.03814
1155.10 0.03812
1155.20 0.03811
1155.30 0.0381
1155.40 0.03809
1155.50 0.03807
1155.60 0.03806
1155.70 0.03805
1155.80 0.03803
1155.90 0.03802
1156.00 0.03801
1156.10 0.038
1156.20 0.03798
1156.30 0.03797
1156.40 0.03796
1156.50 0.03794
1156.60 0.03793
1156.70 0.03792
1156.80 0.03791
1156.90 0.03789
1157.00 0.03788
1157.10 0.03787
1157.20 0.03785
1157.30 0.03784
1157.40 0.03783
1157.50 0.03782
1157.60 0.0378
1157.70 0.03779
1157.80 0.03778
1157.90 0.03776
1158.00 0.03775
1158.10 0.03774
1158.20 0.03773
1158.30 0.03771
1158.40 0.0377
1158.50 0.03769
1158.60 0.03768
1158.70 0.03766
1158.80 0.03765
1158.90 0.03764
1159.00 0.03762
1159.10 0.03761
1159.20 0.0376
1159.30 0.03759
1159.40 0.03757
1159.50 0.03756
1159.60 0.03755
1159.70 0.03754
1159.80 0.03752
1159.90 0.03751
1160.00 0.0375
1160.10 0.03749
1160.20 0.03747
1160.30 0.03746
1160.40 0.03745
1160.50 0.03743
1160.60 0.03742
1160.70 0.03741
1160.80 0.0374
1160.90 0.03738
1161.00 0.03737
1161.10 0.03736
1161.20 0.03735
1161.30 0.03733
1161.40 0.03732
1161.50 0.03731
1161.60 0.0373
1161.70 0.03728
1161.80 0.03727
1161.90 0.03726
1162.00 0.03725
1162.10 0.03723
1162.20 0.03722
1162.30 0.03721
1162.40 0.03719
1162.50 0.03718
1162.60 0.03717
1162.70 0.03716
1162.80 0.03714
1162.90 0.03713
1163.00 0.03712
1163.10 0.03711
1163.20 0.0371
1163.30 0.03708
1163.40 0.03707
1163.50 0.03706
1163.60 0.03705
1163.70 0.03703
1163.80 0.03702
1163.90 0.03701
1164.00 0.037
1164.10 0.03698
1164.20 0.03697
1164.30 0.03696
1164.40 0.03695
1164.50 0.03693
1164.60 0.03692
1164.70 0.03691
1164.80 0.0369
1164.90 0.03688
1165.00 0.03687
1165.10 0.03686
1165.20 0.03685
1165.30 0.03683
1165.40 0.03682
1165.50 0.03681
1165.60 0.0368
1165.70 0.03678
1165.80 0.03677
1165.90 0.03676
1166.00 0.03675
1166.10 0.03673
1166.20 0.03672
1166.30 0.03671
1166.40 0.0367
1166.50 0.03669
1166.60 0.03667
1166.70 0.03666
1166.80 0.03665
1166.90 0.03664
1167.00 0.03662
1167.10 0.03661
1167.20 0.0366
1167.30 0.03659
1167.40 0.03657
1167.50 0.03656
1167.60 0.03655
1167.70 0.03654
1167.80 0.03653
1167.90 0.03651
1168.00 0.0365
1168.10 0.03649
1168.20 0.03648
1168.30 0.03646
1168.40 0.03645
1168.50 0.03644
1168.60 0.03643
1168.70 0.03642
1168.80 0.0364
1168.90 0.03639
1169.00 0.03638
1169.10 0.03637
1169.20 0.03635
1169.30 0.03634
1169.40 0.03633
1169.50 0.03632
1169.60 0.03631
1169.70 0.03629
1169.80 0.03628
1169.90 0.03627
1170.00 0.03626
1170.10 0.03625
1170.20 0.03623
1170.30 0.03622
1170.40 0.03621
1170.50 0.0362
1170.60 0.03618
1170.70 0.03617
1170.80 0.03616
1170.90 0.03615
1171.00 0.03614
1171.10 0.03612
1171.20 0.03611
1171.30 0.0361
1171.40 0.03609
1171.50 0.03608
1171.60 0.03606
1171.70 0.03605
1171.80 0.03604
1171.90 0.03603
1172.00 0.03602
1172.10 0.036
1172.20 0.03599
1172.30 0.03598
1172.40 0.03597
1172.50 0.03596
1172.60 0.03594
1172.70 0.03593
1172.80 0.03592
1172.90 0.03591
1173.00 0.0359
1173.10 0.03588
1173.20 0.03587
1173.30 0.03586
1173.40 0.03585
1173.50 0.03584
1173.60 0.03582
1173.70 0.03581
1173.80 0.0358
1173.90 0.03579
1174.00 0.03578
1174.10 0.03576
1174.20 0.03575
1174.30 0.03574
1174.40 0.03573
1174.50 0.03572
1174.60 0.0357
1174.70 0.03569
1174.80 0.03568
1174.90 0.03567
1175.00 0.03566
1175.10 0.03564
1175.20 0.03563
1175.30 0.03562
1175.40 0.03561
1175.50 0.0356
1175.60 0.03559
1175.70 0.03557
1175.80 0.03556
1175.90 0.03555
1176.00 0.03554
1176.10 0.03553
1176.20 0.03551
1176.30 0.0355
1176.40 0.03549
1176.50 0.03548
1176.60 0.03547
1176.70 0.03545
1176.80 0.03544
1176.90 0.03543
1177.00 0.03542
1177.10 0.03541
1177.20 0.0354
1177.30 0.03538
1177.40 0.03537
1177.50 0.03536
1177.60 0.03535
1177.70 0.03534
1177.80 0.03533
1177.90 0.03531
1178.00 0.0353
1178.10 0.03529
1178.20 0.03528
1178.30 0.03527
1178.40 0.03525
1178.50 0.03524
1178.60 0.03523
1178.70 0.03522
1178.80 0.03521
1178.90 0.0352
1179.00 0.03518
1179.10 0.03517
1179.20 0.03516
1179.30 0.03515
1179.40 0.03514
1179.50 0.03513
1179.60 0.03511
1179.70 0.0351
1179.80 0.03509
1179.90 0.03508
1180.00 0.03507
1180.10 0.03506
1180.20 0.03504
1180.30 0.03503
1180.40 0.03502
1180.50 0.03501
1180.60 0.035
1180.70 0.03499
1180.80 0.03497
1180.90 0.03496
1181.00 0.03495
1181.10 0.03494
1181.20 0.03493
1181.30 0.03492
1181.40 0.03491
1181.50 0.03489
1181.60 0.03488
1181.70 0.03487
1181.80 0.03486
1181.90 0.03485
1182.00 0.03484
1182.10 0.03482
1182.20 0.03481
1182.30 0.0348
1182.40 0.03479
1182.50 0.03478
1182.60 0.03477
1182.70 0.03476
1182.80 0.03474
1182.90 0.03473
1183.00 0.03472
1183.10 0.03471
1183.20 0.0347
1183.30 0.03469
1183.40 0.03467
1183.50 0.03466
1183.60 0.03465
1183.70 0.03464
1183.80 0.03463
1183.90 0.03462
1184.00 0.03461
1184.10 0.03459
1184.20 0.03458
1184.30 0.03457
1184.40 0.03456
1184.50 0.03455
1184.60 0.03454
1184.70 0.03453
1184.80 0.03451
1184.90 0.0345
1185.00 0.03449
1185.10 0.03448
1185.20 0.03447
1185.30 0.03446
1185.40 0.03445
1185.50 0.03443
1185.60 0.03442
1185.70 0.03441
1185.80 0.0344
1185.90 0.03439
1186.00 0.03438
1186.10 0.03437
1186.20 0.03435
1186.30 0.03434
1186.40 0.03433
1186.50 0.03432
1186.60 0.03431
1186.70 0.0343
1186.80 0.03429
1186.90 0.03428
1187.00 0.03426
1187.10 0.03425
1187.20 0.03424
1187.30 0.03423
1187.40 0.03422
1187.50 0.03421
1187.60 0.0342
1187.70 0.03418
1187.80 0.03417
1187.90 0.03416
1188.00 0.03415
1188.10 0.03414
1188.20 0.03413
1188.30 0.03412
1188.40 0.03411
1188.50 0.03409
1188.60 0.03408
1188.70 0.03407
1188.80 0.03406
1188.90 0.03405
1189.00 0.03404
1189.10 0.03403
1189.20 0.03402
1189.30 0.03401
1189.40 0.03399
1189.50 0.03398
1189.60 0.03397
1189.70 0.03396
1189.80 0.03395
1189.90 0.03394
1190.00 0.03393
1190.10 0.03392
1190.20 0.0339
1190.30 0.03389
1190.40 0.03388
1190.50 0.03387
1190.60 0.03386
1190.70 0.03385
1190.80 0.03384
1190.90 0.03383
1191.00 0.03382
1191.10 0.0338
1191.20 0.03379
1191.30 0.03378
1191.40 0.03377
1191.50 0.03376
1191.60 0.03375
1191.70 0.03374
1191.80 0.03373
1191.90 0.03372
1192.00 0.0337
1192.10 0.03369
1192.20 0.03368
1192.30 0.03367
1192.40 0.03366
1192.50 0.03365
1192.60 0.03364
1192.70 0.03363
1192.80 0.03362
1192.90 0.0336
1193.00 0.03359
1193.10 0.03358
1193.20 0.03357
1193.30 0.03356
1193.40 0.03355
1193.50 0.03354
1193.60 0.03353
1193.70 0.03352
1193.80 0.03351
1193.90 0.03349
1194.00 0.03348
1194.10 0.03347
1194.20 0.03346
1194.30 0.03345
1194.40 0.03344
1194.50 0.03343
1194.60 0.03342
1194.70 0.03341
1194.80 0.0334
1194.90 0.03338
1195.00 0.03337
1195.10 0.03336
1195.20 0.03335
1195.30 0.03334
1195.40 0.03333
1195.50 0.03332
1195.60 0.03331
1195.70 0.0333
1195.80 0.03329
1195.90 0.03328
1196.00 0.03326
1196.10 0.03325
1196.20 0.03324
1196.30 0.03323
1196.40 0.03322
1196.50 0.03321
1196.60 0.0332
1196.70 0.03319
1196.80 0.03318
1196.90 0.03317
1197.00 0.03316
1197.10 0.03314
1197.20 0.03313
1197.30 0.03312
1197.40 0.03311
1197.50 0.0331
1197.60 0.03309
1197.70 0.03308
1197.80 0.03307
1197.90 0.03306
1198.00 0.03305
1198.10 0.03304
1198.20 0.03303
1198.30 0.03301
1198.40 0.033
1198.50 0.03299
1198.60 0.03298
1198.70 0.03297
1198.80 0.03296
1198.90 0.03295
1199.00 0.03294
1199.10 0.03293
1199.20 0.03292
1199.30 0.03291
1199.40 0.0329
1199.50 0.03289
1199.60 0.03287
1199.70 0.03286
1199.80 0.03285
1199.90 0.03284
1200.00 0
