# Version 2.1 - nm, norm@500 to 1, cut digits, bergeron_70000_70.dat_70000
# Wavelength(nm)  Flambda(ergs/cm^s/s/nm)
300.00 6.542
300.10 6.533
300.20 6.525
300.30 6.517
300.40 6.509
300.50 6.501
300.60 6.493
300.70 6.485
300.80 6.477
300.90 6.47
301.00 6.462
301.10 6.454
301.20 6.446
301.30 6.438
301.40 6.43
301.50 6.422
301.60 6.414
301.70 6.406
301.80 6.398
301.90 6.391
302.00 6.383
302.10 6.375
302.20 6.367
302.30 6.359
302.40 6.352
302.50 6.344
302.60 6.336
302.70 6.328
302.80 6.321
302.90 6.313
303.00 6.305
303.10 6.298
303.20 6.29
303.30 6.282
303.40 6.275
303.50 6.267
303.60 6.259
303.70 6.252
303.80 6.244
303.90 6.236
304.00 6.229
304.10 6.221
304.20 6.214
304.30 6.206
304.40 6.199
304.50 6.191
304.60 6.184
304.70 6.176
304.80 6.169
304.90 6.161
305.00 6.154
305.10 6.146
305.20 6.139
305.30 6.131
305.40 6.124
305.50 6.116
305.60 6.109
305.70 6.102
305.80 6.094
305.90 6.087
306.00 6.08
306.10 6.072
306.20 6.065
306.30 6.058
306.40 6.05
306.50 6.043
306.60 6.036
306.70 6.028
306.80 6.021
306.90 6.014
307.00 6.007
307.10 5.999
307.20 5.992
307.30 5.985
307.40 5.978
307.50 5.97
307.60 5.963
307.70 5.956
307.80 5.949
307.90 5.942
308.00 5.935
308.10 5.928
308.20 5.92
308.30 5.913
308.40 5.906
308.50 5.899
308.60 5.892
308.70 5.885
308.80 5.878
308.90 5.871
309.00 5.864
309.10 5.857
309.20 5.85
309.30 5.843
309.40 5.836
309.50 5.829
309.60 5.822
309.70 5.815
309.80 5.808
309.90 5.801
310.00 5.794
310.10 5.787
310.20 5.78
310.30 5.773
310.40 5.767
310.50 5.76
310.60 5.753
310.70 5.746
310.80 5.739
310.90 5.732
311.00 5.725
311.10 5.719
311.20 5.712
311.30 5.705
311.40 5.698
311.50 5.691
311.60 5.685
311.70 5.678
311.80 5.671
311.90 5.664
312.00 5.658
312.10 5.651
312.20 5.644
312.30 5.638
312.40 5.631
312.50 5.624
312.60 5.618
312.70 5.611
312.80 5.604
312.90 5.598
313.00 5.591
313.10 5.584
313.20 5.578
313.30 5.571
313.40 5.565
313.50 5.558
313.60 5.552
313.70 5.545
313.80 5.538
313.90 5.532
314.00 5.525
314.10 5.519
314.20 5.512
314.30 5.506
314.40 5.499
314.50 5.493
314.60 5.486
314.70 5.48
314.80 5.473
314.90 5.467
315.00 5.461
315.10 5.454
315.20 5.448
315.30 5.441
315.40 5.435
315.50 5.429
315.60 5.422
315.70 5.416
315.80 5.409
315.90 5.403
316.00 5.397
316.10 5.39
316.20 5.384
316.30 5.378
316.40 5.371
316.50 5.365
316.60 5.359
316.70 5.353
316.80 5.346
316.90 5.34
317.00 5.334
317.10 5.328
317.20 5.321
317.30 5.315
317.40 5.309
317.50 5.303
317.60 5.297
317.70 5.29
317.80 5.284
317.90 5.278
318.00 5.272
318.10 5.266
318.20 5.26
318.30 5.254
318.40 5.247
318.50 5.241
318.60 5.235
318.70 5.229
318.80 5.223
318.90 5.217
319.00 5.211
319.10 5.205
319.20 5.199
319.30 5.193
319.40 5.187
319.50 5.181
319.60 5.175
319.70 5.169
319.80 5.163
319.90 5.157
320.00 5.151
320.10 5.145
320.20 5.139
320.30 5.133
320.40 5.127
320.50 5.121
320.60 5.115
320.70 5.109
320.80 5.103
320.90 5.097
321.00 5.091
321.10 5.086
321.20 5.08
321.30 5.074
321.40 5.068
321.50 5.062
321.60 5.056
321.70 5.05
321.80 5.045
321.90 5.039
322.00 5.033
322.10 5.027
322.20 5.021
322.30 5.016
322.40 5.01
322.50 5.004
322.60 4.998
322.70 4.993
322.80 4.987
322.90 4.981
323.00 4.975
323.10 4.97
323.20 4.964
323.30 4.958
323.40 4.953
323.50 4.947
323.60 4.941
323.70 4.936
323.80 4.93
323.90 4.924
324.00 4.919
324.10 4.913
324.20 4.907
324.30 4.902
324.40 4.896
324.50 4.891
324.60 4.885
324.70 4.879
324.80 4.874
324.90 4.868
325.00 4.863
325.10 4.857
325.20 4.852
325.30 4.846
325.40 4.84
325.50 4.835
325.60 4.829
325.70 4.824
325.80 4.818
325.90 4.813
326.00 4.807
326.10 4.802
326.20 4.797
326.30 4.791
326.40 4.786
326.50 4.78
326.60 4.775
326.70 4.769
326.80 4.764
326.90 4.758
327.00 4.753
327.10 4.748
327.20 4.742
327.30 4.737
327.40 4.732
327.50 4.726
327.60 4.721
327.70 4.715
327.80 4.71
327.90 4.705
328.00 4.699
328.10 4.694
328.20 4.689
328.30 4.684
328.40 4.678
328.50 4.673
328.60 4.668
328.70 4.662
328.80 4.657
328.90 4.652
329.00 4.647
329.10 4.641
329.20 4.636
329.30 4.631
329.40 4.626
329.50 4.62
329.60 4.615
329.70 4.61
329.80 4.605
329.90 4.6
330.00 4.594
330.10 4.589
330.20 4.584
330.30 4.579
330.40 4.574
330.50 4.569
330.60 4.564
330.70 4.559
330.80 4.553
330.90 4.548
331.00 4.543
331.10 4.538
331.20 4.533
331.30 4.528
331.40 4.523
331.50 4.518
331.60 4.513
331.70 4.508
331.80 4.503
331.90 4.497
332.00 4.492
332.10 4.487
332.20 4.482
332.30 4.477
332.40 4.472
332.50 4.467
332.60 4.462
332.70 4.457
332.80 4.452
332.90 4.447
333.00 4.443
333.10 4.438
333.20 4.433
333.30 4.428
333.40 4.423
333.50 4.418
333.60 4.413
333.70 4.408
333.80 4.403
333.90 4.398
334.00 4.393
334.10 4.388
334.20 4.383
334.30 4.379
334.40 4.374
334.50 4.369
334.60 4.364
334.70 4.359
334.80 4.354
334.90 4.349
335.00 4.345
335.10 4.34
335.20 4.335
335.30 4.33
335.40 4.325
335.50 4.321
335.60 4.316
335.70 4.311
335.80 4.306
335.90 4.301
336.00 4.297
336.10 4.292
336.20 4.287
336.30 4.282
336.40 4.278
336.50 4.273
336.60 4.268
336.70 4.264
336.80 4.259
336.90 4.254
337.00 4.249
337.10 4.245
337.20 4.24
337.30 4.235
337.40 4.231
337.50 4.226
337.60 4.221
337.70 4.217
337.80 4.212
337.90 4.207
338.00 4.203
338.10 4.198
338.20 4.194
338.30 4.189
338.40 4.184
338.50 4.18
338.60 4.175
338.70 4.171
338.80 4.166
338.90 4.161
339.00 4.157
339.10 4.152
339.20 4.148
339.30 4.143
339.40 4.139
339.50 4.134
339.60 4.13
339.70 4.125
339.80 4.121
339.90 4.116
340.00 4.111
340.10 4.107
340.20 4.103
340.30 4.098
340.40 4.094
340.50 4.089
340.60 4.085
340.70 4.08
340.80 4.076
340.90 4.071
341.00 4.067
341.10 4.062
341.20 4.058
341.30 4.054
341.40 4.049
341.50 4.045
341.60 4.04
341.70 4.036
341.80 4.031
341.90 4.027
342.00 4.023
342.10 4.018
342.20 4.014
342.30 4.01
342.40 4.005
342.50 4.001
342.60 3.997
342.70 3.992
342.80 3.988
342.90 3.984
343.00 3.979
343.10 3.975
343.20 3.971
343.30 3.966
343.40 3.962
343.50 3.958
343.60 3.953
343.70 3.949
343.80 3.945
343.90 3.94
344.00 3.936
344.10 3.932
344.20 3.928
344.30 3.923
344.40 3.919
344.50 3.915
344.60 3.911
344.70 3.907
344.80 3.902
344.90 3.898
345.00 3.894
345.10 3.89
345.20 3.886
345.30 3.881
345.40 3.877
345.50 3.873
345.60 3.869
345.70 3.865
345.80 3.86
345.90 3.856
346.00 3.852
346.10 3.848
346.20 3.844
346.30 3.84
346.40 3.836
346.50 3.831
346.60 3.827
346.70 3.823
346.80 3.819
346.90 3.815
347.00 3.811
347.10 3.807
347.20 3.803
347.30 3.799
347.40 3.795
347.50 3.791
347.60 3.786
347.70 3.782
347.80 3.778
347.90 3.774
348.00 3.77
348.10 3.766
348.20 3.762
348.30 3.758
348.40 3.754
348.50 3.75
348.60 3.746
348.70 3.742
348.80 3.738
348.90 3.734
349.00 3.73
349.10 3.726
349.20 3.722
349.30 3.718
349.40 3.714
349.50 3.71
349.60 3.706
349.70 3.702
349.80 3.698
349.90 3.694
350.00 3.69
350.10 3.687
350.20 3.683
350.30 3.679
350.40 3.675
350.50 3.671
350.60 3.667
350.70 3.663
350.80 3.659
350.90 3.655
351.00 3.651
351.10 3.648
351.20 3.644
351.30 3.64
351.40 3.636
351.50 3.632
351.60 3.628
351.70 3.624
351.80 3.621
351.90 3.617
352.00 3.613
352.10 3.609
352.20 3.605
352.30 3.601
352.40 3.598
352.50 3.594
352.60 3.59
352.70 3.586
352.80 3.582
352.90 3.579
353.00 3.575
353.10 3.571
353.20 3.567
353.30 3.564
353.40 3.56
353.50 3.556
353.60 3.552
353.70 3.549
353.80 3.545
353.90 3.541
354.00 3.537
354.10 3.534
354.20 3.53
354.30 3.526
354.40 3.522
354.50 3.519
354.60 3.515
354.70 3.511
354.80 3.508
354.90 3.504
355.00 3.5
355.10 3.497
355.20 3.493
355.30 3.489
355.40 3.486
355.50 3.482
355.60 3.478
355.70 3.475
355.80 3.471
355.90 3.467
356.00 3.464
356.10 3.46
356.20 3.456
356.30 3.453
356.40 3.449
356.50 3.446
356.60 3.442
356.70 3.438
356.80 3.435
356.90 3.431
357.00 3.428
357.10 3.424
357.20 3.421
357.30 3.417
357.40 3.413
357.50 3.41
357.60 3.406
357.70 3.403
357.80 3.399
357.90 3.396
358.00 3.392
358.10 3.388
358.20 3.385
358.30 3.381
358.40 3.378
358.50 3.374
358.60 3.371
358.70 3.367
358.80 3.364
358.90 3.36
359.00 3.357
359.10 3.353
359.20 3.35
359.30 3.346
359.40 3.343
359.50 3.339
359.60 3.336
359.70 3.333
359.80 3.329
359.90 3.326
360.00 3.322
360.10 3.319
360.20 3.315
360.30 3.312
360.40 3.308
360.50 3.305
360.60 3.302
360.70 3.298
360.80 3.295
360.90 3.291
361.00 3.288
361.10 3.285
361.20 3.281
361.30 3.278
361.40 3.274
361.50 3.271
361.60 3.268
361.70 3.264
361.80 3.261
361.90 3.257
362.00 3.254
362.10 3.251
362.20 3.247
362.30 3.244
362.40 3.241
362.50 3.237
362.60 3.234
362.70 3.231
362.80 3.227
362.90 3.224
363.00 3.221
363.10 3.217
363.20 3.214
363.30 3.211
363.40 3.208
363.50 3.204
363.60 3.201
363.70 3.198
363.80 3.194
363.90 3.191
364.00 3.188
364.10 3.185
364.20 3.181
364.30 3.178
364.40 3.175
364.50 3.171
364.60 3.168
364.70 3.165
364.80 3.162
364.90 3.159
365.00 3.155
365.10 3.152
365.20 3.149
365.30 3.146
365.40 3.142
365.50 3.139
365.60 3.136
365.70 3.133
365.80 3.13
365.90 3.126
366.00 3.123
366.10 3.12
366.20 3.117
366.30 3.113
366.40 3.11
366.50 3.107
366.60 3.104
366.70 3.1
366.80 3.097
366.90 3.094
367.00 3.091
367.10 3.087
367.20 3.084
367.30 3.081
367.40 3.078
367.50 3.074
367.60 3.071
367.70 3.068
367.80 3.065
367.90 3.062
368.00 3.058
368.10 3.055
368.20 3.052
368.30 3.049
368.40 3.046
368.50 3.043
368.60 3.039
368.70 3.036
368.80 3.033
368.90 3.03
369.00 3.027
369.10 3.024
369.20 3.02
369.30 3.017
369.40 3.014
369.50 3.011
369.60 3.008
369.70 3.005
369.80 3.002
369.90 2.999
370.00 2.995
370.10 2.992
370.20 2.989
370.30 2.986
370.40 2.983
370.50 2.98
370.60 2.977
370.70 2.974
370.80 2.971
370.90 2.968
371.00 2.965
371.10 2.962
371.20 2.959
371.30 2.955
371.40 2.952
371.50 2.949
371.60 2.946
371.70 2.943
371.80 2.94
371.90 2.937
372.00 2.934
372.10 2.931
372.20 2.928
372.30 2.925
372.40 2.922
372.50 2.919
372.60 2.916
372.70 2.914
372.80 2.911
372.90 2.908
373.00 2.905
373.10 2.902
373.20 2.899
373.30 2.896
373.40 2.893
373.50 2.89
373.60 2.887
373.70 2.884
373.80 2.881
373.90 2.879
374.00 2.876
374.10 2.873
374.20 2.87
374.30 2.867
374.40 2.864
374.50 2.862
374.60 2.859
374.70 2.856
374.80 2.853
374.90 2.851
375.00 2.848
375.10 2.845
375.20 2.842
375.30 2.84
375.40 2.837
375.50 2.834
375.60 2.831
375.70 2.828
375.80 2.826
375.90 2.823
376.00 2.82
376.10 2.817
376.20 2.815
376.30 2.812
376.40 2.809
376.50 2.806
376.60 2.804
376.70 2.801
376.80 2.798
376.90 2.795
377.00 2.792
377.10 2.79
377.20 2.788
377.30 2.785
377.40 2.783
377.50 2.78
377.60 2.778
377.70 2.776
377.80 2.773
377.90 2.771
378.00 2.768
378.10 2.766
378.20 2.763
378.30 2.76
378.40 2.757
378.50 2.755
378.60 2.752
378.70 2.749
378.80 2.746
378.90 2.744
379.00 2.741
379.10 2.738
379.20 2.735
379.30 2.733
379.40 2.73
379.50 2.727
379.60 2.724
379.70 2.722
379.80 2.719
379.90 2.716
380.00 2.713
380.10 2.712
380.20 2.71
380.30 2.708
380.40 2.706
380.50 2.704
380.60 2.703
380.70 2.701
380.80 2.699
380.90 2.697
381.00 2.695
381.10 2.693
381.20 2.691
381.30 2.688
381.40 2.686
381.50 2.683
381.60 2.68
381.70 2.678
381.80 2.675
381.90 2.671
382.00 2.668
382.10 2.665
382.20 2.661
382.30 2.657
382.40 2.653
382.50 2.649
382.60 2.645
382.70 2.641
382.80 2.637
382.90 2.632
383.00 2.628
383.10 2.624
383.20 2.62
383.30 2.616
383.40 2.612
383.50 2.609
383.60 2.607
383.70 2.606
383.80 2.606
383.90 2.606
384.00 2.606
384.10 2.606
384.20 2.606
384.30 2.606
384.40 2.606
384.50 2.606
384.60 2.605
384.70 2.605
384.80 2.604
384.90 2.604
385.00 2.603
385.10 2.602
385.20 2.6
385.30 2.599
385.40 2.597
385.50 2.596
385.60 2.594
385.70 2.592
385.80 2.59
385.90 2.587
386.00 2.585
386.10 2.582
386.20 2.579
386.30 2.576
386.40 2.573
386.50 2.569
386.60 2.566
386.70 2.562
386.80 2.558
386.90 2.554
387.00 2.549
387.10 2.544
387.20 2.539
387.30 2.534
387.40 2.529
387.50 2.523
387.60 2.517
387.70 2.511
387.80 2.505
387.90 2.498
388.00 2.492
388.10 2.485
388.20 2.477
388.30 2.47
388.40 2.463
388.50 2.456
388.60 2.449
388.70 2.443
388.80 2.438
388.90 2.435
389.00 2.434
389.10 2.434
389.20 2.436
389.30 2.439
389.40 2.442
389.50 2.445
389.60 2.448
389.70 2.451
389.80 2.454
389.90 2.456
390.00 2.459
390.10 2.461
390.20 2.463
390.30 2.465
390.40 2.467
390.50 2.468
390.60 2.469
390.70 2.47
390.80 2.471
390.90 2.472
391.00 2.472
391.10 2.472
391.20 2.472
391.30 2.472
391.40 2.472
391.50 2.471
391.60 2.471
391.70 2.47
391.80 2.469
391.90 2.468
392.00 2.467
392.10 2.466
392.20 2.464
392.30 2.462
392.40 2.461
392.50 2.459
392.60 2.457
392.70 2.455
392.80 2.452
392.90 2.45
393.00 2.448
393.10 2.445
393.20 2.442
393.30 2.439
393.40 2.436
393.50 2.433
393.60 2.429
393.70 2.426
393.80 2.422
393.90 2.418
394.00 2.414
394.10 2.41
394.20 2.406
394.30 2.401
394.40 2.396
394.50 2.391
394.60 2.386
394.70 2.38
394.80 2.374
394.90 2.368
395.00 2.362
395.10 2.355
395.20 2.348
395.30 2.341
395.40 2.333
395.50 2.325
395.60 2.317
395.70 2.308
395.80 2.299
395.90 2.289
396.00 2.279
396.10 2.269
396.20 2.259
396.30 2.248
396.40 2.237
396.50 2.225
396.60 2.213
396.70 2.201
396.80 2.189
396.90 2.178
397.00 2.167
397.10 2.173
397.20 2.18
397.30 2.188
397.40 2.196
397.50 2.204
397.60 2.212
397.70 2.219
397.80 2.225
397.90 2.232
398.00 2.238
398.10 2.244
398.20 2.249
398.30 2.254
398.40 2.259
398.50 2.263
398.60 2.267
398.70 2.271
398.80 2.274
398.90 2.277
399.00 2.279
399.10 2.282
399.20 2.284
399.30 2.285
399.40 2.287
399.50 2.288
399.60 2.289
399.70 2.29
399.80 2.291
399.90 2.291
400.00 2.291
400.10 2.292
400.20 2.291
400.30 2.291
400.40 2.291
400.50 2.291
400.60 2.29
400.70 2.29
400.80 2.289
400.90 2.288
401.00 2.287
401.10 2.286
401.20 2.285
401.30 2.284
401.40 2.283
401.50 2.281
401.60 2.28
401.70 2.279
401.80 2.277
401.90 2.276
402.00 2.274
402.10 2.273
402.20 2.271
402.30 2.269
402.40 2.268
402.50 2.266
402.60 2.264
402.70 2.262
402.80 2.26
402.90 2.258
403.00 2.257
403.10 2.255
403.20 2.253
403.30 2.251
403.40 2.249
403.50 2.246
403.60 2.244
403.70 2.242
403.80 2.24
403.90 2.238
404.00 2.236
404.10 2.233
404.20 2.231
404.30 2.229
404.40 2.226
404.50 2.224
404.60 2.222
404.70 2.219
404.80 2.217
404.90 2.214
405.00 2.212
405.10 2.209
405.20 2.206
405.30 2.204
405.40 2.201
405.50 2.198
405.60 2.195
405.70 2.192
405.80 2.189
405.90 2.186
406.00 2.183
406.10 2.18
406.20 2.176
406.30 2.173
406.40 2.17
406.50 2.166
406.60 2.162
406.70 2.158
406.80 2.154
406.90 2.15
407.00 2.146
407.10 2.141
407.20 2.137
407.30 2.132
407.40 2.127
407.50 2.122
407.60 2.116
407.70 2.11
407.80 2.105
407.90 2.098
408.00 2.091
408.10 2.085
408.20 2.077
408.30 2.069
408.40 2.061
408.50 2.053
408.60 2.044
408.70 2.035
408.80 2.025
408.90 2.014
409.00 2.003
409.10 1.992
409.20 1.98
409.30 1.967
409.40 1.954
409.50 1.94
409.60 1.926
409.70 1.911
409.80 1.895
409.90 1.879
410.00 1.864
410.10 1.856
410.20 1.855
410.30 1.857
410.40 1.864
410.50 1.877
410.60 1.889
410.70 1.901
410.80 1.912
410.90 1.923
411.00 1.933
411.10 1.942
411.20 1.951
411.30 1.959
411.40 1.966
411.50 1.973
411.60 1.979
411.70 1.985
411.80 1.991
411.90 1.996
412.00 2
412.10 2.004
412.20 2.008
412.30 2.011
412.40 2.014
412.50 2.016
412.60 2.019
412.70 2.02
412.80 2.022
412.90 2.024
413.00 2.025
413.10 2.026
413.20 2.027
413.30 2.027
413.40 2.028
413.50 2.028
413.60 2.028
413.70 2.028
413.80 2.028
413.90 2.028
414.00 2.027
414.10 2.027
414.20 2.026
414.30 2.026
414.40 2.025
414.50 2.024
414.60 2.023
414.70 2.022
414.80 2.022
414.90 2.02
415.00 2.019
415.10 2.018
415.20 2.017
415.30 2.016
415.40 2.015
415.50 2.014
415.60 2.012
415.70 2.011
415.80 2.01
415.90 2.008
416.00 2.007
416.10 2.005
416.20 2.004
416.30 2.002
416.40 2.001
416.50 2
416.60 1.998
416.70 1.996
416.80 1.995
416.90 1.993
417.00 1.992
417.10 1.99
417.20 1.989
417.30 1.987
417.40 1.985
417.50 1.984
417.60 1.982
417.70 1.981
417.80 1.979
417.90 1.977
418.00 1.976
418.10 1.974
418.20 1.972
418.30 1.971
418.40 1.969
418.50 1.967
418.60 1.966
418.70 1.964
418.80 1.962
418.90 1.961
419.00 1.959
419.10 1.957
419.20 1.956
419.30 1.954
419.40 1.952
419.50 1.951
419.60 1.949
419.70 1.947
419.80 1.945
419.90 1.944
420.00 1.942
420.10 1.94
420.20 1.939
420.30 1.937
420.40 1.935
420.50 1.934
420.60 1.932
420.70 1.93
420.80 1.928
420.90 1.927
421.00 1.925
421.10 1.923
421.20 1.922
421.30 1.92
421.40 1.918
421.50 1.916
421.60 1.915
421.70 1.913
421.80 1.911
421.90 1.91
422.00 1.908
422.10 1.906
422.20 1.904
422.30 1.903
422.40 1.901
422.50 1.899
422.60 1.897
422.70 1.896
422.80 1.894
422.90 1.892
423.00 1.891
423.10 1.889
423.20 1.887
423.30 1.885
423.40 1.884
423.50 1.882
423.60 1.88
423.70 1.879
423.80 1.877
423.90 1.875
424.00 1.873
424.10 1.872
424.20 1.87
424.30 1.868
424.40 1.866
424.50 1.865
424.60 1.863
424.70 1.861
424.80 1.86
424.90 1.858
425.00 1.856
425.10 1.854
425.20 1.853
425.30 1.851
425.40 1.849
425.50 1.847
425.60 1.846
425.70 1.844
425.80 1.842
425.90 1.84
426.00 1.839
426.10 1.837
426.20 1.835
426.30 1.833
426.40 1.831
426.50 1.83
426.60 1.828
426.70 1.826
426.80 1.824
426.90 1.822
427.00 1.821
427.10 1.819
427.20 1.817
427.30 1.815
427.40 1.813
427.50 1.811
427.60 1.81
427.70 1.808
427.80 1.806
427.90 1.804
428.00 1.802
428.10 1.8
428.20 1.798
428.30 1.796
428.40 1.794
428.50 1.792
428.60 1.79
428.70 1.788
428.80 1.786
428.90 1.784
429.00 1.781
429.10 1.779
429.20 1.777
429.30 1.775
429.40 1.773
429.50 1.77
429.60 1.768
429.70 1.765
429.80 1.763
429.90 1.76
430.00 1.758
430.10 1.755
430.20 1.752
430.30 1.75
430.40 1.747
430.50 1.744
430.60 1.74
430.70 1.737
430.80 1.734
430.90 1.73
431.00 1.727
431.10 1.723
431.20 1.719
431.30 1.715
431.40 1.71
431.50 1.706
431.60 1.701
431.70 1.696
431.80 1.691
431.90 1.685
432.00 1.679
432.10 1.673
432.20 1.666
432.30 1.659
432.40 1.651
432.50 1.643
432.60 1.635
432.70 1.626
432.80 1.616
432.90 1.606
433.00 1.595
433.10 1.584
433.20 1.572
433.30 1.56
433.40 1.547
433.50 1.533
433.60 1.519
433.70 1.503
433.80 1.487
433.90 1.469
434.00 1.454
434.10 1.453
434.20 1.467
434.30 1.482
434.40 1.496
434.50 1.508
434.60 1.52
434.70 1.531
434.80 1.541
434.90 1.551
435.00 1.56
435.10 1.568
435.20 1.576
435.30 1.583
435.40 1.59
435.50 1.596
435.60 1.601
435.70 1.606
435.80 1.611
435.90 1.615
436.00 1.619
436.10 1.622
436.20 1.625
436.30 1.627
436.40 1.63
436.50 1.632
436.60 1.633
436.70 1.635
436.80 1.636
436.90 1.637
437.00 1.638
437.10 1.639
437.20 1.639
437.30 1.64
437.40 1.64
437.50 1.64
437.60 1.64
437.70 1.64
437.80 1.64
437.90 1.64
438.00 1.64
438.10 1.639
438.20 1.639
438.30 1.638
438.40 1.638
438.50 1.637
438.60 1.636
438.70 1.635
438.80 1.635
438.90 1.634
439.00 1.633
439.10 1.632
439.20 1.631
439.30 1.63
439.40 1.629
439.50 1.628
439.60 1.627
439.70 1.626
439.80 1.625
439.90 1.624
440.00 1.623
440.10 1.622
440.20 1.621
440.30 1.62
440.40 1.619
440.50 1.617
440.60 1.616
440.70 1.615
440.80 1.614
440.90 1.613
441.00 1.611
441.10 1.61
441.20 1.609
441.30 1.608
441.40 1.607
441.50 1.605
441.60 1.604
441.70 1.603
441.80 1.602
441.90 1.6
442.00 1.599
442.10 1.598
442.20 1.597
442.30 1.595
442.40 1.594
442.50 1.593
442.60 1.591
442.70 1.59
442.80 1.589
442.90 1.588
443.00 1.586
443.10 1.585
443.20 1.584
443.30 1.582
443.40 1.581
443.50 1.58
443.60 1.579
443.70 1.577
443.80 1.576
443.90 1.575
444.00 1.573
444.10 1.572
444.20 1.571
444.30 1.569
444.40 1.568
444.50 1.567
444.60 1.566
444.70 1.564
444.80 1.563
444.90 1.562
445.00 1.56
445.10 1.559
445.20 1.558
445.30 1.556
445.40 1.555
445.50 1.554
445.60 1.553
445.70 1.551
445.80 1.55
445.90 1.549
446.00 1.547
446.10 1.546
446.20 1.545
446.30 1.544
446.40 1.542
446.50 1.541
446.60 1.54
446.70 1.538
446.80 1.537
446.90 1.536
447.00 1.534
447.10 1.533
447.20 1.532
447.30 1.531
447.40 1.529
447.50 1.528
447.60 1.527
447.70 1.525
447.80 1.524
447.90 1.523
448.00 1.522
448.10 1.52
448.20 1.519
448.30 1.518
448.40 1.516
448.50 1.515
448.60 1.514
448.70 1.513
448.80 1.511
448.90 1.51
449.00 1.509
449.10 1.508
449.20 1.506
449.30 1.505
449.40 1.504
449.50 1.502
449.60 1.501
449.70 1.5
449.80 1.499
449.90 1.497
450.00 1.496
450.10 1.495
450.20 1.494
450.30 1.492
450.40 1.491
450.50 1.49
450.60 1.489
450.70 1.487
450.80 1.486
450.90 1.485
451.00 1.484
451.10 1.482
451.20 1.481
451.30 1.48
451.40 1.479
451.50 1.477
451.60 1.476
451.70 1.475
451.80 1.474
451.90 1.472
452.00 1.471
452.10 1.47
452.20 1.469
452.30 1.468
452.40 1.466
452.50 1.465
452.60 1.464
452.70 1.463
452.80 1.461
452.90 1.46
453.00 1.459
453.10 1.458
453.20 1.456
453.30 1.455
453.40 1.454
453.50 1.453
453.60 1.452
453.70 1.45
453.80 1.449
453.90 1.448
454.00 1.447
454.10 1.445
454.20 1.444
454.30 1.443
454.40 1.442
454.50 1.441
454.60 1.439
454.70 1.438
454.80 1.437
454.90 1.436
455.00 1.435
455.10 1.433
455.20 1.432
455.30 1.431
455.40 1.43
455.50 1.429
455.60 1.427
455.70 1.426
455.80 1.425
455.90 1.424
456.00 1.423
456.10 1.421
456.20 1.42
456.30 1.419
456.40 1.418
456.50 1.417
456.60 1.416
456.70 1.414
456.80 1.413
456.90 1.412
457.00 1.411
457.10 1.41
457.20 1.408
457.30 1.407
457.40 1.406
457.50 1.405
457.60 1.404
457.70 1.403
457.80 1.401
457.90 1.4
458.00 1.399
458.10 1.398
458.20 1.397
458.30 1.396
458.40 1.394
458.50 1.393
458.60 1.392
458.70 1.391
458.80 1.39
458.90 1.389
459.00 1.388
459.10 1.386
459.20 1.385
459.30 1.384
459.40 1.383
459.50 1.382
459.60 1.381
459.70 1.379
459.80 1.378
459.90 1.377
460.00 1.376
460.10 1.375
460.20 1.374
460.30 1.373
460.40 1.371
460.50 1.37
460.60 1.369
460.70 1.368
460.80 1.367
460.90 1.366
461.00 1.365
461.10 1.364
461.20 1.362
461.30 1.361
461.40 1.36
461.50 1.359
461.60 1.358
461.70 1.357
461.80 1.356
461.90 1.354
462.00 1.353
462.10 1.352
462.20 1.351
462.30 1.35
462.40 1.349
462.50 1.348
462.60 1.347
462.70 1.346
462.80 1.344
462.90 1.343
463.00 1.342
463.10 1.341
463.20 1.34
463.30 1.339
463.40 1.338
463.50 1.337
463.60 1.336
463.70 1.334
463.80 1.333
463.90 1.332
464.00 1.331
464.10 1.33
464.20 1.329
464.30 1.328
464.40 1.327
464.50 1.326
464.60 1.325
464.70 1.324
464.80 1.322
464.90 1.321
465.00 1.32
465.10 1.319
465.20 1.318
465.30 1.317
465.40 1.316
465.50 1.315
465.60 1.314
465.70 1.313
465.80 1.312
465.90 1.311
466.00 1.309
466.10 1.308
466.20 1.307
466.30 1.306
466.40 1.305
466.50 1.304
466.60 1.303
466.70 1.302
466.80 1.301
466.90 1.3
467.00 1.299
467.10 1.298
467.20 1.297
467.30 1.295
467.40 1.294
467.50 1.293
467.60 1.292
467.70 1.291
467.80 1.29
467.90 1.289
468.00 1.288
468.10 1.287
468.20 1.286
468.30 1.285
468.40 1.284
468.50 1.283
468.60 1.282
468.70 1.281
468.80 1.28
468.90 1.279
469.00 1.278
469.10 1.276
469.20 1.275
469.30 1.274
469.40 1.273
469.50 1.272
469.60 1.271
469.70 1.27
469.80 1.269
469.90 1.268
470.00 1.267
470.10 1.266
470.20 1.265
470.30 1.264
470.40 1.263
470.50 1.262
470.60 1.261
470.70 1.26
470.80 1.259
470.90 1.258
471.00 1.257
471.10 1.256
471.20 1.255
471.30 1.254
471.40 1.253
471.50 1.252
471.60 1.251
471.70 1.25
471.80 1.248
471.90 1.247
472.00 1.246
472.10 1.245
472.20 1.244
472.30 1.243
472.40 1.242
472.50 1.241
472.60 1.24
472.70 1.239
472.80 1.238
472.90 1.237
473.00 1.236
473.10 1.235
473.20 1.234
473.30 1.233
473.40 1.232
473.50 1.231
473.60 1.23
473.70 1.229
473.80 1.228
473.90 1.227
474.00 1.226
474.10 1.225
474.20 1.224
474.30 1.223
474.40 1.222
474.50 1.221
474.60 1.22
474.70 1.219
474.80 1.218
474.90 1.217
475.00 1.216
475.10 1.215
475.20 1.214
475.30 1.213
475.40 1.212
475.50 1.211
475.60 1.21
475.70 1.209
475.80 1.208
475.90 1.207
476.00 1.206
476.10 1.205
476.20 1.204
476.30 1.203
476.40 1.202
476.50 1.201
476.60 1.2
476.70 1.199
476.80 1.198
476.90 1.197
477.00 1.196
477.10 1.195
477.20 1.194
477.30 1.193
477.40 1.192
477.50 1.191
477.60 1.189
477.70 1.188
477.80 1.187
477.90 1.186
478.00 1.185
478.10 1.184
478.20 1.183
478.30 1.182
478.40 1.181
478.50 1.18
478.60 1.179
478.70 1.178
478.80 1.177
478.90 1.176
479.00 1.175
479.10 1.174
479.20 1.173
479.30 1.172
479.40 1.17
479.50 1.169
479.60 1.168
479.70 1.167
479.80 1.166
479.90 1.165
480.00 1.164
480.10 1.163
480.20 1.161
480.30 1.16
480.40 1.159
480.50 1.158
480.60 1.157
480.70 1.155
480.80 1.154
480.90 1.153
481.00 1.152
481.10 1.151
481.20 1.149
481.30 1.148
481.40 1.146
481.50 1.145
481.60 1.143
481.70 1.142
481.80 1.141
481.90 1.139
482.00 1.138
482.10 1.136
482.20 1.135
482.30 1.133
482.40 1.131
482.50 1.129
482.60 1.127
482.70 1.125
482.80 1.123
482.90 1.121
483.00 1.119
483.10 1.118
483.20 1.115
483.30 1.112
483.40 1.109
483.50 1.106
483.60 1.103
483.70 1.1
483.80 1.097
483.90 1.094
484.00 1.092
484.10 1.089
484.20 1.085
484.30 1.08
484.40 1.076
484.50 1.072
484.60 1.067
484.70 1.062
484.80 1.056
484.90 1.05
485.00 1.044
485.10 1.038
485.20 1.031
485.30 1.024
485.40 1.016
485.50 1.008
485.60 0.9993
485.70 0.9899
485.80 0.9781
485.90 0.9652
486.00 0.9478
486.10 0.9404
486.20 0.9368
486.30 0.9523
486.40 0.9655
486.50 0.9771
486.60 0.9862
486.70 0.994
486.80 1.001
486.90 1.008
487.00 1.013
487.10 1.019
487.20 1.024
487.30 1.028
487.40 1.032
487.50 1.036
487.60 1.041
487.70 1.044
487.80 1.046
487.90 1.049
488.00 1.052
488.10 1.054
488.20 1.056
488.30 1.057
488.40 1.058
488.50 1.059
488.60 1.06
488.70 1.062
488.80 1.063
488.90 1.064
489.00 1.065
489.10 1.066
489.20 1.067
489.30 1.067
489.40 1.067
489.50 1.067
489.60 1.067
489.70 1.067
489.80 1.067
489.90 1.067
490.00 1.067
490.10 1.067
490.20 1.067
490.30 1.067
490.40 1.066
490.50 1.066
490.60 1.066
490.70 1.065
490.80 1.065
490.90 1.065
491.00 1.064
491.10 1.064
491.20 1.063
491.30 1.063
491.40 1.062
491.50 1.062
491.60 1.061
491.70 1.061
491.80 1.06
491.90 1.059
492.00 1.059
492.10 1.058
492.20 1.058
492.30 1.057
492.40 1.056
492.50 1.056
492.60 1.055
492.70 1.054
492.80 1.054
492.90 1.053
493.00 1.052
493.10 1.052
493.20 1.051
493.30 1.05
493.40 1.05
493.50 1.049
493.60 1.048
493.70 1.047
493.80 1.047
493.90 1.046
494.00 1.045
494.10 1.045
494.20 1.044
494.30 1.043
494.40 1.042
494.50 1.042
494.60 1.041
494.70 1.04
494.80 1.039
494.90 1.039
495.00 1.038
495.10 1.037
495.20 1.036
495.30 1.036
495.40 1.035
495.50 1.034
495.60 1.033
495.70 1.033
495.80 1.032
495.90 1.031
496.00 1.03
496.10 1.03
496.20 1.029
496.30 1.028
496.40 1.027
496.50 1.027
496.60 1.026
496.70 1.025
496.80 1.024
496.90 1.024
497.00 1.023
497.10 1.022
497.20 1.021
497.30 1.02
497.40 1.02
497.50 1.019
497.60 1.018
497.70 1.017
497.80 1.017
497.90 1.016
498.00 1.015
498.10 1.014
498.20 1.014
498.30 1.013
498.40 1.012
498.50 1.011
498.60 1.011
498.70 1.01
498.80 1.009
498.90 1.008
499.00 1.008
499.10 1.007
499.20 1.006
499.30 1.005
499.40 1.005
499.50 1.004
499.60 1.003
499.70 1.002
499.80 1.002
499.90 1.001
500.00 1
500.10 0.9992
500.20 0.9985
500.30 0.9977
500.40 0.997
500.50 0.9962
500.60 0.9955
500.70 0.9947
500.80 0.994
500.90 0.9932
501.00 0.9925
501.10 0.9917
501.20 0.991
501.30 0.9902
501.40 0.9895
501.50 0.9887
501.60 0.988
501.70 0.9872
501.80 0.9865
501.90 0.9858
502.00 0.985
502.10 0.9843
502.20 0.9835
502.30 0.9828
502.40 0.982
502.50 0.9813
502.60 0.9806
502.70 0.9798
502.80 0.9791
502.90 0.9783
503.00 0.9776
503.10 0.9769
503.20 0.9761
503.30 0.9754
503.40 0.9746
503.50 0.9739
503.60 0.9732
503.70 0.9724
503.80 0.9717
503.90 0.971
504.00 0.9702
504.10 0.9695
504.20 0.9688
504.30 0.968
504.40 0.9673
504.50 0.9666
504.60 0.9658
504.70 0.9651
504.80 0.9644
504.90 0.9637
505.00 0.9629
505.10 0.9622
505.20 0.9615
505.30 0.9608
505.40 0.96
505.50 0.9593
505.60 0.9586
505.70 0.9579
505.80 0.9571
505.90 0.9564
506.00 0.9557
506.10 0.955
506.20 0.9543
506.30 0.9535
506.40 0.9528
506.50 0.9521
506.60 0.9514
506.70 0.9507
506.80 0.95
506.90 0.9492
507.00 0.9485
507.10 0.9478
507.20 0.9471
507.30 0.9464
507.40 0.9457
507.50 0.945
507.60 0.9443
507.70 0.9435
507.80 0.9428
507.90 0.9421
508.00 0.9414
508.10 0.9407
508.20 0.94
508.30 0.9393
508.40 0.9386
508.50 0.9379
508.60 0.9372
508.70 0.9365
508.80 0.9358
508.90 0.9351
509.00 0.9344
509.10 0.9337
509.20 0.933
509.30 0.9323
509.40 0.9316
509.50 0.9309
509.60 0.9302
509.70 0.9295
509.80 0.9288
509.90 0.9281
510.00 0.9274
510.10 0.9267
510.20 0.926
510.30 0.9253
510.40 0.9246
510.50 0.9239
510.60 0.9232
510.70 0.9225
510.80 0.9218
510.90 0.9212
511.00 0.9205
511.10 0.9198
511.20 0.9191
511.30 0.9184
511.40 0.9177
511.50 0.917
511.60 0.9163
511.70 0.9157
511.80 0.915
511.90 0.9143
512.00 0.9136
512.10 0.9129
512.20 0.9122
512.30 0.9116
512.40 0.9109
512.50 0.9102
512.60 0.9095
512.70 0.9088
512.80 0.9082
512.90 0.9075
513.00 0.9068
513.10 0.9061
513.20 0.9055
513.30 0.9048
513.40 0.9041
513.50 0.9034
513.60 0.9028
513.70 0.9021
513.80 0.9014
513.90 0.9007
514.00 0.9001
514.10 0.8994
514.20 0.8987
514.30 0.8981
514.40 0.8974
514.50 0.8967
514.60 0.8961
514.70 0.8954
514.80 0.8947
514.90 0.8941
515.00 0.8934
515.10 0.8927
515.20 0.8921
515.30 0.8914
515.40 0.8908
515.50 0.8901
515.60 0.8894
515.70 0.8888
515.80 0.8881
515.90 0.8875
516.00 0.8868
516.10 0.8861
516.20 0.8855
516.30 0.8848
516.40 0.8842
516.50 0.8835
516.60 0.8829
516.70 0.8822
516.80 0.8815
516.90 0.8809
517.00 0.8802
517.10 0.8796
517.20 0.8789
517.30 0.8783
517.40 0.8776
517.50 0.877
517.60 0.8763
517.70 0.8757
517.80 0.875
517.90 0.8744
518.00 0.8738
518.10 0.8731
518.20 0.8725
518.30 0.8718
518.40 0.8712
518.50 0.8705
518.60 0.8699
518.70 0.8692
518.80 0.8686
518.90 0.868
519.00 0.8673
519.10 0.8667
519.20 0.866
519.30 0.8654
519.40 0.8648
519.50 0.8641
519.60 0.8635
519.70 0.8629
519.80 0.8622
519.90 0.8616
520.00 0.8609
520.10 0.8603
520.20 0.8597
520.30 0.859
520.40 0.8584
520.50 0.8578
520.60 0.8572
520.70 0.8565
520.80 0.8559
520.90 0.8553
521.00 0.8546
521.10 0.854
521.20 0.8534
521.30 0.8528
521.40 0.8521
521.50 0.8515
521.60 0.8509
521.70 0.8503
521.80 0.8496
521.90 0.849
522.00 0.8484
522.10 0.8478
522.20 0.8471
522.30 0.8465
522.40 0.8459
522.50 0.8453
522.60 0.8447
522.70 0.844
522.80 0.8434
522.90 0.8428
523.00 0.8422
523.10 0.8416
523.20 0.8409
523.30 0.8403
523.40 0.8397
523.50 0.8391
523.60 0.8385
523.70 0.8379
523.80 0.8373
523.90 0.8366
524.00 0.836
524.10 0.8354
524.20 0.8348
524.30 0.8342
524.40 0.8336
524.50 0.833
524.60 0.8324
524.70 0.8318
524.80 0.8312
524.90 0.8306
525.00 0.8299
525.10 0.8293
525.20 0.8287
525.30 0.8281
525.40 0.8275
525.50 0.8269
525.60 0.8263
525.70 0.8257
525.80 0.8251
525.90 0.8245
526.00 0.8239
526.10 0.8233
526.20 0.8227
526.30 0.8221
526.40 0.8215
526.50 0.8209
526.60 0.8203
526.70 0.8197
526.80 0.8191
526.90 0.8185
527.00 0.8179
527.10 0.8173
527.20 0.8167
527.30 0.8162
527.40 0.8156
527.50 0.815
527.60 0.8144
527.70 0.8138
527.80 0.8132
527.90 0.8126
528.00 0.812
528.10 0.8114
528.20 0.8108
528.30 0.8102
528.40 0.8097
528.50 0.8091
528.60 0.8085
528.70 0.8079
528.80 0.8073
528.90 0.8067
529.00 0.8061
529.10 0.8056
529.20 0.805
529.30 0.8044
529.40 0.8038
529.50 0.8032
529.60 0.8026
529.70 0.8021
529.80 0.8015
529.90 0.8009
530.00 0.8003
530.10 0.7997
530.20 0.7992
530.30 0.7986
530.40 0.798
530.50 0.7974
530.60 0.7969
530.70 0.7963
530.80 0.7957
530.90 0.7951
531.00 0.7946
531.10 0.794
531.20 0.7934
531.30 0.7928
531.40 0.7923
531.50 0.7917
531.60 0.7911
531.70 0.7906
531.80 0.79
531.90 0.7894
532.00 0.7888
532.10 0.7883
532.20 0.7877
532.30 0.7871
532.40 0.7866
532.50 0.786
532.60 0.7854
532.70 0.7849
532.80 0.7843
532.90 0.7838
533.00 0.7832
533.10 0.7826
533.20 0.7821
533.30 0.7815
533.40 0.7809
533.50 0.7804
533.60 0.7798
533.70 0.7793
533.80 0.7787
533.90 0.7781
534.00 0.7776
534.10 0.777
534.20 0.7765
534.30 0.7759
534.40 0.7753
534.50 0.7748
534.60 0.7742
534.70 0.7737
534.80 0.7731
534.90 0.7726
535.00 0.772
535.10 0.7715
535.20 0.7709
535.30 0.7704
535.40 0.7698
535.50 0.7693
535.60 0.7687
535.70 0.7682
535.80 0.7676
535.90 0.7671
536.00 0.7665
536.10 0.766
536.20 0.7654
536.30 0.7649
536.40 0.7643
536.50 0.7638
536.60 0.7632
536.70 0.7627
536.80 0.7621
536.90 0.7616
537.00 0.761
537.10 0.7605
537.20 0.76
537.30 0.7594
537.40 0.7589
537.50 0.7583
537.60 0.7578
537.70 0.7572
537.80 0.7567
537.90 0.7562
538.00 0.7556
538.10 0.7551
538.20 0.7546
538.30 0.754
538.40 0.7535
538.50 0.7529
538.60 0.7524
538.70 0.7519
538.80 0.7513
538.90 0.7508
539.00 0.7503
539.10 0.7497
539.20 0.7492
539.30 0.7487
539.40 0.7481
539.50 0.7476
539.60 0.7471
539.70 0.7465
539.80 0.746
539.90 0.7455
540.00 0.7449
540.10 0.7444
540.20 0.7439
540.30 0.7434
540.40 0.7428
540.50 0.7423
540.60 0.7418
540.70 0.7413
540.80 0.7407
540.90 0.7402
541.00 0.7397
541.10 0.7392
541.20 0.7386
541.30 0.7381
541.40 0.7376
541.50 0.7371
541.60 0.7365
541.70 0.736
541.80 0.7355
541.90 0.735
542.00 0.7345
542.10 0.7339
542.20 0.7334
542.30 0.7329
542.40 0.7324
542.50 0.7319
542.60 0.7313
542.70 0.7308
542.80 0.7303
542.90 0.7298
543.00 0.7293
543.10 0.7288
543.20 0.7282
543.30 0.7277
543.40 0.7272
543.50 0.7267
543.60 0.7262
543.70 0.7257
543.80 0.7252
543.90 0.7247
544.00 0.7241
544.10 0.7236
544.20 0.7231
544.30 0.7226
544.40 0.7221
544.50 0.7216
544.60 0.7211
544.70 0.7206
544.80 0.7201
544.90 0.7196
545.00 0.7191
545.10 0.7185
545.20 0.718
545.30 0.7175
545.40 0.717
545.50 0.7165
545.60 0.716
545.70 0.7155
545.80 0.715
545.90 0.7145
546.00 0.714
546.10 0.7135
546.20 0.713
546.30 0.7125
546.40 0.712
546.50 0.7115
546.60 0.711
546.70 0.7105
546.80 0.71
546.90 0.7095
547.00 0.709
547.10 0.7085
547.20 0.708
547.30 0.7075
547.40 0.707
547.50 0.7065
547.60 0.706
547.70 0.7055
547.80 0.7051
547.90 0.7046
548.00 0.7041
548.10 0.7036
548.20 0.7031
548.30 0.7026
548.40 0.7021
548.50 0.7016
548.60 0.7011
548.70 0.7006
548.80 0.7001
548.90 0.6996
549.00 0.6992
549.10 0.6987
549.20 0.6982
549.30 0.6977
549.40 0.6972
549.50 0.6967
549.60 0.6962
549.70 0.6957
549.80 0.6953
549.90 0.6948
550.00 0.6943
550.10 0.6938
550.20 0.6933
550.30 0.6928
550.40 0.6923
550.50 0.6919
550.60 0.6914
550.70 0.6909
550.80 0.6904
550.90 0.6899
551.00 0.6895
551.10 0.689
551.20 0.6885
551.30 0.688
551.40 0.6875
551.50 0.6871
551.60 0.6866
551.70 0.6861
551.80 0.6856
551.90 0.6852
552.00 0.6847
552.10 0.6842
552.20 0.6837
552.30 0.6832
552.40 0.6828
552.50 0.6823
552.60 0.6818
552.70 0.6814
552.80 0.6809
552.90 0.6804
553.00 0.6799
553.10 0.6795
553.20 0.679
553.30 0.6785
553.40 0.678
553.50 0.6776
553.60 0.6771
553.70 0.6766
553.80 0.6762
553.90 0.6757
554.00 0.6752
554.10 0.6748
554.20 0.6743
554.30 0.6738
554.40 0.6734
554.50 0.6729
554.60 0.6724
554.70 0.672
554.80 0.6715
554.90 0.671
555.00 0.6706
555.10 0.6701
555.20 0.6696
555.30 0.6692
555.40 0.6687
555.50 0.6683
555.60 0.6678
555.70 0.6673
555.80 0.6669
555.90 0.6664
556.00 0.6659
556.10 0.6655
556.20 0.665
556.30 0.6646
556.40 0.6641
556.50 0.6637
556.60 0.6632
556.70 0.6627
556.80 0.6623
556.90 0.6618
557.00 0.6614
557.10 0.6609
557.20 0.6605
557.30 0.66
557.40 0.6595
557.50 0.6591
557.60 0.6586
557.70 0.6582
557.80 0.6577
557.90 0.6573
558.00 0.6568
558.10 0.6564
558.20 0.6559
558.30 0.6555
558.40 0.655
558.50 0.6546
558.60 0.6541
558.70 0.6537
558.80 0.6532
558.90 0.6528
559.00 0.6523
559.10 0.6519
559.20 0.6514
559.30 0.651
559.40 0.6505
559.50 0.6501
559.60 0.6496
559.70 0.6492
559.80 0.6488
559.90 0.6483
560.00 0.6479
560.10 0.6474
560.20 0.647
560.30 0.6465
560.40 0.6461
560.50 0.6456
560.60 0.6452
560.70 0.6448
560.80 0.6443
560.90 0.6439
561.00 0.6434
561.10 0.643
561.20 0.6426
561.30 0.6421
561.40 0.6417
561.50 0.6412
561.60 0.6408
561.70 0.6404
561.80 0.6399
561.90 0.6395
562.00 0.639
562.10 0.6386
562.20 0.6382
562.30 0.6377
562.40 0.6373
562.50 0.6369
562.60 0.6364
562.70 0.636
562.80 0.6356
562.90 0.6351
563.00 0.6347
563.10 0.6343
563.20 0.6338
563.30 0.6334
563.40 0.633
563.50 0.6325
563.60 0.6321
563.70 0.6317
563.80 0.6312
563.90 0.6308
564.00 0.6304
564.10 0.63
564.20 0.6295
564.30 0.6291
564.40 0.6287
564.50 0.6282
564.60 0.6278
564.70 0.6274
564.80 0.627
564.90 0.6265
565.00 0.6261
565.10 0.6257
565.20 0.6253
565.30 0.6248
565.40 0.6244
565.50 0.624
565.60 0.6236
565.70 0.6231
565.80 0.6227
565.90 0.6223
566.00 0.6219
566.10 0.6214
566.20 0.621
566.30 0.6206
566.40 0.6202
566.50 0.6198
566.60 0.6193
566.70 0.6189
566.80 0.6185
566.90 0.6181
567.00 0.6177
567.10 0.6172
567.20 0.6168
567.30 0.6164
567.40 0.616
567.50 0.6156
567.60 0.6152
567.70 0.6147
567.80 0.6143
567.90 0.6139
568.00 0.6135
568.10 0.6131
568.20 0.6127
568.30 0.6123
568.40 0.6118
568.50 0.6114
568.60 0.611
568.70 0.6106
568.80 0.6102
568.90 0.6098
569.00 0.6094
569.10 0.609
569.20 0.6085
569.30 0.6081
569.40 0.6077
569.50 0.6073
569.60 0.6069
569.70 0.6065
569.80 0.6061
569.90 0.6057
570.00 0.6053
570.10 0.6049
570.20 0.6044
570.30 0.604
570.40 0.6036
570.50 0.6032
570.60 0.6028
570.70 0.6024
570.80 0.602
570.90 0.6016
571.00 0.6012
571.10 0.6008
571.20 0.6004
571.30 0.6
571.40 0.5996
571.50 0.5992
571.60 0.5988
571.70 0.5984
571.80 0.598
571.90 0.5976
572.00 0.5972
572.10 0.5968
572.20 0.5964
572.30 0.596
572.40 0.5956
572.50 0.5952
572.60 0.5948
572.70 0.5944
572.80 0.594
572.90 0.5936
573.00 0.5932
573.10 0.5928
573.20 0.5924
573.30 0.592
573.40 0.5916
573.50 0.5912
573.60 0.5908
573.70 0.5904
573.80 0.59
573.90 0.5896
574.00 0.5892
574.10 0.5888
574.20 0.5884
574.30 0.588
574.40 0.5876
574.50 0.5872
574.60 0.5869
574.70 0.5865
574.80 0.5861
574.90 0.5857
575.00 0.5853
575.10 0.5849
575.20 0.5845
575.30 0.5841
575.40 0.5837
575.50 0.5833
575.60 0.5829
575.70 0.5826
575.80 0.5822
575.90 0.5818
576.00 0.5814
576.10 0.581
576.20 0.5806
576.30 0.5802
576.40 0.5798
576.50 0.5794
576.60 0.5791
576.70 0.5787
576.80 0.5783
576.90 0.5779
577.00 0.5775
577.10 0.5771
577.20 0.5768
577.30 0.5764
577.40 0.576
577.50 0.5756
577.60 0.5752
577.70 0.5748
577.80 0.5745
577.90 0.5741
578.00 0.5737
578.10 0.5733
578.20 0.5729
578.30 0.5725
578.40 0.5722
578.50 0.5718
578.60 0.5714
578.70 0.571
578.80 0.5706
578.90 0.5703
579.00 0.5699
579.10 0.5695
579.20 0.5691
579.30 0.5688
579.40 0.5684
579.50 0.568
579.60 0.5676
579.70 0.5672
579.80 0.5669
579.90 0.5665
580.00 0.5661
580.10 0.5657
580.20 0.5654
580.30 0.565
580.40 0.5646
580.50 0.5642
580.60 0.5639
580.70 0.5635
580.80 0.5631
580.90 0.5628
581.00 0.5624
581.10 0.562
581.20 0.5616
581.30 0.5613
581.40 0.5609
581.50 0.5605
581.60 0.5602
581.70 0.5598
581.80 0.5594
581.90 0.559
582.00 0.5587
582.10 0.5583
582.20 0.5579
582.30 0.5576
582.40 0.5572
582.50 0.5568
582.60 0.5565
582.70 0.5561
582.80 0.5557
582.90 0.5554
583.00 0.555
583.10 0.5546
583.20 0.5543
583.30 0.5539
583.40 0.5535
583.50 0.5532
583.60 0.5528
583.70 0.5524
583.80 0.5521
583.90 0.5517
584.00 0.5514
584.10 0.551
584.20 0.5506
584.30 0.5503
584.40 0.5499
584.50 0.5495
584.60 0.5492
584.70 0.5488
584.80 0.5485
584.90 0.5481
585.00 0.5477
585.10 0.5474
585.20 0.547
585.30 0.5467
585.40 0.5463
585.50 0.5459
585.60 0.5456
585.70 0.5452
585.80 0.5449
585.90 0.5445
586.00 0.5441
586.10 0.5438
586.20 0.5434
586.30 0.5431
586.40 0.5427
586.50 0.5424
586.60 0.542
586.70 0.5417
586.80 0.5413
586.90 0.5409
587.00 0.5406
587.10 0.5402
587.20 0.5399
587.30 0.5395
587.40 0.5392
587.50 0.5388
587.60 0.5385
587.70 0.5381
587.80 0.5378
587.90 0.5374
588.00 0.5371
588.10 0.5367
588.20 0.5364
588.30 0.536
588.40 0.5357
588.50 0.5353
588.60 0.535
588.70 0.5346
588.80 0.5343
588.90 0.5339
589.00 0.5336
589.10 0.5332
589.20 0.5329
589.30 0.5325
589.40 0.5322
589.50 0.5318
589.60 0.5315
589.70 0.5311
589.80 0.5308
589.90 0.5304
590.00 0.5301
590.10 0.5297
590.20 0.5294
590.30 0.5291
590.40 0.5287
590.50 0.5284
590.60 0.528
590.70 0.5277
590.80 0.5273
590.90 0.527
591.00 0.5267
591.10 0.5263
591.20 0.526
591.30 0.5256
591.40 0.5253
591.50 0.5249
591.60 0.5246
591.70 0.5243
591.80 0.5239
591.90 0.5236
592.00 0.5232
592.10 0.5229
592.20 0.5226
592.30 0.5222
592.40 0.5219
592.50 0.5215
592.60 0.5212
592.70 0.5209
592.80 0.5205
592.90 0.5202
593.00 0.5198
593.10 0.5195
593.20 0.5192
593.30 0.5188
593.40 0.5185
593.50 0.5182
593.60 0.5178
593.70 0.5175
593.80 0.5172
593.90 0.5168
594.00 0.5165
594.10 0.5162
594.20 0.5158
594.30 0.5155
594.40 0.5152
594.50 0.5148
594.60 0.5145
594.70 0.5142
594.80 0.5138
594.90 0.5135
595.00 0.5132
595.10 0.5128
595.20 0.5125
595.30 0.5122
595.40 0.5118
595.50 0.5115
595.60 0.5112
595.70 0.5108
595.80 0.5105
595.90 0.5102
596.00 0.5099
596.10 0.5095
596.20 0.5092
596.30 0.5089
596.40 0.5085
596.50 0.5082
596.60 0.5079
596.70 0.5076
596.80 0.5072
596.90 0.5069
597.00 0.5066
597.10 0.5062
597.20 0.5059
597.30 0.5056
597.40 0.5053
597.50 0.5049
597.60 0.5046
597.70 0.5043
597.80 0.504
597.90 0.5036
598.00 0.5033
598.10 0.503
598.20 0.5027
598.30 0.5023
598.40 0.502
598.50 0.5017
598.60 0.5014
598.70 0.5011
598.80 0.5007
598.90 0.5004
599.00 0.5001
599.10 0.4998
599.20 0.4995
599.30 0.4991
599.40 0.4988
599.50 0.4985
599.60 0.4982
599.70 0.4979
599.80 0.4975
599.90 0.4972
600.00 0.4969
600.10 0.4966
600.20 0.4963
600.30 0.4959
600.40 0.4956
600.50 0.4953
600.60 0.495
600.70 0.4947
600.80 0.4944
600.90 0.494
601.00 0.4937
601.10 0.4934
601.20 0.4931
601.30 0.4928
601.40 0.4925
601.50 0.4921
601.60 0.4918
601.70 0.4915
601.80 0.4912
601.90 0.4909
602.00 0.4906
602.10 0.4903
602.20 0.4899
602.30 0.4896
602.40 0.4893
602.50 0.489
602.60 0.4887
602.70 0.4884
602.80 0.4881
602.90 0.4878
603.00 0.4874
603.10 0.4871
603.20 0.4868
603.30 0.4865
603.40 0.4862
603.50 0.4859
603.60 0.4856
603.70 0.4853
603.80 0.485
603.90 0.4847
604.00 0.4843
604.10 0.484
604.20 0.4837
604.30 0.4834
604.40 0.4831
604.50 0.4828
604.60 0.4825
604.70 0.4822
604.80 0.4819
604.90 0.4816
605.00 0.4813
605.10 0.481
605.20 0.4807
605.30 0.4804
605.40 0.48
605.50 0.4797
605.60 0.4794
605.70 0.4791
605.80 0.4788
605.90 0.4785
606.00 0.4782
606.10 0.4779
606.20 0.4776
606.30 0.4773
606.40 0.477
606.50 0.4767
606.60 0.4764
606.70 0.4761
606.80 0.4758
606.90 0.4755
607.00 0.4752
607.10 0.4749
607.20 0.4746
607.30 0.4743
607.40 0.474
607.50 0.4737
607.60 0.4734
607.70 0.4731
607.80 0.4728
607.90 0.4725
608.00 0.4722
608.10 0.4719
608.20 0.4716
608.30 0.4713
608.40 0.471
608.50 0.4707
608.60 0.4704
608.70 0.4701
608.80 0.4698
608.90 0.4695
609.00 0.4692
609.10 0.4689
609.20 0.4686
609.30 0.4683
609.40 0.468
609.50 0.4677
609.60 0.4674
609.70 0.4671
609.80 0.4668
609.90 0.4666
610.00 0.4663
610.10 0.466
610.20 0.4657
610.30 0.4654
610.40 0.4651
610.50 0.4648
610.60 0.4645
610.70 0.4642
610.80 0.4639
610.90 0.4636
611.00 0.4633
611.10 0.463
611.20 0.4627
611.30 0.4624
611.40 0.4622
611.50 0.4619
611.60 0.4616
611.70 0.4613
611.80 0.461
611.90 0.4607
612.00 0.4604
612.10 0.4601
612.20 0.4598
612.30 0.4595
612.40 0.4593
612.50 0.459
612.60 0.4587
612.70 0.4584
612.80 0.4581
612.90 0.4578
613.00 0.4575
613.10 0.4572
613.20 0.457
613.30 0.4567
613.40 0.4564
613.50 0.4561
613.60 0.4558
613.70 0.4555
613.80 0.4552
613.90 0.4549
614.00 0.4547
614.10 0.4544
614.20 0.4541
614.30 0.4538
614.40 0.4535
614.50 0.4532
614.60 0.453
614.70 0.4527
614.80 0.4524
614.90 0.4521
615.00 0.4518
615.10 0.4515
615.20 0.4513
615.30 0.451
615.40 0.4507
615.50 0.4504
615.60 0.4501
615.70 0.4498
615.80 0.4496
615.90 0.4493
616.00 0.449
616.10 0.4487
616.20 0.4484
616.30 0.4482
616.40 0.4479
616.50 0.4476
616.60 0.4473
616.70 0.447
616.80 0.4468
616.90 0.4465
617.00 0.4462
617.10 0.4459
617.20 0.4456
617.30 0.4454
617.40 0.4451
617.50 0.4448
617.60 0.4445
617.70 0.4443
617.80 0.444
617.90 0.4437
618.00 0.4434
618.10 0.4432
618.20 0.4429
618.30 0.4426
618.40 0.4423
618.50 0.442
618.60 0.4418
618.70 0.4415
618.80 0.4412
618.90 0.4409
619.00 0.4407
619.10 0.4404
619.20 0.4401
619.30 0.4399
619.40 0.4396
619.50 0.4393
619.60 0.439
619.70 0.4388
619.80 0.4385
619.90 0.4382
620.00 0.4379
620.10 0.4377
620.20 0.4374
620.30 0.4371
620.40 0.4369
620.50 0.4366
620.60 0.4363
620.70 0.436
620.80 0.4358
620.90 0.4355
621.00 0.4352
621.10 0.435
621.20 0.4347
621.30 0.4344
621.40 0.4342
621.50 0.4339
621.60 0.4336
621.70 0.4333
621.80 0.4331
621.90 0.4328
622.00 0.4325
622.10 0.4323
622.20 0.432
622.30 0.4317
622.40 0.4315
622.50 0.4312
622.60 0.4309
622.70 0.4307
622.80 0.4304
622.90 0.4301
623.00 0.4299
623.10 0.4296
623.20 0.4293
623.30 0.4291
623.40 0.4288
623.50 0.4285
623.60 0.4283
623.70 0.428
623.80 0.4277
623.90 0.4275
624.00 0.4272
624.10 0.427
624.20 0.4267
624.30 0.4264
624.40 0.4262
624.50 0.4259
624.60 0.4256
624.70 0.4254
624.80 0.4251
624.90 0.4248
625.00 0.4246
625.10 0.4243
625.20 0.4241
625.30 0.4238
625.40 0.4235
625.50 0.4233
625.60 0.423
625.70 0.4228
625.80 0.4225
625.90 0.4222
626.00 0.422
626.10 0.4217
626.20 0.4215
626.30 0.4212
626.40 0.4209
626.50 0.4207
626.60 0.4204
626.70 0.4202
626.80 0.4199
626.90 0.4196
627.00 0.4194
627.10 0.4191
627.20 0.4189
627.30 0.4186
627.40 0.4184
627.50 0.4181
627.60 0.4178
627.70 0.4176
627.80 0.4173
627.90 0.4171
628.00 0.4168
628.10 0.4166
628.20 0.4163
628.30 0.416
628.40 0.4158
628.50 0.4155
628.60 0.4153
628.70 0.415
628.80 0.4148
628.90 0.4145
629.00 0.4143
629.10 0.414
629.20 0.4138
629.30 0.4135
629.40 0.4132
629.50 0.413
629.60 0.4127
629.70 0.4125
629.80 0.4122
629.90 0.412
630.00 0.4117
630.10 0.4115
630.20 0.4112
630.30 0.411
630.40 0.4107
630.50 0.4105
630.60 0.4102
630.70 0.41
630.80 0.4097
630.90 0.4095
631.00 0.4092
631.10 0.409
631.20 0.4087
631.30 0.4085
631.40 0.4082
631.50 0.408
631.60 0.4077
631.70 0.4075
631.80 0.4072
631.90 0.407
632.00 0.4067
632.10 0.4065
632.20 0.4062
632.30 0.406
632.40 0.4057
632.50 0.4055
632.60 0.4052
632.70 0.405
632.80 0.4047
632.90 0.4045
633.00 0.4042
633.10 0.404
633.20 0.4037
633.30 0.4035
633.40 0.4033
633.50 0.403
633.60 0.4028
633.70 0.4025
633.80 0.4023
633.90 0.402
634.00 0.4018
634.10 0.4015
634.20 0.4013
634.30 0.401
634.40 0.4008
634.50 0.4006
634.60 0.4003
634.70 0.4001
634.80 0.3998
634.90 0.3996
635.00 0.3993
635.10 0.3991
635.20 0.3989
635.30 0.3986
635.40 0.3984
635.50 0.3981
635.60 0.3979
635.70 0.3976
635.80 0.3974
635.90 0.3972
636.00 0.3969
636.10 0.3967
636.20 0.3964
636.30 0.3962
636.40 0.396
636.50 0.3957
636.60 0.3955
636.70 0.3952
636.80 0.395
636.90 0.3947
637.00 0.3945
637.10 0.3943
637.20 0.394
637.30 0.3938
637.40 0.3935
637.50 0.3933
637.60 0.3931
637.70 0.3928
637.80 0.3926
637.90 0.3924
638.00 0.3921
638.10 0.3919
638.20 0.3916
638.30 0.3914
638.40 0.3912
638.50 0.3909
638.60 0.3907
638.70 0.3904
638.80 0.3902
638.90 0.39
639.00 0.3897
639.10 0.3895
639.20 0.3893
639.30 0.389
639.40 0.3888
639.50 0.3886
639.60 0.3883
639.70 0.3881
639.80 0.3878
639.90 0.3876
640.00 0.3874
640.10 0.3871
640.20 0.3869
640.30 0.3867
640.40 0.3864
640.50 0.3862
640.60 0.386
640.70 0.3857
640.80 0.3855
640.90 0.3853
641.00 0.385
641.10 0.3848
641.20 0.3846
641.30 0.3843
641.40 0.3841
641.50 0.3839
641.60 0.3836
641.70 0.3834
641.80 0.3832
641.90 0.3829
642.00 0.3827
642.10 0.3825
642.20 0.3822
642.30 0.382
642.40 0.3818
642.50 0.3815
642.60 0.3813
642.70 0.3811
642.80 0.3808
642.90 0.3806
643.00 0.3804
643.10 0.3801
643.20 0.3799
643.30 0.3797
643.40 0.3794
643.50 0.3792
643.60 0.379
643.70 0.3787
643.80 0.3785
643.90 0.3783
644.00 0.378
644.10 0.3778
644.20 0.3776
644.30 0.3773
644.40 0.3771
644.50 0.3769
644.60 0.3766
644.70 0.3764
644.80 0.3762
644.90 0.3759
645.00 0.3757
645.10 0.3755
645.20 0.3753
645.30 0.375
645.40 0.3748
645.50 0.3746
645.60 0.3743
645.70 0.3741
645.80 0.3739
645.90 0.3736
646.00 0.3734
646.10 0.3732
646.20 0.3729
646.30 0.3727
646.40 0.3725
646.50 0.3722
646.60 0.372
646.70 0.3718
646.80 0.3715
646.90 0.3713
647.00 0.3711
647.10 0.3708
647.20 0.3706
647.30 0.3704
647.40 0.3701
647.50 0.3699
647.60 0.3696
647.70 0.3694
647.80 0.3692
647.90 0.3689
648.00 0.3687
648.10 0.3685
648.20 0.3682
648.30 0.368
648.40 0.3677
648.50 0.3675
648.60 0.3672
648.70 0.367
648.80 0.3668
648.90 0.3665
649.00 0.3663
649.10 0.366
649.20 0.3658
649.30 0.3655
649.40 0.3653
649.50 0.365
649.60 0.3648
649.70 0.3645
649.80 0.3642
649.90 0.364
650.00 0.3637
650.10 0.3635
650.20 0.3632
650.30 0.363
650.40 0.3627
650.50 0.3624
650.60 0.3621
650.70 0.3618
650.80 0.3615
650.90 0.3613
651.00 0.361
651.10 0.3607
651.20 0.3604
651.30 0.3601
651.40 0.3598
651.50 0.3595
651.60 0.3591
651.70 0.3588
651.80 0.3585
651.90 0.3581
652.00 0.3578
652.10 0.3575
652.20 0.3571
652.30 0.3568
652.40 0.3564
652.50 0.3559
652.60 0.3555
652.70 0.355
652.80 0.3546
652.90 0.3542
653.00 0.3537
653.10 0.3533
653.20 0.3528
653.30 0.3524
653.40 0.3517
653.50 0.351
653.60 0.3503
653.70 0.3496
653.80 0.3489
653.90 0.3482
654.00 0.3475
654.10 0.3468
654.20 0.3462
654.30 0.3454
654.40 0.3443
654.50 0.3433
654.60 0.3422
654.70 0.3411
654.80 0.34
654.90 0.3385
655.00 0.337
655.10 0.3355
655.20 0.334
655.30 0.3324
655.40 0.3305
655.50 0.3284
655.60 0.326
655.70 0.3235
655.80 0.3203
655.90 0.3165
656.00 0.3104
656.10 0.3036
656.20 0.2966
656.30 0.3093
656.40 0.2964
656.50 0.3057
656.60 0.3116
656.70 0.3168
656.80 0.3196
656.90 0.3223
657.00 0.3243
657.10 0.3262
657.20 0.3277
657.30 0.3292
657.40 0.3303
657.50 0.3314
657.60 0.3325
657.70 0.3336
657.80 0.3346
657.90 0.3352
658.00 0.3359
658.10 0.3366
658.20 0.3372
658.30 0.3378
658.40 0.3381
658.50 0.3383
658.60 0.3386
658.70 0.3389
658.80 0.3391
658.90 0.3394
659.00 0.3397
659.10 0.34
659.20 0.3402
659.30 0.3404
659.40 0.3405
659.50 0.3405
659.60 0.3405
659.70 0.3405
659.80 0.3405
659.90 0.3406
660.00 0.3406
660.10 0.3406
660.20 0.3406
660.30 0.3406
660.40 0.3405
660.50 0.3404
660.60 0.3404
660.70 0.3403
660.80 0.3402
660.90 0.3401
661.00 0.34
661.10 0.3399
661.20 0.3398
661.30 0.3397
661.40 0.3396
661.50 0.3395
661.60 0.3393
661.70 0.3392
661.80 0.339
661.90 0.3389
662.00 0.3388
662.10 0.3386
662.20 0.3385
662.30 0.3384
662.40 0.3382
662.50 0.338
662.60 0.3379
662.70 0.3377
662.80 0.3376
662.90 0.3374
663.00 0.3372
663.10 0.3371
663.20 0.3369
663.30 0.3368
663.40 0.3366
663.50 0.3364
663.60 0.3362
663.70 0.3361
663.80 0.3359
663.90 0.3357
664.00 0.3355
664.10 0.3354
664.20 0.3352
664.30 0.335
664.40 0.3348
664.50 0.3347
664.60 0.3345
664.70 0.3343
664.80 0.3341
664.90 0.334
665.00 0.3338
665.10 0.3336
665.20 0.3334
665.30 0.3332
665.40 0.3331
665.50 0.3329
665.60 0.3327
665.70 0.3325
665.80 0.3323
665.90 0.3321
666.00 0.332
666.10 0.3318
666.20 0.3316
666.30 0.3314
666.40 0.3312
666.50 0.3311
666.60 0.3309
666.70 0.3307
666.80 0.3305
666.90 0.3303
667.00 0.3301
667.10 0.33
667.20 0.3298
667.30 0.3296
667.40 0.3294
667.50 0.3292
667.60 0.329
667.70 0.3288
667.80 0.3287
667.90 0.3285
668.00 0.3283
668.10 0.3281
668.20 0.3279
668.30 0.3277
668.40 0.3276
668.50 0.3274
668.60 0.3272
668.70 0.327
668.80 0.3268
668.90 0.3266
669.00 0.3264
669.10 0.3263
669.20 0.3261
669.30 0.3259
669.40 0.3257
669.50 0.3255
669.60 0.3253
669.70 0.3252
669.80 0.325
669.90 0.3248
670.00 0.3246
670.10 0.3244
670.20 0.3242
670.30 0.3241
670.40 0.3239
670.50 0.3237
670.60 0.3235
670.70 0.3233
670.80 0.3231
670.90 0.323
671.00 0.3228
671.10 0.3226
671.20 0.3224
671.30 0.3222
671.40 0.322
671.50 0.3219
671.60 0.3217
671.70 0.3215
671.80 0.3213
671.90 0.3211
672.00 0.3209
672.10 0.3208
672.20 0.3206
672.30 0.3204
672.40 0.3202
672.50 0.32
672.60 0.3198
672.70 0.3197
672.80 0.3195
672.90 0.3193
673.00 0.3191
673.10 0.3189
673.20 0.3188
673.30 0.3186
673.40 0.3184
673.50 0.3182
673.60 0.318
673.70 0.3179
673.80 0.3177
673.90 0.3175
674.00 0.3173
674.10 0.3171
674.20 0.317
674.30 0.3168
674.40 0.3166
674.50 0.3164
674.60 0.3162
674.70 0.3161
674.80 0.3159
674.90 0.3157
675.00 0.3155
675.10 0.3153
675.20 0.3152
675.30 0.315
675.40 0.3148
675.50 0.3146
675.60 0.3144
675.70 0.3143
675.80 0.3141
675.90 0.3139
676.00 0.3137
676.10 0.3135
676.20 0.3134
676.30 0.3132
676.40 0.313
676.50 0.3128
676.60 0.3127
676.70 0.3125
676.80 0.3123
676.90 0.3121
677.00 0.3119
677.10 0.3118
677.20 0.3116
677.30 0.3114
677.40 0.3112
677.50 0.3111
677.60 0.3109
677.70 0.3107
677.80 0.3105
677.90 0.3104
678.00 0.3102
678.10 0.31
678.20 0.3098
678.30 0.3097
678.40 0.3095
678.50 0.3093
678.60 0.3091
678.70 0.309
678.80 0.3088
678.90 0.3086
679.00 0.3084
679.10 0.3083
679.20 0.3081
679.30 0.3079
679.40 0.3077
679.50 0.3076
679.60 0.3074
679.70 0.3072
679.80 0.307
679.90 0.3069
680.00 0.3067
680.10 0.3065
680.20 0.3063
680.30 0.3062
680.40 0.306
680.50 0.3058
680.60 0.3056
680.70 0.3055
680.80 0.3053
680.90 0.3051
681.00 0.305
681.10 0.3048
681.20 0.3046
681.30 0.3044
681.40 0.3043
681.50 0.3041
681.60 0.3039
681.70 0.3037
681.80 0.3036
681.90 0.3034
682.00 0.3032
682.10 0.3031
682.20 0.3029
682.30 0.3027
682.40 0.3026
682.50 0.3024
682.60 0.3022
682.70 0.302
682.80 0.3019
682.90 0.3017
683.00 0.3015
683.10 0.3014
683.20 0.3012
683.30 0.301
683.40 0.3008
683.50 0.3007
683.60 0.3005
683.70 0.3003
683.80 0.3002
683.90 0.3
684.00 0.2998
684.10 0.2997
684.20 0.2995
684.30 0.2993
684.40 0.2992
684.50 0.299
684.60 0.2988
684.70 0.2987
684.80 0.2985
684.90 0.2983
685.00 0.2981
685.10 0.298
685.20 0.2978
685.30 0.2976
685.40 0.2975
685.50 0.2973
685.60 0.2971
685.70 0.297
685.80 0.2968
685.90 0.2966
686.00 0.2965
686.10 0.2963
686.20 0.2961
686.30 0.296
686.40 0.2958
686.50 0.2956
686.60 0.2955
686.70 0.2953
686.80 0.2951
686.90 0.295
687.00 0.2948
687.10 0.2946
687.20 0.2945
687.30 0.2943
687.40 0.2942
687.50 0.294
687.60 0.2938
687.70 0.2937
687.80 0.2935
687.90 0.2933
688.00 0.2932
688.10 0.293
688.20 0.2928
688.30 0.2927
688.40 0.2925
688.50 0.2923
688.60 0.2922
688.70 0.292
688.80 0.2919
688.90 0.2917
689.00 0.2915
689.10 0.2914
689.20 0.2912
689.30 0.291
689.40 0.2909
689.50 0.2907
689.60 0.2906
689.70 0.2904
689.80 0.2902
689.90 0.2901
690.00 0.2899
690.10 0.2897
690.20 0.2896
690.30 0.2894
690.40 0.2893
690.50 0.2891
690.60 0.2889
690.70 0.2888
690.80 0.2886
690.90 0.2885
691.00 0.2883
691.10 0.2881
691.20 0.288
691.30 0.2878
691.40 0.2877
691.50 0.2875
691.60 0.2873
691.70 0.2872
691.80 0.287
691.90 0.2869
692.00 0.2867
692.10 0.2865
692.20 0.2864
692.30 0.2862
692.40 0.2861
692.50 0.2859
692.60 0.2857
692.70 0.2856
692.80 0.2854
692.90 0.2853
693.00 0.2851
693.10 0.2849
693.20 0.2848
693.30 0.2846
693.40 0.2845
693.50 0.2843
693.60 0.2841
693.70 0.284
693.80 0.2838
693.90 0.2837
694.00 0.2835
694.10 0.2834
694.20 0.2832
694.30 0.283
694.40 0.2829
694.50 0.2827
694.60 0.2826
694.70 0.2824
694.80 0.2822
694.90 0.2821
695.00 0.2819
695.10 0.2818
695.20 0.2816
695.30 0.2815
695.40 0.2813
695.50 0.2812
695.60 0.281
695.70 0.2808
695.80 0.2807
695.90 0.2805
696.00 0.2804
696.10 0.2802
696.20 0.2801
696.30 0.2799
696.40 0.2798
696.50 0.2796
696.60 0.2794
696.70 0.2793
696.80 0.2791
696.90 0.279
697.00 0.2788
697.10 0.2787
697.20 0.2785
697.30 0.2784
697.40 0.2782
697.50 0.2781
697.60 0.2779
697.70 0.2778
697.80 0.2776
697.90 0.2774
698.00 0.2773
698.10 0.2771
698.20 0.277
698.30 0.2768
698.40 0.2767
698.50 0.2765
698.60 0.2764
698.70 0.2762
698.80 0.2761
698.90 0.2759
699.00 0.2758
699.10 0.2756
699.20 0.2755
699.30 0.2753
699.40 0.2751
699.50 0.275
699.60 0.2748
699.70 0.2747
699.80 0.2745
699.90 0.2744
700.00 0.2742
700.10 0.2741
700.20 0.2739
700.30 0.2738
700.40 0.2736
700.50 0.2735
700.60 0.2733
700.70 0.2732
700.80 0.273
700.90 0.2729
701.00 0.2727
701.10 0.2726
701.20 0.2724
701.30 0.2723
701.40 0.2721
701.50 0.272
701.60 0.2718
701.70 0.2717
701.80 0.2715
701.90 0.2714
702.00 0.2712
702.10 0.2711
702.20 0.2709
702.30 0.2708
702.40 0.2706
702.50 0.2705
702.60 0.2703
702.70 0.2702
702.80 0.27
702.90 0.2699
703.00 0.2698
703.10 0.2696
703.20 0.2695
703.30 0.2693
703.40 0.2692
703.50 0.269
703.60 0.2689
703.70 0.2687
703.80 0.2686
703.90 0.2684
704.00 0.2683
704.10 0.2681
704.20 0.268
704.30 0.2678
704.40 0.2677
704.50 0.2675
704.60 0.2674
704.70 0.2672
704.80 0.2671
704.90 0.2669
705.00 0.2668
705.10 0.2667
705.20 0.2665
705.30 0.2664
705.40 0.2662
705.50 0.2661
705.60 0.2659
705.70 0.2658
705.80 0.2656
705.90 0.2655
706.00 0.2653
706.10 0.2652
706.20 0.2651
706.30 0.2649
706.40 0.2648
706.50 0.2646
706.60 0.2645
706.70 0.2643
706.80 0.2642
706.90 0.264
707.00 0.2639
707.10 0.2638
707.20 0.2636
707.30 0.2635
707.40 0.2633
707.50 0.2632
707.60 0.263
707.70 0.2629
707.80 0.2628
707.90 0.2626
708.00 0.2625
708.10 0.2623
708.20 0.2622
708.30 0.262
708.40 0.2619
708.50 0.2618
708.60 0.2616
708.70 0.2615
708.80 0.2613
708.90 0.2612
709.00 0.261
709.10 0.2609
709.20 0.2608
709.30 0.2606
709.40 0.2605
709.50 0.2603
709.60 0.2602
709.70 0.26
709.80 0.2599
709.90 0.2598
710.00 0.2596
710.10 0.2595
710.20 0.2593
710.30 0.2592
710.40 0.2591
710.50 0.2589
710.60 0.2588
710.70 0.2586
710.80 0.2585
710.90 0.2584
711.00 0.2582
711.10 0.2581
711.20 0.2579
711.30 0.2578
711.40 0.2577
711.50 0.2575
711.60 0.2574
711.70 0.2572
711.80 0.2571
711.90 0.257
712.00 0.2568
712.10 0.2567
712.20 0.2565
712.30 0.2564
712.40 0.2563
712.50 0.2561
712.60 0.256
712.70 0.2558
712.80 0.2557
712.90 0.2556
713.00 0.2554
713.10 0.2553
713.20 0.2551
713.30 0.255
713.40 0.2549
713.50 0.2547
713.60 0.2546
713.70 0.2545
713.80 0.2543
713.90 0.2542
714.00 0.254
714.10 0.2539
714.20 0.2538
714.30 0.2536
714.40 0.2535
714.50 0.2534
714.60 0.2532
714.70 0.2531
714.80 0.2529
714.90 0.2528
715.00 0.2527
715.10 0.2525
715.20 0.2524
715.30 0.2523
715.40 0.2521
715.50 0.252
715.60 0.2519
715.70 0.2517
715.80 0.2516
715.90 0.2514
716.00 0.2513
716.10 0.2512
716.20 0.251
716.30 0.2509
716.40 0.2508
716.50 0.2506
716.60 0.2505
716.70 0.2504
716.80 0.2502
716.90 0.2501
717.00 0.25
717.10 0.2498
717.20 0.2497
717.30 0.2496
717.40 0.2494
717.50 0.2493
717.60 0.2492
717.70 0.249
717.80 0.2489
717.90 0.2488
718.00 0.2486
718.10 0.2485
718.20 0.2484
718.30 0.2482
718.40 0.2481
718.50 0.248
718.60 0.2478
718.70 0.2477
718.80 0.2476
718.90 0.2474
719.00 0.2473
719.10 0.2472
719.20 0.247
719.30 0.2469
719.40 0.2468
719.50 0.2466
719.60 0.2465
719.70 0.2464
719.80 0.2462
719.90 0.2461
720.00 0.246
720.10 0.2458
720.20 0.2457
720.30 0.2456
720.40 0.2454
720.50 0.2453
720.60 0.2452
720.70 0.245
720.80 0.2449
720.90 0.2448
721.00 0.2446
721.10 0.2445
721.20 0.2444
721.30 0.2443
721.40 0.2441
721.50 0.244
721.60 0.2439
721.70 0.2437
721.80 0.2436
721.90 0.2435
722.00 0.2433
722.10 0.2432
722.20 0.2431
722.30 0.2429
722.40 0.2428
722.50 0.2427
722.60 0.2426
722.70 0.2424
722.80 0.2423
722.90 0.2422
723.00 0.242
723.10 0.2419
723.20 0.2418
723.30 0.2417
723.40 0.2415
723.50 0.2414
723.60 0.2413
723.70 0.2411
723.80 0.241
723.90 0.2409
724.00 0.2407
724.10 0.2406
724.20 0.2405
724.30 0.2404
724.40 0.2402
724.50 0.2401
724.60 0.24
724.70 0.2398
724.80 0.2397
724.90 0.2396
725.00 0.2395
725.10 0.2393
725.20 0.2392
725.30 0.2391
725.40 0.239
725.50 0.2388
725.60 0.2387
725.70 0.2386
725.80 0.2384
725.90 0.2383
726.00 0.2382
726.10 0.2381
726.20 0.2379
726.30 0.2378
726.40 0.2377
726.50 0.2376
726.60 0.2374
726.70 0.2373
726.80 0.2372
726.90 0.2371
727.00 0.2369
727.10 0.2368
727.20 0.2367
727.30 0.2366
727.40 0.2364
727.50 0.2363
727.60 0.2362
727.70 0.2361
727.80 0.2359
727.90 0.2358
728.00 0.2357
728.10 0.2356
728.20 0.2354
728.30 0.2353
728.40 0.2352
728.50 0.2351
728.60 0.2349
728.70 0.2348
728.80 0.2347
728.90 0.2346
729.00 0.2344
729.10 0.2343
729.20 0.2342
729.30 0.2341
729.40 0.2339
729.50 0.2338
729.60 0.2337
729.70 0.2336
729.80 0.2334
729.90 0.2333
730.00 0.2332
730.10 0.2331
730.20 0.2329
730.30 0.2328
730.40 0.2327
730.50 0.2326
730.60 0.2324
730.70 0.2323
730.80 0.2322
730.90 0.2321
731.00 0.232
731.10 0.2318
731.20 0.2317
731.30 0.2316
731.40 0.2315
731.50 0.2314
731.60 0.2312
731.70 0.2311
731.80 0.231
731.90 0.2309
732.00 0.2307
732.10 0.2306
732.20 0.2305
732.30 0.2304
732.40 0.2303
732.50 0.2301
732.60 0.23
732.70 0.2299
732.80 0.2298
732.90 0.2297
733.00 0.2295
733.10 0.2294
733.20 0.2293
733.30 0.2292
733.40 0.2291
733.50 0.2289
733.60 0.2288
733.70 0.2287
733.80 0.2286
733.90 0.2285
734.00 0.2283
734.10 0.2282
734.20 0.2281
734.30 0.228
734.40 0.2279
734.50 0.2277
734.60 0.2276
734.70 0.2275
734.80 0.2274
734.90 0.2273
735.00 0.2271
735.10 0.227
735.20 0.2269
735.30 0.2268
735.40 0.2267
735.50 0.2265
735.60 0.2264
735.70 0.2263
735.80 0.2262
735.90 0.2261
736.00 0.2259
736.10 0.2258
736.20 0.2257
736.30 0.2256
736.40 0.2255
736.50 0.2254
736.60 0.2252
736.70 0.2251
736.80 0.225
736.90 0.2249
737.00 0.2248
737.10 0.2246
737.20 0.2245
737.30 0.2244
737.40 0.2243
737.50 0.2242
737.60 0.224
737.70 0.2239
737.80 0.2238
737.90 0.2237
738.00 0.2236
738.10 0.2235
738.20 0.2233
738.30 0.2232
738.40 0.2231
738.50 0.223
738.60 0.2229
738.70 0.2228
738.80 0.2226
738.90 0.2225
739.00 0.2224
739.10 0.2223
739.20 0.2222
739.30 0.2221
739.40 0.2219
739.50 0.2218
739.60 0.2217
739.70 0.2216
739.80 0.2215
739.90 0.2213
740.00 0.2212
740.10 0.2211
740.20 0.221
740.30 0.2209
740.40 0.2208
740.50 0.2207
740.60 0.2205
740.70 0.2204
740.80 0.2203
740.90 0.2202
741.00 0.2201
741.10 0.22
741.20 0.2199
741.30 0.2197
741.40 0.2196
741.50 0.2195
741.60 0.2194
741.70 0.2193
741.80 0.2192
741.90 0.2191
742.00 0.219
742.10 0.2188
742.20 0.2187
742.30 0.2186
742.40 0.2185
742.50 0.2184
742.60 0.2183
742.70 0.2182
742.80 0.218
742.90 0.2179
743.00 0.2178
743.10 0.2177
743.20 0.2176
743.30 0.2175
743.40 0.2174
743.50 0.2173
743.60 0.2171
743.70 0.217
743.80 0.2169
743.90 0.2168
744.00 0.2167
744.10 0.2166
744.20 0.2165
744.30 0.2164
744.40 0.2162
744.50 0.2161
744.60 0.216
744.70 0.2159
744.80 0.2158
744.90 0.2157
745.00 0.2156
745.10 0.2155
745.20 0.2153
745.30 0.2152
745.40 0.2151
745.50 0.215
745.60 0.2149
745.70 0.2148
745.80 0.2147
745.90 0.2146
746.00 0.2145
746.10 0.2143
746.20 0.2142
746.30 0.2141
746.40 0.214
746.50 0.2139
746.60 0.2138
746.70 0.2137
746.80 0.2136
746.90 0.2135
747.00 0.2133
747.10 0.2132
747.20 0.2131
747.30 0.213
747.40 0.2129
747.50 0.2128
747.60 0.2127
747.70 0.2126
747.80 0.2125
747.90 0.2123
748.00 0.2122
748.10 0.2121
748.20 0.212
748.30 0.2119
748.40 0.2118
748.50 0.2117
748.60 0.2116
748.70 0.2115
748.80 0.2114
748.90 0.2112
749.00 0.2111
749.10 0.211
749.20 0.2109
749.30 0.2108
749.40 0.2107
749.50 0.2106
749.60 0.2105
749.70 0.2104
749.80 0.2103
749.90 0.2101
750.00 0.21
750.10 0.2099
750.20 0.2098
750.30 0.2097
750.40 0.2096
750.50 0.2095
750.60 0.2094
750.70 0.2093
750.80 0.2092
750.90 0.2091
751.00 0.209
751.10 0.2089
751.20 0.2088
751.30 0.2086
751.40 0.2085
751.50 0.2084
751.60 0.2083
751.70 0.2082
751.80 0.2081
751.90 0.208
752.00 0.2079
752.10 0.2078
752.20 0.2077
752.30 0.2076
752.40 0.2075
752.50 0.2074
752.60 0.2073
752.70 0.2072
752.80 0.2071
752.90 0.2069
753.00 0.2068
753.10 0.2067
753.20 0.2066
753.30 0.2065
753.40 0.2064
753.50 0.2063
753.60 0.2062
753.70 0.2061
753.80 0.206
753.90 0.2059
754.00 0.2058
754.10 0.2057
754.20 0.2056
754.30 0.2055
754.40 0.2054
754.50 0.2053
754.60 0.2052
754.70 0.205
754.80 0.2049
754.90 0.2048
755.00 0.2047
755.10 0.2046
755.20 0.2045
755.30 0.2044
755.40 0.2043
755.50 0.2042
755.60 0.2041
755.70 0.204
755.80 0.2039
755.90 0.2038
756.00 0.2037
756.10 0.2036
756.20 0.2035
756.30 0.2034
756.40 0.2033
756.50 0.2032
756.60 0.2031
756.70 0.203
756.80 0.2029
756.90 0.2027
757.00 0.2026
757.10 0.2025
757.20 0.2024
757.30 0.2023
757.40 0.2022
757.50 0.2021
757.60 0.202
757.70 0.2019
757.80 0.2018
757.90 0.2017
758.00 0.2016
758.10 0.2015
758.20 0.2014
758.30 0.2013
758.40 0.2012
758.50 0.2011
758.60 0.201
758.70 0.2009
758.80 0.2008
758.90 0.2007
759.00 0.2006
759.10 0.2005
759.20 0.2004
759.30 0.2003
759.40 0.2002
759.50 0.2001
759.60 0.2
759.70 0.1999
759.80 0.1997
759.90 0.1996
760.00 0.1995
760.10 0.1994
760.20 0.1993
760.30 0.1992
760.40 0.1991
760.50 0.199
760.60 0.1989
760.70 0.1988
760.80 0.1987
760.90 0.1986
761.00 0.1985
761.10 0.1984
761.20 0.1983
761.30 0.1982
761.40 0.1981
761.50 0.198
761.60 0.1979
761.70 0.1978
761.80 0.1977
761.90 0.1976
762.00 0.1975
762.10 0.1974
762.20 0.1973
762.30 0.1972
762.40 0.1971
762.50 0.197
762.60 0.1969
762.70 0.1968
762.80 0.1967
762.90 0.1966
763.00 0.1965
763.10 0.1964
763.20 0.1963
763.30 0.1962
763.40 0.1961
763.50 0.196
763.60 0.1959
763.70 0.1958
763.80 0.1958
763.90 0.1957
764.00 0.1956
764.10 0.1955
764.20 0.1954
764.30 0.1953
764.40 0.1952
764.50 0.1951
764.60 0.195
764.70 0.1949
764.80 0.1948
764.90 0.1947
765.00 0.1946
765.10 0.1945
765.20 0.1944
765.30 0.1943
765.40 0.1942
765.50 0.1941
765.60 0.194
765.70 0.1939
765.80 0.1938
765.90 0.1937
766.00 0.1936
766.10 0.1935
766.20 0.1934
766.30 0.1933
766.40 0.1932
766.50 0.1931
766.60 0.193
766.70 0.1929
766.80 0.1928
766.90 0.1927
767.00 0.1926
767.10 0.1925
767.20 0.1924
767.30 0.1923
767.40 0.1922
767.50 0.1921
767.60 0.192
767.70 0.1919
767.80 0.1918
767.90 0.1917
768.00 0.1916
768.10 0.1915
768.20 0.1914
768.30 0.1913
768.40 0.1912
768.50 0.1911
768.60 0.1911
768.70 0.191
768.80 0.1909
768.90 0.1908
769.00 0.1907
769.10 0.1906
769.20 0.1905
769.30 0.1904
769.40 0.1903
769.50 0.1902
769.60 0.1901
769.70 0.19
769.80 0.1899
769.90 0.1898
770.00 0.1897
770.10 0.1896
770.20 0.1895
770.30 0.1894
770.40 0.1893
770.50 0.1892
770.60 0.1891
770.70 0.189
770.80 0.1889
770.90 0.1889
771.00 0.1888
771.10 0.1887
771.20 0.1886
771.30 0.1885
771.40 0.1884
771.50 0.1883
771.60 0.1882
771.70 0.1881
771.80 0.188
771.90 0.1879
772.00 0.1878
772.10 0.1877
772.20 0.1876
772.30 0.1875
772.40 0.1874
772.50 0.1873
772.60 0.1873
772.70 0.1872
772.80 0.1871
772.90 0.187
773.00 0.1869
773.10 0.1868
773.20 0.1867
773.30 0.1866
773.40 0.1865
773.50 0.1864
773.60 0.1863
773.70 0.1862
773.80 0.1861
773.90 0.186
774.00 0.186
774.10 0.1859
774.20 0.1858
774.30 0.1857
774.40 0.1856
774.50 0.1855
774.60 0.1854
774.70 0.1853
774.80 0.1852
774.90 0.1851
775.00 0.185
775.10 0.1849
775.20 0.1848
775.30 0.1847
775.40 0.1847
775.50 0.1846
775.60 0.1845
775.70 0.1844
775.80 0.1843
775.90 0.1842
776.00 0.1841
776.10 0.184
776.20 0.1839
776.30 0.1838
776.40 0.1837
776.50 0.1836
776.60 0.1836
776.70 0.1835
776.80 0.1834
776.90 0.1833
777.00 0.1832
777.10 0.1831
777.20 0.183
777.30 0.1829
777.40 0.1828
777.50 0.1827
777.60 0.1826
777.70 0.1825
777.80 0.1825
777.90 0.1824
778.00 0.1823
778.10 0.1822
778.20 0.1821
778.30 0.182
778.40 0.1819
778.50 0.1818
778.60 0.1817
778.70 0.1816
778.80 0.1815
778.90 0.1815
779.00 0.1814
779.10 0.1813
779.20 0.1812
779.30 0.1811
779.40 0.181
779.50 0.1809
779.60 0.1808
779.70 0.1807
779.80 0.1806
779.90 0.1805
780.00 0.1805
780.10 0.1804
780.20 0.1803
780.30 0.1802
780.40 0.1801
780.50 0.18
780.60 0.1799
780.70 0.1798
780.80 0.1797
780.90 0.1797
781.00 0.1796
781.10 0.1795
781.20 0.1794
781.30 0.1793
781.40 0.1792
781.50 0.1791
781.60 0.179
781.70 0.179
781.80 0.1789
781.90 0.1788
782.00 0.1787
782.10 0.1786
782.20 0.1785
782.30 0.1784
782.40 0.1783
782.50 0.1782
782.60 0.1782
782.70 0.1781
782.80 0.178
782.90 0.1779
783.00 0.1778
783.10 0.1777
783.20 0.1776
783.30 0.1775
783.40 0.1775
783.50 0.1774
783.60 0.1773
783.70 0.1772
783.80 0.1771
783.90 0.177
784.00 0.1769
784.10 0.1768
784.20 0.1768
784.30 0.1767
784.40 0.1766
784.50 0.1765
784.60 0.1764
784.70 0.1763
784.80 0.1762
784.90 0.1762
785.00 0.1761
785.10 0.176
785.20 0.1759
785.30 0.1758
785.40 0.1757
785.50 0.1756
785.60 0.1755
785.70 0.1755
785.80 0.1754
785.90 0.1753
786.00 0.1752
786.10 0.1751
786.20 0.175
786.30 0.1749
786.40 0.1749
786.50 0.1748
786.60 0.1747
786.70 0.1746
786.80 0.1745
786.90 0.1744
787.00 0.1743
787.10 0.1742
787.20 0.1742
787.30 0.1741
787.40 0.174
787.50 0.1739
787.60 0.1738
787.70 0.1737
787.80 0.1736
787.90 0.1736
788.00 0.1735
788.10 0.1734
788.20 0.1733
788.30 0.1732
788.40 0.1731
788.50 0.173
788.60 0.173
788.70 0.1729
788.80 0.1728
788.90 0.1727
789.00 0.1726
789.10 0.1725
789.20 0.1725
789.30 0.1724
789.40 0.1723
789.50 0.1722
789.60 0.1721
789.70 0.172
789.80 0.1719
789.90 0.1719
790.00 0.1718
790.10 0.1717
790.20 0.1716
790.30 0.1715
790.40 0.1714
790.50 0.1714
790.60 0.1713
790.70 0.1712
790.80 0.1711
790.90 0.171
791.00 0.1709
791.10 0.1709
791.20 0.1708
791.30 0.1707
791.40 0.1706
791.50 0.1705
791.60 0.1704
791.70 0.1704
791.80 0.1703
791.90 0.1702
792.00 0.1701
792.10 0.17
792.20 0.1699
792.30 0.1699
792.40 0.1698
792.50 0.1697
792.60 0.1696
792.70 0.1695
792.80 0.1694
792.90 0.1694
793.00 0.1693
793.10 0.1692
793.20 0.1691
793.30 0.169
793.40 0.169
793.50 0.1689
793.60 0.1688
793.70 0.1687
793.80 0.1686
793.90 0.1685
794.00 0.1685
794.10 0.1684
794.20 0.1683
794.30 0.1682
794.40 0.1681
794.50 0.168
794.60 0.168
794.70 0.1679
794.80 0.1678
794.90 0.1677
795.00 0.1676
795.10 0.1676
795.20 0.1675
795.30 0.1674
795.40 0.1673
795.50 0.1672
795.60 0.1672
795.70 0.1671
795.80 0.167
795.90 0.1669
796.00 0.1668
796.10 0.1667
796.20 0.1667
796.30 0.1666
796.40 0.1665
796.50 0.1664
796.60 0.1663
796.70 0.1663
796.80 0.1662
796.90 0.1661
797.00 0.166
797.10 0.1659
797.20 0.1659
797.30 0.1658
797.40 0.1657
797.50 0.1656
797.60 0.1655
797.70 0.1654
797.80 0.1654
797.90 0.1653
798.00 0.1652
798.10 0.1651
798.20 0.165
798.30 0.165
798.40 0.1649
798.50 0.1648
798.60 0.1647
798.70 0.1646
798.80 0.1646
798.90 0.1645
799.00 0.1644
799.10 0.1643
799.20 0.1642
799.30 0.1642
799.40 0.1641
799.50 0.164
799.60 0.1639
799.70 0.1638
799.80 0.1638
799.90 0.1637
800.00 0.1636
800.10 0.1635
800.20 0.1634
800.30 0.1634
800.40 0.1633
800.50 0.1632
800.60 0.1631
800.70 0.1631
800.80 0.163
800.90 0.1629
801.00 0.1628
801.10 0.1627
801.20 0.1627
801.30 0.1626
801.40 0.1625
801.50 0.1624
801.60 0.1623
801.70 0.1623
801.80 0.1622
801.90 0.1621
802.00 0.162
802.10 0.162
802.20 0.1619
802.30 0.1618
802.40 0.1617
802.50 0.1616
802.60 0.1616
802.70 0.1615
802.80 0.1614
802.90 0.1613
803.00 0.1613
803.10 0.1612
803.20 0.1611
803.30 0.161
803.40 0.1609
803.50 0.1609
803.60 0.1608
803.70 0.1607
803.80 0.1606
803.90 0.1606
804.00 0.1605
804.10 0.1604
804.20 0.1603
804.30 0.1603
804.40 0.1602
804.50 0.1601
804.60 0.16
804.70 0.1599
804.80 0.1599
804.90 0.1598
805.00 0.1597
805.10 0.1596
805.20 0.1596
805.30 0.1595
805.40 0.1594
805.50 0.1593
805.60 0.1593
805.70 0.1592
805.80 0.1591
805.90 0.159
806.00 0.1589
806.10 0.1589
806.20 0.1588
806.30 0.1587
806.40 0.1586
806.50 0.1586
806.60 0.1585
806.70 0.1584
806.80 0.1583
806.90 0.1583
807.00 0.1582
807.10 0.1581
807.20 0.158
807.30 0.158
807.40 0.1579
807.50 0.1578
807.60 0.1577
807.70 0.1577
807.80 0.1576
807.90 0.1575
808.00 0.1574
808.10 0.1573
808.20 0.1573
808.30 0.1572
808.40 0.1571
808.50 0.157
808.60 0.157
808.70 0.1569
808.80 0.1568
808.90 0.1567
809.00 0.1567
809.10 0.1566
809.20 0.1565
809.30 0.1564
809.40 0.1564
809.50 0.1563
809.60 0.1562
809.70 0.1561
809.80 0.1561
809.90 0.156
810.00 0.1559
810.10 0.1558
810.20 0.1558
810.30 0.1557
810.40 0.1556
810.50 0.1555
810.60 0.1555
810.70 0.1554
810.80 0.1553
810.90 0.1552
811.00 0.1552
811.10 0.1551
811.20 0.155
811.30 0.155
811.40 0.1549
811.50 0.1548
811.60 0.1547
811.70 0.1547
811.80 0.1546
811.90 0.1545
812.00 0.1544
812.10 0.1544
812.20 0.1543
812.30 0.1542
812.40 0.1541
812.50 0.1541
812.60 0.154
812.70 0.1539
812.80 0.1539
812.90 0.1538
813.00 0.1537
813.10 0.1536
813.20 0.1536
813.30 0.1535
813.40 0.1534
813.50 0.1533
813.60 0.1533
813.70 0.1532
813.80 0.1531
813.90 0.1531
814.00 0.153
814.10 0.1529
814.20 0.1528
814.30 0.1528
814.40 0.1527
814.50 0.1526
814.60 0.1525
814.70 0.1525
814.80 0.1524
814.90 0.1523
815.00 0.1523
815.10 0.1522
815.20 0.1521
815.30 0.152
815.40 0.152
815.50 0.1519
815.60 0.1518
815.70 0.1517
815.80 0.1517
815.90 0.1516
816.00 0.1515
816.10 0.1515
816.20 0.1514
816.30 0.1513
816.40 0.1512
816.50 0.1512
816.60 0.1511
816.70 0.151
816.80 0.151
816.90 0.1509
817.00 0.1508
817.10 0.1507
817.20 0.1507
817.30 0.1506
817.40 0.1505
817.50 0.1505
817.60 0.1504
817.70 0.1503
817.80 0.1502
817.90 0.1502
818.00 0.1501
818.10 0.15
818.20 0.15
818.30 0.1499
818.40 0.1498
818.50 0.1497
818.60 0.1497
818.70 0.1496
818.80 0.1495
818.90 0.1495
819.00 0.1494
819.10 0.1493
819.20 0.1492
819.30 0.1492
819.40 0.1491
819.50 0.149
819.60 0.149
819.70 0.1489
819.80 0.1488
819.90 0.1487
820.00 0.1487
820.10 0.1486
820.20 0.1485
820.30 0.1485
820.40 0.1484
820.50 0.1483
820.60 0.1483
820.70 0.1482
820.80 0.1481
820.90 0.148
821.00 0.148
821.10 0.1479
821.20 0.1478
821.30 0.1478
821.40 0.1477
821.50 0.1476
821.60 0.1476
821.70 0.1475
821.80 0.1474
821.90 0.1473
822.00 0.1473
822.10 0.1472
822.20 0.1471
822.30 0.1471
822.40 0.147
822.50 0.1469
822.60 0.1469
822.70 0.1468
822.80 0.1467
822.90 0.1467
823.00 0.1466
823.10 0.1465
823.20 0.1464
823.30 0.1464
823.40 0.1463
823.50 0.1462
823.60 0.1462
823.70 0.1461
823.80 0.146
823.90 0.146
824.00 0.1459
824.10 0.1458
824.20 0.1458
824.30 0.1457
824.40 0.1456
824.50 0.1456
824.60 0.1455
824.70 0.1454
824.80 0.1454
824.90 0.1453
825.00 0.1452
825.10 0.1451
825.20 0.1451
825.30 0.145
825.40 0.1449
825.50 0.1449
825.60 0.1448
825.70 0.1447
825.80 0.1447
825.90 0.1446
826.00 0.1445
826.10 0.1445
826.20 0.1444
826.30 0.1443
826.40 0.1443
826.50 0.1442
826.60 0.1441
826.70 0.1441
826.80 0.144
826.90 0.1439
827.00 0.1439
827.10 0.1438
827.20 0.1437
827.30 0.1437
827.40 0.1436
827.50 0.1435
827.60 0.1435
827.70 0.1434
827.80 0.1433
827.90 0.1433
828.00 0.1432
828.10 0.1431
828.20 0.143
828.30 0.143
828.40 0.1429
828.50 0.1428
828.60 0.1428
828.70 0.1427
828.80 0.1426
828.90 0.1426
829.00 0.1425
829.10 0.1424
829.20 0.1424
829.30 0.1423
829.40 0.1422
829.50 0.1422
829.60 0.1421
829.70 0.1421
829.80 0.142
829.90 0.1419
830.00 0.1419
830.10 0.1418
830.20 0.1417
830.30 0.1417
830.40 0.1416
830.50 0.1415
830.60 0.1415
830.70 0.1414
830.80 0.1413
830.90 0.1413
831.00 0.1412
831.10 0.1411
831.20 0.1411
831.30 0.141
831.40 0.1409
831.50 0.1409
831.60 0.1408
831.70 0.1407
831.80 0.1407
831.90 0.1406
832.00 0.1405
832.10 0.1405
832.20 0.1404
832.30 0.1403
832.40 0.1403
832.50 0.1402
832.60 0.1401
832.70 0.1401
832.80 0.14
832.90 0.1399
833.00 0.1399
833.10 0.1398
833.20 0.1397
833.30 0.1397
833.40 0.1396
833.50 0.1396
833.60 0.1395
833.70 0.1394
833.80 0.1394
833.90 0.1393
834.00 0.1392
834.10 0.1392
834.20 0.1391
834.30 0.139
834.40 0.139
834.50 0.1389
834.60 0.1388
834.70 0.1388
834.80 0.1387
834.90 0.1386
835.00 0.1386
835.10 0.1385
835.20 0.1384
835.30 0.1384
835.40 0.1383
835.50 0.1383
835.60 0.1382
835.70 0.1381
835.80 0.1381
835.90 0.138
836.00 0.1379
836.10 0.1379
836.20 0.1378
836.30 0.1377
836.40 0.1377
836.50 0.1376
836.60 0.1375
836.70 0.1375
836.80 0.1374
836.90 0.1374
837.00 0.1373
837.10 0.1372
837.20 0.1372
837.30 0.1371
837.40 0.137
837.50 0.137
837.60 0.1369
837.70 0.1368
837.80 0.1368
837.90 0.1367
838.00 0.1367
838.10 0.1366
838.20 0.1365
838.30 0.1365
838.40 0.1364
838.50 0.1363
838.60 0.1363
838.70 0.1362
838.80 0.1362
838.90 0.1361
839.00 0.136
839.10 0.136
839.20 0.1359
839.30 0.1358
839.40 0.1358
839.50 0.1357
839.60 0.1357
839.70 0.1356
839.80 0.1355
839.90 0.1355
840.00 0.1354
840.10 0.1353
840.20 0.1353
840.30 0.1352
840.40 0.1351
840.50 0.1351
840.60 0.135
840.70 0.135
840.80 0.1349
840.90 0.1348
841.00 0.1348
841.10 0.1347
841.20 0.1346
841.30 0.1346
841.40 0.1345
841.50 0.1345
841.60 0.1344
841.70 0.1343
841.80 0.1343
841.90 0.1342
842.00 0.1342
842.10 0.1341
842.20 0.134
842.30 0.134
842.40 0.1339
842.50 0.1338
842.60 0.1338
842.70 0.1337
842.80 0.1337
842.90 0.1336
843.00 0.1335
843.10 0.1335
843.20 0.1334
843.30 0.1334
843.40 0.1333
843.50 0.1332
843.60 0.1332
843.70 0.1331
843.80 0.133
843.90 0.133
844.00 0.1329
844.10 0.1329
844.20 0.1328
844.30 0.1327
844.40 0.1327
844.50 0.1326
844.60 0.1326
844.70 0.1325
844.80 0.1324
844.90 0.1324
845.00 0.1323
845.10 0.1323
845.20 0.1322
845.30 0.1321
845.40 0.1321
845.50 0.132
845.60 0.1319
845.70 0.1319
845.80 0.1318
845.90 0.1318
846.00 0.1317
846.10 0.1316
846.20 0.1316
846.30 0.1315
846.40 0.1315
846.50 0.1314
846.60 0.1313
846.70 0.1313
846.80 0.1312
846.90 0.1312
847.00 0.1311
847.10 0.131
847.20 0.131
847.30 0.1309
847.40 0.1309
847.50 0.1308
847.60 0.1307
847.70 0.1307
847.80 0.1306
847.90 0.1306
848.00 0.1305
848.10 0.1304
848.20 0.1304
848.30 0.1303
848.40 0.1303
848.50 0.1302
848.60 0.1301
848.70 0.1301
848.80 0.13
848.90 0.13
849.00 0.1299
849.10 0.1298
849.20 0.1298
849.30 0.1297
849.40 0.1297
849.50 0.1296
849.60 0.1295
849.70 0.1295
849.80 0.1294
849.90 0.1294
850.00 0.1293
850.10 0.1293
850.20 0.1292
850.30 0.1291
850.40 0.1291
850.50 0.129
850.60 0.129
850.70 0.1289
850.80 0.1288
850.90 0.1288
851.00 0.1287
851.10 0.1287
851.20 0.1286
851.30 0.1285
851.40 0.1285
851.50 0.1284
851.60 0.1284
851.70 0.1283
851.80 0.1282
851.90 0.1282
852.00 0.1281
852.10 0.1281
852.20 0.128
852.30 0.128
852.40 0.1279
852.50 0.1278
852.60 0.1278
852.70 0.1277
852.80 0.1277
852.90 0.1276
853.00 0.1276
853.10 0.1275
853.20 0.1274
853.30 0.1274
853.40 0.1273
853.50 0.1273
853.60 0.1272
853.70 0.1271
853.80 0.1271
853.90 0.127
854.00 0.127
854.10 0.1269
854.20 0.1269
854.30 0.1268
854.40 0.1267
854.50 0.1267
854.60 0.1266
854.70 0.1266
854.80 0.1265
854.90 0.1265
855.00 0.1264
855.10 0.1263
855.20 0.1263
855.30 0.1262
855.40 0.1262
855.50 0.1261
855.60 0.1261
855.70 0.126
855.80 0.1259
855.90 0.1259
856.00 0.1258
856.10 0.1258
856.20 0.1257
856.30 0.1257
856.40 0.1256
856.50 0.1255
856.60 0.1255
856.70 0.1254
856.80 0.1254
856.90 0.1253
857.00 0.1253
857.10 0.1252
857.20 0.1251
857.30 0.1251
857.40 0.125
857.50 0.125
857.60 0.1249
857.70 0.1249
857.80 0.1248
857.90 0.1247
858.00 0.1247
858.10 0.1246
858.20 0.1246
858.30 0.1245
858.40 0.1245
858.50 0.1244
858.60 0.1244
858.70 0.1243
858.80 0.1242
858.90 0.1242
859.00 0.1241
859.10 0.1241
859.20 0.124
859.30 0.124
859.40 0.1239
859.50 0.1238
859.60 0.1238
859.70 0.1237
859.80 0.1237
859.90 0.1236
860.00 0.1236
860.10 0.1235
860.20 0.1235
860.30 0.1234
860.40 0.1233
860.50 0.1233
860.60 0.1232
860.70 0.1232
860.80 0.1231
860.90 0.1231
861.00 0.123
861.10 0.123
861.20 0.1229
861.30 0.1228
861.40 0.1228
861.50 0.1227
861.60 0.1227
861.70 0.1226
861.80 0.1226
861.90 0.1225
862.00 0.1225
862.10 0.1224
862.20 0.1223
862.30 0.1223
862.40 0.1222
862.50 0.1222
862.60 0.1221
862.70 0.1221
862.80 0.122
862.90 0.122
863.00 0.1219
863.10 0.1219
863.20 0.1218
863.30 0.1217
863.40 0.1217
863.50 0.1216
863.60 0.1216
863.70 0.1215
863.80 0.1215
863.90 0.1214
864.00 0.1214
864.10 0.1213
864.20 0.1213
864.30 0.1212
864.40 0.1211
864.50 0.1211
864.60 0.121
864.70 0.121
864.80 0.1209
864.90 0.1209
865.00 0.1208
865.10 0.1208
865.20 0.1207
865.30 0.1207
865.40 0.1206
865.50 0.1206
865.60 0.1205
865.70 0.1204
865.80 0.1204
865.90 0.1203
866.00 0.1203
866.10 0.1202
866.20 0.1202
866.30 0.1201
866.40 0.1201
866.50 0.12
866.60 0.12
866.70 0.1199
866.80 0.1199
866.90 0.1198
867.00 0.1197
867.10 0.1197
867.20 0.1196
867.30 0.1196
867.40 0.1195
867.50 0.1195
867.60 0.1194
867.70 0.1194
867.80 0.1193
867.90 0.1193
868.00 0.1192
868.10 0.1192
868.20 0.1191
868.30 0.1191
868.40 0.119
868.50 0.1189
868.60 0.1189
868.70 0.1188
868.80 0.1188
868.90 0.1187
869.00 0.1187
869.10 0.1186
869.20 0.1186
869.30 0.1185
869.40 0.1185
869.50 0.1184
869.60 0.1184
869.70 0.1183
869.80 0.1183
869.90 0.1182
870.00 0.1182
870.10 0.1181
870.20 0.118
870.30 0.118
870.40 0.1179
870.50 0.1179
870.60 0.1178
870.70 0.1178
870.80 0.1177
870.90 0.1177
871.00 0.1176
871.10 0.1176
871.20 0.1175
871.30 0.1175
871.40 0.1174
871.50 0.1174
871.60 0.1173
871.70 0.1173
871.80 0.1172
871.90 0.1172
872.00 0.1171
872.10 0.1171
872.20 0.117
872.30 0.1169
872.40 0.1169
872.50 0.1168
872.60 0.1168
872.70 0.1167
872.80 0.1167
872.90 0.1166
873.00 0.1166
873.10 0.1165
873.20 0.1165
873.30 0.1164
873.40 0.1164
873.50 0.1163
873.60 0.1163
873.70 0.1162
873.80 0.1162
873.90 0.1161
874.00 0.1161
874.10 0.116
874.20 0.116
874.30 0.1159
874.40 0.1159
874.50 0.1158
874.60 0.1158
874.70 0.1157
874.80 0.1157
874.90 0.1156
875.00 0.1156
875.10 0.1155
875.20 0.1155
875.30 0.1154
875.40 0.1154
875.50 0.1153
875.60 0.1153
875.70 0.1152
875.80 0.1152
875.90 0.1151
876.00 0.1151
876.10 0.115
876.20 0.115
876.30 0.1149
876.40 0.1148
876.50 0.1148
876.60 0.1147
876.70 0.1147
876.80 0.1146
876.90 0.1146
877.00 0.1145
877.10 0.1145
877.20 0.1144
877.30 0.1144
877.40 0.1143
877.50 0.1143
877.60 0.1142
877.70 0.1142
877.80 0.1141
877.90 0.1141
878.00 0.114
878.10 0.114
878.20 0.1139
878.30 0.1139
878.40 0.1138
878.50 0.1138
878.60 0.1137
878.70 0.1137
878.80 0.1136
878.90 0.1136
879.00 0.1135
879.10 0.1135
879.20 0.1134
879.30 0.1134
879.40 0.1133
879.50 0.1133
879.60 0.1132
879.70 0.1132
879.80 0.1131
879.90 0.1131
880.00 0.113
880.10 0.113
880.20 0.1129
880.30 0.1129
880.40 0.1128
880.50 0.1128
880.60 0.1127
880.70 0.1127
880.80 0.1126
880.90 0.1126
881.00 0.1125
881.10 0.1125
881.20 0.1124
881.30 0.1124
881.40 0.1123
881.50 0.1123
881.60 0.1122
881.70 0.1122
881.80 0.1121
881.90 0.1121
882.00 0.1121
882.10 0.112
882.20 0.112
882.30 0.1119
882.40 0.1119
882.50 0.1118
882.60 0.1118
882.70 0.1117
882.80 0.1117
882.90 0.1116
883.00 0.1116
883.10 0.1115
883.20 0.1115
883.30 0.1114
883.40 0.1114
883.50 0.1113
883.60 0.1113
883.70 0.1112
883.80 0.1112
883.90 0.1111
884.00 0.1111
884.10 0.111
884.20 0.111
884.30 0.1109
884.40 0.1109
884.50 0.1108
884.60 0.1108
884.70 0.1107
884.80 0.1107
884.90 0.1106
885.00 0.1106
885.10 0.1106
885.20 0.1105
885.30 0.1105
885.40 0.1104
885.50 0.1104
885.60 0.1103
885.70 0.1103
885.80 0.1102
885.90 0.1102
886.00 0.1101
886.10 0.1101
886.20 0.11
886.30 0.11
886.40 0.1099
886.50 0.1099
886.60 0.1098
886.70 0.1098
886.80 0.1097
886.90 0.1097
887.00 0.1096
887.10 0.1096
887.20 0.1095
887.30 0.1095
887.40 0.1095
887.50 0.1094
887.60 0.1094
887.70 0.1093
887.80 0.1093
887.90 0.1092
888.00 0.1092
888.10 0.1091
888.20 0.1091
888.30 0.109
888.40 0.109
888.50 0.1089
888.60 0.1089
888.70 0.1088
888.80 0.1088
888.90 0.1087
889.00 0.1087
889.10 0.1086
889.20 0.1086
889.30 0.1086
889.40 0.1085
889.50 0.1085
889.60 0.1084
889.70 0.1084
889.80 0.1083
889.90 0.1083
890.00 0.1082
890.10 0.1082
890.20 0.1081
890.30 0.1081
890.40 0.108
890.50 0.108
890.60 0.1079
890.70 0.1079
890.80 0.1078
890.90 0.1078
891.00 0.1077
891.10 0.1077
891.20 0.1077
891.30 0.1076
891.40 0.1076
891.50 0.1075
891.60 0.1075
891.70 0.1074
891.80 0.1074
891.90 0.1073
892.00 0.1073
892.10 0.1072
892.20 0.1072
892.30 0.1071
892.40 0.1071
892.50 0.107
892.60 0.107
892.70 0.107
892.80 0.1069
892.90 0.1069
893.00 0.1068
893.10 0.1068
893.20 0.1067
893.30 0.1067
893.40 0.1066
893.50 0.1066
893.60 0.1065
893.70 0.1065
893.80 0.1064
893.90 0.1064
894.00 0.1063
894.10 0.1063
894.20 0.1063
894.30 0.1062
894.40 0.1062
894.50 0.1061
894.60 0.1061
894.70 0.106
894.80 0.106
894.90 0.1059
895.00 0.1059
895.10 0.1058
895.20 0.1058
895.30 0.1057
895.40 0.1057
895.50 0.1056
895.60 0.1056
895.70 0.1056
895.80 0.1055
895.90 0.1055
896.00 0.1054
896.10 0.1054
896.20 0.1053
896.30 0.1053
896.40 0.1052
896.50 0.1052
896.60 0.1051
896.70 0.1051
896.80 0.105
896.90 0.105
897.00 0.105
897.10 0.1049
897.20 0.1049
897.30 0.1048
897.40 0.1048
897.50 0.1047
897.60 0.1047
897.70 0.1046
897.80 0.1046
897.90 0.1046
898.00 0.1045
898.10 0.1045
898.20 0.1044
898.30 0.1044
898.40 0.1043
898.50 0.1043
898.60 0.1042
898.70 0.1042
898.80 0.1041
898.90 0.1041
899.00 0.1041
899.10 0.104
899.20 0.104
899.30 0.1039
899.40 0.1039
899.50 0.1038
899.60 0.1038
899.70 0.1037
899.80 0.1037
899.90 0.1037
900.00 0.1036
900.10 0.1036
900.20 0.1035
900.30 0.1035
900.40 0.1034
900.50 0.1034
900.60 0.1033
900.70 0.1033
900.80 0.1033
900.90 0.1032
901.00 0.1032
901.10 0.1031
901.20 0.1031
901.30 0.103
901.40 0.103
901.50 0.1029
901.60 0.1029
901.70 0.1029
901.80 0.1028
901.90 0.1028
902.00 0.1027
902.10 0.1027
902.20 0.1026
902.30 0.1026
902.40 0.1026
902.50 0.1025
902.60 0.1025
902.70 0.1024
902.80 0.1024
902.90 0.1023
903.00 0.1023
903.10 0.1023
903.20 0.1022
903.30 0.1022
903.40 0.1021
903.50 0.1021
903.60 0.102
903.70 0.102
903.80 0.102
903.90 0.1019
904.00 0.1019
904.10 0.1018
904.20 0.1018
904.30 0.1017
904.40 0.1017
904.50 0.1017
904.60 0.1016
904.70 0.1016
904.80 0.1015
904.90 0.1015
905.00 0.1014
905.10 0.1014
905.20 0.1014
905.30 0.1013
905.40 0.1013
905.50 0.1012
905.60 0.1012
905.70 0.1011
905.80 0.1011
905.90 0.1011
906.00 0.101
906.10 0.101
906.20 0.1009
906.30 0.1009
906.40 0.1008
906.50 0.1008
906.60 0.1008
906.70 0.1007
906.80 0.1007
906.90 0.1006
907.00 0.1006
907.10 0.1005
907.20 0.1005
907.30 0.1005
907.40 0.1004
907.50 0.1004
907.60 0.1003
907.70 0.1003
907.80 0.1003
907.90 0.1002
908.00 0.1002
908.10 0.1001
908.20 0.1001
908.30 0.1
908.40 0.1
908.50 0.09996
908.60 0.09991
908.70 0.09987
908.80 0.09983
908.90 0.09979
909.00 0.09975
909.10 0.0997
909.20 0.09966
909.30 0.09962
909.40 0.09958
909.50 0.09953
909.60 0.09949
909.70 0.09945
909.80 0.09941
909.90 0.09937
910.00 0.09932
910.10 0.09928
910.20 0.09924
910.30 0.0992
910.40 0.09916
910.50 0.09912
910.60 0.09907
910.70 0.09903
910.80 0.09899
910.90 0.09895
911.00 0.09891
911.10 0.09886
911.20 0.09882
911.30 0.09878
911.40 0.09874
911.50 0.0987
911.60 0.09866
911.70 0.09861
911.80 0.09857
911.90 0.09853
912.00 0.09849
912.10 0.09845
912.20 0.0984
912.30 0.09836
912.40 0.09831
912.50 0.09827
912.60 0.09823
912.70 0.09818
912.80 0.09814
912.90 0.0981
913.00 0.09805
913.10 0.09801
913.20 0.09797
913.30 0.09792
913.40 0.09788
913.50 0.09784
913.60 0.09779
913.70 0.09775
913.80 0.09771
913.90 0.09767
914.00 0.09762
914.10 0.09758
914.20 0.09754
914.30 0.09749
914.40 0.09745
914.50 0.09741
914.60 0.09736
914.70 0.09732
914.80 0.09728
914.90 0.09723
915.00 0.09719
915.10 0.09715
915.20 0.0971
915.30 0.09706
915.40 0.09702
915.50 0.09698
915.60 0.09693
915.70 0.09689
915.80 0.09685
915.90 0.0968
916.00 0.09676
916.10 0.09672
916.20 0.09668
916.30 0.09663
916.40 0.09659
916.50 0.09655
916.60 0.0965
916.70 0.09646
916.80 0.09642
916.90 0.09638
917.00 0.09633
917.10 0.09629
917.20 0.09625
917.30 0.09621
917.40 0.09616
917.50 0.09612
917.60 0.09608
917.70 0.09603
917.80 0.09599
917.90 0.09595
918.00 0.0959
918.10 0.09586
918.20 0.09582
918.30 0.09578
918.40 0.09573
918.50 0.09569
918.60 0.09565
918.70 0.09561
918.80 0.09556
918.90 0.09552
919.00 0.09548
919.10 0.09543
919.20 0.09539
919.30 0.09535
919.40 0.09531
919.50 0.09526
919.60 0.09522
919.70 0.09518
919.80 0.09514
919.90 0.09509
920.00 0.09505
920.10 0.09501
920.20 0.09497
920.30 0.09492
920.40 0.09488
920.50 0.09484
920.60 0.0948
920.70 0.09475
920.80 0.09471
920.90 0.09467
921.00 0.09463
921.10 0.09458
921.20 0.09454
921.30 0.0945
921.40 0.09446
921.50 0.09441
921.60 0.09437
921.70 0.09433
921.80 0.09429
921.90 0.09425
922.00 0.0942
922.10 0.09417
922.20 0.09413
922.30 0.09409
922.40 0.09405
922.50 0.09402
922.60 0.09398
922.70 0.09394
922.80 0.0939
922.90 0.09387
923.00 0.09383
923.10 0.09379
923.20 0.09375
923.30 0.09372
923.40 0.09368
923.50 0.09364
923.60 0.0936
923.70 0.09357
923.80 0.09353
923.90 0.09349
924.00 0.09345
924.10 0.09342
924.20 0.09338
924.30 0.09334
924.40 0.09331
924.50 0.09327
924.60 0.09323
924.70 0.09319
924.80 0.09316
924.90 0.09312
925.00 0.09308
925.10 0.09305
925.20 0.09301
925.30 0.09297
925.40 0.09293
925.50 0.0929
925.60 0.09286
925.70 0.09282
925.80 0.09279
925.90 0.09275
926.00 0.09271
926.10 0.09267
926.20 0.09264
926.30 0.0926
926.40 0.09256
926.50 0.09253
926.60 0.09249
926.70 0.09245
926.80 0.09242
926.90 0.09238
927.00 0.09234
927.10 0.09231
927.20 0.09227
927.30 0.09224
927.40 0.0922
927.50 0.09217
927.60 0.09213
927.70 0.0921
927.80 0.09206
927.90 0.09202
928.00 0.09199
928.10 0.09195
928.20 0.09192
928.30 0.09188
928.40 0.09185
928.50 0.09181
928.60 0.09178
928.70 0.09174
928.80 0.09171
928.90 0.09167
929.00 0.09164
929.10 0.0916
929.20 0.09157
929.30 0.09153
929.40 0.0915
929.50 0.09146
929.60 0.09143
929.70 0.09139
929.80 0.09136
929.90 0.09132
930.00 0.09129
930.10 0.09125
930.20 0.09122
930.30 0.09118
930.40 0.09115
930.50 0.09111
930.60 0.09108
930.70 0.09105
930.80 0.09101
930.90 0.09098
931.00 0.09094
931.10 0.09091
931.20 0.09087
931.30 0.09084
931.40 0.0908
931.50 0.09077
931.60 0.09073
931.70 0.0907
931.80 0.09066
931.90 0.09063
932.00 0.09059
932.10 0.09056
932.20 0.09052
932.30 0.09049
932.40 0.09045
932.50 0.09041
932.60 0.09038
932.70 0.09034
932.80 0.09031
932.90 0.09027
933.00 0.09023
933.10 0.0902
933.20 0.09016
933.30 0.09013
933.40 0.09009
933.50 0.09006
933.60 0.09002
933.70 0.08998
933.80 0.08995
933.90 0.08991
934.00 0.08988
934.10 0.08984
934.20 0.08981
934.30 0.08977
934.40 0.08973
934.50 0.0897
934.60 0.08966
934.70 0.08962
934.80 0.08959
934.90 0.08955
935.00 0.08951
935.10 0.08948
935.20 0.08944
935.30 0.08941
935.40 0.08937
935.50 0.08933
935.60 0.0893
935.70 0.08926
935.80 0.08922
935.90 0.08919
936.00 0.08915
936.10 0.08912
936.20 0.08908
936.30 0.08904
936.40 0.08901
936.50 0.08897
936.60 0.08893
936.70 0.0889
936.80 0.08886
936.90 0.08883
937.00 0.08879
937.10 0.08875
937.20 0.08872
937.30 0.08868
937.40 0.08864
937.50 0.08861
937.60 0.08857
937.70 0.08853
937.80 0.0885
937.90 0.08846
938.00 0.08842
938.10 0.08839
938.20 0.08835
938.30 0.08831
938.40 0.08827
938.50 0.08824
938.60 0.0882
938.70 0.08816
938.80 0.08813
938.90 0.08809
939.00 0.08805
939.10 0.08802
939.20 0.08798
939.30 0.08794
939.40 0.0879
939.50 0.08787
939.60 0.08783
939.70 0.08779
939.80 0.08776
939.90 0.08772
940.00 0.08768
940.10 0.08765
940.20 0.08761
940.30 0.08757
940.40 0.08754
940.50 0.0875
940.60 0.08746
940.70 0.08742
940.80 0.08739
940.90 0.08735
941.00 0.08731
941.10 0.08727
941.20 0.08724
941.30 0.0872
941.40 0.08716
941.50 0.08712
941.60 0.08709
941.70 0.08705
941.80 0.08701
941.90 0.08697
942.00 0.08694
942.10 0.0869
942.20 0.08686
942.30 0.08682
942.40 0.08679
942.50 0.08675
942.60 0.08671
942.70 0.08667
942.80 0.08663
942.90 0.0866
943.00 0.08656
943.10 0.08652
943.20 0.08648
943.30 0.08644
943.40 0.08641
943.50 0.08637
943.60 0.08633
943.70 0.08629
943.80 0.08625
943.90 0.08622
944.00 0.08618
944.10 0.08614
944.20 0.0861
944.30 0.08606
944.40 0.08603
944.50 0.08599
944.60 0.08595
944.70 0.08591
944.80 0.08587
944.90 0.08583
945.00 0.08579
945.10 0.08576
945.20 0.08572
945.30 0.08568
945.40 0.08564
945.50 0.0856
945.60 0.08556
945.70 0.08552
945.80 0.08548
945.90 0.08544
946.00 0.0854
946.10 0.08536
946.20 0.08532
946.30 0.08528
946.40 0.08524
946.50 0.08521
946.60 0.08517
946.70 0.08513
946.80 0.08509
946.90 0.08505
947.00 0.08501
947.10 0.08497
947.20 0.08493
947.30 0.08489
947.40 0.08485
947.50 0.08481
947.60 0.08477
947.70 0.08473
947.80 0.08469
947.90 0.08465
948.00 0.0846
948.10 0.08456
948.20 0.08452
948.30 0.08448
948.40 0.08444
948.50 0.0844
948.60 0.08436
948.70 0.08432
948.80 0.08428
948.90 0.08424
949.00 0.0842
949.10 0.08416
949.20 0.08412
949.30 0.08408
949.40 0.08403
949.50 0.08399
949.60 0.08395
949.70 0.08391
949.80 0.08387
949.90 0.08383
950.00 0.08378
950.10 0.08374
950.20 0.0837
950.30 0.08366
950.40 0.08362
950.50 0.08358
950.60 0.08353
950.70 0.08349
950.80 0.08345
950.90 0.08341
951.00 0.08337
951.10 0.08333
951.20 0.08328
951.30 0.08324
951.40 0.0832
951.50 0.08316
951.60 0.08312
951.70 0.08308
951.80 0.08304
951.90 0.08299
952.00 0.08295
952.10 0.08291
952.20 0.08287
952.30 0.08283
952.40 0.08279
952.50 0.08275
952.60 0.08271
952.70 0.08267
952.80 0.08263
952.90 0.08259
953.00 0.08255
953.10 0.08252
953.20 0.08248
953.30 0.08244
953.40 0.08241
953.50 0.08237
953.60 0.08233
953.70 0.0823
953.80 0.08227
953.90 0.08224
954.00 0.08221
954.10 0.08218
954.20 0.08215
954.30 0.08213
954.40 0.08211
954.50 0.08209
954.60 0.08205
954.70 0.08202
954.80 0.08198
954.90 0.08193
955.00 0.08189
955.10 0.08185
955.20 0.08181
955.30 0.08178
955.40 0.08174
955.50 0.08171
955.60 0.08168
955.70 0.08164
955.80 0.08161
955.90 0.08158
956.00 0.08155
956.10 0.08153
956.20 0.0815
956.30 0.08147
956.40 0.08144
956.50 0.08142
956.60 0.08139
956.70 0.08136
956.80 0.08134
956.90 0.08131
957.00 0.08128
957.10 0.08126
957.20 0.08123
957.30 0.0812
957.40 0.08118
957.50 0.08115
957.60 0.08113
957.70 0.0811
957.80 0.08108
957.90 0.08105
958.00 0.08103
958.10 0.081
958.20 0.08098
958.30 0.08096
958.40 0.08093
958.50 0.08091
958.60 0.08088
958.70 0.08086
958.80 0.08083
958.90 0.08081
959.00 0.08078
959.10 0.08076
959.20 0.08073
959.30 0.08071
959.40 0.08068
959.50 0.08065
959.60 0.08063
959.70 0.0806
959.80 0.08058
959.90 0.08055
960.00 0.08052
960.10 0.0805
960.20 0.08047
960.30 0.08045
960.40 0.08042
960.50 0.08039
960.60 0.08037
960.70 0.08034
960.80 0.08032
960.90 0.08029
961.00 0.08026
961.10 0.08024
961.20 0.08021
961.30 0.08019
961.40 0.08016
961.50 0.08013
961.60 0.08011
961.70 0.08008
961.80 0.08005
961.90 0.08002
962.00 0.08
962.10 0.07997
962.20 0.07994
962.30 0.07991
962.40 0.07989
962.50 0.07986
962.60 0.07983
962.70 0.0798
962.80 0.07978
962.90 0.07975
963.00 0.07972
963.10 0.07969
963.20 0.07967
963.30 0.07964
963.40 0.07961
963.50 0.07958
963.60 0.07955
963.70 0.07953
963.80 0.0795
963.90 0.07947
964.00 0.07944
964.10 0.07941
964.20 0.07938
964.30 0.07936
964.40 0.07933
964.50 0.0793
964.60 0.07927
964.70 0.07924
964.80 0.07921
964.90 0.07918
965.00 0.07915
965.10 0.07912
965.20 0.0791
965.30 0.07907
965.40 0.07904
965.50 0.07901
965.60 0.07898
965.70 0.07895
965.80 0.07892
965.90 0.07889
966.00 0.07886
966.10 0.07884
966.20 0.07881
966.30 0.07878
966.40 0.07875
966.50 0.07872
966.60 0.07869
966.70 0.07866
966.80 0.07863
966.90 0.0786
967.00 0.07857
967.10 0.07854
967.20 0.07851
967.30 0.07848
967.40 0.07845
967.50 0.07842
967.60 0.07839
967.70 0.07836
967.80 0.07834
967.90 0.07831
968.00 0.07828
968.10 0.07825
968.20 0.07822
968.30 0.07819
968.40 0.07816
968.50 0.07813
968.60 0.0781
968.70 0.07807
968.80 0.07804
968.90 0.07801
969.00 0.07798
969.10 0.07795
969.20 0.07792
969.30 0.07789
969.40 0.07786
969.50 0.07783
969.60 0.0778
969.70 0.07777
969.80 0.07774
969.90 0.07771
970.00 0.07768
970.10 0.07765
970.20 0.07762
970.30 0.07759
970.40 0.07756
970.50 0.07753
970.60 0.0775
970.70 0.07747
970.80 0.07744
970.90 0.07741
971.00 0.07738
971.10 0.07735
971.20 0.07732
971.30 0.07729
971.40 0.07726
971.50 0.07723
971.60 0.0772
971.70 0.07717
971.80 0.07714
971.90 0.07711
972.00 0.07708
972.10 0.07705
972.20 0.07702
972.30 0.07699
972.40 0.07696
972.50 0.07693
972.60 0.0769
972.70 0.07687
972.80 0.07684
972.90 0.07681
973.00 0.07678
973.10 0.07675
973.20 0.07672
973.30 0.07669
973.40 0.07666
973.50 0.07663
973.60 0.0766
973.70 0.07657
973.80 0.07654
973.90 0.07651
974.00 0.07648
974.10 0.07645
974.20 0.07642
974.30 0.07639
974.40 0.07636
974.50 0.07633
974.60 0.0763
974.70 0.07627
974.80 0.07624
974.90 0.07621
975.00 0.07618
975.10 0.07615
975.20 0.07612
975.30 0.07609
975.40 0.07606
975.50 0.07603
975.60 0.076
975.70 0.07597
975.80 0.07594
975.90 0.07591
976.00 0.07588
976.10 0.07585
976.20 0.07582
976.30 0.07579
976.40 0.07576
976.50 0.07573
976.60 0.0757
976.70 0.07567
976.80 0.07564
976.90 0.07561
977.00 0.07558
977.10 0.07555
977.20 0.07552
977.30 0.07549
977.40 0.07546
977.50 0.07543
977.60 0.0754
977.70 0.07537
977.80 0.07534
977.90 0.07531
978.00 0.07528
978.10 0.07525
978.20 0.07522
978.30 0.07519
978.40 0.07516
978.50 0.07513
978.60 0.0751
978.70 0.07507
978.80 0.07504
978.90 0.07501
979.00 0.07498
979.10 0.07495
979.20 0.07492
979.30 0.07489
979.40 0.07486
979.50 0.07483
979.60 0.0748
979.70 0.07477
979.80 0.07474
979.90 0.07472
980.00 0.07469
980.10 0.07466
980.20 0.07463
980.30 0.0746
980.40 0.07457
980.50 0.07454
980.60 0.07451
980.70 0.07448
980.80 0.07445
980.90 0.07442
981.00 0.07439
981.10 0.07436
981.20 0.07433
981.30 0.0743
981.40 0.07427
981.50 0.07424
981.60 0.07421
981.70 0.07418
981.80 0.07415
981.90 0.07412
982.00 0.07409
982.10 0.07406
982.20 0.07403
982.30 0.074
982.40 0.07397
982.50 0.07395
982.60 0.07392
982.70 0.07389
982.80 0.07386
982.90 0.07383
983.00 0.0738
983.10 0.07377
983.20 0.07374
983.30 0.07371
983.40 0.07368
983.50 0.07365
983.60 0.07362
983.70 0.07359
983.80 0.07356
983.90 0.07353
984.00 0.0735
984.10 0.07347
984.20 0.07344
984.30 0.07341
984.40 0.07338
984.50 0.07335
984.60 0.07333
984.70 0.0733
984.80 0.07327
984.90 0.07324
985.00 0.07321
985.10 0.07318
985.20 0.07315
985.30 0.07312
985.40 0.07309
985.50 0.07306
985.60 0.07303
985.70 0.073
985.80 0.07297
985.90 0.07294
986.00 0.07291
986.10 0.07288
986.20 0.07285
986.30 0.07282
986.40 0.07279
986.50 0.07276
986.60 0.07274
986.70 0.07271
986.80 0.07268
986.90 0.07265
987.00 0.07262
987.10 0.07259
987.20 0.07256
987.30 0.07253
987.40 0.0725
987.50 0.07247
987.60 0.07244
987.70 0.07241
987.80 0.07238
987.90 0.07235
988.00 0.07232
988.10 0.07229
988.20 0.07226
988.30 0.07223
988.40 0.0722
988.50 0.07217
988.60 0.07214
988.70 0.07212
988.80 0.07209
988.90 0.07206
989.00 0.07203
989.10 0.072
989.20 0.07197
989.30 0.07194
989.40 0.07191
989.50 0.07188
989.60 0.07185
989.70 0.07182
989.80 0.07179
989.90 0.07176
990.00 0.07173
990.10 0.0717
990.20 0.07167
990.30 0.07164
990.40 0.07161
990.50 0.07158
990.60 0.07155
990.70 0.07152
990.80 0.07149
990.90 0.07146
991.00 0.07143
991.10 0.0714
991.20 0.07137
991.30 0.07134
991.40 0.07131
991.50 0.07128
991.60 0.07125
991.70 0.07122
991.80 0.07119
991.90 0.07116
992.00 0.07113
992.10 0.0711
992.20 0.07107
992.30 0.07104
992.40 0.07101
992.50 0.07098
992.60 0.07095
992.70 0.07092
992.80 0.07089
992.90 0.07085
993.00 0.07082
993.10 0.07079
993.20 0.07076
993.30 0.07073
993.40 0.0707
993.50 0.07067
993.60 0.07064
993.70 0.07061
993.80 0.07058
993.90 0.07054
994.00 0.07051
994.10 0.07048
994.20 0.07045
994.30 0.07042
994.40 0.07039
994.50 0.07036
994.60 0.07033
994.70 0.0703
994.80 0.07026
994.90 0.07023
995.00 0.0702
995.10 0.07017
995.20 0.07014
995.30 0.0701
995.40 0.07007
995.50 0.07004
995.60 0.07001
995.70 0.06998
995.80 0.06994
995.90 0.06991
996.00 0.06988
996.10 0.06984
996.20 0.06981
996.30 0.06978
996.40 0.06975
996.50 0.06971
996.60 0.06968
996.70 0.06965
996.80 0.06961
996.90 0.06958
997.00 0.06955
997.10 0.06951
997.20 0.06948
997.30 0.06945
997.40 0.06941
997.50 0.06938
997.60 0.06934
997.70 0.06931
997.80 0.06927
997.90 0.06924
998.00 0.0692
998.10 0.06916
998.20 0.06913
998.30 0.06909
998.40 0.06905
998.50 0.06902
998.60 0.06898
998.70 0.06895
998.80 0.06891
998.90 0.06887
999.00 0.06884
999.10 0.0688
999.20 0.06877
999.30 0.06873
999.40 0.0687
999.50 0.06866
999.60 0.06862
999.70 0.06858
999.80 0.06854
999.90 0.0685
1000.00 0.06846
1000.10 0.06842
1000.20 0.06838
1000.30 0.06834
1000.40 0.0683
1000.50 0.06826
1000.60 0.06822
1000.70 0.06818
1000.80 0.06814
1000.90 0.0681
1001.00 0.06806
1001.10 0.06802
1001.20 0.06798
1001.30 0.06794
1001.40 0.0679
1001.50 0.06786
1001.60 0.06782
1001.70 0.06778
1001.80 0.06774
1001.90 0.0677
1002.00 0.06766
1002.10 0.06762
1002.20 0.06758
1002.30 0.06754
1002.40 0.0675
1002.50 0.06746
1002.60 0.06742
1002.70 0.06738
1002.80 0.06733
1002.90 0.06729
1003.00 0.06725
1003.10 0.06721
1003.20 0.06718
1003.30 0.06714
1003.40 0.06711
1003.50 0.06707
1003.60 0.06704
1003.70 0.06701
1003.80 0.06697
1003.90 0.06695
1004.00 0.06693
1004.10 0.06691
1004.20 0.06689
1004.30 0.06688
1004.40 0.06688
1004.50 0.06689
1004.60 0.06691
1004.70 0.06693
1004.80 0.06695
1004.90 0.06694
1005.00 0.06692
1005.10 0.06686
1005.20 0.06679
1005.30 0.06672
1005.40 0.06665
1005.50 0.0666
1005.60 0.06657
1005.70 0.06653
1005.80 0.0665
1005.90 0.06646
1006.00 0.06642
1006.10 0.06639
1006.20 0.06637
1006.30 0.06635
1006.40 0.06634
1006.50 0.06632
1006.60 0.06631
1006.70 0.06629
1006.80 0.06628
1006.90 0.06626
1007.00 0.06625
1007.10 0.06624
1007.20 0.06623
1007.30 0.06621
1007.40 0.0662
1007.50 0.06619
1007.60 0.06618
1007.70 0.06617
1007.80 0.06616
1007.90 0.06615
1008.00 0.06614
1008.10 0.06612
1008.20 0.06611
1008.30 0.0661
1008.40 0.06609
1008.50 0.06608
1008.60 0.06606
1008.70 0.06605
1008.80 0.06604
1008.90 0.06603
1009.00 0.06602
1009.10 0.066
1009.20 0.06599
1009.30 0.06598
1009.40 0.06597
1009.50 0.06596
1009.60 0.06595
1009.70 0.06593
1009.80 0.06591
1009.90 0.0659
1010.00 0.06588
1010.10 0.06587
1010.20 0.06585
1010.30 0.06584
1010.40 0.06582
1010.50 0.0658
1010.60 0.06579
1010.70 0.06577
1010.80 0.06576
1010.90 0.06574
1011.00 0.06573
1011.10 0.06571
1011.20 0.0657
1011.30 0.06568
1011.40 0.06566
1011.50 0.06565
1011.60 0.06563
1011.70 0.06562
1011.80 0.0656
1011.90 0.06558
1012.00 0.06556
1012.10 0.06554
1012.20 0.06552
1012.30 0.06551
1012.40 0.06549
1012.50 0.06547
1012.60 0.06545
1012.70 0.06543
1012.80 0.06541
1012.90 0.06539
1013.00 0.06537
1013.10 0.06535
1013.20 0.06533
1013.30 0.06531
1013.40 0.0653
1013.50 0.06528
1013.60 0.06526
1013.70 0.06524
1013.80 0.06522
1013.90 0.0652
1014.00 0.06518
1014.10 0.06516
1014.20 0.06514
1014.30 0.06511
1014.40 0.06509
1014.50 0.06507
1014.60 0.06505
1014.70 0.06503
1014.80 0.06501
1014.90 0.06499
1015.00 0.06497
1015.10 0.06495
1015.20 0.06492
1015.30 0.0649
1015.40 0.06488
1015.50 0.06486
1015.60 0.06484
1015.70 0.06482
1015.80 0.06479
1015.90 0.06477
1016.00 0.06475
1016.10 0.06473
1016.20 0.06471
1016.30 0.06469
1016.40 0.06467
1016.50 0.06464
1016.60 0.06462
1016.70 0.0646
1016.80 0.06458
1016.90 0.06456
1017.00 0.06453
1017.10 0.06451
1017.20 0.06449
1017.30 0.06447
1017.40 0.06444
1017.50 0.06442
1017.60 0.0644
1017.70 0.06438
1017.80 0.06435
1017.90 0.06433
1018.00 0.06431
1018.10 0.06429
1018.20 0.06426
1018.30 0.06424
1018.40 0.06422
1018.50 0.0642
1018.60 0.06417
1018.70 0.06415
1018.80 0.06413
1018.90 0.0641
1019.00 0.06408
1019.10 0.06406
1019.20 0.06403
1019.30 0.06401
1019.40 0.06399
1019.50 0.06397
1019.60 0.06394
1019.70 0.06392
1019.80 0.0639
1019.90 0.06387
1020.00 0.06385
1020.10 0.06383
1020.20 0.0638
1020.30 0.06378
1020.40 0.06376
1020.50 0.06374
1020.60 0.06371
1020.70 0.06369
1020.80 0.06367
1020.90 0.06364
1021.00 0.06362
1021.10 0.0636
1021.20 0.06357
1021.30 0.06355
1021.40 0.06353
1021.50 0.0635
1021.60 0.06348
1021.70 0.06346
1021.80 0.06343
1021.90 0.06341
1022.00 0.06339
1022.10 0.06336
1022.20 0.06334
1022.30 0.06332
1022.40 0.06329
1022.50 0.06327
1022.60 0.06325
1022.70 0.06322
1022.80 0.0632
1022.90 0.06318
1023.00 0.06315
1023.10 0.06313
1023.20 0.06311
1023.30 0.06308
1023.40 0.06306
1023.50 0.06304
1023.60 0.06301
1023.70 0.06299
1023.80 0.06297
1023.90 0.06294
1024.00 0.06292
1024.10 0.0629
1024.20 0.06288
1024.30 0.06285
1024.40 0.06283
1024.50 0.06281
1024.60 0.06278
1024.70 0.06276
1024.80 0.06274
1024.90 0.06271
1025.00 0.06269
1025.10 0.06267
1025.20 0.06264
1025.30 0.06262
1025.40 0.0626
1025.50 0.06257
1025.60 0.06255
1025.70 0.06253
1025.80 0.0625
1025.90 0.06248
1026.00 0.06246
1026.10 0.06243
1026.20 0.06241
1026.30 0.06239
1026.40 0.06236
1026.50 0.06234
1026.60 0.06232
1026.70 0.06229
1026.80 0.06227
1026.90 0.06225
1027.00 0.06222
1027.10 0.0622
1027.20 0.06218
1027.30 0.06215
1027.40 0.06213
1027.50 0.06211
1027.60 0.06208
1027.70 0.06206
1027.80 0.06204
1027.90 0.06202
1028.00 0.06199
1028.10 0.06197
1028.20 0.06195
1028.30 0.06192
1028.40 0.0619
1028.50 0.06188
1028.60 0.06185
1028.70 0.06183
1028.80 0.06181
1028.90 0.06178
1029.00 0.06176
1029.10 0.06174
1029.20 0.06171
1029.30 0.06169
1029.40 0.06167
1029.50 0.06165
1029.60 0.06162
1029.70 0.0616
1029.80 0.06158
1029.90 0.06155
1030.00 0.06153
1030.10 0.06151
1030.20 0.06148
1030.30 0.06146
1030.40 0.06144
1030.50 0.06142
1030.60 0.06139
1030.70 0.06137
1030.80 0.06135
1030.90 0.06132
1031.00 0.0613
1031.10 0.06128
1031.20 0.06125
1031.30 0.06123
1031.40 0.06121
1031.50 0.06119
1031.60 0.06116
1031.70 0.06114
1031.80 0.06112
1031.90 0.06109
1032.00 0.06107
1032.10 0.06105
1032.20 0.06103
1032.30 0.061
1032.40 0.06098
1032.50 0.06096
1032.60 0.06093
1032.70 0.06091
1032.80 0.06089
1032.90 0.06087
1033.00 0.06084
1033.10 0.06082
1033.20 0.0608
1033.30 0.06077
1033.40 0.06075
1033.50 0.06073
1033.60 0.06071
1033.70 0.06068
1033.80 0.06066
1033.90 0.06064
1034.00 0.06062
1034.10 0.06059
1034.20 0.06057
1034.30 0.06055
1034.40 0.06053
1034.50 0.0605
1034.60 0.06048
1034.70 0.06046
1034.80 0.06043
1034.90 0.06041
1035.00 0.06039
1035.10 0.06037
1035.20 0.06034
1035.30 0.06032
1035.40 0.0603
1035.50 0.06028
1035.60 0.06025
1035.70 0.06023
1035.80 0.06021
1035.90 0.06019
1036.00 0.06016
1036.10 0.06014
1036.20 0.06012
1036.30 0.0601
1036.40 0.06007
1036.50 0.06005
1036.60 0.06003
1036.70 0.06001
1036.80 0.05998
1036.90 0.05996
1037.00 0.05994
1037.10 0.05992
1037.20 0.05989
1037.30 0.05987
1037.40 0.05985
1037.50 0.05983
1037.60 0.0598
1037.70 0.05978
1037.80 0.05976
1037.90 0.05974
1038.00 0.05972
1038.10 0.05969
1038.20 0.05967
1038.30 0.05965
1038.40 0.05963
1038.50 0.0596
1038.60 0.05958
1038.70 0.05956
1038.80 0.05954
1038.90 0.05951
1039.00 0.05949
1039.10 0.05947
1039.20 0.05945
1039.30 0.05943
1039.40 0.0594
1039.50 0.05938
1039.60 0.05936
1039.70 0.05934
1039.80 0.05931
1039.90 0.05929
1040.00 0.05927
1040.10 0.05925
1040.20 0.05923
1040.30 0.0592
1040.40 0.05918
1040.50 0.05916
1040.60 0.05914
1040.70 0.05912
1040.80 0.05909
1040.90 0.05907
1041.00 0.05905
1041.10 0.05903
1041.20 0.05901
1041.30 0.05898
1041.40 0.05896
1041.50 0.05894
1041.60 0.05892
1041.70 0.0589
1041.80 0.05887
1041.90 0.05885
1042.00 0.05883
1042.10 0.05881
1042.20 0.05879
1042.30 0.05876
1042.40 0.05874
1042.50 0.05872
1042.60 0.0587
1042.70 0.05868
1042.80 0.05865
1042.90 0.05863
1043.00 0.05861
1043.10 0.05859
1043.20 0.05857
1043.30 0.05855
1043.40 0.05852
1043.50 0.0585
1043.60 0.05848
1043.70 0.05846
1043.80 0.05844
1043.90 0.05841
1044.00 0.05839
1044.10 0.05837
1044.20 0.05835
1044.30 0.05833
1044.40 0.05831
1044.50 0.05828
1044.60 0.05826
1044.70 0.05824
1044.80 0.05822
1044.90 0.0582
1045.00 0.05818
1045.10 0.05815
1045.20 0.05813
1045.30 0.05811
1045.40 0.05809
1045.50 0.05807
1045.60 0.05805
1045.70 0.05802
1045.80 0.058
1045.90 0.05798
1046.00 0.05796
1046.10 0.05794
1046.20 0.05792
1046.30 0.05789
1046.40 0.05787
1046.50 0.05785
1046.60 0.05783
1046.70 0.05781
1046.80 0.05779
1046.90 0.05776
1047.00 0.05774
1047.10 0.05772
1047.20 0.0577
1047.30 0.05768
1047.40 0.05766
1047.50 0.05764
1047.60 0.05761
1047.70 0.05759
1047.80 0.05757
1047.90 0.05755
1048.00 0.05753
1048.10 0.05751
1048.20 0.05749
1048.30 0.05747
1048.40 0.05744
1048.50 0.05742
1048.60 0.0574
1048.70 0.05738
1048.80 0.05736
1048.90 0.05734
1049.00 0.05732
1049.10 0.0573
1049.20 0.05727
1049.30 0.05725
1049.40 0.05723
1049.50 0.05721
1049.60 0.05719
1049.70 0.05717
1049.80 0.05715
1049.90 0.05713
1050.00 0.0571
1050.10 0.05708
1050.20 0.05706
1050.30 0.05704
1050.40 0.05702
1050.50 0.057
1050.60 0.05698
1050.70 0.05696
1050.80 0.05693
1050.90 0.05691
1051.00 0.05689
1051.10 0.05687
1051.20 0.05685
1051.30 0.05683
1051.40 0.05681
1051.50 0.05679
1051.60 0.05677
1051.70 0.05674
1051.80 0.05672
1051.90 0.0567
1052.00 0.05668
1052.10 0.05666
1052.20 0.05664
1052.30 0.05662
1052.40 0.0566
1052.50 0.05658
1052.60 0.05656
1052.70 0.05653
1052.80 0.05651
1052.90 0.05649
1053.00 0.05647
1053.10 0.05645
1053.20 0.05643
1053.30 0.05641
1053.40 0.05639
1053.50 0.05637
1053.60 0.05635
1053.70 0.05633
1053.80 0.05631
1053.90 0.05628
1054.00 0.05626
1054.10 0.05624
1054.20 0.05622
1054.30 0.0562
1054.40 0.05618
1054.50 0.05616
1054.60 0.05614
1054.70 0.05612
1054.80 0.0561
1054.90 0.05608
1055.00 0.05606
1055.10 0.05603
1055.20 0.05601
1055.30 0.05599
1055.40 0.05597
1055.50 0.05595
1055.60 0.05593
1055.70 0.05591
1055.80 0.05589
1055.90 0.05587
1056.00 0.05585
1056.10 0.05583
1056.20 0.05581
1056.30 0.05579
1056.40 0.05577
1056.50 0.05575
1056.60 0.05572
1056.70 0.0557
1056.80 0.05568
1056.90 0.05566
1057.00 0.05564
1057.10 0.05562
1057.20 0.0556
1057.30 0.05558
1057.40 0.05556
1057.50 0.05554
1057.60 0.05552
1057.70 0.0555
1057.80 0.05548
1057.90 0.05546
1058.00 0.05544
1058.10 0.05542
1058.20 0.0554
1058.30 0.05538
1058.40 0.05536
1058.50 0.05534
1058.60 0.05531
1058.70 0.05529
1058.80 0.05527
1058.90 0.05525
1059.00 0.05523
1059.10 0.05521
1059.20 0.05519
1059.30 0.05517
1059.40 0.05515
1059.50 0.05513
1059.60 0.05511
1059.70 0.05509
1059.80 0.05507
1059.90 0.05505
1060.00 0.05503
1060.10 0.05501
1060.20 0.05499
1060.30 0.05497
1060.40 0.05495
1060.50 0.05493
1060.60 0.05491
1060.70 0.05489
1060.80 0.05487
1060.90 0.05485
1061.00 0.05483
1061.10 0.05481
1061.20 0.05479
1061.30 0.05477
1061.40 0.05475
1061.50 0.05473
1061.60 0.05471
1061.70 0.05469
1061.80 0.05467
1061.90 0.05464
1062.00 0.05462
1062.10 0.0546
1062.20 0.05458
1062.30 0.05456
1062.40 0.05454
1062.50 0.05452
1062.60 0.0545
1062.70 0.05448
1062.80 0.05446
1062.90 0.05444
1063.00 0.05442
1063.10 0.0544
1063.20 0.05438
1063.30 0.05436
1063.40 0.05434
1063.50 0.05432
1063.60 0.0543
1063.70 0.05428
1063.80 0.05426
1063.90 0.05424
1064.00 0.05422
1064.10 0.0542
1064.20 0.05418
1064.30 0.05416
1064.40 0.05414
1064.50 0.05412
1064.60 0.0541
1064.70 0.05408
1064.80 0.05406
1064.90 0.05404
1065.00 0.05402
1065.10 0.054
1065.20 0.05398
1065.30 0.05396
1065.40 0.05394
1065.50 0.05392
1065.60 0.0539
1065.70 0.05388
1065.80 0.05387
1065.90 0.05385
1066.00 0.05383
1066.10 0.05381
1066.20 0.05379
1066.30 0.05377
1066.40 0.05375
1066.50 0.05373
1066.60 0.05371
1066.70 0.05369
1066.80 0.05367
1066.90 0.05365
1067.00 0.05363
1067.10 0.05361
1067.20 0.05359
1067.30 0.05357
1067.40 0.05355
1067.50 0.05353
1067.60 0.05351
1067.70 0.05349
1067.80 0.05347
1067.90 0.05345
1068.00 0.05343
1068.10 0.05341
1068.20 0.05339
1068.30 0.05337
1068.40 0.05335
1068.50 0.05333
1068.60 0.05331
1068.70 0.05329
1068.80 0.05327
1068.90 0.05325
1069.00 0.05323
1069.10 0.05321
1069.20 0.05319
1069.30 0.05317
1069.40 0.05315
1069.50 0.05313
1069.60 0.05311
1069.70 0.0531
1069.80 0.05308
1069.90 0.05306
1070.00 0.05304
1070.10 0.05302
1070.20 0.053
1070.30 0.05298
1070.40 0.05296
1070.50 0.05294
1070.60 0.05292
1070.70 0.0529
1070.80 0.05288
1070.90 0.05286
1071.00 0.05284
1071.10 0.05282
1071.20 0.0528
1071.30 0.05278
1071.40 0.05276
1071.50 0.05274
1071.60 0.05272
1071.70 0.0527
1071.80 0.05268
1071.90 0.05267
1072.00 0.05265
1072.10 0.05263
1072.20 0.05261
1072.30 0.05259
1072.40 0.05257
1072.50 0.05255
1072.60 0.05253
1072.70 0.05251
1072.80 0.05249
1072.90 0.05247
1073.00 0.05245
1073.10 0.05243
1073.20 0.05241
1073.30 0.05239
1073.40 0.05237
1073.50 0.05235
1073.60 0.05233
1073.70 0.05231
1073.80 0.05229
1073.90 0.05228
1074.00 0.05226
1074.10 0.05224
1074.20 0.05222
1074.30 0.0522
1074.40 0.05218
1074.50 0.05216
1074.60 0.05214
1074.70 0.05212
1074.80 0.0521
1074.90 0.05208
1075.00 0.05206
1075.10 0.05204
1075.20 0.05202
1075.30 0.052
1075.40 0.05198
1075.50 0.05196
1075.60 0.05194
1075.70 0.05192
1075.80 0.0519
1075.90 0.05188
1076.00 0.05187
1076.10 0.05185
1076.20 0.05183
1076.30 0.05181
1076.40 0.05179
1076.50 0.05177
1076.60 0.05175
1076.70 0.05173
1076.80 0.05171
1076.90 0.05169
1077.00 0.05167
1077.10 0.05165
1077.20 0.05163
1077.30 0.05161
1077.40 0.05159
1077.50 0.05157
1077.60 0.05155
1077.70 0.05153
1077.80 0.05151
1077.90 0.05149
1078.00 0.05147
1078.10 0.05145
1078.20 0.05144
1078.30 0.05142
1078.40 0.0514
1078.50 0.05138
1078.60 0.05136
1078.70 0.05134
1078.80 0.05132
1078.90 0.0513
1079.00 0.05128
1079.10 0.05126
1079.20 0.05124
1079.30 0.05122
1079.40 0.0512
1079.50 0.05118
1079.60 0.05116
1079.70 0.05114
1079.80 0.05112
1079.90 0.0511
1080.00 0.05108
1080.10 0.05106
1080.20 0.05104
1080.30 0.05102
1080.40 0.051
1080.50 0.05098
1080.60 0.05096
1080.70 0.05094
1080.80 0.05092
1080.90 0.0509
1081.00 0.05088
1081.10 0.05086
1081.20 0.05084
1081.30 0.05082
1081.40 0.0508
1081.50 0.05078
1081.60 0.05076
1081.70 0.05074
1081.80 0.05072
1081.90 0.0507
1082.00 0.05067
1082.10 0.05065
1082.20 0.05063
1082.30 0.05061
1082.40 0.05059
1082.50 0.05057
1082.60 0.05055
1082.70 0.05053
1082.80 0.05051
1082.90 0.05049
1083.00 0.05046
1083.10 0.05044
1083.20 0.05042
1083.30 0.0504
1083.40 0.05038
1083.50 0.05036
1083.60 0.05034
1083.70 0.05032
1083.80 0.05029
1083.90 0.05027
1084.00 0.05025
1084.10 0.05023
1084.20 0.05021
1084.30 0.05018
1084.40 0.05016
1084.50 0.05014
1084.60 0.05012
1084.70 0.05009
1084.80 0.05007
1084.90 0.05005
1085.00 0.05002
1085.10 0.05
1085.20 0.04998
1085.30 0.04995
1085.40 0.04993
1085.50 0.04991
1085.60 0.04988
1085.70 0.04986
1085.80 0.04984
1085.90 0.04981
1086.00 0.04979
1086.10 0.04977
1086.20 0.04974
1086.30 0.04972
1086.40 0.0497
1086.50 0.04967
1086.60 0.04965
1086.70 0.04962
1086.80 0.0496
1086.90 0.04957
1087.00 0.04955
1087.10 0.04952
1087.20 0.04949
1087.30 0.04947
1087.40 0.04944
1087.50 0.04941
1087.60 0.04938
1087.70 0.04936
1087.80 0.04933
1087.90 0.0493
1088.00 0.04928
1088.10 0.04925
1088.20 0.04922
1088.30 0.0492
1088.40 0.04917
1088.50 0.04914
1088.60 0.04911
1088.70 0.04908
1088.80 0.04905
1088.90 0.04902
1089.00 0.04899
1089.10 0.04895
1089.20 0.04892
1089.30 0.04889
1089.40 0.04886
1089.50 0.04883
1089.60 0.0488
1089.70 0.04877
1089.80 0.04874
1089.90 0.04871
1090.00 0.04868
1090.10 0.04864
1090.20 0.04861
1090.30 0.04858
1090.40 0.04855
1090.50 0.04852
1090.60 0.04849
1090.70 0.04846
1090.80 0.04842
1090.90 0.04839
1091.00 0.04836
1091.10 0.04832
1091.20 0.04829
1091.30 0.04826
1091.40 0.04823
1091.50 0.04819
1091.60 0.04816
1091.70 0.04813
1091.80 0.0481
1091.90 0.04806
1092.00 0.04803
1092.10 0.04801
1092.20 0.04798
1092.30 0.04796
1092.40 0.04794
1092.50 0.04791
1092.60 0.04789
1092.70 0.04787
1092.80 0.04786
1092.90 0.04785
1093.00 0.04784
1093.10 0.04784
1093.20 0.04784
1093.30 0.04785
1093.40 0.04787
1093.50 0.0479
1093.60 0.04797
1093.70 0.04802
1093.80 0.04805
1093.90 0.04804
1094.00 0.04795
1094.10 0.04786
1094.20 0.04777
1094.30 0.04769
1094.40 0.04766
1094.50 0.04763
1094.60 0.0476
1094.70 0.04757
1094.80 0.04754
1094.90 0.04751
1095.00 0.04748
1095.10 0.04748
1095.20 0.04747
1095.30 0.04747
1095.40 0.04746
1095.50 0.04746
1095.60 0.04745
1095.70 0.04745
1095.80 0.04744
1095.90 0.04744
1096.00 0.04743
1096.10 0.04743
1096.20 0.04742
1096.30 0.04742
1096.40 0.04741
1096.50 0.04741
1096.60 0.04741
1096.70 0.04741
1096.80 0.04741
1096.90 0.04741
1097.00 0.0474
1097.10 0.0474
1097.20 0.0474
1097.30 0.0474
1097.40 0.04739
1097.50 0.04739
1097.60 0.04739
1097.70 0.04739
1097.80 0.04738
1097.90 0.04738
1098.00 0.04738
1098.10 0.04738
1098.20 0.04737
1098.30 0.04737
1098.40 0.04737
1098.50 0.04736
1098.60 0.04736
1098.70 0.04735
1098.80 0.04734
1098.90 0.04734
1099.00 0.04733
1099.10 0.04732
1099.20 0.04732
1099.30 0.04731
1099.40 0.0473
1099.50 0.0473
1099.60 0.04729
1099.70 0.04728
1099.80 0.04728
1099.90 0.04727
1100.00 0.04726
1100.10 0.04726
1100.20 0.04725
1100.30 0.04724
1100.40 0.04724
1100.50 0.04723
1100.60 0.04722
1100.70 0.04721
1100.80 0.0472
1100.90 0.04719
1101.00 0.04718
1101.10 0.04717
1101.20 0.04716
1101.30 0.04715
1101.40 0.04713
1101.50 0.04712
1101.60 0.04711
1101.70 0.0471
1101.80 0.04709
1101.90 0.04708
1102.00 0.04707
1102.10 0.04706
1102.20 0.04705
1102.30 0.04704
1102.40 0.04703
1102.50 0.04701
1102.60 0.047
1102.70 0.04699
1102.80 0.04698
1102.90 0.04696
1103.00 0.04695
1103.10 0.04694
1103.20 0.04693
1103.30 0.04691
1103.40 0.0469
1103.50 0.04689
1103.60 0.04687
1103.70 0.04686
1103.80 0.04685
1103.90 0.04683
1104.00 0.04682
1104.10 0.04681
1104.20 0.04679
1104.30 0.04678
1104.40 0.04676
1104.50 0.04675
1104.60 0.04674
1104.70 0.04672
1104.80 0.04671
1104.90 0.0467
1105.00 0.04668
1105.10 0.04667
1105.20 0.04665
1105.30 0.04664
1105.40 0.04663
1105.50 0.04661
1105.60 0.0466
1105.70 0.04658
1105.80 0.04657
1105.90 0.04656
1106.00 0.04654
1106.10 0.04653
1106.20 0.04651
1106.30 0.0465
1106.40 0.04648
1106.50 0.04647
1106.60 0.04645
1106.70 0.04644
1106.80 0.04642
1106.90 0.04641
1107.00 0.0464
1107.10 0.04638
1107.20 0.04637
1107.30 0.04635
1107.40 0.04634
1107.50 0.04632
1107.60 0.04631
1107.70 0.04629
1107.80 0.04628
1107.90 0.04626
1108.00 0.04624
1108.10 0.04623
1108.20 0.04621
1108.30 0.0462
1108.40 0.04618
1108.50 0.04617
1108.60 0.04615
1108.70 0.04614
1108.80 0.04612
1108.90 0.04611
1109.00 0.04609
1109.10 0.04608
1109.20 0.04606
1109.30 0.04605
1109.40 0.04603
1109.50 0.04602
1109.60 0.046
1109.70 0.04599
1109.80 0.04597
1109.90 0.04596
1110.00 0.04594
1110.10 0.04593
1110.20 0.04591
1110.30 0.04589
1110.40 0.04588
1110.50 0.04586
1110.60 0.04585
1110.70 0.04583
1110.80 0.04582
1110.90 0.0458
1111.00 0.04579
1111.10 0.04577
1111.20 0.04576
1111.30 0.04574
1111.40 0.04573
1111.50 0.04571
1111.60 0.04569
1111.70 0.04568
1111.80 0.04566
1111.90 0.04565
1112.00 0.04563
1112.10 0.04562
1112.20 0.0456
1112.30 0.04559
1112.40 0.04557
1112.50 0.04556
1112.60 0.04554
1112.70 0.04552
1112.80 0.04551
1112.90 0.04549
1113.00 0.04548
1113.10 0.04546
1113.20 0.04545
1113.30 0.04543
1113.40 0.04542
1113.50 0.0454
1113.60 0.04539
1113.70 0.04537
1113.80 0.04535
1113.90 0.04534
1114.00 0.04532
1114.10 0.04531
1114.20 0.04529
1114.30 0.04528
1114.40 0.04526
1114.50 0.04525
1114.60 0.04523
1114.70 0.04521
1114.80 0.0452
1114.90 0.04518
1115.00 0.04517
1115.10 0.04515
1115.20 0.04514
1115.30 0.04512
1115.40 0.04511
1115.50 0.04509
1115.60 0.04508
1115.70 0.04506
1115.80 0.04504
1115.90 0.04503
1116.00 0.04501
1116.10 0.045
1116.20 0.04498
1116.30 0.04497
1116.40 0.04495
1116.50 0.04494
1116.60 0.04492
1116.70 0.04491
1116.80 0.04489
1116.90 0.04488
1117.00 0.04486
1117.10 0.04484
1117.20 0.04483
1117.30 0.04481
1117.40 0.0448
1117.50 0.04478
1117.60 0.04477
1117.70 0.04475
1117.80 0.04474
1117.90 0.04472
1118.00 0.04471
1118.10 0.04469
1118.20 0.04468
1118.30 0.04466
1118.40 0.04464
1118.50 0.04463
1118.60 0.04461
1118.70 0.0446
1118.80 0.04458
1118.90 0.04457
1119.00 0.04455
1119.10 0.04454
1119.20 0.04452
1119.30 0.04451
1119.40 0.04449
1119.50 0.04448
1119.60 0.04446
1119.70 0.04444
1119.80 0.04443
1119.90 0.04441
1120.00 0.0444
1120.10 0.04438
1120.20 0.04437
1120.30 0.04435
1120.40 0.04434
1120.50 0.04432
1120.60 0.04431
1120.70 0.04429
1120.80 0.04428
1120.90 0.04426
1121.00 0.04425
1121.10 0.04423
1121.20 0.04422
1121.30 0.0442
1121.40 0.04419
1121.50 0.04417
1121.60 0.04415
1121.70 0.04414
1121.80 0.04412
1121.90 0.04411
1122.00 0.04409
1122.10 0.04408
1122.20 0.04406
1122.30 0.04405
1122.40 0.04403
1122.50 0.04402
1122.60 0.044
1122.70 0.04399
1122.80 0.04397
1122.90 0.04396
1123.00 0.04394
1123.10 0.04393
1123.20 0.04391
1123.30 0.0439
1123.40 0.04388
1123.50 0.04387
1123.60 0.04385
1123.70 0.04384
1123.80 0.04382
1123.90 0.04381
1124.00 0.04379
1124.10 0.04378
1124.20 0.04376
1124.30 0.04375
1124.40 0.04373
1124.50 0.04372
1124.60 0.0437
1124.70 0.04369
1124.80 0.04367
1124.90 0.04366
1125.00 0.04364
1125.10 0.04362
1125.20 0.04361
1125.30 0.04359
1125.40 0.04358
1125.50 0.04356
1125.60 0.04355
1125.70 0.04353
1125.80 0.04352
1125.90 0.0435
1126.00 0.04349
1126.10 0.04347
1126.20 0.04346
1126.30 0.04344
1126.40 0.04343
1126.50 0.04341
1126.60 0.0434
1126.70 0.04338
1126.80 0.04337
1126.90 0.04335
1127.00 0.04334
1127.10 0.04332
1127.20 0.04331
1127.30 0.0433
1127.40 0.04328
1127.50 0.04327
1127.60 0.04325
1127.70 0.04324
1127.80 0.04322
1127.90 0.04321
1128.00 0.04319
1128.10 0.04318
1128.20 0.04316
1128.30 0.04315
1128.40 0.04313
1128.50 0.04312
1128.60 0.0431
1128.70 0.04309
1128.80 0.04307
1128.90 0.04306
1129.00 0.04304
1129.10 0.04303
1129.20 0.04301
1129.30 0.043
1129.40 0.04298
1129.50 0.04297
1129.60 0.04295
1129.70 0.04294
1129.80 0.04292
1129.90 0.04291
1130.00 0.04289
1130.10 0.04288
1130.20 0.04287
1130.30 0.04285
1130.40 0.04284
1130.50 0.04282
1130.60 0.04281
1130.70 0.04279
1130.80 0.04278
1130.90 0.04276
1131.00 0.04275
1131.10 0.04273
1131.20 0.04272
1131.30 0.0427
1131.40 0.04269
1131.50 0.04267
1131.60 0.04266
1131.70 0.04264
1131.80 0.04263
1131.90 0.04262
1132.00 0.0426
1132.10 0.04259
1132.20 0.04257
1132.30 0.04256
1132.40 0.04254
1132.50 0.04253
1132.60 0.04251
1132.70 0.0425
1132.80 0.04248
1132.90 0.04247
1133.00 0.04245
1133.10 0.04244
1133.20 0.04243
1133.30 0.04241
1133.40 0.0424
1133.50 0.04238
1133.60 0.04237
1133.70 0.04235
1133.80 0.04234
1133.90 0.04232
1134.00 0.04231
1134.10 0.04229
1134.20 0.04228
1134.30 0.04227
1134.40 0.04225
1134.50 0.04224
1134.60 0.04222
1134.70 0.04221
1134.80 0.04219
1134.90 0.04218
1135.00 0.04216
1135.10 0.04215
1135.20 0.04214
1135.30 0.04212
1135.40 0.04211
1135.50 0.04209
1135.60 0.04208
1135.70 0.04206
1135.80 0.04205
1135.90 0.04203
1136.00 0.04202
1136.10 0.04201
1136.20 0.04199
1136.30 0.04198
1136.40 0.04196
1136.50 0.04195
1136.60 0.04193
1136.70 0.04192
1136.80 0.0419
1136.90 0.04189
1137.00 0.04188
1137.10 0.04186
1137.20 0.04185
1137.30 0.04183
1137.40 0.04182
1137.50 0.0418
1137.60 0.04179
1137.70 0.04178
1137.80 0.04176
1137.90 0.04175
1138.00 0.04173
1138.10 0.04172
1138.20 0.0417
1138.30 0.04169
1138.40 0.04168
1138.50 0.04166
1138.60 0.04165
1138.70 0.04163
1138.80 0.04162
1138.90 0.04161
1139.00 0.04159
1139.10 0.04158
1139.20 0.04156
1139.30 0.04155
1139.40 0.04153
1139.50 0.04152
1139.60 0.04151
1139.70 0.04149
1139.80 0.04148
1139.90 0.04146
1140.00 0.04145
1140.10 0.04143
1140.20 0.04142
1140.30 0.04141
1140.40 0.04139
1140.50 0.04138
1140.60 0.04136
1140.70 0.04135
1140.80 0.04134
1140.90 0.04132
1141.00 0.04131
1141.10 0.04129
1141.20 0.04128
1141.30 0.04127
1141.40 0.04125
1141.50 0.04124
1141.60 0.04122
1141.70 0.04121
1141.80 0.04119
1141.90 0.04118
1142.00 0.04117
1142.10 0.04115
1142.20 0.04114
1142.30 0.04112
1142.40 0.04111
1142.50 0.0411
1142.60 0.04108
1142.70 0.04107
1142.80 0.04105
1142.90 0.04104
1143.00 0.04103
1143.10 0.04101
1143.20 0.041
1143.30 0.04098
1143.40 0.04097
1143.50 0.04096
1143.60 0.04094
1143.70 0.04093
1143.80 0.04092
1143.90 0.0409
1144.00 0.04089
1144.10 0.04087
1144.20 0.04086
1144.30 0.04085
1144.40 0.04083
1144.50 0.04082
1144.60 0.0408
1144.70 0.04079
1144.80 0.04078
1144.90 0.04076
1145.00 0.04075
1145.10 0.04073
1145.20 0.04072
1145.30 0.04071
1145.40 0.04069
1145.50 0.04068
1145.60 0.04067
1145.70 0.04065
1145.80 0.04064
1145.90 0.04062
1146.00 0.04061
1146.10 0.0406
1146.20 0.04058
1146.30 0.04057
1146.40 0.04055
1146.50 0.04054
1146.60 0.04053
1146.70 0.04051
1146.80 0.0405
1146.90 0.04049
1147.00 0.04047
1147.10 0.04046
1147.20 0.04044
1147.30 0.04043
1147.40 0.04042
1147.50 0.0404
1147.60 0.04039
1147.70 0.04038
1147.80 0.04036
1147.90 0.04035
1148.00 0.04033
1148.10 0.04032
1148.20 0.04031
1148.30 0.04029
1148.40 0.04028
1148.50 0.04027
1148.60 0.04025
1148.70 0.04024
1148.80 0.04023
1148.90 0.04021
1149.00 0.0402
1149.10 0.04018
1149.20 0.04017
1149.30 0.04016
1149.40 0.04014
1149.50 0.04013
1149.60 0.04012
1149.70 0.0401
1149.80 0.04009
1149.90 0.04008
1150.00 0.04006
1150.10 0.04005
1150.20 0.04003
1150.30 0.04002
1150.40 0.04001
1150.50 0.03999
1150.60 0.03998
1150.70 0.03997
1150.80 0.03995
1150.90 0.03994
1151.00 0.03993
1151.10 0.03991
1151.20 0.0399
1151.30 0.03989
1151.40 0.03987
1151.50 0.03986
1151.60 0.03985
1151.70 0.03983
1151.80 0.03982
1151.90 0.0398
1152.00 0.03979
1152.10 0.03978
1152.20 0.03976
1152.30 0.03975
1152.40 0.03974
1152.50 0.03972
1152.60 0.03971
1152.70 0.0397
1152.80 0.03968
1152.90 0.03967
1153.00 0.03966
1153.10 0.03964
1153.20 0.03963
1153.30 0.03962
1153.40 0.0396
1153.50 0.03959
1153.60 0.03958
1153.70 0.03956
1153.80 0.03955
1153.90 0.03954
1154.00 0.03952
1154.10 0.03951
1154.20 0.0395
1154.30 0.03948
1154.40 0.03947
1154.50 0.03946
1154.60 0.03944
1154.70 0.03943
1154.80 0.03942
1154.90 0.0394
1155.00 0.03939
1155.10 0.03938
1155.20 0.03936
1155.30 0.03935
1155.40 0.03934
1155.50 0.03932
1155.60 0.03931
1155.70 0.0393
1155.80 0.03928
1155.90 0.03927
1156.00 0.03926
1156.10 0.03924
1156.20 0.03923
1156.30 0.03922
1156.40 0.0392
1156.50 0.03919
1156.60 0.03918
1156.70 0.03916
1156.80 0.03915
1156.90 0.03914
1157.00 0.03912
1157.10 0.03911
1157.20 0.0391
1157.30 0.03909
1157.40 0.03907
1157.50 0.03906
1157.60 0.03905
1157.70 0.03903
1157.80 0.03902
1157.90 0.03901
1158.00 0.03899
1158.10 0.03898
1158.20 0.03897
1158.30 0.03895
1158.40 0.03894
1158.50 0.03893
1158.60 0.03891
1158.70 0.0389
1158.80 0.03889
1158.90 0.03888
1159.00 0.03886
1159.10 0.03885
1159.20 0.03884
1159.30 0.03882
1159.40 0.03881
1159.50 0.0388
1159.60 0.03878
1159.70 0.03877
1159.80 0.03876
1159.90 0.03875
1160.00 0.03873
1160.10 0.03872
1160.20 0.03871
1160.30 0.03869
1160.40 0.03868
1160.50 0.03867
1160.60 0.03865
1160.70 0.03864
1160.80 0.03863
1160.90 0.03862
1161.00 0.0386
1161.10 0.03859
1161.20 0.03858
1161.30 0.03856
1161.40 0.03855
1161.50 0.03854
1161.60 0.03852
1161.70 0.03851
1161.80 0.0385
1161.90 0.03849
1162.00 0.03847
1162.10 0.03846
1162.20 0.03845
1162.30 0.03843
1162.40 0.03842
1162.50 0.03841
1162.60 0.0384
1162.70 0.03838
1162.80 0.03837
1162.90 0.03836
1163.00 0.03834
1163.10 0.03833
1163.20 0.03832
1163.30 0.03831
1163.40 0.03829
1163.50 0.03828
1163.60 0.03827
1163.70 0.03825
1163.80 0.03824
1163.90 0.03823
1164.00 0.03822
1164.10 0.0382
1164.20 0.03819
1164.30 0.03818
1164.40 0.03816
1164.50 0.03815
1164.60 0.03814
1164.70 0.03813
1164.80 0.03811
1164.90 0.0381
1165.00 0.03809
1165.10 0.03808
1165.20 0.03806
1165.30 0.03805
1165.40 0.03804
1165.50 0.03802
1165.60 0.03801
1165.70 0.038
1165.80 0.03799
1165.90 0.03797
1166.00 0.03796
1166.10 0.03795
1166.20 0.03793
1166.30 0.03792
1166.40 0.03791
1166.50 0.0379
1166.60 0.03788
1166.70 0.03787
1166.80 0.03786
1166.90 0.03785
1167.00 0.03783
1167.10 0.03782
1167.20 0.03781
1167.30 0.0378
1167.40 0.03778
1167.50 0.03777
1167.60 0.03776
1167.70 0.03775
1167.80 0.03773
1167.90 0.03772
1168.00 0.03771
1168.10 0.03769
1168.20 0.03768
1168.30 0.03767
1168.40 0.03766
1168.50 0.03764
1168.60 0.03763
1168.70 0.03762
1168.80 0.03761
1168.90 0.03759
1169.00 0.03758
1169.10 0.03757
1169.20 0.03756
1169.30 0.03754
1169.40 0.03753
1169.50 0.03752
1169.60 0.03751
1169.70 0.03749
1169.80 0.03748
1169.90 0.03747
1170.00 0.03746
1170.10 0.03744
1170.20 0.03743
1170.30 0.03742
1170.40 0.03741
1170.50 0.03739
1170.60 0.03738
1170.70 0.03737
1170.80 0.03736
1170.90 0.03734
1171.00 0.03733
1171.10 0.03732
1171.20 0.03731
1171.30 0.03729
1171.40 0.03728
1171.50 0.03727
1171.60 0.03726
1171.70 0.03724
1171.80 0.03723
1171.90 0.03722
1172.00 0.03721
1172.10 0.0372
1172.20 0.03718
1172.30 0.03717
1172.40 0.03716
1172.50 0.03715
1172.60 0.03713
1172.70 0.03712
1172.80 0.03711
1172.90 0.0371
1173.00 0.03708
1173.10 0.03707
1173.20 0.03706
1173.30 0.03705
1173.40 0.03703
1173.50 0.03702
1173.60 0.03701
1173.70 0.037
1173.80 0.03699
1173.90 0.03697
1174.00 0.03696
1174.10 0.03695
1174.20 0.03694
1174.30 0.03692
1174.40 0.03691
1174.50 0.0369
1174.60 0.03689
1174.70 0.03688
1174.80 0.03686
1174.90 0.03685
1175.00 0.03684
1175.10 0.03683
1175.20 0.03681
1175.30 0.0368
1175.40 0.03679
1175.50 0.03678
1175.60 0.03677
1175.70 0.03675
1175.80 0.03674
1175.90 0.03673
1176.00 0.03672
1176.10 0.0367
1176.20 0.03669
1176.30 0.03668
1176.40 0.03667
1176.50 0.03666
1176.60 0.03664
1176.70 0.03663
1176.80 0.03662
1176.90 0.03661
1177.00 0.03659
1177.10 0.03658
1177.20 0.03657
1177.30 0.03656
1177.40 0.03655
1177.50 0.03653
1177.60 0.03652
1177.70 0.03651
1177.80 0.0365
1177.90 0.03649
1178.00 0.03647
1178.10 0.03646
1178.20 0.03645
1178.30 0.03644
1178.40 0.03643
1178.50 0.03641
1178.60 0.0364
1178.70 0.03639
1178.80 0.03638
1178.90 0.03637
1179.00 0.03635
1179.10 0.03634
1179.20 0.03633
1179.30 0.03632
1179.40 0.03631
1179.50 0.03629
1179.60 0.03628
1179.70 0.03627
1179.80 0.03626
1179.90 0.03625
1180.00 0.03623
1180.10 0.03622
1180.20 0.03621
1180.30 0.0362
1180.40 0.03619
1180.50 0.03617
1180.60 0.03616
1180.70 0.03615
1180.80 0.03614
1180.90 0.03613
1181.00 0.03611
1181.10 0.0361
1181.20 0.03609
1181.30 0.03608
1181.40 0.03607
1181.50 0.03605
1181.60 0.03604
1181.70 0.03603
1181.80 0.03602
1181.90 0.03601
1182.00 0.03599
1182.10 0.03598
1182.20 0.03597
1182.30 0.03596
1182.40 0.03595
1182.50 0.03594
1182.60 0.03592
1182.70 0.03591
1182.80 0.0359
1182.90 0.03589
1183.00 0.03588
1183.10 0.03586
1183.20 0.03585
1183.30 0.03584
1183.40 0.03583
1183.50 0.03582
1183.60 0.03581
1183.70 0.03579
1183.80 0.03578
1183.90 0.03577
1184.00 0.03576
1184.10 0.03575
1184.20 0.03573
1184.30 0.03572
1184.40 0.03571
1184.50 0.0357
1184.60 0.03569
1184.70 0.03568
1184.80 0.03566
1184.90 0.03565
1185.00 0.03564
1185.10 0.03563
1185.20 0.03562
1185.30 0.03561
1185.40 0.03559
1185.50 0.03558
1185.60 0.03557
1185.70 0.03556
1185.80 0.03555
1185.90 0.03553
1186.00 0.03552
1186.10 0.03551
1186.20 0.0355
1186.30 0.03549
1186.40 0.03548
1186.50 0.03546
1186.60 0.03545
1186.70 0.03544
1186.80 0.03543
1186.90 0.03542
1187.00 0.03541
1187.10 0.03539
1187.20 0.03538
1187.30 0.03537
1187.40 0.03536
1187.50 0.03535
1187.60 0.03534
1187.70 0.03532
1187.80 0.03531
1187.90 0.0353
1188.00 0.03529
1188.10 0.03528
1188.20 0.03527
1188.30 0.03526
1188.40 0.03524
1188.50 0.03523
1188.60 0.03522
1188.70 0.03521
1188.80 0.0352
1188.90 0.03519
1189.00 0.03517
1189.10 0.03516
1189.20 0.03515
1189.30 0.03514
1189.40 0.03513
1189.50 0.03512
1189.60 0.03511
1189.70 0.03509
1189.80 0.03508
1189.90 0.03507
1190.00 0.03506
1190.10 0.03505
1190.20 0.03504
1190.30 0.03503
1190.40 0.03501
1190.50 0.035
1190.60 0.03499
1190.70 0.03498
1190.80 0.03497
1190.90 0.03496
1191.00 0.03494
1191.10 0.03493
1191.20 0.03492
1191.30 0.03491
1191.40 0.0349
1191.50 0.03489
1191.60 0.03488
1191.70 0.03486
1191.80 0.03485
1191.90 0.03484
1192.00 0.03483
1192.10 0.03482
1192.20 0.03481
1192.30 0.0348
1192.40 0.03478
1192.50 0.03477
1192.60 0.03476
1192.70 0.03475
1192.80 0.03474
1192.90 0.03473
1193.00 0.03472
1193.10 0.03471
1193.20 0.03469
1193.30 0.03468
1193.40 0.03467
1193.50 0.03466
1193.60 0.03465
1193.70 0.03464
1193.80 0.03463
1193.90 0.03461
1194.00 0.0346
1194.10 0.03459
1194.20 0.03458
1194.30 0.03457
1194.40 0.03456
1194.50 0.03455
1194.60 0.03454
1194.70 0.03452
1194.80 0.03451
1194.90 0.0345
1195.00 0.03449
1195.10 0.03448
1195.20 0.03447
1195.30 0.03446
1195.40 0.03445
1195.50 0.03443
1195.60 0.03442
1195.70 0.03441
1195.80 0.0344
1195.90 0.03439
1196.00 0.03438
1196.10 0.03437
1196.20 0.03436
1196.30 0.03434
1196.40 0.03433
1196.50 0.03432
1196.60 0.03431
1196.70 0.0343
1196.80 0.03429
1196.90 0.03428
1197.00 0.03427
1197.10 0.03425
1197.20 0.03424
1197.30 0.03423
1197.40 0.03422
1197.50 0.03421
1197.60 0.0342
1197.70 0.03419
1197.80 0.03418
1197.90 0.03417
1198.00 0.03415
1198.10 0.03414
1198.20 0.03413
1198.30 0.03412
1198.40 0.03411
1198.50 0.0341
1198.60 0.03409
1198.70 0.03408
1198.80 0.03407
1198.90 0.03405
1199.00 0.03404
1199.10 0.03403
1199.20 0.03402
1199.30 0.03401
1199.40 0.034
1199.50 0.03399
1199.60 0.03398
1199.70 0.03397
1199.80 0.03396
1199.90 0.03394
1200.00 0
