# Version 2.1 - nm, norm@500 to 1, cut digits, bergeron_3750_65.dat_3750
# Wavelength(nm)  Flambda(ergs/cm^s/s/nm)
300.00 0.1166
300.10 0.1169
300.20 0.1172
300.30 0.1174
300.40 0.1177
300.50 0.118
300.60 0.1183
300.70 0.1185
300.80 0.1188
300.90 0.1191
301.00 0.1193
301.10 0.1196
301.20 0.1199
301.30 0.1202
301.40 0.1204
301.50 0.1207
301.60 0.121
301.70 0.1212
301.80 0.1215
301.90 0.1218
302.00 0.122
302.10 0.1223
302.20 0.1226
302.30 0.1229
302.40 0.1232
302.50 0.1234
302.60 0.1237
302.70 0.124
302.80 0.1243
302.90 0.1246
303.00 0.1248
303.10 0.1251
303.20 0.1254
303.30 0.1257
303.40 0.1259
303.50 0.1262
303.60 0.1265
303.70 0.1268
303.80 0.127
303.90 0.1273
304.00 0.1276
304.10 0.1279
304.20 0.1282
304.30 0.1285
304.40 0.1287
304.50 0.129
304.60 0.1293
304.70 0.1296
304.80 0.1299
304.90 0.1302
305.00 0.1305
305.10 0.1307
305.20 0.131
305.30 0.1313
305.40 0.1316
305.50 0.1319
305.60 0.1322
305.70 0.1324
305.80 0.1327
305.90 0.133
306.00 0.1333
306.10 0.1336
306.20 0.1339
306.30 0.1342
306.40 0.1345
306.50 0.1348
306.60 0.1351
306.70 0.1354
306.80 0.1356
306.90 0.1359
307.00 0.1362
307.10 0.1365
307.20 0.1368
307.30 0.1371
307.40 0.1374
307.50 0.1377
307.60 0.138
307.70 0.1383
307.80 0.1386
307.90 0.1388
308.00 0.1391
308.10 0.1394
308.20 0.1397
308.30 0.14
308.40 0.1403
308.50 0.1406
308.60 0.1409
308.70 0.1412
308.80 0.1415
308.90 0.1418
309.00 0.1421
309.10 0.1424
309.20 0.1427
309.30 0.143
309.40 0.1433
309.50 0.1436
309.60 0.1439
309.70 0.1442
309.80 0.1445
309.90 0.1448
310.00 0.1451
310.10 0.1454
310.20 0.1457
310.30 0.146
310.40 0.1463
310.50 0.1466
310.60 0.147
310.70 0.1473
310.80 0.1476
310.90 0.1479
311.00 0.1482
311.10 0.1485
311.20 0.1488
311.30 0.1491
311.40 0.1494
311.50 0.1497
311.60 0.15
311.70 0.1503
311.80 0.1506
311.90 0.1509
312.00 0.1512
312.10 0.1515
312.20 0.1518
312.30 0.1521
312.40 0.1525
312.50 0.1528
312.60 0.1531
312.70 0.1534
312.80 0.1537
312.90 0.154
313.00 0.1543
313.10 0.1547
313.20 0.155
313.30 0.1553
313.40 0.1556
313.50 0.1559
313.60 0.1562
313.70 0.1565
313.80 0.1568
313.90 0.1571
314.00 0.1575
314.10 0.1578
314.20 0.1581
314.30 0.1584
314.40 0.1587
314.50 0.1591
314.60 0.1594
314.70 0.1597
314.80 0.16
314.90 0.1603
315.00 0.1607
315.10 0.161
315.20 0.1613
315.30 0.1616
315.40 0.1619
315.50 0.1623
315.60 0.1626
315.70 0.1629
315.80 0.1632
315.90 0.1635
316.00 0.1638
316.10 0.1642
316.20 0.1645
316.30 0.1648
316.40 0.1652
316.50 0.1655
316.60 0.1658
316.70 0.1661
316.80 0.1665
316.90 0.1668
317.00 0.1671
317.10 0.1674
317.20 0.1678
317.30 0.1681
317.40 0.1684
317.50 0.1687
317.60 0.1691
317.70 0.1694
317.80 0.1697
317.90 0.17
318.00 0.1704
318.10 0.1707
318.20 0.171
318.30 0.1714
318.40 0.1717
318.50 0.172
318.60 0.1724
318.70 0.1727
318.80 0.173
318.90 0.1734
319.00 0.1737
319.10 0.174
319.20 0.1744
319.30 0.1747
319.40 0.175
319.50 0.1753
319.60 0.1757
319.70 0.176
319.80 0.1763
319.90 0.1767
320.00 0.177
320.10 0.1773
320.20 0.1777
320.30 0.178
320.40 0.1784
320.50 0.1787
320.60 0.179
320.70 0.1794
320.80 0.1797
320.90 0.1801
321.00 0.1804
321.10 0.1807
321.20 0.1811
321.30 0.1814
321.40 0.1818
321.50 0.1821
321.60 0.1824
321.70 0.1828
321.80 0.1831
321.90 0.1834
322.00 0.1838
322.10 0.1841
322.20 0.1845
322.30 0.1848
322.40 0.1852
322.50 0.1855
322.60 0.1859
322.70 0.1862
322.80 0.1865
322.90 0.1869
323.00 0.1872
323.10 0.1876
323.20 0.1879
323.30 0.1883
323.40 0.1886
323.50 0.189
323.60 0.1893
323.70 0.1896
323.80 0.19
323.90 0.1903
324.00 0.1907
324.10 0.191
324.20 0.1914
324.30 0.1917
324.40 0.1921
324.50 0.1924
324.60 0.1928
324.70 0.1931
324.80 0.1935
324.90 0.1938
325.00 0.1942
325.10 0.1946
325.20 0.1949
325.30 0.1953
325.40 0.1956
325.50 0.196
325.60 0.1963
325.70 0.1967
325.80 0.197
325.90 0.1974
326.00 0.1977
326.10 0.1981
326.20 0.1984
326.30 0.1988
326.40 0.1991
326.50 0.1995
326.60 0.1999
326.70 0.2002
326.80 0.2006
326.90 0.2009
327.00 0.2013
327.10 0.2016
327.20 0.202
327.30 0.2024
327.40 0.2027
327.50 0.2031
327.60 0.2034
327.70 0.2038
327.80 0.2041
327.90 0.2045
328.00 0.2049
328.10 0.2052
328.20 0.2056
328.30 0.2059
328.40 0.2063
328.50 0.2067
328.60 0.207
328.70 0.2074
328.80 0.2078
328.90 0.2081
329.00 0.2085
329.10 0.2089
329.20 0.2092
329.30 0.2096
329.40 0.21
329.50 0.2103
329.60 0.2107
329.70 0.211
329.80 0.2114
329.90 0.2118
330.00 0.2121
330.10 0.2125
330.20 0.2129
330.30 0.2132
330.40 0.2136
330.50 0.214
330.60 0.2144
330.70 0.2147
330.80 0.2151
330.90 0.2155
331.00 0.2158
331.10 0.2162
331.20 0.2166
331.30 0.2169
331.40 0.2173
331.50 0.2177
331.60 0.2181
331.70 0.2184
331.80 0.2188
331.90 0.2191
332.00 0.2195
332.10 0.2199
332.20 0.2203
332.30 0.2207
332.40 0.221
332.50 0.2214
332.60 0.2218
332.70 0.2222
332.80 0.2225
332.90 0.2229
333.00 0.2233
333.10 0.2237
333.20 0.224
333.30 0.2244
333.40 0.2248
333.50 0.2252
333.60 0.2255
333.70 0.2259
333.80 0.2263
333.90 0.2267
334.00 0.227
334.10 0.2274
334.20 0.2278
334.30 0.2282
334.40 0.2286
334.50 0.229
334.60 0.2293
334.70 0.2297
334.80 0.2301
334.90 0.2305
335.00 0.2309
335.10 0.2312
335.20 0.2316
335.30 0.232
335.40 0.2324
335.50 0.2328
335.60 0.2331
335.70 0.2335
335.80 0.2339
335.90 0.2343
336.00 0.2347
336.10 0.235
336.20 0.2354
336.30 0.2358
336.40 0.2362
336.50 0.2366
336.60 0.237
336.70 0.2374
336.80 0.2378
336.90 0.2382
337.00 0.2386
337.10 0.2389
337.20 0.2393
337.30 0.2397
337.40 0.2401
337.50 0.2405
337.60 0.2409
337.70 0.2413
337.80 0.2416
337.90 0.242
338.00 0.2424
338.10 0.2428
338.20 0.2432
338.30 0.2436
338.40 0.244
338.50 0.2444
338.60 0.2448
338.70 0.2452
338.80 0.2456
338.90 0.246
339.00 0.2464
339.10 0.2467
339.20 0.2471
339.30 0.2475
339.40 0.2479
339.50 0.2483
339.60 0.2487
339.70 0.2491
339.80 0.2495
339.90 0.2499
340.00 0.2503
340.10 0.2507
340.20 0.2511
340.30 0.2515
340.40 0.2519
340.50 0.2523
340.60 0.2527
340.70 0.2531
340.80 0.2535
340.90 0.2539
341.00 0.2543
341.10 0.2547
341.20 0.2551
341.30 0.2555
341.40 0.2559
341.50 0.2562
341.60 0.2566
341.70 0.257
341.80 0.2574
341.90 0.2578
342.00 0.2582
342.10 0.2586
342.20 0.259
342.30 0.2594
342.40 0.2598
342.50 0.2603
342.60 0.2607
342.70 0.2611
342.80 0.2615
342.90 0.2619
343.00 0.2623
343.10 0.2627
343.20 0.2631
343.30 0.2635
343.40 0.2639
343.50 0.2643
343.60 0.2647
343.70 0.2651
343.80 0.2655
343.90 0.2659
344.00 0.2663
344.10 0.2667
344.20 0.2671
344.30 0.2675
344.40 0.2679
344.50 0.2683
344.60 0.2688
344.70 0.2692
344.80 0.2696
344.90 0.27
345.00 0.2704
345.10 0.2708
345.20 0.2712
345.30 0.2716
345.40 0.272
345.50 0.2724
345.60 0.2728
345.70 0.2732
345.80 0.2737
345.90 0.2741
346.00 0.2745
346.10 0.2749
346.20 0.2753
346.30 0.2757
346.40 0.2761
346.50 0.2766
346.60 0.277
346.70 0.2774
346.80 0.2778
346.90 0.2782
347.00 0.2786
347.10 0.279
347.20 0.2795
347.30 0.2799
347.40 0.2803
347.50 0.2807
347.60 0.2811
347.70 0.2815
347.80 0.2819
347.90 0.2823
348.00 0.2827
348.10 0.2832
348.20 0.2836
348.30 0.284
348.40 0.2844
348.50 0.2849
348.60 0.2853
348.70 0.2857
348.80 0.2861
348.90 0.2865
349.00 0.287
349.10 0.2874
349.20 0.2878
349.30 0.2882
349.40 0.2886
349.50 0.289
349.60 0.2895
349.70 0.2899
349.80 0.2903
349.90 0.2907
350.00 0.2911
350.10 0.2915
350.20 0.292
350.30 0.2924
350.40 0.2928
350.50 0.2933
350.60 0.2937
350.70 0.2941
350.80 0.2945
350.90 0.295
351.00 0.2954
351.10 0.2958
351.20 0.2962
351.30 0.2966
351.40 0.2971
351.50 0.2975
351.60 0.2979
351.70 0.2983
351.80 0.2987
351.90 0.2992
352.00 0.2996
352.10 0.3
352.20 0.3004
352.30 0.3009
352.40 0.3013
352.50 0.3017
352.60 0.3022
352.70 0.3026
352.80 0.303
352.90 0.3035
353.00 0.3039
353.10 0.3043
353.20 0.3047
353.30 0.3052
353.40 0.3056
353.50 0.306
353.60 0.3065
353.70 0.3069
353.80 0.3073
353.90 0.3077
354.00 0.3081
354.10 0.3086
354.20 0.309
354.30 0.3095
354.40 0.3099
354.50 0.3103
354.60 0.3108
354.70 0.3112
354.80 0.3116
354.90 0.3121
355.00 0.3125
355.10 0.3129
355.20 0.3134
355.30 0.3138
355.40 0.3142
355.50 0.3147
355.60 0.3151
355.70 0.3155
355.80 0.3159
355.90 0.3164
356.00 0.3168
356.10 0.3172
356.20 0.3177
356.30 0.3181
356.40 0.3186
356.50 0.319
356.60 0.3194
356.70 0.3199
356.80 0.3203
356.90 0.3208
357.00 0.3212
357.10 0.3216
357.20 0.3221
357.30 0.3225
357.40 0.3229
357.50 0.3234
357.60 0.3238
357.70 0.3242
357.80 0.3247
357.90 0.3251
358.00 0.3255
358.10 0.326
358.20 0.3264
358.30 0.3269
358.40 0.3273
358.50 0.3278
358.60 0.3282
358.70 0.3287
358.80 0.3291
358.90 0.3295
359.00 0.33
359.10 0.3304
359.20 0.3309
359.30 0.3313
359.40 0.3317
359.50 0.3322
359.60 0.3326
359.70 0.3331
359.80 0.3335
359.90 0.3339
360.00 0.3344
360.10 0.3348
360.20 0.3353
360.30 0.3357
360.40 0.3362
360.50 0.3366
360.60 0.3371
360.70 0.3375
360.80 0.338
360.90 0.3384
361.00 0.3389
361.10 0.3393
361.20 0.3397
361.30 0.3402
361.40 0.3406
361.50 0.3411
361.60 0.3415
361.70 0.342
361.80 0.3424
361.90 0.3428
362.00 0.3433
362.10 0.3437
362.20 0.3442
362.30 0.3446
362.40 0.3451
362.50 0.3455
362.60 0.346
362.70 0.3464
362.80 0.3469
362.90 0.3473
363.00 0.3478
363.10 0.3482
363.20 0.3487
363.30 0.3491
363.40 0.3496
363.50 0.35
363.60 0.3505
363.70 0.3509
363.80 0.3514
363.90 0.3518
364.00 0.3523
364.10 0.3527
364.20 0.3532
364.30 0.3536
364.40 0.3541
364.50 0.3545
364.60 0.355
364.70 0.3554
364.80 0.3559
364.90 0.3563
365.00 0.3568
365.10 0.3573
365.20 0.3577
365.30 0.3582
365.40 0.3586
365.50 0.3591
365.60 0.3595
365.70 0.36
365.80 0.3604
365.90 0.3609
366.00 0.3613
366.10 0.3618
366.20 0.3623
366.30 0.3627
366.40 0.3632
366.50 0.3636
366.60 0.3641
366.70 0.3646
366.80 0.365
366.90 0.3655
367.00 0.3659
367.10 0.3664
367.20 0.3668
367.30 0.3673
367.40 0.3678
367.50 0.3682
367.60 0.3687
367.70 0.3691
367.80 0.3696
367.90 0.37
368.00 0.3705
368.10 0.3709
368.20 0.3714
368.30 0.3719
368.40 0.3723
368.50 0.3728
368.60 0.3733
368.70 0.3737
368.80 0.3742
368.90 0.3746
369.00 0.3751
369.10 0.3756
369.20 0.376
369.30 0.3765
369.40 0.3769
369.50 0.3774
369.60 0.3779
369.70 0.3783
369.80 0.3788
369.90 0.3792
370.00 0.3797
370.10 0.3802
370.20 0.3806
370.30 0.3811
370.40 0.3816
370.50 0.382
370.60 0.3825
370.70 0.383
370.80 0.3834
370.90 0.3839
371.00 0.3844
371.10 0.3848
371.20 0.3853
371.30 0.3857
371.40 0.3862
371.50 0.3867
371.60 0.3871
371.70 0.3876
371.80 0.388
371.90 0.3885
372.00 0.389
372.10 0.3894
372.20 0.3899
372.30 0.3904
372.40 0.3908
372.50 0.3913
372.60 0.3918
372.70 0.3923
372.80 0.3927
372.90 0.3932
373.00 0.3937
373.10 0.3941
373.20 0.3946
373.30 0.3951
373.40 0.3955
373.50 0.396
373.60 0.3965
373.70 0.3969
373.80 0.3974
373.90 0.3978
374.00 0.3983
374.10 0.3988
374.20 0.3993
374.30 0.3997
374.40 0.4002
374.50 0.4007
374.60 0.4012
374.70 0.4016
374.80 0.4021
374.90 0.4026
375.00 0.403
375.10 0.4035
375.20 0.404
375.30 0.4045
375.40 0.4049
375.50 0.4054
375.60 0.4059
375.70 0.4063
375.80 0.4068
375.90 0.4073
376.00 0.4077
376.10 0.4082
376.20 0.4087
376.30 0.4092
376.40 0.4096
376.50 0.4101
376.60 0.4106
376.70 0.411
376.80 0.4115
376.90 0.412
377.00 0.4125
377.10 0.4129
377.20 0.4134
377.30 0.4139
377.40 0.4144
377.50 0.4148
377.60 0.4153
377.70 0.4158
377.80 0.4163
377.90 0.4167
378.00 0.4172
378.10 0.4177
378.20 0.4181
378.30 0.4186
378.40 0.4191
378.50 0.4196
378.60 0.42
378.70 0.4205
378.80 0.421
378.90 0.4215
379.00 0.4219
379.10 0.4224
379.20 0.4229
379.30 0.4234
379.40 0.4238
379.50 0.4243
379.60 0.4248
379.70 0.4253
379.80 0.4257
379.90 0.4262
380.00 0.4267
380.10 0.4272
380.20 0.4277
380.30 0.4281
380.40 0.4286
380.50 0.4291
380.60 0.4296
380.70 0.4301
380.80 0.4305
380.90 0.431
381.00 0.4315
381.10 0.432
381.20 0.4324
381.30 0.4329
381.40 0.4334
381.50 0.4339
381.60 0.4344
381.70 0.4348
381.80 0.4353
381.90 0.4358
382.00 0.4363
382.10 0.4368
382.20 0.4372
382.30 0.4377
382.40 0.4382
382.50 0.4387
382.60 0.4392
382.70 0.4396
382.80 0.4401
382.90 0.4406
383.00 0.4411
383.10 0.4416
383.20 0.4421
383.30 0.4425
383.40 0.443
383.50 0.4435
383.60 0.444
383.70 0.4445
383.80 0.4449
383.90 0.4454
384.00 0.4459
384.10 0.4464
384.20 0.4469
384.30 0.4473
384.40 0.4478
384.50 0.4483
384.60 0.4488
384.70 0.4493
384.80 0.4498
384.90 0.4502
385.00 0.4507
385.10 0.4512
385.20 0.4517
385.30 0.4522
385.40 0.4527
385.50 0.4531
385.60 0.4536
385.70 0.4541
385.80 0.4546
385.90 0.4551
386.00 0.4556
386.10 0.4561
386.20 0.4565
386.30 0.457
386.40 0.4575
386.50 0.458
386.60 0.4585
386.70 0.459
386.80 0.4594
386.90 0.4599
387.00 0.4604
387.10 0.4609
387.20 0.4614
387.30 0.4619
387.40 0.4624
387.50 0.4629
387.60 0.4633
387.70 0.4638
387.80 0.4643
387.90 0.4648
388.00 0.4653
388.10 0.4658
388.20 0.4662
388.30 0.4667
388.40 0.4672
388.50 0.4677
388.60 0.4682
388.70 0.4687
388.80 0.4692
388.90 0.4697
389.00 0.4701
389.10 0.4706
389.20 0.4711
389.30 0.4716
389.40 0.4721
389.50 0.4726
389.60 0.4731
389.70 0.4736
389.80 0.4741
389.90 0.4746
390.00 0.475
390.10 0.4755
390.20 0.476
390.30 0.4765
390.40 0.477
390.50 0.4775
390.60 0.478
390.70 0.4785
390.80 0.4789
390.90 0.4794
391.00 0.4799
391.10 0.4804
391.20 0.4809
391.30 0.4814
391.40 0.4819
391.50 0.4824
391.60 0.4829
391.70 0.4834
391.80 0.4838
391.90 0.4843
392.00 0.4848
392.10 0.4853
392.20 0.4858
392.30 0.4863
392.40 0.4868
392.50 0.4873
392.60 0.4878
392.70 0.4883
392.80 0.4887
392.90 0.4892
393.00 0.4897
393.10 0.4902
393.20 0.4907
393.30 0.4912
393.40 0.4917
393.50 0.4922
393.60 0.4927
393.70 0.4932
393.80 0.4937
393.90 0.4942
394.00 0.4946
394.10 0.4952
394.20 0.4956
394.30 0.4961
394.40 0.4966
394.50 0.4971
394.60 0.4976
394.70 0.4981
394.80 0.4986
394.90 0.4991
395.00 0.4996
395.10 0.5001
395.20 0.5006
395.30 0.5011
395.40 0.5016
395.50 0.5021
395.60 0.5025
395.70 0.503
395.80 0.5035
395.90 0.504
396.00 0.5045
396.10 0.505
396.20 0.5055
396.30 0.506
396.40 0.5065
396.50 0.507
396.60 0.5075
396.70 0.508
396.80 0.5085
396.90 0.509
397.00 0.5095
397.10 0.51
397.20 0.5105
397.30 0.5109
397.40 0.5114
397.50 0.5119
397.60 0.5124
397.70 0.5129
397.80 0.5134
397.90 0.5139
398.00 0.5144
398.10 0.5149
398.20 0.5154
398.30 0.5159
398.40 0.5164
398.50 0.5169
398.60 0.5174
398.70 0.5179
398.80 0.5184
398.90 0.5189
399.00 0.5194
399.10 0.5199
399.20 0.5204
399.30 0.5209
399.40 0.5213
399.50 0.5218
399.60 0.5223
399.70 0.5228
399.80 0.5233
399.90 0.5238
400.00 0.5243
400.10 0.5248
400.20 0.5253
400.30 0.5258
400.40 0.5263
400.50 0.5268
400.60 0.5273
400.70 0.5278
400.80 0.5283
400.90 0.5288
401.00 0.5293
401.10 0.5298
401.20 0.5303
401.30 0.5308
401.40 0.5313
401.50 0.5318
401.60 0.5323
401.70 0.5328
401.80 0.5333
401.90 0.5338
402.00 0.5343
402.10 0.5348
402.20 0.5353
402.30 0.5358
402.40 0.5363
402.50 0.5368
402.60 0.5373
402.70 0.5377
402.80 0.5382
402.90 0.5387
403.00 0.5392
403.10 0.5397
403.20 0.5402
403.30 0.5407
403.40 0.5412
403.50 0.5417
403.60 0.5422
403.70 0.5427
403.80 0.5432
403.90 0.5437
404.00 0.5442
404.10 0.5447
404.20 0.5452
404.30 0.5457
404.40 0.5462
404.50 0.5467
404.60 0.5472
404.70 0.5477
404.80 0.5482
404.90 0.5487
405.00 0.5492
405.10 0.5497
405.20 0.5502
405.30 0.5507
405.40 0.5512
405.50 0.5517
405.60 0.5522
405.70 0.5527
405.80 0.5532
405.90 0.5537
406.00 0.5542
406.10 0.5547
406.20 0.5552
406.30 0.5557
406.40 0.5562
406.50 0.5567
406.60 0.5572
406.70 0.5577
406.80 0.5582
406.90 0.5587
407.00 0.5592
407.10 0.5597
407.20 0.5602
407.30 0.5607
407.40 0.5612
407.50 0.5617
407.60 0.5622
407.70 0.5627
407.80 0.5632
407.90 0.5637
408.00 0.5642
408.10 0.5647
408.20 0.5652
408.30 0.5657
408.40 0.5662
408.50 0.5667
408.60 0.5672
408.70 0.5677
408.80 0.5682
408.90 0.5687
409.00 0.5692
409.10 0.5697
409.20 0.5702
409.30 0.5707
409.40 0.5712
409.50 0.5717
409.60 0.5722
409.70 0.5727
409.80 0.5732
409.90 0.5737
410.00 0.5742
410.10 0.5747
410.20 0.5752
410.30 0.5757
410.40 0.5762
410.50 0.5767
410.60 0.5772
410.70 0.5777
410.80 0.5782
410.90 0.5787
411.00 0.5792
411.10 0.5797
411.20 0.5802
411.30 0.5807
411.40 0.5812
411.50 0.5817
411.60 0.5822
411.70 0.5827
411.80 0.5832
411.90 0.5837
412.00 0.5842
412.10 0.5847
412.20 0.5852
412.30 0.5857
412.40 0.5862
412.50 0.5867
412.60 0.5872
412.70 0.5877
412.80 0.5882
412.90 0.5887
413.00 0.5892
413.10 0.5897
413.20 0.5902
413.30 0.5907
413.40 0.5912
413.50 0.5917
413.60 0.5922
413.70 0.5927
413.80 0.5932
413.90 0.5937
414.00 0.5942
414.10 0.5947
414.20 0.5952
414.30 0.5957
414.40 0.5962
414.50 0.5967
414.60 0.5972
414.70 0.5977
414.80 0.5982
414.90 0.5987
415.00 0.5992
415.10 0.5997
415.20 0.6002
415.30 0.6007
415.40 0.6012
415.50 0.6017
415.60 0.6023
415.70 0.6028
415.80 0.6033
415.90 0.6038
416.00 0.6042
416.10 0.6048
416.20 0.6053
416.30 0.6058
416.40 0.6063
416.50 0.6068
416.60 0.6073
416.70 0.6078
416.80 0.6083
416.90 0.6088
417.00 0.6093
417.10 0.6098
417.20 0.6103
417.30 0.6108
417.40 0.6113
417.50 0.6118
417.60 0.6123
417.70 0.6128
417.80 0.6133
417.90 0.6138
418.00 0.6143
418.10 0.6148
418.20 0.6153
418.30 0.6158
418.40 0.6163
418.50 0.6168
418.60 0.6173
418.70 0.6178
418.80 0.6183
418.90 0.6188
419.00 0.6193
419.10 0.6198
419.20 0.6203
419.30 0.6208
419.40 0.6213
419.50 0.6218
419.60 0.6223
419.70 0.6228
419.80 0.6233
419.90 0.6238
420.00 0.6243
420.10 0.6248
420.20 0.6253
420.30 0.6258
420.40 0.6263
420.50 0.6268
420.60 0.6273
420.70 0.6278
420.80 0.6283
420.90 0.6288
421.00 0.6293
421.10 0.6298
421.20 0.6303
421.30 0.6308
421.40 0.6313
421.50 0.6318
421.60 0.6323
421.70 0.6328
421.80 0.6333
421.90 0.6338
422.00 0.6343
422.10 0.6348
422.20 0.6353
422.30 0.6358
422.40 0.6363
422.50 0.6369
422.60 0.6373
422.70 0.6378
422.80 0.6383
422.90 0.6388
423.00 0.6393
423.10 0.6398
423.20 0.6404
423.30 0.6408
423.40 0.6413
423.50 0.6418
423.60 0.6424
423.70 0.6429
423.80 0.6434
423.90 0.6438
424.00 0.6444
424.10 0.6449
424.20 0.6454
424.30 0.6459
424.40 0.6464
424.50 0.6469
424.60 0.6474
424.70 0.6479
424.80 0.6484
424.90 0.6489
425.00 0.6494
425.10 0.6499
425.20 0.6504
425.30 0.6509
425.40 0.6514
425.50 0.6519
425.60 0.6524
425.70 0.6529
425.80 0.6534
425.90 0.6539
426.00 0.6544
426.10 0.6549
426.20 0.6554
426.30 0.6559
426.40 0.6564
426.50 0.6569
426.60 0.6574
426.70 0.6579
426.80 0.6584
426.90 0.6589
427.00 0.6594
427.10 0.6599
427.20 0.6604
427.30 0.6609
427.40 0.6614
427.50 0.6619
427.60 0.6624
427.70 0.6629
427.80 0.6634
427.90 0.6639
428.00 0.6644
428.10 0.6649
428.20 0.6654
428.30 0.6659
428.40 0.6664
428.50 0.6669
428.60 0.6674
428.70 0.6679
428.80 0.6684
428.90 0.6689
429.00 0.6694
429.10 0.6699
429.20 0.6704
429.30 0.6709
429.40 0.6714
429.50 0.6719
429.60 0.6724
429.70 0.6729
429.80 0.6734
429.90 0.6739
430.00 0.6744
430.10 0.6748
430.20 0.6753
430.30 0.6759
430.40 0.6764
430.50 0.6768
430.60 0.6773
430.70 0.6778
430.80 0.6783
430.90 0.6788
431.00 0.6793
431.10 0.6798
431.20 0.6803
431.30 0.6808
431.40 0.6813
431.50 0.6818
431.60 0.6823
431.70 0.6828
431.80 0.6833
431.90 0.6838
432.00 0.6843
432.10 0.6848
432.20 0.6853
432.30 0.6858
432.40 0.6863
432.50 0.6868
432.60 0.6873
432.70 0.6878
432.80 0.6883
432.90 0.6888
433.00 0.6893
433.10 0.6898
433.20 0.6903
433.30 0.6908
433.40 0.6913
433.50 0.6918
433.60 0.6923
433.70 0.6928
433.80 0.6933
433.90 0.6937
434.00 0.6942
434.10 0.6947
434.20 0.6952
434.30 0.6957
434.40 0.6963
434.50 0.6968
434.60 0.6973
434.70 0.6977
434.80 0.6982
434.90 0.6987
435.00 0.6992
435.10 0.6997
435.20 0.7002
435.30 0.7007
435.40 0.7012
435.50 0.7017
435.60 0.7022
435.70 0.7027
435.80 0.7032
435.90 0.7037
436.00 0.7042
436.10 0.7047
436.20 0.7052
436.30 0.7057
436.40 0.7062
436.50 0.7067
436.60 0.7072
436.70 0.7077
436.80 0.7082
436.90 0.7087
437.00 0.7092
437.10 0.7097
437.20 0.7102
437.30 0.7107
437.40 0.7112
437.50 0.7116
437.60 0.7121
437.70 0.7126
437.80 0.7131
437.90 0.7136
438.00 0.7141
438.10 0.7146
438.20 0.7151
438.30 0.7156
438.40 0.7161
438.50 0.7166
438.60 0.7171
438.70 0.7176
438.80 0.7181
438.90 0.7186
439.00 0.7191
439.10 0.7196
439.20 0.7201
439.30 0.7205
439.40 0.721
439.50 0.7215
439.60 0.722
439.70 0.7225
439.80 0.723
439.90 0.7235
440.00 0.724
440.10 0.7245
440.20 0.725
440.30 0.7255
440.40 0.726
440.50 0.7265
440.60 0.727
440.70 0.7275
440.80 0.7279
440.90 0.7284
441.00 0.7289
441.10 0.7294
441.20 0.7299
441.30 0.7304
441.40 0.7309
441.50 0.7314
441.60 0.7319
441.70 0.7324
441.80 0.7329
441.90 0.7334
442.00 0.7339
442.10 0.7344
442.20 0.7349
442.30 0.7353
442.40 0.7358
442.50 0.7363
442.60 0.7368
442.70 0.7373
442.80 0.7378
442.90 0.7383
443.00 0.7388
443.10 0.7393
443.20 0.7398
443.30 0.7403
443.40 0.7407
443.50 0.7412
443.60 0.7417
443.70 0.7422
443.80 0.7427
443.90 0.7432
444.00 0.7437
444.10 0.7442
444.20 0.7447
444.30 0.7452
444.40 0.7457
444.50 0.7461
444.60 0.7466
444.70 0.7471
444.80 0.7476
444.90 0.7481
445.00 0.7486
445.10 0.7491
445.20 0.7496
445.30 0.7501
445.40 0.7506
445.50 0.7511
445.60 0.7515
445.70 0.752
445.80 0.7525
445.90 0.753
446.00 0.7535
446.10 0.754
446.20 0.7545
446.30 0.755
446.40 0.7555
446.50 0.7559
446.60 0.7564
446.70 0.7569
446.80 0.7574
446.90 0.7579
447.00 0.7584
447.10 0.7589
447.20 0.7594
447.30 0.7599
447.40 0.7603
447.50 0.7608
447.60 0.7613
447.70 0.7618
447.80 0.7623
447.90 0.7628
448.00 0.7633
448.10 0.7637
448.20 0.7642
448.30 0.7647
448.40 0.7652
448.50 0.7657
448.60 0.7662
448.70 0.7667
448.80 0.7672
448.90 0.7677
449.00 0.7681
449.10 0.7686
449.20 0.7691
449.30 0.7696
449.40 0.7701
449.50 0.7706
449.60 0.7711
449.70 0.7715
449.80 0.772
449.90 0.7725
450.00 0.773
450.10 0.7735
450.20 0.774
450.30 0.7745
450.40 0.7749
450.50 0.7754
450.60 0.7759
450.70 0.7764
450.80 0.7769
450.90 0.7774
451.00 0.7779
451.10 0.7783
451.20 0.7788
451.30 0.7793
451.40 0.7798
451.50 0.7803
451.60 0.7807
451.70 0.7812
451.80 0.7817
451.90 0.7822
452.00 0.7827
452.10 0.7832
452.20 0.7837
452.30 0.7842
452.40 0.7846
452.50 0.7851
452.60 0.7856
452.70 0.7861
452.80 0.7866
452.90 0.787
453.00 0.7875
453.10 0.788
453.20 0.7885
453.30 0.789
453.40 0.7895
453.50 0.7899
453.60 0.7904
453.70 0.7909
453.80 0.7914
453.90 0.7919
454.00 0.7924
454.10 0.7928
454.20 0.7933
454.30 0.7938
454.40 0.7943
454.50 0.7948
454.60 0.7952
454.70 0.7957
454.80 0.7962
454.90 0.7967
455.00 0.7972
455.10 0.7976
455.20 0.7981
455.30 0.7986
455.40 0.7991
455.50 0.7996
455.60 0.8001
455.70 0.8005
455.80 0.801
455.90 0.8015
456.00 0.802
456.10 0.8025
456.20 0.8029
456.30 0.8034
456.40 0.8039
456.50 0.8044
456.60 0.8049
456.70 0.8053
456.80 0.8058
456.90 0.8063
457.00 0.8068
457.10 0.8072
457.20 0.8077
457.30 0.8082
457.40 0.8087
457.50 0.8092
457.60 0.8096
457.70 0.8101
457.80 0.8106
457.90 0.8111
458.00 0.8115
458.10 0.812
458.20 0.8125
458.30 0.813
458.40 0.8135
458.50 0.8139
458.60 0.8144
458.70 0.8149
458.80 0.8154
458.90 0.8158
459.00 0.8163
459.10 0.8168
459.20 0.8173
459.30 0.8177
459.40 0.8182
459.50 0.8187
459.60 0.8192
459.70 0.8196
459.80 0.8201
459.90 0.8206
460.00 0.8211
460.10 0.8215
460.20 0.822
460.30 0.8225
460.40 0.823
460.50 0.8234
460.60 0.8239
460.70 0.8244
460.80 0.8249
460.90 0.8253
461.00 0.8258
461.10 0.8263
461.20 0.8268
461.30 0.8272
461.40 0.8277
461.50 0.8282
461.60 0.8287
461.70 0.8291
461.80 0.8296
461.90 0.8301
462.00 0.8306
462.10 0.831
462.20 0.8315
462.30 0.832
462.40 0.8325
462.50 0.8329
462.60 0.8334
462.70 0.8339
462.80 0.8343
462.90 0.8348
463.00 0.8353
463.10 0.8358
463.20 0.8362
463.30 0.8367
463.40 0.8372
463.50 0.8376
463.60 0.8381
463.70 0.8386
463.80 0.8391
463.90 0.8395
464.00 0.84
464.10 0.8405
464.20 0.8409
464.30 0.8414
464.40 0.8419
464.50 0.8424
464.60 0.8428
464.70 0.8433
464.80 0.8438
464.90 0.8442
465.00 0.8447
465.10 0.8452
465.20 0.8456
465.30 0.8461
465.40 0.8466
465.50 0.847
465.60 0.8475
465.70 0.848
465.80 0.8484
465.90 0.8489
466.00 0.8494
466.10 0.8498
466.20 0.8503
466.30 0.8508
466.40 0.8512
466.50 0.8517
466.60 0.8522
466.70 0.8526
466.80 0.8531
466.90 0.8536
467.00 0.854
467.10 0.8545
467.20 0.855
467.30 0.8554
467.40 0.8559
467.50 0.8564
467.60 0.8568
467.70 0.8573
467.80 0.8578
467.90 0.8582
468.00 0.8587
468.10 0.8592
468.20 0.8596
468.30 0.8601
468.40 0.8606
468.50 0.861
468.60 0.8615
468.70 0.862
468.80 0.8624
468.90 0.8629
469.00 0.8634
469.10 0.8638
469.20 0.8643
469.30 0.8648
469.40 0.8652
469.50 0.8657
469.60 0.8661
469.70 0.8666
469.80 0.8671
469.90 0.8675
470.00 0.868
470.10 0.8684
470.20 0.8689
470.30 0.8694
470.40 0.8698
470.50 0.8703
470.60 0.8708
470.70 0.8712
470.80 0.8717
470.90 0.8722
471.00 0.8726
471.10 0.8731
471.20 0.8735
471.30 0.874
471.40 0.8745
471.50 0.8749
471.60 0.8754
471.70 0.8759
471.80 0.8763
471.90 0.8768
472.00 0.8772
472.10 0.8777
472.20 0.8782
472.30 0.8786
472.40 0.8791
472.50 0.8795
472.60 0.88
472.70 0.8804
472.80 0.8809
472.90 0.8814
473.00 0.8818
473.10 0.8823
473.20 0.8827
473.30 0.8832
473.40 0.8837
473.50 0.8841
473.60 0.8846
473.70 0.885
473.80 0.8855
473.90 0.8859
474.00 0.8864
474.10 0.8869
474.20 0.8873
474.30 0.8878
474.40 0.8882
474.50 0.8887
474.60 0.8891
474.70 0.8896
474.80 0.8901
474.90 0.8905
475.00 0.891
475.10 0.8914
475.20 0.8919
475.30 0.8923
475.40 0.8928
475.50 0.8932
475.60 0.8937
475.70 0.8942
475.80 0.8946
475.90 0.8951
476.00 0.8955
476.10 0.896
476.20 0.8964
476.30 0.8969
476.40 0.8973
476.50 0.8978
476.60 0.8982
476.70 0.8987
476.80 0.8992
476.90 0.8996
477.00 0.9001
477.10 0.9005
477.20 0.901
477.30 0.9014
477.40 0.9019
477.50 0.9023
477.60 0.9028
477.70 0.9032
477.80 0.9037
477.90 0.9041
478.00 0.9046
478.10 0.905
478.20 0.9055
478.30 0.9059
478.40 0.9064
478.50 0.9068
478.60 0.9073
478.70 0.9077
478.80 0.9082
478.90 0.9086
479.00 0.9091
479.10 0.9095
479.20 0.91
479.30 0.9104
479.40 0.9109
479.50 0.9113
479.60 0.9118
479.70 0.9122
479.80 0.9127
479.90 0.9131
480.00 0.9136
480.10 0.914
480.20 0.9145
480.30 0.9149
480.40 0.9154
480.50 0.9158
480.60 0.9163
480.70 0.9167
480.80 0.9172
480.90 0.9176
481.00 0.9181
481.10 0.9185
481.20 0.9189
481.30 0.9194
481.40 0.9198
481.50 0.9203
481.60 0.9207
481.70 0.9212
481.80 0.9216
481.90 0.9221
482.00 0.9225
482.10 0.923
482.20 0.9234
482.30 0.9238
482.40 0.9243
482.50 0.9247
482.60 0.9252
482.70 0.9256
482.80 0.9261
482.90 0.9265
483.00 0.9269
483.10 0.9274
483.20 0.9278
483.30 0.9283
483.40 0.9287
483.50 0.9292
483.60 0.9296
483.70 0.93
483.80 0.9305
483.90 0.9309
484.00 0.9314
484.10 0.9318
484.20 0.9323
484.30 0.9327
484.40 0.9331
484.50 0.9336
484.60 0.934
484.70 0.9345
484.80 0.9349
484.90 0.9354
485.00 0.9358
485.10 0.9362
485.20 0.9367
485.30 0.9371
485.40 0.9375
485.50 0.938
485.60 0.9384
485.70 0.9388
485.80 0.9392
485.90 0.9396
486.00 0.94
486.10 0.9402
486.20 0.9407
486.30 0.9414
486.40 0.9418
486.50 0.9423
486.60 0.9428
486.70 0.9432
486.80 0.9437
486.90 0.9441
487.00 0.9446
487.10 0.945
487.20 0.9454
487.30 0.9459
487.40 0.9463
487.50 0.9468
487.60 0.9472
487.70 0.9476
487.80 0.9481
487.90 0.9485
488.00 0.9489
488.10 0.9494
488.20 0.9498
488.30 0.9502
488.40 0.9507
488.50 0.9511
488.60 0.9516
488.70 0.952
488.80 0.9524
488.90 0.9529
489.00 0.9533
489.10 0.9537
489.20 0.9542
489.30 0.9546
489.40 0.955
489.50 0.9555
489.60 0.9559
489.70 0.9563
489.80 0.9568
489.90 0.9572
490.00 0.9576
490.10 0.958
490.20 0.9585
490.30 0.9589
490.40 0.9593
490.50 0.9598
490.60 0.9602
490.70 0.9606
490.80 0.9611
490.90 0.9615
491.00 0.9619
491.10 0.9624
491.20 0.9628
491.30 0.9632
491.40 0.9637
491.50 0.9641
491.60 0.9645
491.70 0.9649
491.80 0.9654
491.90 0.9658
492.00 0.9662
492.10 0.9667
492.20 0.9671
492.30 0.9675
492.40 0.968
492.50 0.9684
492.60 0.9688
492.70 0.9692
492.80 0.9697
492.90 0.9701
493.00 0.9705
493.10 0.9709
493.20 0.9714
493.30 0.9718
493.40 0.9722
493.50 0.9727
493.60 0.9731
493.70 0.9735
493.80 0.9739
493.90 0.9744
494.00 0.9748
494.10 0.9752
494.20 0.9756
494.30 0.9761
494.40 0.9765
494.50 0.9769
494.60 0.9773
494.70 0.9778
494.80 0.9782
494.90 0.9786
495.00 0.979
495.10 0.9795
495.20 0.9799
495.30 0.9803
495.40 0.9807
495.50 0.9812
495.60 0.9816
495.70 0.982
495.80 0.9824
495.90 0.9828
496.00 0.9833
496.10 0.9837
496.20 0.9841
496.30 0.9845
496.40 0.985
496.50 0.9854
496.60 0.9858
496.70 0.9862
496.80 0.9866
496.90 0.9871
497.00 0.9875
497.10 0.9879
497.20 0.9883
497.30 0.9887
497.40 0.9892
497.50 0.9896
497.60 0.99
497.70 0.9904
497.80 0.9908
497.90 0.9913
498.00 0.9917
498.10 0.9921
498.20 0.9925
498.30 0.9929
498.40 0.9933
498.50 0.9938
498.60 0.9942
498.70 0.9946
498.80 0.995
498.90 0.9954
499.00 0.9958
499.10 0.9963
499.20 0.9967
499.30 0.9971
499.40 0.9975
499.50 0.9979
499.60 0.9983
499.70 0.9988
499.80 0.9992
499.90 0.9996
500.00 1
500.10 1
500.20 1.001
500.30 1.001
500.40 1.002
500.50 1.002
500.60 1.002
500.70 1.003
500.80 1.003
500.90 1.004
501.00 1.004
501.10 1.005
501.20 1.005
501.30 1.005
501.40 1.006
501.50 1.006
501.60 1.007
501.70 1.007
501.80 1.007
501.90 1.008
502.00 1.008
502.10 1.009
502.20 1.009
502.30 1.01
502.40 1.01
502.50 1.01
502.60 1.011
502.70 1.011
502.80 1.012
502.90 1.012
503.00 1.012
503.10 1.013
503.20 1.013
503.30 1.014
503.40 1.014
503.50 1.014
503.60 1.015
503.70 1.015
503.80 1.016
503.90 1.016
504.00 1.016
504.10 1.017
504.20 1.017
504.30 1.018
504.40 1.018
504.50 1.019
504.60 1.019
504.70 1.019
504.80 1.02
504.90 1.02
505.00 1.021
505.10 1.021
505.20 1.021
505.30 1.022
505.40 1.022
505.50 1.023
505.60 1.023
505.70 1.023
505.80 1.024
505.90 1.024
506.00 1.025
506.10 1.025
506.20 1.025
506.30 1.026
506.40 1.026
506.50 1.027
506.60 1.027
506.70 1.027
506.80 1.028
506.90 1.028
507.00 1.029
507.10 1.029
507.20 1.029
507.30 1.03
507.40 1.03
507.50 1.031
507.60 1.031
507.70 1.031
507.80 1.032
507.90 1.032
508.00 1.033
508.10 1.033
508.20 1.033
508.30 1.034
508.40 1.034
508.50 1.035
508.60 1.035
508.70 1.035
508.80 1.036
508.90 1.036
509.00 1.037
509.10 1.037
509.20 1.037
509.30 1.038
509.40 1.038
509.50 1.039
509.60 1.039
509.70 1.039
509.80 1.04
509.90 1.04
510.00 1.041
510.10 1.041
510.20 1.041
510.30 1.042
510.40 1.042
510.50 1.043
510.60 1.043
510.70 1.043
510.80 1.044
510.90 1.044
511.00 1.045
511.10 1.045
511.20 1.045
511.30 1.046
511.40 1.046
511.50 1.047
511.60 1.047
511.70 1.047
511.80 1.048
511.90 1.048
512.00 1.048
512.10 1.049
512.20 1.049
512.30 1.05
512.40 1.05
512.50 1.05
512.60 1.051
512.70 1.051
512.80 1.052
512.90 1.052
513.00 1.052
513.10 1.053
513.20 1.053
513.30 1.054
513.40 1.054
513.50 1.054
513.60 1.055
513.70 1.055
513.80 1.056
513.90 1.056
514.00 1.056
514.10 1.057
514.20 1.057
514.30 1.057
514.40 1.058
514.50 1.058
514.60 1.059
514.70 1.059
514.80 1.059
514.90 1.06
515.00 1.06
515.10 1.061
515.20 1.061
515.30 1.061
515.40 1.062
515.50 1.062
515.60 1.063
515.70 1.063
515.80 1.063
515.90 1.064
516.00 1.064
516.10 1.064
516.20 1.065
516.30 1.065
516.40 1.066
516.50 1.066
516.60 1.066
516.70 1.067
516.80 1.067
516.90 1.067
517.00 1.068
517.10 1.068
517.20 1.069
517.30 1.069
517.40 1.069
517.50 1.07
517.60 1.07
517.70 1.071
517.80 1.071
517.90 1.071
518.00 1.072
518.10 1.072
518.20 1.072
518.30 1.073
518.40 1.073
518.50 1.074
518.60 1.074
518.70 1.074
518.80 1.075
518.90 1.075
519.00 1.076
519.10 1.076
519.20 1.076
519.30 1.077
519.40 1.077
519.50 1.077
519.60 1.078
519.70 1.078
519.80 1.079
519.90 1.079
520.00 1.079
520.10 1.08
520.20 1.08
520.30 1.08
520.40 1.081
520.50 1.081
520.60 1.082
520.70 1.082
520.80 1.082
520.90 1.083
521.00 1.083
521.10 1.083
521.20 1.084
521.30 1.084
521.40 1.085
521.50 1.085
521.60 1.085
521.70 1.086
521.80 1.086
521.90 1.086
522.00 1.087
522.10 1.087
522.20 1.088
522.30 1.088
522.40 1.088
522.50 1.089
522.60 1.089
522.70 1.089
522.80 1.09
522.90 1.09
523.00 1.091
523.10 1.091
523.20 1.091
523.30 1.092
523.40 1.092
523.50 1.092
523.60 1.093
523.70 1.093
523.80 1.093
523.90 1.094
524.00 1.094
524.10 1.095
524.20 1.095
524.30 1.095
524.40 1.096
524.50 1.096
524.60 1.096
524.70 1.097
524.80 1.097
524.90 1.098
525.00 1.098
525.10 1.098
525.20 1.099
525.30 1.099
525.40 1.099
525.50 1.1
525.60 1.1
525.70 1.1
525.80 1.101
525.90 1.101
526.00 1.102
526.10 1.102
526.20 1.102
526.30 1.103
526.40 1.103
526.50 1.103
526.60 1.104
526.70 1.104
526.80 1.104
526.90 1.105
527.00 1.105
527.10 1.106
527.20 1.106
527.30 1.106
527.40 1.107
527.50 1.107
527.60 1.107
527.70 1.108
527.80 1.108
527.90 1.108
528.00 1.109
528.10 1.109
528.20 1.11
528.30 1.11
528.40 1.11
528.50 1.111
528.60 1.111
528.70 1.111
528.80 1.112
528.90 1.112
529.00 1.112
529.10 1.113
529.20 1.113
529.30 1.114
529.40 1.114
529.50 1.114
529.60 1.115
529.70 1.115
529.80 1.115
529.90 1.116
530.00 1.116
530.10 1.116
530.20 1.117
530.30 1.117
530.40 1.117
530.50 1.118
530.60 1.118
530.70 1.118
530.80 1.119
530.90 1.119
531.00 1.12
531.10 1.12
531.20 1.12
531.30 1.121
531.40 1.121
531.50 1.121
531.60 1.122
531.70 1.122
531.80 1.122
531.90 1.123
532.00 1.123
532.10 1.123
532.20 1.124
532.30 1.124
532.40 1.125
532.50 1.125
532.60 1.125
532.70 1.126
532.80 1.126
532.90 1.126
533.00 1.127
533.10 1.127
533.20 1.127
533.30 1.128
533.40 1.128
533.50 1.128
533.60 1.129
533.70 1.129
533.80 1.129
533.90 1.13
534.00 1.13
534.10 1.13
534.20 1.131
534.30 1.131
534.40 1.132
534.50 1.132
534.60 1.132
534.70 1.133
534.80 1.133
534.90 1.133
535.00 1.134
535.10 1.134
535.20 1.134
535.30 1.135
535.40 1.135
535.50 1.135
535.60 1.136
535.70 1.136
535.80 1.136
535.90 1.137
536.00 1.137
536.10 1.137
536.20 1.138
536.30 1.138
536.40 1.138
536.50 1.139
536.60 1.139
536.70 1.139
536.80 1.14
536.90 1.14
537.00 1.14
537.10 1.141
537.20 1.141
537.30 1.142
537.40 1.142
537.50 1.142
537.60 1.143
537.70 1.143
537.80 1.143
537.90 1.144
538.00 1.144
538.10 1.144
538.20 1.145
538.30 1.145
538.40 1.145
538.50 1.146
538.60 1.146
538.70 1.146
538.80 1.147
538.90 1.147
539.00 1.147
539.10 1.148
539.20 1.148
539.30 1.148
539.40 1.149
539.50 1.149
539.60 1.149
539.70 1.15
539.80 1.15
539.90 1.15
540.00 1.151
540.10 1.151
540.20 1.151
540.30 1.152
540.40 1.152
540.50 1.152
540.60 1.153
540.70 1.153
540.80 1.153
540.90 1.154
541.00 1.154
541.10 1.154
541.20 1.155
541.30 1.155
541.40 1.155
541.50 1.156
541.60 1.156
541.70 1.156
541.80 1.157
541.90 1.157
542.00 1.157
542.10 1.158
542.20 1.158
542.30 1.158
542.40 1.159
542.50 1.159
542.60 1.159
542.70 1.16
542.80 1.16
542.90 1.16
543.00 1.161
543.10 1.161
543.20 1.161
543.30 1.162
543.40 1.162
543.50 1.162
543.60 1.163
543.70 1.163
543.80 1.163
543.90 1.164
544.00 1.164
544.10 1.164
544.20 1.165
544.30 1.165
544.40 1.165
544.50 1.166
544.60 1.166
544.70 1.166
544.80 1.167
544.90 1.167
545.00 1.167
545.10 1.168
545.20 1.168
545.30 1.168
545.40 1.169
545.50 1.169
545.60 1.169
545.70 1.17
545.80 1.17
545.90 1.17
546.00 1.171
546.10 1.171
546.20 1.171
546.30 1.171
546.40 1.172
546.50 1.172
546.60 1.172
546.70 1.173
546.80 1.173
546.90 1.173
547.00 1.174
547.10 1.174
547.20 1.174
547.30 1.175
547.40 1.175
547.50 1.175
547.60 1.176
547.70 1.176
547.80 1.176
547.90 1.177
548.00 1.177
548.10 1.177
548.20 1.178
548.30 1.178
548.40 1.178
548.50 1.179
548.60 1.179
548.70 1.179
548.80 1.179
548.90 1.18
549.00 1.18
549.10 1.18
549.20 1.181
549.30 1.181
549.40 1.181
549.50 1.182
549.60 1.182
549.70 1.182
549.80 1.183
549.90 1.183
550.00 1.183
550.10 1.184
550.20 1.184
550.30 1.184
550.40 1.185
550.50 1.185
550.60 1.185
550.70 1.185
550.80 1.186
550.90 1.186
551.00 1.186
551.10 1.187
551.20 1.187
551.30 1.187
551.40 1.188
551.50 1.188
551.60 1.188
551.70 1.189
551.80 1.189
551.90 1.189
552.00 1.19
552.10 1.19
552.20 1.19
552.30 1.19
552.40 1.191
552.50 1.191
552.60 1.191
552.70 1.192
552.80 1.192
552.90 1.192
553.00 1.193
553.10 1.193
553.20 1.193
553.30 1.194
553.40 1.194
553.50 1.194
553.60 1.195
553.70 1.195
553.80 1.195
553.90 1.195
554.00 1.196
554.10 1.196
554.20 1.196
554.30 1.197
554.40 1.197
554.50 1.197
554.60 1.198
554.70 1.198
554.80 1.198
554.90 1.199
555.00 1.199
555.10 1.199
555.20 1.199
555.30 1.2
555.40 1.2
555.50 1.2
555.60 1.201
555.70 1.201
555.80 1.201
555.90 1.202
556.00 1.202
556.10 1.202
556.20 1.202
556.30 1.203
556.40 1.203
556.50 1.203
556.60 1.204
556.70 1.204
556.80 1.204
556.90 1.205
557.00 1.205
557.10 1.205
557.20 1.205
557.30 1.206
557.40 1.206
557.50 1.206
557.60 1.207
557.70 1.207
557.80 1.207
557.90 1.208
558.00 1.208
558.10 1.208
558.20 1.208
558.30 1.209
558.40 1.209
558.50 1.209
558.60 1.21
558.70 1.21
558.80 1.21
558.90 1.211
559.00 1.211
559.10 1.211
559.20 1.211
559.30 1.212
559.40 1.212
559.50 1.212
559.60 1.213
559.70 1.213
559.80 1.213
559.90 1.214
560.00 1.214
560.10 1.214
560.20 1.214
560.30 1.215
560.40 1.215
560.50 1.215
560.60 1.216
560.70 1.216
560.80 1.216
560.90 1.216
561.00 1.217
561.10 1.217
561.20 1.217
561.30 1.218
561.40 1.218
561.50 1.218
561.60 1.218
561.70 1.219
561.80 1.219
561.90 1.219
562.00 1.22
562.10 1.22
562.20 1.22
562.30 1.221
562.40 1.221
562.50 1.221
562.60 1.221
562.70 1.222
562.80 1.222
562.90 1.222
563.00 1.223
563.10 1.223
563.20 1.223
563.30 1.223
563.40 1.224
563.50 1.224
563.60 1.224
563.70 1.225
563.80 1.225
563.90 1.225
564.00 1.225
564.10 1.226
564.20 1.226
564.30 1.226
564.40 1.227
564.50 1.227
564.60 1.227
564.70 1.227
564.80 1.228
564.90 1.228
565.00 1.228
565.10 1.229
565.20 1.229
565.30 1.229
565.40 1.229
565.50 1.23
565.60 1.23
565.70 1.23
565.80 1.231
565.90 1.231
566.00 1.231
566.10 1.231
566.20 1.232
566.30 1.232
566.40 1.232
566.50 1.232
566.60 1.233
566.70 1.233
566.80 1.233
566.90 1.234
567.00 1.234
567.10 1.234
567.20 1.234
567.30 1.235
567.40 1.235
567.50 1.235
567.60 1.236
567.70 1.236
567.80 1.236
567.90 1.236
568.00 1.237
568.10 1.237
568.20 1.237
568.30 1.238
568.40 1.238
568.50 1.238
568.60 1.238
568.70 1.239
568.80 1.239
568.90 1.239
569.00 1.239
569.10 1.24
569.20 1.24
569.30 1.24
569.40 1.241
569.50 1.241
569.60 1.241
569.70 1.241
569.80 1.242
569.90 1.242
570.00 1.242
570.10 1.242
570.20 1.243
570.30 1.243
570.40 1.243
570.50 1.244
570.60 1.244
570.70 1.244
570.80 1.244
570.90 1.245
571.00 1.245
571.10 1.245
571.20 1.245
571.30 1.246
571.40 1.246
571.50 1.246
571.60 1.247
571.70 1.247
571.80 1.247
571.90 1.247
572.00 1.248
572.10 1.248
572.20 1.248
572.30 1.248
572.40 1.249
572.50 1.249
572.60 1.249
572.70 1.25
572.80 1.25
572.90 1.25
573.00 1.25
573.10 1.251
573.20 1.251
573.30 1.251
573.40 1.251
573.50 1.252
573.60 1.252
573.70 1.252
573.80 1.252
573.90 1.253
574.00 1.253
574.10 1.253
574.20 1.253
574.30 1.254
574.40 1.254
574.50 1.254
574.60 1.255
574.70 1.255
574.80 1.255
574.90 1.255
575.00 1.256
575.10 1.256
575.20 1.256
575.30 1.256
575.40 1.257
575.50 1.257
575.60 1.257
575.70 1.257
575.80 1.258
575.90 1.258
576.00 1.258
576.10 1.258
576.20 1.259
576.30 1.259
576.40 1.259
576.50 1.26
576.60 1.26
576.70 1.26
576.80 1.26
576.90 1.261
577.00 1.261
577.10 1.261
577.20 1.261
577.30 1.262
577.40 1.262
577.50 1.262
577.60 1.262
577.70 1.263
577.80 1.263
577.90 1.263
578.00 1.263
578.10 1.264
578.20 1.264
578.30 1.264
578.40 1.264
578.50 1.265
578.60 1.265
578.70 1.265
578.80 1.265
578.90 1.266
579.00 1.266
579.10 1.266
579.20 1.266
579.30 1.267
579.40 1.267
579.50 1.267
579.60 1.267
579.70 1.268
579.80 1.268
579.90 1.268
580.00 1.268
580.10 1.269
580.20 1.269
580.30 1.269
580.40 1.269
580.50 1.27
580.60 1.27
580.70 1.27
580.80 1.271
580.90 1.271
581.00 1.271
581.10 1.271
581.20 1.272
581.30 1.272
581.40 1.272
581.50 1.272
581.60 1.273
581.70 1.273
581.80 1.273
581.90 1.273
582.00 1.273
582.10 1.274
582.20 1.274
582.30 1.274
582.40 1.274
582.50 1.275
582.60 1.275
582.70 1.275
582.80 1.275
582.90 1.276
583.00 1.276
583.10 1.276
583.20 1.276
583.30 1.277
583.40 1.277
583.50 1.277
583.60 1.277
583.70 1.278
583.80 1.278
583.90 1.278
584.00 1.278
584.10 1.279
584.20 1.279
584.30 1.279
584.40 1.279
584.50 1.28
584.60 1.28
584.70 1.28
584.80 1.28
584.90 1.281
585.00 1.281
585.10 1.281
585.20 1.281
585.30 1.282
585.40 1.282
585.50 1.282
585.60 1.282
585.70 1.283
585.80 1.283
585.90 1.283
586.00 1.283
586.10 1.284
586.20 1.284
586.30 1.284
586.40 1.284
586.50 1.284
586.60 1.285
586.70 1.285
586.80 1.285
586.90 1.285
587.00 1.286
587.10 1.286
587.20 1.286
587.30 1.286
587.40 1.287
587.50 1.287
587.60 1.287
587.70 1.287
587.80 1.288
587.90 1.288
588.00 1.288
588.10 1.288
588.20 1.288
588.30 1.289
588.40 1.289
588.50 1.289
588.60 1.289
588.70 1.29
588.80 1.29
588.90 1.29
589.00 1.29
589.10 1.291
589.20 1.291
589.30 1.291
589.40 1.291
589.50 1.292
589.60 1.292
589.70 1.292
589.80 1.292
589.90 1.292
590.00 1.293
590.10 1.293
590.20 1.293
590.30 1.293
590.40 1.294
590.50 1.294
590.60 1.294
590.70 1.294
590.80 1.295
590.90 1.295
591.00 1.295
591.10 1.295
591.20 1.295
591.30 1.296
591.40 1.296
591.50 1.296
591.60 1.296
591.70 1.297
591.80 1.297
591.90 1.297
592.00 1.297
592.10 1.298
592.20 1.298
592.30 1.298
592.40 1.298
592.50 1.298
592.60 1.299
592.70 1.299
592.80 1.299
592.90 1.299
593.00 1.3
593.10 1.3
593.20 1.3
593.30 1.3
593.40 1.3
593.50 1.301
593.60 1.301
593.70 1.301
593.80 1.301
593.90 1.302
594.00 1.302
594.10 1.302
594.20 1.302
594.30 1.302
594.40 1.303
594.50 1.303
594.60 1.303
594.70 1.303
594.80 1.304
594.90 1.304
595.00 1.304
595.10 1.304
595.20 1.304
595.30 1.305
595.40 1.305
595.50 1.305
595.60 1.305
595.70 1.306
595.80 1.306
595.90 1.306
596.00 1.306
596.10 1.306
596.20 1.307
596.30 1.307
596.40 1.307
596.50 1.307
596.60 1.308
596.70 1.308
596.80 1.308
596.90 1.308
597.00 1.308
597.10 1.309
597.20 1.309
597.30 1.309
597.40 1.309
597.50 1.309
597.60 1.31
597.70 1.31
597.80 1.31
597.90 1.31
598.00 1.311
598.10 1.311
598.20 1.311
598.30 1.311
598.40 1.311
598.50 1.312
598.60 1.312
598.70 1.312
598.80 1.312
598.90 1.313
599.00 1.313
599.10 1.313
599.20 1.313
599.30 1.313
599.40 1.314
599.50 1.314
599.60 1.314
599.70 1.314
599.80 1.314
599.90 1.315
600.00 1.315
600.10 1.315
600.20 1.315
600.30 1.315
600.40 1.316
600.50 1.316
600.60 1.316
600.70 1.316
600.80 1.316
600.90 1.317
601.00 1.317
601.10 1.317
601.20 1.317
601.30 1.318
601.40 1.318
601.50 1.318
601.60 1.318
601.70 1.318
601.80 1.319
601.90 1.319
602.00 1.319
602.10 1.319
602.20 1.319
602.30 1.32
602.40 1.32
602.50 1.32
602.60 1.32
602.70 1.32
602.80 1.321
602.90 1.321
603.00 1.321
603.10 1.321
603.20 1.321
603.30 1.322
603.40 1.322
603.50 1.322
603.60 1.322
603.70 1.323
603.80 1.323
603.90 1.323
604.00 1.323
604.10 1.323
604.20 1.324
604.30 1.324
604.40 1.324
604.50 1.324
604.60 1.324
604.70 1.325
604.80 1.325
604.90 1.325
605.00 1.325
605.10 1.325
605.20 1.326
605.30 1.326
605.40 1.326
605.50 1.326
605.60 1.326
605.70 1.327
605.80 1.327
605.90 1.327
606.00 1.327
606.10 1.327
606.20 1.328
606.30 1.328
606.40 1.328
606.50 1.328
606.60 1.328
606.70 1.329
606.80 1.329
606.90 1.329
607.00 1.329
607.10 1.329
607.20 1.33
607.30 1.33
607.40 1.33
607.50 1.33
607.60 1.33
607.70 1.33
607.80 1.331
607.90 1.331
608.00 1.331
608.10 1.331
608.20 1.331
608.30 1.332
608.40 1.332
608.50 1.332
608.60 1.332
608.70 1.332
608.80 1.333
608.90 1.333
609.00 1.333
609.10 1.333
609.20 1.333
609.30 1.334
609.40 1.334
609.50 1.334
609.60 1.334
609.70 1.334
609.80 1.335
609.90 1.335
610.00 1.335
610.10 1.335
610.20 1.335
610.30 1.335
610.40 1.336
610.50 1.336
610.60 1.336
610.70 1.336
610.80 1.336
610.90 1.337
611.00 1.337
611.10 1.337
611.20 1.337
611.30 1.337
611.40 1.338
611.50 1.338
611.60 1.338
611.70 1.338
611.80 1.338
611.90 1.339
612.00 1.339
612.10 1.339
612.20 1.339
612.30 1.339
612.40 1.339
612.50 1.34
612.60 1.34
612.70 1.34
612.80 1.34
612.90 1.34
613.00 1.341
613.10 1.341
613.20 1.341
613.30 1.341
613.40 1.341
613.50 1.342
613.60 1.342
613.70 1.342
613.80 1.342
613.90 1.342
614.00 1.342
614.10 1.343
614.20 1.343
614.30 1.343
614.40 1.343
614.50 1.343
614.60 1.343
614.70 1.344
614.80 1.344
614.90 1.344
615.00 1.344
615.10 1.344
615.20 1.345
615.30 1.345
615.40 1.345
615.50 1.345
615.60 1.345
615.70 1.345
615.80 1.346
615.90 1.346
616.00 1.346
616.10 1.346
616.20 1.346
616.30 1.347
616.40 1.347
616.50 1.347
616.60 1.347
616.70 1.347
616.80 1.347
616.90 1.348
617.00 1.348
617.10 1.348
617.20 1.348
617.30 1.348
617.40 1.349
617.50 1.349
617.60 1.349
617.70 1.349
617.80 1.349
617.90 1.349
618.00 1.35
618.10 1.35
618.20 1.35
618.30 1.35
618.40 1.35
618.50 1.35
618.60 1.351
618.70 1.351
618.80 1.351
618.90 1.351
619.00 1.351
619.10 1.351
619.20 1.352
619.30 1.352
619.40 1.352
619.50 1.352
619.60 1.352
619.70 1.353
619.80 1.353
619.90 1.353
620.00 1.353
620.10 1.353
620.20 1.353
620.30 1.354
620.40 1.354
620.50 1.354
620.60 1.354
620.70 1.354
620.80 1.354
620.90 1.355
621.00 1.355
621.10 1.355
621.20 1.355
621.30 1.355
621.40 1.355
621.50 1.356
621.60 1.356
621.70 1.356
621.80 1.356
621.90 1.356
622.00 1.356
622.10 1.357
622.20 1.357
622.30 1.357
622.40 1.357
622.50 1.357
622.60 1.357
622.70 1.358
622.80 1.358
622.90 1.358
623.00 1.358
623.10 1.358
623.20 1.358
623.30 1.359
623.40 1.359
623.50 1.359
623.60 1.359
623.70 1.359
623.80 1.359
623.90 1.36
624.00 1.36
624.10 1.36
624.20 1.36
624.30 1.36
624.40 1.36
624.50 1.361
624.60 1.361
624.70 1.361
624.80 1.361
624.90 1.361
625.00 1.361
625.10 1.362
625.20 1.362
625.30 1.362
625.40 1.362
625.50 1.362
625.60 1.362
625.70 1.362
625.80 1.363
625.90 1.363
626.00 1.363
626.10 1.363
626.20 1.363
626.30 1.363
626.40 1.364
626.50 1.364
626.60 1.364
626.70 1.364
626.80 1.364
626.90 1.364
627.00 1.365
627.10 1.365
627.20 1.365
627.30 1.365
627.40 1.365
627.50 1.365
627.60 1.366
627.70 1.366
627.80 1.366
627.90 1.366
628.00 1.366
628.10 1.366
628.20 1.366
628.30 1.367
628.40 1.367
628.50 1.367
628.60 1.367
628.70 1.367
628.80 1.367
628.90 1.368
629.00 1.368
629.10 1.368
629.20 1.368
629.30 1.368
629.40 1.368
629.50 1.368
629.60 1.369
629.70 1.369
629.80 1.369
629.90 1.369
630.00 1.369
630.10 1.369
630.20 1.369
630.30 1.37
630.40 1.37
630.50 1.37
630.60 1.37
630.70 1.37
630.80 1.37
630.90 1.371
631.00 1.371
631.10 1.371
631.20 1.371
631.30 1.371
631.40 1.371
631.50 1.371
631.60 1.372
631.70 1.372
631.80 1.372
631.90 1.372
632.00 1.372
632.10 1.372
632.20 1.373
632.30 1.373
632.40 1.373
632.50 1.373
632.60 1.373
632.70 1.373
632.80 1.373
632.90 1.374
633.00 1.374
633.10 1.374
633.20 1.374
633.30 1.374
633.40 1.374
633.50 1.374
633.60 1.375
633.70 1.375
633.80 1.375
633.90 1.375
634.00 1.375
634.10 1.375
634.20 1.375
634.30 1.376
634.40 1.376
634.50 1.376
634.60 1.376
634.70 1.376
634.80 1.376
634.90 1.376
635.00 1.377
635.10 1.377
635.20 1.377
635.30 1.377
635.40 1.377
635.50 1.377
635.60 1.377
635.70 1.378
635.80 1.378
635.90 1.378
636.00 1.378
636.10 1.378
636.20 1.378
636.30 1.378
636.40 1.379
636.50 1.379
636.60 1.379
636.70 1.379
636.80 1.379
636.90 1.379
637.00 1.379
637.10 1.38
637.20 1.38
637.30 1.38
637.40 1.38
637.50 1.38
637.60 1.38
637.70 1.38
637.80 1.381
637.90 1.381
638.00 1.381
638.10 1.381
638.20 1.381
638.30 1.381
638.40 1.381
638.50 1.382
638.60 1.382
638.70 1.382
638.80 1.382
638.90 1.382
639.00 1.382
639.10 1.382
639.20 1.382
639.30 1.383
639.40 1.383
639.50 1.383
639.60 1.383
639.70 1.383
639.80 1.383
639.90 1.383
640.00 1.384
640.10 1.384
640.20 1.384
640.30 1.384
640.40 1.384
640.50 1.384
640.60 1.384
640.70 1.384
640.80 1.385
640.90 1.385
641.00 1.385
641.10 1.385
641.20 1.385
641.30 1.385
641.40 1.385
641.50 1.385
641.60 1.386
641.70 1.386
641.80 1.386
641.90 1.386
642.00 1.386
642.10 1.386
642.20 1.386
642.30 1.386
642.40 1.387
642.50 1.387
642.60 1.387
642.70 1.387
642.80 1.387
642.90 1.387
643.00 1.387
643.10 1.387
643.20 1.388
643.30 1.388
643.40 1.388
643.50 1.388
643.60 1.388
643.70 1.388
643.80 1.388
643.90 1.389
644.00 1.389
644.10 1.389
644.20 1.389
644.30 1.389
644.40 1.389
644.50 1.389
644.60 1.389
644.70 1.39
644.80 1.39
644.90 1.39
645.00 1.39
645.10 1.39
645.20 1.39
645.30 1.39
645.40 1.39
645.50 1.391
645.60 1.391
645.70 1.391
645.80 1.391
645.90 1.391
646.00 1.391
646.10 1.391
646.20 1.391
646.30 1.392
646.40 1.392
646.50 1.392
646.60 1.392
646.70 1.392
646.80 1.392
646.90 1.392
647.00 1.392
647.10 1.392
647.20 1.393
647.30 1.393
647.40 1.393
647.50 1.393
647.60 1.393
647.70 1.393
647.80 1.393
647.90 1.393
648.00 1.394
648.10 1.394
648.20 1.394
648.30 1.394
648.40 1.394
648.50 1.394
648.60 1.394
648.70 1.394
648.80 1.395
648.90 1.395
649.00 1.395
649.10 1.395
649.20 1.395
649.30 1.395
649.40 1.395
649.50 1.395
649.60 1.395
649.70 1.396
649.80 1.396
649.90 1.396
650.00 1.396
650.10 1.396
650.20 1.396
650.30 1.396
650.40 1.396
650.50 1.396
650.60 1.397
650.70 1.397
650.80 1.397
650.90 1.397
651.00 1.397
651.10 1.397
651.20 1.397
651.30 1.397
651.40 1.397
651.50 1.398
651.60 1.398
651.70 1.398
651.80 1.398
651.90 1.398
652.00 1.398
652.10 1.398
652.20 1.398
652.30 1.398
652.40 1.399
652.50 1.399
652.60 1.399
652.70 1.399
652.80 1.399
652.90 1.399
653.00 1.399
653.10 1.399
653.20 1.399
653.30 1.4
653.40 1.4
653.50 1.4
653.60 1.4
653.70 1.4
653.80 1.4
653.90 1.4
654.00 1.4
654.10 1.4
654.20 1.401
654.30 1.401
654.40 1.401
654.50 1.401
654.60 1.401
654.70 1.401
654.80 1.401
654.90 1.401
655.00 1.401
655.10 1.401
655.20 1.402
655.30 1.402
655.40 1.402
655.50 1.402
655.60 1.402
655.70 1.402
655.80 1.402
655.90 1.402
656.00 1.402
656.10 1.401
656.20 1.401
656.30 1.4
656.40 1.401
656.50 1.402
656.60 1.402
656.70 1.403
656.80 1.403
656.90 1.403
657.00 1.403
657.10 1.404
657.20 1.404
657.30 1.404
657.40 1.404
657.50 1.404
657.60 1.404
657.70 1.404
657.80 1.404
657.90 1.404
658.00 1.405
658.10 1.405
658.20 1.405
658.30 1.405
658.40 1.405
658.50 1.405
658.60 1.405
658.70 1.405
658.80 1.405
658.90 1.405
659.00 1.406
659.10 1.406
659.20 1.406
659.30 1.406
659.40 1.406
659.50 1.406
659.60 1.406
659.70 1.406
659.80 1.406
659.90 1.406
660.00 1.407
660.10 1.407
660.20 1.407
660.30 1.407
660.40 1.407
660.50 1.407
660.60 1.407
660.70 1.407
660.80 1.407
660.90 1.407
661.00 1.407
661.10 1.408
661.20 1.408
661.30 1.408
661.40 1.408
661.50 1.408
661.60 1.408
661.70 1.408
661.80 1.408
661.90 1.408
662.00 1.408
662.10 1.409
662.20 1.409
662.30 1.409
662.40 1.409
662.50 1.409
662.60 1.409
662.70 1.409
662.80 1.409
662.90 1.409
663.00 1.409
663.10 1.41
663.20 1.41
663.30 1.41
663.40 1.41
663.50 1.41
663.60 1.41
663.70 1.41
663.80 1.41
663.90 1.41
664.00 1.41
664.10 1.41
664.20 1.411
664.30 1.411
664.40 1.411
664.50 1.411
664.60 1.411
664.70 1.411
664.80 1.411
664.90 1.411
665.00 1.411
665.10 1.411
665.20 1.411
665.30 1.412
665.40 1.412
665.50 1.412
665.60 1.412
665.70 1.412
665.80 1.412
665.90 1.412
666.00 1.412
666.10 1.412
666.20 1.412
666.30 1.412
666.40 1.412
666.50 1.412
666.60 1.413
666.70 1.413
666.80 1.413
666.90 1.413
667.00 1.413
667.10 1.413
667.20 1.413
667.30 1.413
667.40 1.413
667.50 1.413
667.60 1.413
667.70 1.414
667.80 1.414
667.90 1.414
668.00 1.414
668.10 1.414
668.20 1.414
668.30 1.414
668.40 1.414
668.50 1.414
668.60 1.414
668.70 1.414
668.80 1.414
668.90 1.415
669.00 1.415
669.10 1.415
669.20 1.415
669.30 1.415
669.40 1.415
669.50 1.415
669.60 1.415
669.70 1.415
669.80 1.415
669.90 1.415
670.00 1.415
670.10 1.415
670.20 1.416
670.30 1.416
670.40 1.416
670.50 1.416
670.60 1.416
670.70 1.416
670.80 1.416
670.90 1.416
671.00 1.416
671.10 1.416
671.20 1.416
671.30 1.416
671.40 1.417
671.50 1.417
671.60 1.417
671.70 1.417
671.80 1.417
671.90 1.417
672.00 1.417
672.10 1.417
672.20 1.417
672.30 1.417
672.40 1.417
672.50 1.417
672.60 1.417
672.70 1.418
672.80 1.418
672.90 1.418
673.00 1.418
673.10 1.418
673.20 1.418
673.30 1.418
673.40 1.418
673.50 1.418
673.60 1.418
673.70 1.418
673.80 1.418
673.90 1.418
674.00 1.419
674.10 1.419
674.20 1.419
674.30 1.419
674.40 1.419
674.50 1.419
674.60 1.419
674.70 1.419
674.80 1.419
674.90 1.419
675.00 1.419
675.10 1.419
675.20 1.419
675.30 1.419
675.40 1.42
675.50 1.42
675.60 1.42
675.70 1.42
675.80 1.42
675.90 1.42
676.00 1.42
676.10 1.42
676.20 1.42
676.30 1.42
676.40 1.42
676.50 1.42
676.60 1.42
676.70 1.42
676.80 1.42
676.90 1.421
677.00 1.421
677.10 1.421
677.20 1.421
677.30 1.421
677.40 1.421
677.50 1.421
677.60 1.421
677.70 1.421
677.80 1.421
677.90 1.421
678.00 1.421
678.10 1.421
678.20 1.421
678.30 1.422
678.40 1.422
678.50 1.422
678.60 1.422
678.70 1.422
678.80 1.422
678.90 1.422
679.00 1.422
679.10 1.422
679.20 1.422
679.30 1.422
679.40 1.422
679.50 1.422
679.60 1.422
679.70 1.422
679.80 1.422
679.90 1.423
680.00 1.423
680.10 1.423
680.20 1.423
680.30 1.423
680.40 1.423
680.50 1.423
680.60 1.423
680.70 1.423
680.80 1.423
680.90 1.423
681.00 1.423
681.10 1.423
681.20 1.423
681.30 1.423
681.40 1.423
681.50 1.424
681.60 1.424
681.70 1.424
681.80 1.424
681.90 1.424
682.00 1.424
682.10 1.424
682.20 1.424
682.30 1.424
682.40 1.424
682.50 1.424
682.60 1.424
682.70 1.424
682.80 1.424
682.90 1.424
683.00 1.424
683.10 1.425
683.20 1.425
683.30 1.425
683.40 1.425
683.50 1.425
683.60 1.425
683.70 1.425
683.80 1.425
683.90 1.425
684.00 1.425
684.10 1.425
684.20 1.425
684.30 1.425
684.40 1.425
684.50 1.425
684.60 1.425
684.70 1.425
684.80 1.425
684.90 1.425
685.00 1.426
685.10 1.426
685.20 1.426
685.30 1.426
685.40 1.426
685.50 1.426
685.60 1.426
685.70 1.426
685.80 1.426
685.90 1.426
686.00 1.426
686.10 1.426
686.20 1.426
686.30 1.426
686.40 1.426
686.50 1.426
686.60 1.426
686.70 1.426
686.80 1.427
686.90 1.427
687.00 1.427
687.10 1.427
687.20 1.427
687.30 1.427
687.40 1.427
687.50 1.427
687.60 1.427
687.70 1.427
687.80 1.427
687.90 1.427
688.00 1.427
688.10 1.427
688.20 1.427
688.30 1.427
688.40 1.427
688.50 1.427
688.60 1.427
688.70 1.428
688.80 1.428
688.90 1.428
689.00 1.428
689.10 1.428
689.20 1.428
689.30 1.428
689.40 1.428
689.50 1.428
689.60 1.428
689.70 1.428
689.80 1.428
689.90 1.428
690.00 1.428
690.10 1.428
690.20 1.428
690.30 1.428
690.40 1.428
690.50 1.428
690.60 1.428
690.70 1.428
690.80 1.428
690.90 1.429
691.00 1.429
691.10 1.429
691.20 1.429
691.30 1.429
691.40 1.429
691.50 1.429
691.60 1.429
691.70 1.429
691.80 1.429
691.90 1.429
692.00 1.429
692.10 1.429
692.20 1.429
692.30 1.429
692.40 1.429
692.50 1.429
692.60 1.429
692.70 1.429
692.80 1.429
692.90 1.429
693.00 1.429
693.10 1.429
693.20 1.43
693.30 1.43
693.40 1.43
693.50 1.43
693.60 1.43
693.70 1.43
693.80 1.43
693.90 1.43
694.00 1.43
694.10 1.43
694.20 1.43
694.30 1.43
694.40 1.43
694.50 1.43
694.60 1.43
694.70 1.43
694.80 1.43
694.90 1.43
695.00 1.43
695.10 1.43
695.20 1.43
695.30 1.43
695.40 1.43
695.50 1.43
695.60 1.431
695.70 1.431
695.80 1.431
695.90 1.431
696.00 1.431
696.10 1.431
696.20 1.431
696.30 1.431
696.40 1.431
696.50 1.431
696.60 1.431
696.70 1.431
696.80 1.431
696.90 1.431
697.00 1.431
697.10 1.431
697.20 1.431
697.30 1.431
697.40 1.431
697.50 1.431
697.60 1.431
697.70 1.431
697.80 1.431
697.90 1.431
698.00 1.431
698.10 1.431
698.20 1.431
698.30 1.431
698.40 1.431
698.50 1.432
698.60 1.432
698.70 1.432
698.80 1.432
698.90 1.432
699.00 1.432
699.10 1.432
699.20 1.432
699.30 1.432
699.40 1.432
699.50 1.432
699.60 1.432
699.70 1.432
699.80 1.432
699.90 1.432
700.00 1.432
700.10 1.432
700.20 1.432
700.30 1.432
700.40 1.432
700.50 1.432
700.60 1.432
700.70 1.432
700.80 1.432
700.90 1.432
701.00 1.432
701.10 1.432
701.20 1.432
701.30 1.432
701.40 1.432
701.50 1.432
701.60 1.432
701.70 1.432
701.80 1.432
701.90 1.433
702.00 1.433
702.10 1.433
702.20 1.433
702.30 1.433
702.40 1.433
702.50 1.433
702.60 1.433
702.70 1.433
702.80 1.433
702.90 1.433
703.00 1.433
703.10 1.433
703.20 1.433
703.30 1.433
703.40 1.433
703.50 1.433
703.60 1.433
703.70 1.433
703.80 1.433
703.90 1.433
704.00 1.433
704.10 1.433
704.20 1.433
704.30 1.433
704.40 1.433
704.50 1.433
704.60 1.433
704.70 1.433
704.80 1.433
704.90 1.433
705.00 1.433
705.10 1.433
705.20 1.433
705.30 1.433
705.40 1.433
705.50 1.433
705.60 1.433
705.70 1.433
705.80 1.433
705.90 1.433
706.00 1.434
706.10 1.434
706.20 1.434
706.30 1.434
706.40 1.434
706.50 1.434
706.60 1.434
706.70 1.434
706.80 1.434
706.90 1.434
707.00 1.434
707.10 1.434
707.20 1.434
707.30 1.434
707.40 1.434
707.50 1.434
707.60 1.434
707.70 1.434
707.80 1.434
707.90 1.434
708.00 1.434
708.10 1.434
708.20 1.434
708.30 1.434
708.40 1.434
708.50 1.434
708.60 1.434
708.70 1.434
708.80 1.434
708.90 1.434
709.00 1.434
709.10 1.434
709.20 1.434
709.30 1.434
709.40 1.434
709.50 1.434
709.60 1.434
709.70 1.434
709.80 1.434
709.90 1.434
710.00 1.434
710.10 1.434
710.20 1.434
710.30 1.434
710.40 1.434
710.50 1.434
710.60 1.434
710.70 1.434
710.80 1.434
710.90 1.434
711.00 1.434
711.10 1.434
711.20 1.434
711.30 1.434
711.40 1.434
711.50 1.434
711.60 1.434
711.70 1.434
711.80 1.435
711.90 1.435
712.00 1.435
712.10 1.435
712.20 1.435
712.30 1.435
712.40 1.435
712.50 1.435
712.60 1.435
712.70 1.435
712.80 1.435
712.90 1.435
713.00 1.435
713.10 1.435
713.20 1.435
713.30 1.435
713.40 1.435
713.50 1.435
713.60 1.435
713.70 1.435
713.80 1.435
713.90 1.435
714.00 1.435
714.10 1.435
714.20 1.435
714.30 1.435
714.40 1.435
714.50 1.435
714.60 1.435
714.70 1.435
714.80 1.435
714.90 1.435
715.00 1.435
715.10 1.435
715.20 1.435
715.30 1.435
715.40 1.435
715.50 1.435
715.60 1.435
715.70 1.435
715.80 1.435
715.90 1.435
716.00 1.435
716.10 1.435
716.20 1.435
716.30 1.435
716.40 1.435
716.50 1.435
716.60 1.435
716.70 1.435
716.80 1.435
716.90 1.435
717.00 1.435
717.10 1.435
717.20 1.435
717.30 1.435
717.40 1.435
717.50 1.435
717.60 1.435
717.70 1.435
717.80 1.435
717.90 1.435
718.00 1.435
718.10 1.435
718.20 1.435
718.30 1.435
718.40 1.435
718.50 1.435
718.60 1.435
718.70 1.435
718.80 1.435
718.90 1.435
719.00 1.435
719.10 1.435
719.20 1.435
719.30 1.435
719.40 1.435
719.50 1.435
719.60 1.435
719.70 1.435
719.80 1.435
719.90 1.435
720.00 1.435
720.10 1.435
720.20 1.435
720.30 1.435
720.40 1.435
720.50 1.435
720.60 1.435
720.70 1.435
720.80 1.435
720.90 1.435
721.00 1.435
721.10 1.435
721.20 1.435
721.30 1.435
721.40 1.435
721.50 1.435
721.60 1.435
721.70 1.435
721.80 1.435
721.90 1.435
722.00 1.435
722.10 1.435
722.20 1.435
722.30 1.435
722.40 1.435
722.50 1.435
722.60 1.435
722.70 1.435
722.80 1.435
722.90 1.435
723.00 1.435
723.10 1.435
723.20 1.435
723.30 1.435
723.40 1.435
723.50 1.435
723.60 1.435
723.70 1.435
723.80 1.435
723.90 1.435
724.00 1.435
724.10 1.435
724.20 1.435
724.30 1.435
724.40 1.435
724.50 1.435
724.60 1.435
724.70 1.435
724.80 1.435
724.90 1.435
725.00 1.435
725.10 1.435
725.20 1.435
725.30 1.435
725.40 1.435
725.50 1.435
725.60 1.435
725.70 1.435
725.80 1.435
725.90 1.435
726.00 1.435
726.10 1.435
726.20 1.435
726.30 1.435
726.40 1.435
726.50 1.435
726.60 1.435
726.70 1.435
726.80 1.435
726.90 1.435
727.00 1.435
727.10 1.435
727.20 1.435
727.30 1.435
727.40 1.435
727.50 1.435
727.60 1.435
727.70 1.435
727.80 1.435
727.90 1.435
728.00 1.435
728.10 1.435
728.20 1.435
728.30 1.435
728.40 1.435
728.50 1.435
728.60 1.435
728.70 1.435
728.80 1.435
728.90 1.435
729.00 1.435
729.10 1.435
729.20 1.435
729.30 1.435
729.40 1.435
729.50 1.435
729.60 1.435
729.70 1.435
729.80 1.434
729.90 1.434
730.00 1.434
730.10 1.434
730.20 1.434
730.30 1.434
730.40 1.434
730.50 1.434
730.60 1.434
730.70 1.434
730.80 1.434
730.90 1.434
731.00 1.434
731.10 1.434
731.20 1.434
731.30 1.434
731.40 1.434
731.50 1.434
731.60 1.434
731.70 1.434
731.80 1.434
731.90 1.434
732.00 1.434
732.10 1.434
732.20 1.434
732.30 1.434
732.40 1.434
732.50 1.434
732.60 1.434
732.70 1.434
732.80 1.434
732.90 1.434
733.00 1.434
733.10 1.434
733.20 1.434
733.30 1.434
733.40 1.434
733.50 1.434
733.60 1.434
733.70 1.434
733.80 1.434
733.90 1.434
734.00 1.434
734.10 1.434
734.20 1.434
734.30 1.434
734.40 1.434
734.50 1.434
734.60 1.434
734.70 1.434
734.80 1.434
734.90 1.434
735.00 1.434
735.10 1.434
735.20 1.434
735.30 1.434
735.40 1.434
735.50 1.434
735.60 1.434
735.70 1.433
735.80 1.433
735.90 1.433
736.00 1.433
736.10 1.433
736.20 1.433
736.30 1.433
736.40 1.433
736.50 1.433
736.60 1.433
736.70 1.433
736.80 1.433
736.90 1.433
737.00 1.433
737.10 1.433
737.20 1.433
737.30 1.433
737.40 1.433
737.50 1.433
737.60 1.433
737.70 1.433
737.80 1.433
737.90 1.433
738.00 1.433
738.10 1.433
738.20 1.433
738.30 1.433
738.40 1.433
738.50 1.433
738.60 1.433
738.70 1.433
738.80 1.433
738.90 1.433
739.00 1.433
739.10 1.433
739.20 1.433
739.30 1.433
739.40 1.433
739.50 1.433
739.60 1.433
739.70 1.433
739.80 1.433
739.90 1.433
740.00 1.433
740.10 1.433
740.20 1.433
740.30 1.433
740.40 1.433
740.50 1.433
740.60 1.432
740.70 1.432
740.80 1.432
740.90 1.432
741.00 1.432
741.10 1.432
741.20 1.432
741.30 1.432
741.40 1.432
741.50 1.432
741.60 1.432
741.70 1.432
741.80 1.432
741.90 1.432
742.00 1.432
742.10 1.432
742.20 1.432
742.30 1.432
742.40 1.432
742.50 1.432
742.60 1.432
742.70 1.432
742.80 1.432
742.90 1.432
743.00 1.432
743.10 1.432
743.20 1.432
743.30 1.432
743.40 1.432
743.50 1.432
743.60 1.432
743.70 1.432
743.80 1.432
743.90 1.432
744.00 1.432
744.10 1.432
744.20 1.432
744.30 1.432
744.40 1.431
744.50 1.431
744.60 1.431
744.70 1.431
744.80 1.431
744.90 1.431
745.00 1.431
745.10 1.431
745.20 1.431
745.30 1.431
745.40 1.431
745.50 1.431
745.60 1.431
745.70 1.431
745.80 1.431
745.90 1.431
746.00 1.431
746.10 1.431
746.20 1.431
746.30 1.431
746.40 1.431
746.50 1.431
746.60 1.431
746.70 1.431
746.80 1.431
746.90 1.431
747.00 1.431
747.10 1.431
747.20 1.431
747.30 1.431
747.40 1.431
747.50 1.431
747.60 1.431
747.70 1.431
747.80 1.431
747.90 1.431
748.00 1.43
748.10 1.43
748.20 1.43
748.30 1.43
748.40 1.43
748.50 1.43
748.60 1.43
748.70 1.43
748.80 1.43
748.90 1.43
749.00 1.43
749.10 1.43
749.20 1.43
749.30 1.43
749.40 1.43
749.50 1.43
749.60 1.43
749.70 1.43
749.80 1.43
749.90 1.43
750.00 1.43
750.10 1.43
750.20 1.43
750.30 1.43
750.40 1.43
750.50 1.43
750.60 1.43
750.70 1.43
750.80 1.43
750.90 1.43
751.00 1.43
751.10 1.43
751.20 1.429
751.30 1.429
751.40 1.429
751.50 1.429
751.60 1.429
751.70 1.429
751.80 1.429
751.90 1.429
752.00 1.429
752.10 1.429
752.20 1.429
752.30 1.429
752.40 1.429
752.50 1.429
752.60 1.429
752.70 1.429
752.80 1.429
752.90 1.429
753.00 1.429
753.10 1.429
753.20 1.429
753.30 1.429
753.40 1.429
753.50 1.429
753.60 1.429
753.70 1.429
753.80 1.429
753.90 1.429
754.00 1.428
754.10 1.428
754.20 1.428
754.30 1.428
754.40 1.428
754.50 1.428
754.60 1.428
754.70 1.428
754.80 1.428
754.90 1.428
755.00 1.428
755.10 1.428
755.20 1.428
755.30 1.428
755.40 1.428
755.50 1.428
755.60 1.428
755.70 1.428
755.80 1.428
755.90 1.428
756.00 1.428
756.10 1.428
756.20 1.428
756.30 1.428
756.40 1.428
756.50 1.428
756.60 1.428
756.70 1.427
756.80 1.427
756.90 1.427
757.00 1.427
757.10 1.427
757.20 1.427
757.30 1.427
757.40 1.427
757.50 1.427
757.60 1.427
757.70 1.427
757.80 1.427
757.90 1.427
758.00 1.427
758.10 1.427
758.20 1.427
758.30 1.427
758.40 1.427
758.50 1.427
758.60 1.427
758.70 1.427
758.80 1.427
758.90 1.427
759.00 1.427
759.10 1.427
759.20 1.427
759.30 1.427
759.40 1.426
759.50 1.426
759.60 1.426
759.70 1.426
759.80 1.426
759.90 1.426
760.00 1.426
760.10 1.426
760.20 1.426
760.30 1.426
760.40 1.426
760.50 1.426
760.60 1.426
760.70 1.426
760.80 1.426
760.90 1.426
761.00 1.426
761.10 1.426
761.20 1.426
761.30 1.426
761.40 1.426
761.50 1.426
761.60 1.426
761.70 1.425
761.80 1.425
761.90 1.425
762.00 1.425
762.10 1.425
762.20 1.425
762.30 1.425
762.40 1.425
762.50 1.425
762.60 1.425
762.70 1.425
762.80 1.425
762.90 1.425
763.00 1.425
763.10 1.425
763.20 1.425
763.30 1.425
763.40 1.425
763.50 1.425
763.60 1.425
763.70 1.425
763.80 1.425
763.90 1.424
764.00 1.424
764.10 1.424
764.20 1.424
764.30 1.424
764.40 1.424
764.50 1.424
764.60 1.424
764.70 1.424
764.80 1.424
764.90 1.424
765.00 1.424
765.10 1.424
765.20 1.424
765.30 1.424
765.40 1.424
765.50 1.424
765.60 1.424
765.70 1.424
765.80 1.424
765.90 1.424
766.00 1.423
766.10 1.423
766.20 1.423
766.30 1.423
766.40 1.423
766.50 1.423
766.60 1.423
766.70 1.423
766.80 1.423
766.90 1.423
767.00 1.423
767.10 1.423
767.20 1.423
767.30 1.423
767.40 1.423
767.50 1.423
767.60 1.423
767.70 1.423
767.80 1.423
767.90 1.423
768.00 1.423
768.10 1.423
768.20 1.422
768.30 1.422
768.40 1.422
768.50 1.422
768.60 1.422
768.70 1.422
768.80 1.422
768.90 1.422
769.00 1.422
769.10 1.422
769.20 1.422
769.30 1.422
769.40 1.422
769.50 1.422
769.60 1.422
769.70 1.422
769.80 1.422
769.90 1.422
770.00 1.422
770.10 1.422
770.20 1.422
770.30 1.421
770.40 1.421
770.50 1.421
770.60 1.421
770.70 1.421
770.80 1.421
770.90 1.421
771.00 1.421
771.10 1.421
771.20 1.421
771.30 1.421
771.40 1.421
771.50 1.421
771.60 1.421
771.70 1.421
771.80 1.421
771.90 1.421
772.00 1.421
772.10 1.421
772.20 1.42
772.30 1.42
772.40 1.42
772.50 1.42
772.60 1.42
772.70 1.42
772.80 1.42
772.90 1.42
773.00 1.42
773.10 1.42
773.20 1.42
773.30 1.42
773.40 1.42
773.50 1.42
773.60 1.42
773.70 1.42
773.80 1.42
773.90 1.42
774.00 1.419
774.10 1.419
774.20 1.419
774.30 1.419
774.40 1.419
774.50 1.419
774.60 1.419
774.70 1.419
774.80 1.419
774.90 1.419
775.00 1.419
775.10 1.419
775.20 1.419
775.30 1.419
775.40 1.419
775.50 1.419
775.60 1.419
775.70 1.419
775.80 1.419
775.90 1.418
776.00 1.418
776.10 1.418
776.20 1.418
776.30 1.418
776.40 1.418
776.50 1.418
776.60 1.418
776.70 1.418
776.80 1.418
776.90 1.418
777.00 1.418
777.10 1.418
777.20 1.418
777.30 1.418
777.40 1.418
777.50 1.418
777.60 1.418
777.70 1.418
777.80 1.417
777.90 1.417
778.00 1.417
778.10 1.417
778.20 1.417
778.30 1.417
778.40 1.417
778.50 1.417
778.60 1.417
778.70 1.417
778.80 1.417
778.90 1.417
779.00 1.417
779.10 1.417
779.20 1.417
779.30 1.417
779.40 1.417
779.50 1.417
779.60 1.416
779.70 1.416
779.80 1.416
779.90 1.416
780.00 1.416
780.10 1.416
780.20 1.416
780.30 1.416
780.40 1.416
780.50 1.416
780.60 1.416
780.70 1.416
780.80 1.416
780.90 1.416
781.00 1.416
781.10 1.416
781.20 1.416
781.30 1.415
781.40 1.415
781.50 1.415
781.60 1.415
781.70 1.415
781.80 1.415
781.90 1.415
782.00 1.415
782.10 1.415
782.20 1.415
782.30 1.415
782.40 1.415
782.50 1.415
782.60 1.415
782.70 1.415
782.80 1.415
782.90 1.415
783.00 1.414
783.10 1.414
783.20 1.414
783.30 1.414
783.40 1.414
783.50 1.414
783.60 1.414
783.70 1.414
783.80 1.414
783.90 1.414
784.00 1.414
784.10 1.414
784.20 1.414
784.30 1.414
784.40 1.414
784.50 1.414
784.60 1.413
784.70 1.413
784.80 1.413
784.90 1.413
785.00 1.413
785.10 1.413
785.20 1.413
785.30 1.413
785.40 1.413
785.50 1.413
785.60 1.413
785.70 1.413
785.80 1.413
785.90 1.413
786.00 1.413
786.10 1.413
786.20 1.412
786.30 1.412
786.40 1.412
786.50 1.412
786.60 1.412
786.70 1.412
786.80 1.412
786.90 1.412
787.00 1.412
787.10 1.412
787.20 1.412
787.30 1.412
787.40 1.412
787.50 1.412
787.60 1.412
787.70 1.412
787.80 1.412
787.90 1.411
788.00 1.411
788.10 1.411
788.20 1.411
788.30 1.411
788.40 1.411
788.50 1.411
788.60 1.411
788.70 1.411
788.80 1.411
788.90 1.411
789.00 1.411
789.10 1.411
789.20 1.411
789.30 1.411
789.40 1.411
789.50 1.41
789.60 1.41
789.70 1.41
789.80 1.41
789.90 1.41
790.00 1.41
790.10 1.41
790.20 1.41
790.30 1.41
790.40 1.41
790.50 1.41
790.60 1.41
790.70 1.41
790.80 1.41
790.90 1.41
791.00 1.409
791.10 1.409
791.20 1.409
791.30 1.409
791.40 1.409
791.50 1.409
791.60 1.409
791.70 1.409
791.80 1.409
791.90 1.409
792.00 1.409
792.10 1.409
792.20 1.409
792.30 1.409
792.40 1.408
792.50 1.408
792.60 1.408
792.70 1.408
792.80 1.408
792.90 1.408
793.00 1.408
793.10 1.408
793.20 1.408
793.30 1.408
793.40 1.408
793.50 1.408
793.60 1.408
793.70 1.408
793.80 1.408
793.90 1.407
794.00 1.407
794.10 1.407
794.20 1.407
794.30 1.407
794.40 1.407
794.50 1.407
794.60 1.407
794.70 1.407
794.80 1.407
794.90 1.407
795.00 1.407
795.10 1.407
795.20 1.407
795.30 1.406
795.40 1.406
795.50 1.406
795.60 1.406
795.70 1.406
795.80 1.406
795.90 1.406
796.00 1.406
796.10 1.406
796.20 1.406
796.30 1.406
796.40 1.406
796.50 1.406
796.60 1.406
796.70 1.406
796.80 1.405
796.90 1.405
797.00 1.405
797.10 1.405
797.20 1.405
797.30 1.405
797.40 1.405
797.50 1.405
797.60 1.405
797.70 1.405
797.80 1.405
797.90 1.405
798.00 1.405
798.10 1.405
798.20 1.404
798.30 1.404
798.40 1.404
798.50 1.404
798.60 1.404
798.70 1.404
798.80 1.404
798.90 1.404
799.00 1.404
799.10 1.404
799.20 1.404
799.30 1.404
799.40 1.404
799.50 1.404
799.60 1.404
799.70 1.403
799.80 1.403
799.90 1.403
800.00 1.403
800.10 1.403
800.20 1.403
800.30 1.403
800.40 1.403
800.50 1.403
800.60 1.403
800.70 1.403
800.80 1.403
800.90 1.403
801.00 1.402
801.10 1.402
801.20 1.402
801.30 1.402
801.40 1.402
801.50 1.402
801.60 1.402
801.70 1.402
801.80 1.402
801.90 1.402
802.00 1.402
802.10 1.402
802.20 1.402
802.30 1.401
802.40 1.401
802.50 1.401
802.60 1.401
802.70 1.401
802.80 1.401
802.90 1.401
803.00 1.401
803.10 1.401
803.20 1.401
803.30 1.401
803.40 1.401
803.50 1.4
803.60 1.4
803.70 1.4
803.80 1.4
803.90 1.4
804.00 1.4
804.10 1.4
804.20 1.4
804.30 1.4
804.40 1.4
804.50 1.4
804.60 1.4
804.70 1.4
804.80 1.399
804.90 1.399
805.00 1.399
805.10 1.399
805.20 1.399
805.30 1.399
805.40 1.399
805.50 1.399
805.60 1.399
805.70 1.399
805.80 1.399
805.90 1.399
806.00 1.399
806.10 1.398
806.20 1.398
806.30 1.398
806.40 1.398
806.50 1.398
806.60 1.398
806.70 1.398
806.80 1.398
806.90 1.398
807.00 1.398
807.10 1.398
807.20 1.398
807.30 1.398
807.40 1.397
807.50 1.397
807.60 1.397
807.70 1.397
807.80 1.397
807.90 1.397
808.00 1.397
808.10 1.397
808.20 1.397
808.30 1.397
808.40 1.397
808.50 1.397
808.60 1.396
808.70 1.396
808.80 1.396
808.90 1.396
809.00 1.396
809.10 1.396
809.20 1.396
809.30 1.396
809.40 1.396
809.50 1.396
809.60 1.396
809.70 1.396
809.80 1.396
809.90 1.395
810.00 1.395
810.10 1.395
810.20 1.395
810.30 1.395
810.40 1.395
810.50 1.395
810.60 1.395
810.70 1.395
810.80 1.395
810.90 1.395
811.00 1.395
811.10 1.394
811.20 1.394
811.30 1.394
811.40 1.394
811.50 1.394
811.60 1.394
811.70 1.394
811.80 1.394
811.90 1.394
812.00 1.394
812.10 1.394
812.20 1.393
812.30 1.393
812.40 1.393
812.50 1.393
812.60 1.393
812.70 1.393
812.80 1.393
812.90 1.393
813.00 1.393
813.10 1.393
813.20 1.393
813.30 1.393
813.40 1.392
813.50 1.392
813.60 1.392
813.70 1.392
813.80 1.392
813.90 1.392
814.00 1.392
814.10 1.392
814.20 1.392
814.30 1.392
814.40 1.392
814.50 1.391
814.60 1.391
814.70 1.391
814.80 1.391
814.90 1.391
815.00 1.391
815.10 1.391
815.20 1.391
815.30 1.391
815.40 1.391
815.50 1.391
815.60 1.391
815.70 1.39
815.80 1.39
815.90 1.39
816.00 1.39
816.10 1.39
816.20 1.39
816.30 1.39
816.40 1.39
816.50 1.39
816.60 1.39
816.70 1.39
816.80 1.389
816.90 1.389
817.00 1.389
817.10 1.389
817.20 1.389
817.30 1.389
817.40 1.389
817.50 1.389
817.60 1.389
817.70 1.389
817.80 1.389
817.90 1.389
818.00 1.388
818.10 1.388
818.20 1.388
818.30 1.388
818.40 1.388
818.50 1.388
818.60 1.388
818.70 1.388
818.80 1.388
818.90 1.388
819.00 1.388
819.10 1.387
819.20 1.387
819.30 1.387
819.40 1.387
819.50 1.387
819.60 1.387
819.70 1.387
819.80 1.387
819.90 1.387
820.00 1.387
820.10 1.387
820.20 1.386
820.30 1.386
820.40 1.386
820.50 1.386
820.60 1.386
820.70 1.386
820.80 1.386
820.90 1.386
821.00 1.386
821.10 1.386
821.20 1.386
821.30 1.386
821.40 1.385
821.50 1.385
821.60 1.385
821.70 1.385
821.80 1.385
821.90 1.385
822.00 1.385
822.10 1.385
822.20 1.385
822.30 1.385
822.40 1.384
822.50 1.384
822.60 1.384
822.70 1.384
822.80 1.384
822.90 1.384
823.00 1.384
823.10 1.384
823.20 1.384
823.30 1.384
823.40 1.384
823.50 1.383
823.60 1.383
823.70 1.383
823.80 1.383
823.90 1.383
824.00 1.383
824.10 1.383
824.20 1.383
824.30 1.383
824.40 1.383
824.50 1.382
824.60 1.382
824.70 1.382
824.80 1.382
824.90 1.382
825.00 1.382
825.10 1.382
825.20 1.382
825.30 1.382
825.40 1.382
825.50 1.382
825.60 1.381
825.70 1.381
825.80 1.381
825.90 1.381
826.00 1.381
826.10 1.381
826.20 1.381
826.30 1.381
826.40 1.381
826.50 1.381
826.60 1.38
826.70 1.38
826.80 1.38
826.90 1.38
827.00 1.38
827.10 1.38
827.20 1.38
827.30 1.38
827.40 1.38
827.50 1.38
827.60 1.38
827.70 1.379
827.80 1.379
827.90 1.379
828.00 1.379
828.10 1.379
828.20 1.379
828.30 1.379
828.40 1.379
828.50 1.379
828.60 1.379
828.70 1.378
828.80 1.378
828.90 1.378
829.00 1.378
829.10 1.378
829.20 1.378
829.30 1.378
829.40 1.378
829.50 1.378
829.60 1.378
829.70 1.377
829.80 1.377
829.90 1.377
830.00 1.377
830.10 1.377
830.20 1.377
830.30 1.377
830.40 1.377
830.50 1.377
830.60 1.377
830.70 1.376
830.80 1.376
830.90 1.376
831.00 1.376
831.10 1.376
831.20 1.376
831.30 1.376
831.40 1.376
831.50 1.376
831.60 1.376
831.70 1.375
831.80 1.375
831.90 1.375
832.00 1.375
832.10 1.375
832.20 1.375
832.30 1.375
832.40 1.375
832.50 1.375
832.60 1.375
832.70 1.374
832.80 1.374
832.90 1.374
833.00 1.374
833.10 1.374
833.20 1.374
833.30 1.374
833.40 1.374
833.50 1.374
833.60 1.374
833.70 1.373
833.80 1.373
833.90 1.373
834.00 1.373
834.10 1.373
834.20 1.373
834.30 1.373
834.40 1.373
834.50 1.373
834.60 1.373
834.70 1.372
834.80 1.372
834.90 1.372
835.00 1.372
835.10 1.372
835.20 1.372
835.30 1.372
835.40 1.372
835.50 1.372
835.60 1.371
835.70 1.371
835.80 1.371
835.90 1.371
836.00 1.371
836.10 1.371
836.20 1.371
836.30 1.371
836.40 1.371
836.50 1.371
836.60 1.37
836.70 1.37
836.80 1.37
836.90 1.37
837.00 1.37
837.10 1.37
837.20 1.37
837.30 1.37
837.40 1.37
837.50 1.37
837.60 1.369
837.70 1.369
837.80 1.369
837.90 1.369
838.00 1.369
838.10 1.369
838.20 1.369
838.30 1.369
838.40 1.369
838.50 1.368
838.60 1.368
838.70 1.368
838.80 1.368
838.90 1.368
839.00 1.368
839.10 1.368
839.20 1.368
839.30 1.368
839.40 1.367
839.50 1.367
839.60 1.367
839.70 1.367
839.80 1.367
839.90 1.367
840.00 1.367
840.10 1.367
840.20 1.367
840.30 1.367
840.40 1.366
840.50 1.366
840.60 1.366
840.70 1.366
840.80 1.366
840.90 1.366
841.00 1.366
841.10 1.366
841.20 1.366
841.30 1.365
841.40 1.365
841.50 1.365
841.60 1.365
841.70 1.365
841.80 1.365
841.90 1.365
842.00 1.365
842.10 1.365
842.20 1.364
842.30 1.364
842.40 1.364
842.50 1.364
842.60 1.364
842.70 1.364
842.80 1.364
842.90 1.364
843.00 1.364
843.10 1.363
843.20 1.363
843.30 1.363
843.40 1.363
843.50 1.363
843.60 1.363
843.70 1.363
843.80 1.363
843.90 1.363
844.00 1.362
844.10 1.362
844.20 1.362
844.30 1.362
844.40 1.362
844.50 1.362
844.60 1.362
844.70 1.362
844.80 1.362
844.90 1.362
845.00 1.361
845.10 1.361
845.20 1.361
845.30 1.361
845.40 1.361
845.50 1.361
845.60 1.361
845.70 1.361
845.80 1.361
845.90 1.36
846.00 1.36
846.10 1.36
846.20 1.36
846.30 1.36
846.40 1.36
846.50 1.36
846.60 1.36
846.70 1.36
846.80 1.359
846.90 1.359
847.00 1.359
847.10 1.359
847.20 1.359
847.30 1.359
847.40 1.359
847.50 1.359
847.60 1.359
847.70 1.358
847.80 1.358
847.90 1.358
848.00 1.358
848.10 1.358
848.20 1.358
848.30 1.358
848.40 1.358
848.50 1.358
848.60 1.357
848.70 1.357
848.80 1.357
848.90 1.357
849.00 1.357
849.10 1.357
849.20 1.357
849.30 1.357
849.40 1.356
849.50 1.356
849.60 1.356
849.70 1.356
849.80 1.356
849.90 1.356
850.00 1.356
850.10 1.356
850.20 1.356
850.30 1.355
850.40 1.355
850.50 1.355
850.60 1.355
850.70 1.355
850.80 1.355
850.90 1.355
851.00 1.355
851.10 1.355
851.20 1.354
851.30 1.354
851.40 1.354
851.50 1.354
851.60 1.354
851.70 1.354
851.80 1.354
851.90 1.354
852.00 1.354
852.10 1.353
852.20 1.353
852.30 1.353
852.40 1.353
852.50 1.353
852.60 1.353
852.70 1.353
852.80 1.353
852.90 1.352
853.00 1.352
853.10 1.352
853.20 1.352
853.30 1.352
853.40 1.352
853.50 1.352
853.60 1.352
853.70 1.352
853.80 1.351
853.90 1.351
854.00 1.351
854.10 1.351
854.20 1.351
854.30 1.351
854.40 1.351
854.50 1.351
854.60 1.351
854.70 1.35
854.80 1.35
854.90 1.35
855.00 1.35
855.10 1.35
855.20 1.35
855.30 1.35
855.40 1.35
855.50 1.349
855.60 1.349
855.70 1.349
855.80 1.349
855.90 1.349
856.00 1.349
856.10 1.349
856.20 1.349
856.30 1.349
856.40 1.348
856.50 1.348
856.60 1.348
856.70 1.348
856.80 1.348
856.90 1.348
857.00 1.348
857.10 1.348
857.20 1.348
857.30 1.347
857.40 1.347
857.50 1.347
857.60 1.347
857.70 1.347
857.80 1.347
857.90 1.347
858.00 1.347
858.10 1.346
858.20 1.346
858.30 1.346
858.40 1.346
858.50 1.346
858.60 1.346
858.70 1.346
858.80 1.346
858.90 1.345
859.00 1.345
859.10 1.345
859.20 1.345
859.30 1.345
859.40 1.345
859.50 1.345
859.60 1.345
859.70 1.345
859.80 1.344
859.90 1.344
860.00 1.344
860.10 1.344
860.20 1.344
860.30 1.344
860.40 1.344
860.50 1.344
860.60 1.343
860.70 1.343
860.80 1.343
860.90 1.343
861.00 1.343
861.10 1.343
861.20 1.343
861.30 1.343
861.40 1.343
861.50 1.342
861.60 1.342
861.70 1.342
861.80 1.342
861.90 1.342
862.00 1.342
862.10 1.342
862.20 1.342
862.30 1.341
862.40 1.341
862.50 1.341
862.60 1.341
862.70 1.341
862.80 1.341
862.90 1.341
863.00 1.341
863.10 1.34
863.20 1.34
863.30 1.34
863.40 1.34
863.50 1.34
863.60 1.34
863.70 1.34
863.80 1.34
863.90 1.339
864.00 1.339
864.10 1.339
864.20 1.339
864.30 1.339
864.40 1.339
864.50 1.339
864.60 1.339
864.70 1.338
864.80 1.338
864.90 1.338
865.00 1.338
865.10 1.338
865.20 1.338
865.30 1.338
865.40 1.338
865.50 1.337
865.60 1.337
865.70 1.337
865.80 1.337
865.90 1.337
866.00 1.337
866.10 1.337
866.20 1.337
866.30 1.336
866.40 1.336
866.50 1.336
866.60 1.336
866.70 1.336
866.80 1.336
866.90 1.336
867.00 1.336
867.10 1.335
867.20 1.335
867.30 1.335
867.40 1.335
867.50 1.335
867.60 1.335
867.70 1.335
867.80 1.335
867.90 1.334
868.00 1.334
868.10 1.334
868.20 1.334
868.30 1.334
868.40 1.334
868.50 1.334
868.60 1.334
868.70 1.333
868.80 1.333
868.90 1.333
869.00 1.333
869.10 1.333
869.20 1.333
869.30 1.333
869.40 1.333
869.50 1.332
869.60 1.332
869.70 1.332
869.80 1.332
869.90 1.332
870.00 1.332
870.10 1.332
870.20 1.332
870.30 1.331
870.40 1.331
870.50 1.331
870.60 1.331
870.70 1.331
870.80 1.331
870.90 1.331
871.00 1.331
871.10 1.33
871.20 1.33
871.30 1.33
871.40 1.33
871.50 1.33
871.60 1.33
871.70 1.33
871.80 1.33
871.90 1.329
872.00 1.329
872.10 1.329
872.20 1.329
872.30 1.329
872.40 1.329
872.50 1.329
872.60 1.329
872.70 1.328
872.80 1.328
872.90 1.328
873.00 1.328
873.10 1.328
873.20 1.328
873.30 1.328
873.40 1.327
873.50 1.327
873.60 1.327
873.70 1.327
873.80 1.327
873.90 1.327
874.00 1.327
874.10 1.327
874.20 1.326
874.30 1.326
874.40 1.326
874.50 1.326
874.60 1.326
874.70 1.326
874.80 1.326
874.90 1.326
875.00 1.325
875.10 1.325
875.20 1.325
875.30 1.325
875.40 1.325
875.50 1.325
875.60 1.325
875.70 1.324
875.80 1.324
875.90 1.324
876.00 1.324
876.10 1.324
876.20 1.324
876.30 1.324
876.40 1.324
876.50 1.323
876.60 1.323
876.70 1.323
876.80 1.323
876.90 1.323
877.00 1.323
877.10 1.323
877.20 1.322
877.30 1.322
877.40 1.322
877.50 1.322
877.60 1.322
877.70 1.322
877.80 1.322
877.90 1.322
878.00 1.321
878.10 1.321
878.20 1.321
878.30 1.321
878.40 1.321
878.50 1.321
878.60 1.321
878.70 1.32
878.80 1.32
878.90 1.32
879.00 1.32
879.10 1.32
879.20 1.32
879.30 1.32
879.40 1.32
879.50 1.319
879.60 1.319
879.70 1.319
879.80 1.319
879.90 1.319
880.00 1.319
880.10 1.319
880.20 1.318
880.30 1.318
880.40 1.318
880.50 1.318
880.60 1.318
880.70 1.318
880.80 1.318
880.90 1.318
881.00 1.317
881.10 1.317
881.20 1.317
881.30 1.317
881.40 1.317
881.50 1.317
881.60 1.317
881.70 1.316
881.80 1.316
881.90 1.316
882.00 1.316
882.10 1.316
882.20 1.316
882.30 1.316
882.40 1.316
882.50 1.315
882.60 1.315
882.70 1.315
882.80 1.315
882.90 1.315
883.00 1.315
883.10 1.315
883.20 1.314
883.30 1.314
883.40 1.314
883.50 1.314
883.60 1.314
883.70 1.314
883.80 1.314
883.90 1.313
884.00 1.313
884.10 1.313
884.20 1.313
884.30 1.313
884.40 1.313
884.50 1.313
884.60 1.312
884.70 1.312
884.80 1.312
884.90 1.312
885.00 1.312
885.10 1.312
885.20 1.312
885.30 1.312
885.40 1.311
885.50 1.311
885.60 1.311
885.70 1.311
885.80 1.311
885.90 1.311
886.00 1.311
886.10 1.31
886.20 1.31
886.30 1.31
886.40 1.31
886.50 1.31
886.60 1.31
886.70 1.31
886.80 1.309
886.90 1.309
887.00 1.309
887.10 1.309
887.20 1.309
887.30 1.309
887.40 1.309
887.50 1.308
887.60 1.308
887.70 1.308
887.80 1.308
887.90 1.308
888.00 1.308
888.10 1.308
888.20 1.307
888.30 1.307
888.40 1.307
888.50 1.307
888.60 1.307
888.70 1.307
888.80 1.307
888.90 1.306
889.00 1.306
889.10 1.306
889.20 1.306
889.30 1.306
889.40 1.306
889.50 1.306
889.60 1.305
889.70 1.305
889.80 1.305
889.90 1.305
890.00 1.305
890.10 1.305
890.20 1.305
890.30 1.304
890.40 1.304
890.50 1.304
890.60 1.304
890.70 1.304
890.80 1.304
890.90 1.304
891.00 1.303
891.10 1.303
891.20 1.303
891.30 1.303
891.40 1.303
891.50 1.303
891.60 1.303
891.70 1.302
891.80 1.302
891.90 1.302
892.00 1.302
892.10 1.302
892.20 1.302
892.30 1.302
892.40 1.301
892.50 1.301
892.60 1.301
892.70 1.301
892.80 1.301
892.90 1.301
893.00 1.301
893.10 1.3
893.20 1.3
893.30 1.3
893.40 1.3
893.50 1.3
893.60 1.3
893.70 1.3
893.80 1.299
893.90 1.299
894.00 1.299
894.10 1.299
894.20 1.299
894.30 1.299
894.40 1.299
894.50 1.298
894.60 1.298
894.70 1.298
894.80 1.298
894.90 1.298
895.00 1.298
895.10 1.298
895.20 1.298
895.30 1.297
895.40 1.297
895.50 1.297
895.60 1.297
895.70 1.297
895.80 1.297
895.90 1.297
896.00 1.296
896.10 1.296
896.20 1.296
896.30 1.296
896.40 1.296
896.50 1.296
896.60 1.296
896.70 1.295
896.80 1.295
896.90 1.295
897.00 1.295
897.10 1.295
897.20 1.295
897.30 1.295
897.40 1.294
897.50 1.294
897.60 1.294
897.70 1.294
897.80 1.294
897.90 1.294
898.00 1.293
898.10 1.293
898.20 1.293
898.30 1.293
898.40 1.293
898.50 1.293
898.60 1.293
898.70 1.292
898.80 1.292
898.90 1.292
899.00 1.292
899.10 1.292
899.20 1.292
899.30 1.291
899.40 1.291
899.50 1.291
899.60 1.291
899.70 1.291
899.80 1.291
899.90 1.291
900.00 1.29
900.10 1.29
900.20 1.29
900.30 1.29
900.40 1.29
900.50 1.29
900.60 1.289
900.70 1.289
900.80 1.289
900.90 1.289
901.00 1.289
901.10 1.289
901.20 1.289
901.30 1.288
901.40 1.288
901.50 1.288
901.60 1.288
901.70 1.288
901.80 1.288
901.90 1.287
902.00 1.287
902.10 1.287
902.20 1.287
902.30 1.287
902.40 1.287
902.50 1.286
902.60 1.286
902.70 1.286
902.80 1.286
902.90 1.286
903.00 1.286
903.10 1.285
903.20 1.285
903.30 1.285
903.40 1.285
903.50 1.285
903.60 1.285
903.70 1.284
903.80 1.284
903.90 1.284
904.00 1.284
904.10 1.284
904.20 1.284
904.30 1.283
904.40 1.283
904.50 1.283
904.60 1.283
904.70 1.283
904.80 1.283
904.90 1.282
905.00 1.282
905.10 1.282
905.20 1.282
905.30 1.282
905.40 1.281
905.50 1.281
905.60 1.281
905.70 1.281
905.80 1.281
905.90 1.281
906.00 1.28
906.10 1.28
906.20 1.28
906.30 1.28
906.40 1.28
906.50 1.28
906.60 1.279
906.70 1.279
906.80 1.279
906.90 1.279
907.00 1.279
907.10 1.279
907.20 1.278
907.30 1.278
907.40 1.278
907.50 1.278
907.60 1.278
907.70 1.278
907.80 1.277
907.90 1.277
908.00 1.277
908.10 1.277
908.20 1.277
908.30 1.277
908.40 1.276
908.50 1.276
908.60 1.276
908.70 1.276
908.80 1.276
908.90 1.276
909.00 1.275
909.10 1.275
909.20 1.275
909.30 1.275
909.40 1.275
909.50 1.275
909.60 1.274
909.70 1.274
909.80 1.274
909.90 1.274
910.00 1.274
910.10 1.274
910.20 1.273
910.30 1.273
910.40 1.273
910.50 1.273
910.60 1.273
910.70 1.273
910.80 1.272
910.90 1.272
911.00 1.272
911.10 1.272
911.20 1.272
911.30 1.272
911.40 1.271
911.50 1.271
911.60 1.271
911.70 1.271
911.80 1.271
911.90 1.271
912.00 1.27
912.10 1.27
912.20 1.27
912.30 1.27
912.40 1.27
912.50 1.27
912.60 1.269
912.70 1.269
912.80 1.269
912.90 1.269
913.00 1.269
913.10 1.269
913.20 1.268
913.30 1.268
913.40 1.268
913.50 1.268
913.60 1.268
913.70 1.268
913.80 1.268
913.90 1.267
914.00 1.267
914.10 1.267
914.20 1.267
914.30 1.267
914.40 1.267
914.50 1.266
914.60 1.266
914.70 1.266
914.80 1.266
914.90 1.266
915.00 1.266
915.10 1.265
915.20 1.265
915.30 1.265
915.40 1.265
915.50 1.265
915.60 1.265
915.70 1.264
915.80 1.264
915.90 1.264
916.00 1.264
916.10 1.264
916.20 1.264
916.30 1.264
916.40 1.263
916.50 1.263
916.60 1.263
916.70 1.263
916.80 1.263
916.90 1.263
917.00 1.262
917.10 1.262
917.20 1.262
917.30 1.262
917.40 1.262
917.50 1.262
917.60 1.261
917.70 1.261
917.80 1.261
917.90 1.261
918.00 1.261
918.10 1.261
918.20 1.26
918.30 1.26
918.40 1.26
918.50 1.26
918.60 1.26
918.70 1.259
918.80 1.259
918.90 1.259
919.00 1.259
919.10 1.259
919.20 1.259
919.30 1.258
919.40 1.258
919.50 1.258
919.60 1.258
919.70 1.258
919.80 1.258
919.90 1.257
920.00 1.257
920.10 1.257
920.20 1.257
920.30 1.257
920.40 1.257
920.50 1.256
920.60 1.256
920.70 1.256
920.80 1.256
920.90 1.256
921.00 1.256
921.10 1.255
921.20 1.255
921.30 1.255
921.40 1.255
921.50 1.255
921.60 1.255
921.70 1.254
921.80 1.254
921.90 1.254
922.00 1.254
922.10 1.254
922.20 1.254
922.30 1.253
922.40 1.253
922.50 1.253
922.60 1.253
922.70 1.253
922.80 1.252
922.90 1.252
923.00 1.252
923.10 1.252
923.20 1.252
923.30 1.252
923.40 1.251
923.50 1.251
923.60 1.251
923.70 1.251
923.80 1.251
923.90 1.251
924.00 1.25
924.10 1.25
924.20 1.25
924.30 1.25
924.40 1.25
924.50 1.249
924.60 1.249
924.70 1.249
924.80 1.249
924.90 1.249
925.00 1.249
925.10 1.248
925.20 1.248
925.30 1.248
925.40 1.248
925.50 1.248
925.60 1.248
925.70 1.247
925.80 1.247
925.90 1.247
926.00 1.247
926.10 1.247
926.20 1.247
926.30 1.246
926.40 1.246
926.50 1.246
926.60 1.246
926.70 1.246
926.80 1.245
926.90 1.245
927.00 1.245
927.10 1.245
927.20 1.245
927.30 1.245
927.40 1.244
927.50 1.244
927.60 1.244
927.70 1.244
927.80 1.244
927.90 1.244
928.00 1.243
928.10 1.243
928.20 1.243
928.30 1.243
928.40 1.243
928.50 1.242
928.60 1.242
928.70 1.242
928.80 1.242
928.90 1.242
929.00 1.242
929.10 1.241
929.20 1.241
929.30 1.241
929.40 1.241
929.50 1.241
929.60 1.24
929.70 1.24
929.80 1.24
929.90 1.24
930.00 1.24
930.10 1.24
930.20 1.239
930.30 1.239
930.40 1.239
930.50 1.239
930.60 1.239
930.70 1.238
930.80 1.238
930.90 1.238
931.00 1.238
931.10 1.238
931.20 1.238
931.30 1.237
931.40 1.237
931.50 1.237
931.60 1.237
931.70 1.237
931.80 1.237
931.90 1.236
932.00 1.236
932.10 1.236
932.20 1.236
932.30 1.236
932.40 1.235
932.50 1.235
932.60 1.235
932.70 1.235
932.80 1.235
932.90 1.235
933.00 1.234
933.10 1.234
933.20 1.234
933.30 1.234
933.40 1.234
933.50 1.233
933.60 1.233
933.70 1.233
933.80 1.233
933.90 1.233
934.00 1.233
934.10 1.232
934.20 1.232
934.30 1.232
934.40 1.232
934.50 1.232
934.60 1.231
934.70 1.231
934.80 1.231
934.90 1.231
935.00 1.231
935.10 1.23
935.20 1.23
935.30 1.23
935.40 1.23
935.50 1.23
935.60 1.23
935.70 1.229
935.80 1.229
935.90 1.229
936.00 1.229
936.10 1.229
936.20 1.228
936.30 1.228
936.40 1.228
936.50 1.228
936.60 1.228
936.70 1.228
936.80 1.227
936.90 1.227
937.00 1.227
937.10 1.227
937.20 1.227
937.30 1.226
937.40 1.226
937.50 1.226
937.60 1.226
937.70 1.226
937.80 1.225
937.90 1.225
938.00 1.225
938.10 1.225
938.20 1.225
938.30 1.225
938.40 1.224
938.50 1.224
938.60 1.224
938.70 1.224
938.80 1.224
938.90 1.223
939.00 1.223
939.10 1.223
939.20 1.223
939.30 1.223
939.40 1.222
939.50 1.222
939.60 1.222
939.70 1.222
939.80 1.222
939.90 1.222
940.00 1.221
940.10 1.221
940.20 1.221
940.30 1.221
940.40 1.221
940.50 1.22
940.60 1.22
940.70 1.22
940.80 1.22
940.90 1.22
941.00 1.219
941.10 1.219
941.20 1.219
941.30 1.219
941.40 1.219
941.50 1.218
941.60 1.218
941.70 1.218
941.80 1.218
941.90 1.218
942.00 1.217
942.10 1.217
942.20 1.217
942.30 1.217
942.40 1.217
942.50 1.217
942.60 1.216
942.70 1.216
942.80 1.216
942.90 1.216
943.00 1.216
943.10 1.215
943.20 1.215
943.30 1.215
943.40 1.215
943.50 1.215
943.60 1.214
943.70 1.214
943.80 1.214
943.90 1.214
944.00 1.214
944.10 1.213
944.20 1.213
944.30 1.213
944.40 1.213
944.50 1.213
944.60 1.212
944.70 1.212
944.80 1.212
944.90 1.212
945.00 1.212
945.10 1.212
945.20 1.211
945.30 1.211
945.40 1.211
945.50 1.211
945.60 1.211
945.70 1.21
945.80 1.21
945.90 1.21
946.00 1.21
946.10 1.21
946.20 1.209
946.30 1.209
946.40 1.209
946.50 1.209
946.60 1.209
946.70 1.208
946.80 1.208
946.90 1.208
947.00 1.208
947.10 1.208
947.20 1.207
947.30 1.207
947.40 1.207
947.50 1.207
947.60 1.207
947.70 1.206
947.80 1.206
947.90 1.206
948.00 1.206
948.10 1.206
948.20 1.205
948.30 1.205
948.40 1.205
948.50 1.205
948.60 1.205
948.70 1.204
948.80 1.204
948.90 1.204
949.00 1.204
949.10 1.204
949.20 1.203
949.30 1.203
949.40 1.203
949.50 1.203
949.60 1.203
949.70 1.202
949.80 1.202
949.90 1.202
950.00 1.202
950.10 1.202
950.20 1.201
950.30 1.201
950.40 1.201
950.50 1.201
950.60 1.201
950.70 1.2
950.80 1.2
950.90 1.2
951.00 1.2
951.10 1.2
951.20 1.199
951.30 1.199
951.40 1.199
951.50 1.199
951.60 1.199
951.70 1.198
951.80 1.198
951.90 1.198
952.00 1.198
952.10 1.198
952.20 1.197
952.30 1.197
952.40 1.197
952.50 1.197
952.60 1.197
952.70 1.196
952.80 1.196
952.90 1.196
953.00 1.196
953.10 1.196
953.20 1.195
953.30 1.195
953.40 1.195
953.50 1.195
953.60 1.195
953.70 1.194
953.80 1.194
953.90 1.194
954.00 1.194
954.10 1.194
954.20 1.193
954.30 1.193
954.40 1.193
954.50 1.193
954.60 1.193
954.70 1.192
954.80 1.192
954.90 1.192
955.00 1.192
955.10 1.192
955.20 1.191
955.30 1.191
955.40 1.191
955.50 1.191
955.60 1.191
955.70 1.19
955.80 1.19
955.90 1.19
956.00 1.19
956.10 1.19
956.20 1.189
956.30 1.189
956.40 1.189
956.50 1.189
956.60 1.189
956.70 1.188
956.80 1.188
956.90 1.188
957.00 1.188
957.10 1.188
957.20 1.187
957.30 1.187
957.40 1.187
957.50 1.187
957.60 1.187
957.70 1.186
957.80 1.186
957.90 1.186
958.00 1.186
958.10 1.185
958.20 1.185
958.30 1.185
958.40 1.185
958.50 1.185
958.60 1.184
958.70 1.184
958.80 1.184
958.90 1.184
959.00 1.184
959.10 1.183
959.20 1.183
959.30 1.183
959.40 1.183
959.50 1.183
959.60 1.182
959.70 1.182
959.80 1.182
959.90 1.182
960.00 1.182
960.10 1.181
960.20 1.181
960.30 1.181
960.40 1.181
960.50 1.181
960.60 1.18
960.70 1.18
960.80 1.18
960.90 1.18
961.00 1.18
961.10 1.179
961.20 1.179
961.30 1.179
961.40 1.179
961.50 1.178
961.60 1.178
961.70 1.178
961.80 1.178
961.90 1.178
962.00 1.177
962.10 1.177
962.20 1.177
962.30 1.177
962.40 1.177
962.50 1.176
962.60 1.176
962.70 1.176
962.80 1.176
962.90 1.176
963.00 1.175
963.10 1.175
963.20 1.175
963.30 1.175
963.40 1.175
963.50 1.174
963.60 1.174
963.70 1.174
963.80 1.174
963.90 1.173
964.00 1.173
964.10 1.173
964.20 1.173
964.30 1.173
964.40 1.172
964.50 1.172
964.60 1.172
964.70 1.172
964.80 1.172
964.90 1.171
965.00 1.171
965.10 1.171
965.20 1.171
965.30 1.171
965.40 1.17
965.50 1.17
965.60 1.17
965.70 1.17
965.80 1.169
965.90 1.169
966.00 1.169
966.10 1.169
966.20 1.169
966.30 1.168
966.40 1.168
966.50 1.168
966.60 1.168
966.70 1.168
966.80 1.167
966.90 1.167
967.00 1.167
967.10 1.167
967.20 1.167
967.30 1.166
967.40 1.166
967.50 1.166
967.60 1.166
967.70 1.165
967.80 1.165
967.90 1.165
968.00 1.165
968.10 1.165
968.20 1.164
968.30 1.164
968.40 1.164
968.50 1.164
968.60 1.164
968.70 1.163
968.80 1.163
968.90 1.163
969.00 1.163
969.10 1.162
969.20 1.162
969.30 1.162
969.40 1.162
969.50 1.162
969.60 1.161
969.70 1.161
969.80 1.161
969.90 1.161
970.00 1.161
970.10 1.16
970.20 1.16
970.30 1.16
970.40 1.16
970.50 1.16
970.60 1.159
970.70 1.159
970.80 1.159
970.90 1.159
971.00 1.158
971.10 1.158
971.20 1.158
971.30 1.158
971.40 1.158
971.50 1.157
971.60 1.157
971.70 1.157
971.80 1.157
971.90 1.157
972.00 1.156
972.10 1.156
972.20 1.156
972.30 1.156
972.40 1.156
972.50 1.155
972.60 1.155
972.70 1.155
972.80 1.155
972.90 1.154
973.00 1.154
973.10 1.154
973.20 1.154
973.30 1.154
973.40 1.153
973.50 1.153
973.60 1.153
973.70 1.153
973.80 1.153
973.90 1.152
974.00 1.152
974.10 1.152
974.20 1.152
974.30 1.151
974.40 1.151
974.50 1.151
974.60 1.151
974.70 1.151
974.80 1.15
974.90 1.15
975.00 1.15
975.10 1.15
975.20 1.15
975.30 1.149
975.40 1.149
975.50 1.149
975.60 1.149
975.70 1.148
975.80 1.148
975.90 1.148
976.00 1.148
976.10 1.148
976.20 1.147
976.30 1.147
976.40 1.147
976.50 1.147
976.60 1.146
976.70 1.146
976.80 1.146
976.90 1.146
977.00 1.146
977.10 1.145
977.20 1.145
977.30 1.145
977.40 1.145
977.50 1.145
977.60 1.144
977.70 1.144
977.80 1.144
977.90 1.144
978.00 1.143
978.10 1.143
978.20 1.143
978.30 1.143
978.40 1.143
978.50 1.142
978.60 1.142
978.70 1.142
978.80 1.142
978.90 1.142
979.00 1.141
979.10 1.141
979.20 1.141
979.30 1.141
979.40 1.14
979.50 1.14
979.60 1.14
979.70 1.14
979.80 1.14
979.90 1.139
980.00 1.139
980.10 1.139
980.20 1.139
980.30 1.139
980.40 1.138
980.50 1.138
980.60 1.138
980.70 1.138
980.80 1.137
980.90 1.137
981.00 1.137
981.10 1.137
981.20 1.137
981.30 1.136
981.40 1.136
981.50 1.136
981.60 1.136
981.70 1.136
981.80 1.135
981.90 1.135
982.00 1.135
982.10 1.135
982.20 1.134
982.30 1.134
982.40 1.134
982.50 1.134
982.60 1.134
982.70 1.133
982.80 1.133
982.90 1.133
983.00 1.133
983.10 1.133
983.20 1.132
983.30 1.132
983.40 1.132
983.50 1.132
983.60 1.131
983.70 1.131
983.80 1.131
983.90 1.131
984.00 1.131
984.10 1.13
984.20 1.13
984.30 1.13
984.40 1.13
984.50 1.13
984.60 1.129
984.70 1.129
984.80 1.129
984.90 1.129
985.00 1.128
985.10 1.128
985.20 1.128
985.30 1.128
985.40 1.128
985.50 1.127
985.60 1.127
985.70 1.127
985.80 1.127
985.90 1.126
986.00 1.126
986.10 1.126
986.20 1.126
986.30 1.126
986.40 1.125
986.50 1.125
986.60 1.125
986.70 1.125
986.80 1.125
986.90 1.124
987.00 1.124
987.10 1.124
987.20 1.124
987.30 1.123
987.40 1.123
987.50 1.123
987.60 1.123
987.70 1.123
987.80 1.122
987.90 1.122
988.00 1.122
988.10 1.122
988.20 1.122
988.30 1.121
988.40 1.121
988.50 1.121
988.60 1.121
988.70 1.12
988.80 1.12
988.90 1.12
989.00 1.12
989.10 1.12
989.20 1.119
989.30 1.119
989.40 1.119
989.50 1.119
989.60 1.118
989.70 1.118
989.80 1.118
989.90 1.118
990.00 1.118
990.10 1.117
990.20 1.117
990.30 1.117
990.40 1.117
990.50 1.117
990.60 1.116
990.70 1.116
990.80 1.116
990.90 1.116
991.00 1.115
991.10 1.115
991.20 1.115
991.30 1.115
991.40 1.115
991.50 1.114
991.60 1.114
991.70 1.114
991.80 1.114
991.90 1.113
992.00 1.113
992.10 1.113
992.20 1.113
992.30 1.113
992.40 1.112
992.50 1.112
992.60 1.112
992.70 1.112
992.80 1.112
992.90 1.111
993.00 1.111
993.10 1.111
993.20 1.111
993.30 1.11
993.40 1.11
993.50 1.11
993.60 1.11
993.70 1.11
993.80 1.109
993.90 1.109
994.00 1.109
994.10 1.109
994.20 1.108
994.30 1.108
994.40 1.108
994.50 1.108
994.60 1.108
994.70 1.107
994.80 1.107
994.90 1.107
995.00 1.107
995.10 1.106
995.20 1.106
995.30 1.106
995.40 1.106
995.50 1.106
995.60 1.105
995.70 1.105
995.80 1.105
995.90 1.105
996.00 1.104
996.10 1.104
996.20 1.104
996.30 1.104
996.40 1.104
996.50 1.103
996.60 1.103
996.70 1.103
996.80 1.103
996.90 1.102
997.00 1.102
997.10 1.102
997.20 1.102
997.30 1.102
997.40 1.101
997.50 1.101
997.60 1.101
997.70 1.101
997.80 1.101
997.90 1.1
998.00 1.1
998.10 1.1
998.20 1.1
998.30 1.099
998.40 1.099
998.50 1.099
998.60 1.099
998.70 1.099
998.80 1.098
998.90 1.098
999.00 1.098
999.10 1.098
999.20 1.097
999.30 1.097
999.40 1.097
999.50 1.097
999.60 1.097
999.70 1.096
999.80 1.096
999.90 1.096
1000.00 1.096
1000.10 1.096
1000.20 1.095
1000.30 1.095
1000.40 1.095
1000.50 1.095
1000.60 1.094
1000.70 1.094
1000.80 1.094
1000.90 1.094
1001.00 1.094
1001.10 1.093
1001.20 1.093
1001.30 1.093
1001.40 1.093
1001.50 1.092
1001.60 1.092
1001.70 1.092
1001.80 1.092
1001.90 1.092
1002.00 1.091
1002.10 1.091
1002.20 1.091
1002.30 1.091
1002.40 1.091
1002.50 1.09
1002.60 1.09
1002.70 1.09
1002.80 1.09
1002.90 1.089
1003.00 1.089
1003.10 1.089
1003.20 1.089
1003.30 1.089
1003.40 1.088
1003.50 1.088
1003.60 1.088
1003.70 1.088
1003.80 1.088
1003.90 1.087
1004.00 1.087
1004.10 1.087
1004.20 1.087
1004.30 1.086
1004.40 1.086
1004.50 1.086
1004.60 1.086
1004.70 1.086
1004.80 1.085
1004.90 1.085
1005.00 1.085
1005.10 1.085
1005.20 1.085
1005.30 1.084
1005.40 1.084
1005.50 1.084
1005.60 1.084
1005.70 1.083
1005.80 1.083
1005.90 1.083
1006.00 1.083
1006.10 1.083
1006.20 1.082
1006.30 1.082
1006.40 1.082
1006.50 1.082
1006.60 1.082
1006.70 1.081
1006.80 1.081
1006.90 1.081
1007.00 1.081
1007.10 1.081
1007.20 1.08
1007.30 1.08
1007.40 1.08
1007.50 1.08
1007.60 1.079
1007.70 1.079
1007.80 1.079
1007.90 1.079
1008.00 1.079
1008.10 1.078
1008.20 1.078
1008.30 1.078
1008.40 1.078
1008.50 1.078
1008.60 1.077
1008.70 1.077
1008.80 1.077
1008.90 1.077
1009.00 1.076
1009.10 1.076
1009.20 1.076
1009.30 1.076
1009.40 1.076
1009.50 1.075
1009.60 1.075
1009.70 1.075
1009.80 1.075
1009.90 1.075
1010.00 1.074
1010.10 1.074
1010.20 1.074
1010.30 1.074
1010.40 1.074
1010.50 1.073
1010.60 1.073
1010.70 1.073
1010.80 1.073
1010.90 1.073
1011.00 1.072
1011.10 1.072
1011.20 1.072
1011.30 1.072
1011.40 1.071
1011.50 1.071
1011.60 1.071
1011.70 1.071
1011.80 1.071
1011.90 1.07
1012.00 1.07
1012.10 1.07
1012.20 1.07
1012.30 1.07
1012.40 1.069
1012.50 1.069
1012.60 1.069
1012.70 1.069
1012.80 1.069
1012.90 1.068
1013.00 1.068
1013.10 1.068
1013.20 1.068
1013.30 1.068
1013.40 1.067
1013.50 1.067
1013.60 1.067
1013.70 1.067
1013.80 1.067
1013.90 1.066
1014.00 1.066
1014.10 1.066
1014.20 1.066
1014.30 1.065
1014.40 1.065
1014.50 1.065
1014.60 1.065
1014.70 1.065
1014.80 1.064
1014.90 1.064
1015.00 1.064
1015.10 1.064
1015.20 1.064
1015.30 1.063
1015.40 1.063
1015.50 1.063
1015.60 1.063
1015.70 1.063
1015.80 1.062
1015.90 1.062
1016.00 1.062
1016.10 1.062
1016.20 1.062
1016.30 1.061
1016.40 1.061
1016.50 1.061
1016.60 1.061
1016.70 1.061
1016.80 1.06
1016.90 1.06
1017.00 1.06
1017.10 1.06
1017.20 1.06
1017.30 1.059
1017.40 1.059
1017.50 1.059
1017.60 1.059
1017.70 1.059
1017.80 1.058
1017.90 1.058
1018.00 1.058
1018.10 1.058
1018.20 1.058
1018.30 1.057
1018.40 1.057
1018.50 1.057
1018.60 1.057
1018.70 1.057
1018.80 1.056
1018.90 1.056
1019.00 1.056
1019.10 1.056
1019.20 1.056
1019.30 1.055
1019.40 1.055
1019.50 1.055
1019.60 1.055
1019.70 1.055
1019.80 1.054
1019.90 1.054
1020.00 1.054
1020.10 1.054
1020.20 1.053
1020.30 1.053
1020.40 1.053
1020.50 1.053
1020.60 1.053
1020.70 1.052
1020.80 1.052
1020.90 1.052
1021.00 1.052
1021.10 1.052
1021.20 1.051
1021.30 1.051
1021.40 1.051
1021.50 1.051
1021.60 1.051
1021.70 1.05
1021.80 1.05
1021.90 1.05
1022.00 1.05
1022.10 1.05
1022.20 1.049
1022.30 1.049
1022.40 1.049
1022.50 1.049
1022.60 1.049
1022.70 1.048
1022.80 1.048
1022.90 1.048
1023.00 1.048
1023.10 1.048
1023.20 1.047
1023.30 1.047
1023.40 1.047
1023.50 1.047
1023.60 1.047
1023.70 1.046
1023.80 1.046
1023.90 1.046
1024.00 1.046
1024.10 1.046
1024.20 1.045
1024.30 1.045
1024.40 1.045
1024.50 1.045
1024.60 1.045
1024.70 1.044
1024.80 1.044
1024.90 1.044
1025.00 1.044
1025.10 1.044
1025.20 1.043
1025.30 1.043
1025.40 1.043
1025.50 1.043
1025.60 1.043
1025.70 1.042
1025.80 1.042
1025.90 1.042
1026.00 1.042
1026.10 1.042
1026.20 1.041
1026.30 1.041
1026.40 1.041
1026.50 1.041
1026.60 1.041
1026.70 1.041
1026.80 1.04
1026.90 1.04
1027.00 1.04
1027.10 1.04
1027.20 1.04
1027.30 1.039
1027.40 1.039
1027.50 1.039
1027.60 1.039
1027.70 1.039
1027.80 1.038
1027.90 1.038
1028.00 1.038
1028.10 1.038
1028.20 1.038
1028.30 1.037
1028.40 1.037
1028.50 1.037
1028.60 1.037
1028.70 1.037
1028.80 1.036
1028.90 1.036
1029.00 1.036
1029.10 1.036
1029.20 1.036
1029.30 1.035
1029.40 1.035
1029.50 1.035
1029.60 1.035
1029.70 1.035
1029.80 1.034
1029.90 1.034
1030.00 1.034
1030.10 1.034
1030.20 1.034
1030.30 1.033
1030.40 1.033
1030.50 1.033
1030.60 1.033
1030.70 1.033
1030.80 1.032
1030.90 1.032
1031.00 1.032
1031.10 1.032
1031.20 1.032
1031.30 1.031
1031.40 1.031
1031.50 1.031
1031.60 1.031
1031.70 1.031
1031.80 1.031
1031.90 1.03
1032.00 1.03
1032.10 1.03
1032.20 1.03
1032.30 1.03
1032.40 1.029
1032.50 1.029
1032.60 1.029
1032.70 1.029
1032.80 1.029
1032.90 1.028
1033.00 1.028
1033.10 1.028
1033.20 1.028
1033.30 1.028
1033.40 1.027
1033.50 1.027
1033.60 1.027
1033.70 1.027
1033.80 1.027
1033.90 1.026
1034.00 1.026
1034.10 1.026
1034.20 1.026
1034.30 1.026
1034.40 1.026
1034.50 1.025
1034.60 1.025
1034.70 1.025
1034.80 1.025
1034.90 1.025
1035.00 1.024
1035.10 1.024
1035.20 1.024
1035.30 1.024
1035.40 1.024
1035.50 1.023
1035.60 1.023
1035.70 1.023
1035.80 1.023
1035.90 1.023
1036.00 1.022
1036.10 1.022
1036.20 1.022
1036.30 1.022
1036.40 1.022
1036.50 1.022
1036.60 1.021
1036.70 1.021
1036.80 1.021
1036.90 1.021
1037.00 1.021
1037.10 1.02
1037.20 1.02
1037.30 1.02
1037.40 1.02
1037.50 1.02
1037.60 1.019
1037.70 1.019
1037.80 1.019
1037.90 1.019
1038.00 1.019
1038.10 1.019
1038.20 1.018
1038.30 1.018
1038.40 1.018
1038.50 1.018
1038.60 1.018
1038.70 1.017
1038.80 1.017
1038.90 1.017
1039.00 1.017
1039.10 1.017
1039.20 1.017
1039.30 1.016
1039.40 1.016
1039.50 1.016
1039.60 1.016
1039.70 1.016
1039.80 1.015
1039.90 1.015
1040.00 1.015
1040.10 1.015
1040.20 1.015
1040.30 1.014
1040.40 1.014
1040.50 1.014
1040.60 1.014
1040.70 1.014
1040.80 1.014
1040.90 1.013
1041.00 1.013
1041.10 1.013
1041.20 1.013
1041.30 1.013
1041.40 1.012
1041.50 1.012
1041.60 1.012
1041.70 1.012
1041.80 1.012
1041.90 1.012
1042.00 1.011
1042.10 1.011
1042.20 1.011
1042.30 1.011
1042.40 1.011
1042.50 1.01
1042.60 1.01
1042.70 1.01
1042.80 1.01
1042.90 1.01
1043.00 1.01
1043.10 1.009
1043.20 1.009
1043.30 1.009
1043.40 1.009
1043.50 1.009
1043.60 1.008
1043.70 1.008
1043.80 1.008
1043.90 1.008
1044.00 1.008
1044.10 1.008
1044.20 1.007
1044.30 1.007
1044.40 1.007
1044.50 1.007
1044.60 1.007
1044.70 1.006
1044.80 1.006
1044.90 1.006
1045.00 1.006
1045.10 1.006
1045.20 1.006
1045.30 1.005
1045.40 1.005
1045.50 1.005
1045.60 1.005
1045.70 1.005
1045.80 1.004
1045.90 1.004
1046.00 1.004
1046.10 1.004
1046.20 1.004
1046.30 1.004
1046.40 1.003
1046.50 1.003
1046.60 1.003
1046.70 1.003
1046.80 1.003
1046.90 1.002
1047.00 1.002
1047.10 1.002
1047.20 1.002
1047.30 1.002
1047.40 1.002
1047.50 1.001
1047.60 1.001
1047.70 1.001
1047.80 1.001
1047.90 1.001
1048.00 1.001
1048.10 1
1048.20 1
1048.30 1
1048.40 0.9998
1048.50 0.9996
1048.60 0.9995
1048.70 0.9993
1048.80 0.9991
1048.90 0.9989
1049.00 0.9988
1049.10 0.9986
1049.20 0.9984
1049.30 0.9982
1049.40 0.9981
1049.50 0.9979
1049.60 0.9977
1049.70 0.9975
1049.80 0.9974
1049.90 0.9972
1050.00 0.997
1050.10 0.9968
1050.20 0.9967
1050.30 0.9965
1050.40 0.9963
1050.50 0.9961
1050.60 0.996
1050.70 0.9958
1050.80 0.9956
1050.90 0.9954
1051.00 0.9953
1051.10 0.9951
1051.20 0.9949
1051.30 0.9947
1051.40 0.9946
1051.50 0.9944
1051.60 0.9942
1051.70 0.994
1051.80 0.9939
1051.90 0.9937
1052.00 0.9935
1052.10 0.9933
1052.20 0.9932
1052.30 0.993
1052.40 0.9928
1052.50 0.9927
1052.60 0.9925
1052.70 0.9923
1052.80 0.9921
1052.90 0.992
1053.00 0.9918
1053.10 0.9916
1053.20 0.9915
1053.30 0.9913
1053.40 0.9911
1053.50 0.9909
1053.60 0.9908
1053.70 0.9906
1053.80 0.9904
1053.90 0.9903
1054.00 0.9901
1054.10 0.9899
1054.20 0.9898
1054.30 0.9896
1054.40 0.9894
1054.50 0.9892
1054.60 0.9891
1054.70 0.9889
1054.80 0.9887
1054.90 0.9886
1055.00 0.9884
1055.10 0.9882
1055.20 0.988
1055.30 0.9879
1055.40 0.9877
1055.50 0.9875
1055.60 0.9874
1055.70 0.9872
1055.80 0.987
1055.90 0.9869
1056.00 0.9867
1056.10 0.9865
1056.20 0.9864
1056.30 0.9862
1056.40 0.986
1056.50 0.9858
1056.60 0.9857
1056.70 0.9855
1056.80 0.9853
1056.90 0.9852
1057.00 0.985
1057.10 0.9848
1057.20 0.9847
1057.30 0.9845
1057.40 0.9843
1057.50 0.9842
1057.60 0.984
1057.70 0.9838
1057.80 0.9837
1057.90 0.9835
1058.00 0.9833
1058.10 0.9832
1058.20 0.983
1058.30 0.9828
1058.40 0.9827
1058.50 0.9825
1058.60 0.9823
1058.70 0.9822
1058.80 0.982
1058.90 0.9818
1059.00 0.9817
1059.10 0.9815
1059.20 0.9814
1059.30 0.9812
1059.40 0.981
1059.50 0.9809
1059.60 0.9807
1059.70 0.9805
1059.80 0.9804
1059.90 0.9802
1060.00 0.98
1060.10 0.9799
1060.20 0.9797
1060.30 0.9795
1060.40 0.9794
1060.50 0.9792
1060.60 0.979
1060.70 0.9789
1060.80 0.9787
1060.90 0.9785
1061.00 0.9784
1061.10 0.9782
1061.20 0.9781
1061.30 0.9779
1061.40 0.9777
1061.50 0.9776
1061.60 0.9774
1061.70 0.9772
1061.80 0.9771
1061.90 0.9769
1062.00 0.9767
1062.10 0.9766
1062.20 0.9764
1062.30 0.9763
1062.40 0.9761
1062.50 0.9759
1062.60 0.9758
1062.70 0.9756
1062.80 0.9754
1062.90 0.9753
1063.00 0.9751
1063.10 0.975
1063.20 0.9748
1063.30 0.9746
1063.40 0.9745
1063.50 0.9743
1063.60 0.9742
1063.70 0.974
1063.80 0.9738
1063.90 0.9737
1064.00 0.9735
1064.10 0.9734
1064.20 0.9732
1064.30 0.973
1064.40 0.9729
1064.50 0.9727
1064.60 0.9726
1064.70 0.9724
1064.80 0.9722
1064.90 0.9721
1065.00 0.9719
1065.10 0.9718
1065.20 0.9716
1065.30 0.9714
1065.40 0.9713
1065.50 0.9711
1065.60 0.971
1065.70 0.9708
1065.80 0.9707
1065.90 0.9705
1066.00 0.9703
1066.10 0.9702
1066.20 0.97
1066.30 0.9699
1066.40 0.9697
1066.50 0.9695
1066.60 0.9694
1066.70 0.9692
1066.80 0.9691
1066.90 0.9689
1067.00 0.9687
1067.10 0.9686
1067.20 0.9684
1067.30 0.9683
1067.40 0.9681
1067.50 0.968
1067.60 0.9678
1067.70 0.9677
1067.80 0.9675
1067.90 0.9673
1068.00 0.9672
1068.10 0.967
1068.20 0.9669
1068.30 0.9667
1068.40 0.9666
1068.50 0.9664
1068.60 0.9663
1068.70 0.9661
1068.80 0.966
1068.90 0.9658
1069.00 0.9656
1069.10 0.9655
1069.20 0.9653
1069.30 0.9652
1069.40 0.965
1069.50 0.9649
1069.60 0.9647
1069.70 0.9646
1069.80 0.9644
1069.90 0.9643
1070.00 0.9641
1070.10 0.9639
1070.20 0.9638
1070.30 0.9636
1070.40 0.9635
1070.50 0.9633
1070.60 0.9632
1070.70 0.963
1070.80 0.9629
1070.90 0.9627
1071.00 0.9626
1071.10 0.9624
1071.20 0.9622
1071.30 0.9621
1071.40 0.9619
1071.50 0.9618
1071.60 0.9616
1071.70 0.9615
1071.80 0.9613
1071.90 0.9612
1072.00 0.961
1072.10 0.9609
1072.20 0.9607
1072.30 0.9606
1072.40 0.9604
1072.50 0.9603
1072.60 0.9601
1072.70 0.96
1072.80 0.9598
1072.90 0.9597
1073.00 0.9595
1073.10 0.9594
1073.20 0.9592
1073.30 0.959
1073.40 0.9589
1073.50 0.9587
1073.60 0.9586
1073.70 0.9584
1073.80 0.9583
1073.90 0.9581
1074.00 0.958
1074.10 0.9578
1074.20 0.9577
1074.30 0.9575
1074.40 0.9574
1074.50 0.9572
1074.60 0.9571
1074.70 0.9569
1074.80 0.9568
1074.90 0.9566
1075.00 0.9565
1075.10 0.9563
1075.20 0.9562
1075.30 0.956
1075.40 0.9559
1075.50 0.9557
1075.60 0.9556
1075.70 0.9554
1075.80 0.9553
1075.90 0.9551
1076.00 0.955
1076.10 0.9548
1076.20 0.9547
1076.30 0.9545
1076.40 0.9544
1076.50 0.9542
1076.60 0.9541
1076.70 0.9539
1076.80 0.9538
1076.90 0.9536
1077.00 0.9535
1077.10 0.9533
1077.20 0.9532
1077.30 0.953
1077.40 0.9529
1077.50 0.9527
1077.60 0.9526
1077.70 0.9524
1077.80 0.9523
1077.90 0.9521
1078.00 0.952
1078.10 0.9518
1078.20 0.9517
1078.30 0.9515
1078.40 0.9514
1078.50 0.9512
1078.60 0.9511
1078.70 0.9509
1078.80 0.9508
1078.90 0.9506
1079.00 0.9505
1079.10 0.9503
1079.20 0.9502
1079.30 0.95
1079.40 0.9499
1079.50 0.9498
1079.60 0.9496
1079.70 0.9495
1079.80 0.9493
1079.90 0.9492
1080.00 0.949
1080.10 0.9489
1080.20 0.9487
1080.30 0.9486
1080.40 0.9484
1080.50 0.9483
1080.60 0.9481
1080.70 0.948
1080.80 0.9479
1080.90 0.9477
1081.00 0.9476
1081.10 0.9474
1081.20 0.9473
1081.30 0.9471
1081.40 0.947
1081.50 0.9468
1081.60 0.9467
1081.70 0.9465
1081.80 0.9464
1081.90 0.9463
1082.00 0.9461
1082.10 0.946
1082.20 0.9458
1082.30 0.9457
1082.40 0.9455
1082.50 0.9454
1082.60 0.9452
1082.70 0.9451
1082.80 0.9449
1082.90 0.9448
1083.00 0.9446
1083.10 0.9445
1083.20 0.9443
1083.30 0.9442
1083.40 0.944
1083.50 0.9439
1083.60 0.9438
1083.70 0.9436
1083.80 0.9435
1083.90 0.9433
1084.00 0.9432
1084.10 0.943
1084.20 0.9429
1084.30 0.9428
1084.40 0.9426
1084.50 0.9425
1084.60 0.9423
1084.70 0.9422
1084.80 0.942
1084.90 0.9419
1085.00 0.9418
1085.10 0.9416
1085.20 0.9415
1085.30 0.9413
1085.40 0.9412
1085.50 0.941
1085.60 0.9409
1085.70 0.9407
1085.80 0.9406
1085.90 0.9405
1086.00 0.9403
1086.10 0.9402
1086.20 0.94
1086.30 0.9399
1086.40 0.9397
1086.50 0.9396
1086.60 0.9395
1086.70 0.9393
1086.80 0.9392
1086.90 0.939
1087.00 0.9389
1087.10 0.9387
1087.20 0.9386
1087.30 0.9385
1087.40 0.9383
1087.50 0.9382
1087.60 0.938
1087.70 0.9379
1087.80 0.9377
1087.90 0.9376
1088.00 0.9374
1088.10 0.9373
1088.20 0.9372
1088.30 0.937
1088.40 0.9369
1088.50 0.9367
1088.60 0.9366
1088.70 0.9364
1088.80 0.9363
1088.90 0.9362
1089.00 0.936
1089.10 0.9359
1089.20 0.9357
1089.30 0.9356
1089.40 0.9355
1089.50 0.9353
1089.60 0.9352
1089.70 0.935
1089.80 0.9349
1089.90 0.9347
1090.00 0.9346
1090.10 0.9345
1090.20 0.9343
1090.30 0.9342
1090.40 0.934
1090.50 0.9339
1090.60 0.9337
1090.70 0.9336
1090.80 0.9335
1090.90 0.9333
1091.00 0.9332
1091.10 0.933
1091.20 0.9329
1091.30 0.9328
1091.40 0.9326
1091.50 0.9325
1091.60 0.9323
1091.70 0.9322
1091.80 0.9321
1091.90 0.9319
1092.00 0.9318
1092.10 0.9316
1092.20 0.9315
1092.30 0.9314
1092.40 0.9312
1092.50 0.9311
1092.60 0.9309
1092.70 0.9308
1092.80 0.9307
1092.90 0.9306
1093.00 0.9304
1093.10 0.9303
1093.20 0.9301
1093.30 0.93
1093.40 0.9299
1093.50 0.9297
1093.60 0.9296
1093.70 0.9294
1093.80 0.9293
1093.90 0.9292
1094.00 0.929
1094.10 0.9289
1094.20 0.9288
1094.30 0.9286
1094.40 0.9285
1094.50 0.9283
1094.60 0.9282
1094.70 0.928
1094.80 0.9279
1094.90 0.9278
1095.00 0.9276
1095.10 0.9275
1095.20 0.9273
1095.30 0.9272
1095.40 0.9271
1095.50 0.9269
1095.60 0.9268
1095.70 0.9267
1095.80 0.9265
1095.90 0.9264
1096.00 0.9262
1096.10 0.9261
1096.20 0.926
1096.30 0.9258
1096.40 0.9257
1096.50 0.9255
1096.60 0.9254
1096.70 0.9253
1096.80 0.9251
1096.90 0.925
1097.00 0.9248
1097.10 0.9247
1097.20 0.9246
1097.30 0.9244
1097.40 0.9243
1097.50 0.9242
1097.60 0.924
1097.70 0.9239
1097.80 0.9238
1097.90 0.9236
1098.00 0.9235
1098.10 0.9233
1098.20 0.9232
1098.30 0.9231
1098.40 0.9229
1098.50 0.9228
1098.60 0.9227
1098.70 0.9225
1098.80 0.9224
1098.90 0.9222
1099.00 0.9221
1099.10 0.922
1099.20 0.9218
1099.30 0.9217
1099.40 0.9215
1099.50 0.9214
1099.60 0.9213
1099.70 0.9211
1099.80 0.921
1099.90 0.9208
1100.00 0.9207
1100.10 0.9206
1100.20 0.9204
1100.30 0.9203
1100.40 0.9202
1100.50 0.92
1100.60 0.9199
1100.70 0.9197
1100.80 0.9196
1100.90 0.9195
1101.00 0.9193
1101.10 0.9192
1101.20 0.9191
1101.30 0.9189
1101.40 0.9188
1101.50 0.9186
1101.60 0.9185
1101.70 0.9184
1101.80 0.9182
1101.90 0.9181
1102.00 0.918
1102.10 0.9178
1102.20 0.9177
1102.30 0.9176
1102.40 0.9174
1102.50 0.9173
1102.60 0.9172
1102.70 0.917
1102.80 0.9169
1102.90 0.9167
1103.00 0.9166
1103.10 0.9165
1103.20 0.9163
1103.30 0.9162
1103.40 0.916
1103.50 0.9159
1103.60 0.9158
1103.70 0.9156
1103.80 0.9155
1103.90 0.9154
1104.00 0.9152
1104.10 0.9151
1104.20 0.915
1104.30 0.9148
1104.40 0.9147
1104.50 0.9145
1104.60 0.9144
1104.70 0.9143
1104.80 0.9141
1104.90 0.914
1105.00 0.9139
1105.10 0.9137
1105.20 0.9136
1105.30 0.9135
1105.40 0.9133
1105.50 0.9132
1105.60 0.9131
1105.70 0.9129
1105.80 0.9128
1105.90 0.9126
1106.00 0.9125
1106.10 0.9124
1106.20 0.9122
1106.30 0.9121
1106.40 0.912
1106.50 0.9118
1106.60 0.9117
1106.70 0.9115
1106.80 0.9114
1106.90 0.9113
1107.00 0.9111
1107.10 0.911
1107.20 0.9109
1107.30 0.9107
1107.40 0.9106
1107.50 0.9105
1107.60 0.9103
1107.70 0.9102
1107.80 0.9101
1107.90 0.9099
1108.00 0.9098
1108.10 0.9097
1108.20 0.9095
1108.30 0.9094
1108.40 0.9092
1108.50 0.9091
1108.60 0.909
1108.70 0.9088
1108.80 0.9087
1108.90 0.9086
1109.00 0.9084
1109.10 0.9083
1109.20 0.9082
1109.30 0.908
1109.40 0.9079
1109.50 0.9078
1109.60 0.9076
1109.70 0.9075
1109.80 0.9073
1109.90 0.9072
1110.00 0.9071
1110.10 0.9069
1110.20 0.9068
1110.30 0.9067
1110.40 0.9065
1110.50 0.9064
1110.60 0.9063
1110.70 0.9061
1110.80 0.906
1110.90 0.9059
1111.00 0.9057
1111.10 0.9056
1111.20 0.9055
1111.30 0.9053
1111.40 0.9052
1111.50 0.905
1111.60 0.9049
1111.70 0.9048
1111.80 0.9046
1111.90 0.9045
1112.00 0.9044
1112.10 0.9042
1112.20 0.9041
1112.30 0.904
1112.40 0.9038
1112.50 0.9037
1112.60 0.9036
1112.70 0.9034
1112.80 0.9033
1112.90 0.9032
1113.00 0.903
1113.10 0.9029
1113.20 0.9028
1113.30 0.9026
1113.40 0.9025
1113.50 0.9024
1113.60 0.9022
1113.70 0.9021
1113.80 0.902
1113.90 0.9018
1114.00 0.9017
1114.10 0.9016
1114.20 0.9014
1114.30 0.9013
1114.40 0.9012
1114.50 0.901
1114.60 0.9009
1114.70 0.9007
1114.80 0.9006
1114.90 0.9005
1115.00 0.9003
1115.10 0.9002
1115.20 0.9001
1115.30 0.8999
1115.40 0.8998
1115.50 0.8997
1115.60 0.8995
1115.70 0.8994
1115.80 0.8993
1115.90 0.8991
1116.00 0.899
1116.10 0.8989
1116.20 0.8987
1116.30 0.8986
1116.40 0.8985
1116.50 0.8983
1116.60 0.8982
1116.70 0.8981
1116.80 0.8979
1116.90 0.8978
1117.00 0.8977
1117.10 0.8975
1117.20 0.8974
1117.30 0.8973
1117.40 0.8971
1117.50 0.897
1117.60 0.8969
1117.70 0.8967
1117.80 0.8966
1117.90 0.8965
1118.00 0.8963
1118.10 0.8962
1118.20 0.8961
1118.30 0.8959
1118.40 0.8958
1118.50 0.8957
1118.60 0.8955
1118.70 0.8954
1118.80 0.8953
1118.90 0.8951
1119.00 0.895
1119.10 0.8949
1119.20 0.8947
1119.30 0.8946
1119.40 0.8945
1119.50 0.8944
1119.60 0.8942
1119.70 0.8941
1119.80 0.894
1119.90 0.8938
1120.00 0.8937
1120.10 0.8936
1120.20 0.8934
1120.30 0.8933
1120.40 0.8932
1120.50 0.893
1120.60 0.8929
1120.70 0.8928
1120.80 0.8926
1120.90 0.8925
1121.00 0.8924
1121.10 0.8922
1121.20 0.8921
1121.30 0.892
1121.40 0.8918
1121.50 0.8917
1121.60 0.8916
1121.70 0.8914
1121.80 0.8913
1121.90 0.8912
1122.00 0.8911
1122.10 0.8909
1122.20 0.8908
1122.30 0.8907
1122.40 0.8905
1122.50 0.8904
1122.60 0.8903
1122.70 0.8901
1122.80 0.89
1122.90 0.8899
1123.00 0.8897
1123.10 0.8896
1123.20 0.8895
1123.30 0.8893
1123.40 0.8892
1123.50 0.8891
1123.60 0.8889
1123.70 0.8888
1123.80 0.8887
1123.90 0.8885
1124.00 0.8884
1124.10 0.8883
1124.20 0.8881
1124.30 0.888
1124.40 0.8879
1124.50 0.8877
1124.60 0.8876
1124.70 0.8875
1124.80 0.8873
1124.90 0.8872
1125.00 0.8871
1125.10 0.8869
1125.20 0.8868
1125.30 0.8867
1125.40 0.8865
1125.50 0.8864
1125.60 0.8863
1125.70 0.8862
1125.80 0.886
1125.90 0.8859
1126.00 0.8858
1126.10 0.8856
1126.20 0.8855
1126.30 0.8854
1126.40 0.8852
1126.50 0.8851
1126.60 0.885
1126.70 0.8848
1126.80 0.8847
1126.90 0.8846
1127.00 0.8844
1127.10 0.8843
1127.20 0.8842
1127.30 0.884
1127.40 0.8839
1127.50 0.8838
1127.60 0.8836
1127.70 0.8835
1127.80 0.8834
1127.90 0.8833
1128.00 0.8831
1128.10 0.883
1128.20 0.8829
1128.30 0.8827
1128.40 0.8826
1128.50 0.8825
1128.60 0.8823
1128.70 0.8822
1128.80 0.8821
1128.90 0.8819
1129.00 0.8818
1129.10 0.8817
1129.20 0.8815
1129.30 0.8814
1129.40 0.8813
1129.50 0.8811
1129.60 0.881
1129.70 0.8809
1129.80 0.8808
1129.90 0.8806
1130.00 0.8805
1130.10 0.8804
1130.20 0.8802
1130.30 0.8801
1130.40 0.88
1130.50 0.8798
1130.60 0.8797
1130.70 0.8796
1130.80 0.8794
1130.90 0.8793
1131.00 0.8792
1131.10 0.8791
1131.20 0.8789
1131.30 0.8788
1131.40 0.8787
1131.50 0.8785
1131.60 0.8784
1131.70 0.8783
1131.80 0.8781
1131.90 0.878
1132.00 0.8779
1132.10 0.8777
1132.20 0.8776
1132.30 0.8775
1132.40 0.8773
1132.50 0.8772
1132.60 0.8771
1132.70 0.8769
1132.80 0.8768
1132.90 0.8767
1133.00 0.8765
1133.10 0.8764
1133.20 0.8763
1133.30 0.8761
1133.40 0.876
1133.50 0.8759
1133.60 0.8757
1133.70 0.8756
1133.80 0.8755
1133.90 0.8753
1134.00 0.8752
1134.10 0.8751
1134.20 0.875
1134.30 0.8748
1134.40 0.8747
1134.50 0.8746
1134.60 0.8744
1134.70 0.8743
1134.80 0.8742
1134.90 0.874
1135.00 0.8739
1135.10 0.8738
1135.20 0.8736
1135.30 0.8735
1135.40 0.8734
1135.50 0.8732
1135.60 0.8731
1135.70 0.873
1135.80 0.8728
1135.90 0.8727
1136.00 0.8726
1136.10 0.8724
1136.20 0.8723
1136.30 0.8722
1136.40 0.872
1136.50 0.8719
1136.60 0.8718
1136.70 0.8716
1136.80 0.8715
1136.90 0.8714
1137.00 0.8712
1137.10 0.8711
1137.20 0.871
1137.30 0.8708
1137.40 0.8707
1137.50 0.8706
1137.60 0.8704
1137.70 0.8703
1137.80 0.8702
1137.90 0.87
1138.00 0.8699
1138.10 0.8698
1138.20 0.8696
1138.30 0.8695
1138.40 0.8694
1138.50 0.8692
1138.60 0.8691
1138.70 0.869
1138.80 0.8688
1138.90 0.8687
1139.00 0.8686
1139.10 0.8684
1139.20 0.8683
1139.30 0.8682
1139.40 0.868
1139.50 0.8679
1139.60 0.8678
1139.70 0.8676
1139.80 0.8675
1139.90 0.8674
1140.00 0.8672
1140.10 0.8671
1140.20 0.867
1140.30 0.8668
1140.40 0.8667
1140.50 0.8666
1140.60 0.8665
1140.70 0.8663
1140.80 0.8662
1140.90 0.8661
1141.00 0.8659
1141.10 0.8658
1141.20 0.8657
1141.30 0.8655
1141.40 0.8654
1141.50 0.8653
1141.60 0.8651
1141.70 0.865
1141.80 0.8649
1141.90 0.8647
1142.00 0.8646
1142.10 0.8645
1142.20 0.8643
1142.30 0.8642
1142.40 0.8641
1142.50 0.8639
1142.60 0.8638
1142.70 0.8637
1142.80 0.8635
1142.90 0.8634
1143.00 0.8633
1143.10 0.8631
1143.20 0.863
1143.30 0.8629
1143.40 0.8627
1143.50 0.8626
1143.60 0.8625
1143.70 0.8623
1143.80 0.8622
1143.90 0.8621
1144.00 0.8619
1144.10 0.8618
1144.20 0.8617
1144.30 0.8615
1144.40 0.8614
1144.50 0.8613
1144.60 0.8611
1144.70 0.861
1144.80 0.8609
1144.90 0.8607
1145.00 0.8606
1145.10 0.8605
1145.20 0.8603
1145.30 0.8602
1145.40 0.8601
1145.50 0.8599
1145.60 0.8598
1145.70 0.8597
1145.80 0.8595
1145.90 0.8594
1146.00 0.8593
1146.10 0.8591
1146.20 0.859
1146.30 0.8589
1146.40 0.8587
1146.50 0.8586
1146.60 0.8585
1146.70 0.8584
1146.80 0.8582
1146.90 0.8581
1147.00 0.858
1147.10 0.8578
1147.20 0.8577
1147.30 0.8576
1147.40 0.8574
1147.50 0.8573
1147.60 0.8571
1147.70 0.857
1147.80 0.8569
1147.90 0.8567
1148.00 0.8566
1148.10 0.8565
1148.20 0.8563
1148.30 0.8562
1148.40 0.8561
1148.50 0.8559
1148.60 0.8558
1148.70 0.8557
1148.80 0.8555
1148.90 0.8554
1149.00 0.8553
1149.10 0.8551
1149.20 0.855
1149.30 0.8548
1149.40 0.8547
1149.50 0.8546
1149.60 0.8544
1149.70 0.8543
1149.80 0.8542
1149.90 0.854
1150.00 0.8539
1150.10 0.8538
1150.20 0.8536
1150.30 0.8535
1150.40 0.8534
1150.50 0.8532
1150.60 0.8531
1150.70 0.853
1150.80 0.8528
1150.90 0.8527
1151.00 0.8526
1151.10 0.8524
1151.20 0.8523
1151.30 0.8522
1151.40 0.852
1151.50 0.8519
1151.60 0.8518
1151.70 0.8516
1151.80 0.8515
1151.90 0.8514
1152.00 0.8512
1152.10 0.8511
1152.20 0.851
1152.30 0.8508
1152.40 0.8507
1152.50 0.8505
1152.60 0.8504
1152.70 0.8503
1152.80 0.8501
1152.90 0.85
1153.00 0.8499
1153.10 0.8497
1153.20 0.8496
1153.30 0.8495
1153.40 0.8493
1153.50 0.8492
1153.60 0.8491
1153.70 0.8489
1153.80 0.8488
1153.90 0.8486
1154.00 0.8485
1154.10 0.8484
1154.20 0.8482
1154.30 0.8481
1154.40 0.848
1154.50 0.8478
1154.60 0.8477
1154.70 0.8476
1154.80 0.8474
1154.90 0.8473
1155.00 0.8472
1155.10 0.847
1155.20 0.8469
1155.30 0.8468
1155.40 0.8466
1155.50 0.8465
1155.60 0.8464
1155.70 0.8462
1155.80 0.8461
1155.90 0.846
1156.00 0.8458
1156.10 0.8457
1156.20 0.8455
1156.30 0.8454
1156.40 0.8453
1156.50 0.8451
1156.60 0.845
1156.70 0.8449
1156.80 0.8447
1156.90 0.8446
1157.00 0.8445
1157.10 0.8443
1157.20 0.8442
1157.30 0.8441
1157.40 0.8439
1157.50 0.8438
1157.60 0.8436
1157.70 0.8435
1157.80 0.8434
1157.90 0.8432
1158.00 0.8431
1158.10 0.843
1158.20 0.8428
1158.30 0.8427
1158.40 0.8425
1158.50 0.8424
1158.60 0.8423
1158.70 0.8421
1158.80 0.842
1158.90 0.8419
1159.00 0.8417
1159.10 0.8416
1159.20 0.8415
1159.30 0.8413
1159.40 0.8412
1159.50 0.841
1159.60 0.8409
1159.70 0.8408
1159.80 0.8406
1159.90 0.8405
1160.00 0.8404
1160.10 0.8402
1160.20 0.8401
1160.30 0.8399
1160.40 0.8398
1160.50 0.8397
1160.60 0.8395
1160.70 0.8394
1160.80 0.8393
1160.90 0.8391
1161.00 0.839
1161.10 0.8389
1161.20 0.8387
1161.30 0.8386
1161.40 0.8384
1161.50 0.8383
1161.60 0.8382
1161.70 0.838
1161.80 0.8379
1161.90 0.8378
1162.00 0.8376
1162.10 0.8375
1162.20 0.8374
1162.30 0.8372
1162.40 0.8371
1162.50 0.8369
1162.60 0.8368
1162.70 0.8367
1162.80 0.8365
1162.90 0.8364
1163.00 0.8362
1163.10 0.8361
1163.20 0.836
1163.30 0.8358
1163.40 0.8357
1163.50 0.8355
1163.60 0.8354
1163.70 0.8353
1163.80 0.8351
1163.90 0.835
1164.00 0.8349
1164.10 0.8347
1164.20 0.8346
1164.30 0.8344
1164.40 0.8343
1164.50 0.8342
1164.60 0.834
1164.70 0.8339
1164.80 0.8337
1164.90 0.8336
1165.00 0.8335
1165.10 0.8333
1165.20 0.8332
1165.30 0.8331
1165.40 0.8329
1165.50 0.8328
1165.60 0.8326
1165.70 0.8325
1165.80 0.8324
1165.90 0.8322
1166.00 0.8321
1166.10 0.8319
1166.20 0.8318
1166.30 0.8317
1166.40 0.8315
1166.50 0.8314
1166.60 0.8313
1166.70 0.8311
1166.80 0.831
1166.90 0.8308
1167.00 0.8307
1167.10 0.8306
1167.20 0.8304
1167.30 0.8303
1167.40 0.8301
1167.50 0.83
1167.60 0.8299
1167.70 0.8297
1167.80 0.8296
1167.90 0.8294
1168.00 0.8293
1168.10 0.8292
1168.20 0.829
1168.30 0.8289
1168.40 0.8287
1168.50 0.8286
1168.60 0.8285
1168.70 0.8283
1168.80 0.8282
1168.90 0.828
1169.00 0.8279
1169.10 0.8278
1169.20 0.8276
1169.30 0.8275
1169.40 0.8274
1169.50 0.8272
1169.60 0.8271
1169.70 0.8269
1169.80 0.8268
1169.90 0.8267
1170.00 0.8265
1170.10 0.8264
1170.20 0.8262
1170.30 0.8261
1170.40 0.826
1170.50 0.8258
1170.60 0.8257
1170.70 0.8255
1170.80 0.8254
1170.90 0.8253
1171.00 0.8251
1171.10 0.825
1171.20 0.8248
1171.30 0.8247
1171.40 0.8246
1171.50 0.8244
1171.60 0.8243
1171.70 0.8242
1171.80 0.824
1171.90 0.8239
1172.00 0.8237
1172.10 0.8236
1172.20 0.8235
1172.30 0.8233
1172.40 0.8232
1172.50 0.823
1172.60 0.8229
1172.70 0.8227
1172.80 0.8226
1172.90 0.8225
1173.00 0.8223
1173.10 0.8222
1173.20 0.822
1173.30 0.8219
1173.40 0.8218
1173.50 0.8216
1173.60 0.8215
1173.70 0.8213
1173.80 0.8212
1173.90 0.8211
1174.00 0.8209
1174.10 0.8208
1174.20 0.8206
1174.30 0.8205
1174.40 0.8204
1174.50 0.8202
1174.60 0.8201
1174.70 0.8199
1174.80 0.8198
1174.90 0.8197
1175.00 0.8195
1175.10 0.8194
1175.20 0.8192
1175.30 0.8191
1175.40 0.819
1175.50 0.8188
1175.60 0.8187
1175.70 0.8185
1175.80 0.8184
1175.90 0.8183
1176.00 0.8181
1176.10 0.818
1176.20 0.8178
1176.30 0.8177
1176.40 0.8176
1176.50 0.8174
1176.60 0.8173
1176.70 0.8171
1176.80 0.817
1176.90 0.8169
1177.00 0.8167
1177.10 0.8166
1177.20 0.8164
1177.30 0.8163
1177.40 0.8161
1177.50 0.816
1177.60 0.8159
1177.70 0.8157
1177.80 0.8156
1177.90 0.8154
1178.00 0.8153
1178.10 0.8151
1178.20 0.815
1178.30 0.8149
1178.40 0.8147
1178.50 0.8146
1178.60 0.8144
1178.70 0.8143
1178.80 0.8141
1178.90 0.814
1179.00 0.8139
1179.10 0.8137
1179.20 0.8136
1179.30 0.8134
1179.40 0.8133
1179.50 0.8131
1179.60 0.813
1179.70 0.8129
1179.80 0.8127
1179.90 0.8126
1180.00 0.8124
1180.10 0.8123
1180.20 0.8121
1180.30 0.812
1180.40 0.8119
1180.50 0.8117
1180.60 0.8116
1180.70 0.8114
1180.80 0.8113
1180.90 0.8112
1181.00 0.811
1181.10 0.8109
1181.20 0.8107
1181.30 0.8106
1181.40 0.8104
1181.50 0.8103
1181.60 0.8102
1181.70 0.81
1181.80 0.8099
1181.90 0.8097
1182.00 0.8096
1182.10 0.8094
1182.20 0.8093
1182.30 0.8092
1182.40 0.809
1182.50 0.8089
1182.60 0.8087
1182.70 0.8086
1182.80 0.8084
1182.90 0.8083
1183.00 0.8082
1183.10 0.808
1183.20 0.8079
1183.30 0.8077
1183.40 0.8076
1183.50 0.8074
1183.60 0.8073
1183.70 0.8071
1183.80 0.807
1183.90 0.8069
1184.00 0.8067
1184.10 0.8066
1184.20 0.8064
1184.30 0.8063
1184.40 0.8061
1184.50 0.806
1184.60 0.8059
1184.70 0.8057
1184.80 0.8056
1184.90 0.8054
1185.00 0.8053
1185.10 0.8051
1185.20 0.805
1185.30 0.8049
1185.40 0.8047
1185.50 0.8046
1185.60 0.8044
1185.70 0.8043
1185.80 0.8041
1185.90 0.804
1186.00 0.8039
1186.10 0.8037
1186.20 0.8036
1186.30 0.8034
1186.40 0.8033
1186.50 0.8031
1186.60 0.803
1186.70 0.8029
1186.80 0.8027
1186.90 0.8026
1187.00 0.8024
1187.10 0.8023
1187.20 0.8021
1187.30 0.802
1187.40 0.8018
1187.50 0.8017
1187.60 0.8016
1187.70 0.8014
1187.80 0.8013
1187.90 0.8011
1188.00 0.801
1188.10 0.8008
1188.20 0.8007
1188.30 0.8006
1188.40 0.8004
1188.50 0.8003
1188.60 0.8001
1188.70 0.8
1188.80 0.7998
1188.90 0.7997
1189.00 0.7995
1189.10 0.7994
1189.20 0.7993
1189.30 0.7991
1189.40 0.799
1189.50 0.7988
1189.60 0.7987
1189.70 0.7985
1189.80 0.7984
1189.90 0.7983
1190.00 0.7981
1190.10 0.798
1190.20 0.7978
1190.30 0.7977
1190.40 0.7975
1190.50 0.7974
1190.60 0.7972
1190.70 0.7971
1190.80 0.797
1190.90 0.7968
1191.00 0.7967
1191.10 0.7965
1191.20 0.7964
1191.30 0.7962
1191.40 0.7961
1191.50 0.796
1191.60 0.7958
1191.70 0.7957
1191.80 0.7955
1191.90 0.7954
1192.00 0.7952
1192.10 0.7951
1192.20 0.795
1192.30 0.7948
1192.40 0.7947
1192.50 0.7945
1192.60 0.7944
1192.70 0.7942
1192.80 0.7941
1192.90 0.7939
1193.00 0.7938
1193.10 0.7937
1193.20 0.7935
1193.30 0.7934
1193.40 0.7932
1193.50 0.7931
1193.60 0.7929
1193.70 0.7928
1193.80 0.7926
1193.90 0.7925
1194.00 0.7924
1194.10 0.7922
1194.20 0.7921
1194.30 0.7919
1194.40 0.7918
1194.50 0.7916
1194.60 0.7915
1194.70 0.7913
1194.80 0.7912
1194.90 0.7911
1195.00 0.7909
1195.10 0.7908
1195.20 0.7906
1195.30 0.7905
1195.40 0.7903
1195.50 0.7902
1195.60 0.79
1195.70 0.7899
1195.80 0.7898
1195.90 0.7896
1196.00 0.7895
1196.10 0.7893
1196.20 0.7892
1196.30 0.789
1196.40 0.7889
1196.50 0.7888
1196.60 0.7886
1196.70 0.7885
1196.80 0.7883
1196.90 0.7882
1197.00 0.788
1197.10 0.7879
1197.20 0.7877
1197.30 0.7876
1197.40 0.7875
1197.50 0.7873
1197.60 0.7872
1197.70 0.787
1197.80 0.7869
1197.90 0.7867
1198.00 0.7866
1198.10 0.7864
1198.20 0.7863
1198.30 0.7861
1198.40 0.786
1198.50 0.7859
1198.60 0.7857
1198.70 0.7856
1198.80 0.7854
1198.90 0.7853
1199.00 0.7851
1199.10 0.785
1199.20 0.7848
1199.30 0.7847
1199.40 0.7845
1199.50 0.7844
1199.60 0.7843
1199.70 0.7841
1199.80 0.784
1199.90 0.7838
1200.00 0
