# Version 2.1 - nm, norm@500 to 1, cut digits, bergeron_15000_65.dat_15000
# Wavelength(nm)  Flambda(ergs/cm^s/s/nm)
300.00 2.103
300.10 2.102
300.20 2.1
300.30 2.099
300.40 2.097
300.50 2.096
300.60 2.094
300.70 2.092
300.80 2.091
300.90 2.089
301.00 2.088
301.10 2.086
301.20 2.085
301.30 2.083
301.40 2.081
301.50 2.08
301.60 2.078
301.70 2.077
301.80 2.075
301.90 2.074
302.00 2.072
302.10 2.07
302.20 2.069
302.30 2.067
302.40 2.066
302.50 2.064
302.60 2.063
302.70 2.061
302.80 2.06
302.90 2.058
303.00 2.057
303.10 2.055
303.20 2.053
303.30 2.052
303.40 2.05
303.50 2.049
303.60 2.047
303.70 2.046
303.80 2.044
303.90 2.043
304.00 2.041
304.10 2.04
304.20 2.038
304.30 2.037
304.40 2.035
304.50 2.034
304.60 2.032
304.70 2.031
304.80 2.029
304.90 2.028
305.00 2.026
305.10 2.025
305.20 2.023
305.30 2.022
305.40 2.02
305.50 2.019
305.60 2.017
305.70 2.016
305.80 2.014
305.90 2.013
306.00 2.011
306.10 2.01
306.20 2.008
306.30 2.007
306.40 2.005
306.50 2.004
306.60 2.002
306.70 2.001
306.80 1.999
306.90 1.998
307.00 1.996
307.10 1.995
307.20 1.993
307.30 1.992
307.40 1.99
307.50 1.989
307.60 1.987
307.70 1.986
307.80 1.984
307.90 1.983
308.00 1.981
308.10 1.98
308.20 1.979
308.30 1.977
308.40 1.976
308.50 1.974
308.60 1.973
308.70 1.971
308.80 1.97
308.90 1.968
309.00 1.967
309.10 1.965
309.20 1.964
309.30 1.963
309.40 1.961
309.50 1.96
309.60 1.958
309.70 1.957
309.80 1.955
309.90 1.954
310.00 1.953
310.10 1.951
310.20 1.95
310.30 1.948
310.40 1.947
310.50 1.945
310.60 1.944
310.70 1.943
310.80 1.941
310.90 1.94
311.00 1.938
311.10 1.937
311.20 1.935
311.30 1.934
311.40 1.933
311.50 1.931
311.60 1.93
311.70 1.928
311.80 1.927
311.90 1.926
312.00 1.924
312.10 1.923
312.20 1.921
312.30 1.92
312.40 1.919
312.50 1.917
312.60 1.916
312.70 1.914
312.80 1.913
312.90 1.912
313.00 1.91
313.10 1.909
313.20 1.907
313.30 1.906
313.40 1.905
313.50 1.903
313.60 1.902
313.70 1.9
313.80 1.899
313.90 1.898
314.00 1.896
314.10 1.895
314.20 1.894
314.30 1.892
314.40 1.891
314.50 1.889
314.60 1.888
314.70 1.887
314.80 1.885
314.90 1.884
315.00 1.883
315.10 1.881
315.20 1.88
315.30 1.878
315.40 1.877
315.50 1.876
315.60 1.874
315.70 1.873
315.80 1.872
315.90 1.87
316.00 1.869
316.10 1.868
316.20 1.866
316.30 1.865
316.40 1.864
316.50 1.862
316.60 1.861
316.70 1.86
316.80 1.858
316.90 1.857
317.00 1.856
317.10 1.854
317.20 1.853
317.30 1.852
317.40 1.85
317.50 1.849
317.60 1.848
317.70 1.846
317.80 1.845
317.90 1.844
318.00 1.842
318.10 1.841
318.20 1.84
318.30 1.838
318.40 1.837
318.50 1.836
318.60 1.834
318.70 1.833
318.80 1.832
318.90 1.83
319.00 1.829
319.10 1.828
319.20 1.826
319.30 1.825
319.40 1.824
319.50 1.822
319.60 1.821
319.70 1.82
319.80 1.819
319.90 1.817
320.00 1.816
320.10 1.815
320.20 1.813
320.30 1.812
320.40 1.811
320.50 1.809
320.60 1.808
320.70 1.807
320.80 1.806
320.90 1.804
321.00 1.803
321.10 1.802
321.20 1.8
321.30 1.799
321.40 1.798
321.50 1.797
321.60 1.795
321.70 1.794
321.80 1.793
321.90 1.792
322.00 1.79
322.10 1.789
322.20 1.788
322.30 1.786
322.40 1.785
322.50 1.784
322.60 1.783
322.70 1.781
322.80 1.78
322.90 1.779
323.00 1.778
323.10 1.776
323.20 1.775
323.30 1.774
323.40 1.773
323.50 1.771
323.60 1.77
323.70 1.769
323.80 1.767
323.90 1.766
324.00 1.765
324.10 1.764
324.20 1.762
324.30 1.761
324.40 1.76
324.50 1.759
324.60 1.758
324.70 1.756
324.80 1.755
324.90 1.754
325.00 1.753
325.10 1.751
325.20 1.75
325.30 1.749
325.40 1.748
325.50 1.746
325.60 1.745
325.70 1.744
325.80 1.743
325.90 1.741
326.00 1.74
326.10 1.739
326.20 1.738
326.30 1.737
326.40 1.735
326.50 1.734
326.60 1.733
326.70 1.732
326.80 1.73
326.90 1.729
327.00 1.728
327.10 1.727
327.20 1.726
327.30 1.724
327.40 1.723
327.50 1.722
327.60 1.721
327.70 1.72
327.80 1.718
327.90 1.717
328.00 1.716
328.10 1.715
328.20 1.713
328.30 1.712
328.40 1.711
328.50 1.71
328.60 1.709
328.70 1.707
328.80 1.706
328.90 1.705
329.00 1.704
329.10 1.703
329.20 1.702
329.30 1.7
329.40 1.699
329.50 1.698
329.60 1.697
329.70 1.696
329.80 1.694
329.90 1.693
330.00 1.692
330.10 1.691
330.20 1.69
330.30 1.688
330.40 1.687
330.50 1.686
330.60 1.685
330.70 1.684
330.80 1.683
330.90 1.681
331.00 1.68
331.10 1.679
331.20 1.678
331.30 1.677
331.40 1.676
331.50 1.674
331.60 1.673
331.70 1.672
331.80 1.671
331.90 1.67
332.00 1.669
332.10 1.667
332.20 1.666
332.30 1.665
332.40 1.664
332.50 1.663
332.60 1.662
332.70 1.661
332.80 1.659
332.90 1.658
333.00 1.657
333.10 1.656
333.20 1.655
333.30 1.654
333.40 1.652
333.50 1.651
333.60 1.65
333.70 1.649
333.80 1.648
333.90 1.647
334.00 1.646
334.10 1.644
334.20 1.643
334.30 1.642
334.40 1.641
334.50 1.64
334.60 1.639
334.70 1.638
334.80 1.637
334.90 1.635
335.00 1.634
335.10 1.633
335.20 1.632
335.30 1.631
335.40 1.63
335.50 1.629
335.60 1.628
335.70 1.626
335.80 1.625
335.90 1.624
336.00 1.623
336.10 1.622
336.20 1.621
336.30 1.62
336.40 1.619
336.50 1.617
336.60 1.616
336.70 1.615
336.80 1.614
336.90 1.613
337.00 1.612
337.10 1.611
337.20 1.61
337.30 1.609
337.40 1.608
337.50 1.606
337.60 1.605
337.70 1.604
337.80 1.603
337.90 1.602
338.00 1.601
338.10 1.6
338.20 1.599
338.30 1.598
338.40 1.597
338.50 1.595
338.60 1.594
338.70 1.593
338.80 1.592
338.90 1.591
339.00 1.59
339.10 1.589
339.20 1.588
339.30 1.587
339.40 1.586
339.50 1.585
339.60 1.583
339.70 1.582
339.80 1.581
339.90 1.58
340.00 1.579
340.10 1.578
340.20 1.577
340.30 1.576
340.40 1.575
340.50 1.574
340.60 1.573
340.70 1.572
340.80 1.571
340.90 1.569
341.00 1.568
341.10 1.567
341.20 1.566
341.30 1.565
341.40 1.564
341.50 1.563
341.60 1.562
341.70 1.561
341.80 1.56
341.90 1.559
342.00 1.558
342.10 1.557
342.20 1.556
342.30 1.555
342.40 1.554
342.50 1.552
342.60 1.551
342.70 1.55
342.80 1.549
342.90 1.548
343.00 1.547
343.10 1.546
343.20 1.545
343.30 1.544
343.40 1.543
343.50 1.542
343.60 1.541
343.70 1.54
343.80 1.539
343.90 1.538
344.00 1.537
344.10 1.536
344.20 1.535
344.30 1.534
344.40 1.533
344.50 1.532
344.60 1.531
344.70 1.53
344.80 1.529
344.90 1.527
345.00 1.526
345.10 1.525
345.20 1.524
345.30 1.523
345.40 1.522
345.50 1.521
345.60 1.52
345.70 1.519
345.80 1.518
345.90 1.517
346.00 1.516
346.10 1.515
346.20 1.514
346.30 1.513
346.40 1.512
346.50 1.511
346.60 1.51
346.70 1.509
346.80 1.508
346.90 1.507
347.00 1.506
347.10 1.505
347.20 1.504
347.30 1.503
347.40 1.502
347.50 1.501
347.60 1.5
347.70 1.499
347.80 1.498
347.90 1.497
348.00 1.496
348.10 1.495
348.20 1.494
348.30 1.493
348.40 1.492
348.50 1.491
348.60 1.49
348.70 1.489
348.80 1.488
348.90 1.487
349.00 1.486
349.10 1.485
349.20 1.484
349.30 1.483
349.40 1.482
349.50 1.481
349.60 1.48
349.70 1.479
349.80 1.478
349.90 1.477
350.00 1.476
350.10 1.475
350.20 1.474
350.30 1.473
350.40 1.472
350.50 1.471
350.60 1.47
350.70 1.469
350.80 1.468
350.90 1.467
351.00 1.466
351.10 1.465
351.20 1.464
351.30 1.463
351.40 1.462
351.50 1.461
351.60 1.46
351.70 1.459
351.80 1.458
351.90 1.457
352.00 1.457
352.10 1.456
352.20 1.455
352.30 1.454
352.40 1.453
352.50 1.452
352.60 1.451
352.70 1.45
352.80 1.449
352.90 1.448
353.00 1.447
353.10 1.446
353.20 1.445
353.30 1.444
353.40 1.443
353.50 1.442
353.60 1.441
353.70 1.44
353.80 1.439
353.90 1.438
354.00 1.437
354.10 1.436
354.20 1.435
354.30 1.434
354.40 1.434
354.50 1.433
354.60 1.432
354.70 1.431
354.80 1.43
354.90 1.429
355.00 1.428
355.10 1.427
355.20 1.426
355.30 1.425
355.40 1.424
355.50 1.423
355.60 1.422
355.70 1.421
355.80 1.42
355.90 1.419
356.00 1.418
356.10 1.417
356.20 1.417
356.30 1.416
356.40 1.415
356.50 1.414
356.60 1.413
356.70 1.412
356.80 1.411
356.90 1.41
357.00 1.409
357.10 1.408
357.20 1.407
357.30 1.406
357.40 1.405
357.50 1.404
357.60 1.404
357.70 1.403
357.80 1.402
357.90 1.401
358.00 1.4
358.10 1.399
358.20 1.398
358.30 1.397
358.40 1.396
358.50 1.395
358.60 1.394
358.70 1.393
358.80 1.393
358.90 1.392
359.00 1.391
359.10 1.39
359.20 1.389
359.30 1.388
359.40 1.387
359.50 1.386
359.60 1.385
359.70 1.384
359.80 1.383
359.90 1.383
360.00 1.382
360.10 1.381
360.20 1.38
360.30 1.379
360.40 1.378
360.50 1.377
360.60 1.376
360.70 1.375
360.80 1.374
360.90 1.374
361.00 1.373
361.10 1.372
361.20 1.371
361.30 1.37
361.40 1.369
361.50 1.368
361.60 1.367
361.70 1.366
361.80 1.365
361.90 1.365
362.00 1.364
362.10 1.363
362.20 1.362
362.30 1.361
362.40 1.36
362.50 1.359
362.60 1.358
362.70 1.358
362.80 1.357
362.90 1.356
363.00 1.355
363.10 1.354
363.20 1.353
363.30 1.352
363.40 1.351
363.50 1.35
363.60 1.349
363.70 1.349
363.80 1.348
363.90 1.347
364.00 1.346
364.10 1.345
364.20 1.344
364.30 1.343
364.40 1.342
364.50 1.341
364.60 1.341
364.70 1.34
364.80 1.339
364.90 1.338
365.00 1.337
365.10 1.337
365.20 1.336
365.30 1.335
365.40 1.334
365.50 1.333
365.60 1.333
365.70 1.332
365.80 1.331
365.90 1.33
366.00 1.329
366.10 1.329
366.20 1.328
366.30 1.327
366.40 1.326
366.50 1.326
366.60 1.325
366.70 1.324
366.80 1.324
366.90 1.323
367.00 1.322
367.10 1.321
367.20 1.321
367.30 1.32
367.40 1.319
367.50 1.318
367.60 1.318
367.70 1.317
367.80 1.316
367.90 1.316
368.00 1.315
368.10 1.316
368.20 1.316
368.30 1.317
368.40 1.318
368.50 1.319
368.60 1.319
368.70 1.32
368.80 1.321
368.90 1.322
369.00 1.322
369.10 1.323
369.20 1.324
369.30 1.325
369.40 1.325
369.50 1.326
369.60 1.327
369.70 1.328
369.80 1.328
369.90 1.329
370.00 1.33
370.10 1.334
370.20 1.337
370.30 1.341
370.40 1.344
370.50 1.348
370.60 1.351
370.70 1.355
370.80 1.358
370.90 1.362
371.00 1.365
371.10 1.369
371.20 1.372
371.30 1.376
371.40 1.379
371.50 1.383
371.60 1.386
371.70 1.39
371.80 1.393
371.90 1.397
372.00 1.4
372.10 1.406
372.20 1.412
372.30 1.418
372.40 1.424
372.50 1.429
372.60 1.435
372.70 1.441
372.80 1.447
372.90 1.452
373.00 1.458
373.10 1.464
373.20 1.47
373.30 1.475
373.40 1.481
373.50 1.487
373.60 1.493
373.70 1.498
373.80 1.504
373.90 1.51
374.00 1.515
374.10 1.521
374.20 1.527
374.30 1.533
374.40 1.538
374.50 1.544
374.60 1.55
374.70 1.556
374.80 1.562
374.90 1.567
375.00 1.573
375.10 1.579
375.20 1.585
375.30 1.59
375.40 1.596
375.50 1.602
375.60 1.607
375.70 1.613
375.80 1.619
375.90 1.625
376.00 1.63
376.10 1.633
376.20 1.635
376.30 1.638
376.40 1.641
376.50 1.643
376.60 1.646
376.70 1.648
376.80 1.651
376.90 1.653
377.00 1.656
377.10 1.65
377.20 1.644
377.30 1.638
377.40 1.633
377.50 1.627
377.60 1.621
377.70 1.615
377.80 1.609
377.90 1.604
378.00 1.598
378.10 1.569
378.20 1.54
378.30 1.511
378.40 1.482
378.50 1.453
378.60 1.424
378.70 1.395
378.80 1.367
378.90 1.338
379.00 1.309
379.10 1.285
379.20 1.261
379.30 1.237
379.40 1.214
379.50 1.19
379.60 1.166
379.70 1.142
379.80 1.119
379.90 1.095
380.00 1.071
380.10 1.108
380.20 1.146
380.30 1.183
380.40 1.22
380.50 1.257
380.60 1.294
380.70 1.331
380.80 1.368
380.90 1.404
381.00 1.441
381.10 1.458
381.20 1.474
381.30 1.491
381.40 1.507
381.50 1.524
381.60 1.527
381.70 1.525
381.80 1.518
381.90 1.507
382.00 1.491
382.10 1.471
382.20 1.445
382.30 1.402
382.40 1.359
382.50 1.316
382.60 1.273
382.70 1.23
382.80 1.188
382.90 1.145
383.00 1.102
383.10 1.06
383.20 1.017
383.30 0.9693
383.40 0.9194
383.50 0.8642
383.60 0.8767
383.70 0.9296
383.80 0.9782
383.90 1.025
384.00 1.071
384.10 1.118
384.20 1.165
384.30 1.212
384.40 1.26
384.50 1.308
384.60 1.353
384.70 1.396
384.80 1.436
384.90 1.473
385.00 1.506
385.10 1.535
385.20 1.56
385.30 1.584
385.40 1.603
385.50 1.619
385.60 1.634
385.70 1.645
385.80 1.653
385.90 1.661
386.00 1.664
386.10 1.666
386.20 1.666
386.30 1.663
386.40 1.658
386.50 1.652
386.60 1.642
386.70 1.63
386.80 1.616
386.90 1.599
387.00 1.58
387.10 1.559
387.20 1.534
387.30 1.506
387.40 1.477
387.50 1.442
387.60 1.405
387.70 1.365
387.80 1.32
387.90 1.273
388.00 1.224
388.10 1.173
388.20 1.122
388.30 1.071
388.40 1.021
388.50 0.9716
388.60 0.9221
388.70 0.8699
388.80 0.8119
388.90 0.7481
389.00 0.8075
389.10 0.8631
389.20 0.915
389.30 0.9636
389.40 1.012
389.50 1.061
389.60 1.111
389.70 1.161
389.80 1.212
389.90 1.26
390.00 1.307
390.10 1.352
390.20 1.393
390.30 1.432
390.40 1.469
390.50 1.502
390.60 1.532
390.70 1.561
390.80 1.586
390.90 1.611
391.00 1.633
391.10 1.654
391.20 1.673
391.30 1.691
391.40 1.706
391.50 1.721
391.60 1.735
391.70 1.747
391.80 1.758
391.90 1.768
392.00 1.777
392.10 1.784
392.20 1.791
392.30 1.797
392.40 1.801
392.50 1.805
392.60 1.807
392.70 1.809
392.80 1.81
392.90 1.809
393.00 1.808
393.10 1.806
393.20 1.802
393.30 1.798
393.40 1.793
393.50 1.787
393.60 1.779
393.70 1.771
393.80 1.761
393.90 1.751
394.00 1.739
394.10 1.726
394.20 1.712
394.30 1.697
394.40 1.68
394.50 1.662
394.60 1.643
394.70 1.622
394.80 1.6
394.90 1.577
395.00 1.552
395.10 1.525
395.20 1.498
395.30 1.467
395.40 1.435
395.50 1.402
395.60 1.365
395.70 1.327
395.80 1.287
395.90 1.244
396.00 1.2
396.10 1.154
396.20 1.106
396.30 1.057
396.40 1.008
396.50 0.9597
396.60 0.9115
396.70 0.8637
396.80 0.8117
396.90 0.7441
397.00 0.6609
397.10 0.7381
397.20 0.8028
397.30 0.8549
397.40 0.9019
397.50 0.949
397.60 0.9962
397.70 1.044
397.80 1.092
397.90 1.138
398.00 1.183
398.10 1.226
398.20 1.268
398.30 1.306
398.40 1.343
398.50 1.379
398.60 1.411
398.70 1.442
398.80 1.471
398.90 1.498
399.00 1.524
399.10 1.549
399.20 1.571
399.30 1.593
399.40 1.614
399.50 1.633
399.60 1.651
399.70 1.668
399.80 1.684
399.90 1.699
400.00 1.714
400.10 1.727
400.20 1.739
400.30 1.751
400.40 1.761
400.50 1.771
400.60 1.781
400.70 1.789
400.80 1.797
400.90 1.805
401.00 1.812
401.10 1.818
401.20 1.824
401.30 1.829
401.40 1.834
401.50 1.839
401.60 1.843
401.70 1.847
401.80 1.85
401.90 1.853
402.00 1.856
402.10 1.858
402.20 1.86
402.30 1.862
402.40 1.863
402.50 1.864
402.60 1.865
402.70 1.866
402.80 1.866
402.90 1.866
403.00 1.866
403.10 1.866
403.20 1.866
403.30 1.865
403.40 1.864
403.50 1.863
403.60 1.862
403.70 1.86
403.80 1.858
403.90 1.856
404.00 1.854
404.10 1.852
404.20 1.849
404.30 1.846
404.40 1.843
404.50 1.84
404.60 1.837
404.70 1.833
404.80 1.829
404.90 1.825
405.00 1.82
405.10 1.815
405.20 1.81
405.30 1.804
405.40 1.799
405.50 1.792
405.60 1.786
405.70 1.779
405.80 1.772
405.90 1.764
406.00 1.756
406.10 1.747
406.20 1.738
406.30 1.729
406.40 1.719
406.50 1.708
406.60 1.697
406.70 1.685
406.80 1.673
406.90 1.659
407.00 1.645
407.10 1.63
407.20 1.615
407.30 1.598
407.40 1.58
407.50 1.562
407.60 1.542
407.70 1.521
407.80 1.499
407.90 1.476
408.00 1.453
408.10 1.428
408.20 1.402
408.30 1.375
408.40 1.347
408.50 1.318
408.60 1.288
408.70 1.257
408.80 1.224
408.90 1.19
409.00 1.155
409.10 1.118
409.20 1.08
409.30 1.041
409.40 1
409.50 0.9582
409.60 0.9154
409.70 0.8727
409.80 0.8299
409.90 0.787
410.00 0.7353
410.10 0.6743
410.20 0.6041
410.30 0.6943
410.40 0.7624
410.50 0.8084
410.60 0.85
410.70 0.8917
410.80 0.9335
410.90 0.9746
411.00 1.015
411.10 1.054
411.20 1.09
411.30 1.126
411.40 1.161
411.50 1.193
411.60 1.224
411.70 1.254
411.80 1.283
411.90 1.31
412.00 1.337
412.10 1.361
412.20 1.385
412.30 1.409
412.40 1.43
412.50 1.451
412.60 1.471
412.70 1.49
412.80 1.508
412.90 1.525
413.00 1.54
413.10 1.555
413.20 1.569
413.30 1.581
413.40 1.593
413.50 1.605
413.60 1.615
413.70 1.625
413.80 1.635
413.90 1.643
414.00 1.651
414.10 1.659
414.20 1.665
414.30 1.672
414.40 1.678
414.50 1.684
414.60 1.689
414.70 1.694
414.80 1.699
414.90 1.703
415.00 1.707
415.10 1.711
415.20 1.715
415.30 1.718
415.40 1.721
415.50 1.724
415.60 1.726
415.70 1.728
415.80 1.731
415.90 1.733
416.00 1.734
416.10 1.736
416.20 1.738
416.30 1.739
416.40 1.74
416.50 1.741
416.60 1.742
416.70 1.743
416.80 1.744
416.90 1.745
417.00 1.745
417.10 1.746
417.20 1.746
417.30 1.747
417.40 1.747
417.50 1.747
417.60 1.747
417.70 1.748
417.80 1.748
417.90 1.747
418.00 1.747
418.10 1.747
418.20 1.747
418.30 1.747
418.40 1.746
418.50 1.746
418.60 1.746
418.70 1.745
418.80 1.745
418.90 1.744
419.00 1.744
419.10 1.743
419.20 1.743
419.30 1.742
419.40 1.741
419.50 1.74
419.60 1.74
419.70 1.739
419.80 1.738
419.90 1.737
420.00 1.736
420.10 1.736
420.20 1.735
420.30 1.734
420.40 1.733
420.50 1.732
420.60 1.731
420.70 1.73
420.80 1.729
420.90 1.728
421.00 1.727
421.10 1.726
421.20 1.725
421.30 1.723
421.40 1.722
421.50 1.721
421.60 1.72
421.70 1.719
421.80 1.718
421.90 1.716
422.00 1.715
422.10 1.714
422.20 1.713
422.30 1.711
422.40 1.71
422.50 1.709
422.60 1.707
422.70 1.706
422.80 1.705
422.90 1.703
423.00 1.702
423.10 1.7
423.20 1.699
423.30 1.697
423.40 1.696
423.50 1.694
423.60 1.693
423.70 1.691
423.80 1.69
423.90 1.688
424.00 1.686
424.10 1.685
424.20 1.683
424.30 1.682
424.40 1.68
424.50 1.678
424.60 1.676
424.70 1.674
424.80 1.673
424.90 1.671
425.00 1.669
425.10 1.667
425.20 1.665
425.30 1.663
425.40 1.661
425.50 1.659
425.60 1.657
425.70 1.655
425.80 1.652
425.90 1.65
426.00 1.648
426.10 1.646
426.20 1.643
426.30 1.64
426.40 1.638
426.50 1.635
426.60 1.633
426.70 1.63
426.80 1.627
426.90 1.624
427.00 1.621
427.10 1.619
427.20 1.615
427.30 1.612
427.40 1.609
427.50 1.606
427.60 1.602
427.70 1.599
427.80 1.595
427.90 1.592
428.00 1.588
428.10 1.584
428.20 1.58
428.30 1.575
428.40 1.571
428.50 1.567
428.60 1.562
428.70 1.557
428.80 1.552
428.90 1.547
429.00 1.541
429.10 1.536
429.20 1.53
429.30 1.524
429.40 1.518
429.50 1.511
429.60 1.504
429.70 1.497
429.80 1.49
429.90 1.482
430.00 1.474
430.10 1.466
430.20 1.457
430.30 1.448
430.40 1.439
430.50 1.429
430.60 1.419
430.70 1.408
430.80 1.397
430.90 1.386
431.00 1.373
431.10 1.361
431.20 1.348
431.30 1.334
431.40 1.32
431.50 1.306
431.60 1.29
431.70 1.273
431.80 1.256
431.90 1.237
432.00 1.217
432.10 1.197
432.20 1.174
432.30 1.151
432.40 1.126
432.50 1.1
432.60 1.072
432.70 1.043
432.80 1.013
432.90 0.9827
433.00 0.9528
433.10 0.9237
433.20 0.894
433.30 0.8637
433.40 0.831
433.50 0.7976
433.60 0.7635
433.70 0.7285
433.80 0.6903
433.90 0.649
434.00 0.5413
434.10 0.5425
434.20 0.6522
434.30 0.6922
434.40 0.7292
434.50 0.7633
434.60 0.7964
434.70 0.8288
434.80 0.8603
434.90 0.8893
435.00 0.9178
435.10 0.9456
435.20 0.974
435.30 1.002
435.40 1.031
435.50 1.058
435.60 1.084
435.70 1.109
435.80 1.131
435.90 1.153
436.00 1.173
436.10 1.191
436.20 1.209
436.30 1.225
436.40 1.24
436.50 1.255
436.60 1.268
436.70 1.281
436.80 1.293
436.90 1.304
437.00 1.314
437.10 1.324
437.20 1.334
437.30 1.343
437.40 1.352
437.50 1.36
437.60 1.367
437.70 1.375
437.80 1.382
437.90 1.388
438.00 1.394
438.10 1.4
438.20 1.405
438.30 1.41
438.40 1.415
438.50 1.42
438.60 1.424
438.70 1.428
438.80 1.432
438.90 1.435
439.00 1.438
439.10 1.441
439.20 1.444
439.30 1.447
439.40 1.449
439.50 1.452
439.60 1.454
439.70 1.456
439.80 1.457
439.90 1.459
440.00 1.461
440.10 1.462
440.20 1.464
440.30 1.465
440.40 1.466
440.50 1.467
440.60 1.468
440.70 1.469
440.80 1.469
440.90 1.47
441.00 1.471
441.10 1.471
441.20 1.472
441.30 1.472
441.40 1.472
441.50 1.472
441.60 1.473
441.70 1.473
441.80 1.473
441.90 1.473
442.00 1.473
442.10 1.473
442.20 1.473
442.30 1.473
442.40 1.472
442.50 1.472
442.60 1.472
442.70 1.472
442.80 1.471
442.90 1.471
443.00 1.471
443.10 1.47
443.20 1.47
443.30 1.469
443.40 1.469
443.50 1.468
443.60 1.468
443.70 1.467
443.80 1.467
443.90 1.466
444.00 1.466
444.10 1.465
444.20 1.464
444.30 1.464
444.40 1.463
444.50 1.462
444.60 1.462
444.70 1.461
444.80 1.46
444.90 1.459
445.00 1.459
445.10 1.458
445.20 1.457
445.30 1.457
445.40 1.456
445.50 1.455
445.60 1.454
445.70 1.453
445.80 1.453
445.90 1.452
446.00 1.451
446.10 1.45
446.20 1.449
446.30 1.448
446.40 1.448
446.50 1.447
446.60 1.446
446.70 1.445
446.80 1.444
446.90 1.443
447.00 1.442
447.10 1.442
447.20 1.441
447.30 1.44
447.40 1.439
447.50 1.438
447.60 1.437
447.70 1.436
447.80 1.435
447.90 1.434
448.00 1.434
448.10 1.433
448.20 1.432
448.30 1.431
448.40 1.43
448.50 1.429
448.60 1.428
448.70 1.427
448.80 1.426
448.90 1.425
449.00 1.424
449.10 1.423
449.20 1.423
449.30 1.422
449.40 1.421
449.50 1.42
449.60 1.419
449.70 1.418
449.80 1.417
449.90 1.416
450.00 1.415
450.10 1.414
450.20 1.413
450.30 1.412
450.40 1.411
450.50 1.41
450.60 1.409
450.70 1.408
450.80 1.407
450.90 1.406
451.00 1.406
451.10 1.405
451.20 1.404
451.30 1.403
451.40 1.402
451.50 1.401
451.60 1.4
451.70 1.399
451.80 1.398
451.90 1.397
452.00 1.396
452.10 1.395
452.20 1.394
452.30 1.393
452.40 1.392
452.50 1.391
452.60 1.39
452.70 1.389
452.80 1.388
452.90 1.387
453.00 1.386
453.10 1.386
453.20 1.385
453.30 1.384
453.40 1.383
453.50 1.382
453.60 1.381
453.70 1.38
453.80 1.379
453.90 1.378
454.00 1.377
454.10 1.376
454.20 1.375
454.30 1.374
454.40 1.373
454.50 1.372
454.60 1.371
454.70 1.37
454.80 1.369
454.90 1.368
455.00 1.367
455.10 1.366
455.20 1.365
455.30 1.364
455.40 1.363
455.50 1.362
455.60 1.362
455.70 1.361
455.80 1.36
455.90 1.359
456.00 1.358
456.10 1.357
456.20 1.356
456.30 1.355
456.40 1.354
456.50 1.353
456.60 1.352
456.70 1.351
456.80 1.35
456.90 1.349
457.00 1.348
457.10 1.347
457.20 1.346
457.30 1.345
457.40 1.345
457.50 1.344
457.60 1.343
457.70 1.342
457.80 1.341
457.90 1.34
458.00 1.339
458.10 1.338
458.20 1.337
458.30 1.336
458.40 1.335
458.50 1.334
458.60 1.333
458.70 1.332
458.80 1.331
458.90 1.33
459.00 1.329
459.10 1.328
459.20 1.327
459.30 1.326
459.40 1.326
459.50 1.325
459.60 1.324
459.70 1.323
459.80 1.322
459.90 1.321
460.00 1.32
460.10 1.319
460.20 1.318
460.30 1.317
460.40 1.316
460.50 1.315
460.60 1.314
460.70 1.313
460.80 1.312
460.90 1.311
461.00 1.311
461.10 1.31
461.20 1.309
461.30 1.308
461.40 1.307
461.50 1.306
461.60 1.305
461.70 1.304
461.80 1.303
461.90 1.302
462.00 1.301
462.10 1.3
462.20 1.299
462.30 1.298
462.40 1.297
462.50 1.296
462.60 1.295
462.70 1.295
462.80 1.294
462.90 1.293
463.00 1.292
463.10 1.291
463.20 1.29
463.30 1.289
463.40 1.288
463.50 1.287
463.60 1.286
463.70 1.285
463.80 1.284
463.90 1.283
464.00 1.282
464.10 1.282
464.20 1.281
464.30 1.28
464.40 1.279
464.50 1.278
464.60 1.277
464.70 1.276
464.80 1.275
464.90 1.274
465.00 1.273
465.10 1.272
465.20 1.271
465.30 1.27
465.40 1.269
465.50 1.268
465.60 1.268
465.70 1.267
465.80 1.266
465.90 1.265
466.00 1.264
466.10 1.263
466.20 1.262
466.30 1.261
466.40 1.26
466.50 1.259
466.60 1.258
466.70 1.257
466.80 1.256
466.90 1.255
467.00 1.254
467.10 1.254
467.20 1.253
467.30 1.252
467.40 1.251
467.50 1.25
467.60 1.249
467.70 1.248
467.80 1.247
467.90 1.246
468.00 1.245
468.10 1.244
468.20 1.243
468.30 1.242
468.40 1.241
468.50 1.24
468.60 1.239
468.70 1.239
468.80 1.238
468.90 1.237
469.00 1.236
469.10 1.235
469.20 1.234
469.30 1.233
469.40 1.232
469.50 1.231
469.60 1.23
469.70 1.229
469.80 1.228
469.90 1.227
470.00 1.226
470.10 1.225
470.20 1.224
470.30 1.223
470.40 1.222
470.50 1.221
470.60 1.22
470.70 1.219
470.80 1.219
470.90 1.218
471.00 1.217
471.10 1.216
471.20 1.215
471.30 1.214
471.40 1.213
471.50 1.212
471.60 1.211
471.70 1.21
471.80 1.209
471.90 1.208
472.00 1.207
472.10 1.206
472.20 1.205
472.30 1.204
472.40 1.203
472.50 1.202
472.60 1.201
472.70 1.2
472.80 1.199
472.90 1.198
473.00 1.197
473.10 1.196
473.20 1.195
473.30 1.194
473.40 1.192
473.50 1.191
473.60 1.19
473.70 1.189
473.80 1.188
473.90 1.187
474.00 1.186
474.10 1.185
474.20 1.184
474.30 1.183
474.40 1.182
474.50 1.181
474.60 1.179
474.70 1.178
474.80 1.177
474.90 1.176
475.00 1.175
475.10 1.174
475.20 1.173
475.30 1.171
475.40 1.17
475.50 1.169
475.60 1.168
475.70 1.167
475.80 1.165
475.90 1.164
476.00 1.163
476.10 1.162
476.20 1.16
476.30 1.159
476.40 1.158
476.50 1.156
476.60 1.155
476.70 1.154
476.80 1.152
476.90 1.151
477.00 1.15
477.10 1.148
477.20 1.147
477.30 1.145
477.40 1.144
477.50 1.142
477.60 1.141
477.70 1.139
477.80 1.137
477.90 1.136
478.00 1.134
478.10 1.133
478.20 1.131
478.30 1.129
478.40 1.127
478.50 1.125
478.60 1.123
478.70 1.121
478.80 1.12
478.90 1.118
479.00 1.116
479.10 1.114
479.20 1.112
479.30 1.109
479.40 1.107
479.50 1.104
479.60 1.102
479.70 1.099
479.80 1.097
479.90 1.095
480.00 1.092
480.10 1.09
480.20 1.087
480.30 1.084
480.40 1.08
480.50 1.077
480.60 1.074
480.70 1.07
480.80 1.067
480.90 1.064
481.00 1.061
481.10 1.057
481.20 1.053
481.30 1.048
481.40 1.044
481.50 1.039
481.60 1.034
481.70 1.03
481.80 1.025
481.90 1.02
482.00 1.016
482.10 1.011
482.20 1.005
482.30 0.9976
482.40 0.9906
482.50 0.9835
482.60 0.9765
482.70 0.9695
482.80 0.9625
482.90 0.9555
483.00 0.9485
483.10 0.9415
483.20 0.9321
483.30 0.9215
483.40 0.911
483.50 0.9004
483.60 0.8899
483.70 0.8794
483.80 0.8688
483.90 0.8583
484.00 0.8478
484.10 0.8373
484.20 0.8247
484.30 0.8111
484.40 0.7975
484.50 0.7839
484.60 0.7703
484.70 0.7553
484.80 0.7396
484.90 0.7239
485.00 0.7083
485.10 0.6926
485.20 0.6762
485.30 0.6593
485.40 0.6415
485.50 0.6232
485.60 0.6037
485.70 0.5838
485.80 0.5616
485.90 0.5382
486.00 0.5082
486.10 0.4
486.20 0.4603
486.30 0.5197
486.40 0.5448
486.50 0.5677
486.60 0.5882
486.70 0.6075
486.80 0.6256
486.90 0.6432
487.00 0.6598
487.10 0.6758
487.20 0.691
487.30 0.7057
487.40 0.7204
487.50 0.7351
487.60 0.7498
487.70 0.763
487.80 0.7755
487.90 0.7879
488.00 0.8003
488.10 0.8128
488.20 0.823
488.30 0.8321
488.40 0.8413
488.50 0.8505
488.60 0.8596
488.70 0.8688
488.80 0.8779
488.90 0.887
489.00 0.8961
489.10 0.9053
489.20 0.9119
489.30 0.9173
489.40 0.9228
489.50 0.9282
489.60 0.9337
489.70 0.9391
489.80 0.9445
489.90 0.9499
490.00 0.9554
490.10 0.9608
490.20 0.9646
490.30 0.9677
490.40 0.9707
490.50 0.9738
490.60 0.9769
490.70 0.9799
490.80 0.983
490.90 0.9861
491.00 0.9891
491.10 0.9922
491.20 0.9943
491.30 0.9959
491.40 0.9975
491.50 0.9992
491.60 1.001
491.70 1.002
491.80 1.004
491.90 1.006
492.00 1.007
492.10 1.009
492.20 1.01
492.30 1.011
492.40 1.011
492.50 1.012
492.60 1.013
492.70 1.014
492.80 1.015
492.90 1.015
493.00 1.016
493.10 1.017
493.20 1.017
493.30 1.018
493.40 1.018
493.50 1.018
493.60 1.019
493.70 1.019
493.80 1.019
493.90 1.019
494.00 1.02
494.10 1.02
494.20 1.02
494.30 1.02
494.40 1.02
494.50 1.02
494.60 1.02
494.70 1.02
494.80 1.02
494.90 1.02
495.00 1.02
495.10 1.02
495.20 1.02
495.30 1.019
495.40 1.019
495.50 1.019
495.60 1.019
495.70 1.018
495.80 1.018
495.90 1.018
496.00 1.018
496.10 1.018
496.20 1.017
496.30 1.017
496.40 1.016
496.50 1.016
496.60 1.016
496.70 1.015
496.80 1.015
496.90 1.015
497.00 1.014
497.10 1.014
497.20 1.014
497.30 1.013
497.40 1.013
497.50 1.012
497.60 1.012
497.70 1.011
497.80 1.011
497.90 1.011
498.00 1.01
498.10 1.01
498.20 1.009
498.30 1.009
498.40 1.008
498.50 1.008
498.60 1.007
498.70 1.007
498.80 1.006
498.90 1.006
499.00 1.005
499.10 1.005
499.20 1.004
499.30 1.004
499.40 1.003
499.50 1.003
499.60 1.002
499.70 1.002
499.80 1.001
499.90 1.001
500.00 1
500.10 0.9995
500.20 0.9989
500.30 0.9984
500.40 0.9978
500.50 0.9973
500.60 0.9967
500.70 0.9961
500.80 0.9956
500.90 0.995
501.00 0.9945
501.10 0.9939
501.20 0.9934
501.30 0.9928
501.40 0.9922
501.50 0.9916
501.60 0.9911
501.70 0.9905
501.80 0.9899
501.90 0.9894
502.00 0.9888
502.10 0.9882
502.20 0.9877
502.30 0.9871
502.40 0.9865
502.50 0.9859
502.60 0.9853
502.70 0.9847
502.80 0.9842
502.90 0.9836
503.00 0.983
503.10 0.9824
503.20 0.9818
503.30 0.9812
503.40 0.9807
503.50 0.9801
503.60 0.9795
503.70 0.9789
503.80 0.9783
503.90 0.9777
504.00 0.9771
504.10 0.9765
504.20 0.9759
504.30 0.9753
504.40 0.9747
504.50 0.9741
504.60 0.9735
504.70 0.9729
504.80 0.9723
504.90 0.9717
505.00 0.9711
505.10 0.9705
505.20 0.9699
505.30 0.9693
505.40 0.9687
505.50 0.9681
505.60 0.9676
505.70 0.967
505.80 0.9664
505.90 0.9658
506.00 0.9652
506.10 0.9646
506.20 0.964
506.30 0.9634
506.40 0.9628
506.50 0.9622
506.60 0.9616
506.70 0.961
506.80 0.9604
506.90 0.9598
507.00 0.9592
507.10 0.9586
507.20 0.958
507.30 0.9574
507.40 0.9568
507.50 0.9562
507.60 0.9556
507.70 0.955
507.80 0.9544
507.90 0.9538
508.00 0.9532
508.10 0.9526
508.20 0.952
508.30 0.9514
508.40 0.9508
508.50 0.9502
508.60 0.9496
508.70 0.949
508.80 0.9484
508.90 0.9478
509.00 0.9472
509.10 0.9466
509.20 0.946
509.30 0.9454
509.40 0.9448
509.50 0.9442
509.60 0.9436
509.70 0.943
509.80 0.9424
509.90 0.9419
510.00 0.9413
510.10 0.9407
510.20 0.9401
510.30 0.9395
510.40 0.9389
510.50 0.9383
510.60 0.9377
510.70 0.9371
510.80 0.9365
510.90 0.9359
511.00 0.9353
511.10 0.9347
511.20 0.9341
511.30 0.9335
511.40 0.9329
511.50 0.9323
511.60 0.9317
511.70 0.9311
511.80 0.9305
511.90 0.9299
512.00 0.9293
512.10 0.9287
512.20 0.9282
512.30 0.9276
512.40 0.927
512.50 0.9264
512.60 0.9258
512.70 0.9252
512.80 0.9246
512.90 0.9241
513.00 0.9235
513.10 0.9229
513.20 0.9223
513.30 0.9217
513.40 0.9211
513.50 0.9206
513.60 0.92
513.70 0.9194
513.80 0.9188
513.90 0.9182
514.00 0.9177
514.10 0.9171
514.20 0.9165
514.30 0.9159
514.40 0.9153
514.50 0.9147
514.60 0.9141
514.70 0.9135
514.80 0.913
514.90 0.9124
515.00 0.9118
515.10 0.9112
515.20 0.9106
515.30 0.9101
515.40 0.9095
515.50 0.9089
515.60 0.9083
515.70 0.9078
515.80 0.9072
515.90 0.9066
516.00 0.906
516.10 0.9055
516.20 0.9049
516.30 0.9043
516.40 0.9037
516.50 0.9032
516.60 0.9026
516.70 0.902
516.80 0.9015
516.90 0.9009
517.00 0.9003
517.10 0.8997
517.20 0.8992
517.30 0.8986
517.40 0.898
517.50 0.8974
517.60 0.8969
517.70 0.8963
517.80 0.8957
517.90 0.8951
518.00 0.8946
518.10 0.894
518.20 0.8934
518.30 0.8929
518.40 0.8923
518.50 0.8917
518.60 0.8912
518.70 0.8906
518.80 0.89
518.90 0.8895
519.00 0.8889
519.10 0.8884
519.20 0.8878
519.30 0.8872
519.40 0.8867
519.50 0.8861
519.60 0.8856
519.70 0.885
519.80 0.8844
519.90 0.8839
520.00 0.8833
520.10 0.8828
520.20 0.8822
520.30 0.8816
520.40 0.8811
520.50 0.8805
520.60 0.8799
520.70 0.8794
520.80 0.8788
520.90 0.8782
521.00 0.8777
521.10 0.8771
521.20 0.8766
521.30 0.876
521.40 0.8755
521.50 0.8749
521.60 0.8744
521.70 0.8738
521.80 0.8732
521.90 0.8727
522.00 0.8721
522.10 0.8716
522.20 0.871
522.30 0.8705
522.40 0.8699
522.50 0.8694
522.60 0.8688
522.70 0.8683
522.80 0.8677
522.90 0.8672
523.00 0.8667
523.10 0.8661
523.20 0.8656
523.30 0.865
523.40 0.8645
523.50 0.8639
523.60 0.8634
523.70 0.8628
523.80 0.8623
523.90 0.8617
524.00 0.8612
524.10 0.8607
524.20 0.8601
524.30 0.8596
524.40 0.859
524.50 0.8585
524.60 0.8579
524.70 0.8574
524.80 0.8569
524.90 0.8563
525.00 0.8558
525.10 0.8552
525.20 0.8547
525.30 0.8542
525.40 0.8536
525.50 0.8531
525.60 0.8525
525.70 0.852
525.80 0.8515
525.90 0.8509
526.00 0.8504
526.10 0.8499
526.20 0.8493
526.30 0.8488
526.40 0.8482
526.50 0.8477
526.60 0.8472
526.70 0.8466
526.80 0.8461
526.90 0.8456
527.00 0.845
527.10 0.8445
527.20 0.844
527.30 0.8434
527.40 0.8429
527.50 0.8424
527.60 0.8418
527.70 0.8413
527.80 0.8408
527.90 0.8403
528.00 0.8397
528.10 0.8392
528.20 0.8387
528.30 0.8381
528.40 0.8376
528.50 0.8371
528.60 0.8366
528.70 0.8361
528.80 0.8355
528.90 0.835
529.00 0.8345
529.10 0.834
529.20 0.8335
529.30 0.8329
529.40 0.8324
529.50 0.8319
529.60 0.8314
529.70 0.8308
529.80 0.8303
529.90 0.8298
530.00 0.8293
530.10 0.8287
530.20 0.8282
530.30 0.8277
530.40 0.8272
530.50 0.8267
530.60 0.8262
530.70 0.8257
530.80 0.8251
530.90 0.8246
531.00 0.8241
531.10 0.8236
531.20 0.8231
531.30 0.8226
531.40 0.822
531.50 0.8215
531.60 0.821
531.70 0.8205
531.80 0.82
531.90 0.8195
532.00 0.8189
532.10 0.8184
532.20 0.8179
532.30 0.8174
532.40 0.8169
532.50 0.8164
532.60 0.8159
532.70 0.8154
532.80 0.8149
532.90 0.8144
533.00 0.8139
533.10 0.8134
533.20 0.8128
533.30 0.8123
533.40 0.8118
533.50 0.8113
533.60 0.8108
533.70 0.8103
533.80 0.8098
533.90 0.8093
534.00 0.8088
534.10 0.8083
534.20 0.8078
534.30 0.8073
534.40 0.8068
534.50 0.8063
534.60 0.8058
534.70 0.8053
534.80 0.8048
534.90 0.8042
535.00 0.8037
535.10 0.8032
535.20 0.8027
535.30 0.8022
535.40 0.8017
535.50 0.8012
535.60 0.8007
535.70 0.8002
535.80 0.7997
535.90 0.7993
536.00 0.7988
536.10 0.7983
536.20 0.7978
536.30 0.7973
536.40 0.7968
536.50 0.7963
536.60 0.7958
536.70 0.7953
536.80 0.7948
536.90 0.7943
537.00 0.7938
537.10 0.7933
537.20 0.7928
537.30 0.7923
537.40 0.7918
537.50 0.7913
537.60 0.7909
537.70 0.7904
537.80 0.7899
537.90 0.7894
538.00 0.7889
538.10 0.7884
538.20 0.7879
538.30 0.7874
538.40 0.787
538.50 0.7865
538.60 0.786
538.70 0.7855
538.80 0.785
538.90 0.7846
539.00 0.7841
539.10 0.7836
539.20 0.7831
539.30 0.7826
539.40 0.7821
539.50 0.7817
539.60 0.7812
539.70 0.7807
539.80 0.7802
539.90 0.7797
540.00 0.7792
540.10 0.7788
540.20 0.7783
540.30 0.7778
540.40 0.7773
540.50 0.7768
540.60 0.7763
540.70 0.7759
540.80 0.7754
540.90 0.7749
541.00 0.7744
541.10 0.7739
541.20 0.7735
541.30 0.773
541.40 0.7725
541.50 0.772
541.60 0.7716
541.70 0.7711
541.80 0.7706
541.90 0.7702
542.00 0.7697
542.10 0.7692
542.20 0.7687
542.30 0.7683
542.40 0.7678
542.50 0.7673
542.60 0.7668
542.70 0.7664
542.80 0.7659
542.90 0.7654
543.00 0.7649
543.10 0.7645
543.20 0.764
543.30 0.7635
543.40 0.7631
543.50 0.7626
543.60 0.7621
543.70 0.7617
543.80 0.7612
543.90 0.7607
544.00 0.7603
544.10 0.7598
544.20 0.7593
544.30 0.7589
544.40 0.7584
544.50 0.7579
544.60 0.7575
544.70 0.757
544.80 0.7566
544.90 0.7561
545.00 0.7556
545.10 0.7552
545.20 0.7547
545.30 0.7543
545.40 0.7538
545.50 0.7533
545.60 0.7529
545.70 0.7524
545.80 0.752
545.90 0.7515
546.00 0.751
546.10 0.7506
546.20 0.7501
546.30 0.7497
546.40 0.7492
546.50 0.7488
546.60 0.7483
546.70 0.7479
546.80 0.7474
546.90 0.747
547.00 0.7465
547.10 0.7461
547.20 0.7456
547.30 0.7452
547.40 0.7447
547.50 0.7442
547.60 0.7438
547.70 0.7433
547.80 0.7428
547.90 0.7424
548.00 0.7419
548.10 0.7415
548.20 0.741
548.30 0.7406
548.40 0.7401
548.50 0.7397
548.60 0.7392
548.70 0.7388
548.80 0.7384
548.90 0.7379
549.00 0.7375
549.10 0.737
549.20 0.7366
549.30 0.7361
549.40 0.7357
549.50 0.7352
549.60 0.7348
549.70 0.7343
549.80 0.7339
549.90 0.7334
550.00 0.733
550.10 0.7325
550.20 0.7321
550.30 0.7316
550.40 0.7312
550.50 0.7308
550.60 0.7303
550.70 0.7299
550.80 0.7294
550.90 0.729
551.00 0.7285
551.10 0.7281
551.20 0.7276
551.30 0.7272
551.40 0.7267
551.50 0.7263
551.60 0.7259
551.70 0.7254
551.80 0.725
551.90 0.7245
552.00 0.7241
552.10 0.7236
552.20 0.7232
552.30 0.7228
552.40 0.7223
552.50 0.7219
552.60 0.7215
552.70 0.721
552.80 0.7206
552.90 0.7202
553.00 0.7197
553.10 0.7193
553.20 0.7189
553.30 0.7184
553.40 0.718
553.50 0.7176
553.60 0.7171
553.70 0.7167
553.80 0.7163
553.90 0.7158
554.00 0.7154
554.10 0.7149
554.20 0.7145
554.30 0.7141
554.40 0.7137
554.50 0.7132
554.60 0.7128
554.70 0.7124
554.80 0.7119
554.90 0.7115
555.00 0.7111
555.10 0.7107
555.20 0.7102
555.30 0.7098
555.40 0.7094
555.50 0.7089
555.60 0.7085
555.70 0.7081
555.80 0.7077
555.90 0.7072
556.00 0.7068
556.10 0.7064
556.20 0.706
556.30 0.7055
556.40 0.7051
556.50 0.7047
556.60 0.7042
556.70 0.7038
556.80 0.7034
556.90 0.703
557.00 0.7026
557.10 0.7021
557.20 0.7017
557.30 0.7013
557.40 0.7009
557.50 0.7004
557.60 0.7
557.70 0.6996
557.80 0.6992
557.90 0.6988
558.00 0.6983
558.10 0.6979
558.20 0.6975
558.30 0.6971
558.40 0.6967
558.50 0.6962
558.60 0.6958
558.70 0.6954
558.80 0.695
558.90 0.6946
559.00 0.6942
559.10 0.6937
559.20 0.6933
559.30 0.6929
559.40 0.6925
559.50 0.6921
559.60 0.6917
559.70 0.6913
559.80 0.6908
559.90 0.6904
560.00 0.69
560.10 0.6896
560.20 0.6892
560.30 0.6888
560.40 0.6884
560.50 0.6879
560.60 0.6875
560.70 0.6871
560.80 0.6867
560.90 0.6863
561.00 0.6859
561.10 0.6855
561.20 0.6851
561.30 0.6847
561.40 0.6843
561.50 0.6838
561.60 0.6834
561.70 0.683
561.80 0.6826
561.90 0.6822
562.00 0.6818
562.10 0.6814
562.20 0.681
562.30 0.6806
562.40 0.6802
562.50 0.6798
562.60 0.6794
562.70 0.679
562.80 0.6786
562.90 0.6782
563.00 0.6777
563.10 0.6773
563.20 0.6769
563.30 0.6765
563.40 0.6761
563.50 0.6757
563.60 0.6753
563.70 0.6749
563.80 0.6745
563.90 0.6741
564.00 0.6737
564.10 0.6733
564.20 0.6729
564.30 0.6725
564.40 0.6721
564.50 0.6717
564.60 0.6713
564.70 0.6709
564.80 0.6705
564.90 0.6701
565.00 0.6697
565.10 0.6693
565.20 0.6689
565.30 0.6685
565.40 0.6681
565.50 0.6677
565.60 0.6673
565.70 0.667
565.80 0.6666
565.90 0.6662
566.00 0.6658
566.10 0.6654
566.20 0.665
566.30 0.6646
566.40 0.6642
566.50 0.6638
566.60 0.6634
566.70 0.663
566.80 0.6626
566.90 0.6622
567.00 0.6618
567.10 0.6614
567.20 0.661
567.30 0.6607
567.40 0.6603
567.50 0.6599
567.60 0.6595
567.70 0.6591
567.80 0.6587
567.90 0.6583
568.00 0.6579
568.10 0.6575
568.20 0.6571
568.30 0.6568
568.40 0.6564
568.50 0.656
568.60 0.6556
568.70 0.6552
568.80 0.6548
568.90 0.6544
569.00 0.654
569.10 0.6537
569.20 0.6533
569.30 0.6529
569.40 0.6525
569.50 0.6521
569.60 0.6517
569.70 0.6513
569.80 0.651
569.90 0.6506
570.00 0.6502
570.10 0.6498
570.20 0.6494
570.30 0.649
570.40 0.6487
570.50 0.6483
570.60 0.6479
570.70 0.6475
570.80 0.6471
570.90 0.6468
571.00 0.6464
571.10 0.646
571.20 0.6456
571.30 0.6452
571.40 0.6449
571.50 0.6445
571.60 0.6441
571.70 0.6437
571.80 0.6433
571.90 0.643
572.00 0.6426
572.10 0.6422
572.20 0.6418
572.30 0.6414
572.40 0.6411
572.50 0.6407
572.60 0.6403
572.70 0.6399
572.80 0.6396
572.90 0.6392
573.00 0.6388
573.10 0.6384
573.20 0.6381
573.30 0.6377
573.40 0.6373
573.50 0.6369
573.60 0.6366
573.70 0.6362
573.80 0.6358
573.90 0.6355
574.00 0.6351
574.10 0.6347
574.20 0.6343
574.30 0.634
574.40 0.6336
574.50 0.6332
574.60 0.6329
574.70 0.6325
574.80 0.6321
574.90 0.6317
575.00 0.6314
575.10 0.631
575.20 0.6306
575.30 0.6303
575.40 0.6299
575.50 0.6295
575.60 0.6292
575.70 0.6288
575.80 0.6284
575.90 0.6281
576.00 0.6277
576.10 0.6273
576.20 0.627
576.30 0.6266
576.40 0.6262
576.50 0.6259
576.60 0.6255
576.70 0.6251
576.80 0.6248
576.90 0.6244
577.00 0.624
577.10 0.6237
577.20 0.6233
577.30 0.6229
577.40 0.6226
577.50 0.6222
577.60 0.6219
577.70 0.6215
577.80 0.6211
577.90 0.6208
578.00 0.6204
578.10 0.62
578.20 0.6197
578.30 0.6193
578.40 0.619
578.50 0.6186
578.60 0.6182
578.70 0.6179
578.80 0.6175
578.90 0.6172
579.00 0.6168
579.10 0.6165
579.20 0.6161
579.30 0.6157
579.40 0.6154
579.50 0.615
579.60 0.6147
579.70 0.6143
579.80 0.6139
579.90 0.6136
580.00 0.6132
580.10 0.6129
580.20 0.6125
580.30 0.6122
580.40 0.6118
580.50 0.6115
580.60 0.6111
580.70 0.6108
580.80 0.6104
580.90 0.61
581.00 0.6097
581.10 0.6093
581.20 0.609
581.30 0.6086
581.40 0.6083
581.50 0.6079
581.60 0.6076
581.70 0.6072
581.80 0.6069
581.90 0.6065
582.00 0.6062
582.10 0.6058
582.20 0.6055
582.30 0.6051
582.40 0.6048
582.50 0.6044
582.60 0.6041
582.70 0.6037
582.80 0.6034
582.90 0.603
583.00 0.6027
583.10 0.6023
583.20 0.602
583.30 0.6016
583.40 0.6013
583.50 0.6009
583.60 0.6006
583.70 0.6002
583.80 0.5999
583.90 0.5995
584.00 0.5992
584.10 0.5989
584.20 0.5985
584.30 0.5982
584.40 0.5978
584.50 0.5975
584.60 0.5971
584.70 0.5968
584.80 0.5964
584.90 0.5961
585.00 0.5958
585.10 0.5954
585.20 0.5951
585.30 0.5947
585.40 0.5944
585.50 0.594
585.60 0.5937
585.70 0.5934
585.80 0.593
585.90 0.5927
586.00 0.5923
586.10 0.592
586.20 0.5916
586.30 0.5913
586.40 0.591
586.50 0.5906
586.60 0.5903
586.70 0.59
586.80 0.5896
586.90 0.5893
587.00 0.5889
587.10 0.5886
587.20 0.5883
587.30 0.5879
587.40 0.5876
587.50 0.5872
587.60 0.5869
587.70 0.5866
587.80 0.5862
587.90 0.5859
588.00 0.5856
588.10 0.5852
588.20 0.5849
588.30 0.5846
588.40 0.5842
588.50 0.5839
588.60 0.5836
588.70 0.5832
588.80 0.5829
588.90 0.5825
589.00 0.5822
589.10 0.5819
589.20 0.5815
589.30 0.5812
589.40 0.5809
589.50 0.5806
589.60 0.5802
589.70 0.5799
589.80 0.5796
589.90 0.5792
590.00 0.5789
590.10 0.5786
590.20 0.5782
590.30 0.5779
590.40 0.5776
590.50 0.5772
590.60 0.5769
590.70 0.5766
590.80 0.5763
590.90 0.5759
591.00 0.5756
591.10 0.5753
591.20 0.5749
591.30 0.5746
591.40 0.5743
591.50 0.574
591.60 0.5736
591.70 0.5733
591.80 0.573
591.90 0.5726
592.00 0.5723
592.10 0.572
592.20 0.5717
592.30 0.5713
592.40 0.571
592.50 0.5707
592.60 0.5704
592.70 0.57
592.80 0.5697
592.90 0.5694
593.00 0.5691
593.10 0.5687
593.20 0.5684
593.30 0.5681
593.40 0.5678
593.50 0.5675
593.60 0.5671
593.70 0.5668
593.80 0.5665
593.90 0.5662
594.00 0.5658
594.10 0.5655
594.20 0.5652
594.30 0.5649
594.40 0.5646
594.50 0.5642
594.60 0.5639
594.70 0.5636
594.80 0.5633
594.90 0.563
595.00 0.5626
595.10 0.5623
595.20 0.562
595.30 0.5617
595.40 0.5614
595.50 0.561
595.60 0.5607
595.70 0.5604
595.80 0.5601
595.90 0.5598
596.00 0.5595
596.10 0.5591
596.20 0.5588
596.30 0.5585
596.40 0.5581
596.50 0.5578
596.60 0.5575
596.70 0.5572
596.80 0.5568
596.90 0.5565
597.00 0.5562
597.10 0.5558
597.20 0.5555
597.30 0.5552
597.40 0.5549
597.50 0.5546
597.60 0.5543
597.70 0.5539
597.80 0.5536
597.90 0.5533
598.00 0.553
598.10 0.5527
598.20 0.5524
598.30 0.5521
598.40 0.5517
598.50 0.5514
598.60 0.5511
598.70 0.5508
598.80 0.5505
598.90 0.5502
599.00 0.5499
599.10 0.5496
599.20 0.5493
599.30 0.5489
599.40 0.5486
599.50 0.5483
599.60 0.548
599.70 0.5477
599.80 0.5474
599.90 0.5471
600.00 0.5468
600.10 0.5465
600.20 0.5462
600.30 0.5459
600.40 0.5455
600.50 0.5452
600.60 0.5449
600.70 0.5446
600.80 0.5443
600.90 0.544
601.00 0.5437
601.10 0.5434
601.20 0.5431
601.30 0.5428
601.40 0.5425
601.50 0.5422
601.60 0.5419
601.70 0.5416
601.80 0.5413
601.90 0.541
602.00 0.5407
602.10 0.5403
602.20 0.54
602.30 0.5397
602.40 0.5394
602.50 0.5391
602.60 0.5388
602.70 0.5385
602.80 0.5382
602.90 0.5379
603.00 0.5376
603.10 0.5373
603.20 0.537
603.30 0.5367
603.40 0.5364
603.50 0.5361
603.60 0.5358
603.70 0.5355
603.80 0.5352
603.90 0.5349
604.00 0.5346
604.10 0.5343
604.20 0.534
604.30 0.5337
604.40 0.5334
604.50 0.5331
604.60 0.5328
604.70 0.5325
604.80 0.5322
604.90 0.5319
605.00 0.5316
605.10 0.5313
605.20 0.531
605.30 0.5307
605.40 0.5304
605.50 0.5301
605.60 0.5298
605.70 0.5295
605.80 0.5292
605.90 0.5289
606.00 0.5286
606.10 0.5283
606.20 0.5281
606.30 0.5278
606.40 0.5275
606.50 0.5272
606.60 0.5269
606.70 0.5266
606.80 0.5263
606.90 0.526
607.00 0.5257
607.10 0.5254
607.20 0.5251
607.30 0.5248
607.40 0.5245
607.50 0.5242
607.60 0.5239
607.70 0.5236
607.80 0.5234
607.90 0.5231
608.00 0.5228
608.10 0.5225
608.20 0.5222
608.30 0.5219
608.40 0.5216
608.50 0.5213
608.60 0.521
608.70 0.5207
608.80 0.5204
608.90 0.5201
609.00 0.5199
609.10 0.5196
609.20 0.5193
609.30 0.519
609.40 0.5187
609.50 0.5184
609.60 0.5181
609.70 0.5178
609.80 0.5175
609.90 0.5173
610.00 0.517
610.10 0.5167
610.20 0.5164
610.30 0.5161
610.40 0.5158
610.50 0.5155
610.60 0.5152
610.70 0.515
610.80 0.5147
610.90 0.5144
611.00 0.5141
611.10 0.5138
611.20 0.5135
611.30 0.5132
611.40 0.5129
611.50 0.5127
611.60 0.5124
611.70 0.5121
611.80 0.5118
611.90 0.5115
612.00 0.5112
612.10 0.511
612.20 0.5107
612.30 0.5104
612.40 0.5101
612.50 0.5098
612.60 0.5095
612.70 0.5093
612.80 0.509
612.90 0.5087
613.00 0.5084
613.10 0.5081
613.20 0.5078
613.30 0.5076
613.40 0.5073
613.50 0.507
613.60 0.5067
613.70 0.5064
613.80 0.5062
613.90 0.5059
614.00 0.5056
614.10 0.5053
614.20 0.505
614.30 0.5048
614.40 0.5045
614.50 0.5042
614.60 0.5039
614.70 0.5036
614.80 0.5034
614.90 0.5031
615.00 0.5028
615.10 0.5025
615.20 0.5022
615.30 0.502
615.40 0.5017
615.50 0.5014
615.60 0.5011
615.70 0.5009
615.80 0.5006
615.90 0.5003
616.00 0.5
616.10 0.4997
616.20 0.4995
616.30 0.4992
616.40 0.4989
616.50 0.4986
616.60 0.4984
616.70 0.4981
616.80 0.4978
616.90 0.4975
617.00 0.4973
617.10 0.497
617.20 0.4967
617.30 0.4964
617.40 0.4962
617.50 0.4959
617.60 0.4956
617.70 0.4953
617.80 0.4951
617.90 0.4948
618.00 0.4945
618.10 0.4942
618.20 0.494
618.30 0.4937
618.40 0.4934
618.50 0.4932
618.60 0.4929
618.70 0.4926
618.80 0.4923
618.90 0.4921
619.00 0.4918
619.10 0.4915
619.20 0.4912
619.30 0.491
619.40 0.4907
619.50 0.4904
619.60 0.4902
619.70 0.4899
619.80 0.4896
619.90 0.4894
620.00 0.4891
620.10 0.4888
620.20 0.4885
620.30 0.4883
620.40 0.488
620.50 0.4877
620.60 0.4875
620.70 0.4872
620.80 0.4869
620.90 0.4867
621.00 0.4864
621.10 0.4861
621.20 0.4859
621.30 0.4856
621.40 0.4853
621.50 0.4851
621.60 0.4848
621.70 0.4845
621.80 0.4843
621.90 0.484
622.00 0.4837
622.10 0.4835
622.20 0.4832
622.30 0.4829
622.40 0.4827
622.50 0.4824
622.60 0.4821
622.70 0.4819
622.80 0.4816
622.90 0.4813
623.00 0.4811
623.10 0.4808
623.20 0.4805
623.30 0.4803
623.40 0.48
623.50 0.4797
623.60 0.4795
623.70 0.4792
623.80 0.4789
623.90 0.4787
624.00 0.4784
624.10 0.4782
624.20 0.4779
624.30 0.4776
624.40 0.4774
624.50 0.4771
624.60 0.4768
624.70 0.4766
624.80 0.4763
624.90 0.476
625.00 0.4758
625.10 0.4755
625.20 0.4753
625.30 0.475
625.40 0.4747
625.50 0.4745
625.60 0.4742
625.70 0.474
625.80 0.4737
625.90 0.4734
626.00 0.4732
626.10 0.4729
626.20 0.4726
626.30 0.4724
626.40 0.4721
626.50 0.4719
626.60 0.4716
626.70 0.4713
626.80 0.4711
626.90 0.4708
627.00 0.4706
627.10 0.4703
627.20 0.47
627.30 0.4698
627.40 0.4695
627.50 0.4693
627.60 0.469
627.70 0.4688
627.80 0.4685
627.90 0.4682
628.00 0.468
628.10 0.4677
628.20 0.4675
628.30 0.4672
628.40 0.4669
628.50 0.4667
628.60 0.4664
628.70 0.4662
628.80 0.4659
628.90 0.4657
629.00 0.4654
629.10 0.4651
629.20 0.4649
629.30 0.4646
629.40 0.4644
629.50 0.4641
629.60 0.4639
629.70 0.4636
629.80 0.4634
629.90 0.4631
630.00 0.4628
630.10 0.4626
630.20 0.4623
630.30 0.4621
630.40 0.4618
630.50 0.4616
630.60 0.4613
630.70 0.461
630.80 0.4608
630.90 0.4605
631.00 0.4603
631.10 0.46
631.20 0.4598
631.30 0.4595
631.40 0.4593
631.50 0.459
631.60 0.4588
631.70 0.4585
631.80 0.4582
631.90 0.458
632.00 0.4577
632.10 0.4575
632.20 0.4572
632.30 0.457
632.40 0.4567
632.50 0.4565
632.60 0.4562
632.70 0.456
632.80 0.4557
632.90 0.4554
633.00 0.4552
633.10 0.4549
633.20 0.4547
633.30 0.4544
633.40 0.4542
633.50 0.4539
633.60 0.4537
633.70 0.4534
633.80 0.4532
633.90 0.4529
634.00 0.4527
634.10 0.4524
634.20 0.4521
634.30 0.4519
634.40 0.4516
634.50 0.4514
634.60 0.4511
634.70 0.4509
634.80 0.4506
634.90 0.4504
635.00 0.4501
635.10 0.4499
635.20 0.4496
635.30 0.4494
635.40 0.4491
635.50 0.4489
635.60 0.4486
635.70 0.4483
635.80 0.4481
635.90 0.4478
636.00 0.4476
636.10 0.4473
636.20 0.4471
636.30 0.4468
636.40 0.4466
636.50 0.4463
636.60 0.4461
636.70 0.4458
636.80 0.4455
636.90 0.4453
637.00 0.445
637.10 0.4448
637.20 0.4445
637.30 0.4443
637.40 0.444
637.50 0.4438
637.60 0.4435
637.70 0.4432
637.80 0.443
637.90 0.4427
638.00 0.4425
638.10 0.4422
638.20 0.442
638.30 0.4417
638.40 0.4414
638.50 0.4412
638.60 0.4409
638.70 0.4407
638.80 0.4404
638.90 0.4402
639.00 0.4399
639.10 0.4396
639.20 0.4394
639.30 0.4391
639.40 0.4389
639.50 0.4386
639.60 0.4383
639.70 0.4381
639.80 0.4378
639.90 0.4376
640.00 0.4373
640.10 0.437
640.20 0.4368
640.30 0.4365
640.40 0.4362
640.50 0.436
640.60 0.4357
640.70 0.4354
640.80 0.4352
640.90 0.4349
641.00 0.4346
641.10 0.4344
641.20 0.4341
641.30 0.4338
641.40 0.4336
641.50 0.4333
641.60 0.433
641.70 0.4328
641.80 0.4325
641.90 0.4322
642.00 0.4319
642.10 0.4317
642.20 0.4314
642.30 0.4311
642.40 0.4308
642.50 0.4306
642.60 0.4303
642.70 0.43
642.80 0.4297
642.90 0.4294
643.00 0.4291
643.10 0.4289
643.20 0.4286
643.30 0.4283
643.40 0.428
643.50 0.4277
643.60 0.4274
643.70 0.4271
643.80 0.4268
643.90 0.4265
644.00 0.4262
644.10 0.4259
644.20 0.4257
644.30 0.4254
644.40 0.425
644.50 0.4247
644.60 0.4244
644.70 0.4241
644.80 0.4238
644.90 0.4235
645.00 0.4232
645.10 0.4228
645.20 0.4225
645.30 0.4222
645.40 0.4219
645.50 0.4215
645.60 0.4212
645.70 0.4209
645.80 0.4205
645.90 0.4202
646.00 0.4198
646.10 0.4195
646.20 0.4192
646.30 0.4188
646.40 0.4184
646.50 0.4181
646.60 0.4177
646.70 0.4173
646.80 0.4169
646.90 0.4166
647.00 0.4162
647.10 0.4158
647.20 0.4154
647.30 0.4151
647.40 0.4146
647.50 0.4142
647.60 0.4138
647.70 0.4133
647.80 0.4129
647.90 0.4125
648.00 0.412
648.10 0.4116
648.20 0.4112
648.30 0.4107
648.40 0.4102
648.50 0.4097
648.60 0.4091
648.70 0.4086
648.80 0.4081
648.90 0.4076
649.00 0.4071
649.10 0.4065
649.20 0.406
649.30 0.4055
649.40 0.4048
649.50 0.4042
649.60 0.4035
649.70 0.4029
649.80 0.4022
649.90 0.4016
650.00 0.4009
650.10 0.4003
650.20 0.3996
650.30 0.3989
650.40 0.3981
650.50 0.3972
650.60 0.3963
650.70 0.3955
650.80 0.3946
650.90 0.3937
651.00 0.3929
651.10 0.392
651.20 0.3911
651.30 0.3902
651.40 0.389
651.50 0.3878
651.60 0.3865
651.70 0.3853
651.80 0.3841
651.90 0.3829
652.00 0.3817
652.10 0.3805
652.20 0.3792
652.30 0.3779
652.40 0.3761
652.50 0.3744
652.60 0.3726
652.70 0.3708
652.80 0.3691
652.90 0.3673
653.00 0.3656
653.10 0.3638
653.20 0.362
653.30 0.3601
653.40 0.3575
653.50 0.355
653.60 0.3524
653.70 0.3499
653.80 0.3473
653.90 0.3447
654.00 0.3422
654.10 0.3396
654.20 0.3371
654.30 0.3344
654.40 0.331
654.50 0.3277
654.60 0.3244
654.70 0.3211
654.80 0.3176
654.90 0.3136
655.00 0.3095
655.10 0.3055
655.20 0.3015
655.30 0.2974
655.40 0.2929
655.50 0.2883
655.60 0.2833
655.70 0.2783
655.80 0.2726
655.90 0.2666
656.00 0.2589
656.10 0.2506
656.20 0.2176
656.30 0.1846
656.40 0.2397
656.50 0.2537
656.60 0.2611
656.70 0.2682
656.80 0.2736
656.90 0.2789
657.00 0.2836
657.10 0.2882
657.20 0.2923
657.30 0.2964
657.40 0.3002
657.50 0.3039
657.60 0.3076
657.70 0.3113
657.80 0.3149
657.90 0.3179
658.00 0.3209
658.10 0.3238
658.20 0.3268
658.30 0.3296
658.40 0.3318
658.50 0.3339
658.60 0.3361
658.70 0.3383
658.80 0.3405
658.90 0.3426
659.00 0.3448
659.10 0.347
659.20 0.3491
659.30 0.3511
659.40 0.3525
659.50 0.3538
659.60 0.3551
659.70 0.3565
659.80 0.3578
659.90 0.3591
660.00 0.3605
660.10 0.3618
660.20 0.3631
660.30 0.3643
660.40 0.3651
660.50 0.3659
660.60 0.3667
660.70 0.3674
660.80 0.3682
660.90 0.369
661.00 0.3698
661.10 0.3705
661.20 0.3713
661.30 0.372
661.40 0.3724
661.50 0.3728
661.60 0.3733
661.70 0.3737
661.80 0.3741
661.90 0.3745
662.00 0.375
662.10 0.3754
662.20 0.3758
662.30 0.3762
662.40 0.3764
662.50 0.3766
662.60 0.3768
662.70 0.377
662.80 0.3772
662.90 0.3774
663.00 0.3776
663.10 0.3778
663.20 0.378
663.30 0.3782
663.40 0.3783
663.50 0.3783
663.60 0.3784
663.70 0.3785
663.80 0.3786
663.90 0.3786
664.00 0.3787
664.10 0.3788
664.20 0.3789
664.30 0.3789
664.40 0.3789
664.50 0.3789
664.60 0.3789
664.70 0.3789
664.80 0.3789
664.90 0.3789
665.00 0.3789
665.10 0.3789
665.20 0.3789
665.30 0.3788
665.40 0.3788
665.50 0.3787
665.60 0.3787
665.70 0.3786
665.80 0.3785
665.90 0.3785
666.00 0.3784
666.10 0.3783
666.20 0.3783
666.30 0.3782
666.40 0.3781
666.50 0.378
666.60 0.3779
666.70 0.3778
666.80 0.3777
666.90 0.3776
667.00 0.3775
667.10 0.3774
667.20 0.3773
667.30 0.3772
667.40 0.3771
667.50 0.377
667.60 0.3769
667.70 0.3768
667.80 0.3766
667.90 0.3765
668.00 0.3764
668.10 0.3763
668.20 0.3762
668.30 0.376
668.40 0.3759
668.50 0.3758
668.60 0.3756
668.70 0.3755
668.80 0.3754
668.90 0.3752
669.00 0.3751
669.10 0.3749
669.20 0.3748
669.30 0.3747
669.40 0.3745
669.50 0.3744
669.60 0.3742
669.70 0.3741
669.80 0.3739
669.90 0.3738
670.00 0.3736
670.10 0.3735
670.20 0.3733
670.30 0.3732
670.40 0.373
670.50 0.3729
670.60 0.3727
670.70 0.3726
670.80 0.3724
670.90 0.3722
671.00 0.3721
671.10 0.3719
671.20 0.3718
671.30 0.3716
671.40 0.3714
671.50 0.3713
671.60 0.3711
671.70 0.371
671.80 0.3708
671.90 0.3706
672.00 0.3705
672.10 0.3703
672.20 0.3701
672.30 0.37
672.40 0.3698
672.50 0.3696
672.60 0.3695
672.70 0.3693
672.80 0.3691
672.90 0.369
673.00 0.3688
673.10 0.3686
673.20 0.3685
673.30 0.3683
673.40 0.3681
673.50 0.368
673.60 0.3678
673.70 0.3676
673.80 0.3675
673.90 0.3673
674.00 0.3671
674.10 0.367
674.20 0.3668
674.30 0.3666
674.40 0.3664
674.50 0.3663
674.60 0.3661
674.70 0.3659
674.80 0.3658
674.90 0.3656
675.00 0.3654
675.10 0.3652
675.20 0.3651
675.30 0.3649
675.40 0.3647
675.50 0.3646
675.60 0.3644
675.70 0.3642
675.80 0.364
675.90 0.3639
676.00 0.3637
676.10 0.3635
676.20 0.3633
676.30 0.3632
676.40 0.363
676.50 0.3628
676.60 0.3627
676.70 0.3625
676.80 0.3623
676.90 0.3621
677.00 0.362
677.10 0.3618
677.20 0.3616
677.30 0.3614
677.40 0.3613
677.50 0.3611
677.60 0.3609
677.70 0.3607
677.80 0.3606
677.90 0.3604
678.00 0.3602
678.10 0.36
678.20 0.3599
678.30 0.3597
678.40 0.3595
678.50 0.3594
678.60 0.3592
678.70 0.359
678.80 0.3588
678.90 0.3587
679.00 0.3585
679.10 0.3583
679.20 0.3581
679.30 0.358
679.40 0.3578
679.50 0.3576
679.60 0.3574
679.70 0.3573
679.80 0.3571
679.90 0.3569
680.00 0.3567
680.10 0.3566
680.20 0.3564
680.30 0.3562
680.40 0.356
680.50 0.3559
680.60 0.3557
680.70 0.3555
680.80 0.3553
680.90 0.3552
681.00 0.355
681.10 0.3548
681.20 0.3547
681.30 0.3545
681.40 0.3543
681.50 0.3541
681.60 0.354
681.70 0.3538
681.80 0.3536
681.90 0.3534
682.00 0.3533
682.10 0.3531
682.20 0.3529
682.30 0.3527
682.40 0.3526
682.50 0.3524
682.60 0.3522
682.70 0.3521
682.80 0.3519
682.90 0.3517
683.00 0.3515
683.10 0.3514
683.20 0.3512
683.30 0.351
683.40 0.3508
683.50 0.3507
683.60 0.3505
683.70 0.3503
683.80 0.3502
683.90 0.35
684.00 0.3498
684.10 0.3496
684.20 0.3495
684.30 0.3493
684.40 0.3491
684.50 0.349
684.60 0.3488
684.70 0.3486
684.80 0.3484
684.90 0.3483
685.00 0.3481
685.10 0.3479
685.20 0.3478
685.30 0.3476
685.40 0.3474
685.50 0.3472
685.60 0.3471
685.70 0.3469
685.80 0.3467
685.90 0.3466
686.00 0.3464
686.10 0.3462
686.20 0.346
686.30 0.3459
686.40 0.3457
686.50 0.3455
686.60 0.3454
686.70 0.3452
686.80 0.345
686.90 0.3449
687.00 0.3447
687.10 0.3445
687.20 0.3443
687.30 0.3442
687.40 0.344
687.50 0.3438
687.60 0.3437
687.70 0.3435
687.80 0.3433
687.90 0.3432
688.00 0.343
688.10 0.3428
688.20 0.3427
688.30 0.3425
688.40 0.3423
688.50 0.3421
688.60 0.342
688.70 0.3418
688.80 0.3416
688.90 0.3415
689.00 0.3413
689.10 0.3411
689.20 0.341
689.30 0.3408
689.40 0.3406
689.50 0.3405
689.60 0.3403
689.70 0.3401
689.80 0.34
689.90 0.3398
690.00 0.3396
690.10 0.3395
690.20 0.3393
690.30 0.3391
690.40 0.339
690.50 0.3388
690.60 0.3386
690.70 0.3385
690.80 0.3383
690.90 0.3381
691.00 0.338
691.10 0.3378
691.20 0.3376
691.30 0.3375
691.40 0.3373
691.50 0.3371
691.60 0.337
691.70 0.3368
691.80 0.3366
691.90 0.3365
692.00 0.3363
692.10 0.3361
692.20 0.336
692.30 0.3358
692.40 0.3357
692.50 0.3355
692.60 0.3353
692.70 0.3352
692.80 0.335
692.90 0.3348
693.00 0.3347
693.10 0.3345
693.20 0.3343
693.30 0.3342
693.40 0.334
693.50 0.3338
693.60 0.3337
693.70 0.3335
693.80 0.3334
693.90 0.3332
694.00 0.333
694.10 0.3329
694.20 0.3327
694.30 0.3325
694.40 0.3324
694.50 0.3322
694.60 0.332
694.70 0.3319
694.80 0.3317
694.90 0.3316
695.00 0.3314
695.10 0.3312
695.20 0.3311
695.30 0.3309
695.40 0.3307
695.50 0.3306
695.60 0.3304
695.70 0.3303
695.80 0.3301
695.90 0.3299
696.00 0.3298
696.10 0.3296
696.20 0.3294
696.30 0.3293
696.40 0.3291
696.50 0.329
696.60 0.3288
696.70 0.3286
696.80 0.3285
696.90 0.3283
697.00 0.3282
697.10 0.328
697.20 0.3278
697.30 0.3277
697.40 0.3275
697.50 0.3274
697.60 0.3272
697.70 0.327
697.80 0.3269
697.90 0.3267
698.00 0.3265
698.10 0.3264
698.20 0.3262
698.30 0.3261
698.40 0.3259
698.50 0.3257
698.60 0.3256
698.70 0.3254
698.80 0.3253
698.90 0.3251
699.00 0.3249
699.10 0.3248
699.20 0.3246
699.30 0.3245
699.40 0.3243
699.50 0.3242
699.60 0.324
699.70 0.3238
699.80 0.3237
699.90 0.3235
700.00 0.3234
700.10 0.3232
700.20 0.323
700.30 0.3229
700.40 0.3227
700.50 0.3225
700.60 0.3223
700.70 0.3222
700.80 0.322
700.90 0.3218
701.00 0.3217
701.10 0.3215
701.20 0.3213
701.30 0.3212
701.40 0.321
701.50 0.3208
701.60 0.3207
701.70 0.3205
701.80 0.3203
701.90 0.3202
702.00 0.32
702.10 0.3198
702.20 0.3197
702.30 0.3195
702.40 0.3193
702.50 0.3192
702.60 0.319
702.70 0.3188
702.80 0.3187
702.90 0.3185
703.00 0.3183
703.10 0.3182
703.20 0.318
703.30 0.3178
703.40 0.3177
703.50 0.3175
703.60 0.3173
703.70 0.3172
703.80 0.317
703.90 0.3168
704.00 0.3167
704.10 0.3165
704.20 0.3164
704.30 0.3162
704.40 0.316
704.50 0.3159
704.60 0.3157
704.70 0.3155
704.80 0.3154
704.90 0.3152
705.00 0.315
705.10 0.3149
705.20 0.3147
705.30 0.3146
705.40 0.3144
705.50 0.3143
705.60 0.3141
705.70 0.314
705.80 0.3138
705.90 0.3137
706.00 0.3135
706.10 0.3134
706.20 0.3132
706.30 0.3131
706.40 0.3129
706.50 0.3127
706.60 0.3126
706.70 0.3124
706.80 0.3123
706.90 0.3121
707.00 0.312
707.10 0.3118
707.20 0.3117
707.30 0.3115
707.40 0.3114
707.50 0.3112
707.60 0.3111
707.70 0.3109
707.80 0.3108
707.90 0.3106
708.00 0.3105
708.10 0.3103
708.20 0.3102
708.30 0.31
708.40 0.3099
708.50 0.3097
708.60 0.3096
708.70 0.3094
708.80 0.3093
708.90 0.3091
709.00 0.309
709.10 0.3088
709.20 0.3087
709.30 0.3085
709.40 0.3084
709.50 0.3082
709.60 0.3081
709.70 0.3079
709.80 0.3078
709.90 0.3076
710.00 0.3075
710.10 0.3073
710.20 0.3072
710.30 0.307
710.40 0.3069
710.50 0.3067
710.60 0.3066
710.70 0.3064
710.80 0.3063
710.90 0.3061
711.00 0.306
711.10 0.3058
711.20 0.3057
711.30 0.3055
711.40 0.3054
711.50 0.3053
711.60 0.3051
711.70 0.305
711.80 0.3048
711.90 0.3047
712.00 0.3045
712.10 0.3044
712.20 0.3042
712.30 0.3041
712.40 0.3039
712.50 0.3038
712.60 0.3036
712.70 0.3035
712.80 0.3033
712.90 0.3032
713.00 0.3031
713.10 0.3029
713.20 0.3028
713.30 0.3026
713.40 0.3025
713.50 0.3023
713.60 0.3022
713.70 0.302
713.80 0.3019
713.90 0.3017
714.00 0.3016
714.10 0.3014
714.20 0.3013
714.30 0.3012
714.40 0.301
714.50 0.3009
714.60 0.3007
714.70 0.3006
714.80 0.3004
714.90 0.3003
715.00 0.3001
715.10 0.3
715.20 0.2999
715.30 0.2997
715.40 0.2996
715.50 0.2994
715.60 0.2993
715.70 0.2991
715.80 0.299
715.90 0.2988
716.00 0.2987
716.10 0.2986
716.20 0.2984
716.30 0.2983
716.40 0.2981
716.50 0.298
716.60 0.2979
716.70 0.2977
716.80 0.2976
716.90 0.2974
717.00 0.2973
717.10 0.2971
717.20 0.297
717.30 0.2969
717.40 0.2967
717.50 0.2966
717.60 0.2964
717.70 0.2963
717.80 0.2961
717.90 0.296
718.00 0.2959
718.10 0.2957
718.20 0.2956
718.30 0.2954
718.40 0.2953
718.50 0.2952
718.60 0.295
718.70 0.2949
718.80 0.2947
718.90 0.2946
719.00 0.2944
719.10 0.2943
719.20 0.2942
719.30 0.294
719.40 0.2939
719.50 0.2937
719.60 0.2936
719.70 0.2935
719.80 0.2933
719.90 0.2932
720.00 0.293
720.10 0.2929
720.20 0.2928
720.30 0.2926
720.40 0.2925
720.50 0.2923
720.60 0.2922
720.70 0.2921
720.80 0.2919
720.90 0.2918
721.00 0.2916
721.10 0.2915
721.20 0.2914
721.30 0.2912
721.40 0.2911
721.50 0.291
721.60 0.2908
721.70 0.2907
721.80 0.2905
721.90 0.2904
722.00 0.2903
722.10 0.2901
722.20 0.29
722.30 0.2898
722.40 0.2897
722.50 0.2896
722.60 0.2894
722.70 0.2893
722.80 0.2892
722.90 0.289
723.00 0.2889
723.10 0.2887
723.20 0.2886
723.30 0.2885
723.40 0.2883
723.50 0.2882
723.60 0.288
723.70 0.2879
723.80 0.2878
723.90 0.2876
724.00 0.2875
724.10 0.2874
724.20 0.2872
724.30 0.2871
724.40 0.287
724.50 0.2868
724.60 0.2867
724.70 0.2865
724.80 0.2864
724.90 0.2863
725.00 0.2861
725.10 0.286
725.20 0.2859
725.30 0.2857
725.40 0.2856
725.50 0.2855
725.60 0.2853
725.70 0.2852
725.80 0.285
725.90 0.2849
726.00 0.2848
726.10 0.2846
726.20 0.2845
726.30 0.2844
726.40 0.2842
726.50 0.2841
726.60 0.284
726.70 0.2838
726.80 0.2837
726.90 0.2836
727.00 0.2834
727.10 0.2833
727.20 0.2832
727.30 0.283
727.40 0.2829
727.50 0.2828
727.60 0.2826
727.70 0.2825
727.80 0.2823
727.90 0.2822
728.00 0.2821
728.10 0.2819
728.20 0.2818
728.30 0.2817
728.40 0.2815
728.50 0.2814
728.60 0.2813
728.70 0.2811
728.80 0.281
728.90 0.2809
729.00 0.2807
729.10 0.2806
729.20 0.2805
729.30 0.2803
729.40 0.2802
729.50 0.2801
729.60 0.2799
729.70 0.2798
729.80 0.2797
729.90 0.2795
730.00 0.2794
730.10 0.2793
730.20 0.2792
730.30 0.279
730.40 0.2789
730.50 0.2788
730.60 0.2786
730.70 0.2785
730.80 0.2784
730.90 0.2782
731.00 0.2781
731.10 0.278
731.20 0.2778
731.30 0.2777
731.40 0.2776
731.50 0.2775
731.60 0.2773
731.70 0.2772
731.80 0.2771
731.90 0.2769
732.00 0.2768
732.10 0.2767
732.20 0.2765
732.30 0.2764
732.40 0.2763
732.50 0.2761
732.60 0.276
732.70 0.2759
732.80 0.2758
732.90 0.2756
733.00 0.2755
733.10 0.2754
733.20 0.2752
733.30 0.2751
733.40 0.275
733.50 0.2749
733.60 0.2747
733.70 0.2746
733.80 0.2745
733.90 0.2743
734.00 0.2742
734.10 0.2741
734.20 0.2739
734.30 0.2738
734.40 0.2737
734.50 0.2736
734.60 0.2734
734.70 0.2733
734.80 0.2732
734.90 0.273
735.00 0.2729
735.10 0.2728
735.20 0.2727
735.30 0.2725
735.40 0.2724
735.50 0.2723
735.60 0.2722
735.70 0.272
735.80 0.2719
735.90 0.2718
736.00 0.2716
736.10 0.2715
736.20 0.2714
736.30 0.2713
736.40 0.2711
736.50 0.271
736.60 0.2709
736.70 0.2707
736.80 0.2706
736.90 0.2705
737.00 0.2704
737.10 0.2702
737.20 0.2701
737.30 0.27
737.40 0.2699
737.50 0.2697
737.60 0.2696
737.70 0.2695
737.80 0.2694
737.90 0.2692
738.00 0.2691
738.10 0.269
738.20 0.2688
738.30 0.2687
738.40 0.2686
738.50 0.2685
738.60 0.2683
738.70 0.2682
738.80 0.2681
738.90 0.268
739.00 0.2678
739.10 0.2677
739.20 0.2676
739.30 0.2675
739.40 0.2673
739.50 0.2672
739.60 0.2671
739.70 0.267
739.80 0.2668
739.90 0.2667
740.00 0.2666
740.10 0.2665
740.20 0.2663
740.30 0.2662
740.40 0.2661
740.50 0.266
740.60 0.2658
740.70 0.2657
740.80 0.2656
740.90 0.2655
741.00 0.2653
741.10 0.2652
741.20 0.2651
741.30 0.265
741.40 0.2648
741.50 0.2647
741.60 0.2646
741.70 0.2645
741.80 0.2644
741.90 0.2642
742.00 0.2641
742.10 0.264
742.20 0.2639
742.30 0.2637
742.40 0.2636
742.50 0.2635
742.60 0.2634
742.70 0.2633
742.80 0.2631
742.90 0.263
743.00 0.2629
743.10 0.2628
743.20 0.2626
743.30 0.2625
743.40 0.2624
743.50 0.2623
743.60 0.2622
743.70 0.262
743.80 0.2619
743.90 0.2618
744.00 0.2617
744.10 0.2615
744.20 0.2614
744.30 0.2613
744.40 0.2612
744.50 0.2611
744.60 0.2609
744.70 0.2608
744.80 0.2607
744.90 0.2606
745.00 0.2605
745.10 0.2603
745.20 0.2602
745.30 0.2601
745.40 0.26
745.50 0.2599
745.60 0.2597
745.70 0.2596
745.80 0.2595
745.90 0.2594
746.00 0.2593
746.10 0.2591
746.20 0.259
746.30 0.2589
746.40 0.2588
746.50 0.2586
746.60 0.2585
746.70 0.2584
746.80 0.2583
746.90 0.2582
747.00 0.258
747.10 0.2579
747.20 0.2578
747.30 0.2577
747.40 0.2576
747.50 0.2574
747.60 0.2573
747.70 0.2572
747.80 0.2571
747.90 0.257
748.00 0.2569
748.10 0.2567
748.20 0.2566
748.30 0.2565
748.40 0.2564
748.50 0.2563
748.60 0.2561
748.70 0.256
748.80 0.2559
748.90 0.2558
749.00 0.2557
749.10 0.2555
749.20 0.2554
749.30 0.2553
749.40 0.2552
749.50 0.2551
749.60 0.255
749.70 0.2548
749.80 0.2547
749.90 0.2546
750.00 0.2545
750.10 0.2544
750.20 0.2542
750.30 0.2541
750.40 0.254
750.50 0.2539
750.60 0.2538
750.70 0.2537
750.80 0.2535
750.90 0.2534
751.00 0.2533
751.10 0.2532
751.20 0.2531
751.30 0.253
751.40 0.2528
751.50 0.2527
751.60 0.2526
751.70 0.2525
751.80 0.2524
751.90 0.2523
752.00 0.2522
752.10 0.252
752.20 0.2519
752.30 0.2518
752.40 0.2517
752.50 0.2516
752.60 0.2515
752.70 0.2513
752.80 0.2512
752.90 0.2511
753.00 0.251
753.10 0.2509
753.20 0.2508
753.30 0.2507
753.40 0.2505
753.50 0.2504
753.60 0.2503
753.70 0.2502
753.80 0.2501
753.90 0.25
754.00 0.2498
754.10 0.2497
754.20 0.2496
754.30 0.2495
754.40 0.2494
754.50 0.2493
754.60 0.2492
754.70 0.249
754.80 0.2489
754.90 0.2488
755.00 0.2487
755.10 0.2486
755.20 0.2485
755.30 0.2484
755.40 0.2482
755.50 0.2481
755.60 0.248
755.70 0.2479
755.80 0.2478
755.90 0.2477
756.00 0.2476
756.10 0.2474
756.20 0.2473
756.30 0.2472
756.40 0.2471
756.50 0.247
756.60 0.2469
756.70 0.2468
756.80 0.2467
756.90 0.2465
757.00 0.2464
757.10 0.2463
757.20 0.2462
757.30 0.2461
757.40 0.246
757.50 0.2459
757.60 0.2458
757.70 0.2456
757.80 0.2455
757.90 0.2454
758.00 0.2453
758.10 0.2452
758.20 0.2451
758.30 0.245
758.40 0.2448
758.50 0.2447
758.60 0.2446
758.70 0.2445
758.80 0.2444
758.90 0.2443
759.00 0.2442
759.10 0.2441
759.20 0.244
759.30 0.2438
759.40 0.2437
759.50 0.2436
759.60 0.2435
759.70 0.2434
759.80 0.2433
759.90 0.2432
760.00 0.2431
760.10 0.2429
760.20 0.2428
760.30 0.2427
760.40 0.2426
760.50 0.2425
760.60 0.2424
760.70 0.2423
760.80 0.2422
760.90 0.2421
761.00 0.242
761.10 0.2418
761.20 0.2417
761.30 0.2416
761.40 0.2415
761.50 0.2414
761.60 0.2413
761.70 0.2412
761.80 0.2411
761.90 0.241
762.00 0.2409
762.10 0.2408
762.20 0.2406
762.30 0.2405
762.40 0.2404
762.50 0.2403
762.60 0.2402
762.70 0.2401
762.80 0.24
762.90 0.2399
763.00 0.2398
763.10 0.2397
763.20 0.2396
763.30 0.2394
763.40 0.2393
763.50 0.2392
763.60 0.2391
763.70 0.239
763.80 0.2389
763.90 0.2388
764.00 0.2387
764.10 0.2386
764.20 0.2385
764.30 0.2384
764.40 0.2383
764.50 0.2381
764.60 0.238
764.70 0.2379
764.80 0.2378
764.90 0.2377
765.00 0.2376
765.10 0.2375
765.20 0.2374
765.30 0.2373
765.40 0.2372
765.50 0.2371
765.60 0.237
765.70 0.2369
765.80 0.2367
765.90 0.2366
766.00 0.2365
766.10 0.2364
766.20 0.2363
766.30 0.2362
766.40 0.2361
766.50 0.236
766.60 0.2359
766.70 0.2358
766.80 0.2357
766.90 0.2356
767.00 0.2355
767.10 0.2354
767.20 0.2352
767.30 0.2351
767.40 0.235
767.50 0.2349
767.60 0.2348
767.70 0.2347
767.80 0.2346
767.90 0.2345
768.00 0.2344
768.10 0.2343
768.20 0.2342
768.30 0.2341
768.40 0.234
768.50 0.2339
768.60 0.2338
768.70 0.2337
768.80 0.2335
768.90 0.2334
769.00 0.2333
769.10 0.2332
769.20 0.2331
769.30 0.233
769.40 0.2329
769.50 0.2328
769.60 0.2327
769.70 0.2326
769.80 0.2325
769.90 0.2324
770.00 0.2323
770.10 0.2322
770.20 0.2321
770.30 0.232
770.40 0.2319
770.50 0.2318
770.60 0.2317
770.70 0.2315
770.80 0.2314
770.90 0.2313
771.00 0.2312
771.10 0.2311
771.20 0.231
771.30 0.2309
771.40 0.2308
771.50 0.2307
771.60 0.2306
771.70 0.2305
771.80 0.2304
771.90 0.2303
772.00 0.2302
772.10 0.2301
772.20 0.23
772.30 0.2299
772.40 0.2298
772.50 0.2297
772.60 0.2296
772.70 0.2295
772.80 0.2294
772.90 0.2293
773.00 0.2292
773.10 0.2291
773.20 0.229
773.30 0.2289
773.40 0.2288
773.50 0.2287
773.60 0.2286
773.70 0.2285
773.80 0.2284
773.90 0.2283
774.00 0.2281
774.10 0.228
774.20 0.2279
774.30 0.2278
774.40 0.2277
774.50 0.2276
774.60 0.2275
774.70 0.2274
774.80 0.2273
774.90 0.2272
775.00 0.2271
775.10 0.227
775.20 0.2269
775.30 0.2268
775.40 0.2267
775.50 0.2266
775.60 0.2265
775.70 0.2264
775.80 0.2263
775.90 0.2262
776.00 0.2261
776.10 0.226
776.20 0.2259
776.30 0.2258
776.40 0.2257
776.50 0.2256
776.60 0.2255
776.70 0.2254
776.80 0.2253
776.90 0.2252
777.00 0.2251
777.10 0.225
777.20 0.2249
777.30 0.2248
777.40 0.2247
777.50 0.2246
777.60 0.2245
777.70 0.2244
777.80 0.2243
777.90 0.2242
778.00 0.2241
778.10 0.224
778.20 0.2239
778.30 0.2238
778.40 0.2237
778.50 0.2236
778.60 0.2235
778.70 0.2234
778.80 0.2233
778.90 0.2232
779.00 0.2231
779.10 0.223
779.20 0.2229
779.30 0.2228
779.40 0.2227
779.50 0.2226
779.60 0.2225
779.70 0.2224
779.80 0.2223
779.90 0.2222
780.00 0.2221
780.10 0.222
780.20 0.2219
780.30 0.2218
780.40 0.2217
780.50 0.2216
780.60 0.2215
780.70 0.2214
780.80 0.2213
780.90 0.2212
781.00 0.2211
781.10 0.221
781.20 0.2209
781.30 0.2208
781.40 0.2207
781.50 0.2206
781.60 0.2205
781.70 0.2204
781.80 0.2203
781.90 0.2202
782.00 0.2201
782.10 0.22
782.20 0.2199
782.30 0.2198
782.40 0.2197
782.50 0.2196
782.60 0.2195
782.70 0.2195
782.80 0.2194
782.90 0.2193
783.00 0.2192
783.10 0.2191
783.20 0.219
783.30 0.2189
783.40 0.2188
783.50 0.2187
783.60 0.2186
783.70 0.2185
783.80 0.2184
783.90 0.2183
784.00 0.2182
784.10 0.2181
784.20 0.218
784.30 0.2179
784.40 0.2178
784.50 0.2177
784.60 0.2176
784.70 0.2175
784.80 0.2174
784.90 0.2173
785.00 0.2172
785.10 0.2171
785.20 0.217
785.30 0.2169
785.40 0.2168
785.50 0.2167
785.60 0.2166
785.70 0.2166
785.80 0.2165
785.90 0.2164
786.00 0.2163
786.10 0.2162
786.20 0.2161
786.30 0.216
786.40 0.2159
786.50 0.2158
786.60 0.2157
786.70 0.2156
786.80 0.2155
786.90 0.2154
787.00 0.2153
787.10 0.2152
787.20 0.2151
787.30 0.215
787.40 0.2149
787.50 0.2148
787.60 0.2147
787.70 0.2146
787.80 0.2145
787.90 0.2145
788.00 0.2144
788.10 0.2143
788.20 0.2142
788.30 0.2141
788.40 0.214
788.50 0.2139
788.60 0.2138
788.70 0.2137
788.80 0.2136
788.90 0.2135
789.00 0.2134
789.10 0.2133
789.20 0.2132
789.30 0.2131
789.40 0.213
789.50 0.2129
789.60 0.2128
789.70 0.2127
789.80 0.2127
789.90 0.2126
790.00 0.2125
790.10 0.2124
790.20 0.2123
790.30 0.2122
790.40 0.2121
790.50 0.212
790.60 0.2119
790.70 0.2118
790.80 0.2117
790.90 0.2116
791.00 0.2115
791.10 0.2114
791.20 0.2114
791.30 0.2113
791.40 0.2112
791.50 0.2111
791.60 0.211
791.70 0.2109
791.80 0.2108
791.90 0.2107
792.00 0.2106
792.10 0.2105
792.20 0.2104
792.30 0.2103
792.40 0.2102
792.50 0.2102
792.60 0.2101
792.70 0.21
792.80 0.2099
792.90 0.2098
793.00 0.2097
793.10 0.2096
793.20 0.2095
793.30 0.2094
793.40 0.2093
793.50 0.2092
793.60 0.2091
793.70 0.2091
793.80 0.209
793.90 0.2089
794.00 0.2088
794.10 0.2087
794.20 0.2086
794.30 0.2085
794.40 0.2084
794.50 0.2083
794.60 0.2082
794.70 0.2081
794.80 0.208
794.90 0.208
795.00 0.2079
795.10 0.2078
795.20 0.2077
795.30 0.2076
795.40 0.2075
795.50 0.2074
795.60 0.2073
795.70 0.2072
795.80 0.2071
795.90 0.207
796.00 0.207
796.10 0.2069
796.20 0.2068
796.30 0.2067
796.40 0.2066
796.50 0.2065
796.60 0.2064
796.70 0.2063
796.80 0.2062
796.90 0.2061
797.00 0.2061
797.10 0.206
797.20 0.2059
797.30 0.2058
797.40 0.2057
797.50 0.2056
797.60 0.2055
797.70 0.2054
797.80 0.2053
797.90 0.2052
798.00 0.2052
798.10 0.2051
798.20 0.205
798.30 0.2049
798.40 0.2048
798.50 0.2047
798.60 0.2046
798.70 0.2045
798.80 0.2044
798.90 0.2043
799.00 0.2043
799.10 0.2042
799.20 0.2041
799.30 0.204
799.40 0.2039
799.50 0.2038
799.60 0.2037
799.70 0.2036
799.80 0.2035
799.90 0.2034
800.00 0.2034
800.10 0.2033
800.20 0.2032
800.30 0.2031
800.40 0.203
800.50 0.2029
800.60 0.2028
800.70 0.2027
800.80 0.2027
800.90 0.2026
801.00 0.2025
801.10 0.2024
801.20 0.2023
801.30 0.2022
801.40 0.2021
801.50 0.202
801.60 0.202
801.70 0.2019
801.80 0.2018
801.90 0.2017
802.00 0.2016
802.10 0.2015
802.20 0.2014
802.30 0.2013
802.40 0.2013
802.50 0.2012
802.60 0.2011
802.70 0.201
802.80 0.2009
802.90 0.2008
803.00 0.2007
803.10 0.2006
803.20 0.2006
803.30 0.2005
803.40 0.2004
803.50 0.2003
803.60 0.2002
803.70 0.2001
803.80 0.2
803.90 0.2
804.00 0.1999
804.10 0.1998
804.20 0.1997
804.30 0.1996
804.40 0.1995
804.50 0.1994
804.60 0.1993
804.70 0.1993
804.80 0.1992
804.90 0.1991
805.00 0.199
805.10 0.1989
805.20 0.1988
805.30 0.1987
805.40 0.1987
805.50 0.1986
805.60 0.1985
805.70 0.1984
805.80 0.1983
805.90 0.1982
806.00 0.1981
806.10 0.1981
806.20 0.198
806.30 0.1979
806.40 0.1978
806.50 0.1977
806.60 0.1976
806.70 0.1975
806.80 0.1975
806.90 0.1974
807.00 0.1973
807.10 0.1972
807.20 0.1971
807.30 0.197
807.40 0.1969
807.50 0.1969
807.60 0.1968
807.70 0.1967
807.80 0.1966
807.90 0.1965
808.00 0.1964
808.10 0.1963
808.20 0.1963
808.30 0.1962
808.40 0.1961
808.50 0.196
808.60 0.1959
808.70 0.1958
808.80 0.1958
808.90 0.1957
809.00 0.1956
809.10 0.1955
809.20 0.1954
809.30 0.1953
809.40 0.1952
809.50 0.1952
809.60 0.1951
809.70 0.195
809.80 0.1949
809.90 0.1948
810.00 0.1947
810.10 0.1947
810.20 0.1946
810.30 0.1945
810.40 0.1944
810.50 0.1943
810.60 0.1942
810.70 0.1942
810.80 0.1941
810.90 0.194
811.00 0.1939
811.10 0.1938
811.20 0.1937
811.30 0.1937
811.40 0.1936
811.50 0.1935
811.60 0.1934
811.70 0.1933
811.80 0.1932
811.90 0.1932
812.00 0.1931
812.10 0.193
812.20 0.1929
812.30 0.1928
812.40 0.1927
812.50 0.1927
812.60 0.1926
812.70 0.1925
812.80 0.1924
812.90 0.1923
813.00 0.1923
813.10 0.1922
813.20 0.1921
813.30 0.192
813.40 0.1919
813.50 0.1918
813.60 0.1918
813.70 0.1917
813.80 0.1916
813.90 0.1915
814.00 0.1914
814.10 0.1913
814.20 0.1913
814.30 0.1912
814.40 0.1911
814.50 0.191
814.60 0.1909
814.70 0.1909
814.80 0.1908
814.90 0.1907
815.00 0.1906
815.10 0.1905
815.20 0.1904
815.30 0.1904
815.40 0.1903
815.50 0.1902
815.60 0.1901
815.70 0.19
815.80 0.19
815.90 0.1899
816.00 0.1898
816.10 0.1897
816.20 0.1896
816.30 0.1896
816.40 0.1895
816.50 0.1894
816.60 0.1893
816.70 0.1892
816.80 0.1891
816.90 0.1891
817.00 0.189
817.10 0.1889
817.20 0.1888
817.30 0.1887
817.40 0.1887
817.50 0.1886
817.60 0.1885
817.70 0.1884
817.80 0.1883
817.90 0.1883
818.00 0.1882
818.10 0.1881
818.20 0.188
818.30 0.1879
818.40 0.1879
818.50 0.1878
818.60 0.1877
818.70 0.1876
818.80 0.1875
818.90 0.1875
819.00 0.1874
819.10 0.1873
819.20 0.1872
819.30 0.1871
819.40 0.1871
819.50 0.187
819.60 0.1869
819.70 0.1868
819.80 0.1867
819.90 0.1867
820.00 0.1866
820.10 0.1865
820.20 0.1864
820.30 0.1863
820.40 0.1863
820.50 0.1862
820.60 0.1861
820.70 0.186
820.80 0.1859
820.90 0.1859
821.00 0.1858
821.10 0.1857
821.20 0.1856
821.30 0.1855
821.40 0.1855
821.50 0.1854
821.60 0.1853
821.70 0.1852
821.80 0.1851
821.90 0.1851
822.00 0.185
822.10 0.1849
822.20 0.1848
822.30 0.1848
822.40 0.1847
822.50 0.1846
822.60 0.1845
822.70 0.1844
822.80 0.1844
822.90 0.1843
823.00 0.1842
823.10 0.1841
823.20 0.1841
823.30 0.184
823.40 0.1839
823.50 0.1838
823.60 0.1837
823.70 0.1837
823.80 0.1836
823.90 0.1835
824.00 0.1834
824.10 0.1834
824.20 0.1833
824.30 0.1832
824.40 0.1831
824.50 0.183
824.60 0.183
824.70 0.1829
824.80 0.1828
824.90 0.1827
825.00 0.1827
825.10 0.1826
825.20 0.1825
825.30 0.1824
825.40 0.1823
825.50 0.1823
825.60 0.1822
825.70 0.1821
825.80 0.182
825.90 0.182
826.00 0.1819
826.10 0.1818
826.20 0.1817
826.30 0.1817
826.40 0.1816
826.50 0.1815
826.60 0.1814
826.70 0.1813
826.80 0.1813
826.90 0.1812
827.00 0.1811
827.10 0.181
827.20 0.181
827.30 0.1809
827.40 0.1808
827.50 0.1807
827.60 0.1807
827.70 0.1806
827.80 0.1805
827.90 0.1804
828.00 0.1804
828.10 0.1803
828.20 0.1802
828.30 0.1801
828.40 0.18
828.50 0.18
828.60 0.1799
828.70 0.1798
828.80 0.1797
828.90 0.1797
829.00 0.1796
829.10 0.1795
829.20 0.1794
829.30 0.1794
829.40 0.1793
829.50 0.1792
829.60 0.1791
829.70 0.1791
829.80 0.179
829.90 0.1789
830.00 0.1788
830.10 0.1788
830.20 0.1787
830.30 0.1786
830.40 0.1785
830.50 0.1785
830.60 0.1784
830.70 0.1783
830.80 0.1782
830.90 0.1782
831.00 0.1781
831.10 0.178
831.20 0.1779
831.30 0.1779
831.40 0.1778
831.50 0.1777
831.60 0.1776
831.70 0.1776
831.80 0.1775
831.90 0.1774
832.00 0.1773
832.10 0.1773
832.20 0.1772
832.30 0.1771
832.40 0.177
832.50 0.177
832.60 0.1769
832.70 0.1768
832.80 0.1767
832.90 0.1767
833.00 0.1766
833.10 0.1765
833.20 0.1764
833.30 0.1764
833.40 0.1763
833.50 0.1762
833.60 0.1762
833.70 0.1761
833.80 0.176
833.90 0.1759
834.00 0.1759
834.10 0.1758
834.20 0.1757
834.30 0.1756
834.40 0.1756
834.50 0.1755
834.60 0.1754
834.70 0.1753
834.80 0.1753
834.90 0.1752
835.00 0.1751
835.10 0.175
835.20 0.175
835.30 0.1749
835.40 0.1748
835.50 0.1748
835.60 0.1747
835.70 0.1746
835.80 0.1745
835.90 0.1745
836.00 0.1744
836.10 0.1743
836.20 0.1742
836.30 0.1742
836.40 0.1741
836.50 0.174
836.60 0.174
836.70 0.1739
836.80 0.1738
836.90 0.1737
837.00 0.1737
837.10 0.1736
837.20 0.1735
837.30 0.1734
837.40 0.1734
837.50 0.1733
837.60 0.1732
837.70 0.1732
837.80 0.1731
837.90 0.173
838.00 0.1729
838.10 0.1729
838.20 0.1728
838.30 0.1727
838.40 0.1726
838.50 0.1726
838.60 0.1725
838.70 0.1724
838.80 0.1724
838.90 0.1723
839.00 0.1722
839.10 0.1721
839.20 0.1721
839.30 0.172
839.40 0.1719
839.50 0.1719
839.60 0.1718
839.70 0.1717
839.80 0.1716
839.90 0.1716
840.00 0.1715
840.10 0.1714
840.20 0.1714
840.30 0.1713
840.40 0.1712
840.50 0.1711
840.60 0.1711
840.70 0.171
840.80 0.1709
840.90 0.1709
841.00 0.1708
841.10 0.1707
841.20 0.1706
841.30 0.1706
841.40 0.1705
841.50 0.1704
841.60 0.1704
841.70 0.1703
841.80 0.1702
841.90 0.1701
842.00 0.1701
842.10 0.17
842.20 0.1699
842.30 0.1699
842.40 0.1698
842.50 0.1697
842.60 0.1696
842.70 0.1696
842.80 0.1695
842.90 0.1694
843.00 0.1693
843.10 0.1693
843.20 0.1692
843.30 0.1691
843.40 0.1691
843.50 0.169
843.60 0.1689
843.70 0.1688
843.80 0.1688
843.90 0.1687
844.00 0.1686
844.10 0.1686
844.20 0.1685
844.30 0.1684
844.40 0.1683
844.50 0.1683
844.60 0.1682
844.70 0.1681
844.80 0.168
844.90 0.168
845.00 0.1679
845.10 0.1678
845.20 0.1678
845.30 0.1677
845.40 0.1676
845.50 0.1675
845.60 0.1675
845.70 0.1674
845.80 0.1673
845.90 0.1673
846.00 0.1672
846.10 0.1671
846.20 0.167
846.30 0.167
846.40 0.1669
846.50 0.1668
846.60 0.1668
846.70 0.1667
846.80 0.1666
846.90 0.1665
847.00 0.1665
847.10 0.1664
847.20 0.1664
847.30 0.1664
847.40 0.1664
847.50 0.1664
847.60 0.1663
847.70 0.1663
847.80 0.1663
847.90 0.1663
848.00 0.1662
848.10 0.1662
848.20 0.1662
848.30 0.1662
848.40 0.1661
848.50 0.1661
848.60 0.1661
848.70 0.1661
848.80 0.166
848.90 0.166
849.00 0.166
849.10 0.166
849.20 0.166
849.30 0.1659
849.40 0.1659
849.50 0.1659
849.60 0.1659
849.70 0.1658
849.80 0.1658
849.90 0.1658
850.00 0.1658
850.10 0.1657
850.20 0.1657
850.30 0.1657
850.40 0.1657
850.50 0.1656
850.60 0.1656
850.70 0.1656
850.80 0.1656
850.90 0.1656
851.00 0.1655
851.10 0.1655
851.20 0.1655
851.30 0.1655
851.40 0.1654
851.50 0.1654
851.60 0.1654
851.70 0.1654
851.80 0.1653
851.90 0.1653
852.00 0.1653
852.10 0.1653
852.20 0.1652
852.30 0.1652
852.40 0.1651
852.50 0.1651
852.60 0.1651
852.70 0.165
852.80 0.165
852.90 0.165
853.00 0.1649
853.10 0.1649
853.20 0.1648
853.30 0.1648
853.40 0.1648
853.50 0.1647
853.60 0.1647
853.70 0.1646
853.80 0.1646
853.90 0.1646
854.00 0.1645
854.10 0.1645
854.20 0.1645
854.30 0.1644
854.40 0.1644
854.50 0.1643
854.60 0.1643
854.70 0.1643
854.80 0.1642
854.90 0.1642
855.00 0.1642
855.10 0.1641
855.20 0.1641
855.30 0.164
855.40 0.164
855.50 0.164
855.60 0.1639
855.70 0.1639
855.80 0.1639
855.90 0.1638
856.00 0.1638
856.10 0.1637
856.20 0.1637
856.30 0.1637
856.40 0.1636
856.50 0.1636
856.60 0.1635
856.70 0.1635
856.80 0.1635
856.90 0.1634
857.00 0.1634
857.10 0.1634
857.20 0.1633
857.30 0.1633
857.40 0.1633
857.50 0.1632
857.60 0.1632
857.70 0.1632
857.80 0.1631
857.90 0.1631
858.00 0.1631
858.10 0.163
858.20 0.163
858.30 0.1629
858.40 0.1629
858.50 0.1629
858.60 0.1628
858.70 0.1628
858.80 0.1628
858.90 0.1627
859.00 0.1627
859.10 0.1627
859.20 0.1626
859.30 0.1626
859.40 0.1626
859.50 0.1625
859.60 0.1625
859.70 0.1625
859.80 0.1624
859.90 0.1624
860.00 0.1624
860.10 0.1623
860.20 0.1623
860.30 0.1623
860.40 0.1622
860.50 0.1622
860.60 0.1622
860.70 0.1621
860.80 0.1621
860.90 0.1621
861.00 0.162
861.10 0.162
861.20 0.162
861.30 0.1619
861.40 0.1619
861.50 0.1619
861.60 0.1618
861.70 0.1618
861.80 0.1618
861.90 0.1617
862.00 0.1617
862.10 0.1616
862.20 0.1615
862.30 0.1613
862.40 0.1612
862.50 0.1611
862.60 0.161
862.70 0.1609
862.80 0.1608
862.90 0.1606
863.00 0.1605
863.10 0.1604
863.20 0.1603
863.30 0.1602
863.40 0.1601
863.50 0.16
863.60 0.1598
863.70 0.1597
863.80 0.1596
863.90 0.1595
864.00 0.1594
864.10 0.1593
864.20 0.1592
864.30 0.159
864.40 0.1589
864.50 0.1588
864.60 0.1587
864.70 0.1586
864.80 0.1585
864.90 0.1584
865.00 0.1582
865.10 0.1581
865.20 0.158
865.30 0.1579
865.40 0.1578
865.50 0.1577
865.60 0.1576
865.70 0.1575
865.80 0.1573
865.90 0.1572
866.00 0.1571
866.10 0.157
866.20 0.1569
866.30 0.1568
866.40 0.1567
866.50 0.1565
866.60 0.1564
866.70 0.1563
866.80 0.1562
866.90 0.1561
867.00 0.156
867.10 0.156
867.20 0.1561
867.30 0.1561
867.40 0.1561
867.50 0.1562
867.60 0.1562
867.70 0.1562
867.80 0.1563
867.90 0.1563
868.00 0.1563
868.10 0.1564
868.20 0.1564
868.30 0.1565
868.40 0.1565
868.50 0.1565
868.60 0.1566
868.70 0.1566
868.80 0.1566
868.90 0.1567
869.00 0.1567
869.10 0.1567
869.20 0.1568
869.30 0.1568
869.40 0.1568
869.50 0.1569
869.60 0.1569
869.70 0.157
869.80 0.157
869.90 0.157
870.00 0.1571
870.10 0.1571
870.20 0.1571
870.30 0.1572
870.40 0.1572
870.50 0.1572
870.60 0.1573
870.70 0.1573
870.80 0.1573
870.90 0.1574
871.00 0.1574
871.10 0.1575
871.20 0.1575
871.30 0.1575
871.40 0.1576
871.50 0.1576
871.60 0.1576
871.70 0.1577
871.80 0.1577
871.90 0.1577
872.00 0.1578
872.10 0.1576
872.20 0.1575
872.30 0.1573
872.40 0.1572
872.50 0.1571
872.60 0.1569
872.70 0.1568
872.80 0.1566
872.90 0.1565
873.00 0.1564
873.10 0.1562
873.20 0.1561
873.30 0.1559
873.40 0.1558
873.50 0.1556
873.60 0.1555
873.70 0.1554
873.80 0.1552
873.90 0.1551
874.00 0.1549
874.10 0.1548
874.20 0.1546
874.30 0.1545
874.40 0.1544
874.50 0.1542
874.60 0.1541
874.70 0.1539
874.80 0.1538
874.90 0.1537
875.00 0.1535
875.10 0.1534
875.20 0.1532
875.30 0.1531
875.40 0.153
875.50 0.1528
875.60 0.1527
875.70 0.1525
875.80 0.1524
875.90 0.1523
876.00 0.1521
876.10 0.152
876.20 0.1518
876.30 0.1517
876.40 0.1516
876.50 0.1514
876.60 0.1513
876.70 0.1511
876.80 0.151
876.90 0.1509
877.00 0.1507
877.10 0.1507
877.20 0.1508
877.30 0.1508
877.40 0.1508
877.50 0.1509
877.60 0.1509
877.70 0.1509
877.80 0.151
877.90 0.151
878.00 0.151
878.10 0.1511
878.20 0.1511
878.30 0.1511
878.40 0.1512
878.50 0.1512
878.60 0.1512
878.70 0.1512
878.80 0.1513
878.90 0.1513
879.00 0.1513
879.10 0.1514
879.20 0.1514
879.30 0.1514
879.40 0.1515
879.50 0.1515
879.60 0.1515
879.70 0.1516
879.80 0.1516
879.90 0.1516
880.00 0.1517
880.10 0.1517
880.20 0.1517
880.30 0.1518
880.40 0.1518
880.50 0.1518
880.60 0.1518
880.70 0.1519
880.80 0.1519
880.90 0.1519
881.00 0.152
881.10 0.152
881.20 0.152
881.30 0.1521
881.40 0.1521
881.50 0.1521
881.60 0.1522
881.70 0.1522
881.80 0.1522
881.90 0.1522
882.00 0.1523
882.10 0.1518
882.20 0.1514
882.30 0.1509
882.40 0.1505
882.50 0.15
882.60 0.1496
882.70 0.1491
882.80 0.1487
882.90 0.1483
883.00 0.1478
883.10 0.1474
883.20 0.1469
883.30 0.1465
883.40 0.146
883.50 0.1456
883.60 0.1451
883.70 0.1447
883.80 0.1442
883.90 0.1438
884.00 0.1434
884.10 0.1429
884.20 0.1425
884.30 0.142
884.40 0.1416
884.50 0.1411
884.60 0.1407
884.70 0.1402
884.80 0.1398
884.90 0.1394
885.00 0.1389
885.10 0.1385
885.20 0.138
885.30 0.1376
885.40 0.1372
885.50 0.1367
885.60 0.1363
885.70 0.1358
885.80 0.1354
885.90 0.1349
886.00 0.1345
886.10 0.1341
886.20 0.1336
886.30 0.1332
886.40 0.1327
886.50 0.1323
886.60 0.1319
886.70 0.1314
886.80 0.131
886.90 0.1306
887.00 0.1301
887.10 0.1304
887.20 0.1307
887.30 0.1311
887.40 0.1314
887.50 0.1317
887.60 0.132
887.70 0.1323
887.80 0.1326
887.90 0.1329
888.00 0.1332
888.10 0.1335
888.20 0.1339
888.30 0.1342
888.40 0.1345
888.50 0.1348
888.60 0.1351
888.70 0.1354
888.80 0.1357
888.90 0.136
889.00 0.1363
889.10 0.1366
889.20 0.137
889.30 0.1373
889.40 0.1376
889.50 0.1379
889.60 0.1382
889.70 0.1385
889.80 0.1388
889.90 0.1391
890.00 0.1394
890.10 0.1397
890.20 0.14
890.30 0.1404
890.40 0.1407
890.50 0.141
890.60 0.1413
890.70 0.1416
890.80 0.1419
890.90 0.1422
891.00 0.1425
891.10 0.1428
891.20 0.1431
891.30 0.1434
891.40 0.1437
891.50 0.144
891.60 0.1443
891.70 0.1447
891.80 0.145
891.90 0.1453
892.00 0.1456
892.10 0.1454
892.20 0.1453
892.30 0.1451
892.40 0.145
892.50 0.1448
892.60 0.1447
892.70 0.1445
892.80 0.1444
892.90 0.1442
893.00 0.1441
893.10 0.1439
893.20 0.1438
893.30 0.1436
893.40 0.1435
893.50 0.1433
893.60 0.1432
893.70 0.1431
893.80 0.1429
893.90 0.1428
894.00 0.1426
894.10 0.1425
894.20 0.1423
894.30 0.1422
894.40 0.142
894.50 0.1419
894.60 0.1417
894.70 0.1416
894.80 0.1414
894.90 0.1413
895.00 0.1411
895.10 0.141
895.20 0.1408
895.30 0.1407
895.40 0.1406
895.50 0.1404
895.60 0.1403
895.70 0.1401
895.80 0.14
895.90 0.1398
896.00 0.1397
896.10 0.1395
896.20 0.1394
896.30 0.1392
896.40 0.1391
896.50 0.1389
896.60 0.1388
896.70 0.1386
896.80 0.1385
896.90 0.1384
897.00 0.1382
897.10 0.1378
897.20 0.1373
897.30 0.1369
897.40 0.1364
897.50 0.136
897.60 0.1355
897.70 0.1351
897.80 0.1346
897.90 0.1342
898.00 0.1337
898.10 0.1333
898.20 0.1328
898.30 0.1324
898.40 0.1319
898.50 0.1315
898.60 0.131
898.70 0.1306
898.80 0.1301
898.90 0.1297
899.00 0.1292
899.10 0.1288
899.20 0.1283
899.30 0.1279
899.40 0.1274
899.50 0.127
899.60 0.1265
899.70 0.1261
899.80 0.1257
899.90 0.1252
900.00 0.1248
900.10 0.1243
900.20 0.1239
900.30 0.1234
900.40 0.123
900.50 0.1225
900.60 0.1221
900.70 0.1216
900.80 0.1212
900.90 0.1208
901.00 0.1203
901.10 0.1199
901.20 0.1194
901.30 0.119
901.40 0.1185
901.50 0.1181
901.60 0.1177
901.70 0.1172
901.80 0.1168
901.90 0.1163
902.00 0.1159
902.10 0.1163
902.20 0.1166
902.30 0.117
902.40 0.1174
902.50 0.1177
902.60 0.1181
902.70 0.1185
902.80 0.1189
902.90 0.1192
903.00 0.1196
903.10 0.12
903.20 0.1203
903.30 0.1207
903.40 0.1211
903.50 0.1214
903.60 0.1218
903.70 0.1222
903.80 0.1226
903.90 0.1229
904.00 0.1233
904.10 0.1237
904.20 0.124
904.30 0.1244
904.40 0.1248
904.50 0.1251
904.60 0.1255
904.70 0.1259
904.80 0.1262
904.90 0.1266
905.00 0.127
905.10 0.1273
905.20 0.1277
905.30 0.1281
905.40 0.1284
905.50 0.1288
905.60 0.1292
905.70 0.1295
905.80 0.1299
905.90 0.1303
906.00 0.1306
906.10 0.131
906.20 0.1313
906.30 0.1317
906.40 0.1321
906.50 0.1324
906.60 0.1328
906.70 0.1332
906.80 0.1335
906.90 0.1339
907.00 0.1343
907.10 0.1343
907.20 0.1344
907.30 0.1344
907.40 0.1344
907.50 0.1345
907.60 0.1345
907.70 0.1346
907.80 0.1346
907.90 0.1347
908.00 0.1347
908.10 0.1348
908.20 0.1348
908.30 0.1349
908.40 0.1349
908.50 0.135
908.60 0.135
908.70 0.1351
908.80 0.1351
908.90 0.1352
909.00 0.1352
909.10 0.1353
909.20 0.1353
909.30 0.1354
909.40 0.1354
909.50 0.1354
909.60 0.1355
909.70 0.1355
909.80 0.1356
909.90 0.1356
910.00 0.1357
910.10 0.1357
910.20 0.1358
910.30 0.1358
910.40 0.1359
910.50 0.1359
910.60 0.136
910.70 0.136
910.80 0.1361
910.90 0.1361
911.00 0.1361
911.10 0.1362
911.20 0.1362
911.30 0.1363
911.40 0.1363
911.50 0.1364
911.60 0.1364
911.70 0.1365
911.80 0.1365
911.90 0.1366
912.00 0.1366
912.10 0.1364
912.20 0.1363
912.30 0.1361
912.40 0.1359
912.50 0.1357
912.60 0.1355
912.70 0.1354
912.80 0.1352
912.90 0.135
913.00 0.1348
913.10 0.1346
913.20 0.1345
913.30 0.1343
913.40 0.1341
913.50 0.1339
913.60 0.1337
913.70 0.1336
913.80 0.1334
913.90 0.1332
914.00 0.133
914.10 0.1328
914.20 0.1327
914.30 0.1325
914.40 0.1323
914.50 0.1321
914.60 0.1319
914.70 0.1318
914.80 0.1316
914.90 0.1314
915.00 0.1312
915.10 0.1311
915.20 0.1309
915.30 0.1307
915.40 0.1305
915.50 0.1303
915.60 0.1302
915.70 0.13
915.80 0.1298
915.90 0.1296
916.00 0.1295
916.10 0.1293
916.20 0.1291
916.30 0.1289
916.40 0.1287
916.50 0.1286
916.60 0.1284
916.70 0.1282
916.80 0.128
916.90 0.1279
917.00 0.1277
917.10 0.1272
917.20 0.1267
917.30 0.1261
917.40 0.1256
917.50 0.1251
917.60 0.1246
917.70 0.1241
917.80 0.1236
917.90 0.1231
918.00 0.1226
918.10 0.1221
918.20 0.1215
918.30 0.121
918.40 0.1205
918.50 0.12
918.60 0.1195
918.70 0.119
918.80 0.1185
918.90 0.118
919.00 0.1175
919.10 0.117
919.20 0.1165
919.30 0.116
919.40 0.1155
919.50 0.1149
919.60 0.1144
919.70 0.1139
919.80 0.1134
919.90 0.1129
920.00 0.1124
920.10 0.1119
920.20 0.1114
920.30 0.1109
920.40 0.1104
920.50 0.1099
920.60 0.1094
920.70 0.1089
920.80 0.1084
920.90 0.1079
921.00 0.1074
921.10 0.1069
921.20 0.1064
921.30 0.1059
921.40 0.1054
921.50 0.1049
921.60 0.1044
921.70 0.1039
921.80 0.1033
921.90 0.1028
922.00 0.1023
922.10 0.1027
922.20 0.103
922.30 0.1034
922.40 0.1037
922.50 0.1041
922.60 0.1044
922.70 0.1047
922.80 0.1051
922.90 0.1054
923.00 0.1058
923.10 0.1061
923.20 0.1064
923.30 0.1068
923.40 0.1071
923.50 0.1075
923.60 0.1078
923.70 0.1081
923.80 0.1085
923.90 0.1088
924.00 0.1092
924.10 0.1095
924.20 0.1098
924.30 0.1102
924.40 0.1105
924.50 0.1108
924.60 0.1112
924.70 0.1115
924.80 0.1119
924.90 0.1122
925.00 0.1125
925.10 0.1129
925.20 0.1132
925.30 0.1136
925.40 0.1139
925.50 0.1142
925.60 0.1146
925.70 0.1149
925.80 0.1152
925.90 0.1156
926.00 0.1159
926.10 0.1162
926.20 0.1166
926.30 0.1169
926.40 0.1172
926.50 0.1176
926.60 0.1179
926.70 0.1183
926.80 0.1186
926.90 0.1189
927.00 0.1193
927.10 0.1194
927.20 0.1196
927.30 0.1197
927.40 0.1199
927.50 0.1201
927.60 0.1202
927.70 0.1204
927.80 0.1206
927.90 0.1207
928.00 0.1209
928.10 0.1211
928.20 0.1212
928.30 0.1214
928.40 0.1215
928.50 0.1217
928.60 0.1219
928.70 0.122
928.80 0.1222
928.90 0.1224
929.00 0.1225
929.10 0.1227
929.20 0.1228
929.30 0.123
929.40 0.1232
929.50 0.1233
929.60 0.1235
929.70 0.1236
929.80 0.1238
929.90 0.124
930.00 0.1241
930.10 0.1243
930.20 0.1245
930.30 0.1246
930.40 0.1248
930.50 0.1249
930.60 0.1251
930.70 0.1253
930.80 0.1254
930.90 0.1256
931.00 0.1257
931.10 0.1259
931.20 0.1261
931.30 0.1262
931.40 0.1264
931.50 0.1265
931.60 0.1267
931.70 0.1269
931.80 0.127
931.90 0.1272
932.00 0.1273
932.10 0.1274
932.20 0.1274
932.30 0.1274
932.40 0.1274
932.50 0.1275
932.60 0.1275
932.70 0.1275
932.80 0.1275
932.90 0.1275
933.00 0.1276
933.10 0.1276
933.20 0.1276
933.30 0.1276
933.40 0.1277
933.50 0.1277
933.60 0.1277
933.70 0.1277
933.80 0.1277
933.90 0.1278
934.00 0.1278
934.10 0.1278
934.20 0.1278
934.30 0.1279
934.40 0.1278
934.50 0.1278
934.60 0.1278
934.70 0.1278
934.80 0.1278
934.90 0.1278
935.00 0.1277
935.10 0.1277
935.20 0.1277
935.30 0.1277
935.40 0.1277
935.50 0.1276
935.60 0.1276
935.70 0.1276
935.80 0.1276
935.90 0.1276
936.00 0.1276
936.10 0.1275
936.20 0.1275
936.30 0.1275
936.40 0.1275
936.50 0.1275
936.60 0.1275
936.70 0.1274
936.80 0.1274
936.90 0.1274
937.00 0.1274
937.10 0.1273
937.20 0.1273
937.30 0.1273
937.40 0.1272
937.50 0.1272
937.60 0.1272
937.70 0.1271
937.80 0.1271
937.90 0.127
938.00 0.127
938.10 0.127
938.20 0.1269
938.30 0.1269
938.40 0.1268
938.50 0.1268
938.60 0.1267
938.70 0.1267
938.80 0.1266
938.90 0.1266
939.00 0.1265
939.10 0.1264
939.20 0.1264
939.30 0.1263
939.40 0.1263
939.50 0.1262
939.60 0.1262
939.70 0.1261
939.80 0.1261
939.90 0.126
940.00 0.1259
940.10 0.1259
940.20 0.1258
940.30 0.1258
940.40 0.1257
940.50 0.1256
940.60 0.1256
940.70 0.1255
940.80 0.1254
940.90 0.1253
941.00 0.1253
941.10 0.1252
941.20 0.1251
941.30 0.1251
941.40 0.125
941.50 0.1249
941.60 0.1248
941.70 0.1248
941.80 0.1247
941.90 0.1246
942.00 0.1245
942.10 0.1245
942.20 0.1244
942.30 0.1243
942.40 0.1242
942.50 0.1241
942.60 0.124
942.70 0.1239
942.80 0.1238
942.90 0.1237
943.00 0.1236
943.10 0.1235
943.20 0.1234
943.30 0.1233
943.40 0.1232
943.50 0.123
943.60 0.1229
943.70 0.1228
943.80 0.1227
943.90 0.1226
944.00 0.1225
944.10 0.1224
944.20 0.1223
944.30 0.1222
944.40 0.1221
944.50 0.1219
944.60 0.1218
944.70 0.1217
944.80 0.1215
944.90 0.1214
945.00 0.1213
945.10 0.1211
945.20 0.121
945.30 0.1209
945.40 0.1207
945.50 0.1205
945.60 0.1203
945.70 0.1201
945.80 0.12
945.90 0.1198
946.00 0.1196
946.10 0.1194
946.20 0.1192
946.30 0.1191
946.40 0.1189
946.50 0.1187
946.60 0.1185
946.70 0.1183
946.80 0.1182
946.90 0.118
947.00 0.1178
947.10 0.1176
947.20 0.1174
947.30 0.1172
947.40 0.1169
947.50 0.1166
947.60 0.1163
947.70 0.116
947.80 0.1158
947.90 0.1155
948.00 0.1152
948.10 0.1149
948.20 0.1146
948.30 0.1143
948.40 0.1141
948.50 0.1138
948.60 0.1135
948.70 0.1132
948.80 0.1129
948.90 0.1127
949.00 0.1124
949.10 0.1121
949.20 0.1118
949.30 0.1115
949.40 0.1111
949.50 0.1107
949.60 0.1103
949.70 0.1099
949.80 0.1095
949.90 0.109
950.00 0.1086
950.10 0.1082
950.20 0.1078
950.30 0.1074
950.40 0.107
950.50 0.1066
950.60 0.1061
950.70 0.1057
950.80 0.1053
950.90 0.1049
951.00 0.1045
951.10 0.1041
951.20 0.1037
951.30 0.1032
951.40 0.1027
951.50 0.1022
951.60 0.1017
951.70 0.1012
951.80 0.1006
951.90 0.1001
952.00 0.09961
952.10 0.09903
952.20 0.09846
952.30 0.09789
952.40 0.09732
952.50 0.09674
952.60 0.09617
952.70 0.0956
952.80 0.09503
952.90 0.09441
953.00 0.09379
953.10 0.09318
953.20 0.09256
953.30 0.09194
953.40 0.09133
953.50 0.09071
953.60 0.09007
953.70 0.08943
953.80 0.08878
953.90 0.08814
954.00 0.08755
954.10 0.08696
954.20 0.08666
954.30 0.0877
954.40 0.0866
954.50 0.08685
954.60 0.08738
954.70 0.08792
954.80 0.0885
954.90 0.08908
955.00 0.08966
955.10 0.09024
955.20 0.09079
955.30 0.09133
955.40 0.09188
955.50 0.09243
955.60 0.09298
955.70 0.09352
955.80 0.09407
955.90 0.09455
956.00 0.09503
956.10 0.09551
956.20 0.09599
956.30 0.09648
956.40 0.09696
956.50 0.09744
956.60 0.09792
956.70 0.0984
956.80 0.09888
956.90 0.09936
957.00 0.09983
957.10 0.1003
957.20 0.1007
957.30 0.1011
957.40 0.1014
957.50 0.1017
957.60 0.1021
957.70 0.1024
957.80 0.1027
957.90 0.1031
958.00 0.1034
958.10 0.1037
958.20 0.104
958.30 0.1044
958.40 0.1047
958.50 0.105
958.60 0.1053
958.70 0.1057
958.80 0.106
958.90 0.1063
959.00 0.1066
959.10 0.107
959.20 0.1073
959.30 0.1076
959.40 0.1078
959.50 0.108
959.60 0.1082
959.70 0.1084
959.80 0.1086
959.90 0.1087
960.00 0.1089
960.10 0.1091
960.20 0.1093
960.30 0.1095
960.40 0.1097
960.50 0.1099
960.60 0.1101
960.70 0.1102
960.80 0.1104
960.90 0.1106
961.00 0.1108
961.10 0.111
961.20 0.1112
961.30 0.1114
961.40 0.1115
961.50 0.1116
961.60 0.1117
961.70 0.1118
961.80 0.112
961.90 0.1121
962.00 0.1122
962.10 0.1123
962.20 0.1124
962.30 0.1124
962.40 0.1125
962.50 0.1126
962.60 0.1127
962.70 0.1128
962.80 0.1128
962.90 0.1129
963.00 0.113
963.10 0.1131
963.20 0.1132
963.30 0.1132
963.40 0.1133
963.50 0.1133
963.60 0.1134
963.70 0.1134
963.80 0.1135
963.90 0.1135
964.00 0.1136
964.10 0.1136
964.20 0.1137
964.30 0.1137
964.40 0.1137
964.50 0.1137
964.60 0.1138
964.70 0.1138
964.80 0.1138
964.90 0.1138
965.00 0.1138
965.10 0.1138
965.20 0.1139
965.30 0.1139
965.40 0.1139
965.50 0.1139
965.60 0.1139
965.70 0.1139
965.80 0.114
965.90 0.114
966.00 0.114
966.10 0.114
966.20 0.114
966.30 0.114
966.40 0.114
966.50 0.114
966.60 0.114
966.70 0.114
966.80 0.114
966.90 0.114
967.00 0.114
967.10 0.114
967.20 0.114
967.30 0.114
967.40 0.114
967.50 0.114
967.60 0.114
967.70 0.114
967.80 0.114
967.90 0.1139
968.00 0.1139
968.10 0.1139
968.20 0.1139
968.30 0.1139
968.40 0.1139
968.50 0.1139
968.60 0.1138
968.70 0.1138
968.80 0.1138
968.90 0.1138
969.00 0.1138
969.10 0.1137
969.20 0.1137
969.30 0.1137
969.40 0.1137
969.50 0.1137
969.60 0.1136
969.70 0.1136
969.80 0.1136
969.90 0.1136
970.00 0.1135
970.10 0.1135
970.20 0.1135
970.30 0.1135
970.40 0.1135
970.50 0.1134
970.60 0.1134
970.70 0.1134
970.80 0.1133
970.90 0.1133
971.00 0.1133
971.10 0.1133
971.20 0.1132
971.30 0.1132
971.40 0.1132
971.50 0.1131
971.60 0.1131
971.70 0.1131
971.80 0.1131
971.90 0.113
972.00 0.113
972.10 0.113
972.20 0.1129
972.30 0.1129
972.40 0.1129
972.50 0.1128
972.60 0.1128
972.70 0.1128
972.80 0.1127
972.90 0.1127
973.00 0.1127
973.10 0.1126
973.20 0.1126
973.30 0.1126
973.40 0.1125
973.50 0.1125
973.60 0.1125
973.70 0.1124
973.80 0.1124
973.90 0.1124
974.00 0.1123
974.10 0.1123
974.20 0.1123
974.30 0.1122
974.40 0.1122
974.50 0.1121
974.60 0.1121
974.70 0.1121
974.80 0.112
974.90 0.112
975.00 0.112
975.10 0.1119
975.20 0.1119
975.30 0.1118
975.40 0.1118
975.50 0.1118
975.60 0.1117
975.70 0.1117
975.80 0.1117
975.90 0.1116
976.00 0.1116
976.10 0.1115
976.20 0.1115
976.30 0.1115
976.40 0.1114
976.50 0.1114
976.60 0.1114
976.70 0.1113
976.80 0.1113
976.90 0.1112
977.00 0.1112
977.10 0.1112
977.20 0.1111
977.30 0.1111
977.40 0.111
977.50 0.111
977.60 0.111
977.70 0.1109
977.80 0.1109
977.90 0.1108
978.00 0.1108
978.10 0.1108
978.20 0.1107
978.30 0.1107
978.40 0.1106
978.50 0.1106
978.60 0.1105
978.70 0.1105
978.80 0.1105
978.90 0.1104
979.00 0.1104
979.10 0.1103
979.20 0.1103
979.30 0.1103
979.40 0.1102
979.50 0.1102
979.60 0.1101
979.70 0.1101
979.80 0.11
979.90 0.11
980.00 0.11
980.10 0.1099
980.20 0.1099
980.30 0.1098
980.40 0.1098
980.50 0.1098
980.60 0.1097
980.70 0.1097
980.80 0.1096
980.90 0.1096
981.00 0.1096
981.10 0.1095
981.20 0.1095
981.30 0.1094
981.40 0.1094
981.50 0.1093
981.60 0.1093
981.70 0.1093
981.80 0.1092
981.90 0.1092
982.00 0.1091
982.10 0.1091
982.20 0.1091
982.30 0.109
982.40 0.109
982.50 0.1089
982.60 0.1089
982.70 0.1088
982.80 0.1088
982.90 0.1087
983.00 0.1087
983.10 0.1087
983.20 0.1086
983.30 0.1086
983.40 0.1085
983.50 0.1085
983.60 0.1084
983.70 0.1084
983.80 0.1083
983.90 0.1083
984.00 0.1083
984.10 0.1082
984.20 0.1082
984.30 0.1081
984.40 0.1081
984.50 0.108
984.60 0.108
984.70 0.1079
984.80 0.1079
984.90 0.1078
985.00 0.1078
985.10 0.1077
985.20 0.1077
985.30 0.1076
985.40 0.1076
985.50 0.1075
985.60 0.1075
985.70 0.1075
985.80 0.1074
985.90 0.1074
986.00 0.1073
986.10 0.1073
986.20 0.1072
986.30 0.1072
986.40 0.1071
986.50 0.1071
986.60 0.107
986.70 0.107
986.80 0.1069
986.90 0.1069
987.00 0.1068
987.10 0.1068
987.20 0.1067
987.30 0.1067
987.40 0.1066
987.50 0.1066
987.60 0.1065
987.70 0.1065
987.80 0.1064
987.90 0.1063
988.00 0.1063
988.10 0.1062
988.20 0.1062
988.30 0.1061
988.40 0.1061
988.50 0.106
988.60 0.106
988.70 0.1059
988.80 0.1059
988.90 0.1058
989.00 0.1057
989.10 0.1057
989.20 0.1056
989.30 0.1056
989.40 0.1055
989.50 0.1054
989.60 0.1054
989.70 0.1053
989.80 0.1053
989.90 0.1052
990.00 0.1051
990.10 0.1051
990.20 0.105
990.30 0.105
990.40 0.1049
990.50 0.1048
990.60 0.1048
990.70 0.1047
990.80 0.1046
990.90 0.1046
991.00 0.1045
991.10 0.1044
991.20 0.1044
991.30 0.1043
991.40 0.1042
991.50 0.1041
991.60 0.1041
991.70 0.104
991.80 0.1039
991.90 0.1039
992.00 0.1038
992.10 0.1037
992.20 0.1036
992.30 0.1036
992.40 0.1035
992.50 0.1034
992.60 0.1033
992.70 0.1032
992.80 0.1031
992.90 0.103
993.00 0.103
993.10 0.1029
993.20 0.1028
993.30 0.1027
993.40 0.1026
993.50 0.1025
993.60 0.1024
993.70 0.1023
993.80 0.1022
993.90 0.1021
994.00 0.102
994.10 0.1019
994.20 0.1018
994.30 0.1017
994.40 0.1016
994.50 0.1015
994.60 0.1014
994.70 0.1013
994.80 0.1012
994.90 0.1011
995.00 0.101
995.10 0.1009
995.20 0.1007
995.30 0.1006
995.40 0.1005
995.50 0.1004
995.60 0.1003
995.70 0.1001
995.80 0.09998
995.90 0.09983
996.00 0.09968
996.10 0.09953
996.20 0.09938
996.30 0.09922
996.40 0.09907
996.50 0.09893
996.60 0.09878
996.70 0.09863
996.80 0.09848
996.90 0.09833
997.00 0.09818
997.10 0.098
997.20 0.09783
997.30 0.09765
997.40 0.09748
997.50 0.0973
997.60 0.09713
997.70 0.09691
997.80 0.09667
997.90 0.09644
998.00 0.09621
998.10 0.09597
998.20 0.09574
998.30 0.0955
998.40 0.09527
998.50 0.09504
998.60 0.0948
998.70 0.09457
998.80 0.09434
998.90 0.0941
999.00 0.09387
999.10 0.09364
999.20 0.0934
999.30 0.09317
999.40 0.09294
999.50 0.09271
999.60 0.09247
999.70 0.09216
999.80 0.09183
999.90 0.09149
1000.00 0.09116
1000.10 0.09082
1000.20 0.09049
1000.30 0.09015
1000.40 0.08982
1000.50 0.08948
1000.60 0.08915
1000.70 0.08881
1000.80 0.08848
1000.90 0.08814
1001.00 0.08781
1001.10 0.08748
1001.20 0.08714
1001.30 0.08681
1001.40 0.08648
1001.50 0.08614
1001.60 0.08581
1001.70 0.08542
1001.80 0.08501
1001.90 0.08461
1002.00 0.0842
1002.10 0.08375
1002.20 0.08329
1002.30 0.08284
1002.40 0.08239
1002.50 0.08194
1002.60 0.08148
1002.70 0.08103
1002.80 0.08058
1002.90 0.08013
1003.00 0.07968
1003.10 0.07923
1003.20 0.07872
1003.30 0.07819
1003.40 0.07767
1003.50 0.07714
1003.60 0.07662
1003.70 0.07609
1003.80 0.07557
1003.90 0.07494
1004.00 0.07428
1004.10 0.07362
1004.20 0.07296
1004.30 0.07212
1004.40 0.07121
1004.50 0.07026
1004.60 0.07
1004.70 0.06985
1004.80 0.0707
1004.90 0.07156
1005.00 0.07242
1005.10 0.07309
1005.20 0.07369
1005.30 0.0743
1005.40 0.07491
1005.50 0.07541
1005.60 0.07588
1005.70 0.07635
1005.80 0.07683
1005.90 0.0773
1006.00 0.07777
1006.10 0.07824
1006.20 0.07865
1006.30 0.07905
1006.40 0.07945
1006.50 0.07985
1006.60 0.08025
1006.70 0.08065
1006.80 0.08105
1006.90 0.08145
1007.00 0.08185
1007.10 0.08219
1007.20 0.08254
1007.30 0.08289
1007.40 0.08324
1007.50 0.08359
1007.60 0.08394
1007.70 0.08422
1007.80 0.08448
1007.90 0.08475
1008.00 0.08501
1008.10 0.08528
1008.20 0.08554
1008.30 0.08581
1008.40 0.08607
1008.50 0.08633
1008.60 0.0866
1008.70 0.08686
1008.80 0.08712
1008.90 0.08739
1009.00 0.08765
1009.10 0.08791
1009.20 0.08818
1009.30 0.08844
1009.40 0.0887
1009.50 0.08896
1009.60 0.08923
1009.70 0.08941
1009.80 0.08957
1009.90 0.08972
1010.00 0.08988
1010.10 0.09004
1010.20 0.09019
1010.30 0.09035
1010.40 0.09051
1010.50 0.09066
1010.60 0.09082
1010.70 0.09098
1010.80 0.09113
1010.90 0.09129
1011.00 0.09145
1011.10 0.0916
1011.20 0.09176
1011.30 0.09191
1011.40 0.09207
1011.50 0.09223
1011.60 0.09238
1011.70 0.0925
1011.80 0.09261
1011.90 0.09272
1012.00 0.09283
1012.10 0.09291
1012.20 0.09298
1012.30 0.09306
1012.40 0.09313
1012.50 0.09321
1012.60 0.09328
1012.70 0.09336
1012.80 0.09343
1012.90 0.0935
1013.00 0.09358
1013.10 0.09365
1013.20 0.09373
1013.30 0.0938
1013.40 0.09387
1013.50 0.09395
1013.60 0.09402
1013.70 0.09407
1013.80 0.09412
1013.90 0.09416
1014.00 0.0942
1014.10 0.09425
1014.20 0.09429
1014.30 0.09434
1014.40 0.09438
1014.50 0.09442
1014.60 0.09447
1014.70 0.09449
1014.80 0.09451
1014.90 0.09453
1015.00 0.09455
1015.10 0.09457
1015.20 0.09459
1015.30 0.09461
1015.40 0.09463
1015.50 0.09465
1015.60 0.09467
1015.70 0.09469
1015.80 0.09471
1015.90 0.09473
1016.00 0.09475
1016.10 0.09477
1016.20 0.09479
1016.30 0.09481
1016.40 0.09483
1016.50 0.09485
1016.60 0.09486
1016.70 0.09487
1016.80 0.09487
1016.90 0.09488
1017.00 0.09488
1017.10 0.09487
1017.20 0.09487
1017.30 0.09487
1017.40 0.09486
1017.50 0.09486
1017.60 0.09485
1017.70 0.09485
1017.80 0.09485
1017.90 0.09484
1018.00 0.09484
1018.10 0.09484
1018.20 0.09483
1018.30 0.09483
1018.40 0.09482
1018.50 0.09482
1018.60 0.09482
1018.70 0.0948
1018.80 0.09479
1018.90 0.09478
1019.00 0.09476
1019.10 0.09475
1019.20 0.09473
1019.30 0.09472
1019.40 0.0947
1019.50 0.09469
1019.60 0.09467
1019.70 0.09466
1019.80 0.09465
1019.90 0.09463
1020.00 0.09462
1020.10 0.0946
1020.20 0.09459
1020.30 0.09457
1020.40 0.09456
1020.50 0.09454
1020.60 0.09453
1020.70 0.09451
1020.80 0.09449
1020.90 0.09447
1021.00 0.09445
1021.10 0.09443
1021.20 0.09441
1021.30 0.09439
1021.40 0.09437
1021.50 0.09435
1021.60 0.09433
1021.70 0.09431
1021.80 0.09429
1021.90 0.09427
1022.00 0.09425
1022.10 0.09422
1022.20 0.0942
1022.30 0.09417
1022.40 0.09415
1022.50 0.09413
1022.60 0.0941
1022.70 0.09408
1022.80 0.09405
1022.90 0.09403
1023.00 0.094
1023.10 0.09398
1023.20 0.09395
1023.30 0.09393
1023.40 0.0939
1023.50 0.09388
1023.60 0.09385
1023.70 0.09383
1023.80 0.0938
1023.90 0.09378
1024.00 0.09375
1024.10 0.09373
1024.20 0.0937
1024.30 0.09368
1024.40 0.09366
1024.50 0.09363
1024.60 0.09361
1024.70 0.09358
1024.80 0.09355
1024.90 0.09352
1025.00 0.0935
1025.10 0.09347
1025.20 0.09344
1025.30 0.09341
1025.40 0.09338
1025.50 0.09336
1025.60 0.09333
1025.70 0.0933
1025.80 0.09327
1025.90 0.09325
1026.00 0.09322
1026.10 0.09319
1026.20 0.09316
1026.30 0.09314
1026.40 0.09311
1026.50 0.09308
1026.60 0.09305
1026.70 0.09302
1026.80 0.093
1026.90 0.09297
1027.00 0.09294
1027.10 0.09291
1027.20 0.09288
1027.30 0.09285
1027.40 0.09282
1027.50 0.09279
1027.60 0.09276
1027.70 0.09273
1027.80 0.0927
1027.90 0.09267
1028.00 0.09264
1028.10 0.09261
1028.20 0.09258
1028.30 0.09255
1028.40 0.09252
1028.50 0.09249
1028.60 0.09246
1028.70 0.09243
1028.80 0.09241
1028.90 0.09238
1029.00 0.09235
1029.10 0.09232
1029.20 0.09229
1029.30 0.09226
1029.40 0.09223
1029.50 0.0922
1029.60 0.09217
1029.70 0.09214
1029.80 0.09211
1029.90 0.09208
1030.00 0.09205
1030.10 0.09202
1030.20 0.09199
1030.30 0.09196
1030.40 0.09193
1030.50 0.0919
1030.60 0.09187
1030.70 0.09184
1030.80 0.09181
1030.90 0.09178
1031.00 0.09175
1031.10 0.09172
1031.20 0.09169
1031.30 0.09167
1031.40 0.09164
1031.50 0.09161
1031.60 0.09158
1031.70 0.09155
1031.80 0.09152
1031.90 0.09149
1032.00 0.09146
1032.10 0.09143
1032.20 0.0914
1032.30 0.09137
1032.40 0.09134
1032.50 0.09131
1032.60 0.09127
1032.70 0.09124
1032.80 0.09121
1032.90 0.09118
1033.00 0.09115
1033.10 0.09112
1033.20 0.09109
1033.30 0.09106
1033.40 0.09103
1033.50 0.091
1033.60 0.09097
1033.70 0.09094
1033.80 0.09091
1033.90 0.09087
1034.00 0.09084
1034.10 0.09081
1034.20 0.09078
1034.30 0.09075
1034.40 0.09072
1034.50 0.09069
1034.60 0.09066
1034.70 0.09063
1034.80 0.0906
1034.90 0.09057
1035.00 0.09054
1035.10 0.09051
1035.20 0.09048
1035.30 0.09045
1035.40 0.09042
1035.50 0.09038
1035.60 0.09035
1035.70 0.09032
1035.80 0.09029
1035.90 0.09026
1036.00 0.09023
1036.10 0.0902
1036.20 0.09017
1036.30 0.09014
1036.40 0.09011
1036.50 0.09008
1036.60 0.09005
1036.70 0.09002
1036.80 0.08999
1036.90 0.08996
1037.00 0.08993
1037.10 0.0899
1037.20 0.08987
1037.30 0.08984
1037.40 0.0898
1037.50 0.08977
1037.60 0.08974
1037.70 0.08971
1037.80 0.08968
1037.90 0.08965
1038.00 0.08962
1038.10 0.08959
1038.20 0.08956
1038.30 0.08953
1038.40 0.0895
1038.50 0.08947
1038.60 0.08943
1038.70 0.0894
1038.80 0.08937
1038.90 0.08934
1039.00 0.08931
1039.10 0.08928
1039.20 0.08925
1039.30 0.08922
1039.40 0.08919
1039.50 0.08916
1039.60 0.08913
1039.70 0.0891
1039.80 0.08907
1039.90 0.08904
1040.00 0.089
1040.10 0.08897
1040.20 0.08894
1040.30 0.08891
1040.40 0.08888
1040.50 0.08885
1040.60 0.08882
1040.70 0.08879
1040.80 0.08876
1040.90 0.08873
1041.00 0.0887
1041.10 0.08867
1041.20 0.08864
1041.30 0.08861
1041.40 0.08858
1041.50 0.08855
1041.60 0.08852
1041.70 0.08849
1041.80 0.08845
1041.90 0.08842
1042.00 0.08839
1042.10 0.08836
1042.20 0.08833
1042.30 0.0883
1042.40 0.08827
1042.50 0.08824
1042.60 0.08821
1042.70 0.08818
1042.80 0.08815
1042.90 0.08812
1043.00 0.08809
1043.10 0.08806
1043.20 0.08803
1043.30 0.088
1043.40 0.08796
1043.50 0.08793
1043.60 0.0879
1043.70 0.08787
1043.80 0.08784
1043.90 0.08781
1044.00 0.08778
1044.10 0.08775
1044.20 0.08772
1044.30 0.08769
1044.40 0.08766
1044.50 0.08763
1044.60 0.0876
1044.70 0.08757
1044.80 0.08754
1044.90 0.08751
1045.00 0.08748
1045.10 0.08745
1045.20 0.08742
1045.30 0.08738
1045.40 0.08735
1045.50 0.08732
1045.60 0.08729
1045.70 0.08726
1045.80 0.08723
1045.90 0.0872
1046.00 0.08717
1046.10 0.08714
1046.20 0.08711
1046.30 0.08708
1046.40 0.08705
1046.50 0.08702
1046.60 0.08699
1046.70 0.08696
1046.80 0.08693
1046.90 0.0869
1047.00 0.08687
1047.10 0.08684
1047.20 0.08681
1047.30 0.08678
1047.40 0.08675
1047.50 0.08672
1047.60 0.08669
1047.70 0.08666
1047.80 0.08663
1047.90 0.0866
1048.00 0.08657
1048.10 0.08654
1048.20 0.0865
1048.30 0.08647
1048.40 0.08644
1048.50 0.08641
1048.60 0.08638
1048.70 0.08635
1048.80 0.08632
1048.90 0.08629
1049.00 0.08626
1049.10 0.08623
1049.20 0.0862
1049.30 0.08617
1049.40 0.08614
1049.50 0.08611
1049.60 0.08608
1049.70 0.08605
1049.80 0.08602
1049.90 0.08599
1050.00 0.08596
1050.10 0.08593
1050.20 0.0859
1050.30 0.08587
1050.40 0.08584
1050.50 0.08581
1050.60 0.08578
1050.70 0.08575
1050.80 0.08572
1050.90 0.08569
1051.00 0.08566
1051.10 0.08563
1051.20 0.0856
1051.30 0.08557
1051.40 0.08554
1051.50 0.08551
1051.60 0.08548
1051.70 0.08545
1051.80 0.08542
1051.90 0.08539
1052.00 0.08536
1052.10 0.08533
1052.20 0.0853
1052.30 0.08527
1052.40 0.08524
1052.50 0.08521
1052.60 0.08518
1052.70 0.08515
1052.80 0.08512
1052.90 0.08509
1053.00 0.08506
1053.10 0.08503
1053.20 0.085
1053.30 0.08497
1053.40 0.08494
1053.50 0.08491
1053.60 0.08488
1053.70 0.08485
1053.80 0.08482
1053.90 0.08479
1054.00 0.08476
1054.10 0.08473
1054.20 0.0847
1054.30 0.08467
1054.40 0.08464
1054.50 0.08461
1054.60 0.08458
1054.70 0.08455
1054.80 0.08452
1054.90 0.08449
1055.00 0.08446
1055.10 0.08443
1055.20 0.0844
1055.30 0.08437
1055.40 0.08434
1055.50 0.08431
1055.60 0.08428
1055.70 0.08425
1055.80 0.08422
1055.90 0.08419
1056.00 0.08416
1056.10 0.08413
1056.20 0.0841
1056.30 0.08408
1056.40 0.08405
1056.50 0.08402
1056.60 0.08399
1056.70 0.08396
1056.80 0.08393
1056.90 0.0839
1057.00 0.08387
1057.10 0.08384
1057.20 0.08381
1057.30 0.08378
1057.40 0.08375
1057.50 0.08372
1057.60 0.08369
1057.70 0.08366
1057.80 0.08363
1057.90 0.0836
1058.00 0.08357
1058.10 0.08354
1058.20 0.08351
1058.30 0.08348
1058.40 0.08345
1058.50 0.08342
1058.60 0.08339
1058.70 0.08336
1058.80 0.08333
1058.90 0.0833
1059.00 0.08327
1059.10 0.08324
1059.20 0.08321
1059.30 0.08318
1059.40 0.08315
1059.50 0.08312
1059.60 0.08309
1059.70 0.08306
1059.80 0.08303
1059.90 0.083
1060.00 0.08297
1060.10 0.08294
1060.20 0.08291
1060.30 0.08289
1060.40 0.08286
1060.50 0.08283
1060.60 0.0828
1060.70 0.08277
1060.80 0.08274
1060.90 0.08271
1061.00 0.08268
1061.10 0.08265
1061.20 0.08262
1061.30 0.08259
1061.40 0.08256
1061.50 0.08253
1061.60 0.0825
1061.70 0.08247
1061.80 0.08244
1061.90 0.08241
1062.00 0.08238
1062.10 0.08235
1062.20 0.08232
1062.30 0.08229
1062.40 0.08226
1062.50 0.08223
1062.60 0.0822
1062.70 0.08217
1062.80 0.08214
1062.90 0.08211
1063.00 0.08208
1063.10 0.08205
1063.20 0.08202
1063.30 0.08199
1063.40 0.08196
1063.50 0.08193
1063.60 0.0819
1063.70 0.08187
1063.80 0.08184
1063.90 0.08181
1064.00 0.08178
1064.10 0.08175
1064.20 0.08172
1064.30 0.08169
1064.40 0.08166
1064.50 0.08163
1064.60 0.0816
1064.70 0.08157
1064.80 0.08154
1064.90 0.08151
1065.00 0.08148
1065.10 0.08145
1065.20 0.08142
1065.30 0.08139
1065.40 0.08136
1065.50 0.08134
1065.60 0.08131
1065.70 0.08128
1065.80 0.08125
1065.90 0.08122
1066.00 0.08119
1066.10 0.08116
1066.20 0.08113
1066.30 0.0811
1066.40 0.08107
1066.50 0.08104
1066.60 0.08101
1066.70 0.08098
1066.80 0.08095
1066.90 0.08092
1067.00 0.08089
1067.10 0.08086
1067.20 0.08083
1067.30 0.0808
1067.40 0.08077
1067.50 0.08073
1067.60 0.0807
1067.70 0.08067
1067.80 0.08064
1067.90 0.08061
1068.00 0.08058
1068.10 0.08055
1068.20 0.08052
1068.30 0.08049
1068.40 0.08046
1068.50 0.08042
1068.60 0.08039
1068.70 0.08036
1068.80 0.08033
1068.90 0.0803
1069.00 0.08027
1069.10 0.08024
1069.20 0.08021
1069.30 0.08018
1069.40 0.08015
1069.50 0.08012
1069.60 0.08009
1069.70 0.08005
1069.80 0.08002
1069.90 0.07999
1070.00 0.07996
1070.10 0.07993
1070.20 0.0799
1070.30 0.07987
1070.40 0.07984
1070.50 0.07981
1070.60 0.07978
1070.70 0.07975
1070.80 0.07972
1070.90 0.07969
1071.00 0.07965
1071.10 0.07962
1071.20 0.07959
1071.30 0.07956
1071.40 0.07953
1071.50 0.0795
1071.60 0.07947
1071.70 0.07944
1071.80 0.07941
1071.90 0.07938
1072.00 0.07935
1072.10 0.07932
1072.20 0.07928
1072.30 0.07925
1072.40 0.07922
1072.50 0.07919
1072.60 0.07915
1072.70 0.07912
1072.80 0.07909
1072.90 0.07906
1073.00 0.07902
1073.10 0.07899
1073.20 0.07896
1073.30 0.07893
1073.40 0.0789
1073.50 0.07886
1073.60 0.07883
1073.70 0.07879
1073.80 0.07876
1073.90 0.07872
1074.00 0.07869
1074.10 0.07865
1074.20 0.07862
1074.30 0.07858
1074.40 0.07855
1074.50 0.07851
1074.60 0.07848
1074.70 0.07844
1074.80 0.07841
1074.90 0.07837
1075.00 0.07834
1075.10 0.0783
1075.20 0.07827
1075.30 0.07823
1075.40 0.0782
1075.50 0.07816
1075.60 0.07813
1075.70 0.07809
1075.80 0.07806
1075.90 0.07802
1076.00 0.07799
1076.10 0.07796
1076.20 0.07792
1076.30 0.07789
1076.40 0.07785
1076.50 0.07782
1076.60 0.07778
1076.70 0.07775
1076.80 0.07771
1076.90 0.07768
1077.00 0.07764
1077.10 0.07761
1077.20 0.07757
1077.30 0.07753
1077.40 0.07749
1077.50 0.07745
1077.60 0.07741
1077.70 0.07737
1077.80 0.07733
1077.90 0.07729
1078.00 0.07725
1078.10 0.07721
1078.20 0.07717
1078.30 0.07712
1078.40 0.07708
1078.50 0.07704
1078.60 0.077
1078.70 0.07696
1078.80 0.07692
1078.90 0.07688
1079.00 0.07684
1079.10 0.0768
1079.20 0.07676
1079.30 0.07672
1079.40 0.07667
1079.50 0.07663
1079.60 0.07658
1079.70 0.07653
1079.80 0.07649
1079.90 0.07644
1080.00 0.07639
1080.10 0.07634
1080.20 0.07629
1080.30 0.07624
1080.40 0.07619
1080.50 0.07615
1080.60 0.0761
1080.70 0.07605
1080.80 0.076
1080.90 0.07595
1081.00 0.0759
1081.10 0.07586
1081.20 0.07581
1081.30 0.07576
1081.40 0.07571
1081.50 0.07566
1081.60 0.0756
1081.70 0.07554
1081.80 0.07548
1081.90 0.07543
1082.00 0.07537
1082.10 0.0753
1082.20 0.07524
1082.30 0.07517
1082.40 0.07511
1082.50 0.07504
1082.60 0.07498
1082.70 0.07491
1082.80 0.07485
1082.90 0.07479
1083.00 0.07472
1083.10 0.07466
1083.20 0.07459
1083.30 0.07453
1083.40 0.07446
1083.50 0.07439
1083.60 0.07431
1083.70 0.07423
1083.80 0.07416
1083.90 0.07408
1084.00 0.074
1084.10 0.07392
1084.20 0.07384
1084.30 0.07376
1084.40 0.07368
1084.50 0.07359
1084.60 0.07349
1084.70 0.07338
1084.80 0.07328
1084.90 0.07318
1085.00 0.07307
1085.10 0.07297
1085.20 0.07286
1085.30 0.07276
1085.40 0.07266
1085.50 0.07255
1085.60 0.07245
1085.70 0.07234
1085.80 0.07224
1085.90 0.07214
1086.00 0.07203
1086.10 0.07193
1086.20 0.07183
1086.30 0.07172
1086.40 0.07162
1086.50 0.07151
1086.60 0.07138
1086.70 0.07125
1086.80 0.07112
1086.90 0.071
1087.00 0.07087
1087.10 0.07071
1087.20 0.07055
1087.30 0.07038
1087.40 0.07022
1087.50 0.07006
1087.60 0.0699
1087.70 0.06974
1087.80 0.06958
1087.90 0.06942
1088.00 0.06926
1088.10 0.06909
1088.20 0.06893
1088.30 0.06877
1088.40 0.06861
1088.50 0.06843
1088.60 0.0682
1088.70 0.06798
1088.80 0.06775
1088.90 0.06753
1089.00 0.0673
1089.10 0.06707
1089.20 0.06685
1089.30 0.06662
1089.40 0.0664
1089.50 0.06617
1089.60 0.06594
1089.70 0.06572
1089.80 0.06549
1089.90 0.06527
1090.00 0.06504
1090.10 0.06482
1090.20 0.06459
1090.30 0.06437
1090.40 0.06414
1090.50 0.06389
1090.60 0.06359
1090.70 0.06329
1090.80 0.06299
1090.90 0.06268
1091.00 0.06238
1091.10 0.06208
1091.20 0.06178
1091.30 0.06148
1091.40 0.06118
1091.50 0.06087
1091.60 0.06057
1091.70 0.06027
1091.80 0.05997
1091.90 0.05967
1092.00 0.05935
1092.10 0.05898
1092.20 0.0586
1092.30 0.05822
1092.40 0.05785
1092.50 0.05747
1092.60 0.05709
1092.70 0.05667
1092.80 0.05614
1092.90 0.05562
1093.00 0.05509
1093.10 0.05443
1093.20 0.0535
1093.30 0.05252
1093.40 0.05116
1093.50 0.0509
1093.60 0.052
1093.70 0.05309
1093.80 0.05399
1093.90 0.05476
1094.00 0.05525
1094.10 0.05574
1094.20 0.05623
1094.30 0.05667
1094.40 0.05701
1094.50 0.05735
1094.60 0.05768
1094.70 0.05802
1094.80 0.05836
1094.90 0.05869
1095.00 0.059
1095.10 0.05926
1095.20 0.05952
1095.30 0.05978
1095.40 0.06004
1095.50 0.0603
1095.60 0.06056
1095.70 0.06081
1095.80 0.06107
1095.90 0.06133
1096.00 0.06159
1096.10 0.06185
1096.20 0.06211
1096.30 0.06236
1096.40 0.06262
1096.50 0.06286
1096.60 0.06307
1096.70 0.06328
1096.80 0.06348
1096.90 0.06369
1097.00 0.0639
1097.10 0.06406
1097.20 0.06423
1097.30 0.06439
1097.40 0.06455
1097.50 0.06472
1097.60 0.06488
1097.70 0.06505
1097.80 0.06521
1097.90 0.06538
1098.00 0.06554
1098.10 0.06571
1098.20 0.06587
1098.30 0.06603
1098.40 0.0662
1098.50 0.06634
1098.60 0.06644
1098.70 0.06655
1098.80 0.06665
1098.90 0.06675
1099.00 0.06685
1099.10 0.06696
1099.20 0.06706
1099.30 0.06716
1099.40 0.06726
1099.50 0.06737
1099.60 0.06747
1099.70 0.06757
1099.80 0.06767
1099.90 0.06777
1100.00 0.06788
1100.10 0.06798
1100.20 0.06808
1100.30 0.06818
1100.40 0.06828
1100.50 0.06837
1100.60 0.06843
1100.70 0.06849
1100.80 0.06854
1100.90 0.0686
1101.00 0.06866
1101.10 0.06872
1101.20 0.06877
1101.30 0.06883
1101.40 0.06889
1101.50 0.06894
1101.60 0.069
1101.70 0.06906
1101.80 0.06911
1101.90 0.06917
1102.00 0.06923
1102.10 0.06926
1102.20 0.0693
1102.30 0.06933
1102.40 0.06936
1102.50 0.0694
1102.60 0.06942
1102.70 0.06945
1102.80 0.06948
1102.90 0.0695
1103.00 0.06953
1103.10 0.06956
1103.20 0.06958
1103.30 0.06961
1103.40 0.06964
1103.50 0.06966
1103.60 0.06967
1103.70 0.06968
1103.80 0.06969
1103.90 0.0697
1104.00 0.06971
1104.10 0.06972
1104.20 0.06973
1104.30 0.06974
1104.40 0.06975
1104.50 0.06976
1104.60 0.06977
1104.70 0.06978
1104.80 0.06979
1104.90 0.0698
1105.00 0.06981
1105.10 0.06982
1105.20 0.06983
1105.30 0.06984
1105.40 0.06985
1105.50 0.06986
1105.60 0.06986
1105.70 0.06986
1105.80 0.06986
1105.90 0.06985
1106.00 0.06985
1106.10 0.06985
1106.20 0.06985
1106.30 0.06985
1106.40 0.06985
1106.50 0.06985
1106.60 0.06984
1106.70 0.06984
1106.80 0.06984
1106.90 0.06984
1107.00 0.06984
1107.10 0.06983
1107.20 0.06983
1107.30 0.06982
1107.40 0.06982
1107.50 0.06981
1107.60 0.0698
1107.70 0.06979
1107.80 0.06978
1107.90 0.06977
1108.00 0.06976
1108.10 0.06975
1108.20 0.06974
1108.30 0.06973
1108.40 0.06972
1108.50 0.06971
1108.60 0.0697
1108.70 0.06969
1108.80 0.06968
1108.90 0.06967
1109.00 0.06966
1109.10 0.06965
1109.20 0.06964
1109.30 0.06962
1109.40 0.06961
1109.50 0.0696
1109.60 0.06959
1109.70 0.06957
1109.80 0.06956
1109.90 0.06954
1110.00 0.06953
1110.10 0.06951
1110.20 0.0695
1110.30 0.06948
1110.40 0.06947
1110.50 0.06945
1110.60 0.06944
1110.70 0.06942
1110.80 0.06941
1110.90 0.0694
1111.00 0.06938
1111.10 0.06937
1111.20 0.06935
1111.30 0.06934
1111.40 0.06932
1111.50 0.06931
1111.60 0.06929
1111.70 0.06928
1111.80 0.06926
1111.90 0.06925
1112.00 0.06923
1112.10 0.06922
1112.20 0.0692
1112.30 0.06918
1112.40 0.06916
1112.50 0.06915
1112.60 0.06913
1112.70 0.06911
1112.80 0.06909
1112.90 0.06908
1113.00 0.06906
1113.10 0.06904
1113.20 0.06903
1113.30 0.06901
1113.40 0.06899
1113.50 0.06897
1113.60 0.06895
1113.70 0.06894
1113.80 0.06892
1113.90 0.0689
1114.00 0.06888
1114.10 0.06886
1114.20 0.06884
1114.30 0.06882
1114.40 0.0688
1114.50 0.06878
1114.60 0.06876
1114.70 0.06875
1114.80 0.06873
1114.90 0.06871
1115.00 0.06869
1115.10 0.06867
1115.20 0.06865
1115.30 0.06863
1115.40 0.06861
1115.50 0.06859
1115.60 0.06858
1115.70 0.06856
1115.80 0.06854
1115.90 0.06852
1116.00 0.0685
1116.10 0.06848
1116.20 0.06846
1116.30 0.06844
1116.40 0.06843
1116.50 0.06841
1116.60 0.06839
1116.70 0.06837
1116.80 0.06835
1116.90 0.06833
1117.00 0.06831
1117.10 0.06829
1117.20 0.06827
1117.30 0.06825
1117.40 0.06823
1117.50 0.06821
1117.60 0.06819
1117.70 0.06817
1117.80 0.06815
1117.90 0.06813
1118.00 0.06811
1118.10 0.06809
1118.20 0.06807
1118.30 0.06805
1118.40 0.06803
1118.50 0.06801
1118.60 0.06799
1118.70 0.06797
1118.80 0.06794
1118.90 0.06792
1119.00 0.0679
1119.10 0.06788
1119.20 0.06786
1119.30 0.06784
1119.40 0.06782
1119.50 0.0678
1119.60 0.06778
1119.70 0.06776
1119.80 0.06774
1119.90 0.06772
1120.00 0.0677
1120.10 0.06768
1120.20 0.06766
1120.30 0.06764
1120.40 0.06762
1120.50 0.0676
1120.60 0.06758
1120.70 0.06756
1120.80 0.06754
1120.90 0.06752
1121.00 0.0675
1121.10 0.06748
1121.20 0.06746
1121.30 0.06744
1121.40 0.06742
1121.50 0.0674
1121.60 0.06738
1121.70 0.06736
1121.80 0.06734
1121.90 0.06732
1122.00 0.0673
1122.10 0.06728
1122.20 0.06725
1122.30 0.06723
1122.40 0.06721
1122.50 0.06719
1122.60 0.06717
1122.70 0.06715
1122.80 0.06713
1122.90 0.06711
1123.00 0.06709
1123.10 0.06707
1123.20 0.06704
1123.30 0.06702
1123.40 0.067
1123.50 0.06698
1123.60 0.06696
1123.70 0.06694
1123.80 0.06692
1123.90 0.0669
1124.00 0.06688
1124.10 0.06686
1124.20 0.06684
1124.30 0.06681
1124.40 0.06679
1124.50 0.06677
1124.60 0.06675
1124.70 0.06673
1124.80 0.06671
1124.90 0.06669
1125.00 0.06667
1125.10 0.06665
1125.20 0.06663
1125.30 0.06661
1125.40 0.06659
1125.50 0.06657
1125.60 0.06654
1125.70 0.06652
1125.80 0.0665
1125.90 0.06648
1126.00 0.06646
1126.10 0.06644
1126.20 0.06642
1126.30 0.0664
1126.40 0.06638
1126.50 0.06636
1126.60 0.06634
1126.70 0.06632
1126.80 0.0663
1126.90 0.06627
1127.00 0.06625
1127.10 0.06623
1127.20 0.06621
1127.30 0.06619
1127.40 0.06617
1127.50 0.06615
1127.60 0.06613
1127.70 0.06611
1127.80 0.06609
1127.90 0.06607
1128.00 0.06604
1128.10 0.06602
1128.20 0.066
1128.30 0.06598
1128.40 0.06596
1128.50 0.06594
1128.60 0.06592
1128.70 0.0659
1128.80 0.06588
1128.90 0.06586
1129.00 0.06584
1129.10 0.06581
1129.20 0.06579
1129.30 0.06577
1129.40 0.06575
1129.50 0.06573
1129.60 0.06571
1129.70 0.06569
1129.80 0.06567
1129.90 0.06565
1130.00 0.06563
1130.10 0.06561
1130.20 0.06559
1130.30 0.06556
1130.40 0.06554
1130.50 0.06552
1130.60 0.0655
1130.70 0.06548
1130.80 0.06546
1130.90 0.06544
1131.00 0.06542
1131.10 0.0654
1131.20 0.06538
1131.30 0.06536
1131.40 0.06534
1131.50 0.06532
1131.60 0.0653
1131.70 0.06527
1131.80 0.06525
1131.90 0.06523
1132.00 0.06521
1132.10 0.06519
1132.20 0.06517
1132.30 0.06515
1132.40 0.06513
1132.50 0.06511
1132.60 0.06509
1132.70 0.06507
1132.80 0.06505
1132.90 0.06503
1133.00 0.065
1133.10 0.06498
1133.20 0.06496
1133.30 0.06494
1133.40 0.06492
1133.50 0.0649
1133.60 0.06488
1133.70 0.06486
1133.80 0.06484
1133.90 0.06482
1134.00 0.0648
1134.10 0.06478
1134.20 0.06476
1134.30 0.06473
1134.40 0.06471
1134.50 0.06469
1134.60 0.06467
1134.70 0.06465
1134.80 0.06463
1134.90 0.06461
1135.00 0.06459
1135.10 0.06457
1135.20 0.06455
1135.30 0.06453
1135.40 0.06451
1135.50 0.06449
1135.60 0.06447
1135.70 0.06445
1135.80 0.06442
1135.90 0.0644
1136.00 0.06438
1136.10 0.06436
1136.20 0.06434
1136.30 0.06432
1136.40 0.0643
1136.50 0.06428
1136.60 0.06426
1136.70 0.06424
1136.80 0.06422
1136.90 0.0642
1137.00 0.06418
1137.10 0.06416
1137.20 0.06414
1137.30 0.06412
1137.40 0.0641
1137.50 0.06408
1137.60 0.06405
1137.70 0.06403
1137.80 0.06401
1137.90 0.06399
1138.00 0.06397
1138.10 0.06395
1138.20 0.06393
1138.30 0.06391
1138.40 0.06389
1138.50 0.06387
1138.60 0.06385
1138.70 0.06383
1138.80 0.06381
1138.90 0.06379
1139.00 0.06377
1139.10 0.06375
1139.20 0.06373
1139.30 0.06371
1139.40 0.06369
1139.50 0.06367
1139.60 0.06365
1139.70 0.06363
1139.80 0.06361
1139.90 0.06359
1140.00 0.06356
1140.10 0.06354
1140.20 0.06352
1140.30 0.0635
1140.40 0.06348
1140.50 0.06346
1140.60 0.06344
1140.70 0.06342
1140.80 0.0634
1140.90 0.06338
1141.00 0.06336
1141.10 0.06334
1141.20 0.06332
1141.30 0.0633
1141.40 0.06328
1141.50 0.06326
1141.60 0.06324
1141.70 0.06322
1141.80 0.0632
1141.90 0.06318
1142.00 0.06316
1142.10 0.06314
1142.20 0.06312
1142.30 0.0631
1142.40 0.06308
1142.50 0.06306
1142.60 0.06304
1142.70 0.06302
1142.80 0.063
1142.90 0.06298
1143.00 0.06296
1143.10 0.06294
1143.20 0.06292
1143.30 0.0629
1143.40 0.06288
1143.50 0.06286
1143.60 0.06284
1143.70 0.06282
1143.80 0.0628
1143.90 0.06278
1144.00 0.06276
1144.10 0.06274
1144.20 0.06272
1144.30 0.0627
1144.40 0.06268
1144.50 0.06266
1144.60 0.06264
1144.70 0.06262
1144.80 0.0626
1144.90 0.06258
1145.00 0.06256
1145.10 0.06253
1145.20 0.06251
1145.30 0.06249
1145.40 0.06247
1145.50 0.06245
1145.60 0.06243
1145.70 0.06241
1145.80 0.06239
1145.90 0.06237
1146.00 0.06235
1146.10 0.06233
1146.20 0.06231
1146.30 0.06229
1146.40 0.06228
1146.50 0.06226
1146.60 0.06224
1146.70 0.06222
1146.80 0.0622
1146.90 0.06218
1147.00 0.06216
1147.10 0.06214
1147.20 0.06212
1147.30 0.0621
1147.40 0.06208
1147.50 0.06206
1147.60 0.06204
1147.70 0.06202
1147.80 0.062
1147.90 0.06198
1148.00 0.06196
1148.10 0.06194
1148.20 0.06192
1148.30 0.0619
1148.40 0.06188
1148.50 0.06186
1148.60 0.06184
1148.70 0.06182
1148.80 0.0618
1148.90 0.06178
1149.00 0.06176
1149.10 0.06174
1149.20 0.06172
1149.30 0.0617
1149.40 0.06168
1149.50 0.06166
1149.60 0.06164
1149.70 0.06162
1149.80 0.0616
1149.90 0.06158
1150.00 0.06156
1150.10 0.06154
1150.20 0.06152
1150.30 0.0615
1150.40 0.06148
1150.50 0.06146
1150.60 0.06144
1150.70 0.06142
1150.80 0.06141
1150.90 0.06139
1151.00 0.06137
1151.10 0.06135
1151.20 0.06133
1151.30 0.06131
1151.40 0.06129
1151.50 0.06127
1151.60 0.06125
1151.70 0.06123
1151.80 0.06121
1151.90 0.06119
1152.00 0.06117
1152.10 0.06115
1152.20 0.06113
1152.30 0.06111
1152.40 0.06109
1152.50 0.06107
1152.60 0.06105
1152.70 0.06103
1152.80 0.06101
1152.90 0.06099
1153.00 0.06098
1153.10 0.06096
1153.20 0.06094
1153.30 0.06092
1153.40 0.0609
1153.50 0.06088
1153.60 0.06086
1153.70 0.06084
1153.80 0.06082
1153.90 0.0608
1154.00 0.06078
1154.10 0.06076
1154.20 0.06074
1154.30 0.06072
1154.40 0.0607
1154.50 0.06068
1154.60 0.06067
1154.70 0.06065
1154.80 0.06063
1154.90 0.06061
1155.00 0.06059
1155.10 0.06057
1155.20 0.06055
1155.30 0.06053
1155.40 0.06051
1155.50 0.06049
1155.60 0.06047
1155.70 0.06045
1155.80 0.06043
1155.90 0.06041
1156.00 0.06039
1156.10 0.06038
1156.20 0.06036
1156.30 0.06034
1156.40 0.06032
1156.50 0.0603
1156.60 0.06028
1156.70 0.06026
1156.80 0.06024
1156.90 0.06022
1157.00 0.0602
1157.10 0.06018
1157.20 0.06016
1157.30 0.06015
1157.40 0.06013
1157.50 0.06011
1157.60 0.06009
1157.70 0.06007
1157.80 0.06005
1157.90 0.06003
1158.00 0.06001
1158.10 0.05999
1158.20 0.05997
1158.30 0.05995
1158.40 0.05994
1158.50 0.05992
1158.60 0.0599
1158.70 0.05988
1158.80 0.05986
1158.90 0.05984
1159.00 0.05982
1159.10 0.0598
1159.20 0.05978
1159.30 0.05976
1159.40 0.05974
1159.50 0.05973
1159.60 0.05971
1159.70 0.05969
1159.80 0.05967
1159.90 0.05965
1160.00 0.05963
1160.10 0.05961
1160.20 0.05959
1160.30 0.05957
1160.40 0.05956
1160.50 0.05954
1160.60 0.05952
1160.70 0.0595
1160.80 0.05948
1160.90 0.05946
1161.00 0.05944
1161.10 0.05942
1161.20 0.0594
1161.30 0.05938
1161.40 0.05937
1161.50 0.05935
1161.60 0.05933
1161.70 0.05931
1161.80 0.05929
1161.90 0.05927
1162.00 0.05925
1162.10 0.05923
1162.20 0.05922
1162.30 0.0592
1162.40 0.05918
1162.50 0.05916
1162.60 0.05914
1162.70 0.05912
1162.80 0.0591
1162.90 0.05908
1163.00 0.05907
1163.10 0.05905
1163.20 0.05903
1163.30 0.05901
1163.40 0.05899
1163.50 0.05897
1163.60 0.05895
1163.70 0.05893
1163.80 0.05892
1163.90 0.0589
1164.00 0.05888
1164.10 0.05886
1164.20 0.05884
1164.30 0.05882
1164.40 0.0588
1164.50 0.05878
1164.60 0.05877
1164.70 0.05875
1164.80 0.05873
1164.90 0.05871
1165.00 0.05869
1165.10 0.05867
1165.20 0.05865
1165.30 0.05864
1165.40 0.05862
1165.50 0.0586
1165.60 0.05858
1165.70 0.05856
1165.80 0.05854
1165.90 0.05852
1166.00 0.05851
1166.10 0.05849
1166.20 0.05847
1166.30 0.05845
1166.40 0.05843
1166.50 0.05841
1166.60 0.05839
1166.70 0.05838
1166.80 0.05836
1166.90 0.05834
1167.00 0.05832
1167.10 0.0583
1167.20 0.05828
1167.30 0.05827
1167.40 0.05825
1167.50 0.05823
1167.60 0.05821
1167.70 0.05819
1167.80 0.05817
1167.90 0.05815
1168.00 0.05814
1168.10 0.05812
1168.20 0.0581
1168.30 0.05808
1168.40 0.05806
1168.50 0.05804
1168.60 0.05803
1168.70 0.05801
1168.80 0.05799
1168.90 0.05797
1169.00 0.05795
1169.10 0.05793
1169.20 0.05792
1169.30 0.0579
1169.40 0.05788
1169.50 0.05786
1169.60 0.05784
1169.70 0.05783
1169.80 0.05781
1169.90 0.05779
1170.00 0.05777
1170.10 0.05775
1170.20 0.05773
1170.30 0.05772
1170.40 0.0577
1170.50 0.05768
1170.60 0.05766
1170.70 0.05764
1170.80 0.05762
1170.90 0.05761
1171.00 0.05759
1171.10 0.05757
1171.20 0.05755
1171.30 0.05753
1171.40 0.05752
1171.50 0.0575
1171.60 0.05748
1171.70 0.05746
1171.80 0.05744
1171.90 0.05742
1172.00 0.05741
1172.10 0.05739
1172.20 0.05737
1172.30 0.05735
1172.40 0.05733
1172.50 0.05732
1172.60 0.0573
1172.70 0.05728
1172.80 0.05726
1172.90 0.05724
1173.00 0.05723
1173.10 0.05721
1173.20 0.05719
1173.30 0.05717
1173.40 0.05715
1173.50 0.05714
1173.60 0.05712
1173.70 0.0571
1173.80 0.05708
1173.90 0.05706
1174.00 0.05705
1174.10 0.05703
1174.20 0.05701
1174.30 0.05699
1174.40 0.05697
1174.50 0.05696
1174.60 0.05694
1174.70 0.05692
1174.80 0.0569
1174.90 0.05688
1175.00 0.05687
1175.10 0.05685
1175.20 0.05683
1175.30 0.05681
1175.40 0.05679
1175.50 0.05678
1175.60 0.05676
1175.70 0.05674
1175.80 0.05672
1175.90 0.05671
1176.00 0.05669
1176.10 0.05667
1176.20 0.05665
1176.30 0.05663
1176.40 0.05662
1176.50 0.0566
1176.60 0.05658
1176.70 0.05656
1176.80 0.05654
1176.90 0.05653
1177.00 0.05651
1177.10 0.05649
1177.20 0.05647
1177.30 0.05646
1177.40 0.05644
1177.50 0.05642
1177.60 0.0564
1177.70 0.05638
1177.80 0.05637
1177.90 0.05635
1178.00 0.05633
1178.10 0.05631
1178.20 0.0563
1178.30 0.05628
1178.40 0.05626
1178.50 0.05624
1178.60 0.05623
1178.70 0.05621
1178.80 0.05619
1178.90 0.05617
1179.00 0.05616
1179.10 0.05614
1179.20 0.05612
1179.30 0.0561
1179.40 0.05608
1179.50 0.05607
1179.60 0.05605
1179.70 0.05603
1179.80 0.05601
1179.90 0.056
1180.00 0.05598
1180.10 0.05596
1180.20 0.05594
1180.30 0.05593
1180.40 0.05591
1180.50 0.05589
1180.60 0.05587
1180.70 0.05586
1180.80 0.05584
1180.90 0.05582
1181.00 0.0558
1181.10 0.05579
1181.20 0.05577
1181.30 0.05575
1181.40 0.05573
1181.50 0.05572
1181.60 0.0557
1181.70 0.05568
1181.80 0.05566
1181.90 0.05565
1182.00 0.05563
1182.10 0.05561
1182.20 0.05559
1182.30 0.05558
1182.40 0.05556
1182.50 0.05554
1182.60 0.05552
1182.70 0.05551
1182.80 0.05549
1182.90 0.05547
1183.00 0.05546
1183.10 0.05544
1183.20 0.05542
1183.30 0.0554
1183.40 0.05539
1183.50 0.05537
1183.60 0.05535
1183.70 0.05533
1183.80 0.05532
1183.90 0.0553
1184.00 0.05528
1184.10 0.05526
1184.20 0.05525
1184.30 0.05523
1184.40 0.05521
1184.50 0.0552
1184.60 0.05518
1184.70 0.05516
1184.80 0.05514
1184.90 0.05513
1185.00 0.05511
1185.10 0.05509
1185.20 0.05507
1185.30 0.05506
1185.40 0.05504
1185.50 0.05502
1185.60 0.05501
1185.70 0.05499
1185.80 0.05497
1185.90 0.05495
1186.00 0.05494
1186.10 0.05492
1186.20 0.0549
1186.30 0.05489
1186.40 0.05487
1186.50 0.05485
1186.60 0.05483
1186.70 0.05482
1186.80 0.0548
1186.90 0.05478
1187.00 0.05477
1187.10 0.05475
1187.20 0.05473
1187.30 0.05471
1187.40 0.0547
1187.50 0.05468
1187.60 0.05466
1187.70 0.05465
1187.80 0.05463
1187.90 0.05461
1188.00 0.05459
1188.10 0.05458
1188.20 0.05456
1188.30 0.05454
1188.40 0.05453
1188.50 0.05451
1188.60 0.05449
1188.70 0.05448
1188.80 0.05446
1188.90 0.05444
1189.00 0.05443
1189.10 0.05441
1189.20 0.05439
1189.30 0.05437
1189.40 0.05436
1189.50 0.05434
1189.60 0.05432
1189.70 0.05431
1189.80 0.05429
1189.90 0.05427
1190.00 0.05426
1190.10 0.05424
1190.20 0.05422
1190.30 0.05421
1190.40 0.05419
1190.50 0.05417
1190.60 0.05415
1190.70 0.05414
1190.80 0.05412
1190.90 0.0541
1191.00 0.05409
1191.10 0.05407
1191.20 0.05405
1191.30 0.05404
1191.40 0.05402
1191.50 0.054
1191.60 0.05399
1191.70 0.05397
1191.80 0.05395
1191.90 0.05394
1192.00 0.05392
1192.10 0.0539
1192.20 0.05389
1192.30 0.05387
1192.40 0.05385
1192.50 0.05384
1192.60 0.05382
1192.70 0.0538
1192.80 0.05379
1192.90 0.05377
1193.00 0.05375
1193.10 0.05374
1193.20 0.05372
1193.30 0.0537
1193.40 0.05369
1193.50 0.05367
1193.60 0.05365
1193.70 0.05364
1193.80 0.05362
1193.90 0.0536
1194.00 0.05359
1194.10 0.05357
1194.20 0.05355
1194.30 0.05354
1194.40 0.05352
1194.50 0.0535
1194.60 0.05349
1194.70 0.05347
1194.80 0.05345
1194.90 0.05344
1195.00 0.05342
1195.10 0.0534
1195.20 0.05339
1195.30 0.05337
1195.40 0.05335
1195.50 0.05334
1195.60 0.05332
1195.70 0.0533
1195.80 0.05329
1195.90 0.05327
1196.00 0.05325
1196.10 0.05324
1196.20 0.05322
1196.30 0.0532
1196.40 0.05319
1196.50 0.05317
1196.60 0.05315
1196.70 0.05314
1196.80 0.05312
1196.90 0.05311
1197.00 0.05309
1197.10 0.05307
1197.20 0.05306
1197.30 0.05304
1197.40 0.05302
1197.50 0.05301
1197.60 0.05299
1197.70 0.05297
1197.80 0.05296
1197.90 0.05294
1198.00 0.05292
1198.10 0.05291
1198.20 0.05289
1198.30 0.05288
1198.40 0.05286
1198.50 0.05284
1198.60 0.05283
1198.70 0.05281
1198.80 0.05279
1198.90 0.05278
1199.00 0.05276
1199.10 0.05274
1199.20 0.05273
1199.30 0.05271
1199.40 0.0527
1199.50 0.05268
1199.60 0.05266
1199.70 0.05265
1199.80 0.05263
1199.90 0.05261
1200.00 0
