# Version 2.1 - nm, norm@500 to 1, cut digits, bergeron_120000_95.dat_120000
# Wavelength(nm)  Flambda(ergs/cm^s/s/nm)
300.00 6.996
300.10 6.987
300.20 6.978
300.30 6.969
300.40 6.961
300.50 6.952
300.60 6.943
300.70 6.934
300.80 6.925
300.90 6.917
301.00 6.908
301.10 6.899
301.20 6.891
301.30 6.882
301.40 6.873
301.50 6.864
301.60 6.856
301.70 6.847
301.80 6.839
301.90 6.83
302.00 6.821
302.10 6.813
302.20 6.804
302.30 6.796
302.40 6.787
302.50 6.778
302.60 6.77
302.70 6.761
302.80 6.753
302.90 6.744
303.00 6.736
303.10 6.728
303.20 6.719
303.30 6.711
303.40 6.702
303.50 6.694
303.60 6.685
303.70 6.677
303.80 6.669
303.90 6.66
304.00 6.652
304.10 6.644
304.20 6.635
304.30 6.627
304.40 6.619
304.50 6.611
304.60 6.602
304.70 6.594
304.80 6.586
304.90 6.578
305.00 6.569
305.10 6.561
305.20 6.553
305.30 6.545
305.40 6.537
305.50 6.529
305.60 6.52
305.70 6.512
305.80 6.504
305.90 6.496
306.00 6.488
306.10 6.48
306.20 6.472
306.30 6.464
306.40 6.456
306.50 6.448
306.60 6.44
306.70 6.432
306.80 6.424
306.90 6.416
307.00 6.408
307.10 6.4
307.20 6.392
307.30 6.384
307.40 6.376
307.50 6.368
307.60 6.36
307.70 6.353
307.80 6.345
307.90 6.337
308.00 6.329
308.10 6.321
308.20 6.313
308.30 6.306
308.40 6.298
308.50 6.29
308.60 6.282
308.70 6.275
308.80 6.267
308.90 6.259
309.00 6.251
309.10 6.244
309.20 6.236
309.30 6.228
309.40 6.221
309.50 6.213
309.60 6.205
309.70 6.198
309.80 6.19
309.90 6.183
310.00 6.175
310.10 6.167
310.20 6.16
310.30 6.152
310.40 6.145
310.50 6.137
310.60 6.13
310.70 6.122
310.80 6.115
310.90 6.107
311.00 6.1
311.10 6.092
311.20 6.085
311.30 6.077
311.40 6.07
311.50 6.062
311.60 6.055
311.70 6.048
311.80 6.04
311.90 6.033
312.00 6.025
312.10 6.018
312.20 6.011
312.30 6.003
312.40 5.996
312.50 5.989
312.60 5.981
312.70 5.974
312.80 5.967
312.90 5.96
313.00 5.952
313.10 5.945
313.20 5.938
313.30 5.931
313.40 5.923
313.50 5.916
313.60 5.909
313.70 5.902
313.80 5.895
313.90 5.888
314.00 5.881
314.10 5.873
314.20 5.866
314.30 5.859
314.40 5.852
314.50 5.845
314.60 5.838
314.70 5.831
314.80 5.824
314.90 5.817
315.00 5.81
315.10 5.803
315.20 5.796
315.30 5.789
315.40 5.782
315.50 5.775
315.60 5.768
315.70 5.761
315.80 5.754
315.90 5.747
316.00 5.74
316.10 5.733
316.20 5.726
316.30 5.719
316.40 5.712
316.50 5.705
316.60 5.699
316.70 5.692
316.80 5.685
316.90 5.678
317.00 5.671
317.10 5.664
317.20 5.658
317.30 5.651
317.40 5.644
317.50 5.637
317.60 5.63
317.70 5.624
317.80 5.617
317.90 5.61
318.00 5.603
318.10 5.597
318.20 5.59
318.30 5.583
318.40 5.577
318.50 5.57
318.60 5.563
318.70 5.557
318.80 5.55
318.90 5.543
319.00 5.537
319.10 5.53
319.20 5.524
319.30 5.517
319.40 5.51
319.50 5.504
319.60 5.497
319.70 5.491
319.80 5.484
319.90 5.478
320.00 5.471
320.10 5.465
320.20 5.458
320.30 5.452
320.40 5.445
320.50 5.439
320.60 5.432
320.70 5.426
320.80 5.419
320.90 5.413
321.00 5.406
321.10 5.4
321.20 5.394
321.30 5.387
321.40 5.381
321.50 5.374
321.60 5.368
321.70 5.362
321.80 5.355
321.90 5.349
322.00 5.343
322.10 5.336
322.20 5.33
322.30 5.324
322.40 5.317
322.50 5.311
322.60 5.305
322.70 5.299
322.80 5.292
322.90 5.286
323.00 5.28
323.10 5.274
323.20 5.267
323.30 5.261
323.40 5.255
323.50 5.249
323.60 5.243
323.70 5.236
323.80 5.23
323.90 5.224
324.00 5.218
324.10 5.212
324.20 5.206
324.30 5.199
324.40 5.193
324.50 5.187
324.60 5.181
324.70 5.175
324.80 5.169
324.90 5.163
325.00 5.157
325.10 5.151
325.20 5.145
325.30 5.139
325.40 5.133
325.50 5.127
325.60 5.121
325.70 5.115
325.80 5.109
325.90 5.103
326.00 5.097
326.10 5.091
326.20 5.085
326.30 5.079
326.40 5.073
326.50 5.067
326.60 5.061
326.70 5.055
326.80 5.049
326.90 5.043
327.00 5.038
327.10 5.032
327.20 5.026
327.30 5.02
327.40 5.014
327.50 5.008
327.60 5.002
327.70 4.997
327.80 4.991
327.90 4.985
328.00 4.979
328.10 4.973
328.20 4.968
328.30 4.962
328.40 4.956
328.50 4.95
328.60 4.945
328.70 4.939
328.80 4.933
328.90 4.927
329.00 4.922
329.10 4.916
329.20 4.91
329.30 4.905
329.40 4.899
329.50 4.893
329.60 4.888
329.70 4.882
329.80 4.876
329.90 4.871
330.00 4.865
330.10 4.859
330.20 4.854
330.30 4.848
330.40 4.843
330.50 4.837
330.60 4.831
330.70 4.826
330.80 4.82
330.90 4.815
331.00 4.809
331.10 4.804
331.20 4.798
331.30 4.793
331.40 4.787
331.50 4.782
331.60 4.776
331.70 4.771
331.80 4.765
331.90 4.76
332.00 4.754
332.10 4.749
332.20 4.743
332.30 4.738
332.40 4.732
332.50 4.727
332.60 4.721
332.70 4.716
332.80 4.711
332.90 4.705
333.00 4.7
333.10 4.694
333.20 4.689
333.30 4.684
333.40 4.678
333.50 4.673
333.60 4.668
333.70 4.662
333.80 4.657
333.90 4.652
334.00 4.646
334.10 4.641
334.20 4.636
334.30 4.63
334.40 4.625
334.50 4.62
334.60 4.615
334.70 4.609
334.80 4.604
334.90 4.599
335.00 4.594
335.10 4.588
335.20 4.583
335.30 4.578
335.40 4.573
335.50 4.567
335.60 4.562
335.70 4.557
335.80 4.552
335.90 4.547
336.00 4.541
336.10 4.536
336.20 4.531
336.30 4.526
336.40 4.521
336.50 4.516
336.60 4.511
336.70 4.506
336.80 4.501
336.90 4.495
337.00 4.49
337.10 4.485
337.20 4.48
337.30 4.475
337.40 4.47
337.50 4.465
337.60 4.46
337.70 4.455
337.80 4.45
337.90 4.445
338.00 4.44
338.10 4.435
338.20 4.43
338.30 4.425
338.40 4.42
338.50 4.415
338.60 4.41
338.70 4.405
338.80 4.4
338.90 4.395
339.00 4.39
339.10 4.385
339.20 4.38
339.30 4.375
339.40 4.37
339.50 4.365
339.60 4.36
339.70 4.355
339.80 4.351
339.90 4.346
340.00 4.341
340.10 4.336
340.20 4.331
340.30 4.326
340.40 4.321
340.50 4.316
340.60 4.312
340.70 4.307
340.80 4.302
340.90 4.297
341.00 4.292
341.10 4.288
341.20 4.283
341.30 4.278
341.40 4.273
341.50 4.268
341.60 4.264
341.70 4.259
341.80 4.254
341.90 4.249
342.00 4.245
342.10 4.24
342.20 4.235
342.30 4.23
342.40 4.226
342.50 4.221
342.60 4.216
342.70 4.212
342.80 4.207
342.90 4.202
343.00 4.197
343.10 4.193
343.20 4.188
343.30 4.183
343.40 4.179
343.50 4.174
343.60 4.17
343.70 4.165
343.80 4.16
343.90 4.156
344.00 4.151
344.10 4.146
344.20 4.142
344.30 4.137
344.40 4.133
344.50 4.128
344.60 4.123
344.70 4.119
344.80 4.114
344.90 4.11
345.00 4.105
345.10 4.101
345.20 4.096
345.30 4.092
345.40 4.087
345.50 4.083
345.60 4.078
345.70 4.074
345.80 4.069
345.90 4.064
346.00 4.06
346.10 4.056
346.20 4.051
346.30 4.047
346.40 4.042
346.50 4.038
346.60 4.033
346.70 4.029
346.80 4.024
346.90 4.02
347.00 4.016
347.10 4.011
347.20 4.007
347.30 4.002
347.40 3.998
347.50 3.993
347.60 3.989
347.70 3.985
347.80 3.98
347.90 3.976
348.00 3.971
348.10 3.967
348.20 3.963
348.30 3.958
348.40 3.954
348.50 3.95
348.60 3.945
348.70 3.941
348.80 3.937
348.90 3.933
349.00 3.928
349.10 3.924
349.20 3.92
349.30 3.915
349.40 3.911
349.50 3.907
349.60 3.902
349.70 3.898
349.80 3.894
349.90 3.89
350.00 3.885
350.10 3.881
350.20 3.877
350.30 3.873
350.40 3.868
350.50 3.864
350.60 3.86
350.70 3.856
350.80 3.852
350.90 3.847
351.00 3.843
351.10 3.839
351.20 3.835
351.30 3.831
351.40 3.827
351.50 3.822
351.60 3.818
351.70 3.814
351.80 3.81
351.90 3.806
352.00 3.802
352.10 3.798
352.20 3.793
352.30 3.789
352.40 3.785
352.50 3.781
352.60 3.777
352.70 3.773
352.80 3.769
352.90 3.765
353.00 3.761
353.10 3.757
353.20 3.753
353.30 3.748
353.40 3.744
353.50 3.74
353.60 3.736
353.70 3.732
353.80 3.728
353.90 3.724
354.00 3.72
354.10 3.716
354.20 3.712
354.30 3.708
354.40 3.704
354.50 3.7
354.60 3.696
354.70 3.692
354.80 3.688
354.90 3.684
355.00 3.68
355.10 3.676
355.20 3.672
355.30 3.668
355.40 3.664
355.50 3.66
355.60 3.656
355.70 3.653
355.80 3.649
355.90 3.645
356.00 3.641
356.10 3.637
356.20 3.633
356.30 3.629
356.40 3.625
356.50 3.621
356.60 3.617
356.70 3.614
356.80 3.61
356.90 3.606
357.00 3.602
357.10 3.598
357.20 3.594
357.30 3.59
357.40 3.587
357.50 3.583
357.60 3.579
357.70 3.575
357.80 3.571
357.90 3.567
358.00 3.564
358.10 3.56
358.20 3.556
358.30 3.552
358.40 3.548
358.50 3.545
358.60 3.541
358.70 3.537
358.80 3.533
358.90 3.53
359.00 3.526
359.10 3.522
359.20 3.518
359.30 3.514
359.40 3.511
359.50 3.507
359.60 3.503
359.70 3.5
359.80 3.496
359.90 3.492
360.00 3.488
360.10 3.485
360.20 3.481
360.30 3.477
360.40 3.474
360.50 3.47
360.60 3.466
360.70 3.463
360.80 3.459
360.90 3.455
361.00 3.452
361.10 3.448
361.20 3.444
361.30 3.441
361.40 3.437
361.50 3.433
361.60 3.43
361.70 3.426
361.80 3.422
361.90 3.419
362.00 3.415
362.10 3.412
362.20 3.408
362.30 3.404
362.40 3.401
362.50 3.397
362.60 3.394
362.70 3.39
362.80 3.386
362.90 3.383
363.00 3.379
363.10 3.376
363.20 3.372
363.30 3.369
363.40 3.365
363.50 3.362
363.60 3.358
363.70 3.354
363.80 3.351
363.90 3.347
364.00 3.344
364.10 3.34
364.20 3.337
364.30 3.333
364.40 3.33
364.50 3.326
364.60 3.323
364.70 3.319
364.80 3.316
364.90 3.312
365.00 3.309
365.10 3.305
365.20 3.302
365.30 3.299
365.40 3.295
365.50 3.292
365.60 3.288
365.70 3.285
365.80 3.281
365.90 3.278
366.00 3.274
366.10 3.271
366.20 3.268
366.30 3.264
366.40 3.261
366.50 3.257
366.60 3.254
366.70 3.251
366.80 3.247
366.90 3.244
367.00 3.24
367.10 3.237
367.20 3.234
367.30 3.23
367.40 3.227
367.50 3.223
367.60 3.22
367.70 3.217
367.80 3.213
367.90 3.21
368.00 3.207
368.10 3.203
368.20 3.2
368.30 3.197
368.40 3.193
368.50 3.19
368.60 3.186
368.70 3.183
368.80 3.18
368.90 3.176
369.00 3.173
369.10 3.17
369.20 3.166
369.30 3.163
369.40 3.16
369.50 3.156
369.60 3.153
369.70 3.15
369.80 3.146
369.90 3.143
370.00 3.14
370.10 3.136
370.20 3.133
370.30 3.13
370.40 3.127
370.50 3.123
370.60 3.12
370.70 3.117
370.80 3.113
370.90 3.11
371.00 3.107
371.10 3.104
371.20 3.1
371.30 3.097
371.40 3.094
371.50 3.09
371.60 3.087
371.70 3.084
371.80 3.081
371.90 3.077
372.00 3.074
372.10 3.071
372.20 3.068
372.30 3.065
372.40 3.062
372.50 3.059
372.60 3.056
372.70 3.052
372.80 3.049
372.90 3.046
373.00 3.043
373.10 3.04
373.20 3.037
373.30 3.034
373.40 3.031
373.50 3.028
373.60 3.025
373.70 3.022
373.80 3.019
373.90 3.016
374.00 3.013
374.10 3.009
374.20 3.006
374.30 3.003
374.40 3
374.50 2.997
374.60 2.994
374.70 2.991
374.80 2.988
374.90 2.984
375.00 2.981
375.10 2.978
375.20 2.975
375.30 2.972
375.40 2.969
375.50 2.966
375.60 2.963
375.70 2.96
375.80 2.957
375.90 2.953
376.00 2.95
376.10 2.947
376.20 2.944
376.30 2.941
376.40 2.938
376.50 2.935
376.60 2.932
376.70 2.929
376.80 2.926
376.90 2.923
377.00 2.92
377.10 2.917
377.20 2.914
377.30 2.911
377.40 2.908
377.50 2.905
377.60 2.902
377.70 2.899
377.80 2.896
377.90 2.893
378.00 2.89
378.10 2.887
378.20 2.884
378.30 2.881
378.40 2.878
378.50 2.875
378.60 2.872
378.70 2.869
378.80 2.867
378.90 2.864
379.00 2.861
379.10 2.858
379.20 2.855
379.30 2.852
379.40 2.849
379.50 2.846
379.60 2.843
379.70 2.84
379.80 2.837
379.90 2.834
380.00 2.832
380.10 2.829
380.20 2.826
380.30 2.823
380.40 2.82
380.50 2.817
380.60 2.814
380.70 2.812
380.80 2.809
380.90 2.806
381.00 2.803
381.10 2.8
381.20 2.797
381.30 2.794
381.40 2.792
381.50 2.789
381.60 2.786
381.70 2.783
381.80 2.78
381.90 2.778
382.00 2.775
382.10 2.772
382.20 2.769
382.30 2.766
382.40 2.764
382.50 2.761
382.60 2.758
382.70 2.755
382.80 2.753
382.90 2.75
383.00 2.747
383.10 2.744
383.20 2.741
383.30 2.739
383.40 2.736
383.50 2.733
383.60 2.731
383.70 2.728
383.80 2.725
383.90 2.722
384.00 2.72
384.10 2.717
384.20 2.714
384.30 2.711
384.40 2.709
384.50 2.706
384.60 2.703
384.70 2.701
384.80 2.698
384.90 2.695
385.00 2.693
385.10 2.69
385.20 2.687
385.30 2.685
385.40 2.682
385.50 2.679
385.60 2.677
385.70 2.674
385.80 2.671
385.90 2.669
386.00 2.666
386.10 2.663
386.20 2.661
386.30 2.658
386.40 2.655
386.50 2.653
386.60 2.65
386.70 2.648
386.80 2.645
386.90 2.642
387.00 2.64
387.10 2.637
387.20 2.635
387.30 2.632
387.40 2.629
387.50 2.627
387.60 2.624
387.70 2.622
387.80 2.619
387.90 2.616
388.00 2.614
388.10 2.611
388.20 2.609
388.30 2.606
388.40 2.604
388.50 2.601
388.60 2.599
388.70 2.596
388.80 2.594
388.90 2.591
389.00 2.589
389.10 2.586
389.20 2.583
389.30 2.581
389.40 2.578
389.50 2.576
389.60 2.573
389.70 2.571
389.80 2.568
389.90 2.566
390.00 2.563
390.10 2.561
390.20 2.559
390.30 2.556
390.40 2.554
390.50 2.551
390.60 2.549
390.70 2.546
390.80 2.544
390.90 2.541
391.00 2.539
391.10 2.536
391.20 2.534
391.30 2.531
391.40 2.529
391.50 2.527
391.60 2.524
391.70 2.522
391.80 2.519
391.90 2.517
392.00 2.514
392.10 2.512
392.20 2.51
392.30 2.507
392.40 2.505
392.50 2.502
392.60 2.5
392.70 2.497
392.80 2.495
392.90 2.493
393.00 2.49
393.10 2.488
393.20 2.485
393.30 2.483
393.40 2.481
393.50 2.478
393.60 2.476
393.70 2.473
393.80 2.471
393.90 2.469
394.00 2.466
394.10 2.464
394.20 2.461
394.30 2.459
394.40 2.457
394.50 2.454
394.60 2.452
394.70 2.45
394.80 2.447
394.90 2.445
395.00 2.442
395.10 2.44
395.20 2.438
395.30 2.435
395.40 2.433
395.50 2.431
395.60 2.428
395.70 2.426
395.80 2.424
395.90 2.421
396.00 2.419
396.10 2.417
396.20 2.414
396.30 2.412
396.40 2.41
396.50 2.407
396.60 2.405
396.70 2.403
396.80 2.401
396.90 2.398
397.00 2.396
397.10 2.394
397.20 2.392
397.30 2.39
397.40 2.387
397.50 2.385
397.60 2.383
397.70 2.381
397.80 2.379
397.90 2.376
398.00 2.374
398.10 2.372
398.20 2.37
398.30 2.368
398.40 2.366
398.50 2.363
398.60 2.361
398.70 2.359
398.80 2.357
398.90 2.355
399.00 2.353
399.10 2.351
399.20 2.349
399.30 2.346
399.40 2.344
399.50 2.342
399.60 2.34
399.70 2.338
399.80 2.336
399.90 2.334
400.00 2.331
400.10 2.329
400.20 2.327
400.30 2.325
400.40 2.323
400.50 2.321
400.60 2.319
400.70 2.317
400.80 2.314
400.90 2.312
401.00 2.31
401.10 2.308
401.20 2.306
401.30 2.304
401.40 2.302
401.50 2.299
401.60 2.297
401.70 2.295
401.80 2.293
401.90 2.291
402.00 2.289
402.10 2.286
402.20 2.284
402.30 2.282
402.40 2.28
402.50 2.278
402.60 2.276
402.70 2.273
402.80 2.271
402.90 2.269
403.00 2.267
403.10 2.265
403.20 2.262
403.30 2.26
403.40 2.258
403.50 2.256
403.60 2.254
403.70 2.251
403.80 2.249
403.90 2.247
404.00 2.245
404.10 2.243
404.20 2.24
404.30 2.238
404.40 2.236
404.50 2.234
404.60 2.232
404.70 2.229
404.80 2.227
404.90 2.225
405.00 2.223
405.10 2.22
405.20 2.218
405.30 2.216
405.40 2.214
405.50 2.211
405.60 2.209
405.70 2.207
405.80 2.205
405.90 2.202
406.00 2.2
406.10 2.198
406.20 2.195
406.30 2.193
406.40 2.191
406.50 2.189
406.60 2.186
406.70 2.184
406.80 2.182
406.90 2.18
407.00 2.177
407.10 2.175
407.20 2.173
407.30 2.17
407.40 2.168
407.50 2.166
407.60 2.164
407.70 2.161
407.80 2.159
407.90 2.157
408.00 2.155
408.10 2.152
408.20 2.15
408.30 2.148
408.40 2.146
408.50 2.143
408.60 2.141
408.70 2.139
408.80 2.137
408.90 2.135
409.00 2.132
409.10 2.13
409.20 2.128
409.30 2.126
409.40 2.124
409.50 2.122
409.60 2.12
409.70 2.119
409.80 2.117
409.90 2.115
410.00 2.113
410.10 2.111
410.20 2.11
410.30 2.108
410.40 2.106
410.50 2.104
410.60 2.102
410.70 2.1
410.80 2.098
410.90 2.096
411.00 2.094
411.10 2.092
411.20 2.091
411.30 2.089
411.40 2.087
411.50 2.086
411.60 2.084
411.70 2.083
411.80 2.081
411.90 2.079
412.00 2.078
412.10 2.076
412.20 2.075
412.30 2.073
412.40 2.072
412.50 2.07
412.60 2.069
412.70 2.067
412.80 2.066
412.90 2.064
413.00 2.063
413.10 2.061
413.20 2.06
413.30 2.058
413.40 2.057
413.50 2.055
413.60 2.054
413.70 2.052
413.80 2.05
413.90 2.049
414.00 2.047
414.10 2.046
414.20 2.044
414.30 2.043
414.40 2.041
414.50 2.04
414.60 2.038
414.70 2.037
414.80 2.035
414.90 2.034
415.00 2.032
415.10 2.03
415.20 2.029
415.30 2.027
415.40 2.026
415.50 2.024
415.60 2.022
415.70 2.021
415.80 2.019
415.90 2.018
416.00 2.016
416.10 2.014
416.20 2.013
416.30 2.011
416.40 2.01
416.50 2.008
416.60 2.006
416.70 2.005
416.80 2.003
416.90 2.001
417.00 2
417.10 1.998
417.20 1.997
417.30 1.995
417.40 1.993
417.50 1.992
417.60 1.99
417.70 1.988
417.80 1.987
417.90 1.985
418.00 1.983
418.10 1.982
418.20 1.98
418.30 1.978
418.40 1.976
418.50 1.975
418.60 1.973
418.70 1.971
418.80 1.97
418.90 1.968
419.00 1.966
419.10 1.965
419.20 1.963
419.30 1.961
419.40 1.959
419.50 1.958
419.60 1.956
419.70 1.954
419.80 1.952
419.90 1.951
420.00 1.949
420.10 1.947
420.20 1.946
420.30 1.944
420.40 1.942
420.50 1.94
420.60 1.938
420.70 1.937
420.80 1.935
420.90 1.933
421.00 1.931
421.10 1.93
421.20 1.928
421.30 1.926
421.40 1.924
421.50 1.922
421.60 1.921
421.70 1.919
421.80 1.917
421.90 1.915
422.00 1.913
422.10 1.912
422.20 1.91
422.30 1.908
422.40 1.906
422.50 1.904
422.60 1.903
422.70 1.901
422.80 1.899
422.90 1.897
423.00 1.895
423.10 1.893
423.20 1.891
423.30 1.89
423.40 1.888
423.50 1.886
423.60 1.884
423.70 1.882
423.80 1.88
423.90 1.878
424.00 1.876
424.10 1.875
424.20 1.873
424.30 1.871
424.40 1.869
424.50 1.867
424.60 1.865
424.70 1.863
424.80 1.861
424.90 1.859
425.00 1.857
425.10 1.855
425.20 1.853
425.30 1.851
425.40 1.849
425.50 1.847
425.60 1.845
425.70 1.843
425.80 1.841
425.90 1.839
426.00 1.837
426.10 1.835
426.20 1.833
426.30 1.831
426.40 1.829
426.50 1.827
426.60 1.825
426.70 1.823
426.80 1.821
426.90 1.819
427.00 1.817
427.10 1.815
427.20 1.813
427.30 1.811
427.40 1.809
427.50 1.807
427.60 1.804
427.70 1.802
427.80 1.8
427.90 1.798
428.00 1.796
428.10 1.794
428.20 1.791
428.30 1.789
428.40 1.787
428.50 1.785
428.60 1.783
428.70 1.78
428.80 1.778
428.90 1.776
429.00 1.774
429.10 1.771
429.20 1.769
429.30 1.767
429.40 1.765
429.50 1.762
429.60 1.76
429.70 1.758
429.80 1.755
429.90 1.753
430.00 1.751
430.10 1.748
430.20 1.746
430.30 1.744
430.40 1.741
430.50 1.739
430.60 1.737
430.70 1.734
430.80 1.732
430.90 1.729
431.00 1.727
431.10 1.725
431.20 1.722
431.30 1.72
431.40 1.717
431.50 1.715
431.60 1.712
431.70 1.71
431.80 1.707
431.90 1.705
432.00 1.702
432.10 1.7
432.20 1.697
432.30 1.695
432.40 1.692
432.50 1.69
432.60 1.687
432.70 1.685
432.80 1.682
432.90 1.679
433.00 1.677
433.10 1.674
433.20 1.671
433.30 1.668
433.40 1.666
433.50 1.663
433.60 1.66
433.70 1.656
433.80 1.653
433.90 1.65
434.00 1.648
434.10 1.647
434.20 1.647
434.30 1.647
434.40 1.648
434.50 1.648
434.60 1.648
434.70 1.648
434.80 1.648
434.90 1.648
435.00 1.648
435.10 1.648
435.20 1.648
435.30 1.648
435.40 1.647
435.50 1.647
435.60 1.647
435.70 1.646
435.80 1.646
435.90 1.646
436.00 1.645
436.10 1.645
436.20 1.644
436.30 1.644
436.40 1.644
436.50 1.643
436.60 1.643
436.70 1.642
436.80 1.642
436.90 1.641
437.00 1.641
437.10 1.64
437.20 1.64
437.30 1.639
437.40 1.639
437.50 1.638
437.60 1.637
437.70 1.637
437.80 1.636
437.90 1.636
438.00 1.635
438.10 1.634
438.20 1.634
438.30 1.633
438.40 1.632
438.50 1.632
438.60 1.631
438.70 1.63
438.80 1.63
438.90 1.629
439.00 1.628
439.10 1.627
439.20 1.627
439.30 1.626
439.40 1.625
439.50 1.624
439.60 1.623
439.70 1.623
439.80 1.622
439.90 1.621
440.00 1.62
440.10 1.619
440.20 1.618
440.30 1.618
440.40 1.617
440.50 1.616
440.60 1.615
440.70 1.614
440.80 1.613
440.90 1.612
441.00 1.611
441.10 1.61
441.20 1.609
441.30 1.608
441.40 1.607
441.50 1.606
441.60 1.605
441.70 1.604
441.80 1.603
441.90 1.602
442.00 1.601
442.10 1.6
442.20 1.599
442.30 1.598
442.40 1.597
442.50 1.596
442.60 1.595
442.70 1.594
442.80 1.593
442.90 1.592
443.00 1.591
443.10 1.59
443.20 1.589
443.30 1.588
443.40 1.587
443.50 1.585
443.60 1.584
443.70 1.583
443.80 1.582
443.90 1.581
444.00 1.58
444.10 1.579
444.20 1.578
444.30 1.576
444.40 1.575
444.50 1.574
444.60 1.573
444.70 1.572
444.80 1.571
444.90 1.57
445.00 1.568
445.10 1.567
445.20 1.566
445.30 1.565
445.40 1.564
445.50 1.563
445.60 1.561
445.70 1.56
445.80 1.559
445.90 1.558
446.00 1.557
446.10 1.555
446.20 1.554
446.30 1.553
446.40 1.552
446.50 1.551
446.60 1.549
446.70 1.548
446.80 1.547
446.90 1.546
447.00 1.545
447.10 1.543
447.20 1.542
447.30 1.541
447.40 1.54
447.50 1.539
447.60 1.537
447.70 1.536
447.80 1.535
447.90 1.534
448.00 1.532
448.10 1.531
448.20 1.53
448.30 1.529
448.40 1.528
448.50 1.526
448.60 1.525
448.70 1.524
448.80 1.523
448.90 1.521
449.00 1.52
449.10 1.519
449.20 1.518
449.30 1.517
449.40 1.515
449.50 1.514
449.60 1.513
449.70 1.512
449.80 1.51
449.90 1.509
450.00 1.508
450.10 1.507
450.20 1.506
450.30 1.504
450.40 1.503
450.50 1.502
450.60 1.501
450.70 1.499
450.80 1.498
450.90 1.497
451.00 1.496
451.10 1.494
451.20 1.493
451.30 1.492
451.40 1.491
451.50 1.489
451.60 1.488
451.70 1.487
451.80 1.486
451.90 1.485
452.00 1.483
452.10 1.482
452.20 1.481
452.30 1.48
452.40 1.478
452.50 1.477
452.60 1.476
452.70 1.475
452.80 1.474
452.90 1.472
453.00 1.471
453.10 1.47
453.20 1.469
453.30 1.467
453.40 1.466
453.50 1.465
453.60 1.464
453.70 1.462
453.80 1.461
453.90 1.46
454.00 1.459
454.10 1.458
454.20 1.456
454.30 1.455
454.40 1.454
454.50 1.453
454.60 1.451
454.70 1.45
454.80 1.449
454.90 1.448
455.00 1.447
455.10 1.445
455.20 1.444
455.30 1.443
455.40 1.442
455.50 1.441
455.60 1.439
455.70 1.438
455.80 1.437
455.90 1.436
456.00 1.435
456.10 1.433
456.20 1.432
456.30 1.431
456.40 1.43
456.50 1.428
456.60 1.427
456.70 1.426
456.80 1.425
456.90 1.424
457.00 1.422
457.10 1.421
457.20 1.42
457.30 1.419
457.40 1.418
457.50 1.416
457.60 1.415
457.70 1.414
457.80 1.413
457.90 1.412
458.00 1.41
458.10 1.409
458.20 1.408
458.30 1.407
458.40 1.406
458.50 1.405
458.60 1.403
458.70 1.402
458.80 1.401
458.90 1.4
459.00 1.399
459.10 1.397
459.20 1.396
459.30 1.395
459.40 1.394
459.50 1.393
459.60 1.391
459.70 1.39
459.80 1.389
459.90 1.388
460.00 1.387
460.10 1.386
460.20 1.384
460.30 1.383
460.40 1.382
460.50 1.381
460.60 1.38
460.70 1.379
460.80 1.377
460.90 1.376
461.00 1.375
461.10 1.374
461.20 1.373
461.30 1.372
461.40 1.37
461.50 1.369
461.60 1.368
461.70 1.367
461.80 1.366
461.90 1.365
462.00 1.363
462.10 1.362
462.20 1.361
462.30 1.36
462.40 1.359
462.50 1.358
462.60 1.356
462.70 1.355
462.80 1.354
462.90 1.353
463.00 1.352
463.10 1.351
463.20 1.349
463.30 1.348
463.40 1.347
463.50 1.346
463.60 1.345
463.70 1.344
463.80 1.343
463.90 1.341
464.00 1.34
464.10 1.339
464.20 1.338
464.30 1.337
464.40 1.336
464.50 1.334
464.60 1.333
464.70 1.332
464.80 1.331
464.90 1.33
465.00 1.329
465.10 1.328
465.20 1.326
465.30 1.325
465.40 1.324
465.50 1.323
465.60 1.322
465.70 1.321
465.80 1.32
465.90 1.318
466.00 1.317
466.10 1.316
466.20 1.315
466.30 1.314
466.40 1.313
466.50 1.312
466.60 1.311
466.70 1.309
466.80 1.308
466.90 1.307
467.00 1.306
467.10 1.305
467.20 1.304
467.30 1.303
467.40 1.301
467.50 1.3
467.60 1.299
467.70 1.298
467.80 1.297
467.90 1.296
468.00 1.295
468.10 1.293
468.20 1.292
468.30 1.291
468.40 1.29
468.50 1.289
468.60 1.288
468.70 1.287
468.80 1.286
468.90 1.284
469.00 1.283
469.10 1.282
469.20 1.281
469.30 1.28
469.40 1.279
469.50 1.278
469.60 1.276
469.70 1.275
469.80 1.274
469.90 1.273
470.00 1.272
470.10 1.271
470.20 1.27
470.30 1.269
470.40 1.267
470.50 1.266
470.60 1.265
470.70 1.264
470.80 1.263
470.90 1.262
471.00 1.261
471.10 1.259
471.20 1.258
471.30 1.257
471.40 1.256
471.50 1.255
471.60 1.254
471.70 1.253
471.80 1.251
471.90 1.25
472.00 1.249
472.10 1.248
472.20 1.247
472.30 1.246
472.40 1.244
472.50 1.243
472.60 1.242
472.70 1.241
472.80 1.24
472.90 1.239
473.00 1.238
473.10 1.236
473.20 1.235
473.30 1.234
473.40 1.233
473.50 1.232
473.60 1.23
473.70 1.229
473.80 1.228
473.90 1.227
474.00 1.226
474.10 1.225
474.20 1.223
474.30 1.222
474.40 1.221
474.50 1.22
474.60 1.219
474.70 1.217
474.80 1.216
474.90 1.215
475.00 1.214
475.10 1.213
475.20 1.211
475.30 1.21
475.40 1.209
475.50 1.208
475.60 1.206
475.70 1.205
475.80 1.204
475.90 1.203
476.00 1.202
476.10 1.2
476.20 1.199
476.30 1.198
476.40 1.196
476.50 1.195
476.60 1.194
476.70 1.193
476.80 1.191
476.90 1.19
477.00 1.189
477.10 1.188
477.20 1.186
477.30 1.185
477.40 1.184
477.50 1.182
477.60 1.181
477.70 1.18
477.80 1.178
477.90 1.177
478.00 1.175
478.10 1.174
478.20 1.173
478.30 1.171
478.40 1.17
478.50 1.169
478.60 1.167
478.70 1.166
478.80 1.164
478.90 1.163
479.00 1.161
479.10 1.16
479.20 1.159
479.30 1.157
479.40 1.155
479.50 1.154
479.60 1.152
479.70 1.151
479.80 1.149
479.90 1.148
480.00 1.146
480.10 1.145
480.20 1.143
480.30 1.142
480.40 1.14
480.50 1.138
480.60 1.137
480.70 1.135
480.80 1.133
480.90 1.132
481.00 1.13
481.10 1.129
481.20 1.127
481.30 1.125
481.40 1.123
481.50 1.121
481.60 1.12
481.70 1.118
481.80 1.116
481.90 1.114
482.00 1.113
482.10 1.111
482.20 1.109
482.30 1.107
482.40 1.105
482.50 1.103
482.60 1.101
482.70 1.099
482.80 1.097
482.90 1.095
483.00 1.093
483.10 1.091
483.20 1.089
483.30 1.087
483.40 1.085
483.50 1.083
483.60 1.081
483.70 1.079
483.80 1.077
483.90 1.075
484.00 1.073
484.10 1.071
484.20 1.068
484.30 1.066
484.40 1.064
484.50 1.062
484.60 1.06
484.70 1.058
484.80 1.056
484.90 1.054
485.00 1.052
485.10 1.05
485.20 1.049
485.30 1.047
485.40 1.046
485.50 1.045
485.60 1.045
485.70 1.045
485.80 1.047
485.90 1.05
486.00 1.054
486.10 1.056
486.20 1.055
486.30 1.049
486.40 1.045
486.50 1.04
486.60 1.038
486.70 1.036
486.80 1.035
486.90 1.034
487.00 1.034
487.10 1.034
487.20 1.034
487.30 1.034
487.40 1.034
487.50 1.035
487.60 1.035
487.70 1.035
487.80 1.036
487.90 1.036
488.00 1.037
488.10 1.037
488.20 1.038
488.30 1.038
488.40 1.038
488.50 1.039
488.60 1.039
488.70 1.04
488.80 1.04
488.90 1.04
489.00 1.041
489.10 1.041
489.20 1.041
489.30 1.042
489.40 1.042
489.50 1.042
489.60 1.042
489.70 1.043
489.80 1.043
489.90 1.043
490.00 1.043
490.10 1.043
490.20 1.043
490.30 1.043
490.40 1.043
490.50 1.043
490.60 1.044
490.70 1.044
490.80 1.044
490.90 1.044
491.00 1.044
491.10 1.044
491.20 1.044
491.30 1.043
491.40 1.043
491.50 1.043
491.60 1.043
491.70 1.043
491.80 1.043
491.90 1.042
492.00 1.042
492.10 1.042
492.20 1.042
492.30 1.042
492.40 1.041
492.50 1.041
492.60 1.041
492.70 1.04
492.80 1.04
492.90 1.04
493.00 1.04
493.10 1.039
493.20 1.039
493.30 1.038
493.40 1.038
493.50 1.038
493.60 1.037
493.70 1.037
493.80 1.036
493.90 1.036
494.00 1.036
494.10 1.035
494.20 1.035
494.30 1.034
494.40 1.034
494.50 1.033
494.60 1.033
494.70 1.032
494.80 1.032
494.90 1.031
495.00 1.031
495.10 1.03
495.20 1.03
495.30 1.029
495.40 1.029
495.50 1.028
495.60 1.028
495.70 1.027
495.80 1.027
495.90 1.026
496.00 1.026
496.10 1.025
496.20 1.024
496.30 1.024
496.40 1.023
496.50 1.023
496.60 1.022
496.70 1.021
496.80 1.021
496.90 1.02
497.00 1.02
497.10 1.019
497.20 1.018
497.30 1.018
497.40 1.017
497.50 1.016
497.60 1.016
497.70 1.015
497.80 1.015
497.90 1.014
498.00 1.013
498.10 1.013
498.20 1.012
498.30 1.011
498.40 1.011
498.50 1.01
498.60 1.009
498.70 1.009
498.80 1.008
498.90 1.007
499.00 1.007
499.10 1.006
499.20 1.005
499.30 1.005
499.40 1.004
499.50 1.003
499.60 1.003
499.70 1.002
499.80 1.001
499.90 1.001
500.00 1
500.10 0.9993
500.20 0.9986
500.30 0.9979
500.40 0.9973
500.50 0.9966
500.60 0.9959
500.70 0.9952
500.80 0.9945
500.90 0.9938
501.00 0.9931
501.10 0.9924
501.20 0.9917
501.30 0.991
501.40 0.9903
501.50 0.9896
501.60 0.9889
501.70 0.9882
501.80 0.9875
501.90 0.9868
502.00 0.9861
502.10 0.9854
502.20 0.9847
502.30 0.984
502.40 0.9833
502.50 0.9826
502.60 0.9819
502.70 0.9812
502.80 0.9805
502.90 0.9798
503.00 0.9791
503.10 0.9784
503.20 0.9777
503.30 0.977
503.40 0.9763
503.50 0.9756
503.60 0.9749
503.70 0.9741
503.80 0.9734
503.90 0.9727
504.00 0.972
504.10 0.9713
504.20 0.9706
504.30 0.9699
504.40 0.9692
504.50 0.9685
504.60 0.9678
504.70 0.9671
504.80 0.9664
504.90 0.9657
505.00 0.965
505.10 0.9642
505.20 0.9635
505.30 0.9628
505.40 0.9621
505.50 0.9614
505.60 0.9607
505.70 0.96
505.80 0.9593
505.90 0.9586
506.00 0.9579
506.10 0.9572
506.20 0.9565
506.30 0.9558
506.40 0.9551
506.50 0.9543
506.60 0.9536
506.70 0.9529
506.80 0.9522
506.90 0.9515
507.00 0.9508
507.10 0.9501
507.20 0.9494
507.30 0.9487
507.40 0.948
507.50 0.9473
507.60 0.9466
507.70 0.9459
507.80 0.9452
507.90 0.9445
508.00 0.9438
508.10 0.9431
508.20 0.9424
508.30 0.9417
508.40 0.941
508.50 0.9403
508.60 0.9396
508.70 0.9389
508.80 0.9382
508.90 0.9375
509.00 0.9368
509.10 0.9361
509.20 0.9354
509.30 0.9347
509.40 0.934
509.50 0.9333
509.60 0.9326
509.70 0.9319
509.80 0.9312
509.90 0.9305
510.00 0.9298
510.10 0.9291
510.20 0.9284
510.30 0.9278
510.40 0.9271
510.50 0.9264
510.60 0.9257
510.70 0.925
510.80 0.9243
510.90 0.9236
511.00 0.9229
511.10 0.9222
511.20 0.9215
511.30 0.9209
511.40 0.9202
511.50 0.9195
511.60 0.9188
511.70 0.9181
511.80 0.9174
511.90 0.9167
512.00 0.916
512.10 0.9154
512.20 0.9147
512.30 0.914
512.40 0.9133
512.50 0.9126
512.60 0.9119
512.70 0.9113
512.80 0.9106
512.90 0.9099
513.00 0.9092
513.10 0.9085
513.20 0.9079
513.30 0.9072
513.40 0.9065
513.50 0.9058
513.60 0.9052
513.70 0.9045
513.80 0.9038
513.90 0.9031
514.00 0.9025
514.10 0.9018
514.20 0.9011
514.30 0.9004
514.40 0.8998
514.50 0.8991
514.60 0.8984
514.70 0.8977
514.80 0.8971
514.90 0.8964
515.00 0.8957
515.10 0.8951
515.20 0.8944
515.30 0.8937
515.40 0.8931
515.50 0.8924
515.60 0.8917
515.70 0.8911
515.80 0.8904
515.90 0.8897
516.00 0.8891
516.10 0.8884
516.20 0.8877
516.30 0.8871
516.40 0.8864
516.50 0.8858
516.60 0.8851
516.70 0.8844
516.80 0.8838
516.90 0.8831
517.00 0.8825
517.10 0.8818
517.20 0.8811
517.30 0.8805
517.40 0.8798
517.50 0.8792
517.60 0.8785
517.70 0.8779
517.80 0.8772
517.90 0.8766
518.00 0.8759
518.10 0.8753
518.20 0.8746
518.30 0.8739
518.40 0.8733
518.50 0.8726
518.60 0.872
518.70 0.8713
518.80 0.8707
518.90 0.87
519.00 0.8694
519.10 0.8687
519.20 0.8681
519.30 0.8675
519.40 0.8668
519.50 0.8662
519.60 0.8655
519.70 0.8649
519.80 0.8642
519.90 0.8636
520.00 0.863
520.10 0.8623
520.20 0.8617
520.30 0.861
520.40 0.8604
520.50 0.8597
520.60 0.8591
520.70 0.8585
520.80 0.8578
520.90 0.8572
521.00 0.8566
521.10 0.8559
521.20 0.8553
521.30 0.8547
521.40 0.854
521.50 0.8534
521.60 0.8528
521.70 0.8521
521.80 0.8515
521.90 0.8509
522.00 0.8502
522.10 0.8496
522.20 0.849
522.30 0.8483
522.40 0.8477
522.50 0.8471
522.60 0.8464
522.70 0.8458
522.80 0.8452
522.90 0.8446
523.00 0.8439
523.10 0.8433
523.20 0.8427
523.30 0.8421
523.40 0.8414
523.50 0.8408
523.60 0.8402
523.70 0.8396
523.80 0.839
523.90 0.8383
524.00 0.8377
524.10 0.8371
524.20 0.8365
524.30 0.8359
524.40 0.8352
524.50 0.8346
524.60 0.834
524.70 0.8334
524.80 0.8328
524.90 0.8322
525.00 0.8316
525.10 0.8309
525.20 0.8303
525.30 0.8297
525.40 0.8291
525.50 0.8285
525.60 0.8279
525.70 0.8273
525.80 0.8266
525.90 0.826
526.00 0.8254
526.10 0.8248
526.20 0.8242
526.30 0.8236
526.40 0.823
526.50 0.8224
526.60 0.8218
526.70 0.8212
526.80 0.8206
526.90 0.82
527.00 0.8194
527.10 0.8188
527.20 0.8182
527.30 0.8176
527.40 0.817
527.50 0.8164
527.60 0.8158
527.70 0.8152
527.80 0.8146
527.90 0.814
528.00 0.8134
528.10 0.8128
528.20 0.8122
528.30 0.8116
528.40 0.811
528.50 0.8104
528.60 0.8098
528.70 0.8092
528.80 0.8086
528.90 0.808
529.00 0.8074
529.10 0.8068
529.20 0.8062
529.30 0.8056
529.40 0.805
529.50 0.8044
529.60 0.8039
529.70 0.8033
529.80 0.8027
529.90 0.8021
530.00 0.8015
530.10 0.8009
530.20 0.8003
530.30 0.7997
530.40 0.7992
530.50 0.7986
530.60 0.798
530.70 0.7974
530.80 0.7968
530.90 0.7962
531.00 0.7957
531.10 0.7951
531.20 0.7945
531.30 0.7939
531.40 0.7933
531.50 0.7928
531.60 0.7922
531.70 0.7916
531.80 0.791
531.90 0.7904
532.00 0.7899
532.10 0.7893
532.20 0.7887
532.30 0.7881
532.40 0.7876
532.50 0.787
532.60 0.7864
532.70 0.7858
532.80 0.7853
532.90 0.7847
533.00 0.7841
533.10 0.7835
533.20 0.783
533.30 0.7824
533.40 0.7818
533.50 0.7813
533.60 0.7807
533.70 0.7801
533.80 0.7796
533.90 0.779
534.00 0.7784
534.10 0.7779
534.20 0.7773
534.30 0.7767
534.40 0.7762
534.50 0.7756
534.60 0.775
534.70 0.7745
534.80 0.7739
534.90 0.7733
535.00 0.7728
535.10 0.7722
535.20 0.7717
535.30 0.7711
535.40 0.7705
535.50 0.77
535.60 0.7694
535.70 0.7689
535.80 0.7683
535.90 0.7677
536.00 0.7672
536.10 0.7666
536.20 0.7661
536.30 0.7655
536.40 0.765
536.50 0.7644
536.60 0.7639
536.70 0.7633
536.80 0.7628
536.90 0.7622
537.00 0.7616
537.10 0.7611
537.20 0.7605
537.30 0.76
537.40 0.7594
537.50 0.7589
537.60 0.7583
537.70 0.7578
537.80 0.7573
537.90 0.7567
538.00 0.7562
538.10 0.7556
538.20 0.7551
538.30 0.7545
538.40 0.754
538.50 0.7534
538.60 0.7529
538.70 0.7523
538.80 0.7518
538.90 0.7512
539.00 0.7507
539.10 0.7502
539.20 0.7496
539.30 0.7491
539.40 0.7485
539.50 0.748
539.60 0.7475
539.70 0.7469
539.80 0.7464
539.90 0.7459
540.00 0.7453
540.10 0.7448
540.20 0.7442
540.30 0.7437
540.40 0.7432
540.50 0.7426
540.60 0.7421
540.70 0.7416
540.80 0.741
540.90 0.7405
541.00 0.74
541.10 0.7394
541.20 0.7389
541.30 0.7384
541.40 0.7378
541.50 0.7373
541.60 0.7368
541.70 0.7363
541.80 0.7357
541.90 0.7352
542.00 0.7347
542.10 0.7341
542.20 0.7336
542.30 0.7331
542.40 0.7326
542.50 0.732
542.60 0.7315
542.70 0.731
542.80 0.7305
542.90 0.7299
543.00 0.7294
543.10 0.7289
543.20 0.7284
543.30 0.7279
543.40 0.7273
543.50 0.7268
543.60 0.7263
543.70 0.7258
543.80 0.7253
543.90 0.7247
544.00 0.7242
544.10 0.7237
544.20 0.7232
544.30 0.7227
544.40 0.7221
544.50 0.7216
544.60 0.7211
544.70 0.7206
544.80 0.7201
544.90 0.7196
545.00 0.719
545.10 0.7185
545.20 0.718
545.30 0.7175
545.40 0.717
545.50 0.7165
545.60 0.716
545.70 0.7155
545.80 0.715
545.90 0.7144
546.00 0.7139
546.10 0.7134
546.20 0.7129
546.30 0.7124
546.40 0.7119
546.50 0.7114
546.60 0.7109
546.70 0.7104
546.80 0.7099
546.90 0.7094
547.00 0.7089
547.10 0.7084
547.20 0.7079
547.30 0.7074
547.40 0.7068
547.50 0.7063
547.60 0.7058
547.70 0.7053
547.80 0.7048
547.90 0.7043
548.00 0.7038
548.10 0.7033
548.20 0.7028
548.30 0.7023
548.40 0.7018
548.50 0.7013
548.60 0.7009
548.70 0.7004
548.80 0.6999
548.90 0.6994
549.00 0.6989
549.10 0.6984
549.20 0.6979
549.30 0.6974
549.40 0.6969
549.50 0.6964
549.60 0.6959
549.70 0.6954
549.80 0.6949
549.90 0.6944
550.00 0.6939
550.10 0.6934
550.20 0.6929
550.30 0.6925
550.40 0.692
550.50 0.6915
550.60 0.691
550.70 0.6905
550.80 0.69
550.90 0.6895
551.00 0.689
551.10 0.6886
551.20 0.6881
551.30 0.6876
551.40 0.6871
551.50 0.6866
551.60 0.6861
551.70 0.6856
551.80 0.6852
551.90 0.6847
552.00 0.6842
552.10 0.6837
552.20 0.6832
552.30 0.6827
552.40 0.6823
552.50 0.6818
552.60 0.6813
552.70 0.6808
552.80 0.6803
552.90 0.6799
553.00 0.6794
553.10 0.6789
553.20 0.6784
553.30 0.6779
553.40 0.6775
553.50 0.677
553.60 0.6765
553.70 0.676
553.80 0.6756
553.90 0.6751
554.00 0.6746
554.10 0.6741
554.20 0.6737
554.30 0.6732
554.40 0.6727
554.50 0.6722
554.60 0.6718
554.70 0.6713
554.80 0.6708
554.90 0.6704
555.00 0.6699
555.10 0.6694
555.20 0.6689
555.30 0.6685
555.40 0.668
555.50 0.6675
555.60 0.6671
555.70 0.6666
555.80 0.6661
555.90 0.6657
556.00 0.6652
556.10 0.6647
556.20 0.6643
556.30 0.6638
556.40 0.6633
556.50 0.6629
556.60 0.6624
556.70 0.662
556.80 0.6615
556.90 0.661
557.00 0.6606
557.10 0.6601
557.20 0.6596
557.30 0.6592
557.40 0.6587
557.50 0.6583
557.60 0.6578
557.70 0.6573
557.80 0.6569
557.90 0.6564
558.00 0.656
558.10 0.6555
558.20 0.655
558.30 0.6546
558.40 0.6541
558.50 0.6537
558.60 0.6532
558.70 0.6528
558.80 0.6523
558.90 0.6519
559.00 0.6514
559.10 0.6509
559.20 0.6505
559.30 0.65
559.40 0.6496
559.50 0.6491
559.60 0.6487
559.70 0.6482
559.80 0.6478
559.90 0.6473
560.00 0.6469
560.10 0.6464
560.20 0.646
560.30 0.6455
560.40 0.6451
560.50 0.6446
560.60 0.6442
560.70 0.6437
560.80 0.6433
560.90 0.6428
561.00 0.6424
561.10 0.642
561.20 0.6415
561.30 0.6411
561.40 0.6406
561.50 0.6402
561.60 0.6397
561.70 0.6393
561.80 0.6388
561.90 0.6384
562.00 0.638
562.10 0.6375
562.20 0.6371
562.30 0.6366
562.40 0.6362
562.50 0.6357
562.60 0.6353
562.70 0.6349
562.80 0.6344
562.90 0.634
563.00 0.6335
563.10 0.6331
563.20 0.6327
563.30 0.6322
563.40 0.6318
563.50 0.6314
563.60 0.6309
563.70 0.6305
563.80 0.63
563.90 0.6296
564.00 0.6292
564.10 0.6287
564.20 0.6283
564.30 0.6279
564.40 0.6274
564.50 0.627
564.60 0.6266
564.70 0.6261
564.80 0.6257
564.90 0.6253
565.00 0.6248
565.10 0.6244
565.20 0.624
565.30 0.6236
565.40 0.6231
565.50 0.6227
565.60 0.6223
565.70 0.6218
565.80 0.6214
565.90 0.621
566.00 0.6206
566.10 0.6201
566.20 0.6197
566.30 0.6193
566.40 0.6188
566.50 0.6184
566.60 0.618
566.70 0.6176
566.80 0.6171
566.90 0.6167
567.00 0.6163
567.10 0.6159
567.20 0.6154
567.30 0.615
567.40 0.6146
567.50 0.6142
567.60 0.6138
567.70 0.6133
567.80 0.6129
567.90 0.6125
568.00 0.6121
568.10 0.6117
568.20 0.6112
568.30 0.6108
568.40 0.6104
568.50 0.61
568.60 0.6096
568.70 0.6091
568.80 0.6087
568.90 0.6083
569.00 0.6079
569.10 0.6075
569.20 0.6071
569.30 0.6066
569.40 0.6062
569.50 0.6058
569.60 0.6054
569.70 0.605
569.80 0.6046
569.90 0.6042
570.00 0.6037
570.10 0.6033
570.20 0.6029
570.30 0.6025
570.40 0.6021
570.50 0.6017
570.60 0.6013
570.70 0.6009
570.80 0.6005
570.90 0.6
571.00 0.5996
571.10 0.5992
571.20 0.5988
571.30 0.5984
571.40 0.598
571.50 0.5976
571.60 0.5972
571.70 0.5968
571.80 0.5964
571.90 0.596
572.00 0.5956
572.10 0.5952
572.20 0.5947
572.30 0.5943
572.40 0.5939
572.50 0.5935
572.60 0.5931
572.70 0.5927
572.80 0.5923
572.90 0.5919
573.00 0.5915
573.10 0.5911
573.20 0.5907
573.30 0.5903
573.40 0.5899
573.50 0.5895
573.60 0.5891
573.70 0.5887
573.80 0.5883
573.90 0.5879
574.00 0.5875
574.10 0.5871
574.20 0.5867
574.30 0.5863
574.40 0.5859
574.50 0.5855
574.60 0.5851
574.70 0.5847
574.80 0.5843
574.90 0.5839
575.00 0.5835
575.10 0.5831
575.20 0.5827
575.30 0.5823
575.40 0.5819
575.50 0.5816
575.60 0.5812
575.70 0.5808
575.80 0.5804
575.90 0.58
576.00 0.5796
576.10 0.5792
576.20 0.5788
576.30 0.5784
576.40 0.578
576.50 0.5776
576.60 0.5772
576.70 0.5768
576.80 0.5765
576.90 0.5761
577.00 0.5757
577.10 0.5753
577.20 0.5749
577.30 0.5745
577.40 0.5741
577.50 0.5737
577.60 0.5733
577.70 0.573
577.80 0.5726
577.90 0.5722
578.00 0.5718
578.10 0.5714
578.20 0.571
578.30 0.5706
578.40 0.5703
578.50 0.5699
578.60 0.5695
578.70 0.5691
578.80 0.5687
578.90 0.5683
579.00 0.568
579.10 0.5676
579.20 0.5672
579.30 0.5668
579.40 0.5664
579.50 0.566
579.60 0.5657
579.70 0.5653
579.80 0.5649
579.90 0.5645
580.00 0.5641
580.10 0.5638
580.20 0.5634
580.30 0.563
580.40 0.5626
580.50 0.5623
580.60 0.5619
580.70 0.5615
580.80 0.5611
580.90 0.5607
581.00 0.5604
581.10 0.56
581.20 0.5596
581.30 0.5592
581.40 0.5589
581.50 0.5585
581.60 0.5581
581.70 0.5577
581.80 0.5574
581.90 0.557
582.00 0.5566
582.10 0.5562
582.20 0.5559
582.30 0.5555
582.40 0.5551
582.50 0.5548
582.60 0.5544
582.70 0.554
582.80 0.5536
582.90 0.5533
583.00 0.5529
583.10 0.5525
583.20 0.5522
583.30 0.5518
583.40 0.5514
583.50 0.5511
583.60 0.5507
583.70 0.5503
583.80 0.5499
583.90 0.5496
584.00 0.5492
584.10 0.5488
584.20 0.5485
584.30 0.5481
584.40 0.5477
584.50 0.5474
584.60 0.547
584.70 0.5467
584.80 0.5463
584.90 0.5459
585.00 0.5456
585.10 0.5452
585.20 0.5448
585.30 0.5445
585.40 0.5441
585.50 0.5437
585.60 0.5434
585.70 0.543
585.80 0.5427
585.90 0.5423
586.00 0.5419
586.10 0.5416
586.20 0.5412
586.30 0.5409
586.40 0.5405
586.50 0.5401
586.60 0.5398
586.70 0.5394
586.80 0.5391
586.90 0.5387
587.00 0.5383
587.10 0.538
587.20 0.5376
587.30 0.5373
587.40 0.5369
587.50 0.5366
587.60 0.5362
587.70 0.5358
587.80 0.5355
587.90 0.5351
588.00 0.5348
588.10 0.5344
588.20 0.5341
588.30 0.5337
588.40 0.5334
588.50 0.533
588.60 0.5327
588.70 0.5323
588.80 0.5319
588.90 0.5316
589.00 0.5312
589.10 0.5309
589.20 0.5305
589.30 0.5302
589.40 0.5298
589.50 0.5295
589.60 0.5291
589.70 0.5288
589.80 0.5284
589.90 0.5281
590.00 0.5277
590.10 0.5274
590.20 0.527
590.30 0.5267
590.40 0.5263
590.50 0.526
590.60 0.5256
590.70 0.5253
590.80 0.5249
590.90 0.5246
591.00 0.5243
591.10 0.5239
591.20 0.5236
591.30 0.5232
591.40 0.5229
591.50 0.5225
591.60 0.5222
591.70 0.5218
591.80 0.5215
591.90 0.5212
592.00 0.5208
592.10 0.5205
592.20 0.5201
592.30 0.5198
592.40 0.5194
592.50 0.5191
592.60 0.5188
592.70 0.5184
592.80 0.5181
592.90 0.5177
593.00 0.5174
593.10 0.517
593.20 0.5167
593.30 0.5164
593.40 0.516
593.50 0.5157
593.60 0.5153
593.70 0.515
593.80 0.5147
593.90 0.5143
594.00 0.514
594.10 0.5137
594.20 0.5133
594.30 0.513
594.40 0.5126
594.50 0.5123
594.60 0.512
594.70 0.5116
594.80 0.5113
594.90 0.511
595.00 0.5106
595.10 0.5103
595.20 0.51
595.30 0.5096
595.40 0.5093
595.50 0.509
595.60 0.5086
595.70 0.5083
595.80 0.508
595.90 0.5076
596.00 0.5073
596.10 0.507
596.20 0.5066
596.30 0.5063
596.40 0.506
596.50 0.5056
596.60 0.5053
596.70 0.505
596.80 0.5046
596.90 0.5043
597.00 0.504
597.10 0.5036
597.20 0.5033
597.30 0.503
597.40 0.5027
597.50 0.5023
597.60 0.502
597.70 0.5017
597.80 0.5013
597.90 0.501
598.00 0.5007
598.10 0.5004
598.20 0.5
598.30 0.4997
598.40 0.4994
598.50 0.4991
598.60 0.4987
598.70 0.4984
598.80 0.4981
598.90 0.4978
599.00 0.4974
599.10 0.4971
599.20 0.4968
599.30 0.4965
599.40 0.4961
599.50 0.4958
599.60 0.4955
599.70 0.4952
599.80 0.4948
599.90 0.4945
600.00 0.4942
600.10 0.4939
600.20 0.4936
600.30 0.4932
600.40 0.4929
600.50 0.4926
600.60 0.4923
600.70 0.492
600.80 0.4916
600.90 0.4913
601.00 0.491
601.10 0.4907
601.20 0.4904
601.30 0.49
601.40 0.4897
601.50 0.4894
601.60 0.4891
601.70 0.4888
601.80 0.4885
601.90 0.4881
602.00 0.4878
602.10 0.4875
602.20 0.4872
602.30 0.4869
602.40 0.4866
602.50 0.4862
602.60 0.4859
602.70 0.4856
602.80 0.4853
602.90 0.485
603.00 0.4847
603.10 0.4843
603.20 0.484
603.30 0.4837
603.40 0.4834
603.50 0.4831
603.60 0.4828
603.70 0.4825
603.80 0.4822
603.90 0.4818
604.00 0.4815
604.10 0.4812
604.20 0.4809
604.30 0.4806
604.40 0.4803
604.50 0.48
604.60 0.4797
604.70 0.4794
604.80 0.479
604.90 0.4787
605.00 0.4784
605.10 0.4781
605.20 0.4778
605.30 0.4775
605.40 0.4772
605.50 0.4769
605.60 0.4766
605.70 0.4763
605.80 0.476
605.90 0.4757
606.00 0.4753
606.10 0.475
606.20 0.4747
606.30 0.4744
606.40 0.4741
606.50 0.4738
606.60 0.4735
606.70 0.4732
606.80 0.4729
606.90 0.4726
607.00 0.4723
607.10 0.472
607.20 0.4717
607.30 0.4714
607.40 0.4711
607.50 0.4708
607.60 0.4705
607.70 0.4702
607.80 0.4699
607.90 0.4696
608.00 0.4693
608.10 0.469
608.20 0.4687
608.30 0.4684
608.40 0.4681
608.50 0.4678
608.60 0.4675
608.70 0.4672
608.80 0.4669
608.90 0.4666
609.00 0.4663
609.10 0.466
609.20 0.4657
609.30 0.4654
609.40 0.4651
609.50 0.4648
609.60 0.4645
609.70 0.4642
609.80 0.4639
609.90 0.4636
610.00 0.4633
610.10 0.463
610.20 0.4627
610.30 0.4624
610.40 0.4621
610.50 0.4618
610.60 0.4615
610.70 0.4612
610.80 0.4609
610.90 0.4606
611.00 0.4603
611.10 0.46
611.20 0.4597
611.30 0.4594
611.40 0.4591
611.50 0.4588
611.60 0.4585
611.70 0.4583
611.80 0.458
611.90 0.4577
612.00 0.4574
612.10 0.4571
612.20 0.4568
612.30 0.4565
612.40 0.4562
612.50 0.4559
612.60 0.4556
612.70 0.4553
612.80 0.455
612.90 0.4547
613.00 0.4545
613.10 0.4542
613.20 0.4539
613.30 0.4536
613.40 0.4533
613.50 0.453
613.60 0.4527
613.70 0.4524
613.80 0.4521
613.90 0.4519
614.00 0.4516
614.10 0.4513
614.20 0.451
614.30 0.4507
614.40 0.4504
614.50 0.4501
614.60 0.4498
614.70 0.4496
614.80 0.4493
614.90 0.449
615.00 0.4487
615.10 0.4484
615.20 0.4481
615.30 0.4478
615.40 0.4476
615.50 0.4473
615.60 0.447
615.70 0.4467
615.80 0.4464
615.90 0.4461
616.00 0.4458
616.10 0.4456
616.20 0.4453
616.30 0.445
616.40 0.4447
616.50 0.4444
616.60 0.4441
616.70 0.4439
616.80 0.4436
616.90 0.4433
617.00 0.443
617.10 0.4427
617.20 0.4425
617.30 0.4422
617.40 0.4419
617.50 0.4416
617.60 0.4413
617.70 0.4411
617.80 0.4408
617.90 0.4405
618.00 0.4402
618.10 0.4399
618.20 0.4397
618.30 0.4394
618.40 0.4391
618.50 0.4388
618.60 0.4385
618.70 0.4383
618.80 0.438
618.90 0.4377
619.00 0.4374
619.10 0.4372
619.20 0.4369
619.30 0.4366
619.40 0.4363
619.50 0.436
619.60 0.4358
619.70 0.4355
619.80 0.4352
619.90 0.4349
620.00 0.4347
620.10 0.4344
620.20 0.4341
620.30 0.4338
620.40 0.4336
620.50 0.4333
620.60 0.433
620.70 0.4327
620.80 0.4325
620.90 0.4322
621.00 0.4319
621.10 0.4316
621.20 0.4314
621.30 0.4311
621.40 0.4308
621.50 0.4306
621.60 0.4303
621.70 0.43
621.80 0.4297
621.90 0.4295
622.00 0.4292
622.10 0.4289
622.20 0.4287
622.30 0.4284
622.40 0.4281
622.50 0.4278
622.60 0.4276
622.70 0.4273
622.80 0.427
622.90 0.4268
623.00 0.4265
623.10 0.4262
623.20 0.426
623.30 0.4257
623.40 0.4254
623.50 0.4252
623.60 0.4249
623.70 0.4246
623.80 0.4243
623.90 0.4241
624.00 0.4238
624.10 0.4235
624.20 0.4233
624.30 0.423
624.40 0.4227
624.50 0.4225
624.60 0.4222
624.70 0.4219
624.80 0.4217
624.90 0.4214
625.00 0.4211
625.10 0.4209
625.20 0.4206
625.30 0.4204
625.40 0.4201
625.50 0.4198
625.60 0.4196
625.70 0.4193
625.80 0.419
625.90 0.4188
626.00 0.4185
626.10 0.4182
626.20 0.418
626.30 0.4177
626.40 0.4174
626.50 0.4172
626.60 0.4169
626.70 0.4167
626.80 0.4164
626.90 0.4161
627.00 0.4159
627.10 0.4156
627.20 0.4153
627.30 0.4151
627.40 0.4148
627.50 0.4146
627.60 0.4143
627.70 0.414
627.80 0.4138
627.90 0.4135
628.00 0.4133
628.10 0.413
628.20 0.4127
628.30 0.4125
628.40 0.4122
628.50 0.412
628.60 0.4117
628.70 0.4114
628.80 0.4112
628.90 0.4109
629.00 0.4107
629.10 0.4104
629.20 0.4101
629.30 0.4099
629.40 0.4096
629.50 0.4094
629.60 0.4091
629.70 0.4089
629.80 0.4086
629.90 0.4083
630.00 0.4081
630.10 0.4078
630.20 0.4076
630.30 0.4073
630.40 0.4071
630.50 0.4068
630.60 0.4065
630.70 0.4063
630.80 0.406
630.90 0.4058
631.00 0.4055
631.10 0.4053
631.20 0.405
631.30 0.4048
631.40 0.4045
631.50 0.4042
631.60 0.404
631.70 0.4037
631.80 0.4035
631.90 0.4032
632.00 0.403
632.10 0.4027
632.20 0.4025
632.30 0.4022
632.40 0.402
632.50 0.4017
632.60 0.4014
632.70 0.4012
632.80 0.4009
632.90 0.4007
633.00 0.4004
633.10 0.4002
633.20 0.3999
633.30 0.3997
633.40 0.3994
633.50 0.3992
633.60 0.3989
633.70 0.3987
633.80 0.3984
633.90 0.3982
634.00 0.3979
634.10 0.3977
634.20 0.3974
634.30 0.3972
634.40 0.3969
634.50 0.3966
634.60 0.3964
634.70 0.3961
634.80 0.3959
634.90 0.3956
635.00 0.3954
635.10 0.3951
635.20 0.3949
635.30 0.3946
635.40 0.3944
635.50 0.3941
635.60 0.3939
635.70 0.3936
635.80 0.3934
635.90 0.3931
636.00 0.3929
636.10 0.3926
636.20 0.3924
636.30 0.3921
636.40 0.3919
636.50 0.3916
636.60 0.3914
636.70 0.3911
636.80 0.3909
636.90 0.3906
637.00 0.3904
637.10 0.3901
637.20 0.3899
637.30 0.3896
637.40 0.3894
637.50 0.3891
637.60 0.3889
637.70 0.3886
637.80 0.3884
637.90 0.3881
638.00 0.3879
638.10 0.3876
638.20 0.3874
638.30 0.3871
638.40 0.3869
638.50 0.3866
638.60 0.3864
638.70 0.3861
638.80 0.3859
638.90 0.3856
639.00 0.3854
639.10 0.3851
639.20 0.3849
639.30 0.3846
639.40 0.3844
639.50 0.3841
639.60 0.3839
639.70 0.3836
639.80 0.3834
639.90 0.3831
640.00 0.3829
640.10 0.3826
640.20 0.3824
640.30 0.3821
640.40 0.3819
640.50 0.3816
640.60 0.3814
640.70 0.3811
640.80 0.3809
640.90 0.3806
641.00 0.3804
641.10 0.3801
641.20 0.3799
641.30 0.3796
641.40 0.3794
641.50 0.3791
641.60 0.3789
641.70 0.3786
641.80 0.3783
641.90 0.3781
642.00 0.3778
642.10 0.3776
642.20 0.3773
642.30 0.3771
642.40 0.3768
642.50 0.3766
642.60 0.3763
642.70 0.376
642.80 0.3758
642.90 0.3755
643.00 0.3753
643.10 0.375
643.20 0.3748
643.30 0.3745
643.40 0.3742
643.50 0.374
643.60 0.3737
643.70 0.3735
643.80 0.3732
643.90 0.3729
644.00 0.3727
644.10 0.3724
644.20 0.3722
644.30 0.3719
644.40 0.3716
644.50 0.3714
644.60 0.3711
644.70 0.3708
644.80 0.3706
644.90 0.3703
645.00 0.37
645.10 0.3698
645.20 0.3695
645.30 0.3692
645.40 0.3689
645.50 0.3687
645.60 0.3684
645.70 0.3681
645.80 0.3678
645.90 0.3676
646.00 0.3673
646.10 0.367
646.20 0.3667
646.30 0.3665
646.40 0.3662
646.50 0.3659
646.60 0.3656
646.70 0.3653
646.80 0.365
646.90 0.3647
647.00 0.3645
647.10 0.3642
647.20 0.3639
647.30 0.3636
647.40 0.3633
647.50 0.363
647.60 0.3627
647.70 0.3624
647.80 0.3621
647.90 0.3618
648.00 0.3615
648.10 0.3612
648.20 0.3609
648.30 0.3606
648.40 0.3603
648.50 0.3599
648.60 0.3596
648.70 0.3593
648.80 0.359
648.90 0.3586
649.00 0.3583
649.10 0.358
649.20 0.3577
649.30 0.3574
649.40 0.357
649.50 0.3567
649.60 0.3563
649.70 0.356
649.80 0.3556
649.90 0.3553
650.00 0.3549
650.10 0.3546
650.20 0.3542
650.30 0.3539
650.40 0.3535
650.50 0.3531
650.60 0.3527
650.70 0.3523
650.80 0.3519
650.90 0.3516
651.00 0.3512
651.10 0.3508
651.20 0.3504
651.30 0.35
651.40 0.3496
651.50 0.3492
651.60 0.3487
651.70 0.3483
651.80 0.3479
651.90 0.3475
652.00 0.347
652.10 0.3466
652.20 0.3462
652.30 0.3458
652.40 0.3453
652.50 0.3448
652.60 0.3443
652.70 0.3439
652.80 0.3434
652.90 0.3429
653.00 0.3425
653.10 0.342
653.20 0.3415
653.30 0.341
653.40 0.3405
653.50 0.34
653.60 0.3395
653.70 0.339
653.80 0.3385
653.90 0.338
654.00 0.3374
654.10 0.3369
654.20 0.3364
654.30 0.3359
654.40 0.3354
654.50 0.3349
654.60 0.3343
654.70 0.3338
654.80 0.3333
654.90 0.3328
655.00 0.3324
655.10 0.3319
655.20 0.3314
655.30 0.331
655.40 0.3306
655.50 0.3303
655.60 0.3302
655.70 0.3301
655.80 0.3303
655.90 0.3309
656.00 0.3325
656.10 0.3346
656.20 0.3426
656.30 0.3497
656.40 0.3382
656.50 0.3328
656.60 0.3307
656.70 0.3289
656.80 0.3282
656.90 0.3277
657.00 0.3275
657.10 0.3273
657.20 0.3273
657.30 0.3272
657.40 0.3273
657.50 0.3274
657.60 0.3275
657.70 0.3276
657.80 0.3277
657.90 0.3278
658.00 0.3279
658.10 0.3281
658.20 0.3282
658.30 0.3283
658.40 0.3284
658.50 0.3285
658.60 0.3287
658.70 0.3288
658.80 0.3289
658.90 0.329
659.00 0.3291
659.10 0.3292
659.20 0.3293
659.30 0.3294
659.40 0.3295
659.50 0.3296
659.60 0.3296
659.70 0.3297
659.80 0.3298
659.90 0.3298
660.00 0.3299
660.10 0.33
660.20 0.33
660.30 0.3301
660.40 0.3301
660.50 0.3301
660.60 0.3301
660.70 0.3301
660.80 0.3302
660.90 0.3302
661.00 0.3302
661.10 0.3302
661.20 0.3302
661.30 0.3302
661.40 0.3302
661.50 0.3302
661.60 0.3301
661.70 0.3301
661.80 0.3301
661.90 0.33
662.00 0.33
662.10 0.33
662.20 0.3299
662.30 0.3299
662.40 0.3298
662.50 0.3298
662.60 0.3297
662.70 0.3296
662.80 0.3296
662.90 0.3295
663.00 0.3294
663.10 0.3293
663.20 0.3293
663.30 0.3292
663.40 0.3291
663.50 0.329
663.60 0.3289
663.70 0.3288
663.80 0.3287
663.90 0.3286
664.00 0.3285
664.10 0.3284
664.20 0.3283
664.30 0.3282
664.40 0.3281
664.50 0.328
664.60 0.3279
664.70 0.3278
664.80 0.3276
664.90 0.3275
665.00 0.3274
665.10 0.3273
665.20 0.3272
665.30 0.327
665.40 0.3269
665.50 0.3268
665.60 0.3266
665.70 0.3265
665.80 0.3264
665.90 0.3262
666.00 0.3261
666.10 0.326
666.20 0.3258
666.30 0.3257
666.40 0.3255
666.50 0.3254
666.60 0.3253
666.70 0.3251
666.80 0.325
666.90 0.3248
667.00 0.3247
667.10 0.3245
667.20 0.3244
667.30 0.3242
667.40 0.3241
667.50 0.3239
667.60 0.3238
667.70 0.3236
667.80 0.3235
667.90 0.3233
668.00 0.3232
668.10 0.323
668.20 0.3228
668.30 0.3227
668.40 0.3225
668.50 0.3224
668.60 0.3222
668.70 0.322
668.80 0.3219
668.90 0.3217
669.00 0.3216
669.10 0.3214
669.20 0.3212
669.30 0.3211
669.40 0.3209
669.50 0.3208
669.60 0.3206
669.70 0.3204
669.80 0.3203
669.90 0.3201
670.00 0.3199
670.10 0.3198
670.20 0.3196
670.30 0.3194
670.40 0.3193
670.50 0.3191
670.60 0.3189
670.70 0.3188
670.80 0.3186
670.90 0.3184
671.00 0.3183
671.10 0.3181
671.20 0.3179
671.30 0.3178
671.40 0.3176
671.50 0.3174
671.60 0.3173
671.70 0.3171
671.80 0.3169
671.90 0.3167
672.00 0.3166
672.10 0.3164
672.20 0.3162
672.30 0.3161
672.40 0.3159
672.50 0.3157
672.60 0.3156
672.70 0.3154
672.80 0.3152
672.90 0.315
673.00 0.3149
673.10 0.3147
673.20 0.3145
673.30 0.3144
673.40 0.3142
673.50 0.314
673.60 0.3138
673.70 0.3137
673.80 0.3135
673.90 0.3133
674.00 0.3131
674.10 0.313
674.20 0.3128
674.30 0.3126
674.40 0.3125
674.50 0.3123
674.60 0.3121
674.70 0.3119
674.80 0.3118
674.90 0.3116
675.00 0.3114
675.10 0.3113
675.20 0.3111
675.30 0.3109
675.40 0.3107
675.50 0.3106
675.60 0.3104
675.70 0.3102
675.80 0.31
675.90 0.3099
676.00 0.3097
676.10 0.3095
676.20 0.3094
676.30 0.3092
676.40 0.309
676.50 0.3088
676.60 0.3087
676.70 0.3085
676.80 0.3083
676.90 0.3082
677.00 0.308
677.10 0.3078
677.20 0.3076
677.30 0.3075
677.40 0.3073
677.50 0.3071
677.60 0.3069
677.70 0.3068
677.80 0.3066
677.90 0.3064
678.00 0.3063
678.10 0.3061
678.20 0.3059
678.30 0.3057
678.40 0.3056
678.50 0.3054
678.60 0.3052
678.70 0.3051
678.80 0.3049
678.90 0.3047
679.00 0.3045
679.10 0.3044
679.20 0.3042
679.30 0.304
679.40 0.3039
679.50 0.3037
679.60 0.3035
679.70 0.3033
679.80 0.3032
679.90 0.303
680.00 0.3028
680.10 0.3027
680.20 0.3025
680.30 0.3023
680.40 0.3022
680.50 0.302
680.60 0.3018
680.70 0.3016
680.80 0.3015
680.90 0.3013
681.00 0.3011
681.10 0.301
681.20 0.3008
681.30 0.3006
681.40 0.3005
681.50 0.3003
681.60 0.3001
681.70 0.2999
681.80 0.2998
681.90 0.2996
682.00 0.2994
682.10 0.2993
682.20 0.2991
682.30 0.2989
682.40 0.2988
682.50 0.2986
682.60 0.2984
682.70 0.2983
682.80 0.2981
682.90 0.2979
683.00 0.2978
683.10 0.2976
683.20 0.2974
683.30 0.2972
683.40 0.2971
683.50 0.2969
683.60 0.2967
683.70 0.2966
683.80 0.2964
683.90 0.2962
684.00 0.2961
684.10 0.2959
684.20 0.2957
684.30 0.2956
684.40 0.2954
684.50 0.2952
684.60 0.2951
684.70 0.2949
684.80 0.2947
684.90 0.2946
685.00 0.2944
685.10 0.2942
685.20 0.2941
685.30 0.2939
685.40 0.2937
685.50 0.2936
685.60 0.2934
685.70 0.2932
685.80 0.2931
685.90 0.2929
686.00 0.2928
686.10 0.2926
686.20 0.2924
686.30 0.2923
686.40 0.2921
686.50 0.2919
686.60 0.2918
686.70 0.2916
686.80 0.2914
686.90 0.2913
687.00 0.2911
687.10 0.2909
687.20 0.2908
687.30 0.2906
687.40 0.2904
687.50 0.2903
687.60 0.2901
687.70 0.29
687.80 0.2898
687.90 0.2896
688.00 0.2895
688.10 0.2893
688.20 0.2891
688.30 0.289
688.40 0.2888
688.50 0.2887
688.60 0.2885
688.70 0.2883
688.80 0.2882
688.90 0.288
689.00 0.2878
689.10 0.2877
689.20 0.2875
689.30 0.2874
689.40 0.2872
689.50 0.287
689.60 0.2869
689.70 0.2867
689.80 0.2865
689.90 0.2864
690.00 0.2862
690.10 0.2861
690.20 0.2859
690.30 0.2857
690.40 0.2856
690.50 0.2854
690.60 0.2853
690.70 0.2851
690.80 0.2849
690.90 0.2848
691.00 0.2846
691.10 0.2845
691.20 0.2843
691.30 0.2841
691.40 0.284
691.50 0.2838
691.60 0.2837
691.70 0.2835
691.80 0.2833
691.90 0.2832
692.00 0.283
692.10 0.2829
692.20 0.2827
692.30 0.2825
692.40 0.2824
692.50 0.2822
692.60 0.2821
692.70 0.2819
692.80 0.2818
692.90 0.2816
693.00 0.2814
693.10 0.2813
693.20 0.2811
693.30 0.281
693.40 0.2808
693.50 0.2806
693.60 0.2805
693.70 0.2803
693.80 0.2802
693.90 0.28
694.00 0.2799
694.10 0.2797
694.20 0.2795
694.30 0.2794
694.40 0.2792
694.50 0.2791
694.60 0.2789
694.70 0.2788
694.80 0.2786
694.90 0.2784
695.00 0.2783
695.10 0.2781
695.20 0.278
695.30 0.2778
695.40 0.2777
695.50 0.2775
695.60 0.2774
695.70 0.2772
695.80 0.277
695.90 0.2769
696.00 0.2767
696.10 0.2766
696.20 0.2764
696.30 0.2763
696.40 0.2761
696.50 0.276
696.60 0.2758
696.70 0.2757
696.80 0.2755
696.90 0.2754
697.00 0.2752
697.10 0.275
697.20 0.2749
697.30 0.2747
697.40 0.2746
697.50 0.2744
697.60 0.2743
697.70 0.2741
697.80 0.274
697.90 0.2738
698.00 0.2737
698.10 0.2735
698.20 0.2734
698.30 0.2732
698.40 0.2731
698.50 0.2729
698.60 0.2727
698.70 0.2726
698.80 0.2724
698.90 0.2723
699.00 0.2721
699.10 0.272
699.20 0.2718
699.30 0.2717
699.40 0.2715
699.50 0.2714
699.60 0.2712
699.70 0.2711
699.80 0.2709
699.90 0.2708
700.00 0.2706
700.10 0.2705
700.20 0.2703
700.30 0.2702
700.40 0.27
700.50 0.2699
700.60 0.2697
700.70 0.2696
700.80 0.2694
700.90 0.2693
701.00 0.2691
701.10 0.269
701.20 0.2688
701.30 0.2687
701.40 0.2685
701.50 0.2684
701.60 0.2682
701.70 0.2681
701.80 0.2679
701.90 0.2678
702.00 0.2676
702.10 0.2675
702.20 0.2673
702.30 0.2672
702.40 0.267
702.50 0.2669
702.60 0.2667
702.70 0.2666
702.80 0.2664
702.90 0.2663
703.00 0.2661
703.10 0.266
703.20 0.2659
703.30 0.2657
703.40 0.2656
703.50 0.2654
703.60 0.2653
703.70 0.2651
703.80 0.265
703.90 0.2648
704.00 0.2647
704.10 0.2645
704.20 0.2644
704.30 0.2642
704.40 0.2641
704.50 0.2639
704.60 0.2638
704.70 0.2636
704.80 0.2635
704.90 0.2633
705.00 0.2632
705.10 0.2631
705.20 0.2629
705.30 0.2628
705.40 0.2626
705.50 0.2625
705.60 0.2623
705.70 0.2622
705.80 0.262
705.90 0.2619
706.00 0.2618
706.10 0.2616
706.20 0.2615
706.30 0.2613
706.40 0.2612
706.50 0.261
706.60 0.2609
706.70 0.2607
706.80 0.2606
706.90 0.2605
707.00 0.2603
707.10 0.2602
707.20 0.26
707.30 0.2599
707.40 0.2597
707.50 0.2596
707.60 0.2595
707.70 0.2593
707.80 0.2592
707.90 0.259
708.00 0.2589
708.10 0.2587
708.20 0.2586
708.30 0.2585
708.40 0.2583
708.50 0.2582
708.60 0.258
708.70 0.2579
708.80 0.2577
708.90 0.2576
709.00 0.2575
709.10 0.2573
709.20 0.2572
709.30 0.257
709.40 0.2569
709.50 0.2567
709.60 0.2566
709.70 0.2565
709.80 0.2563
709.90 0.2562
710.00 0.256
710.10 0.2559
710.20 0.2558
710.30 0.2556
710.40 0.2555
710.50 0.2553
710.60 0.2552
710.70 0.2551
710.80 0.2549
710.90 0.2548
711.00 0.2546
711.10 0.2545
711.20 0.2544
711.30 0.2542
711.40 0.2541
711.50 0.2539
711.60 0.2538
711.70 0.2537
711.80 0.2535
711.90 0.2534
712.00 0.2532
712.10 0.2531
712.20 0.253
712.30 0.2528
712.40 0.2527
712.50 0.2526
712.60 0.2524
712.70 0.2523
712.80 0.2521
712.90 0.252
713.00 0.2519
713.10 0.2517
713.20 0.2516
713.30 0.2514
713.40 0.2513
713.50 0.2512
713.60 0.251
713.70 0.2509
713.80 0.2508
713.90 0.2506
714.00 0.2505
714.10 0.2503
714.20 0.2502
714.30 0.2501
714.40 0.2499
714.50 0.2498
714.60 0.2497
714.70 0.2495
714.80 0.2494
714.90 0.2492
715.00 0.2491
715.10 0.249
715.20 0.2488
715.30 0.2487
715.40 0.2486
715.50 0.2484
715.60 0.2483
715.70 0.2482
715.80 0.248
715.90 0.2479
716.00 0.2478
716.10 0.2476
716.20 0.2475
716.30 0.2474
716.40 0.2472
716.50 0.2471
716.60 0.2469
716.70 0.2468
716.80 0.2467
716.90 0.2465
717.00 0.2464
717.10 0.2463
717.20 0.2461
717.30 0.246
717.40 0.2459
717.50 0.2457
717.60 0.2456
717.70 0.2455
717.80 0.2453
717.90 0.2452
718.00 0.2451
718.10 0.2449
718.20 0.2448
718.30 0.2447
718.40 0.2445
718.50 0.2444
718.60 0.2443
718.70 0.2441
718.80 0.244
718.90 0.2439
719.00 0.2437
719.10 0.2436
719.20 0.2435
719.30 0.2433
719.40 0.2432
719.50 0.2431
719.60 0.2429
719.70 0.2428
719.80 0.2427
719.90 0.2425
720.00 0.2424
720.10 0.2423
720.20 0.2421
720.30 0.242
720.40 0.2419
720.50 0.2418
720.60 0.2416
720.70 0.2415
720.80 0.2414
720.90 0.2412
721.00 0.2411
721.10 0.241
721.20 0.2408
721.30 0.2407
721.40 0.2406
721.50 0.2405
721.60 0.2403
721.70 0.2402
721.80 0.2401
721.90 0.2399
722.00 0.2398
722.10 0.2397
722.20 0.2395
722.30 0.2394
722.40 0.2393
722.50 0.2392
722.60 0.239
722.70 0.2389
722.80 0.2388
722.90 0.2386
723.00 0.2385
723.10 0.2384
723.20 0.2382
723.30 0.2381
723.40 0.238
723.50 0.2379
723.60 0.2377
723.70 0.2376
723.80 0.2375
723.90 0.2373
724.00 0.2372
724.10 0.2371
724.20 0.237
724.30 0.2368
724.40 0.2367
724.50 0.2366
724.60 0.2364
724.70 0.2363
724.80 0.2362
724.90 0.2361
725.00 0.2359
725.10 0.2358
725.20 0.2357
725.30 0.2356
725.40 0.2354
725.50 0.2353
725.60 0.2352
725.70 0.2351
725.80 0.2349
725.90 0.2348
726.00 0.2347
726.10 0.2345
726.20 0.2344
726.30 0.2343
726.40 0.2342
726.50 0.234
726.60 0.2339
726.70 0.2338
726.80 0.2337
726.90 0.2335
727.00 0.2334
727.10 0.2333
727.20 0.2332
727.30 0.233
727.40 0.2329
727.50 0.2328
727.60 0.2327
727.70 0.2325
727.80 0.2324
727.90 0.2323
728.00 0.2322
728.10 0.232
728.20 0.2319
728.30 0.2318
728.40 0.2317
728.50 0.2315
728.60 0.2314
728.70 0.2313
728.80 0.2312
728.90 0.231
729.00 0.2309
729.10 0.2308
729.20 0.2307
729.30 0.2305
729.40 0.2304
729.50 0.2303
729.60 0.2302
729.70 0.23
729.80 0.2299
729.90 0.2298
730.00 0.2297
730.10 0.2296
730.20 0.2294
730.30 0.2293
730.40 0.2292
730.50 0.2291
730.60 0.2289
730.70 0.2288
730.80 0.2287
730.90 0.2286
731.00 0.2285
731.10 0.2283
731.20 0.2282
731.30 0.2281
731.40 0.228
731.50 0.2279
731.60 0.2277
731.70 0.2276
731.80 0.2275
731.90 0.2274
732.00 0.2273
732.10 0.2271
732.20 0.227
732.30 0.2269
732.40 0.2268
732.50 0.2266
732.60 0.2265
732.70 0.2264
732.80 0.2263
732.90 0.2262
733.00 0.226
733.10 0.2259
733.20 0.2258
733.30 0.2257
733.40 0.2256
733.50 0.2254
733.60 0.2253
733.70 0.2252
733.80 0.2251
733.90 0.225
734.00 0.2248
734.10 0.2247
734.20 0.2246
734.30 0.2245
734.40 0.2244
734.50 0.2242
734.60 0.2241
734.70 0.224
734.80 0.2239
734.90 0.2238
735.00 0.2237
735.10 0.2235
735.20 0.2234
735.30 0.2233
735.40 0.2232
735.50 0.2231
735.60 0.2229
735.70 0.2228
735.80 0.2227
735.90 0.2226
736.00 0.2225
736.10 0.2223
736.20 0.2222
736.30 0.2221
736.40 0.222
736.50 0.2219
736.60 0.2218
736.70 0.2216
736.80 0.2215
736.90 0.2214
737.00 0.2213
737.10 0.2212
737.20 0.221
737.30 0.2209
737.40 0.2208
737.50 0.2207
737.60 0.2206
737.70 0.2205
737.80 0.2203
737.90 0.2202
738.00 0.2201
738.10 0.22
738.20 0.2199
738.30 0.2198
738.40 0.2196
738.50 0.2195
738.60 0.2194
738.70 0.2193
738.80 0.2192
738.90 0.2191
739.00 0.2189
739.10 0.2188
739.20 0.2187
739.30 0.2186
739.40 0.2185
739.50 0.2184
739.60 0.2182
739.70 0.2181
739.80 0.218
739.90 0.2179
740.00 0.2178
740.10 0.2177
740.20 0.2175
740.30 0.2174
740.40 0.2173
740.50 0.2172
740.60 0.2171
740.70 0.217
740.80 0.2169
740.90 0.2167
741.00 0.2166
741.10 0.2165
741.20 0.2164
741.30 0.2163
741.40 0.2162
741.50 0.2161
741.60 0.216
741.70 0.2158
741.80 0.2157
741.90 0.2156
742.00 0.2155
742.10 0.2154
742.20 0.2153
742.30 0.2152
742.40 0.215
742.50 0.2149
742.60 0.2148
742.70 0.2147
742.80 0.2146
742.90 0.2145
743.00 0.2144
743.10 0.2143
743.20 0.2141
743.30 0.214
743.40 0.2139
743.50 0.2138
743.60 0.2137
743.70 0.2136
743.80 0.2135
743.90 0.2134
744.00 0.2132
744.10 0.2131
744.20 0.213
744.30 0.2129
744.40 0.2128
744.50 0.2127
744.60 0.2126
744.70 0.2125
744.80 0.2124
744.90 0.2122
745.00 0.2121
745.10 0.212
745.20 0.2119
745.30 0.2118
745.40 0.2117
745.50 0.2116
745.60 0.2115
745.70 0.2114
745.80 0.2112
745.90 0.2111
746.00 0.211
746.10 0.2109
746.20 0.2108
746.30 0.2107
746.40 0.2106
746.50 0.2105
746.60 0.2104
746.70 0.2102
746.80 0.2101
746.90 0.21
747.00 0.2099
747.10 0.2098
747.20 0.2097
747.30 0.2096
747.40 0.2095
747.50 0.2094
747.60 0.2093
747.70 0.2091
747.80 0.209
747.90 0.2089
748.00 0.2088
748.10 0.2087
748.20 0.2086
748.30 0.2085
748.40 0.2084
748.50 0.2083
748.60 0.2082
748.70 0.208
748.80 0.2079
748.90 0.2078
749.00 0.2077
749.10 0.2076
749.20 0.2075
749.30 0.2074
749.40 0.2073
749.50 0.2072
749.60 0.2071
749.70 0.207
749.80 0.2068
749.90 0.2067
750.00 0.2066
750.10 0.2065
750.20 0.2064
750.30 0.2063
750.40 0.2062
750.50 0.2061
750.60 0.206
750.70 0.2059
750.80 0.2058
750.90 0.2057
751.00 0.2056
751.10 0.2055
751.20 0.2053
751.30 0.2052
751.40 0.2051
751.50 0.205
751.60 0.2049
751.70 0.2048
751.80 0.2047
751.90 0.2046
752.00 0.2045
752.10 0.2044
752.20 0.2043
752.30 0.2042
752.40 0.2041
752.50 0.204
752.60 0.2039
752.70 0.2038
752.80 0.2037
752.90 0.2035
753.00 0.2034
753.10 0.2033
753.20 0.2032
753.30 0.2031
753.40 0.203
753.50 0.2029
753.60 0.2028
753.70 0.2027
753.80 0.2026
753.90 0.2025
754.00 0.2024
754.10 0.2023
754.20 0.2022
754.30 0.2021
754.40 0.202
754.50 0.2019
754.60 0.2018
754.70 0.2017
754.80 0.2016
754.90 0.2014
755.00 0.2013
755.10 0.2012
755.20 0.2011
755.30 0.201
755.40 0.2009
755.50 0.2008
755.60 0.2007
755.70 0.2006
755.80 0.2005
755.90 0.2004
756.00 0.2003
756.10 0.2002
756.20 0.2001
756.30 0.2
756.40 0.1999
756.50 0.1998
756.60 0.1997
756.70 0.1996
756.80 0.1995
756.90 0.1994
757.00 0.1993
757.10 0.1992
757.20 0.1991
757.30 0.199
757.40 0.1988
757.50 0.1987
757.60 0.1986
757.70 0.1985
757.80 0.1984
757.90 0.1983
758.00 0.1982
758.10 0.1981
758.20 0.198
758.30 0.1979
758.40 0.1978
758.50 0.1977
758.60 0.1976
758.70 0.1975
758.80 0.1974
758.90 0.1973
759.00 0.1972
759.10 0.1971
759.20 0.197
759.30 0.1969
759.40 0.1968
759.50 0.1967
759.60 0.1966
759.70 0.1965
759.80 0.1964
759.90 0.1963
760.00 0.1962
760.10 0.1961
760.20 0.196
760.30 0.1959
760.40 0.1958
760.50 0.1957
760.60 0.1956
760.70 0.1955
760.80 0.1954
760.90 0.1953
761.00 0.1952
761.10 0.1951
761.20 0.195
761.30 0.1949
761.40 0.1948
761.50 0.1947
761.60 0.1946
761.70 0.1945
761.80 0.1944
761.90 0.1943
762.00 0.1942
762.10 0.1941
762.20 0.194
762.30 0.1939
762.40 0.1938
762.50 0.1937
762.60 0.1936
762.70 0.1935
762.80 0.1934
762.90 0.1933
763.00 0.1932
763.10 0.1931
763.20 0.193
763.30 0.1929
763.40 0.1928
763.50 0.1927
763.60 0.1926
763.70 0.1925
763.80 0.1924
763.90 0.1923
764.00 0.1922
764.10 0.1921
764.20 0.192
764.30 0.1919
764.40 0.1918
764.50 0.1917
764.60 0.1916
764.70 0.1915
764.80 0.1914
764.90 0.1913
765.00 0.1912
765.10 0.1911
765.20 0.191
765.30 0.1909
765.40 0.1908
765.50 0.1907
765.60 0.1906
765.70 0.1905
765.80 0.1904
765.90 0.1904
766.00 0.1903
766.10 0.1902
766.20 0.1901
766.30 0.19
766.40 0.1899
766.50 0.1898
766.60 0.1897
766.70 0.1896
766.80 0.1895
766.90 0.1894
767.00 0.1893
767.10 0.1892
767.20 0.1891
767.30 0.189
767.40 0.1889
767.50 0.1888
767.60 0.1887
767.70 0.1886
767.80 0.1885
767.90 0.1884
768.00 0.1883
768.10 0.1882
768.20 0.1881
768.30 0.188
768.40 0.1879
768.50 0.1878
768.60 0.1877
768.70 0.1876
768.80 0.1875
768.90 0.1874
769.00 0.1873
769.10 0.1873
769.20 0.1872
769.30 0.1871
769.40 0.187
769.50 0.1869
769.60 0.1868
769.70 0.1867
769.80 0.1866
769.90 0.1865
770.00 0.1864
770.10 0.1863
770.20 0.1862
770.30 0.1861
770.40 0.186
770.50 0.1859
770.60 0.1858
770.70 0.1857
770.80 0.1856
770.90 0.1855
771.00 0.1855
771.10 0.1854
771.20 0.1853
771.30 0.1852
771.40 0.1851
771.50 0.185
771.60 0.1849
771.70 0.1848
771.80 0.1847
771.90 0.1846
772.00 0.1845
772.10 0.1844
772.20 0.1843
772.30 0.1842
772.40 0.1841
772.50 0.1841
772.60 0.184
772.70 0.1839
772.80 0.1838
772.90 0.1837
773.00 0.1836
773.10 0.1835
773.20 0.1834
773.30 0.1833
773.40 0.1832
773.50 0.1831
773.60 0.183
773.70 0.1829
773.80 0.1829
773.90 0.1828
774.00 0.1827
774.10 0.1826
774.20 0.1825
774.30 0.1824
774.40 0.1823
774.50 0.1822
774.60 0.1821
774.70 0.182
774.80 0.1819
774.90 0.1818
775.00 0.1817
775.10 0.1817
775.20 0.1816
775.30 0.1815
775.40 0.1814
775.50 0.1813
775.60 0.1812
775.70 0.1811
775.80 0.181
775.90 0.1809
776.00 0.1808
776.10 0.1807
776.20 0.1806
776.30 0.1806
776.40 0.1805
776.50 0.1804
776.60 0.1803
776.70 0.1802
776.80 0.1801
776.90 0.18
777.00 0.1799
777.10 0.1798
777.20 0.1797
777.30 0.1796
777.40 0.1796
777.50 0.1795
777.60 0.1794
777.70 0.1793
777.80 0.1792
777.90 0.1791
778.00 0.179
778.10 0.1789
778.20 0.1788
778.30 0.1787
778.40 0.1786
778.50 0.1786
778.60 0.1785
778.70 0.1784
778.80 0.1783
778.90 0.1782
779.00 0.1781
779.10 0.178
779.20 0.1779
779.30 0.1778
779.40 0.1777
779.50 0.1777
779.60 0.1776
779.70 0.1775
779.80 0.1774
779.90 0.1773
780.00 0.1772
780.10 0.1771
780.20 0.177
780.30 0.1769
780.40 0.1769
780.50 0.1768
780.60 0.1767
780.70 0.1766
780.80 0.1765
780.90 0.1764
781.00 0.1763
781.10 0.1762
781.20 0.1761
781.30 0.1761
781.40 0.176
781.50 0.1759
781.60 0.1758
781.70 0.1757
781.80 0.1756
781.90 0.1755
782.00 0.1754
782.10 0.1754
782.20 0.1753
782.30 0.1752
782.40 0.1751
782.50 0.175
782.60 0.1749
782.70 0.1748
782.80 0.1747
782.90 0.1747
783.00 0.1746
783.10 0.1745
783.20 0.1744
783.30 0.1743
783.40 0.1742
783.50 0.1741
783.60 0.1741
783.70 0.174
783.80 0.1739
783.90 0.1738
784.00 0.1737
784.10 0.1736
784.20 0.1735
784.30 0.1734
784.40 0.1734
784.50 0.1733
784.60 0.1732
784.70 0.1731
784.80 0.173
784.90 0.1729
785.00 0.1728
785.10 0.1728
785.20 0.1727
785.30 0.1726
785.40 0.1725
785.50 0.1724
785.60 0.1723
785.70 0.1722
785.80 0.1722
785.90 0.1721
786.00 0.172
786.10 0.1719
786.20 0.1718
786.30 0.1717
786.40 0.1716
786.50 0.1716
786.60 0.1715
786.70 0.1714
786.80 0.1713
786.90 0.1712
787.00 0.1711
787.10 0.171
787.20 0.171
787.30 0.1709
787.40 0.1708
787.50 0.1707
787.60 0.1706
787.70 0.1705
787.80 0.1704
787.90 0.1704
788.00 0.1703
788.10 0.1702
788.20 0.1701
788.30 0.17
788.40 0.1699
788.50 0.1698
788.60 0.1698
788.70 0.1697
788.80 0.1696
788.90 0.1695
789.00 0.1694
789.10 0.1693
789.20 0.1693
789.30 0.1692
789.40 0.1691
789.50 0.169
789.60 0.1689
789.70 0.1688
789.80 0.1687
789.90 0.1687
790.00 0.1686
790.10 0.1685
790.20 0.1684
790.30 0.1683
790.40 0.1682
790.50 0.1682
790.60 0.1681
790.70 0.168
790.80 0.1679
790.90 0.1678
791.00 0.1678
791.10 0.1677
791.20 0.1676
791.30 0.1675
791.40 0.1674
791.50 0.1673
791.60 0.1673
791.70 0.1672
791.80 0.1671
791.90 0.167
792.00 0.1669
792.10 0.1668
792.20 0.1668
792.30 0.1667
792.40 0.1666
792.50 0.1665
792.60 0.1664
792.70 0.1664
792.80 0.1663
792.90 0.1662
793.00 0.1661
793.10 0.166
793.20 0.1659
793.30 0.1659
793.40 0.1658
793.50 0.1657
793.60 0.1656
793.70 0.1655
793.80 0.1655
793.90 0.1654
794.00 0.1653
794.10 0.1652
794.20 0.1651
794.30 0.165
794.40 0.165
794.50 0.1649
794.60 0.1648
794.70 0.1647
794.80 0.1646
794.90 0.1646
795.00 0.1645
795.10 0.1644
795.20 0.1643
795.30 0.1642
795.40 0.1642
795.50 0.1641
795.60 0.164
795.70 0.1639
795.80 0.1638
795.90 0.1638
796.00 0.1637
796.10 0.1636
796.20 0.1635
796.30 0.1634
796.40 0.1633
796.50 0.1633
796.60 0.1632
796.70 0.1631
796.80 0.163
796.90 0.1629
797.00 0.1629
797.10 0.1628
797.20 0.1627
797.30 0.1626
797.40 0.1625
797.50 0.1625
797.60 0.1624
797.70 0.1623
797.80 0.1622
797.90 0.1621
798.00 0.1621
798.10 0.162
798.20 0.1619
798.30 0.1618
798.40 0.1617
798.50 0.1617
798.60 0.1616
798.70 0.1615
798.80 0.1614
798.90 0.1613
799.00 0.1613
799.10 0.1612
799.20 0.1611
799.30 0.161
799.40 0.1609
799.50 0.1609
799.60 0.1608
799.70 0.1607
799.80 0.1606
799.90 0.1605
800.00 0.1605
800.10 0.1604
800.20 0.1603
800.30 0.1602
800.40 0.1602
800.50 0.1601
800.60 0.16
800.70 0.1599
800.80 0.1598
800.90 0.1598
801.00 0.1597
801.10 0.1596
801.20 0.1595
801.30 0.1595
801.40 0.1594
801.50 0.1593
801.60 0.1592
801.70 0.1591
801.80 0.1591
801.90 0.159
802.00 0.1589
802.10 0.1588
802.20 0.1588
802.30 0.1587
802.40 0.1586
802.50 0.1585
802.60 0.1585
802.70 0.1584
802.80 0.1583
802.90 0.1582
803.00 0.1581
803.10 0.1581
803.20 0.158
803.30 0.1579
803.40 0.1578
803.50 0.1578
803.60 0.1577
803.70 0.1576
803.80 0.1575
803.90 0.1575
804.00 0.1574
804.10 0.1573
804.20 0.1572
804.30 0.1571
804.40 0.1571
804.50 0.157
804.60 0.1569
804.70 0.1568
804.80 0.1568
804.90 0.1567
805.00 0.1566
805.10 0.1565
805.20 0.1565
805.30 0.1564
805.40 0.1563
805.50 0.1562
805.60 0.1562
805.70 0.1561
805.80 0.156
805.90 0.1559
806.00 0.1559
806.10 0.1558
806.20 0.1557
806.30 0.1556
806.40 0.1556
806.50 0.1555
806.60 0.1554
806.70 0.1553
806.80 0.1552
806.90 0.1552
807.00 0.1551
807.10 0.155
807.20 0.1549
807.30 0.1549
807.40 0.1548
807.50 0.1547
807.60 0.1546
807.70 0.1546
807.80 0.1545
807.90 0.1544
808.00 0.1543
808.10 0.1543
808.20 0.1542
808.30 0.1541
808.40 0.154
808.50 0.154
808.60 0.1539
808.70 0.1538
808.80 0.1537
808.90 0.1537
809.00 0.1536
809.10 0.1535
809.20 0.1534
809.30 0.1534
809.40 0.1533
809.50 0.1532
809.60 0.1531
809.70 0.1531
809.80 0.153
809.90 0.1529
810.00 0.1528
810.10 0.1528
810.20 0.1527
810.30 0.1526
810.40 0.1526
810.50 0.1525
810.60 0.1524
810.70 0.1523
810.80 0.1523
810.90 0.1522
811.00 0.1521
811.10 0.152
811.20 0.152
811.30 0.1519
811.40 0.1518
811.50 0.1517
811.60 0.1517
811.70 0.1516
811.80 0.1515
811.90 0.1515
812.00 0.1514
812.10 0.1513
812.20 0.1512
812.30 0.1512
812.40 0.1511
812.50 0.151
812.60 0.1509
812.70 0.1509
812.80 0.1508
812.90 0.1507
813.00 0.1507
813.10 0.1506
813.20 0.1505
813.30 0.1504
813.40 0.1504
813.50 0.1503
813.60 0.1502
813.70 0.1502
813.80 0.1501
813.90 0.15
814.00 0.1499
814.10 0.1499
814.20 0.1498
814.30 0.1497
814.40 0.1496
814.50 0.1496
814.60 0.1495
814.70 0.1494
814.80 0.1494
814.90 0.1493
815.00 0.1492
815.10 0.1491
815.20 0.1491
815.30 0.149
815.40 0.1489
815.50 0.1489
815.60 0.1488
815.70 0.1487
815.80 0.1486
815.90 0.1486
816.00 0.1485
816.10 0.1484
816.20 0.1484
816.30 0.1483
816.40 0.1482
816.50 0.1481
816.60 0.1481
816.70 0.148
816.80 0.1479
816.90 0.1479
817.00 0.1478
817.10 0.1477
817.20 0.1476
817.30 0.1476
817.40 0.1475
817.50 0.1474
817.60 0.1474
817.70 0.1473
817.80 0.1472
817.90 0.1471
818.00 0.1471
818.10 0.147
818.20 0.1469
818.30 0.1469
818.40 0.1468
818.50 0.1467
818.60 0.1467
818.70 0.1466
818.80 0.1465
818.90 0.1464
819.00 0.1464
819.10 0.1463
819.20 0.1462
819.30 0.1462
819.40 0.1461
819.50 0.146
819.60 0.1459
819.70 0.1459
819.80 0.1458
819.90 0.1457
820.00 0.1457
820.10 0.1456
820.20 0.1455
820.30 0.1455
820.40 0.1454
820.50 0.1453
820.60 0.1453
820.70 0.1452
820.80 0.1451
820.90 0.145
821.00 0.145
821.10 0.1449
821.20 0.1448
821.30 0.1448
821.40 0.1447
821.50 0.1446
821.60 0.1446
821.70 0.1445
821.80 0.1444
821.90 0.1444
822.00 0.1443
822.10 0.1442
822.20 0.1441
822.30 0.1441
822.40 0.144
822.50 0.1439
822.60 0.1439
822.70 0.1438
822.80 0.1437
822.90 0.1437
823.00 0.1436
823.10 0.1435
823.20 0.1435
823.30 0.1434
823.40 0.1433
823.50 0.1433
823.60 0.1432
823.70 0.1431
823.80 0.1431
823.90 0.143
824.00 0.1429
824.10 0.1429
824.20 0.1428
824.30 0.1427
824.40 0.1426
824.50 0.1426
824.60 0.1425
824.70 0.1424
824.80 0.1424
824.90 0.1423
825.00 0.1422
825.10 0.1422
825.20 0.1421
825.30 0.142
825.40 0.142
825.50 0.1419
825.60 0.1418
825.70 0.1418
825.80 0.1417
825.90 0.1416
826.00 0.1416
826.10 0.1415
826.20 0.1414
826.30 0.1414
826.40 0.1413
826.50 0.1412
826.60 0.1412
826.70 0.1411
826.80 0.141
826.90 0.141
827.00 0.1409
827.10 0.1408
827.20 0.1408
827.30 0.1407
827.40 0.1406
827.50 0.1406
827.60 0.1405
827.70 0.1404
827.80 0.1404
827.90 0.1403
828.00 0.1402
828.10 0.1402
828.20 0.1401
828.30 0.14
828.40 0.14
828.50 0.1399
828.60 0.1398
828.70 0.1398
828.80 0.1397
828.90 0.1396
829.00 0.1396
829.10 0.1395
829.20 0.1394
829.30 0.1394
829.40 0.1393
829.50 0.1392
829.60 0.1392
829.70 0.1391
829.80 0.139
829.90 0.139
830.00 0.1389
830.10 0.1388
830.20 0.1388
830.30 0.1387
830.40 0.1386
830.50 0.1386
830.60 0.1385
830.70 0.1385
830.80 0.1384
830.90 0.1383
831.00 0.1383
831.10 0.1382
831.20 0.1381
831.30 0.1381
831.40 0.138
831.50 0.1379
831.60 0.1379
831.70 0.1378
831.80 0.1377
831.90 0.1377
832.00 0.1376
832.10 0.1375
832.20 0.1375
832.30 0.1374
832.40 0.1373
832.50 0.1373
832.60 0.1372
832.70 0.1372
832.80 0.1371
832.90 0.137
833.00 0.137
833.10 0.1369
833.20 0.1368
833.30 0.1368
833.40 0.1367
833.50 0.1366
833.60 0.1366
833.70 0.1365
833.80 0.1364
833.90 0.1364
834.00 0.1363
834.10 0.1363
834.20 0.1362
834.30 0.1361
834.40 0.1361
834.50 0.136
834.60 0.1359
834.70 0.1359
834.80 0.1358
834.90 0.1357
835.00 0.1357
835.10 0.1356
835.20 0.1355
835.30 0.1355
835.40 0.1354
835.50 0.1354
835.60 0.1353
835.70 0.1352
835.80 0.1352
835.90 0.1351
836.00 0.135
836.10 0.135
836.20 0.1349
836.30 0.1348
836.40 0.1348
836.50 0.1347
836.60 0.1347
836.70 0.1346
836.80 0.1345
836.90 0.1345
837.00 0.1344
837.10 0.1343
837.20 0.1343
837.30 0.1342
837.40 0.1342
837.50 0.1341
837.60 0.134
837.70 0.134
837.80 0.1339
837.90 0.1338
838.00 0.1338
838.10 0.1337
838.20 0.1337
838.30 0.1336
838.40 0.1335
838.50 0.1335
838.60 0.1334
838.70 0.1333
838.80 0.1333
838.90 0.1332
839.00 0.1332
839.10 0.1331
839.20 0.133
839.30 0.133
839.40 0.1329
839.50 0.1328
839.60 0.1328
839.70 0.1327
839.80 0.1327
839.90 0.1326
840.00 0.1325
840.10 0.1325
840.20 0.1324
840.30 0.1324
840.40 0.1323
840.50 0.1322
840.60 0.1322
840.70 0.1321
840.80 0.132
840.90 0.132
841.00 0.1319
841.10 0.1319
841.20 0.1318
841.30 0.1317
841.40 0.1317
841.50 0.1316
841.60 0.1315
841.70 0.1315
841.80 0.1314
841.90 0.1314
842.00 0.1313
842.10 0.1312
842.20 0.1312
842.30 0.1311
842.40 0.1311
842.50 0.131
842.60 0.1309
842.70 0.1309
842.80 0.1308
842.90 0.1308
843.00 0.1307
843.10 0.1306
843.20 0.1306
843.30 0.1305
843.40 0.1305
843.50 0.1304
843.60 0.1303
843.70 0.1303
843.80 0.1302
843.90 0.1301
844.00 0.1301
844.10 0.13
844.20 0.13
844.30 0.1299
844.40 0.1298
844.50 0.1298
844.60 0.1297
844.70 0.1297
844.80 0.1296
844.90 0.1295
845.00 0.1295
845.10 0.1294
845.20 0.1294
845.30 0.1293
845.40 0.1292
845.50 0.1292
845.60 0.1291
845.70 0.1291
845.80 0.129
845.90 0.1289
846.00 0.1289
846.10 0.1288
846.20 0.1288
846.30 0.1287
846.40 0.1286
846.50 0.1286
846.60 0.1285
846.70 0.1285
846.80 0.1284
846.90 0.1283
847.00 0.1283
847.10 0.1282
847.20 0.1282
847.30 0.1281
847.40 0.128
847.50 0.128
847.60 0.1279
847.70 0.1279
847.80 0.1278
847.90 0.1278
848.00 0.1277
848.10 0.1276
848.20 0.1276
848.30 0.1275
848.40 0.1275
848.50 0.1274
848.60 0.1273
848.70 0.1273
848.80 0.1272
848.90 0.1272
849.00 0.1271
849.10 0.127
849.20 0.127
849.30 0.1269
849.40 0.1269
849.50 0.1268
849.60 0.1268
849.70 0.1267
849.80 0.1266
849.90 0.1266
850.00 0.1265
850.10 0.1265
850.20 0.1264
850.30 0.1263
850.40 0.1263
850.50 0.1262
850.60 0.1262
850.70 0.1261
850.80 0.1261
850.90 0.126
851.00 0.1259
851.10 0.1259
851.20 0.1258
851.30 0.1258
851.40 0.1257
851.50 0.1256
851.60 0.1256
851.70 0.1255
851.80 0.1255
851.90 0.1254
852.00 0.1254
852.10 0.1253
852.20 0.1252
852.30 0.1252
852.40 0.1251
852.50 0.1251
852.60 0.125
852.70 0.1249
852.80 0.1249
852.90 0.1248
853.00 0.1248
853.10 0.1247
853.20 0.1247
853.30 0.1246
853.40 0.1245
853.50 0.1245
853.60 0.1244
853.70 0.1244
853.80 0.1243
853.90 0.1243
854.00 0.1242
854.10 0.1241
854.20 0.1241
854.30 0.124
854.40 0.124
854.50 0.1239
854.60 0.1239
854.70 0.1238
854.80 0.1237
854.90 0.1237
855.00 0.1236
855.10 0.1236
855.20 0.1235
855.30 0.1235
855.40 0.1234
855.50 0.1234
855.60 0.1233
855.70 0.1232
855.80 0.1232
855.90 0.1231
856.00 0.1231
856.10 0.123
856.20 0.123
856.30 0.1229
856.40 0.1228
856.50 0.1228
856.60 0.1227
856.70 0.1227
856.80 0.1226
856.90 0.1226
857.00 0.1225
857.10 0.1224
857.20 0.1224
857.30 0.1223
857.40 0.1223
857.50 0.1222
857.60 0.1222
857.70 0.1221
857.80 0.1221
857.90 0.122
858.00 0.1219
858.10 0.1219
858.20 0.1218
858.30 0.1218
858.40 0.1217
858.50 0.1217
858.60 0.1216
858.70 0.1216
858.80 0.1215
858.90 0.1214
859.00 0.1214
859.10 0.1213
859.20 0.1213
859.30 0.1212
859.40 0.1212
859.50 0.1211
859.60 0.1211
859.70 0.121
859.80 0.121
859.90 0.1209
860.00 0.1208
860.10 0.1208
860.20 0.1207
860.30 0.1207
860.40 0.1206
860.50 0.1206
860.60 0.1205
860.70 0.1205
860.80 0.1204
860.90 0.1203
861.00 0.1203
861.10 0.1202
861.20 0.1202
861.30 0.1201
861.40 0.1201
861.50 0.12
861.60 0.12
861.70 0.1199
861.80 0.1199
861.90 0.1198
862.00 0.1197
862.10 0.1197
862.20 0.1196
862.30 0.1196
862.40 0.1195
862.50 0.1195
862.60 0.1194
862.70 0.1194
862.80 0.1193
862.90 0.1193
863.00 0.1192
863.10 0.1192
863.20 0.1191
863.30 0.119
863.40 0.119
863.50 0.1189
863.60 0.1189
863.70 0.1188
863.80 0.1188
863.90 0.1187
864.00 0.1187
864.10 0.1186
864.20 0.1186
864.30 0.1185
864.40 0.1184
864.50 0.1184
864.60 0.1183
864.70 0.1183
864.80 0.1182
864.90 0.1182
865.00 0.1181
865.10 0.1181
865.20 0.118
865.30 0.118
865.40 0.1179
865.50 0.1179
865.60 0.1178
865.70 0.1178
865.80 0.1177
865.90 0.1176
866.00 0.1176
866.10 0.1175
866.20 0.1175
866.30 0.1174
866.40 0.1174
866.50 0.1173
866.60 0.1173
866.70 0.1172
866.80 0.1172
866.90 0.1171
867.00 0.1171
867.10 0.117
867.20 0.1169
867.30 0.1169
867.40 0.1168
867.50 0.1168
867.60 0.1167
867.70 0.1167
867.80 0.1166
867.90 0.1166
868.00 0.1165
868.10 0.1165
868.20 0.1164
868.30 0.1164
868.40 0.1163
868.50 0.1163
868.60 0.1162
868.70 0.1162
868.80 0.1161
868.90 0.1161
869.00 0.116
869.10 0.116
869.20 0.1159
869.30 0.1158
869.40 0.1158
869.50 0.1157
869.60 0.1157
869.70 0.1156
869.80 0.1156
869.90 0.1155
870.00 0.1155
870.10 0.1154
870.20 0.1154
870.30 0.1153
870.40 0.1153
870.50 0.1152
870.60 0.1152
870.70 0.1151
870.80 0.1151
870.90 0.115
871.00 0.115
871.10 0.1149
871.20 0.1149
871.30 0.1148
871.40 0.1148
871.50 0.1147
871.60 0.1147
871.70 0.1146
871.80 0.1145
871.90 0.1145
872.00 0.1144
872.10 0.1144
872.20 0.1143
872.30 0.1143
872.40 0.1142
872.50 0.1142
872.60 0.1141
872.70 0.1141
872.80 0.114
872.90 0.114
873.00 0.1139
873.10 0.1139
873.20 0.1138
873.30 0.1138
873.40 0.1137
873.50 0.1137
873.60 0.1136
873.70 0.1136
873.80 0.1135
873.90 0.1135
874.00 0.1134
874.10 0.1134
874.20 0.1133
874.30 0.1133
874.40 0.1132
874.50 0.1132
874.60 0.1131
874.70 0.1131
874.80 0.113
874.90 0.113
875.00 0.1129
875.10 0.1129
875.20 0.1128
875.30 0.1128
875.40 0.1127
875.50 0.1127
875.60 0.1126
875.70 0.1126
875.80 0.1125
875.90 0.1125
876.00 0.1124
876.10 0.1124
876.20 0.1123
876.30 0.1123
876.40 0.1122
876.50 0.1122
876.60 0.1121
876.70 0.112
876.80 0.112
876.90 0.1119
877.00 0.1119
877.10 0.1118
877.20 0.1118
877.30 0.1117
877.40 0.1117
877.50 0.1116
877.60 0.1116
877.70 0.1115
877.80 0.1115
877.90 0.1115
878.00 0.1114
878.10 0.1114
878.20 0.1113
878.30 0.1113
878.40 0.1112
878.50 0.1112
878.60 0.1111
878.70 0.1111
878.80 0.111
878.90 0.111
879.00 0.1109
879.10 0.1109
879.20 0.1108
879.30 0.1108
879.40 0.1107
879.50 0.1107
879.60 0.1106
879.70 0.1106
879.80 0.1105
879.90 0.1105
880.00 0.1104
880.10 0.1104
880.20 0.1103
880.30 0.1103
880.40 0.1102
880.50 0.1102
880.60 0.1101
880.70 0.1101
880.80 0.11
880.90 0.11
881.00 0.1099
881.10 0.1099
881.20 0.1098
881.30 0.1098
881.40 0.1097
881.50 0.1097
881.60 0.1096
881.70 0.1096
881.80 0.1095
881.90 0.1095
882.00 0.1094
882.10 0.1094
882.20 0.1093
882.30 0.1093
882.40 0.1092
882.50 0.1092
882.60 0.1091
882.70 0.1091
882.80 0.109
882.90 0.109
883.00 0.1089
883.10 0.1089
883.20 0.1088
883.30 0.1088
883.40 0.1088
883.50 0.1087
883.60 0.1087
883.70 0.1086
883.80 0.1086
883.90 0.1085
884.00 0.1085
884.10 0.1084
884.20 0.1084
884.30 0.1083
884.40 0.1083
884.50 0.1082
884.60 0.1082
884.70 0.1081
884.80 0.1081
884.90 0.108
885.00 0.108
885.10 0.1079
885.20 0.1079
885.30 0.1078
885.40 0.1078
885.50 0.1077
885.60 0.1077
885.70 0.1076
885.80 0.1076
885.90 0.1075
886.00 0.1075
886.10 0.1075
886.20 0.1074
886.30 0.1074
886.40 0.1073
886.50 0.1073
886.60 0.1072
886.70 0.1072
886.80 0.1071
886.90 0.1071
887.00 0.107
887.10 0.107
887.20 0.1069
887.30 0.1069
887.40 0.1068
887.50 0.1068
887.60 0.1067
887.70 0.1067
887.80 0.1066
887.90 0.1066
888.00 0.1066
888.10 0.1065
888.20 0.1065
888.30 0.1064
888.40 0.1064
888.50 0.1063
888.60 0.1063
888.70 0.1062
888.80 0.1062
888.90 0.1061
889.00 0.1061
889.10 0.106
889.20 0.106
889.30 0.1059
889.40 0.1059
889.50 0.1059
889.60 0.1058
889.70 0.1058
889.80 0.1057
889.90 0.1057
890.00 0.1056
890.10 0.1056
890.20 0.1055
890.30 0.1055
890.40 0.1054
890.50 0.1054
890.60 0.1053
890.70 0.1053
890.80 0.1052
890.90 0.1052
891.00 0.1052
891.10 0.1051
891.20 0.1051
891.30 0.105
891.40 0.105
891.50 0.1049
891.60 0.1049
891.70 0.1048
891.80 0.1048
891.90 0.1047
892.00 0.1047
892.10 0.1046
892.20 0.1046
892.30 0.1046
892.40 0.1045
892.50 0.1045
892.60 0.1044
892.70 0.1044
892.80 0.1043
892.90 0.1043
893.00 0.1042
893.10 0.1042
893.20 0.1041
893.30 0.1041
893.40 0.104
893.50 0.104
893.60 0.104
893.70 0.1039
893.80 0.1039
893.90 0.1038
894.00 0.1038
894.10 0.1037
894.20 0.1037
894.30 0.1036
894.40 0.1036
894.50 0.1035
894.60 0.1035
894.70 0.1035
894.80 0.1034
894.90 0.1034
895.00 0.1033
895.10 0.1033
895.20 0.1032
895.30 0.1032
895.40 0.1031
895.50 0.1031
895.60 0.103
895.70 0.103
895.80 0.103
895.90 0.1029
896.00 0.1029
896.10 0.1028
896.20 0.1028
896.30 0.1027
896.40 0.1027
896.50 0.1026
896.60 0.1026
896.70 0.1026
896.80 0.1025
896.90 0.1025
897.00 0.1024
897.10 0.1024
897.20 0.1023
897.30 0.1023
897.40 0.1022
897.50 0.1022
897.60 0.1021
897.70 0.1021
897.80 0.1021
897.90 0.102
898.00 0.102
898.10 0.1019
898.20 0.1019
898.30 0.1018
898.40 0.1018
898.50 0.1017
898.60 0.1017
898.70 0.1017
898.80 0.1016
898.90 0.1016
899.00 0.1015
899.10 0.1015
899.20 0.1014
899.30 0.1014
899.40 0.1013
899.50 0.1013
899.60 0.1013
899.70 0.1012
899.80 0.1012
899.90 0.1011
900.00 0.1011
900.10 0.101
900.20 0.101
900.30 0.101
900.40 0.1009
900.50 0.1009
900.60 0.1008
900.70 0.1008
900.80 0.1007
900.90 0.1007
901.00 0.1006
901.10 0.1006
901.20 0.1006
901.30 0.1005
901.40 0.1005
901.50 0.1004
901.60 0.1004
901.70 0.1003
901.80 0.1003
901.90 0.1002
902.00 0.1002
902.10 0.1002
902.20 0.1001
902.30 0.1001
902.40 0.1
902.50 0.09999
902.60 0.09994
902.70 0.0999
902.80 0.09986
902.90 0.09981
903.00 0.09977
903.10 0.09973
903.20 0.09968
903.30 0.09964
903.40 0.0996
903.50 0.09955
903.60 0.09951
903.70 0.09947
903.80 0.09942
903.90 0.09938
904.00 0.09934
904.10 0.0993
904.20 0.09925
904.30 0.09921
904.40 0.09917
904.50 0.09912
904.60 0.09908
904.70 0.09904
904.80 0.09899
904.90 0.09895
905.00 0.09891
905.10 0.09886
905.20 0.09882
905.30 0.09878
905.40 0.09874
905.50 0.09869
905.60 0.09865
905.70 0.09861
905.80 0.09856
905.90 0.09852
906.00 0.09848
906.10 0.09844
906.20 0.09839
906.30 0.09835
906.40 0.09831
906.50 0.09827
906.60 0.09822
906.70 0.09818
906.80 0.09814
906.90 0.09809
907.00 0.09805
907.10 0.09801
907.20 0.09797
907.30 0.09793
907.40 0.09788
907.50 0.09784
907.60 0.0978
907.70 0.09776
907.80 0.09771
907.90 0.09767
908.00 0.09763
908.10 0.09759
908.20 0.09755
908.30 0.0975
908.40 0.09746
908.50 0.09742
908.60 0.09738
908.70 0.09734
908.80 0.09729
908.90 0.09725
909.00 0.09721
909.10 0.09717
909.20 0.09713
909.30 0.09708
909.40 0.09704
909.50 0.097
909.60 0.09696
909.70 0.09692
909.80 0.09687
909.90 0.09683
910.00 0.09679
910.10 0.09675
910.20 0.09671
910.30 0.09667
910.40 0.09662
910.50 0.09658
910.60 0.09654
910.70 0.0965
910.80 0.09646
910.90 0.09642
911.00 0.09637
911.10 0.09633
911.20 0.09629
911.30 0.09625
911.40 0.09621
911.50 0.09617
911.60 0.09612
911.70 0.09608
911.80 0.09604
911.90 0.096
912.00 0.09596
912.10 0.09592
912.20 0.09588
912.30 0.09584
912.40 0.09579
912.50 0.09575
912.60 0.09571
912.70 0.09567
912.80 0.09563
912.90 0.09559
913.00 0.09555
913.10 0.09551
913.20 0.09547
913.30 0.09543
913.40 0.09538
913.50 0.09534
913.60 0.0953
913.70 0.09526
913.80 0.09522
913.90 0.09518
914.00 0.09514
914.10 0.0951
914.20 0.09506
914.30 0.09502
914.40 0.09498
914.50 0.09494
914.60 0.09489
914.70 0.09485
914.80 0.09481
914.90 0.09477
915.00 0.09473
915.10 0.09469
915.20 0.09465
915.30 0.09461
915.40 0.09457
915.50 0.09453
915.60 0.09449
915.70 0.09445
915.80 0.09441
915.90 0.09437
916.00 0.09433
916.10 0.09429
916.20 0.09425
916.30 0.0942
916.40 0.09416
916.50 0.09412
916.60 0.09408
916.70 0.09404
916.80 0.094
916.90 0.09396
917.00 0.09392
917.10 0.09388
917.20 0.09384
917.30 0.0938
917.40 0.09376
917.50 0.09372
917.60 0.09368
917.70 0.09364
917.80 0.0936
917.90 0.09356
918.00 0.09352
918.10 0.09348
918.20 0.09344
918.30 0.0934
918.40 0.09336
918.50 0.09332
918.60 0.09328
918.70 0.09324
918.80 0.0932
918.90 0.09316
919.00 0.09313
919.10 0.09309
919.20 0.09305
919.30 0.09301
919.40 0.09297
919.50 0.09293
919.60 0.09289
919.70 0.09285
919.80 0.09281
919.90 0.09277
920.00 0.09273
920.10 0.09269
920.20 0.09265
920.30 0.09261
920.40 0.09257
920.50 0.09253
920.60 0.09249
920.70 0.09245
920.80 0.09241
920.90 0.09237
921.00 0.09233
921.10 0.09229
921.20 0.09226
921.30 0.09222
921.40 0.09218
921.50 0.09214
921.60 0.0921
921.70 0.09206
921.80 0.09202
921.90 0.09198
922.00 0.09194
922.10 0.0919
922.20 0.09186
922.30 0.09182
922.40 0.09178
922.50 0.09175
922.60 0.09171
922.70 0.09167
922.80 0.09163
922.90 0.09159
923.00 0.09155
923.10 0.09151
923.20 0.09147
923.30 0.09143
923.40 0.0914
923.50 0.09136
923.60 0.09132
923.70 0.09128
923.80 0.09124
923.90 0.0912
924.00 0.09116
924.10 0.09112
924.20 0.09109
924.30 0.09105
924.40 0.09101
924.50 0.09097
924.60 0.09093
924.70 0.09089
924.80 0.09085
924.90 0.09082
925.00 0.09078
925.10 0.09074
925.20 0.0907
925.30 0.09066
925.40 0.09062
925.50 0.09058
925.60 0.09055
925.70 0.09051
925.80 0.09047
925.90 0.09043
926.00 0.09039
926.10 0.09035
926.20 0.09031
926.30 0.09028
926.40 0.09024
926.50 0.0902
926.60 0.09016
926.70 0.09012
926.80 0.09008
926.90 0.09005
927.00 0.09001
927.10 0.08997
927.20 0.08993
927.30 0.08989
927.40 0.08986
927.50 0.08982
927.60 0.08978
927.70 0.08974
927.80 0.0897
927.90 0.08967
928.00 0.08963
928.10 0.08959
928.20 0.08955
928.30 0.08952
928.40 0.08948
928.50 0.08944
928.60 0.0894
928.70 0.08936
928.80 0.08933
928.90 0.08929
929.00 0.08925
929.10 0.08921
929.20 0.08918
929.30 0.08914
929.40 0.0891
929.50 0.08906
929.60 0.08903
929.70 0.08899
929.80 0.08895
929.90 0.08891
930.00 0.08887
930.10 0.08884
930.20 0.0888
930.30 0.08876
930.40 0.08872
930.50 0.08869
930.60 0.08865
930.70 0.08861
930.80 0.08857
930.90 0.08854
931.00 0.0885
931.10 0.08846
931.20 0.08843
931.30 0.08839
931.40 0.08835
931.50 0.08831
931.60 0.08828
931.70 0.08824
931.80 0.0882
931.90 0.08816
932.00 0.08813
932.10 0.08809
932.20 0.08805
932.30 0.08802
932.40 0.08798
932.50 0.08794
932.60 0.0879
932.70 0.08787
932.80 0.08783
932.90 0.08779
933.00 0.08776
933.10 0.08772
933.20 0.08768
933.30 0.08765
933.40 0.08761
933.50 0.08757
933.60 0.08754
933.70 0.0875
933.80 0.08746
933.90 0.08743
934.00 0.08739
934.10 0.08735
934.20 0.08731
934.30 0.08728
934.40 0.08724
934.50 0.08721
934.60 0.08717
934.70 0.08713
934.80 0.0871
934.90 0.08706
935.00 0.08702
935.10 0.08699
935.20 0.08695
935.30 0.08691
935.40 0.08688
935.50 0.08684
935.60 0.0868
935.70 0.08677
935.80 0.08673
935.90 0.08669
936.00 0.08666
936.10 0.08662
936.20 0.08659
936.30 0.08655
936.40 0.08651
936.50 0.08648
936.60 0.08644
936.70 0.0864
936.80 0.08637
936.90 0.08633
937.00 0.0863
937.10 0.08626
937.20 0.08622
937.30 0.08619
937.40 0.08615
937.50 0.08612
937.60 0.08608
937.70 0.08604
937.80 0.08601
937.90 0.08597
938.00 0.08594
938.10 0.0859
938.20 0.08586
938.30 0.08583
938.40 0.08579
938.50 0.08576
938.60 0.08572
938.70 0.08568
938.80 0.08565
938.90 0.08561
939.00 0.08558
939.10 0.08554
939.20 0.08551
939.30 0.08547
939.40 0.08543
939.50 0.0854
939.60 0.08536
939.70 0.08533
939.80 0.08529
939.90 0.08526
940.00 0.08522
940.10 0.08518
940.20 0.08515
940.30 0.08511
940.40 0.08508
940.50 0.08504
940.60 0.08501
940.70 0.08497
940.80 0.08494
940.90 0.0849
941.00 0.08487
941.10 0.08483
941.20 0.08479
941.30 0.08476
941.40 0.08472
941.50 0.08469
941.60 0.08465
941.70 0.08462
941.80 0.08458
941.90 0.08455
942.00 0.08451
942.10 0.08448
942.20 0.08444
942.30 0.08441
942.40 0.08437
942.50 0.08434
942.60 0.0843
942.70 0.08427
942.80 0.08423
942.90 0.0842
943.00 0.08416
943.10 0.08413
943.20 0.08409
943.30 0.08406
943.40 0.08402
943.50 0.08399
943.60 0.08395
943.70 0.08392
943.80 0.08388
943.90 0.08385
944.00 0.08381
944.10 0.08378
944.20 0.08374
944.30 0.08371
944.40 0.08367
944.50 0.08364
944.60 0.0836
944.70 0.08357
944.80 0.08353
944.90 0.0835
945.00 0.08347
945.10 0.08343
945.20 0.0834
945.30 0.08336
945.40 0.08333
945.50 0.08329
945.60 0.08326
945.70 0.08322
945.80 0.08319
945.90 0.08315
946.00 0.08312
946.10 0.08309
946.20 0.08305
946.30 0.08302
946.40 0.08298
946.50 0.08295
946.60 0.08291
946.70 0.08288
946.80 0.08285
946.90 0.08281
947.00 0.08278
947.10 0.08274
947.20 0.08271
947.30 0.08267
947.40 0.08264
947.50 0.08261
947.60 0.08257
947.70 0.08254
947.80 0.0825
947.90 0.08247
948.00 0.08244
948.10 0.0824
948.20 0.08237
948.30 0.08233
948.40 0.0823
948.50 0.08227
948.60 0.08223
948.70 0.0822
948.80 0.08216
948.90 0.08213
949.00 0.0821
949.10 0.08206
949.20 0.08203
949.30 0.08199
949.40 0.08196
949.50 0.08193
949.60 0.08189
949.70 0.08186
949.80 0.08183
949.90 0.08179
950.00 0.08176
950.10 0.08172
950.20 0.08169
950.30 0.08166
950.40 0.08162
950.50 0.08159
950.60 0.08156
950.70 0.08152
950.80 0.08149
950.90 0.08146
951.00 0.08142
951.10 0.08139
951.20 0.08136
951.30 0.08132
951.40 0.08129
951.50 0.08125
951.60 0.08122
951.70 0.08119
951.80 0.08115
951.90 0.08112
952.00 0.08109
952.10 0.08105
952.20 0.08102
952.30 0.08099
952.40 0.08095
952.50 0.08092
952.60 0.08089
952.70 0.08086
952.80 0.08082
952.90 0.08079
953.00 0.08076
953.10 0.08072
953.20 0.08069
953.30 0.08066
953.40 0.08062
953.50 0.08059
953.60 0.08056
953.70 0.08052
953.80 0.08049
953.90 0.08046
954.00 0.08043
954.10 0.08039
954.20 0.08036
954.30 0.08033
954.40 0.08029
954.50 0.08026
954.60 0.08023
954.70 0.0802
954.80 0.08016
954.90 0.08013
955.00 0.0801
955.10 0.08006
955.20 0.08003
955.30 0.08
955.40 0.07996
955.50 0.07993
955.60 0.0799
955.70 0.07987
955.80 0.07983
955.90 0.0798
956.00 0.07977
956.10 0.07973
956.20 0.0797
956.30 0.07967
956.40 0.07964
956.50 0.0796
956.60 0.07957
956.70 0.07954
956.80 0.0795
956.90 0.07947
957.00 0.07944
957.10 0.07941
957.20 0.07937
957.30 0.07934
957.40 0.07931
957.50 0.07928
957.60 0.07924
957.70 0.07921
957.80 0.07918
957.90 0.07915
958.00 0.07911
958.10 0.07908
958.20 0.07905
958.30 0.07902
958.40 0.07898
958.50 0.07895
958.60 0.07892
958.70 0.07889
958.80 0.07885
958.90 0.07882
959.00 0.07879
959.10 0.07876
959.20 0.07873
959.30 0.07869
959.40 0.07866
959.50 0.07863
959.60 0.0786
959.70 0.07856
959.80 0.07853
959.90 0.0785
960.00 0.07847
960.10 0.07844
960.20 0.0784
960.30 0.07837
960.40 0.07834
960.50 0.07831
960.60 0.07828
960.70 0.07824
960.80 0.07821
960.90 0.07818
961.00 0.07815
961.10 0.07812
961.20 0.07808
961.30 0.07805
961.40 0.07802
961.50 0.07799
961.60 0.07796
961.70 0.07792
961.80 0.07789
961.90 0.07786
962.00 0.07783
962.10 0.0778
962.20 0.07777
962.30 0.07773
962.40 0.0777
962.50 0.07767
962.60 0.07764
962.70 0.07761
962.80 0.07758
962.90 0.07754
963.00 0.07751
963.10 0.07748
963.20 0.07745
963.30 0.07742
963.40 0.07739
963.50 0.07735
963.60 0.07732
963.70 0.07729
963.80 0.07726
963.90 0.07723
964.00 0.0772
964.10 0.07717
964.20 0.07713
964.30 0.0771
964.40 0.07707
964.50 0.07704
964.60 0.07701
964.70 0.07698
964.80 0.07695
964.90 0.07691
965.00 0.07688
965.10 0.07685
965.20 0.07682
965.30 0.07679
965.40 0.07676
965.50 0.07673
965.60 0.0767
965.70 0.07666
965.80 0.07663
965.90 0.0766
966.00 0.07657
966.10 0.07654
966.20 0.07651
966.30 0.07648
966.40 0.07645
966.50 0.07642
966.60 0.07638
966.70 0.07635
966.80 0.07632
966.90 0.07629
967.00 0.07626
967.10 0.07623
967.20 0.0762
967.30 0.07617
967.40 0.07614
967.50 0.07611
967.60 0.07608
967.70 0.07604
967.80 0.07601
967.90 0.07598
968.00 0.07595
968.10 0.07592
968.20 0.07589
968.30 0.07586
968.40 0.07583
968.50 0.0758
968.60 0.07577
968.70 0.07574
968.80 0.07571
968.90 0.07568
969.00 0.07564
969.10 0.07561
969.20 0.07558
969.30 0.07555
969.40 0.07552
969.50 0.07549
969.60 0.07546
969.70 0.07543
969.80 0.0754
969.90 0.07537
970.00 0.07534
970.10 0.07531
970.20 0.07528
970.30 0.07525
970.40 0.07522
970.50 0.07519
970.60 0.07516
970.70 0.07513
970.80 0.0751
970.90 0.07507
971.00 0.07503
971.10 0.075
971.20 0.07497
971.30 0.07494
971.40 0.07491
971.50 0.07488
971.60 0.07485
971.70 0.07482
971.80 0.07479
971.90 0.07476
972.00 0.07473
972.10 0.0747
972.20 0.07467
972.30 0.07464
972.40 0.07461
972.50 0.07458
972.60 0.07455
972.70 0.07452
972.80 0.07449
972.90 0.07446
973.00 0.07443
973.10 0.0744
973.20 0.07437
973.30 0.07434
973.40 0.07431
973.50 0.07428
973.60 0.07425
973.70 0.07422
973.80 0.07419
973.90 0.07416
974.00 0.07413
974.10 0.0741
974.20 0.07407
974.30 0.07404
974.40 0.07401
974.50 0.07398
974.60 0.07395
974.70 0.07392
974.80 0.07389
974.90 0.07386
975.00 0.07383
975.10 0.0738
975.20 0.07377
975.30 0.07374
975.40 0.07371
975.50 0.07368
975.60 0.07365
975.70 0.07363
975.80 0.0736
975.90 0.07357
976.00 0.07354
976.10 0.07351
976.20 0.07348
976.30 0.07345
976.40 0.07342
976.50 0.07339
976.60 0.07336
976.70 0.07333
976.80 0.0733
976.90 0.07327
977.00 0.07324
977.10 0.07321
977.20 0.07318
977.30 0.07315
977.40 0.07312
977.50 0.07309
977.60 0.07306
977.70 0.07304
977.80 0.07301
977.90 0.07298
978.00 0.07295
978.10 0.07292
978.20 0.07289
978.30 0.07286
978.40 0.07283
978.50 0.0728
978.60 0.07277
978.70 0.07274
978.80 0.07271
978.90 0.07268
979.00 0.07266
979.10 0.07263
979.20 0.0726
979.30 0.07257
979.40 0.07254
979.50 0.07251
979.60 0.07248
979.70 0.07245
979.80 0.07242
979.90 0.07239
980.00 0.07236
980.10 0.07234
980.20 0.07231
980.30 0.07228
980.40 0.07225
980.50 0.07222
980.60 0.07219
980.70 0.07216
980.80 0.07213
980.90 0.0721
981.00 0.07207
981.10 0.07205
981.20 0.07202
981.30 0.07199
981.40 0.07196
981.50 0.07193
981.60 0.0719
981.70 0.07187
981.80 0.07184
981.90 0.07181
982.00 0.07179
982.10 0.07176
982.20 0.07173
982.30 0.0717
982.40 0.07167
982.50 0.07164
982.60 0.07161
982.70 0.07158
982.80 0.07156
982.90 0.07153
983.00 0.0715
983.10 0.07147
983.20 0.07144
983.30 0.07141
983.40 0.07138
983.50 0.07136
983.60 0.07133
983.70 0.0713
983.80 0.07127
983.90 0.07124
984.00 0.07121
984.10 0.07118
984.20 0.07116
984.30 0.07113
984.40 0.0711
984.50 0.07107
984.60 0.07104
984.70 0.07101
984.80 0.07099
984.90 0.07096
985.00 0.07093
985.10 0.0709
985.20 0.07087
985.30 0.07084
985.40 0.07082
985.50 0.07079
985.60 0.07076
985.70 0.07073
985.80 0.0707
985.90 0.07067
986.00 0.07065
986.10 0.07062
986.20 0.07059
986.30 0.07056
986.40 0.07053
986.50 0.07051
986.60 0.07048
986.70 0.07045
986.80 0.07042
986.90 0.07039
987.00 0.07036
987.10 0.07034
987.20 0.07031
987.30 0.07028
987.40 0.07025
987.50 0.07022
987.60 0.0702
987.70 0.07017
987.80 0.07014
987.90 0.07011
988.00 0.07009
988.10 0.07006
988.20 0.07003
988.30 0.07
988.40 0.06997
988.50 0.06995
988.60 0.06992
988.70 0.06989
988.80 0.06986
988.90 0.06983
989.00 0.06981
989.10 0.06978
989.20 0.06975
989.30 0.06972
989.40 0.0697
989.50 0.06967
989.60 0.06964
989.70 0.06961
989.80 0.06958
989.90 0.06956
990.00 0.06953
990.10 0.0695
990.20 0.06947
990.30 0.06945
990.40 0.06942
990.50 0.06939
990.60 0.06936
990.70 0.06934
990.80 0.06931
990.90 0.06928
991.00 0.06925
991.10 0.06923
991.20 0.0692
991.30 0.06917
991.40 0.06914
991.50 0.06912
991.60 0.06909
991.70 0.06906
991.80 0.06903
991.90 0.06901
992.00 0.06898
992.10 0.06895
992.20 0.06893
992.30 0.0689
992.40 0.06887
992.50 0.06884
992.60 0.06882
992.70 0.06879
992.80 0.06876
992.90 0.06873
993.00 0.06871
993.10 0.06868
993.20 0.06865
993.30 0.06863
993.40 0.0686
993.50 0.06857
993.60 0.06854
993.70 0.06852
993.80 0.06849
993.90 0.06846
994.00 0.06844
994.10 0.06841
994.20 0.06838
994.30 0.06835
994.40 0.06833
994.50 0.0683
994.60 0.06827
994.70 0.06825
994.80 0.06822
994.90 0.06819
995.00 0.06817
995.10 0.06814
995.20 0.06811
995.30 0.06809
995.40 0.06806
995.50 0.06803
995.60 0.068
995.70 0.06798
995.80 0.06795
995.90 0.06792
996.00 0.0679
996.10 0.06787
996.20 0.06784
996.30 0.06782
996.40 0.06779
996.50 0.06776
996.60 0.06774
996.70 0.06771
996.80 0.06768
996.90 0.06766
997.00 0.06763
997.10 0.0676
997.20 0.06758
997.30 0.06755
997.40 0.06752
997.50 0.0675
997.60 0.06747
997.70 0.06744
997.80 0.06742
997.90 0.06739
998.00 0.06737
998.10 0.06734
998.20 0.06731
998.30 0.06729
998.40 0.06726
998.50 0.06723
998.60 0.06721
998.70 0.06718
998.80 0.06716
998.90 0.06713
999.00 0.0671
999.10 0.06708
999.20 0.06705
999.30 0.06702
999.40 0.067
999.50 0.06697
999.60 0.06695
999.70 0.06692
999.80 0.06689
999.90 0.06686
1000.00 0.06683
1000.10 0.0668
1000.20 0.06677
1000.30 0.06674
1000.40 0.06672
1000.50 0.06669
1000.60 0.06666
1000.70 0.06663
1000.80 0.0666
1000.90 0.06657
1001.00 0.06654
1001.10 0.06651
1001.20 0.06649
1001.30 0.06646
1001.40 0.06643
1001.50 0.0664
1001.60 0.06637
1001.70 0.06634
1001.80 0.06632
1001.90 0.06629
1002.00 0.06627
1002.10 0.06624
1002.20 0.06622
1002.30 0.06619
1002.40 0.06616
1002.50 0.06614
1002.60 0.06611
1002.70 0.06609
1002.80 0.06606
1002.90 0.06604
1003.00 0.06601
1003.10 0.06599
1003.20 0.06596
1003.30 0.06594
1003.40 0.06591
1003.50 0.06588
1003.60 0.06586
1003.70 0.06583
1003.80 0.06581
1003.90 0.06578
1004.00 0.06576
1004.10 0.06573
1004.20 0.06571
1004.30 0.06568
1004.40 0.06566
1004.50 0.06563
1004.60 0.0656
1004.70 0.06558
1004.80 0.06555
1004.90 0.06553
1005.00 0.0655
1005.10 0.06548
1005.20 0.06545
1005.30 0.06543
1005.40 0.0654
1005.50 0.06538
1005.60 0.06535
1005.70 0.06532
1005.80 0.0653
1005.90 0.06527
1006.00 0.06525
1006.10 0.06522
1006.20 0.0652
1006.30 0.06517
1006.40 0.06514
1006.50 0.06512
1006.60 0.06509
1006.70 0.06507
1006.80 0.06504
1006.90 0.06502
1007.00 0.06499
1007.10 0.06496
1007.20 0.06494
1007.30 0.06491
1007.40 0.06489
1007.50 0.06486
1007.60 0.06484
1007.70 0.06481
1007.80 0.06479
1007.90 0.06476
1008.00 0.06474
1008.10 0.06471
1008.20 0.06469
1008.30 0.06466
1008.40 0.06463
1008.50 0.06461
1008.60 0.06458
1008.70 0.06456
1008.80 0.06453
1008.90 0.06451
1009.00 0.06448
1009.10 0.06446
1009.20 0.06443
1009.30 0.06441
1009.40 0.06438
1009.50 0.06436
1009.60 0.06433
1009.70 0.06431
1009.80 0.06428
1009.90 0.06426
1010.00 0.06423
1010.10 0.06421
1010.20 0.06418
1010.30 0.06416
1010.40 0.06413
1010.50 0.06411
1010.60 0.06408
1010.70 0.06406
1010.80 0.06403
1010.90 0.06401
1011.00 0.06398
1011.10 0.06396
1011.20 0.06393
1011.30 0.06391
1011.40 0.06388
1011.50 0.06386
1011.60 0.06383
1011.70 0.06381
1011.80 0.06378
1011.90 0.06376
1012.00 0.06373
1012.10 0.06371
1012.20 0.06368
1012.30 0.06366
1012.40 0.06364
1012.50 0.06361
1012.60 0.06359
1012.70 0.06356
1012.80 0.06354
1012.90 0.06351
1013.00 0.06349
1013.10 0.06346
1013.20 0.06344
1013.30 0.06341
1013.40 0.06339
1013.50 0.06337
1013.60 0.06334
1013.70 0.06332
1013.80 0.06329
1013.90 0.06327
1014.00 0.06324
1014.10 0.06322
1014.20 0.06319
1014.30 0.06317
1014.40 0.06315
1014.50 0.06312
1014.60 0.0631
1014.70 0.06307
1014.80 0.06305
1014.90 0.06302
1015.00 0.063
1015.10 0.06298
1015.20 0.06295
1015.30 0.06293
1015.40 0.0629
1015.50 0.06288
1015.60 0.06285
1015.70 0.06283
1015.80 0.06281
1015.90 0.06278
1016.00 0.06276
1016.10 0.06273
1016.20 0.06271
1016.30 0.06269
1016.40 0.06266
1016.50 0.06264
1016.60 0.06261
1016.70 0.06259
1016.80 0.06257
1016.90 0.06254
1017.00 0.06252
1017.10 0.06249
1017.20 0.06247
1017.30 0.06245
1017.40 0.06242
1017.50 0.0624
1017.60 0.06237
1017.70 0.06235
1017.80 0.06233
1017.90 0.0623
1018.00 0.06228
1018.10 0.06225
1018.20 0.06223
1018.30 0.06221
1018.40 0.06218
1018.50 0.06216
1018.60 0.06213
1018.70 0.06211
1018.80 0.06209
1018.90 0.06206
1019.00 0.06204
1019.10 0.06202
1019.20 0.06199
1019.30 0.06197
1019.40 0.06194
1019.50 0.06192
1019.60 0.0619
1019.70 0.06187
1019.80 0.06185
1019.90 0.06183
1020.00 0.0618
1020.10 0.06178
1020.20 0.06176
1020.30 0.06173
1020.40 0.06171
1020.50 0.06168
1020.60 0.06166
1020.70 0.06164
1020.80 0.06161
1020.90 0.06159
1021.00 0.06157
1021.10 0.06154
1021.20 0.06152
1021.30 0.0615
1021.40 0.06147
1021.50 0.06145
1021.60 0.06143
1021.70 0.0614
1021.80 0.06138
1021.90 0.06136
1022.00 0.06133
1022.10 0.06131
1022.20 0.06129
1022.30 0.06126
1022.40 0.06124
1022.50 0.06122
1022.60 0.06119
1022.70 0.06117
1022.80 0.06115
1022.90 0.06112
1023.00 0.0611
1023.10 0.06108
1023.20 0.06105
1023.30 0.06103
1023.40 0.06101
1023.50 0.06098
1023.60 0.06096
1023.70 0.06094
1023.80 0.06091
1023.90 0.06089
1024.00 0.06087
1024.10 0.06084
1024.20 0.06082
1024.30 0.0608
1024.40 0.06077
1024.50 0.06075
1024.60 0.06073
1024.70 0.0607
1024.80 0.06068
1024.90 0.06066
1025.00 0.06063
1025.10 0.06061
1025.20 0.06059
1025.30 0.06056
1025.40 0.06054
1025.50 0.06052
1025.60 0.0605
1025.70 0.06047
1025.80 0.06045
1025.90 0.06043
1026.00 0.0604
1026.10 0.06038
1026.20 0.06036
1026.30 0.06033
1026.40 0.06031
1026.50 0.06029
1026.60 0.06027
1026.70 0.06024
1026.80 0.06022
1026.90 0.0602
1027.00 0.06017
1027.10 0.06015
1027.20 0.06013
1027.30 0.06011
1027.40 0.06008
1027.50 0.06006
1027.60 0.06004
1027.70 0.06001
1027.80 0.05999
1027.90 0.05997
1028.00 0.05995
1028.10 0.05992
1028.20 0.0599
1028.30 0.05988
1028.40 0.05986
1028.50 0.05983
1028.60 0.05981
1028.70 0.05979
1028.80 0.05976
1028.90 0.05974
1029.00 0.05972
1029.10 0.0597
1029.20 0.05967
1029.30 0.05965
1029.40 0.05963
1029.50 0.05961
1029.60 0.05958
1029.70 0.05956
1029.80 0.05954
1029.90 0.05951
1030.00 0.05949
1030.10 0.05947
1030.20 0.05945
1030.30 0.05942
1030.40 0.0594
1030.50 0.05938
1030.60 0.05936
1030.70 0.05933
1030.80 0.05931
1030.90 0.05929
1031.00 0.05927
1031.10 0.05924
1031.20 0.05922
1031.30 0.0592
1031.40 0.05918
1031.50 0.05915
1031.60 0.05913
1031.70 0.05911
1031.80 0.05909
1031.90 0.05906
1032.00 0.05904
1032.10 0.05902
1032.20 0.059
1032.30 0.05897
1032.40 0.05895
1032.50 0.05893
1032.60 0.05891
1032.70 0.05889
1032.80 0.05886
1032.90 0.05884
1033.00 0.05882
1033.10 0.0588
1033.20 0.05877
1033.30 0.05875
1033.40 0.05873
1033.50 0.05871
1033.60 0.05869
1033.70 0.05866
1033.80 0.05864
1033.90 0.05862
1034.00 0.0586
1034.10 0.05857
1034.20 0.05855
1034.30 0.05853
1034.40 0.05851
1034.50 0.05849
1034.60 0.05846
1034.70 0.05844
1034.80 0.05842
1034.90 0.0584
1035.00 0.05838
1035.10 0.05835
1035.20 0.05833
1035.30 0.05831
1035.40 0.05829
1035.50 0.05826
1035.60 0.05824
1035.70 0.05822
1035.80 0.0582
1035.90 0.05818
1036.00 0.05815
1036.10 0.05813
1036.20 0.05811
1036.30 0.05809
1036.40 0.05807
1036.50 0.05804
1036.60 0.05802
1036.70 0.058
1036.80 0.05798
1036.90 0.05796
1037.00 0.05793
1037.10 0.05791
1037.20 0.05789
1037.30 0.05787
1037.40 0.05785
1037.50 0.05783
1037.60 0.0578
1037.70 0.05778
1037.80 0.05776
1037.90 0.05774
1038.00 0.05772
1038.10 0.05769
1038.20 0.05767
1038.30 0.05765
1038.40 0.05763
1038.50 0.05761
1038.60 0.05759
1038.70 0.05756
1038.80 0.05754
1038.90 0.05752
1039.00 0.0575
1039.10 0.05748
1039.20 0.05746
1039.30 0.05743
1039.40 0.05741
1039.50 0.05739
1039.60 0.05737
1039.70 0.05735
1039.80 0.05733
1039.90 0.0573
1040.00 0.05728
1040.10 0.05726
1040.20 0.05724
1040.30 0.05722
1040.40 0.0572
1040.50 0.05717
1040.60 0.05715
1040.70 0.05713
1040.80 0.05711
1040.90 0.05709
1041.00 0.05707
1041.10 0.05705
1041.20 0.05702
1041.30 0.057
1041.40 0.05698
1041.50 0.05696
1041.60 0.05694
1041.70 0.05692
1041.80 0.05689
1041.90 0.05687
1042.00 0.05685
1042.10 0.05683
1042.20 0.05681
1042.30 0.05679
1042.40 0.05677
1042.50 0.05674
1042.60 0.05672
1042.70 0.0567
1042.80 0.05668
1042.90 0.05666
1043.00 0.05664
1043.10 0.05662
1043.20 0.0566
1043.30 0.05657
1043.40 0.05655
1043.50 0.05653
1043.60 0.05651
1043.70 0.05649
1043.80 0.05647
1043.90 0.05645
1044.00 0.05643
1044.10 0.0564
1044.20 0.05638
1044.30 0.05636
1044.40 0.05634
1044.50 0.05632
1044.60 0.0563
1044.70 0.05628
1044.80 0.05626
1044.90 0.05623
1045.00 0.05621
1045.10 0.05619
1045.20 0.05617
1045.30 0.05615
1045.40 0.05613
1045.50 0.05611
1045.60 0.05609
1045.70 0.05607
1045.80 0.05604
1045.90 0.05602
1046.00 0.056
1046.10 0.05598
1046.20 0.05596
1046.30 0.05594
1046.40 0.05592
1046.50 0.0559
1046.60 0.05588
1046.70 0.05585
1046.80 0.05583
1046.90 0.05581
1047.00 0.05579
1047.10 0.05577
1047.20 0.05575
1047.30 0.05573
1047.40 0.05571
1047.50 0.05569
1047.60 0.05567
1047.70 0.05564
1047.80 0.05562
1047.90 0.0556
1048.00 0.05558
1048.10 0.05556
1048.20 0.05554
1048.30 0.05552
1048.40 0.0555
1048.50 0.05548
1048.60 0.05546
1048.70 0.05544
1048.80 0.05542
1048.90 0.05539
1049.00 0.05537
1049.10 0.05535
1049.20 0.05533
1049.30 0.05531
1049.40 0.05529
1049.50 0.05527
1049.60 0.05525
1049.70 0.05523
1049.80 0.05521
1049.90 0.05519
1050.00 0.05517
1050.10 0.05515
1050.20 0.05512
1050.30 0.0551
1050.40 0.05508
1050.50 0.05506
1050.60 0.05504
1050.70 0.05502
1050.80 0.055
1050.90 0.05498
1051.00 0.05496
1051.10 0.05494
1051.20 0.05492
1051.30 0.0549
1051.40 0.05488
1051.50 0.05486
1051.60 0.05484
1051.70 0.05481
1051.80 0.05479
1051.90 0.05477
1052.00 0.05475
1052.10 0.05473
1052.20 0.05471
1052.30 0.05469
1052.40 0.05467
1052.50 0.05465
1052.60 0.05463
1052.70 0.05461
1052.80 0.05459
1052.90 0.05457
1053.00 0.05455
1053.10 0.05453
1053.20 0.05451
1053.30 0.05449
1053.40 0.05447
1053.50 0.05445
1053.60 0.05443
1053.70 0.05441
1053.80 0.05439
1053.90 0.05436
1054.00 0.05434
1054.10 0.05432
1054.20 0.0543
1054.30 0.05428
1054.40 0.05426
1054.50 0.05424
1054.60 0.05422
1054.70 0.0542
1054.80 0.05418
1054.90 0.05416
1055.00 0.05414
1055.10 0.05412
1055.20 0.0541
1055.30 0.05408
1055.40 0.05406
1055.50 0.05404
1055.60 0.05402
1055.70 0.054
1055.80 0.05398
1055.90 0.05396
1056.00 0.05394
1056.10 0.05392
1056.20 0.0539
1056.30 0.05388
1056.40 0.05386
1056.50 0.05384
1056.60 0.05382
1056.70 0.0538
1056.80 0.05378
1056.90 0.05376
1057.00 0.05374
1057.10 0.05372
1057.20 0.0537
1057.30 0.05368
1057.40 0.05366
1057.50 0.05364
1057.60 0.05362
1057.70 0.0536
1057.80 0.05358
1057.90 0.05356
1058.00 0.05354
1058.10 0.05352
1058.20 0.0535
1058.30 0.05348
1058.40 0.05346
1058.50 0.05344
1058.60 0.05342
1058.70 0.0534
1058.80 0.05338
1058.90 0.05336
1059.00 0.05334
1059.10 0.05332
1059.20 0.0533
1059.30 0.05328
1059.40 0.05326
1059.50 0.05324
1059.60 0.05322
1059.70 0.0532
1059.80 0.05318
1059.90 0.05316
1060.00 0.05314
1060.10 0.05312
1060.20 0.0531
1060.30 0.05308
1060.40 0.05306
1060.50 0.05304
1060.60 0.05302
1060.70 0.053
1060.80 0.05298
1060.90 0.05296
1061.00 0.05294
1061.10 0.05292
1061.20 0.0529
1061.30 0.05288
1061.40 0.05286
1061.50 0.05284
1061.60 0.05282
1061.70 0.0528
1061.80 0.05278
1061.90 0.05276
1062.00 0.05274
1062.10 0.05272
1062.20 0.0527
1062.30 0.05268
1062.40 0.05266
1062.50 0.05264
1062.60 0.05262
1062.70 0.0526
1062.80 0.05258
1062.90 0.05256
1063.00 0.05254
1063.10 0.05253
1063.20 0.05251
1063.30 0.05249
1063.40 0.05247
1063.50 0.05245
1063.60 0.05243
1063.70 0.05241
1063.80 0.05239
1063.90 0.05237
1064.00 0.05235
1064.10 0.05233
1064.20 0.05231
1064.30 0.05229
1064.40 0.05227
1064.50 0.05225
1064.60 0.05223
1064.70 0.05221
1064.80 0.05219
1064.90 0.05217
1065.00 0.05215
1065.10 0.05213
1065.20 0.05211
1065.30 0.0521
1065.40 0.05208
1065.50 0.05206
1065.60 0.05204
1065.70 0.05202
1065.80 0.052
1065.90 0.05198
1066.00 0.05196
1066.10 0.05194
1066.20 0.05192
1066.30 0.0519
1066.40 0.05188
1066.50 0.05186
1066.60 0.05184
1066.70 0.05182
1066.80 0.0518
1066.90 0.05178
1067.00 0.05177
1067.10 0.05175
1067.20 0.05173
1067.30 0.05171
1067.40 0.05169
1067.50 0.05167
1067.60 0.05165
1067.70 0.05163
1067.80 0.05161
1067.90 0.05159
1068.00 0.05157
1068.10 0.05155
1068.20 0.05153
1068.30 0.05152
1068.40 0.0515
1068.50 0.05148
1068.60 0.05146
1068.70 0.05144
1068.80 0.05142
1068.90 0.0514
1069.00 0.05138
1069.10 0.05136
1069.20 0.05134
1069.30 0.05132
1069.40 0.0513
1069.50 0.05129
1069.60 0.05127
1069.70 0.05125
1069.80 0.05123
1069.90 0.05121
1070.00 0.05119
1070.10 0.05117
1070.20 0.05115
1070.30 0.05113
1070.40 0.05111
1070.50 0.05109
1070.60 0.05108
1070.70 0.05106
1070.80 0.05104
1070.90 0.05102
1071.00 0.051
1071.10 0.05098
1071.20 0.05096
1071.30 0.05094
1071.40 0.05092
1071.50 0.0509
1071.60 0.05089
1071.70 0.05087
1071.80 0.05085
1071.90 0.05083
1072.00 0.05081
1072.10 0.05079
1072.20 0.05077
1072.30 0.05075
1072.40 0.05073
1072.50 0.05071
1072.60 0.0507
1072.70 0.05068
1072.80 0.05066
1072.90 0.05064
1073.00 0.05062
1073.10 0.0506
1073.20 0.05058
1073.30 0.05056
1073.40 0.05055
1073.50 0.05053
1073.60 0.05051
1073.70 0.05049
1073.80 0.05047
1073.90 0.05045
1074.00 0.05043
1074.10 0.05041
1074.20 0.0504
1074.30 0.05038
1074.40 0.05036
1074.50 0.05034
1074.60 0.05032
1074.70 0.0503
1074.80 0.05028
1074.90 0.05026
1075.00 0.05025
1075.10 0.05023
1075.20 0.05021
1075.30 0.05019
1075.40 0.05017
1075.50 0.05015
1075.60 0.05013
1075.70 0.05011
1075.80 0.0501
1075.90 0.05008
1076.00 0.05006
1076.10 0.05004
1076.20 0.05002
1076.30 0.05
1076.40 0.04998
1076.50 0.04997
1076.60 0.04995
1076.70 0.04993
1076.80 0.04991
1076.90 0.04989
1077.00 0.04987
1077.10 0.04985
1077.20 0.04984
1077.30 0.04982
1077.40 0.0498
1077.50 0.04978
1077.60 0.04976
1077.70 0.04974
1077.80 0.04972
1077.90 0.04971
1078.00 0.04969
1078.10 0.04967
1078.20 0.04965
1078.30 0.04963
1078.40 0.04961
1078.50 0.0496
1078.60 0.04958
1078.70 0.04956
1078.80 0.04954
1078.90 0.04952
1079.00 0.0495
1079.10 0.04949
1079.20 0.04947
1079.30 0.04945
1079.40 0.04943
1079.50 0.04941
1079.60 0.04939
1079.70 0.04938
1079.80 0.04936
1079.90 0.04934
1080.00 0.04932
1080.10 0.0493
1080.20 0.04928
1080.30 0.04927
1080.40 0.04925
1080.50 0.04923
1080.60 0.04921
1080.70 0.04919
1080.80 0.04917
1080.90 0.04916
1081.00 0.04914
1081.10 0.04912
1081.20 0.0491
1081.30 0.04908
1081.40 0.04907
1081.50 0.04905
1081.60 0.04903
1081.70 0.04901
1081.80 0.04899
1081.90 0.04897
1082.00 0.04896
1082.10 0.04894
1082.20 0.04892
1082.30 0.0489
1082.40 0.04888
1082.50 0.04887
1082.60 0.04885
1082.70 0.04883
1082.80 0.04881
1082.90 0.04879
1083.00 0.04878
1083.10 0.04876
1083.20 0.04874
1083.30 0.04872
1083.40 0.0487
1083.50 0.04869
1083.60 0.04867
1083.70 0.04865
1083.80 0.04863
1083.90 0.04861
1084.00 0.0486
1084.10 0.04858
1084.20 0.04856
1084.30 0.04854
1084.40 0.04852
1084.50 0.04851
1084.60 0.04849
1084.70 0.04847
1084.80 0.04845
1084.90 0.04844
1085.00 0.04842
1085.10 0.0484
1085.20 0.04838
1085.30 0.04836
1085.40 0.04835
1085.50 0.04833
1085.60 0.04831
1085.70 0.04829
1085.80 0.04828
1085.90 0.04826
1086.00 0.04824
1086.10 0.04822
1086.20 0.0482
1086.30 0.04819
1086.40 0.04817
1086.50 0.04815
1086.60 0.04813
1086.70 0.04812
1086.80 0.0481
1086.90 0.04808
1087.00 0.04806
1087.10 0.04805
1087.20 0.04803
1087.30 0.04801
1087.40 0.04799
1087.50 0.04798
1087.60 0.04796
1087.70 0.04794
1087.80 0.04792
1087.90 0.04791
1088.00 0.04789
1088.10 0.04787
1088.20 0.04785
1088.30 0.04784
1088.40 0.04782
1088.50 0.0478
1088.60 0.04778
1088.70 0.04777
1088.80 0.04775
1088.90 0.04773
1089.00 0.04771
1089.10 0.0477
1089.20 0.04768
1089.30 0.04766
1089.40 0.04764
1089.50 0.04763
1089.60 0.04761
1089.70 0.04759
1089.80 0.04758
1089.90 0.04756
1090.00 0.04754
1090.10 0.04752
1090.20 0.04751
1090.30 0.04749
1090.40 0.04747
1090.50 0.04746
1090.60 0.04744
1090.70 0.04742
1090.80 0.0474
1090.90 0.04739
1091.00 0.04737
1091.10 0.04735
1091.20 0.04734
1091.30 0.04732
1091.40 0.0473
1091.50 0.04728
1091.60 0.04727
1091.70 0.04725
1091.80 0.04723
1091.90 0.04722
1092.00 0.0472
1092.10 0.04718
1092.20 0.04717
1092.30 0.04715
1092.40 0.04713
1092.50 0.04712
1092.60 0.0471
1092.70 0.04708
1092.80 0.04707
1092.90 0.04705
1093.00 0.04704
1093.10 0.04702
1093.20 0.047
1093.30 0.04699
1093.40 0.04697
1093.50 0.04696
1093.60 0.04695
1093.70 0.04693
1093.80 0.04692
1093.90 0.0469
1094.00 0.04688
1094.10 0.04687
1094.20 0.04685
1094.30 0.04683
1094.40 0.04682
1094.50 0.0468
1094.60 0.04678
1094.70 0.04676
1094.80 0.04674
1094.90 0.04673
1095.00 0.04671
1095.10 0.04669
1095.20 0.04667
1095.30 0.04666
1095.40 0.04664
1095.50 0.04662
1095.60 0.04661
1095.70 0.04659
1095.80 0.04657
1095.90 0.04656
1096.00 0.04654
1096.10 0.04652
1096.20 0.04651
1096.30 0.04649
1096.40 0.04647
1096.50 0.04646
1096.60 0.04644
1096.70 0.04642
1096.80 0.04641
1096.90 0.04639
1097.00 0.04637
1097.10 0.04636
1097.20 0.04634
1097.30 0.04633
1097.40 0.04631
1097.50 0.04629
1097.60 0.04628
1097.70 0.04626
1097.80 0.04624
1097.90 0.04623
1098.00 0.04621
1098.10 0.04619
1098.20 0.04618
1098.30 0.04616
1098.40 0.04615
1098.50 0.04613
1098.60 0.04611
1098.70 0.0461
1098.80 0.04608
1098.90 0.04606
1099.00 0.04605
1099.10 0.04603
1099.20 0.04602
1099.30 0.046
1099.40 0.04598
1099.50 0.04597
1099.60 0.04595
1099.70 0.04593
1099.80 0.04592
1099.90 0.0459
1100.00 0.04589
1100.10 0.04587
1100.20 0.04585
1100.30 0.04584
1100.40 0.04582
1100.50 0.04581
1100.60 0.04579
1100.70 0.04577
1100.80 0.04576
1100.90 0.04574
1101.00 0.04572
1101.10 0.04571
1101.20 0.04569
1101.30 0.04568
1101.40 0.04566
1101.50 0.04564
1101.60 0.04563
1101.70 0.04561
1101.80 0.0456
1101.90 0.04558
1102.00 0.04556
1102.10 0.04555
1102.20 0.04553
1102.30 0.04552
1102.40 0.0455
1102.50 0.04549
1102.60 0.04547
1102.70 0.04545
1102.80 0.04544
1102.90 0.04542
1103.00 0.04541
1103.10 0.04539
1103.20 0.04537
1103.30 0.04536
1103.40 0.04534
1103.50 0.04533
1103.60 0.04531
1103.70 0.0453
1103.80 0.04528
1103.90 0.04526
1104.00 0.04525
1104.10 0.04523
1104.20 0.04522
1104.30 0.0452
1104.40 0.04519
1104.50 0.04517
1104.60 0.04515
1104.70 0.04514
1104.80 0.04512
1104.90 0.04511
1105.00 0.04509
1105.10 0.04508
1105.20 0.04506
1105.30 0.04504
1105.40 0.04503
1105.50 0.04501
1105.60 0.045
1105.70 0.04498
1105.80 0.04497
1105.90 0.04495
1106.00 0.04493
1106.10 0.04492
1106.20 0.0449
1106.30 0.04489
1106.40 0.04487
1106.50 0.04486
1106.60 0.04484
1106.70 0.04483
1106.80 0.04481
1106.90 0.04479
1107.00 0.04478
1107.10 0.04476
1107.20 0.04475
1107.30 0.04473
1107.40 0.04472
1107.50 0.0447
1107.60 0.04469
1107.70 0.04467
1107.80 0.04465
1107.90 0.04464
1108.00 0.04462
1108.10 0.04461
1108.20 0.04459
1108.30 0.04458
1108.40 0.04456
1108.50 0.04455
1108.60 0.04453
1108.70 0.04452
1108.80 0.0445
1108.90 0.04448
1109.00 0.04447
1109.10 0.04445
1109.20 0.04444
1109.30 0.04442
1109.40 0.04441
1109.50 0.04439
1109.60 0.04438
1109.70 0.04436
1109.80 0.04435
1109.90 0.04433
1110.00 0.04432
1110.10 0.0443
1110.20 0.04429
1110.30 0.04427
1110.40 0.04425
1110.50 0.04424
1110.60 0.04422
1110.70 0.04421
1110.80 0.04419
1110.90 0.04418
1111.00 0.04416
1111.10 0.04415
1111.20 0.04413
1111.30 0.04412
1111.40 0.0441
1111.50 0.04409
1111.60 0.04407
1111.70 0.04406
1111.80 0.04404
1111.90 0.04403
1112.00 0.04401
1112.10 0.04399
1112.20 0.04398
1112.30 0.04396
1112.40 0.04395
1112.50 0.04393
1112.60 0.04392
1112.70 0.0439
1112.80 0.04389
1112.90 0.04387
1113.00 0.04386
1113.10 0.04384
1113.20 0.04383
1113.30 0.04381
1113.40 0.0438
1113.50 0.04378
1113.60 0.04377
1113.70 0.04375
1113.80 0.04374
1113.90 0.04372
1114.00 0.04371
1114.10 0.04369
1114.20 0.04368
1114.30 0.04366
1114.40 0.04365
1114.50 0.04363
1114.60 0.04362
1114.70 0.0436
1114.80 0.04359
1114.90 0.04357
1115.00 0.04356
1115.10 0.04354
1115.20 0.04353
1115.30 0.04351
1115.40 0.0435
1115.50 0.04348
1115.60 0.04347
1115.70 0.04345
1115.80 0.04344
1115.90 0.04342
1116.00 0.04341
1116.10 0.04339
1116.20 0.04338
1116.30 0.04336
1116.40 0.04335
1116.50 0.04333
1116.60 0.04332
1116.70 0.0433
1116.80 0.04329
1116.90 0.04327
1117.00 0.04326
1117.10 0.04324
1117.20 0.04323
1117.30 0.04321
1117.40 0.0432
1117.50 0.04318
1117.60 0.04317
1117.70 0.04315
1117.80 0.04314
1117.90 0.04312
1118.00 0.04311
1118.10 0.04309
1118.20 0.04308
1118.30 0.04306
1118.40 0.04305
1118.50 0.04303
1118.60 0.04302
1118.70 0.043
1118.80 0.04299
1118.90 0.04297
1119.00 0.04296
1119.10 0.04294
1119.20 0.04293
1119.30 0.04291
1119.40 0.0429
1119.50 0.04288
1119.60 0.04287
1119.70 0.04285
1119.80 0.04284
1119.90 0.04283
1120.00 0.04281
1120.10 0.0428
1120.20 0.04278
1120.30 0.04277
1120.40 0.04275
1120.50 0.04274
1120.60 0.04272
1120.70 0.04271
1120.80 0.04269
1120.90 0.04268
1121.00 0.04266
1121.10 0.04265
1121.20 0.04263
1121.30 0.04262
1121.40 0.0426
1121.50 0.04259
1121.60 0.04257
1121.70 0.04256
1121.80 0.04254
1121.90 0.04253
1122.00 0.04252
1122.10 0.0425
1122.20 0.04249
1122.30 0.04247
1122.40 0.04246
1122.50 0.04244
1122.60 0.04243
1122.70 0.04241
1122.80 0.0424
1122.90 0.04238
1123.00 0.04237
1123.10 0.04235
1123.20 0.04234
1123.30 0.04233
1123.40 0.04231
1123.50 0.0423
1123.60 0.04228
1123.70 0.04227
1123.80 0.04225
1123.90 0.04224
1124.00 0.04222
1124.10 0.04221
1124.20 0.04219
1124.30 0.04218
1124.40 0.04216
1124.50 0.04215
1124.60 0.04214
1124.70 0.04212
1124.80 0.04211
1124.90 0.04209
1125.00 0.04208
1125.10 0.04206
1125.20 0.04205
1125.30 0.04203
1125.40 0.04202
1125.50 0.04201
1125.60 0.04199
1125.70 0.04198
1125.80 0.04196
1125.90 0.04195
1126.00 0.04193
1126.10 0.04192
1126.20 0.0419
1126.30 0.04189
1126.40 0.04187
1126.50 0.04186
1126.60 0.04185
1126.70 0.04183
1126.80 0.04182
1126.90 0.0418
1127.00 0.04179
1127.10 0.04177
1127.20 0.04176
1127.30 0.04174
1127.40 0.04173
1127.50 0.04172
1127.60 0.0417
1127.70 0.04169
1127.80 0.04167
1127.90 0.04166
1128.00 0.04164
1128.10 0.04163
1128.20 0.04162
1128.30 0.0416
1128.40 0.04159
1128.50 0.04157
1128.60 0.04156
1128.70 0.04154
1128.80 0.04153
1128.90 0.04152
1129.00 0.0415
1129.10 0.04149
1129.20 0.04147
1129.30 0.04146
1129.40 0.04144
1129.50 0.04143
1129.60 0.04142
1129.70 0.0414
1129.80 0.04139
1129.90 0.04137
1130.00 0.04136
1130.10 0.04134
1130.20 0.04133
1130.30 0.04132
1130.40 0.0413
1130.50 0.04129
1130.60 0.04127
1130.70 0.04126
1130.80 0.04124
1130.90 0.04123
1131.00 0.04122
1131.10 0.0412
1131.20 0.04119
1131.30 0.04117
1131.40 0.04116
1131.50 0.04115
1131.60 0.04113
1131.70 0.04112
1131.80 0.0411
1131.90 0.04109
1132.00 0.04107
1132.10 0.04106
1132.20 0.04105
1132.30 0.04103
1132.40 0.04102
1132.50 0.041
1132.60 0.04099
1132.70 0.04098
1132.80 0.04096
1132.90 0.04095
1133.00 0.04093
1133.10 0.04092
1133.20 0.04091
1133.30 0.04089
1133.40 0.04088
1133.50 0.04086
1133.60 0.04085
1133.70 0.04083
1133.80 0.04082
1133.90 0.04081
1134.00 0.04079
1134.10 0.04078
1134.20 0.04076
1134.30 0.04075
1134.40 0.04074
1134.50 0.04072
1134.60 0.04071
1134.70 0.04069
1134.80 0.04068
1134.90 0.04067
1135.00 0.04065
1135.10 0.04064
1135.20 0.04062
1135.30 0.04061
1135.40 0.0406
1135.50 0.04058
1135.60 0.04057
1135.70 0.04055
1135.80 0.04054
1135.90 0.04053
1136.00 0.04051
1136.10 0.0405
1136.20 0.04049
1136.30 0.04047
1136.40 0.04046
1136.50 0.04044
1136.60 0.04043
1136.70 0.04042
1136.80 0.0404
1136.90 0.04039
1137.00 0.04037
1137.10 0.04036
1137.20 0.04035
1137.30 0.04033
1137.40 0.04032
1137.50 0.0403
1137.60 0.04029
1137.70 0.04028
1137.80 0.04026
1137.90 0.04025
1138.00 0.04024
1138.10 0.04022
1138.20 0.04021
1138.30 0.04019
1138.40 0.04018
1138.50 0.04017
1138.60 0.04015
1138.70 0.04014
1138.80 0.04013
1138.90 0.04011
1139.00 0.0401
1139.10 0.04008
1139.20 0.04007
1139.30 0.04006
1139.40 0.04004
1139.50 0.04003
1139.60 0.04002
1139.70 0.04
1139.80 0.03999
1139.90 0.03997
1140.00 0.03996
1140.10 0.03995
1140.20 0.03993
1140.30 0.03992
1140.40 0.03991
1140.50 0.03989
1140.60 0.03988
1140.70 0.03986
1140.80 0.03985
1140.90 0.03984
1141.00 0.03982
1141.10 0.03981
1141.20 0.0398
1141.30 0.03978
1141.40 0.03977
1141.50 0.03976
1141.60 0.03974
1141.70 0.03973
1141.80 0.03971
1141.90 0.0397
1142.00 0.03969
1142.10 0.03967
1142.20 0.03966
1142.30 0.03965
1142.40 0.03963
1142.50 0.03962
1142.60 0.03961
1142.70 0.03959
1142.80 0.03958
1142.90 0.03957
1143.00 0.03955
1143.10 0.03954
1143.20 0.03952
1143.30 0.03951
1143.40 0.0395
1143.50 0.03948
1143.60 0.03947
1143.70 0.03946
1143.80 0.03944
1143.90 0.03943
1144.00 0.03942
1144.10 0.0394
1144.20 0.03939
1144.30 0.03938
1144.40 0.03936
1144.50 0.03935
1144.60 0.03934
1144.70 0.03932
1144.80 0.03931
1144.90 0.0393
1145.00 0.03928
1145.10 0.03927
1145.20 0.03925
1145.30 0.03924
1145.40 0.03923
1145.50 0.03921
1145.60 0.0392
1145.70 0.03919
1145.80 0.03917
1145.90 0.03916
1146.00 0.03915
1146.10 0.03913
1146.20 0.03912
1146.30 0.03911
1146.40 0.03909
1146.50 0.03908
1146.60 0.03907
1146.70 0.03905
1146.80 0.03904
1146.90 0.03903
1147.00 0.03901
1147.10 0.039
1147.20 0.03899
1147.30 0.03897
1147.40 0.03896
1147.50 0.03895
1147.60 0.03893
1147.70 0.03892
1147.80 0.03891
1147.90 0.03889
1148.00 0.03888
1148.10 0.03887
1148.20 0.03885
1148.30 0.03884
1148.40 0.03883
1148.50 0.03881
1148.60 0.0388
1148.70 0.03879
1148.80 0.03878
1148.90 0.03876
1149.00 0.03875
1149.10 0.03874
1149.20 0.03872
1149.30 0.03871
1149.40 0.0387
1149.50 0.03868
1149.60 0.03867
1149.70 0.03866
1149.80 0.03864
1149.90 0.03863
1150.00 0.03862
1150.10 0.0386
1150.20 0.03859
1150.30 0.03858
1150.40 0.03856
1150.50 0.03855
1150.60 0.03854
1150.70 0.03852
1150.80 0.03851
1150.90 0.0385
1151.00 0.03849
1151.10 0.03847
1151.20 0.03846
1151.30 0.03845
1151.40 0.03843
1151.50 0.03842
1151.60 0.03841
1151.70 0.03839
1151.80 0.03838
1151.90 0.03837
1152.00 0.03835
1152.10 0.03834
1152.20 0.03833
1152.30 0.03832
1152.40 0.0383
1152.50 0.03829
1152.60 0.03828
1152.70 0.03826
1152.80 0.03825
1152.90 0.03824
1153.00 0.03822
1153.10 0.03821
1153.20 0.0382
1153.30 0.03819
1153.40 0.03817
1153.50 0.03816
1153.60 0.03815
1153.70 0.03813
1153.80 0.03812
1153.90 0.03811
1154.00 0.03809
1154.10 0.03808
1154.20 0.03807
1154.30 0.03806
1154.40 0.03804
1154.50 0.03803
1154.60 0.03802
1154.70 0.038
1154.80 0.03799
1154.90 0.03798
1155.00 0.03797
1155.10 0.03795
1155.20 0.03794
1155.30 0.03793
1155.40 0.03791
1155.50 0.0379
1155.60 0.03789
1155.70 0.03787
1155.80 0.03786
1155.90 0.03785
1156.00 0.03784
1156.10 0.03782
1156.20 0.03781
1156.30 0.0378
1156.40 0.03778
1156.50 0.03777
1156.60 0.03776
1156.70 0.03775
1156.80 0.03773
1156.90 0.03772
1157.00 0.03771
1157.10 0.03769
1157.20 0.03768
1157.30 0.03767
1157.40 0.03766
1157.50 0.03764
1157.60 0.03763
1157.70 0.03762
1157.80 0.03761
1157.90 0.03759
1158.00 0.03758
1158.10 0.03757
1158.20 0.03755
1158.30 0.03754
1158.40 0.03753
1158.50 0.03752
1158.60 0.0375
1158.70 0.03749
1158.80 0.03748
1158.90 0.03747
1159.00 0.03745
1159.10 0.03744
1159.20 0.03743
1159.30 0.03742
1159.40 0.0374
1159.50 0.03739
1159.60 0.03738
1159.70 0.03736
1159.80 0.03735
1159.90 0.03734
1160.00 0.03733
1160.10 0.03731
1160.20 0.0373
1160.30 0.03729
1160.40 0.03728
1160.50 0.03726
1160.60 0.03725
1160.70 0.03724
1160.80 0.03723
1160.90 0.03721
1161.00 0.0372
1161.10 0.03719
1161.20 0.03717
1161.30 0.03716
1161.40 0.03715
1161.50 0.03714
1161.60 0.03712
1161.70 0.03711
1161.80 0.0371
1161.90 0.03709
1162.00 0.03707
1162.10 0.03706
1162.20 0.03705
1162.30 0.03704
1162.40 0.03702
1162.50 0.03701
1162.60 0.037
1162.70 0.03699
1162.80 0.03697
1162.90 0.03696
1163.00 0.03695
1163.10 0.03694
1163.20 0.03692
1163.30 0.03691
1163.40 0.0369
1163.50 0.03689
1163.60 0.03687
1163.70 0.03686
1163.80 0.03685
1163.90 0.03684
1164.00 0.03682
1164.10 0.03681
1164.20 0.0368
1164.30 0.03679
1164.40 0.03678
1164.50 0.03676
1164.60 0.03675
1164.70 0.03674
1164.80 0.03673
1164.90 0.03671
1165.00 0.0367
1165.10 0.03669
1165.20 0.03668
1165.30 0.03666
1165.40 0.03665
1165.50 0.03664
1165.60 0.03663
1165.70 0.03661
1165.80 0.0366
1165.90 0.03659
1166.00 0.03658
1166.10 0.03656
1166.20 0.03655
1166.30 0.03654
1166.40 0.03653
1166.50 0.03652
1166.60 0.0365
1166.70 0.03649
1166.80 0.03648
1166.90 0.03647
1167.00 0.03645
1167.10 0.03644
1167.20 0.03643
1167.30 0.03642
1167.40 0.0364
1167.50 0.03639
1167.60 0.03638
1167.70 0.03637
1167.80 0.03636
1167.90 0.03634
1168.00 0.03633
1168.10 0.03632
1168.20 0.03631
1168.30 0.03629
1168.40 0.03628
1168.50 0.03627
1168.60 0.03626
1168.70 0.03625
1168.80 0.03623
1168.90 0.03622
1169.00 0.03621
1169.10 0.0362
1169.20 0.03619
1169.30 0.03617
1169.40 0.03616
1169.50 0.03615
1169.60 0.03614
1169.70 0.03612
1169.80 0.03611
1169.90 0.0361
1170.00 0.03609
1170.10 0.03608
1170.20 0.03606
1170.30 0.03605
1170.40 0.03604
1170.50 0.03603
1170.60 0.03602
1170.70 0.036
1170.80 0.03599
1170.90 0.03598
1171.00 0.03597
1171.10 0.03595
1171.20 0.03594
1171.30 0.03593
1171.40 0.03592
1171.50 0.03591
1171.60 0.03589
1171.70 0.03588
1171.80 0.03587
1171.90 0.03586
1172.00 0.03585
1172.10 0.03583
1172.20 0.03582
1172.30 0.03581
1172.40 0.0358
1172.50 0.03579
1172.60 0.03577
1172.70 0.03576
1172.80 0.03575
1172.90 0.03574
1173.00 0.03573
1173.10 0.03571
1173.20 0.0357
1173.30 0.03569
1173.40 0.03568
1173.50 0.03567
1173.60 0.03565
1173.70 0.03564
1173.80 0.03563
1173.90 0.03562
1174.00 0.03561
1174.10 0.03559
1174.20 0.03558
1174.30 0.03557
1174.40 0.03556
1174.50 0.03555
1174.60 0.03554
1174.70 0.03552
1174.80 0.03551
1174.90 0.0355
1175.00 0.03549
1175.10 0.03548
1175.20 0.03546
1175.30 0.03545
1175.40 0.03544
1175.50 0.03543
1175.60 0.03542
1175.70 0.0354
1175.80 0.03539
1175.90 0.03538
1176.00 0.03537
1176.10 0.03536
1176.20 0.03535
1176.30 0.03533
1176.40 0.03532
1176.50 0.03531
1176.60 0.0353
1176.70 0.03529
1176.80 0.03527
1176.90 0.03526
1177.00 0.03525
1177.10 0.03524
1177.20 0.03523
1177.30 0.03522
1177.40 0.0352
1177.50 0.03519
1177.60 0.03518
1177.70 0.03517
1177.80 0.03516
1177.90 0.03514
1178.00 0.03513
1178.10 0.03512
1178.20 0.03511
1178.30 0.0351
1178.40 0.03509
1178.50 0.03507
1178.60 0.03506
1178.70 0.03505
1178.80 0.03504
1178.90 0.03503
1179.00 0.03502
1179.10 0.035
1179.20 0.03499
1179.30 0.03498
1179.40 0.03497
1179.50 0.03496
1179.60 0.03495
1179.70 0.03493
1179.80 0.03492
1179.90 0.03491
1180.00 0.0349
1180.10 0.03489
1180.20 0.03488
1180.30 0.03486
1180.40 0.03485
1180.50 0.03484
1180.60 0.03483
1180.70 0.03482
1180.80 0.03481
1180.90 0.03479
1181.00 0.03478
1181.10 0.03477
1181.20 0.03476
1181.30 0.03475
1181.40 0.03474
1181.50 0.03472
1181.60 0.03471
1181.70 0.0347
1181.80 0.03469
1181.90 0.03468
1182.00 0.03467
1182.10 0.03466
1182.20 0.03464
1182.30 0.03463
1182.40 0.03462
1182.50 0.03461
1182.60 0.0346
1182.70 0.03459
1182.80 0.03458
1182.90 0.03456
1183.00 0.03455
1183.10 0.03454
1183.20 0.03453
1183.30 0.03452
1183.40 0.03451
1183.50 0.03449
1183.60 0.03448
1183.70 0.03447
1183.80 0.03446
1183.90 0.03445
1184.00 0.03444
1184.10 0.03443
1184.20 0.03441
1184.30 0.0344
1184.40 0.03439
1184.50 0.03438
1184.60 0.03437
1184.70 0.03436
1184.80 0.03435
1184.90 0.03433
1185.00 0.03432
1185.10 0.03431
1185.20 0.0343
1185.30 0.03429
1185.40 0.03428
1185.50 0.03427
1185.60 0.03425
1185.70 0.03424
1185.80 0.03423
1185.90 0.03422
1186.00 0.03421
1186.10 0.0342
1186.20 0.03419
1186.30 0.03417
1186.40 0.03416
1186.50 0.03415
1186.60 0.03414
1186.70 0.03413
1186.80 0.03412
1186.90 0.03411
1187.00 0.0341
1187.10 0.03408
1187.20 0.03407
1187.30 0.03406
1187.40 0.03405
1187.50 0.03404
1187.60 0.03403
1187.70 0.03402
1187.80 0.03401
1187.90 0.03399
1188.00 0.03398
1188.10 0.03397
1188.20 0.03396
1188.30 0.03395
1188.40 0.03394
1188.50 0.03393
1188.60 0.03392
1188.70 0.0339
1188.80 0.03389
1188.90 0.03388
1189.00 0.03387
1189.10 0.03386
1189.20 0.03385
1189.30 0.03384
1189.40 0.03383
1189.50 0.03381
1189.60 0.0338
1189.70 0.03379
1189.80 0.03378
1189.90 0.03377
1190.00 0.03376
1190.10 0.03375
1190.20 0.03374
1190.30 0.03372
1190.40 0.03371
1190.50 0.0337
1190.60 0.03369
1190.70 0.03368
1190.80 0.03367
1190.90 0.03366
1191.00 0.03365
1191.10 0.03364
1191.20 0.03362
1191.30 0.03361
1191.40 0.0336
1191.50 0.03359
1191.60 0.03358
1191.70 0.03357
1191.80 0.03356
1191.90 0.03355
1192.00 0.03354
1192.10 0.03352
1192.20 0.03351
1192.30 0.0335
1192.40 0.03349
1192.50 0.03348
1192.60 0.03347
1192.70 0.03346
1192.80 0.03345
1192.90 0.03344
1193.00 0.03342
1193.10 0.03341
1193.20 0.0334
1193.30 0.03339
1193.40 0.03338
1193.50 0.03337
1193.60 0.03336
1193.70 0.03335
1193.80 0.03334
1193.90 0.03333
1194.00 0.03331
1194.10 0.0333
1194.20 0.03329
1194.30 0.03328
1194.40 0.03327
1194.50 0.03326
1194.60 0.03325
1194.70 0.03324
1194.80 0.03323
1194.90 0.03322
1195.00 0.03321
1195.10 0.03319
1195.20 0.03318
1195.30 0.03317
1195.40 0.03316
1195.50 0.03315
1195.60 0.03314
1195.70 0.03313
1195.80 0.03312
1195.90 0.03311
1196.00 0.0331
1196.10 0.03308
1196.20 0.03307
1196.30 0.03306
1196.40 0.03305
1196.50 0.03304
1196.60 0.03303
1196.70 0.03302
1196.80 0.03301
1196.90 0.033
1197.00 0.03299
1197.10 0.03298
1197.20 0.03296
1197.30 0.03295
1197.40 0.03294
1197.50 0.03293
1197.60 0.03292
1197.70 0.03291
1197.80 0.0329
1197.90 0.03289
1198.00 0.03288
1198.10 0.03287
1198.20 0.03286
1198.30 0.03285
1198.40 0.03284
1198.50 0.03282
1198.60 0.03281
1198.70 0.0328
1198.80 0.03279
1198.90 0.03278
1199.00 0.03277
1199.10 0.03276
1199.20 0.03275
1199.30 0.03274
1199.40 0.03273
1199.50 0.03272
1199.60 0.03271
1199.70 0.0327
1199.80 0.03268
1199.90 0.03267
1200.00 0
