# Version 2.1 - nm, norm@500 to 1, cut digits, bergeron_65000_90.dat_65000
# Wavelength(nm)  Flambda(ergs/cm^s/s/nm)
300.00 6.517
300.10 6.509
300.20 6.501
300.30 6.493
300.40 6.485
300.50 6.477
300.60 6.469
300.70 6.461
300.80 6.453
300.90 6.445
301.00 6.437
301.10 6.429
301.20 6.421
301.30 6.413
301.40 6.405
301.50 6.398
301.60 6.39
301.70 6.382
301.80 6.374
301.90 6.366
302.00 6.359
302.10 6.351
302.20 6.343
302.30 6.335
302.40 6.328
302.50 6.32
302.60 6.312
302.70 6.304
302.80 6.297
302.90 6.289
303.00 6.281
303.10 6.274
303.20 6.266
303.30 6.259
303.40 6.251
303.50 6.243
303.60 6.236
303.70 6.228
303.80 6.221
303.90 6.213
304.00 6.205
304.10 6.198
304.20 6.19
304.30 6.183
304.40 6.175
304.50 6.168
304.60 6.16
304.70 6.153
304.80 6.145
304.90 6.138
305.00 6.131
305.10 6.123
305.20 6.116
305.30 6.108
305.40 6.101
305.50 6.094
305.60 6.086
305.70 6.079
305.80 6.072
305.90 6.064
306.00 6.057
306.10 6.05
306.20 6.042
306.30 6.035
306.40 6.028
306.50 6.02
306.60 6.013
306.70 6.006
306.80 5.999
306.90 5.991
307.00 5.984
307.10 5.977
307.20 5.97
307.30 5.963
307.40 5.956
307.50 5.948
307.60 5.941
307.70 5.934
307.80 5.927
307.90 5.92
308.00 5.913
308.10 5.906
308.20 5.899
308.30 5.891
308.40 5.884
308.50 5.877
308.60 5.87
308.70 5.863
308.80 5.856
308.90 5.849
309.00 5.842
309.10 5.835
309.20 5.828
309.30 5.821
309.40 5.814
309.50 5.807
309.60 5.801
309.70 5.794
309.80 5.787
309.90 5.78
310.00 5.773
310.10 5.766
310.20 5.759
310.30 5.752
310.40 5.745
310.50 5.739
310.60 5.732
310.70 5.725
310.80 5.718
310.90 5.711
311.00 5.705
311.10 5.698
311.20 5.691
311.30 5.684
311.40 5.677
311.50 5.671
311.60 5.664
311.70 5.657
311.80 5.651
311.90 5.644
312.00 5.637
312.10 5.63
312.20 5.624
312.30 5.617
312.40 5.61
312.50 5.604
312.60 5.597
312.70 5.591
312.80 5.584
312.90 5.577
313.00 5.571
313.10 5.564
313.20 5.558
313.30 5.551
313.40 5.545
313.50 5.538
313.60 5.531
313.70 5.525
313.80 5.518
313.90 5.512
314.00 5.505
314.10 5.499
314.20 5.492
314.30 5.486
314.40 5.479
314.50 5.473
314.60 5.467
314.70 5.46
314.80 5.454
314.90 5.447
315.00 5.441
315.10 5.435
315.20 5.428
315.30 5.422
315.40 5.415
315.50 5.409
315.60 5.403
315.70 5.396
315.80 5.39
315.90 5.384
316.00 5.377
316.10 5.371
316.20 5.365
316.30 5.359
316.40 5.352
316.50 5.346
316.60 5.34
316.70 5.334
316.80 5.327
316.90 5.321
317.00 5.315
317.10 5.309
317.20 5.303
317.30 5.296
317.40 5.29
317.50 5.284
317.60 5.278
317.70 5.272
317.80 5.266
317.90 5.259
318.00 5.253
318.10 5.247
318.20 5.241
318.30 5.235
318.40 5.229
318.50 5.223
318.60 5.217
318.70 5.211
318.80 5.205
318.90 5.199
319.00 5.192
319.10 5.186
319.20 5.18
319.30 5.174
319.40 5.168
319.50 5.162
319.60 5.156
319.70 5.151
319.80 5.145
319.90 5.139
320.00 5.133
320.10 5.127
320.20 5.121
320.30 5.115
320.40 5.109
320.50 5.103
320.60 5.097
320.70 5.091
320.80 5.085
320.90 5.079
321.00 5.074
321.10 5.068
321.20 5.062
321.30 5.056
321.40 5.05
321.50 5.044
321.60 5.039
321.70 5.033
321.80 5.027
321.90 5.021
322.00 5.015
322.10 5.01
322.20 5.004
322.30 4.998
322.40 4.992
322.50 4.987
322.60 4.981
322.70 4.975
322.80 4.97
322.90 4.964
323.00 4.958
323.10 4.952
323.20 4.947
323.30 4.941
323.40 4.935
323.50 4.93
323.60 4.924
323.70 4.918
323.80 4.913
323.90 4.907
324.00 4.902
324.10 4.896
324.20 4.89
324.30 4.885
324.40 4.879
324.50 4.874
324.60 4.868
324.70 4.863
324.80 4.857
324.90 4.851
325.00 4.846
325.10 4.84
325.20 4.835
325.30 4.829
325.40 4.824
325.50 4.818
325.60 4.813
325.70 4.807
325.80 4.802
325.90 4.796
326.00 4.791
326.10 4.786
326.20 4.78
326.30 4.775
326.40 4.769
326.50 4.764
326.60 4.758
326.70 4.753
326.80 4.748
326.90 4.742
327.00 4.737
327.10 4.732
327.20 4.726
327.30 4.721
327.40 4.715
327.50 4.71
327.60 4.705
327.70 4.699
327.80 4.694
327.90 4.689
328.00 4.684
328.10 4.678
328.20 4.673
328.30 4.668
328.40 4.662
328.50 4.657
328.60 4.652
328.70 4.647
328.80 4.641
328.90 4.636
329.00 4.631
329.10 4.626
329.20 4.62
329.30 4.615
329.40 4.61
329.50 4.605
329.60 4.6
329.70 4.595
329.80 4.589
329.90 4.584
330.00 4.579
330.10 4.574
330.20 4.569
330.30 4.564
330.40 4.559
330.50 4.553
330.60 4.548
330.70 4.543
330.80 4.538
330.90 4.533
331.00 4.528
331.10 4.523
331.20 4.518
331.30 4.513
331.40 4.508
331.50 4.503
331.60 4.498
331.70 4.493
331.80 4.487
331.90 4.482
332.00 4.477
332.10 4.472
332.20 4.467
332.30 4.462
332.40 4.458
332.50 4.453
332.60 4.448
332.70 4.443
332.80 4.438
332.90 4.433
333.00 4.428
333.10 4.423
333.20 4.418
333.30 4.413
333.40 4.408
333.50 4.403
333.60 4.398
333.70 4.393
333.80 4.388
333.90 4.384
334.00 4.379
334.10 4.374
334.20 4.369
334.30 4.364
334.40 4.359
334.50 4.354
334.60 4.35
334.70 4.345
334.80 4.34
334.90 4.335
335.00 4.33
335.10 4.326
335.20 4.321
335.30 4.316
335.40 4.311
335.50 4.306
335.60 4.302
335.70 4.297
335.80 4.292
335.90 4.287
336.00 4.283
336.10 4.278
336.20 4.273
336.30 4.268
336.40 4.264
336.50 4.259
336.60 4.254
336.70 4.25
336.80 4.245
336.90 4.24
337.00 4.236
337.10 4.231
337.20 4.226
337.30 4.222
337.40 4.217
337.50 4.212
337.60 4.208
337.70 4.203
337.80 4.198
337.90 4.194
338.00 4.189
338.10 4.185
338.20 4.18
338.30 4.175
338.40 4.171
338.50 4.166
338.60 4.162
338.70 4.157
338.80 4.153
338.90 4.148
339.00 4.143
339.10 4.139
339.20 4.134
339.30 4.13
339.40 4.125
339.50 4.121
339.60 4.116
339.70 4.112
339.80 4.107
339.90 4.103
340.00 4.098
340.10 4.094
340.20 4.089
340.30 4.085
340.40 4.08
340.50 4.076
340.60 4.072
340.70 4.067
340.80 4.063
340.90 4.058
341.00 4.054
341.10 4.049
341.20 4.045
341.30 4.041
341.40 4.036
341.50 4.032
341.60 4.027
341.70 4.023
341.80 4.019
341.90 4.014
342.00 4.01
342.10 4.005
342.20 4.001
342.30 3.997
342.40 3.992
342.50 3.988
342.60 3.984
342.70 3.979
342.80 3.975
342.90 3.971
343.00 3.967
343.10 3.962
343.20 3.958
343.30 3.954
343.40 3.949
343.50 3.945
343.60 3.941
343.70 3.937
343.80 3.932
343.90 3.928
344.00 3.924
344.10 3.92
344.20 3.915
344.30 3.911
344.40 3.907
344.50 3.903
344.60 3.898
344.70 3.894
344.80 3.89
344.90 3.886
345.00 3.882
345.10 3.878
345.20 3.873
345.30 3.869
345.40 3.865
345.50 3.861
345.60 3.857
345.70 3.852
345.80 3.848
345.90 3.844
346.00 3.84
346.10 3.836
346.20 3.832
346.30 3.828
346.40 3.824
346.50 3.819
346.60 3.815
346.70 3.811
346.80 3.807
346.90 3.803
347.00 3.799
347.10 3.795
347.20 3.791
347.30 3.787
347.40 3.783
347.50 3.779
347.60 3.775
347.70 3.771
347.80 3.767
347.90 3.763
348.00 3.759
348.10 3.755
348.20 3.751
348.30 3.747
348.40 3.743
348.50 3.739
348.60 3.735
348.70 3.731
348.80 3.727
348.90 3.723
349.00 3.719
349.10 3.715
349.20 3.711
349.30 3.707
349.40 3.703
349.50 3.699
349.60 3.695
349.70 3.691
349.80 3.687
349.90 3.683
350.00 3.679
350.10 3.675
350.20 3.671
350.30 3.667
350.40 3.664
350.50 3.66
350.60 3.656
350.70 3.652
350.80 3.648
350.90 3.644
351.00 3.64
351.10 3.636
351.20 3.633
351.30 3.629
351.40 3.625
351.50 3.621
351.60 3.617
351.70 3.613
351.80 3.61
351.90 3.606
352.00 3.602
352.10 3.598
352.20 3.594
352.30 3.591
352.40 3.587
352.50 3.583
352.60 3.579
352.70 3.575
352.80 3.572
352.90 3.568
353.00 3.564
353.10 3.56
353.20 3.557
353.30 3.553
353.40 3.549
353.50 3.545
353.60 3.542
353.70 3.538
353.80 3.534
353.90 3.53
354.00 3.527
354.10 3.523
354.20 3.519
354.30 3.516
354.40 3.512
354.50 3.508
354.60 3.504
354.70 3.501
354.80 3.497
354.90 3.493
355.00 3.49
355.10 3.486
355.20 3.482
355.30 3.479
355.40 3.475
355.50 3.472
355.60 3.468
355.70 3.464
355.80 3.461
355.90 3.457
356.00 3.453
356.10 3.45
356.20 3.446
356.30 3.443
356.40 3.439
356.50 3.435
356.60 3.432
356.70 3.428
356.80 3.425
356.90 3.421
357.00 3.417
357.10 3.414
357.20 3.41
357.30 3.407
357.40 3.403
357.50 3.4
357.60 3.396
357.70 3.393
357.80 3.389
357.90 3.386
358.00 3.382
358.10 3.378
358.20 3.375
358.30 3.371
358.40 3.368
358.50 3.364
358.60 3.361
358.70 3.357
358.80 3.354
358.90 3.351
359.00 3.347
359.10 3.344
359.20 3.34
359.30 3.337
359.40 3.333
359.50 3.33
359.60 3.326
359.70 3.323
359.80 3.319
359.90 3.316
360.00 3.312
360.10 3.309
360.20 3.306
360.30 3.302
360.40 3.299
360.50 3.295
360.60 3.292
360.70 3.289
360.80 3.285
360.90 3.282
361.00 3.278
361.10 3.275
361.20 3.272
361.30 3.268
361.40 3.265
361.50 3.261
361.60 3.258
361.70 3.255
361.80 3.251
361.90 3.248
362.00 3.245
362.10 3.241
362.20 3.238
362.30 3.235
362.40 3.231
362.50 3.228
362.60 3.225
362.70 3.221
362.80 3.218
362.90 3.215
363.00 3.211
363.10 3.208
363.20 3.205
363.30 3.202
363.40 3.198
363.50 3.195
363.60 3.192
363.70 3.188
363.80 3.185
363.90 3.182
364.00 3.179
364.10 3.175
364.20 3.172
364.30 3.169
364.40 3.166
364.50 3.162
364.60 3.159
364.70 3.156
364.80 3.153
364.90 3.15
365.00 3.146
365.10 3.143
365.20 3.14
365.30 3.137
365.40 3.133
365.50 3.13
365.60 3.127
365.70 3.124
365.80 3.121
365.90 3.117
366.00 3.114
366.10 3.111
366.20 3.108
366.30 3.105
366.40 3.102
366.50 3.098
366.60 3.095
366.70 3.092
366.80 3.089
366.90 3.086
367.00 3.082
367.10 3.079
367.20 3.076
367.30 3.073
367.40 3.07
367.50 3.067
367.60 3.063
367.70 3.06
367.80 3.057
367.90 3.054
368.00 3.051
368.10 3.048
368.20 3.045
368.30 3.041
368.40 3.038
368.50 3.035
368.60 3.032
368.70 3.029
368.80 3.025
368.90 3.022
369.00 3.019
369.10 3.016
369.20 3.013
369.30 3.01
369.40 3.006
369.50 3.003
369.60 3
369.70 2.997
369.80 2.994
369.90 2.991
370.00 2.988
370.10 2.984
370.20 2.981
370.30 2.978
370.40 2.975
370.50 2.972
370.60 2.969
370.70 2.966
370.80 2.963
370.90 2.96
371.00 2.957
371.10 2.954
371.20 2.95
371.30 2.947
371.40 2.944
371.50 2.941
371.60 2.938
371.70 2.935
371.80 2.932
371.90 2.929
372.00 2.926
372.10 2.923
372.20 2.92
372.30 2.917
372.40 2.914
372.50 2.911
372.60 2.909
372.70 2.906
372.80 2.903
372.90 2.9
373.00 2.897
373.10 2.894
373.20 2.891
373.30 2.888
373.40 2.886
373.50 2.883
373.60 2.88
373.70 2.877
373.80 2.874
373.90 2.871
374.00 2.868
374.10 2.865
374.20 2.862
374.30 2.859
374.40 2.857
374.50 2.854
374.60 2.851
374.70 2.848
374.80 2.845
374.90 2.842
375.00 2.839
375.10 2.836
375.20 2.833
375.30 2.83
375.40 2.827
375.50 2.824
375.60 2.821
375.70 2.818
375.80 2.816
375.90 2.813
376.00 2.81
376.10 2.807
376.20 2.804
376.30 2.801
376.40 2.798
376.50 2.795
376.60 2.793
376.70 2.79
376.80 2.787
376.90 2.784
377.00 2.781
377.10 2.778
377.20 2.776
377.30 2.773
377.40 2.77
377.50 2.767
377.60 2.764
377.70 2.762
377.80 2.759
377.90 2.756
378.00 2.753
378.10 2.751
378.20 2.748
378.30 2.745
378.40 2.742
378.50 2.74
378.60 2.737
378.70 2.734
378.80 2.732
378.90 2.729
379.00 2.726
379.10 2.723
379.20 2.721
379.30 2.718
379.40 2.715
379.50 2.713
379.60 2.71
379.70 2.707
379.80 2.704
379.90 2.702
380.00 2.699
380.10 2.696
380.20 2.694
380.30 2.691
380.40 2.689
380.50 2.686
380.60 2.683
380.70 2.681
380.80 2.678
380.90 2.675
381.00 2.673
381.10 2.67
381.20 2.668
381.30 2.665
381.40 2.662
381.50 2.66
381.60 2.657
381.70 2.655
381.80 2.652
381.90 2.649
382.00 2.647
382.10 2.644
382.20 2.642
382.30 2.639
382.40 2.637
382.50 2.634
382.60 2.631
382.70 2.629
382.80 2.626
382.90 2.624
383.00 2.621
383.10 2.619
383.20 2.616
383.30 2.614
383.40 2.611
383.50 2.609
383.60 2.606
383.70 2.604
383.80 2.601
383.90 2.599
384.00 2.596
384.10 2.594
384.20 2.592
384.30 2.589
384.40 2.587
384.50 2.584
384.60 2.582
384.70 2.58
384.80 2.577
384.90 2.575
385.00 2.572
385.10 2.57
385.20 2.568
385.30 2.565
385.40 2.563
385.50 2.56
385.60 2.558
385.70 2.556
385.80 2.553
385.90 2.551
386.00 2.548
386.10 2.546
386.20 2.544
386.30 2.541
386.40 2.539
386.50 2.536
386.60 2.534
386.70 2.532
386.80 2.529
386.90 2.527
387.00 2.524
387.10 2.522
387.20 2.52
387.30 2.517
387.40 2.515
387.50 2.512
387.60 2.51
387.70 2.508
387.80 2.505
387.90 2.503
388.00 2.5
388.10 2.498
388.20 2.496
388.30 2.493
388.40 2.491
388.50 2.489
388.60 2.487
388.70 2.484
388.80 2.482
388.90 2.48
389.00 2.478
389.10 2.475
389.20 2.473
389.30 2.471
389.40 2.469
389.50 2.467
389.60 2.465
389.70 2.463
389.80 2.461
389.90 2.458
390.00 2.456
390.10 2.454
390.20 2.452
390.30 2.45
390.40 2.448
390.50 2.446
390.60 2.444
390.70 2.442
390.80 2.44
390.90 2.438
391.00 2.436
391.10 2.433
391.20 2.431
391.30 2.429
391.40 2.427
391.50 2.425
391.60 2.423
391.70 2.421
391.80 2.418
391.90 2.416
392.00 2.414
392.10 2.412
392.20 2.41
392.30 2.407
392.40 2.405
392.50 2.403
392.60 2.4
392.70 2.398
392.80 2.396
392.90 2.394
393.00 2.391
393.10 2.389
393.20 2.386
393.30 2.384
393.40 2.382
393.50 2.379
393.60 2.377
393.70 2.374
393.80 2.372
393.90 2.37
394.00 2.367
394.10 2.365
394.20 2.362
394.30 2.36
394.40 2.357
394.50 2.354
394.60 2.352
394.70 2.349
394.80 2.347
394.90 2.344
395.00 2.342
395.10 2.339
395.20 2.336
395.30 2.334
395.40 2.331
395.50 2.328
395.60 2.326
395.70 2.323
395.80 2.32
395.90 2.318
396.00 2.315
396.10 2.313
396.20 2.31
396.30 2.307
396.40 2.305
396.50 2.302
396.60 2.3
396.70 2.297
396.80 2.295
396.90 2.293
397.00 2.29
397.10 2.289
397.20 2.287
397.30 2.286
397.40 2.284
397.50 2.283
397.60 2.282
397.70 2.28
397.80 2.279
397.90 2.278
398.00 2.277
398.10 2.275
398.20 2.274
398.30 2.273
398.40 2.272
398.50 2.271
398.60 2.269
398.70 2.268
398.80 2.267
398.90 2.266
399.00 2.264
399.10 2.263
399.20 2.262
399.30 2.26
399.40 2.259
399.50 2.258
399.60 2.256
399.70 2.255
399.80 2.253
399.90 2.252
400.00 2.251
400.10 2.249
400.20 2.248
400.30 2.246
400.40 2.245
400.50 2.243
400.60 2.241
400.70 2.24
400.80 2.238
400.90 2.237
401.00 2.235
401.10 2.233
401.20 2.232
401.30 2.23
401.40 2.228
401.50 2.226
401.60 2.225
401.70 2.223
401.80 2.221
401.90 2.219
402.00 2.217
402.10 2.215
402.20 2.213
402.30 2.211
402.40 2.209
402.50 2.207
402.60 2.205
402.70 2.203
402.80 2.201
402.90 2.199
403.00 2.197
403.10 2.195
403.20 2.192
403.30 2.19
403.40 2.188
403.50 2.186
403.60 2.183
403.70 2.181
403.80 2.179
403.90 2.176
404.00 2.174
404.10 2.171
404.20 2.169
404.30 2.166
404.40 2.164
404.50 2.161
404.60 2.159
404.70 2.156
404.80 2.153
404.90 2.151
405.00 2.148
405.10 2.145
405.20 2.143
405.30 2.14
405.40 2.137
405.50 2.134
405.60 2.131
405.70 2.128
405.80 2.125
405.90 2.122
406.00 2.119
406.10 2.116
406.20 2.113
406.30 2.11
406.40 2.106
406.50 2.103
406.60 2.1
406.70 2.097
406.80 2.093
406.90 2.09
407.00 2.087
407.10 2.083
407.20 2.08
407.30 2.076
407.40 2.073
407.50 2.069
407.60 2.065
407.70 2.062
407.80 2.058
407.90 2.055
408.00 2.051
408.10 2.047
408.20 2.043
408.30 2.04
408.40 2.036
408.50 2.032
408.60 2.028
408.70 2.025
408.80 2.021
408.90 2.017
409.00 2.014
409.10 2.01
409.20 2.007
409.30 2.003
409.40 2
409.50 1.997
409.60 1.994
409.70 1.991
409.80 1.989
409.90 1.987
410.00 1.987
410.10 1.986
410.20 1.984
410.30 1.982
410.40 1.979
410.50 1.977
410.60 1.976
410.70 1.975
410.80 1.975
410.90 1.974
411.00 1.974
411.10 1.974
411.20 1.974
411.30 1.974
411.40 1.974
411.50 1.975
411.60 1.975
411.70 1.975
411.80 1.976
411.90 1.976
412.00 1.976
412.10 1.977
412.20 1.977
412.30 1.977
412.40 1.978
412.50 1.978
412.60 1.978
412.70 1.978
412.80 1.978
412.90 1.979
413.00 1.979
413.10 1.979
413.20 1.979
413.30 1.979
413.40 1.979
413.50 1.979
413.60 1.979
413.70 1.979
413.80 1.978
413.90 1.978
414.00 1.978
414.10 1.978
414.20 1.977
414.30 1.977
414.40 1.977
414.50 1.976
414.60 1.976
414.70 1.975
414.80 1.975
414.90 1.974
415.00 1.974
415.10 1.973
415.20 1.973
415.30 1.972
415.40 1.971
415.50 1.971
415.60 1.97
415.70 1.969
415.80 1.968
415.90 1.968
416.00 1.967
416.10 1.966
416.20 1.965
416.30 1.964
416.40 1.963
416.50 1.962
416.60 1.961
416.70 1.96
416.80 1.959
416.90 1.958
417.00 1.957
417.10 1.956
417.20 1.955
417.30 1.954
417.40 1.953
417.50 1.952
417.60 1.951
417.70 1.949
417.80 1.948
417.90 1.947
418.00 1.946
418.10 1.945
418.20 1.943
418.30 1.942
418.40 1.941
418.50 1.939
418.60 1.938
418.70 1.937
418.80 1.935
418.90 1.934
419.00 1.933
419.10 1.931
419.20 1.93
419.30 1.929
419.40 1.927
419.50 1.926
419.60 1.924
419.70 1.923
419.80 1.921
419.90 1.92
420.00 1.918
420.10 1.917
420.20 1.915
420.30 1.914
420.40 1.912
420.50 1.911
420.60 1.909
420.70 1.907
420.80 1.906
420.90 1.904
421.00 1.903
421.10 1.901
421.20 1.899
421.30 1.898
421.40 1.896
421.50 1.894
421.60 1.893
421.70 1.891
421.80 1.889
421.90 1.887
422.00 1.886
422.10 1.884
422.20 1.882
422.30 1.881
422.40 1.879
422.50 1.877
422.60 1.875
422.70 1.873
422.80 1.872
422.90 1.87
423.00 1.868
423.10 1.866
423.20 1.864
423.30 1.862
423.40 1.86
423.50 1.858
423.60 1.857
423.70 1.855
423.80 1.853
423.90 1.851
424.00 1.849
424.10 1.847
424.20 1.845
424.30 1.843
424.40 1.841
424.50 1.839
424.60 1.837
424.70 1.835
424.80 1.832
424.90 1.83
425.00 1.828
425.10 1.826
425.20 1.824
425.30 1.822
425.40 1.82
425.50 1.817
425.60 1.815
425.70 1.813
425.80 1.811
425.90 1.808
426.00 1.806
426.10 1.804
426.20 1.801
426.30 1.799
426.40 1.797
426.50 1.794
426.60 1.792
426.70 1.789
426.80 1.787
426.90 1.784
427.00 1.782
427.10 1.779
427.20 1.777
427.30 1.774
427.40 1.771
427.50 1.769
427.60 1.766
427.70 1.763
427.80 1.76
427.90 1.758
428.00 1.755
428.10 1.752
428.20 1.749
428.30 1.746
428.40 1.743
428.50 1.74
428.60 1.737
428.70 1.734
428.80 1.731
428.90 1.728
429.00 1.724
429.10 1.721
429.20 1.718
429.30 1.714
429.40 1.711
429.50 1.708
429.60 1.704
429.70 1.701
429.80 1.697
429.90 1.693
430.00 1.69
430.10 1.686
430.20 1.682
430.30 1.679
430.40 1.675
430.50 1.671
430.60 1.667
430.70 1.663
430.80 1.659
430.90 1.655
431.00 1.65
431.10 1.646
431.20 1.642
431.30 1.638
431.40 1.633
431.50 1.629
431.60 1.624
431.70 1.62
431.80 1.615
431.90 1.611
432.00 1.606
432.10 1.601
432.20 1.596
432.30 1.592
432.40 1.587
432.50 1.582
432.60 1.577
432.70 1.573
432.80 1.568
432.90 1.563
433.00 1.558
433.10 1.553
433.20 1.548
433.30 1.543
433.40 1.538
433.50 1.533
433.60 1.527
433.70 1.522
433.80 1.515
433.90 1.508
434.00 1.503
434.10 1.502
434.20 1.505
434.30 1.51
434.40 1.513
434.50 1.517
434.60 1.52
434.70 1.522
434.80 1.525
434.90 1.527
435.00 1.53
435.10 1.532
435.20 1.534
435.30 1.537
435.40 1.539
435.50 1.541
435.60 1.543
435.70 1.545
435.80 1.547
435.90 1.549
436.00 1.551
436.10 1.553
436.20 1.555
436.30 1.557
436.40 1.559
436.50 1.561
436.60 1.562
436.70 1.564
436.80 1.566
436.90 1.567
437.00 1.569
437.10 1.57
437.20 1.571
437.30 1.573
437.40 1.574
437.50 1.575
437.60 1.576
437.70 1.577
437.80 1.578
437.90 1.579
438.00 1.58
438.10 1.581
438.20 1.582
438.30 1.582
438.40 1.583
438.50 1.584
438.60 1.584
438.70 1.585
438.80 1.585
438.90 1.586
439.00 1.586
439.10 1.586
439.20 1.587
439.30 1.587
439.40 1.587
439.50 1.587
439.60 1.587
439.70 1.587
439.80 1.587
439.90 1.587
440.00 1.587
440.10 1.587
440.20 1.587
440.30 1.587
440.40 1.587
440.50 1.587
440.60 1.586
440.70 1.586
440.80 1.586
440.90 1.586
441.00 1.585
441.10 1.585
441.20 1.584
441.30 1.584
441.40 1.583
441.50 1.583
441.60 1.582
441.70 1.582
441.80 1.581
441.90 1.581
442.00 1.58
442.10 1.58
442.20 1.579
442.30 1.578
442.40 1.578
442.50 1.577
442.60 1.576
442.70 1.576
442.80 1.575
442.90 1.574
443.00 1.573
443.10 1.572
443.20 1.572
443.30 1.571
443.40 1.57
443.50 1.569
443.60 1.568
443.70 1.567
443.80 1.567
443.90 1.566
444.00 1.565
444.10 1.564
444.20 1.563
444.30 1.562
444.40 1.561
444.50 1.56
444.60 1.559
444.70 1.558
444.80 1.557
444.90 1.556
445.00 1.555
445.10 1.554
445.20 1.553
445.30 1.552
445.40 1.551
445.50 1.55
445.60 1.549
445.70 1.548
445.80 1.547
445.90 1.546
446.00 1.545
446.10 1.544
446.20 1.543
446.30 1.542
446.40 1.541
446.50 1.54
446.60 1.539
446.70 1.537
446.80 1.536
446.90 1.535
447.00 1.534
447.10 1.533
447.20 1.532
447.30 1.531
447.40 1.53
447.50 1.529
447.60 1.527
447.70 1.526
447.80 1.525
447.90 1.524
448.00 1.523
448.10 1.522
448.20 1.521
448.30 1.52
448.40 1.518
448.50 1.517
448.60 1.516
448.70 1.515
448.80 1.514
448.90 1.513
449.00 1.511
449.10 1.51
449.20 1.509
449.30 1.508
449.40 1.507
449.50 1.506
449.60 1.504
449.70 1.503
449.80 1.502
449.90 1.501
450.00 1.5
450.10 1.499
450.20 1.497
450.30 1.496
450.40 1.495
450.50 1.494
450.60 1.493
450.70 1.491
450.80 1.49
450.90 1.489
451.00 1.488
451.10 1.487
451.20 1.486
451.30 1.484
451.40 1.483
451.50 1.482
451.60 1.481
451.70 1.48
451.80 1.478
451.90 1.477
452.00 1.476
452.10 1.475
452.20 1.474
452.30 1.473
452.40 1.471
452.50 1.47
452.60 1.469
452.70 1.468
452.80 1.467
452.90 1.465
453.00 1.464
453.10 1.463
453.20 1.462
453.30 1.461
453.40 1.459
453.50 1.458
453.60 1.457
453.70 1.456
453.80 1.455
453.90 1.453
454.00 1.452
454.10 1.451
454.20 1.45
454.30 1.449
454.40 1.448
454.50 1.446
454.60 1.445
454.70 1.444
454.80 1.443
454.90 1.442
455.00 1.44
455.10 1.439
455.20 1.438
455.30 1.437
455.40 1.436
455.50 1.434
455.60 1.433
455.70 1.432
455.80 1.431
455.90 1.43
456.00 1.429
456.10 1.427
456.20 1.426
456.30 1.425
456.40 1.424
456.50 1.423
456.60 1.422
456.70 1.42
456.80 1.419
456.90 1.418
457.00 1.417
457.10 1.416
457.20 1.414
457.30 1.413
457.40 1.412
457.50 1.411
457.60 1.41
457.70 1.409
457.80 1.407
457.90 1.406
458.00 1.405
458.10 1.404
458.20 1.403
458.30 1.402
458.40 1.4
458.50 1.399
458.60 1.398
458.70 1.397
458.80 1.396
458.90 1.395
459.00 1.393
459.10 1.392
459.20 1.391
459.30 1.39
459.40 1.389
459.50 1.388
459.60 1.386
459.70 1.385
459.80 1.384
459.90 1.383
460.00 1.382
460.10 1.381
460.20 1.379
460.30 1.378
460.40 1.377
460.50 1.376
460.60 1.375
460.70 1.374
460.80 1.373
460.90 1.371
461.00 1.37
461.10 1.369
461.20 1.368
461.30 1.367
461.40 1.366
461.50 1.364
461.60 1.363
461.70 1.362
461.80 1.361
461.90 1.36
462.00 1.359
462.10 1.358
462.20 1.356
462.30 1.355
462.40 1.354
462.50 1.353
462.60 1.352
462.70 1.351
462.80 1.35
462.90 1.348
463.00 1.347
463.10 1.346
463.20 1.345
463.30 1.344
463.40 1.343
463.50 1.342
463.60 1.34
463.70 1.339
463.80 1.338
463.90 1.337
464.00 1.336
464.10 1.335
464.20 1.334
464.30 1.333
464.40 1.331
464.50 1.33
464.60 1.329
464.70 1.328
464.80 1.327
464.90 1.326
465.00 1.325
465.10 1.323
465.20 1.322
465.30 1.321
465.40 1.32
465.50 1.319
465.60 1.318
465.70 1.317
465.80 1.316
465.90 1.314
466.00 1.313
466.10 1.312
466.20 1.311
466.30 1.31
466.40 1.309
466.50 1.308
466.60 1.306
466.70 1.305
466.80 1.304
466.90 1.303
467.00 1.302
467.10 1.301
467.20 1.3
467.30 1.299
467.40 1.297
467.50 1.296
467.60 1.295
467.70 1.294
467.80 1.293
467.90 1.292
468.00 1.291
468.10 1.29
468.20 1.288
468.30 1.287
468.40 1.286
468.50 1.285
468.60 1.284
468.70 1.283
468.80 1.282
468.90 1.281
469.00 1.279
469.10 1.278
469.20 1.277
469.30 1.276
469.40 1.275
469.50 1.274
469.60 1.273
469.70 1.271
469.80 1.27
469.90 1.269
470.00 1.268
470.10 1.267
470.20 1.266
470.30 1.265
470.40 1.263
470.50 1.262
470.60 1.261
470.70 1.26
470.80 1.259
470.90 1.258
471.00 1.257
471.10 1.255
471.20 1.254
471.30 1.253
471.40 1.252
471.50 1.251
471.60 1.25
471.70 1.248
471.80 1.247
471.90 1.246
472.00 1.245
472.10 1.244
472.20 1.243
472.30 1.241
472.40 1.24
472.50 1.239
472.60 1.238
472.70 1.237
472.80 1.236
472.90 1.234
473.00 1.233
473.10 1.232
473.20 1.231
473.30 1.23
473.40 1.228
473.50 1.227
473.60 1.226
473.70 1.225
473.80 1.224
473.90 1.222
474.00 1.221
474.10 1.22
474.20 1.219
474.30 1.217
474.40 1.216
474.50 1.215
474.60 1.214
474.70 1.212
474.80 1.211
474.90 1.21
475.00 1.209
475.10 1.207
475.20 1.206
475.30 1.205
475.40 1.204
475.50 1.202
475.60 1.201
475.70 1.2
475.80 1.198
475.90 1.197
476.00 1.196
476.10 1.194
476.20 1.193
476.30 1.192
476.40 1.19
476.50 1.189
476.60 1.187
476.70 1.186
476.80 1.185
476.90 1.183
477.00 1.182
477.10 1.18
477.20 1.179
477.30 1.178
477.40 1.176
477.50 1.175
477.60 1.173
477.70 1.172
477.80 1.17
477.90 1.169
478.00 1.167
478.10 1.166
478.20 1.164
478.30 1.162
478.40 1.161
478.50 1.159
478.60 1.157
478.70 1.156
478.80 1.154
478.90 1.152
479.00 1.151
479.10 1.149
479.20 1.147
479.30 1.146
479.40 1.144
479.50 1.142
479.60 1.14
479.70 1.138
479.80 1.136
479.90 1.135
480.00 1.133
480.10 1.131
480.20 1.129
480.30 1.127
480.40 1.125
480.50 1.123
480.60 1.121
480.70 1.118
480.80 1.116
480.90 1.114
481.00 1.112
481.10 1.11
481.20 1.108
481.30 1.105
481.40 1.103
481.50 1.1
481.60 1.098
481.70 1.096
481.80 1.093
481.90 1.091
482.00 1.088
482.10 1.086
482.20 1.083
482.30 1.08
482.40 1.078
482.50 1.075
482.60 1.072
482.70 1.069
482.80 1.066
482.90 1.063
483.00 1.06
483.10 1.058
483.20 1.054
483.30 1.051
483.40 1.048
483.50 1.044
483.60 1.041
483.70 1.038
483.80 1.034
483.90 1.031
484.00 1.028
484.10 1.025
484.20 1.021
484.30 1.017
484.40 1.014
484.50 1.01
484.60 1.006
484.70 1.002
484.80 0.9987
484.90 0.9949
485.00 0.991
485.10 0.9872
485.20 0.9835
485.30 0.9797
485.40 0.9761
485.50 0.9725
485.60 0.9695
485.70 0.9666
485.80 0.9656
485.90 0.9654
486.00 0.9695
486.10 0.9801
486.20 0.9758
486.30 0.9646
486.40 0.9618
486.50 0.9604
486.60 0.9609
486.70 0.9623
486.80 0.9642
486.90 0.9663
487.00 0.9685
487.10 0.9707
487.20 0.973
487.30 0.9753
487.40 0.9776
487.50 0.9799
487.60 0.9822
487.70 0.9844
487.80 0.9865
487.90 0.9886
488.00 0.9907
488.10 0.9928
488.20 0.9946
488.30 0.9963
488.40 0.998
488.50 0.9997
488.60 1.001
488.70 1.003
488.80 1.005
488.90 1.006
489.00 1.008
489.10 1.01
489.20 1.011
489.30 1.012
489.40 1.013
489.50 1.015
489.60 1.016
489.70 1.017
489.80 1.018
489.90 1.019
490.00 1.02
490.10 1.021
490.20 1.022
490.30 1.023
490.40 1.024
490.50 1.024
490.60 1.025
490.70 1.026
490.80 1.026
490.90 1.027
491.00 1.028
491.10 1.028
491.20 1.029
491.30 1.029
491.40 1.029
491.50 1.03
491.60 1.03
491.70 1.03
491.80 1.031
491.90 1.031
492.00 1.031
492.10 1.031
492.20 1.032
492.30 1.032
492.40 1.032
492.50 1.032
492.60 1.032
492.70 1.032
492.80 1.032
492.90 1.032
493.00 1.032
493.10 1.032
493.20 1.032
493.30 1.032
493.40 1.031
493.50 1.031
493.60 1.031
493.70 1.031
493.80 1.031
493.90 1.03
494.00 1.03
494.10 1.03
494.20 1.03
494.30 1.03
494.40 1.029
494.50 1.029
494.60 1.029
494.70 1.028
494.80 1.028
494.90 1.028
495.00 1.027
495.10 1.027
495.20 1.027
495.30 1.026
495.40 1.026
495.50 1.025
495.60 1.025
495.70 1.024
495.80 1.024
495.90 1.023
496.00 1.023
496.10 1.023
496.20 1.022
496.30 1.022
496.40 1.021
496.50 1.021
496.60 1.02
496.70 1.02
496.80 1.019
496.90 1.019
497.00 1.018
497.10 1.017
497.20 1.017
497.30 1.016
497.40 1.016
497.50 1.015
497.60 1.015
497.70 1.014
497.80 1.014
497.90 1.013
498.00 1.012
498.10 1.012
498.20 1.011
498.30 1.011
498.40 1.01
498.50 1.009
498.60 1.009
498.70 1.008
498.80 1.008
498.90 1.007
499.00 1.006
499.10 1.006
499.20 1.005
499.30 1.004
499.40 1.004
499.50 1.003
499.60 1.003
499.70 1.002
499.80 1.001
499.90 1.001
500.00 1
500.10 0.9994
500.20 0.9987
500.30 0.998
500.40 0.9974
500.50 0.9967
500.60 0.9961
500.70 0.9954
500.80 0.9948
500.90 0.9941
501.00 0.9934
501.10 0.9928
501.20 0.9921
501.30 0.9914
501.40 0.9908
501.50 0.9901
501.60 0.9894
501.70 0.9887
501.80 0.9881
501.90 0.9874
502.00 0.9867
502.10 0.9861
502.20 0.9854
502.30 0.9847
502.40 0.984
502.50 0.9833
502.60 0.9826
502.70 0.982
502.80 0.9813
502.90 0.9806
503.00 0.9799
503.10 0.9792
503.20 0.9786
503.30 0.9779
503.40 0.9772
503.50 0.9765
503.60 0.9758
503.70 0.9751
503.80 0.9744
503.90 0.9737
504.00 0.9731
504.10 0.9724
504.20 0.9717
504.30 0.971
504.40 0.9703
504.50 0.9696
504.60 0.9689
504.70 0.9682
504.80 0.9675
504.90 0.9668
505.00 0.9662
505.10 0.9655
505.20 0.9648
505.30 0.9641
505.40 0.9634
505.50 0.9627
505.60 0.962
505.70 0.9613
505.80 0.9606
505.90 0.9599
506.00 0.9592
506.10 0.9585
506.20 0.9579
506.30 0.9572
506.40 0.9565
506.50 0.9558
506.60 0.9551
506.70 0.9544
506.80 0.9537
506.90 0.953
507.00 0.9523
507.10 0.9516
507.20 0.9509
507.30 0.9502
507.40 0.9496
507.50 0.9489
507.60 0.9482
507.70 0.9475
507.80 0.9468
507.90 0.9461
508.00 0.9454
508.10 0.9447
508.20 0.944
508.30 0.9433
508.40 0.9427
508.50 0.942
508.60 0.9413
508.70 0.9406
508.80 0.9399
508.90 0.9392
509.00 0.9385
509.10 0.9379
509.20 0.9372
509.30 0.9365
509.40 0.9358
509.50 0.9351
509.60 0.9344
509.70 0.9337
509.80 0.9331
509.90 0.9324
510.00 0.9317
510.10 0.931
510.20 0.9303
510.30 0.9296
510.40 0.929
510.50 0.9283
510.60 0.9276
510.70 0.9269
510.80 0.9262
510.90 0.9256
511.00 0.9249
511.10 0.9242
511.20 0.9235
511.30 0.9228
511.40 0.9222
511.50 0.9215
511.60 0.9208
511.70 0.9201
511.80 0.9194
511.90 0.9188
512.00 0.9181
512.10 0.9174
512.20 0.9167
512.30 0.9161
512.40 0.9154
512.50 0.9147
512.60 0.9141
512.70 0.9134
512.80 0.9127
512.90 0.912
513.00 0.9114
513.10 0.9107
513.20 0.91
513.30 0.9094
513.40 0.9087
513.50 0.908
513.60 0.9073
513.70 0.9067
513.80 0.906
513.90 0.9053
514.00 0.9047
514.10 0.904
514.20 0.9034
514.30 0.9027
514.40 0.902
514.50 0.9014
514.60 0.9007
514.70 0.9
514.80 0.8994
514.90 0.8987
515.00 0.898
515.10 0.8974
515.20 0.8967
515.30 0.8961
515.40 0.8954
515.50 0.8947
515.60 0.8941
515.70 0.8934
515.80 0.8928
515.90 0.8921
516.00 0.8915
516.10 0.8908
516.20 0.8901
516.30 0.8895
516.40 0.8888
516.50 0.8882
516.60 0.8875
516.70 0.8869
516.80 0.8862
516.90 0.8856
517.00 0.8849
517.10 0.8843
517.20 0.8836
517.30 0.883
517.40 0.8823
517.50 0.8817
517.60 0.881
517.70 0.8804
517.80 0.8797
517.90 0.8791
518.00 0.8784
518.10 0.8778
518.20 0.8771
518.30 0.8765
518.40 0.8759
518.50 0.8752
518.60 0.8746
518.70 0.8739
518.80 0.8733
518.90 0.8727
519.00 0.872
519.10 0.8714
519.20 0.8707
519.30 0.8701
519.40 0.8695
519.50 0.8688
519.60 0.8682
519.70 0.8675
519.80 0.8669
519.90 0.8663
520.00 0.8656
520.10 0.865
520.20 0.8644
520.30 0.8637
520.40 0.8631
520.50 0.8625
520.60 0.8618
520.70 0.8612
520.80 0.8606
520.90 0.8599
521.00 0.8593
521.10 0.8587
521.20 0.858
521.30 0.8574
521.40 0.8568
521.50 0.8562
521.60 0.8555
521.70 0.8549
521.80 0.8543
521.90 0.8537
522.00 0.853
522.10 0.8524
522.20 0.8518
522.30 0.8512
522.40 0.8505
522.50 0.8499
522.60 0.8493
522.70 0.8487
522.80 0.8481
522.90 0.8474
523.00 0.8468
523.10 0.8462
523.20 0.8456
523.30 0.845
523.40 0.8443
523.50 0.8437
523.60 0.8431
523.70 0.8425
523.80 0.8419
523.90 0.8413
524.00 0.8406
524.10 0.84
524.20 0.8394
524.30 0.8388
524.40 0.8382
524.50 0.8376
524.60 0.837
524.70 0.8364
524.80 0.8358
524.90 0.8351
525.00 0.8345
525.10 0.8339
525.20 0.8333
525.30 0.8327
525.40 0.8321
525.50 0.8315
525.60 0.8309
525.70 0.8303
525.80 0.8297
525.90 0.8291
526.00 0.8285
526.10 0.8279
526.20 0.8273
526.30 0.8267
526.40 0.8261
526.50 0.8255
526.60 0.8249
526.70 0.8243
526.80 0.8237
526.90 0.8231
527.00 0.8225
527.10 0.8219
527.20 0.8213
527.30 0.8207
527.40 0.8201
527.50 0.8195
527.60 0.8189
527.70 0.8183
527.80 0.8177
527.90 0.8171
528.00 0.8165
528.10 0.8159
528.20 0.8153
528.30 0.8147
528.40 0.8141
528.50 0.8136
528.60 0.813
528.70 0.8124
528.80 0.8118
528.90 0.8112
529.00 0.8106
529.10 0.81
529.20 0.8094
529.30 0.8089
529.40 0.8083
529.50 0.8077
529.60 0.8071
529.70 0.8065
529.80 0.8059
529.90 0.8053
530.00 0.8048
530.10 0.8042
530.20 0.8036
530.30 0.803
530.40 0.8024
530.50 0.8019
530.60 0.8013
530.70 0.8007
530.80 0.8001
530.90 0.7995
531.00 0.799
531.10 0.7984
531.20 0.7978
531.30 0.7972
531.40 0.7967
531.50 0.7961
531.60 0.7955
531.70 0.7949
531.80 0.7944
531.90 0.7938
532.00 0.7932
532.10 0.7926
532.20 0.7921
532.30 0.7915
532.40 0.7909
532.50 0.7904
532.60 0.7898
532.70 0.7892
532.80 0.7887
532.90 0.7881
533.00 0.7875
533.10 0.7869
533.20 0.7864
533.30 0.7858
533.40 0.7852
533.50 0.7847
533.60 0.7841
533.70 0.7836
533.80 0.783
533.90 0.7824
534.00 0.7819
534.10 0.7813
534.20 0.7807
534.30 0.7802
534.40 0.7796
534.50 0.7791
534.60 0.7785
534.70 0.7779
534.80 0.7774
534.90 0.7768
535.00 0.7763
535.10 0.7757
535.20 0.7752
535.30 0.7746
535.40 0.774
535.50 0.7735
535.60 0.7729
535.70 0.7724
535.80 0.7718
535.90 0.7713
536.00 0.7707
536.10 0.7702
536.20 0.7696
536.30 0.7691
536.40 0.7685
536.50 0.768
536.60 0.7674
536.70 0.7669
536.80 0.7663
536.90 0.7658
537.00 0.7652
537.10 0.7647
537.20 0.7641
537.30 0.7636
537.40 0.763
537.50 0.7625
537.60 0.7619
537.70 0.7614
537.80 0.7609
537.90 0.7603
538.00 0.7598
538.10 0.7592
538.20 0.7587
538.30 0.7581
538.40 0.7576
538.50 0.7571
538.60 0.7565
538.70 0.756
538.80 0.7554
538.90 0.7549
539.00 0.7544
539.10 0.7538
539.20 0.7533
539.30 0.7527
539.40 0.7522
539.50 0.7517
539.60 0.7511
539.70 0.7506
539.80 0.7501
539.90 0.7495
540.00 0.749
540.10 0.7485
540.20 0.7479
540.30 0.7474
540.40 0.7469
540.50 0.7463
540.60 0.7458
540.70 0.7453
540.80 0.7448
540.90 0.7442
541.00 0.7437
541.10 0.7432
541.20 0.7426
541.30 0.7421
541.40 0.7416
541.50 0.7411
541.60 0.7405
541.70 0.74
541.80 0.7395
541.90 0.739
542.00 0.7384
542.10 0.7379
542.20 0.7374
542.30 0.7369
542.40 0.7363
542.50 0.7358
542.60 0.7353
542.70 0.7348
542.80 0.7343
542.90 0.7337
543.00 0.7332
543.10 0.7327
543.20 0.7322
543.30 0.7317
543.40 0.7311
543.50 0.7306
543.60 0.7301
543.70 0.7296
543.80 0.7291
543.90 0.7286
544.00 0.728
544.10 0.7275
544.20 0.727
544.30 0.7265
544.40 0.726
544.50 0.7255
544.60 0.725
544.70 0.7245
544.80 0.7239
544.90 0.7234
545.00 0.7229
545.10 0.7224
545.20 0.7219
545.30 0.7214
545.40 0.7209
545.50 0.7204
545.60 0.7199
545.70 0.7194
545.80 0.7189
545.90 0.7183
546.00 0.7178
546.10 0.7173
546.20 0.7168
546.30 0.7163
546.40 0.7158
546.50 0.7153
546.60 0.7148
546.70 0.7143
546.80 0.7138
546.90 0.7133
547.00 0.7128
547.10 0.7123
547.20 0.7118
547.30 0.7113
547.40 0.7108
547.50 0.7103
547.60 0.7098
547.70 0.7093
547.80 0.7088
547.90 0.7083
548.00 0.7078
548.10 0.7073
548.20 0.7068
548.30 0.7063
548.40 0.7058
548.50 0.7053
548.60 0.7048
548.70 0.7043
548.80 0.7038
548.90 0.7033
549.00 0.7029
549.10 0.7024
549.20 0.7019
549.30 0.7014
549.40 0.7009
549.50 0.7004
549.60 0.6999
549.70 0.6994
549.80 0.6989
549.90 0.6984
550.00 0.6979
550.10 0.6975
550.20 0.697
550.30 0.6965
550.40 0.696
550.50 0.6955
550.60 0.695
550.70 0.6945
550.80 0.6941
550.90 0.6936
551.00 0.6931
551.10 0.6926
551.20 0.6921
551.30 0.6916
551.40 0.6912
551.50 0.6907
551.60 0.6902
551.70 0.6897
551.80 0.6892
551.90 0.6887
552.00 0.6883
552.10 0.6878
552.20 0.6873
552.30 0.6868
552.40 0.6863
552.50 0.6859
552.60 0.6854
552.70 0.6849
552.80 0.6844
552.90 0.684
553.00 0.6835
553.10 0.683
553.20 0.6825
553.30 0.6821
553.40 0.6816
553.50 0.6811
553.60 0.6806
553.70 0.6802
553.80 0.6797
553.90 0.6792
554.00 0.6787
554.10 0.6783
554.20 0.6778
554.30 0.6773
554.40 0.6769
554.50 0.6764
554.60 0.6759
554.70 0.6755
554.80 0.675
554.90 0.6745
555.00 0.674
555.10 0.6736
555.20 0.6731
555.30 0.6726
555.40 0.6722
555.50 0.6717
555.60 0.6712
555.70 0.6708
555.80 0.6703
555.90 0.6699
556.00 0.6694
556.10 0.6689
556.20 0.6685
556.30 0.668
556.40 0.6675
556.50 0.6671
556.60 0.6666
556.70 0.6662
556.80 0.6657
556.90 0.6652
557.00 0.6648
557.10 0.6643
557.20 0.6639
557.30 0.6634
557.40 0.6629
557.50 0.6625
557.60 0.662
557.70 0.6616
557.80 0.6611
557.90 0.6606
558.00 0.6602
558.10 0.6597
558.20 0.6593
558.30 0.6588
558.40 0.6584
558.50 0.6579
558.60 0.6575
558.70 0.657
558.80 0.6566
558.90 0.6561
559.00 0.6557
559.10 0.6552
559.20 0.6547
559.30 0.6543
559.40 0.6538
559.50 0.6534
559.60 0.6529
559.70 0.6525
559.80 0.652
559.90 0.6516
560.00 0.6512
560.10 0.6507
560.20 0.6503
560.30 0.6498
560.40 0.6494
560.50 0.6489
560.60 0.6485
560.70 0.648
560.80 0.6476
560.90 0.6471
561.00 0.6467
561.10 0.6462
561.20 0.6458
561.30 0.6454
561.40 0.6449
561.50 0.6445
561.60 0.644
561.70 0.6436
561.80 0.6431
561.90 0.6427
562.00 0.6423
562.10 0.6418
562.20 0.6414
562.30 0.6409
562.40 0.6405
562.50 0.6401
562.60 0.6396
562.70 0.6392
562.80 0.6388
562.90 0.6383
563.00 0.6379
563.10 0.6374
563.20 0.637
563.30 0.6366
563.40 0.6361
563.50 0.6357
563.60 0.6353
563.70 0.6348
563.80 0.6344
563.90 0.634
564.00 0.6335
564.10 0.6331
564.20 0.6327
564.30 0.6322
564.40 0.6318
564.50 0.6314
564.60 0.6309
564.70 0.6305
564.80 0.6301
564.90 0.6297
565.00 0.6292
565.10 0.6288
565.20 0.6284
565.30 0.6279
565.40 0.6275
565.50 0.6271
565.60 0.6267
565.70 0.6262
565.80 0.6258
565.90 0.6254
566.00 0.6249
566.10 0.6245
566.20 0.6241
566.30 0.6237
566.40 0.6232
566.50 0.6228
566.60 0.6224
566.70 0.622
566.80 0.6216
566.90 0.6211
567.00 0.6207
567.10 0.6203
567.20 0.6199
567.30 0.6194
567.40 0.619
567.50 0.6186
567.60 0.6182
567.70 0.6178
567.80 0.6173
567.90 0.6169
568.00 0.6165
568.10 0.6161
568.20 0.6157
568.30 0.6153
568.40 0.6148
568.50 0.6144
568.60 0.614
568.70 0.6136
568.80 0.6132
568.90 0.6128
569.00 0.6123
569.10 0.6119
569.20 0.6115
569.30 0.6111
569.40 0.6107
569.50 0.6103
569.60 0.6099
569.70 0.6094
569.80 0.609
569.90 0.6086
570.00 0.6082
570.10 0.6078
570.20 0.6074
570.30 0.607
570.40 0.6066
570.50 0.6062
570.60 0.6057
570.70 0.6053
570.80 0.6049
570.90 0.6045
571.00 0.6041
571.10 0.6037
571.20 0.6033
571.30 0.6029
571.40 0.6025
571.50 0.6021
571.60 0.6017
571.70 0.6013
571.80 0.6009
571.90 0.6004
572.00 0.6
572.10 0.5996
572.20 0.5992
572.30 0.5988
572.40 0.5984
572.50 0.598
572.60 0.5976
572.70 0.5972
572.80 0.5968
572.90 0.5964
573.00 0.596
573.10 0.5956
573.20 0.5952
573.30 0.5948
573.40 0.5944
573.50 0.594
573.60 0.5936
573.70 0.5932
573.80 0.5928
573.90 0.5924
574.00 0.592
574.10 0.5916
574.20 0.5912
574.30 0.5908
574.40 0.5904
574.50 0.59
574.60 0.5896
574.70 0.5892
574.80 0.5888
574.90 0.5885
575.00 0.5881
575.10 0.5877
575.20 0.5873
575.30 0.5869
575.40 0.5865
575.50 0.5861
575.60 0.5857
575.70 0.5853
575.80 0.5849
575.90 0.5845
576.00 0.5841
576.10 0.5837
576.20 0.5833
576.30 0.583
576.40 0.5826
576.50 0.5822
576.60 0.5818
576.70 0.5814
576.80 0.581
576.90 0.5806
577.00 0.5802
577.10 0.5798
577.20 0.5795
577.30 0.5791
577.40 0.5787
577.50 0.5783
577.60 0.5779
577.70 0.5775
577.80 0.5771
577.90 0.5768
578.00 0.5764
578.10 0.576
578.20 0.5756
578.30 0.5752
578.40 0.5748
578.50 0.5744
578.60 0.5741
578.70 0.5737
578.80 0.5733
578.90 0.5729
579.00 0.5725
579.10 0.5722
579.20 0.5718
579.30 0.5714
579.40 0.571
579.50 0.5706
579.60 0.5702
579.70 0.5699
579.80 0.5695
579.90 0.5691
580.00 0.5687
580.10 0.5684
580.20 0.568
580.30 0.5676
580.40 0.5672
580.50 0.5668
580.60 0.5665
580.70 0.5661
580.80 0.5657
580.90 0.5653
581.00 0.565
581.10 0.5646
581.20 0.5642
581.30 0.5638
581.40 0.5635
581.50 0.5631
581.60 0.5627
581.70 0.5623
581.80 0.562
581.90 0.5616
582.00 0.5612
582.10 0.5609
582.20 0.5605
582.30 0.5601
582.40 0.5597
582.50 0.5594
582.60 0.559
582.70 0.5586
582.80 0.5583
582.90 0.5579
583.00 0.5575
583.10 0.5572
583.20 0.5568
583.30 0.5564
583.40 0.556
583.50 0.5557
583.60 0.5553
583.70 0.5549
583.80 0.5546
583.90 0.5542
584.00 0.5538
584.10 0.5535
584.20 0.5531
584.30 0.5527
584.40 0.5524
584.50 0.552
584.60 0.5517
584.70 0.5513
584.80 0.5509
584.90 0.5506
585.00 0.5502
585.10 0.5498
585.20 0.5495
585.30 0.5491
585.40 0.5487
585.50 0.5484
585.60 0.548
585.70 0.5477
585.80 0.5473
585.90 0.5469
586.00 0.5466
586.10 0.5462
586.20 0.5459
586.30 0.5455
586.40 0.5451
586.50 0.5448
586.60 0.5444
586.70 0.5441
586.80 0.5437
586.90 0.5433
587.00 0.543
587.10 0.5426
587.20 0.5423
587.30 0.5419
587.40 0.5416
587.50 0.5412
587.60 0.5409
587.70 0.5405
587.80 0.5401
587.90 0.5398
588.00 0.5394
588.10 0.5391
588.20 0.5387
588.30 0.5384
588.40 0.538
588.50 0.5377
588.60 0.5373
588.70 0.537
588.80 0.5366
588.90 0.5363
589.00 0.5359
589.10 0.5356
589.20 0.5352
589.30 0.5349
589.40 0.5345
589.50 0.5342
589.60 0.5338
589.70 0.5335
589.80 0.5331
589.90 0.5328
590.00 0.5324
590.10 0.5321
590.20 0.5317
590.30 0.5314
590.40 0.531
590.50 0.5307
590.60 0.5303
590.70 0.53
590.80 0.5296
590.90 0.5293
591.00 0.5289
591.10 0.5286
591.20 0.5282
591.30 0.5279
591.40 0.5276
591.50 0.5272
591.60 0.5269
591.70 0.5265
591.80 0.5262
591.90 0.5258
592.00 0.5255
592.10 0.5251
592.20 0.5248
592.30 0.5245
592.40 0.5241
592.50 0.5238
592.60 0.5234
592.70 0.5231
592.80 0.5228
592.90 0.5224
593.00 0.5221
593.10 0.5217
593.20 0.5214
593.30 0.5211
593.40 0.5207
593.50 0.5204
593.60 0.52
593.70 0.5197
593.80 0.5194
593.90 0.519
594.00 0.5187
594.10 0.5183
594.20 0.518
594.30 0.5177
594.40 0.5173
594.50 0.517
594.60 0.5167
594.70 0.5163
594.80 0.516
594.90 0.5157
595.00 0.5153
595.10 0.515
595.20 0.5147
595.30 0.5143
595.40 0.514
595.50 0.5137
595.60 0.5133
595.70 0.513
595.80 0.5127
595.90 0.5123
596.00 0.512
596.10 0.5117
596.20 0.5113
596.30 0.511
596.40 0.5107
596.50 0.5103
596.60 0.51
596.70 0.5097
596.80 0.5093
596.90 0.509
597.00 0.5087
597.10 0.5084
597.20 0.508
597.30 0.5077
597.40 0.5074
597.50 0.507
597.60 0.5067
597.70 0.5064
597.80 0.5061
597.90 0.5057
598.00 0.5054
598.10 0.5051
598.20 0.5047
598.30 0.5044
598.40 0.5041
598.50 0.5038
598.60 0.5034
598.70 0.5031
598.80 0.5028
598.90 0.5025
599.00 0.5021
599.10 0.5018
599.20 0.5015
599.30 0.5012
599.40 0.5008
599.50 0.5005
599.60 0.5002
599.70 0.4999
599.80 0.4996
599.90 0.4992
600.00 0.4989
600.10 0.4986
600.20 0.4983
600.30 0.498
600.40 0.4976
600.50 0.4973
600.60 0.497
600.70 0.4967
600.80 0.4963
600.90 0.496
601.00 0.4957
601.10 0.4954
601.20 0.4951
601.30 0.4948
601.40 0.4944
601.50 0.4941
601.60 0.4938
601.70 0.4935
601.80 0.4932
601.90 0.4929
602.00 0.4925
602.10 0.4922
602.20 0.4919
602.30 0.4916
602.40 0.4913
602.50 0.491
602.60 0.4906
602.70 0.4903
602.80 0.49
602.90 0.4897
603.00 0.4894
603.10 0.4891
603.20 0.4888
603.30 0.4884
603.40 0.4881
603.50 0.4878
603.60 0.4875
603.70 0.4872
603.80 0.4869
603.90 0.4866
604.00 0.4863
604.10 0.4859
604.20 0.4856
604.30 0.4853
604.40 0.485
604.50 0.4847
604.60 0.4844
604.70 0.4841
604.80 0.4838
604.90 0.4835
605.00 0.4831
605.10 0.4828
605.20 0.4825
605.30 0.4822
605.40 0.4819
605.50 0.4816
605.60 0.4813
605.70 0.481
605.80 0.4807
605.90 0.4804
606.00 0.4801
606.10 0.4798
606.20 0.4795
606.30 0.4791
606.40 0.4788
606.50 0.4785
606.60 0.4782
606.70 0.4779
606.80 0.4776
606.90 0.4773
607.00 0.477
607.10 0.4767
607.20 0.4764
607.30 0.4761
607.40 0.4758
607.50 0.4755
607.60 0.4752
607.70 0.4749
607.80 0.4746
607.90 0.4743
608.00 0.474
608.10 0.4737
608.20 0.4734
608.30 0.4731
608.40 0.4728
608.50 0.4725
608.60 0.4722
608.70 0.4719
608.80 0.4716
608.90 0.4713
609.00 0.471
609.10 0.4707
609.20 0.4704
609.30 0.4701
609.40 0.4698
609.50 0.4695
609.60 0.4692
609.70 0.4689
609.80 0.4686
609.90 0.4683
610.00 0.468
610.10 0.4677
610.20 0.4674
610.30 0.4671
610.40 0.4668
610.50 0.4665
610.60 0.4662
610.70 0.4659
610.80 0.4656
610.90 0.4653
611.00 0.465
611.10 0.4647
611.20 0.4644
611.30 0.4641
611.40 0.4638
611.50 0.4636
611.60 0.4633
611.70 0.463
611.80 0.4627
611.90 0.4624
612.00 0.4621
612.10 0.4618
612.20 0.4615
612.30 0.4612
612.40 0.4609
612.50 0.4606
612.60 0.4603
612.70 0.46
612.80 0.4597
612.90 0.4595
613.00 0.4592
613.10 0.4589
613.20 0.4586
613.30 0.4583
613.40 0.458
613.50 0.4577
613.60 0.4574
613.70 0.4571
613.80 0.4568
613.90 0.4566
614.00 0.4563
614.10 0.456
614.20 0.4557
614.30 0.4554
614.40 0.4551
614.50 0.4548
614.60 0.4545
614.70 0.4543
614.80 0.454
614.90 0.4537
615.00 0.4534
615.10 0.4531
615.20 0.4528
615.30 0.4525
615.40 0.4523
615.50 0.452
615.60 0.4517
615.70 0.4514
615.80 0.4511
615.90 0.4508
616.00 0.4505
616.10 0.4503
616.20 0.45
616.30 0.4497
616.40 0.4494
616.50 0.4491
616.60 0.4488
616.70 0.4486
616.80 0.4483
616.90 0.448
617.00 0.4477
617.10 0.4474
617.20 0.4472
617.30 0.4469
617.40 0.4466
617.50 0.4463
617.60 0.446
617.70 0.4457
617.80 0.4455
617.90 0.4452
618.00 0.4449
618.10 0.4446
618.20 0.4443
618.30 0.4441
618.40 0.4438
618.50 0.4435
618.60 0.4432
618.70 0.4429
618.80 0.4427
618.90 0.4424
619.00 0.4421
619.10 0.4418
619.20 0.4416
619.30 0.4413
619.40 0.441
619.50 0.4407
619.60 0.4405
619.70 0.4402
619.80 0.4399
619.90 0.4396
620.00 0.4393
620.10 0.4391
620.20 0.4388
620.30 0.4385
620.40 0.4382
620.50 0.438
620.60 0.4377
620.70 0.4374
620.80 0.4371
620.90 0.4369
621.00 0.4366
621.10 0.4363
621.20 0.436
621.30 0.4358
621.40 0.4355
621.50 0.4352
621.60 0.435
621.70 0.4347
621.80 0.4344
621.90 0.4341
622.00 0.4339
622.10 0.4336
622.20 0.4333
622.30 0.4331
622.40 0.4328
622.50 0.4325
622.60 0.4322
622.70 0.432
622.80 0.4317
622.90 0.4314
623.00 0.4312
623.10 0.4309
623.20 0.4306
623.30 0.4303
623.40 0.4301
623.50 0.4298
623.60 0.4295
623.70 0.4293
623.80 0.429
623.90 0.4287
624.00 0.4285
624.10 0.4282
624.20 0.4279
624.30 0.4277
624.40 0.4274
624.50 0.4271
624.60 0.4269
624.70 0.4266
624.80 0.4263
624.90 0.4261
625.00 0.4258
625.10 0.4255
625.20 0.4253
625.30 0.425
625.40 0.4247
625.50 0.4245
625.60 0.4242
625.70 0.4239
625.80 0.4237
625.90 0.4234
626.00 0.4231
626.10 0.4229
626.20 0.4226
626.30 0.4223
626.40 0.4221
626.50 0.4218
626.60 0.4215
626.70 0.4213
626.80 0.421
626.90 0.4208
627.00 0.4205
627.10 0.4202
627.20 0.42
627.30 0.4197
627.40 0.4194
627.50 0.4192
627.60 0.4189
627.70 0.4186
627.80 0.4184
627.90 0.4181
628.00 0.4179
628.10 0.4176
628.20 0.4173
628.30 0.4171
628.40 0.4168
628.50 0.4166
628.60 0.4163
628.70 0.416
628.80 0.4158
628.90 0.4155
629.00 0.4153
629.10 0.415
629.20 0.4147
629.30 0.4145
629.40 0.4142
629.50 0.414
629.60 0.4137
629.70 0.4134
629.80 0.4132
629.90 0.4129
630.00 0.4127
630.10 0.4124
630.20 0.4121
630.30 0.4119
630.40 0.4116
630.50 0.4114
630.60 0.4111
630.70 0.4109
630.80 0.4106
630.90 0.4103
631.00 0.4101
631.10 0.4098
631.20 0.4096
631.30 0.4093
631.40 0.4091
631.50 0.4088
631.60 0.4085
631.70 0.4083
631.80 0.408
631.90 0.4078
632.00 0.4075
632.10 0.4073
632.20 0.407
632.30 0.4067
632.40 0.4065
632.50 0.4062
632.60 0.406
632.70 0.4057
632.80 0.4055
632.90 0.4052
633.00 0.405
633.10 0.4047
633.20 0.4044
633.30 0.4042
633.40 0.4039
633.50 0.4037
633.60 0.4034
633.70 0.4032
633.80 0.4029
633.90 0.4027
634.00 0.4024
634.10 0.4022
634.20 0.4019
634.30 0.4016
634.40 0.4014
634.50 0.4011
634.60 0.4009
634.70 0.4006
634.80 0.4004
634.90 0.4001
635.00 0.3999
635.10 0.3996
635.20 0.3994
635.30 0.3991
635.40 0.3988
635.50 0.3986
635.60 0.3983
635.70 0.3981
635.80 0.3978
635.90 0.3976
636.00 0.3973
636.10 0.3971
636.20 0.3968
636.30 0.3966
636.40 0.3963
636.50 0.3961
636.60 0.3958
636.70 0.3956
636.80 0.3953
636.90 0.395
637.00 0.3948
637.10 0.3945
637.20 0.3943
637.30 0.394
637.40 0.3938
637.50 0.3935
637.60 0.3933
637.70 0.393
637.80 0.3928
637.90 0.3925
638.00 0.3923
638.10 0.392
638.20 0.3917
638.30 0.3915
638.40 0.3912
638.50 0.391
638.60 0.3907
638.70 0.3905
638.80 0.3902
638.90 0.39
639.00 0.3897
639.10 0.3895
639.20 0.3892
639.30 0.3889
639.40 0.3887
639.50 0.3884
639.60 0.3882
639.70 0.3879
639.80 0.3877
639.90 0.3874
640.00 0.3872
640.10 0.3869
640.20 0.3866
640.30 0.3864
640.40 0.3861
640.50 0.3859
640.60 0.3856
640.70 0.3854
640.80 0.3851
640.90 0.3848
641.00 0.3846
641.10 0.3843
641.20 0.3841
641.30 0.3838
641.40 0.3835
641.50 0.3833
641.60 0.383
641.70 0.3828
641.80 0.3825
641.90 0.3822
642.00 0.382
642.10 0.3817
642.20 0.3814
642.30 0.3812
642.40 0.3809
642.50 0.3806
642.60 0.3804
642.70 0.3801
642.80 0.3798
642.90 0.3796
643.00 0.3793
643.10 0.379
643.20 0.3788
643.30 0.3785
643.40 0.3782
643.50 0.378
643.60 0.3777
643.70 0.3774
643.80 0.3771
643.90 0.3769
644.00 0.3766
644.10 0.3763
644.20 0.3761
644.30 0.3758
644.40 0.3755
644.50 0.3752
644.60 0.3749
644.70 0.3746
644.80 0.3744
644.90 0.3741
645.00 0.3738
645.10 0.3735
645.20 0.3732
645.30 0.3729
645.40 0.3726
645.50 0.3724
645.60 0.3721
645.70 0.3718
645.80 0.3715
645.90 0.3712
646.00 0.3709
646.10 0.3706
646.20 0.3703
646.30 0.37
646.40 0.3697
646.50 0.3694
646.60 0.369
646.70 0.3687
646.80 0.3684
646.90 0.3681
647.00 0.3678
647.10 0.3675
647.20 0.3672
647.30 0.3668
647.40 0.3665
647.50 0.3662
647.60 0.3658
647.70 0.3655
647.80 0.3651
647.90 0.3648
648.00 0.3645
648.10 0.3641
648.20 0.3638
648.30 0.3634
648.40 0.3631
648.50 0.3627
648.60 0.3623
648.70 0.362
648.80 0.3616
648.90 0.3612
649.00 0.3608
649.10 0.3605
649.20 0.3601
649.30 0.3597
649.40 0.3593
649.50 0.3589
649.60 0.3585
649.70 0.358
649.80 0.3576
649.90 0.3572
650.00 0.3568
650.10 0.3564
650.20 0.356
650.30 0.3555
650.40 0.355
650.50 0.3546
650.60 0.3541
650.70 0.3536
650.80 0.3531
650.90 0.3526
651.00 0.3522
651.10 0.3517
651.20 0.3512
651.30 0.3507
651.40 0.3501
651.50 0.3496
651.60 0.349
651.70 0.3484
651.80 0.3479
651.90 0.3473
652.00 0.3468
652.10 0.3462
652.20 0.3456
652.30 0.345
652.40 0.3444
652.50 0.3437
652.60 0.343
652.70 0.3424
652.80 0.3417
652.90 0.341
653.00 0.3404
653.10 0.3397
653.20 0.339
653.30 0.3383
653.40 0.3375
653.50 0.3368
653.60 0.336
653.70 0.3352
653.80 0.3344
653.90 0.3336
654.00 0.3328
654.10 0.332
654.20 0.3312
654.30 0.3304
654.40 0.3296
654.50 0.3287
654.60 0.3278
654.70 0.3269
654.80 0.3261
654.90 0.3252
655.00 0.3243
655.10 0.3234
655.20 0.3225
655.30 0.3216
655.40 0.3207
655.50 0.3199
655.60 0.3191
655.70 0.3183
655.80 0.3178
655.90 0.3174
656.00 0.318
656.10 0.319
656.20 0.3279
656.30 0.3406
656.40 0.3224
656.50 0.3177
656.60 0.3167
656.70 0.3159
656.80 0.3161
656.90 0.3164
657.00 0.3168
657.10 0.3172
657.20 0.3177
657.30 0.3182
657.40 0.3188
657.50 0.3193
657.60 0.3198
657.70 0.3203
657.80 0.3208
657.90 0.3213
658.00 0.3218
658.10 0.3223
658.20 0.3228
658.30 0.3233
658.40 0.3237
658.50 0.3241
658.60 0.3244
658.70 0.3248
658.80 0.3252
658.90 0.3256
659.00 0.326
659.10 0.3264
659.20 0.3268
659.30 0.3272
659.40 0.3275
659.50 0.3277
659.60 0.328
659.70 0.3282
659.80 0.3285
659.90 0.3288
660.00 0.329
660.10 0.3293
660.20 0.3296
660.30 0.3298
660.40 0.3299
660.50 0.3301
660.60 0.3302
660.70 0.3304
660.80 0.3305
660.90 0.3307
661.00 0.3308
661.10 0.331
661.20 0.3311
661.30 0.3313
661.40 0.3313
661.50 0.3314
661.60 0.3315
661.70 0.3315
661.80 0.3316
661.90 0.3316
662.00 0.3317
662.10 0.3318
662.20 0.3318
662.30 0.3319
662.40 0.3319
662.50 0.3319
662.60 0.3319
662.70 0.3319
662.80 0.3319
662.90 0.3319
663.00 0.3319
663.10 0.3318
663.20 0.3318
663.30 0.3318
663.40 0.3318
663.50 0.3317
663.60 0.3317
663.70 0.3316
663.80 0.3316
663.90 0.3315
664.00 0.3315
664.10 0.3314
664.20 0.3314
664.30 0.3313
664.40 0.3312
664.50 0.3311
664.60 0.331
664.70 0.331
664.80 0.3309
664.90 0.3308
665.00 0.3307
665.10 0.3306
665.20 0.3305
665.30 0.3304
665.40 0.3303
665.50 0.3302
665.60 0.3301
665.70 0.33
665.80 0.3299
665.90 0.3298
666.00 0.3297
666.10 0.3295
666.20 0.3294
666.30 0.3293
666.40 0.3292
666.50 0.3291
666.60 0.3289
666.70 0.3288
666.80 0.3287
666.90 0.3285
667.00 0.3284
667.10 0.3283
667.20 0.3282
667.30 0.328
667.40 0.3279
667.50 0.3277
667.60 0.3276
667.70 0.3275
667.80 0.3273
667.90 0.3272
668.00 0.327
668.10 0.3269
668.20 0.3267
668.30 0.3266
668.40 0.3264
668.50 0.3263
668.60 0.3261
668.70 0.326
668.80 0.3258
668.90 0.3257
669.00 0.3255
669.10 0.3254
669.20 0.3252
669.30 0.3251
669.40 0.3249
669.50 0.3248
669.60 0.3246
669.70 0.3245
669.80 0.3243
669.90 0.3241
670.00 0.324
670.10 0.3238
670.20 0.3237
670.30 0.3235
670.40 0.3234
670.50 0.3232
670.60 0.323
670.70 0.3229
670.80 0.3227
670.90 0.3225
671.00 0.3224
671.10 0.3222
671.20 0.3221
671.30 0.3219
671.40 0.3217
671.50 0.3216
671.60 0.3214
671.70 0.3212
671.80 0.3211
671.90 0.3209
672.00 0.3207
672.10 0.3206
672.20 0.3204
672.30 0.3202
672.40 0.3201
672.50 0.3199
672.60 0.3197
672.70 0.3196
672.80 0.3194
672.90 0.3192
673.00 0.3191
673.10 0.3189
673.20 0.3187
673.30 0.3186
673.40 0.3184
673.50 0.3182
673.60 0.318
673.70 0.3179
673.80 0.3177
673.90 0.3175
674.00 0.3174
674.10 0.3172
674.20 0.317
674.30 0.3169
674.40 0.3167
674.50 0.3165
674.60 0.3163
674.70 0.3162
674.80 0.316
674.90 0.3158
675.00 0.3157
675.10 0.3155
675.20 0.3153
675.30 0.3152
675.40 0.315
675.50 0.3148
675.60 0.3146
675.70 0.3145
675.80 0.3143
675.90 0.3141
676.00 0.314
676.10 0.3138
676.20 0.3136
676.30 0.3134
676.40 0.3133
676.50 0.3131
676.60 0.3129
676.70 0.3128
676.80 0.3126
676.90 0.3124
677.00 0.3122
677.10 0.3121
677.20 0.3119
677.30 0.3117
677.40 0.3116
677.50 0.3114
677.60 0.3112
677.70 0.311
677.80 0.3109
677.90 0.3107
678.00 0.3105
678.10 0.3104
678.20 0.3102
678.30 0.31
678.40 0.3098
678.50 0.3097
678.60 0.3095
678.70 0.3093
678.80 0.3092
678.90 0.309
679.00 0.3088
679.10 0.3087
679.20 0.3085
679.30 0.3083
679.40 0.3081
679.50 0.308
679.60 0.3078
679.70 0.3076
679.80 0.3075
679.90 0.3073
680.00 0.3071
680.10 0.3069
680.20 0.3068
680.30 0.3066
680.40 0.3064
680.50 0.3063
680.60 0.3061
680.70 0.3059
680.80 0.3058
680.90 0.3056
681.00 0.3054
681.10 0.3052
681.20 0.3051
681.30 0.3049
681.40 0.3047
681.50 0.3046
681.60 0.3044
681.70 0.3042
681.80 0.3041
681.90 0.3039
682.00 0.3037
682.10 0.3036
682.20 0.3034
682.30 0.3032
682.40 0.3031
682.50 0.3029
682.60 0.3027
682.70 0.3025
682.80 0.3024
682.90 0.3022
683.00 0.302
683.10 0.3019
683.20 0.3017
683.30 0.3015
683.40 0.3014
683.50 0.3012
683.60 0.301
683.70 0.3009
683.80 0.3007
683.90 0.3005
684.00 0.3004
684.10 0.3002
684.20 0.3
684.30 0.2999
684.40 0.2997
684.50 0.2995
684.60 0.2994
684.70 0.2992
684.80 0.299
684.90 0.2989
685.00 0.2987
685.10 0.2985
685.20 0.2984
685.30 0.2982
685.40 0.298
685.50 0.2979
685.60 0.2977
685.70 0.2975
685.80 0.2974
685.90 0.2972
686.00 0.297
686.10 0.2969
686.20 0.2967
686.30 0.2965
686.40 0.2964
686.50 0.2962
686.60 0.296
686.70 0.2959
686.80 0.2957
686.90 0.2955
687.00 0.2954
687.10 0.2952
687.20 0.295
687.30 0.2949
687.40 0.2947
687.50 0.2946
687.60 0.2944
687.70 0.2942
687.80 0.2941
687.90 0.2939
688.00 0.2937
688.10 0.2936
688.20 0.2934
688.30 0.2932
688.40 0.2931
688.50 0.2929
688.60 0.2928
688.70 0.2926
688.80 0.2924
688.90 0.2923
689.00 0.2921
689.10 0.2919
689.20 0.2918
689.30 0.2916
689.40 0.2915
689.50 0.2913
689.60 0.2911
689.70 0.291
689.80 0.2908
689.90 0.2906
690.00 0.2905
690.10 0.2903
690.20 0.2902
690.30 0.29
690.40 0.2898
690.50 0.2897
690.60 0.2895
690.70 0.2894
690.80 0.2892
690.90 0.289
691.00 0.2889
691.10 0.2887
691.20 0.2886
691.30 0.2884
691.40 0.2882
691.50 0.2881
691.60 0.2879
691.70 0.2877
691.80 0.2876
691.90 0.2874
692.00 0.2873
692.10 0.2871
692.20 0.287
692.30 0.2868
692.40 0.2866
692.50 0.2865
692.60 0.2863
692.70 0.2862
692.80 0.286
692.90 0.2858
693.00 0.2857
693.10 0.2855
693.20 0.2854
693.30 0.2852
693.40 0.285
693.50 0.2849
693.60 0.2847
693.70 0.2846
693.80 0.2844
693.90 0.2842
694.00 0.2841
694.10 0.2839
694.20 0.2838
694.30 0.2836
694.40 0.2835
694.50 0.2833
694.60 0.2831
694.70 0.283
694.80 0.2828
694.90 0.2827
695.00 0.2825
695.10 0.2824
695.20 0.2822
695.30 0.282
695.40 0.2819
695.50 0.2817
695.60 0.2816
695.70 0.2814
695.80 0.2813
695.90 0.2811
696.00 0.281
696.10 0.2808
696.20 0.2806
696.30 0.2805
696.40 0.2803
696.50 0.2802
696.60 0.28
696.70 0.2799
696.80 0.2797
696.90 0.2796
697.00 0.2794
697.10 0.2793
697.20 0.2791
697.30 0.2789
697.40 0.2788
697.50 0.2786
697.60 0.2785
697.70 0.2783
697.80 0.2782
697.90 0.278
698.00 0.2779
698.10 0.2777
698.20 0.2776
698.30 0.2774
698.40 0.2772
698.50 0.2771
698.60 0.2769
698.70 0.2768
698.80 0.2766
698.90 0.2765
699.00 0.2763
699.10 0.2762
699.20 0.276
699.30 0.2759
699.40 0.2757
699.50 0.2756
699.60 0.2754
699.70 0.2753
699.80 0.2751
699.90 0.275
700.00 0.2748
700.10 0.2747
700.20 0.2745
700.30 0.2743
700.40 0.2742
700.50 0.274
700.60 0.2739
700.70 0.2737
700.80 0.2736
700.90 0.2734
701.00 0.2733
701.10 0.2731
701.20 0.273
701.30 0.2728
701.40 0.2727
701.50 0.2725
701.60 0.2724
701.70 0.2722
701.80 0.2721
701.90 0.2719
702.00 0.2718
702.10 0.2716
702.20 0.2715
702.30 0.2713
702.40 0.2712
702.50 0.271
702.60 0.2709
702.70 0.2708
702.80 0.2706
702.90 0.2705
703.00 0.2703
703.10 0.2702
703.20 0.27
703.30 0.2699
703.40 0.2697
703.50 0.2696
703.60 0.2694
703.70 0.2693
703.80 0.2691
703.90 0.269
704.00 0.2688
704.10 0.2687
704.20 0.2685
704.30 0.2684
704.40 0.2682
704.50 0.2681
704.60 0.2679
704.70 0.2678
704.80 0.2676
704.90 0.2675
705.00 0.2673
705.10 0.2672
705.20 0.267
705.30 0.2669
705.40 0.2668
705.50 0.2666
705.60 0.2665
705.70 0.2663
705.80 0.2662
705.90 0.266
706.00 0.2659
706.10 0.2657
706.20 0.2656
706.30 0.2654
706.40 0.2653
706.50 0.2652
706.60 0.265
706.70 0.2649
706.80 0.2647
706.90 0.2646
707.00 0.2644
707.10 0.2643
707.20 0.2641
707.30 0.264
707.40 0.2639
707.50 0.2637
707.60 0.2636
707.70 0.2634
707.80 0.2633
707.90 0.2631
708.00 0.263
708.10 0.2628
708.20 0.2627
708.30 0.2626
708.40 0.2624
708.50 0.2623
708.60 0.2621
708.70 0.262
708.80 0.2618
708.90 0.2617
709.00 0.2616
709.10 0.2614
709.20 0.2613
709.30 0.2611
709.40 0.261
709.50 0.2608
709.60 0.2607
709.70 0.2606
709.80 0.2604
709.90 0.2603
710.00 0.2601
710.10 0.26
710.20 0.2598
710.30 0.2597
710.40 0.2596
710.50 0.2594
710.60 0.2593
710.70 0.2591
710.80 0.259
710.90 0.2589
711.00 0.2587
711.10 0.2586
711.20 0.2584
711.30 0.2583
711.40 0.2582
711.50 0.258
711.60 0.2579
711.70 0.2577
711.80 0.2576
711.90 0.2575
712.00 0.2573
712.10 0.2572
712.20 0.257
712.30 0.2569
712.40 0.2568
712.50 0.2566
712.60 0.2565
712.70 0.2563
712.80 0.2562
712.90 0.2561
713.00 0.2559
713.10 0.2558
713.20 0.2556
713.30 0.2555
713.40 0.2554
713.50 0.2552
713.60 0.2551
713.70 0.255
713.80 0.2548
713.90 0.2547
714.00 0.2545
714.10 0.2544
714.20 0.2543
714.30 0.2541
714.40 0.254
714.50 0.2538
714.60 0.2537
714.70 0.2536
714.80 0.2534
714.90 0.2533
715.00 0.2532
715.10 0.253
715.20 0.2529
715.30 0.2527
715.40 0.2526
715.50 0.2525
715.60 0.2523
715.70 0.2522
715.80 0.2521
715.90 0.2519
716.00 0.2518
716.10 0.2517
716.20 0.2515
716.30 0.2514
716.40 0.2512
716.50 0.2511
716.60 0.251
716.70 0.2508
716.80 0.2507
716.90 0.2506
717.00 0.2504
717.10 0.2503
717.20 0.2502
717.30 0.25
717.40 0.2499
717.50 0.2498
717.60 0.2496
717.70 0.2495
717.80 0.2494
717.90 0.2492
718.00 0.2491
718.10 0.249
718.20 0.2488
718.30 0.2487
718.40 0.2485
718.50 0.2484
718.60 0.2483
718.70 0.2481
718.80 0.248
718.90 0.2479
719.00 0.2477
719.10 0.2476
719.20 0.2475
719.30 0.2473
719.40 0.2472
719.50 0.2471
719.60 0.2469
719.70 0.2468
719.80 0.2467
719.90 0.2465
720.00 0.2464
720.10 0.2463
720.20 0.2461
720.30 0.246
720.40 0.2459
720.50 0.2457
720.60 0.2456
720.70 0.2455
720.80 0.2454
720.90 0.2452
721.00 0.2451
721.10 0.245
721.20 0.2448
721.30 0.2447
721.40 0.2446
721.50 0.2444
721.60 0.2443
721.70 0.2442
721.80 0.244
721.90 0.2439
722.00 0.2438
722.10 0.2436
722.20 0.2435
722.30 0.2434
722.40 0.2433
722.50 0.2431
722.60 0.243
722.70 0.2429
722.80 0.2427
722.90 0.2426
723.00 0.2425
723.10 0.2423
723.20 0.2422
723.30 0.2421
723.40 0.242
723.50 0.2418
723.60 0.2417
723.70 0.2416
723.80 0.2414
723.90 0.2413
724.00 0.2412
724.10 0.241
724.20 0.2409
724.30 0.2408
724.40 0.2407
724.50 0.2405
724.60 0.2404
724.70 0.2403
724.80 0.2401
724.90 0.24
725.00 0.2399
725.10 0.2398
725.20 0.2396
725.30 0.2395
725.40 0.2394
725.50 0.2392
725.60 0.2391
725.70 0.239
725.80 0.2389
725.90 0.2387
726.00 0.2386
726.10 0.2385
726.20 0.2384
726.30 0.2382
726.40 0.2381
726.50 0.238
726.60 0.2378
726.70 0.2377
726.80 0.2376
726.90 0.2375
727.00 0.2373
727.10 0.2372
727.20 0.2371
727.30 0.237
727.40 0.2368
727.50 0.2367
727.60 0.2366
727.70 0.2365
727.80 0.2363
727.90 0.2362
728.00 0.2361
728.10 0.236
728.20 0.2358
728.30 0.2357
728.40 0.2356
728.50 0.2355
728.60 0.2353
728.70 0.2352
728.80 0.2351
728.90 0.235
729.00 0.2348
729.10 0.2347
729.20 0.2346
729.30 0.2344
729.40 0.2343
729.50 0.2342
729.60 0.2341
729.70 0.2339
729.80 0.2338
729.90 0.2337
730.00 0.2336
730.10 0.2335
730.20 0.2333
730.30 0.2332
730.40 0.2331
730.50 0.233
730.60 0.2328
730.70 0.2327
730.80 0.2326
730.90 0.2325
731.00 0.2323
731.10 0.2322
731.20 0.2321
731.30 0.232
731.40 0.2319
731.50 0.2317
731.60 0.2316
731.70 0.2315
731.80 0.2314
731.90 0.2312
732.00 0.2311
732.10 0.231
732.20 0.2309
732.30 0.2308
732.40 0.2306
732.50 0.2305
732.60 0.2304
732.70 0.2303
732.80 0.2302
732.90 0.23
733.00 0.2299
733.10 0.2298
733.20 0.2297
733.30 0.2295
733.40 0.2294
733.50 0.2293
733.60 0.2292
733.70 0.2291
733.80 0.2289
733.90 0.2288
734.00 0.2287
734.10 0.2286
734.20 0.2285
734.30 0.2283
734.40 0.2282
734.50 0.2281
734.60 0.228
734.70 0.2279
734.80 0.2277
734.90 0.2276
735.00 0.2275
735.10 0.2274
735.20 0.2273
735.30 0.2271
735.40 0.227
735.50 0.2269
735.60 0.2268
735.70 0.2267
735.80 0.2265
735.90 0.2264
736.00 0.2263
736.10 0.2262
736.20 0.2261
736.30 0.2259
736.40 0.2258
736.50 0.2257
736.60 0.2256
736.70 0.2255
736.80 0.2253
736.90 0.2252
737.00 0.2251
737.10 0.225
737.20 0.2249
737.30 0.2248
737.40 0.2246
737.50 0.2245
737.60 0.2244
737.70 0.2243
737.80 0.2242
737.90 0.224
738.00 0.2239
738.10 0.2238
738.20 0.2237
738.30 0.2236
738.40 0.2234
738.50 0.2233
738.60 0.2232
738.70 0.2231
738.80 0.223
738.90 0.2229
739.00 0.2227
739.10 0.2226
739.20 0.2225
739.30 0.2224
739.40 0.2223
739.50 0.2222
739.60 0.222
739.70 0.2219
739.80 0.2218
739.90 0.2217
740.00 0.2216
740.10 0.2215
740.20 0.2213
740.30 0.2212
740.40 0.2211
740.50 0.221
740.60 0.2209
740.70 0.2208
740.80 0.2206
740.90 0.2205
741.00 0.2204
741.10 0.2203
741.20 0.2202
741.30 0.2201
741.40 0.22
741.50 0.2198
741.60 0.2197
741.70 0.2196
741.80 0.2195
741.90 0.2194
742.00 0.2193
742.10 0.2192
742.20 0.219
742.30 0.2189
742.40 0.2188
742.50 0.2187
742.60 0.2186
742.70 0.2185
742.80 0.2184
742.90 0.2182
743.00 0.2181
743.10 0.218
743.20 0.2179
743.30 0.2178
743.40 0.2177
743.50 0.2176
743.60 0.2175
743.70 0.2173
743.80 0.2172
743.90 0.2171
744.00 0.217
744.10 0.2169
744.20 0.2168
744.30 0.2167
744.40 0.2166
744.50 0.2164
744.60 0.2163
744.70 0.2162
744.80 0.2161
744.90 0.216
745.00 0.2159
745.10 0.2158
745.20 0.2157
745.30 0.2155
745.40 0.2154
745.50 0.2153
745.60 0.2152
745.70 0.2151
745.80 0.215
745.90 0.2149
746.00 0.2148
746.10 0.2146
746.20 0.2145
746.30 0.2144
746.40 0.2143
746.50 0.2142
746.60 0.2141
746.70 0.214
746.80 0.2139
746.90 0.2137
747.00 0.2136
747.10 0.2135
747.20 0.2134
747.30 0.2133
747.40 0.2132
747.50 0.2131
747.60 0.213
747.70 0.2129
747.80 0.2127
747.90 0.2126
748.00 0.2125
748.10 0.2124
748.20 0.2123
748.30 0.2122
748.40 0.2121
748.50 0.212
748.60 0.2119
748.70 0.2118
748.80 0.2116
748.90 0.2115
749.00 0.2114
749.10 0.2113
749.20 0.2112
749.30 0.2111
749.40 0.211
749.50 0.2109
749.60 0.2108
749.70 0.2106
749.80 0.2105
749.90 0.2104
750.00 0.2103
750.10 0.2102
750.20 0.2101
750.30 0.21
750.40 0.2099
750.50 0.2098
750.60 0.2097
750.70 0.2096
750.80 0.2095
750.90 0.2093
751.00 0.2092
751.10 0.2091
751.20 0.209
751.30 0.2089
751.40 0.2088
751.50 0.2087
751.60 0.2086
751.70 0.2085
751.80 0.2084
751.90 0.2083
752.00 0.2082
752.10 0.2081
752.20 0.208
752.30 0.2078
752.40 0.2077
752.50 0.2076
752.60 0.2075
752.70 0.2074
752.80 0.2073
752.90 0.2072
753.00 0.2071
753.10 0.207
753.20 0.2069
753.30 0.2068
753.40 0.2067
753.50 0.2066
753.60 0.2065
753.70 0.2064
753.80 0.2063
753.90 0.2061
754.00 0.206
754.10 0.2059
754.20 0.2058
754.30 0.2057
754.40 0.2056
754.50 0.2055
754.60 0.2054
754.70 0.2053
754.80 0.2052
754.90 0.2051
755.00 0.205
755.10 0.2049
755.20 0.2048
755.30 0.2047
755.40 0.2046
755.50 0.2045
755.60 0.2044
755.70 0.2042
755.80 0.2041
755.90 0.204
756.00 0.2039
756.10 0.2038
756.20 0.2037
756.30 0.2036
756.40 0.2035
756.50 0.2034
756.60 0.2033
756.70 0.2032
756.80 0.2031
756.90 0.203
757.00 0.2029
757.10 0.2028
757.20 0.2027
757.30 0.2026
757.40 0.2025
757.50 0.2024
757.60 0.2023
757.70 0.2022
757.80 0.2021
757.90 0.2019
758.00 0.2018
758.10 0.2017
758.20 0.2016
758.30 0.2015
758.40 0.2014
758.50 0.2013
758.60 0.2012
758.70 0.2011
758.80 0.201
758.90 0.2009
759.00 0.2008
759.10 0.2007
759.20 0.2006
759.30 0.2005
759.40 0.2004
759.50 0.2003
759.60 0.2002
759.70 0.2001
759.80 0.2
759.90 0.1999
760.00 0.1998
760.10 0.1997
760.20 0.1996
760.30 0.1995
760.40 0.1994
760.50 0.1993
760.60 0.1992
760.70 0.1991
760.80 0.199
760.90 0.1989
761.00 0.1988
761.10 0.1987
761.20 0.1986
761.30 0.1985
761.40 0.1984
761.50 0.1983
761.60 0.1982
761.70 0.1981
761.80 0.198
761.90 0.1979
762.00 0.1978
762.10 0.1977
762.20 0.1976
762.30 0.1975
762.40 0.1974
762.50 0.1973
762.60 0.1972
762.70 0.1971
762.80 0.197
762.90 0.1969
763.00 0.1968
763.10 0.1967
763.20 0.1966
763.30 0.1965
763.40 0.1964
763.50 0.1963
763.60 0.1962
763.70 0.1961
763.80 0.196
763.90 0.1959
764.00 0.1958
764.10 0.1957
764.20 0.1956
764.30 0.1955
764.40 0.1954
764.50 0.1953
764.60 0.1952
764.70 0.1951
764.80 0.195
764.90 0.1949
765.00 0.1948
765.10 0.1947
765.20 0.1946
765.30 0.1945
765.40 0.1944
765.50 0.1943
765.60 0.1942
765.70 0.1941
765.80 0.194
765.90 0.1939
766.00 0.1938
766.10 0.1937
766.20 0.1936
766.30 0.1935
766.40 0.1934
766.50 0.1933
766.60 0.1932
766.70 0.1931
766.80 0.193
766.90 0.1929
767.00 0.1928
767.10 0.1927
767.20 0.1926
767.30 0.1925
767.40 0.1924
767.50 0.1923
767.60 0.1922
767.70 0.1921
767.80 0.192
767.90 0.1919
768.00 0.1918
768.10 0.1917
768.20 0.1916
768.30 0.1915
768.40 0.1914
768.50 0.1913
768.60 0.1912
768.70 0.1911
768.80 0.191
768.90 0.191
769.00 0.1909
769.10 0.1908
769.20 0.1907
769.30 0.1906
769.40 0.1905
769.50 0.1904
769.60 0.1903
769.70 0.1902
769.80 0.1901
769.90 0.19
770.00 0.1899
770.10 0.1898
770.20 0.1897
770.30 0.1896
770.40 0.1895
770.50 0.1894
770.60 0.1893
770.70 0.1892
770.80 0.1891
770.90 0.189
771.00 0.1889
771.10 0.1888
771.20 0.1887
771.30 0.1887
771.40 0.1886
771.50 0.1885
771.60 0.1884
771.70 0.1883
771.80 0.1882
771.90 0.1881
772.00 0.188
772.10 0.1879
772.20 0.1878
772.30 0.1877
772.40 0.1876
772.50 0.1875
772.60 0.1874
772.70 0.1873
772.80 0.1872
772.90 0.1871
773.00 0.1871
773.10 0.187
773.20 0.1869
773.30 0.1868
773.40 0.1867
773.50 0.1866
773.60 0.1865
773.70 0.1864
773.80 0.1863
773.90 0.1862
774.00 0.1861
774.10 0.186
774.20 0.1859
774.30 0.1858
774.40 0.1857
774.50 0.1857
774.60 0.1856
774.70 0.1855
774.80 0.1854
774.90 0.1853
775.00 0.1852
775.10 0.1851
775.20 0.185
775.30 0.1849
775.40 0.1848
775.50 0.1847
775.60 0.1846
775.70 0.1845
775.80 0.1844
775.90 0.1844
776.00 0.1843
776.10 0.1842
776.20 0.1841
776.30 0.184
776.40 0.1839
776.50 0.1838
776.60 0.1837
776.70 0.1836
776.80 0.1835
776.90 0.1834
777.00 0.1833
777.10 0.1832
777.20 0.1832
777.30 0.1831
777.40 0.183
777.50 0.1829
777.60 0.1828
777.70 0.1827
777.80 0.1826
777.90 0.1825
778.00 0.1824
778.10 0.1823
778.20 0.1822
778.30 0.1821
778.40 0.1821
778.50 0.182
778.60 0.1819
778.70 0.1818
778.80 0.1817
778.90 0.1816
779.00 0.1815
779.10 0.1814
779.20 0.1813
779.30 0.1812
779.40 0.1811
779.50 0.1811
779.60 0.181
779.70 0.1809
779.80 0.1808
779.90 0.1807
780.00 0.1806
780.10 0.1805
780.20 0.1804
780.30 0.1803
780.40 0.1802
780.50 0.1802
780.60 0.1801
780.70 0.18
780.80 0.1799
780.90 0.1798
781.00 0.1797
781.10 0.1796
781.20 0.1795
781.30 0.1794
781.40 0.1794
781.50 0.1793
781.60 0.1792
781.70 0.1791
781.80 0.179
781.90 0.1789
782.00 0.1788
782.10 0.1787
782.20 0.1786
782.30 0.1786
782.40 0.1785
782.50 0.1784
782.60 0.1783
782.70 0.1782
782.80 0.1781
782.90 0.178
783.00 0.1779
783.10 0.1779
783.20 0.1778
783.30 0.1777
783.40 0.1776
783.50 0.1775
783.60 0.1774
783.70 0.1773
783.80 0.1772
783.90 0.1772
784.00 0.1771
784.10 0.177
784.20 0.1769
784.30 0.1768
784.40 0.1767
784.50 0.1766
784.60 0.1765
784.70 0.1764
784.80 0.1764
784.90 0.1763
785.00 0.1762
785.10 0.1761
785.20 0.176
785.30 0.1759
785.40 0.1758
785.50 0.1758
785.60 0.1757
785.70 0.1756
785.80 0.1755
785.90 0.1754
786.00 0.1753
786.10 0.1752
786.20 0.1751
786.30 0.1751
786.40 0.175
786.50 0.1749
786.60 0.1748
786.70 0.1747
786.80 0.1746
786.90 0.1745
787.00 0.1745
787.10 0.1744
787.20 0.1743
787.30 0.1742
787.40 0.1741
787.50 0.174
787.60 0.1739
787.70 0.1738
787.80 0.1738
787.90 0.1737
788.00 0.1736
788.10 0.1735
788.20 0.1734
788.30 0.1733
788.40 0.1732
788.50 0.1732
788.60 0.1731
788.70 0.173
788.80 0.1729
788.90 0.1728
789.00 0.1727
789.10 0.1726
789.20 0.1726
789.30 0.1725
789.40 0.1724
789.50 0.1723
789.60 0.1722
789.70 0.1721
789.80 0.172
789.90 0.172
790.00 0.1719
790.10 0.1718
790.20 0.1717
790.30 0.1716
790.40 0.1715
790.50 0.1715
790.60 0.1714
790.70 0.1713
790.80 0.1712
790.90 0.1711
791.00 0.171
791.10 0.171
791.20 0.1709
791.30 0.1708
791.40 0.1707
791.50 0.1706
791.60 0.1705
791.70 0.1705
791.80 0.1704
791.90 0.1703
792.00 0.1702
792.10 0.1701
792.20 0.17
792.30 0.17
792.40 0.1699
792.50 0.1698
792.60 0.1697
792.70 0.1696
792.80 0.1695
792.90 0.1695
793.00 0.1694
793.10 0.1693
793.20 0.1692
793.30 0.1691
793.40 0.169
793.50 0.169
793.60 0.1689
793.70 0.1688
793.80 0.1687
793.90 0.1686
794.00 0.1685
794.10 0.1685
794.20 0.1684
794.30 0.1683
794.40 0.1682
794.50 0.1681
794.60 0.1681
794.70 0.168
794.80 0.1679
794.90 0.1678
795.00 0.1677
795.10 0.1676
795.20 0.1676
795.30 0.1675
795.40 0.1674
795.50 0.1673
795.60 0.1672
795.70 0.1672
795.80 0.1671
795.90 0.167
796.00 0.1669
796.10 0.1668
796.20 0.1667
796.30 0.1667
796.40 0.1666
796.50 0.1665
796.60 0.1664
796.70 0.1663
796.80 0.1663
796.90 0.1662
797.00 0.1661
797.10 0.166
797.20 0.1659
797.30 0.1659
797.40 0.1658
797.50 0.1657
797.60 0.1656
797.70 0.1655
797.80 0.1654
797.90 0.1654
798.00 0.1653
798.10 0.1652
798.20 0.1651
798.30 0.165
798.40 0.165
798.50 0.1649
798.60 0.1648
798.70 0.1647
798.80 0.1646
798.90 0.1646
799.00 0.1645
799.10 0.1644
799.20 0.1643
799.30 0.1642
799.40 0.1642
799.50 0.1641
799.60 0.164
799.70 0.1639
799.80 0.1638
799.90 0.1638
800.00 0.1637
800.10 0.1636
800.20 0.1635
800.30 0.1634
800.40 0.1634
800.50 0.1633
800.60 0.1632
800.70 0.1631
800.80 0.163
800.90 0.163
801.00 0.1629
801.10 0.1628
801.20 0.1627
801.30 0.1626
801.40 0.1626
801.50 0.1625
801.60 0.1624
801.70 0.1623
801.80 0.1623
801.90 0.1622
802.00 0.1621
802.10 0.162
802.20 0.1619
802.30 0.1619
802.40 0.1618
802.50 0.1617
802.60 0.1616
802.70 0.1616
802.80 0.1615
802.90 0.1614
803.00 0.1613
803.10 0.1612
803.20 0.1612
803.30 0.1611
803.40 0.161
803.50 0.1609
803.60 0.1609
803.70 0.1608
803.80 0.1607
803.90 0.1606
804.00 0.1605
804.10 0.1605
804.20 0.1604
804.30 0.1603
804.40 0.1602
804.50 0.1602
804.60 0.1601
804.70 0.16
804.80 0.1599
804.90 0.1598
805.00 0.1598
805.10 0.1597
805.20 0.1596
805.30 0.1595
805.40 0.1595
805.50 0.1594
805.60 0.1593
805.70 0.1592
805.80 0.1592
805.90 0.1591
806.00 0.159
806.10 0.1589
806.20 0.1588
806.30 0.1588
806.40 0.1587
806.50 0.1586
806.60 0.1585
806.70 0.1585
806.80 0.1584
806.90 0.1583
807.00 0.1582
807.10 0.1582
807.20 0.1581
807.30 0.158
807.40 0.1579
807.50 0.1579
807.60 0.1578
807.70 0.1577
807.80 0.1576
807.90 0.1575
808.00 0.1575
808.10 0.1574
808.20 0.1573
808.30 0.1572
808.40 0.1572
808.50 0.1571
808.60 0.157
808.70 0.1569
808.80 0.1569
808.90 0.1568
809.00 0.1567
809.10 0.1566
809.20 0.1566
809.30 0.1565
809.40 0.1564
809.50 0.1563
809.60 0.1563
809.70 0.1562
809.80 0.1561
809.90 0.156
810.00 0.156
810.10 0.1559
810.20 0.1558
810.30 0.1557
810.40 0.1557
810.50 0.1556
810.60 0.1555
810.70 0.1554
810.80 0.1554
810.90 0.1553
811.00 0.1552
811.10 0.1551
811.20 0.1551
811.30 0.155
811.40 0.1549
811.50 0.1548
811.60 0.1548
811.70 0.1547
811.80 0.1546
811.90 0.1545
812.00 0.1545
812.10 0.1544
812.20 0.1543
812.30 0.1543
812.40 0.1542
812.50 0.1541
812.60 0.154
812.70 0.154
812.80 0.1539
812.90 0.1538
813.00 0.1537
813.10 0.1537
813.20 0.1536
813.30 0.1535
813.40 0.1534
813.50 0.1534
813.60 0.1533
813.70 0.1532
813.80 0.1532
813.90 0.1531
814.00 0.153
814.10 0.1529
814.20 0.1529
814.30 0.1528
814.40 0.1527
814.50 0.1526
814.60 0.1526
814.70 0.1525
814.80 0.1524
814.90 0.1524
815.00 0.1523
815.10 0.1522
815.20 0.1521
815.30 0.1521
815.40 0.152
815.50 0.1519
815.60 0.1518
815.70 0.1518
815.80 0.1517
815.90 0.1516
816.00 0.1516
816.10 0.1515
816.20 0.1514
816.30 0.1513
816.40 0.1513
816.50 0.1512
816.60 0.1511
816.70 0.151
816.80 0.151
816.90 0.1509
817.00 0.1508
817.10 0.1508
817.20 0.1507
817.30 0.1506
817.40 0.1505
817.50 0.1505
817.60 0.1504
817.70 0.1503
817.80 0.1503
817.90 0.1502
818.00 0.1501
818.10 0.15
818.20 0.15
818.30 0.1499
818.40 0.1498
818.50 0.1498
818.60 0.1497
818.70 0.1496
818.80 0.1495
818.90 0.1495
819.00 0.1494
819.10 0.1493
819.20 0.1493
819.30 0.1492
819.40 0.1491
819.50 0.149
819.60 0.149
819.70 0.1489
819.80 0.1488
819.90 0.1488
820.00 0.1487
820.10 0.1486
820.20 0.1485
820.30 0.1485
820.40 0.1484
820.50 0.1483
820.60 0.1483
820.70 0.1482
820.80 0.1481
820.90 0.1481
821.00 0.148
821.10 0.1479
821.20 0.1478
821.30 0.1478
821.40 0.1477
821.50 0.1476
821.60 0.1476
821.70 0.1475
821.80 0.1474
821.90 0.1474
822.00 0.1473
822.10 0.1472
822.20 0.1471
822.30 0.1471
822.40 0.147
822.50 0.1469
822.60 0.1469
822.70 0.1468
822.80 0.1467
822.90 0.1467
823.00 0.1466
823.10 0.1465
823.20 0.1464
823.30 0.1464
823.40 0.1463
823.50 0.1462
823.60 0.1462
823.70 0.1461
823.80 0.146
823.90 0.146
824.00 0.1459
824.10 0.1458
824.20 0.1458
824.30 0.1457
824.40 0.1456
824.50 0.1456
824.60 0.1455
824.70 0.1454
824.80 0.1453
824.90 0.1453
825.00 0.1452
825.10 0.1451
825.20 0.1451
825.30 0.145
825.40 0.1449
825.50 0.1449
825.60 0.1448
825.70 0.1447
825.80 0.1447
825.90 0.1446
826.00 0.1445
826.10 0.1445
826.20 0.1444
826.30 0.1443
826.40 0.1443
826.50 0.1442
826.60 0.1441
826.70 0.1441
826.80 0.144
826.90 0.1439
827.00 0.1438
827.10 0.1438
827.20 0.1437
827.30 0.1436
827.40 0.1436
827.50 0.1435
827.60 0.1434
827.70 0.1434
827.80 0.1433
827.90 0.1432
828.00 0.1432
828.10 0.1431
828.20 0.143
828.30 0.143
828.40 0.1429
828.50 0.1428
828.60 0.1428
828.70 0.1427
828.80 0.1426
828.90 0.1426
829.00 0.1425
829.10 0.1424
829.20 0.1424
829.30 0.1423
829.40 0.1422
829.50 0.1422
829.60 0.1421
829.70 0.142
829.80 0.142
829.90 0.1419
830.00 0.1418
830.10 0.1418
830.20 0.1417
830.30 0.1416
830.40 0.1416
830.50 0.1415
830.60 0.1414
830.70 0.1414
830.80 0.1413
830.90 0.1412
831.00 0.1412
831.10 0.1411
831.20 0.141
831.30 0.141
831.40 0.1409
831.50 0.1408
831.60 0.1408
831.70 0.1407
831.80 0.1406
831.90 0.1406
832.00 0.1405
832.10 0.1404
832.20 0.1404
832.30 0.1403
832.40 0.1402
832.50 0.1402
832.60 0.1401
832.70 0.1401
832.80 0.14
832.90 0.1399
833.00 0.1399
833.10 0.1398
833.20 0.1397
833.30 0.1397
833.40 0.1396
833.50 0.1395
833.60 0.1395
833.70 0.1394
833.80 0.1393
833.90 0.1393
834.00 0.1392
834.10 0.1391
834.20 0.1391
834.30 0.139
834.40 0.1389
834.50 0.1389
834.60 0.1388
834.70 0.1388
834.80 0.1387
834.90 0.1386
835.00 0.1386
835.10 0.1385
835.20 0.1384
835.30 0.1384
835.40 0.1383
835.50 0.1382
835.60 0.1382
835.70 0.1381
835.80 0.138
835.90 0.138
836.00 0.1379
836.10 0.1378
836.20 0.1378
836.30 0.1377
836.40 0.1377
836.50 0.1376
836.60 0.1375
836.70 0.1375
836.80 0.1374
836.90 0.1373
837.00 0.1373
837.10 0.1372
837.20 0.1371
837.30 0.1371
837.40 0.137
837.50 0.1369
837.60 0.1369
837.70 0.1368
837.80 0.1368
837.90 0.1367
838.00 0.1366
838.10 0.1366
838.20 0.1365
838.30 0.1364
838.40 0.1364
838.50 0.1363
838.60 0.1363
838.70 0.1362
838.80 0.1361
838.90 0.1361
839.00 0.136
839.10 0.1359
839.20 0.1359
839.30 0.1358
839.40 0.1357
839.50 0.1357
839.60 0.1356
839.70 0.1356
839.80 0.1355
839.90 0.1354
840.00 0.1354
840.10 0.1353
840.20 0.1352
840.30 0.1352
840.40 0.1351
840.50 0.1351
840.60 0.135
840.70 0.1349
840.80 0.1349
840.90 0.1348
841.00 0.1347
841.10 0.1347
841.20 0.1346
841.30 0.1346
841.40 0.1345
841.50 0.1344
841.60 0.1344
841.70 0.1343
841.80 0.1342
841.90 0.1342
842.00 0.1341
842.10 0.1341
842.20 0.134
842.30 0.1339
842.40 0.1339
842.50 0.1338
842.60 0.1337
842.70 0.1337
842.80 0.1336
842.90 0.1336
843.00 0.1335
843.10 0.1334
843.20 0.1334
843.30 0.1333
843.40 0.1332
843.50 0.1332
843.60 0.1331
843.70 0.1331
843.80 0.133
843.90 0.1329
844.00 0.1329
844.10 0.1328
844.20 0.1328
844.30 0.1327
844.40 0.1326
844.50 0.1326
844.60 0.1325
844.70 0.1325
844.80 0.1324
844.90 0.1323
845.00 0.1323
845.10 0.1322
845.20 0.1321
845.30 0.1321
845.40 0.132
845.50 0.132
845.60 0.1319
845.70 0.1318
845.80 0.1318
845.90 0.1317
846.00 0.1317
846.10 0.1316
846.20 0.1315
846.30 0.1315
846.40 0.1314
846.50 0.1314
846.60 0.1313
846.70 0.1312
846.80 0.1312
846.90 0.1311
847.00 0.131
847.10 0.131
847.20 0.1309
847.30 0.1309
847.40 0.1308
847.50 0.1307
847.60 0.1307
847.70 0.1306
847.80 0.1306
847.90 0.1305
848.00 0.1304
848.10 0.1304
848.20 0.1303
848.30 0.1303
848.40 0.1302
848.50 0.1301
848.60 0.1301
848.70 0.13
848.80 0.13
848.90 0.1299
849.00 0.1298
849.10 0.1298
849.20 0.1297
849.30 0.1297
849.40 0.1296
849.50 0.1295
849.60 0.1295
849.70 0.1294
849.80 0.1294
849.90 0.1293
850.00 0.1293
850.10 0.1292
850.20 0.1291
850.30 0.1291
850.40 0.129
850.50 0.129
850.60 0.1289
850.70 0.1288
850.80 0.1288
850.90 0.1287
851.00 0.1287
851.10 0.1286
851.20 0.1285
851.30 0.1285
851.40 0.1284
851.50 0.1284
851.60 0.1283
851.70 0.1282
851.80 0.1282
851.90 0.1281
852.00 0.1281
852.10 0.128
852.20 0.1279
852.30 0.1279
852.40 0.1278
852.50 0.1278
852.60 0.1277
852.70 0.1277
852.80 0.1276
852.90 0.1275
853.00 0.1275
853.10 0.1274
853.20 0.1274
853.30 0.1273
853.40 0.1272
853.50 0.1272
853.60 0.1271
853.70 0.1271
853.80 0.127
853.90 0.127
854.00 0.1269
854.10 0.1268
854.20 0.1268
854.30 0.1267
854.40 0.1267
854.50 0.1266
854.60 0.1266
854.70 0.1265
854.80 0.1264
854.90 0.1264
855.00 0.1263
855.10 0.1263
855.20 0.1262
855.30 0.1261
855.40 0.1261
855.50 0.126
855.60 0.126
855.70 0.1259
855.80 0.1259
855.90 0.1258
856.00 0.1257
856.10 0.1257
856.20 0.1256
856.30 0.1256
856.40 0.1255
856.50 0.1255
856.60 0.1254
856.70 0.1253
856.80 0.1253
856.90 0.1252
857.00 0.1252
857.10 0.1251
857.20 0.1251
857.30 0.125
857.40 0.1249
857.50 0.1249
857.60 0.1248
857.70 0.1248
857.80 0.1247
857.90 0.1247
858.00 0.1246
858.10 0.1246
858.20 0.1245
858.30 0.1244
858.40 0.1244
858.50 0.1243
858.60 0.1243
858.70 0.1242
858.80 0.1242
858.90 0.1241
859.00 0.124
859.10 0.124
859.20 0.1239
859.30 0.1239
859.40 0.1238
859.50 0.1238
859.60 0.1237
859.70 0.1237
859.80 0.1236
859.90 0.1235
860.00 0.1235
860.10 0.1234
860.20 0.1234
860.30 0.1233
860.40 0.1233
860.50 0.1232
860.60 0.1232
860.70 0.1231
860.80 0.123
860.90 0.123
861.00 0.1229
861.10 0.1229
861.20 0.1228
861.30 0.1228
861.40 0.1227
861.50 0.1227
861.60 0.1226
861.70 0.1225
861.80 0.1225
861.90 0.1224
862.00 0.1224
862.10 0.1223
862.20 0.1223
862.30 0.1222
862.40 0.1222
862.50 0.1221
862.60 0.122
862.70 0.122
862.80 0.1219
862.90 0.1219
863.00 0.1218
863.10 0.1218
863.20 0.1217
863.30 0.1217
863.40 0.1216
863.50 0.1216
863.60 0.1215
863.70 0.1214
863.80 0.1214
863.90 0.1213
864.00 0.1213
864.10 0.1212
864.20 0.1212
864.30 0.1211
864.40 0.1211
864.50 0.121
864.60 0.1209
864.70 0.1209
864.80 0.1208
864.90 0.1208
865.00 0.1207
865.10 0.1207
865.20 0.1206
865.30 0.1206
865.40 0.1205
865.50 0.1205
865.60 0.1204
865.70 0.1203
865.80 0.1203
865.90 0.1202
866.00 0.1202
866.10 0.1201
866.20 0.1201
866.30 0.12
866.40 0.12
866.50 0.1199
866.60 0.1199
866.70 0.1198
866.80 0.1197
866.90 0.1197
867.00 0.1196
867.10 0.1196
867.20 0.1195
867.30 0.1195
867.40 0.1194
867.50 0.1194
867.60 0.1193
867.70 0.1193
867.80 0.1192
867.90 0.1192
868.00 0.1191
868.10 0.1191
868.20 0.119
868.30 0.1189
868.40 0.1189
868.50 0.1188
868.60 0.1188
868.70 0.1187
868.80 0.1187
868.90 0.1186
869.00 0.1186
869.10 0.1185
869.20 0.1185
869.30 0.1184
869.40 0.1184
869.50 0.1183
869.60 0.1183
869.70 0.1182
869.80 0.1181
869.90 0.1181
870.00 0.118
870.10 0.118
870.20 0.1179
870.30 0.1179
870.40 0.1178
870.50 0.1178
870.60 0.1177
870.70 0.1177
870.80 0.1176
870.90 0.1176
871.00 0.1175
871.10 0.1175
871.20 0.1174
871.30 0.1174
871.40 0.1173
871.50 0.1172
871.60 0.1172
871.70 0.1171
871.80 0.1171
871.90 0.117
872.00 0.117
872.10 0.1169
872.20 0.1169
872.30 0.1168
872.40 0.1168
872.50 0.1167
872.60 0.1167
872.70 0.1166
872.80 0.1166
872.90 0.1165
873.00 0.1165
873.10 0.1164
873.20 0.1164
873.30 0.1163
873.40 0.1163
873.50 0.1162
873.60 0.1162
873.70 0.1161
873.80 0.116
873.90 0.116
874.00 0.1159
874.10 0.1159
874.20 0.1158
874.30 0.1158
874.40 0.1157
874.50 0.1157
874.60 0.1156
874.70 0.1156
874.80 0.1155
874.90 0.1155
875.00 0.1154
875.10 0.1154
875.20 0.1153
875.30 0.1153
875.40 0.1152
875.50 0.1152
875.60 0.1151
875.70 0.1151
875.80 0.115
875.90 0.115
876.00 0.1149
876.10 0.1149
876.20 0.1148
876.30 0.1148
876.40 0.1147
876.50 0.1147
876.60 0.1146
876.70 0.1146
876.80 0.1145
876.90 0.1144
877.00 0.1144
877.10 0.1143
877.20 0.1143
877.30 0.1142
877.40 0.1142
877.50 0.1141
877.60 0.1141
877.70 0.114
877.80 0.114
877.90 0.1139
878.00 0.1139
878.10 0.1138
878.20 0.1138
878.30 0.1137
878.40 0.1137
878.50 0.1136
878.60 0.1136
878.70 0.1135
878.80 0.1135
878.90 0.1134
879.00 0.1134
879.10 0.1133
879.20 0.1133
879.30 0.1132
879.40 0.1132
879.50 0.1131
879.60 0.1131
879.70 0.113
879.80 0.113
879.90 0.1129
880.00 0.1129
880.10 0.1128
880.20 0.1128
880.30 0.1127
880.40 0.1127
880.50 0.1126
880.60 0.1126
880.70 0.1125
880.80 0.1125
880.90 0.1124
881.00 0.1124
881.10 0.1123
881.20 0.1123
881.30 0.1122
881.40 0.1122
881.50 0.1121
881.60 0.1121
881.70 0.112
881.80 0.112
881.90 0.1119
882.00 0.1119
882.10 0.1118
882.20 0.1118
882.30 0.1117
882.40 0.1117
882.50 0.1116
882.60 0.1116
882.70 0.1115
882.80 0.1115
882.90 0.1114
883.00 0.1114
883.10 0.1113
883.20 0.1113
883.30 0.1112
883.40 0.1112
883.50 0.1112
883.60 0.1111
883.70 0.1111
883.80 0.111
883.90 0.111
884.00 0.1109
884.10 0.1109
884.20 0.1108
884.30 0.1108
884.40 0.1107
884.50 0.1107
884.60 0.1106
884.70 0.1106
884.80 0.1105
884.90 0.1105
885.00 0.1104
885.10 0.1104
885.20 0.1103
885.30 0.1103
885.40 0.1102
885.50 0.1102
885.60 0.1101
885.70 0.1101
885.80 0.11
885.90 0.11
886.00 0.1099
886.10 0.1099
886.20 0.1098
886.30 0.1098
886.40 0.1097
886.50 0.1097
886.60 0.1096
886.70 0.1096
886.80 0.1095
886.90 0.1095
887.00 0.1094
887.10 0.1094
887.20 0.1094
887.30 0.1093
887.40 0.1093
887.50 0.1092
887.60 0.1092
887.70 0.1091
887.80 0.1091
887.90 0.109
888.00 0.109
888.10 0.1089
888.20 0.1089
888.30 0.1088
888.40 0.1088
888.50 0.1087
888.60 0.1087
888.70 0.1086
888.80 0.1086
888.90 0.1085
889.00 0.1085
889.10 0.1084
889.20 0.1084
889.30 0.1083
889.40 0.1083
889.50 0.1083
889.60 0.1082
889.70 0.1082
889.80 0.1081
889.90 0.1081
890.00 0.108
890.10 0.108
890.20 0.1079
890.30 0.1079
890.40 0.1078
890.50 0.1078
890.60 0.1077
890.70 0.1077
890.80 0.1076
890.90 0.1076
891.00 0.1075
891.10 0.1075
891.20 0.1074
891.30 0.1074
891.40 0.1074
891.50 0.1073
891.60 0.1073
891.70 0.1072
891.80 0.1072
891.90 0.1071
892.00 0.1071
892.10 0.107
892.20 0.107
892.30 0.1069
892.40 0.1069
892.50 0.1068
892.60 0.1068
892.70 0.1067
892.80 0.1067
892.90 0.1067
893.00 0.1066
893.10 0.1066
893.20 0.1065
893.30 0.1065
893.40 0.1064
893.50 0.1064
893.60 0.1063
893.70 0.1063
893.80 0.1062
893.90 0.1062
894.00 0.1061
894.10 0.1061
894.20 0.1061
894.30 0.106
894.40 0.106
894.50 0.1059
894.60 0.1059
894.70 0.1058
894.80 0.1058
894.90 0.1057
895.00 0.1057
895.10 0.1056
895.20 0.1056
895.30 0.1055
895.40 0.1055
895.50 0.1055
895.60 0.1054
895.70 0.1054
895.80 0.1053
895.90 0.1053
896.00 0.1052
896.10 0.1052
896.20 0.1051
896.30 0.1051
896.40 0.105
896.50 0.105
896.60 0.1049
896.70 0.1049
896.80 0.1049
896.90 0.1048
897.00 0.1048
897.10 0.1047
897.20 0.1047
897.30 0.1046
897.40 0.1046
897.50 0.1045
897.60 0.1045
897.70 0.1044
897.80 0.1044
897.90 0.1044
898.00 0.1043
898.10 0.1043
898.20 0.1042
898.30 0.1042
898.40 0.1041
898.50 0.1041
898.60 0.104
898.70 0.104
898.80 0.104
898.90 0.1039
899.00 0.1039
899.10 0.1038
899.20 0.1038
899.30 0.1037
899.40 0.1037
899.50 0.1036
899.60 0.1036
899.70 0.1035
899.80 0.1035
899.90 0.1035
900.00 0.1034
900.10 0.1034
900.20 0.1033
900.30 0.1033
900.40 0.1032
900.50 0.1032
900.60 0.1031
900.70 0.1031
900.80 0.1031
900.90 0.103
901.00 0.103
901.10 0.1029
901.20 0.1029
901.30 0.1028
901.40 0.1028
901.50 0.1027
901.60 0.1027
901.70 0.1027
901.80 0.1026
901.90 0.1026
902.00 0.1025
902.10 0.1025
902.20 0.1024
902.30 0.1024
902.40 0.1023
902.50 0.1023
902.60 0.1023
902.70 0.1022
902.80 0.1022
902.90 0.1021
903.00 0.1021
903.10 0.102
903.20 0.102
903.30 0.102
903.40 0.1019
903.50 0.1019
903.60 0.1018
903.70 0.1018
903.80 0.1017
903.90 0.1017
904.00 0.1016
904.10 0.1016
904.20 0.1016
904.30 0.1015
904.40 0.1015
904.50 0.1014
904.60 0.1014
904.70 0.1013
904.80 0.1013
904.90 0.1013
905.00 0.1012
905.10 0.1012
905.20 0.1011
905.30 0.1011
905.40 0.101
905.50 0.101
905.60 0.1009
905.70 0.1009
905.80 0.1009
905.90 0.1008
906.00 0.1008
906.10 0.1007
906.20 0.1007
906.30 0.1006
906.40 0.1006
906.50 0.1006
906.60 0.1005
906.70 0.1005
906.80 0.1004
906.90 0.1004
907.00 0.1003
907.10 0.1003
907.20 0.1003
907.30 0.1002
907.40 0.1002
907.50 0.1001
907.60 0.1001
907.70 0.1
907.80 0.1
907.90 0.09995
908.00 0.09991
908.10 0.09987
908.20 0.09982
908.30 0.09978
908.40 0.09974
908.50 0.0997
908.60 0.09965
908.70 0.09961
908.80 0.09957
908.90 0.09953
909.00 0.09948
909.10 0.09944
909.20 0.0994
909.30 0.09936
909.40 0.09931
909.50 0.09927
909.60 0.09923
909.70 0.09919
909.80 0.09914
909.90 0.0991
910.00 0.09906
910.10 0.09902
910.20 0.09897
910.30 0.09893
910.40 0.09889
910.50 0.09885
910.60 0.0988
910.70 0.09876
910.80 0.09872
910.90 0.09868
911.00 0.09864
911.10 0.09859
911.20 0.09855
911.30 0.09851
911.40 0.09847
911.50 0.09842
911.60 0.09838
911.70 0.09834
911.80 0.0983
911.90 0.09826
912.00 0.09821
912.10 0.09817
912.20 0.09813
912.30 0.09809
912.40 0.09805
912.50 0.09801
912.60 0.09796
912.70 0.09792
912.80 0.09788
912.90 0.09784
913.00 0.0978
913.10 0.09776
913.20 0.09771
913.30 0.09767
913.40 0.09763
913.50 0.09759
913.60 0.09755
913.70 0.09751
913.80 0.09747
913.90 0.09742
914.00 0.09738
914.10 0.09734
914.20 0.0973
914.30 0.09726
914.40 0.09722
914.50 0.09718
914.60 0.09713
914.70 0.09709
914.80 0.09705
914.90 0.09701
915.00 0.09697
915.10 0.09693
915.20 0.09689
915.30 0.09685
915.40 0.0968
915.50 0.09676
915.60 0.09672
915.70 0.09668
915.80 0.09664
915.90 0.0966
916.00 0.09656
916.10 0.09652
916.20 0.09648
916.30 0.09643
916.40 0.09639
916.50 0.09635
916.60 0.09631
916.70 0.09627
916.80 0.09623
916.90 0.09619
917.00 0.09615
917.10 0.09611
917.20 0.09607
917.30 0.09603
917.40 0.09599
917.50 0.09595
917.60 0.09591
917.70 0.09586
917.80 0.09582
917.90 0.09578
918.00 0.09574
918.10 0.0957
918.20 0.09566
918.30 0.09562
918.40 0.09558
918.50 0.09554
918.60 0.0955
918.70 0.09546
918.80 0.09542
918.90 0.09538
919.00 0.09534
919.10 0.0953
919.20 0.09526
919.30 0.09522
919.40 0.09518
919.50 0.09514
919.60 0.0951
919.70 0.09506
919.80 0.09502
919.90 0.09498
920.00 0.09494
920.10 0.0949
920.20 0.09486
920.30 0.09482
920.40 0.09478
920.50 0.09474
920.60 0.0947
920.70 0.09466
920.80 0.09462
920.90 0.09458
921.00 0.09454
921.10 0.0945
921.20 0.09446
921.30 0.09442
921.40 0.09438
921.50 0.09434
921.60 0.0943
921.70 0.09426
921.80 0.09422
921.90 0.09418
922.00 0.09414
922.10 0.0941
922.20 0.09406
922.30 0.09402
922.40 0.09398
922.50 0.09394
922.60 0.09391
922.70 0.09387
922.80 0.09383
922.90 0.09379
923.00 0.09375
923.10 0.09371
923.20 0.09367
923.30 0.09363
923.40 0.09359
923.50 0.09355
923.60 0.09351
923.70 0.09347
923.80 0.09343
923.90 0.09339
924.00 0.09335
924.10 0.09331
924.20 0.09328
924.30 0.09324
924.40 0.0932
924.50 0.09316
924.60 0.09312
924.70 0.09308
924.80 0.09304
924.90 0.093
925.00 0.09296
925.10 0.09292
925.20 0.09288
925.30 0.09284
925.40 0.09281
925.50 0.09277
925.60 0.09273
925.70 0.09269
925.80 0.09265
925.90 0.09261
926.00 0.09257
926.10 0.09253
926.20 0.09249
926.30 0.09245
926.40 0.09242
926.50 0.09238
926.60 0.09234
926.70 0.0923
926.80 0.09226
926.90 0.09222
927.00 0.09218
927.10 0.09214
927.20 0.09211
927.30 0.09207
927.40 0.09203
927.50 0.09199
927.60 0.09195
927.70 0.09191
927.80 0.09188
927.90 0.09184
928.00 0.0918
928.10 0.09176
928.20 0.09172
928.30 0.09168
928.40 0.09165
928.50 0.09161
928.60 0.09157
928.70 0.09153
928.80 0.09149
928.90 0.09145
929.00 0.09142
929.10 0.09138
929.20 0.09134
929.30 0.0913
929.40 0.09126
929.50 0.09123
929.60 0.09119
929.70 0.09115
929.80 0.09111
929.90 0.09107
930.00 0.09104
930.10 0.091
930.20 0.09096
930.30 0.09092
930.40 0.09088
930.50 0.09085
930.60 0.09081
930.70 0.09077
930.80 0.09073
930.90 0.09069
931.00 0.09066
931.10 0.09062
931.20 0.09058
931.30 0.09054
931.40 0.0905
931.50 0.09047
931.60 0.09043
931.70 0.09039
931.80 0.09035
931.90 0.09032
932.00 0.09028
932.10 0.09024
932.20 0.0902
932.30 0.09016
932.40 0.09013
932.50 0.09009
932.60 0.09005
932.70 0.09001
932.80 0.08998
932.90 0.08994
933.00 0.0899
933.10 0.08986
933.20 0.08983
933.30 0.08979
933.40 0.08975
933.50 0.08972
933.60 0.08968
933.70 0.08964
933.80 0.0896
933.90 0.08957
934.00 0.08953
934.10 0.08949
934.20 0.08945
934.30 0.08942
934.40 0.08938
934.50 0.08934
934.60 0.08931
934.70 0.08927
934.80 0.08923
934.90 0.08919
935.00 0.08916
935.10 0.08912
935.20 0.08908
935.30 0.08905
935.40 0.08901
935.50 0.08897
935.60 0.08893
935.70 0.0889
935.80 0.08886
935.90 0.08882
936.00 0.08879
936.10 0.08875
936.20 0.08871
936.30 0.08868
936.40 0.08864
936.50 0.0886
936.60 0.08857
936.70 0.08853
936.80 0.08849
936.90 0.08846
937.00 0.08842
937.10 0.08838
937.20 0.08835
937.30 0.08831
937.40 0.08827
937.50 0.08824
937.60 0.0882
937.70 0.08816
937.80 0.08813
937.90 0.08809
938.00 0.08805
938.10 0.08802
938.20 0.08798
938.30 0.08794
938.40 0.08791
938.50 0.08787
938.60 0.08783
938.70 0.0878
938.80 0.08776
938.90 0.08772
939.00 0.08769
939.10 0.08765
939.20 0.08761
939.30 0.08758
939.40 0.08754
939.50 0.08751
939.60 0.08747
939.70 0.08743
939.80 0.0874
939.90 0.08736
940.00 0.08732
940.10 0.08729
940.20 0.08725
940.30 0.08722
940.40 0.08718
940.50 0.08714
940.60 0.08711
940.70 0.08707
940.80 0.08703
940.90 0.087
941.00 0.08696
941.10 0.08693
941.20 0.08689
941.30 0.08685
941.40 0.08682
941.50 0.08678
941.60 0.08675
941.70 0.08671
941.80 0.08667
941.90 0.08664
942.00 0.0866
942.10 0.08657
942.20 0.08653
942.30 0.08649
942.40 0.08646
942.50 0.08642
942.60 0.08639
942.70 0.08635
942.80 0.08632
942.90 0.08628
943.00 0.08624
943.10 0.08621
943.20 0.08617
943.30 0.08614
943.40 0.0861
943.50 0.08607
943.60 0.08603
943.70 0.08599
943.80 0.08596
943.90 0.08592
944.00 0.08589
944.10 0.08585
944.20 0.08582
944.30 0.08578
944.40 0.08575
944.50 0.08571
944.60 0.08567
944.70 0.08564
944.80 0.0856
944.90 0.08557
945.00 0.08553
945.10 0.0855
945.20 0.08546
945.30 0.08543
945.40 0.08539
945.50 0.08536
945.60 0.08532
945.70 0.08529
945.80 0.08525
945.90 0.08521
946.00 0.08518
946.10 0.08514
946.20 0.08511
946.30 0.08507
946.40 0.08504
946.50 0.085
946.60 0.08497
946.70 0.08493
946.80 0.0849
946.90 0.08486
947.00 0.08483
947.10 0.08479
947.20 0.08476
947.30 0.08472
947.40 0.08469
947.50 0.08465
947.60 0.08462
947.70 0.08458
947.80 0.08455
947.90 0.08451
948.00 0.08448
948.10 0.08444
948.20 0.08441
948.30 0.08437
948.40 0.08434
948.50 0.08431
948.60 0.08427
948.70 0.08424
948.80 0.0842
948.90 0.08417
949.00 0.08413
949.10 0.0841
949.20 0.08406
949.30 0.08403
949.40 0.08399
949.50 0.08396
949.60 0.08392
949.70 0.08389
949.80 0.08386
949.90 0.08382
950.00 0.08379
950.10 0.08375
950.20 0.08372
950.30 0.08368
950.40 0.08365
950.50 0.08362
950.60 0.08358
950.70 0.08355
950.80 0.08351
950.90 0.08348
951.00 0.08344
951.10 0.08341
951.20 0.08338
951.30 0.08334
951.40 0.08331
951.50 0.08327
951.60 0.08324
951.70 0.08321
951.80 0.08317
951.90 0.08314
952.00 0.0831
952.10 0.08307
952.20 0.08304
952.30 0.083
952.40 0.08297
952.50 0.08294
952.60 0.0829
952.70 0.08287
952.80 0.08283
952.90 0.0828
953.00 0.08277
953.10 0.08273
953.20 0.0827
953.30 0.08267
953.40 0.08263
953.50 0.0826
953.60 0.08257
953.70 0.08253
953.80 0.0825
953.90 0.08247
954.00 0.08244
954.10 0.0824
954.20 0.08237
954.30 0.08234
954.40 0.0823
954.50 0.08227
954.60 0.08224
954.70 0.0822
954.80 0.08217
954.90 0.08214
955.00 0.0821
955.10 0.08207
955.20 0.08204
955.30 0.082
955.40 0.08197
955.50 0.08193
955.60 0.0819
955.70 0.08187
955.80 0.08183
955.90 0.0818
956.00 0.08177
956.10 0.08173
956.20 0.0817
956.30 0.08167
956.40 0.08164
956.50 0.0816
956.60 0.08157
956.70 0.08154
956.80 0.0815
956.90 0.08147
957.00 0.08144
957.10 0.0814
957.20 0.08137
957.30 0.08134
957.40 0.08131
957.50 0.08127
957.60 0.08124
957.70 0.08121
957.80 0.08118
957.90 0.08114
958.00 0.08111
958.10 0.08108
958.20 0.08104
958.30 0.08101
958.40 0.08098
958.50 0.08095
958.60 0.08091
958.70 0.08088
958.80 0.08085
958.90 0.08082
959.00 0.08078
959.10 0.08075
959.20 0.08072
959.30 0.08069
959.40 0.08066
959.50 0.08062
959.60 0.08059
959.70 0.08056
959.80 0.08053
959.90 0.08049
960.00 0.08046
960.10 0.08043
960.20 0.0804
960.30 0.08037
960.40 0.08033
960.50 0.0803
960.60 0.08027
960.70 0.08024
960.80 0.0802
960.90 0.08017
961.00 0.08014
961.10 0.08011
961.20 0.08008
961.30 0.08004
961.40 0.08001
961.50 0.07998
961.60 0.07995
961.70 0.07992
961.80 0.07989
961.90 0.07985
962.00 0.07982
962.10 0.07979
962.20 0.07976
962.30 0.07973
962.40 0.07969
962.50 0.07966
962.60 0.07963
962.70 0.0796
962.80 0.07957
962.90 0.07954
963.00 0.0795
963.10 0.07947
963.20 0.07944
963.30 0.07941
963.40 0.07938
963.50 0.07935
963.60 0.07931
963.70 0.07928
963.80 0.07925
963.90 0.07922
964.00 0.07919
964.10 0.07916
964.20 0.07912
964.30 0.07909
964.40 0.07906
964.50 0.07903
964.60 0.079
964.70 0.07897
964.80 0.07894
964.90 0.0789
965.00 0.07887
965.10 0.07884
965.20 0.07881
965.30 0.07878
965.40 0.07875
965.50 0.07872
965.60 0.07869
965.70 0.07865
965.80 0.07862
965.90 0.07859
966.00 0.07856
966.10 0.07853
966.20 0.0785
966.30 0.07847
966.40 0.07843
966.50 0.0784
966.60 0.07837
966.70 0.07834
966.80 0.07831
966.90 0.07828
967.00 0.07825
967.10 0.07822
967.20 0.07819
967.30 0.07815
967.40 0.07812
967.50 0.07809
967.60 0.07806
967.70 0.07803
967.80 0.078
967.90 0.07797
968.00 0.07794
968.10 0.07791
968.20 0.07787
968.30 0.07784
968.40 0.07781
968.50 0.07778
968.60 0.07775
968.70 0.07772
968.80 0.07769
968.90 0.07766
969.00 0.07763
969.10 0.0776
969.20 0.07756
969.30 0.07753
969.40 0.0775
969.50 0.07747
969.60 0.07744
969.70 0.07741
969.80 0.07738
969.90 0.07735
970.00 0.07732
970.10 0.07729
970.20 0.07726
970.30 0.07723
970.40 0.07719
970.50 0.07716
970.60 0.07713
970.70 0.0771
970.80 0.07707
970.90 0.07704
971.00 0.07701
971.10 0.07698
971.20 0.07695
971.30 0.07692
971.40 0.07689
971.50 0.07686
971.60 0.07683
971.70 0.07679
971.80 0.07676
971.90 0.07673
972.00 0.0767
972.10 0.07667
972.20 0.07664
972.30 0.07661
972.40 0.07658
972.50 0.07655
972.60 0.07652
972.70 0.07649
972.80 0.07646
972.90 0.07643
973.00 0.0764
973.10 0.07637
973.20 0.07634
973.30 0.07631
973.40 0.07627
973.50 0.07624
973.60 0.07621
973.70 0.07618
973.80 0.07615
973.90 0.07612
974.00 0.07609
974.10 0.07606
974.20 0.07603
974.30 0.076
974.40 0.07597
974.50 0.07594
974.60 0.07591
974.70 0.07588
974.80 0.07585
974.90 0.07582
975.00 0.07579
975.10 0.07576
975.20 0.07573
975.30 0.0757
975.40 0.07567
975.50 0.07564
975.60 0.07561
975.70 0.07558
975.80 0.07554
975.90 0.07551
976.00 0.07548
976.10 0.07545
976.20 0.07542
976.30 0.07539
976.40 0.07536
976.50 0.07533
976.60 0.0753
976.70 0.07527
976.80 0.07524
976.90 0.07521
977.00 0.07518
977.10 0.07515
977.20 0.07512
977.30 0.07509
977.40 0.07506
977.50 0.07503
977.60 0.075
977.70 0.07497
977.80 0.07494
977.90 0.07491
978.00 0.07488
978.10 0.07485
978.20 0.07482
978.30 0.07479
978.40 0.07476
978.50 0.07473
978.60 0.0747
978.70 0.07467
978.80 0.07464
978.90 0.07461
979.00 0.07458
979.10 0.07455
979.20 0.07452
979.30 0.07449
979.40 0.07446
979.50 0.07443
979.60 0.0744
979.70 0.07437
979.80 0.07434
979.90 0.07431
980.00 0.07428
980.10 0.07425
980.20 0.07422
980.30 0.07419
980.40 0.07416
980.50 0.07413
980.60 0.0741
980.70 0.07407
980.80 0.07404
980.90 0.07401
981.00 0.07398
981.10 0.07395
981.20 0.07392
981.30 0.07389
981.40 0.07386
981.50 0.07383
981.60 0.0738
981.70 0.07377
981.80 0.07374
981.90 0.07371
982.00 0.07368
982.10 0.07365
982.20 0.07362
982.30 0.07359
982.40 0.07356
982.50 0.07353
982.60 0.0735
982.70 0.07347
982.80 0.07344
982.90 0.07342
983.00 0.07339
983.10 0.07336
983.20 0.07333
983.30 0.0733
983.40 0.07327
983.50 0.07324
983.60 0.07321
983.70 0.07318
983.80 0.07315
983.90 0.07312
984.00 0.07309
984.10 0.07306
984.20 0.07303
984.30 0.073
984.40 0.07297
984.50 0.07294
984.60 0.07291
984.70 0.07288
984.80 0.07285
984.90 0.07282
985.00 0.07279
985.10 0.07276
985.20 0.07273
985.30 0.0727
985.40 0.07267
985.50 0.07264
985.60 0.07262
985.70 0.07259
985.80 0.07256
985.90 0.07253
986.00 0.0725
986.10 0.07247
986.20 0.07244
986.30 0.07241
986.40 0.07238
986.50 0.07235
986.60 0.07232
986.70 0.07229
986.80 0.07226
986.90 0.07223
987.00 0.0722
987.10 0.07217
987.20 0.07214
987.30 0.07211
987.40 0.07209
987.50 0.07206
987.60 0.07203
987.70 0.072
987.80 0.07197
987.90 0.07194
988.00 0.07191
988.10 0.07188
988.20 0.07185
988.30 0.07182
988.40 0.07179
988.50 0.07176
988.60 0.07173
988.70 0.0717
988.80 0.07167
988.90 0.07165
989.00 0.07162
989.10 0.07159
989.20 0.07156
989.30 0.07153
989.40 0.0715
989.50 0.07147
989.60 0.07144
989.70 0.07141
989.80 0.07138
989.90 0.07135
990.00 0.07132
990.10 0.07129
990.20 0.07126
990.30 0.07124
990.40 0.07121
990.50 0.07118
990.60 0.07115
990.70 0.07112
990.80 0.07109
990.90 0.07106
991.00 0.07103
991.10 0.071
991.20 0.07097
991.30 0.07094
991.40 0.07091
991.50 0.07089
991.60 0.07086
991.70 0.07083
991.80 0.0708
991.90 0.07077
992.00 0.07074
992.10 0.07071
992.20 0.07068
992.30 0.07065
992.40 0.07062
992.50 0.0706
992.60 0.07057
992.70 0.07054
992.80 0.07051
992.90 0.07048
993.00 0.07045
993.10 0.07042
993.20 0.07039
993.30 0.07036
993.40 0.07033
993.50 0.07031
993.60 0.07028
993.70 0.07025
993.80 0.07022
993.90 0.07019
994.00 0.07016
994.10 0.07013
994.20 0.0701
994.30 0.07007
994.40 0.07005
994.50 0.07002
994.60 0.06999
994.70 0.06996
994.80 0.06993
994.90 0.0699
995.00 0.06987
995.10 0.06984
995.20 0.06982
995.30 0.06979
995.40 0.06976
995.50 0.06973
995.60 0.0697
995.70 0.06967
995.80 0.06964
995.90 0.06961
996.00 0.06959
996.10 0.06956
996.20 0.06953
996.30 0.0695
996.40 0.06947
996.50 0.06944
996.60 0.06941
996.70 0.06939
996.80 0.06936
996.90 0.06933
997.00 0.0693
997.10 0.06927
997.20 0.06924
997.30 0.06921
997.40 0.06919
997.50 0.06916
997.60 0.06913
997.70 0.0691
997.80 0.06907
997.90 0.06904
998.00 0.06902
998.10 0.06899
998.20 0.06896
998.30 0.06893
998.40 0.0689
998.50 0.06888
998.60 0.06885
998.70 0.06882
998.80 0.06879
998.90 0.06876
999.00 0.06874
999.10 0.06871
999.20 0.06868
999.30 0.06865
999.40 0.06862
999.50 0.0686
999.60 0.06857
999.70 0.06854
999.80 0.06851
999.90 0.06848
1000.00 0.06845
1000.10 0.06842
1000.20 0.06839
1000.30 0.06836
1000.40 0.06834
1000.50 0.06831
1000.60 0.06828
1000.70 0.06825
1000.80 0.06822
1000.90 0.06819
1001.00 0.06816
1001.10 0.06813
1001.20 0.0681
1001.30 0.06807
1001.40 0.06805
1001.50 0.06802
1001.60 0.06799
1001.70 0.06796
1001.80 0.06793
1001.90 0.06791
1002.00 0.06788
1002.10 0.06785
1002.20 0.06783
1002.30 0.0678
1002.40 0.06778
1002.50 0.06775
1002.60 0.06773
1002.70 0.0677
1002.80 0.06767
1002.90 0.06765
1003.00 0.06762
1003.10 0.0676
1003.20 0.06757
1003.30 0.06755
1003.40 0.06752
1003.50 0.0675
1003.60 0.06747
1003.70 0.06745
1003.80 0.06742
1003.90 0.0674
1004.00 0.06737
1004.10 0.06735
1004.20 0.06733
1004.30 0.0673
1004.40 0.06728
1004.50 0.06725
1004.60 0.06723
1004.70 0.0672
1004.80 0.06718
1004.90 0.06715
1005.00 0.06713
1005.10 0.0671
1005.20 0.06707
1005.30 0.06705
1005.40 0.06702
1005.50 0.06699
1005.60 0.06697
1005.70 0.06694
1005.80 0.06691
1005.90 0.06688
1006.00 0.06686
1006.10 0.06683
1006.20 0.0668
1006.30 0.06678
1006.40 0.06675
1006.50 0.06672
1006.60 0.0667
1006.70 0.06667
1006.80 0.06664
1006.90 0.06662
1007.00 0.06659
1007.10 0.06656
1007.20 0.06654
1007.30 0.06651
1007.40 0.06649
1007.50 0.06646
1007.60 0.06643
1007.70 0.06641
1007.80 0.06638
1007.90 0.06636
1008.00 0.06634
1008.10 0.06631
1008.20 0.06629
1008.30 0.06626
1008.40 0.06624
1008.50 0.06621
1008.60 0.06619
1008.70 0.06616
1008.80 0.06614
1008.90 0.06611
1009.00 0.06609
1009.10 0.06606
1009.20 0.06604
1009.30 0.06601
1009.40 0.06599
1009.50 0.06596
1009.60 0.06594
1009.70 0.06592
1009.80 0.06589
1009.90 0.06587
1010.00 0.06584
1010.10 0.06582
1010.20 0.0658
1010.30 0.06577
1010.40 0.06575
1010.50 0.06572
1010.60 0.0657
1010.70 0.06568
1010.80 0.06565
1010.90 0.06563
1011.00 0.0656
1011.10 0.06558
1011.20 0.06556
1011.30 0.06553
1011.40 0.06551
1011.50 0.06549
1011.60 0.06546
1011.70 0.06544
1011.80 0.06541
1011.90 0.06539
1012.00 0.06537
1012.10 0.06534
1012.20 0.06532
1012.30 0.0653
1012.40 0.06527
1012.50 0.06525
1012.60 0.06523
1012.70 0.0652
1012.80 0.06518
1012.90 0.06516
1013.00 0.06513
1013.10 0.06511
1013.20 0.06509
1013.30 0.06506
1013.40 0.06504
1013.50 0.06502
1013.60 0.06499
1013.70 0.06497
1013.80 0.06495
1013.90 0.06492
1014.00 0.0649
1014.10 0.06488
1014.20 0.06485
1014.30 0.06483
1014.40 0.06481
1014.50 0.06478
1014.60 0.06476
1014.70 0.06474
1014.80 0.06471
1014.90 0.06469
1015.00 0.06467
1015.10 0.06464
1015.20 0.06462
1015.30 0.0646
1015.40 0.06457
1015.50 0.06455
1015.60 0.06453
1015.70 0.0645
1015.80 0.06448
1015.90 0.06446
1016.00 0.06443
1016.10 0.06441
1016.20 0.06439
1016.30 0.06436
1016.40 0.06434
1016.50 0.06432
1016.60 0.0643
1016.70 0.06427
1016.80 0.06425
1016.90 0.06423
1017.00 0.0642
1017.10 0.06418
1017.20 0.06416
1017.30 0.06413
1017.40 0.06411
1017.50 0.06409
1017.60 0.06406
1017.70 0.06404
1017.80 0.06402
1017.90 0.06399
1018.00 0.06397
1018.10 0.06395
1018.20 0.06393
1018.30 0.0639
1018.40 0.06388
1018.50 0.06386
1018.60 0.06383
1018.70 0.06381
1018.80 0.06379
1018.90 0.06376
1019.00 0.06374
1019.10 0.06372
1019.20 0.0637
1019.30 0.06367
1019.40 0.06365
1019.50 0.06363
1019.60 0.0636
1019.70 0.06358
1019.80 0.06356
1019.90 0.06353
1020.00 0.06351
1020.10 0.06349
1020.20 0.06347
1020.30 0.06344
1020.40 0.06342
1020.50 0.0634
1020.60 0.06337
1020.70 0.06335
1020.80 0.06333
1020.90 0.0633
1021.00 0.06328
1021.10 0.06326
1021.20 0.06324
1021.30 0.06321
1021.40 0.06319
1021.50 0.06317
1021.60 0.06314
1021.70 0.06312
1021.80 0.0631
1021.90 0.06308
1022.00 0.06305
1022.10 0.06303
1022.20 0.06301
1022.30 0.06298
1022.40 0.06296
1022.50 0.06294
1022.60 0.06291
1022.70 0.06289
1022.80 0.06287
1022.90 0.06285
1023.00 0.06282
1023.10 0.0628
1023.20 0.06278
1023.30 0.06275
1023.40 0.06273
1023.50 0.06271
1023.60 0.06269
1023.70 0.06266
1023.80 0.06264
1023.90 0.06262
1024.00 0.06259
1024.10 0.06257
1024.20 0.06255
1024.30 0.06253
1024.40 0.0625
1024.50 0.06248
1024.60 0.06246
1024.70 0.06244
1024.80 0.06241
1024.90 0.06239
1025.00 0.06237
1025.10 0.06234
1025.20 0.06232
1025.30 0.0623
1025.40 0.06228
1025.50 0.06225
1025.60 0.06223
1025.70 0.06221
1025.80 0.06218
1025.90 0.06216
1026.00 0.06214
1026.10 0.06212
1026.20 0.06209
1026.30 0.06207
1026.40 0.06205
1026.50 0.06203
1026.60 0.062
1026.70 0.06198
1026.80 0.06196
1026.90 0.06193
1027.00 0.06191
1027.10 0.06189
1027.20 0.06187
1027.30 0.06184
1027.40 0.06182
1027.50 0.0618
1027.60 0.06178
1027.70 0.06175
1027.80 0.06173
1027.90 0.06171
1028.00 0.06168
1028.10 0.06166
1028.20 0.06164
1028.30 0.06162
1028.40 0.06159
1028.50 0.06157
1028.60 0.06155
1028.70 0.06153
1028.80 0.0615
1028.90 0.06148
1029.00 0.06146
1029.10 0.06144
1029.20 0.06141
1029.30 0.06139
1029.40 0.06137
1029.50 0.06135
1029.60 0.06132
1029.70 0.0613
1029.80 0.06128
1029.90 0.06125
1030.00 0.06123
1030.10 0.06121
1030.20 0.06119
1030.30 0.06116
1030.40 0.06114
1030.50 0.06112
1030.60 0.0611
1030.70 0.06107
1030.80 0.06105
1030.90 0.06103
1031.00 0.06101
1031.10 0.06098
1031.20 0.06096
1031.30 0.06094
1031.40 0.06092
1031.50 0.06089
1031.60 0.06087
1031.70 0.06085
1031.80 0.06083
1031.90 0.06081
1032.00 0.06078
1032.10 0.06076
1032.20 0.06074
1032.30 0.06072
1032.40 0.06069
1032.50 0.06067
1032.60 0.06065
1032.70 0.06063
1032.80 0.0606
1032.90 0.06058
1033.00 0.06056
1033.10 0.06054
1033.20 0.06051
1033.30 0.06049
1033.40 0.06047
1033.50 0.06045
1033.60 0.06042
1033.70 0.0604
1033.80 0.06038
1033.90 0.06036
1034.00 0.06033
1034.10 0.06031
1034.20 0.06029
1034.30 0.06027
1034.40 0.06024
1034.50 0.06022
1034.60 0.0602
1034.70 0.06018
1034.80 0.06016
1034.90 0.06013
1035.00 0.06011
1035.10 0.06009
1035.20 0.06007
1035.30 0.06004
1035.40 0.06002
1035.50 0.06
1035.60 0.05998
1035.70 0.05996
1035.80 0.05993
1035.90 0.05991
1036.00 0.05989
1036.10 0.05987
1036.20 0.05984
1036.30 0.05982
1036.40 0.0598
1036.50 0.05978
1036.60 0.05976
1036.70 0.05973
1036.80 0.05971
1036.90 0.05969
1037.00 0.05967
1037.10 0.05964
1037.20 0.05962
1037.30 0.0596
1037.40 0.05958
1037.50 0.05956
1037.60 0.05953
1037.70 0.05951
1037.80 0.05949
1037.90 0.05947
1038.00 0.05945
1038.10 0.05942
1038.20 0.0594
1038.30 0.05938
1038.40 0.05936
1038.50 0.05934
1038.60 0.05931
1038.70 0.05929
1038.80 0.05927
1038.90 0.05925
1039.00 0.05922
1039.10 0.0592
1039.20 0.05918
1039.30 0.05916
1039.40 0.05914
1039.50 0.05911
1039.60 0.05909
1039.70 0.05907
1039.80 0.05905
1039.90 0.05903
1040.00 0.05901
1040.10 0.05898
1040.20 0.05896
1040.30 0.05894
1040.40 0.05892
1040.50 0.0589
1040.60 0.05887
1040.70 0.05885
1040.80 0.05883
1040.90 0.05881
1041.00 0.05879
1041.10 0.05876
1041.20 0.05874
1041.30 0.05872
1041.40 0.0587
1041.50 0.05868
1041.60 0.05865
1041.70 0.05863
1041.80 0.05861
1041.90 0.05859
1042.00 0.05857
1042.10 0.05855
1042.20 0.05852
1042.30 0.0585
1042.40 0.05848
1042.50 0.05846
1042.60 0.05844
1042.70 0.05841
1042.80 0.05839
1042.90 0.05837
1043.00 0.05835
1043.10 0.05833
1043.20 0.05831
1043.30 0.05828
1043.40 0.05826
1043.50 0.05824
1043.60 0.05822
1043.70 0.0582
1043.80 0.05817
1043.90 0.05815
1044.00 0.05813
1044.10 0.05811
1044.20 0.05809
1044.30 0.05807
1044.40 0.05804
1044.50 0.05802
1044.60 0.058
1044.70 0.05798
1044.80 0.05796
1044.90 0.05794
1045.00 0.05791
1045.10 0.05789
1045.20 0.05787
1045.30 0.05785
1045.40 0.05783
1045.50 0.05781
1045.60 0.05778
1045.70 0.05776
1045.80 0.05774
1045.90 0.05772
1046.00 0.0577
1046.10 0.05768
1046.20 0.05766
1046.30 0.05763
1046.40 0.05761
1046.50 0.05759
1046.60 0.05757
1046.70 0.05755
1046.80 0.05753
1046.90 0.0575
1047.00 0.05748
1047.10 0.05746
1047.20 0.05744
1047.30 0.05742
1047.40 0.0574
1047.50 0.05738
1047.60 0.05735
1047.70 0.05733
1047.80 0.05731
1047.90 0.05729
1048.00 0.05727
1048.10 0.05725
1048.20 0.05723
1048.30 0.0572
1048.40 0.05718
1048.50 0.05716
1048.60 0.05714
1048.70 0.05712
1048.80 0.0571
1048.90 0.05708
1049.00 0.05705
1049.10 0.05703
1049.20 0.05701
1049.30 0.05699
1049.40 0.05697
1049.50 0.05695
1049.60 0.05693
1049.70 0.0569
1049.80 0.05688
1049.90 0.05686
1050.00 0.05684
1050.10 0.05682
1050.20 0.0568
1050.30 0.05678
1050.40 0.05676
1050.50 0.05673
1050.60 0.05671
1050.70 0.05669
1050.80 0.05667
1050.90 0.05665
1051.00 0.05663
1051.10 0.05661
1051.20 0.05658
1051.30 0.05656
1051.40 0.05654
1051.50 0.05652
1051.60 0.0565
1051.70 0.05648
1051.80 0.05646
1051.90 0.05644
1052.00 0.05642
1052.10 0.05639
1052.20 0.05637
1052.30 0.05635
1052.40 0.05633
1052.50 0.05631
1052.60 0.05629
1052.70 0.05627
1052.80 0.05625
1052.90 0.05622
1053.00 0.0562
1053.10 0.05618
1053.20 0.05616
1053.30 0.05614
1053.40 0.05612
1053.50 0.0561
1053.60 0.05608
1053.70 0.05606
1053.80 0.05603
1053.90 0.05601
1054.00 0.05599
1054.10 0.05597
1054.20 0.05595
1054.30 0.05593
1054.40 0.05591
1054.50 0.05589
1054.60 0.05587
1054.70 0.05584
1054.80 0.05582
1054.90 0.0558
1055.00 0.05578
1055.10 0.05576
1055.20 0.05574
1055.30 0.05572
1055.40 0.0557
1055.50 0.05568
1055.60 0.05566
1055.70 0.05563
1055.80 0.05561
1055.90 0.05559
1056.00 0.05557
1056.10 0.05555
1056.20 0.05553
1056.30 0.05551
1056.40 0.05549
1056.50 0.05547
1056.60 0.05545
1056.70 0.05542
1056.80 0.0554
1056.90 0.05538
1057.00 0.05536
1057.10 0.05534
1057.20 0.05532
1057.30 0.0553
1057.40 0.05528
1057.50 0.05526
1057.60 0.05524
1057.70 0.05522
1057.80 0.05519
1057.90 0.05517
1058.00 0.05515
1058.10 0.05513
1058.20 0.05511
1058.30 0.05509
1058.40 0.05507
1058.50 0.05505
1058.60 0.05503
1058.70 0.05501
1058.80 0.05499
1058.90 0.05496
1059.00 0.05494
1059.10 0.05492
1059.20 0.0549
1059.30 0.05488
1059.40 0.05486
1059.50 0.05484
1059.60 0.05482
1059.70 0.0548
1059.80 0.05478
1059.90 0.05476
1060.00 0.05474
1060.10 0.05471
1060.20 0.05469
1060.30 0.05467
1060.40 0.05465
1060.50 0.05463
1060.60 0.05461
1060.70 0.05459
1060.80 0.05457
1060.90 0.05455
1061.00 0.05453
1061.10 0.05451
1061.20 0.05449
1061.30 0.05447
1061.40 0.05445
1061.50 0.05442
1061.60 0.0544
1061.70 0.05438
1061.80 0.05436
1061.90 0.05434
1062.00 0.05432
1062.10 0.0543
1062.20 0.05428
1062.30 0.05426
1062.40 0.05424
1062.50 0.05422
1062.60 0.0542
1062.70 0.05418
1062.80 0.05415
1062.90 0.05413
1063.00 0.05411
1063.10 0.05409
1063.20 0.05407
1063.30 0.05405
1063.40 0.05403
1063.50 0.05401
1063.60 0.05399
1063.70 0.05397
1063.80 0.05395
1063.90 0.05393
1064.00 0.05391
1064.10 0.05389
1064.20 0.05386
1064.30 0.05384
1064.40 0.05382
1064.50 0.0538
1064.60 0.05378
1064.70 0.05376
1064.80 0.05374
1064.90 0.05372
1065.00 0.0537
1065.10 0.05368
1065.20 0.05366
1065.30 0.05364
1065.40 0.05362
1065.50 0.0536
1065.60 0.05358
1065.70 0.05356
1065.80 0.05354
1065.90 0.05351
1066.00 0.05349
1066.10 0.05347
1066.20 0.05345
1066.30 0.05343
1066.40 0.05341
1066.50 0.05339
1066.60 0.05337
1066.70 0.05335
1066.80 0.05333
1066.90 0.05331
1067.00 0.05329
1067.10 0.05327
1067.20 0.05325
1067.30 0.05323
1067.40 0.05321
1067.50 0.05319
1067.60 0.05316
1067.70 0.05314
1067.80 0.05312
1067.90 0.0531
1068.00 0.05308
1068.10 0.05306
1068.20 0.05304
1068.30 0.05302
1068.40 0.053
1068.50 0.05298
1068.60 0.05296
1068.70 0.05294
1068.80 0.05292
1068.90 0.0529
1069.00 0.05288
1069.10 0.05285
1069.20 0.05283
1069.30 0.05281
1069.40 0.05279
1069.50 0.05277
1069.60 0.05275
1069.70 0.05273
1069.80 0.05271
1069.90 0.05269
1070.00 0.05267
1070.10 0.05265
1070.20 0.05263
1070.30 0.05261
1070.40 0.05259
1070.50 0.05257
1070.60 0.05255
1070.70 0.05253
1070.80 0.05251
1070.90 0.05248
1071.00 0.05246
1071.10 0.05244
1071.20 0.05242
1071.30 0.0524
1071.40 0.05238
1071.50 0.05236
1071.60 0.05234
1071.70 0.05232
1071.80 0.0523
1071.90 0.05228
1072.00 0.05226
1072.10 0.05224
1072.20 0.05222
1072.30 0.0522
1072.40 0.05218
1072.50 0.05216
1072.60 0.05214
1072.70 0.05212
1072.80 0.05209
1072.90 0.05207
1073.00 0.05205
1073.10 0.05203
1073.20 0.05201
1073.30 0.05199
1073.40 0.05197
1073.50 0.05195
1073.60 0.05193
1073.70 0.05191
1073.80 0.05189
1073.90 0.05187
1074.00 0.05185
1074.10 0.05183
1074.20 0.05181
1074.30 0.05178
1074.40 0.05176
1074.50 0.05174
1074.60 0.05172
1074.70 0.0517
1074.80 0.05168
1074.90 0.05166
1075.00 0.05164
1075.10 0.05162
1075.20 0.0516
1075.30 0.05158
1075.40 0.05156
1075.50 0.05154
1075.60 0.05152
1075.70 0.0515
1075.80 0.05147
1075.90 0.05145
1076.00 0.05143
1076.10 0.05141
1076.20 0.05139
1076.30 0.05137
1076.40 0.05135
1076.50 0.05133
1076.60 0.05131
1076.70 0.05129
1076.80 0.05127
1076.90 0.05125
1077.00 0.05123
1077.10 0.05121
1077.20 0.05119
1077.30 0.05117
1077.40 0.05114
1077.50 0.05112
1077.60 0.0511
1077.70 0.05108
1077.80 0.05106
1077.90 0.05104
1078.00 0.05102
1078.10 0.051
1078.20 0.05098
1078.30 0.05096
1078.40 0.05094
1078.50 0.05092
1078.60 0.0509
1078.70 0.05087
1078.80 0.05085
1078.90 0.05083
1079.00 0.05081
1079.10 0.05079
1079.20 0.05077
1079.30 0.05075
1079.40 0.05073
1079.50 0.05071
1079.60 0.05069
1079.70 0.05067
1079.80 0.05065
1079.90 0.05063
1080.00 0.0506
1080.10 0.05058
1080.20 0.05056
1080.30 0.05054
1080.40 0.05052
1080.50 0.0505
1080.60 0.05048
1080.70 0.05046
1080.80 0.05044
1080.90 0.05042
1081.00 0.0504
1081.10 0.05038
1081.20 0.05035
1081.30 0.05033
1081.40 0.05031
1081.50 0.05029
1081.60 0.05027
1081.70 0.05025
1081.80 0.05023
1081.90 0.05021
1082.00 0.05019
1082.10 0.05017
1082.20 0.05015
1082.30 0.05013
1082.40 0.0501
1082.50 0.05008
1082.60 0.05006
1082.70 0.05004
1082.80 0.05002
1082.90 0.05
1083.00 0.04998
1083.10 0.04996
1083.20 0.04994
1083.30 0.04992
1083.40 0.0499
1083.50 0.04987
1083.60 0.04985
1083.70 0.04983
1083.80 0.04981
1083.90 0.04979
1084.00 0.04977
1084.10 0.04975
1084.20 0.04973
1084.30 0.04971
1084.40 0.04969
1084.50 0.04967
1084.60 0.04964
1084.70 0.04962
1084.80 0.0496
1084.90 0.04958
1085.00 0.04956
1085.10 0.04954
1085.20 0.04952
1085.30 0.0495
1085.40 0.04948
1085.50 0.04946
1085.60 0.04944
1085.70 0.04942
1085.80 0.04939
1085.90 0.04937
1086.00 0.04935
1086.10 0.04933
1086.20 0.04931
1086.30 0.04929
1086.40 0.04927
1086.50 0.04925
1086.60 0.04923
1086.70 0.04921
1086.80 0.04919
1086.90 0.04917
1087.00 0.04914
1087.10 0.04912
1087.20 0.0491
1087.30 0.04908
1087.40 0.04906
1087.50 0.04904
1087.60 0.04902
1087.70 0.049
1087.80 0.04898
1087.90 0.04896
1088.00 0.04894
1088.10 0.04892
1088.20 0.0489
1088.30 0.04888
1088.40 0.04885
1088.50 0.04883
1088.60 0.04881
1088.70 0.04879
1088.80 0.04877
1088.90 0.04875
1089.00 0.04873
1089.10 0.04871
1089.20 0.04869
1089.30 0.04867
1089.40 0.04865
1089.50 0.04863
1089.60 0.04861
1089.70 0.04859
1089.80 0.04857
1089.90 0.04855
1090.00 0.04853
1090.10 0.0485
1090.20 0.04848
1090.30 0.04846
1090.40 0.04844
1090.50 0.04842
1090.60 0.0484
1090.70 0.04838
1090.80 0.04836
1090.90 0.04834
1091.00 0.04832
1091.10 0.0483
1091.20 0.04828
1091.30 0.04826
1091.40 0.04824
1091.50 0.04822
1091.60 0.0482
1091.70 0.04818
1091.80 0.04816
1091.90 0.04813
1092.00 0.04811
1092.10 0.04809
1092.20 0.04807
1092.30 0.04805
1092.40 0.04803
1092.50 0.04801
1092.60 0.04799
1092.70 0.04797
1092.80 0.04795
1092.90 0.04793
1093.00 0.04791
1093.10 0.04789
1093.20 0.04787
1093.30 0.04785
1093.40 0.04784
1093.50 0.04782
1093.60 0.04781
1093.70 0.0478
1093.80 0.04779
1093.90 0.04777
1094.00 0.04775
1094.10 0.04773
1094.20 0.04771
1094.30 0.04769
1094.40 0.04768
1094.50 0.04767
1094.60 0.04765
1094.70 0.04764
1094.80 0.04762
1094.90 0.04761
1095.00 0.04759
1095.10 0.04758
1095.20 0.04757
1095.30 0.04756
1095.40 0.04754
1095.50 0.04753
1095.60 0.04752
1095.70 0.0475
1095.80 0.04749
1095.90 0.04748
1096.00 0.04746
1096.10 0.04745
1096.20 0.04744
1096.30 0.04742
1096.40 0.04741
1096.50 0.0474
1096.60 0.04738
1096.70 0.04737
1096.80 0.04736
1096.90 0.04734
1097.00 0.04733
1097.10 0.04732
1097.20 0.0473
1097.30 0.04729
1097.40 0.04728
1097.50 0.04726
1097.60 0.04725
1097.70 0.04724
1097.80 0.04722
1097.90 0.04721
1098.00 0.0472
1098.10 0.04718
1098.20 0.04717
1098.30 0.04715
1098.40 0.04714
1098.50 0.04713
1098.60 0.04711
1098.70 0.0471
1098.80 0.04709
1098.90 0.04707
1099.00 0.04706
1099.10 0.04705
1099.20 0.04703
1099.30 0.04702
1099.40 0.04701
1099.50 0.04699
1099.60 0.04698
1099.70 0.04697
1099.80 0.04695
1099.90 0.04694
1100.00 0.04693
1100.10 0.04691
1100.20 0.0469
1100.30 0.04689
1100.40 0.04687
1100.50 0.04686
1100.60 0.04685
1100.70 0.04683
1100.80 0.04682
1100.90 0.04681
1101.00 0.04679
1101.10 0.04678
1101.20 0.04677
1101.30 0.04675
1101.40 0.04674
1101.50 0.04673
1101.60 0.04671
1101.70 0.0467
1101.80 0.04669
1101.90 0.04667
1102.00 0.04666
1102.10 0.04664
1102.20 0.04663
1102.30 0.04662
1102.40 0.0466
1102.50 0.04659
1102.60 0.04658
1102.70 0.04656
1102.80 0.04655
1102.90 0.04654
1103.00 0.04652
1103.10 0.04651
1103.20 0.0465
1103.30 0.04648
1103.40 0.04647
1103.50 0.04646
1103.60 0.04644
1103.70 0.04643
1103.80 0.04642
1103.90 0.0464
1104.00 0.04639
1104.10 0.04637
1104.20 0.04636
1104.30 0.04635
1104.40 0.04633
1104.50 0.04632
1104.60 0.04631
1104.70 0.04629
1104.80 0.04628
1104.90 0.04627
1105.00 0.04625
1105.10 0.04624
1105.20 0.04623
1105.30 0.04621
1105.40 0.0462
1105.50 0.04618
1105.60 0.04617
1105.70 0.04616
1105.80 0.04614
1105.90 0.04613
1106.00 0.04612
1106.10 0.0461
1106.20 0.04609
1106.30 0.04607
1106.40 0.04606
1106.50 0.04605
1106.60 0.04603
1106.70 0.04602
1106.80 0.04601
1106.90 0.04599
1107.00 0.04598
1107.10 0.04597
1107.20 0.04595
1107.30 0.04594
1107.40 0.04592
1107.50 0.04591
1107.60 0.0459
1107.70 0.04588
1107.80 0.04587
1107.90 0.04585
1108.00 0.04584
1108.10 0.04583
1108.20 0.04581
1108.30 0.0458
1108.40 0.04578
1108.50 0.04577
1108.60 0.04576
1108.70 0.04574
1108.80 0.04573
1108.90 0.04572
1109.00 0.0457
1109.10 0.04569
1109.20 0.04567
1109.30 0.04566
1109.40 0.04565
1109.50 0.04563
1109.60 0.04562
1109.70 0.0456
1109.80 0.04559
1109.90 0.04558
1110.00 0.04556
1110.10 0.04555
1110.20 0.04553
1110.30 0.04552
1110.40 0.0455
1110.50 0.04549
1110.60 0.04548
1110.70 0.04546
1110.80 0.04545
1110.90 0.04543
1111.00 0.04542
1111.10 0.04541
1111.20 0.04539
1111.30 0.04538
1111.40 0.04536
1111.50 0.04535
1111.60 0.04534
1111.70 0.04532
1111.80 0.04531
1111.90 0.04529
1112.00 0.04528
1112.10 0.04527
1112.20 0.04525
1112.30 0.04524
1112.40 0.04522
1112.50 0.04521
1112.60 0.04519
1112.70 0.04518
1112.80 0.04517
1112.90 0.04515
1113.00 0.04514
1113.10 0.04512
1113.20 0.04511
1113.30 0.0451
1113.40 0.04508
1113.50 0.04507
1113.60 0.04505
1113.70 0.04504
1113.80 0.04502
1113.90 0.04501
1114.00 0.04499
1114.10 0.04498
1114.20 0.04497
1114.30 0.04495
1114.40 0.04494
1114.50 0.04492
1114.60 0.04491
1114.70 0.04489
1114.80 0.04488
1114.90 0.04487
1115.00 0.04485
1115.10 0.04484
1115.20 0.04482
1115.30 0.04481
1115.40 0.04479
1115.50 0.04478
1115.60 0.04477
1115.70 0.04475
1115.80 0.04474
1115.90 0.04472
1116.00 0.04471
1116.10 0.04469
1116.20 0.04468
1116.30 0.04467
1116.40 0.04465
1116.50 0.04464
1116.60 0.04462
1116.70 0.04461
1116.80 0.04459
1116.90 0.04458
1117.00 0.04457
1117.10 0.04455
1117.20 0.04454
1117.30 0.04452
1117.40 0.04451
1117.50 0.04449
1117.60 0.04448
1117.70 0.04446
1117.80 0.04445
1117.90 0.04443
1118.00 0.04442
1118.10 0.04441
1118.20 0.04439
1118.30 0.04438
1118.40 0.04436
1118.50 0.04435
1118.60 0.04433
1118.70 0.04432
1118.80 0.0443
1118.90 0.04429
1119.00 0.04427
1119.10 0.04426
1119.20 0.04425
1119.30 0.04423
1119.40 0.04422
1119.50 0.0442
1119.60 0.04419
1119.70 0.04417
1119.80 0.04416
1119.90 0.04414
1120.00 0.04413
1120.10 0.04412
1120.20 0.0441
1120.30 0.04409
1120.40 0.04407
1120.50 0.04406
1120.60 0.04404
1120.70 0.04403
1120.80 0.04401
1120.90 0.044
1121.00 0.04399
1121.10 0.04397
1121.20 0.04396
1121.30 0.04394
1121.40 0.04393
1121.50 0.04391
1121.60 0.0439
1121.70 0.04389
1121.80 0.04387
1121.90 0.04386
1122.00 0.04384
1122.10 0.04383
1122.20 0.04381
1122.30 0.0438
1122.40 0.04378
1122.50 0.04377
1122.60 0.04376
1122.70 0.04374
1122.80 0.04373
1122.90 0.04371
1123.00 0.0437
1123.10 0.04368
1123.20 0.04367
1123.30 0.04365
1123.40 0.04364
1123.50 0.04362
1123.60 0.04361
1123.70 0.0436
1123.80 0.04358
1123.90 0.04357
1124.00 0.04355
1124.10 0.04354
1124.20 0.04352
1124.30 0.04351
1124.40 0.04349
1124.50 0.04348
1124.60 0.04347
1124.70 0.04345
1124.80 0.04344
1124.90 0.04342
1125.00 0.04341
1125.10 0.04339
1125.20 0.04338
1125.30 0.04336
1125.40 0.04335
1125.50 0.04334
1125.60 0.04332
1125.70 0.04331
1125.80 0.04329
1125.90 0.04328
1126.00 0.04326
1126.10 0.04325
1126.20 0.04323
1126.30 0.04322
1126.40 0.04321
1126.50 0.04319
1126.60 0.04318
1126.70 0.04316
1126.80 0.04315
1126.90 0.04313
1127.00 0.04312
1127.10 0.04311
1127.20 0.04309
1127.30 0.04308
1127.40 0.04306
1127.50 0.04305
1127.60 0.04303
1127.70 0.04302
1127.80 0.043
1127.90 0.04299
1128.00 0.04298
1128.10 0.04296
1128.20 0.04295
1128.30 0.04293
1128.40 0.04292
1128.50 0.0429
1128.60 0.04289
1128.70 0.04287
1128.80 0.04286
1128.90 0.04285
1129.00 0.04283
1129.10 0.04282
1129.20 0.0428
1129.30 0.04279
1129.40 0.04277
1129.50 0.04276
1129.60 0.04274
1129.70 0.04273
1129.80 0.04272
1129.90 0.0427
1130.00 0.04269
1130.10 0.04267
1130.20 0.04266
1130.30 0.04264
1130.40 0.04263
1130.50 0.04262
1130.60 0.0426
1130.70 0.04259
1130.80 0.04257
1130.90 0.04256
1131.00 0.04254
1131.10 0.04253
1131.20 0.04252
1131.30 0.0425
1131.40 0.04249
1131.50 0.04247
1131.60 0.04246
1131.70 0.04244
1131.80 0.04243
1131.90 0.04242
1132.00 0.0424
1132.10 0.04239
1132.20 0.04237
1132.30 0.04236
1132.40 0.04234
1132.50 0.04233
1132.60 0.04232
1132.70 0.0423
1132.80 0.04229
1132.90 0.04227
1133.00 0.04226
1133.10 0.04224
1133.20 0.04223
1133.30 0.04222
1133.40 0.0422
1133.50 0.04219
1133.60 0.04217
1133.70 0.04216
1133.80 0.04214
1133.90 0.04213
1134.00 0.04212
1134.10 0.0421
1134.20 0.04209
1134.30 0.04207
1134.40 0.04206
1134.50 0.04205
1134.60 0.04203
1134.70 0.04202
1134.80 0.042
1134.90 0.04199
1135.00 0.04197
1135.10 0.04196
1135.20 0.04195
1135.30 0.04193
1135.40 0.04192
1135.50 0.0419
1135.60 0.04189
1135.70 0.04188
1135.80 0.04186
1135.90 0.04185
1136.00 0.04183
1136.10 0.04182
1136.20 0.0418
1136.30 0.04179
1136.40 0.04178
1136.50 0.04176
1136.60 0.04175
1136.70 0.04173
1136.80 0.04172
1136.90 0.04171
1137.00 0.04169
1137.10 0.04168
1137.20 0.04166
1137.30 0.04165
1137.40 0.04164
1137.50 0.04162
1137.60 0.04161
1137.70 0.04159
1137.80 0.04158
1137.90 0.04156
1138.00 0.04155
1138.10 0.04154
1138.20 0.04152
1138.30 0.04151
1138.40 0.04149
1138.50 0.04148
1138.60 0.04147
1138.70 0.04145
1138.80 0.04144
1138.90 0.04142
1139.00 0.04141
1139.10 0.0414
1139.20 0.04138
1139.30 0.04137
1139.40 0.04135
1139.50 0.04134
1139.60 0.04133
1139.70 0.04131
1139.80 0.0413
1139.90 0.04128
1140.00 0.04127
1140.10 0.04126
1140.20 0.04124
1140.30 0.04123
1140.40 0.04121
1140.50 0.0412
1140.60 0.04119
1140.70 0.04117
1140.80 0.04116
1140.90 0.04114
1141.00 0.04113
1141.10 0.04112
1141.20 0.0411
1141.30 0.04109
1141.40 0.04108
1141.50 0.04106
1141.60 0.04105
1141.70 0.04103
1141.80 0.04102
1141.90 0.04101
1142.00 0.04099
1142.10 0.04098
1142.20 0.04096
1142.30 0.04095
1142.40 0.04094
1142.50 0.04092
1142.60 0.04091
1142.70 0.04089
1142.80 0.04088
1142.90 0.04087
1143.00 0.04085
1143.10 0.04084
1143.20 0.04083
1143.30 0.04081
1143.40 0.0408
1143.50 0.04078
1143.60 0.04077
1143.70 0.04076
1143.80 0.04074
1143.90 0.04073
1144.00 0.04072
1144.10 0.0407
1144.20 0.04069
1144.30 0.04067
1144.40 0.04066
1144.50 0.04065
1144.60 0.04063
1144.70 0.04062
1144.80 0.04061
1144.90 0.04059
1145.00 0.04058
1145.10 0.04056
1145.20 0.04055
1145.30 0.04054
1145.40 0.04052
1145.50 0.04051
1145.60 0.0405
1145.70 0.04048
1145.80 0.04047
1145.90 0.04045
1146.00 0.04044
1146.10 0.04043
1146.20 0.04041
1146.30 0.0404
1146.40 0.04039
1146.50 0.04037
1146.60 0.04036
1146.70 0.04034
1146.80 0.04033
1146.90 0.04032
1147.00 0.0403
1147.10 0.04029
1147.20 0.04028
1147.30 0.04026
1147.40 0.04025
1147.50 0.04024
1147.60 0.04022
1147.70 0.04021
1147.80 0.04019
1147.90 0.04018
1148.00 0.04017
1148.10 0.04015
1148.20 0.04014
1148.30 0.04013
1148.40 0.04011
1148.50 0.0401
1148.60 0.04009
1148.70 0.04007
1148.80 0.04006
1148.90 0.04005
1149.00 0.04003
1149.10 0.04002
1149.20 0.04
1149.30 0.03999
1149.40 0.03998
1149.50 0.03996
1149.60 0.03995
1149.70 0.03994
1149.80 0.03992
1149.90 0.03991
1150.00 0.0399
1150.10 0.03988
1150.20 0.03987
1150.30 0.03986
1150.40 0.03984
1150.50 0.03983
1150.60 0.03982
1150.70 0.0398
1150.80 0.03979
1150.90 0.03978
1151.00 0.03976
1151.10 0.03975
1151.20 0.03974
1151.30 0.03972
1151.40 0.03971
1151.50 0.03969
1151.60 0.03968
1151.70 0.03967
1151.80 0.03965
1151.90 0.03964
1152.00 0.03963
1152.10 0.03961
1152.20 0.0396
1152.30 0.03959
1152.40 0.03957
1152.50 0.03956
1152.60 0.03955
1152.70 0.03953
1152.80 0.03952
1152.90 0.03951
1153.00 0.03949
1153.10 0.03948
1153.20 0.03947
1153.30 0.03945
1153.40 0.03944
1153.50 0.03943
1153.60 0.03941
1153.70 0.0394
1153.80 0.03939
1153.90 0.03937
1154.00 0.03936
1154.10 0.03935
1154.20 0.03933
1154.30 0.03932
1154.40 0.03931
1154.50 0.03929
1154.60 0.03928
1154.70 0.03927
1154.80 0.03925
1154.90 0.03924
1155.00 0.03923
1155.10 0.03922
1155.20 0.0392
1155.30 0.03919
1155.40 0.03918
1155.50 0.03916
1155.60 0.03915
1155.70 0.03914
1155.80 0.03912
1155.90 0.03911
1156.00 0.0391
1156.10 0.03908
1156.20 0.03907
1156.30 0.03906
1156.40 0.03904
1156.50 0.03903
1156.60 0.03902
1156.70 0.039
1156.80 0.03899
1156.90 0.03898
1157.00 0.03896
1157.10 0.03895
1157.20 0.03894
1157.30 0.03893
1157.40 0.03891
1157.50 0.0389
1157.60 0.03889
1157.70 0.03887
1157.80 0.03886
1157.90 0.03885
1158.00 0.03883
1158.10 0.03882
1158.20 0.03881
1158.30 0.03879
1158.40 0.03878
1158.50 0.03877
1158.60 0.03876
1158.70 0.03874
1158.80 0.03873
1158.90 0.03872
1159.00 0.0387
1159.10 0.03869
1159.20 0.03868
1159.30 0.03866
1159.40 0.03865
1159.50 0.03864
1159.60 0.03862
1159.70 0.03861
1159.80 0.0386
1159.90 0.03859
1160.00 0.03857
1160.10 0.03856
1160.20 0.03855
1160.30 0.03853
1160.40 0.03852
1160.50 0.03851
1160.60 0.0385
1160.70 0.03848
1160.80 0.03847
1160.90 0.03846
1161.00 0.03844
1161.10 0.03843
1161.20 0.03842
1161.30 0.0384
1161.40 0.03839
1161.50 0.03838
1161.60 0.03837
1161.70 0.03835
1161.80 0.03834
1161.90 0.03833
1162.00 0.03831
1162.10 0.0383
1162.20 0.03829
1162.30 0.03828
1162.40 0.03826
1162.50 0.03825
1162.60 0.03824
1162.70 0.03822
1162.80 0.03821
1162.90 0.0382
1163.00 0.03819
1163.10 0.03817
1163.20 0.03816
1163.30 0.03815
1163.40 0.03813
1163.50 0.03812
1163.60 0.03811
1163.70 0.0381
1163.80 0.03808
1163.90 0.03807
1164.00 0.03806
1164.10 0.03804
1164.20 0.03803
1164.30 0.03802
1164.40 0.03801
1164.50 0.03799
1164.60 0.03798
1164.70 0.03797
1164.80 0.03796
1164.90 0.03794
1165.00 0.03793
1165.10 0.03792
1165.20 0.0379
1165.30 0.03789
1165.40 0.03788
1165.50 0.03787
1165.60 0.03785
1165.70 0.03784
1165.80 0.03783
1165.90 0.03782
1166.00 0.0378
1166.10 0.03779
1166.20 0.03778
1166.30 0.03776
1166.40 0.03775
1166.50 0.03774
1166.60 0.03773
1166.70 0.03771
1166.80 0.0377
1166.90 0.03769
1167.00 0.03768
1167.10 0.03766
1167.20 0.03765
1167.30 0.03764
1167.40 0.03763
1167.50 0.03761
1167.60 0.0376
1167.70 0.03759
1167.80 0.03758
1167.90 0.03756
1168.00 0.03755
1168.10 0.03754
1168.20 0.03753
1168.30 0.03751
1168.40 0.0375
1168.50 0.03749
1168.60 0.03748
1168.70 0.03746
1168.80 0.03745
1168.90 0.03744
1169.00 0.03742
1169.10 0.03741
1169.20 0.0374
1169.30 0.03739
1169.40 0.03737
1169.50 0.03736
1169.60 0.03735
1169.70 0.03734
1169.80 0.03732
1169.90 0.03731
1170.00 0.0373
1170.10 0.03729
1170.20 0.03727
1170.30 0.03726
1170.40 0.03725
1170.50 0.03724
1170.60 0.03722
1170.70 0.03721
1170.80 0.0372
1170.90 0.03719
1171.00 0.03718
1171.10 0.03716
1171.20 0.03715
1171.30 0.03714
1171.40 0.03713
1171.50 0.03711
1171.60 0.0371
1171.70 0.03709
1171.80 0.03708
1171.90 0.03706
1172.00 0.03705
1172.10 0.03704
1172.20 0.03703
1172.30 0.03701
1172.40 0.037
1172.50 0.03699
1172.60 0.03698
1172.70 0.03696
1172.80 0.03695
1172.90 0.03694
1173.00 0.03693
1173.10 0.03692
1173.20 0.0369
1173.30 0.03689
1173.40 0.03688
1173.50 0.03687
1173.60 0.03685
1173.70 0.03684
1173.80 0.03683
1173.90 0.03682
1174.00 0.0368
1174.10 0.03679
1174.20 0.03678
1174.30 0.03677
1174.40 0.03676
1174.50 0.03674
1174.60 0.03673
1174.70 0.03672
1174.80 0.03671
1174.90 0.03669
1175.00 0.03668
1175.10 0.03667
1175.20 0.03666
1175.30 0.03665
1175.40 0.03663
1175.50 0.03662
1175.60 0.03661
1175.70 0.0366
1175.80 0.03658
1175.90 0.03657
1176.00 0.03656
1176.10 0.03655
1176.20 0.03654
1176.30 0.03652
1176.40 0.03651
1176.50 0.0365
1176.60 0.03649
1176.70 0.03647
1176.80 0.03646
1176.90 0.03645
1177.00 0.03644
1177.10 0.03643
1177.20 0.03641
1177.30 0.0364
1177.40 0.03639
1177.50 0.03638
1177.60 0.03637
1177.70 0.03635
1177.80 0.03634
1177.90 0.03633
1178.00 0.03632
1178.10 0.03631
1178.20 0.03629
1178.30 0.03628
1178.40 0.03627
1178.50 0.03626
1178.60 0.03625
1178.70 0.03623
1178.80 0.03622
1178.90 0.03621
1179.00 0.0362
1179.10 0.03618
1179.20 0.03617
1179.30 0.03616
1179.40 0.03615
1179.50 0.03614
1179.60 0.03612
1179.70 0.03611
1179.80 0.0361
1179.90 0.03609
1180.00 0.03608
1180.10 0.03606
1180.20 0.03605
1180.30 0.03604
1180.40 0.03603
1180.50 0.03602
1180.60 0.036
1180.70 0.03599
1180.80 0.03598
1180.90 0.03597
1181.00 0.03596
1181.10 0.03595
1181.20 0.03593
1181.30 0.03592
1181.40 0.03591
1181.50 0.0359
1181.60 0.03589
1181.70 0.03587
1181.80 0.03586
1181.90 0.03585
1182.00 0.03584
1182.10 0.03583
1182.20 0.03581
1182.30 0.0358
1182.40 0.03579
1182.50 0.03578
1182.60 0.03577
1182.70 0.03575
1182.80 0.03574
1182.90 0.03573
1183.00 0.03572
1183.10 0.03571
1183.20 0.0357
1183.30 0.03568
1183.40 0.03567
1183.50 0.03566
1183.60 0.03565
1183.70 0.03564
1183.80 0.03562
1183.90 0.03561
1184.00 0.0356
1184.10 0.03559
1184.20 0.03558
1184.30 0.03557
1184.40 0.03555
1184.50 0.03554
1184.60 0.03553
1184.70 0.03552
1184.80 0.03551
1184.90 0.0355
1185.00 0.03548
1185.10 0.03547
1185.20 0.03546
1185.30 0.03545
1185.40 0.03544
1185.50 0.03542
1185.60 0.03541
1185.70 0.0354
1185.80 0.03539
1185.90 0.03538
1186.00 0.03537
1186.10 0.03535
1186.20 0.03534
1186.30 0.03533
1186.40 0.03532
1186.50 0.03531
1186.60 0.0353
1186.70 0.03528
1186.80 0.03527
1186.90 0.03526
1187.00 0.03525
1187.10 0.03524
1187.20 0.03523
1187.30 0.03521
1187.40 0.0352
1187.50 0.03519
1187.60 0.03518
1187.70 0.03517
1187.80 0.03516
1187.90 0.03514
1188.00 0.03513
1188.10 0.03512
1188.20 0.03511
1188.30 0.0351
1188.40 0.03509
1188.50 0.03507
1188.60 0.03506
1188.70 0.03505
1188.80 0.03504
1188.90 0.03503
1189.00 0.03502
1189.10 0.03501
1189.20 0.03499
1189.30 0.03498
1189.40 0.03497
1189.50 0.03496
1189.60 0.03495
1189.70 0.03494
1189.80 0.03492
1189.90 0.03491
1190.00 0.0349
1190.10 0.03489
1190.20 0.03488
1190.30 0.03487
1190.40 0.03486
1190.50 0.03484
1190.60 0.03483
1190.70 0.03482
1190.80 0.03481
1190.90 0.0348
1191.00 0.03479
1191.10 0.03478
1191.20 0.03476
1191.30 0.03475
1191.40 0.03474
1191.50 0.03473
1191.60 0.03472
1191.70 0.03471
1191.80 0.03469
1191.90 0.03468
1192.00 0.03467
1192.10 0.03466
1192.20 0.03465
1192.30 0.03464
1192.40 0.03463
1192.50 0.03461
1192.60 0.0346
1192.70 0.03459
1192.80 0.03458
1192.90 0.03457
1193.00 0.03456
1193.10 0.03455
1193.20 0.03454
1193.30 0.03452
1193.40 0.03451
1193.50 0.0345
1193.60 0.03449
1193.70 0.03448
1193.80 0.03447
1193.90 0.03446
1194.00 0.03444
1194.10 0.03443
1194.20 0.03442
1194.30 0.03441
1194.40 0.0344
1194.50 0.03439
1194.60 0.03438
1194.70 0.03437
1194.80 0.03435
1194.90 0.03434
1195.00 0.03433
1195.10 0.03432
1195.20 0.03431
1195.30 0.0343
1195.40 0.03429
1195.50 0.03427
1195.60 0.03426
1195.70 0.03425
1195.80 0.03424
1195.90 0.03423
1196.00 0.03422
1196.10 0.03421
1196.20 0.0342
1196.30 0.03418
1196.40 0.03417
1196.50 0.03416
1196.60 0.03415
1196.70 0.03414
1196.80 0.03413
1196.90 0.03412
1197.00 0.03411
1197.10 0.03409
1197.20 0.03408
1197.30 0.03407
1197.40 0.03406
1197.50 0.03405
1197.60 0.03404
1197.70 0.03403
1197.80 0.03402
1197.90 0.03401
1198.00 0.03399
1198.10 0.03398
1198.20 0.03397
1198.30 0.03396
1198.40 0.03395
1198.50 0.03394
1198.60 0.03393
1198.70 0.03392
1198.80 0.03391
1198.90 0.03389
1199.00 0.03388
1199.10 0.03387
1199.20 0.03386
1199.30 0.03385
1199.40 0.03384
1199.50 0.03383
1199.60 0.03382
1199.70 0.03381
1199.80 0.03379
1199.90 0.03378
1200.00 0
