# Version 2.1 - nm, norm@500 to 1, cut digits, bergeron_13000_95.dat_13000
# Wavelength(nm)  Flambda(ergs/cm^s/s/nm)
300.00 2.505
300.10 2.503
300.20 2.501
300.30 2.5
300.40 2.498
300.50 2.496
300.60 2.495
300.70 2.493
300.80 2.492
300.90 2.49
301.00 2.488
301.10 2.487
301.20 2.485
301.30 2.484
301.40 2.482
301.50 2.48
301.60 2.479
301.70 2.477
301.80 2.476
301.90 2.474
302.00 2.473
302.10 2.471
302.20 2.469
302.30 2.468
302.40 2.466
302.50 2.465
302.60 2.463
302.70 2.461
302.80 2.46
302.90 2.458
303.00 2.457
303.10 2.455
303.20 2.454
303.30 2.452
303.40 2.45
303.50 2.449
303.60 2.447
303.70 2.446
303.80 2.444
303.90 2.442
304.00 2.441
304.10 2.439
304.20 2.438
304.30 2.436
304.40 2.435
304.50 2.433
304.60 2.432
304.70 2.43
304.80 2.428
304.90 2.427
305.00 2.425
305.10 2.424
305.20 2.422
305.30 2.421
305.40 2.419
305.50 2.417
305.60 2.416
305.70 2.414
305.80 2.413
305.90 2.411
306.00 2.41
306.10 2.408
306.20 2.407
306.30 2.405
306.40 2.404
306.50 2.402
306.60 2.4
306.70 2.399
306.80 2.397
306.90 2.396
307.00 2.394
307.10 2.393
307.20 2.391
307.30 2.39
307.40 2.388
307.50 2.387
307.60 2.385
307.70 2.383
307.80 2.382
307.90 2.38
308.00 2.379
308.10 2.377
308.20 2.376
308.30 2.374
308.40 2.373
308.50 2.371
308.60 2.37
308.70 2.368
308.80 2.367
308.90 2.365
309.00 2.364
309.10 2.362
309.20 2.361
309.30 2.359
309.40 2.358
309.50 2.356
309.60 2.355
309.70 2.353
309.80 2.352
309.90 2.35
310.00 2.348
310.10 2.347
310.20 2.345
310.30 2.344
310.40 2.342
310.50 2.341
310.60 2.339
310.70 2.338
310.80 2.336
310.90 2.335
311.00 2.333
311.10 2.332
311.20 2.33
311.30 2.329
311.40 2.327
311.50 2.326
311.60 2.324
311.70 2.323
311.80 2.321
311.90 2.32
312.00 2.318
312.10 2.317
312.20 2.315
312.30 2.314
312.40 2.313
312.50 2.311
312.60 2.31
312.70 2.308
312.80 2.307
312.90 2.305
313.00 2.304
313.10 2.302
313.20 2.301
313.30 2.299
313.40 2.298
313.50 2.296
313.60 2.295
313.70 2.293
313.80 2.292
313.90 2.29
314.00 2.289
314.10 2.287
314.20 2.286
314.30 2.284
314.40 2.283
314.50 2.281
314.60 2.28
314.70 2.279
314.80 2.277
314.90 2.276
315.00 2.274
315.10 2.273
315.20 2.271
315.30 2.27
315.40 2.268
315.50 2.267
315.60 2.265
315.70 2.264
315.80 2.263
315.90 2.261
316.00 2.26
316.10 2.258
316.20 2.257
316.30 2.255
316.40 2.254
316.50 2.252
316.60 2.251
316.70 2.249
316.80 2.248
316.90 2.247
317.00 2.245
317.10 2.244
317.20 2.242
317.30 2.241
317.40 2.239
317.50 2.238
317.60 2.236
317.70 2.235
317.80 2.234
317.90 2.232
318.00 2.231
318.10 2.229
318.20 2.228
318.30 2.226
318.40 2.225
318.50 2.224
318.60 2.222
318.70 2.221
318.80 2.219
318.90 2.218
319.00 2.216
319.10 2.215
319.20 2.214
319.30 2.212
319.40 2.211
319.50 2.209
319.60 2.208
319.70 2.207
319.80 2.205
319.90 2.204
320.00 2.202
320.10 2.201
320.20 2.199
320.30 2.198
320.40 2.197
320.50 2.195
320.60 2.194
320.70 2.192
320.80 2.191
320.90 2.19
321.00 2.188
321.10 2.187
321.20 2.185
321.30 2.184
321.40 2.183
321.50 2.181
321.60 2.18
321.70 2.178
321.80 2.177
321.90 2.176
322.00 2.174
322.10 2.173
322.20 2.171
322.30 2.17
322.40 2.169
322.50 2.167
322.60 2.166
322.70 2.164
322.80 2.163
322.90 2.162
323.00 2.16
323.10 2.159
323.20 2.158
323.30 2.156
323.40 2.155
323.50 2.153
323.60 2.152
323.70 2.151
323.80 2.149
323.90 2.148
324.00 2.147
324.10 2.145
324.20 2.144
324.30 2.142
324.40 2.141
324.50 2.14
324.60 2.138
324.70 2.137
324.80 2.136
324.90 2.134
325.00 2.133
325.10 2.131
325.20 2.13
325.30 2.129
325.40 2.127
325.50 2.126
325.60 2.125
325.70 2.123
325.80 2.122
325.90 2.121
326.00 2.119
326.10 2.118
326.20 2.116
326.30 2.115
326.40 2.114
326.50 2.112
326.60 2.111
326.70 2.11
326.80 2.108
326.90 2.107
327.00 2.106
327.10 2.104
327.20 2.103
327.30 2.102
327.40 2.1
327.50 2.099
327.60 2.098
327.70 2.096
327.80 2.095
327.90 2.094
328.00 2.092
328.10 2.091
328.20 2.089
328.30 2.088
328.40 2.087
328.50 2.085
328.60 2.084
328.70 2.083
328.80 2.081
328.90 2.08
329.00 2.079
329.10 2.077
329.20 2.076
329.30 2.075
329.40 2.074
329.50 2.072
329.60 2.071
329.70 2.07
329.80 2.068
329.90 2.067
330.00 2.066
330.10 2.064
330.20 2.063
330.30 2.062
330.40 2.06
330.50 2.059
330.60 2.058
330.70 2.056
330.80 2.055
330.90 2.054
331.00 2.052
331.10 2.051
331.20 2.05
331.30 2.048
331.40 2.047
331.50 2.046
331.60 2.045
331.70 2.043
331.80 2.042
331.90 2.041
332.00 2.039
332.10 2.038
332.20 2.037
332.30 2.035
332.40 2.034
332.50 2.033
332.60 2.032
332.70 2.03
332.80 2.029
332.90 2.028
333.00 2.026
333.10 2.025
333.20 2.024
333.30 2.022
333.40 2.021
333.50 2.02
333.60 2.019
333.70 2.017
333.80 2.016
333.90 2.015
334.00 2.013
334.10 2.012
334.20 2.011
334.30 2.01
334.40 2.008
334.50 2.007
334.60 2.006
334.70 2.004
334.80 2.003
334.90 2.002
335.00 2.001
335.10 1.999
335.20 1.998
335.30 1.997
335.40 1.996
335.50 1.994
335.60 1.993
335.70 1.992
335.80 1.99
335.90 1.989
336.00 1.988
336.10 1.987
336.20 1.985
336.30 1.984
336.40 1.983
336.50 1.982
336.60 1.98
336.70 1.979
336.80 1.978
336.90 1.977
337.00 1.975
337.10 1.974
337.20 1.973
337.30 1.971
337.40 1.97
337.50 1.969
337.60 1.968
337.70 1.966
337.80 1.965
337.90 1.964
338.00 1.963
338.10 1.961
338.20 1.96
338.30 1.959
338.40 1.958
338.50 1.956
338.60 1.955
338.70 1.954
338.80 1.953
338.90 1.951
339.00 1.95
339.10 1.949
339.20 1.948
339.30 1.947
339.40 1.945
339.50 1.944
339.60 1.943
339.70 1.942
339.80 1.94
339.90 1.939
340.00 1.938
340.10 1.937
340.20 1.935
340.30 1.934
340.40 1.933
340.50 1.932
340.60 1.93
340.70 1.929
340.80 1.928
340.90 1.927
341.00 1.926
341.10 1.924
341.20 1.923
341.30 1.922
341.40 1.921
341.50 1.919
341.60 1.918
341.70 1.917
341.80 1.916
341.90 1.915
342.00 1.913
342.10 1.912
342.20 1.911
342.30 1.91
342.40 1.909
342.50 1.907
342.60 1.906
342.70 1.905
342.80 1.904
342.90 1.902
343.00 1.901
343.10 1.9
343.20 1.899
343.30 1.898
343.40 1.896
343.50 1.895
343.60 1.894
343.70 1.893
343.80 1.892
343.90 1.89
344.00 1.889
344.10 1.888
344.20 1.887
344.30 1.886
344.40 1.884
344.50 1.883
344.60 1.882
344.70 1.881
344.80 1.88
344.90 1.878
345.00 1.877
345.10 1.876
345.20 1.875
345.30 1.874
345.40 1.873
345.50 1.871
345.60 1.87
345.70 1.869
345.80 1.868
345.90 1.867
346.00 1.865
346.10 1.864
346.20 1.863
346.30 1.862
346.40 1.861
346.50 1.859
346.60 1.858
346.70 1.857
346.80 1.856
346.90 1.855
347.00 1.854
347.10 1.852
347.20 1.851
347.30 1.85
347.40 1.849
347.50 1.848
347.60 1.847
347.70 1.845
347.80 1.844
347.90 1.843
348.00 1.842
348.10 1.841
348.20 1.84
348.30 1.838
348.40 1.837
348.50 1.836
348.60 1.835
348.70 1.834
348.80 1.833
348.90 1.831
349.00 1.83
349.10 1.829
349.20 1.828
349.30 1.827
349.40 1.826
349.50 1.825
349.60 1.823
349.70 1.822
349.80 1.821
349.90 1.82
350.00 1.819
350.10 1.818
350.20 1.816
350.30 1.815
350.40 1.814
350.50 1.813
350.60 1.812
350.70 1.811
350.80 1.81
350.90 1.808
351.00 1.807
351.10 1.806
351.20 1.805
351.30 1.804
351.40 1.803
351.50 1.802
351.60 1.8
351.70 1.799
351.80 1.798
351.90 1.797
352.00 1.796
352.10 1.795
352.20 1.794
352.30 1.793
352.40 1.791
352.50 1.79
352.60 1.789
352.70 1.788
352.80 1.787
352.90 1.786
353.00 1.785
353.10 1.783
353.20 1.782
353.30 1.781
353.40 1.78
353.50 1.779
353.60 1.778
353.70 1.777
353.80 1.776
353.90 1.774
354.00 1.773
354.10 1.772
354.20 1.771
354.30 1.77
354.40 1.769
354.50 1.768
354.60 1.767
354.70 1.766
354.80 1.764
354.90 1.763
355.00 1.762
355.10 1.761
355.20 1.76
355.30 1.759
355.40 1.758
355.50 1.757
355.60 1.756
355.70 1.754
355.80 1.753
355.90 1.752
356.00 1.751
356.10 1.75
356.20 1.749
356.30 1.748
356.40 1.747
356.50 1.746
356.60 1.745
356.70 1.743
356.80 1.742
356.90 1.741
357.00 1.74
357.10 1.739
357.20 1.738
357.30 1.737
357.40 1.736
357.50 1.735
357.60 1.734
357.70 1.733
357.80 1.731
357.90 1.73
358.00 1.729
358.10 1.728
358.20 1.727
358.30 1.726
358.40 1.725
358.50 1.724
358.60 1.723
358.70 1.722
358.80 1.721
358.90 1.719
359.00 1.718
359.10 1.717
359.20 1.716
359.30 1.715
359.40 1.714
359.50 1.713
359.60 1.712
359.70 1.711
359.80 1.71
359.90 1.709
360.00 1.708
360.10 1.707
360.20 1.706
360.30 1.704
360.40 1.703
360.50 1.702
360.60 1.701
360.70 1.7
360.80 1.699
360.90 1.698
361.00 1.697
361.10 1.696
361.20 1.695
361.30 1.694
361.40 1.693
361.50 1.692
361.60 1.691
361.70 1.69
361.80 1.688
361.90 1.687
362.00 1.686
362.10 1.685
362.20 1.684
362.30 1.683
362.40 1.682
362.50 1.681
362.60 1.68
362.70 1.679
362.80 1.678
362.90 1.677
363.00 1.676
363.10 1.675
363.20 1.673
363.30 1.672
363.40 1.671
363.50 1.67
363.60 1.668
363.70 1.667
363.80 1.666
363.90 1.665
364.00 1.663
364.10 1.662
364.20 1.661
364.30 1.66
364.40 1.658
364.50 1.657
364.60 1.656
364.70 1.655
364.80 1.653
364.90 1.652
365.00 1.651
365.10 1.649
365.20 1.648
365.30 1.647
365.40 1.646
365.50 1.644
365.60 1.643
365.70 1.642
365.80 1.641
365.90 1.639
366.00 1.638
366.10 1.637
366.20 1.636
366.30 1.635
366.40 1.634
366.50 1.633
366.60 1.631
366.70 1.63
366.80 1.629
366.90 1.628
367.00 1.627
367.10 1.626
367.20 1.625
367.30 1.624
367.40 1.623
367.50 1.622
367.60 1.621
367.70 1.62
367.80 1.619
367.90 1.617
368.00 1.616
368.10 1.615
368.20 1.614
368.30 1.613
368.40 1.612
368.50 1.611
368.60 1.61
368.70 1.609
368.80 1.608
368.90 1.607
369.00 1.605
369.10 1.604
369.20 1.603
369.30 1.602
369.40 1.601
369.50 1.6
369.60 1.599
369.70 1.598
369.80 1.597
369.90 1.596
370.00 1.595
370.10 1.594
370.20 1.593
370.30 1.592
370.40 1.59
370.50 1.589
370.60 1.588
370.70 1.587
370.80 1.586
370.90 1.585
371.00 1.584
371.10 1.583
371.20 1.582
371.30 1.581
371.40 1.58
371.50 1.579
371.60 1.578
371.70 1.577
371.80 1.576
371.90 1.575
372.00 1.574
372.10 1.573
372.20 1.572
372.30 1.571
372.40 1.57
372.50 1.569
372.60 1.568
372.70 1.567
372.80 1.566
372.90 1.565
373.00 1.564
373.10 1.564
373.20 1.563
373.30 1.562
373.40 1.561
373.50 1.56
373.60 1.559
373.70 1.558
373.80 1.557
373.90 1.556
374.00 1.555
374.10 1.554
374.20 1.553
374.30 1.553
374.40 1.552
374.50 1.551
374.60 1.55
374.70 1.549
374.80 1.548
374.90 1.548
375.00 1.547
375.10 1.546
375.20 1.545
375.30 1.544
375.40 1.543
375.50 1.543
375.60 1.542
375.70 1.541
375.80 1.54
375.90 1.539
376.00 1.538
376.10 1.538
376.20 1.537
376.30 1.536
376.40 1.535
376.50 1.534
376.60 1.534
376.70 1.533
376.80 1.532
376.90 1.531
377.00 1.531
377.10 1.53
377.20 1.529
377.30 1.528
377.40 1.527
377.50 1.526
377.60 1.525
377.70 1.524
377.80 1.523
377.90 1.523
378.00 1.522
378.10 1.52
378.20 1.519
378.30 1.518
378.40 1.517
378.50 1.515
378.60 1.514
378.70 1.513
378.80 1.511
378.90 1.51
379.00 1.509
379.10 1.508
379.20 1.507
379.30 1.506
379.40 1.505
379.50 1.504
379.60 1.503
379.70 1.502
379.80 1.501
379.90 1.5
380.00 1.499
380.10 1.499
380.20 1.499
380.30 1.499
380.40 1.499
380.50 1.499
380.60 1.498
380.70 1.498
380.80 1.498
380.90 1.498
381.00 1.498
381.10 1.498
381.20 1.497
381.30 1.497
381.40 1.496
381.50 1.496
381.60 1.495
381.70 1.494
381.80 1.493
381.90 1.492
382.00 1.491
382.10 1.49
382.20 1.488
382.30 1.486
382.40 1.484
382.50 1.482
382.60 1.48
382.70 1.478
382.80 1.476
382.90 1.473
383.00 1.471
383.10 1.469
383.20 1.467
383.30 1.466
383.40 1.464
383.50 1.463
383.60 1.463
383.70 1.464
383.80 1.465
383.90 1.465
384.00 1.467
384.10 1.468
384.20 1.47
384.30 1.472
384.40 1.474
384.50 1.475
384.60 1.477
384.70 1.478
384.80 1.479
384.90 1.48
385.00 1.48
385.10 1.481
385.20 1.481
385.30 1.481
385.40 1.481
385.50 1.481
385.60 1.481
385.70 1.48
385.80 1.48
385.90 1.479
386.00 1.478
386.10 1.477
386.20 1.476
386.30 1.475
386.40 1.473
386.50 1.472
386.60 1.47
386.70 1.468
386.80 1.466
386.90 1.464
387.00 1.462
387.10 1.459
387.20 1.457
387.30 1.454
387.40 1.451
387.50 1.448
387.60 1.444
387.70 1.441
387.80 1.437
387.90 1.433
388.00 1.429
388.10 1.424
388.20 1.419
388.30 1.414
388.40 1.408
388.50 1.403
388.60 1.398
388.70 1.395
388.80 1.393
388.90 1.391
389.00 1.392
389.10 1.395
389.20 1.397
389.30 1.401
389.40 1.406
389.50 1.412
389.60 1.417
389.70 1.422
389.80 1.426
389.90 1.43
390.00 1.434
390.10 1.438
390.20 1.441
390.30 1.444
390.40 1.447
390.50 1.45
390.60 1.452
390.70 1.454
390.80 1.457
390.90 1.459
391.00 1.46
391.10 1.462
391.20 1.464
391.30 1.465
391.40 1.466
391.50 1.467
391.60 1.468
391.70 1.469
391.80 1.469
391.90 1.469
392.00 1.47
392.10 1.469
392.20 1.469
392.30 1.469
392.40 1.468
392.50 1.468
392.60 1.467
392.70 1.465
392.80 1.464
392.90 1.463
393.00 1.461
393.10 1.459
393.20 1.457
393.30 1.455
393.40 1.452
393.50 1.45
393.60 1.447
393.70 1.444
393.80 1.441
393.90 1.437
394.00 1.434
394.10 1.43
394.20 1.425
394.30 1.421
394.40 1.416
394.50 1.411
394.60 1.406
394.70 1.401
394.80 1.395
394.90 1.389
395.00 1.383
395.10 1.377
395.20 1.37
395.30 1.363
395.40 1.356
395.50 1.348
395.60 1.34
395.70 1.332
395.80 1.324
395.90 1.315
396.00 1.306
396.10 1.296
396.20 1.286
396.30 1.276
396.40 1.264
396.50 1.251
396.60 1.237
396.70 1.222
396.80 1.212
396.90 1.202
397.00 1.193
397.10 1.201
397.20 1.21
397.30 1.219
397.40 1.234
397.50 1.247
397.60 1.26
397.70 1.272
397.80 1.282
397.90 1.292
398.00 1.301
398.10 1.31
398.20 1.319
398.30 1.327
398.40 1.335
398.50 1.343
398.60 1.35
398.70 1.357
398.80 1.364
398.90 1.371
399.00 1.377
399.10 1.384
399.20 1.39
399.30 1.395
399.40 1.401
399.50 1.406
399.60 1.411
399.70 1.416
399.80 1.42
399.90 1.424
400.00 1.428
400.10 1.432
400.20 1.436
400.30 1.439
400.40 1.443
400.50 1.446
400.60 1.449
400.70 1.451
400.80 1.454
400.90 1.456
401.00 1.459
401.10 1.461
401.20 1.463
401.30 1.464
401.40 1.466
401.50 1.467
401.60 1.469
401.70 1.47
401.80 1.471
401.90 1.472
402.00 1.472
402.10 1.473
402.20 1.473
402.30 1.473
402.40 1.473
402.50 1.473
402.60 1.473
402.70 1.473
402.80 1.472
402.90 1.472
403.00 1.471
403.10 1.47
403.20 1.469
403.30 1.468
403.40 1.466
403.50 1.465
403.60 1.463
403.70 1.461
403.80 1.459
403.90 1.457
404.00 1.455
404.10 1.453
404.20 1.45
404.30 1.448
404.40 1.445
404.50 1.442
404.60 1.439
404.70 1.435
404.80 1.432
404.90 1.428
405.00 1.425
405.10 1.421
405.20 1.416
405.30 1.412
405.40 1.408
405.50 1.403
405.60 1.398
405.70 1.393
405.80 1.388
405.90 1.382
406.00 1.377
406.10 1.371
406.20 1.365
406.30 1.359
406.40 1.352
406.50 1.345
406.60 1.338
406.70 1.331
406.80 1.324
406.90 1.316
407.00 1.308
407.10 1.3
407.20 1.291
407.30 1.282
407.40 1.273
407.50 1.264
407.60 1.254
407.70 1.244
407.80 1.234
407.90 1.223
408.00 1.212
408.10 1.201
408.20 1.189
408.30 1.177
408.40 1.165
408.50 1.152
408.60 1.138
408.70 1.125
408.80 1.11
408.90 1.096
409.00 1.081
409.10 1.066
409.20 1.051
409.30 1.036
409.40 1.02
409.50 1.003
409.60 0.9866
409.70 0.968
409.80 0.9486
409.90 0.9284
410.00 0.9142
410.10 0.9052
410.20 0.9014
410.30 0.9086
410.40 0.9204
410.50 0.937
410.60 0.9563
410.70 0.9745
410.80 0.9916
410.90 1.007
411.00 1.022
411.10 1.037
411.20 1.052
411.30 1.066
411.40 1.08
411.50 1.094
411.60 1.107
411.70 1.12
411.80 1.133
411.90 1.145
412.00 1.157
412.10 1.168
412.20 1.179
412.30 1.19
412.40 1.2
412.50 1.21
412.60 1.22
412.70 1.229
412.80 1.239
412.90 1.247
413.00 1.256
413.10 1.264
413.20 1.272
413.30 1.28
413.40 1.287
413.50 1.295
413.60 1.302
413.70 1.308
413.80 1.315
413.90 1.321
414.00 1.327
414.10 1.333
414.20 1.339
414.30 1.345
414.40 1.35
414.50 1.356
414.60 1.361
414.70 1.366
414.80 1.37
414.90 1.375
415.00 1.38
415.10 1.384
415.20 1.388
415.30 1.393
415.40 1.397
415.50 1.4
415.60 1.404
415.70 1.408
415.80 1.411
415.90 1.415
416.00 1.418
416.10 1.421
416.20 1.424
416.30 1.427
416.40 1.43
416.50 1.433
416.60 1.436
416.70 1.438
416.80 1.441
416.90 1.443
417.00 1.445
417.10 1.448
417.20 1.45
417.30 1.452
417.40 1.454
417.50 1.456
417.60 1.458
417.70 1.46
417.80 1.461
417.90 1.463
418.00 1.464
418.10 1.466
418.20 1.467
418.30 1.468
418.40 1.47
418.50 1.471
418.60 1.472
418.70 1.473
418.80 1.474
418.90 1.475
419.00 1.476
419.10 1.476
419.20 1.477
419.30 1.478
419.40 1.478
419.50 1.479
419.60 1.479
419.70 1.48
419.80 1.48
419.90 1.48
420.00 1.48
420.10 1.481
420.20 1.481
420.30 1.481
420.40 1.481
420.50 1.481
420.60 1.48
420.70 1.48
420.80 1.48
420.90 1.48
421.00 1.479
421.10 1.479
421.20 1.478
421.30 1.478
421.40 1.477
421.50 1.477
421.60 1.476
421.70 1.475
421.80 1.474
421.90 1.473
422.00 1.472
422.10 1.471
422.20 1.47
422.30 1.469
422.40 1.468
422.50 1.467
422.60 1.465
422.70 1.464
422.80 1.463
422.90 1.461
423.00 1.46
423.10 1.458
423.20 1.456
423.30 1.455
423.40 1.453
423.50 1.451
423.60 1.449
423.70 1.447
423.80 1.445
423.90 1.443
424.00 1.441
424.10 1.439
424.20 1.437
424.30 1.434
424.40 1.432
424.50 1.43
424.60 1.427
424.70 1.425
424.80 1.422
424.90 1.419
425.00 1.416
425.10 1.414
425.20 1.411
425.30 1.408
425.40 1.405
425.50 1.402
425.60 1.399
425.70 1.395
425.80 1.392
425.90 1.389
426.00 1.385
426.10 1.382
426.20 1.377
426.30 1.373
426.40 1.369
426.50 1.365
426.60 1.362
426.70 1.358
426.80 1.353
426.90 1.349
427.00 1.345
427.10 1.341
427.20 1.336
427.30 1.332
427.40 1.327
427.50 1.322
427.60 1.318
427.70 1.313
427.80 1.308
427.90 1.303
428.00 1.298
428.10 1.292
428.20 1.287
428.30 1.281
428.40 1.276
428.50 1.27
428.60 1.264
428.70 1.258
428.80 1.252
428.90 1.246
429.00 1.24
429.10 1.234
429.20 1.227
429.30 1.22
429.40 1.214
429.50 1.207
429.60 1.2
429.70 1.193
429.80 1.185
429.90 1.178
430.00 1.17
430.10 1.162
430.20 1.154
430.30 1.146
430.40 1.137
430.50 1.129
430.60 1.12
430.70 1.111
430.80 1.101
430.90 1.092
431.00 1.082
431.10 1.072
431.20 1.062
431.30 1.052
431.40 1.041
431.50 1.03
431.60 1.019
431.70 1.007
431.80 0.9953
431.90 0.983
432.00 0.9704
432.10 0.9576
432.20 0.9441
432.30 0.9303
432.40 0.9161
432.50 0.9012
432.60 0.8858
432.70 0.8701
432.80 0.8538
432.90 0.8373
433.00 0.8207
433.10 0.804
433.20 0.7874
433.30 0.7708
433.40 0.7544
433.50 0.7376
433.60 0.7203
433.70 0.6986
433.80 0.672
433.90 0.6405
434.00 0.6078
434.10 0.6085
434.20 0.6425
434.30 0.673
434.40 0.6986
434.50 0.7193
434.60 0.7358
434.70 0.752
434.80 0.7677
434.90 0.7834
435.00 0.7992
435.10 0.8151
435.20 0.8309
435.30 0.8464
435.40 0.8618
435.50 0.8765
435.60 0.8907
435.70 0.9046
435.80 0.9177
435.90 0.9304
436.00 0.9427
436.10 0.9545
436.20 0.9659
436.30 0.977
436.40 0.9875
436.50 0.9979
436.60 1.008
436.70 1.018
436.80 1.027
436.90 1.036
437.00 1.045
437.10 1.054
437.20 1.062
437.30 1.07
437.40 1.078
437.50 1.086
437.60 1.094
437.70 1.101
437.80 1.108
437.90 1.115
438.00 1.122
438.10 1.128
438.20 1.134
438.30 1.141
438.40 1.147
438.50 1.152
438.60 1.158
438.70 1.164
438.80 1.169
438.90 1.174
439.00 1.179
439.10 1.184
439.20 1.189
439.30 1.194
439.40 1.199
439.50 1.203
439.60 1.208
439.70 1.212
439.80 1.216
439.90 1.221
440.00 1.225
440.10 1.228
440.20 1.232
440.30 1.236
440.40 1.24
440.50 1.243
440.60 1.247
440.70 1.25
440.80 1.253
440.90 1.257
441.00 1.26
441.10 1.263
441.20 1.266
441.30 1.269
441.40 1.272
441.50 1.275
441.60 1.277
441.70 1.28
441.80 1.282
441.90 1.285
442.00 1.287
442.10 1.29
442.20 1.292
442.30 1.294
442.40 1.297
442.50 1.299
442.60 1.301
442.70 1.303
442.80 1.305
442.90 1.307
443.00 1.309
443.10 1.31
443.20 1.312
443.30 1.314
443.40 1.316
443.50 1.317
443.60 1.319
443.70 1.32
443.80 1.322
443.90 1.323
444.00 1.325
444.10 1.326
444.20 1.328
444.30 1.329
444.40 1.33
444.50 1.331
444.60 1.333
444.70 1.334
444.80 1.335
444.90 1.336
445.00 1.337
445.10 1.338
445.20 1.339
445.30 1.34
445.40 1.341
445.50 1.342
445.60 1.343
445.70 1.343
445.80 1.344
445.90 1.345
446.00 1.346
446.10 1.347
446.20 1.347
446.30 1.348
446.40 1.348
446.50 1.349
446.60 1.35
446.70 1.35
446.80 1.351
446.90 1.351
447.00 1.352
447.10 1.352
447.20 1.353
447.30 1.353
447.40 1.353
447.50 1.354
447.60 1.354
447.70 1.354
447.80 1.355
447.90 1.355
448.00 1.355
448.10 1.356
448.20 1.356
448.30 1.356
448.40 1.356
448.50 1.356
448.60 1.357
448.70 1.357
448.80 1.357
448.90 1.357
449.00 1.357
449.10 1.357
449.20 1.357
449.30 1.357
449.40 1.357
449.50 1.357
449.60 1.357
449.70 1.357
449.80 1.357
449.90 1.357
450.00 1.357
450.10 1.357
450.20 1.357
450.30 1.357
450.40 1.357
450.50 1.357
450.60 1.356
450.70 1.356
450.80 1.356
450.90 1.356
451.00 1.356
451.10 1.356
451.20 1.355
451.30 1.355
451.40 1.355
451.50 1.355
451.60 1.354
451.70 1.354
451.80 1.354
451.90 1.354
452.00 1.353
452.10 1.353
452.20 1.353
452.30 1.352
452.40 1.352
452.50 1.352
452.60 1.351
452.70 1.351
452.80 1.35
452.90 1.35
453.00 1.35
453.10 1.349
453.20 1.349
453.30 1.348
453.40 1.348
453.50 1.348
453.60 1.347
453.70 1.347
453.80 1.346
453.90 1.346
454.00 1.345
454.10 1.345
454.20 1.344
454.30 1.344
454.40 1.343
454.50 1.343
454.60 1.342
454.70 1.342
454.80 1.341
454.90 1.34
455.00 1.34
455.10 1.339
455.20 1.339
455.30 1.338
455.40 1.338
455.50 1.337
455.60 1.337
455.70 1.336
455.80 1.335
455.90 1.335
456.00 1.334
456.10 1.333
456.20 1.333
456.30 1.332
456.40 1.332
456.50 1.331
456.60 1.33
456.70 1.33
456.80 1.329
456.90 1.329
457.00 1.328
457.10 1.327
457.20 1.327
457.30 1.326
457.40 1.326
457.50 1.325
457.60 1.324
457.70 1.323
457.80 1.323
457.90 1.322
458.00 1.321
458.10 1.32
458.20 1.32
458.30 1.319
458.40 1.318
458.50 1.317
458.60 1.317
458.70 1.316
458.80 1.315
458.90 1.314
459.00 1.314
459.10 1.313
459.20 1.312
459.30 1.311
459.40 1.31
459.50 1.31
459.60 1.309
459.70 1.308
459.80 1.307
459.90 1.306
460.00 1.305
460.10 1.305
460.20 1.304
460.30 1.303
460.40 1.302
460.50 1.301
460.60 1.3
460.70 1.3
460.80 1.299
460.90 1.298
461.00 1.297
461.10 1.296
461.20 1.295
461.30 1.294
461.40 1.293
461.50 1.292
461.60 1.291
461.70 1.291
461.80 1.29
461.90 1.289
462.00 1.288
462.10 1.287
462.20 1.286
462.30 1.285
462.40 1.284
462.50 1.283
462.60 1.282
462.70 1.281
462.80 1.28
462.90 1.279
463.00 1.278
463.10 1.277
463.20 1.276
463.30 1.275
463.40 1.274
463.50 1.273
463.60 1.272
463.70 1.271
463.80 1.27
463.90 1.269
464.00 1.268
464.10 1.267
464.20 1.266
464.30 1.265
464.40 1.264
464.50 1.263
464.60 1.262
464.70 1.26
464.80 1.259
464.90 1.258
465.00 1.257
465.10 1.256
465.20 1.255
465.30 1.254
465.40 1.253
465.50 1.252
465.60 1.25
465.70 1.249
465.80 1.248
465.90 1.247
466.00 1.246
466.10 1.245
466.20 1.244
466.30 1.242
466.40 1.241
466.50 1.24
466.60 1.239
466.70 1.237
466.80 1.236
466.90 1.235
467.00 1.234
467.10 1.233
467.20 1.231
467.30 1.23
467.40 1.229
467.50 1.227
467.60 1.226
467.70 1.225
467.80 1.223
467.90 1.222
468.00 1.221
468.10 1.22
468.20 1.218
468.30 1.217
468.40 1.215
468.50 1.214
468.60 1.213
468.70 1.211
468.80 1.21
468.90 1.209
469.00 1.207
469.10 1.206
469.20 1.204
469.30 1.203
469.40 1.201
469.50 1.2
469.60 1.198
469.70 1.197
469.80 1.196
469.90 1.194
470.00 1.193
470.10 1.191
470.20 1.19
470.30 1.188
470.40 1.187
470.50 1.185
470.60 1.184
470.70 1.182
470.80 1.181
470.90 1.179
471.00 1.178
471.10 1.176
471.20 1.174
471.30 1.173
471.40 1.171
471.50 1.169
471.60 1.168
471.70 1.166
471.80 1.164
471.90 1.163
472.00 1.161
472.10 1.159
472.20 1.158
472.30 1.156
472.40 1.154
472.50 1.152
472.60 1.15
472.70 1.148
472.80 1.146
472.90 1.145
473.00 1.143
473.10 1.141
473.20 1.139
473.30 1.137
473.40 1.135
473.50 1.133
473.60 1.131
473.70 1.129
473.80 1.127
473.90 1.125
474.00 1.123
474.10 1.121
474.20 1.119
474.30 1.117
474.40 1.114
474.50 1.112
474.60 1.11
474.70 1.108
474.80 1.106
474.90 1.103
475.00 1.101
475.10 1.099
475.20 1.097
475.30 1.094
475.40 1.092
475.50 1.089
475.60 1.087
475.70 1.085
475.80 1.082
475.90 1.08
476.00 1.077
476.10 1.075
476.20 1.072
476.30 1.07
476.40 1.067
476.50 1.064
476.60 1.062
476.70 1.059
476.80 1.056
476.90 1.053
477.00 1.051
477.10 1.048
477.20 1.045
477.30 1.042
477.40 1.039
477.50 1.036
477.60 1.033
477.70 1.03
477.80 1.027
477.90 1.024
478.00 1.021
478.10 1.018
478.20 1.015
478.30 1.012
478.40 1.008
478.50 1.005
478.60 1.002
478.70 0.9981
478.80 0.9948
478.90 0.9914
479.00 0.988
479.10 0.9846
479.20 0.9809
479.30 0.9771
479.40 0.9733
479.50 0.9694
479.60 0.9656
479.70 0.9618
479.80 0.958
479.90 0.9542
480.00 0.9504
480.10 0.9466
480.20 0.9424
480.30 0.938
480.40 0.9336
480.50 0.9292
480.60 0.9248
480.70 0.9205
480.80 0.9161
480.90 0.9117
481.00 0.9074
481.10 0.903
481.20 0.8981
481.30 0.893
481.40 0.8879
481.50 0.8828
481.60 0.8777
481.70 0.8726
481.80 0.8675
481.90 0.8624
482.00 0.8573
482.10 0.8522
482.20 0.8463
482.30 0.8401
482.40 0.8338
482.50 0.8276
482.60 0.8213
482.70 0.8151
482.80 0.8089
482.90 0.8027
483.00 0.7964
483.10 0.7902
483.20 0.7827
483.30 0.7746
483.40 0.7666
483.50 0.7585
483.60 0.7504
483.70 0.7423
483.80 0.7343
483.90 0.7262
484.00 0.7182
484.10 0.7101
484.20 0.7005
484.30 0.6901
484.40 0.6797
484.50 0.6693
484.60 0.6589
484.70 0.6474
484.80 0.6354
484.90 0.6233
485.00 0.6113
485.10 0.5993
485.20 0.5871
485.30 0.5748
485.40 0.5626
485.50 0.5505
485.60 0.5379
485.70 0.5251
485.80 0.5088
485.90 0.491
486.00 0.4638
486.10 0.4246
486.20 0.4346
486.30 0.4749
486.40 0.4958
486.50 0.5135
486.60 0.5276
486.70 0.5399
486.80 0.5517
486.90 0.5634
487.00 0.5751
487.10 0.5867
487.20 0.5982
487.30 0.6096
487.40 0.621
487.50 0.6323
487.60 0.6437
487.70 0.6538
487.80 0.6635
487.90 0.6731
488.00 0.6827
488.10 0.6923
488.20 0.7002
488.30 0.7075
488.40 0.7147
488.50 0.7219
488.60 0.7291
488.70 0.7362
488.80 0.7434
488.90 0.7506
489.00 0.7578
489.10 0.7649
489.20 0.7708
489.30 0.7761
489.40 0.7813
489.50 0.7866
489.60 0.7918
489.70 0.797
489.80 0.8023
489.90 0.8075
490.00 0.8127
490.10 0.8179
490.20 0.8224
490.30 0.8264
490.40 0.8304
490.50 0.8345
490.60 0.8385
490.70 0.8425
490.80 0.8465
490.90 0.8505
491.00 0.8546
491.10 0.8586
491.20 0.862
491.30 0.8653
491.40 0.8685
491.50 0.8717
491.60 0.875
491.70 0.8782
491.80 0.8814
491.90 0.8846
492.00 0.8878
492.10 0.8911
492.20 0.8939
492.30 0.8965
492.40 0.8991
492.50 0.9017
492.60 0.9043
492.70 0.9069
492.80 0.9095
492.90 0.9121
493.00 0.9147
493.10 0.9173
493.20 0.9196
493.30 0.9217
493.40 0.9239
493.50 0.926
493.60 0.9282
493.70 0.9304
493.80 0.9325
493.90 0.9347
494.00 0.9368
494.10 0.939
494.20 0.9408
494.30 0.9425
494.40 0.9442
494.50 0.9459
494.60 0.9476
494.70 0.9493
494.80 0.9509
494.90 0.9526
495.00 0.9543
495.10 0.956
495.20 0.9575
495.30 0.9588
495.40 0.9602
495.50 0.9616
495.60 0.963
495.70 0.9644
495.80 0.9657
495.90 0.9671
496.00 0.9685
496.10 0.9698
496.20 0.971
496.30 0.9721
496.40 0.9732
496.50 0.9742
496.60 0.9753
496.70 0.9764
496.80 0.9774
496.90 0.9785
497.00 0.9796
497.10 0.9806
497.20 0.9815
497.30 0.9824
497.40 0.9833
497.50 0.9841
497.60 0.985
497.70 0.9858
497.80 0.9867
497.90 0.9875
498.00 0.9884
498.10 0.9893
498.20 0.99
498.30 0.9906
498.40 0.9912
498.50 0.9919
498.60 0.9925
498.70 0.9932
498.80 0.9938
498.90 0.9944
499.00 0.9951
499.10 0.9957
499.20 0.9962
499.30 0.9967
499.40 0.9972
499.50 0.9977
499.60 0.9981
499.70 0.9986
499.80 0.9991
499.90 0.9995
500.00 1
500.10 1
500.20 1.001
500.30 1.001
500.40 1.001
500.50 1.002
500.60 1.002
500.70 1.002
500.80 1.003
500.90 1.003
501.00 1.003
501.10 1.004
501.20 1.004
501.30 1.004
501.40 1.004
501.50 1.005
501.60 1.005
501.70 1.005
501.80 1.005
501.90 1.005
502.00 1.006
502.10 1.006
502.20 1.006
502.30 1.006
502.40 1.006
502.50 1.006
502.60 1.006
502.70 1.007
502.80 1.007
502.90 1.007
503.00 1.007
503.10 1.007
503.20 1.007
503.30 1.007
503.40 1.007
503.50 1.007
503.60 1.007
503.70 1.007
503.80 1.007
503.90 1.007
504.00 1.007
504.10 1.007
504.20 1.007
504.30 1.007
504.40 1.007
504.50 1.007
504.60 1.007
504.70 1.007
504.80 1.007
504.90 1.007
505.00 1.007
505.10 1.007
505.20 1.007
505.30 1.007
505.40 1.007
505.50 1.006
505.60 1.006
505.70 1.006
505.80 1.006
505.90 1.006
506.00 1.006
506.10 1.006
506.20 1.006
506.30 1.005
506.40 1.005
506.50 1.005
506.60 1.005
506.70 1.005
506.80 1.005
506.90 1.004
507.00 1.004
507.10 1.004
507.20 1.004
507.30 1.004
507.40 1.003
507.50 1.003
507.60 1.003
507.70 1.003
507.80 1.003
507.90 1.002
508.00 1.002
508.10 1.002
508.20 1.002
508.30 1.001
508.40 1.001
508.50 1.001
508.60 1.001
508.70 1
508.80 1
508.90 0.9999
509.00 0.9996
509.10 0.9994
509.20 0.9991
509.30 0.9988
509.40 0.9985
509.50 0.9982
509.60 0.9979
509.70 0.9976
509.80 0.9973
509.90 0.997
510.00 0.9967
510.10 0.9964
510.20 0.9961
510.30 0.9958
510.40 0.9955
510.50 0.9951
510.60 0.9948
510.70 0.9945
510.80 0.9942
510.90 0.9938
511.00 0.9935
511.10 0.9932
511.20 0.9928
511.30 0.9925
511.40 0.9921
511.50 0.9918
511.60 0.9914
511.70 0.9911
511.80 0.9907
511.90 0.9904
512.00 0.99
512.10 0.9897
512.20 0.9893
512.30 0.989
512.40 0.9886
512.50 0.9882
512.60 0.9878
512.70 0.9875
512.80 0.9871
512.90 0.9867
513.00 0.9864
513.10 0.986
513.20 0.9856
513.30 0.9852
513.40 0.9848
513.50 0.9844
513.60 0.9841
513.70 0.9837
513.80 0.9833
513.90 0.9829
514.00 0.9825
514.10 0.9821
514.20 0.9817
514.30 0.9813
514.40 0.9809
514.50 0.9805
514.60 0.9801
514.70 0.9797
514.80 0.9793
514.90 0.9789
515.00 0.9785
515.10 0.9781
515.20 0.9777
515.30 0.9773
515.40 0.9768
515.50 0.9764
515.60 0.976
515.70 0.9756
515.80 0.9752
515.90 0.9748
516.00 0.9743
516.10 0.9739
516.20 0.9735
516.30 0.9731
516.40 0.9726
516.50 0.9722
516.60 0.9718
516.70 0.9714
516.80 0.9709
516.90 0.9705
517.00 0.9701
517.10 0.9697
517.20 0.9692
517.30 0.9688
517.40 0.9684
517.50 0.9679
517.60 0.9675
517.70 0.9671
517.80 0.9666
517.90 0.9662
518.00 0.9658
518.10 0.9653
518.20 0.9649
518.30 0.9644
518.40 0.964
518.50 0.9636
518.60 0.9631
518.70 0.9627
518.80 0.9622
518.90 0.9618
519.00 0.9614
519.10 0.9609
519.20 0.9605
519.30 0.96
519.40 0.9596
519.50 0.9591
519.60 0.9587
519.70 0.9582
519.80 0.9578
519.90 0.9573
520.00 0.9569
520.10 0.9564
520.20 0.956
520.30 0.9555
520.40 0.9551
520.50 0.9546
520.60 0.9542
520.70 0.9537
520.80 0.9532
520.90 0.9528
521.00 0.9523
521.10 0.9519
521.20 0.9514
521.30 0.951
521.40 0.9505
521.50 0.95
521.60 0.9496
521.70 0.9491
521.80 0.9487
521.90 0.9482
522.00 0.9478
522.10 0.9473
522.20 0.9468
522.30 0.9464
522.40 0.9459
522.50 0.9454
522.60 0.945
522.70 0.9445
522.80 0.944
522.90 0.9436
523.00 0.9431
523.10 0.9427
523.20 0.9422
523.30 0.9417
523.40 0.9413
523.50 0.9408
523.60 0.9403
523.70 0.9399
523.80 0.9394
523.90 0.9389
524.00 0.9385
524.10 0.938
524.20 0.9375
524.30 0.9371
524.40 0.9366
524.50 0.9361
524.60 0.9357
524.70 0.9352
524.80 0.9347
524.90 0.9342
525.00 0.9338
525.10 0.9333
525.20 0.9328
525.30 0.9324
525.40 0.9319
525.50 0.9314
525.60 0.931
525.70 0.9305
525.80 0.93
525.90 0.9295
526.00 0.9291
526.10 0.9286
526.20 0.9281
526.30 0.9277
526.40 0.9272
526.50 0.9267
526.60 0.9262
526.70 0.9258
526.80 0.9253
526.90 0.9248
527.00 0.9243
527.10 0.9239
527.20 0.9234
527.30 0.9229
527.40 0.9225
527.50 0.922
527.60 0.9215
527.70 0.921
527.80 0.9206
527.90 0.9201
528.00 0.9196
528.10 0.9191
528.20 0.9187
528.30 0.9182
528.40 0.9177
528.50 0.9172
528.60 0.9168
528.70 0.9163
528.80 0.9158
528.90 0.9153
529.00 0.9149
529.10 0.9144
529.20 0.9139
529.30 0.9134
529.40 0.913
529.50 0.9125
529.60 0.912
529.70 0.9116
529.80 0.9111
529.90 0.9106
530.00 0.9101
530.10 0.9097
530.20 0.9092
530.30 0.9087
530.40 0.9082
530.50 0.9078
530.60 0.9073
530.70 0.9068
530.80 0.9063
530.90 0.9059
531.00 0.9054
531.10 0.9049
531.20 0.9044
531.30 0.904
531.40 0.9035
531.50 0.903
531.60 0.9025
531.70 0.9021
531.80 0.9016
531.90 0.9011
532.00 0.9007
532.10 0.9002
532.20 0.8997
532.30 0.8992
532.40 0.8988
532.50 0.8983
532.60 0.8978
532.70 0.8973
532.80 0.8969
532.90 0.8964
533.00 0.8959
533.10 0.8955
533.20 0.895
533.30 0.8945
533.40 0.894
533.50 0.8936
533.60 0.8931
533.70 0.8926
533.80 0.8921
533.90 0.8917
534.00 0.8912
534.10 0.8907
534.20 0.8903
534.30 0.8898
534.40 0.8893
534.50 0.8888
534.60 0.8884
534.70 0.8879
534.80 0.8874
534.90 0.887
535.00 0.8865
535.10 0.886
535.20 0.8856
535.30 0.8851
535.40 0.8846
535.50 0.8842
535.60 0.8837
535.70 0.8832
535.80 0.8827
535.90 0.8823
536.00 0.8818
536.10 0.8813
536.20 0.8809
536.30 0.8804
536.40 0.8799
536.50 0.8795
536.60 0.879
536.70 0.8785
536.80 0.8781
536.90 0.8776
537.00 0.8771
537.10 0.8767
537.20 0.8762
537.30 0.8757
537.40 0.8753
537.50 0.8748
537.60 0.8743
537.70 0.8739
537.80 0.8734
537.90 0.8729
538.00 0.8725
538.10 0.872
538.20 0.8715
538.30 0.8711
538.40 0.8706
538.50 0.8701
538.60 0.8697
538.70 0.8692
538.80 0.8688
538.90 0.8683
539.00 0.8678
539.10 0.8674
539.20 0.8669
539.30 0.8664
539.40 0.866
539.50 0.8655
539.60 0.8651
539.70 0.8646
539.80 0.8641
539.90 0.8637
540.00 0.8632
540.10 0.8627
540.20 0.8623
540.30 0.8618
540.40 0.8614
540.50 0.8609
540.60 0.8604
540.70 0.86
540.80 0.8595
540.90 0.8591
541.00 0.8586
541.10 0.8581
541.20 0.8577
541.30 0.8572
541.40 0.8568
541.50 0.8563
541.60 0.8558
541.70 0.8554
541.80 0.8549
541.90 0.8545
542.00 0.854
542.10 0.8536
542.20 0.8531
542.30 0.8526
542.40 0.8522
542.50 0.8517
542.60 0.8513
542.70 0.8508
542.80 0.8504
542.90 0.8499
543.00 0.8494
543.10 0.849
543.20 0.8485
543.30 0.8481
543.40 0.8476
543.50 0.8472
543.60 0.8467
543.70 0.8463
543.80 0.8458
543.90 0.8454
544.00 0.8449
544.10 0.8445
544.20 0.844
544.30 0.8436
544.40 0.8431
544.50 0.8426
544.60 0.8422
544.70 0.8417
544.80 0.8413
544.90 0.8408
545.00 0.8404
545.10 0.8399
545.20 0.8395
545.30 0.839
545.40 0.8386
545.50 0.8381
545.60 0.8377
545.70 0.8372
545.80 0.8368
545.90 0.8363
546.00 0.8359
546.10 0.8354
546.20 0.8351
546.30 0.8349
546.40 0.8346
546.50 0.8344
546.60 0.8341
546.70 0.8339
546.80 0.8336
546.90 0.8334
547.00 0.8331
547.10 0.8329
547.20 0.8325
547.30 0.832
547.40 0.8316
547.50 0.8311
547.60 0.8307
547.70 0.8302
547.80 0.8297
547.90 0.8293
548.00 0.8288
548.10 0.8284
548.20 0.8279
548.30 0.8275
548.40 0.827
548.50 0.8266
548.60 0.8261
548.70 0.8257
548.80 0.8252
548.90 0.8248
549.00 0.8243
549.10 0.8239
549.20 0.8234
549.30 0.823
549.40 0.8225
549.50 0.8221
549.60 0.8216
549.70 0.8212
549.80 0.8207
549.90 0.8203
550.00 0.8198
550.10 0.8194
550.20 0.8189
550.30 0.8185
550.40 0.818
550.50 0.8176
550.60 0.8171
550.70 0.8167
550.80 0.8162
550.90 0.8158
551.00 0.8153
551.10 0.8149
551.20 0.8145
551.30 0.814
551.40 0.8136
551.50 0.8131
551.60 0.8127
551.70 0.8122
551.80 0.8118
551.90 0.8114
552.00 0.8109
552.10 0.8105
552.20 0.81
552.30 0.8096
552.40 0.8091
552.50 0.8087
552.60 0.8083
552.70 0.8078
552.80 0.8074
552.90 0.8069
553.00 0.8065
553.10 0.8061
553.20 0.8056
553.30 0.8052
553.40 0.8047
553.50 0.8043
553.60 0.8039
553.70 0.8034
553.80 0.803
553.90 0.8026
554.00 0.8021
554.10 0.8017
554.20 0.8012
554.30 0.8008
554.40 0.8004
554.50 0.7999
554.60 0.7995
554.70 0.7991
554.80 0.7986
554.90 0.7982
555.00 0.7978
555.10 0.7973
555.20 0.7969
555.30 0.7965
555.40 0.796
555.50 0.7956
555.60 0.7952
555.70 0.7947
555.80 0.7943
555.90 0.7939
556.00 0.7934
556.10 0.793
556.20 0.7926
556.30 0.7922
556.40 0.7917
556.50 0.7913
556.60 0.7909
556.70 0.7904
556.80 0.79
556.90 0.7896
557.00 0.7891
557.10 0.7887
557.20 0.7883
557.30 0.7879
557.40 0.7874
557.50 0.787
557.60 0.7866
557.70 0.7862
557.80 0.7857
557.90 0.7853
558.00 0.7849
558.10 0.7845
558.20 0.784
558.30 0.7836
558.40 0.7832
558.50 0.7828
558.60 0.7823
558.70 0.7819
558.80 0.7815
558.90 0.7811
559.00 0.7806
559.10 0.7802
559.20 0.7798
559.30 0.7794
559.40 0.779
559.50 0.7785
559.60 0.7781
559.70 0.7777
559.80 0.7773
559.90 0.7768
560.00 0.7764
560.10 0.776
560.20 0.7756
560.30 0.7752
560.40 0.7747
560.50 0.7743
560.60 0.7739
560.70 0.7735
560.80 0.7731
560.90 0.7727
561.00 0.7722
561.10 0.7718
561.20 0.7714
561.30 0.771
561.40 0.7706
561.50 0.7702
561.60 0.7697
561.70 0.7693
561.80 0.7689
561.90 0.7685
562.00 0.7681
562.10 0.7677
562.20 0.7673
562.30 0.7668
562.40 0.7664
562.50 0.766
562.60 0.7656
562.70 0.7652
562.80 0.7648
562.90 0.7644
563.00 0.7639
563.10 0.7635
563.20 0.7631
563.30 0.7627
563.40 0.7623
563.50 0.7619
563.60 0.7615
563.70 0.7611
563.80 0.7607
563.90 0.7603
564.00 0.7598
564.10 0.7594
564.20 0.759
564.30 0.7586
564.40 0.7582
564.50 0.7578
564.60 0.7574
564.70 0.757
564.80 0.7566
564.90 0.7562
565.00 0.7558
565.10 0.7554
565.20 0.755
565.30 0.7545
565.40 0.7541
565.50 0.7537
565.60 0.7533
565.70 0.7529
565.80 0.7525
565.90 0.7521
566.00 0.7517
566.10 0.7513
566.20 0.7509
566.30 0.7505
566.40 0.7501
566.50 0.7497
566.60 0.7493
566.70 0.7489
566.80 0.7485
566.90 0.7481
567.00 0.7477
567.10 0.7473
567.20 0.7469
567.30 0.7465
567.40 0.7461
567.50 0.7457
567.60 0.7453
567.70 0.7449
567.80 0.7445
567.90 0.7441
568.00 0.7437
568.10 0.7433
568.20 0.7429
568.30 0.7425
568.40 0.7421
568.50 0.7417
568.60 0.7413
568.70 0.7409
568.80 0.7405
568.90 0.7401
569.00 0.7397
569.10 0.7393
569.20 0.7389
569.30 0.7385
569.40 0.7381
569.50 0.7377
569.60 0.7373
569.70 0.7369
569.80 0.7365
569.90 0.7361
570.00 0.7358
570.10 0.7354
570.20 0.735
570.30 0.7346
570.40 0.7342
570.50 0.7338
570.60 0.7334
570.70 0.733
570.80 0.7326
570.90 0.7322
571.00 0.7318
571.10 0.7314
571.20 0.731
571.30 0.7307
571.40 0.7303
571.50 0.7299
571.60 0.7295
571.70 0.7291
571.80 0.7287
571.90 0.7283
572.00 0.7279
572.10 0.7275
572.20 0.7271
572.30 0.7268
572.40 0.7264
572.50 0.726
572.60 0.7256
572.70 0.7252
572.80 0.7248
572.90 0.7244
573.00 0.7241
573.10 0.7237
573.20 0.7233
573.30 0.7229
573.40 0.7225
573.50 0.7221
573.60 0.7217
573.70 0.7214
573.80 0.721
573.90 0.7206
574.00 0.7202
574.10 0.7198
574.20 0.7194
574.30 0.7191
574.40 0.7187
574.50 0.7183
574.60 0.7179
574.70 0.7175
574.80 0.7171
574.90 0.7168
575.00 0.7164
575.10 0.716
575.20 0.7156
575.30 0.7152
575.40 0.7149
575.50 0.7145
575.60 0.7141
575.70 0.7137
575.80 0.7133
575.90 0.713
576.00 0.7126
576.10 0.7122
576.20 0.7118
576.30 0.7114
576.40 0.7111
576.50 0.7107
576.60 0.7103
576.70 0.7099
576.80 0.7096
576.90 0.7092
577.00 0.7088
577.10 0.7084
577.20 0.708
577.30 0.7077
577.40 0.7073
577.50 0.7069
577.60 0.7065
577.70 0.7062
577.80 0.7058
577.90 0.7054
578.00 0.705
578.10 0.7047
578.20 0.7043
578.30 0.7039
578.40 0.7036
578.50 0.7032
578.60 0.7028
578.70 0.7024
578.80 0.7021
578.90 0.7017
579.00 0.7013
579.10 0.7009
579.20 0.7006
579.30 0.7002
579.40 0.6998
579.50 0.6995
579.60 0.6991
579.70 0.6987
579.80 0.6984
579.90 0.698
580.00 0.6976
580.10 0.6972
580.20 0.6969
580.30 0.6965
580.40 0.6961
580.50 0.6958
580.60 0.6954
580.70 0.695
580.80 0.6947
580.90 0.6943
581.00 0.6939
581.10 0.6936
581.20 0.6932
581.30 0.6928
581.40 0.6925
581.50 0.6921
581.60 0.6917
581.70 0.6914
581.80 0.691
581.90 0.6906
582.00 0.6903
582.10 0.6899
582.20 0.6895
582.30 0.6892
582.40 0.6888
582.50 0.6884
582.60 0.6881
582.70 0.6877
582.80 0.6874
582.90 0.687
583.00 0.6866
583.10 0.6863
583.20 0.6859
583.30 0.6855
583.40 0.6852
583.50 0.6848
583.60 0.6845
583.70 0.6841
583.80 0.6837
583.90 0.6834
584.00 0.683
584.10 0.6827
584.20 0.6823
584.30 0.6819
584.40 0.6816
584.50 0.6812
584.60 0.6809
584.70 0.6805
584.80 0.6801
584.90 0.6798
585.00 0.6794
585.10 0.6791
585.20 0.6787
585.30 0.6784
585.40 0.678
585.50 0.6776
585.60 0.6773
585.70 0.6769
585.80 0.6766
585.90 0.6762
586.00 0.6759
586.10 0.6755
586.20 0.6752
586.30 0.6748
586.40 0.6744
586.50 0.6741
586.60 0.6737
586.70 0.6734
586.80 0.673
586.90 0.6727
587.00 0.6723
587.10 0.672
587.20 0.6716
587.30 0.6713
587.40 0.6709
587.50 0.6706
587.60 0.6702
587.70 0.6699
587.80 0.6695
587.90 0.6692
588.00 0.6688
588.10 0.6685
588.20 0.6681
588.30 0.6677
588.40 0.6674
588.50 0.667
588.60 0.6667
588.70 0.6663
588.80 0.666
588.90 0.6656
589.00 0.6653
589.10 0.665
589.20 0.6646
589.30 0.6643
589.40 0.6639
589.50 0.6636
589.60 0.6632
589.70 0.6629
589.80 0.6625
589.90 0.6622
590.00 0.6618
590.10 0.6615
590.20 0.6611
590.30 0.6608
590.40 0.6604
590.50 0.6601
590.60 0.6597
590.70 0.6594
590.80 0.6591
590.90 0.6587
591.00 0.6584
591.10 0.658
591.20 0.6577
591.30 0.6573
591.40 0.657
591.50 0.6567
591.60 0.6563
591.70 0.656
591.80 0.6556
591.90 0.6553
592.00 0.6549
592.10 0.6546
592.20 0.6543
592.30 0.6539
592.40 0.6536
592.50 0.6532
592.60 0.6529
592.70 0.6525
592.80 0.6522
592.90 0.6519
593.00 0.6515
593.10 0.6512
593.20 0.6508
593.30 0.6505
593.40 0.6502
593.50 0.6498
593.60 0.6495
593.70 0.6491
593.80 0.6488
593.90 0.6485
594.00 0.6481
594.10 0.6478
594.20 0.6475
594.30 0.6471
594.40 0.6468
594.50 0.6464
594.60 0.6461
594.70 0.6458
594.80 0.6454
594.90 0.6451
595.00 0.6448
595.10 0.6444
595.20 0.6441
595.30 0.6438
595.40 0.6434
595.50 0.6431
595.60 0.6428
595.70 0.6424
595.80 0.6421
595.90 0.6417
596.00 0.6414
596.10 0.6411
596.20 0.6405
596.30 0.6398
596.40 0.639
596.50 0.6383
596.60 0.6376
596.70 0.6369
596.80 0.6362
596.90 0.6355
597.00 0.6347
597.10 0.634
597.20 0.6336
597.30 0.6332
597.40 0.6329
597.50 0.6325
597.60 0.6322
597.70 0.6319
597.80 0.6315
597.90 0.6312
598.00 0.6308
598.10 0.6305
598.20 0.6301
598.30 0.6298
598.40 0.6295
598.50 0.6291
598.60 0.6288
598.70 0.6284
598.80 0.6281
598.90 0.6278
599.00 0.6274
599.10 0.6271
599.20 0.6267
599.30 0.6264
599.40 0.6261
599.50 0.6257
599.60 0.6254
599.70 0.6251
599.80 0.6247
599.90 0.6244
600.00 0.624
600.10 0.6237
600.20 0.6234
600.30 0.623
600.40 0.6227
600.50 0.6223
600.60 0.622
600.70 0.6217
600.80 0.6213
600.90 0.621
601.00 0.6207
601.10 0.6203
601.20 0.62
601.30 0.6196
601.40 0.6193
601.50 0.619
601.60 0.6186
601.70 0.6183
601.80 0.618
601.90 0.6176
602.00 0.6173
602.10 0.617
602.20 0.6166
602.30 0.6163
602.40 0.616
602.50 0.6156
602.60 0.6153
602.70 0.615
602.80 0.6146
602.90 0.6143
603.00 0.6139
603.10 0.6136
603.20 0.6133
603.30 0.6129
603.40 0.6126
603.50 0.6123
603.60 0.6119
603.70 0.6116
603.80 0.6113
603.90 0.6109
604.00 0.6106
604.10 0.6103
604.20 0.6099
604.30 0.6096
604.40 0.6093
604.50 0.6089
604.60 0.6086
604.70 0.6083
604.80 0.608
604.90 0.6076
605.00 0.6073
605.10 0.607
605.20 0.6066
605.30 0.6063
605.40 0.606
605.50 0.6056
605.60 0.6053
605.70 0.605
605.80 0.6046
605.90 0.6043
606.00 0.604
606.10 0.6036
606.20 0.6033
606.30 0.603
606.40 0.6026
606.50 0.6023
606.60 0.602
606.70 0.6017
606.80 0.6013
606.90 0.601
607.00 0.6007
607.10 0.6003
607.20 0.6
607.30 0.5997
607.40 0.5993
607.50 0.599
607.60 0.5987
607.70 0.5984
607.80 0.598
607.90 0.5977
608.00 0.5974
608.10 0.597
608.20 0.5967
608.30 0.5964
608.40 0.596
608.50 0.5957
608.60 0.5954
608.70 0.5951
608.80 0.5947
608.90 0.5944
609.00 0.5941
609.10 0.5937
609.20 0.5934
609.30 0.5931
609.40 0.5928
609.50 0.5924
609.60 0.5921
609.70 0.5918
609.80 0.5914
609.90 0.5911
610.00 0.5908
610.10 0.5905
610.20 0.5901
610.30 0.5898
610.40 0.5895
610.50 0.5891
610.60 0.5888
610.70 0.5885
610.80 0.5882
610.90 0.5878
611.00 0.5875
611.10 0.5872
611.20 0.5868
611.30 0.5865
611.40 0.5862
611.50 0.5859
611.60 0.5855
611.70 0.5852
611.80 0.5849
611.90 0.5846
612.00 0.5842
612.10 0.5839
612.20 0.5836
612.30 0.5832
612.40 0.5829
612.50 0.5826
612.60 0.5823
612.70 0.5819
612.80 0.5816
612.90 0.5813
613.00 0.581
613.10 0.5806
613.20 0.5803
613.30 0.58
613.40 0.5796
613.50 0.5793
613.60 0.579
613.70 0.5787
613.80 0.5783
613.90 0.578
614.00 0.5777
614.10 0.5773
614.20 0.577
614.30 0.5767
614.40 0.5764
614.50 0.576
614.60 0.5757
614.70 0.5754
614.80 0.5751
614.90 0.5747
615.00 0.5744
615.10 0.5741
615.20 0.5737
615.30 0.5734
615.40 0.5731
615.50 0.5728
615.60 0.5724
615.70 0.5721
615.80 0.5718
615.90 0.5714
616.00 0.5711
616.10 0.5708
616.20 0.5705
616.30 0.5701
616.40 0.5698
616.50 0.5695
616.60 0.5691
616.70 0.5688
616.80 0.5685
616.90 0.5682
617.00 0.5678
617.10 0.5675
617.20 0.5672
617.30 0.5668
617.40 0.5665
617.50 0.5662
617.60 0.5658
617.70 0.5655
617.80 0.5652
617.90 0.5649
618.00 0.5645
618.10 0.5642
618.20 0.5639
618.30 0.5635
618.40 0.5632
618.50 0.5629
618.60 0.5625
618.70 0.5622
618.80 0.5619
618.90 0.5615
619.00 0.5612
619.10 0.5609
619.20 0.5606
619.30 0.5602
619.40 0.5599
619.50 0.5596
619.60 0.5592
619.70 0.5589
619.80 0.5586
619.90 0.5582
620.00 0.5579
620.10 0.5576
620.20 0.5572
620.30 0.5569
620.40 0.5566
620.50 0.5562
620.60 0.5559
620.70 0.5556
620.80 0.5552
620.90 0.5549
621.00 0.5546
621.10 0.5542
621.20 0.5539
621.30 0.5535
621.40 0.5532
621.50 0.5529
621.60 0.5525
621.70 0.5522
621.80 0.5519
621.90 0.5515
622.00 0.5512
622.10 0.5509
622.20 0.5505
622.30 0.5502
622.40 0.5498
622.50 0.5495
622.60 0.5492
622.70 0.5488
622.80 0.5485
622.90 0.5481
623.00 0.5478
623.10 0.5475
623.20 0.5471
623.30 0.5468
623.40 0.5464
623.50 0.5461
623.60 0.5458
623.70 0.5454
623.80 0.5451
623.90 0.5447
624.00 0.5444
624.10 0.5441
624.20 0.5437
624.30 0.5434
624.40 0.543
624.50 0.5427
624.60 0.5423
624.70 0.542
624.80 0.5416
624.90 0.5413
625.00 0.541
625.10 0.5406
625.20 0.5403
625.30 0.5399
625.40 0.5396
625.50 0.5392
625.60 0.5389
625.70 0.5385
625.80 0.5382
625.90 0.5378
626.00 0.5375
626.10 0.5371
626.20 0.5368
626.30 0.5364
626.40 0.5361
626.50 0.5357
626.60 0.5354
626.70 0.535
626.80 0.5347
626.90 0.5343
627.00 0.534
627.10 0.5336
627.20 0.5333
627.30 0.5329
627.40 0.5325
627.50 0.5322
627.60 0.5318
627.70 0.5315
627.80 0.5311
627.90 0.5308
628.00 0.5304
628.10 0.53
628.20 0.5297
628.30 0.5293
628.40 0.529
628.50 0.5286
628.60 0.5282
628.70 0.5279
628.80 0.5275
628.90 0.5271
629.00 0.5268
629.10 0.5264
629.20 0.5261
629.30 0.5257
629.40 0.5253
629.50 0.5249
629.60 0.5246
629.70 0.5242
629.80 0.5238
629.90 0.5235
630.00 0.5231
630.10 0.5227
630.20 0.5224
630.30 0.522
630.40 0.5216
630.50 0.5212
630.60 0.5208
630.70 0.5205
630.80 0.5201
630.90 0.5197
631.00 0.5193
631.10 0.519
631.20 0.5186
631.30 0.5182
631.40 0.5178
631.50 0.5174
631.60 0.517
631.70 0.5166
631.80 0.5163
631.90 0.5159
632.00 0.5155
632.10 0.5151
632.20 0.5147
632.30 0.5143
632.40 0.5139
632.50 0.5135
632.60 0.5131
632.70 0.5127
632.80 0.5123
632.90 0.5119
633.00 0.5115
633.10 0.5111
633.20 0.5107
633.30 0.5103
633.40 0.5099
633.50 0.5095
633.60 0.5091
633.70 0.5087
633.80 0.5083
633.90 0.5079
634.00 0.5074
634.10 0.507
634.20 0.5066
634.30 0.5062
634.40 0.5058
634.50 0.5053
634.60 0.5049
634.70 0.5045
634.80 0.5041
634.90 0.5036
635.00 0.5032
635.10 0.5028
635.20 0.5024
635.30 0.5019
635.40 0.5015
635.50 0.501
635.60 0.5006
635.70 0.5002
635.80 0.4997
635.90 0.4993
636.00 0.4988
636.10 0.4984
636.20 0.4979
636.30 0.4975
636.40 0.497
636.50 0.4966
636.60 0.4961
636.70 0.4957
636.80 0.4952
636.90 0.4947
637.00 0.4943
637.10 0.4938
637.20 0.4933
637.30 0.4929
637.40 0.4924
637.50 0.4919
637.60 0.4914
637.70 0.4909
637.80 0.4905
637.90 0.49
638.00 0.4895
638.10 0.489
638.20 0.4885
638.30 0.488
638.40 0.4875
638.50 0.487
638.60 0.4865
638.70 0.486
638.80 0.4855
638.90 0.485
639.00 0.4845
639.10 0.484
639.20 0.4835
639.30 0.483
639.40 0.4824
639.50 0.4819
639.60 0.4814
639.70 0.4808
639.80 0.4803
639.90 0.4798
640.00 0.4792
640.10 0.4787
640.20 0.4782
640.30 0.4776
640.40 0.4771
640.50 0.4765
640.60 0.4759
640.70 0.4754
640.80 0.4748
640.90 0.4742
641.00 0.4737
641.10 0.4731
641.20 0.4726
641.30 0.472
641.40 0.4714
641.50 0.4708
641.60 0.4702
641.70 0.4696
641.80 0.469
641.90 0.4684
642.00 0.4678
642.10 0.4672
642.20 0.4666
642.30 0.466
642.40 0.4654
642.50 0.4648
642.60 0.4641
642.70 0.4635
642.80 0.4628
642.90 0.4622
643.00 0.4616
643.10 0.4609
643.20 0.4603
643.30 0.4596
643.40 0.459
643.50 0.4583
643.60 0.4576
643.70 0.4569
643.80 0.4562
643.90 0.4555
644.00 0.4548
644.10 0.4542
644.20 0.4535
644.30 0.4528
644.40 0.452
644.50 0.4513
644.60 0.4505
644.70 0.4498
644.80 0.449
644.90 0.4483
645.00 0.4475
645.10 0.4468
645.20 0.446
645.30 0.4453
645.40 0.4445
645.50 0.4437
645.60 0.4429
645.70 0.4421
645.80 0.4413
645.90 0.4405
646.00 0.4397
646.10 0.4389
646.20 0.4381
646.30 0.4373
646.40 0.4364
646.50 0.4356
646.60 0.4347
646.70 0.4338
646.80 0.4329
646.90 0.432
647.00 0.4311
647.10 0.4303
647.20 0.4294
647.30 0.4285
647.40 0.4275
647.50 0.4265
647.60 0.4256
647.70 0.4246
647.80 0.4236
647.90 0.4226
648.00 0.4216
648.10 0.4207
648.20 0.4197
648.30 0.4187
648.40 0.4175
648.50 0.4164
648.60 0.4153
648.70 0.4142
648.80 0.413
648.90 0.4119
649.00 0.4108
649.10 0.4096
649.20 0.4085
649.30 0.4074
649.40 0.406
649.50 0.4047
649.60 0.4034
649.70 0.4021
649.80 0.4008
649.90 0.3995
650.00 0.3982
650.10 0.3969
650.20 0.3956
650.30 0.3943
650.40 0.3927
650.50 0.3912
650.60 0.3897
650.70 0.3881
650.80 0.3866
650.90 0.3851
651.00 0.3836
651.10 0.3821
651.20 0.3805
651.30 0.379
651.40 0.3772
651.50 0.3754
651.60 0.3736
651.70 0.3718
651.80 0.3701
651.90 0.3683
652.00 0.3665
652.10 0.3647
652.20 0.363
652.30 0.3611
652.40 0.359
652.50 0.3568
652.60 0.3547
652.70 0.3525
652.80 0.3504
652.90 0.3482
653.00 0.3461
653.10 0.3439
653.20 0.3418
653.30 0.3395
653.40 0.3368
653.50 0.3341
653.60 0.3314
653.70 0.3287
653.80 0.326
653.90 0.3233
654.00 0.3206
654.10 0.318
654.20 0.3153
654.30 0.3125
654.40 0.3095
654.50 0.3064
654.60 0.3034
654.70 0.3004
654.80 0.2973
654.90 0.2942
655.00 0.291
655.10 0.2879
655.20 0.2847
655.30 0.2815
655.40 0.2782
655.50 0.2747
655.60 0.2708
655.70 0.2668
655.80 0.262
655.90 0.2564
656.00 0.2478
656.10 0.2379
656.20 0.2155
656.30 0.1996
656.40 0.2257
656.50 0.2419
656.60 0.2504
656.70 0.2582
656.80 0.2628
656.90 0.2672
657.00 0.2708
657.10 0.2743
657.20 0.2775
657.30 0.2806
657.40 0.2835
657.50 0.2863
657.60 0.2892
657.70 0.2921
657.80 0.295
657.90 0.2977
658.00 0.3005
658.10 0.3032
658.20 0.306
658.30 0.3086
658.40 0.311
658.50 0.3134
658.60 0.3158
658.70 0.3181
658.80 0.3205
658.90 0.3229
659.00 0.3252
659.10 0.3276
659.20 0.33
659.30 0.3322
659.40 0.334
659.50 0.3358
659.60 0.3376
659.70 0.3394
659.80 0.3412
659.90 0.343
660.00 0.3448
660.10 0.3466
660.20 0.3484
660.30 0.3501
660.40 0.3515
660.50 0.3529
660.60 0.3543
660.70 0.3557
660.80 0.3571
660.90 0.3584
661.00 0.3598
661.10 0.3612
661.20 0.3626
661.30 0.364
661.40 0.3651
661.50 0.3662
661.60 0.3673
661.70 0.3685
661.80 0.3696
661.90 0.3707
662.00 0.3718
662.10 0.3729
662.20 0.3741
662.30 0.3751
662.40 0.376
662.50 0.3769
662.60 0.3778
662.70 0.3787
662.80 0.3796
662.90 0.3805
663.00 0.3813
663.10 0.3822
663.20 0.3831
663.30 0.384
663.40 0.3847
663.50 0.3854
663.60 0.3861
663.70 0.3868
663.80 0.3875
663.90 0.3882
664.00 0.3889
664.10 0.3895
664.20 0.3902
664.30 0.3909
664.40 0.3915
664.50 0.392
664.60 0.3925
664.70 0.3931
664.80 0.3936
664.90 0.3941
665.00 0.3947
665.10 0.3952
665.20 0.3958
665.30 0.3963
665.40 0.3967
665.50 0.3972
665.60 0.3976
665.70 0.398
665.80 0.3985
665.90 0.3989
666.00 0.3993
666.10 0.3998
666.20 0.4002
666.30 0.4006
666.40 0.4009
666.50 0.4013
666.60 0.4016
666.70 0.402
666.80 0.4023
666.90 0.4026
667.00 0.403
667.10 0.4033
667.20 0.4037
667.30 0.404
667.40 0.4043
667.50 0.4046
667.60 0.4048
667.70 0.4051
667.80 0.4054
667.90 0.4057
668.00 0.406
668.10 0.4063
668.20 0.4065
668.30 0.4068
668.40 0.407
668.50 0.4073
668.60 0.4075
668.70 0.4077
668.80 0.4079
668.90 0.4081
669.00 0.4083
669.10 0.4086
669.20 0.4088
669.30 0.409
669.40 0.4092
669.50 0.4093
669.60 0.4095
669.70 0.4097
669.80 0.4098
669.90 0.41
670.00 0.4101
670.10 0.4103
670.20 0.4105
670.30 0.4106
670.40 0.4107
670.50 0.4109
670.60 0.411
670.70 0.4111
670.80 0.4112
670.90 0.4113
671.00 0.4115
671.10 0.4116
671.20 0.4117
671.30 0.4118
671.40 0.4119
671.50 0.412
671.60 0.4121
671.70 0.4121
671.80 0.4122
671.90 0.4123
672.00 0.4124
672.10 0.4125
672.20 0.4126
672.30 0.4126
672.40 0.4127
672.50 0.4127
672.60 0.4128
672.70 0.4128
672.80 0.4129
672.90 0.4129
673.00 0.413
673.10 0.413
673.20 0.4131
673.30 0.4131
673.40 0.4132
673.50 0.4132
673.60 0.4132
673.70 0.4132
673.80 0.4133
673.90 0.4133
674.00 0.4133
674.10 0.4133
674.20 0.4133
674.30 0.4134
674.40 0.4134
674.50 0.4134
674.60 0.4134
674.70 0.4134
674.80 0.4134
674.90 0.4133
675.00 0.4133
675.10 0.4133
675.20 0.4133
675.30 0.4133
675.40 0.4133
675.50 0.4133
675.60 0.4133
675.70 0.4132
675.80 0.4132
675.90 0.4132
676.00 0.4132
676.10 0.4131
676.20 0.4131
676.30 0.4131
676.40 0.413
676.50 0.413
676.60 0.4129
676.70 0.4129
676.80 0.4129
676.90 0.4128
677.00 0.4128
677.10 0.4127
677.20 0.4127
677.30 0.4126
677.40 0.4126
677.50 0.4125
677.60 0.4124
677.70 0.4124
677.80 0.4123
677.90 0.4123
678.00 0.4122
678.10 0.4121
678.20 0.4121
678.30 0.412
678.40 0.4119
678.50 0.4119
678.60 0.4118
678.70 0.4117
678.80 0.4116
678.90 0.4116
679.00 0.4115
679.10 0.4114
679.20 0.4113
679.30 0.4113
679.40 0.4112
679.50 0.4111
679.60 0.411
679.70 0.4109
679.80 0.4108
679.90 0.4107
680.00 0.4106
680.10 0.4105
680.20 0.4104
680.30 0.4104
680.40 0.4103
680.50 0.4102
680.60 0.4101
680.70 0.41
680.80 0.4099
680.90 0.4098
681.00 0.4097
681.10 0.4096
681.20 0.4095
681.30 0.4094
681.40 0.4092
681.50 0.4091
681.60 0.409
681.70 0.4089
681.80 0.4088
681.90 0.4087
682.00 0.4086
682.10 0.4085
682.20 0.4084
682.30 0.4083
682.40 0.4081
682.50 0.408
682.60 0.4079
682.70 0.4078
682.80 0.4077
682.90 0.4076
683.00 0.4074
683.10 0.4073
683.20 0.4072
683.30 0.4071
683.40 0.407
683.50 0.4068
683.60 0.4067
683.70 0.4066
683.80 0.4065
683.90 0.4063
684.00 0.4062
684.10 0.4061
684.20 0.406
684.30 0.4058
684.40 0.4057
684.50 0.4056
684.60 0.4054
684.70 0.4053
684.80 0.4052
684.90 0.4051
685.00 0.4049
685.10 0.4048
685.20 0.4047
685.30 0.4045
685.40 0.4044
685.50 0.4043
685.60 0.4041
685.70 0.404
685.80 0.4039
685.90 0.4037
686.00 0.4036
686.10 0.4035
686.20 0.4033
686.30 0.4032
686.40 0.403
686.50 0.4029
686.60 0.4028
686.70 0.4026
686.80 0.4025
686.90 0.4023
687.00 0.4022
687.10 0.4021
687.20 0.4019
687.30 0.4018
687.40 0.4016
687.50 0.4015
687.60 0.4014
687.70 0.4012
687.80 0.4011
687.90 0.4009
688.00 0.4008
688.10 0.4006
688.20 0.4005
688.30 0.4004
688.40 0.4002
688.50 0.4001
688.60 0.3999
688.70 0.3998
688.80 0.3996
688.90 0.3995
689.00 0.3993
689.10 0.3992
689.20 0.399
689.30 0.3989
689.40 0.3987
689.50 0.3986
689.60 0.3984
689.70 0.3982
689.80 0.3981
689.90 0.3979
690.00 0.3978
690.10 0.3976
690.20 0.3974
690.30 0.3973
690.40 0.3971
690.50 0.397
690.60 0.3968
690.70 0.3966
690.80 0.3965
690.90 0.3963
691.00 0.3961
691.10 0.396
691.20 0.3958
691.30 0.3957
691.40 0.3955
691.50 0.3953
691.60 0.3952
691.70 0.395
691.80 0.3949
691.90 0.3947
692.00 0.3946
692.10 0.3944
692.20 0.3942
692.30 0.3941
692.40 0.3939
692.50 0.3938
692.60 0.3936
692.70 0.3934
692.80 0.3933
692.90 0.3931
693.00 0.393
693.10 0.3928
693.20 0.3926
693.30 0.3925
693.40 0.3923
693.50 0.3922
693.60 0.392
693.70 0.3919
693.80 0.3917
693.90 0.3915
694.00 0.3914
694.10 0.3912
694.20 0.3911
694.30 0.3909
694.40 0.3907
694.50 0.3906
694.60 0.3904
694.70 0.3903
694.80 0.3901
694.90 0.39
695.00 0.3898
695.10 0.3896
695.20 0.3895
695.30 0.3893
695.40 0.3892
695.50 0.389
695.60 0.3889
695.70 0.3887
695.80 0.3885
695.90 0.3884
696.00 0.3882
696.10 0.3881
696.20 0.3879
696.30 0.3878
696.40 0.3876
696.50 0.3875
696.60 0.3873
696.70 0.3871
696.80 0.387
696.90 0.3868
697.00 0.3867
697.10 0.3865
697.20 0.3864
697.30 0.3862
697.40 0.3861
697.50 0.3859
697.60 0.3857
697.70 0.3856
697.80 0.3854
697.90 0.3853
698.00 0.3851
698.10 0.385
698.20 0.3848
698.30 0.3847
698.40 0.3845
698.50 0.3843
698.60 0.3842
698.70 0.384
698.80 0.3839
698.90 0.3837
699.00 0.3836
699.10 0.3834
699.20 0.3833
699.30 0.3831
699.40 0.383
699.50 0.3828
699.60 0.3827
699.70 0.3825
699.80 0.3823
699.90 0.3822
700.00 0.382
700.10 0.3819
700.20 0.3817
700.30 0.3816
700.40 0.3814
700.50 0.3813
700.60 0.3811
700.70 0.381
700.80 0.3808
700.90 0.3807
701.00 0.3805
701.10 0.3804
701.20 0.3802
701.30 0.3801
701.40 0.3799
701.50 0.3798
701.60 0.3797
701.70 0.3795
701.80 0.3794
701.90 0.3792
702.00 0.3791
702.10 0.3789
702.20 0.3788
702.30 0.3786
702.40 0.3785
702.50 0.3783
702.60 0.3782
702.70 0.378
702.80 0.3779
702.90 0.3777
703.00 0.3776
703.10 0.3774
703.20 0.3773
703.30 0.3771
703.40 0.377
703.50 0.3768
703.60 0.3767
703.70 0.3765
703.80 0.3764
703.90 0.3763
704.00 0.3761
704.10 0.376
704.20 0.3758
704.30 0.3757
704.40 0.3755
704.50 0.3754
704.60 0.3752
704.70 0.3751
704.80 0.3749
704.90 0.3748
705.00 0.3746
705.10 0.3745
705.20 0.3743
705.30 0.3741
705.40 0.374
705.50 0.3738
705.60 0.3737
705.70 0.3735
705.80 0.3733
705.90 0.3732
706.00 0.373
706.10 0.3728
706.20 0.3727
706.30 0.3725
706.40 0.3723
706.50 0.3722
706.60 0.372
706.70 0.3719
706.80 0.3717
706.90 0.3715
707.00 0.3714
707.10 0.3712
707.20 0.371
707.30 0.3709
707.40 0.3707
707.50 0.3706
707.60 0.3704
707.70 0.3702
707.80 0.3701
707.90 0.3699
708.00 0.3697
708.10 0.3696
708.20 0.3694
708.30 0.3693
708.40 0.3691
708.50 0.3689
708.60 0.3688
708.70 0.3686
708.80 0.3685
708.90 0.3683
709.00 0.3681
709.10 0.368
709.20 0.3678
709.30 0.3676
709.40 0.3675
709.50 0.3673
709.60 0.3672
709.70 0.367
709.80 0.3668
709.90 0.3667
710.00 0.3665
710.10 0.3664
710.20 0.3662
710.30 0.366
710.40 0.3659
710.50 0.3657
710.60 0.3655
710.70 0.3654
710.80 0.3652
710.90 0.3651
711.00 0.3649
711.10 0.3647
711.20 0.3646
711.30 0.3644
711.40 0.3643
711.50 0.3641
711.60 0.3639
711.70 0.3638
711.80 0.3636
711.90 0.3635
712.00 0.3633
712.10 0.3631
712.20 0.363
712.30 0.3628
712.40 0.3626
712.50 0.3625
712.60 0.3623
712.70 0.3622
712.80 0.362
712.90 0.3618
713.00 0.3617
713.10 0.3615
713.20 0.3614
713.30 0.3612
713.40 0.361
713.50 0.3609
713.60 0.3607
713.70 0.3606
713.80 0.3604
713.90 0.3603
714.00 0.3601
714.10 0.3599
714.20 0.3598
714.30 0.3596
714.40 0.3595
714.50 0.3593
714.60 0.3591
714.70 0.359
714.80 0.3588
714.90 0.3587
715.00 0.3585
715.10 0.3584
715.20 0.3582
715.30 0.3581
715.40 0.3579
715.50 0.3578
715.60 0.3577
715.70 0.3575
715.80 0.3574
715.90 0.3572
716.00 0.3571
716.10 0.3569
716.20 0.3568
716.30 0.3567
716.40 0.3565
716.50 0.3564
716.60 0.3562
716.70 0.3561
716.80 0.3559
716.90 0.3558
717.00 0.3557
717.10 0.3555
717.20 0.3554
717.30 0.3552
717.40 0.3551
717.50 0.355
717.60 0.3548
717.70 0.3547
717.80 0.3545
717.90 0.3544
718.00 0.3543
718.10 0.3541
718.20 0.354
718.30 0.3538
718.40 0.3537
718.50 0.3536
718.60 0.3534
718.70 0.3533
718.80 0.3531
718.90 0.353
719.00 0.3529
719.10 0.3527
719.20 0.3526
719.30 0.3524
719.40 0.3523
719.50 0.3522
719.60 0.352
719.70 0.3519
719.80 0.3517
719.90 0.3516
720.00 0.3515
720.10 0.3513
720.20 0.3511
720.30 0.351
720.40 0.3508
720.50 0.3507
720.60 0.3505
720.70 0.3503
720.80 0.3502
720.90 0.35
721.00 0.3499
721.10 0.3497
721.20 0.3495
721.30 0.3494
721.40 0.3492
721.50 0.3491
721.60 0.3489
721.70 0.3488
721.80 0.3486
721.90 0.3484
722.00 0.3483
722.10 0.3481
722.20 0.348
722.30 0.3478
722.40 0.3476
722.50 0.3475
722.60 0.3473
722.70 0.3472
722.80 0.347
722.90 0.3469
723.00 0.3467
723.10 0.3465
723.20 0.3464
723.30 0.3462
723.40 0.3461
723.50 0.3459
723.60 0.3458
723.70 0.3456
723.80 0.3454
723.90 0.3453
724.00 0.3451
724.10 0.345
724.20 0.3448
724.30 0.3447
724.40 0.3445
724.50 0.3444
724.60 0.3442
724.70 0.344
724.80 0.3439
724.90 0.3437
725.00 0.3436
725.10 0.3434
725.20 0.3433
725.30 0.3431
725.40 0.343
725.50 0.3428
725.60 0.3426
725.70 0.3425
725.80 0.3423
725.90 0.3422
726.00 0.342
726.10 0.3419
726.20 0.3417
726.30 0.3416
726.40 0.3414
726.50 0.3413
726.60 0.3411
726.70 0.3409
726.80 0.3408
726.90 0.3406
727.00 0.3405
727.10 0.3403
727.20 0.3402
727.30 0.34
727.40 0.3399
727.50 0.3397
727.60 0.3396
727.70 0.3394
727.80 0.3393
727.90 0.3391
728.00 0.339
728.10 0.3388
728.20 0.3386
728.30 0.3385
728.40 0.3383
728.50 0.3382
728.60 0.338
728.70 0.3379
728.80 0.3377
728.90 0.3376
729.00 0.3374
729.10 0.3373
729.20 0.3371
729.30 0.337
729.40 0.3368
729.50 0.3367
729.60 0.3365
729.70 0.3364
729.80 0.3362
729.90 0.3361
730.00 0.3359
730.10 0.3358
730.20 0.3356
730.30 0.3355
730.40 0.3353
730.50 0.3352
730.60 0.335
730.70 0.3349
730.80 0.3347
730.90 0.3346
731.00 0.3344
731.10 0.3343
731.20 0.3341
731.30 0.334
731.40 0.3338
731.50 0.3337
731.60 0.3335
731.70 0.3334
731.80 0.3332
731.90 0.3331
732.00 0.3329
732.10 0.3328
732.20 0.3326
732.30 0.3325
732.40 0.3323
732.50 0.3322
732.60 0.332
732.70 0.3319
732.80 0.3317
732.90 0.3316
733.00 0.3314
733.10 0.3313
733.20 0.3311
733.30 0.331
733.40 0.3308
733.50 0.3307
733.60 0.3305
733.70 0.3304
733.80 0.3302
733.90 0.3301
734.00 0.3299
734.10 0.3298
734.20 0.3296
734.30 0.3295
734.40 0.3293
734.50 0.3292
734.60 0.329
734.70 0.3289
734.80 0.3288
734.90 0.3286
735.00 0.3285
735.10 0.3283
735.20 0.3282
735.30 0.328
735.40 0.3279
735.50 0.3277
735.60 0.3276
735.70 0.3274
735.80 0.3273
735.90 0.3271
736.00 0.327
736.10 0.3268
736.20 0.3267
736.30 0.3266
736.40 0.3264
736.50 0.3263
736.60 0.3261
736.70 0.326
736.80 0.3258
736.90 0.3257
737.00 0.3255
737.10 0.3254
737.20 0.3252
737.30 0.3251
737.40 0.3249
737.50 0.3248
737.60 0.3247
737.70 0.3245
737.80 0.3244
737.90 0.3242
738.00 0.3241
738.10 0.3239
738.20 0.3238
738.30 0.3236
738.40 0.3235
738.50 0.3233
738.60 0.3232
738.70 0.3231
738.80 0.3229
738.90 0.3228
739.00 0.3226
739.10 0.3225
739.20 0.3223
739.30 0.3222
739.40 0.322
739.50 0.3219
739.60 0.3218
739.70 0.3216
739.80 0.3215
739.90 0.3213
740.00 0.3212
740.10 0.321
740.20 0.3209
740.30 0.3208
740.40 0.3206
740.50 0.3205
740.60 0.3203
740.70 0.3202
740.80 0.32
740.90 0.3199
741.00 0.3198
741.10 0.3196
741.20 0.3195
741.30 0.3193
741.40 0.3192
741.50 0.3191
741.60 0.3189
741.70 0.3188
741.80 0.3186
741.90 0.3185
742.00 0.3183
742.10 0.3182
742.20 0.3181
742.30 0.3179
742.40 0.3178
742.50 0.3176
742.60 0.3175
742.70 0.3174
742.80 0.3172
742.90 0.3171
743.00 0.3169
743.10 0.3168
743.20 0.3167
743.30 0.3165
743.40 0.3164
743.50 0.3162
743.60 0.3161
743.70 0.316
743.80 0.3158
743.90 0.3157
744.00 0.3155
744.10 0.3154
744.20 0.3153
744.30 0.3151
744.40 0.315
744.50 0.3148
744.60 0.3147
744.70 0.3146
744.80 0.3144
744.90 0.3143
745.00 0.3141
745.10 0.314
745.20 0.3139
745.30 0.3137
745.40 0.3136
745.50 0.3134
745.60 0.3133
745.70 0.3132
745.80 0.313
745.90 0.3129
746.00 0.3127
746.10 0.3126
746.20 0.3125
746.30 0.3123
746.40 0.3122
746.50 0.3121
746.60 0.3119
746.70 0.3118
746.80 0.3116
746.90 0.3115
747.00 0.3114
747.10 0.3112
747.20 0.3111
747.30 0.3109
747.40 0.3108
747.50 0.3107
747.60 0.3105
747.70 0.3104
747.80 0.3103
747.90 0.3101
748.00 0.31
748.10 0.3098
748.20 0.3097
748.30 0.3096
748.40 0.3094
748.50 0.3093
748.60 0.3092
748.70 0.309
748.80 0.3089
748.90 0.3088
749.00 0.3086
749.10 0.3085
749.20 0.3083
749.30 0.3082
749.40 0.3081
749.50 0.3079
749.60 0.3078
749.70 0.3077
749.80 0.3075
749.90 0.3074
750.00 0.3073
750.10 0.3071
750.20 0.307
750.30 0.3068
750.40 0.3067
750.50 0.3066
750.60 0.3064
750.70 0.3063
750.80 0.3062
750.90 0.306
751.00 0.3059
751.10 0.3058
751.20 0.3056
751.30 0.3055
751.40 0.3054
751.50 0.3052
751.60 0.3051
751.70 0.305
751.80 0.3048
751.90 0.3047
752.00 0.3046
752.10 0.3044
752.20 0.3043
752.30 0.3042
752.40 0.304
752.50 0.3039
752.60 0.3038
752.70 0.3036
752.80 0.3035
752.90 0.3034
753.00 0.3032
753.10 0.3031
753.20 0.303
753.30 0.3028
753.40 0.3027
753.50 0.3026
753.60 0.3024
753.70 0.3023
753.80 0.3022
753.90 0.302
754.00 0.3019
754.10 0.3018
754.20 0.3016
754.30 0.3015
754.40 0.3014
754.50 0.3012
754.60 0.3011
754.70 0.301
754.80 0.3008
754.90 0.3007
755.00 0.3006
755.10 0.3004
755.20 0.3003
755.30 0.3002
755.40 0.3001
755.50 0.2999
755.60 0.2998
755.70 0.2997
755.80 0.2995
755.90 0.2994
756.00 0.2993
756.10 0.2991
756.20 0.299
756.30 0.2989
756.40 0.2987
756.50 0.2986
756.60 0.2985
756.70 0.2983
756.80 0.2982
756.90 0.2981
757.00 0.298
757.10 0.2978
757.20 0.2977
757.30 0.2976
757.40 0.2974
757.50 0.2973
757.60 0.2972
757.70 0.297
757.80 0.2969
757.90 0.2968
758.00 0.2966
758.10 0.2965
758.20 0.2964
758.30 0.2963
758.40 0.2961
758.50 0.296
758.60 0.2959
758.70 0.2957
758.80 0.2956
758.90 0.2955
759.00 0.2953
759.10 0.2952
759.20 0.2951
759.30 0.295
759.40 0.2948
759.50 0.2947
759.60 0.2946
759.70 0.2944
759.80 0.2943
759.90 0.2942
760.00 0.2941
760.10 0.2939
760.20 0.2938
760.30 0.2937
760.40 0.2935
760.50 0.2934
760.60 0.2933
760.70 0.2932
760.80 0.293
760.90 0.2929
761.00 0.2928
761.10 0.2927
761.20 0.2925
761.30 0.2924
761.40 0.2923
761.50 0.2921
761.60 0.292
761.70 0.2919
761.80 0.2918
761.90 0.2916
762.00 0.2915
762.10 0.2914
762.20 0.2913
762.30 0.2911
762.40 0.291
762.50 0.2909
762.60 0.2907
762.70 0.2906
762.80 0.2905
762.90 0.2904
763.00 0.2902
763.10 0.2901
763.20 0.29
763.30 0.2899
763.40 0.2897
763.50 0.2896
763.60 0.2895
763.70 0.2894
763.80 0.2892
763.90 0.2891
764.00 0.289
764.10 0.2889
764.20 0.2887
764.30 0.2886
764.40 0.2885
764.50 0.2884
764.60 0.2882
764.70 0.2881
764.80 0.288
764.90 0.2879
765.00 0.2877
765.10 0.2876
765.20 0.2875
765.30 0.2874
765.40 0.2872
765.50 0.2871
765.60 0.287
765.70 0.2869
765.80 0.2867
765.90 0.2866
766.00 0.2865
766.10 0.2864
766.20 0.2862
766.30 0.2861
766.40 0.286
766.50 0.2859
766.60 0.2857
766.70 0.2856
766.80 0.2855
766.90 0.2854
767.00 0.2852
767.10 0.2851
767.20 0.285
767.30 0.2849
767.40 0.2847
767.50 0.2846
767.60 0.2845
767.70 0.2844
767.80 0.2843
767.90 0.2841
768.00 0.284
768.10 0.2839
768.20 0.2838
768.30 0.2836
768.40 0.2835
768.50 0.2834
768.60 0.2833
768.70 0.2831
768.80 0.283
768.90 0.2829
769.00 0.2828
769.10 0.2827
769.20 0.2825
769.30 0.2824
769.40 0.2823
769.50 0.2822
769.60 0.282
769.70 0.2819
769.80 0.2818
769.90 0.2817
770.00 0.2815
770.10 0.2814
770.20 0.2813
770.30 0.2812
770.40 0.2811
770.50 0.2809
770.60 0.2808
770.70 0.2807
770.80 0.2806
770.90 0.2805
771.00 0.2803
771.10 0.2802
771.20 0.2801
771.30 0.28
771.40 0.2799
771.50 0.2797
771.60 0.2796
771.70 0.2795
771.80 0.2794
771.90 0.2793
772.00 0.2791
772.10 0.279
772.20 0.2789
772.30 0.2788
772.40 0.2787
772.50 0.2785
772.60 0.2784
772.70 0.2783
772.80 0.2782
772.90 0.2781
773.00 0.2779
773.10 0.2778
773.20 0.2777
773.30 0.2776
773.40 0.2775
773.50 0.2773
773.60 0.2772
773.70 0.2771
773.80 0.277
773.90 0.2769
774.00 0.2767
774.10 0.2766
774.20 0.2765
774.30 0.2764
774.40 0.2763
774.50 0.2761
774.60 0.276
774.70 0.2759
774.80 0.2758
774.90 0.2757
775.00 0.2756
775.10 0.2754
775.20 0.2753
775.30 0.2752
775.40 0.2751
775.50 0.275
775.60 0.2748
775.70 0.2747
775.80 0.2746
775.90 0.2745
776.00 0.2744
776.10 0.2743
776.20 0.2741
776.30 0.274
776.40 0.2739
776.50 0.2738
776.60 0.2737
776.70 0.2735
776.80 0.2734
776.90 0.2733
777.00 0.2732
777.10 0.2731
777.20 0.273
777.30 0.2728
777.40 0.2727
777.50 0.2726
777.60 0.2725
777.70 0.2724
777.80 0.2723
777.90 0.2721
778.00 0.272
778.10 0.2719
778.20 0.2718
778.30 0.2717
778.40 0.2716
778.50 0.2714
778.60 0.2713
778.70 0.2712
778.80 0.2711
778.90 0.271
779.00 0.2709
779.10 0.2707
779.20 0.2706
779.30 0.2705
779.40 0.2704
779.50 0.2703
779.60 0.2702
779.70 0.27
779.80 0.2699
779.90 0.2698
780.00 0.2697
780.10 0.2696
780.20 0.2695
780.30 0.2693
780.40 0.2692
780.50 0.2691
780.60 0.269
780.70 0.2689
780.80 0.2688
780.90 0.2687
781.00 0.2685
781.10 0.2684
781.20 0.2683
781.30 0.2682
781.40 0.2681
781.50 0.268
781.60 0.2679
781.70 0.2677
781.80 0.2676
781.90 0.2675
782.00 0.2674
782.10 0.2673
782.20 0.2672
782.30 0.2671
782.40 0.2669
782.50 0.2668
782.60 0.2667
782.70 0.2666
782.80 0.2665
782.90 0.2664
783.00 0.2663
783.10 0.2662
783.20 0.266
783.30 0.2659
783.40 0.2658
783.50 0.2657
783.60 0.2656
783.70 0.2655
783.80 0.2654
783.90 0.2652
784.00 0.2651
784.10 0.265
784.20 0.2649
784.30 0.2648
784.40 0.2647
784.50 0.2646
784.60 0.2645
784.70 0.2643
784.80 0.2642
784.90 0.2641
785.00 0.264
785.10 0.2639
785.20 0.2638
785.30 0.2637
785.40 0.2636
785.50 0.2634
785.60 0.2633
785.70 0.2632
785.80 0.2631
785.90 0.263
786.00 0.2629
786.10 0.2628
786.20 0.2627
786.30 0.2625
786.40 0.2624
786.50 0.2623
786.60 0.2622
786.70 0.2621
786.80 0.262
786.90 0.2619
787.00 0.2618
787.10 0.2617
787.20 0.2615
787.30 0.2614
787.40 0.2613
787.50 0.2612
787.60 0.2611
787.70 0.261
787.80 0.2609
787.90 0.2608
788.00 0.2607
788.10 0.2605
788.20 0.2604
788.30 0.2603
788.40 0.2602
788.50 0.2601
788.60 0.26
788.70 0.2599
788.80 0.2598
788.90 0.2597
789.00 0.2595
789.10 0.2594
789.20 0.2593
789.30 0.2592
789.40 0.2591
789.50 0.259
789.60 0.2589
789.70 0.2588
789.80 0.2587
789.90 0.2586
790.00 0.2584
790.10 0.2583
790.20 0.2582
790.30 0.2581
790.40 0.258
790.50 0.2579
790.60 0.2578
790.70 0.2577
790.80 0.2576
790.90 0.2575
791.00 0.2574
791.10 0.2572
791.20 0.2571
791.30 0.257
791.40 0.2569
791.50 0.2568
791.60 0.2567
791.70 0.2566
791.80 0.2565
791.90 0.2564
792.00 0.2563
792.10 0.2562
792.20 0.2561
792.30 0.2559
792.40 0.2558
792.50 0.2557
792.60 0.2556
792.70 0.2555
792.80 0.2554
792.90 0.2553
793.00 0.2552
793.10 0.2551
793.20 0.255
793.30 0.2549
793.40 0.2548
793.50 0.2547
793.60 0.2545
793.70 0.2544
793.80 0.2543
793.90 0.2542
794.00 0.2541
794.10 0.254
794.20 0.2539
794.30 0.2538
794.40 0.2537
794.50 0.2536
794.60 0.2535
794.70 0.2534
794.80 0.2533
794.90 0.2532
795.00 0.253
795.10 0.2529
795.20 0.2528
795.30 0.2527
795.40 0.2526
795.50 0.2525
795.60 0.2524
795.70 0.2523
795.80 0.2522
795.90 0.2521
796.00 0.252
796.10 0.2519
796.20 0.2518
796.30 0.2517
796.40 0.2516
796.50 0.2515
796.60 0.2513
796.70 0.2512
796.80 0.2511
796.90 0.251
797.00 0.2509
797.10 0.2508
797.20 0.2507
797.30 0.2506
797.40 0.2505
797.50 0.2504
797.60 0.2503
797.70 0.2502
797.80 0.2501
797.90 0.25
798.00 0.2499
798.10 0.2498
798.20 0.2497
798.30 0.2496
798.40 0.2494
798.50 0.2493
798.60 0.2492
798.70 0.2491
798.80 0.249
798.90 0.2489
799.00 0.2488
799.10 0.2487
799.20 0.2486
799.30 0.2485
799.40 0.2484
799.50 0.2483
799.60 0.2482
799.70 0.2481
799.80 0.248
799.90 0.2479
800.00 0.2478
800.10 0.2477
800.20 0.2476
800.30 0.2475
800.40 0.2474
800.50 0.2473
800.60 0.2471
800.70 0.247
800.80 0.2469
800.90 0.2468
801.00 0.2467
801.10 0.2466
801.20 0.2465
801.30 0.2464
801.40 0.2463
801.50 0.2462
801.60 0.2461
801.70 0.246
801.80 0.2459
801.90 0.2458
802.00 0.2457
802.10 0.2456
802.20 0.2455
802.30 0.2454
802.40 0.2453
802.50 0.2452
802.60 0.2451
802.70 0.245
802.80 0.2449
802.90 0.2448
803.00 0.2447
803.10 0.2446
803.20 0.2445
803.30 0.2444
803.40 0.2443
803.50 0.2442
803.60 0.2441
803.70 0.244
803.80 0.2439
803.90 0.2438
804.00 0.2437
804.10 0.2436
804.20 0.2435
804.30 0.2434
804.40 0.2433
804.50 0.2432
804.60 0.2431
804.70 0.243
804.80 0.2428
804.90 0.2427
805.00 0.2426
805.10 0.2425
805.20 0.2424
805.30 0.2423
805.40 0.2422
805.50 0.2421
805.60 0.242
805.70 0.2419
805.80 0.2418
805.90 0.2417
806.00 0.2416
806.10 0.2415
806.20 0.2414
806.30 0.2413
806.40 0.2412
806.50 0.2411
806.60 0.241
806.70 0.2409
806.80 0.2408
806.90 0.2407
807.00 0.2406
807.10 0.2405
807.20 0.2404
807.30 0.2403
807.40 0.2402
807.50 0.2401
807.60 0.24
807.70 0.2399
807.80 0.2398
807.90 0.2397
808.00 0.2396
808.10 0.2395
808.20 0.2394
808.30 0.2393
808.40 0.2392
808.50 0.2391
808.60 0.239
808.70 0.2389
808.80 0.2388
808.90 0.2387
809.00 0.2386
809.10 0.2385
809.20 0.2384
809.30 0.2383
809.40 0.2382
809.50 0.2381
809.60 0.238
809.70 0.2379
809.80 0.2378
809.90 0.2377
810.00 0.2376
810.10 0.2375
810.20 0.2374
810.30 0.2373
810.40 0.2372
810.50 0.2371
810.60 0.237
810.70 0.2369
810.80 0.2368
810.90 0.2367
811.00 0.2366
811.10 0.2366
811.20 0.2365
811.30 0.2364
811.40 0.2363
811.50 0.2362
811.60 0.2361
811.70 0.236
811.80 0.2359
811.90 0.2358
812.00 0.2357
812.10 0.2356
812.20 0.2355
812.30 0.2354
812.40 0.2353
812.50 0.2352
812.60 0.2351
812.70 0.235
812.80 0.2349
812.90 0.2348
813.00 0.2347
813.10 0.2346
813.20 0.2345
813.30 0.2344
813.40 0.2343
813.50 0.2342
813.60 0.2341
813.70 0.234
813.80 0.2339
813.90 0.2338
814.00 0.2337
814.10 0.2336
814.20 0.2335
814.30 0.2334
814.40 0.2333
814.50 0.2332
814.60 0.2332
814.70 0.2331
814.80 0.233
814.90 0.2329
815.00 0.2328
815.10 0.2327
815.20 0.2326
815.30 0.2325
815.40 0.2324
815.50 0.2323
815.60 0.2322
815.70 0.2321
815.80 0.232
815.90 0.2319
816.00 0.2318
816.10 0.2317
816.20 0.2316
816.30 0.2315
816.40 0.2314
816.50 0.2313
816.60 0.2312
816.70 0.2311
816.80 0.231
816.90 0.2309
817.00 0.2308
817.10 0.2308
817.20 0.2307
817.30 0.2306
817.40 0.2305
817.50 0.2304
817.60 0.2303
817.70 0.2302
817.80 0.2301
817.90 0.23
818.00 0.2299
818.10 0.2298
818.20 0.2297
818.30 0.2296
818.40 0.2295
818.50 0.2294
818.60 0.2293
818.70 0.2292
818.80 0.2291
818.90 0.229
819.00 0.2289
819.10 0.2289
819.20 0.2288
819.30 0.2287
819.40 0.2286
819.50 0.2285
819.60 0.2284
819.70 0.2283
819.80 0.2282
819.90 0.2281
820.00 0.228
820.10 0.2279
820.20 0.2279
820.30 0.2278
820.40 0.2277
820.50 0.2276
820.60 0.2275
820.70 0.2274
820.80 0.2273
820.90 0.2272
821.00 0.2271
821.10 0.227
821.20 0.2269
821.30 0.2268
821.40 0.2267
821.50 0.2266
821.60 0.2265
821.70 0.2264
821.80 0.2264
821.90 0.2263
822.00 0.2262
822.10 0.2261
822.20 0.226
822.30 0.2259
822.40 0.2258
822.50 0.2257
822.60 0.2256
822.70 0.2255
822.80 0.2254
822.90 0.2253
823.00 0.2252
823.10 0.2252
823.20 0.2251
823.30 0.225
823.40 0.2249
823.50 0.2248
823.60 0.2247
823.70 0.2246
823.80 0.2245
823.90 0.2244
824.00 0.2243
824.10 0.2242
824.20 0.2241
824.30 0.224
824.40 0.224
824.50 0.2239
824.60 0.2238
824.70 0.2237
824.80 0.2236
824.90 0.2235
825.00 0.2234
825.10 0.2233
825.20 0.2232
825.30 0.2231
825.40 0.223
825.50 0.2229
825.60 0.2229
825.70 0.2228
825.80 0.2227
825.90 0.2226
826.00 0.2225
826.10 0.2224
826.20 0.2223
826.30 0.2222
826.40 0.2221
826.50 0.222
826.60 0.2219
826.70 0.2219
826.80 0.2218
826.90 0.2217
827.00 0.2216
827.10 0.2215
827.20 0.2214
827.30 0.2213
827.40 0.2212
827.50 0.2211
827.60 0.221
827.70 0.2209
827.80 0.2209
827.90 0.2208
828.00 0.2207
828.10 0.2206
828.20 0.2205
828.30 0.2204
828.40 0.2203
828.50 0.2202
828.60 0.2201
828.70 0.22
828.80 0.22
828.90 0.2199
829.00 0.2198
829.10 0.2197
829.20 0.2196
829.30 0.2195
829.40 0.2194
829.50 0.2193
829.60 0.2192
829.70 0.2192
829.80 0.2191
829.90 0.219
830.00 0.2189
830.10 0.2188
830.20 0.2187
830.30 0.2186
830.40 0.2185
830.50 0.2184
830.60 0.2183
830.70 0.2183
830.80 0.2182
830.90 0.2181
831.00 0.218
831.10 0.2179
831.20 0.2178
831.30 0.2177
831.40 0.2176
831.50 0.2175
831.60 0.2175
831.70 0.2174
831.80 0.2173
831.90 0.2172
832.00 0.2171
832.10 0.217
832.20 0.2169
832.30 0.2168
832.40 0.2168
832.50 0.2167
832.60 0.2166
832.70 0.2165
832.80 0.2164
832.90 0.2163
833.00 0.2162
833.10 0.2161
833.20 0.216
833.30 0.216
833.40 0.2159
833.50 0.2158
833.60 0.2157
833.70 0.2156
833.80 0.2155
833.90 0.2154
834.00 0.2153
834.10 0.2153
834.20 0.2152
834.30 0.2151
834.40 0.215
834.50 0.2149
834.60 0.2148
834.70 0.2147
834.80 0.2146
834.90 0.2146
835.00 0.2145
835.10 0.2144
835.20 0.2143
835.30 0.2142
835.40 0.2141
835.50 0.214
835.60 0.214
835.70 0.2139
835.80 0.2138
835.90 0.2137
836.00 0.2136
836.10 0.2135
836.20 0.2134
836.30 0.2133
836.40 0.2133
836.50 0.2132
836.60 0.2131
836.70 0.213
836.80 0.2129
836.90 0.2128
837.00 0.2127
837.10 0.2127
837.20 0.2126
837.30 0.2125
837.40 0.2124
837.50 0.2123
837.60 0.2122
837.70 0.2121
837.80 0.2121
837.90 0.212
838.00 0.2119
838.10 0.2118
838.20 0.2117
838.30 0.2116
838.40 0.2115
838.50 0.2115
838.60 0.2114
838.70 0.2113
838.80 0.2112
838.90 0.2111
839.00 0.211
839.10 0.2109
839.20 0.2109
839.30 0.2108
839.40 0.2107
839.50 0.2106
839.60 0.2105
839.70 0.2104
839.80 0.2103
839.90 0.2103
840.00 0.2102
840.10 0.2101
840.20 0.21
840.30 0.2099
840.40 0.2098
840.50 0.2098
840.60 0.2097
840.70 0.2096
840.80 0.2095
840.90 0.2094
841.00 0.2093
841.10 0.2092
841.20 0.2092
841.30 0.2091
841.40 0.209
841.50 0.2089
841.60 0.2088
841.70 0.2087
841.80 0.2087
841.90 0.2086
842.00 0.2085
842.10 0.2084
842.20 0.2083
842.30 0.2082
842.40 0.2081
842.50 0.2081
842.60 0.208
842.70 0.2079
842.80 0.2078
842.90 0.2077
843.00 0.2076
843.10 0.2076
843.20 0.2075
843.30 0.2074
843.40 0.2073
843.50 0.2072
843.60 0.2071
843.70 0.2071
843.80 0.207
843.90 0.2069
844.00 0.2068
844.10 0.2067
844.20 0.2066
844.30 0.2066
844.40 0.2065
844.50 0.2064
844.60 0.2063
844.70 0.2062
844.80 0.2061
844.90 0.2061
845.00 0.206
845.10 0.2059
845.20 0.2058
845.30 0.2057
845.40 0.2056
845.50 0.2056
845.60 0.2055
845.70 0.2054
845.80 0.2053
845.90 0.2052
846.00 0.2052
846.10 0.2051
846.20 0.205
846.30 0.2049
846.40 0.2048
846.50 0.2047
846.60 0.2047
846.70 0.2046
846.80 0.2045
846.90 0.2044
847.00 0.2043
847.10 0.2042
847.20 0.2042
847.30 0.2041
847.40 0.204
847.50 0.2039
847.60 0.2038
847.70 0.2038
847.80 0.2037
847.90 0.2036
848.00 0.2035
848.10 0.2034
848.20 0.2034
848.30 0.2033
848.40 0.2032
848.50 0.2031
848.60 0.203
848.70 0.203
848.80 0.2029
848.90 0.2028
849.00 0.2027
849.10 0.2026
849.20 0.2025
849.30 0.2025
849.40 0.2024
849.50 0.2023
849.60 0.2022
849.70 0.2021
849.80 0.2021
849.90 0.202
850.00 0.2019
850.10 0.2018
850.20 0.2017
850.30 0.2017
850.40 0.2016
850.50 0.2015
850.60 0.2014
850.70 0.2013
850.80 0.2013
850.90 0.2012
851.00 0.2011
851.10 0.201
851.20 0.2009
851.30 0.2009
851.40 0.2008
851.50 0.2007
851.60 0.2006
851.70 0.2005
851.80 0.2005
851.90 0.2004
852.00 0.2003
852.10 0.2002
852.20 0.2001
852.30 0.2001
852.40 0.2
852.50 0.1999
852.60 0.1998
852.70 0.1997
852.80 0.1997
852.90 0.1996
853.00 0.1995
853.10 0.1994
853.20 0.1994
853.30 0.1993
853.40 0.1992
853.50 0.1991
853.60 0.199
853.70 0.199
853.80 0.1989
853.90 0.1988
854.00 0.1987
854.10 0.1986
854.20 0.1986
854.30 0.1985
854.40 0.1984
854.50 0.1983
854.60 0.1982
854.70 0.1982
854.80 0.1981
854.90 0.198
855.00 0.1979
855.10 0.1979
855.20 0.1978
855.30 0.1977
855.40 0.1976
855.50 0.1975
855.60 0.1975
855.70 0.1974
855.80 0.1973
855.90 0.1972
856.00 0.1972
856.10 0.1971
856.20 0.197
856.30 0.1969
856.40 0.1968
856.50 0.1968
856.60 0.1967
856.70 0.1966
856.80 0.1965
856.90 0.1965
857.00 0.1964
857.10 0.1963
857.20 0.1962
857.30 0.1961
857.40 0.1961
857.50 0.196
857.60 0.1959
857.70 0.1958
857.80 0.1958
857.90 0.1957
858.00 0.1956
858.10 0.1955
858.20 0.1955
858.30 0.1954
858.40 0.1953
858.50 0.1952
858.60 0.1951
858.70 0.1951
858.80 0.195
858.90 0.1949
859.00 0.1948
859.10 0.1948
859.20 0.1947
859.30 0.1946
859.40 0.1945
859.50 0.1945
859.60 0.1944
859.70 0.1943
859.80 0.1942
859.90 0.1942
860.00 0.1941
860.10 0.194
860.20 0.1939
860.30 0.1939
860.40 0.1938
860.50 0.1937
860.60 0.1936
860.70 0.1935
860.80 0.1935
860.90 0.1934
861.00 0.1933
861.10 0.1932
861.20 0.1932
861.30 0.1931
861.40 0.193
861.50 0.1929
861.60 0.1929
861.70 0.1928
861.80 0.1927
861.90 0.1926
862.00 0.1926
862.10 0.1925
862.20 0.1924
862.30 0.1923
862.40 0.1923
862.50 0.1922
862.60 0.1921
862.70 0.192
862.80 0.192
862.90 0.1919
863.00 0.1918
863.10 0.1917
863.20 0.1917
863.30 0.1916
863.40 0.1915
863.50 0.1914
863.60 0.1914
863.70 0.1913
863.80 0.1912
863.90 0.1911
864.00 0.1911
864.10 0.191
864.20 0.1909
864.30 0.1908
864.40 0.1908
864.50 0.1907
864.60 0.1906
864.70 0.1906
864.80 0.1905
864.90 0.1904
865.00 0.1903
865.10 0.1903
865.20 0.1902
865.30 0.1901
865.40 0.19
865.50 0.19
865.60 0.1899
865.70 0.1898
865.80 0.1897
865.90 0.1897
866.00 0.1896
866.10 0.1895
866.20 0.1894
866.30 0.1894
866.40 0.1893
866.50 0.1892
866.60 0.1892
866.70 0.1891
866.80 0.189
866.90 0.1889
867.00 0.1889
867.10 0.1888
867.20 0.1887
867.30 0.1886
867.40 0.1886
867.50 0.1885
867.60 0.1884
867.70 0.1884
867.80 0.1883
867.90 0.1882
868.00 0.1881
868.10 0.1881
868.20 0.188
868.30 0.1879
868.40 0.1879
868.50 0.1878
868.60 0.1877
868.70 0.1876
868.80 0.1876
868.90 0.1875
869.00 0.1874
869.10 0.1874
869.20 0.1873
869.30 0.1872
869.40 0.1871
869.50 0.1871
869.60 0.187
869.70 0.1869
869.80 0.1869
869.90 0.1868
870.00 0.1867
870.10 0.1866
870.20 0.1866
870.30 0.1865
870.40 0.1864
870.50 0.1864
870.60 0.1863
870.70 0.1862
870.80 0.1861
870.90 0.1861
871.00 0.186
871.10 0.1859
871.20 0.1859
871.30 0.1858
871.40 0.1857
871.50 0.1857
871.60 0.1856
871.70 0.1855
871.80 0.1854
871.90 0.1854
872.00 0.1853
872.10 0.1852
872.20 0.1852
872.30 0.1851
872.40 0.185
872.50 0.1849
872.60 0.1849
872.70 0.1848
872.80 0.1847
872.90 0.1847
873.00 0.1846
873.10 0.1845
873.20 0.1845
873.30 0.1844
873.40 0.1843
873.50 0.1843
873.60 0.1842
873.70 0.1841
873.80 0.184
873.90 0.184
874.00 0.1839
874.10 0.1838
874.20 0.1838
874.30 0.1837
874.40 0.1836
874.50 0.1836
874.60 0.1835
874.70 0.1834
874.80 0.1833
874.90 0.1833
875.00 0.1832
875.10 0.1831
875.20 0.1831
875.30 0.183
875.40 0.1829
875.50 0.1829
875.60 0.1828
875.70 0.1827
875.80 0.1827
875.90 0.1826
876.00 0.1825
876.10 0.1824
876.20 0.1824
876.30 0.1823
876.40 0.1822
876.50 0.1822
876.60 0.1821
876.70 0.182
876.80 0.182
876.90 0.1819
877.00 0.1818
877.10 0.1818
877.20 0.1817
877.30 0.1816
877.40 0.1816
877.50 0.1815
877.60 0.1814
877.70 0.1814
877.80 0.1813
877.90 0.1812
878.00 0.1812
878.10 0.1811
878.20 0.181
878.30 0.181
878.40 0.1809
878.50 0.1808
878.60 0.1808
878.70 0.1807
878.80 0.1806
878.90 0.1806
879.00 0.1805
879.10 0.1804
879.20 0.1804
879.30 0.1803
879.40 0.1802
879.50 0.1802
879.60 0.1801
879.70 0.18
879.80 0.18
879.90 0.1799
880.00 0.1798
880.10 0.1798
880.20 0.1797
880.30 0.1796
880.40 0.1796
880.50 0.1795
880.60 0.1794
880.70 0.1794
880.80 0.1793
880.90 0.1792
881.00 0.1792
881.10 0.1791
881.20 0.179
881.30 0.179
881.40 0.1789
881.50 0.1788
881.60 0.1788
881.70 0.1787
881.80 0.1787
881.90 0.1786
882.00 0.1785
882.10 0.1785
882.20 0.1784
882.30 0.1783
882.40 0.1782
882.50 0.1782
882.60 0.1781
882.70 0.178
882.80 0.178
882.90 0.1779
883.00 0.1778
883.10 0.1778
883.20 0.1777
883.30 0.1776
883.40 0.1776
883.50 0.1775
883.60 0.1774
883.70 0.1774
883.80 0.1773
883.90 0.1772
884.00 0.1772
884.10 0.1771
884.20 0.177
884.30 0.177
884.40 0.1769
884.50 0.1768
884.60 0.1768
884.70 0.1767
884.80 0.1766
884.90 0.1766
885.00 0.1765
885.10 0.1764
885.20 0.1764
885.30 0.1763
885.40 0.1762
885.50 0.1762
885.60 0.1761
885.70 0.176
885.80 0.176
885.90 0.1759
886.00 0.1758
886.10 0.1758
886.20 0.1757
886.30 0.1756
886.40 0.1756
886.50 0.1755
886.60 0.1754
886.70 0.1754
886.80 0.1753
886.90 0.1752
887.00 0.1752
887.10 0.1751
887.20 0.1751
887.30 0.175
887.40 0.1749
887.50 0.1749
887.60 0.1748
887.70 0.1748
887.80 0.1747
887.90 0.1746
888.00 0.1746
888.10 0.1745
888.20 0.1745
888.30 0.1744
888.40 0.1743
888.50 0.1743
888.60 0.1742
888.70 0.1742
888.80 0.1741
888.90 0.174
889.00 0.174
889.10 0.1739
889.20 0.1739
889.30 0.1738
889.40 0.1737
889.50 0.1737
889.60 0.1736
889.70 0.1736
889.80 0.1735
889.90 0.1734
890.00 0.1734
890.10 0.1733
890.20 0.1733
890.30 0.1732
890.40 0.1731
890.50 0.1731
890.60 0.173
890.70 0.173
890.80 0.1729
890.90 0.1729
891.00 0.1728
891.10 0.1727
891.20 0.1727
891.30 0.1726
891.40 0.1726
891.50 0.1725
891.60 0.1724
891.70 0.1724
891.80 0.1723
891.90 0.1723
892.00 0.1722
892.10 0.1721
892.20 0.1721
892.30 0.172
892.40 0.172
892.50 0.1719
892.60 0.1718
892.70 0.1718
892.80 0.1717
892.90 0.1717
893.00 0.1716
893.10 0.1715
893.20 0.1715
893.30 0.1714
893.40 0.1714
893.50 0.1713
893.60 0.1712
893.70 0.1712
893.80 0.1711
893.90 0.1711
894.00 0.171
894.10 0.1709
894.20 0.1709
894.30 0.1708
894.40 0.1707
894.50 0.1707
894.60 0.1706
894.70 0.1706
894.80 0.1705
894.90 0.1704
895.00 0.1704
895.10 0.1703
895.20 0.1703
895.30 0.1702
895.40 0.1701
895.50 0.1701
895.60 0.17
895.70 0.17
895.80 0.1699
895.90 0.1698
896.00 0.1698
896.10 0.1697
896.20 0.1697
896.30 0.1696
896.40 0.1695
896.50 0.1695
896.60 0.1694
896.70 0.1694
896.80 0.1693
896.90 0.1692
897.00 0.1692
897.10 0.1691
897.20 0.169
897.30 0.169
897.40 0.1689
897.50 0.1688
897.60 0.1688
897.70 0.1687
897.80 0.1686
897.90 0.1686
898.00 0.1685
898.10 0.1684
898.20 0.1684
898.30 0.1683
898.40 0.1682
898.50 0.1682
898.60 0.1681
898.70 0.168
898.80 0.168
898.90 0.1679
899.00 0.1678
899.10 0.1678
899.20 0.1677
899.30 0.1676
899.40 0.1676
899.50 0.1675
899.60 0.1674
899.70 0.1673
899.80 0.1673
899.90 0.1672
900.00 0.1671
900.10 0.1671
900.20 0.167
900.30 0.1669
900.40 0.1669
900.50 0.1668
900.60 0.1667
900.70 0.1667
900.80 0.1666
900.90 0.1665
901.00 0.1665
901.10 0.1664
901.20 0.1663
901.30 0.1663
901.40 0.1662
901.50 0.1661
901.60 0.1661
901.70 0.166
901.80 0.1659
901.90 0.1659
902.00 0.1658
902.10 0.1657
902.20 0.1657
902.30 0.1656
902.40 0.1656
902.50 0.1655
902.60 0.1655
902.70 0.1654
902.80 0.1654
902.90 0.1653
903.00 0.1653
903.10 0.1652
903.20 0.1652
903.30 0.1651
903.40 0.1651
903.50 0.1651
903.60 0.165
903.70 0.165
903.80 0.1649
903.90 0.1649
904.00 0.1648
904.10 0.1648
904.20 0.1647
904.30 0.1647
904.40 0.1646
904.50 0.1646
904.60 0.1645
904.70 0.1645
904.80 0.1644
904.90 0.1644
905.00 0.1643
905.10 0.1643
905.20 0.1642
905.30 0.1642
905.40 0.1641
905.50 0.1641
905.60 0.164
905.70 0.164
905.80 0.1639
905.90 0.1639
906.00 0.1638
906.10 0.1638
906.20 0.1637
906.30 0.1637
906.40 0.1636
906.50 0.1636
906.60 0.1635
906.70 0.1635
906.80 0.1634
906.90 0.1634
907.00 0.1633
907.10 0.1633
907.20 0.1632
907.30 0.1632
907.40 0.1631
907.50 0.1631
907.60 0.163
907.70 0.163
907.80 0.1629
907.90 0.1628
908.00 0.1628
908.10 0.1627
908.20 0.1627
908.30 0.1626
908.40 0.1626
908.50 0.1625
908.60 0.1625
908.70 0.1624
908.80 0.1624
908.90 0.1623
909.00 0.1623
909.10 0.1622
909.20 0.1622
909.30 0.1621
909.40 0.1621
909.50 0.162
909.60 0.162
909.70 0.1619
909.80 0.1619
909.90 0.1618
910.00 0.1618
910.10 0.1617
910.20 0.1616
910.30 0.1616
910.40 0.1615
910.50 0.1615
910.60 0.1614
910.70 0.1614
910.80 0.1613
910.90 0.1613
911.00 0.1612
911.10 0.1612
911.20 0.1611
911.30 0.1611
911.40 0.161
911.50 0.161
911.60 0.1609
911.70 0.1609
911.80 0.1608
911.90 0.1608
912.00 0.1607
912.10 0.1607
912.20 0.1606
912.30 0.1605
912.40 0.1605
912.50 0.1604
912.60 0.1604
912.70 0.1603
912.80 0.1603
912.90 0.1602
913.00 0.1601
913.10 0.1601
913.20 0.16
913.30 0.16
913.40 0.1599
913.50 0.1599
913.60 0.1598
913.70 0.1597
913.80 0.1597
913.90 0.1596
914.00 0.1596
914.10 0.1595
914.20 0.1594
914.30 0.1594
914.40 0.1593
914.50 0.1593
914.60 0.1592
914.70 0.1592
914.80 0.1591
914.90 0.1591
915.00 0.159
915.10 0.1589
915.20 0.1589
915.30 0.1588
915.40 0.1588
915.50 0.1587
915.60 0.1587
915.70 0.1586
915.80 0.1585
915.90 0.1585
916.00 0.1584
916.10 0.1584
916.20 0.1583
916.30 0.1583
916.40 0.1582
916.50 0.1581
916.60 0.1581
916.70 0.158
916.80 0.158
916.90 0.1579
917.00 0.1579
917.10 0.1578
917.20 0.1577
917.30 0.1577
917.40 0.1576
917.50 0.1575
917.60 0.1575
917.70 0.1574
917.80 0.1573
917.90 0.1573
918.00 0.1572
918.10 0.1571
918.20 0.1571
918.30 0.157
918.40 0.1569
918.50 0.1569
918.60 0.1568
918.70 0.1568
918.80 0.1567
918.90 0.1566
919.00 0.1566
919.10 0.1565
919.20 0.1564
919.30 0.1564
919.40 0.1563
919.50 0.1562
919.60 0.1562
919.70 0.1561
919.80 0.156
919.90 0.156
920.00 0.1559
920.10 0.1558
920.20 0.1558
920.30 0.1557
920.40 0.1557
920.50 0.1556
920.60 0.1555
920.70 0.1555
920.80 0.1554
920.90 0.1553
921.00 0.1553
921.10 0.1552
921.20 0.1551
921.30 0.1551
921.40 0.155
921.50 0.1549
921.60 0.1549
921.70 0.1548
921.80 0.1548
921.90 0.1547
922.00 0.1546
922.10 0.1546
922.20 0.1545
922.30 0.1544
922.40 0.1544
922.50 0.1543
922.60 0.1542
922.70 0.1542
922.80 0.1541
922.90 0.154
923.00 0.154
923.10 0.1539
923.20 0.1538
923.30 0.1538
923.40 0.1537
923.50 0.1536
923.60 0.1536
923.70 0.1535
923.80 0.1534
923.90 0.1534
924.00 0.1533
924.10 0.1532
924.20 0.1532
924.30 0.1531
924.40 0.1531
924.50 0.153
924.60 0.1529
924.70 0.1529
924.80 0.1528
924.90 0.1527
925.00 0.1527
925.10 0.1526
925.20 0.1525
925.30 0.1525
925.40 0.1524
925.50 0.1523
925.60 0.1523
925.70 0.1522
925.80 0.1521
925.90 0.1521
926.00 0.152
926.10 0.1519
926.20 0.1519
926.30 0.1518
926.40 0.1518
926.50 0.1517
926.60 0.1516
926.70 0.1516
926.80 0.1515
926.90 0.1514
927.00 0.1514
927.10 0.1513
927.20 0.1513
927.30 0.1513
927.40 0.1512
927.50 0.1512
927.60 0.1512
927.70 0.1512
927.80 0.1511
927.90 0.1511
928.00 0.1511
928.10 0.151
928.20 0.151
928.30 0.151
928.40 0.1509
928.50 0.1509
928.60 0.1509
928.70 0.1509
928.80 0.1508
928.90 0.1508
929.00 0.1508
929.10 0.1507
929.20 0.1507
929.30 0.1507
929.40 0.1507
929.50 0.1506
929.60 0.1506
929.70 0.1506
929.80 0.1505
929.90 0.1505
930.00 0.1505
930.10 0.1504
930.20 0.1504
930.30 0.1504
930.40 0.1504
930.50 0.1503
930.60 0.1503
930.70 0.1503
930.80 0.1502
930.90 0.1502
931.00 0.1502
931.10 0.1502
931.20 0.1501
931.30 0.1501
931.40 0.1501
931.50 0.15
931.60 0.15
931.70 0.15
931.80 0.1499
931.90 0.1499
932.00 0.1499
932.10 0.1498
932.20 0.1498
932.30 0.1498
932.40 0.1497
932.50 0.1497
932.60 0.1497
932.70 0.1496
932.80 0.1496
932.90 0.1495
933.00 0.1495
933.10 0.1495
933.20 0.1494
933.30 0.1494
933.40 0.1493
933.50 0.1493
933.60 0.1493
933.70 0.1492
933.80 0.1492
933.90 0.1491
934.00 0.1491
934.10 0.1491
934.20 0.149
934.30 0.149
934.40 0.1489
934.50 0.1489
934.60 0.1489
934.70 0.1488
934.80 0.1488
934.90 0.1487
935.00 0.1487
935.10 0.1486
935.20 0.1486
935.30 0.1485
935.40 0.1485
935.50 0.1485
935.60 0.1484
935.70 0.1484
935.80 0.1483
935.90 0.1483
936.00 0.1482
936.10 0.1482
936.20 0.1482
936.30 0.1481
936.40 0.1481
936.50 0.148
936.60 0.148
936.70 0.1479
936.80 0.1479
936.90 0.1478
937.00 0.1478
937.10 0.1478
937.20 0.1477
937.30 0.1477
937.40 0.1476
937.50 0.1476
937.60 0.1475
937.70 0.1475
937.80 0.1474
937.90 0.1474
938.00 0.1473
938.10 0.1473
938.20 0.1472
938.30 0.1472
938.40 0.1471
938.50 0.1471
938.60 0.147
938.70 0.147
938.80 0.147
938.90 0.1469
939.00 0.1469
939.10 0.1468
939.20 0.1468
939.30 0.1467
939.40 0.1467
939.50 0.1466
939.60 0.1466
939.70 0.1465
939.80 0.1465
939.90 0.1464
940.00 0.1464
940.10 0.1463
940.20 0.1463
940.30 0.1462
940.40 0.1462
940.50 0.1461
940.60 0.1461
940.70 0.146
940.80 0.1459
940.90 0.1459
941.00 0.1458
941.10 0.1458
941.20 0.1457
941.30 0.1457
941.40 0.1456
941.50 0.1456
941.60 0.1455
941.70 0.1455
941.80 0.1454
941.90 0.1454
942.00 0.1453
942.10 0.1453
942.20 0.1452
942.30 0.1452
942.40 0.1451
942.50 0.145
942.60 0.145
942.70 0.1449
942.80 0.1449
942.90 0.1448
943.00 0.1447
943.10 0.1447
943.20 0.1446
943.30 0.1446
943.40 0.1445
943.50 0.1445
943.60 0.1444
943.70 0.1443
943.80 0.1443
943.90 0.1442
944.00 0.1442
944.10 0.1441
944.20 0.144
944.30 0.144
944.40 0.1439
944.50 0.1439
944.60 0.1438
944.70 0.1437
944.80 0.1437
944.90 0.1436
945.00 0.1435
945.10 0.1435
945.20 0.1434
945.30 0.1433
945.40 0.1433
945.50 0.1432
945.60 0.1431
945.70 0.143
945.80 0.143
945.90 0.1429
946.00 0.1428
946.10 0.1427
946.20 0.1427
946.30 0.1426
946.40 0.1425
946.50 0.1425
946.60 0.1424
946.70 0.1423
946.80 0.1422
946.90 0.1422
947.00 0.1421
947.10 0.142
947.20 0.1419
947.30 0.1419
947.40 0.1418
947.50 0.1417
947.60 0.1416
947.70 0.1415
947.80 0.1414
947.90 0.1413
948.00 0.1412
948.10 0.1412
948.20 0.1411
948.30 0.141
948.40 0.1409
948.50 0.1408
948.60 0.1407
948.70 0.1406
948.80 0.1405
948.90 0.1405
949.00 0.1404
949.10 0.1403
949.20 0.1402
949.30 0.1401
949.40 0.14
949.50 0.1399
949.60 0.1398
949.70 0.1397
949.80 0.1396
949.90 0.1395
950.00 0.1394
950.10 0.1393
950.20 0.1393
950.30 0.1392
950.40 0.1391
950.50 0.139
950.60 0.1389
950.70 0.1388
950.80 0.1387
950.90 0.1386
951.00 0.1385
951.10 0.1384
951.20 0.1383
951.30 0.1382
951.40 0.1381
951.50 0.1381
951.60 0.138
951.70 0.1379
951.80 0.1378
951.90 0.1377
952.00 0.1376
952.10 0.1376
952.20 0.1375
952.30 0.1375
952.40 0.1374
952.50 0.1373
952.60 0.1373
952.70 0.1372
952.80 0.1371
952.90 0.1371
953.00 0.1371
953.10 0.1371
953.20 0.137
953.30 0.137
953.40 0.137
953.50 0.1369
953.60 0.1371
953.70 0.1372
953.80 0.1373
953.90 0.1374
954.00 0.1376
954.10 0.1377
954.20 0.1378
954.30 0.1368
954.40 0.1359
954.50 0.1357
954.60 0.1355
954.70 0.1354
954.80 0.1351
954.90 0.1349
955.00 0.1347
955.10 0.1345
955.20 0.1343
955.30 0.1342
955.40 0.134
955.50 0.1338
955.60 0.1336
955.70 0.1335
955.80 0.1333
955.90 0.1333
956.00 0.1332
956.10 0.1332
956.20 0.1331
956.30 0.1331
956.40 0.1331
956.50 0.133
956.60 0.133
956.70 0.133
956.80 0.1329
956.90 0.1329
957.00 0.1329
957.10 0.1328
957.20 0.1328
957.30 0.1328
957.40 0.1328
957.50 0.1328
957.60 0.1328
957.70 0.1328
957.80 0.1328
957.90 0.1328
958.00 0.1328
958.10 0.1328
958.20 0.1328
958.30 0.1328
958.40 0.1328
958.50 0.1328
958.60 0.1328
958.70 0.1328
958.80 0.1328
958.90 0.1328
959.00 0.1329
959.10 0.1329
959.20 0.1329
959.30 0.1329
959.40 0.1329
959.50 0.1329
959.60 0.1329
959.70 0.1329
959.80 0.1329
959.90 0.1329
960.00 0.1329
960.10 0.1329
960.20 0.1329
960.30 0.1329
960.40 0.133
960.50 0.133
960.60 0.133
960.70 0.133
960.80 0.133
960.90 0.133
961.00 0.133
961.10 0.133
961.20 0.133
961.30 0.133
961.40 0.133
961.50 0.133
961.60 0.1331
961.70 0.1331
961.80 0.1331
961.90 0.1331
962.00 0.1331
962.10 0.1331
962.20 0.1331
962.30 0.1331
962.40 0.1331
962.50 0.1331
962.60 0.1331
962.70 0.1331
962.80 0.1331
962.90 0.1331
963.00 0.1331
963.10 0.1331
963.20 0.1331
963.30 0.1331
963.40 0.1331
963.50 0.1331
963.60 0.1331
963.70 0.1331
963.80 0.1331
963.90 0.1331
964.00 0.1331
964.10 0.1331
964.20 0.1331
964.30 0.1331
964.40 0.133
964.50 0.133
964.60 0.133
964.70 0.133
964.80 0.133
964.90 0.133
965.00 0.133
965.10 0.133
965.20 0.133
965.30 0.1329
965.40 0.1329
965.50 0.1329
965.60 0.1329
965.70 0.1329
965.80 0.1329
965.90 0.1329
966.00 0.1329
966.10 0.1329
966.20 0.1328
966.30 0.1328
966.40 0.1328
966.50 0.1328
966.60 0.1328
966.70 0.1328
966.80 0.1328
966.90 0.1327
967.00 0.1327
967.10 0.1327
967.20 0.1327
967.30 0.1327
967.40 0.1326
967.50 0.1326
967.60 0.1326
967.70 0.1326
967.80 0.1326
967.90 0.1325
968.00 0.1325
968.10 0.1325
968.20 0.1325
968.30 0.1325
968.40 0.1324
968.50 0.1324
968.60 0.1324
968.70 0.1323
968.80 0.1323
968.90 0.1323
969.00 0.1323
969.10 0.1322
969.20 0.1322
969.30 0.1322
969.40 0.1322
969.50 0.1321
969.60 0.1321
969.70 0.1321
969.80 0.1321
969.90 0.132
970.00 0.132
970.10 0.132
970.20 0.132
970.30 0.1319
970.40 0.1319
970.50 0.1319
970.60 0.1318
970.70 0.1318
970.80 0.1318
970.90 0.1318
971.00 0.1317
971.10 0.1317
971.20 0.1317
971.30 0.1316
971.40 0.1316
971.50 0.1316
971.60 0.1315
971.70 0.1315
971.80 0.1315
971.90 0.1314
972.00 0.1314
972.10 0.1314
972.20 0.1313
972.30 0.1313
972.40 0.1313
972.50 0.1312
972.60 0.1312
972.70 0.1312
972.80 0.1311
972.90 0.1311
973.00 0.1311
973.10 0.131
973.20 0.131
973.30 0.131
973.40 0.1309
973.50 0.1309
973.60 0.1309
973.70 0.1308
973.80 0.1308
973.90 0.1308
974.00 0.1307
974.10 0.1307
974.20 0.1307
974.30 0.1306
974.40 0.1306
974.50 0.1305
974.60 0.1305
974.70 0.1305
974.80 0.1304
974.90 0.1304
975.00 0.1304
975.10 0.1303
975.20 0.1303
975.30 0.1302
975.40 0.1302
975.50 0.1302
975.60 0.1301
975.70 0.1301
975.80 0.1301
975.90 0.13
976.00 0.13
976.10 0.1299
976.20 0.1299
976.30 0.1299
976.40 0.1298
976.50 0.1298
976.60 0.1297
976.70 0.1297
976.80 0.1297
976.90 0.1296
977.00 0.1296
977.10 0.1296
977.20 0.1295
977.30 0.1295
977.40 0.1294
977.50 0.1294
977.60 0.1293
977.70 0.1293
977.80 0.1292
977.90 0.1292
978.00 0.1292
978.10 0.1291
978.20 0.1291
978.30 0.129
978.40 0.129
978.50 0.1289
978.60 0.1289
978.70 0.1289
978.80 0.1288
978.90 0.1288
979.00 0.1287
979.10 0.1287
979.20 0.1286
979.30 0.1286
979.40 0.1286
979.50 0.1285
979.60 0.1285
979.70 0.1284
979.80 0.1284
979.90 0.1283
980.00 0.1283
980.10 0.1283
980.20 0.1282
980.30 0.1282
980.40 0.1281
980.50 0.1281
980.60 0.128
980.70 0.128
980.80 0.128
980.90 0.1279
981.00 0.1279
981.10 0.1278
981.20 0.1278
981.30 0.1277
981.40 0.1277
981.50 0.1277
981.60 0.1276
981.70 0.1276
981.80 0.1275
981.90 0.1275
982.00 0.1274
982.10 0.1274
982.20 0.1273
982.30 0.1273
982.40 0.1273
982.50 0.1272
982.60 0.1272
982.70 0.1271
982.80 0.1271
982.90 0.127
983.00 0.127
983.10 0.1269
983.20 0.1269
983.30 0.1268
983.40 0.1268
983.50 0.1267
983.60 0.1267
983.70 0.1266
983.80 0.1266
983.90 0.1265
984.00 0.1265
984.10 0.1264
984.20 0.1264
984.30 0.1263
984.40 0.1263
984.50 0.1262
984.60 0.1262
984.70 0.1261
984.80 0.1261
984.90 0.126
985.00 0.126
985.10 0.1259
985.20 0.1259
985.30 0.1258
985.40 0.1257
985.50 0.1257
985.60 0.1256
985.70 0.1256
985.80 0.1255
985.90 0.1255
986.00 0.1254
986.10 0.1254
986.20 0.1253
986.30 0.1253
986.40 0.1252
986.50 0.1252
986.60 0.1251
986.70 0.125
986.80 0.125
986.90 0.1249
987.00 0.1249
987.10 0.1248
987.20 0.1248
987.30 0.1247
987.40 0.1246
987.50 0.1246
987.60 0.1245
987.70 0.1245
987.80 0.1244
987.90 0.1243
988.00 0.1243
988.10 0.1242
988.20 0.1241
988.30 0.1241
988.40 0.124
988.50 0.124
988.60 0.1239
988.70 0.1238
988.80 0.1238
988.90 0.1237
989.00 0.1236
989.10 0.1236
989.20 0.1235
989.30 0.1234
989.40 0.1234
989.50 0.1233
989.60 0.1232
989.70 0.1231
989.80 0.1231
989.90 0.123
990.00 0.1229
990.10 0.1229
990.20 0.1228
990.30 0.1227
990.40 0.1227
990.50 0.1226
990.60 0.1225
990.70 0.1224
990.80 0.1224
990.90 0.1223
991.00 0.1222
991.10 0.1221
991.20 0.122
991.30 0.122
991.40 0.1219
991.50 0.1218
991.60 0.1217
991.70 0.1216
991.80 0.1216
991.90 0.1215
992.00 0.1214
992.10 0.1213
992.20 0.1212
992.30 0.1211
992.40 0.121
992.50 0.1209
992.60 0.1209
992.70 0.1208
992.80 0.1207
992.90 0.1206
993.00 0.1205
993.10 0.1204
993.20 0.1203
993.30 0.1202
993.40 0.1201
993.50 0.12
993.60 0.1199
993.70 0.1198
993.80 0.1197
993.90 0.1196
994.00 0.1194
994.10 0.1193
994.20 0.1192
994.30 0.1191
994.40 0.119
994.50 0.1189
994.60 0.1188
994.70 0.1187
994.80 0.1186
994.90 0.1185
995.00 0.1184
995.10 0.1183
995.20 0.1181
995.30 0.118
995.40 0.1179
995.50 0.1178
995.60 0.1177
995.70 0.1176
995.80 0.1174
995.90 0.1173
996.00 0.1172
996.10 0.117
996.20 0.1169
996.30 0.1168
996.40 0.1166
996.50 0.1165
996.60 0.1164
996.70 0.1163
996.80 0.1161
996.90 0.116
997.00 0.1159
997.10 0.1157
997.20 0.1156
997.30 0.1154
997.40 0.1153
997.50 0.1152
997.60 0.115
997.70 0.1149
997.80 0.1147
997.90 0.1146
998.00 0.1144
998.10 0.1143
998.20 0.1141
998.30 0.114
998.40 0.1139
998.50 0.1137
998.60 0.1136
998.70 0.1134
998.80 0.1133
998.90 0.1131
999.00 0.113
999.10 0.1128
999.20 0.1127
999.30 0.1125
999.40 0.1124
999.50 0.1122
999.60 0.1121
999.70 0.112
999.80 0.1118
999.90 0.1117
1000.00 0.1115
1000.10 0.1114
1000.20 0.1113
1000.30 0.1111
1000.40 0.111
1000.50 0.1109
1000.60 0.1107
1000.70 0.1106
1000.80 0.1105
1000.90 0.1103
1001.00 0.1102
1001.10 0.1101
1001.20 0.1099
1001.30 0.1098
1001.40 0.1097
1001.50 0.1095
1001.60 0.1094
1001.70 0.1093
1001.80 0.1092
1001.90 0.1091
1002.00 0.109
1002.10 0.1089
1002.20 0.1088
1002.30 0.1088
1002.40 0.1087
1002.50 0.1086
1002.60 0.1086
1002.70 0.1085
1002.80 0.1084
1002.90 0.1084
1003.00 0.1083
1003.10 0.1082
1003.20 0.1083
1003.30 0.1084
1003.40 0.1086
1003.50 0.1087
1003.60 0.1088
1003.70 0.1089
1003.80 0.109
1003.90 0.1093
1004.00 0.1096
1004.10 0.1098
1004.20 0.1101
1004.30 0.1103
1004.40 0.1106
1004.50 0.1108
1004.60 0.1109
1004.70 0.1066
1004.80 0.1064
1004.90 0.1061
1005.00 0.1059
1005.10 0.1056
1005.20 0.1053
1005.30 0.105
1005.40 0.1047
1005.50 0.1045
1005.60 0.1044
1005.70 0.1042
1005.80 0.104
1005.90 0.1039
1006.00 0.1037
1006.10 0.1036
1006.20 0.1035
1006.30 0.1034
1006.40 0.1034
1006.50 0.1033
1006.60 0.1032
1006.70 0.1032
1006.80 0.1031
1006.90 0.1031
1007.00 0.103
1007.10 0.1029
1007.20 0.1029
1007.30 0.1028
1007.40 0.1028
1007.50 0.1028
1007.60 0.1027
1007.70 0.1027
1007.80 0.1027
1007.90 0.1027
1008.00 0.1027
1008.10 0.1028
1008.20 0.1028
1008.30 0.1028
1008.40 0.1028
1008.50 0.1028
1008.60 0.1028
1008.70 0.1029
1008.80 0.1029
1008.90 0.1029
1009.00 0.1029
1009.10 0.1029
1009.20 0.1029
1009.30 0.103
1009.40 0.103
1009.50 0.103
1009.60 0.103
1009.70 0.103
1009.80 0.1031
1009.90 0.1031
1010.00 0.1032
1010.10 0.1032
1010.20 0.1033
1010.30 0.1033
1010.40 0.1033
1010.50 0.1034
1010.60 0.1034
1010.70 0.1035
1010.80 0.1035
1010.90 0.1036
1011.00 0.1036
1011.10 0.1036
1011.20 0.1037
1011.30 0.1037
1011.40 0.1038
1011.50 0.1038
1011.60 0.1039
1011.70 0.1039
1011.80 0.104
1011.90 0.104
1012.00 0.104
1012.10 0.1041
1012.20 0.1041
1012.30 0.1042
1012.40 0.1042
1012.50 0.1042
1012.60 0.1043
1012.70 0.1043
1012.80 0.1044
1012.90 0.1044
1013.00 0.1044
1013.10 0.1045
1013.20 0.1045
1013.30 0.1046
1013.40 0.1046
1013.50 0.1046
1013.60 0.1047
1013.70 0.1047
1013.80 0.1048
1013.90 0.1048
1014.00 0.1048
1014.10 0.1049
1014.20 0.1049
1014.30 0.1049
1014.40 0.105
1014.50 0.105
1014.60 0.105
1014.70 0.1051
1014.80 0.1051
1014.90 0.1051
1015.00 0.1051
1015.10 0.1052
1015.20 0.1052
1015.30 0.1052
1015.40 0.1053
1015.50 0.1053
1015.60 0.1053
1015.70 0.1053
1015.80 0.1054
1015.90 0.1054
1016.00 0.1054
1016.10 0.1055
1016.20 0.1055
1016.30 0.1055
1016.40 0.1055
1016.50 0.1056
1016.60 0.1056
1016.70 0.1056
1016.80 0.1056
1016.90 0.1057
1017.00 0.1057
1017.10 0.1057
1017.20 0.1057
1017.30 0.1057
1017.40 0.1057
1017.50 0.1058
1017.60 0.1058
1017.70 0.1058
1017.80 0.1058
1017.90 0.1058
1018.00 0.1059
1018.10 0.1059
1018.20 0.1059
1018.30 0.1059
1018.40 0.1059
1018.50 0.1059
1018.60 0.106
1018.70 0.106
1018.80 0.106
1018.90 0.106
1019.00 0.106
1019.10 0.106
1019.20 0.106
1019.30 0.106
1019.40 0.106
1019.50 0.1061
1019.60 0.1061
1019.70 0.1061
1019.80 0.1061
1019.90 0.1061
1020.00 0.1061
1020.10 0.1061
1020.20 0.1061
1020.30 0.1061
1020.40 0.1061
1020.50 0.1062
1020.60 0.1062
1020.70 0.1062
1020.80 0.1062
1020.90 0.1062
1021.00 0.1062
1021.10 0.1062
1021.20 0.1062
1021.30 0.1062
1021.40 0.1062
1021.50 0.1062
1021.60 0.1062
1021.70 0.1062
1021.80 0.1062
1021.90 0.1062
1022.00 0.1062
1022.10 0.1062
1022.20 0.1062
1022.30 0.1062
1022.40 0.1062
1022.50 0.1062
1022.60 0.1062
1022.70 0.1062
1022.80 0.1062
1022.90 0.1062
1023.00 0.1062
1023.10 0.1062
1023.20 0.1062
1023.30 0.1062
1023.40 0.1062
1023.50 0.1062
1023.60 0.1062
1023.70 0.1062
1023.80 0.1062
1023.90 0.1062
1024.00 0.1062
1024.10 0.1062
1024.20 0.1062
1024.30 0.1062
1024.40 0.1062
1024.50 0.1062
1024.60 0.1062
1024.70 0.1062
1024.80 0.1062
1024.90 0.1062
1025.00 0.1062
1025.10 0.1062
1025.20 0.1062
1025.30 0.1062
1025.40 0.1061
1025.50 0.1061
1025.60 0.1061
1025.70 0.1061
1025.80 0.1061
1025.90 0.1061
1026.00 0.1061
1026.10 0.1061
1026.20 0.1061
1026.30 0.1061
1026.40 0.1061
1026.50 0.1061
1026.60 0.1061
1026.70 0.1061
1026.80 0.106
1026.90 0.106
1027.00 0.106
1027.10 0.106
1027.20 0.106
1027.30 0.106
1027.40 0.106
1027.50 0.106
1027.60 0.1059
1027.70 0.1059
1027.80 0.1059
1027.90 0.1059
1028.00 0.1059
1028.10 0.1059
1028.20 0.1059
1028.30 0.1058
1028.40 0.1058
1028.50 0.1058
1028.60 0.1058
1028.70 0.1058
1028.80 0.1058
1028.90 0.1058
1029.00 0.1057
1029.10 0.1057
1029.20 0.1057
1029.30 0.1057
1029.40 0.1057
1029.50 0.1057
1029.60 0.1056
1029.70 0.1056
1029.80 0.1056
1029.90 0.1056
1030.00 0.1056
1030.10 0.1056
1030.20 0.1056
1030.30 0.1055
1030.40 0.1055
1030.50 0.1055
1030.60 0.1055
1030.70 0.1055
1030.80 0.1055
1030.90 0.1055
1031.00 0.1054
1031.10 0.1054
1031.20 0.1054
1031.30 0.1054
1031.40 0.1054
1031.50 0.1054
1031.60 0.1054
1031.70 0.1053
1031.80 0.1053
1031.90 0.1053
1032.00 0.1053
1032.10 0.1053
1032.20 0.1053
1032.30 0.1052
1032.40 0.1052
1032.50 0.1052
1032.60 0.1052
1032.70 0.1051
1032.80 0.1051
1032.90 0.1051
1033.00 0.1051
1033.10 0.1051
1033.20 0.105
1033.30 0.105
1033.40 0.105
1033.50 0.105
1033.60 0.1049
1033.70 0.1049
1033.80 0.1049
1033.90 0.1049
1034.00 0.1049
1034.10 0.1048
1034.20 0.1048
1034.30 0.1048
1034.40 0.1048
1034.50 0.1048
1034.60 0.1047
1034.70 0.1047
1034.80 0.1047
1034.90 0.1047
1035.00 0.1046
1035.10 0.1046
1035.20 0.1046
1035.30 0.1046
1035.40 0.1046
1035.50 0.1045
1035.60 0.1045
1035.70 0.1045
1035.80 0.1045
1035.90 0.1044
1036.00 0.1044
1036.10 0.1044
1036.20 0.1044
1036.30 0.1044
1036.40 0.1043
1036.50 0.1043
1036.60 0.1043
1036.70 0.1043
1036.80 0.1042
1036.90 0.1042
1037.00 0.1042
1037.10 0.1042
1037.20 0.1042
1037.30 0.1041
1037.40 0.1041
1037.50 0.1041
1037.60 0.104
1037.70 0.104
1037.80 0.104
1037.90 0.104
1038.00 0.1039
1038.10 0.1039
1038.20 0.1039
1038.30 0.1038
1038.40 0.1038
1038.50 0.1038
1038.60 0.1038
1038.70 0.1037
1038.80 0.1037
1038.90 0.1037
1039.00 0.1037
1039.10 0.1036
1039.20 0.1036
1039.30 0.1036
1039.40 0.1035
1039.50 0.1035
1039.60 0.1035
1039.70 0.1035
1039.80 0.1034
1039.90 0.1034
1040.00 0.1034
1040.10 0.1034
1040.20 0.1033
1040.30 0.1033
1040.40 0.1033
1040.50 0.1032
1040.60 0.1032
1040.70 0.1032
1040.80 0.1032
1040.90 0.1031
1041.00 0.1031
1041.10 0.1031
1041.20 0.1031
1041.30 0.103
1041.40 0.103
1041.50 0.103
1041.60 0.1029
1041.70 0.1029
1041.80 0.1029
1041.90 0.1029
1042.00 0.1028
1042.10 0.1028
1042.20 0.1028
1042.30 0.1027
1042.40 0.1027
1042.50 0.1027
1042.60 0.1026
1042.70 0.1026
1042.80 0.1026
1042.90 0.1026
1043.00 0.1025
1043.10 0.1025
1043.20 0.1025
1043.30 0.1024
1043.40 0.1024
1043.50 0.1024
1043.60 0.1023
1043.70 0.1023
1043.80 0.1023
1043.90 0.1022
1044.00 0.1022
1044.10 0.1022
1044.20 0.1021
1044.30 0.1021
1044.40 0.1021
1044.50 0.102
1044.60 0.102
1044.70 0.102
1044.80 0.1019
1044.90 0.1019
1045.00 0.1019
1045.10 0.1018
1045.20 0.1018
1045.30 0.1018
1045.40 0.1018
1045.50 0.1017
1045.60 0.1017
1045.70 0.1017
1045.80 0.1016
1045.90 0.1016
1046.00 0.1016
1046.10 0.1015
1046.20 0.1015
1046.30 0.1015
1046.40 0.1014
1046.50 0.1014
1046.60 0.1014
1046.70 0.1013
1046.80 0.1013
1046.90 0.1013
1047.00 0.1012
1047.10 0.1012
1047.20 0.1012
1047.30 0.1011
1047.40 0.1011
1047.50 0.1011
1047.60 0.101
1047.70 0.101
1047.80 0.101
1047.90 0.1009
1048.00 0.1009
1048.10 0.1008
1048.20 0.1008
1048.30 0.1008
1048.40 0.1007
1048.50 0.1007
1048.60 0.1007
1048.70 0.1006
1048.80 0.1006
1048.90 0.1006
1049.00 0.1005
1049.10 0.1005
1049.20 0.1004
1049.30 0.1004
1049.40 0.1004
1049.50 0.1003
1049.60 0.1003
1049.70 0.1003
1049.80 0.1002
1049.90 0.1002
1050.00 0.1002
1050.10 0.1001
1050.20 0.1001
1050.30 0.1001
1050.40 0.1
1050.50 0.09998
1050.60 0.09995
1050.70 0.09991
1050.80 0.09988
1050.90 0.09984
1051.00 0.09981
1051.10 0.09977
1051.20 0.09973
1051.30 0.0997
1051.40 0.09966
1051.50 0.09963
1051.60 0.09959
1051.70 0.09956
1051.80 0.09952
1051.90 0.09949
1052.00 0.09945
1052.10 0.09941
1052.20 0.09937
1052.30 0.09933
1052.40 0.09929
1052.50 0.09925
1052.60 0.09921
1052.70 0.09917
1052.80 0.09913
1052.90 0.09909
1053.00 0.09904
1053.10 0.099
1053.20 0.09896
1053.30 0.09892
1053.40 0.09888
1053.50 0.09884
1053.60 0.0988
1053.70 0.09876
1053.80 0.09872
1053.90 0.09868
1054.00 0.09864
1054.10 0.0986
1054.20 0.09856
1054.30 0.09852
1054.40 0.09848
1054.50 0.09844
1054.60 0.0984
1054.70 0.09836
1054.80 0.09832
1054.90 0.09828
1055.00 0.09824
1055.10 0.0982
1055.20 0.09816
1055.30 0.09812
1055.40 0.09808
1055.50 0.09804
1055.60 0.098
1055.70 0.09796
1055.80 0.09792
1055.90 0.09788
1056.00 0.09784
1056.10 0.0978
1056.20 0.09776
1056.30 0.09772
1056.40 0.09768
1056.50 0.09764
1056.60 0.0976
1056.70 0.09756
1056.80 0.09752
1056.90 0.09748
1057.00 0.09744
1057.10 0.09739
1057.20 0.09735
1057.30 0.0973
1057.40 0.09726
1057.50 0.09721
1057.60 0.09717
1057.70 0.09712
1057.80 0.09708
1057.90 0.09703
1058.00 0.09699
1058.10 0.09694
1058.20 0.09689
1058.30 0.09685
1058.40 0.0968
1058.50 0.09676
1058.60 0.09671
1058.70 0.09667
1058.80 0.09662
1058.90 0.09658
1059.00 0.09653
1059.10 0.09649
1059.20 0.09644
1059.30 0.0964
1059.40 0.09635
1059.50 0.09631
1059.60 0.09626
1059.70 0.09622
1059.80 0.09617
1059.90 0.09613
1060.00 0.09608
1060.10 0.09604
1060.20 0.09599
1060.30 0.09595
1060.40 0.0959
1060.50 0.09586
1060.60 0.09581
1060.70 0.09577
1060.80 0.09572
1060.90 0.09568
1061.00 0.09563
1061.10 0.09559
1061.20 0.09554
1061.30 0.0955
1061.40 0.09545
1061.50 0.09541
1061.60 0.09536
1061.70 0.09532
1061.80 0.09527
1061.90 0.09523
1062.00 0.09518
1062.10 0.09513
1062.20 0.09508
1062.30 0.09503
1062.40 0.09498
1062.50 0.09493
1062.60 0.09487
1062.70 0.09482
1062.80 0.09477
1062.90 0.09472
1063.00 0.09467
1063.10 0.09462
1063.20 0.09456
1063.30 0.09451
1063.40 0.09446
1063.50 0.09441
1063.60 0.09436
1063.70 0.09431
1063.80 0.09425
1063.90 0.0942
1064.00 0.09415
1064.10 0.0941
1064.20 0.09405
1064.30 0.094
1064.40 0.09395
1064.50 0.09389
1064.60 0.09384
1064.70 0.09379
1064.80 0.09374
1064.90 0.09369
1065.00 0.09364
1065.10 0.09359
1065.20 0.09353
1065.30 0.09348
1065.40 0.09343
1065.50 0.09338
1065.60 0.09333
1065.70 0.09328
1065.80 0.09323
1065.90 0.09318
1066.00 0.09313
1066.10 0.09307
1066.20 0.09302
1066.30 0.09297
1066.40 0.09292
1066.50 0.09287
1066.60 0.09282
1066.70 0.09277
1066.80 0.09272
1066.90 0.09267
1067.00 0.09261
1067.10 0.09255
1067.20 0.09249
1067.30 0.09243
1067.40 0.09237
1067.50 0.09231
1067.60 0.09225
1067.70 0.09219
1067.80 0.09213
1067.90 0.09207
1068.00 0.09201
1068.10 0.09195
1068.20 0.09189
1068.30 0.09183
1068.40 0.09177
1068.50 0.09171
1068.60 0.09165
1068.70 0.09159
1068.80 0.09153
1068.90 0.09147
1069.00 0.09141
1069.10 0.09135
1069.20 0.09129
1069.30 0.09124
1069.40 0.09118
1069.50 0.09112
1069.60 0.09106
1069.70 0.091
1069.80 0.09094
1069.90 0.09088
1070.00 0.09082
1070.10 0.09076
1070.20 0.0907
1070.30 0.09064
1070.40 0.09058
1070.50 0.09052
1070.60 0.09046
1070.70 0.0904
1070.80 0.09034
1070.90 0.09028
1071.00 0.09022
1071.10 0.09016
1071.20 0.0901
1071.30 0.09004
1071.40 0.08998
1071.50 0.08993
1071.60 0.08987
1071.70 0.08981
1071.80 0.08975
1071.90 0.08969
1072.00 0.08963
1072.10 0.08956
1072.20 0.0895
1072.30 0.08943
1072.40 0.08936
1072.50 0.0893
1072.60 0.08923
1072.70 0.08916
1072.80 0.0891
1072.90 0.08903
1073.00 0.08896
1073.10 0.0889
1073.20 0.08883
1073.30 0.08876
1073.40 0.0887
1073.50 0.08863
1073.60 0.08855
1073.70 0.08848
1073.80 0.08841
1073.90 0.08833
1074.00 0.08826
1074.10 0.08819
1074.20 0.08811
1074.30 0.08804
1074.40 0.08797
1074.50 0.08789
1074.60 0.08782
1074.70 0.08775
1074.80 0.08767
1074.90 0.0876
1075.00 0.08753
1075.10 0.08745
1075.20 0.08738
1075.30 0.08731
1075.40 0.08723
1075.50 0.08716
1075.60 0.08709
1075.70 0.08701
1075.80 0.08694
1075.90 0.08687
1076.00 0.0868
1076.10 0.08672
1076.20 0.08665
1076.30 0.08658
1076.40 0.0865
1076.50 0.08643
1076.60 0.08636
1076.70 0.08629
1076.80 0.08621
1076.90 0.08614
1077.00 0.08607
1077.10 0.08599
1077.20 0.08591
1077.30 0.08583
1077.40 0.08575
1077.50 0.08567
1077.60 0.08559
1077.70 0.0855
1077.80 0.08542
1077.90 0.08533
1078.00 0.08525
1078.10 0.08517
1078.20 0.08508
1078.30 0.085
1078.40 0.08491
1078.50 0.08483
1078.60 0.08475
1078.70 0.08466
1078.80 0.08458
1078.90 0.0845
1079.00 0.08441
1079.10 0.08433
1079.20 0.08425
1079.30 0.08416
1079.40 0.08408
1079.50 0.08399
1079.60 0.0839
1079.70 0.08381
1079.80 0.08372
1079.90 0.08362
1080.00 0.08353
1080.10 0.08344
1080.20 0.08335
1080.30 0.08326
1080.40 0.08316
1080.50 0.08307
1080.60 0.08298
1080.70 0.08289
1080.80 0.0828
1080.90 0.0827
1081.00 0.08261
1081.10 0.08252
1081.20 0.08243
1081.30 0.08234
1081.40 0.08225
1081.50 0.08215
1081.60 0.08205
1081.70 0.08196
1081.80 0.08186
1081.90 0.08176
1082.00 0.08166
1082.10 0.08156
1082.20 0.08146
1082.30 0.08136
1082.40 0.08125
1082.50 0.08115
1082.60 0.08105
1082.70 0.08094
1082.80 0.08084
1082.90 0.08074
1083.00 0.08064
1083.10 0.08053
1083.20 0.08043
1083.30 0.08033
1083.40 0.08023
1083.50 0.08012
1083.60 0.08001
1083.70 0.0799
1083.80 0.07979
1083.90 0.07968
1084.00 0.07958
1084.10 0.07947
1084.20 0.07936
1084.30 0.07925
1084.40 0.07914
1084.50 0.07903
1084.60 0.07891
1084.70 0.07879
1084.80 0.07867
1084.90 0.07856
1085.00 0.07844
1085.10 0.07832
1085.20 0.07821
1085.30 0.07809
1085.40 0.07797
1085.50 0.07785
1085.60 0.07774
1085.70 0.07762
1085.80 0.0775
1085.90 0.07739
1086.00 0.07727
1086.10 0.07715
1086.20 0.07704
1086.30 0.07692
1086.40 0.0768
1086.50 0.07668
1086.60 0.07656
1086.70 0.07644
1086.80 0.07631
1086.90 0.07619
1087.00 0.07607
1087.10 0.07594
1087.20 0.07582
1087.30 0.07569
1087.40 0.07557
1087.50 0.07544
1087.60 0.07532
1087.70 0.07519
1087.80 0.07507
1087.90 0.07494
1088.00 0.07482
1088.10 0.07469
1088.20 0.07457
1088.30 0.07444
1088.40 0.07432
1088.50 0.0742
1088.60 0.07409
1088.70 0.07397
1088.80 0.07386
1088.90 0.07375
1089.00 0.07364
1089.10 0.07353
1089.20 0.07341
1089.30 0.0733
1089.40 0.07319
1089.50 0.07308
1089.60 0.07296
1089.70 0.07285
1089.80 0.07274
1089.90 0.07263
1090.00 0.07252
1090.10 0.0724
1090.20 0.07229
1090.30 0.07218
1090.40 0.07207
1090.50 0.07197
1090.60 0.07191
1090.70 0.07185
1090.80 0.07179
1090.90 0.07173
1091.00 0.07167
1091.10 0.07161
1091.20 0.07155
1091.30 0.0715
1091.40 0.07144
1091.50 0.07138
1091.60 0.07132
1091.70 0.07126
1091.80 0.0712
1091.90 0.07114
1092.00 0.07108
1092.10 0.07111
1092.20 0.07115
1092.30 0.07118
1092.40 0.07122
1092.50 0.07126
1092.60 0.07129
1092.70 0.07136
1092.80 0.0715
1092.90 0.07163
1093.00 0.07177
1093.10 0.07193
1093.20 0.07213
1093.30 0.07233
1093.40 0.07252
1093.50 0.07258
1093.60 0.07236
1093.70 0.07212
1093.80 0.07188
1093.90 0.07165
1094.00 0.07147
1094.10 0.0713
1094.20 0.07112
1094.30 0.07097
1094.40 0.0709
1094.50 0.07083
1094.60 0.07075
1094.70 0.07068
1094.80 0.0706
1094.90 0.07053
1095.00 0.07049
1095.10 0.0705
1095.20 0.07052
1095.30 0.07054
1095.40 0.07055
1095.50 0.07057
1095.60 0.07058
1095.70 0.0706
1095.80 0.07062
1095.90 0.07063
1096.00 0.07065
1096.10 0.07067
1096.20 0.07068
1096.30 0.0707
1096.40 0.07071
1096.50 0.07074
1096.60 0.07079
1096.70 0.07083
1096.80 0.07088
1096.90 0.07092
1097.00 0.07097
1097.10 0.07104
1097.20 0.07111
1097.30 0.07119
1097.40 0.07126
1097.50 0.07133
1097.60 0.0714
1097.70 0.07148
1097.80 0.07155
1097.90 0.07162
1098.00 0.07169
1098.10 0.07176
1098.20 0.07184
1098.30 0.07191
1098.40 0.07198
1098.50 0.07205
1098.60 0.07213
1098.70 0.0722
1098.80 0.07228
1098.90 0.07235
1099.00 0.07243
1099.10 0.0725
1099.20 0.07257
1099.30 0.07265
1099.40 0.07272
1099.50 0.0728
1099.60 0.07287
1099.70 0.07294
1099.80 0.07302
1099.90 0.07309
1100.00 0.07317
1100.10 0.07324
1100.20 0.07331
1100.30 0.07339
1100.40 0.07346
1100.50 0.07353
1100.60 0.0736
1100.70 0.07366
1100.80 0.07373
1100.90 0.0738
1101.00 0.07386
1101.10 0.07393
1101.20 0.07399
1101.30 0.07406
1101.40 0.07412
1101.50 0.07419
1101.60 0.07426
1101.70 0.07432
1101.80 0.07439
1101.90 0.07445
1102.00 0.07452
1102.10 0.07458
1102.20 0.07464
1102.30 0.0747
1102.40 0.07476
1102.50 0.07481
1102.60 0.07487
1102.70 0.07493
1102.80 0.07498
1102.90 0.07504
1103.00 0.07509
1103.10 0.07515
1103.20 0.0752
1103.30 0.07526
1103.40 0.07531
1103.50 0.07536
1103.60 0.07541
1103.70 0.07546
1103.80 0.0755
1103.90 0.07555
1104.00 0.0756
1104.10 0.07564
1104.20 0.07569
1104.30 0.07574
1104.40 0.07578
1104.50 0.07583
1104.60 0.07587
1104.70 0.07592
1104.80 0.07597
1104.90 0.07601
1105.00 0.07606
1105.10 0.07611
1105.20 0.07615
1105.30 0.0762
1105.40 0.07624
1105.50 0.07629
1105.60 0.07632
1105.70 0.07636
1105.80 0.0764
1105.90 0.07644
1106.00 0.07647
1106.10 0.07651
1106.20 0.07655
1106.30 0.07658
1106.40 0.07662
1106.50 0.07666
1106.60 0.07669
1106.70 0.07673
1106.80 0.07677
1106.90 0.07681
1107.00 0.07684
1107.10 0.07687
1107.20 0.07691
1107.30 0.07694
1107.40 0.07697
1107.50 0.077
1107.60 0.07703
1107.70 0.07706
1107.80 0.07708
1107.90 0.07711
1108.00 0.07714
1108.10 0.07717
1108.20 0.07719
1108.30 0.07722
1108.40 0.07725
1108.50 0.07727
1108.60 0.0773
1108.70 0.07733
1108.80 0.07735
1108.90 0.07738
1109.00 0.07741
1109.10 0.07744
1109.20 0.07746
1109.30 0.07749
1109.40 0.07752
1109.50 0.07754
1109.60 0.07756
1109.70 0.07758
1109.80 0.0776
1109.90 0.07762
1110.00 0.07764
1110.10 0.07766
1110.20 0.07767
1110.30 0.07769
1110.40 0.07771
1110.50 0.07773
1110.60 0.07775
1110.70 0.07777
1110.80 0.07779
1110.90 0.07781
1111.00 0.07783
1111.10 0.07784
1111.20 0.07786
1111.30 0.07788
1111.40 0.0779
1111.50 0.07792
1111.60 0.07794
1111.70 0.07796
1111.80 0.07798
1111.90 0.078
1112.00 0.07801
1112.10 0.07803
1112.20 0.07804
1112.30 0.07805
1112.40 0.07807
1112.50 0.07808
1112.60 0.07809
1112.70 0.0781
1112.80 0.07812
1112.90 0.07813
1113.00 0.07814
1113.10 0.07816
1113.20 0.07817
1113.30 0.07818
1113.40 0.07819
1113.50 0.0782
1113.60 0.07821
1113.70 0.07822
1113.80 0.07822
1113.90 0.07823
1114.00 0.07824
1114.10 0.07824
1114.20 0.07825
1114.30 0.07826
1114.40 0.07826
1114.50 0.07827
1114.60 0.07828
1114.70 0.07828
1114.80 0.07829
1114.90 0.0783
1115.00 0.0783
1115.10 0.07831
1115.20 0.07832
1115.30 0.07832
1115.40 0.07833
1115.50 0.07834
1115.60 0.07834
1115.70 0.07835
1115.80 0.07836
1115.90 0.07836
1116.00 0.07837
1116.10 0.07838
1116.20 0.07838
1116.30 0.07839
1116.40 0.0784
1116.50 0.0784
1116.60 0.07841
1116.70 0.07842
1116.80 0.07842
1116.90 0.07843
1117.00 0.07844
1117.10 0.07844
1117.20 0.07844
1117.30 0.07843
1117.40 0.07843
1117.50 0.07843
1117.60 0.07843
1117.70 0.07843
1117.80 0.07843
1117.90 0.07843
1118.00 0.07842
1118.10 0.07842
1118.20 0.07842
1118.30 0.07842
1118.40 0.07842
1118.50 0.07842
1118.60 0.07842
1118.70 0.07842
1118.80 0.07841
1118.90 0.07841
1119.00 0.07841
1119.10 0.07841
1119.20 0.07841
1119.30 0.07841
1119.40 0.07841
1119.50 0.0784
1119.60 0.0784
1119.70 0.0784
1119.80 0.0784
1119.90 0.0784
1120.00 0.0784
1120.10 0.0784
1120.20 0.07839
1120.30 0.07839
1120.40 0.07839
1120.50 0.07839
1120.60 0.07839
1120.70 0.07839
1120.80 0.07839
1120.90 0.07839
1121.00 0.07838
1121.10 0.07838
1121.20 0.07838
1121.30 0.07838
1121.40 0.07838
1121.50 0.07838
1121.60 0.07838
1121.70 0.07837
1121.80 0.07837
1121.90 0.07837
1122.00 0.07837
1122.10 0.07836
1122.20 0.07835
1122.30 0.07835
1122.40 0.07834
1122.50 0.07833
1122.60 0.07832
1122.70 0.07831
1122.80 0.07831
1122.90 0.0783
1123.00 0.07829
1123.10 0.07828
1123.20 0.07827
1123.30 0.07827
1123.40 0.07826
1123.50 0.07825
1123.60 0.07824
1123.70 0.07823
1123.80 0.07823
1123.90 0.07822
1124.00 0.07821
1124.10 0.0782
1124.20 0.0782
1124.30 0.07819
1124.40 0.07818
1124.50 0.07817
1124.60 0.07816
1124.70 0.07816
1124.80 0.07815
1124.90 0.07814
1125.00 0.07813
1125.10 0.07812
1125.20 0.07812
1125.30 0.07811
1125.40 0.0781
1125.50 0.07809
1125.60 0.07808
1125.70 0.07808
1125.80 0.07807
1125.90 0.07806
1126.00 0.07805
1126.10 0.07804
1126.20 0.07804
1126.30 0.07803
1126.40 0.07802
1126.50 0.07801
1126.60 0.078
1126.70 0.078
1126.80 0.07799
1126.90 0.07798
1127.00 0.07797
1127.10 0.07796
1127.20 0.07795
1127.30 0.07794
1127.40 0.07792
1127.50 0.07791
1127.60 0.0779
1127.70 0.07789
1127.80 0.07787
1127.90 0.07786
1128.00 0.07785
1128.10 0.07784
1128.20 0.07782
1128.30 0.07781
1128.40 0.0778
1128.50 0.07779
1128.60 0.07777
1128.70 0.07776
1128.80 0.07775
1128.90 0.07774
1129.00 0.07772
1129.10 0.07771
1129.20 0.0777
1129.30 0.07769
1129.40 0.07767
1129.50 0.07766
1129.60 0.07765
1129.70 0.07764
1129.80 0.07762
1129.90 0.07761
1130.00 0.0776
1130.10 0.07759
1130.20 0.07757
1130.30 0.07756
1130.40 0.07755
1130.50 0.07754
1130.60 0.07752
1130.70 0.07751
1130.80 0.0775
1130.90 0.07749
1131.00 0.07747
1131.10 0.07746
1131.20 0.07745
1131.30 0.07744
1131.40 0.07743
1131.50 0.07741
1131.60 0.0774
1131.70 0.07739
1131.80 0.07738
1131.90 0.07736
1132.00 0.07735
1132.10 0.07734
1132.20 0.07732
1132.30 0.0773
1132.40 0.07729
1132.50 0.07727
1132.60 0.07726
1132.70 0.07724
1132.80 0.07723
1132.90 0.07721
1133.00 0.0772
1133.10 0.07718
1133.20 0.07717
1133.30 0.07715
1133.40 0.07713
1133.50 0.07712
1133.60 0.0771
1133.70 0.07709
1133.80 0.07707
1133.90 0.07706
1134.00 0.07704
1134.10 0.07703
1134.20 0.07701
1134.30 0.077
1134.40 0.07698
1134.50 0.07696
1134.60 0.07695
1134.70 0.07693
1134.80 0.07692
1134.90 0.0769
1135.00 0.07689
1135.10 0.07687
1135.20 0.07686
1135.30 0.07684
1135.40 0.07683
1135.50 0.07681
1135.60 0.0768
1135.70 0.07678
1135.80 0.07676
1135.90 0.07675
1136.00 0.07673
1136.10 0.07672
1136.20 0.0767
1136.30 0.07669
1136.40 0.07667
1136.50 0.07666
1136.60 0.07664
1136.70 0.07663
1136.80 0.07661
1136.90 0.0766
1137.00 0.07658
1137.10 0.07656
1137.20 0.07655
1137.30 0.07653
1137.40 0.07651
1137.50 0.07649
1137.60 0.07647
1137.70 0.07646
1137.80 0.07644
1137.90 0.07642
1138.00 0.0764
1138.10 0.07639
1138.20 0.07637
1138.30 0.07635
1138.40 0.07633
1138.50 0.07632
1138.60 0.0763
1138.70 0.07628
1138.80 0.07626
1138.90 0.07625
1139.00 0.07623
1139.10 0.07621
1139.20 0.07619
1139.30 0.07618
1139.40 0.07616
1139.50 0.07614
1139.60 0.07612
1139.70 0.07611
1139.80 0.07609
1139.90 0.07607
1140.00 0.07605
1140.10 0.07604
1140.20 0.07602
1140.30 0.076
1140.40 0.07598
1140.50 0.07597
1140.60 0.07595
1140.70 0.07593
1140.80 0.07591
1140.90 0.0759
1141.00 0.07588
1141.10 0.07586
1141.20 0.07584
1141.30 0.07583
1141.40 0.07581
1141.50 0.07579
1141.60 0.07578
1141.70 0.07576
1141.80 0.07574
1141.90 0.07572
1142.00 0.07571
1142.10 0.07569
1142.20 0.07567
1142.30 0.07565
1142.40 0.07563
1142.50 0.07561
1142.60 0.07559
1142.70 0.07557
1142.80 0.07555
1142.90 0.07553
1143.00 0.07552
1143.10 0.0755
1143.20 0.07548
1143.30 0.07546
1143.40 0.07544
1143.50 0.07542
1143.60 0.0754
1143.70 0.07538
1143.80 0.07536
1143.90 0.07535
1144.00 0.07533
1144.10 0.07531
1144.20 0.07529
1144.30 0.07527
1144.40 0.07525
1144.50 0.07523
1144.60 0.07521
1144.70 0.07519
1144.80 0.07518
1144.90 0.07516
1145.00 0.07514
1145.10 0.07512
1145.20 0.0751
1145.30 0.07508
1145.40 0.07506
1145.50 0.07504
1145.60 0.07503
1145.70 0.07501
1145.80 0.07499
1145.90 0.07497
1146.00 0.07495
1146.10 0.07493
1146.20 0.07491
1146.30 0.07489
1146.40 0.07488
1146.50 0.07486
1146.60 0.07484
1146.70 0.07482
1146.80 0.0748
1146.90 0.07478
1147.00 0.07476
1147.10 0.07474
1147.20 0.07472
1147.30 0.0747
1147.40 0.07468
1147.50 0.07466
1147.60 0.07464
1147.70 0.07463
1147.80 0.07461
1147.90 0.07459
1148.00 0.07457
1148.10 0.07455
1148.20 0.07453
1148.30 0.07451
1148.40 0.07449
1148.50 0.07447
1148.60 0.07445
1148.70 0.07443
1148.80 0.07441
1148.90 0.07439
1149.00 0.07437
1149.10 0.07435
1149.20 0.07433
1149.30 0.07431
1149.40 0.07429
1149.50 0.07427
1149.60 0.07425
1149.70 0.07423
1149.80 0.07421
1149.90 0.07419
1150.00 0.07417
1150.10 0.07415
1150.20 0.07414
1150.30 0.07412
1150.40 0.0741
1150.50 0.07408
1150.60 0.07406
1150.70 0.07404
1150.80 0.07402
1150.90 0.074
1151.00 0.07398
1151.10 0.07396
1151.20 0.07394
1151.30 0.07392
1151.40 0.0739
1151.50 0.07388
1151.60 0.07386
1151.70 0.07384
1151.80 0.07382
1151.90 0.0738
1152.00 0.07378
1152.10 0.07376
1152.20 0.07374
1152.30 0.07372
1152.40 0.0737
1152.50 0.07368
1152.60 0.07366
1152.70 0.07364
1152.80 0.07362
1152.90 0.0736
1153.00 0.07358
1153.10 0.07356
1153.20 0.07354
1153.30 0.07352
1153.40 0.0735
1153.50 0.07348
1153.60 0.07346
1153.70 0.07344
1153.80 0.07342
1153.90 0.0734
1154.00 0.07338
1154.10 0.07336
1154.20 0.07334
1154.30 0.07332
1154.40 0.0733
1154.50 0.07328
1154.60 0.07326
1154.70 0.07324
1154.80 0.07322
1154.90 0.0732
1155.00 0.07318
1155.10 0.07316
1155.20 0.07314
1155.30 0.07312
1155.40 0.0731
1155.50 0.07308
1155.60 0.07306
1155.70 0.07304
1155.80 0.07302
1155.90 0.073
1156.00 0.07298
1156.10 0.07295
1156.20 0.07293
1156.30 0.07291
1156.40 0.07289
1156.50 0.07287
1156.60 0.07285
1156.70 0.07283
1156.80 0.07281
1156.90 0.07279
1157.00 0.07277
1157.10 0.07275
1157.20 0.07273
1157.30 0.07271
1157.40 0.07269
1157.50 0.07267
1157.60 0.07265
1157.70 0.07263
1157.80 0.07261
1157.90 0.07259
1158.00 0.07257
1158.10 0.07255
1158.20 0.07253
1158.30 0.07251
1158.40 0.07249
1158.50 0.07246
1158.60 0.07244
1158.70 0.07242
1158.80 0.0724
1158.90 0.07238
1159.00 0.07236
1159.10 0.07234
1159.20 0.07232
1159.30 0.0723
1159.40 0.07228
1159.50 0.07226
1159.60 0.07224
1159.70 0.07222
1159.80 0.0722
1159.90 0.07218
1160.00 0.07216
1160.10 0.07214
1160.20 0.07212
1160.30 0.0721
1160.40 0.07207
1160.50 0.07205
1160.60 0.07203
1160.70 0.07201
1160.80 0.07199
1160.90 0.07197
1161.00 0.07195
1161.10 0.07193
1161.20 0.07191
1161.30 0.07189
1161.40 0.07187
1161.50 0.07185
1161.60 0.07183
1161.70 0.07181
1161.80 0.07179
1161.90 0.07177
1162.00 0.07175
1162.10 0.07173
1162.20 0.07171
1162.30 0.07169
1162.40 0.07167
1162.50 0.07164
1162.60 0.07162
1162.70 0.0716
1162.80 0.07158
1162.90 0.07156
1163.00 0.07154
1163.10 0.07152
1163.20 0.0715
1163.30 0.07148
1163.40 0.07146
1163.50 0.07144
1163.60 0.07142
1163.70 0.0714
1163.80 0.07138
1163.90 0.07136
1164.00 0.07134
1164.10 0.07131
1164.20 0.07129
1164.30 0.07127
1164.40 0.07125
1164.50 0.07123
1164.60 0.07121
1164.70 0.07119
1164.80 0.07117
1164.90 0.07115
1165.00 0.07113
1165.10 0.07111
1165.20 0.07109
1165.30 0.07107
1165.40 0.07105
1165.50 0.07103
1165.60 0.07101
1165.70 0.07099
1165.80 0.07097
1165.90 0.07095
1166.00 0.07093
1166.10 0.0709
1166.20 0.07088
1166.30 0.07086
1166.40 0.07084
1166.50 0.07082
1166.60 0.0708
1166.70 0.07078
1166.80 0.07076
1166.90 0.07074
1167.00 0.07072
1167.10 0.0707
1167.20 0.07068
1167.30 0.07066
1167.40 0.07064
1167.50 0.07062
1167.60 0.0706
1167.70 0.07057
1167.80 0.07055
1167.90 0.07053
1168.00 0.07051
1168.10 0.07049
1168.20 0.07047
1168.30 0.07045
1168.40 0.07043
1168.50 0.07041
1168.60 0.07039
1168.70 0.07037
1168.80 0.07035
1168.90 0.07033
1169.00 0.0703
1169.10 0.07028
1169.20 0.07026
1169.30 0.07024
1169.40 0.07022
1169.50 0.0702
1169.60 0.07018
1169.70 0.07016
1169.80 0.07014
1169.90 0.07012
1170.00 0.0701
1170.10 0.07008
1170.20 0.07006
1170.30 0.07004
1170.40 0.07001
1170.50 0.06999
1170.60 0.06997
1170.70 0.06995
1170.80 0.06993
1170.90 0.06991
1171.00 0.06989
1171.10 0.06987
1171.20 0.06985
1171.30 0.06983
1171.40 0.06981
1171.50 0.06979
1171.60 0.06977
1171.70 0.06975
1171.80 0.06973
1171.90 0.06971
1172.00 0.06968
1172.10 0.06966
1172.20 0.06964
1172.30 0.06962
1172.40 0.0696
1172.50 0.06958
1172.60 0.06956
1172.70 0.06954
1172.80 0.06952
1172.90 0.0695
1173.00 0.06948
1173.10 0.06946
1173.20 0.06944
1173.30 0.06942
1173.40 0.06939
1173.50 0.06937
1173.60 0.06935
1173.70 0.06933
1173.80 0.06931
1173.90 0.06929
1174.00 0.06927
1174.10 0.06925
1174.20 0.06923
1174.30 0.06921
1174.40 0.06919
1174.50 0.06917
1174.60 0.06915
1174.70 0.06913
1174.80 0.06911
1174.90 0.06909
1175.00 0.06906
1175.10 0.06904
1175.20 0.06902
1175.30 0.069
1175.40 0.06898
1175.50 0.06896
1175.60 0.06894
1175.70 0.06892
1175.80 0.0689
1175.90 0.06888
1176.00 0.06886
1176.10 0.06884
1176.20 0.06882
1176.30 0.0688
1176.40 0.06878
1176.50 0.06876
1176.60 0.06874
1176.70 0.06872
1176.80 0.0687
1176.90 0.06867
1177.00 0.06865
1177.10 0.06863
1177.20 0.06861
1177.30 0.06859
1177.40 0.06857
1177.50 0.06855
1177.60 0.06853
1177.70 0.06851
1177.80 0.06849
1177.90 0.06847
1178.00 0.06845
1178.10 0.06843
1178.20 0.06841
1178.30 0.06838
1178.40 0.06836
1178.50 0.06834
1178.60 0.06832
1178.70 0.0683
1178.80 0.06828
1178.90 0.06826
1179.00 0.06824
1179.10 0.06822
1179.20 0.0682
1179.30 0.06818
1179.40 0.06816
1179.50 0.06814
1179.60 0.06812
1179.70 0.0681
1179.80 0.06807
1179.90 0.06805
1180.00 0.06803
1180.10 0.06801
1180.20 0.06799
1180.30 0.06797
1180.40 0.06795
1180.50 0.06793
1180.60 0.06791
1180.70 0.06789
1180.80 0.06787
1180.90 0.06785
1181.00 0.06783
1181.10 0.06781
1181.20 0.06779
1181.30 0.06777
1181.40 0.06775
1181.50 0.06773
1181.60 0.06771
1181.70 0.06768
1181.80 0.06766
1181.90 0.06764
1182.00 0.06762
1182.10 0.0676
1182.20 0.06758
1182.30 0.06756
1182.40 0.06754
1182.50 0.06752
1182.60 0.0675
1182.70 0.06748
1182.80 0.06746
1182.90 0.06744
1183.00 0.06742
1183.10 0.0674
1183.20 0.06738
1183.30 0.06736
1183.40 0.06733
1183.50 0.06731
1183.60 0.06729
1183.70 0.06727
1183.80 0.06725
1183.90 0.06723
1184.00 0.06721
1184.10 0.06719
1184.20 0.06717
1184.30 0.06715
1184.40 0.06713
1184.50 0.06711
1184.60 0.06709
1184.70 0.06707
1184.80 0.06705
1184.90 0.06703
1185.00 0.06701
1185.10 0.06699
1185.20 0.06697
1185.30 0.06695
1185.40 0.06693
1185.50 0.0669
1185.60 0.06688
1185.70 0.06686
1185.80 0.06684
1185.90 0.06682
1186.00 0.0668
1186.10 0.06678
1186.20 0.06676
1186.30 0.06674
1186.40 0.06672
1186.50 0.0667
1186.60 0.06668
1186.70 0.06666
1186.80 0.06664
1186.90 0.06662
1187.00 0.0666
1187.10 0.06658
1187.20 0.06656
1187.30 0.06654
1187.40 0.06652
1187.50 0.0665
1187.60 0.06648
1187.70 0.06646
1187.80 0.06644
1187.90 0.06642
1188.00 0.06639
1188.10 0.06637
1188.20 0.06635
1188.30 0.06633
1188.40 0.06631
1188.50 0.06629
1188.60 0.06627
1188.70 0.06625
1188.80 0.06623
1188.90 0.06621
1189.00 0.06619
1189.10 0.06617
1189.20 0.06615
1189.30 0.06613
1189.40 0.06611
1189.50 0.06609
1189.60 0.06607
1189.70 0.06605
1189.80 0.06603
1189.90 0.06601
1190.00 0.06599
1190.10 0.06597
1190.20 0.06595
1190.30 0.06593
1190.40 0.06591
1190.50 0.06589
1190.60 0.06587
1190.70 0.06585
1190.80 0.06583
1190.90 0.06581
1191.00 0.06579
1191.10 0.06577
1191.20 0.06575
1191.30 0.06573
1191.40 0.06571
1191.50 0.06568
1191.60 0.06566
1191.70 0.06564
1191.80 0.06562
1191.90 0.0656
1192.00 0.06558
1192.10 0.06556
1192.20 0.06554
1192.30 0.06552
1192.40 0.0655
1192.50 0.06548
1192.60 0.06546
1192.70 0.06544
1192.80 0.06542
1192.90 0.0654
1193.00 0.06538
1193.10 0.06536
1193.20 0.06534
1193.30 0.06532
1193.40 0.0653
1193.50 0.06528
1193.60 0.06526
1193.70 0.06524
1193.80 0.06522
1193.90 0.0652
1194.00 0.06518
1194.10 0.06516
1194.20 0.06514
1194.30 0.06512
1194.40 0.0651
1194.50 0.06508
1194.60 0.06506
1194.70 0.06503
1194.80 0.06501
1194.90 0.06499
1195.00 0.06497
1195.10 0.06495
1195.20 0.06493
1195.30 0.06491
1195.40 0.06489
1195.50 0.06487
1195.60 0.06485
1195.70 0.06483
1195.80 0.06481
1195.90 0.06479
1196.00 0.06477
1196.10 0.06475
1196.20 0.06473
1196.30 0.06471
1196.40 0.06469
1196.50 0.06467
1196.60 0.06465
1196.70 0.06463
1196.80 0.06461
1196.90 0.06459
1197.00 0.06457
1197.10 0.06455
1197.20 0.06453
1197.30 0.06451
1197.40 0.06449
1197.50 0.06447
1197.60 0.06445
1197.70 0.06443
1197.80 0.06441
1197.90 0.06439
1198.00 0.06437
1198.10 0.06434
1198.20 0.06432
1198.30 0.0643
1198.40 0.06428
1198.50 0.06426
1198.60 0.06424
1198.70 0.06422
1198.80 0.0642
1198.90 0.06418
1199.00 0.06416
1199.10 0.06414
1199.20 0.06412
1199.30 0.0641
1199.40 0.06408
1199.50 0.06406
1199.60 0.06404
1199.70 0.06402
1199.80 0.064
1199.90 0.06398
1200.00 0
