# Version 2.1 - nm, norm@500 to 1, cut digits, bergeron_13000_85.dat_13000
# Wavelength(nm)  Flambda(ergs/cm^s/s/nm)
300.00 2.156
300.10 2.155
300.20 2.153
300.30 2.152
300.40 2.151
300.50 2.149
300.60 2.148
300.70 2.146
300.80 2.145
300.90 2.143
301.00 2.142
301.10 2.14
301.20 2.139
301.30 2.137
301.40 2.136
301.50 2.135
301.60 2.133
301.70 2.132
301.80 2.13
301.90 2.129
302.00 2.127
302.10 2.126
302.20 2.125
302.30 2.123
302.40 2.122
302.50 2.12
302.60 2.119
302.70 2.117
302.80 2.116
302.90 2.115
303.00 2.113
303.10 2.112
303.20 2.11
303.30 2.109
303.40 2.107
303.50 2.106
303.60 2.105
303.70 2.103
303.80 2.102
303.90 2.1
304.00 2.099
304.10 2.097
304.20 2.096
304.30 2.095
304.40 2.093
304.50 2.092
304.60 2.09
304.70 2.089
304.80 2.088
304.90 2.086
305.00 2.085
305.10 2.083
305.20 2.082
305.30 2.081
305.40 2.079
305.50 2.078
305.60 2.076
305.70 2.075
305.80 2.074
305.90 2.072
306.00 2.071
306.10 2.069
306.20 2.068
306.30 2.067
306.40 2.065
306.50 2.064
306.60 2.063
306.70 2.061
306.80 2.06
306.90 2.058
307.00 2.057
307.10 2.056
307.20 2.054
307.30 2.053
307.40 2.051
307.50 2.05
307.60 2.049
307.70 2.047
307.80 2.046
307.90 2.045
308.00 2.043
308.10 2.042
308.20 2.04
308.30 2.039
308.40 2.038
308.50 2.036
308.60 2.035
308.70 2.034
308.80 2.032
308.90 2.031
309.00 2.03
309.10 2.028
309.20 2.027
309.30 2.026
309.40 2.024
309.50 2.023
309.60 2.021
309.70 2.02
309.80 2.019
309.90 2.017
310.00 2.016
310.10 2.015
310.20 2.013
310.30 2.012
310.40 2.011
310.50 2.009
310.60 2.008
310.70 2.007
310.80 2.005
310.90 2.004
311.00 2.003
311.10 2.001
311.20 2
311.30 1.999
311.40 1.997
311.50 1.996
311.60 1.995
311.70 1.993
311.80 1.992
311.90 1.991
312.00 1.989
312.10 1.988
312.20 1.987
312.30 1.985
312.40 1.984
312.50 1.983
312.60 1.981
312.70 1.98
312.80 1.979
312.90 1.977
313.00 1.976
313.10 1.975
313.20 1.973
313.30 1.972
313.40 1.971
313.50 1.969
313.60 1.968
313.70 1.967
313.80 1.966
313.90 1.964
314.00 1.963
314.10 1.962
314.20 1.96
314.30 1.959
314.40 1.958
314.50 1.956
314.60 1.955
314.70 1.954
314.80 1.953
314.90 1.951
315.00 1.95
315.10 1.949
315.20 1.947
315.30 1.946
315.40 1.945
315.50 1.943
315.60 1.942
315.70 1.941
315.80 1.94
315.90 1.938
316.00 1.937
316.10 1.936
316.20 1.934
316.30 1.933
316.40 1.932
316.50 1.931
316.60 1.929
316.70 1.928
316.80 1.927
316.90 1.925
317.00 1.924
317.10 1.923
317.20 1.922
317.30 1.92
317.40 1.919
317.50 1.918
317.60 1.917
317.70 1.915
317.80 1.914
317.90 1.913
318.00 1.911
318.10 1.91
318.20 1.909
318.30 1.908
318.40 1.906
318.50 1.905
318.60 1.904
318.70 1.903
318.80 1.901
318.90 1.9
319.00 1.899
319.10 1.898
319.20 1.896
319.30 1.895
319.40 1.894
319.50 1.893
319.60 1.891
319.70 1.89
319.80 1.889
319.90 1.888
320.00 1.886
320.10 1.885
320.20 1.884
320.30 1.883
320.40 1.881
320.50 1.88
320.60 1.879
320.70 1.878
320.80 1.876
320.90 1.875
321.00 1.874
321.10 1.873
321.20 1.871
321.30 1.87
321.40 1.869
321.50 1.868
321.60 1.867
321.70 1.865
321.80 1.864
321.90 1.863
322.00 1.862
322.10 1.86
322.20 1.859
322.30 1.858
322.40 1.857
322.50 1.856
322.60 1.854
322.70 1.853
322.80 1.852
322.90 1.851
323.00 1.849
323.10 1.848
323.20 1.847
323.30 1.846
323.40 1.845
323.50 1.843
323.60 1.842
323.70 1.841
323.80 1.84
323.90 1.838
324.00 1.837
324.10 1.836
324.20 1.835
324.30 1.834
324.40 1.832
324.50 1.831
324.60 1.83
324.70 1.829
324.80 1.828
324.90 1.826
325.00 1.825
325.10 1.824
325.20 1.823
325.30 1.822
325.40 1.82
325.50 1.819
325.60 1.818
325.70 1.817
325.80 1.816
325.90 1.815
326.00 1.813
326.10 1.812
326.20 1.811
326.30 1.81
326.40 1.809
326.50 1.807
326.60 1.806
326.70 1.805
326.80 1.804
326.90 1.803
327.00 1.801
327.10 1.8
327.20 1.799
327.30 1.798
327.40 1.797
327.50 1.796
327.60 1.794
327.70 1.793
327.80 1.792
327.90 1.791
328.00 1.79
328.10 1.789
328.20 1.787
328.30 1.786
328.40 1.785
328.50 1.784
328.60 1.783
328.70 1.782
328.80 1.78
328.90 1.779
329.00 1.778
329.10 1.777
329.20 1.776
329.30 1.775
329.40 1.773
329.50 1.772
329.60 1.771
329.70 1.77
329.80 1.769
329.90 1.768
330.00 1.766
330.10 1.765
330.20 1.764
330.30 1.763
330.40 1.762
330.50 1.761
330.60 1.76
330.70 1.758
330.80 1.757
330.90 1.756
331.00 1.755
331.10 1.754
331.20 1.753
331.30 1.752
331.40 1.75
331.50 1.749
331.60 1.748
331.70 1.747
331.80 1.746
331.90 1.745
332.00 1.744
332.10 1.742
332.20 1.741
332.30 1.74
332.40 1.739
332.50 1.738
332.60 1.737
332.70 1.736
332.80 1.735
332.90 1.733
333.00 1.732
333.10 1.731
333.20 1.73
333.30 1.729
333.40 1.728
333.50 1.727
333.60 1.726
333.70 1.724
333.80 1.723
333.90 1.722
334.00 1.721
334.10 1.72
334.20 1.719
334.30 1.718
334.40 1.717
334.50 1.715
334.60 1.714
334.70 1.713
334.80 1.712
334.90 1.711
335.00 1.71
335.10 1.709
335.20 1.708
335.30 1.707
335.40 1.706
335.50 1.704
335.60 1.703
335.70 1.702
335.80 1.701
335.90 1.7
336.00 1.699
336.10 1.698
336.20 1.697
336.30 1.696
336.40 1.694
336.50 1.693
336.60 1.692
336.70 1.691
336.80 1.69
336.90 1.689
337.00 1.688
337.10 1.687
337.20 1.686
337.30 1.685
337.40 1.684
337.50 1.682
337.60 1.681
337.70 1.68
337.80 1.679
337.90 1.678
338.00 1.677
338.10 1.676
338.20 1.675
338.30 1.674
338.40 1.673
338.50 1.672
338.60 1.671
338.70 1.669
338.80 1.668
338.90 1.667
339.00 1.666
339.10 1.665
339.20 1.664
339.30 1.663
339.40 1.662
339.50 1.661
339.60 1.66
339.70 1.659
339.80 1.658
339.90 1.657
340.00 1.656
340.10 1.654
340.20 1.653
340.30 1.652
340.40 1.651
340.50 1.65
340.60 1.649
340.70 1.648
340.80 1.647
340.90 1.646
341.00 1.645
341.10 1.644
341.20 1.643
341.30 1.642
341.40 1.641
341.50 1.64
341.60 1.639
341.70 1.638
341.80 1.636
341.90 1.635
342.00 1.634
342.10 1.633
342.20 1.632
342.30 1.631
342.40 1.63
342.50 1.629
342.60 1.628
342.70 1.627
342.80 1.626
342.90 1.625
343.00 1.624
343.10 1.623
343.20 1.622
343.30 1.621
343.40 1.62
343.50 1.619
343.60 1.618
343.70 1.617
343.80 1.616
343.90 1.615
344.00 1.614
344.10 1.613
344.20 1.611
344.30 1.61
344.40 1.609
344.50 1.608
344.60 1.607
344.70 1.606
344.80 1.605
344.90 1.604
345.00 1.603
345.10 1.602
345.20 1.601
345.30 1.6
345.40 1.599
345.50 1.598
345.60 1.597
345.70 1.596
345.80 1.595
345.90 1.594
346.00 1.593
346.10 1.592
346.20 1.591
346.30 1.59
346.40 1.589
346.50 1.588
346.60 1.587
346.70 1.586
346.80 1.585
346.90 1.584
347.00 1.583
347.10 1.582
347.20 1.581
347.30 1.58
347.40 1.579
347.50 1.578
347.60 1.577
347.70 1.576
347.80 1.575
347.90 1.574
348.00 1.573
348.10 1.572
348.20 1.571
348.30 1.57
348.40 1.569
348.50 1.568
348.60 1.567
348.70 1.566
348.80 1.565
348.90 1.564
349.00 1.563
349.10 1.562
349.20 1.561
349.30 1.56
349.40 1.559
349.50 1.558
349.60 1.557
349.70 1.556
349.80 1.555
349.90 1.554
350.00 1.553
350.10 1.552
350.20 1.551
350.30 1.55
350.40 1.549
350.50 1.548
350.60 1.547
350.70 1.546
350.80 1.545
350.90 1.544
351.00 1.543
351.10 1.542
351.20 1.541
351.30 1.54
351.40 1.539
351.50 1.538
351.60 1.537
351.70 1.536
351.80 1.535
351.90 1.534
352.00 1.533
352.10 1.532
352.20 1.531
352.30 1.53
352.40 1.529
352.50 1.528
352.60 1.527
352.70 1.526
352.80 1.526
352.90 1.525
353.00 1.524
353.10 1.523
353.20 1.522
353.30 1.521
353.40 1.52
353.50 1.519
353.60 1.518
353.70 1.517
353.80 1.516
353.90 1.515
354.00 1.514
354.10 1.513
354.20 1.512
354.30 1.511
354.40 1.51
354.50 1.509
354.60 1.508
354.70 1.507
354.80 1.506
354.90 1.505
355.00 1.504
355.10 1.503
355.20 1.503
355.30 1.502
355.40 1.501
355.50 1.5
355.60 1.499
355.70 1.498
355.80 1.497
355.90 1.496
356.00 1.495
356.10 1.494
356.20 1.493
356.30 1.492
356.40 1.491
356.50 1.49
356.60 1.489
356.70 1.488
356.80 1.487
356.90 1.487
357.00 1.486
357.10 1.485
357.20 1.484
357.30 1.483
357.40 1.482
357.50 1.481
357.60 1.48
357.70 1.479
357.80 1.478
357.90 1.477
358.00 1.476
358.10 1.475
358.20 1.474
358.30 1.473
358.40 1.473
358.50 1.472
358.60 1.471
358.70 1.47
358.80 1.469
358.90 1.468
359.00 1.467
359.10 1.466
359.20 1.465
359.30 1.464
359.40 1.463
359.50 1.462
359.60 1.461
359.70 1.461
359.80 1.46
359.90 1.459
360.00 1.458
360.10 1.457
360.20 1.456
360.30 1.455
360.40 1.454
360.50 1.453
360.60 1.452
360.70 1.451
360.80 1.451
360.90 1.45
361.00 1.449
361.10 1.448
361.20 1.447
361.30 1.446
361.40 1.445
361.50 1.444
361.60 1.443
361.70 1.442
361.80 1.441
361.90 1.441
362.00 1.44
362.10 1.439
362.20 1.438
362.30 1.437
362.40 1.436
362.50 1.435
362.60 1.434
362.70 1.433
362.80 1.432
362.90 1.432
363.00 1.431
363.10 1.43
363.20 1.429
363.30 1.428
363.40 1.427
363.50 1.426
363.60 1.425
363.70 1.424
363.80 1.422
363.90 1.421
364.00 1.42
364.10 1.419
364.20 1.418
364.30 1.417
364.40 1.416
364.50 1.415
364.60 1.414
364.70 1.413
364.80 1.412
364.90 1.411
365.00 1.41
365.10 1.409
365.20 1.408
365.30 1.407
365.40 1.406
365.50 1.405
365.60 1.404
365.70 1.403
365.80 1.402
365.90 1.401
366.00 1.4
366.10 1.399
366.20 1.398
366.30 1.397
366.40 1.396
366.50 1.395
366.60 1.394
366.70 1.393
366.80 1.392
366.90 1.391
367.00 1.39
367.10 1.39
367.20 1.389
367.30 1.388
367.40 1.387
367.50 1.386
367.60 1.385
367.70 1.384
367.80 1.383
367.90 1.382
368.00 1.381
368.10 1.38
368.20 1.38
368.30 1.379
368.40 1.378
368.50 1.377
368.60 1.376
368.70 1.375
368.80 1.374
368.90 1.374
369.00 1.373
369.10 1.372
369.20 1.371
369.30 1.37
369.40 1.369
369.50 1.369
369.60 1.368
369.70 1.367
369.80 1.366
369.90 1.365
370.00 1.364
370.10 1.364
370.20 1.363
370.30 1.363
370.40 1.362
370.50 1.361
370.60 1.361
370.70 1.36
370.80 1.36
370.90 1.359
371.00 1.358
371.10 1.358
371.20 1.357
371.30 1.357
371.40 1.356
371.50 1.356
371.60 1.355
371.70 1.354
371.80 1.354
371.90 1.353
372.00 1.353
372.10 1.353
372.20 1.352
372.30 1.352
372.40 1.352
372.50 1.352
372.60 1.352
372.70 1.352
372.80 1.352
372.90 1.352
373.00 1.352
373.10 1.352
373.20 1.351
373.30 1.351
373.40 1.351
373.50 1.351
373.60 1.351
373.70 1.351
373.80 1.351
373.90 1.351
374.00 1.351
374.10 1.351
374.20 1.351
374.30 1.351
374.40 1.351
374.50 1.352
374.60 1.352
374.70 1.352
374.80 1.352
374.90 1.353
375.00 1.353
375.10 1.353
375.20 1.353
375.30 1.353
375.40 1.354
375.50 1.354
375.60 1.354
375.70 1.354
375.80 1.354
375.90 1.355
376.00 1.355
376.10 1.355
376.20 1.355
376.30 1.355
376.40 1.355
376.50 1.355
376.60 1.355
376.70 1.355
376.80 1.355
376.90 1.355
377.00 1.355
377.10 1.354
377.20 1.353
377.30 1.353
377.40 1.352
377.50 1.351
377.60 1.35
377.70 1.349
377.80 1.349
377.90 1.348
378.00 1.347
378.10 1.344
378.20 1.341
378.30 1.337
378.40 1.334
378.50 1.331
378.60 1.328
378.70 1.324
378.80 1.321
378.90 1.318
379.00 1.315
379.10 1.313
379.20 1.31
379.30 1.308
379.40 1.306
379.50 1.304
379.60 1.302
379.70 1.3
379.80 1.298
379.90 1.295
380.00 1.293
380.10 1.296
380.20 1.299
380.30 1.302
380.40 1.305
380.50 1.308
380.60 1.311
380.70 1.314
380.80 1.317
380.90 1.32
381.00 1.323
381.10 1.324
381.20 1.325
381.30 1.325
381.40 1.326
381.50 1.327
381.60 1.326
381.70 1.325
381.80 1.323
381.90 1.321
382.00 1.318
382.10 1.314
382.20 1.31
382.30 1.302
382.40 1.294
382.50 1.286
382.60 1.278
382.70 1.27
382.80 1.262
382.90 1.254
383.00 1.246
383.10 1.238
383.20 1.23
383.30 1.225
383.40 1.218
383.50 1.211
383.60 1.213
383.70 1.22
383.80 1.227
383.90 1.232
384.00 1.24
384.10 1.25
384.20 1.26
384.30 1.271
384.40 1.281
384.50 1.29
384.60 1.299
384.70 1.306
384.80 1.312
384.90 1.317
385.00 1.322
385.10 1.326
385.20 1.329
385.30 1.331
385.40 1.333
385.50 1.335
385.60 1.336
385.70 1.337
385.80 1.337
385.90 1.336
386.00 1.335
386.10 1.334
386.20 1.332
386.30 1.33
386.40 1.327
386.50 1.324
386.60 1.32
386.70 1.315
386.80 1.311
386.90 1.305
387.00 1.299
387.10 1.293
387.20 1.285
387.30 1.278
387.40 1.269
387.50 1.26
387.60 1.251
387.70 1.24
387.80 1.228
387.90 1.214
388.00 1.2
388.10 1.183
388.20 1.165
388.30 1.145
388.40 1.125
388.50 1.106
388.60 1.089
388.70 1.078
388.80 1.067
388.90 1.059
389.00 1.067
389.10 1.077
389.20 1.088
389.30 1.105
389.40 1.124
389.50 1.145
389.60 1.165
389.70 1.184
389.80 1.201
389.90 1.217
390.00 1.232
390.10 1.245
390.20 1.257
390.30 1.268
390.40 1.278
390.50 1.287
390.60 1.296
390.70 1.305
390.80 1.313
390.90 1.32
391.00 1.327
391.10 1.334
391.20 1.34
391.30 1.345
391.40 1.35
391.50 1.355
391.60 1.359
391.70 1.363
391.80 1.366
391.90 1.369
392.00 1.371
392.10 1.373
392.20 1.375
392.30 1.376
392.40 1.377
392.50 1.377
392.60 1.376
392.70 1.376
392.80 1.375
392.90 1.373
393.00 1.371
393.10 1.368
393.20 1.365
393.30 1.361
393.40 1.357
393.50 1.353
393.60 1.348
393.70 1.342
393.80 1.336
393.90 1.329
394.00 1.322
394.10 1.315
394.20 1.307
394.30 1.298
394.40 1.289
394.50 1.279
394.60 1.269
394.70 1.258
394.80 1.247
394.90 1.235
395.00 1.223
395.10 1.21
395.20 1.196
395.30 1.182
395.40 1.168
395.50 1.153
395.60 1.137
395.70 1.12
395.80 1.103
395.90 1.085
396.00 1.066
396.10 1.047
396.20 1.025
396.30 1.001
396.40 0.9754
396.50 0.9452
396.60 0.9146
396.70 0.8837
396.80 0.8603
396.90 0.8368
397.00 0.8132
397.10 0.8348
397.20 0.8565
397.30 0.8784
397.40 0.9085
397.50 0.9386
397.60 0.9687
397.70 0.9944
397.80 1.018
397.90 1.04
398.00 1.059
398.10 1.078
398.20 1.096
398.30 1.113
398.40 1.13
398.50 1.146
398.60 1.161
398.70 1.175
398.80 1.19
398.90 1.204
399.00 1.217
399.10 1.23
399.20 1.243
399.30 1.255
399.40 1.267
399.50 1.278
399.60 1.289
399.70 1.3
399.80 1.31
399.90 1.319
400.00 1.329
400.10 1.338
400.20 1.346
400.30 1.355
400.40 1.362
400.50 1.37
400.60 1.377
400.70 1.384
400.80 1.391
400.90 1.397
401.00 1.403
401.10 1.409
401.20 1.414
401.30 1.419
401.40 1.424
401.50 1.428
401.60 1.432
401.70 1.436
401.80 1.439
401.90 1.442
402.00 1.445
402.10 1.448
402.20 1.45
402.30 1.453
402.40 1.454
402.50 1.456
402.60 1.457
402.70 1.458
402.80 1.459
402.90 1.46
403.00 1.46
403.10 1.46
403.20 1.46
403.30 1.459
403.40 1.458
403.50 1.457
403.60 1.456
403.70 1.455
403.80 1.453
403.90 1.451
404.00 1.448
404.10 1.446
404.20 1.443
404.30 1.439
404.40 1.436
404.50 1.432
404.60 1.428
404.70 1.424
404.80 1.419
404.90 1.415
405.00 1.409
405.10 1.404
405.20 1.398
405.30 1.392
405.40 1.386
405.50 1.379
405.60 1.372
405.70 1.365
405.80 1.358
405.90 1.35
406.00 1.342
406.10 1.333
406.20 1.325
406.30 1.316
406.40 1.306
406.50 1.297
406.60 1.287
406.70 1.276
406.80 1.266
406.90 1.255
407.00 1.243
407.10 1.231
407.20 1.219
407.30 1.206
407.40 1.193
407.50 1.18
407.60 1.166
407.70 1.152
407.80 1.137
407.90 1.122
408.00 1.107
408.10 1.092
408.20 1.076
408.30 1.06
408.40 1.043
408.50 1.026
408.60 1.008
408.70 0.9903
408.80 0.9715
408.90 0.9524
409.00 0.9332
409.10 0.9138
409.20 0.8943
409.30 0.8746
409.40 0.8529
409.50 0.8296
409.60 0.8049
409.70 0.7764
409.80 0.7465
409.90 0.7153
410.00 0.6862
410.10 0.6627
410.20 0.6449
410.30 0.6724
410.40 0.701
410.50 0.7305
410.60 0.7606
410.70 0.7888
410.80 0.8152
410.90 0.838
411.00 0.8594
411.10 0.8793
411.20 0.898
411.30 0.9165
411.40 0.9349
411.50 0.9531
411.60 0.971
411.70 0.9886
411.80 1.005
411.90 1.022
412.00 1.038
412.10 1.053
412.20 1.068
412.30 1.083
412.40 1.097
412.50 1.111
412.60 1.125
412.70 1.138
412.80 1.151
412.90 1.164
413.00 1.176
413.10 1.188
413.20 1.2
413.30 1.211
413.40 1.222
413.50 1.232
413.60 1.242
413.70 1.252
413.80 1.262
413.90 1.271
414.00 1.28
414.10 1.289
414.20 1.298
414.30 1.306
414.40 1.314
414.50 1.322
414.60 1.33
414.70 1.337
414.80 1.344
414.90 1.351
415.00 1.358
415.10 1.365
415.20 1.371
415.30 1.377
415.40 1.383
415.50 1.389
415.60 1.395
415.70 1.4
415.80 1.406
415.90 1.411
416.00 1.416
416.10 1.421
416.20 1.425
416.30 1.43
416.40 1.434
416.50 1.438
416.60 1.442
416.70 1.446
416.80 1.45
416.90 1.454
417.00 1.457
417.10 1.461
417.20 1.464
417.30 1.467
417.40 1.47
417.50 1.473
417.60 1.476
417.70 1.479
417.80 1.481
417.90 1.484
418.00 1.486
418.10 1.488
418.20 1.49
418.30 1.493
418.40 1.494
418.50 1.496
418.60 1.498
418.70 1.5
418.80 1.501
418.90 1.503
419.00 1.504
419.10 1.505
419.20 1.507
419.30 1.508
419.40 1.509
419.50 1.51
419.60 1.511
419.70 1.511
419.80 1.512
419.90 1.513
420.00 1.513
420.10 1.514
420.20 1.514
420.30 1.515
420.40 1.515
420.50 1.515
420.60 1.515
420.70 1.515
420.80 1.515
420.90 1.515
421.00 1.515
421.10 1.514
421.20 1.514
421.30 1.514
421.40 1.513
421.50 1.513
421.60 1.512
421.70 1.511
421.80 1.511
421.90 1.51
422.00 1.509
422.10 1.508
422.20 1.507
422.30 1.506
422.40 1.505
422.50 1.503
422.60 1.502
422.70 1.501
422.80 1.499
422.90 1.498
423.00 1.496
423.10 1.494
423.20 1.493
423.30 1.491
423.40 1.489
423.50 1.487
423.60 1.485
423.70 1.483
423.80 1.481
423.90 1.478
424.00 1.476
424.10 1.474
424.20 1.471
424.30 1.469
424.40 1.466
424.50 1.463
424.60 1.461
424.70 1.458
424.80 1.455
424.90 1.452
425.00 1.449
425.10 1.446
425.20 1.443
425.30 1.439
425.40 1.436
425.50 1.432
425.60 1.429
425.70 1.425
425.80 1.421
425.90 1.417
426.00 1.414
426.10 1.41
426.20 1.405
426.30 1.4
426.40 1.396
426.50 1.391
426.60 1.387
426.70 1.382
426.80 1.377
426.90 1.373
427.00 1.368
427.10 1.363
427.20 1.357
427.30 1.352
427.40 1.347
427.50 1.341
427.60 1.336
427.70 1.33
427.80 1.324
427.90 1.318
428.00 1.312
428.10 1.306
428.20 1.3
428.30 1.293
428.40 1.287
428.50 1.28
428.60 1.273
428.70 1.266
428.80 1.259
428.90 1.252
429.00 1.244
429.10 1.237
429.20 1.229
429.30 1.221
429.40 1.213
429.50 1.205
429.60 1.196
429.70 1.188
429.80 1.179
429.90 1.17
430.00 1.161
430.10 1.152
430.20 1.142
430.30 1.132
430.40 1.123
430.50 1.112
430.60 1.102
430.70 1.092
430.80 1.081
430.90 1.07
431.00 1.059
431.10 1.047
431.20 1.035
431.30 1.023
431.40 1.011
431.50 0.9986
431.60 0.9858
431.70 0.9729
431.80 0.9597
431.90 0.9461
432.00 0.9322
432.10 0.9181
432.20 0.9034
432.30 0.8883
432.40 0.8727
432.50 0.8562
432.60 0.8391
432.70 0.8216
432.80 0.8036
432.90 0.7857
433.00 0.7678
433.10 0.7506
433.20 0.7335
433.30 0.7166
433.40 0.6989
433.50 0.6799
433.60 0.6595
433.70 0.6336
433.80 0.6041
433.90 0.5711
434.00 0.5221
434.10 0.5229
434.20 0.5735
434.30 0.6056
434.40 0.6342
434.50 0.6592
434.60 0.6787
434.70 0.697
434.80 0.714
434.90 0.7301
435.00 0.7465
435.10 0.7629
435.20 0.78
435.30 0.7971
435.40 0.8141
435.50 0.8307
435.60 0.8467
435.70 0.8621
435.80 0.8766
435.90 0.8906
436.00 0.9042
436.10 0.9172
436.20 0.9298
436.30 0.9422
436.40 0.9542
436.50 0.9659
436.60 0.9774
436.70 0.9886
436.80 0.9995
436.90 1.01
437.00 1.021
437.10 1.031
437.20 1.041
437.30 1.05
437.40 1.06
437.50 1.069
437.60 1.078
437.70 1.086
437.80 1.095
437.90 1.103
438.00 1.111
438.10 1.119
438.20 1.126
438.30 1.134
438.40 1.141
438.50 1.148
438.60 1.155
438.70 1.162
438.80 1.168
438.90 1.175
439.00 1.181
439.10 1.187
439.20 1.193
439.30 1.199
439.40 1.204
439.50 1.209
439.60 1.215
439.70 1.22
439.80 1.225
439.90 1.23
440.00 1.235
440.10 1.239
440.20 1.244
440.30 1.248
440.40 1.253
440.50 1.257
440.60 1.261
440.70 1.265
440.80 1.269
440.90 1.273
441.00 1.276
441.10 1.28
441.20 1.283
441.30 1.287
441.40 1.29
441.50 1.293
441.60 1.296
441.70 1.299
441.80 1.302
441.90 1.305
442.00 1.308
442.10 1.311
442.20 1.313
442.30 1.316
442.40 1.318
442.50 1.321
442.60 1.323
442.70 1.325
442.80 1.327
442.90 1.33
443.00 1.332
443.10 1.334
443.20 1.336
443.30 1.337
443.40 1.339
443.50 1.341
443.60 1.343
443.70 1.344
443.80 1.346
443.90 1.348
444.00 1.349
444.10 1.351
444.20 1.352
444.30 1.353
444.40 1.355
444.50 1.356
444.60 1.357
444.70 1.358
444.80 1.359
444.90 1.361
445.00 1.362
445.10 1.363
445.20 1.364
445.30 1.364
445.40 1.365
445.50 1.366
445.60 1.367
445.70 1.368
445.80 1.369
445.90 1.369
446.00 1.37
446.10 1.371
446.20 1.371
446.30 1.372
446.40 1.372
446.50 1.373
446.60 1.374
446.70 1.374
446.80 1.374
446.90 1.375
447.00 1.375
447.10 1.376
447.20 1.376
447.30 1.376
447.40 1.377
447.50 1.377
447.60 1.377
447.70 1.377
447.80 1.377
447.90 1.378
448.00 1.378
448.10 1.378
448.20 1.378
448.30 1.378
448.40 1.378
448.50 1.378
448.60 1.378
448.70 1.378
448.80 1.378
448.90 1.378
449.00 1.379
449.10 1.379
449.20 1.379
449.30 1.379
449.40 1.378
449.50 1.378
449.60 1.378
449.70 1.378
449.80 1.378
449.90 1.378
450.00 1.378
450.10 1.377
450.20 1.377
450.30 1.377
450.40 1.377
450.50 1.376
450.60 1.376
450.70 1.376
450.80 1.376
450.90 1.375
451.00 1.375
451.10 1.375
451.20 1.374
451.30 1.374
451.40 1.374
451.50 1.373
451.60 1.373
451.70 1.372
451.80 1.372
451.90 1.372
452.00 1.371
452.10 1.371
452.20 1.37
452.30 1.37
452.40 1.369
452.50 1.369
452.60 1.368
452.70 1.368
452.80 1.367
452.90 1.367
453.00 1.366
453.10 1.366
453.20 1.365
453.30 1.365
453.40 1.364
453.50 1.364
453.60 1.363
453.70 1.363
453.80 1.362
453.90 1.361
454.00 1.361
454.10 1.36
454.20 1.36
454.30 1.359
454.40 1.359
454.50 1.358
454.60 1.357
454.70 1.357
454.80 1.356
454.90 1.355
455.00 1.355
455.10 1.354
455.20 1.353
455.30 1.353
455.40 1.352
455.50 1.351
455.60 1.351
455.70 1.35
455.80 1.349
455.90 1.349
456.00 1.348
456.10 1.347
456.20 1.347
456.30 1.346
456.40 1.345
456.50 1.344
456.60 1.344
456.70 1.343
456.80 1.342
456.90 1.342
457.00 1.341
457.10 1.34
457.20 1.34
457.30 1.339
457.40 1.338
457.50 1.338
457.60 1.337
457.70 1.336
457.80 1.335
457.90 1.334
458.00 1.333
458.10 1.333
458.20 1.332
458.30 1.331
458.40 1.33
458.50 1.329
458.60 1.329
458.70 1.328
458.80 1.327
458.90 1.326
459.00 1.325
459.10 1.324
459.20 1.324
459.30 1.323
459.40 1.322
459.50 1.321
459.60 1.32
459.70 1.319
459.80 1.318
459.90 1.318
460.00 1.317
460.10 1.316
460.20 1.315
460.30 1.314
460.40 1.313
460.50 1.312
460.60 1.311
460.70 1.31
460.80 1.309
460.90 1.309
461.00 1.308
461.10 1.307
461.20 1.306
461.30 1.305
461.40 1.304
461.50 1.303
461.60 1.302
461.70 1.301
461.80 1.3
461.90 1.299
462.00 1.298
462.10 1.297
462.20 1.296
462.30 1.295
462.40 1.294
462.50 1.293
462.60 1.292
462.70 1.291
462.80 1.29
462.90 1.289
463.00 1.288
463.10 1.287
463.20 1.286
463.30 1.285
463.40 1.284
463.50 1.283
463.60 1.282
463.70 1.281
463.80 1.28
463.90 1.279
464.00 1.278
464.10 1.277
464.20 1.276
464.30 1.275
464.40 1.274
464.50 1.273
464.60 1.272
464.70 1.27
464.80 1.269
464.90 1.268
465.00 1.267
465.10 1.266
465.20 1.265
465.30 1.264
465.40 1.263
465.50 1.262
465.60 1.26
465.70 1.259
465.80 1.258
465.90 1.257
466.00 1.256
466.10 1.255
466.20 1.254
466.30 1.252
466.40 1.251
466.50 1.25
466.60 1.249
466.70 1.248
466.80 1.246
466.90 1.245
467.00 1.244
467.10 1.243
467.20 1.242
467.30 1.24
467.40 1.239
467.50 1.238
467.60 1.236
467.70 1.235
467.80 1.234
467.90 1.233
468.00 1.231
468.10 1.23
468.20 1.229
468.30 1.227
468.40 1.226
468.50 1.225
468.60 1.223
468.70 1.222
468.80 1.221
468.90 1.219
469.00 1.218
469.10 1.217
469.20 1.215
469.30 1.214
469.40 1.212
469.50 1.211
469.60 1.209
469.70 1.208
469.80 1.206
469.90 1.205
470.00 1.204
470.10 1.202
470.20 1.201
470.30 1.199
470.40 1.198
470.50 1.196
470.60 1.195
470.70 1.193
470.80 1.192
470.90 1.19
471.00 1.189
471.10 1.187
471.20 1.186
471.30 1.184
471.40 1.182
471.50 1.181
471.60 1.179
471.70 1.177
471.80 1.176
471.90 1.174
472.00 1.172
472.10 1.171
472.20 1.169
472.30 1.167
472.40 1.165
472.50 1.163
472.60 1.162
472.70 1.16
472.80 1.158
472.90 1.156
473.00 1.154
473.10 1.152
473.20 1.15
473.30 1.148
473.40 1.146
473.50 1.144
473.60 1.142
473.70 1.14
473.80 1.138
473.90 1.136
474.00 1.134
474.10 1.132
474.20 1.13
474.30 1.128
474.40 1.126
474.50 1.123
474.60 1.121
474.70 1.119
474.80 1.117
474.90 1.115
475.00 1.112
475.10 1.11
475.20 1.108
475.30 1.105
475.40 1.103
475.50 1.1
475.60 1.098
475.70 1.095
475.80 1.093
475.90 1.09
476.00 1.088
476.10 1.085
476.20 1.083
476.30 1.08
476.40 1.077
476.50 1.074
476.60 1.071
476.70 1.069
476.80 1.066
476.90 1.063
477.00 1.06
477.10 1.058
477.20 1.054
477.30 1.051
477.40 1.048
477.50 1.045
477.60 1.042
477.70 1.039
477.80 1.035
477.90 1.032
478.00 1.029
478.10 1.026
478.20 1.023
478.30 1.019
478.40 1.015
478.50 1.012
478.60 1.008
478.70 1.004
478.80 1.001
478.90 0.9972
479.00 0.9936
479.10 0.9899
479.20 0.986
479.30 0.9818
479.40 0.9776
479.50 0.9735
479.60 0.9693
479.70 0.9652
479.80 0.961
479.90 0.9569
480.00 0.9528
480.10 0.9486
480.20 0.944
480.30 0.9392
480.40 0.9343
480.50 0.9295
480.60 0.9247
480.70 0.9199
480.80 0.9151
480.90 0.9103
481.00 0.9055
481.10 0.9007
481.20 0.8953
481.30 0.8896
481.40 0.8839
481.50 0.8782
481.60 0.8725
481.70 0.8668
481.80 0.8611
481.90 0.8554
482.00 0.8497
482.10 0.8441
482.20 0.8376
482.30 0.8307
482.40 0.8238
482.50 0.817
482.60 0.8101
482.70 0.8033
482.80 0.7964
482.90 0.7896
483.00 0.7828
483.10 0.7759
483.20 0.7679
483.30 0.7592
483.40 0.7505
483.50 0.7419
483.60 0.7333
483.70 0.7246
483.80 0.716
483.90 0.7074
484.00 0.6988
484.10 0.6902
484.20 0.6803
484.30 0.6699
484.40 0.6594
484.50 0.649
484.60 0.6386
484.70 0.6276
484.80 0.6162
484.90 0.6049
485.00 0.5936
485.10 0.5822
485.20 0.5711
485.30 0.56
485.40 0.5487
485.50 0.5374
485.60 0.5251
485.70 0.5124
485.80 0.4952
485.90 0.476
486.00 0.4465
486.10 0.3848
486.20 0.409
486.30 0.4587
486.40 0.4813
486.50 0.5004
486.60 0.5149
486.70 0.5272
486.80 0.5385
486.90 0.5493
487.00 0.5599
487.10 0.5705
487.20 0.5811
487.30 0.5918
487.40 0.6025
487.50 0.6132
487.60 0.6239
487.70 0.6339
487.80 0.6435
487.90 0.6532
488.00 0.6629
488.10 0.6725
488.20 0.6809
488.30 0.6887
488.40 0.6964
488.50 0.7042
488.60 0.7119
488.70 0.7197
488.80 0.7274
488.90 0.7351
489.00 0.7429
489.10 0.7506
489.20 0.757
489.30 0.7628
489.40 0.7687
489.50 0.7745
489.60 0.7803
489.70 0.7861
489.80 0.7919
489.90 0.7978
490.00 0.8036
490.10 0.8093
490.20 0.8143
490.30 0.8189
490.40 0.8234
490.50 0.828
490.60 0.8325
490.70 0.8371
490.80 0.8416
490.90 0.8461
491.00 0.8507
491.10 0.8552
491.20 0.8591
491.30 0.8627
491.40 0.8662
491.50 0.8698
491.60 0.8734
491.70 0.877
491.80 0.8805
491.90 0.8841
492.00 0.8877
492.10 0.8912
492.20 0.8943
492.30 0.8971
492.40 0.9
492.50 0.9028
492.60 0.9056
492.70 0.9085
492.80 0.9113
492.90 0.9141
493.00 0.917
493.10 0.9198
493.20 0.9222
493.30 0.9245
493.40 0.9268
493.50 0.9291
493.60 0.9313
493.70 0.9336
493.80 0.9359
493.90 0.9381
494.00 0.9404
494.10 0.9427
494.20 0.9446
494.30 0.9463
494.40 0.9481
494.50 0.9498
494.60 0.9516
494.70 0.9533
494.80 0.9551
494.90 0.9568
495.00 0.9586
495.10 0.9603
495.20 0.9618
495.30 0.9632
495.40 0.9645
495.50 0.9658
495.60 0.9672
495.70 0.9685
495.80 0.9699
495.90 0.9712
496.00 0.9726
496.10 0.9739
496.20 0.975
496.30 0.976
496.40 0.9771
496.50 0.9781
496.60 0.9791
496.70 0.9801
496.80 0.9811
496.90 0.9821
497.00 0.9832
497.10 0.9842
497.20 0.985
497.30 0.9857
497.40 0.9865
497.50 0.9872
497.60 0.988
497.70 0.9887
497.80 0.9895
497.90 0.9902
498.00 0.991
498.10 0.9917
498.20 0.9923
498.30 0.9928
498.40 0.9933
498.50 0.9939
498.60 0.9944
498.70 0.9949
498.80 0.9954
498.90 0.9959
499.00 0.9964
499.10 0.997
499.20 0.9973
499.30 0.9977
499.40 0.998
499.50 0.9983
499.60 0.9987
499.70 0.999
499.80 0.9993
499.90 0.9997
500.00 1
500.10 1
500.20 1.001
500.30 1.001
500.40 1.001
500.50 1.001
500.60 1.001
500.70 1.001
500.80 1.002
500.90 1.002
501.00 1.002
501.10 1.002
501.20 1.002
501.30 1.002
501.40 1.002
501.50 1.002
501.60 1.003
501.70 1.003
501.80 1.003
501.90 1.003
502.00 1.003
502.10 1.003
502.20 1.003
502.30 1.003
502.40 1.003
502.50 1.003
502.60 1.003
502.70 1.003
502.80 1.003
502.90 1.003
503.00 1.003
503.10 1.003
503.20 1.002
503.30 1.002
503.40 1.002
503.50 1.002
503.60 1.002
503.70 1.002
503.80 1.002
503.90 1.002
504.00 1.002
504.10 1.001
504.20 1.001
504.30 1.001
504.40 1.001
504.50 1.001
504.60 1
504.70 1
504.80 1
504.90 0.9999
505.00 0.9997
505.10 0.9995
505.20 0.9993
505.30 0.9991
505.40 0.9988
505.50 0.9986
505.60 0.9983
505.70 0.9981
505.80 0.9978
505.90 0.9976
506.00 0.9973
506.10 0.9971
506.20 0.9968
506.30 0.9965
506.40 0.9962
506.50 0.9959
506.60 0.9956
506.70 0.9953
506.80 0.9951
506.90 0.9948
507.00 0.9945
507.10 0.9942
507.20 0.9939
507.30 0.9935
507.40 0.9932
507.50 0.9928
507.60 0.9925
507.70 0.9922
507.80 0.9918
507.90 0.9915
508.00 0.9912
508.10 0.9908
508.20 0.9905
508.30 0.9901
508.40 0.9898
508.50 0.9894
508.60 0.989
508.70 0.9886
508.80 0.9883
508.90 0.9879
509.00 0.9875
509.10 0.9872
509.20 0.9868
509.30 0.9864
509.40 0.986
509.50 0.9856
509.60 0.9852
509.70 0.9848
509.80 0.9844
509.90 0.984
510.00 0.9836
510.10 0.9832
510.20 0.9828
510.30 0.9824
510.40 0.982
510.50 0.9816
510.60 0.9812
510.70 0.9807
510.80 0.9803
510.90 0.9799
511.00 0.9795
511.10 0.9791
511.20 0.9786
511.30 0.9782
511.40 0.9778
511.50 0.9773
511.60 0.9769
511.70 0.9765
511.80 0.976
511.90 0.9756
512.00 0.9752
512.10 0.9747
512.20 0.9743
512.30 0.9738
512.40 0.9734
512.50 0.9729
512.60 0.9725
512.70 0.972
512.80 0.9716
512.90 0.9711
513.00 0.9707
513.10 0.9702
513.20 0.9698
513.30 0.9693
513.40 0.9688
513.50 0.9684
513.60 0.9679
513.70 0.9675
513.80 0.967
513.90 0.9665
514.00 0.9661
514.10 0.9656
514.20 0.9651
514.30 0.9647
514.40 0.9642
514.50 0.9637
514.60 0.9632
514.70 0.9628
514.80 0.9623
514.90 0.9618
515.00 0.9614
515.10 0.9609
515.20 0.9604
515.30 0.9599
515.40 0.9595
515.50 0.959
515.60 0.9585
515.70 0.958
515.80 0.9575
515.90 0.9571
516.00 0.9566
516.10 0.9561
516.20 0.9556
516.30 0.9551
516.40 0.9546
516.50 0.9542
516.60 0.9537
516.70 0.9532
516.80 0.9527
516.90 0.9522
517.00 0.9517
517.10 0.9512
517.20 0.9508
517.30 0.9503
517.40 0.9498
517.50 0.9493
517.60 0.9488
517.70 0.9483
517.80 0.9478
517.90 0.9473
518.00 0.9468
518.10 0.9463
518.20 0.9458
518.30 0.9453
518.40 0.9449
518.50 0.9444
518.60 0.9439
518.70 0.9434
518.80 0.9429
518.90 0.9424
519.00 0.9419
519.10 0.9414
519.20 0.9409
519.30 0.9404
519.40 0.9399
519.50 0.9394
519.60 0.9389
519.70 0.9384
519.80 0.9379
519.90 0.9374
520.00 0.9369
520.10 0.9364
520.20 0.9359
520.30 0.9354
520.40 0.9349
520.50 0.9344
520.60 0.9339
520.70 0.9334
520.80 0.9329
520.90 0.9324
521.00 0.9319
521.10 0.9314
521.20 0.9309
521.30 0.9304
521.40 0.9299
521.50 0.9294
521.60 0.9289
521.70 0.9284
521.80 0.9279
521.90 0.9274
522.00 0.9269
522.10 0.9264
522.20 0.9259
522.30 0.9254
522.40 0.9249
522.50 0.9244
522.60 0.9239
522.70 0.9234
522.80 0.9229
522.90 0.9224
523.00 0.9219
523.10 0.9214
523.20 0.9209
523.30 0.9204
523.40 0.9199
523.50 0.9194
523.60 0.9189
523.70 0.9184
523.80 0.9179
523.90 0.9174
524.00 0.9169
524.10 0.9163
524.20 0.9158
524.30 0.9153
524.40 0.9148
524.50 0.9143
524.60 0.9138
524.70 0.9133
524.80 0.9128
524.90 0.9123
525.00 0.9118
525.10 0.9113
525.20 0.9108
525.30 0.9103
525.40 0.9098
525.50 0.9093
525.60 0.9088
525.70 0.9083
525.80 0.9078
525.90 0.9073
526.00 0.9068
526.10 0.9063
526.20 0.9058
526.30 0.9053
526.40 0.9048
526.50 0.9043
526.60 0.9038
526.70 0.9033
526.80 0.9028
526.90 0.9023
527.00 0.9018
527.10 0.9013
527.20 0.9008
527.30 0.9003
527.40 0.8998
527.50 0.8993
527.60 0.8988
527.70 0.8982
527.80 0.8977
527.90 0.8972
528.00 0.8967
528.10 0.8962
528.20 0.8957
528.30 0.8952
528.40 0.8947
528.50 0.8942
528.60 0.8937
528.70 0.8932
528.80 0.8927
528.90 0.8922
529.00 0.8917
529.10 0.8912
529.20 0.8907
529.30 0.8902
529.40 0.8897
529.50 0.8892
529.60 0.8887
529.70 0.8882
529.80 0.8877
529.90 0.8872
530.00 0.8868
530.10 0.8863
530.20 0.8858
530.30 0.8853
530.40 0.8848
530.50 0.8843
530.60 0.8838
530.70 0.8833
530.80 0.8828
530.90 0.8823
531.00 0.8818
531.10 0.8813
531.20 0.8808
531.30 0.8803
531.40 0.8798
531.50 0.8793
531.60 0.8788
531.70 0.8783
531.80 0.8778
531.90 0.8773
532.00 0.8768
532.10 0.8763
532.20 0.8758
532.30 0.8753
532.40 0.8748
532.50 0.8744
532.60 0.8739
532.70 0.8734
532.80 0.8729
532.90 0.8724
533.00 0.8719
533.10 0.8714
533.20 0.8709
533.30 0.8704
533.40 0.8699
533.50 0.8694
533.60 0.8689
533.70 0.8685
533.80 0.868
533.90 0.8675
534.00 0.867
534.10 0.8665
534.20 0.866
534.30 0.8655
534.40 0.865
534.50 0.8645
534.60 0.864
534.70 0.8636
534.80 0.8631
534.90 0.8626
535.00 0.8621
535.10 0.8616
535.20 0.8611
535.30 0.8606
535.40 0.8601
535.50 0.8597
535.60 0.8592
535.70 0.8587
535.80 0.8582
535.90 0.8577
536.00 0.8572
536.10 0.8567
536.20 0.8563
536.30 0.8558
536.40 0.8553
536.50 0.8548
536.60 0.8543
536.70 0.8538
536.80 0.8534
536.90 0.8529
537.00 0.8524
537.10 0.8519
537.20 0.8514
537.30 0.8509
537.40 0.8505
537.50 0.85
537.60 0.8495
537.70 0.849
537.80 0.8485
537.90 0.8481
538.00 0.8476
538.10 0.8471
538.20 0.8466
538.30 0.8461
538.40 0.8457
538.50 0.8452
538.60 0.8447
538.70 0.8442
538.80 0.8438
538.90 0.8433
539.00 0.8428
539.10 0.8423
539.20 0.8418
539.30 0.8414
539.40 0.8409
539.50 0.8404
539.60 0.8399
539.70 0.8395
539.80 0.839
539.90 0.8385
540.00 0.838
540.10 0.8376
540.20 0.8371
540.30 0.8366
540.40 0.8361
540.50 0.8357
540.60 0.8352
540.70 0.8347
540.80 0.8343
540.90 0.8338
541.00 0.8333
541.10 0.8328
541.20 0.8324
541.30 0.8319
541.40 0.8314
541.50 0.831
541.60 0.8305
541.70 0.83
541.80 0.8295
541.90 0.8291
542.00 0.8286
542.10 0.8281
542.20 0.8277
542.30 0.8272
542.40 0.8267
542.50 0.8263
542.60 0.8258
542.70 0.8253
542.80 0.8249
542.90 0.8244
543.00 0.8239
543.10 0.8235
543.20 0.823
543.30 0.8225
543.40 0.8221
543.50 0.8216
543.60 0.8211
543.70 0.8207
543.80 0.8202
543.90 0.8198
544.00 0.8193
544.10 0.8188
544.20 0.8184
544.30 0.8179
544.40 0.8174
544.50 0.817
544.60 0.8165
544.70 0.8161
544.80 0.8156
544.90 0.8151
545.00 0.8147
545.10 0.8142
545.20 0.8138
545.30 0.8133
545.40 0.8128
545.50 0.8124
545.60 0.8119
545.70 0.8115
545.80 0.811
545.90 0.8105
546.00 0.8101
546.10 0.8096
546.20 0.8092
546.30 0.8089
546.40 0.8085
546.50 0.8082
546.60 0.8079
546.70 0.8075
546.80 0.8072
546.90 0.8068
547.00 0.8065
547.10 0.8061
547.20 0.8057
547.30 0.8052
547.40 0.8048
547.50 0.8043
547.60 0.8039
547.70 0.8034
547.80 0.8029
547.90 0.8025
548.00 0.802
548.10 0.8016
548.20 0.8011
548.30 0.8007
548.40 0.8002
548.50 0.7997
548.60 0.7993
548.70 0.7988
548.80 0.7984
548.90 0.7979
549.00 0.7975
549.10 0.797
549.20 0.7966
549.30 0.7961
549.40 0.7957
549.50 0.7952
549.60 0.7947
549.70 0.7943
549.80 0.7938
549.90 0.7934
550.00 0.7929
550.10 0.7925
550.20 0.792
550.30 0.7916
550.40 0.7911
550.50 0.7907
550.60 0.7902
550.70 0.7898
550.80 0.7893
550.90 0.7889
551.00 0.7884
551.10 0.788
551.20 0.7875
551.30 0.7871
551.40 0.7867
551.50 0.7862
551.60 0.7858
551.70 0.7853
551.80 0.7849
551.90 0.7844
552.00 0.784
552.10 0.7835
552.20 0.7831
552.30 0.7826
552.40 0.7822
552.50 0.7818
552.60 0.7813
552.70 0.7809
552.80 0.7804
552.90 0.78
553.00 0.7795
553.10 0.7791
553.20 0.7787
553.30 0.7782
553.40 0.7778
553.50 0.7773
553.60 0.7769
553.70 0.7765
553.80 0.776
553.90 0.7756
554.00 0.7751
554.10 0.7747
554.20 0.7743
554.30 0.7738
554.40 0.7734
554.50 0.773
554.60 0.7725
554.70 0.7721
554.80 0.7716
554.90 0.7712
555.00 0.7708
555.10 0.7703
555.20 0.7699
555.30 0.7695
555.40 0.769
555.50 0.7686
555.60 0.7682
555.70 0.7677
555.80 0.7673
555.90 0.7669
556.00 0.7664
556.10 0.766
556.20 0.7656
556.30 0.7651
556.40 0.7647
556.50 0.7643
556.60 0.7638
556.70 0.7634
556.80 0.763
556.90 0.7625
557.00 0.7621
557.10 0.7617
557.20 0.7613
557.30 0.7608
557.40 0.7604
557.50 0.76
557.60 0.7595
557.70 0.7591
557.80 0.7587
557.90 0.7583
558.00 0.7578
558.10 0.7574
558.20 0.757
558.30 0.7566
558.40 0.7561
558.50 0.7557
558.60 0.7553
558.70 0.7549
558.80 0.7544
558.90 0.754
559.00 0.7536
559.10 0.7532
559.20 0.7527
559.30 0.7523
559.40 0.7519
559.50 0.7515
559.60 0.751
559.70 0.7506
559.80 0.7502
559.90 0.7498
560.00 0.7494
560.10 0.7489
560.20 0.7485
560.30 0.7481
560.40 0.7477
560.50 0.7473
560.60 0.7468
560.70 0.7464
560.80 0.746
560.90 0.7456
561.00 0.7452
561.10 0.7447
561.20 0.7443
561.30 0.7439
561.40 0.7435
561.50 0.7431
561.60 0.7427
561.70 0.7422
561.80 0.7418
561.90 0.7414
562.00 0.741
562.10 0.7406
562.20 0.7402
562.30 0.7398
562.40 0.7393
562.50 0.7389
562.60 0.7385
562.70 0.7381
562.80 0.7377
562.90 0.7373
563.00 0.7369
563.10 0.7364
563.20 0.736
563.30 0.7356
563.40 0.7352
563.50 0.7348
563.60 0.7344
563.70 0.734
563.80 0.7336
563.90 0.7332
564.00 0.7327
564.10 0.7323
564.20 0.7319
564.30 0.7315
564.40 0.7311
564.50 0.7307
564.60 0.7303
564.70 0.7299
564.80 0.7295
564.90 0.7291
565.00 0.7287
565.10 0.7283
565.20 0.7279
565.30 0.7275
565.40 0.727
565.50 0.7266
565.60 0.7262
565.70 0.7258
565.80 0.7254
565.90 0.725
566.00 0.7246
566.10 0.7242
566.20 0.7238
566.30 0.7234
566.40 0.723
566.50 0.7226
566.60 0.7222
566.70 0.7218
566.80 0.7214
566.90 0.721
567.00 0.7206
567.10 0.7202
567.20 0.7198
567.30 0.7194
567.40 0.719
567.50 0.7186
567.60 0.7182
567.70 0.7178
567.80 0.7174
567.90 0.717
568.00 0.7166
568.10 0.7162
568.20 0.7158
568.30 0.7154
568.40 0.715
568.50 0.7146
568.60 0.7142
568.70 0.7138
568.80 0.7134
568.90 0.713
569.00 0.7126
569.10 0.7122
569.20 0.7118
569.30 0.7114
569.40 0.711
569.50 0.7106
569.60 0.7103
569.70 0.7099
569.80 0.7095
569.90 0.7091
570.00 0.7087
570.10 0.7083
570.20 0.7079
570.30 0.7075
570.40 0.7071
570.50 0.7067
570.60 0.7063
570.70 0.7059
570.80 0.7055
570.90 0.7052
571.00 0.7048
571.10 0.7044
571.20 0.704
571.30 0.7036
571.40 0.7032
571.50 0.7028
571.60 0.7024
571.70 0.702
571.80 0.7016
571.90 0.7013
572.00 0.7009
572.10 0.7005
572.20 0.7001
572.30 0.6997
572.40 0.6993
572.50 0.6989
572.60 0.6985
572.70 0.6982
572.80 0.6978
572.90 0.6974
573.00 0.697
573.10 0.6966
573.20 0.6962
573.30 0.6959
573.40 0.6955
573.50 0.6951
573.60 0.6947
573.70 0.6943
573.80 0.6939
573.90 0.6936
574.00 0.6932
574.10 0.6928
574.20 0.6924
574.30 0.692
574.40 0.6916
574.50 0.6913
574.60 0.6909
574.70 0.6905
574.80 0.6901
574.90 0.6897
575.00 0.6894
575.10 0.689
575.20 0.6886
575.30 0.6882
575.40 0.6878
575.50 0.6875
575.60 0.6871
575.70 0.6867
575.80 0.6863
575.90 0.6859
576.00 0.6856
576.10 0.6852
576.20 0.6848
576.30 0.6844
576.40 0.6841
576.50 0.6837
576.60 0.6833
576.70 0.6829
576.80 0.6826
576.90 0.6822
577.00 0.6818
577.10 0.6814
577.20 0.6811
577.30 0.6807
577.40 0.6803
577.50 0.6799
577.60 0.6796
577.70 0.6792
577.80 0.6788
577.90 0.6784
578.00 0.6781
578.10 0.6777
578.20 0.6773
578.30 0.677
578.40 0.6766
578.50 0.6762
578.60 0.6758
578.70 0.6755
578.80 0.6751
578.90 0.6747
579.00 0.6744
579.10 0.674
579.20 0.6736
579.30 0.6733
579.40 0.6729
579.50 0.6725
579.60 0.6722
579.70 0.6718
579.80 0.6714
579.90 0.671
580.00 0.6707
580.10 0.6703
580.20 0.6699
580.30 0.6696
580.40 0.6692
580.50 0.6688
580.60 0.6685
580.70 0.6681
580.80 0.6677
580.90 0.6674
581.00 0.667
581.10 0.6667
581.20 0.6663
581.30 0.6659
581.40 0.6656
581.50 0.6652
581.60 0.6648
581.70 0.6645
581.80 0.6641
581.90 0.6637
582.00 0.6634
582.10 0.663
582.20 0.6627
582.30 0.6623
582.40 0.6619
582.50 0.6616
582.60 0.6612
582.70 0.6609
582.80 0.6605
582.90 0.6601
583.00 0.6598
583.10 0.6594
583.20 0.6591
583.30 0.6587
583.40 0.6583
583.50 0.658
583.60 0.6576
583.70 0.6573
583.80 0.6569
583.90 0.6565
584.00 0.6562
584.10 0.6558
584.20 0.6555
584.30 0.6551
584.40 0.6548
584.50 0.6544
584.60 0.654
584.70 0.6537
584.80 0.6533
584.90 0.653
585.00 0.6526
585.10 0.6523
585.20 0.6519
585.30 0.6516
585.40 0.6512
585.50 0.6509
585.60 0.6505
585.70 0.6501
585.80 0.6498
585.90 0.6494
586.00 0.6491
586.10 0.6487
586.20 0.6484
586.30 0.648
586.40 0.6477
586.50 0.6473
586.60 0.647
586.70 0.6466
586.80 0.6463
586.90 0.6459
587.00 0.6456
587.10 0.6452
587.20 0.6449
587.30 0.6445
587.40 0.6442
587.50 0.6438
587.60 0.6435
587.70 0.6431
587.80 0.6428
587.90 0.6424
588.00 0.6421
588.10 0.6417
588.20 0.6414
588.30 0.641
588.40 0.6407
588.50 0.6403
588.60 0.64
588.70 0.6397
588.80 0.6393
588.90 0.639
589.00 0.6386
589.10 0.6383
589.20 0.6379
589.30 0.6376
589.40 0.6372
589.50 0.6369
589.60 0.6365
589.70 0.6362
589.80 0.6359
589.90 0.6355
590.00 0.6352
590.10 0.6348
590.20 0.6345
590.30 0.6341
590.40 0.6338
590.50 0.6335
590.60 0.6331
590.70 0.6328
590.80 0.6324
590.90 0.6321
591.00 0.6317
591.10 0.6314
591.20 0.6311
591.30 0.6307
591.40 0.6304
591.50 0.63
591.60 0.6297
591.70 0.6294
591.80 0.629
591.90 0.6287
592.00 0.6283
592.10 0.628
592.20 0.6277
592.30 0.6273
592.40 0.627
592.50 0.6267
592.60 0.6263
592.70 0.626
592.80 0.6256
592.90 0.6253
593.00 0.625
593.10 0.6246
593.20 0.6243
593.30 0.624
593.40 0.6236
593.50 0.6233
593.60 0.623
593.70 0.6226
593.80 0.6223
593.90 0.6219
594.00 0.6216
594.10 0.6213
594.20 0.6209
594.30 0.6206
594.40 0.6203
594.50 0.6199
594.60 0.6196
594.70 0.6193
594.80 0.6189
594.90 0.6186
595.00 0.6183
595.10 0.6179
595.20 0.6176
595.30 0.6173
595.40 0.617
595.50 0.6166
595.60 0.6163
595.70 0.616
595.80 0.6156
595.90 0.6153
596.00 0.615
596.10 0.6146
596.20 0.6142
596.30 0.6136
596.40 0.6131
596.50 0.6125
596.60 0.612
596.70 0.6115
596.80 0.6109
596.90 0.6104
597.00 0.6099
597.10 0.6093
597.20 0.6089
597.30 0.6086
597.40 0.6083
597.50 0.6079
597.60 0.6076
597.70 0.6073
597.80 0.6069
597.90 0.6066
598.00 0.6063
598.10 0.6059
598.20 0.6056
598.30 0.6053
598.40 0.6049
598.50 0.6046
598.60 0.6043
598.70 0.6039
598.80 0.6036
598.90 0.6033
599.00 0.603
599.10 0.6026
599.20 0.6023
599.30 0.602
599.40 0.6016
599.50 0.6013
599.60 0.601
599.70 0.6007
599.80 0.6003
599.90 0.6
600.00 0.5997
600.10 0.5993
600.20 0.599
600.30 0.5987
600.40 0.5984
600.50 0.598
600.60 0.5977
600.70 0.5974
600.80 0.597
600.90 0.5967
601.00 0.5964
601.10 0.5961
601.20 0.5957
601.30 0.5954
601.40 0.5951
601.50 0.5948
601.60 0.5944
601.70 0.5941
601.80 0.5938
601.90 0.5935
602.00 0.5931
602.10 0.5928
602.20 0.5925
602.30 0.5922
602.40 0.5918
602.50 0.5915
602.60 0.5912
602.70 0.5909
602.80 0.5905
602.90 0.5902
603.00 0.5899
603.10 0.5896
603.20 0.5893
603.30 0.5889
603.40 0.5886
603.50 0.5883
603.60 0.588
603.70 0.5876
603.80 0.5873
603.90 0.587
604.00 0.5867
604.10 0.5864
604.20 0.586
604.30 0.5857
604.40 0.5854
604.50 0.5851
604.60 0.5847
604.70 0.5844
604.80 0.5841
604.90 0.5838
605.00 0.5835
605.10 0.5831
605.20 0.5828
605.30 0.5825
605.40 0.5822
605.50 0.5819
605.60 0.5816
605.70 0.5812
605.80 0.5809
605.90 0.5806
606.00 0.5803
606.10 0.58
606.20 0.5796
606.30 0.5793
606.40 0.579
606.50 0.5787
606.60 0.5784
606.70 0.5781
606.80 0.5777
606.90 0.5774
607.00 0.5771
607.10 0.5768
607.20 0.5765
607.30 0.5762
607.40 0.5758
607.50 0.5755
607.60 0.5752
607.70 0.5749
607.80 0.5746
607.90 0.5743
608.00 0.5739
608.10 0.5736
608.20 0.5733
608.30 0.573
608.40 0.5727
608.50 0.5724
608.60 0.5721
608.70 0.5717
608.80 0.5714
608.90 0.5711
609.00 0.5708
609.10 0.5705
609.20 0.5702
609.30 0.5698
609.40 0.5695
609.50 0.5692
609.60 0.5689
609.70 0.5686
609.80 0.5683
609.90 0.568
610.00 0.5677
610.10 0.5673
610.20 0.567
610.30 0.5667
610.40 0.5664
610.50 0.5661
610.60 0.5658
610.70 0.5655
610.80 0.5652
610.90 0.5648
611.00 0.5645
611.10 0.5642
611.20 0.5639
611.30 0.5636
611.40 0.5633
611.50 0.563
611.60 0.5627
611.70 0.5623
611.80 0.562
611.90 0.5617
612.00 0.5614
612.10 0.5611
612.20 0.5608
612.30 0.5605
612.40 0.5602
612.50 0.5599
612.60 0.5595
612.70 0.5592
612.80 0.5589
612.90 0.5586
613.00 0.5583
613.10 0.558
613.20 0.5577
613.30 0.5574
613.40 0.5571
613.50 0.5568
613.60 0.5564
613.70 0.5561
613.80 0.5558
613.90 0.5555
614.00 0.5552
614.10 0.5549
614.20 0.5546
614.30 0.5543
614.40 0.554
614.50 0.5537
614.60 0.5533
614.70 0.553
614.80 0.5527
614.90 0.5524
615.00 0.5521
615.10 0.5518
615.20 0.5515
615.30 0.5512
615.40 0.5509
615.50 0.5506
615.60 0.5503
615.70 0.5499
615.80 0.5496
615.90 0.5493
616.00 0.549
616.10 0.5487
616.20 0.5484
616.30 0.5481
616.40 0.5478
616.50 0.5475
616.60 0.5472
616.70 0.5469
616.80 0.5465
616.90 0.5462
617.00 0.5459
617.10 0.5456
617.20 0.5453
617.30 0.545
617.40 0.5447
617.50 0.5444
617.60 0.5441
617.70 0.5438
617.80 0.5435
617.90 0.5432
618.00 0.5428
618.10 0.5425
618.20 0.5422
618.30 0.5419
618.40 0.5416
618.50 0.5413
618.60 0.541
618.70 0.5407
618.80 0.5404
618.90 0.5401
619.00 0.5398
619.10 0.5395
619.20 0.5391
619.30 0.5388
619.40 0.5385
619.50 0.5382
619.60 0.5379
619.70 0.5376
619.80 0.5373
619.90 0.537
620.00 0.5367
620.10 0.5364
620.20 0.536
620.30 0.5357
620.40 0.5354
620.50 0.5351
620.60 0.5348
620.70 0.5345
620.80 0.5342
620.90 0.5339
621.00 0.5336
621.10 0.5333
621.20 0.5329
621.30 0.5326
621.40 0.5323
621.50 0.532
621.60 0.5317
621.70 0.5314
621.80 0.5311
621.90 0.5308
622.00 0.5305
622.10 0.5302
622.20 0.5298
622.30 0.5295
622.40 0.5292
622.50 0.5289
622.60 0.5286
622.70 0.5283
622.80 0.528
622.90 0.5277
623.00 0.5273
623.10 0.527
623.20 0.5267
623.30 0.5264
623.40 0.5261
623.50 0.5258
623.60 0.5255
623.70 0.5252
623.80 0.5248
623.90 0.5245
624.00 0.5242
624.10 0.5239
624.20 0.5236
624.30 0.5233
624.40 0.523
624.50 0.5226
624.60 0.5223
624.70 0.522
624.80 0.5217
624.90 0.5214
625.00 0.5211
625.10 0.5208
625.20 0.5204
625.30 0.5201
625.40 0.5198
625.50 0.5195
625.60 0.5192
625.70 0.5189
625.80 0.5185
625.90 0.5182
626.00 0.5179
626.10 0.5176
626.20 0.5173
626.30 0.517
626.40 0.5166
626.50 0.5163
626.60 0.516
626.70 0.5157
626.80 0.5154
626.90 0.5151
627.00 0.5147
627.10 0.5144
627.20 0.5141
627.30 0.5138
627.40 0.5135
627.50 0.5131
627.60 0.5128
627.70 0.5125
627.80 0.5122
627.90 0.5118
628.00 0.5115
628.10 0.5112
628.20 0.5109
628.30 0.5106
628.40 0.5102
628.50 0.5099
628.60 0.5096
628.70 0.5093
628.80 0.5089
628.90 0.5086
629.00 0.5083
629.10 0.508
629.20 0.5076
629.30 0.5073
629.40 0.507
629.50 0.5066
629.60 0.5063
629.70 0.506
629.80 0.5057
629.90 0.5053
630.00 0.505
630.10 0.5047
630.20 0.5043
630.30 0.504
630.40 0.5037
630.50 0.5033
630.60 0.503
630.70 0.5027
630.80 0.5023
630.90 0.502
631.00 0.5017
631.10 0.5013
631.20 0.501
631.30 0.5007
631.40 0.5003
631.50 0.5
631.60 0.4996
631.70 0.4993
631.80 0.4989
631.90 0.4986
632.00 0.4983
632.10 0.4979
632.20 0.4976
632.30 0.4972
632.40 0.4969
632.50 0.4965
632.60 0.4962
632.70 0.4958
632.80 0.4955
632.90 0.4951
633.00 0.4948
633.10 0.4944
633.20 0.4941
633.30 0.4937
633.40 0.4934
633.50 0.493
633.60 0.4926
633.70 0.4923
633.80 0.4919
633.90 0.4916
634.00 0.4912
634.10 0.4908
634.20 0.4905
634.30 0.4901
634.40 0.4897
634.50 0.4894
634.60 0.489
634.70 0.4886
634.80 0.4883
634.90 0.4879
635.00 0.4875
635.10 0.4871
635.20 0.4868
635.30 0.4864
635.40 0.486
635.50 0.4856
635.60 0.4852
635.70 0.4849
635.80 0.4845
635.90 0.4841
636.00 0.4837
636.10 0.4833
636.20 0.4829
636.30 0.4825
636.40 0.4821
636.50 0.4817
636.60 0.4813
636.70 0.4809
636.80 0.4805
636.90 0.4801
637.00 0.4797
637.10 0.4793
637.20 0.4789
637.30 0.4785
637.40 0.4781
637.50 0.4777
637.60 0.4773
637.70 0.4768
637.80 0.4764
637.90 0.476
638.00 0.4756
638.10 0.4751
638.20 0.4747
638.30 0.4743
638.40 0.4739
638.50 0.4734
638.60 0.473
638.70 0.4725
638.80 0.4721
638.90 0.4716
639.00 0.4712
639.10 0.4708
639.20 0.4703
639.30 0.4699
639.40 0.4694
639.50 0.4689
639.60 0.4685
639.70 0.468
639.80 0.4675
639.90 0.4671
640.00 0.4666
640.10 0.4661
640.20 0.4657
640.30 0.4652
640.40 0.4647
640.50 0.4642
640.60 0.4637
640.70 0.4632
640.80 0.4627
640.90 0.4622
641.00 0.4617
641.10 0.4612
641.20 0.4607
641.30 0.4602
641.40 0.4597
641.50 0.4591
641.60 0.4586
641.70 0.4581
641.80 0.4575
641.90 0.457
642.00 0.4565
642.10 0.4559
642.20 0.4554
642.30 0.4549
642.40 0.4543
642.50 0.4537
642.60 0.4531
642.70 0.4525
642.80 0.452
642.90 0.4514
643.00 0.4508
643.10 0.4503
643.20 0.4497
643.30 0.4491
643.40 0.4485
643.50 0.4478
643.60 0.4472
643.70 0.4466
643.80 0.446
643.90 0.4453
644.00 0.4447
644.10 0.4441
644.20 0.4435
644.30 0.4428
644.40 0.4421
644.50 0.4415
644.60 0.4408
644.70 0.4401
644.80 0.4394
644.90 0.4387
645.00 0.438
645.10 0.4374
645.20 0.4367
645.30 0.436
645.40 0.4352
645.50 0.4345
645.60 0.4337
645.70 0.433
645.80 0.4322
645.90 0.4314
646.00 0.4307
646.10 0.4299
646.20 0.4292
646.30 0.4284
646.40 0.4276
646.50 0.4267
646.60 0.4259
646.70 0.4251
646.80 0.4242
646.90 0.4234
647.00 0.4225
647.10 0.4217
647.20 0.4209
647.30 0.42
647.40 0.419
647.50 0.4181
647.60 0.4171
647.70 0.4162
647.80 0.4152
647.90 0.4143
648.00 0.4133
648.10 0.4124
648.20 0.4114
648.30 0.4104
648.40 0.4093
648.50 0.4082
648.60 0.4071
648.70 0.406
648.80 0.4049
648.90 0.4038
649.00 0.4027
649.10 0.4016
649.20 0.4005
649.30 0.3994
649.40 0.3981
649.50 0.3969
649.60 0.3956
649.70 0.3944
649.80 0.3931
649.90 0.3919
650.00 0.3906
650.10 0.3893
650.20 0.3881
650.30 0.3868
650.40 0.3853
650.50 0.3838
650.60 0.3823
650.70 0.3808
650.80 0.3793
650.90 0.3778
651.00 0.3763
651.10 0.3748
651.20 0.3733
651.30 0.3717
651.40 0.37
651.50 0.3682
651.60 0.3665
651.70 0.3647
651.80 0.363
651.90 0.3612
652.00 0.3595
652.10 0.3577
652.20 0.356
652.30 0.3542
652.40 0.3521
652.50 0.35
652.60 0.3479
652.70 0.3458
652.80 0.3437
652.90 0.3417
653.00 0.3396
653.10 0.3375
653.20 0.3354
653.30 0.3332
653.40 0.3307
653.50 0.3281
653.60 0.3255
653.70 0.323
653.80 0.3204
653.90 0.3178
654.00 0.3153
654.10 0.3127
654.20 0.3102
654.30 0.3076
654.40 0.3047
654.50 0.3018
654.60 0.2989
654.70 0.296
654.80 0.2931
654.90 0.29
655.00 0.287
655.10 0.2839
655.20 0.2808
655.30 0.2777
655.40 0.2744
655.50 0.271
655.60 0.2673
655.70 0.2633
655.80 0.2586
655.90 0.2532
656.00 0.2449
656.10 0.2357
656.20 0.2123
656.30 0.1944
656.40 0.2241
656.50 0.2394
656.60 0.2475
656.70 0.2549
656.80 0.2594
656.90 0.2637
657.00 0.2672
657.10 0.2706
657.20 0.2737
657.30 0.2767
657.40 0.2796
657.50 0.2824
657.60 0.2852
657.70 0.288
657.80 0.2908
657.90 0.2934
658.00 0.296
658.10 0.2986
658.20 0.3012
658.30 0.3037
658.40 0.306
658.50 0.3082
658.60 0.3105
658.70 0.3127
658.80 0.3149
658.90 0.3172
659.00 0.3194
659.10 0.3217
659.20 0.3239
659.30 0.326
659.40 0.3278
659.50 0.3295
659.60 0.3312
659.70 0.333
659.80 0.3347
659.90 0.3364
660.00 0.3382
660.10 0.3399
660.20 0.3416
660.30 0.3433
660.40 0.3447
660.50 0.346
660.60 0.3474
660.70 0.3488
660.80 0.3501
660.90 0.3515
661.00 0.3529
661.10 0.3542
661.20 0.3556
661.30 0.3569
661.40 0.358
661.50 0.3591
661.60 0.3602
661.70 0.3613
661.80 0.3624
661.90 0.3635
662.00 0.3645
662.10 0.3656
662.20 0.3667
662.30 0.3678
662.40 0.3686
662.50 0.3694
662.60 0.3703
662.70 0.3711
662.80 0.3719
662.90 0.3728
663.00 0.3736
663.10 0.3744
663.20 0.3753
663.30 0.3761
663.40 0.3767
663.50 0.3774
663.60 0.3781
663.70 0.3787
663.80 0.3794
663.90 0.38
664.00 0.3807
664.10 0.3814
664.20 0.382
664.30 0.3827
664.40 0.3832
664.50 0.3837
664.60 0.3842
664.70 0.3847
664.80 0.3852
664.90 0.3857
665.00 0.3862
665.10 0.3867
665.20 0.3872
665.30 0.3877
665.40 0.3881
665.50 0.3885
665.60 0.3889
665.70 0.3892
665.80 0.3896
665.90 0.39
666.00 0.3904
666.10 0.3908
666.20 0.3912
666.30 0.3915
666.40 0.3918
666.50 0.3921
666.60 0.3924
666.70 0.3927
666.80 0.393
666.90 0.3933
667.00 0.3936
667.10 0.3939
667.20 0.3942
667.30 0.3944
667.40 0.3946
667.50 0.3949
667.60 0.3951
667.70 0.3953
667.80 0.3955
667.90 0.3957
668.00 0.3959
668.10 0.3962
668.20 0.3964
668.30 0.3966
668.40 0.3967
668.50 0.3969
668.60 0.397
668.70 0.3972
668.80 0.3974
668.90 0.3975
669.00 0.3977
669.10 0.3978
669.20 0.398
669.30 0.3981
669.40 0.3982
669.50 0.3983
669.60 0.3984
669.70 0.3985
669.80 0.3986
669.90 0.3987
670.00 0.3988
670.10 0.3989
670.20 0.399
670.30 0.3991
670.40 0.3992
670.50 0.3992
670.60 0.3993
670.70 0.3993
670.80 0.3994
670.90 0.3995
671.00 0.3995
671.10 0.3996
671.20 0.3996
671.30 0.3997
671.40 0.3997
671.50 0.3997
671.60 0.3997
671.70 0.3998
671.80 0.3998
671.90 0.3998
672.00 0.3998
672.10 0.3998
672.20 0.3999
672.30 0.3999
672.40 0.3999
672.50 0.3999
672.60 0.3998
672.70 0.3998
672.80 0.3998
672.90 0.3998
673.00 0.3998
673.10 0.3998
673.20 0.3998
673.30 0.3998
673.40 0.3997
673.50 0.3997
673.60 0.3997
673.70 0.3996
673.80 0.3996
673.90 0.3996
674.00 0.3995
674.10 0.3995
674.20 0.3995
674.30 0.3994
674.40 0.3994
674.50 0.3993
674.60 0.3992
674.70 0.3992
674.80 0.3991
674.90 0.3991
675.00 0.399
675.10 0.399
675.20 0.3989
675.30 0.3988
675.40 0.3988
675.50 0.3987
675.60 0.3986
675.70 0.3985
675.80 0.3985
675.90 0.3984
676.00 0.3983
676.10 0.3982
676.20 0.3982
676.30 0.3981
676.40 0.398
676.50 0.3979
676.60 0.3978
676.70 0.3977
676.80 0.3976
676.90 0.3975
677.00 0.3974
677.10 0.3974
677.20 0.3973
677.30 0.3972
677.40 0.3971
677.50 0.397
677.60 0.3969
677.70 0.3968
677.80 0.3967
677.90 0.3965
678.00 0.3964
678.10 0.3963
678.20 0.3962
678.30 0.3961
678.40 0.396
678.50 0.3959
678.60 0.3958
678.70 0.3957
678.80 0.3956
678.90 0.3954
679.00 0.3953
679.10 0.3952
679.20 0.3951
679.30 0.395
679.40 0.3949
679.50 0.3947
679.60 0.3946
679.70 0.3945
679.80 0.3944
679.90 0.3942
680.00 0.3941
680.10 0.394
680.20 0.3939
680.30 0.3937
680.40 0.3936
680.50 0.3935
680.60 0.3933
680.70 0.3932
680.80 0.3931
680.90 0.3929
681.00 0.3928
681.10 0.3927
681.20 0.3926
681.30 0.3924
681.40 0.3923
681.50 0.3921
681.60 0.392
681.70 0.3919
681.80 0.3917
681.90 0.3916
682.00 0.3915
682.10 0.3913
682.20 0.3912
682.30 0.391
682.40 0.3909
682.50 0.3908
682.60 0.3906
682.70 0.3905
682.80 0.3903
682.90 0.3902
683.00 0.39
683.10 0.3899
683.20 0.3898
683.30 0.3896
683.40 0.3895
683.50 0.3893
683.60 0.3892
683.70 0.389
683.80 0.3889
683.90 0.3887
684.00 0.3886
684.10 0.3884
684.20 0.3883
684.30 0.3881
684.40 0.388
684.50 0.3878
684.60 0.3877
684.70 0.3875
684.80 0.3874
684.90 0.3872
685.00 0.3871
685.10 0.3869
685.20 0.3868
685.30 0.3866
685.40 0.3865
685.50 0.3863
685.60 0.3862
685.70 0.386
685.80 0.3859
685.90 0.3857
686.00 0.3856
686.10 0.3854
686.20 0.3853
686.30 0.3851
686.40 0.3849
686.50 0.3848
686.60 0.3846
686.70 0.3845
686.80 0.3843
686.90 0.3842
687.00 0.384
687.10 0.3839
687.20 0.3837
687.30 0.3835
687.40 0.3834
687.50 0.3832
687.60 0.3831
687.70 0.3829
687.80 0.3828
687.90 0.3826
688.00 0.3824
688.10 0.3823
688.20 0.3821
688.30 0.382
688.40 0.3818
688.50 0.3816
688.60 0.3815
688.70 0.3813
688.80 0.3812
688.90 0.381
689.00 0.3809
689.10 0.3807
689.20 0.3805
689.30 0.3804
689.40 0.3802
689.50 0.38
689.60 0.3799
689.70 0.3797
689.80 0.3795
689.90 0.3794
690.00 0.3792
690.10 0.379
690.20 0.3789
690.30 0.3787
690.40 0.3785
690.50 0.3784
690.60 0.3782
690.70 0.378
690.80 0.3779
690.90 0.3777
691.00 0.3775
691.10 0.3774
691.20 0.3772
691.30 0.377
691.40 0.3769
691.50 0.3767
691.60 0.3765
691.70 0.3764
691.80 0.3762
691.90 0.376
692.00 0.3759
692.10 0.3757
692.20 0.3755
692.30 0.3754
692.40 0.3752
692.50 0.3751
692.60 0.3749
692.70 0.3747
692.80 0.3746
692.90 0.3744
693.00 0.3742
693.10 0.3741
693.20 0.3739
693.30 0.3737
693.40 0.3736
693.50 0.3734
693.60 0.3732
693.70 0.3731
693.80 0.3729
693.90 0.3727
694.00 0.3726
694.10 0.3724
694.20 0.3723
694.30 0.3721
694.40 0.3719
694.50 0.3718
694.60 0.3716
694.70 0.3714
694.80 0.3713
694.90 0.3711
695.00 0.3709
695.10 0.3708
695.20 0.3706
695.30 0.3705
695.40 0.3703
695.50 0.3701
695.60 0.37
695.70 0.3698
695.80 0.3696
695.90 0.3695
696.00 0.3693
696.10 0.3692
696.20 0.369
696.30 0.3688
696.40 0.3687
696.50 0.3685
696.60 0.3683
696.70 0.3682
696.80 0.368
696.90 0.3679
697.00 0.3677
697.10 0.3675
697.20 0.3674
697.30 0.3672
697.40 0.3671
697.50 0.3669
697.60 0.3667
697.70 0.3666
697.80 0.3664
697.90 0.3662
698.00 0.3661
698.10 0.3659
698.20 0.3658
698.30 0.3656
698.40 0.3654
698.50 0.3653
698.60 0.3651
698.70 0.365
698.80 0.3648
698.90 0.3646
699.00 0.3645
699.10 0.3643
699.20 0.3642
699.30 0.364
699.40 0.3638
699.50 0.3637
699.60 0.3635
699.70 0.3634
699.80 0.3632
699.90 0.363
700.00 0.3629
700.10 0.3627
700.20 0.3626
700.30 0.3625
700.40 0.3623
700.50 0.3622
700.60 0.362
700.70 0.3619
700.80 0.3617
700.90 0.3616
701.00 0.3615
701.10 0.3613
701.20 0.3612
701.30 0.361
701.40 0.3609
701.50 0.3607
701.60 0.3606
701.70 0.3605
701.80 0.3603
701.90 0.3602
702.00 0.36
702.10 0.3599
702.20 0.3598
702.30 0.3596
702.40 0.3595
702.50 0.3593
702.60 0.3592
702.70 0.359
702.80 0.3589
702.90 0.3588
703.00 0.3586
703.10 0.3585
703.20 0.3583
703.30 0.3582
703.40 0.3581
703.50 0.3579
703.60 0.3578
703.70 0.3576
703.80 0.3575
703.90 0.3573
704.00 0.3572
704.10 0.3571
704.20 0.3569
704.30 0.3568
704.40 0.3566
704.50 0.3565
704.60 0.3564
704.70 0.3562
704.80 0.3561
704.90 0.3559
705.00 0.3558
705.10 0.3556
705.20 0.3555
705.30 0.3553
705.40 0.3552
705.50 0.355
705.60 0.3548
705.70 0.3547
705.80 0.3545
705.90 0.3543
706.00 0.3542
706.10 0.354
706.20 0.3539
706.30 0.3537
706.40 0.3535
706.50 0.3534
706.60 0.3532
706.70 0.353
706.80 0.3529
706.90 0.3527
707.00 0.3526
707.10 0.3524
707.20 0.3522
707.30 0.3521
707.40 0.3519
707.50 0.3518
707.60 0.3516
707.70 0.3514
707.80 0.3513
707.90 0.3511
708.00 0.351
708.10 0.3508
708.20 0.3506
708.30 0.3505
708.40 0.3503
708.50 0.3502
708.60 0.35
708.70 0.3498
708.80 0.3497
708.90 0.3495
709.00 0.3494
709.10 0.3492
709.20 0.349
709.30 0.3489
709.40 0.3487
709.50 0.3486
709.60 0.3484
709.70 0.3482
709.80 0.3481
709.90 0.3479
710.00 0.3478
710.10 0.3476
710.20 0.3474
710.30 0.3473
710.40 0.3471
710.50 0.347
710.60 0.3468
710.70 0.3466
710.80 0.3465
710.90 0.3463
711.00 0.3462
711.10 0.346
711.20 0.3459
711.30 0.3457
711.40 0.3455
711.50 0.3454
711.60 0.3452
711.70 0.3451
711.80 0.3449
711.90 0.3447
712.00 0.3446
712.10 0.3444
712.20 0.3443
712.30 0.3441
712.40 0.344
712.50 0.3438
712.60 0.3436
712.70 0.3435
712.80 0.3433
712.90 0.3432
713.00 0.343
713.10 0.3429
713.20 0.3427
713.30 0.3425
713.40 0.3424
713.50 0.3422
713.60 0.3421
713.70 0.3419
713.80 0.3418
713.90 0.3416
714.00 0.3414
714.10 0.3413
714.20 0.3411
714.30 0.341
714.40 0.3408
714.50 0.3407
714.60 0.3405
714.70 0.3403
714.80 0.3402
714.90 0.34
715.00 0.3399
715.10 0.3397
715.20 0.3396
715.30 0.3394
715.40 0.3393
715.50 0.3391
715.60 0.339
715.70 0.3388
715.80 0.3387
715.90 0.3386
716.00 0.3384
716.10 0.3383
716.20 0.3381
716.30 0.338
716.40 0.3378
716.50 0.3377
716.60 0.3375
716.70 0.3374
716.80 0.3372
716.90 0.3371
717.00 0.3369
717.10 0.3368
717.20 0.3366
717.30 0.3365
717.40 0.3364
717.50 0.3362
717.60 0.3361
717.70 0.3359
717.80 0.3358
717.90 0.3356
718.00 0.3355
718.10 0.3353
718.20 0.3352
718.30 0.335
718.40 0.3349
718.50 0.3348
718.60 0.3346
718.70 0.3345
718.80 0.3343
718.90 0.3342
719.00 0.334
719.10 0.3339
719.20 0.3337
719.30 0.3336
719.40 0.3335
719.50 0.3333
719.60 0.3332
719.70 0.333
719.80 0.3329
719.90 0.3327
720.00 0.3326
720.10 0.3324
720.20 0.3323
720.30 0.3321
720.40 0.332
720.50 0.3318
720.60 0.3317
720.70 0.3315
720.80 0.3314
720.90 0.3312
721.00 0.3311
721.10 0.3309
721.20 0.3307
721.30 0.3306
721.40 0.3304
721.50 0.3303
721.60 0.3301
721.70 0.33
721.80 0.3298
721.90 0.3297
722.00 0.3295
722.10 0.3294
722.20 0.3292
722.30 0.3291
722.40 0.3289
722.50 0.3288
722.60 0.3286
722.70 0.3285
722.80 0.3283
722.90 0.3282
723.00 0.328
723.10 0.3279
723.20 0.3277
723.30 0.3276
723.40 0.3274
723.50 0.3273
723.60 0.3271
723.70 0.327
723.80 0.3268
723.90 0.3267
724.00 0.3265
724.10 0.3263
724.20 0.3262
724.30 0.326
724.40 0.3259
724.50 0.3257
724.60 0.3256
724.70 0.3254
724.80 0.3253
724.90 0.3251
725.00 0.325
725.10 0.3248
725.20 0.3247
725.30 0.3245
725.40 0.3244
725.50 0.3243
725.60 0.3241
725.70 0.324
725.80 0.3238
725.90 0.3237
726.00 0.3235
726.10 0.3234
726.20 0.3232
726.30 0.3231
726.40 0.3229
726.50 0.3228
726.60 0.3226
726.70 0.3225
726.80 0.3223
726.90 0.3222
727.00 0.322
727.10 0.3219
727.20 0.3217
727.30 0.3216
727.40 0.3214
727.50 0.3213
727.60 0.3211
727.70 0.321
727.80 0.3208
727.90 0.3207
728.00 0.3205
728.10 0.3204
728.20 0.3203
728.30 0.3201
728.40 0.32
728.50 0.3198
728.60 0.3197
728.70 0.3195
728.80 0.3194
728.90 0.3192
729.00 0.3191
729.10 0.3189
729.20 0.3188
729.30 0.3186
729.40 0.3185
729.50 0.3183
729.60 0.3182
729.70 0.3181
729.80 0.3179
729.90 0.3178
730.00 0.3176
730.10 0.3175
730.20 0.3173
730.30 0.3172
730.40 0.317
730.50 0.3169
730.60 0.3168
730.70 0.3166
730.80 0.3165
730.90 0.3163
731.00 0.3162
731.10 0.316
731.20 0.3159
731.30 0.3157
731.40 0.3156
731.50 0.3155
731.60 0.3153
731.70 0.3152
731.80 0.315
731.90 0.3149
732.00 0.3147
732.10 0.3146
732.20 0.3145
732.30 0.3143
732.40 0.3142
732.50 0.314
732.60 0.3139
732.70 0.3137
732.80 0.3136
732.90 0.3134
733.00 0.3133
733.10 0.3132
733.20 0.313
733.30 0.3129
733.40 0.3127
733.50 0.3126
733.60 0.3125
733.70 0.3123
733.80 0.3122
733.90 0.312
734.00 0.3119
734.10 0.3117
734.20 0.3116
734.30 0.3115
734.40 0.3113
734.50 0.3112
734.60 0.311
734.70 0.3109
734.80 0.3107
734.90 0.3106
735.00 0.3105
735.10 0.3103
735.20 0.3102
735.30 0.31
735.40 0.3099
735.50 0.3098
735.60 0.3096
735.70 0.3095
735.80 0.3093
735.90 0.3092
736.00 0.3091
736.10 0.3089
736.20 0.3088
736.30 0.3086
736.40 0.3085
736.50 0.3084
736.60 0.3082
736.70 0.3081
736.80 0.3079
736.90 0.3078
737.00 0.3077
737.10 0.3075
737.20 0.3074
737.30 0.3072
737.40 0.3071
737.50 0.307
737.60 0.3068
737.70 0.3067
737.80 0.3065
737.90 0.3064
738.00 0.3063
738.10 0.3061
738.20 0.306
738.30 0.3058
738.40 0.3057
738.50 0.3056
738.60 0.3054
738.70 0.3053
738.80 0.3051
738.90 0.305
739.00 0.3049
739.10 0.3047
739.20 0.3046
739.30 0.3044
739.40 0.3043
739.50 0.3042
739.60 0.304
739.70 0.3039
739.80 0.3038
739.90 0.3036
740.00 0.3035
740.10 0.3033
740.20 0.3032
740.30 0.3031
740.40 0.3029
740.50 0.3028
740.60 0.3027
740.70 0.3025
740.80 0.3024
740.90 0.3023
741.00 0.3021
741.10 0.302
741.20 0.3018
741.30 0.3017
741.40 0.3016
741.50 0.3014
741.60 0.3013
741.70 0.3012
741.80 0.301
741.90 0.3009
742.00 0.3008
742.10 0.3006
742.20 0.3005
742.30 0.3003
742.40 0.3002
742.50 0.3001
742.60 0.2999
742.70 0.2998
742.80 0.2997
742.90 0.2995
743.00 0.2994
743.10 0.2993
743.20 0.2991
743.30 0.299
743.40 0.2989
743.50 0.2987
743.60 0.2986
743.70 0.2985
743.80 0.2983
743.90 0.2982
744.00 0.2981
744.10 0.2979
744.20 0.2978
744.30 0.2977
744.40 0.2975
744.50 0.2974
744.60 0.2973
744.70 0.2971
744.80 0.297
744.90 0.2969
745.00 0.2967
745.10 0.2966
745.20 0.2965
745.30 0.2963
745.40 0.2962
745.50 0.2961
745.60 0.2959
745.70 0.2958
745.80 0.2957
745.90 0.2955
746.00 0.2954
746.10 0.2953
746.20 0.2951
746.30 0.295
746.40 0.2949
746.50 0.2947
746.60 0.2946
746.70 0.2945
746.80 0.2943
746.90 0.2942
747.00 0.2941
747.10 0.2939
747.20 0.2938
747.30 0.2937
747.40 0.2935
747.50 0.2934
747.60 0.2933
747.70 0.2931
747.80 0.293
747.90 0.2929
748.00 0.2927
748.10 0.2926
748.20 0.2925
748.30 0.2923
748.40 0.2922
748.50 0.2921
748.60 0.2919
748.70 0.2918
748.80 0.2917
748.90 0.2916
749.00 0.2914
749.10 0.2913
749.20 0.2912
749.30 0.291
749.40 0.2909
749.50 0.2908
749.60 0.2906
749.70 0.2905
749.80 0.2904
749.90 0.2902
750.00 0.2901
750.10 0.29
750.20 0.2899
750.30 0.2897
750.40 0.2896
750.50 0.2895
750.60 0.2893
750.70 0.2892
750.80 0.2891
750.90 0.289
751.00 0.2888
751.10 0.2887
751.20 0.2886
751.30 0.2884
751.40 0.2883
751.50 0.2882
751.60 0.2881
751.70 0.2879
751.80 0.2878
751.90 0.2877
752.00 0.2875
752.10 0.2874
752.20 0.2873
752.30 0.2872
752.40 0.287
752.50 0.2869
752.60 0.2868
752.70 0.2866
752.80 0.2865
752.90 0.2864
753.00 0.2863
753.10 0.2861
753.20 0.286
753.30 0.2859
753.40 0.2858
753.50 0.2856
753.60 0.2855
753.70 0.2854
753.80 0.2852
753.90 0.2851
754.00 0.285
754.10 0.2849
754.20 0.2847
754.30 0.2846
754.40 0.2845
754.50 0.2844
754.60 0.2842
754.70 0.2841
754.80 0.284
754.90 0.2838
755.00 0.2837
755.10 0.2836
755.20 0.2835
755.30 0.2833
755.40 0.2832
755.50 0.2831
755.60 0.283
755.70 0.2828
755.80 0.2827
755.90 0.2826
756.00 0.2825
756.10 0.2823
756.20 0.2822
756.30 0.2821
756.40 0.282
756.50 0.2818
756.60 0.2817
756.70 0.2816
756.80 0.2815
756.90 0.2813
757.00 0.2812
757.10 0.2811
757.20 0.281
757.30 0.2808
757.40 0.2807
757.50 0.2806
757.60 0.2805
757.70 0.2803
757.80 0.2802
757.90 0.2801
758.00 0.28
758.10 0.2798
758.20 0.2797
758.30 0.2796
758.40 0.2795
758.50 0.2793
758.60 0.2792
758.70 0.2791
758.80 0.279
758.90 0.2788
759.00 0.2787
759.10 0.2786
759.20 0.2785
759.30 0.2783
759.40 0.2782
759.50 0.2781
759.60 0.278
759.70 0.2778
759.80 0.2777
759.90 0.2776
760.00 0.2775
760.10 0.2773
760.20 0.2772
760.30 0.2771
760.40 0.277
760.50 0.2769
760.60 0.2767
760.70 0.2766
760.80 0.2765
760.90 0.2764
761.00 0.2763
761.10 0.2761
761.20 0.276
761.30 0.2759
761.40 0.2758
761.50 0.2756
761.60 0.2755
761.70 0.2754
761.80 0.2753
761.90 0.2752
762.00 0.275
762.10 0.2749
762.20 0.2748
762.30 0.2747
762.40 0.2746
762.50 0.2744
762.60 0.2743
762.70 0.2742
762.80 0.2741
762.90 0.2739
763.00 0.2738
763.10 0.2737
763.20 0.2736
763.30 0.2735
763.40 0.2733
763.50 0.2732
763.60 0.2731
763.70 0.273
763.80 0.2729
763.90 0.2727
764.00 0.2726
764.10 0.2725
764.20 0.2724
764.30 0.2723
764.40 0.2721
764.50 0.272
764.60 0.2719
764.70 0.2718
764.80 0.2717
764.90 0.2715
765.00 0.2714
765.10 0.2713
765.20 0.2712
765.30 0.2711
765.40 0.2709
765.50 0.2708
765.60 0.2707
765.70 0.2706
765.80 0.2705
765.90 0.2703
766.00 0.2702
766.10 0.2701
766.20 0.27
766.30 0.2699
766.40 0.2698
766.50 0.2696
766.60 0.2695
766.70 0.2694
766.80 0.2693
766.90 0.2692
767.00 0.269
767.10 0.2689
767.20 0.2688
767.30 0.2687
767.40 0.2686
767.50 0.2684
767.60 0.2683
767.70 0.2682
767.80 0.2681
767.90 0.268
768.00 0.2679
768.10 0.2677
768.20 0.2676
768.30 0.2675
768.40 0.2674
768.50 0.2673
768.60 0.2671
768.70 0.267
768.80 0.2669
768.90 0.2668
769.00 0.2667
769.10 0.2666
769.20 0.2664
769.30 0.2663
769.40 0.2662
769.50 0.2661
769.60 0.266
769.70 0.2659
769.80 0.2657
769.90 0.2656
770.00 0.2655
770.10 0.2654
770.20 0.2653
770.30 0.2652
770.40 0.265
770.50 0.2649
770.60 0.2648
770.70 0.2647
770.80 0.2646
770.90 0.2645
771.00 0.2643
771.10 0.2642
771.20 0.2641
771.30 0.264
771.40 0.2639
771.50 0.2638
771.60 0.2637
771.70 0.2635
771.80 0.2634
771.90 0.2633
772.00 0.2632
772.10 0.2631
772.20 0.263
772.30 0.2629
772.40 0.2627
772.50 0.2626
772.60 0.2625
772.70 0.2624
772.80 0.2623
772.90 0.2622
773.00 0.2621
773.10 0.2619
773.20 0.2618
773.30 0.2617
773.40 0.2616
773.50 0.2615
773.60 0.2614
773.70 0.2613
773.80 0.2611
773.90 0.261
774.00 0.2609
774.10 0.2608
774.20 0.2607
774.30 0.2606
774.40 0.2605
774.50 0.2603
774.60 0.2602
774.70 0.2601
774.80 0.26
774.90 0.2599
775.00 0.2598
775.10 0.2597
775.20 0.2596
775.30 0.2594
775.40 0.2593
775.50 0.2592
775.60 0.2591
775.70 0.259
775.80 0.2589
775.90 0.2588
776.00 0.2586
776.10 0.2585
776.20 0.2584
776.30 0.2583
776.40 0.2582
776.50 0.2581
776.60 0.258
776.70 0.2579
776.80 0.2577
776.90 0.2576
777.00 0.2575
777.10 0.2574
777.20 0.2573
777.30 0.2572
777.40 0.2571
777.50 0.257
777.60 0.2568
777.70 0.2567
777.80 0.2566
777.90 0.2565
778.00 0.2564
778.10 0.2563
778.20 0.2562
778.30 0.2561
778.40 0.256
778.50 0.2558
778.60 0.2557
778.70 0.2556
778.80 0.2555
778.90 0.2554
779.00 0.2553
779.10 0.2552
779.20 0.2551
779.30 0.255
779.40 0.2548
779.50 0.2547
779.60 0.2546
779.70 0.2545
779.80 0.2544
779.90 0.2543
780.00 0.2542
780.10 0.2541
780.20 0.254
780.30 0.2538
780.40 0.2537
780.50 0.2536
780.60 0.2535
780.70 0.2534
780.80 0.2533
780.90 0.2532
781.00 0.2531
781.10 0.253
781.20 0.2529
781.30 0.2528
781.40 0.2526
781.50 0.2525
781.60 0.2524
781.70 0.2523
781.80 0.2522
781.90 0.2521
782.00 0.252
782.10 0.2519
782.20 0.2518
782.30 0.2517
782.40 0.2516
782.50 0.2514
782.60 0.2513
782.70 0.2512
782.80 0.2511
782.90 0.251
783.00 0.2509
783.10 0.2508
783.20 0.2507
783.30 0.2506
783.40 0.2505
783.50 0.2504
783.60 0.2503
783.70 0.2501
783.80 0.25
783.90 0.2499
784.00 0.2498
784.10 0.2497
784.20 0.2496
784.30 0.2495
784.40 0.2494
784.50 0.2493
784.60 0.2492
784.70 0.2491
784.80 0.249
784.90 0.2489
785.00 0.2487
785.10 0.2486
785.20 0.2485
785.30 0.2484
785.40 0.2483
785.50 0.2482
785.60 0.2481
785.70 0.248
785.80 0.2479
785.90 0.2478
786.00 0.2477
786.10 0.2476
786.20 0.2475
786.30 0.2474
786.40 0.2473
786.50 0.2471
786.60 0.247
786.70 0.2469
786.80 0.2468
786.90 0.2467
787.00 0.2466
787.10 0.2465
787.20 0.2464
787.30 0.2463
787.40 0.2462
787.50 0.2461
787.60 0.246
787.70 0.2459
787.80 0.2458
787.90 0.2457
788.00 0.2455
788.10 0.2454
788.20 0.2453
788.30 0.2452
788.40 0.2451
788.50 0.245
788.60 0.2449
788.70 0.2448
788.80 0.2447
788.90 0.2446
789.00 0.2445
789.10 0.2444
789.20 0.2443
789.30 0.2442
789.40 0.2441
789.50 0.244
789.60 0.2439
789.70 0.2438
789.80 0.2436
789.90 0.2435
790.00 0.2434
790.10 0.2433
790.20 0.2432
790.30 0.2431
790.40 0.243
790.50 0.2429
790.60 0.2428
790.70 0.2427
790.80 0.2426
790.90 0.2425
791.00 0.2424
791.10 0.2423
791.20 0.2422
791.30 0.2421
791.40 0.242
791.50 0.2419
791.60 0.2418
791.70 0.2417
791.80 0.2416
791.90 0.2415
792.00 0.2414
792.10 0.2413
792.20 0.2412
792.30 0.2411
792.40 0.241
792.50 0.2409
792.60 0.2408
792.70 0.2406
792.80 0.2405
792.90 0.2404
793.00 0.2403
793.10 0.2402
793.20 0.2401
793.30 0.24
793.40 0.2399
793.50 0.2398
793.60 0.2397
793.70 0.2396
793.80 0.2395
793.90 0.2394
794.00 0.2393
794.10 0.2392
794.20 0.2391
794.30 0.239
794.40 0.2389
794.50 0.2388
794.60 0.2387
794.70 0.2386
794.80 0.2385
794.90 0.2384
795.00 0.2383
795.10 0.2382
795.20 0.2381
795.30 0.238
795.40 0.2379
795.50 0.2378
795.60 0.2377
795.70 0.2376
795.80 0.2375
795.90 0.2374
796.00 0.2373
796.10 0.2372
796.20 0.2371
796.30 0.237
796.40 0.2369
796.50 0.2368
796.60 0.2367
796.70 0.2366
796.80 0.2365
796.90 0.2364
797.00 0.2363
797.10 0.2362
797.20 0.2361
797.30 0.236
797.40 0.2359
797.50 0.2358
797.60 0.2357
797.70 0.2356
797.80 0.2355
797.90 0.2354
798.00 0.2353
798.10 0.2352
798.20 0.2351
798.30 0.235
798.40 0.2349
798.50 0.2348
798.60 0.2347
798.70 0.2346
798.80 0.2345
798.90 0.2344
799.00 0.2343
799.10 0.2342
799.20 0.2341
799.30 0.234
799.40 0.2339
799.50 0.2338
799.60 0.2337
799.70 0.2336
799.80 0.2335
799.90 0.2334
800.00 0.2333
800.10 0.2332
800.20 0.2331
800.30 0.233
800.40 0.2329
800.50 0.2328
800.60 0.2327
800.70 0.2326
800.80 0.2325
800.90 0.2324
801.00 0.2323
801.10 0.2322
801.20 0.2321
801.30 0.232
801.40 0.2319
801.50 0.2318
801.60 0.2317
801.70 0.2316
801.80 0.2315
801.90 0.2314
802.00 0.2313
802.10 0.2312
802.20 0.2311
802.30 0.231
802.40 0.2309
802.50 0.2308
802.60 0.2307
802.70 0.2306
802.80 0.2305
802.90 0.2304
803.00 0.2303
803.10 0.2302
803.20 0.2301
803.30 0.23
803.40 0.2299
803.50 0.2298
803.60 0.2297
803.70 0.2296
803.80 0.2295
803.90 0.2294
804.00 0.2293
804.10 0.2293
804.20 0.2292
804.30 0.2291
804.40 0.229
804.50 0.2289
804.60 0.2288
804.70 0.2287
804.80 0.2286
804.90 0.2285
805.00 0.2284
805.10 0.2283
805.20 0.2282
805.30 0.2281
805.40 0.228
805.50 0.2279
805.60 0.2278
805.70 0.2277
805.80 0.2276
805.90 0.2275
806.00 0.2274
806.10 0.2273
806.20 0.2272
806.30 0.2271
806.40 0.227
806.50 0.2269
806.60 0.2268
806.70 0.2267
806.80 0.2267
806.90 0.2266
807.00 0.2265
807.10 0.2264
807.20 0.2263
807.30 0.2262
807.40 0.2261
807.50 0.226
807.60 0.2259
807.70 0.2258
807.80 0.2257
807.90 0.2256
808.00 0.2255
808.10 0.2254
808.20 0.2253
808.30 0.2252
808.40 0.2251
808.50 0.225
808.60 0.2249
808.70 0.2248
808.80 0.2247
808.90 0.2246
809.00 0.2246
809.10 0.2245
809.20 0.2244
809.30 0.2243
809.40 0.2242
809.50 0.2241
809.60 0.224
809.70 0.2239
809.80 0.2238
809.90 0.2237
810.00 0.2236
810.10 0.2235
810.20 0.2234
810.30 0.2233
810.40 0.2232
810.50 0.2231
810.60 0.223
810.70 0.223
810.80 0.2229
810.90 0.2228
811.00 0.2227
811.10 0.2226
811.20 0.2225
811.30 0.2224
811.40 0.2223
811.50 0.2222
811.60 0.2221
811.70 0.222
811.80 0.2219
811.90 0.2218
812.00 0.2217
812.10 0.2216
812.20 0.2216
812.30 0.2215
812.40 0.2214
812.50 0.2213
812.60 0.2212
812.70 0.2211
812.80 0.221
812.90 0.2209
813.00 0.2208
813.10 0.2207
813.20 0.2206
813.30 0.2205
813.40 0.2204
813.50 0.2204
813.60 0.2203
813.70 0.2202
813.80 0.2201
813.90 0.22
814.00 0.2199
814.10 0.2198
814.20 0.2197
814.30 0.2196
814.40 0.2195
814.50 0.2194
814.60 0.2193
814.70 0.2193
814.80 0.2192
814.90 0.2191
815.00 0.219
815.10 0.2189
815.20 0.2188
815.30 0.2187
815.40 0.2186
815.50 0.2185
815.60 0.2184
815.70 0.2183
815.80 0.2182
815.90 0.2182
816.00 0.2181
816.10 0.218
816.20 0.2179
816.30 0.2178
816.40 0.2177
816.50 0.2176
816.60 0.2175
816.70 0.2174
816.80 0.2173
816.90 0.2172
817.00 0.2172
817.10 0.2171
817.20 0.217
817.30 0.2169
817.40 0.2168
817.50 0.2167
817.60 0.2166
817.70 0.2165
817.80 0.2164
817.90 0.2163
818.00 0.2162
818.10 0.2162
818.20 0.2161
818.30 0.216
818.40 0.2159
818.50 0.2158
818.60 0.2157
818.70 0.2156
818.80 0.2155
818.90 0.2154
819.00 0.2153
819.10 0.2153
819.20 0.2152
819.30 0.2151
819.40 0.215
819.50 0.2149
819.60 0.2148
819.70 0.2147
819.80 0.2146
819.90 0.2145
820.00 0.2144
820.10 0.2144
820.20 0.2143
820.30 0.2142
820.40 0.2141
820.50 0.214
820.60 0.2139
820.70 0.2138
820.80 0.2137
820.90 0.2137
821.00 0.2136
821.10 0.2135
821.20 0.2134
821.30 0.2133
821.40 0.2132
821.50 0.2131
821.60 0.213
821.70 0.2129
821.80 0.2129
821.90 0.2128
822.00 0.2127
822.10 0.2126
822.20 0.2125
822.30 0.2124
822.40 0.2123
822.50 0.2122
822.60 0.2122
822.70 0.2121
822.80 0.212
822.90 0.2119
823.00 0.2118
823.10 0.2117
823.20 0.2116
823.30 0.2115
823.40 0.2114
823.50 0.2114
823.60 0.2113
823.70 0.2112
823.80 0.2111
823.90 0.211
824.00 0.2109
824.10 0.2108
824.20 0.2107
824.30 0.2107
824.40 0.2106
824.50 0.2105
824.60 0.2104
824.70 0.2103
824.80 0.2102
824.90 0.2101
825.00 0.2101
825.10 0.21
825.20 0.2099
825.30 0.2098
825.40 0.2097
825.50 0.2096
825.60 0.2095
825.70 0.2094
825.80 0.2094
825.90 0.2093
826.00 0.2092
826.10 0.2091
826.20 0.209
826.30 0.2089
826.40 0.2088
826.50 0.2087
826.60 0.2087
826.70 0.2086
826.80 0.2085
826.90 0.2084
827.00 0.2083
827.10 0.2082
827.20 0.2081
827.30 0.2081
827.40 0.208
827.50 0.2079
827.60 0.2078
827.70 0.2077
827.80 0.2076
827.90 0.2075
828.00 0.2075
828.10 0.2074
828.20 0.2073
828.30 0.2072
828.40 0.2071
828.50 0.207
828.60 0.2069
828.70 0.2069
828.80 0.2068
828.90 0.2067
829.00 0.2066
829.10 0.2065
829.20 0.2064
829.30 0.2064
829.40 0.2063
829.50 0.2062
829.60 0.2061
829.70 0.206
829.80 0.2059
829.90 0.2058
830.00 0.2058
830.10 0.2057
830.20 0.2056
830.30 0.2055
830.40 0.2054
830.50 0.2053
830.60 0.2052
830.70 0.2052
830.80 0.2051
830.90 0.205
831.00 0.2049
831.10 0.2048
831.20 0.2047
831.30 0.2047
831.40 0.2046
831.50 0.2045
831.60 0.2044
831.70 0.2043
831.80 0.2042
831.90 0.2042
832.00 0.2041
832.10 0.204
832.20 0.2039
832.30 0.2038
832.40 0.2037
832.50 0.2036
832.60 0.2036
832.70 0.2035
832.80 0.2034
832.90 0.2033
833.00 0.2032
833.10 0.2031
833.20 0.2031
833.30 0.203
833.40 0.2029
833.50 0.2028
833.60 0.2027
833.70 0.2026
833.80 0.2026
833.90 0.2025
834.00 0.2024
834.10 0.2023
834.20 0.2022
834.30 0.2021
834.40 0.2021
834.50 0.202
834.60 0.2019
834.70 0.2018
834.80 0.2017
834.90 0.2017
835.00 0.2016
835.10 0.2015
835.20 0.2014
835.30 0.2013
835.40 0.2012
835.50 0.2012
835.60 0.2011
835.70 0.201
835.80 0.2009
835.90 0.2008
836.00 0.2007
836.10 0.2007
836.20 0.2006
836.30 0.2005
836.40 0.2004
836.50 0.2003
836.60 0.2002
836.70 0.2002
836.80 0.2001
836.90 0.2
837.00 0.1999
837.10 0.1998
837.20 0.1998
837.30 0.1997
837.40 0.1996
837.50 0.1995
837.60 0.1994
837.70 0.1994
837.80 0.1993
837.90 0.1992
838.00 0.1991
838.10 0.199
838.20 0.1989
838.30 0.1989
838.40 0.1988
838.50 0.1987
838.60 0.1986
838.70 0.1985
838.80 0.1985
838.90 0.1984
839.00 0.1983
839.10 0.1982
839.20 0.1981
839.30 0.1981
839.40 0.198
839.50 0.1979
839.60 0.1978
839.70 0.1977
839.80 0.1976
839.90 0.1976
840.00 0.1975
840.10 0.1974
840.20 0.1973
840.30 0.1972
840.40 0.1972
840.50 0.1971
840.60 0.197
840.70 0.1969
840.80 0.1968
840.90 0.1968
841.00 0.1967
841.10 0.1966
841.20 0.1965
841.30 0.1964
841.40 0.1964
841.50 0.1963
841.60 0.1962
841.70 0.1961
841.80 0.196
841.90 0.196
842.00 0.1959
842.10 0.1958
842.20 0.1957
842.30 0.1956
842.40 0.1956
842.50 0.1955
842.60 0.1954
842.70 0.1953
842.80 0.1952
842.90 0.1952
843.00 0.1951
843.10 0.195
843.20 0.1949
843.30 0.1948
843.40 0.1948
843.50 0.1947
843.60 0.1946
843.70 0.1945
843.80 0.1945
843.90 0.1944
844.00 0.1943
844.10 0.1942
844.20 0.1941
844.30 0.1941
844.40 0.194
844.50 0.1939
844.60 0.1938
844.70 0.1937
844.80 0.1937
844.90 0.1936
845.00 0.1935
845.10 0.1934
845.20 0.1934
845.30 0.1933
845.40 0.1932
845.50 0.1931
845.60 0.193
845.70 0.193
845.80 0.1929
845.90 0.1928
846.00 0.1927
846.10 0.1926
846.20 0.1926
846.30 0.1925
846.40 0.1924
846.50 0.1923
846.60 0.1923
846.70 0.1922
846.80 0.1921
846.90 0.192
847.00 0.1919
847.10 0.1919
847.20 0.1918
847.30 0.1917
847.40 0.1916
847.50 0.1916
847.60 0.1915
847.70 0.1914
847.80 0.1913
847.90 0.1913
848.00 0.1912
848.10 0.1911
848.20 0.191
848.30 0.191
848.40 0.1909
848.50 0.1908
848.60 0.1907
848.70 0.1907
848.80 0.1906
848.90 0.1905
849.00 0.1904
849.10 0.1904
849.20 0.1903
849.30 0.1902
849.40 0.1901
849.50 0.1901
849.60 0.19
849.70 0.1899
849.80 0.1899
849.90 0.1898
850.00 0.1897
850.10 0.1896
850.20 0.1896
850.30 0.1895
850.40 0.1894
850.50 0.1893
850.60 0.1893
850.70 0.1892
850.80 0.1891
850.90 0.189
851.00 0.189
851.10 0.1889
851.20 0.1888
851.30 0.1887
851.40 0.1887
851.50 0.1886
851.60 0.1885
851.70 0.1884
851.80 0.1884
851.90 0.1883
852.00 0.1882
852.10 0.1882
852.20 0.1881
852.30 0.188
852.40 0.1879
852.50 0.1879
852.60 0.1878
852.70 0.1877
852.80 0.1876
852.90 0.1876
853.00 0.1875
853.10 0.1874
853.20 0.1874
853.30 0.1873
853.40 0.1872
853.50 0.1871
853.60 0.1871
853.70 0.187
853.80 0.1869
853.90 0.1868
854.00 0.1868
854.10 0.1867
854.20 0.1866
854.30 0.1866
854.40 0.1865
854.50 0.1864
854.60 0.1863
854.70 0.1863
854.80 0.1862
854.90 0.1861
855.00 0.186
855.10 0.186
855.20 0.1859
855.30 0.1858
855.40 0.1858
855.50 0.1857
855.60 0.1856
855.70 0.1855
855.80 0.1855
855.90 0.1854
856.00 0.1853
856.10 0.1853
856.20 0.1852
856.30 0.1851
856.40 0.185
856.50 0.185
856.60 0.1849
856.70 0.1848
856.80 0.1848
856.90 0.1847
857.00 0.1846
857.10 0.1845
857.20 0.1845
857.30 0.1844
857.40 0.1843
857.50 0.1843
857.60 0.1842
857.70 0.1841
857.80 0.1841
857.90 0.184
858.00 0.1839
858.10 0.1839
858.20 0.1838
858.30 0.1837
858.40 0.1836
858.50 0.1836
858.60 0.1835
858.70 0.1834
858.80 0.1834
858.90 0.1833
859.00 0.1832
859.10 0.1832
859.20 0.1831
859.30 0.183
859.40 0.183
859.50 0.1829
859.60 0.1828
859.70 0.1827
859.80 0.1827
859.90 0.1826
860.00 0.1825
860.10 0.1825
860.20 0.1824
860.30 0.1823
860.40 0.1823
860.50 0.1822
860.60 0.1821
860.70 0.1821
860.80 0.182
860.90 0.1819
861.00 0.1819
861.10 0.1818
861.20 0.1817
861.30 0.1817
861.40 0.1816
861.50 0.1815
861.60 0.1814
861.70 0.1814
861.80 0.1813
861.90 0.1812
862.00 0.1812
862.10 0.1811
862.20 0.181
862.30 0.181
862.40 0.1809
862.50 0.1808
862.60 0.1808
862.70 0.1807
862.80 0.1806
862.90 0.1806
863.00 0.1805
863.10 0.1804
863.20 0.1804
863.30 0.1803
863.40 0.1802
863.50 0.1802
863.60 0.1801
863.70 0.18
863.80 0.18
863.90 0.1799
864.00 0.1798
864.10 0.1798
864.20 0.1797
864.30 0.1796
864.40 0.1796
864.50 0.1795
864.60 0.1794
864.70 0.1793
864.80 0.1793
864.90 0.1792
865.00 0.1791
865.10 0.1791
865.20 0.179
865.30 0.1789
865.40 0.1789
865.50 0.1788
865.60 0.1787
865.70 0.1787
865.80 0.1786
865.90 0.1785
866.00 0.1785
866.10 0.1784
866.20 0.1783
866.30 0.1783
866.40 0.1782
866.50 0.1781
866.60 0.1781
866.70 0.178
866.80 0.1779
866.90 0.1779
867.00 0.1778
867.10 0.1777
867.20 0.1777
867.30 0.1776
867.40 0.1776
867.50 0.1775
867.60 0.1774
867.70 0.1774
867.80 0.1773
867.90 0.1773
868.00 0.1772
868.10 0.1771
868.20 0.1771
868.30 0.177
868.40 0.177
868.50 0.1769
868.60 0.1768
868.70 0.1768
868.80 0.1767
868.90 0.1767
869.00 0.1766
869.10 0.1765
869.20 0.1765
869.30 0.1764
869.40 0.1764
869.50 0.1763
869.60 0.1763
869.70 0.1762
869.80 0.1761
869.90 0.1761
870.00 0.176
870.10 0.176
870.20 0.1759
870.30 0.1758
870.40 0.1758
870.50 0.1757
870.60 0.1757
870.70 0.1756
870.80 0.1755
870.90 0.1755
871.00 0.1754
871.10 0.1754
871.20 0.1753
871.30 0.1752
871.40 0.1752
871.50 0.1751
871.60 0.1751
871.70 0.175
871.80 0.1749
871.90 0.1749
872.00 0.1748
872.10 0.1748
872.20 0.1747
872.30 0.1746
872.40 0.1746
872.50 0.1745
872.60 0.1745
872.70 0.1744
872.80 0.1743
872.90 0.1743
873.00 0.1742
873.10 0.1742
873.20 0.1741
873.30 0.174
873.40 0.174
873.50 0.1739
873.60 0.1738
873.70 0.1738
873.80 0.1737
873.90 0.1737
874.00 0.1736
874.10 0.1735
874.20 0.1735
874.30 0.1734
874.40 0.1734
874.50 0.1733
874.60 0.1732
874.70 0.1732
874.80 0.1731
874.90 0.1731
875.00 0.173
875.10 0.1729
875.20 0.1729
875.30 0.1728
875.40 0.1727
875.50 0.1727
875.60 0.1726
875.70 0.1726
875.80 0.1725
875.90 0.1724
876.00 0.1724
876.10 0.1723
876.20 0.1723
876.30 0.1722
876.40 0.1721
876.50 0.1721
876.60 0.172
876.70 0.172
876.80 0.1719
876.90 0.1718
877.00 0.1718
877.10 0.1717
877.20 0.1717
877.30 0.1716
877.40 0.1716
877.50 0.1715
877.60 0.1715
877.70 0.1714
877.80 0.1714
877.90 0.1713
878.00 0.1712
878.10 0.1712
878.20 0.1711
878.30 0.1711
878.40 0.171
878.50 0.171
878.60 0.1709
878.70 0.1709
878.80 0.1708
878.90 0.1708
879.00 0.1707
879.10 0.1707
879.20 0.1706
879.30 0.1706
879.40 0.1705
879.50 0.1705
879.60 0.1704
879.70 0.1703
879.80 0.1703
879.90 0.1702
880.00 0.1702
880.10 0.1701
880.20 0.1701
880.30 0.17
880.40 0.17
880.50 0.1699
880.60 0.1699
880.70 0.1698
880.80 0.1698
880.90 0.1697
881.00 0.1697
881.10 0.1696
881.20 0.1696
881.30 0.1695
881.40 0.1694
881.50 0.1694
881.60 0.1693
881.70 0.1693
881.80 0.1692
881.90 0.1692
882.00 0.1691
882.10 0.1691
882.20 0.169
882.30 0.1689
882.40 0.1688
882.50 0.1688
882.60 0.1687
882.70 0.1686
882.80 0.1685
882.90 0.1684
883.00 0.1684
883.10 0.1683
883.20 0.1682
883.30 0.1681
883.40 0.1681
883.50 0.168
883.60 0.1679
883.70 0.1678
883.80 0.1678
883.90 0.1677
884.00 0.1676
884.10 0.1675
884.20 0.1675
884.30 0.1674
884.40 0.1673
884.50 0.1672
884.60 0.1672
884.70 0.1671
884.80 0.167
884.90 0.1669
885.00 0.1669
885.10 0.1668
885.20 0.1667
885.30 0.1666
885.40 0.1666
885.50 0.1665
885.60 0.1664
885.70 0.1663
885.80 0.1663
885.90 0.1662
886.00 0.1661
886.10 0.166
886.20 0.166
886.30 0.1659
886.40 0.1658
886.50 0.1657
886.60 0.1657
886.70 0.1656
886.80 0.1655
886.90 0.1654
887.00 0.1654
887.10 0.1653
887.20 0.1653
887.30 0.1653
887.40 0.1652
887.50 0.1652
887.60 0.1652
887.70 0.1651
887.80 0.1651
887.90 0.1651
888.00 0.1651
888.10 0.165
888.20 0.165
888.30 0.165
888.40 0.1649
888.50 0.1649
888.60 0.1649
888.70 0.1648
888.80 0.1648
888.90 0.1648
889.00 0.1647
889.10 0.1647
889.20 0.1647
889.30 0.1646
889.40 0.1646
889.50 0.1646
889.60 0.1645
889.70 0.1645
889.80 0.1645
889.90 0.1645
890.00 0.1644
890.10 0.1644
890.20 0.1644
890.30 0.1643
890.40 0.1643
890.50 0.1643
890.60 0.1642
890.70 0.1642
890.80 0.1642
890.90 0.1641
891.00 0.1641
891.10 0.1641
891.20 0.164
891.30 0.164
891.40 0.164
891.50 0.164
891.60 0.1639
891.70 0.1639
891.80 0.1639
891.90 0.1638
892.00 0.1638
892.10 0.1637
892.20 0.1637
892.30 0.1636
892.40 0.1636
892.50 0.1635
892.60 0.1635
892.70 0.1634
892.80 0.1634
892.90 0.1633
893.00 0.1632
893.10 0.1632
893.20 0.1631
893.30 0.1631
893.40 0.163
893.50 0.163
893.60 0.1629
893.70 0.1629
893.80 0.1628
893.90 0.1628
894.00 0.1627
894.10 0.1626
894.20 0.1626
894.30 0.1625
894.40 0.1625
894.50 0.1624
894.60 0.1624
894.70 0.1623
894.80 0.1623
894.90 0.1622
895.00 0.1622
895.10 0.1621
895.20 0.162
895.30 0.162
895.40 0.1619
895.50 0.1619
895.60 0.1618
895.70 0.1618
895.80 0.1617
895.90 0.1617
896.00 0.1616
896.10 0.1616
896.20 0.1615
896.30 0.1615
896.40 0.1614
896.50 0.1613
896.60 0.1613
896.70 0.1612
896.80 0.1612
896.90 0.1611
897.00 0.1611
897.10 0.161
897.20 0.1608
897.30 0.1607
897.40 0.1606
897.50 0.1605
897.60 0.1604
897.70 0.1603
897.80 0.1601
897.90 0.16
898.00 0.1599
898.10 0.1598
898.20 0.1597
898.30 0.1595
898.40 0.1594
898.50 0.1593
898.60 0.1592
898.70 0.1591
898.80 0.159
898.90 0.1588
899.00 0.1587
899.10 0.1586
899.20 0.1585
899.30 0.1584
899.40 0.1583
899.50 0.1581
899.60 0.158
899.70 0.1579
899.80 0.1578
899.90 0.1577
900.00 0.1576
900.10 0.1575
900.20 0.1573
900.30 0.1572
900.40 0.1571
900.50 0.157
900.60 0.1569
900.70 0.1568
900.80 0.1566
900.90 0.1565
901.00 0.1564
901.10 0.1563
901.20 0.1562
901.30 0.1561
901.40 0.1559
901.50 0.1558
901.60 0.1557
901.70 0.1556
901.80 0.1555
901.90 0.1554
902.00 0.1553
902.10 0.1553
902.20 0.1553
902.30 0.1553
902.40 0.1553
902.50 0.1553
902.60 0.1553
902.70 0.1553
902.80 0.1553
902.90 0.1553
903.00 0.1553
903.10 0.1553
903.20 0.1553
903.30 0.1553
903.40 0.1553
903.50 0.1553
903.60 0.1553
903.70 0.1553
903.80 0.1553
903.90 0.1553
904.00 0.1553
904.10 0.1553
904.20 0.1553
904.30 0.1553
904.40 0.1553
904.50 0.1553
904.60 0.1553
904.70 0.1553
904.80 0.1553
904.90 0.1553
905.00 0.1553
905.10 0.1553
905.20 0.1553
905.30 0.1553
905.40 0.1553
905.50 0.1553
905.60 0.1553
905.70 0.1553
905.80 0.1553
905.90 0.1553
906.00 0.1553
906.10 0.1553
906.20 0.1553
906.30 0.1553
906.40 0.1553
906.50 0.1553
906.60 0.1553
906.70 0.1553
906.80 0.1553
906.90 0.1553
907.00 0.1553
907.10 0.1552
907.20 0.1552
907.30 0.1552
907.40 0.1552
907.50 0.1551
907.60 0.1551
907.70 0.1551
907.80 0.155
907.90 0.155
908.00 0.155
908.10 0.1549
908.20 0.1549
908.30 0.1549
908.40 0.1549
908.50 0.1548
908.60 0.1548
908.70 0.1548
908.80 0.1547
908.90 0.1547
909.00 0.1547
909.10 0.1546
909.20 0.1546
909.30 0.1546
909.40 0.1546
909.50 0.1545
909.60 0.1545
909.70 0.1545
909.80 0.1544
909.90 0.1544
910.00 0.1544
910.10 0.1544
910.20 0.1543
910.30 0.1543
910.40 0.1543
910.50 0.1542
910.60 0.1542
910.70 0.1542
910.80 0.1541
910.90 0.1541
911.00 0.1541
911.10 0.1541
911.20 0.154
911.30 0.154
911.40 0.154
911.50 0.1539
911.60 0.1539
911.70 0.1539
911.80 0.1538
911.90 0.1538
912.00 0.1538
912.10 0.1537
912.20 0.1536
912.30 0.1536
912.40 0.1535
912.50 0.1534
912.60 0.1533
912.70 0.1532
912.80 0.1532
912.90 0.1531
913.00 0.153
913.10 0.1529
913.20 0.1529
913.30 0.1528
913.40 0.1527
913.50 0.1526
913.60 0.1526
913.70 0.1525
913.80 0.1524
913.90 0.1523
914.00 0.1522
914.10 0.1522
914.20 0.1521
914.30 0.152
914.40 0.1519
914.50 0.1519
914.60 0.1518
914.70 0.1517
914.80 0.1516
914.90 0.1516
915.00 0.1515
915.10 0.1514
915.20 0.1513
915.30 0.1512
915.40 0.1512
915.50 0.1511
915.60 0.151
915.70 0.1509
915.80 0.1509
915.90 0.1508
916.00 0.1507
916.10 0.1506
916.20 0.1506
916.30 0.1505
916.40 0.1504
916.50 0.1503
916.60 0.1503
916.70 0.1502
916.80 0.1501
916.90 0.15
917.00 0.15
917.10 0.1498
917.20 0.1497
917.30 0.1495
917.40 0.1494
917.50 0.1493
917.60 0.1491
917.70 0.149
917.80 0.1489
917.90 0.1487
918.00 0.1486
918.10 0.1484
918.20 0.1483
918.30 0.1482
918.40 0.148
918.50 0.1479
918.60 0.1478
918.70 0.1476
918.80 0.1475
918.90 0.1474
919.00 0.1472
919.10 0.1471
919.20 0.147
919.30 0.1468
919.40 0.1467
919.50 0.1465
919.60 0.1464
919.70 0.1463
919.80 0.1461
919.90 0.146
920.00 0.1459
920.10 0.1457
920.20 0.1456
920.30 0.1455
920.40 0.1453
920.50 0.1452
920.60 0.1451
920.70 0.1449
920.80 0.1448
920.90 0.1447
921.00 0.1445
921.10 0.1444
921.20 0.1443
921.30 0.1441
921.40 0.144
921.50 0.1438
921.60 0.1437
921.70 0.1436
921.80 0.1434
921.90 0.1433
922.00 0.1432
922.10 0.1431
922.20 0.143
922.30 0.143
922.40 0.1429
922.50 0.1429
922.60 0.1428
922.70 0.1427
922.80 0.1427
922.90 0.1426
923.00 0.1425
923.10 0.1425
923.20 0.1424
923.30 0.1423
923.40 0.1423
923.50 0.1422
923.60 0.1421
923.70 0.1421
923.80 0.142
923.90 0.142
924.00 0.1419
924.10 0.1418
924.20 0.1418
924.30 0.1417
924.40 0.1416
924.50 0.1416
924.60 0.1415
924.70 0.1414
924.80 0.1414
924.90 0.1413
925.00 0.1413
925.10 0.1412
925.20 0.1411
925.30 0.1411
925.40 0.141
925.50 0.1409
925.60 0.1409
925.70 0.1408
925.80 0.1407
925.90 0.1407
926.00 0.1406
926.10 0.1406
926.20 0.1405
926.30 0.1404
926.40 0.1404
926.50 0.1403
926.60 0.1402
926.70 0.1402
926.80 0.1401
926.90 0.14
927.00 0.14
927.10 0.14
927.20 0.1401
927.30 0.1401
927.40 0.1402
927.50 0.1402
927.60 0.1403
927.70 0.1403
927.80 0.1404
927.90 0.1404
928.00 0.1405
928.10 0.1405
928.20 0.1406
928.30 0.1406
928.40 0.1407
928.50 0.1407
928.60 0.1408
928.70 0.1408
928.80 0.1409
928.90 0.1409
929.00 0.141
929.10 0.141
929.20 0.1411
929.30 0.1411
929.40 0.1412
929.50 0.1412
929.60 0.1413
929.70 0.1413
929.80 0.1414
929.90 0.1414
930.00 0.1415
930.10 0.1415
930.20 0.1416
930.30 0.1416
930.40 0.1417
930.50 0.1417
930.60 0.1418
930.70 0.1418
930.80 0.1419
930.90 0.1419
931.00 0.142
931.10 0.142
931.20 0.1421
931.30 0.1421
931.40 0.1422
931.50 0.1422
931.60 0.1422
931.70 0.1423
931.80 0.1423
931.90 0.1424
932.00 0.1424
932.10 0.1424
932.20 0.1424
932.30 0.1424
932.40 0.1424
932.50 0.1424
932.60 0.1424
932.70 0.1424
932.80 0.1424
932.90 0.1424
933.00 0.1424
933.10 0.1424
933.20 0.1424
933.30 0.1424
933.40 0.1424
933.50 0.1424
933.60 0.1424
933.70 0.1424
933.80 0.1424
933.90 0.1424
934.00 0.1424
934.10 0.1424
934.20 0.1424
934.30 0.1424
934.40 0.1424
934.50 0.1423
934.60 0.1423
934.70 0.1423
934.80 0.1423
934.90 0.1422
935.00 0.1422
935.10 0.1422
935.20 0.1421
935.30 0.1421
935.40 0.1421
935.50 0.1421
935.60 0.142
935.70 0.142
935.80 0.142
935.90 0.142
936.00 0.1419
936.10 0.1419
936.20 0.1419
936.30 0.1419
936.40 0.1418
936.50 0.1418
936.60 0.1418
936.70 0.1418
936.80 0.1417
936.90 0.1417
937.00 0.1417
937.10 0.1416
937.20 0.1416
937.30 0.1416
937.40 0.1415
937.50 0.1415
937.60 0.1414
937.70 0.1414
937.80 0.1414
937.90 0.1413
938.00 0.1413
938.10 0.1412
938.20 0.1412
938.30 0.1412
938.40 0.1411
938.50 0.1411
938.60 0.141
938.70 0.141
938.80 0.1409
938.90 0.1408
939.00 0.1408
939.10 0.1407
939.20 0.1407
939.30 0.1406
939.40 0.1406
939.50 0.1405
939.60 0.1405
939.70 0.1404
939.80 0.1404
939.90 0.1403
940.00 0.1403
940.10 0.1402
940.20 0.1402
940.30 0.1401
940.40 0.14
940.50 0.14
940.60 0.1399
940.70 0.1398
940.80 0.1398
940.90 0.1397
941.00 0.1396
941.10 0.1396
941.20 0.1395
941.30 0.1394
941.40 0.1394
941.50 0.1393
941.60 0.1392
941.70 0.1392
941.80 0.1391
941.90 0.139
942.00 0.139
942.10 0.1389
942.20 0.1388
942.30 0.1387
942.40 0.1386
942.50 0.1385
942.60 0.1384
942.70 0.1383
942.80 0.1382
942.90 0.1381
943.00 0.1381
943.10 0.138
943.20 0.1379
943.30 0.1378
943.40 0.1377
943.50 0.1376
943.60 0.1375
943.70 0.1374
943.80 0.1373
943.90 0.1372
944.00 0.1371
944.10 0.137
944.20 0.1369
944.30 0.1368
944.40 0.1367
944.50 0.1366
944.60 0.1365
944.70 0.1363
944.80 0.1362
944.90 0.1361
945.00 0.136
945.10 0.1358
945.20 0.1357
945.30 0.1356
945.40 0.1354
945.50 0.1353
945.60 0.1351
945.70 0.135
945.80 0.1348
945.90 0.1347
946.00 0.1345
946.10 0.1344
946.20 0.1342
946.30 0.134
946.40 0.1339
946.50 0.1337
946.60 0.1336
946.70 0.1334
946.80 0.1333
946.90 0.1331
947.00 0.133
947.10 0.1328
947.20 0.1326
947.30 0.1324
947.40 0.1322
947.50 0.132
947.60 0.1317
947.70 0.1315
947.80 0.1313
947.90 0.1311
948.00 0.1309
948.10 0.1306
948.20 0.1304
948.30 0.1302
948.40 0.13
948.50 0.1298
948.60 0.1296
948.70 0.1293
948.80 0.1291
948.90 0.1289
949.00 0.1287
949.10 0.1285
949.20 0.1282
949.30 0.128
949.40 0.1278
949.50 0.1275
949.60 0.1273
949.70 0.127
949.80 0.1267
949.90 0.1265
950.00 0.1262
950.10 0.126
950.20 0.1257
950.30 0.1255
950.40 0.1252
950.50 0.1249
950.60 0.1247
950.70 0.1244
950.80 0.1242
950.90 0.1239
951.00 0.1237
951.10 0.1234
951.20 0.1231
951.30 0.1229
951.40 0.1227
951.50 0.1224
951.60 0.1222
951.70 0.122
951.80 0.1217
951.90 0.1215
952.00 0.1213
952.10 0.1211
952.20 0.1209
952.30 0.1207
952.40 0.1206
952.50 0.1204
952.60 0.1202
952.70 0.12
952.80 0.1199
952.90 0.1198
953.00 0.1198
953.10 0.1198
953.20 0.1197
953.30 0.1197
953.40 0.1196
953.50 0.1196
953.60 0.1201
953.70 0.1205
953.80 0.121
953.90 0.1215
954.00 0.1222
954.10 0.1228
954.20 0.1235
954.30 0.1217
954.40 0.1193
954.50 0.1187
954.60 0.118
954.70 0.1174
954.80 0.1169
954.90 0.1165
955.00 0.116
955.10 0.1156
955.20 0.1154
955.30 0.1152
955.40 0.1151
955.50 0.1149
955.60 0.1147
955.70 0.1146
955.80 0.1144
955.90 0.1145
956.00 0.1145
956.10 0.1146
956.20 0.1146
956.30 0.1146
956.40 0.1147
956.50 0.1147
956.60 0.1148
956.70 0.1148
956.80 0.1149
956.90 0.1149
957.00 0.1149
957.10 0.1151
957.20 0.1152
957.30 0.1153
957.40 0.1154
957.50 0.1155
957.60 0.1157
957.70 0.1158
957.80 0.1159
957.90 0.1161
958.00 0.1162
958.10 0.1163
958.20 0.1164
958.30 0.1166
958.40 0.1167
958.50 0.1168
958.60 0.117
958.70 0.1171
958.80 0.1172
958.90 0.1173
959.00 0.1175
959.10 0.1176
959.20 0.1177
959.30 0.1179
959.40 0.118
959.50 0.1181
959.60 0.1182
959.70 0.1183
959.80 0.1184
959.90 0.1186
960.00 0.1187
960.10 0.1188
960.20 0.1189
960.30 0.119
960.40 0.1191
960.50 0.1192
960.60 0.1194
960.70 0.1195
960.80 0.1196
960.90 0.1197
961.00 0.1198
961.10 0.1199
961.20 0.1201
961.30 0.1202
961.40 0.1203
961.50 0.1204
961.60 0.1205
961.70 0.1206
961.80 0.1206
961.90 0.1207
962.00 0.1208
962.10 0.1209
962.20 0.121
962.30 0.1211
962.40 0.1212
962.50 0.1212
962.60 0.1213
962.70 0.1214
962.80 0.1215
962.90 0.1216
963.00 0.1217
963.10 0.1217
963.20 0.1218
963.30 0.1219
963.40 0.122
963.50 0.122
963.60 0.1221
963.70 0.1222
963.80 0.1222
963.90 0.1223
964.00 0.1224
964.10 0.1224
964.20 0.1225
964.30 0.1226
964.40 0.1226
964.50 0.1226
964.60 0.1227
964.70 0.1227
964.80 0.1228
964.90 0.1228
965.00 0.1229
965.10 0.1229
965.20 0.123
965.30 0.123
965.40 0.1231
965.50 0.1231
965.60 0.1232
965.70 0.1232
965.80 0.1233
965.90 0.1233
966.00 0.1234
966.10 0.1234
966.20 0.1234
966.30 0.1235
966.40 0.1235
966.50 0.1236
966.60 0.1236
966.70 0.1236
966.80 0.1237
966.90 0.1237
967.00 0.1237
967.10 0.1237
967.20 0.1238
967.30 0.1238
967.40 0.1238
967.50 0.1238
967.60 0.1239
967.70 0.1239
967.80 0.1239
967.90 0.1239
968.00 0.1239
968.10 0.124
968.20 0.124
968.30 0.124
968.40 0.124
968.50 0.124
968.60 0.124
968.70 0.124
968.80 0.1241
968.90 0.1241
969.00 0.1241
969.10 0.1241
969.20 0.1241
969.30 0.1241
969.40 0.1241
969.50 0.1241
969.60 0.1241
969.70 0.1241
969.80 0.1241
969.90 0.1241
970.00 0.1242
970.10 0.1242
970.20 0.1242
970.30 0.1242
970.40 0.1242
970.50 0.1242
970.60 0.1242
970.70 0.1242
970.80 0.1242
970.90 0.1241
971.00 0.1241
971.10 0.1241
971.20 0.1241
971.30 0.1241
971.40 0.1241
971.50 0.1241
971.60 0.1241
971.70 0.1241
971.80 0.1241
971.90 0.1241
972.00 0.1241
972.10 0.1241
972.20 0.1241
972.30 0.124
972.40 0.124
972.50 0.124
972.60 0.124
972.70 0.124
972.80 0.124
972.90 0.1239
973.00 0.1239
973.10 0.1239
973.20 0.1239
973.30 0.1239
973.40 0.1239
973.50 0.1238
973.60 0.1238
973.70 0.1238
973.80 0.1238
973.90 0.1238
974.00 0.1238
974.10 0.1237
974.20 0.1237
974.30 0.1237
974.40 0.1237
974.50 0.1237
974.60 0.1236
974.70 0.1236
974.80 0.1236
974.90 0.1235
975.00 0.1235
975.10 0.1235
975.20 0.1234
975.30 0.1234
975.40 0.1234
975.50 0.1234
975.60 0.1233
975.70 0.1233
975.80 0.1233
975.90 0.1232
976.00 0.1232
976.10 0.1232
976.20 0.1231
976.30 0.1231
976.40 0.1231
976.50 0.1231
976.60 0.123
976.70 0.123
976.80 0.123
976.90 0.1229
977.00 0.1229
977.10 0.1229
977.20 0.1228
977.30 0.1228
977.40 0.1227
977.50 0.1227
977.60 0.1226
977.70 0.1226
977.80 0.1225
977.90 0.1225
978.00 0.1224
978.10 0.1224
978.20 0.1223
978.30 0.1223
978.40 0.1222
978.50 0.1222
978.60 0.1221
978.70 0.1221
978.80 0.122
978.90 0.122
979.00 0.122
979.10 0.1219
979.20 0.1219
979.30 0.1218
979.40 0.1218
979.50 0.1217
979.60 0.1217
979.70 0.1216
979.80 0.1216
979.90 0.1215
980.00 0.1215
980.10 0.1214
980.20 0.1214
980.30 0.1213
980.40 0.1213
980.50 0.1212
980.60 0.1212
980.70 0.1211
980.80 0.1211
980.90 0.1211
981.00 0.121
981.10 0.121
981.20 0.1209
981.30 0.1209
981.40 0.1208
981.50 0.1208
981.60 0.1207
981.70 0.1207
981.80 0.1206
981.90 0.1206
982.00 0.1205
982.10 0.1205
982.20 0.1204
982.30 0.1203
982.40 0.1203
982.50 0.1202
982.60 0.1201
982.70 0.1201
982.80 0.12
982.90 0.1199
983.00 0.1199
983.10 0.1198
983.20 0.1197
983.30 0.1197
983.40 0.1196
983.50 0.1195
983.60 0.1195
983.70 0.1194
983.80 0.1193
983.90 0.1193
984.00 0.1192
984.10 0.1191
984.20 0.1191
984.30 0.119
984.40 0.1189
984.50 0.1189
984.60 0.1188
984.70 0.1187
984.80 0.1186
984.90 0.1185
985.00 0.1185
985.10 0.1184
985.20 0.1183
985.30 0.1182
985.40 0.1181
985.50 0.118
985.60 0.118
985.70 0.1179
985.80 0.1178
985.90 0.1177
986.00 0.1176
986.10 0.1175
986.20 0.1175
986.30 0.1174
986.40 0.1173
986.50 0.1172
986.60 0.1171
986.70 0.117
986.80 0.117
986.90 0.1169
987.00 0.1168
987.10 0.1167
987.20 0.1166
987.30 0.1165
987.40 0.1164
987.50 0.1163
987.60 0.1162
987.70 0.1161
987.80 0.116
987.90 0.1159
988.00 0.1158
988.10 0.1157
988.20 0.1156
988.30 0.1155
988.40 0.1154
988.50 0.1153
988.60 0.1152
988.70 0.1151
988.80 0.115
988.90 0.1148
989.00 0.1147
989.10 0.1146
989.20 0.1145
989.30 0.1144
989.40 0.1143
989.50 0.1141
989.60 0.114
989.70 0.1139
989.80 0.1138
989.90 0.1137
990.00 0.1136
990.10 0.1134
990.20 0.1133
990.30 0.1132
990.40 0.1131
990.50 0.113
990.60 0.1129
990.70 0.1127
990.80 0.1126
990.90 0.1125
991.00 0.1123
991.10 0.1122
991.20 0.112
991.30 0.1119
991.40 0.1118
991.50 0.1116
991.60 0.1115
991.70 0.1114
991.80 0.1112
991.90 0.1111
992.00 0.111
992.10 0.1108
992.20 0.1107
992.30 0.1105
992.40 0.1104
992.50 0.1102
992.60 0.1101
992.70 0.1099
992.80 0.1098
992.90 0.1096
993.00 0.1094
993.10 0.1093
993.20 0.1091
993.30 0.1089
993.40 0.1088
993.50 0.1086
993.60 0.1084
993.70 0.1083
993.80 0.1081
993.90 0.108
994.00 0.1078
994.10 0.1076
994.20 0.1075
994.30 0.1073
994.40 0.1071
994.50 0.107
994.60 0.1068
994.70 0.1066
994.80 0.1065
994.90 0.1063
995.00 0.1061
995.10 0.1059
995.20 0.1057
995.30 0.1055
995.40 0.1054
995.50 0.1052
995.60 0.105
995.70 0.1048
995.80 0.1046
995.90 0.1044
996.00 0.1042
996.10 0.104
996.20 0.1038
996.30 0.1036
996.40 0.1034
996.50 0.1032
996.60 0.103
996.70 0.1028
996.80 0.1026
996.90 0.1024
997.00 0.1022
997.10 0.102
997.20 0.1018
997.30 0.1016
997.40 0.1014
997.50 0.1011
997.60 0.1009
997.70 0.1007
997.80 0.1005
997.90 0.1002
998.00 0.1
998.10 0.09978
998.20 0.09955
998.30 0.09932
998.40 0.09909
998.50 0.09886
998.60 0.09863
998.70 0.0984
998.80 0.09817
998.90 0.09794
999.00 0.09771
999.10 0.09748
999.20 0.09725
999.30 0.09702
999.40 0.09679
999.50 0.09656
999.60 0.09633
999.70 0.09609
999.80 0.09584
999.90 0.0956
1000.00 0.09535
1000.10 0.0951
1000.20 0.09486
1000.30 0.09461
1000.40 0.09437
1000.50 0.09412
1000.60 0.09387
1000.70 0.09363
1000.80 0.09338
1000.90 0.09314
1001.00 0.09289
1001.10 0.09264
1001.20 0.0924
1001.30 0.09215
1001.40 0.09191
1001.50 0.09166
1001.60 0.09142
1001.70 0.09118
1001.80 0.09094
1001.90 0.09071
1002.00 0.09047
1002.10 0.09026
1002.20 0.09006
1002.30 0.08985
1002.40 0.08964
1002.50 0.08944
1002.60 0.08923
1002.70 0.08903
1002.80 0.08882
1002.90 0.08862
1003.00 0.08841
1003.10 0.08821
1003.20 0.08811
1003.30 0.08805
1003.40 0.08799
1003.50 0.08793
1003.60 0.08787
1003.70 0.08781
1003.80 0.08775
1003.90 0.08791
1004.00 0.08813
1004.10 0.08836
1004.20 0.08859
1004.30 0.08907
1004.40 0.08962
1004.50 0.09022
1004.60 0.09088
1004.70 0.08993
1004.80 0.08922
1004.90 0.08864
1005.00 0.08805
1005.10 0.08772
1005.20 0.08746
1005.30 0.08721
1005.40 0.08696
1005.50 0.08691
1005.60 0.08693
1005.70 0.08695
1005.80 0.08697
1005.90 0.087
1006.00 0.08702
1006.10 0.08704
1006.20 0.08715
1006.30 0.08728
1006.40 0.08741
1006.50 0.08754
1006.60 0.08768
1006.70 0.08781
1006.80 0.08794
1006.90 0.08808
1007.00 0.08821
1007.10 0.08837
1007.20 0.08854
1007.30 0.0887
1007.40 0.08887
1007.50 0.08903
1007.60 0.08919
1007.70 0.08936
1007.80 0.08953
1007.90 0.0897
1008.00 0.08987
1008.10 0.09004
1008.20 0.09021
1008.30 0.09038
1008.40 0.09055
1008.50 0.09072
1008.60 0.09089
1008.70 0.09106
1008.80 0.09123
1008.90 0.0914
1009.00 0.09157
1009.10 0.09174
1009.20 0.09191
1009.30 0.09208
1009.40 0.09225
1009.50 0.09242
1009.60 0.09259
1009.70 0.09274
1009.80 0.09289
1009.90 0.09303
1010.00 0.09318
1010.10 0.09332
1010.20 0.09347
1010.30 0.09361
1010.40 0.09376
1010.50 0.09391
1010.60 0.09405
1010.70 0.0942
1010.80 0.09434
1010.90 0.09449
1011.00 0.09463
1011.10 0.09478
1011.20 0.09492
1011.30 0.09507
1011.40 0.09521
1011.50 0.09536
1011.60 0.0955
1011.70 0.09563
1011.80 0.09576
1011.90 0.09588
1012.00 0.09601
1012.10 0.09612
1012.20 0.09623
1012.30 0.09634
1012.40 0.09645
1012.50 0.09656
1012.60 0.09667
1012.70 0.09678
1012.80 0.09689
1012.90 0.097
1013.00 0.09711
1013.10 0.09722
1013.20 0.09733
1013.30 0.09744
1013.40 0.09755
1013.50 0.09766
1013.60 0.09777
1013.70 0.09787
1013.80 0.09796
1013.90 0.09805
1014.00 0.09814
1014.10 0.09824
1014.20 0.09833
1014.30 0.09842
1014.40 0.09851
1014.50 0.0986
1014.60 0.09869
1014.70 0.09877
1014.80 0.09884
1014.90 0.09892
1015.00 0.09899
1015.10 0.09906
1015.20 0.09914
1015.30 0.09921
1015.40 0.09928
1015.50 0.09935
1015.60 0.09943
1015.70 0.0995
1015.80 0.09957
1015.90 0.09965
1016.00 0.09972
1016.10 0.09979
1016.20 0.09986
1016.30 0.09994
1016.40 0.1
1016.50 0.1001
1016.60 0.1002
1016.70 0.1002
1016.80 0.1003
1016.90 0.1003
1017.00 0.1004
1017.10 0.1005
1017.20 0.1005
1017.30 0.1006
1017.40 0.1006
1017.50 0.1007
1017.60 0.1007
1017.70 0.1008
1017.80 0.1008
1017.90 0.1009
1018.00 0.1009
1018.10 0.101
1018.20 0.101
1018.30 0.1011
1018.40 0.1011
1018.50 0.1012
1018.60 0.1012
1018.70 0.1013
1018.80 0.1013
1018.90 0.1013
1019.00 0.1014
1019.10 0.1014
1019.20 0.1014
1019.30 0.1015
1019.40 0.1015
1019.50 0.1015
1019.60 0.1016
1019.70 0.1016
1019.80 0.1016
1019.90 0.1017
1020.00 0.1017
1020.10 0.1018
1020.20 0.1018
1020.30 0.1018
1020.40 0.1019
1020.50 0.1019
1020.60 0.1019
1020.70 0.102
1020.80 0.102
1020.90 0.102
1021.00 0.102
1021.10 0.1021
1021.20 0.1021
1021.30 0.1021
1021.40 0.1021
1021.50 0.1022
1021.60 0.1022
1021.70 0.1022
1021.80 0.1022
1021.90 0.1023
1022.00 0.1023
1022.10 0.1023
1022.20 0.1023
1022.30 0.1023
1022.40 0.1023
1022.50 0.1024
1022.60 0.1024
1022.70 0.1024
1022.80 0.1024
1022.90 0.1024
1023.00 0.1024
1023.10 0.1024
1023.20 0.1024
1023.30 0.1025
1023.40 0.1025
1023.50 0.1025
1023.60 0.1025
1023.70 0.1025
1023.80 0.1025
1023.90 0.1025
1024.00 0.1026
1024.10 0.1026
1024.20 0.1026
1024.30 0.1026
1024.40 0.1026
1024.50 0.1026
1024.60 0.1026
1024.70 0.1026
1024.80 0.1026
1024.90 0.1026
1025.00 0.1026
1025.10 0.1027
1025.20 0.1027
1025.30 0.1027
1025.40 0.1027
1025.50 0.1027
1025.60 0.1027
1025.70 0.1027
1025.80 0.1027
1025.90 0.1027
1026.00 0.1027
1026.10 0.1027
1026.20 0.1027
1026.30 0.1027
1026.40 0.1027
1026.50 0.1027
1026.60 0.1027
1026.70 0.1027
1026.80 0.1027
1026.90 0.1027
1027.00 0.1027
1027.10 0.1027
1027.20 0.1027
1027.30 0.1027
1027.40 0.1027
1027.50 0.1027
1027.60 0.1026
1027.70 0.1026
1027.80 0.1026
1027.90 0.1026
1028.00 0.1026
1028.10 0.1026
1028.20 0.1026
1028.30 0.1026
1028.40 0.1026
1028.50 0.1026
1028.60 0.1026
1028.70 0.1026
1028.80 0.1025
1028.90 0.1025
1029.00 0.1025
1029.10 0.1025
1029.20 0.1025
1029.30 0.1025
1029.40 0.1025
1029.50 0.1025
1029.60 0.1025
1029.70 0.1025
1029.80 0.1025
1029.90 0.1024
1030.00 0.1024
1030.10 0.1024
1030.20 0.1024
1030.30 0.1024
1030.40 0.1024
1030.50 0.1024
1030.60 0.1024
1030.70 0.1024
1030.80 0.1024
1030.90 0.1024
1031.00 0.1023
1031.10 0.1023
1031.20 0.1023
1031.30 0.1023
1031.40 0.1023
1031.50 0.1023
1031.60 0.1023
1031.70 0.1023
1031.80 0.1023
1031.90 0.1023
1032.00 0.1023
1032.10 0.1022
1032.20 0.1022
1032.30 0.1022
1032.40 0.1022
1032.50 0.1022
1032.60 0.1021
1032.70 0.1021
1032.80 0.1021
1032.90 0.1021
1033.00 0.1021
1033.10 0.102
1033.20 0.102
1033.30 0.102
1033.40 0.102
1033.50 0.102
1033.60 0.102
1033.70 0.1019
1033.80 0.1019
1033.90 0.1019
1034.00 0.1019
1034.10 0.1019
1034.20 0.1018
1034.30 0.1018
1034.40 0.1018
1034.50 0.1018
1034.60 0.1018
1034.70 0.1017
1034.80 0.1017
1034.90 0.1017
1035.00 0.1017
1035.10 0.1017
1035.20 0.1016
1035.30 0.1016
1035.40 0.1016
1035.50 0.1016
1035.60 0.1016
1035.70 0.1016
1035.80 0.1015
1035.90 0.1015
1036.00 0.1015
1036.10 0.1015
1036.20 0.1015
1036.30 0.1014
1036.40 0.1014
1036.50 0.1014
1036.60 0.1014
1036.70 0.1014
1036.80 0.1013
1036.90 0.1013
1037.00 0.1013
1037.10 0.1013
1037.20 0.1013
1037.30 0.1012
1037.40 0.1012
1037.50 0.1012
1037.60 0.1011
1037.70 0.1011
1037.80 0.1011
1037.90 0.1011
1038.00 0.101
1038.10 0.101
1038.20 0.101
1038.30 0.101
1038.40 0.1009
1038.50 0.1009
1038.60 0.1009
1038.70 0.1009
1038.80 0.1008
1038.90 0.1008
1039.00 0.1008
1039.10 0.1008
1039.20 0.1007
1039.30 0.1007
1039.40 0.1007
1039.50 0.1007
1039.60 0.1006
1039.70 0.1006
1039.80 0.1006
1039.90 0.1006
1040.00 0.1005
1040.10 0.1005
1040.20 0.1005
1040.30 0.1004
1040.40 0.1004
1040.50 0.1004
1040.60 0.1004
1040.70 0.1003
1040.80 0.1003
1040.90 0.1003
1041.00 0.1003
1041.10 0.1002
1041.20 0.1002
1041.30 0.1002
1041.40 0.1002
1041.50 0.1001
1041.60 0.1001
1041.70 0.1001
1041.80 0.1001
1041.90 0.1
1042.00 0.1
1042.10 0.09998
1042.20 0.09995
1042.30 0.09992
1042.40 0.09989
1042.50 0.09986
1042.60 0.09983
1042.70 0.0998
1042.80 0.09977
1042.90 0.09974
1043.00 0.09971
1043.10 0.09968
1043.20 0.09965
1043.30 0.09962
1043.40 0.09959
1043.50 0.09956
1043.60 0.09953
1043.70 0.0995
1043.80 0.09947
1043.90 0.09944
1044.00 0.09941
1044.10 0.09938
1044.20 0.09935
1044.30 0.09932
1044.40 0.09929
1044.50 0.09926
1044.60 0.09923
1044.70 0.0992
1044.80 0.09917
1044.90 0.09914
1045.00 0.09911
1045.10 0.09908
1045.20 0.09905
1045.30 0.09902
1045.40 0.09899
1045.50 0.09896
1045.60 0.09893
1045.70 0.0989
1045.80 0.09887
1045.90 0.09884
1046.00 0.09881
1046.10 0.09879
1046.20 0.09876
1046.30 0.09873
1046.40 0.0987
1046.50 0.09867
1046.60 0.09864
1046.70 0.09861
1046.80 0.09858
1046.90 0.09855
1047.00 0.09852
1047.10 0.09848
1047.20 0.09845
1047.30 0.09842
1047.40 0.09838
1047.50 0.09835
1047.60 0.09831
1047.70 0.09828
1047.80 0.09825
1047.90 0.09821
1048.00 0.09818
1048.10 0.09814
1048.20 0.09811
1048.30 0.09808
1048.40 0.09804
1048.50 0.09801
1048.60 0.09797
1048.70 0.09794
1048.80 0.09791
1048.90 0.09787
1049.00 0.09784
1049.10 0.0978
1049.20 0.09777
1049.30 0.09774
1049.40 0.0977
1049.50 0.09767
1049.60 0.09764
1049.70 0.0976
1049.80 0.09757
1049.90 0.09753
1050.00 0.0975
1050.10 0.09747
1050.20 0.09743
1050.30 0.0974
1050.40 0.09737
1050.50 0.09733
1050.60 0.0973
1050.70 0.09726
1050.80 0.09723
1050.90 0.0972
1051.00 0.09716
1051.10 0.09713
1051.20 0.0971
1051.30 0.09706
1051.40 0.09703
1051.50 0.09699
1051.60 0.09696
1051.70 0.09693
1051.80 0.09689
1051.90 0.09686
1052.00 0.09683
1052.10 0.09679
1052.20 0.09675
1052.30 0.09672
1052.40 0.09668
1052.50 0.09664
1052.60 0.0966
1052.70 0.09657
1052.80 0.09653
1052.90 0.09649
1053.00 0.09646
1053.10 0.09642
1053.20 0.09638
1053.30 0.09634
1053.40 0.09631
1053.50 0.09627
1053.60 0.09623
1053.70 0.0962
1053.80 0.09616
1053.90 0.09612
1054.00 0.09609
1054.10 0.09605
1054.20 0.09601
1054.30 0.09598
1054.40 0.09594
1054.50 0.0959
1054.60 0.09586
1054.70 0.09583
1054.80 0.09579
1054.90 0.09575
1055.00 0.09572
1055.10 0.09568
1055.20 0.09564
1055.30 0.09561
1055.40 0.09557
1055.50 0.09553
1055.60 0.0955
1055.70 0.09546
1055.80 0.09542
1055.90 0.09539
1056.00 0.09535
1056.10 0.09531
1056.20 0.09528
1056.30 0.09524
1056.40 0.0952
1056.50 0.09517
1056.60 0.09513
1056.70 0.09509
1056.80 0.09506
1056.90 0.09502
1057.00 0.09498
1057.10 0.09494
1057.20 0.0949
1057.30 0.09486
1057.40 0.09482
1057.50 0.09477
1057.60 0.09473
1057.70 0.09469
1057.80 0.09465
1057.90 0.09461
1058.00 0.09456
1058.10 0.09452
1058.20 0.09448
1058.30 0.09444
1058.40 0.0944
1058.50 0.09435
1058.60 0.09431
1058.70 0.09427
1058.80 0.09423
1058.90 0.09419
1059.00 0.09415
1059.10 0.0941
1059.20 0.09406
1059.30 0.09402
1059.40 0.09398
1059.50 0.09394
1059.60 0.0939
1059.70 0.09385
1059.80 0.09381
1059.90 0.09377
1060.00 0.09373
1060.10 0.09369
1060.20 0.09365
1060.30 0.0936
1060.40 0.09356
1060.50 0.09352
1060.60 0.09348
1060.70 0.09344
1060.80 0.0934
1060.90 0.09336
1061.00 0.09331
1061.10 0.09327
1061.20 0.09323
1061.30 0.09319
1061.40 0.09315
1061.50 0.09311
1061.60 0.09307
1061.70 0.09302
1061.80 0.09298
1061.90 0.09294
1062.00 0.0929
1062.10 0.09285
1062.20 0.0928
1062.30 0.09276
1062.40 0.09271
1062.50 0.09266
1062.60 0.09261
1062.70 0.09256
1062.80 0.09252
1062.90 0.09247
1063.00 0.09242
1063.10 0.09237
1063.20 0.09232
1063.30 0.09228
1063.40 0.09223
1063.50 0.09218
1063.60 0.09213
1063.70 0.09208
1063.80 0.09204
1063.90 0.09199
1064.00 0.09194
1064.10 0.09189
1064.20 0.09185
1064.30 0.0918
1064.40 0.09175
1064.50 0.0917
1064.60 0.09165
1064.70 0.09161
1064.80 0.09156
1064.90 0.09151
1065.00 0.09146
1065.10 0.09142
1065.20 0.09137
1065.30 0.09132
1065.40 0.09127
1065.50 0.09123
1065.60 0.09118
1065.70 0.09113
1065.80 0.09108
1065.90 0.09104
1066.00 0.09099
1066.10 0.09094
1066.20 0.09089
1066.30 0.09085
1066.40 0.0908
1066.50 0.09075
1066.60 0.0907
1066.70 0.09066
1066.80 0.09061
1066.90 0.09056
1067.00 0.09051
1067.10 0.09046
1067.20 0.0904
1067.30 0.09034
1067.40 0.09028
1067.50 0.09023
1067.60 0.09017
1067.70 0.09011
1067.80 0.09005
1067.90 0.09
1068.00 0.08994
1068.10 0.08988
1068.20 0.08982
1068.30 0.08977
1068.40 0.08971
1068.50 0.08965
1068.60 0.08959
1068.70 0.08954
1068.80 0.08948
1068.90 0.08942
1069.00 0.08937
1069.10 0.08931
1069.20 0.08925
1069.30 0.08919
1069.40 0.08914
1069.50 0.08908
1069.60 0.08902
1069.70 0.08897
1069.80 0.08891
1069.90 0.08885
1070.00 0.08879
1070.10 0.08874
1070.20 0.08868
1070.30 0.08862
1070.40 0.08857
1070.50 0.08851
1070.60 0.08845
1070.70 0.08839
1070.80 0.08834
1070.90 0.08828
1071.00 0.08822
1071.10 0.08817
1071.20 0.08811
1071.30 0.08805
1071.40 0.088
1071.50 0.08794
1071.60 0.08788
1071.70 0.08783
1071.80 0.08777
1071.90 0.08771
1072.00 0.08766
1072.10 0.08759
1072.20 0.08753
1072.30 0.08746
1072.40 0.08739
1072.50 0.08733
1072.60 0.08726
1072.70 0.0872
1072.80 0.08713
1072.90 0.08707
1073.00 0.087
1073.10 0.08694
1073.20 0.08687
1073.30 0.08681
1073.40 0.08674
1073.50 0.08667
1073.60 0.0866
1073.70 0.08652
1073.80 0.08645
1073.90 0.08637
1074.00 0.08629
1074.10 0.08622
1074.20 0.08614
1074.30 0.08607
1074.40 0.08599
1074.50 0.08592
1074.60 0.08584
1074.70 0.08577
1074.80 0.08569
1074.90 0.08562
1075.00 0.08554
1075.10 0.08547
1075.20 0.08539
1075.30 0.08532
1075.40 0.08524
1075.50 0.08516
1075.60 0.08509
1075.70 0.08501
1075.80 0.08494
1075.90 0.08486
1076.00 0.08479
1076.10 0.08471
1076.20 0.08464
1076.30 0.08456
1076.40 0.08449
1076.50 0.08441
1076.60 0.08434
1076.70 0.08426
1076.80 0.08419
1076.90 0.08412
1077.00 0.08404
1077.10 0.08396
1077.20 0.08387
1077.30 0.08379
1077.40 0.08371
1077.50 0.08362
1077.60 0.08353
1077.70 0.08344
1077.80 0.08335
1077.90 0.08326
1078.00 0.08317
1078.10 0.08308
1078.20 0.08299
1078.30 0.0829
1078.40 0.08281
1078.50 0.08272
1078.60 0.08263
1078.70 0.08254
1078.80 0.08245
1078.90 0.08235
1079.00 0.08226
1079.10 0.08217
1079.20 0.08208
1079.30 0.08199
1079.40 0.0819
1079.50 0.08181
1079.60 0.08171
1079.70 0.0816
1079.80 0.0815
1079.90 0.0814
1080.00 0.0813
1080.10 0.08119
1080.20 0.08109
1080.30 0.08099
1080.40 0.08088
1080.50 0.08078
1080.60 0.08068
1080.70 0.08058
1080.80 0.08047
1080.90 0.08037
1081.00 0.08027
1081.10 0.08017
1081.20 0.08006
1081.30 0.07996
1081.40 0.07986
1081.50 0.07975
1081.60 0.07964
1081.70 0.07953
1081.80 0.07942
1081.90 0.07931
1082.00 0.07919
1082.10 0.07907
1082.20 0.07895
1082.30 0.07883
1082.40 0.07871
1082.50 0.07859
1082.60 0.07847
1082.70 0.07835
1082.80 0.07823
1082.90 0.07811
1083.00 0.07799
1083.10 0.07787
1083.20 0.07775
1083.30 0.07763
1083.40 0.0775
1083.50 0.07738
1083.60 0.07725
1083.70 0.07712
1083.80 0.07698
1083.90 0.07685
1084.00 0.07672
1084.10 0.07659
1084.20 0.07645
1084.30 0.07632
1084.40 0.07619
1084.50 0.07605
1084.60 0.0759
1084.70 0.07575
1084.80 0.0756
1084.90 0.07545
1085.00 0.0753
1085.10 0.07515
1085.20 0.075
1085.30 0.07485
1085.40 0.07471
1085.50 0.07456
1085.60 0.07441
1085.70 0.07426
1085.80 0.07411
1085.90 0.07396
1086.00 0.07381
1086.10 0.07366
1086.20 0.07351
1086.30 0.07336
1086.40 0.07322
1086.50 0.07306
1086.60 0.0729
1086.70 0.07273
1086.80 0.07257
1086.90 0.0724
1087.00 0.07224
1087.10 0.07206
1087.20 0.07188
1087.30 0.0717
1087.40 0.07152
1087.50 0.07134
1087.60 0.07117
1087.70 0.07099
1087.80 0.07081
1087.90 0.07063
1088.00 0.07045
1088.10 0.07028
1088.20 0.0701
1088.30 0.06992
1088.40 0.06974
1088.50 0.06956
1088.60 0.06936
1088.70 0.06917
1088.80 0.06897
1088.90 0.06877
1089.00 0.06858
1089.10 0.06838
1089.20 0.06818
1089.30 0.06799
1089.40 0.06779
1089.50 0.0676
1089.60 0.0674
1089.70 0.06721
1089.80 0.06701
1089.90 0.06681
1090.00 0.06662
1090.10 0.06642
1090.20 0.06623
1090.30 0.06603
1090.40 0.06584
1090.50 0.06564
1090.60 0.06544
1090.70 0.06524
1090.80 0.06504
1090.90 0.06484
1091.00 0.06464
1091.10 0.06444
1091.20 0.06424
1091.30 0.06403
1091.40 0.06383
1091.50 0.06363
1091.60 0.06343
1091.70 0.06323
1091.80 0.06303
1091.90 0.06283
1092.00 0.06263
1092.10 0.06245
1092.20 0.06227
1092.30 0.06208
1092.40 0.0619
1092.50 0.06172
1092.60 0.06153
1092.70 0.06137
1092.80 0.06125
1092.90 0.06112
1093.00 0.061
1093.10 0.06095
1093.20 0.06105
1093.30 0.06116
1093.40 0.06159
1093.50 0.06175
1093.60 0.06123
1093.70 0.061
1093.80 0.06087
1093.90 0.06081
1094.00 0.06089
1094.10 0.06098
1094.20 0.06107
1094.30 0.06117
1094.40 0.06132
1094.50 0.06146
1094.60 0.06161
1094.70 0.06176
1094.80 0.0619
1094.90 0.06205
1095.00 0.0622
1095.10 0.06236
1095.20 0.06252
1095.30 0.06268
1095.40 0.06284
1095.50 0.063
1095.60 0.06316
1095.70 0.06331
1095.80 0.06347
1095.90 0.06363
1096.00 0.06379
1096.10 0.06395
1096.20 0.06411
1096.30 0.06427
1096.40 0.06443
1096.50 0.06459
1096.60 0.06474
1096.70 0.0649
1096.80 0.06506
1096.90 0.06521
1097.00 0.06537
1097.10 0.06552
1097.20 0.06566
1097.30 0.06581
1097.40 0.06596
1097.50 0.0661
1097.60 0.06625
1097.70 0.0664
1097.80 0.06655
1097.90 0.06669
1098.00 0.06684
1098.10 0.06699
1098.20 0.06713
1098.30 0.06728
1098.40 0.06743
1098.50 0.06757
1098.60 0.06769
1098.70 0.06781
1098.80 0.06794
1098.90 0.06806
1099.00 0.06819
1099.10 0.06831
1099.20 0.06844
1099.30 0.06856
1099.40 0.06869
1099.50 0.06881
1099.60 0.06893
1099.70 0.06906
1099.80 0.06918
1099.90 0.06931
1100.00 0.06943
1100.10 0.06955
1100.20 0.06968
1100.30 0.0698
1100.40 0.06993
1100.50 0.07004
1100.60 0.07014
1100.70 0.07024
1100.80 0.07034
1100.90 0.07044
1101.00 0.07054
1101.10 0.07064
1101.20 0.07074
1101.30 0.07084
1101.40 0.07094
1101.50 0.07104
1101.60 0.07114
1101.70 0.07123
1101.80 0.07133
1101.90 0.07143
1102.00 0.07153
1102.10 0.07162
1102.20 0.07171
1102.30 0.07179
1102.40 0.07188
1102.50 0.07196
1102.60 0.07204
1102.70 0.07212
1102.80 0.0722
1102.90 0.07228
1103.00 0.07235
1103.10 0.07243
1103.20 0.07251
1103.30 0.07259
1103.40 0.07267
1103.50 0.07274
1103.60 0.0728
1103.70 0.07287
1103.80 0.07293
1103.90 0.07299
1104.00 0.07305
1104.10 0.07312
1104.20 0.07318
1104.30 0.07324
1104.40 0.0733
1104.50 0.07337
1104.60 0.07343
1104.70 0.07349
1104.80 0.07356
1104.90 0.07362
1105.00 0.07368
1105.10 0.07374
1105.20 0.07381
1105.30 0.07387
1105.40 0.07393
1105.50 0.07399
1105.60 0.07404
1105.70 0.07409
1105.80 0.07413
1105.90 0.07418
1106.00 0.07423
1106.10 0.07428
1106.20 0.07433
1106.30 0.07437
1106.40 0.07442
1106.50 0.07447
1106.60 0.07452
1106.70 0.07457
1106.80 0.07461
1106.90 0.07466
1107.00 0.07471
1107.10 0.07475
1107.20 0.07479
1107.30 0.07483
1107.40 0.07487
1107.50 0.07491
1107.60 0.07494
1107.70 0.07498
1107.80 0.07501
1107.90 0.07504
1108.00 0.07508
1108.10 0.07511
1108.20 0.07514
1108.30 0.07518
1108.40 0.07521
1108.50 0.07524
1108.60 0.07528
1108.70 0.07531
1108.80 0.07534
1108.90 0.07538
1109.00 0.07541
1109.10 0.07544
1109.20 0.07548
1109.30 0.07551
1109.40 0.07554
1109.50 0.07557
1109.60 0.07559
1109.70 0.07561
1109.80 0.07564
1109.90 0.07566
1110.00 0.07568
1110.10 0.0757
1110.20 0.07572
1110.30 0.07574
1110.40 0.07577
1110.50 0.07579
1110.60 0.07581
1110.70 0.07583
1110.80 0.07585
1110.90 0.07587
1111.00 0.0759
1111.10 0.07592
1111.20 0.07594
1111.30 0.07596
1111.40 0.07598
1111.50 0.076
1111.60 0.07603
1111.70 0.07605
1111.80 0.07607
1111.90 0.07609
1112.00 0.07611
1112.10 0.07612
1112.20 0.07614
1112.30 0.07615
1112.40 0.07617
1112.50 0.07618
1112.60 0.07619
1112.70 0.07621
1112.80 0.07622
1112.90 0.07623
1113.00 0.07625
1113.10 0.07626
1113.20 0.07628
1113.30 0.07629
1113.40 0.0763
1113.50 0.07631
1113.60 0.07632
1113.70 0.07632
1113.80 0.07633
1113.90 0.07633
1114.00 0.07634
1114.10 0.07634
1114.20 0.07635
1114.30 0.07635
1114.40 0.07636
1114.50 0.07636
1114.60 0.07637
1114.70 0.07637
1114.80 0.07638
1114.90 0.07638
1115.00 0.07639
1115.10 0.07639
1115.20 0.0764
1115.30 0.0764
1115.40 0.07641
1115.50 0.07641
1115.60 0.07642
1115.70 0.07642
1115.80 0.07643
1115.90 0.07643
1116.00 0.07644
1116.10 0.07644
1116.20 0.07645
1116.30 0.07645
1116.40 0.07646
1116.50 0.07646
1116.60 0.07647
1116.70 0.07647
1116.80 0.07648
1116.90 0.07648
1117.00 0.07649
1117.10 0.07648
1117.20 0.07648
1117.30 0.07647
1117.40 0.07647
1117.50 0.07646
1117.60 0.07646
1117.70 0.07646
1117.80 0.07645
1117.90 0.07645
1118.00 0.07644
1118.10 0.07644
1118.20 0.07643
1118.30 0.07643
1118.40 0.07642
1118.50 0.07642
1118.60 0.07642
1118.70 0.07641
1118.80 0.07641
1118.90 0.0764
1119.00 0.0764
1119.10 0.07639
1119.20 0.07639
1119.30 0.07638
1119.40 0.07638
1119.50 0.07638
1119.60 0.07637
1119.70 0.07637
1119.80 0.07636
1119.90 0.07636
1120.00 0.07635
1120.10 0.07635
1120.20 0.07635
1120.30 0.07634
1120.40 0.07634
1120.50 0.07633
1120.60 0.07633
1120.70 0.07632
1120.80 0.07632
1120.90 0.07631
1121.00 0.07631
1121.10 0.07631
1121.20 0.0763
1121.30 0.0763
1121.40 0.07629
1121.50 0.07629
1121.60 0.07628
1121.70 0.07628
1121.80 0.07627
1121.90 0.07627
1122.00 0.07627
1122.10 0.07625
1122.20 0.07624
1122.30 0.07623
1122.40 0.07622
1122.50 0.07621
1122.60 0.0762
1122.70 0.07619
1122.80 0.07617
1122.90 0.07616
1123.00 0.07615
1123.10 0.07614
1123.20 0.07613
1123.30 0.07612
1123.40 0.07611
1123.50 0.07609
1123.60 0.07608
1123.70 0.07607
1123.80 0.07606
1123.90 0.07605
1124.00 0.07604
1124.10 0.07603
1124.20 0.07601
1124.30 0.076
1124.40 0.07599
1124.50 0.07598
1124.60 0.07597
1124.70 0.07596
1124.80 0.07595
1124.90 0.07593
1125.00 0.07592
1125.10 0.07591
1125.20 0.0759
1125.30 0.07589
1125.40 0.07588
1125.50 0.07587
1125.60 0.07585
1125.70 0.07584
1125.80 0.07583
1125.90 0.07582
1126.00 0.07581
1126.10 0.0758
1126.20 0.07579
1126.30 0.07578
1126.40 0.07576
1126.50 0.07575
1126.60 0.07574
1126.70 0.07573
1126.80 0.07572
1126.90 0.07571
1127.00 0.0757
1127.10 0.07568
1127.20 0.07566
1127.30 0.07565
1127.40 0.07563
1127.50 0.07562
1127.60 0.0756
1127.70 0.07558
1127.80 0.07557
1127.90 0.07555
1128.00 0.07554
1128.10 0.07552
1128.20 0.0755
1128.30 0.07549
1128.40 0.07547
1128.50 0.07546
1128.60 0.07544
1128.70 0.07543
1128.80 0.07541
1128.90 0.07539
1129.00 0.07538
1129.10 0.07536
1129.20 0.07535
1129.30 0.07533
1129.40 0.07531
1129.50 0.0753
1129.60 0.07528
1129.70 0.07527
1129.80 0.07525
1129.90 0.07524
1130.00 0.07522
1130.10 0.0752
1130.20 0.07519
1130.30 0.07517
1130.40 0.07516
1130.50 0.07514
1130.60 0.07513
1130.70 0.07511
1130.80 0.07509
1130.90 0.07508
1131.00 0.07506
1131.10 0.07505
1131.20 0.07503
1131.30 0.07502
1131.40 0.075
1131.50 0.07498
1131.60 0.07497
1131.70 0.07495
1131.80 0.07494
1131.90 0.07492
1132.00 0.07491
1132.10 0.07489
1132.20 0.07487
1132.30 0.07485
1132.40 0.07483
1132.50 0.07481
1132.60 0.0748
1132.70 0.07478
1132.80 0.07476
1132.90 0.07474
1133.00 0.07472
1133.10 0.07471
1133.20 0.07469
1133.30 0.07467
1133.40 0.07465
1133.50 0.07463
1133.60 0.07461
1133.70 0.0746
1133.80 0.07458
1133.90 0.07456
1134.00 0.07454
1134.10 0.07452
1134.20 0.07451
1134.30 0.07449
1134.40 0.07447
1134.50 0.07445
1134.60 0.07443
1134.70 0.07442
1134.80 0.0744
1134.90 0.07438
1135.00 0.07436
1135.10 0.07434
1135.20 0.07433
1135.30 0.07431
1135.40 0.07429
1135.50 0.07427
1135.60 0.07425
1135.70 0.07424
1135.80 0.07422
1135.90 0.0742
1136.00 0.07418
1136.10 0.07416
1136.20 0.07415
1136.30 0.07413
1136.40 0.07411
1136.50 0.07409
1136.60 0.07407
1136.70 0.07406
1136.80 0.07404
1136.90 0.07402
1137.00 0.074
1137.10 0.07398
1137.20 0.07396
1137.30 0.07394
1137.40 0.07392
1137.50 0.0739
1137.60 0.07388
1137.70 0.07386
1137.80 0.07384
1137.90 0.07382
1138.00 0.0738
1138.10 0.07379
1138.20 0.07377
1138.30 0.07375
1138.40 0.07373
1138.50 0.07371
1138.60 0.07369
1138.70 0.07367
1138.80 0.07365
1138.90 0.07363
1139.00 0.07361
1139.10 0.07359
1139.20 0.07357
1139.30 0.07355
1139.40 0.07353
1139.50 0.07351
1139.60 0.07349
1139.70 0.07347
1139.80 0.07345
1139.90 0.07343
1140.00 0.07341
1140.10 0.07339
1140.20 0.07337
1140.30 0.07335
1140.40 0.07333
1140.50 0.07331
1140.60 0.07329
1140.70 0.07328
1140.80 0.07326
1140.90 0.07324
1141.00 0.07322
1141.10 0.0732
1141.20 0.07318
1141.30 0.07316
1141.40 0.07314
1141.50 0.07312
1141.60 0.0731
1141.70 0.07308
1141.80 0.07306
1141.90 0.07304
1142.00 0.07302
1142.10 0.073
1142.20 0.07298
1142.30 0.07296
1142.40 0.07294
1142.50 0.07292
1142.60 0.0729
1142.70 0.07288
1142.80 0.07286
1142.90 0.07284
1143.00 0.07282
1143.10 0.0728
1143.20 0.07278
1143.30 0.07276
1143.40 0.07274
1143.50 0.07272
1143.60 0.0727
1143.70 0.07268
1143.80 0.07266
1143.90 0.07264
1144.00 0.07262
1144.10 0.0726
1144.20 0.07257
1144.30 0.07255
1144.40 0.07253
1144.50 0.07251
1144.60 0.07249
1144.70 0.07247
1144.80 0.07245
1144.90 0.07243
1145.00 0.07241
1145.10 0.07239
1145.20 0.07237
1145.30 0.07235
1145.40 0.07233
1145.50 0.07231
1145.60 0.07229
1145.70 0.07227
1145.80 0.07225
1145.90 0.07223
1146.00 0.07221
1146.10 0.07219
1146.20 0.07217
1146.30 0.07215
1146.40 0.07213
1146.50 0.07211
1146.60 0.07209
1146.70 0.07207
1146.80 0.07205
1146.90 0.07203
1147.00 0.07201
1147.10 0.07199
1147.20 0.07197
1147.30 0.07195
1147.40 0.07193
1147.50 0.07191
1147.60 0.07188
1147.70 0.07186
1147.80 0.07184
1147.90 0.07182
1148.00 0.0718
1148.10 0.07178
1148.20 0.07176
1148.30 0.07174
1148.40 0.07172
1148.50 0.0717
1148.60 0.07168
1148.70 0.07166
1148.80 0.07163
1148.90 0.07161
1149.00 0.07159
1149.10 0.07157
1149.20 0.07155
1149.30 0.07153
1149.40 0.07151
1149.50 0.07149
1149.60 0.07147
1149.70 0.07145
1149.80 0.07143
1149.90 0.07141
1150.00 0.07138
1150.10 0.07136
1150.20 0.07134
1150.30 0.07132
1150.40 0.0713
1150.50 0.07128
1150.60 0.07126
1150.70 0.07124
1150.80 0.07122
1150.90 0.0712
1151.00 0.07118
1151.10 0.07116
1151.20 0.07114
1151.30 0.07112
1151.40 0.07109
1151.50 0.07107
1151.60 0.07105
1151.70 0.07103
1151.80 0.07101
1151.90 0.07099
1152.00 0.07097
1152.10 0.07095
1152.20 0.07093
1152.30 0.07091
1152.40 0.07089
1152.50 0.07087
1152.60 0.07085
1152.70 0.07082
1152.80 0.0708
1152.90 0.07078
1153.00 0.07076
1153.10 0.07074
1153.20 0.07072
1153.30 0.0707
1153.40 0.07068
1153.50 0.07066
1153.60 0.07064
1153.70 0.07062
1153.80 0.07059
1153.90 0.07057
1154.00 0.07055
1154.10 0.07053
1154.20 0.07051
1154.30 0.07049
1154.40 0.07047
1154.50 0.07045
1154.60 0.07043
1154.70 0.07041
1154.80 0.07039
1154.90 0.07037
1155.00 0.07035
1155.10 0.07032
1155.20 0.0703
1155.30 0.07028
1155.40 0.07026
1155.50 0.07024
1155.60 0.07022
1155.70 0.0702
1155.80 0.07018
1155.90 0.07016
1156.00 0.07014
1156.10 0.07012
1156.20 0.0701
1156.30 0.07008
1156.40 0.07006
1156.50 0.07004
1156.60 0.07001
1156.70 0.06999
1156.80 0.06997
1156.90 0.06995
1157.00 0.06993
1157.10 0.06991
1157.20 0.06989
1157.30 0.06987
1157.40 0.06985
1157.50 0.06983
1157.60 0.06981
1157.70 0.06979
1157.80 0.06976
1157.90 0.06974
1158.00 0.06972
1158.10 0.0697
1158.20 0.06968
1158.30 0.06966
1158.40 0.06964
1158.50 0.06962
1158.60 0.0696
1158.70 0.06958
1158.80 0.06956
1158.90 0.06953
1159.00 0.06951
1159.10 0.06949
1159.20 0.06947
1159.30 0.06945
1159.40 0.06943
1159.50 0.06941
1159.60 0.06939
1159.70 0.06937
1159.80 0.06935
1159.90 0.06933
1160.00 0.06931
1160.10 0.06928
1160.20 0.06926
1160.30 0.06924
1160.40 0.06922
1160.50 0.0692
1160.60 0.06918
1160.70 0.06916
1160.80 0.06914
1160.90 0.06912
1161.00 0.0691
1161.10 0.06908
1161.20 0.06906
1161.30 0.06904
1161.40 0.06901
1161.50 0.06899
1161.60 0.06897
1161.70 0.06895
1161.80 0.06893
1161.90 0.06891
1162.00 0.06889
1162.10 0.06887
1162.20 0.06885
1162.30 0.06883
1162.40 0.06881
1162.50 0.06879
1162.60 0.06877
1162.70 0.06874
1162.80 0.06872
1162.90 0.0687
1163.00 0.06868
1163.10 0.06866
1163.20 0.06864
1163.30 0.06862
1163.40 0.0686
1163.50 0.06858
1163.60 0.06856
1163.70 0.06854
1163.80 0.06852
1163.90 0.06849
1164.00 0.06847
1164.10 0.06845
1164.20 0.06843
1164.30 0.06841
1164.40 0.06839
1164.50 0.06837
1164.60 0.06835
1164.70 0.06833
1164.80 0.06831
1164.90 0.06829
1165.00 0.06827
1165.10 0.06825
1165.20 0.06823
1165.30 0.0682
1165.40 0.06818
1165.50 0.06816
1165.60 0.06814
1165.70 0.06812
1165.80 0.0681
1165.90 0.06808
1166.00 0.06806
1166.10 0.06804
1166.20 0.06802
1166.30 0.068
1166.40 0.06798
1166.50 0.06796
1166.60 0.06794
1166.70 0.06792
1166.80 0.0679
1166.90 0.06787
1167.00 0.06785
1167.10 0.06783
1167.20 0.06781
1167.30 0.06779
1167.40 0.06777
1167.50 0.06775
1167.60 0.06773
1167.70 0.06771
1167.80 0.06769
1167.90 0.06767
1168.00 0.06765
1168.10 0.06763
1168.20 0.06761
1168.30 0.06759
1168.40 0.06756
1168.50 0.06754
1168.60 0.06752
1168.70 0.0675
1168.80 0.06748
1168.90 0.06746
1169.00 0.06744
1169.10 0.06742
1169.20 0.0674
1169.30 0.06738
1169.40 0.06736
1169.50 0.06734
1169.60 0.06732
1169.70 0.0673
1169.80 0.06728
1169.90 0.06726
1170.00 0.06724
1170.10 0.06722
1170.20 0.0672
1170.30 0.06717
1170.40 0.06715
1170.50 0.06713
1170.60 0.06711
1170.70 0.06709
1170.80 0.06707
1170.90 0.06705
1171.00 0.06703
1171.10 0.06701
1171.20 0.06699
1171.30 0.06697
1171.40 0.06695
1171.50 0.06693
1171.60 0.06691
1171.70 0.06689
1171.80 0.06687
1171.90 0.06685
1172.00 0.06683
1172.10 0.06681
1172.20 0.06679
1172.30 0.06677
1172.40 0.06675
1172.50 0.06673
1172.60 0.0667
1172.70 0.06668
1172.80 0.06666
1172.90 0.06664
1173.00 0.06662
1173.10 0.0666
1173.20 0.06658
1173.30 0.06656
1173.40 0.06654
1173.50 0.06652
1173.60 0.0665
1173.70 0.06648
1173.80 0.06646
1173.90 0.06644
1174.00 0.06642
1174.10 0.0664
1174.20 0.06638
1174.30 0.06636
1174.40 0.06634
1174.50 0.06632
1174.60 0.0663
1174.70 0.06628
1174.80 0.06626
1174.90 0.06624
1175.00 0.06622
1175.10 0.0662
1175.20 0.06618
1175.30 0.06616
1175.40 0.06614
1175.50 0.06612
1175.60 0.0661
1175.70 0.06608
1175.80 0.06606
1175.90 0.06604
1176.00 0.06602
1176.10 0.066
1176.20 0.06598
1176.30 0.06596
1176.40 0.06594
1176.50 0.06592
1176.60 0.0659
1176.70 0.06588
1176.80 0.06586
1176.90 0.06583
1177.00 0.06581
1177.10 0.06579
1177.20 0.06577
1177.30 0.06575
1177.40 0.06573
1177.50 0.06571
1177.60 0.06569
1177.70 0.06567
1177.80 0.06565
1177.90 0.06563
1178.00 0.06561
1178.10 0.06559
1178.20 0.06557
1178.30 0.06555
1178.40 0.06553
1178.50 0.06551
1178.60 0.06549
1178.70 0.06547
1178.80 0.06545
1178.90 0.06543
1179.00 0.06541
1179.10 0.06539
1179.20 0.06537
1179.30 0.06535
1179.40 0.06533
1179.50 0.06531
1179.60 0.06529
1179.70 0.06527
1179.80 0.06525
1179.90 0.06523
1180.00 0.06521
1180.10 0.06519
1180.20 0.06517
1180.30 0.06515
1180.40 0.06513
1180.50 0.06511
1180.60 0.06509
1180.70 0.06507
1180.80 0.06505
1180.90 0.06503
1181.00 0.06501
1181.10 0.06499
1181.20 0.06497
1181.30 0.06495
1181.40 0.06493
1181.50 0.06491
1181.60 0.06489
1181.70 0.06487
1181.80 0.06485
1181.90 0.06483
1182.00 0.06481
1182.10 0.06479
1182.20 0.06477
1182.30 0.06475
1182.40 0.06473
1182.50 0.06471
1182.60 0.06469
1182.70 0.06467
1182.80 0.06465
1182.90 0.06463
1183.00 0.06461
1183.10 0.06459
1183.20 0.06457
1183.30 0.06455
1183.40 0.06453
1183.50 0.06451
1183.60 0.06449
1183.70 0.06447
1183.80 0.06445
1183.90 0.06443
1184.00 0.06441
1184.10 0.06439
1184.20 0.06437
1184.30 0.06435
1184.40 0.06433
1184.50 0.06431
1184.60 0.06429
1184.70 0.06427
1184.80 0.06426
1184.90 0.06424
1185.00 0.06422
1185.10 0.0642
1185.20 0.06418
1185.30 0.06416
1185.40 0.06414
1185.50 0.06412
1185.60 0.0641
1185.70 0.06408
1185.80 0.06406
1185.90 0.06404
1186.00 0.06402
1186.10 0.064
1186.20 0.06398
1186.30 0.06396
1186.40 0.06394
1186.50 0.06392
1186.60 0.0639
1186.70 0.06388
1186.80 0.06386
1186.90 0.06384
1187.00 0.06382
1187.10 0.0638
1187.20 0.06378
1187.30 0.06376
1187.40 0.06374
1187.50 0.06372
1187.60 0.0637
1187.70 0.06368
1187.80 0.06366
1187.90 0.06364
1188.00 0.06362
1188.10 0.0636
1188.20 0.06359
1188.30 0.06357
1188.40 0.06355
1188.50 0.06353
1188.60 0.06351
1188.70 0.06349
1188.80 0.06347
1188.90 0.06345
1189.00 0.06343
1189.10 0.06341
1189.20 0.06339
1189.30 0.06337
1189.40 0.06335
1189.50 0.06333
1189.60 0.06331
1189.70 0.06329
1189.80 0.06327
1189.90 0.06325
1190.00 0.06323
1190.10 0.06321
1190.20 0.06319
1190.30 0.06317
1190.40 0.06316
1190.50 0.06314
1190.60 0.06312
1190.70 0.0631
1190.80 0.06308
1190.90 0.06306
1191.00 0.06304
1191.10 0.06302
1191.20 0.063
1191.30 0.06298
1191.40 0.06296
1191.50 0.06294
1191.60 0.06292
1191.70 0.0629
1191.80 0.06288
1191.90 0.06286
1192.00 0.06284
1192.10 0.06283
1192.20 0.06281
1192.30 0.06279
1192.40 0.06277
1192.50 0.06275
1192.60 0.06273
1192.70 0.06271
1192.80 0.06269
1192.90 0.06267
1193.00 0.06265
1193.10 0.06263
1193.20 0.06261
1193.30 0.06259
1193.40 0.06257
1193.50 0.06255
1193.60 0.06253
1193.70 0.06251
1193.80 0.0625
1193.90 0.06248
1194.00 0.06246
1194.10 0.06244
1194.20 0.06242
1194.30 0.0624
1194.40 0.06238
1194.50 0.06236
1194.60 0.06234
1194.70 0.06232
1194.80 0.0623
1194.90 0.06228
1195.00 0.06226
1195.10 0.06224
1195.20 0.06222
1195.30 0.06221
1195.40 0.06219
1195.50 0.06217
1195.60 0.06215
1195.70 0.06213
1195.80 0.06211
1195.90 0.06209
1196.00 0.06207
1196.10 0.06205
1196.20 0.06203
1196.30 0.06201
1196.40 0.06199
1196.50 0.06197
1196.60 0.06196
1196.70 0.06194
1196.80 0.06192
1196.90 0.0619
1197.00 0.06188
1197.10 0.06186
1197.20 0.06184
1197.30 0.06182
1197.40 0.0618
1197.50 0.06178
1197.60 0.06176
1197.70 0.06174
1197.80 0.06172
1197.90 0.06171
1198.00 0.06169
1198.10 0.06167
1198.20 0.06165
1198.30 0.06163
1198.40 0.06161
1198.50 0.06159
1198.60 0.06157
1198.70 0.06155
1198.80 0.06153
1198.90 0.06151
1199.00 0.0615
1199.10 0.06148
1199.20 0.06146
1199.30 0.06144
1199.40 0.06142
1199.50 0.0614
1199.60 0.06138
1199.70 0.06136
1199.80 0.06134
1199.90 0.06132
1200.00 0
