# Version 2.1 - nm, norm@500 to 1, cut digits, bergeron_35000_85.dat_35000
# Wavelength(nm)  Flambda(ergs/cm^s/s/nm)
300.00 5.579
300.10 5.573
300.20 5.566
300.30 5.56
300.40 5.553
300.50 5.547
300.60 5.54
300.70 5.534
300.80 5.528
300.90 5.521
301.00 5.515
301.10 5.508
301.20 5.502
301.30 5.495
301.40 5.489
301.50 5.483
301.60 5.476
301.70 5.47
301.80 5.464
301.90 5.457
302.00 5.451
302.10 5.445
302.20 5.438
302.30 5.432
302.40 5.426
302.50 5.419
302.60 5.413
302.70 5.407
302.80 5.401
302.90 5.394
303.00 5.388
303.10 5.382
303.20 5.376
303.30 5.37
303.40 5.363
303.50 5.357
303.60 5.351
303.70 5.345
303.80 5.339
303.90 5.332
304.00 5.326
304.10 5.32
304.20 5.314
304.30 5.308
304.40 5.302
304.50 5.296
304.60 5.29
304.70 5.284
304.80 5.278
304.90 5.271
305.00 5.265
305.10 5.259
305.20 5.253
305.30 5.247
305.40 5.241
305.50 5.235
305.60 5.229
305.70 5.223
305.80 5.217
305.90 5.211
306.00 5.205
306.10 5.199
306.20 5.193
306.30 5.187
306.40 5.181
306.50 5.176
306.60 5.17
306.70 5.164
306.80 5.158
306.90 5.152
307.00 5.146
307.10 5.14
307.20 5.134
307.30 5.128
307.40 5.123
307.50 5.117
307.60 5.111
307.70 5.105
307.80 5.099
307.90 5.093
308.00 5.088
308.10 5.082
308.20 5.076
308.30 5.07
308.40 5.065
308.50 5.059
308.60 5.053
308.70 5.047
308.80 5.042
308.90 5.036
309.00 5.03
309.10 5.024
309.20 5.019
309.30 5.013
309.40 5.007
309.50 5.002
309.60 4.996
309.70 4.99
309.80 4.985
309.90 4.979
310.00 4.973
310.10 4.968
310.20 4.962
310.30 4.957
310.40 4.951
310.50 4.945
310.60 4.94
310.70 4.934
310.80 4.929
310.90 4.923
311.00 4.917
311.10 4.912
311.20 4.906
311.30 4.901
311.40 4.895
311.50 4.89
311.60 4.884
311.70 4.879
311.80 4.873
311.90 4.868
312.00 4.862
312.10 4.857
312.20 4.851
312.30 4.846
312.40 4.84
312.50 4.835
312.60 4.83
312.70 4.824
312.80 4.819
312.90 4.813
313.00 4.808
313.10 4.802
313.20 4.797
313.30 4.792
313.40 4.786
313.50 4.781
313.60 4.776
313.70 4.77
313.80 4.765
313.90 4.76
314.00 4.754
314.10 4.749
314.20 4.744
314.30 4.738
314.40 4.733
314.50 4.728
314.60 4.722
314.70 4.717
314.80 4.712
314.90 4.707
315.00 4.701
315.10 4.696
315.20 4.691
315.30 4.686
315.40 4.681
315.50 4.675
315.60 4.67
315.70 4.665
315.80 4.66
315.90 4.655
316.00 4.649
316.10 4.644
316.20 4.639
316.30 4.634
316.40 4.629
316.50 4.624
316.60 4.618
316.70 4.613
316.80 4.608
316.90 4.603
317.00 4.598
317.10 4.593
317.20 4.588
317.30 4.583
317.40 4.578
317.50 4.573
317.60 4.567
317.70 4.562
317.80 4.557
317.90 4.552
318.00 4.547
318.10 4.542
318.20 4.537
318.30 4.532
318.40 4.527
318.50 4.522
318.60 4.517
318.70 4.512
318.80 4.507
318.90 4.502
319.00 4.497
319.10 4.492
319.20 4.487
319.30 4.482
319.40 4.477
319.50 4.473
319.60 4.468
319.70 4.463
319.80 4.458
319.90 4.453
320.00 4.448
320.10 4.443
320.20 4.438
320.30 4.433
320.40 4.428
320.50 4.424
320.60 4.419
320.70 4.414
320.80 4.409
320.90 4.404
321.00 4.399
321.10 4.395
321.20 4.39
321.30 4.385
321.40 4.38
321.50 4.375
321.60 4.371
321.70 4.366
321.80 4.361
321.90 4.356
322.00 4.351
322.10 4.347
322.20 4.342
322.30 4.337
322.40 4.332
322.50 4.328
322.60 4.323
322.70 4.318
322.80 4.314
322.90 4.309
323.00 4.304
323.10 4.299
323.20 4.295
323.30 4.29
323.40 4.285
323.50 4.281
323.60 4.276
323.70 4.271
323.80 4.267
323.90 4.262
324.00 4.257
324.10 4.253
324.20 4.248
324.30 4.244
324.40 4.239
324.50 4.234
324.60 4.23
324.70 4.225
324.80 4.221
324.90 4.216
325.00 4.211
325.10 4.207
325.20 4.202
325.30 4.198
325.40 4.193
325.50 4.189
325.60 4.184
325.70 4.18
325.80 4.175
325.90 4.171
326.00 4.166
326.10 4.162
326.20 4.157
326.30 4.153
326.40 4.148
326.50 4.144
326.60 4.139
326.70 4.135
326.80 4.13
326.90 4.126
327.00 4.121
327.10 4.117
327.20 4.112
327.30 4.108
327.40 4.104
327.50 4.099
327.60 4.095
327.70 4.09
327.80 4.086
327.90 4.082
328.00 4.077
328.10 4.073
328.20 4.068
328.30 4.064
328.40 4.06
328.50 4.055
328.60 4.051
328.70 4.047
328.80 4.042
328.90 4.038
329.00 4.034
329.10 4.029
329.20 4.025
329.30 4.021
329.40 4.016
329.50 4.012
329.60 4.008
329.70 4.003
329.80 3.999
329.90 3.995
330.00 3.991
330.10 3.986
330.20 3.982
330.30 3.978
330.40 3.974
330.50 3.969
330.60 3.965
330.70 3.961
330.80 3.957
330.90 3.952
331.00 3.948
331.10 3.944
331.20 3.94
331.30 3.936
331.40 3.931
331.50 3.927
331.60 3.923
331.70 3.919
331.80 3.915
331.90 3.91
332.00 3.906
332.10 3.902
332.20 3.898
332.30 3.894
332.40 3.89
332.50 3.886
332.60 3.882
332.70 3.877
332.80 3.873
332.90 3.869
333.00 3.865
333.10 3.861
333.20 3.857
333.30 3.853
333.40 3.849
333.50 3.845
333.60 3.841
333.70 3.836
333.80 3.832
333.90 3.828
334.00 3.824
334.10 3.82
334.20 3.816
334.30 3.812
334.40 3.808
334.50 3.804
334.60 3.8
334.70 3.796
334.80 3.792
334.90 3.788
335.00 3.784
335.10 3.78
335.20 3.776
335.30 3.772
335.40 3.768
335.50 3.764
335.60 3.76
335.70 3.756
335.80 3.752
335.90 3.748
336.00 3.744
336.10 3.74
336.20 3.737
336.30 3.733
336.40 3.729
336.50 3.725
336.60 3.721
336.70 3.717
336.80 3.713
336.90 3.709
337.00 3.705
337.10 3.701
337.20 3.697
337.30 3.694
337.40 3.69
337.50 3.686
337.60 3.682
337.70 3.678
337.80 3.674
337.90 3.67
338.00 3.667
338.10 3.663
338.20 3.659
338.30 3.655
338.40 3.651
338.50 3.647
338.60 3.644
338.70 3.64
338.80 3.636
338.90 3.632
339.00 3.628
339.10 3.625
339.20 3.621
339.30 3.617
339.40 3.613
339.50 3.61
339.60 3.606
339.70 3.602
339.80 3.598
339.90 3.595
340.00 3.591
340.10 3.587
340.20 3.583
340.30 3.58
340.40 3.576
340.50 3.572
340.60 3.568
340.70 3.565
340.80 3.561
340.90 3.557
341.00 3.554
341.10 3.55
341.20 3.546
341.30 3.543
341.40 3.539
341.50 3.535
341.60 3.532
341.70 3.528
341.80 3.524
341.90 3.521
342.00 3.517
342.10 3.513
342.20 3.51
342.30 3.506
342.40 3.502
342.50 3.499
342.60 3.495
342.70 3.492
342.80 3.488
342.90 3.484
343.00 3.481
343.10 3.477
343.20 3.474
343.30 3.47
343.40 3.466
343.50 3.463
343.60 3.459
343.70 3.456
343.80 3.452
343.90 3.449
344.00 3.445
344.10 3.442
344.20 3.438
344.30 3.434
344.40 3.431
344.50 3.427
344.60 3.424
344.70 3.42
344.80 3.417
344.90 3.413
345.00 3.41
345.10 3.406
345.20 3.403
345.30 3.399
345.40 3.396
345.50 3.392
345.60 3.389
345.70 3.385
345.80 3.382
345.90 3.378
346.00 3.375
346.10 3.372
346.20 3.368
346.30 3.365
346.40 3.361
346.50 3.358
346.60 3.354
346.70 3.351
346.80 3.347
346.90 3.344
347.00 3.341
347.10 3.337
347.20 3.334
347.30 3.33
347.40 3.327
347.50 3.324
347.60 3.32
347.70 3.317
347.80 3.313
347.90 3.31
348.00 3.307
348.10 3.303
348.20 3.3
348.30 3.297
348.40 3.293
348.50 3.29
348.60 3.287
348.70 3.283
348.80 3.28
348.90 3.277
349.00 3.273
349.10 3.27
349.20 3.267
349.30 3.263
349.40 3.26
349.50 3.257
349.60 3.253
349.70 3.25
349.80 3.247
349.90 3.243
350.00 3.24
350.10 3.237
350.20 3.234
350.30 3.23
350.40 3.227
350.50 3.224
350.60 3.221
350.70 3.217
350.80 3.214
350.90 3.211
351.00 3.208
351.10 3.204
351.20 3.201
351.30 3.198
351.40 3.195
351.50 3.191
351.60 3.188
351.70 3.185
351.80 3.182
351.90 3.178
352.00 3.175
352.10 3.172
352.20 3.169
352.30 3.166
352.40 3.162
352.50 3.159
352.60 3.156
352.70 3.153
352.80 3.15
352.90 3.147
353.00 3.143
353.10 3.14
353.20 3.137
353.30 3.134
353.40 3.131
353.50 3.128
353.60 3.125
353.70 3.121
353.80 3.118
353.90 3.115
354.00 3.112
354.10 3.109
354.20 3.106
354.30 3.103
354.40 3.1
354.50 3.096
354.60 3.093
354.70 3.09
354.80 3.087
354.90 3.084
355.00 3.081
355.10 3.078
355.20 3.075
355.30 3.072
355.40 3.069
355.50 3.066
355.60 3.063
355.70 3.059
355.80 3.056
355.90 3.053
356.00 3.05
356.10 3.047
356.20 3.044
356.30 3.041
356.40 3.038
356.50 3.035
356.60 3.032
356.70 3.029
356.80 3.026
356.90 3.023
357.00 3.02
357.10 3.017
357.20 3.014
357.30 3.011
357.40 3.008
357.50 3.005
357.60 3.002
357.70 2.999
357.80 2.996
357.90 2.993
358.00 2.99
358.10 2.987
358.20 2.984
358.30 2.981
358.40 2.978
358.50 2.975
358.60 2.972
358.70 2.969
358.80 2.966
358.90 2.964
359.00 2.961
359.10 2.958
359.20 2.955
359.30 2.952
359.40 2.949
359.50 2.946
359.60 2.943
359.70 2.94
359.80 2.937
359.90 2.934
360.00 2.931
360.10 2.929
360.20 2.926
360.30 2.923
360.40 2.92
360.50 2.917
360.60 2.914
360.70 2.911
360.80 2.908
360.90 2.906
361.00 2.903
361.10 2.9
361.20 2.897
361.30 2.894
361.40 2.891
361.50 2.888
361.60 2.886
361.70 2.883
361.80 2.88
361.90 2.877
362.00 2.874
362.10 2.871
362.20 2.869
362.30 2.866
362.40 2.863
362.50 2.86
362.60 2.857
362.70 2.855
362.80 2.852
362.90 2.849
363.00 2.846
363.10 2.843
363.20 2.841
363.30 2.838
363.40 2.835
363.50 2.832
363.60 2.829
363.70 2.827
363.80 2.824
363.90 2.821
364.00 2.818
364.10 2.816
364.20 2.813
364.30 2.81
364.40 2.807
364.50 2.805
364.60 2.802
364.70 2.799
364.80 2.796
364.90 2.794
365.00 2.791
365.10 2.788
365.20 2.786
365.30 2.783
365.40 2.78
365.50 2.777
365.60 2.775
365.70 2.772
365.80 2.769
365.90 2.767
366.00 2.764
366.10 2.761
366.20 2.758
366.30 2.755
366.40 2.753
366.50 2.75
366.60 2.747
366.70 2.744
366.80 2.741
366.90 2.739
367.00 2.736
367.10 2.733
367.20 2.73
367.30 2.727
367.40 2.725
367.50 2.722
367.60 2.719
367.70 2.716
367.80 2.713
367.90 2.711
368.00 2.708
368.10 2.705
368.20 2.702
368.30 2.699
368.40 2.697
368.50 2.694
368.60 2.691
368.70 2.688
368.80 2.685
368.90 2.683
369.00 2.68
369.10 2.677
369.20 2.674
369.30 2.671
369.40 2.669
369.50 2.666
369.60 2.663
369.70 2.66
369.80 2.657
369.90 2.655
370.00 2.652
370.10 2.649
370.20 2.646
370.30 2.644
370.40 2.641
370.50 2.638
370.60 2.636
370.70 2.633
370.80 2.63
370.90 2.628
371.00 2.625
371.10 2.622
371.20 2.62
371.30 2.617
371.40 2.614
371.50 2.611
371.60 2.609
371.70 2.606
371.80 2.603
371.90 2.601
372.00 2.598
372.10 2.596
372.20 2.593
372.30 2.59
372.40 2.588
372.50 2.585
372.60 2.583
372.70 2.58
372.80 2.578
372.90 2.575
373.00 2.573
373.10 2.57
373.20 2.568
373.30 2.565
373.40 2.563
373.50 2.56
373.60 2.558
373.70 2.555
373.80 2.553
373.90 2.55
374.00 2.548
374.10 2.545
374.20 2.543
374.30 2.54
374.40 2.538
374.50 2.535
374.60 2.533
374.70 2.53
374.80 2.528
374.90 2.525
375.00 2.523
375.10 2.52
375.20 2.518
375.30 2.515
375.40 2.513
375.50 2.51
375.60 2.508
375.70 2.505
375.80 2.503
375.90 2.5
376.00 2.498
376.10 2.495
376.20 2.493
376.30 2.49
376.40 2.488
376.50 2.486
376.60 2.483
376.70 2.481
376.80 2.478
376.90 2.476
377.00 2.474
377.10 2.472
377.20 2.469
377.30 2.467
377.40 2.465
377.50 2.463
377.60 2.46
377.70 2.458
377.80 2.456
377.90 2.454
378.00 2.452
378.10 2.449
378.20 2.447
378.30 2.445
378.40 2.443
378.50 2.44
378.60 2.438
378.70 2.436
378.80 2.434
378.90 2.432
379.00 2.429
379.10 2.427
379.20 2.425
379.30 2.423
379.40 2.421
379.50 2.419
379.60 2.417
379.70 2.414
379.80 2.412
379.90 2.41
380.00 2.408
380.10 2.406
380.20 2.404
380.30 2.403
380.40 2.401
380.50 2.399
380.60 2.397
380.70 2.395
380.80 2.393
380.90 2.392
381.00 2.39
381.10 2.388
381.20 2.386
381.30 2.384
381.40 2.382
381.50 2.38
381.60 2.378
381.70 2.376
381.80 2.374
381.90 2.371
382.00 2.369
382.10 2.367
382.20 2.365
382.30 2.362
382.40 2.36
382.50 2.357
382.60 2.355
382.70 2.353
382.80 2.35
382.90 2.348
383.00 2.346
383.10 2.343
383.20 2.341
383.30 2.339
383.40 2.336
383.50 2.334
383.60 2.333
383.70 2.331
383.80 2.33
383.90 2.329
384.00 2.328
384.10 2.327
384.20 2.326
384.30 2.325
384.40 2.324
384.50 2.323
384.60 2.322
384.70 2.321
384.80 2.32
384.90 2.318
385.00 2.317
385.10 2.316
385.20 2.314
385.30 2.313
385.40 2.311
385.50 2.309
385.60 2.308
385.70 2.306
385.80 2.304
385.90 2.302
386.00 2.3
386.10 2.297
386.20 2.295
386.30 2.293
386.40 2.29
386.50 2.288
386.60 2.285
386.70 2.282
386.80 2.279
386.90 2.276
387.00 2.273
387.10 2.27
387.20 2.267
387.30 2.263
387.40 2.26
387.50 2.257
387.60 2.253
387.70 2.25
387.80 2.246
387.90 2.242
388.00 2.239
388.10 2.235
388.20 2.231
388.30 2.228
388.40 2.224
388.50 2.221
388.60 2.217
388.70 2.215
388.80 2.212
388.90 2.21
389.00 2.209
389.10 2.209
389.20 2.209
389.30 2.209
389.40 2.21
389.50 2.211
389.60 2.212
389.70 2.212
389.80 2.213
389.90 2.214
390.00 2.215
390.10 2.216
390.20 2.217
390.30 2.217
390.40 2.218
390.50 2.218
390.60 2.219
390.70 2.219
390.80 2.219
390.90 2.219
391.00 2.219
391.10 2.219
391.20 2.219
391.30 2.219
391.40 2.218
391.50 2.217
391.60 2.217
391.70 2.216
391.80 2.215
391.90 2.214
392.00 2.212
392.10 2.211
392.20 2.209
392.30 2.207
392.40 2.206
392.50 2.204
392.60 2.201
392.70 2.199
392.80 2.197
392.90 2.194
393.00 2.191
393.10 2.188
393.20 2.185
393.30 2.182
393.40 2.179
393.50 2.175
393.60 2.171
393.70 2.168
393.80 2.164
393.90 2.159
394.00 2.155
394.10 2.15
394.20 2.146
394.30 2.141
394.40 2.136
394.50 2.131
394.60 2.125
394.70 2.119
394.80 2.114
394.90 2.108
395.00 2.102
395.10 2.095
395.20 2.089
395.30 2.082
395.40 2.075
395.50 2.068
395.60 2.061
395.70 2.054
395.80 2.047
395.90 2.039
396.00 2.031
396.10 2.024
396.20 2.016
396.30 2.008
396.40 2
396.50 1.992
396.60 1.984
396.70 1.977
396.80 1.969
396.90 1.962
397.00 1.956
397.10 1.959
397.20 1.963
397.30 1.968
397.40 1.973
397.50 1.978
397.60 1.983
397.70 1.988
397.80 1.993
397.90 1.999
398.00 2.004
398.10 2.009
398.20 2.013
398.30 2.018
398.40 2.023
398.50 2.027
398.60 2.032
398.70 2.036
398.80 2.04
398.90 2.044
399.00 2.047
399.10 2.051
399.20 2.054
399.30 2.058
399.40 2.061
399.50 2.064
399.60 2.066
399.70 2.069
399.80 2.071
399.90 2.074
400.00 2.076
400.10 2.078
400.20 2.08
400.30 2.081
400.40 2.083
400.50 2.084
400.60 2.086
400.70 2.087
400.80 2.088
400.90 2.089
401.00 2.089
401.10 2.09
401.20 2.091
401.30 2.091
401.40 2.091
401.50 2.091
401.60 2.091
401.70 2.091
401.80 2.091
401.90 2.091
402.00 2.09
402.10 2.089
402.20 2.089
402.30 2.088
402.40 2.087
402.50 2.086
402.60 2.085
402.70 2.084
402.80 2.082
402.90 2.081
403.00 2.079
403.10 2.077
403.20 2.076
403.30 2.074
403.40 2.072
403.50 2.07
403.60 2.067
403.70 2.065
403.80 2.062
403.90 2.06
404.00 2.057
404.10 2.054
404.20 2.051
404.30 2.048
404.40 2.045
404.50 2.042
404.60 2.038
404.70 2.035
404.80 2.031
404.90 2.027
405.00 2.023
405.10 2.019
405.20 2.015
405.30 2.011
405.40 2.006
405.50 2.001
405.60 1.997
405.70 1.992
405.80 1.987
405.90 1.981
406.00 1.976
406.10 1.97
406.20 1.965
406.30 1.959
406.40 1.952
406.50 1.946
406.60 1.94
406.70 1.933
406.80 1.926
406.90 1.919
407.00 1.912
407.10 1.904
407.20 1.897
407.30 1.889
407.40 1.88
407.50 1.872
407.60 1.864
407.70 1.855
407.80 1.846
407.90 1.836
408.00 1.827
408.10 1.817
408.20 1.807
408.30 1.797
408.40 1.786
408.50 1.775
408.60 1.764
408.70 1.753
408.80 1.741
408.90 1.73
409.00 1.718
409.10 1.705
409.20 1.693
409.30 1.68
409.40 1.668
409.50 1.655
409.60 1.643
409.70 1.631
409.80 1.62
409.90 1.609
410.00 1.604
410.10 1.601
410.20 1.603
410.30 1.6
410.40 1.601
410.50 1.606
410.60 1.615
410.70 1.624
410.80 1.633
410.90 1.643
411.00 1.653
411.10 1.663
411.20 1.673
411.30 1.683
411.40 1.692
411.50 1.701
411.60 1.71
411.70 1.718
411.80 1.727
411.90 1.735
412.00 1.742
412.10 1.75
412.20 1.757
412.30 1.764
412.40 1.771
412.50 1.777
412.60 1.783
412.70 1.789
412.80 1.795
412.90 1.8
413.00 1.806
413.10 1.811
413.20 1.816
413.30 1.82
413.40 1.824
413.50 1.829
413.60 1.833
413.70 1.837
413.80 1.84
413.90 1.844
414.00 1.847
414.10 1.85
414.20 1.853
414.30 1.856
414.40 1.859
414.50 1.861
414.60 1.864
414.70 1.866
414.80 1.868
414.90 1.87
415.00 1.872
415.10 1.874
415.20 1.876
415.30 1.877
415.40 1.879
415.50 1.88
415.60 1.881
415.70 1.882
415.80 1.883
415.90 1.884
416.00 1.885
416.10 1.886
416.20 1.887
416.30 1.887
416.40 1.888
416.50 1.888
416.60 1.889
416.70 1.889
416.80 1.889
416.90 1.89
417.00 1.89
417.10 1.89
417.20 1.89
417.30 1.89
417.40 1.89
417.50 1.89
417.60 1.889
417.70 1.889
417.80 1.889
417.90 1.888
418.00 1.888
418.10 1.888
418.20 1.887
418.30 1.887
418.40 1.886
418.50 1.885
418.60 1.885
418.70 1.884
418.80 1.883
418.90 1.883
419.00 1.882
419.10 1.881
419.20 1.88
419.30 1.879
419.40 1.878
419.50 1.877
419.60 1.876
419.70 1.875
419.80 1.874
419.90 1.873
420.00 1.872
420.10 1.871
420.20 1.87
420.30 1.869
420.40 1.867
420.50 1.866
420.60 1.865
420.70 1.864
420.80 1.862
420.90 1.861
421.00 1.86
421.10 1.858
421.20 1.857
421.30 1.855
421.40 1.854
421.50 1.853
421.60 1.851
421.70 1.85
421.80 1.848
421.90 1.846
422.00 1.845
422.10 1.843
422.20 1.842
422.30 1.84
422.40 1.838
422.50 1.837
422.60 1.835
422.70 1.833
422.80 1.832
422.90 1.83
423.00 1.828
423.10 1.826
423.20 1.824
423.30 1.822
423.40 1.821
423.50 1.819
423.60 1.817
423.70 1.815
423.80 1.813
423.90 1.811
424.00 1.809
424.10 1.807
424.20 1.805
424.30 1.803
424.40 1.8
424.50 1.798
424.60 1.796
424.70 1.794
424.80 1.792
424.90 1.789
425.00 1.787
425.10 1.785
425.20 1.782
425.30 1.78
425.40 1.777
425.50 1.775
425.60 1.772
425.70 1.77
425.80 1.767
425.90 1.765
426.00 1.762
426.10 1.759
426.20 1.756
426.30 1.754
426.40 1.751
426.50 1.748
426.60 1.745
426.70 1.742
426.80 1.739
426.90 1.736
427.00 1.732
427.10 1.729
427.20 1.726
427.30 1.722
427.40 1.719
427.50 1.715
427.60 1.712
427.70 1.708
427.80 1.704
427.90 1.701
428.00 1.697
428.10 1.693
428.20 1.689
428.30 1.685
428.40 1.68
428.50 1.676
428.60 1.672
428.70 1.667
428.80 1.662
428.90 1.658
429.00 1.653
429.10 1.648
429.20 1.643
429.30 1.638
429.40 1.632
429.50 1.627
429.60 1.621
429.70 1.616
429.80 1.61
429.90 1.604
430.00 1.598
430.10 1.592
430.20 1.585
430.30 1.579
430.40 1.572
430.50 1.565
430.60 1.558
430.70 1.551
430.80 1.543
430.90 1.536
431.00 1.528
431.10 1.52
431.20 1.512
431.30 1.503
431.40 1.494
431.50 1.486
431.60 1.476
431.70 1.467
431.80 1.457
431.90 1.448
432.00 1.437
432.10 1.427
432.20 1.416
432.30 1.405
432.40 1.394
432.50 1.382
432.60 1.37
432.70 1.358
432.80 1.346
432.90 1.333
433.00 1.32
433.10 1.306
433.20 1.293
433.30 1.279
433.40 1.265
433.50 1.251
433.60 1.237
433.70 1.222
433.80 1.207
433.90 1.192
434.00 1.172
434.10 1.171
434.20 1.191
434.30 1.204
434.40 1.217
434.50 1.229
434.60 1.242
434.70 1.254
434.80 1.266
434.90 1.278
435.00 1.289
435.10 1.3
435.20 1.311
435.30 1.322
435.40 1.332
435.50 1.342
435.60 1.351
435.70 1.361
435.80 1.369
435.90 1.378
436.00 1.386
436.10 1.394
436.20 1.402
436.30 1.409
436.40 1.416
436.50 1.423
436.60 1.43
436.70 1.436
436.80 1.442
436.90 1.448
437.00 1.453
437.10 1.459
437.20 1.464
437.30 1.469
437.40 1.473
437.50 1.478
437.60 1.482
437.70 1.486
437.80 1.49
437.90 1.494
438.00 1.498
438.10 1.501
438.20 1.505
438.30 1.508
438.40 1.511
438.50 1.514
438.60 1.516
438.70 1.519
438.80 1.522
438.90 1.524
439.00 1.526
439.10 1.528
439.20 1.53
439.30 1.532
439.40 1.534
439.50 1.536
439.60 1.537
439.70 1.539
439.80 1.54
439.90 1.541
440.00 1.542
440.10 1.544
440.20 1.545
440.30 1.546
440.40 1.546
440.50 1.547
440.60 1.548
440.70 1.549
440.80 1.549
440.90 1.55
441.00 1.55
441.10 1.551
441.20 1.551
441.30 1.551
441.40 1.552
441.50 1.552
441.60 1.552
441.70 1.552
441.80 1.552
441.90 1.552
442.00 1.552
442.10 1.552
442.20 1.552
442.30 1.552
442.40 1.552
442.50 1.551
442.60 1.551
442.70 1.551
442.80 1.55
442.90 1.55
443.00 1.55
443.10 1.549
443.20 1.549
443.30 1.548
443.40 1.548
443.50 1.547
443.60 1.547
443.70 1.546
443.80 1.546
443.90 1.545
444.00 1.545
444.10 1.544
444.20 1.543
444.30 1.543
444.40 1.542
444.50 1.541
444.60 1.54
444.70 1.54
444.80 1.539
444.90 1.538
445.00 1.537
445.10 1.537
445.20 1.536
445.30 1.535
445.40 1.534
445.50 1.533
445.60 1.532
445.70 1.531
445.80 1.531
445.90 1.53
446.00 1.529
446.10 1.528
446.20 1.527
446.30 1.526
446.40 1.525
446.50 1.524
446.60 1.523
446.70 1.522
446.80 1.521
446.90 1.52
447.00 1.519
447.10 1.518
447.20 1.517
447.30 1.516
447.40 1.515
447.50 1.514
447.60 1.513
447.70 1.512
447.80 1.511
447.90 1.51
448.00 1.509
448.10 1.508
448.20 1.507
448.30 1.506
448.40 1.505
448.50 1.504
448.60 1.503
448.70 1.502
448.80 1.501
448.90 1.5
449.00 1.499
449.10 1.498
449.20 1.496
449.30 1.495
449.40 1.494
449.50 1.493
449.60 1.492
449.70 1.491
449.80 1.49
449.90 1.489
450.00 1.488
450.10 1.487
450.20 1.486
450.30 1.484
450.40 1.483
450.50 1.482
450.60 1.481
450.70 1.48
450.80 1.479
450.90 1.478
451.00 1.477
451.10 1.476
451.20 1.474
451.30 1.473
451.40 1.472
451.50 1.471
451.60 1.47
451.70 1.469
451.80 1.468
451.90 1.467
452.00 1.465
452.10 1.464
452.20 1.463
452.30 1.462
452.40 1.461
452.50 1.46
452.60 1.459
452.70 1.458
452.80 1.456
452.90 1.455
453.00 1.454
453.10 1.453
453.20 1.452
453.30 1.451
453.40 1.45
453.50 1.448
453.60 1.447
453.70 1.446
453.80 1.445
453.90 1.444
454.00 1.443
454.10 1.442
454.20 1.44
454.30 1.439
454.40 1.438
454.50 1.437
454.60 1.436
454.70 1.435
454.80 1.434
454.90 1.432
455.00 1.431
455.10 1.43
455.20 1.429
455.30 1.428
455.40 1.427
455.50 1.426
455.60 1.424
455.70 1.423
455.80 1.422
455.90 1.421
456.00 1.42
456.10 1.419
456.20 1.418
456.30 1.416
456.40 1.415
456.50 1.414
456.60 1.413
456.70 1.412
456.80 1.411
456.90 1.41
457.00 1.409
457.10 1.407
457.20 1.406
457.30 1.405
457.40 1.404
457.50 1.403
457.60 1.402
457.70 1.401
457.80 1.399
457.90 1.398
458.00 1.397
458.10 1.396
458.20 1.395
458.30 1.394
458.40 1.393
458.50 1.391
458.60 1.39
458.70 1.389
458.80 1.388
458.90 1.387
459.00 1.386
459.10 1.385
459.20 1.384
459.30 1.382
459.40 1.381
459.50 1.38
459.60 1.379
459.70 1.378
459.80 1.377
459.90 1.376
460.00 1.375
460.10 1.373
460.20 1.372
460.30 1.371
460.40 1.37
460.50 1.369
460.60 1.368
460.70 1.367
460.80 1.365
460.90 1.364
461.00 1.363
461.10 1.362
461.20 1.361
461.30 1.36
461.40 1.359
461.50 1.358
461.60 1.356
461.70 1.355
461.80 1.354
461.90 1.353
462.00 1.352
462.10 1.351
462.20 1.35
462.30 1.349
462.40 1.347
462.50 1.346
462.60 1.345
462.70 1.344
462.80 1.343
462.90 1.342
463.00 1.341
463.10 1.34
463.20 1.339
463.30 1.337
463.40 1.336
463.50 1.335
463.60 1.334
463.70 1.333
463.80 1.332
463.90 1.331
464.00 1.33
464.10 1.328
464.20 1.327
464.30 1.326
464.40 1.325
464.50 1.324
464.60 1.323
464.70 1.322
464.80 1.321
464.90 1.319
465.00 1.318
465.10 1.317
465.20 1.316
465.30 1.315
465.40 1.314
465.50 1.313
465.60 1.312
465.70 1.311
465.80 1.309
465.90 1.308
466.00 1.307
466.10 1.306
466.20 1.305
466.30 1.304
466.40 1.303
466.50 1.302
466.60 1.3
466.70 1.299
466.80 1.298
466.90 1.297
467.00 1.296
467.10 1.295
467.20 1.294
467.30 1.293
467.40 1.291
467.50 1.29
467.60 1.289
467.70 1.288
467.80 1.287
467.90 1.286
468.00 1.285
468.10 1.284
468.20 1.282
468.30 1.281
468.40 1.28
468.50 1.279
468.60 1.278
468.70 1.277
468.80 1.276
468.90 1.274
469.00 1.273
469.10 1.272
469.20 1.271
469.30 1.27
469.40 1.269
469.50 1.268
469.60 1.266
469.70 1.265
469.80 1.264
469.90 1.263
470.00 1.262
470.10 1.261
470.20 1.26
470.30 1.258
470.40 1.257
470.50 1.256
470.60 1.255
470.70 1.254
470.80 1.253
470.90 1.251
471.00 1.25
471.10 1.249
471.20 1.248
471.30 1.247
471.40 1.245
471.50 1.244
471.60 1.243
471.70 1.242
471.80 1.241
471.90 1.24
472.00 1.238
472.10 1.237
472.20 1.236
472.30 1.235
472.40 1.233
472.50 1.232
472.60 1.231
472.70 1.23
472.80 1.229
472.90 1.227
473.00 1.226
473.10 1.225
473.20 1.224
473.30 1.222
473.40 1.221
473.50 1.22
473.60 1.218
473.70 1.217
473.80 1.216
473.90 1.215
474.00 1.213
474.10 1.212
474.20 1.211
474.30 1.209
474.40 1.208
474.50 1.207
474.60 1.205
474.70 1.204
474.80 1.203
474.90 1.201
475.00 1.2
475.10 1.199
475.20 1.197
475.30 1.196
475.40 1.194
475.50 1.193
475.60 1.191
475.70 1.19
475.80 1.188
475.90 1.187
476.00 1.186
476.10 1.184
476.20 1.183
476.30 1.181
476.40 1.179
476.50 1.178
476.60 1.176
476.70 1.175
476.80 1.173
476.90 1.172
477.00 1.17
477.10 1.168
477.20 1.167
477.30 1.165
477.40 1.163
477.50 1.161
477.60 1.16
477.70 1.158
477.80 1.156
477.90 1.154
478.00 1.153
478.10 1.151
478.20 1.149
478.30 1.147
478.40 1.145
478.50 1.143
478.60 1.141
478.70 1.139
478.80 1.137
478.90 1.135
479.00 1.133
479.10 1.131
479.20 1.129
479.30 1.126
479.40 1.124
479.50 1.121
479.60 1.119
479.70 1.117
479.80 1.114
479.90 1.112
480.00 1.11
480.10 1.107
480.20 1.105
480.30 1.102
480.40 1.099
480.50 1.096
480.60 1.093
480.70 1.09
480.80 1.087
480.90 1.085
481.00 1.082
481.10 1.079
481.20 1.076
481.30 1.072
481.40 1.068
481.50 1.065
481.60 1.061
481.70 1.058
481.80 1.054
481.90 1.051
482.00 1.047
482.10 1.044
482.20 1.039
482.30 1.035
482.40 1.03
482.50 1.026
482.60 1.021
482.70 1.017
482.80 1.012
482.90 1.008
483.00 1.003
483.10 0.9988
483.20 0.9933
483.30 0.9874
483.40 0.9815
483.50 0.9756
483.60 0.9698
483.70 0.9639
483.80 0.958
483.90 0.9521
484.00 0.9463
484.10 0.9404
484.20 0.9336
484.30 0.9263
484.40 0.9191
484.50 0.9119
484.60 0.9046
484.70 0.8966
484.80 0.8881
484.90 0.8797
485.00 0.8713
485.10 0.8629
485.20 0.8538
485.30 0.8443
485.40 0.8345
485.50 0.8245
485.60 0.8141
485.70 0.8035
485.80 0.7928
485.90 0.782
486.00 0.7721
486.10 0.7745
486.20 0.769
486.30 0.7734
486.40 0.7829
486.50 0.7925
486.60 0.8021
486.70 0.8115
486.80 0.8205
486.90 0.8293
487.00 0.8376
487.10 0.8458
487.20 0.8532
487.30 0.8603
487.40 0.8674
487.50 0.8745
487.60 0.8816
487.70 0.8878
487.80 0.8936
487.90 0.8994
488.00 0.9052
488.10 0.911
488.20 0.9158
488.30 0.9201
488.40 0.9245
488.50 0.9288
488.60 0.9331
488.70 0.9374
488.80 0.9418
488.90 0.9461
489.00 0.9504
489.10 0.9547
489.20 0.958
489.30 0.9609
489.40 0.9637
489.50 0.9666
489.60 0.9694
489.70 0.9723
489.80 0.9751
489.90 0.978
490.00 0.9808
490.10 0.9837
490.20 0.9858
490.30 0.9876
490.40 0.9895
490.50 0.9913
490.60 0.9931
490.70 0.9949
490.80 0.9967
490.90 0.9985
491.00 1
491.10 1.002
491.20 1.003
491.30 1.005
491.40 1.006
491.50 1.007
491.60 1.008
491.70 1.009
491.80 1.01
491.90 1.011
492.00 1.012
492.10 1.013
492.20 1.014
492.30 1.014
492.40 1.015
492.50 1.016
492.60 1.016
492.70 1.017
492.80 1.017
492.90 1.018
493.00 1.018
493.10 1.019
493.20 1.019
493.30 1.02
493.40 1.02
493.50 1.02
493.60 1.02
493.70 1.02
493.80 1.021
493.90 1.021
494.00 1.021
494.10 1.021
494.20 1.021
494.30 1.021
494.40 1.021
494.50 1.021
494.60 1.021
494.70 1.021
494.80 1.021
494.90 1.021
495.00 1.021
495.10 1.021
495.20 1.02
495.30 1.02
495.40 1.02
495.50 1.02
495.60 1.02
495.70 1.019
495.80 1.019
495.90 1.019
496.00 1.019
496.10 1.018
496.20 1.018
496.30 1.018
496.40 1.017
496.50 1.017
496.60 1.017
496.70 1.016
496.80 1.016
496.90 1.015
497.00 1.015
497.10 1.015
497.20 1.014
497.30 1.014
497.40 1.013
497.50 1.013
497.60 1.013
497.70 1.012
497.80 1.012
497.90 1.011
498.00 1.011
498.10 1.01
498.20 1.01
498.30 1.009
498.40 1.009
498.50 1.008
498.60 1.008
498.70 1.007
498.80 1.007
498.90 1.006
499.00 1.006
499.10 1.005
499.20 1.005
499.30 1.004
499.40 1.003
499.50 1.003
499.60 1.002
499.70 1.002
499.80 1.001
499.90 1.001
500.00 1
500.10 0.9994
500.20 0.9988
500.30 0.9982
500.40 0.9976
500.50 0.997
500.60 0.9964
500.70 0.9959
500.80 0.9953
500.90 0.9947
501.00 0.9941
501.10 0.9935
501.20 0.9928
501.30 0.9922
501.40 0.9916
501.50 0.991
501.60 0.9904
501.70 0.9897
501.80 0.9891
501.90 0.9885
502.00 0.9879
502.10 0.9872
502.20 0.9866
502.30 0.986
502.40 0.9853
502.50 0.9847
502.60 0.984
502.70 0.9834
502.80 0.9828
502.90 0.9821
503.00 0.9815
503.10 0.9809
503.20 0.9802
503.30 0.9796
503.40 0.9789
503.50 0.9783
503.60 0.9776
503.70 0.9769
503.80 0.9763
503.90 0.9756
504.00 0.975
504.10 0.9743
504.20 0.9737
504.30 0.973
504.40 0.9724
504.50 0.9717
504.60 0.9711
504.70 0.9704
504.80 0.9697
504.90 0.9691
505.00 0.9684
505.10 0.9678
505.20 0.9671
505.30 0.9664
505.40 0.9658
505.50 0.9651
505.60 0.9644
505.70 0.9638
505.80 0.9631
505.90 0.9625
506.00 0.9618
506.10 0.9611
506.20 0.9605
506.30 0.9598
506.40 0.9591
506.50 0.9585
506.60 0.9578
506.70 0.9571
506.80 0.9565
506.90 0.9558
507.00 0.9551
507.10 0.9545
507.20 0.9538
507.30 0.9531
507.40 0.9525
507.50 0.9518
507.60 0.9511
507.70 0.9505
507.80 0.9498
507.90 0.9491
508.00 0.9485
508.10 0.9478
508.20 0.9471
508.30 0.9465
508.40 0.9458
508.50 0.9451
508.60 0.9445
508.70 0.9438
508.80 0.9431
508.90 0.9425
509.00 0.9418
509.10 0.9411
509.20 0.9405
509.30 0.9398
509.40 0.9391
509.50 0.9385
509.60 0.9378
509.70 0.9371
509.80 0.9365
509.90 0.9358
510.00 0.9351
510.10 0.9345
510.20 0.9338
510.30 0.9331
510.40 0.9325
510.50 0.9318
510.60 0.9312
510.70 0.9305
510.80 0.9298
510.90 0.9292
511.00 0.9285
511.10 0.9278
511.20 0.9272
511.30 0.9265
511.40 0.9259
511.50 0.9252
511.60 0.9245
511.70 0.9239
511.80 0.9232
511.90 0.9226
512.00 0.9219
512.10 0.9212
512.20 0.9206
512.30 0.9199
512.40 0.9193
512.50 0.9186
512.60 0.918
512.70 0.9173
512.80 0.9166
512.90 0.916
513.00 0.9153
513.10 0.9147
513.20 0.914
513.30 0.9134
513.40 0.9127
513.50 0.9121
513.60 0.9114
513.70 0.9107
513.80 0.9101
513.90 0.9094
514.00 0.9088
514.10 0.9081
514.20 0.9075
514.30 0.9068
514.40 0.9062
514.50 0.9055
514.60 0.9049
514.70 0.9042
514.80 0.9036
514.90 0.9029
515.00 0.9023
515.10 0.9016
515.20 0.901
515.30 0.9004
515.40 0.8997
515.50 0.8991
515.60 0.8984
515.70 0.8978
515.80 0.8971
515.90 0.8965
516.00 0.8958
516.10 0.8952
516.20 0.8946
516.30 0.8939
516.40 0.8933
516.50 0.8926
516.60 0.892
516.70 0.8913
516.80 0.8907
516.90 0.8901
517.00 0.8894
517.10 0.8888
517.20 0.8882
517.30 0.8875
517.40 0.8869
517.50 0.8862
517.60 0.8856
517.70 0.885
517.80 0.8843
517.90 0.8837
518.00 0.8831
518.10 0.8824
518.20 0.8818
518.30 0.8812
518.40 0.8805
518.50 0.8799
518.60 0.8793
518.70 0.8786
518.80 0.878
518.90 0.8774
519.00 0.8768
519.10 0.8761
519.20 0.8755
519.30 0.8749
519.40 0.8742
519.50 0.8736
519.60 0.873
519.70 0.8724
519.80 0.8717
519.90 0.8711
520.00 0.8705
520.10 0.8699
520.20 0.8692
520.30 0.8686
520.40 0.868
520.50 0.8674
520.60 0.8667
520.70 0.8661
520.80 0.8655
520.90 0.8649
521.00 0.8643
521.10 0.8636
521.20 0.863
521.30 0.8624
521.40 0.8618
521.50 0.8612
521.60 0.8606
521.70 0.8599
521.80 0.8593
521.90 0.8587
522.00 0.8581
522.10 0.8575
522.20 0.8569
522.30 0.8563
522.40 0.8556
522.50 0.855
522.60 0.8544
522.70 0.8538
522.80 0.8532
522.90 0.8526
523.00 0.852
523.10 0.8514
523.20 0.8508
523.30 0.8502
523.40 0.8495
523.50 0.8489
523.60 0.8483
523.70 0.8477
523.80 0.8471
523.90 0.8465
524.00 0.8459
524.10 0.8453
524.20 0.8447
524.30 0.8441
524.40 0.8435
524.50 0.8429
524.60 0.8423
524.70 0.8417
524.80 0.8411
524.90 0.8405
525.00 0.8399
525.10 0.8393
525.20 0.8387
525.30 0.8381
525.40 0.8375
525.50 0.8369
525.60 0.8363
525.70 0.8357
525.80 0.8351
525.90 0.8345
526.00 0.8339
526.10 0.8333
526.20 0.8327
526.30 0.8321
526.40 0.8315
526.50 0.831
526.60 0.8304
526.70 0.8298
526.80 0.8292
526.90 0.8286
527.00 0.828
527.10 0.8274
527.20 0.8268
527.30 0.8262
527.40 0.8256
527.50 0.8251
527.60 0.8245
527.70 0.8239
527.80 0.8233
527.90 0.8227
528.00 0.8221
528.10 0.8215
528.20 0.821
528.30 0.8204
528.40 0.8198
528.50 0.8192
528.60 0.8186
528.70 0.818
528.80 0.8175
528.90 0.8169
529.00 0.8163
529.10 0.8157
529.20 0.8151
529.30 0.8146
529.40 0.814
529.50 0.8134
529.60 0.8128
529.70 0.8123
529.80 0.8117
529.90 0.8111
530.00 0.8105
530.10 0.81
530.20 0.8094
530.30 0.8088
530.40 0.8082
530.50 0.8077
530.60 0.8071
530.70 0.8065
530.80 0.8059
530.90 0.8054
531.00 0.8048
531.10 0.8042
531.20 0.8037
531.30 0.8031
531.40 0.8025
531.50 0.802
531.60 0.8014
531.70 0.8008
531.80 0.8003
531.90 0.7997
532.00 0.7991
532.10 0.7986
532.20 0.798
532.30 0.7974
532.40 0.7969
532.50 0.7963
532.60 0.7958
532.70 0.7952
532.80 0.7946
532.90 0.7941
533.00 0.7935
533.10 0.7929
533.20 0.7924
533.30 0.7918
533.40 0.7913
533.50 0.7907
533.60 0.7902
533.70 0.7896
533.80 0.789
533.90 0.7885
534.00 0.7879
534.10 0.7874
534.20 0.7868
534.30 0.7863
534.40 0.7857
534.50 0.7852
534.60 0.7846
534.70 0.7841
534.80 0.7835
534.90 0.7829
535.00 0.7824
535.10 0.7818
535.20 0.7813
535.30 0.7807
535.40 0.7802
535.50 0.7797
535.60 0.7791
535.70 0.7786
535.80 0.778
535.90 0.7775
536.00 0.7769
536.10 0.7764
536.20 0.7758
536.30 0.7753
536.40 0.7747
536.50 0.7742
536.60 0.7736
536.70 0.7731
536.80 0.7726
536.90 0.772
537.00 0.7715
537.10 0.7709
537.20 0.7704
537.30 0.7699
537.40 0.7693
537.50 0.7688
537.60 0.7682
537.70 0.7677
537.80 0.7672
537.90 0.7666
538.00 0.7661
538.10 0.7656
538.20 0.765
538.30 0.7645
538.40 0.7639
538.50 0.7634
538.60 0.7629
538.70 0.7623
538.80 0.7618
538.90 0.7613
539.00 0.7607
539.10 0.7602
539.20 0.7597
539.30 0.7591
539.40 0.7586
539.50 0.7581
539.60 0.7576
539.70 0.757
539.80 0.7565
539.90 0.756
540.00 0.7554
540.10 0.7549
540.20 0.7544
540.30 0.7539
540.40 0.7533
540.50 0.7528
540.60 0.7523
540.70 0.7518
540.80 0.7512
540.90 0.7507
541.00 0.7502
541.10 0.7497
541.20 0.7491
541.30 0.7486
541.40 0.7481
541.50 0.7476
541.60 0.7471
541.70 0.7465
541.80 0.746
541.90 0.7455
542.00 0.745
542.10 0.7445
542.20 0.7439
542.30 0.7434
542.40 0.7429
542.50 0.7424
542.60 0.7419
542.70 0.7414
542.80 0.7409
542.90 0.7403
543.00 0.7398
543.10 0.7393
543.20 0.7388
543.30 0.7383
543.40 0.7378
543.50 0.7373
543.60 0.7367
543.70 0.7362
543.80 0.7357
543.90 0.7352
544.00 0.7347
544.10 0.7342
544.20 0.7337
544.30 0.7332
544.40 0.7327
544.50 0.7322
544.60 0.7317
544.70 0.7311
544.80 0.7306
544.90 0.7301
545.00 0.7296
545.10 0.7291
545.20 0.7286
545.30 0.7281
545.40 0.7276
545.50 0.7271
545.60 0.7266
545.70 0.7261
545.80 0.7256
545.90 0.7251
546.00 0.7246
546.10 0.7241
546.20 0.7236
546.30 0.7231
546.40 0.7226
546.50 0.7221
546.60 0.7216
546.70 0.7211
546.80 0.7206
546.90 0.7201
547.00 0.7196
547.10 0.7191
547.20 0.7186
547.30 0.7181
547.40 0.7176
547.50 0.7171
547.60 0.7166
547.70 0.7161
547.80 0.7156
547.90 0.7152
548.00 0.7147
548.10 0.7142
548.20 0.7137
548.30 0.7132
548.40 0.7127
548.50 0.7122
548.60 0.7117
548.70 0.7112
548.80 0.7107
548.90 0.7102
549.00 0.7098
549.10 0.7093
549.20 0.7088
549.30 0.7083
549.40 0.7078
549.50 0.7073
549.60 0.7068
549.70 0.7063
549.80 0.7059
549.90 0.7054
550.00 0.7049
550.10 0.7044
550.20 0.7039
550.30 0.7034
550.40 0.703
550.50 0.7025
550.60 0.702
550.70 0.7015
550.80 0.701
550.90 0.7005
551.00 0.7001
551.10 0.6996
551.20 0.6991
551.30 0.6986
551.40 0.6982
551.50 0.6977
551.60 0.6972
551.70 0.6967
551.80 0.6962
551.90 0.6958
552.00 0.6953
552.10 0.6948
552.20 0.6943
552.30 0.6939
552.40 0.6934
552.50 0.6929
552.60 0.6924
552.70 0.692
552.80 0.6915
552.90 0.691
553.00 0.6905
553.10 0.6901
553.20 0.6896
553.30 0.6891
553.40 0.6887
553.50 0.6882
553.60 0.6877
553.70 0.6873
553.80 0.6868
553.90 0.6863
554.00 0.6858
554.10 0.6854
554.20 0.6849
554.30 0.6844
554.40 0.684
554.50 0.6835
554.60 0.683
554.70 0.6826
554.80 0.6821
554.90 0.6817
555.00 0.6812
555.10 0.6807
555.20 0.6803
555.30 0.6798
555.40 0.6793
555.50 0.6789
555.60 0.6784
555.70 0.6779
555.80 0.6775
555.90 0.677
556.00 0.6766
556.10 0.6761
556.20 0.6756
556.30 0.6752
556.40 0.6747
556.50 0.6743
556.60 0.6738
556.70 0.6734
556.80 0.6729
556.90 0.6724
557.00 0.672
557.10 0.6715
557.20 0.6711
557.30 0.6706
557.40 0.6702
557.50 0.6697
557.60 0.6693
557.70 0.6688
557.80 0.6683
557.90 0.6679
558.00 0.6674
558.10 0.667
558.20 0.6665
558.30 0.6661
558.40 0.6656
558.50 0.6652
558.60 0.6647
558.70 0.6643
558.80 0.6638
558.90 0.6634
559.00 0.6629
559.10 0.6625
559.20 0.662
559.30 0.6616
559.40 0.6611
559.50 0.6607
559.60 0.6602
559.70 0.6598
559.80 0.6594
559.90 0.6589
560.00 0.6585
560.10 0.658
560.20 0.6576
560.30 0.6571
560.40 0.6567
560.50 0.6562
560.60 0.6558
560.70 0.6554
560.80 0.6549
560.90 0.6545
561.00 0.654
561.10 0.6536
561.20 0.6532
561.30 0.6527
561.40 0.6523
561.50 0.6518
561.60 0.6514
561.70 0.651
561.80 0.6505
561.90 0.6501
562.00 0.6496
562.10 0.6492
562.20 0.6488
562.30 0.6483
562.40 0.6479
562.50 0.6475
562.60 0.647
562.70 0.6466
562.80 0.6462
562.90 0.6457
563.00 0.6453
563.10 0.6448
563.20 0.6444
563.30 0.644
563.40 0.6436
563.50 0.6431
563.60 0.6427
563.70 0.6423
563.80 0.6418
563.90 0.6414
564.00 0.641
564.10 0.6405
564.20 0.6401
564.30 0.6397
564.40 0.6392
564.50 0.6388
564.60 0.6384
564.70 0.638
564.80 0.6375
564.90 0.6371
565.00 0.6367
565.10 0.6363
565.20 0.6358
565.30 0.6354
565.40 0.635
565.50 0.6345
565.60 0.6341
565.70 0.6337
565.80 0.6333
565.90 0.6329
566.00 0.6324
566.10 0.632
566.20 0.6316
566.30 0.6312
566.40 0.6307
566.50 0.6303
566.60 0.6299
566.70 0.6295
566.80 0.6291
566.90 0.6286
567.00 0.6282
567.10 0.6278
567.20 0.6274
567.30 0.627
567.40 0.6265
567.50 0.6261
567.60 0.6257
567.70 0.6253
567.80 0.6249
567.90 0.6245
568.00 0.624
568.10 0.6236
568.20 0.6232
568.30 0.6228
568.40 0.6224
568.50 0.622
568.60 0.6215
568.70 0.6211
568.80 0.6207
568.90 0.6203
569.00 0.6199
569.10 0.6195
569.20 0.6191
569.30 0.6187
569.40 0.6182
569.50 0.6178
569.60 0.6174
569.70 0.617
569.80 0.6166
569.90 0.6162
570.00 0.6158
570.10 0.6154
570.20 0.615
570.30 0.6146
570.40 0.6141
570.50 0.6137
570.60 0.6133
570.70 0.6129
570.80 0.6125
570.90 0.6121
571.00 0.6117
571.10 0.6113
571.20 0.6109
571.30 0.6105
571.40 0.6101
571.50 0.6097
571.60 0.6093
571.70 0.6089
571.80 0.6085
571.90 0.6081
572.00 0.6077
572.10 0.6073
572.20 0.6069
572.30 0.6065
572.40 0.6061
572.50 0.6057
572.60 0.6053
572.70 0.6049
572.80 0.6045
572.90 0.6041
573.00 0.6037
573.10 0.6033
573.20 0.6029
573.30 0.6025
573.40 0.6021
573.50 0.6017
573.60 0.6013
573.70 0.6009
573.80 0.6005
573.90 0.6001
574.00 0.5997
574.10 0.5993
574.20 0.5989
574.30 0.5985
574.40 0.5981
574.50 0.5977
574.60 0.5973
574.70 0.5969
574.80 0.5965
574.90 0.5961
575.00 0.5957
575.10 0.5953
575.20 0.5949
575.30 0.5946
575.40 0.5942
575.50 0.5938
575.60 0.5934
575.70 0.593
575.80 0.5926
575.90 0.5922
576.00 0.5918
576.10 0.5914
576.20 0.591
576.30 0.5907
576.40 0.5903
576.50 0.5899
576.60 0.5895
576.70 0.5891
576.80 0.5887
576.90 0.5883
577.00 0.5879
577.10 0.5876
577.20 0.5872
577.30 0.5868
577.40 0.5864
577.50 0.586
577.60 0.5856
577.70 0.5852
577.80 0.5849
577.90 0.5845
578.00 0.5841
578.10 0.5837
578.20 0.5833
578.30 0.5829
578.40 0.5826
578.50 0.5822
578.60 0.5818
578.70 0.5814
578.80 0.581
578.90 0.5807
579.00 0.5803
579.10 0.5799
579.20 0.5795
579.30 0.5791
579.40 0.5788
579.50 0.5784
579.60 0.578
579.70 0.5776
579.80 0.5772
579.90 0.5769
580.00 0.5765
580.10 0.5761
580.20 0.5757
580.30 0.5754
580.40 0.575
580.50 0.5746
580.60 0.5742
580.70 0.5739
580.80 0.5735
580.90 0.5731
581.00 0.5727
581.10 0.5724
581.20 0.572
581.30 0.5716
581.40 0.5712
581.50 0.5709
581.60 0.5705
581.70 0.5701
581.80 0.5697
581.90 0.5694
582.00 0.569
582.10 0.5686
582.20 0.5683
582.30 0.5679
582.40 0.5675
582.50 0.5672
582.60 0.5668
582.70 0.5664
582.80 0.566
582.90 0.5657
583.00 0.5653
583.10 0.5649
583.20 0.5646
583.30 0.5642
583.40 0.5638
583.50 0.5635
583.60 0.5631
583.70 0.5627
583.80 0.5624
583.90 0.562
584.00 0.5616
584.10 0.5613
584.20 0.5609
584.30 0.5606
584.40 0.5602
584.50 0.5598
584.60 0.5595
584.70 0.5591
584.80 0.5587
584.90 0.5584
585.00 0.558
585.10 0.5576
585.20 0.5573
585.30 0.5569
585.40 0.5566
585.50 0.5562
585.60 0.5558
585.70 0.5555
585.80 0.5551
585.90 0.5548
586.00 0.5544
586.10 0.554
586.20 0.5537
586.30 0.5533
586.40 0.553
586.50 0.5526
586.60 0.5523
586.70 0.5519
586.80 0.5515
586.90 0.5512
587.00 0.5508
587.10 0.5505
587.20 0.5501
587.30 0.5498
587.40 0.5494
587.50 0.549
587.60 0.5487
587.70 0.5483
587.80 0.548
587.90 0.5476
588.00 0.5473
588.10 0.5469
588.20 0.5466
588.30 0.5462
588.40 0.5459
588.50 0.5455
588.60 0.5452
588.70 0.5448
588.80 0.5445
588.90 0.5441
589.00 0.5438
589.10 0.5434
589.20 0.5431
589.30 0.5427
589.40 0.5424
589.50 0.542
589.60 0.5417
589.70 0.5413
589.80 0.541
589.90 0.5406
590.00 0.5403
590.10 0.5399
590.20 0.5396
590.30 0.5392
590.40 0.5389
590.50 0.5385
590.60 0.5382
590.70 0.5378
590.80 0.5375
590.90 0.5371
591.00 0.5368
591.10 0.5364
591.20 0.5361
591.30 0.5358
591.40 0.5354
591.50 0.5351
591.60 0.5347
591.70 0.5344
591.80 0.534
591.90 0.5337
592.00 0.5334
592.10 0.533
592.20 0.5327
592.30 0.5323
592.40 0.532
592.50 0.5316
592.60 0.5313
592.70 0.531
592.80 0.5306
592.90 0.5303
593.00 0.5299
593.10 0.5296
593.20 0.5293
593.30 0.5289
593.40 0.5286
593.50 0.5282
593.60 0.5279
593.70 0.5276
593.80 0.5272
593.90 0.5269
594.00 0.5266
594.10 0.5262
594.20 0.5259
594.30 0.5256
594.40 0.5252
594.50 0.5249
594.60 0.5245
594.70 0.5242
594.80 0.5239
594.90 0.5235
595.00 0.5232
595.10 0.5229
595.20 0.5225
595.30 0.5222
595.40 0.5219
595.50 0.5215
595.60 0.5212
595.70 0.5209
595.80 0.5205
595.90 0.5202
596.00 0.5199
596.10 0.5195
596.20 0.5192
596.30 0.5189
596.40 0.5185
596.50 0.5182
596.60 0.5179
596.70 0.5176
596.80 0.5172
596.90 0.5169
597.00 0.5166
597.10 0.5162
597.20 0.5159
597.30 0.5156
597.40 0.5153
597.50 0.5149
597.60 0.5146
597.70 0.5143
597.80 0.5139
597.90 0.5136
598.00 0.5133
598.10 0.513
598.20 0.5126
598.30 0.5123
598.40 0.512
598.50 0.5117
598.60 0.5113
598.70 0.511
598.80 0.5107
598.90 0.5104
599.00 0.51
599.10 0.5097
599.20 0.5094
599.30 0.5091
599.40 0.5087
599.50 0.5084
599.60 0.5081
599.70 0.5078
599.80 0.5075
599.90 0.5071
600.00 0.5068
600.10 0.5065
600.20 0.5062
600.30 0.5058
600.40 0.5055
600.50 0.5052
600.60 0.5049
600.70 0.5046
600.80 0.5042
600.90 0.5039
601.00 0.5036
601.10 0.5033
601.20 0.503
601.30 0.5026
601.40 0.5023
601.50 0.502
601.60 0.5017
601.70 0.5014
601.80 0.5011
601.90 0.5007
602.00 0.5004
602.10 0.5001
602.20 0.4998
602.30 0.4995
602.40 0.4992
602.50 0.4988
602.60 0.4985
602.70 0.4982
602.80 0.4979
602.90 0.4976
603.00 0.4973
603.10 0.497
603.20 0.4966
603.30 0.4963
603.40 0.496
603.50 0.4957
603.60 0.4954
603.70 0.4951
603.80 0.4948
603.90 0.4945
604.00 0.4941
604.10 0.4938
604.20 0.4935
604.30 0.4932
604.40 0.4929
604.50 0.4926
604.60 0.4923
604.70 0.492
604.80 0.4917
604.90 0.4913
605.00 0.491
605.10 0.4907
605.20 0.4904
605.30 0.4901
605.40 0.4898
605.50 0.4895
605.60 0.4892
605.70 0.4889
605.80 0.4886
605.90 0.4883
606.00 0.488
606.10 0.4876
606.20 0.4873
606.30 0.487
606.40 0.4867
606.50 0.4864
606.60 0.4861
606.70 0.4858
606.80 0.4855
606.90 0.4852
607.00 0.4849
607.10 0.4846
607.20 0.4843
607.30 0.484
607.40 0.4837
607.50 0.4834
607.60 0.4831
607.70 0.4828
607.80 0.4825
607.90 0.4822
608.00 0.4819
608.10 0.4816
608.20 0.4813
608.30 0.481
608.40 0.4806
608.50 0.4803
608.60 0.48
608.70 0.4797
608.80 0.4794
608.90 0.4791
609.00 0.4788
609.10 0.4785
609.20 0.4782
609.30 0.4779
609.40 0.4776
609.50 0.4773
609.60 0.477
609.70 0.4767
609.80 0.4764
609.90 0.4762
610.00 0.4759
610.10 0.4756
610.20 0.4753
610.30 0.475
610.40 0.4747
610.50 0.4744
610.60 0.4741
610.70 0.4738
610.80 0.4735
610.90 0.4732
611.00 0.4729
611.10 0.4726
611.20 0.4723
611.30 0.472
611.40 0.4717
611.50 0.4714
611.60 0.4711
611.70 0.4708
611.80 0.4705
611.90 0.4702
612.00 0.4699
612.10 0.4696
612.20 0.4693
612.30 0.4691
612.40 0.4688
612.50 0.4685
612.60 0.4682
612.70 0.4679
612.80 0.4676
612.90 0.4673
613.00 0.467
613.10 0.4667
613.20 0.4664
613.30 0.4661
613.40 0.4658
613.50 0.4656
613.60 0.4653
613.70 0.465
613.80 0.4647
613.90 0.4644
614.00 0.4641
614.10 0.4638
614.20 0.4635
614.30 0.4632
614.40 0.463
614.50 0.4627
614.60 0.4624
614.70 0.4621
614.80 0.4618
614.90 0.4615
615.00 0.4612
615.10 0.4609
615.20 0.4607
615.30 0.4604
615.40 0.4601
615.50 0.4598
615.60 0.4595
615.70 0.4592
615.80 0.4589
615.90 0.4586
616.00 0.4584
616.10 0.4581
616.20 0.4578
616.30 0.4575
616.40 0.4572
616.50 0.4569
616.60 0.4567
616.70 0.4564
616.80 0.4561
616.90 0.4558
617.00 0.4555
617.10 0.4552
617.20 0.455
617.30 0.4547
617.40 0.4544
617.50 0.4541
617.60 0.4538
617.70 0.4535
617.80 0.4533
617.90 0.453
618.00 0.4527
618.10 0.4524
618.20 0.4521
618.30 0.4519
618.40 0.4516
618.50 0.4513
618.60 0.451
618.70 0.4507
618.80 0.4505
618.90 0.4502
619.00 0.4499
619.10 0.4496
619.20 0.4493
619.30 0.4491
619.40 0.4488
619.50 0.4485
619.60 0.4482
619.70 0.4479
619.80 0.4477
619.90 0.4474
620.00 0.4471
620.10 0.4468
620.20 0.4466
620.30 0.4463
620.40 0.446
620.50 0.4457
620.60 0.4455
620.70 0.4452
620.80 0.4449
620.90 0.4446
621.00 0.4443
621.10 0.4441
621.20 0.4438
621.30 0.4435
621.40 0.4432
621.50 0.443
621.60 0.4427
621.70 0.4424
621.80 0.4421
621.90 0.4419
622.00 0.4416
622.10 0.4413
622.20 0.4411
622.30 0.4408
622.40 0.4405
622.50 0.4402
622.60 0.44
622.70 0.4397
622.80 0.4394
622.90 0.4391
623.00 0.4389
623.10 0.4386
623.20 0.4383
623.30 0.4381
623.40 0.4378
623.50 0.4375
623.60 0.4372
623.70 0.437
623.80 0.4367
623.90 0.4364
624.00 0.4362
624.10 0.4359
624.20 0.4356
624.30 0.4353
624.40 0.4351
624.50 0.4348
624.60 0.4345
624.70 0.4343
624.80 0.434
624.90 0.4337
625.00 0.4335
625.10 0.4332
625.20 0.4329
625.30 0.4327
625.40 0.4324
625.50 0.4321
625.60 0.4319
625.70 0.4316
625.80 0.4313
625.90 0.431
626.00 0.4308
626.10 0.4305
626.20 0.4302
626.30 0.43
626.40 0.4297
626.50 0.4294
626.60 0.4292
626.70 0.4289
626.80 0.4286
626.90 0.4284
627.00 0.4281
627.10 0.4278
627.20 0.4276
627.30 0.4273
627.40 0.4271
627.50 0.4268
627.60 0.4265
627.70 0.4263
627.80 0.426
627.90 0.4257
628.00 0.4255
628.10 0.4252
628.20 0.4249
628.30 0.4247
628.40 0.4244
628.50 0.4241
628.60 0.4239
628.70 0.4236
628.80 0.4233
628.90 0.4231
629.00 0.4228
629.10 0.4226
629.20 0.4223
629.30 0.422
629.40 0.4218
629.50 0.4215
629.60 0.4212
629.70 0.421
629.80 0.4207
629.90 0.4205
630.00 0.4202
630.10 0.4199
630.20 0.4197
630.30 0.4194
630.40 0.4191
630.50 0.4189
630.60 0.4186
630.70 0.4184
630.80 0.4181
630.90 0.4178
631.00 0.4176
631.10 0.4173
631.20 0.4171
631.30 0.4168
631.40 0.4165
631.50 0.4163
631.60 0.416
631.70 0.4157
631.80 0.4155
631.90 0.4152
632.00 0.415
632.10 0.4147
632.20 0.4144
632.30 0.4142
632.40 0.4139
632.50 0.4137
632.60 0.4134
632.70 0.4131
632.80 0.4129
632.90 0.4126
633.00 0.4124
633.10 0.4121
633.20 0.4118
633.30 0.4116
633.40 0.4113
633.50 0.4111
633.60 0.4108
633.70 0.4105
633.80 0.4103
633.90 0.41
634.00 0.4098
634.10 0.4095
634.20 0.4092
634.30 0.409
634.40 0.4087
634.50 0.4085
634.60 0.4082
634.70 0.4079
634.80 0.4077
634.90 0.4074
635.00 0.4072
635.10 0.4069
635.20 0.4066
635.30 0.4064
635.40 0.4061
635.50 0.4059
635.60 0.4056
635.70 0.4053
635.80 0.4051
635.90 0.4048
636.00 0.4046
636.10 0.4043
636.20 0.404
636.30 0.4038
636.40 0.4035
636.50 0.4032
636.60 0.403
636.70 0.4027
636.80 0.4025
636.90 0.4022
637.00 0.4019
637.10 0.4017
637.20 0.4014
637.30 0.4012
637.40 0.4009
637.50 0.4006
637.60 0.4004
637.70 0.4001
637.80 0.3998
637.90 0.3996
638.00 0.3993
638.10 0.3991
638.20 0.3988
638.30 0.3985
638.40 0.3983
638.50 0.398
638.60 0.3977
638.70 0.3975
638.80 0.3972
638.90 0.3969
639.00 0.3967
639.10 0.3964
639.20 0.3961
639.30 0.3959
639.40 0.3956
639.50 0.3953
639.60 0.3951
639.70 0.3948
639.80 0.3945
639.90 0.3943
640.00 0.394
640.10 0.3937
640.20 0.3934
640.30 0.3932
640.40 0.3929
640.50 0.3926
640.60 0.3924
640.70 0.3921
640.80 0.3918
640.90 0.3915
641.00 0.3913
641.10 0.391
641.20 0.3907
641.30 0.3904
641.40 0.3902
641.50 0.3899
641.60 0.3896
641.70 0.3893
641.80 0.389
641.90 0.3888
642.00 0.3885
642.10 0.3882
642.20 0.3879
642.30 0.3876
642.40 0.3873
642.50 0.3871
642.60 0.3868
642.70 0.3865
642.80 0.3862
642.90 0.3859
643.00 0.3856
643.10 0.3853
643.20 0.385
643.30 0.3847
643.40 0.3844
643.50 0.3841
643.60 0.3838
643.70 0.3835
643.80 0.3832
643.90 0.3829
644.00 0.3826
644.10 0.3823
644.20 0.382
644.30 0.3817
644.40 0.3814
644.50 0.3811
644.60 0.3808
644.70 0.3804
644.80 0.3801
644.90 0.3798
645.00 0.3795
645.10 0.3792
645.20 0.3789
645.30 0.3785
645.40 0.3782
645.50 0.3778
645.60 0.3775
645.70 0.3772
645.80 0.3768
645.90 0.3765
646.00 0.3761
646.10 0.3758
646.20 0.3755
646.30 0.3751
646.40 0.3747
646.50 0.3744
646.60 0.374
646.70 0.3736
646.80 0.3732
646.90 0.3729
647.00 0.3725
647.10 0.3721
647.20 0.3718
647.30 0.3714
647.40 0.371
647.50 0.3705
647.60 0.3701
647.70 0.3697
647.80 0.3693
647.90 0.3689
648.00 0.3685
648.10 0.3681
648.20 0.3676
648.30 0.3672
648.40 0.3667
648.50 0.3663
648.60 0.3658
648.70 0.3653
648.80 0.3648
648.90 0.3643
649.00 0.3639
649.10 0.3634
649.20 0.3629
649.30 0.3624
649.40 0.3619
649.50 0.3613
649.60 0.3607
649.70 0.3602
649.80 0.3596
649.90 0.359
650.00 0.3585
650.10 0.3579
650.20 0.3574
650.30 0.3568
650.40 0.3561
650.50 0.3554
650.60 0.3547
650.70 0.354
650.80 0.3534
650.90 0.3527
651.00 0.352
651.10 0.3513
651.20 0.3506
651.30 0.3499
651.40 0.349
651.50 0.3482
651.60 0.3473
651.70 0.3465
651.80 0.3456
651.90 0.3448
652.00 0.3439
652.10 0.343
652.20 0.3422
652.30 0.3413
652.40 0.3402
652.50 0.3391
652.60 0.338
652.70 0.3368
652.80 0.3357
652.90 0.3346
653.00 0.3335
653.10 0.3324
653.20 0.3313
653.30 0.3301
653.40 0.3287
653.50 0.3272
653.60 0.3258
653.70 0.3243
653.80 0.3228
653.90 0.3214
654.00 0.3199
654.10 0.3185
654.20 0.317
654.30 0.3155
654.40 0.3137
654.50 0.3118
654.60 0.31
654.70 0.3082
654.80 0.3063
654.90 0.3042
655.00 0.3021
655.10 0.3
655.20 0.2979
655.30 0.2957
655.40 0.2934
655.50 0.291
655.60 0.2884
655.70 0.2859
655.80 0.2832
655.90 0.2805
656.00 0.2776
656.10 0.2746
656.20 0.2712
656.30 0.2745
656.40 0.272
656.50 0.2751
656.60 0.2777
656.70 0.2803
656.80 0.2827
656.90 0.285
657.00 0.2872
657.10 0.2893
657.20 0.2914
657.30 0.2933
657.40 0.2951
657.50 0.2969
657.60 0.2987
657.70 0.3004
657.80 0.3021
657.90 0.3036
658.00 0.305
658.10 0.3065
658.20 0.3079
658.30 0.3093
658.40 0.3104
658.50 0.3115
658.60 0.3125
658.70 0.3136
658.80 0.3147
658.90 0.3157
659.00 0.3168
659.10 0.3179
659.20 0.319
659.30 0.32
659.40 0.3207
659.50 0.3214
659.60 0.3221
659.70 0.3228
659.80 0.3235
659.90 0.3242
660.00 0.3249
660.10 0.3256
660.20 0.3262
660.30 0.3269
660.40 0.3273
660.50 0.3278
660.60 0.3282
660.70 0.3287
660.80 0.3291
660.90 0.3295
661.00 0.33
661.10 0.3304
661.20 0.3308
661.30 0.3312
661.40 0.3315
661.50 0.3318
661.60 0.332
661.70 0.3323
661.80 0.3325
661.90 0.3328
662.00 0.333
662.10 0.3333
662.20 0.3336
662.30 0.3338
662.40 0.3339
662.50 0.3341
662.60 0.3342
662.70 0.3343
662.80 0.3344
662.90 0.3346
663.00 0.3347
663.10 0.3348
663.20 0.335
663.30 0.3351
663.40 0.3351
663.50 0.3352
663.60 0.3352
663.70 0.3353
663.80 0.3353
663.90 0.3354
664.00 0.3354
664.10 0.3354
664.20 0.3355
664.30 0.3355
664.40 0.3355
664.50 0.3355
664.60 0.3355
664.70 0.3354
664.80 0.3354
664.90 0.3354
665.00 0.3354
665.10 0.3354
665.20 0.3354
665.30 0.3353
665.40 0.3353
665.50 0.3352
665.60 0.3352
665.70 0.3351
665.80 0.335
665.90 0.335
666.00 0.3349
666.10 0.3349
666.20 0.3348
666.30 0.3347
666.40 0.3346
666.50 0.3345
666.60 0.3344
666.70 0.3344
666.80 0.3343
666.90 0.3342
667.00 0.3341
667.10 0.334
667.20 0.3339
667.30 0.3338
667.40 0.3337
667.50 0.3336
667.60 0.3335
667.70 0.3334
667.80 0.3332
667.90 0.3331
668.00 0.333
668.10 0.3329
668.20 0.3328
668.30 0.3327
668.40 0.3325
668.50 0.3324
668.60 0.3323
668.70 0.3322
668.80 0.332
668.90 0.3319
669.00 0.3318
669.10 0.3316
669.20 0.3315
669.30 0.3314
669.40 0.3312
669.50 0.3311
669.60 0.331
669.70 0.3308
669.80 0.3307
669.90 0.3305
670.00 0.3304
670.10 0.3303
670.20 0.3301
670.30 0.33
670.40 0.3298
670.50 0.3297
670.60 0.3295
670.70 0.3294
670.80 0.3292
670.90 0.3291
671.00 0.3289
671.10 0.3288
671.20 0.3286
671.30 0.3285
671.40 0.3283
671.50 0.3282
671.60 0.328
671.70 0.3279
671.80 0.3277
671.90 0.3275
672.00 0.3274
672.10 0.3272
672.20 0.3271
672.30 0.3269
672.40 0.3268
672.50 0.3266
672.60 0.3264
672.70 0.3263
672.80 0.3261
672.90 0.326
673.00 0.3258
673.10 0.3256
673.20 0.3255
673.30 0.3253
673.40 0.3252
673.50 0.325
673.60 0.3248
673.70 0.3247
673.80 0.3245
673.90 0.3243
674.00 0.3242
674.10 0.324
674.20 0.3239
674.30 0.3237
674.40 0.3235
674.50 0.3234
674.60 0.3232
674.70 0.323
674.80 0.3229
674.90 0.3227
675.00 0.3225
675.10 0.3224
675.20 0.3222
675.30 0.322
675.40 0.3219
675.50 0.3217
675.60 0.3215
675.70 0.3214
675.80 0.3212
675.90 0.321
676.00 0.3209
676.10 0.3207
676.20 0.3205
676.30 0.3204
676.40 0.3202
676.50 0.32
676.60 0.3199
676.70 0.3197
676.80 0.3195
676.90 0.3194
677.00 0.3192
677.10 0.319
677.20 0.3189
677.30 0.3187
677.40 0.3185
677.50 0.3183
677.60 0.3182
677.70 0.318
677.80 0.3178
677.90 0.3177
678.00 0.3175
678.10 0.3173
678.20 0.3172
678.30 0.317
678.40 0.3168
678.50 0.3167
678.60 0.3165
678.70 0.3163
678.80 0.3162
678.90 0.316
679.00 0.3158
679.10 0.3156
679.20 0.3155
679.30 0.3153
679.40 0.3151
679.50 0.315
679.60 0.3148
679.70 0.3146
679.80 0.3145
679.90 0.3143
680.00 0.3141
680.10 0.314
680.20 0.3138
680.30 0.3136
680.40 0.3134
680.50 0.3133
680.60 0.3131
680.70 0.3129
680.80 0.3128
680.90 0.3126
681.00 0.3124
681.10 0.3123
681.20 0.3121
681.30 0.3119
681.40 0.3118
681.50 0.3116
681.60 0.3114
681.70 0.3113
681.80 0.3111
681.90 0.3109
682.00 0.3107
682.10 0.3106
682.20 0.3104
682.30 0.3102
682.40 0.3101
682.50 0.3099
682.60 0.3097
682.70 0.3096
682.80 0.3094
682.90 0.3092
683.00 0.3091
683.10 0.3089
683.20 0.3087
683.30 0.3086
683.40 0.3084
683.50 0.3082
683.60 0.3081
683.70 0.3079
683.80 0.3077
683.90 0.3076
684.00 0.3074
684.10 0.3072
684.20 0.3071
684.30 0.3069
684.40 0.3067
684.50 0.3065
684.60 0.3064
684.70 0.3062
684.80 0.306
684.90 0.3059
685.00 0.3057
685.10 0.3055
685.20 0.3054
685.30 0.3052
685.40 0.305
685.50 0.3049
685.60 0.3047
685.70 0.3045
685.80 0.3044
685.90 0.3042
686.00 0.304
686.10 0.3039
686.20 0.3037
686.30 0.3036
686.40 0.3034
686.50 0.3032
686.60 0.3031
686.70 0.3029
686.80 0.3027
686.90 0.3026
687.00 0.3024
687.10 0.3022
687.20 0.3021
687.30 0.3019
687.40 0.3017
687.50 0.3016
687.60 0.3014
687.70 0.3012
687.80 0.3011
687.90 0.3009
688.00 0.3007
688.10 0.3006
688.20 0.3004
688.30 0.3003
688.40 0.3001
688.50 0.2999
688.60 0.2998
688.70 0.2996
688.80 0.2994
688.90 0.2993
689.00 0.2991
689.10 0.2989
689.20 0.2988
689.30 0.2986
689.40 0.2985
689.50 0.2983
689.60 0.2981
689.70 0.298
689.80 0.2978
689.90 0.2976
690.00 0.2975
690.10 0.2973
690.20 0.2972
690.30 0.297
690.40 0.2968
690.50 0.2967
690.60 0.2965
690.70 0.2963
690.80 0.2962
690.90 0.296
691.00 0.2959
691.10 0.2957
691.20 0.2955
691.30 0.2954
691.40 0.2952
691.50 0.295
691.60 0.2949
691.70 0.2947
691.80 0.2946
691.90 0.2944
692.00 0.2942
692.10 0.2941
692.20 0.2939
692.30 0.2938
692.40 0.2936
692.50 0.2934
692.60 0.2933
692.70 0.2931
692.80 0.293
692.90 0.2928
693.00 0.2926
693.10 0.2925
693.20 0.2923
693.30 0.2922
693.40 0.292
693.50 0.2918
693.60 0.2917
693.70 0.2915
693.80 0.2914
693.90 0.2912
694.00 0.291
694.10 0.2909
694.20 0.2907
694.30 0.2906
694.40 0.2904
694.50 0.2902
694.60 0.2901
694.70 0.2899
694.80 0.2898
694.90 0.2896
695.00 0.2895
695.10 0.2893
695.20 0.2891
695.30 0.289
695.40 0.2888
695.50 0.2887
695.60 0.2885
695.70 0.2884
695.80 0.2882
695.90 0.288
696.00 0.2879
696.10 0.2877
696.20 0.2876
696.30 0.2874
696.40 0.2873
696.50 0.2871
696.60 0.2869
696.70 0.2868
696.80 0.2866
696.90 0.2865
697.00 0.2863
697.10 0.2862
697.20 0.286
697.30 0.2859
697.40 0.2857
697.50 0.2855
697.60 0.2854
697.70 0.2852
697.80 0.2851
697.90 0.2849
698.00 0.2848
698.10 0.2846
698.20 0.2845
698.30 0.2843
698.40 0.2841
698.50 0.284
698.60 0.2838
698.70 0.2837
698.80 0.2835
698.90 0.2834
699.00 0.2832
699.10 0.2831
699.20 0.2829
699.30 0.2828
699.40 0.2826
699.50 0.2824
699.60 0.2823
699.70 0.2821
699.80 0.282
699.90 0.2818
700.00 0.2817
700.10 0.2815
700.20 0.2814
700.30 0.2812
700.40 0.2811
700.50 0.2809
700.60 0.2808
700.70 0.2806
700.80 0.2805
700.90 0.2803
701.00 0.2802
701.10 0.28
701.20 0.2799
701.30 0.2797
701.40 0.2795
701.50 0.2794
701.60 0.2792
701.70 0.2791
701.80 0.2789
701.90 0.2788
702.00 0.2786
702.10 0.2785
702.20 0.2783
702.30 0.2782
702.40 0.278
702.50 0.2779
702.60 0.2777
702.70 0.2776
702.80 0.2774
702.90 0.2773
703.00 0.2771
703.10 0.277
703.20 0.2768
703.30 0.2767
703.40 0.2765
703.50 0.2764
703.60 0.2762
703.70 0.2761
703.80 0.2759
703.90 0.2758
704.00 0.2756
704.10 0.2755
704.20 0.2753
704.30 0.2752
704.40 0.275
704.50 0.2749
704.60 0.2747
704.70 0.2746
704.80 0.2744
704.90 0.2743
705.00 0.2741
705.10 0.274
705.20 0.2738
705.30 0.2737
705.40 0.2736
705.50 0.2734
705.60 0.2733
705.70 0.2731
705.80 0.273
705.90 0.2728
706.00 0.2727
706.10 0.2725
706.20 0.2724
706.30 0.2722
706.40 0.2721
706.50 0.2719
706.60 0.2718
706.70 0.2716
706.80 0.2715
706.90 0.2714
707.00 0.2712
707.10 0.2711
707.20 0.2709
707.30 0.2708
707.40 0.2706
707.50 0.2705
707.60 0.2703
707.70 0.2702
707.80 0.27
707.90 0.2699
708.00 0.2697
708.10 0.2696
708.20 0.2695
708.30 0.2693
708.40 0.2692
708.50 0.269
708.60 0.2689
708.70 0.2687
708.80 0.2686
708.90 0.2684
709.00 0.2683
709.10 0.2682
709.20 0.268
709.30 0.2679
709.40 0.2677
709.50 0.2676
709.60 0.2674
709.70 0.2673
709.80 0.2671
709.90 0.267
710.00 0.2669
710.10 0.2667
710.20 0.2666
710.30 0.2664
710.40 0.2663
710.50 0.2661
710.60 0.266
710.70 0.2659
710.80 0.2657
710.90 0.2656
711.00 0.2654
711.10 0.2653
711.20 0.2651
711.30 0.265
711.40 0.2649
711.50 0.2647
711.60 0.2646
711.70 0.2644
711.80 0.2643
711.90 0.2641
712.00 0.264
712.10 0.2639
712.20 0.2637
712.30 0.2636
712.40 0.2634
712.50 0.2633
712.60 0.2632
712.70 0.263
712.80 0.2629
712.90 0.2627
713.00 0.2626
713.10 0.2625
713.20 0.2623
713.30 0.2622
713.40 0.262
713.50 0.2619
713.60 0.2618
713.70 0.2616
713.80 0.2615
713.90 0.2613
714.00 0.2612
714.10 0.2611
714.20 0.2609
714.30 0.2608
714.40 0.2606
714.50 0.2605
714.60 0.2604
714.70 0.2602
714.80 0.2601
714.90 0.2599
715.00 0.2598
715.10 0.2597
715.20 0.2595
715.30 0.2594
715.40 0.2592
715.50 0.2591
715.60 0.259
715.70 0.2588
715.80 0.2587
715.90 0.2586
716.00 0.2584
716.10 0.2583
716.20 0.2581
716.30 0.258
716.40 0.2579
716.50 0.2577
716.60 0.2576
716.70 0.2575
716.80 0.2573
716.90 0.2572
717.00 0.257
717.10 0.2569
717.20 0.2568
717.30 0.2566
717.40 0.2565
717.50 0.2564
717.60 0.2562
717.70 0.2561
717.80 0.256
717.90 0.2558
718.00 0.2557
718.10 0.2555
718.20 0.2554
718.30 0.2553
718.40 0.2551
718.50 0.255
718.60 0.2549
718.70 0.2547
718.80 0.2546
718.90 0.2545
719.00 0.2543
719.10 0.2542
719.20 0.254
719.30 0.2539
719.40 0.2538
719.50 0.2536
719.60 0.2535
719.70 0.2534
719.80 0.2532
719.90 0.2531
720.00 0.253
720.10 0.2528
720.20 0.2527
720.30 0.2526
720.40 0.2524
720.50 0.2523
720.60 0.2522
720.70 0.252
720.80 0.2519
720.90 0.2518
721.00 0.2516
721.10 0.2515
721.20 0.2514
721.30 0.2512
721.40 0.2511
721.50 0.251
721.60 0.2508
721.70 0.2507
721.80 0.2506
721.90 0.2504
722.00 0.2503
722.10 0.2502
722.20 0.25
722.30 0.2499
722.40 0.2498
722.50 0.2496
722.60 0.2495
722.70 0.2494
722.80 0.2492
722.90 0.2491
723.00 0.249
723.10 0.2489
723.20 0.2487
723.30 0.2486
723.40 0.2485
723.50 0.2483
723.60 0.2482
723.70 0.2481
723.80 0.2479
723.90 0.2478
724.00 0.2477
724.10 0.2475
724.20 0.2474
724.30 0.2473
724.40 0.2471
724.50 0.247
724.60 0.2469
724.70 0.2468
724.80 0.2466
724.90 0.2465
725.00 0.2464
725.10 0.2462
725.20 0.2461
725.30 0.246
725.40 0.2458
725.50 0.2457
725.60 0.2456
725.70 0.2455
725.80 0.2453
725.90 0.2452
726.00 0.2451
726.10 0.2449
726.20 0.2448
726.30 0.2447
726.40 0.2446
726.50 0.2444
726.60 0.2443
726.70 0.2442
726.80 0.244
726.90 0.2439
727.00 0.2438
727.10 0.2437
727.20 0.2435
727.30 0.2434
727.40 0.2433
727.50 0.2431
727.60 0.243
727.70 0.2429
727.80 0.2428
727.90 0.2426
728.00 0.2425
728.10 0.2424
728.20 0.2422
728.30 0.2421
728.40 0.242
728.50 0.2419
728.60 0.2417
728.70 0.2416
728.80 0.2415
728.90 0.2414
729.00 0.2412
729.10 0.2411
729.20 0.241
729.30 0.2409
729.40 0.2407
729.50 0.2406
729.60 0.2405
729.70 0.2403
729.80 0.2402
729.90 0.2401
730.00 0.24
730.10 0.2398
730.20 0.2397
730.30 0.2396
730.40 0.2395
730.50 0.2393
730.60 0.2392
730.70 0.2391
730.80 0.239
730.90 0.2388
731.00 0.2387
731.10 0.2386
731.20 0.2385
731.30 0.2383
731.40 0.2382
731.50 0.2381
731.60 0.238
731.70 0.2379
731.80 0.2377
731.90 0.2376
732.00 0.2375
732.10 0.2374
732.20 0.2372
732.30 0.2371
732.40 0.237
732.50 0.2369
732.60 0.2367
732.70 0.2366
732.80 0.2365
732.90 0.2364
733.00 0.2362
733.10 0.2361
733.20 0.236
733.30 0.2359
733.40 0.2358
733.50 0.2356
733.60 0.2355
733.70 0.2354
733.80 0.2353
733.90 0.2351
734.00 0.235
734.10 0.2349
734.20 0.2348
734.30 0.2347
734.40 0.2345
734.50 0.2344
734.60 0.2343
734.70 0.2342
734.80 0.234
734.90 0.2339
735.00 0.2338
735.10 0.2337
735.20 0.2336
735.30 0.2334
735.40 0.2333
735.50 0.2332
735.60 0.2331
735.70 0.2329
735.80 0.2328
735.90 0.2327
736.00 0.2326
736.10 0.2325
736.20 0.2323
736.30 0.2322
736.40 0.2321
736.50 0.232
736.60 0.2319
736.70 0.2317
736.80 0.2316
736.90 0.2315
737.00 0.2314
737.10 0.2313
737.20 0.2311
737.30 0.231
737.40 0.2309
737.50 0.2308
737.60 0.2307
737.70 0.2305
737.80 0.2304
737.90 0.2303
738.00 0.2302
738.10 0.2301
738.20 0.2299
738.30 0.2298
738.40 0.2297
738.50 0.2296
738.60 0.2295
738.70 0.2293
738.80 0.2292
738.90 0.2291
739.00 0.229
739.10 0.2289
739.20 0.2287
739.30 0.2286
739.40 0.2285
739.50 0.2284
739.60 0.2283
739.70 0.2281
739.80 0.228
739.90 0.2279
740.00 0.2278
740.10 0.2277
740.20 0.2275
740.30 0.2274
740.40 0.2273
740.50 0.2272
740.60 0.2271
740.70 0.227
740.80 0.2268
740.90 0.2267
741.00 0.2266
741.10 0.2265
741.20 0.2264
741.30 0.2263
741.40 0.2262
741.50 0.226
741.60 0.2259
741.70 0.2258
741.80 0.2257
741.90 0.2256
742.00 0.2255
742.10 0.2253
742.20 0.2252
742.30 0.2251
742.40 0.225
742.50 0.2249
742.60 0.2248
742.70 0.2246
742.80 0.2245
742.90 0.2244
743.00 0.2243
743.10 0.2242
743.20 0.2241
743.30 0.224
743.40 0.2238
743.50 0.2237
743.60 0.2236
743.70 0.2235
743.80 0.2234
743.90 0.2233
744.00 0.2231
744.10 0.223
744.20 0.2229
744.30 0.2228
744.40 0.2227
744.50 0.2226
744.60 0.2225
744.70 0.2223
744.80 0.2222
744.90 0.2221
745.00 0.222
745.10 0.2219
745.20 0.2218
745.30 0.2217
745.40 0.2215
745.50 0.2214
745.60 0.2213
745.70 0.2212
745.80 0.2211
745.90 0.221
746.00 0.2209
746.10 0.2208
746.20 0.2206
746.30 0.2205
746.40 0.2204
746.50 0.2203
746.60 0.2202
746.70 0.2201
746.80 0.22
746.90 0.2198
747.00 0.2197
747.10 0.2196
747.20 0.2195
747.30 0.2194
747.40 0.2193
747.50 0.2192
747.60 0.2191
747.70 0.2189
747.80 0.2188
747.90 0.2187
748.00 0.2186
748.10 0.2185
748.20 0.2184
748.30 0.2183
748.40 0.2182
748.50 0.218
748.60 0.2179
748.70 0.2178
748.80 0.2177
748.90 0.2176
749.00 0.2175
749.10 0.2174
749.20 0.2173
749.30 0.2171
749.40 0.217
749.50 0.2169
749.60 0.2168
749.70 0.2167
749.80 0.2166
749.90 0.2165
750.00 0.2164
750.10 0.2163
750.20 0.2161
750.30 0.216
750.40 0.2159
750.50 0.2158
750.60 0.2157
750.70 0.2156
750.80 0.2155
750.90 0.2154
751.00 0.2153
751.10 0.2152
751.20 0.215
751.30 0.2149
751.40 0.2148
751.50 0.2147
751.60 0.2146
751.70 0.2145
751.80 0.2144
751.90 0.2143
752.00 0.2142
752.10 0.2141
752.20 0.214
752.30 0.2139
752.40 0.2137
752.50 0.2136
752.60 0.2135
752.70 0.2134
752.80 0.2133
752.90 0.2132
753.00 0.2131
753.10 0.213
753.20 0.2129
753.30 0.2128
753.40 0.2127
753.50 0.2126
753.60 0.2124
753.70 0.2123
753.80 0.2122
753.90 0.2121
754.00 0.212
754.10 0.2119
754.20 0.2118
754.30 0.2117
754.40 0.2116
754.50 0.2115
754.60 0.2114
754.70 0.2113
754.80 0.2112
754.90 0.211
755.00 0.2109
755.10 0.2108
755.20 0.2107
755.30 0.2106
755.40 0.2105
755.50 0.2104
755.60 0.2103
755.70 0.2102
755.80 0.2101
755.90 0.21
756.00 0.2099
756.10 0.2098
756.20 0.2097
756.30 0.2096
756.40 0.2094
756.50 0.2093
756.60 0.2092
756.70 0.2091
756.80 0.209
756.90 0.2089
757.00 0.2088
757.10 0.2087
757.20 0.2086
757.30 0.2085
757.40 0.2084
757.50 0.2083
757.60 0.2082
757.70 0.2081
757.80 0.208
757.90 0.2079
758.00 0.2077
758.10 0.2076
758.20 0.2075
758.30 0.2074
758.40 0.2073
758.50 0.2072
758.60 0.2071
758.70 0.207
758.80 0.2069
758.90 0.2068
759.00 0.2067
759.10 0.2066
759.20 0.2065
759.30 0.2064
759.40 0.2063
759.50 0.2062
759.60 0.2061
759.70 0.206
759.80 0.2059
759.90 0.2058
760.00 0.2056
760.10 0.2055
760.20 0.2054
760.30 0.2053
760.40 0.2052
760.50 0.2051
760.60 0.205
760.70 0.2049
760.80 0.2048
760.90 0.2047
761.00 0.2046
761.10 0.2045
761.20 0.2044
761.30 0.2043
761.40 0.2042
761.50 0.2041
761.60 0.204
761.70 0.2039
761.80 0.2038
761.90 0.2037
762.00 0.2036
762.10 0.2035
762.20 0.2034
762.30 0.2033
762.40 0.2032
762.50 0.2031
762.60 0.203
762.70 0.2029
762.80 0.2028
762.90 0.2027
763.00 0.2026
763.10 0.2025
763.20 0.2024
763.30 0.2023
763.40 0.2022
763.50 0.2021
763.60 0.202
763.70 0.2019
763.80 0.2018
763.90 0.2017
764.00 0.2016
764.10 0.2015
764.20 0.2014
764.30 0.2013
764.40 0.2012
764.50 0.2011
764.60 0.201
764.70 0.2009
764.80 0.2008
764.90 0.2007
765.00 0.2006
765.10 0.2005
765.20 0.2004
765.30 0.2003
765.40 0.2002
765.50 0.2001
765.60 0.2
765.70 0.1999
765.80 0.1998
765.90 0.1997
766.00 0.1996
766.10 0.1995
766.20 0.1994
766.30 0.1993
766.40 0.1992
766.50 0.1991
766.60 0.199
766.70 0.1989
766.80 0.1988
766.90 0.1987
767.00 0.1986
767.10 0.1985
767.20 0.1984
767.30 0.1983
767.40 0.1982
767.50 0.1981
767.60 0.198
767.70 0.1979
767.80 0.1978
767.90 0.1977
768.00 0.1976
768.10 0.1975
768.20 0.1974
768.30 0.1973
768.40 0.1972
768.50 0.1971
768.60 0.197
768.70 0.1969
768.80 0.1968
768.90 0.1967
769.00 0.1966
769.10 0.1965
769.20 0.1964
769.30 0.1963
769.40 0.1962
769.50 0.1961
769.60 0.196
769.70 0.1959
769.80 0.1958
769.90 0.1957
770.00 0.1956
770.10 0.1955
770.20 0.1954
770.30 0.1953
770.40 0.1952
770.50 0.1951
770.60 0.195
770.70 0.1949
770.80 0.1948
770.90 0.1947
771.00 0.1946
771.10 0.1945
771.20 0.1944
771.30 0.1943
771.40 0.1942
771.50 0.1941
771.60 0.194
771.70 0.1939
771.80 0.1939
771.90 0.1938
772.00 0.1937
772.10 0.1936
772.20 0.1935
772.30 0.1934
772.40 0.1933
772.50 0.1932
772.60 0.1931
772.70 0.193
772.80 0.1929
772.90 0.1928
773.00 0.1927
773.10 0.1926
773.20 0.1925
773.30 0.1924
773.40 0.1923
773.50 0.1922
773.60 0.1921
773.70 0.192
773.80 0.1919
773.90 0.1918
774.00 0.1918
774.10 0.1917
774.20 0.1916
774.30 0.1915
774.40 0.1914
774.50 0.1913
774.60 0.1912
774.70 0.1911
774.80 0.191
774.90 0.1909
775.00 0.1908
775.10 0.1907
775.20 0.1906
775.30 0.1905
775.40 0.1904
775.50 0.1903
775.60 0.1902
775.70 0.1901
775.80 0.1901
775.90 0.19
776.00 0.1899
776.10 0.1898
776.20 0.1897
776.30 0.1896
776.40 0.1895
776.50 0.1894
776.60 0.1893
776.70 0.1892
776.80 0.1891
776.90 0.189
777.00 0.1889
777.10 0.1888
777.20 0.1887
777.30 0.1886
777.40 0.1885
777.50 0.1885
777.60 0.1884
777.70 0.1883
777.80 0.1882
777.90 0.1881
778.00 0.188
778.10 0.1879
778.20 0.1878
778.30 0.1877
778.40 0.1876
778.50 0.1875
778.60 0.1874
778.70 0.1873
778.80 0.1872
778.90 0.1872
779.00 0.1871
779.10 0.187
779.20 0.1869
779.30 0.1868
779.40 0.1867
779.50 0.1866
779.60 0.1865
779.70 0.1864
779.80 0.1863
779.90 0.1862
780.00 0.1861
780.10 0.186
780.20 0.1859
780.30 0.1859
780.40 0.1858
780.50 0.1857
780.60 0.1856
780.70 0.1855
780.80 0.1854
780.90 0.1853
781.00 0.1852
781.10 0.1851
781.20 0.185
781.30 0.185
781.40 0.1849
781.50 0.1848
781.60 0.1847
781.70 0.1846
781.80 0.1845
781.90 0.1844
782.00 0.1843
782.10 0.1842
782.20 0.1841
782.30 0.1841
782.40 0.184
782.50 0.1839
782.60 0.1838
782.70 0.1837
782.80 0.1836
782.90 0.1835
783.00 0.1834
783.10 0.1833
783.20 0.1832
783.30 0.1832
783.40 0.1831
783.50 0.183
783.60 0.1829
783.70 0.1828
783.80 0.1827
783.90 0.1826
784.00 0.1825
784.10 0.1824
784.20 0.1824
784.30 0.1823
784.40 0.1822
784.50 0.1821
784.60 0.182
784.70 0.1819
784.80 0.1818
784.90 0.1817
785.00 0.1816
785.10 0.1815
785.20 0.1815
785.30 0.1814
785.40 0.1813
785.50 0.1812
785.60 0.1811
785.70 0.181
785.80 0.1809
785.90 0.1808
786.00 0.1808
786.10 0.1807
786.20 0.1806
786.30 0.1805
786.40 0.1804
786.50 0.1803
786.60 0.1802
786.70 0.1801
786.80 0.18
786.90 0.18
787.00 0.1799
787.10 0.1798
787.20 0.1797
787.30 0.1796
787.40 0.1795
787.50 0.1794
787.60 0.1793
787.70 0.1793
787.80 0.1792
787.90 0.1791
788.00 0.179
788.10 0.1789
788.20 0.1788
788.30 0.1787
788.40 0.1786
788.50 0.1786
788.60 0.1785
788.70 0.1784
788.80 0.1783
788.90 0.1782
789.00 0.1781
789.10 0.178
789.20 0.1779
789.30 0.1779
789.40 0.1778
789.50 0.1777
789.60 0.1776
789.70 0.1775
789.80 0.1774
789.90 0.1773
790.00 0.1772
790.10 0.1772
790.20 0.1771
790.30 0.177
790.40 0.1769
790.50 0.1768
790.60 0.1767
790.70 0.1766
790.80 0.1766
790.90 0.1765
791.00 0.1764
791.10 0.1763
791.20 0.1762
791.30 0.1761
791.40 0.176
791.50 0.176
791.60 0.1759
791.70 0.1758
791.80 0.1757
791.90 0.1756
792.00 0.1755
792.10 0.1755
792.20 0.1754
792.30 0.1753
792.40 0.1752
792.50 0.1751
792.60 0.175
792.70 0.1749
792.80 0.1749
792.90 0.1748
793.00 0.1747
793.10 0.1746
793.20 0.1745
793.30 0.1744
793.40 0.1744
793.50 0.1743
793.60 0.1742
793.70 0.1741
793.80 0.174
793.90 0.1739
794.00 0.1739
794.10 0.1738
794.20 0.1737
794.30 0.1736
794.40 0.1735
794.50 0.1734
794.60 0.1733
794.70 0.1733
794.80 0.1732
794.90 0.1731
795.00 0.173
795.10 0.1729
795.20 0.1728
795.30 0.1728
795.40 0.1727
795.50 0.1726
795.60 0.1725
795.70 0.1724
795.80 0.1723
795.90 0.1723
796.00 0.1722
796.10 0.1721
796.20 0.172
796.30 0.1719
796.40 0.1718
796.50 0.1718
796.60 0.1717
796.70 0.1716
796.80 0.1715
796.90 0.1714
797.00 0.1713
797.10 0.1713
797.20 0.1712
797.30 0.1711
797.40 0.171
797.50 0.1709
797.60 0.1709
797.70 0.1708
797.80 0.1707
797.90 0.1706
798.00 0.1705
798.10 0.1704
798.20 0.1704
798.30 0.1703
798.40 0.1702
798.50 0.1701
798.60 0.17
798.70 0.1699
798.80 0.1699
798.90 0.1698
799.00 0.1697
799.10 0.1696
799.20 0.1695
799.30 0.1695
799.40 0.1694
799.50 0.1693
799.60 0.1692
799.70 0.1691
799.80 0.169
799.90 0.169
800.00 0.1689
800.10 0.1688
800.20 0.1687
800.30 0.1686
800.40 0.1686
800.50 0.1685
800.60 0.1684
800.70 0.1683
800.80 0.1682
800.90 0.1682
801.00 0.1681
801.10 0.168
801.20 0.1679
801.30 0.1678
801.40 0.1678
801.50 0.1677
801.60 0.1676
801.70 0.1675
801.80 0.1674
801.90 0.1674
802.00 0.1673
802.10 0.1672
802.20 0.1671
802.30 0.167
802.40 0.167
802.50 0.1669
802.60 0.1668
802.70 0.1667
802.80 0.1666
802.90 0.1666
803.00 0.1665
803.10 0.1664
803.20 0.1663
803.30 0.1662
803.40 0.1662
803.50 0.1661
803.60 0.166
803.70 0.1659
803.80 0.1658
803.90 0.1658
804.00 0.1657
804.10 0.1656
804.20 0.1655
804.30 0.1654
804.40 0.1654
804.50 0.1653
804.60 0.1652
804.70 0.1651
804.80 0.1651
804.90 0.165
805.00 0.1649
805.10 0.1648
805.20 0.1647
805.30 0.1647
805.40 0.1646
805.50 0.1645
805.60 0.1644
805.70 0.1643
805.80 0.1643
805.90 0.1642
806.00 0.1641
806.10 0.164
806.20 0.164
806.30 0.1639
806.40 0.1638
806.50 0.1637
806.60 0.1636
806.70 0.1636
806.80 0.1635
806.90 0.1634
807.00 0.1633
807.10 0.1632
807.20 0.1632
807.30 0.1631
807.40 0.163
807.50 0.1629
807.60 0.1629
807.70 0.1628
807.80 0.1627
807.90 0.1626
808.00 0.1625
808.10 0.1625
808.20 0.1624
808.30 0.1623
808.40 0.1622
808.50 0.1622
808.60 0.1621
808.70 0.162
808.80 0.1619
808.90 0.1618
809.00 0.1618
809.10 0.1617
809.20 0.1616
809.30 0.1615
809.40 0.1615
809.50 0.1614
809.60 0.1613
809.70 0.1612
809.80 0.1612
809.90 0.1611
810.00 0.161
810.10 0.1609
810.20 0.1608
810.30 0.1608
810.40 0.1607
810.50 0.1606
810.60 0.1605
810.70 0.1605
810.80 0.1604
810.90 0.1603
811.00 0.1602
811.10 0.1602
811.20 0.1601
811.30 0.16
811.40 0.1599
811.50 0.1599
811.60 0.1598
811.70 0.1597
811.80 0.1596
811.90 0.1596
812.00 0.1595
812.10 0.1594
812.20 0.1593
812.30 0.1593
812.40 0.1592
812.50 0.1591
812.60 0.159
812.70 0.159
812.80 0.1589
812.90 0.1588
813.00 0.1587
813.10 0.1587
813.20 0.1586
813.30 0.1585
813.40 0.1584
813.50 0.1584
813.60 0.1583
813.70 0.1582
813.80 0.1581
813.90 0.1581
814.00 0.158
814.10 0.1579
814.20 0.1578
814.30 0.1578
814.40 0.1577
814.50 0.1576
814.60 0.1575
814.70 0.1575
814.80 0.1574
814.90 0.1573
815.00 0.1572
815.10 0.1572
815.20 0.1571
815.30 0.157
815.40 0.157
815.50 0.1569
815.60 0.1568
815.70 0.1567
815.80 0.1567
815.90 0.1566
816.00 0.1565
816.10 0.1564
816.20 0.1564
816.30 0.1563
816.40 0.1562
816.50 0.1561
816.60 0.1561
816.70 0.156
816.80 0.1559
816.90 0.1558
817.00 0.1558
817.10 0.1557
817.20 0.1556
817.30 0.1556
817.40 0.1555
817.50 0.1554
817.60 0.1553
817.70 0.1553
817.80 0.1552
817.90 0.1551
818.00 0.155
818.10 0.155
818.20 0.1549
818.30 0.1548
818.40 0.1547
818.50 0.1547
818.60 0.1546
818.70 0.1545
818.80 0.1545
818.90 0.1544
819.00 0.1543
819.10 0.1542
819.20 0.1542
819.30 0.1541
819.40 0.154
819.50 0.1539
819.60 0.1539
819.70 0.1538
819.80 0.1537
819.90 0.1537
820.00 0.1536
820.10 0.1535
820.20 0.1534
820.30 0.1534
820.40 0.1533
820.50 0.1532
820.60 0.1531
820.70 0.1531
820.80 0.153
820.90 0.1529
821.00 0.1529
821.10 0.1528
821.20 0.1527
821.30 0.1526
821.40 0.1526
821.50 0.1525
821.60 0.1524
821.70 0.1524
821.80 0.1523
821.90 0.1522
822.00 0.1521
822.10 0.1521
822.20 0.152
822.30 0.1519
822.40 0.1519
822.50 0.1518
822.60 0.1517
822.70 0.1516
822.80 0.1516
822.90 0.1515
823.00 0.1514
823.10 0.1514
823.20 0.1513
823.30 0.1512
823.40 0.1512
823.50 0.1511
823.60 0.151
823.70 0.1509
823.80 0.1509
823.90 0.1508
824.00 0.1507
824.10 0.1507
824.20 0.1506
824.30 0.1505
824.40 0.1505
824.50 0.1504
824.60 0.1503
824.70 0.1502
824.80 0.1502
824.90 0.1501
825.00 0.15
825.10 0.15
825.20 0.1499
825.30 0.1498
825.40 0.1497
825.50 0.1497
825.60 0.1496
825.70 0.1495
825.80 0.1495
825.90 0.1494
826.00 0.1493
826.10 0.1493
826.20 0.1492
826.30 0.1491
826.40 0.1491
826.50 0.149
826.60 0.1489
826.70 0.1488
826.80 0.1488
826.90 0.1487
827.00 0.1486
827.10 0.1486
827.20 0.1485
827.30 0.1484
827.40 0.1484
827.50 0.1483
827.60 0.1482
827.70 0.1482
827.80 0.1481
827.90 0.148
828.00 0.1479
828.10 0.1479
828.20 0.1478
828.30 0.1477
828.40 0.1477
828.50 0.1476
828.60 0.1475
828.70 0.1475
828.80 0.1474
828.90 0.1473
829.00 0.1473
829.10 0.1472
829.20 0.1471
829.30 0.1471
829.40 0.147
829.50 0.1469
829.60 0.1469
829.70 0.1468
829.80 0.1467
829.90 0.1466
830.00 0.1466
830.10 0.1465
830.20 0.1464
830.30 0.1464
830.40 0.1463
830.50 0.1462
830.60 0.1462
830.70 0.1461
830.80 0.146
830.90 0.146
831.00 0.1459
831.10 0.1458
831.20 0.1458
831.30 0.1457
831.40 0.1456
831.50 0.1456
831.60 0.1455
831.70 0.1454
831.80 0.1454
831.90 0.1453
832.00 0.1452
832.10 0.1452
832.20 0.1451
832.30 0.145
832.40 0.145
832.50 0.1449
832.60 0.1448
832.70 0.1448
832.80 0.1447
832.90 0.1446
833.00 0.1445
833.10 0.1445
833.20 0.1444
833.30 0.1443
833.40 0.1443
833.50 0.1442
833.60 0.1441
833.70 0.1441
833.80 0.144
833.90 0.1439
834.00 0.1439
834.10 0.1438
834.20 0.1437
834.30 0.1437
834.40 0.1436
834.50 0.1435
834.60 0.1435
834.70 0.1434
834.80 0.1433
834.90 0.1433
835.00 0.1432
835.10 0.1431
835.20 0.1431
835.30 0.143
835.40 0.1429
835.50 0.1429
835.60 0.1428
835.70 0.1427
835.80 0.1427
835.90 0.1426
836.00 0.1425
836.10 0.1425
836.20 0.1424
836.30 0.1423
836.40 0.1423
836.50 0.1422
836.60 0.1421
836.70 0.1421
836.80 0.142
836.90 0.1419
837.00 0.1419
837.10 0.1418
837.20 0.1417
837.30 0.1417
837.40 0.1416
837.50 0.1416
837.60 0.1415
837.70 0.1414
837.80 0.1414
837.90 0.1413
838.00 0.1412
838.10 0.1412
838.20 0.1411
838.30 0.141
838.40 0.141
838.50 0.1409
838.60 0.1408
838.70 0.1408
838.80 0.1407
838.90 0.1406
839.00 0.1406
839.10 0.1405
839.20 0.1404
839.30 0.1404
839.40 0.1403
839.50 0.1402
839.60 0.1402
839.70 0.1401
839.80 0.1401
839.90 0.14
840.00 0.1399
840.10 0.1399
840.20 0.1398
840.30 0.1397
840.40 0.1397
840.50 0.1396
840.60 0.1395
840.70 0.1395
840.80 0.1394
840.90 0.1393
841.00 0.1393
841.10 0.1392
841.20 0.1391
841.30 0.1391
841.40 0.139
841.50 0.139
841.60 0.1389
841.70 0.1388
841.80 0.1388
841.90 0.1387
842.00 0.1386
842.10 0.1386
842.20 0.1385
842.30 0.1384
842.40 0.1384
842.50 0.1383
842.60 0.1382
842.70 0.1382
842.80 0.1381
842.90 0.1381
843.00 0.138
843.10 0.1379
843.20 0.1379
843.30 0.1378
843.40 0.1377
843.50 0.1377
843.60 0.1376
843.70 0.1376
843.80 0.1375
843.90 0.1374
844.00 0.1374
844.10 0.1373
844.20 0.1372
844.30 0.1372
844.40 0.1371
844.50 0.137
844.60 0.137
844.70 0.1369
844.80 0.1369
844.90 0.1368
845.00 0.1367
845.10 0.1367
845.20 0.1366
845.30 0.1365
845.40 0.1365
845.50 0.1364
845.60 0.1364
845.70 0.1363
845.80 0.1362
845.90 0.1362
846.00 0.1361
846.10 0.136
846.20 0.136
846.30 0.1359
846.40 0.1358
846.50 0.1358
846.60 0.1357
846.70 0.1357
846.80 0.1356
846.90 0.1355
847.00 0.1355
847.10 0.1354
847.20 0.1353
847.30 0.1353
847.40 0.1352
847.50 0.1352
847.60 0.1351
847.70 0.135
847.80 0.135
847.90 0.1349
848.00 0.1349
848.10 0.1348
848.20 0.1347
848.30 0.1347
848.40 0.1346
848.50 0.1345
848.60 0.1345
848.70 0.1344
848.80 0.1344
848.90 0.1343
849.00 0.1342
849.10 0.1342
849.20 0.1341
849.30 0.1341
849.40 0.134
849.50 0.1339
849.60 0.1339
849.70 0.1338
849.80 0.1337
849.90 0.1337
850.00 0.1336
850.10 0.1336
850.20 0.1335
850.30 0.1334
850.40 0.1334
850.50 0.1333
850.60 0.1333
850.70 0.1332
850.80 0.1331
850.90 0.1331
851.00 0.133
851.10 0.133
851.20 0.1329
851.30 0.1328
851.40 0.1328
851.50 0.1327
851.60 0.1326
851.70 0.1326
851.80 0.1325
851.90 0.1325
852.00 0.1324
852.10 0.1323
852.20 0.1323
852.30 0.1322
852.40 0.1322
852.50 0.1321
852.60 0.132
852.70 0.132
852.80 0.1319
852.90 0.1319
853.00 0.1318
853.10 0.1317
853.20 0.1317
853.30 0.1316
853.40 0.1316
853.50 0.1315
853.60 0.1314
853.70 0.1314
853.80 0.1313
853.90 0.1313
854.00 0.1312
854.10 0.1311
854.20 0.1311
854.30 0.131
854.40 0.131
854.50 0.1309
854.60 0.1308
854.70 0.1308
854.80 0.1307
854.90 0.1307
855.00 0.1306
855.10 0.1306
855.20 0.1305
855.30 0.1304
855.40 0.1304
855.50 0.1303
855.60 0.1303
855.70 0.1302
855.80 0.1301
855.90 0.1301
856.00 0.13
856.10 0.13
856.20 0.1299
856.30 0.1298
856.40 0.1298
856.50 0.1297
856.60 0.1297
856.70 0.1296
856.80 0.1295
856.90 0.1295
857.00 0.1294
857.10 0.1294
857.20 0.1293
857.30 0.1293
857.40 0.1292
857.50 0.1291
857.60 0.1291
857.70 0.129
857.80 0.129
857.90 0.1289
858.00 0.1288
858.10 0.1288
858.20 0.1287
858.30 0.1287
858.40 0.1286
858.50 0.1286
858.60 0.1285
858.70 0.1284
858.80 0.1284
858.90 0.1283
859.00 0.1283
859.10 0.1282
859.20 0.1282
859.30 0.1281
859.40 0.128
859.50 0.128
859.60 0.1279
859.70 0.1279
859.80 0.1278
859.90 0.1278
860.00 0.1277
860.10 0.1276
860.20 0.1276
860.30 0.1275
860.40 0.1275
860.50 0.1274
860.60 0.1274
860.70 0.1273
860.80 0.1272
860.90 0.1272
861.00 0.1271
861.10 0.1271
861.20 0.127
861.30 0.127
861.40 0.1269
861.50 0.1268
861.60 0.1268
861.70 0.1267
861.80 0.1267
861.90 0.1266
862.00 0.1266
862.10 0.1265
862.20 0.1265
862.30 0.1264
862.40 0.1263
862.50 0.1263
862.60 0.1262
862.70 0.1262
862.80 0.1261
862.90 0.1261
863.00 0.126
863.10 0.1259
863.20 0.1259
863.30 0.1258
863.40 0.1258
863.50 0.1257
863.60 0.1257
863.70 0.1256
863.80 0.1255
863.90 0.1255
864.00 0.1254
864.10 0.1254
864.20 0.1253
864.30 0.1253
864.40 0.1252
864.50 0.1251
864.60 0.1251
864.70 0.125
864.80 0.125
864.90 0.1249
865.00 0.1249
865.10 0.1248
865.20 0.1248
865.30 0.1247
865.40 0.1246
865.50 0.1246
865.60 0.1245
865.70 0.1245
865.80 0.1244
865.90 0.1244
866.00 0.1243
866.10 0.1242
866.20 0.1242
866.30 0.1241
866.40 0.1241
866.50 0.124
866.60 0.124
866.70 0.1239
866.80 0.1239
866.90 0.1238
867.00 0.1237
867.10 0.1237
867.20 0.1236
867.30 0.1236
867.40 0.1235
867.50 0.1235
867.60 0.1234
867.70 0.1234
867.80 0.1233
867.90 0.1233
868.00 0.1232
868.10 0.1231
868.20 0.1231
868.30 0.123
868.40 0.123
868.50 0.1229
868.60 0.1229
868.70 0.1228
868.80 0.1228
868.90 0.1227
869.00 0.1227
869.10 0.1226
869.20 0.1225
869.30 0.1225
869.40 0.1224
869.50 0.1224
869.60 0.1223
869.70 0.1223
869.80 0.1222
869.90 0.1222
870.00 0.1221
870.10 0.1221
870.20 0.122
870.30 0.1219
870.40 0.1219
870.50 0.1218
870.60 0.1218
870.70 0.1217
870.80 0.1217
870.90 0.1216
871.00 0.1216
871.10 0.1215
871.20 0.1215
871.30 0.1214
871.40 0.1213
871.50 0.1213
871.60 0.1212
871.70 0.1212
871.80 0.1211
871.90 0.1211
872.00 0.121
872.10 0.121
872.20 0.1209
872.30 0.1209
872.40 0.1208
872.50 0.1208
872.60 0.1207
872.70 0.1207
872.80 0.1206
872.90 0.1205
873.00 0.1205
873.10 0.1204
873.20 0.1204
873.30 0.1203
873.40 0.1203
873.50 0.1202
873.60 0.1202
873.70 0.1201
873.80 0.1201
873.90 0.12
874.00 0.12
874.10 0.1199
874.20 0.1199
874.30 0.1198
874.40 0.1197
874.50 0.1197
874.60 0.1196
874.70 0.1196
874.80 0.1195
874.90 0.1195
875.00 0.1194
875.10 0.1194
875.20 0.1193
875.30 0.1193
875.40 0.1192
875.50 0.1192
875.60 0.1191
875.70 0.1191
875.80 0.119
875.90 0.119
876.00 0.1189
876.10 0.1189
876.20 0.1188
876.30 0.1187
876.40 0.1187
876.50 0.1186
876.60 0.1186
876.70 0.1185
876.80 0.1185
876.90 0.1184
877.00 0.1184
877.10 0.1183
877.20 0.1183
877.30 0.1182
877.40 0.1182
877.50 0.1181
877.60 0.1181
877.70 0.118
877.80 0.118
877.90 0.1179
878.00 0.1179
878.10 0.1178
878.20 0.1178
878.30 0.1177
878.40 0.1177
878.50 0.1176
878.60 0.1176
878.70 0.1175
878.80 0.1175
878.90 0.1174
879.00 0.1173
879.10 0.1173
879.20 0.1172
879.30 0.1172
879.40 0.1171
879.50 0.1171
879.60 0.117
879.70 0.117
879.80 0.1169
879.90 0.1169
880.00 0.1168
880.10 0.1168
880.20 0.1167
880.30 0.1167
880.40 0.1166
880.50 0.1166
880.60 0.1165
880.70 0.1165
880.80 0.1164
880.90 0.1164
881.00 0.1163
881.10 0.1163
881.20 0.1162
881.30 0.1162
881.40 0.1161
881.50 0.1161
881.60 0.116
881.70 0.116
881.80 0.1159
881.90 0.1159
882.00 0.1158
882.10 0.1158
882.20 0.1157
882.30 0.1157
882.40 0.1156
882.50 0.1156
882.60 0.1155
882.70 0.1155
882.80 0.1154
882.90 0.1154
883.00 0.1153
883.10 0.1153
883.20 0.1152
883.30 0.1152
883.40 0.1151
883.50 0.1151
883.60 0.115
883.70 0.115
883.80 0.1149
883.90 0.1149
884.00 0.1148
884.10 0.1148
884.20 0.1147
884.30 0.1147
884.40 0.1146
884.50 0.1146
884.60 0.1145
884.70 0.1145
884.80 0.1144
884.90 0.1144
885.00 0.1143
885.10 0.1143
885.20 0.1142
885.30 0.1142
885.40 0.1141
885.50 0.1141
885.60 0.114
885.70 0.114
885.80 0.1139
885.90 0.1139
886.00 0.1138
886.10 0.1138
886.20 0.1137
886.30 0.1137
886.40 0.1136
886.50 0.1136
886.60 0.1135
886.70 0.1135
886.80 0.1134
886.90 0.1134
887.00 0.1133
887.10 0.1133
887.20 0.1132
887.30 0.1132
887.40 0.1131
887.50 0.1131
887.60 0.113
887.70 0.113
887.80 0.1129
887.90 0.1129
888.00 0.1128
888.10 0.1128
888.20 0.1127
888.30 0.1127
888.40 0.1127
888.50 0.1126
888.60 0.1126
888.70 0.1125
888.80 0.1125
888.90 0.1124
889.00 0.1124
889.10 0.1123
889.20 0.1123
889.30 0.1122
889.40 0.1122
889.50 0.1121
889.60 0.1121
889.70 0.112
889.80 0.112
889.90 0.1119
890.00 0.1119
890.10 0.1118
890.20 0.1118
890.30 0.1117
890.40 0.1117
890.50 0.1116
890.60 0.1116
890.70 0.1115
890.80 0.1115
890.90 0.1114
891.00 0.1114
891.10 0.1114
891.20 0.1113
891.30 0.1113
891.40 0.1112
891.50 0.1112
891.60 0.1111
891.70 0.1111
891.80 0.111
891.90 0.111
892.00 0.1109
892.10 0.1109
892.20 0.1108
892.30 0.1108
892.40 0.1107
892.50 0.1107
892.60 0.1106
892.70 0.1106
892.80 0.1105
892.90 0.1105
893.00 0.1104
893.10 0.1104
893.20 0.1104
893.30 0.1103
893.40 0.1103
893.50 0.1102
893.60 0.1102
893.70 0.1101
893.80 0.1101
893.90 0.11
894.00 0.11
894.10 0.1099
894.20 0.1099
894.30 0.1098
894.40 0.1098
894.50 0.1097
894.60 0.1097
894.70 0.1096
894.80 0.1096
894.90 0.1096
895.00 0.1095
895.10 0.1095
895.20 0.1094
895.30 0.1094
895.40 0.1093
895.50 0.1093
895.60 0.1092
895.70 0.1092
895.80 0.1091
895.90 0.1091
896.00 0.109
896.10 0.109
896.20 0.1089
896.30 0.1089
896.40 0.1088
896.50 0.1088
896.60 0.1088
896.70 0.1087
896.80 0.1087
896.90 0.1086
897.00 0.1086
897.10 0.1085
897.20 0.1085
897.30 0.1084
897.40 0.1084
897.50 0.1083
897.60 0.1083
897.70 0.1082
897.80 0.1082
897.90 0.1082
898.00 0.1081
898.10 0.1081
898.20 0.108
898.30 0.108
898.40 0.1079
898.50 0.1079
898.60 0.1078
898.70 0.1078
898.80 0.1077
898.90 0.1077
899.00 0.1076
899.10 0.1076
899.20 0.1076
899.30 0.1075
899.40 0.1075
899.50 0.1074
899.60 0.1074
899.70 0.1073
899.80 0.1073
899.90 0.1072
900.00 0.1072
900.10 0.1071
900.20 0.1071
900.30 0.1071
900.40 0.107
900.50 0.107
900.60 0.1069
900.70 0.1069
900.80 0.1068
900.90 0.1068
901.00 0.1067
901.10 0.1067
901.20 0.1066
901.30 0.1066
901.40 0.1065
901.50 0.1065
901.60 0.1065
901.70 0.1064
901.80 0.1064
901.90 0.1063
902.00 0.1063
902.10 0.1062
902.20 0.1062
902.30 0.1061
902.40 0.1061
902.50 0.1061
902.60 0.106
902.70 0.106
902.80 0.1059
902.90 0.1059
903.00 0.1058
903.10 0.1058
903.20 0.1058
903.30 0.1057
903.40 0.1057
903.50 0.1056
903.60 0.1056
903.70 0.1055
903.80 0.1055
903.90 0.1054
904.00 0.1054
904.10 0.1054
904.20 0.1053
904.30 0.1053
904.40 0.1052
904.50 0.1052
904.60 0.1051
904.70 0.1051
904.80 0.1051
904.90 0.105
905.00 0.105
905.10 0.1049
905.20 0.1049
905.30 0.1048
905.40 0.1048
905.50 0.1048
905.60 0.1047
905.70 0.1047
905.80 0.1046
905.90 0.1046
906.00 0.1045
906.10 0.1045
906.20 0.1044
906.30 0.1044
906.40 0.1044
906.50 0.1043
906.60 0.1043
906.70 0.1042
906.80 0.1042
906.90 0.1041
907.00 0.1041
907.10 0.1041
907.20 0.104
907.30 0.104
907.40 0.1039
907.50 0.1039
907.60 0.1038
907.70 0.1038
907.80 0.1038
907.90 0.1037
908.00 0.1037
908.10 0.1036
908.20 0.1036
908.30 0.1035
908.40 0.1035
908.50 0.1035
908.60 0.1034
908.70 0.1034
908.80 0.1033
908.90 0.1033
909.00 0.1032
909.10 0.1032
909.20 0.1031
909.30 0.1031
909.40 0.1031
909.50 0.103
909.60 0.103
909.70 0.1029
909.80 0.1029
909.90 0.1028
910.00 0.1028
910.10 0.1028
910.20 0.1027
910.30 0.1027
910.40 0.1026
910.50 0.1026
910.60 0.1025
910.70 0.1025
910.80 0.1025
910.90 0.1024
911.00 0.1024
911.10 0.1023
911.20 0.1023
911.30 0.1022
911.40 0.1022
911.50 0.1022
911.60 0.1021
911.70 0.1021
911.80 0.102
911.90 0.102
912.00 0.1019
912.10 0.1019
912.20 0.1019
912.30 0.1018
912.40 0.1018
912.50 0.1017
912.60 0.1017
912.70 0.1016
912.80 0.1016
912.90 0.1016
913.00 0.1015
913.10 0.1015
913.20 0.1014
913.30 0.1014
913.40 0.1013
913.50 0.1013
913.60 0.1013
913.70 0.1012
913.80 0.1012
913.90 0.1011
914.00 0.1011
914.10 0.101
914.20 0.101
914.30 0.1009
914.40 0.1009
914.50 0.1009
914.60 0.1008
914.70 0.1008
914.80 0.1007
914.90 0.1007
915.00 0.1006
915.10 0.1006
915.20 0.1006
915.30 0.1005
915.40 0.1005
915.50 0.1004
915.60 0.1004
915.70 0.1003
915.80 0.1003
915.90 0.1003
916.00 0.1002
916.10 0.1002
916.20 0.1001
916.30 0.1001
916.40 0.1
916.50 0.1
916.60 0.09995
916.70 0.09991
916.80 0.09987
916.90 0.09983
917.00 0.09978
917.10 0.09974
917.20 0.0997
917.30 0.09965
917.40 0.09961
917.50 0.09957
917.60 0.09953
917.70 0.09948
917.80 0.09944
917.90 0.0994
918.00 0.09935
918.10 0.09931
918.20 0.09927
918.30 0.09923
918.40 0.09918
918.50 0.09914
918.60 0.0991
918.70 0.09906
918.80 0.09901
918.90 0.09897
919.00 0.09893
919.10 0.09889
919.20 0.09884
919.30 0.0988
919.40 0.09876
919.50 0.09871
919.60 0.09867
919.70 0.09863
919.80 0.09859
919.90 0.09854
920.00 0.0985
920.10 0.09846
920.20 0.09842
920.30 0.09838
920.40 0.09833
920.50 0.09829
920.60 0.09825
920.70 0.09821
920.80 0.09816
920.90 0.09812
921.00 0.09808
921.10 0.09804
921.20 0.09799
921.30 0.09795
921.40 0.09791
921.50 0.09787
921.60 0.09783
921.70 0.09778
921.80 0.09774
921.90 0.0977
922.00 0.09766
922.10 0.09762
922.20 0.09758
922.30 0.09754
922.40 0.0975
922.50 0.09747
922.60 0.09743
922.70 0.09739
922.80 0.09735
922.90 0.09731
923.00 0.09728
923.10 0.09724
923.20 0.0972
923.30 0.09716
923.40 0.09712
923.50 0.09709
923.60 0.09705
923.70 0.09701
923.80 0.09697
923.90 0.09693
924.00 0.0969
924.10 0.09686
924.20 0.09682
924.30 0.09678
924.40 0.09675
924.50 0.09671
924.60 0.09667
924.70 0.09663
924.80 0.09659
924.90 0.09656
925.00 0.09652
925.10 0.09648
925.20 0.09644
925.30 0.09641
925.40 0.09637
925.50 0.09633
925.60 0.09629
925.70 0.09625
925.80 0.09622
925.90 0.09618
926.00 0.09614
926.10 0.0961
926.20 0.09607
926.30 0.09603
926.40 0.09599
926.50 0.09595
926.60 0.09592
926.70 0.09588
926.80 0.09584
926.90 0.0958
927.00 0.09577
927.10 0.09573
927.20 0.09569
927.30 0.09566
927.40 0.09562
927.50 0.09558
927.60 0.09555
927.70 0.09551
927.80 0.09547
927.90 0.09544
928.00 0.0954
928.10 0.09536
928.20 0.09533
928.30 0.09529
928.40 0.09525
928.50 0.09522
928.60 0.09518
928.70 0.09514
928.80 0.09511
928.90 0.09507
929.00 0.09504
929.10 0.095
929.20 0.09496
929.30 0.09493
929.40 0.09489
929.50 0.09485
929.60 0.09482
929.70 0.09478
929.80 0.09474
929.90 0.09471
930.00 0.09467
930.10 0.09464
930.20 0.0946
930.30 0.09456
930.40 0.09453
930.50 0.09449
930.60 0.09445
930.70 0.09442
930.80 0.09438
930.90 0.09435
931.00 0.09431
931.10 0.09427
931.20 0.09424
931.30 0.0942
931.40 0.09417
931.50 0.09413
931.60 0.09409
931.70 0.09406
931.80 0.09402
931.90 0.09399
932.00 0.09395
932.10 0.09391
932.20 0.09387
932.30 0.09384
932.40 0.0938
932.50 0.09376
932.60 0.09373
932.70 0.09369
932.80 0.09365
932.90 0.09361
933.00 0.09358
933.10 0.09354
933.20 0.0935
933.30 0.09347
933.40 0.09343
933.50 0.09339
933.60 0.09336
933.70 0.09332
933.80 0.09328
933.90 0.09324
934.00 0.09321
934.10 0.09317
934.20 0.09313
934.30 0.0931
934.40 0.09306
934.50 0.09302
934.60 0.09298
934.70 0.09294
934.80 0.09291
934.90 0.09287
935.00 0.09283
935.10 0.09279
935.20 0.09275
935.30 0.09272
935.40 0.09268
935.50 0.09264
935.60 0.0926
935.70 0.09257
935.80 0.09253
935.90 0.09249
936.00 0.09245
936.10 0.09241
936.20 0.09238
936.30 0.09234
936.40 0.0923
936.50 0.09226
936.60 0.09223
936.70 0.09219
936.80 0.09215
936.90 0.09211
937.00 0.09207
937.10 0.09204
937.20 0.092
937.30 0.09196
937.40 0.09192
937.50 0.09188
937.60 0.09184
937.70 0.0918
937.80 0.09177
937.90 0.09173
938.00 0.09169
938.10 0.09165
938.20 0.09161
938.30 0.09157
938.40 0.09153
938.50 0.0915
938.60 0.09146
938.70 0.09142
938.80 0.09138
938.90 0.09134
939.00 0.0913
939.10 0.09126
939.20 0.09122
939.30 0.09118
939.40 0.09114
939.50 0.0911
939.60 0.09106
939.70 0.09103
939.80 0.09099
939.90 0.09095
940.00 0.09091
940.10 0.09087
940.20 0.09083
940.30 0.09079
940.40 0.09075
940.50 0.09071
940.60 0.09067
940.70 0.09063
940.80 0.09059
940.90 0.09055
941.00 0.09051
941.10 0.09047
941.20 0.09043
941.30 0.09039
941.40 0.09035
941.50 0.09031
941.60 0.09027
941.70 0.09023
941.80 0.09019
941.90 0.09015
942.00 0.09012
942.10 0.09007
942.20 0.09003
942.30 0.08999
942.40 0.08995
942.50 0.08991
942.60 0.08987
942.70 0.08983
942.80 0.08979
942.90 0.08975
943.00 0.08971
943.10 0.08967
943.20 0.08963
943.30 0.08959
943.40 0.08955
943.50 0.08951
943.60 0.08947
943.70 0.08943
943.80 0.08938
943.90 0.08934
944.00 0.0893
944.10 0.08926
944.20 0.08922
944.30 0.08918
944.40 0.08914
944.50 0.0891
944.60 0.08906
944.70 0.08902
944.80 0.08898
944.90 0.08894
945.00 0.08889
945.10 0.08885
945.20 0.08881
945.30 0.08877
945.40 0.08873
945.50 0.08869
945.60 0.08865
945.70 0.0886
945.80 0.08856
945.90 0.08852
946.00 0.08848
946.10 0.08844
946.20 0.0884
946.30 0.08835
946.40 0.08831
946.50 0.08827
946.60 0.08823
946.70 0.08819
946.80 0.08815
946.90 0.0881
947.00 0.08806
947.10 0.08802
947.20 0.08798
947.30 0.08794
947.40 0.08789
947.50 0.08785
947.60 0.08781
947.70 0.08777
947.80 0.08773
947.90 0.08768
948.00 0.08764
948.10 0.0876
948.20 0.08756
948.30 0.08751
948.40 0.08747
948.50 0.08743
948.60 0.08739
948.70 0.08735
948.80 0.0873
948.90 0.08726
949.00 0.08722
949.10 0.08718
949.20 0.08714
949.30 0.08709
949.40 0.08705
949.50 0.08701
949.60 0.08697
949.70 0.08692
949.80 0.08688
949.90 0.08684
950.00 0.0868
950.10 0.08675
950.20 0.08671
950.30 0.08667
950.40 0.08663
950.50 0.08659
950.60 0.08654
950.70 0.0865
950.80 0.08646
950.90 0.08642
951.00 0.08638
951.10 0.08633
951.20 0.08629
951.30 0.08625
951.40 0.08621
951.50 0.08617
951.60 0.08612
951.70 0.08608
951.80 0.08604
951.90 0.086
952.00 0.08596
952.10 0.08592
952.20 0.08587
952.30 0.08583
952.40 0.08579
952.50 0.08575
952.60 0.08571
952.70 0.08567
952.80 0.08563
952.90 0.08559
953.00 0.08555
953.10 0.08551
953.20 0.08547
953.30 0.08543
953.40 0.08539
953.50 0.08535
953.60 0.08531
953.70 0.08527
953.80 0.08523
953.90 0.08519
954.00 0.08516
954.10 0.08512
954.20 0.08508
954.30 0.08505
954.40 0.08501
954.50 0.08498
954.60 0.08495
954.70 0.08491
954.80 0.08488
954.90 0.08485
955.00 0.08482
955.10 0.08479
955.20 0.08476
955.30 0.08473
955.40 0.08471
955.50 0.08468
955.60 0.08465
955.70 0.08462
955.80 0.08459
955.90 0.08457
956.00 0.08454
956.10 0.08452
956.20 0.08449
956.30 0.08447
956.40 0.08444
956.50 0.08441
956.60 0.08439
956.70 0.08436
956.80 0.08434
956.90 0.08431
957.00 0.08428
957.10 0.08426
957.20 0.08424
957.30 0.08421
957.40 0.08419
957.50 0.08416
957.60 0.08414
957.70 0.08411
957.80 0.08409
957.90 0.08406
958.00 0.08404
958.10 0.08401
958.20 0.08399
958.30 0.08396
958.40 0.08394
958.50 0.08391
958.60 0.08389
958.70 0.08387
958.80 0.08384
958.90 0.08382
959.00 0.08379
959.10 0.08377
959.20 0.08374
959.30 0.08372
959.40 0.08369
959.50 0.08367
959.60 0.08364
959.70 0.08362
959.80 0.0836
959.90 0.08357
960.00 0.08355
960.10 0.08352
960.20 0.0835
960.30 0.08347
960.40 0.08345
960.50 0.08342
960.60 0.0834
960.70 0.08337
960.80 0.08335
960.90 0.08332
961.00 0.0833
961.10 0.08327
961.20 0.08325
961.30 0.08322
961.40 0.0832
961.50 0.08317
961.60 0.08315
961.70 0.08312
961.80 0.0831
961.90 0.08307
962.00 0.08305
962.10 0.08302
962.20 0.083
962.30 0.08297
962.40 0.08295
962.50 0.08292
962.60 0.0829
962.70 0.08287
962.80 0.08284
962.90 0.08282
963.00 0.08279
963.10 0.08277
963.20 0.08274
963.30 0.08272
963.40 0.08269
963.50 0.08266
963.60 0.08264
963.70 0.08261
963.80 0.08259
963.90 0.08256
964.00 0.08253
964.10 0.08251
964.20 0.08248
964.30 0.08246
964.40 0.08243
964.50 0.0824
964.60 0.08238
964.70 0.08235
964.80 0.08232
964.90 0.0823
965.00 0.08227
965.10 0.08224
965.20 0.08222
965.30 0.08219
965.40 0.08216
965.50 0.08214
965.60 0.08211
965.70 0.08208
965.80 0.08206
965.90 0.08203
966.00 0.082
966.10 0.08198
966.20 0.08195
966.30 0.08192
966.40 0.0819
966.50 0.08187
966.60 0.08184
966.70 0.08181
966.80 0.08179
966.90 0.08176
967.00 0.08173
967.10 0.0817
967.20 0.08168
967.30 0.08165
967.40 0.08162
967.50 0.08159
967.60 0.08157
967.70 0.08154
967.80 0.08151
967.90 0.08148
968.00 0.08145
968.10 0.08143
968.20 0.0814
968.30 0.08137
968.40 0.08134
968.50 0.08132
968.60 0.08129
968.70 0.08126
968.80 0.08123
968.90 0.0812
969.00 0.08117
969.10 0.08114
969.20 0.08112
969.30 0.08109
969.40 0.08106
969.50 0.08103
969.60 0.081
969.70 0.08097
969.80 0.08095
969.90 0.08092
970.00 0.08089
970.10 0.08086
970.20 0.08083
970.30 0.0808
970.40 0.08078
970.50 0.08075
970.60 0.08072
970.70 0.08069
970.80 0.08066
970.90 0.08063
971.00 0.0806
971.10 0.08057
971.20 0.08054
971.30 0.08051
971.40 0.08048
971.50 0.08046
971.60 0.08043
971.70 0.0804
971.80 0.08037
971.90 0.08034
972.00 0.08031
972.10 0.08028
972.20 0.08025
972.30 0.08022
972.40 0.08019
972.50 0.08016
972.60 0.08013
972.70 0.0801
972.80 0.08007
972.90 0.08004
973.00 0.08001
973.10 0.07998
973.20 0.07995
973.30 0.07992
973.40 0.07989
973.50 0.07986
973.60 0.07983
973.70 0.0798
973.80 0.07977
973.90 0.07974
974.00 0.07971
974.10 0.07968
974.20 0.07965
974.30 0.07963
974.40 0.07959
974.50 0.07956
974.60 0.07953
974.70 0.0795
974.80 0.07947
974.90 0.07944
975.00 0.07941
975.10 0.07938
975.20 0.07935
975.30 0.07932
975.40 0.07929
975.50 0.07926
975.60 0.07923
975.70 0.0792
975.80 0.07917
975.90 0.07913
976.00 0.0791
976.10 0.07907
976.20 0.07904
976.30 0.07901
976.40 0.07898
976.50 0.07895
976.60 0.07892
976.70 0.07889
976.80 0.07886
976.90 0.07883
977.00 0.0788
977.10 0.07877
977.20 0.07873
977.30 0.0787
977.40 0.07867
977.50 0.07864
977.60 0.07861
977.70 0.07857
977.80 0.07854
977.90 0.07851
978.00 0.07848
978.10 0.07845
978.20 0.07841
978.30 0.07838
978.40 0.07835
978.50 0.07832
978.60 0.07828
978.70 0.07825
978.80 0.07822
978.90 0.07819
979.00 0.07816
979.10 0.07812
979.20 0.07809
979.30 0.07806
979.40 0.07803
979.50 0.078
979.60 0.07797
979.70 0.07793
979.80 0.0779
979.90 0.07787
980.00 0.07784
980.10 0.07781
980.20 0.07777
980.30 0.07774
980.40 0.07771
980.50 0.07768
980.60 0.07765
980.70 0.07761
980.80 0.07758
980.90 0.07755
981.00 0.07752
981.10 0.07749
981.20 0.07746
981.30 0.07742
981.40 0.07739
981.50 0.07736
981.60 0.07733
981.70 0.0773
981.80 0.07727
981.90 0.07723
982.00 0.0772
982.10 0.07717
982.20 0.07714
982.30 0.0771
982.40 0.07707
982.50 0.07703
982.60 0.077
982.70 0.07697
982.80 0.07693
982.90 0.0769
983.00 0.07687
983.10 0.07683
983.20 0.0768
983.30 0.07677
983.40 0.07673
983.50 0.0767
983.60 0.07667
983.70 0.07663
983.80 0.0766
983.90 0.07657
984.00 0.07653
984.10 0.0765
984.20 0.07647
984.30 0.07643
984.40 0.0764
984.50 0.07637
984.60 0.07633
984.70 0.0763
984.80 0.07626
984.90 0.07623
985.00 0.0762
985.10 0.07616
985.20 0.07613
985.30 0.07609
985.40 0.07606
985.50 0.07602
985.60 0.07599
985.70 0.07595
985.80 0.07592
985.90 0.07588
986.00 0.07585
986.10 0.07581
986.20 0.07578
986.30 0.07575
986.40 0.07571
986.50 0.07568
986.60 0.07564
986.70 0.07561
986.80 0.07557
986.90 0.07554
987.00 0.0755
987.10 0.07547
987.20 0.07543
987.30 0.0754
987.40 0.07536
987.50 0.07533
987.60 0.07529
987.70 0.07525
987.80 0.07522
987.90 0.07518
988.00 0.07515
988.10 0.07511
988.20 0.07508
988.30 0.07504
988.40 0.075
988.50 0.07497
988.60 0.07493
988.70 0.0749
988.80 0.07486
988.90 0.07482
989.00 0.07479
989.10 0.07475
989.20 0.07471
989.30 0.07467
989.40 0.07464
989.50 0.0746
989.60 0.07456
989.70 0.07453
989.80 0.07449
989.90 0.07445
990.00 0.07442
990.10 0.07438
990.20 0.07434
990.30 0.07431
990.40 0.07427
990.50 0.07423
990.60 0.0742
990.70 0.07416
990.80 0.07412
990.90 0.07408
991.00 0.07404
991.10 0.07401
991.20 0.07397
991.30 0.07393
991.40 0.07389
991.50 0.07385
991.60 0.07381
991.70 0.07378
991.80 0.07374
991.90 0.0737
992.00 0.07366
992.10 0.07362
992.20 0.07358
992.30 0.07354
992.40 0.07351
992.50 0.07347
992.60 0.07343
992.70 0.07339
992.80 0.07335
992.90 0.07331
993.00 0.07327
993.10 0.07323
993.20 0.07319
993.30 0.07315
993.40 0.07311
993.50 0.07307
993.60 0.07303
993.70 0.07299
993.80 0.07294
993.90 0.0729
994.00 0.07286
994.10 0.07282
994.20 0.07278
994.30 0.07274
994.40 0.0727
994.50 0.07266
994.60 0.07262
994.70 0.07258
994.80 0.07254
994.90 0.0725
995.00 0.07246
995.10 0.07242
995.20 0.07237
995.30 0.07233
995.40 0.07229
995.50 0.07225
995.60 0.07221
995.70 0.07216
995.80 0.07212
995.90 0.07208
996.00 0.07204
996.10 0.07199
996.20 0.07195
996.30 0.07191
996.40 0.07186
996.50 0.07182
996.60 0.07178
996.70 0.07173
996.80 0.07169
996.90 0.07165
997.00 0.07161
997.10 0.07156
997.20 0.07152
997.30 0.07147
997.40 0.07143
997.50 0.07139
997.60 0.07134
997.70 0.0713
997.80 0.07125
997.90 0.07121
998.00 0.07116
998.10 0.07111
998.20 0.07107
998.30 0.07102
998.40 0.07098
998.50 0.07093
998.60 0.07089
998.70 0.07084
998.80 0.0708
998.90 0.07075
999.00 0.07071
999.10 0.07066
999.20 0.07062
999.30 0.07057
999.40 0.07053
999.50 0.07048
999.60 0.07044
999.70 0.07039
999.80 0.07034
999.90 0.0703
1000.00 0.07025
1000.10 0.0702
1000.20 0.07016
1000.30 0.07011
1000.40 0.07006
1000.50 0.07002
1000.60 0.06997
1000.70 0.06992
1000.80 0.06988
1000.90 0.06983
1001.00 0.06978
1001.10 0.06974
1001.20 0.06969
1001.30 0.06964
1001.40 0.0696
1001.50 0.06955
1001.60 0.0695
1001.70 0.06946
1001.80 0.06941
1001.90 0.06937
1002.00 0.06932
1002.10 0.06928
1002.20 0.06924
1002.30 0.0692
1002.40 0.06915
1002.50 0.06911
1002.60 0.06907
1002.70 0.06903
1002.80 0.06898
1002.90 0.06894
1003.00 0.0689
1003.10 0.06886
1003.20 0.06882
1003.30 0.06878
1003.40 0.06875
1003.50 0.06871
1003.60 0.06868
1003.70 0.06864
1003.80 0.06861
1003.90 0.06858
1004.00 0.06855
1004.10 0.06852
1004.20 0.0685
1004.30 0.06847
1004.40 0.06845
1004.50 0.06844
1004.60 0.06842
1004.70 0.06841
1004.80 0.0684
1004.90 0.06838
1005.00 0.06836
1005.10 0.06832
1005.20 0.06828
1005.30 0.06824
1005.40 0.06821
1005.50 0.06818
1005.60 0.06815
1005.70 0.06813
1005.80 0.0681
1005.90 0.06808
1006.00 0.06805
1006.10 0.06802
1006.20 0.06801
1006.30 0.06799
1006.40 0.06798
1006.50 0.06797
1006.60 0.06795
1006.70 0.06794
1006.80 0.06792
1006.90 0.06791
1007.00 0.0679
1007.10 0.06789
1007.20 0.06788
1007.30 0.06787
1007.40 0.06786
1007.50 0.06785
1007.60 0.06785
1007.70 0.06784
1007.80 0.06783
1007.90 0.06783
1008.00 0.06782
1008.10 0.06781
1008.20 0.06781
1008.30 0.0678
1008.40 0.0678
1008.50 0.06779
1008.60 0.06778
1008.70 0.06778
1008.80 0.06777
1008.90 0.06776
1009.00 0.06776
1009.10 0.06775
1009.20 0.06775
1009.30 0.06774
1009.40 0.06773
1009.50 0.06773
1009.60 0.06772
1009.70 0.06771
1009.80 0.06771
1009.90 0.0677
1010.00 0.06769
1010.10 0.06769
1010.20 0.06768
1010.30 0.06767
1010.40 0.06767
1010.50 0.06766
1010.60 0.06765
1010.70 0.06764
1010.80 0.06764
1010.90 0.06763
1011.00 0.06762
1011.10 0.06762
1011.20 0.06761
1011.30 0.0676
1011.40 0.0676
1011.50 0.06759
1011.60 0.06758
1011.70 0.06757
1011.80 0.06757
1011.90 0.06756
1012.00 0.06755
1012.10 0.06754
1012.20 0.06753
1012.30 0.06752
1012.40 0.06751
1012.50 0.0675
1012.60 0.06749
1012.70 0.06748
1012.80 0.06747
1012.90 0.06746
1013.00 0.06745
1013.10 0.06744
1013.20 0.06743
1013.30 0.06742
1013.40 0.06741
1013.50 0.0674
1013.60 0.06739
1013.70 0.06738
1013.80 0.06737
1013.90 0.06736
1014.00 0.06735
1014.10 0.06734
1014.20 0.06733
1014.30 0.06732
1014.40 0.06731
1014.50 0.06729
1014.60 0.06728
1014.70 0.06727
1014.80 0.06726
1014.90 0.06724
1015.00 0.06723
1015.10 0.06722
1015.20 0.0672
1015.30 0.06719
1015.40 0.06718
1015.50 0.06717
1015.60 0.06715
1015.70 0.06714
1015.80 0.06713
1015.90 0.06711
1016.00 0.0671
1016.10 0.06709
1016.20 0.06707
1016.30 0.06706
1016.40 0.06705
1016.50 0.06703
1016.60 0.06702
1016.70 0.06701
1016.80 0.06699
1016.90 0.06698
1017.00 0.06696
1017.10 0.06695
1017.20 0.06693
1017.30 0.06692
1017.40 0.0669
1017.50 0.06689
1017.60 0.06687
1017.70 0.06686
1017.80 0.06684
1017.90 0.06683
1018.00 0.06681
1018.10 0.0668
1018.20 0.06678
1018.30 0.06677
1018.40 0.06675
1018.50 0.06673
1018.60 0.06672
1018.70 0.0667
1018.80 0.06669
1018.90 0.06667
1019.00 0.06665
1019.10 0.06664
1019.20 0.06662
1019.30 0.0666
1019.40 0.06658
1019.50 0.06657
1019.60 0.06655
1019.70 0.06653
1019.80 0.06652
1019.90 0.0665
1020.00 0.06648
1020.10 0.06647
1020.20 0.06645
1020.30 0.06643
1020.40 0.06642
1020.50 0.0664
1020.60 0.06638
1020.70 0.06637
1020.80 0.06635
1020.90 0.06633
1021.00 0.06631
1021.10 0.06629
1021.20 0.06628
1021.30 0.06626
1021.40 0.06624
1021.50 0.06622
1021.60 0.0662
1021.70 0.06619
1021.80 0.06617
1021.90 0.06615
1022.00 0.06613
1022.10 0.06611
1022.20 0.06609
1022.30 0.06607
1022.40 0.06605
1022.50 0.06604
1022.60 0.06602
1022.70 0.066
1022.80 0.06598
1022.90 0.06596
1023.00 0.06594
1023.10 0.06592
1023.20 0.0659
1023.30 0.06588
1023.40 0.06586
1023.50 0.06584
1023.60 0.06582
1023.70 0.0658
1023.80 0.06579
1023.90 0.06577
1024.00 0.06575
1024.10 0.06573
1024.20 0.06571
1024.30 0.06569
1024.40 0.06567
1024.50 0.06565
1024.60 0.06563
1024.70 0.06561
1024.80 0.06559
1024.90 0.06557
1025.00 0.06555
1025.10 0.06553
1025.20 0.06551
1025.30 0.06549
1025.40 0.06547
1025.50 0.06545
1025.60 0.06543
1025.70 0.06541
1025.80 0.06539
1025.90 0.06537
1026.00 0.06535
1026.10 0.06533
1026.20 0.06531
1026.30 0.06529
1026.40 0.06527
1026.50 0.06525
1026.60 0.06523
1026.70 0.06521
1026.80 0.06519
1026.90 0.06517
1027.00 0.06515
1027.10 0.06513
1027.20 0.0651
1027.30 0.06508
1027.40 0.06506
1027.50 0.06504
1027.60 0.06502
1027.70 0.065
1027.80 0.06498
1027.90 0.06495
1028.00 0.06493
1028.10 0.06491
1028.20 0.06489
1028.30 0.06487
1028.40 0.06485
1028.50 0.06483
1028.60 0.0648
1028.70 0.06478
1028.80 0.06476
1028.90 0.06474
1029.00 0.06472
1029.10 0.0647
1029.20 0.06468
1029.30 0.06466
1029.40 0.06463
1029.50 0.06461
1029.60 0.06459
1029.70 0.06457
1029.80 0.06455
1029.90 0.06453
1030.00 0.06451
1030.10 0.06449
1030.20 0.06446
1030.30 0.06444
1030.40 0.06442
1030.50 0.0644
1030.60 0.06438
1030.70 0.06436
1030.80 0.06434
1030.90 0.06432
1031.00 0.06429
1031.10 0.06427
1031.20 0.06425
1031.30 0.06423
1031.40 0.06421
1031.50 0.06419
1031.60 0.06417
1031.70 0.06415
1031.80 0.06413
1031.90 0.0641
1032.00 0.06408
1032.10 0.06406
1032.20 0.06404
1032.30 0.06402
1032.40 0.06399
1032.50 0.06397
1032.60 0.06395
1032.70 0.06393
1032.80 0.06391
1032.90 0.06388
1033.00 0.06386
1033.10 0.06384
1033.20 0.06382
1033.30 0.06379
1033.40 0.06377
1033.50 0.06375
1033.60 0.06373
1033.70 0.06371
1033.80 0.06368
1033.90 0.06366
1034.00 0.06364
1034.10 0.06362
1034.20 0.06359
1034.30 0.06357
1034.40 0.06355
1034.50 0.06353
1034.60 0.06351
1034.70 0.06348
1034.80 0.06346
1034.90 0.06344
1035.00 0.06342
1035.10 0.0634
1035.20 0.06337
1035.30 0.06335
1035.40 0.06333
1035.50 0.06331
1035.60 0.06329
1035.70 0.06326
1035.80 0.06324
1035.90 0.06322
1036.00 0.0632
1036.10 0.06318
1036.20 0.06315
1036.30 0.06313
1036.40 0.06311
1036.50 0.06309
1036.60 0.06307
1036.70 0.06304
1036.80 0.06302
1036.90 0.063
1037.00 0.06298
1037.10 0.06296
1037.20 0.06293
1037.30 0.06291
1037.40 0.06289
1037.50 0.06287
1037.60 0.06284
1037.70 0.06282
1037.80 0.0628
1037.90 0.06278
1038.00 0.06275
1038.10 0.06273
1038.20 0.06271
1038.30 0.06269
1038.40 0.06266
1038.50 0.06264
1038.60 0.06262
1038.70 0.0626
1038.80 0.06257
1038.90 0.06255
1039.00 0.06253
1039.10 0.06251
1039.20 0.06248
1039.30 0.06246
1039.40 0.06244
1039.50 0.06242
1039.60 0.06239
1039.70 0.06237
1039.80 0.06235
1039.90 0.06233
1040.00 0.0623
1040.10 0.06228
1040.20 0.06226
1040.30 0.06224
1040.40 0.06221
1040.50 0.06219
1040.60 0.06217
1040.70 0.06215
1040.80 0.06213
1040.90 0.0621
1041.00 0.06208
1041.10 0.06206
1041.20 0.06204
1041.30 0.06201
1041.40 0.06199
1041.50 0.06197
1041.60 0.06195
1041.70 0.06192
1041.80 0.0619
1041.90 0.06188
1042.00 0.06186
1042.10 0.06184
1042.20 0.06181
1042.30 0.06179
1042.40 0.06177
1042.50 0.06174
1042.60 0.06172
1042.70 0.0617
1042.80 0.06168
1042.90 0.06165
1043.00 0.06163
1043.10 0.06161
1043.20 0.06159
1043.30 0.06156
1043.40 0.06154
1043.50 0.06152
1043.60 0.0615
1043.70 0.06147
1043.80 0.06145
1043.90 0.06143
1044.00 0.06141
1044.10 0.06138
1044.20 0.06136
1044.30 0.06134
1044.40 0.06132
1044.50 0.06129
1044.60 0.06127
1044.70 0.06125
1044.80 0.06123
1044.90 0.0612
1045.00 0.06118
1045.10 0.06116
1045.20 0.06114
1045.30 0.06111
1045.40 0.06109
1045.50 0.06107
1045.60 0.06105
1045.70 0.06102
1045.80 0.061
1045.90 0.06098
1046.00 0.06096
1046.10 0.06093
1046.20 0.06091
1046.30 0.06089
1046.40 0.06087
1046.50 0.06084
1046.60 0.06082
1046.70 0.0608
1046.80 0.06078
1046.90 0.06076
1047.00 0.06073
1047.10 0.06071
1047.20 0.06069
1047.30 0.06066
1047.40 0.06064
1047.50 0.06062
1047.60 0.0606
1047.70 0.06057
1047.80 0.06055
1047.90 0.06053
1048.00 0.06051
1048.10 0.06048
1048.20 0.06046
1048.30 0.06044
1048.40 0.06042
1048.50 0.06039
1048.60 0.06037
1048.70 0.06035
1048.80 0.06033
1048.90 0.0603
1049.00 0.06028
1049.10 0.06026
1049.20 0.06024
1049.30 0.06021
1049.40 0.06019
1049.50 0.06017
1049.60 0.06015
1049.70 0.06012
1049.80 0.0601
1049.90 0.06008
1050.00 0.06006
1050.10 0.06003
1050.20 0.06001
1050.30 0.05999
1050.40 0.05997
1050.50 0.05994
1050.60 0.05992
1050.70 0.0599
1050.80 0.05988
1050.90 0.05985
1051.00 0.05983
1051.10 0.05981
1051.20 0.05979
1051.30 0.05976
1051.40 0.05974
1051.50 0.05972
1051.60 0.0597
1051.70 0.05967
1051.80 0.05965
1051.90 0.05963
1052.00 0.05961
1052.10 0.05958
1052.20 0.05956
1052.30 0.05954
1052.40 0.05952
1052.50 0.05949
1052.60 0.05947
1052.70 0.05945
1052.80 0.05943
1052.90 0.0594
1053.00 0.05938
1053.10 0.05936
1053.20 0.05934
1053.30 0.05931
1053.40 0.05929
1053.50 0.05927
1053.60 0.05924
1053.70 0.05922
1053.80 0.0592
1053.90 0.05918
1054.00 0.05915
1054.10 0.05913
1054.20 0.05911
1054.30 0.05909
1054.40 0.05906
1054.50 0.05904
1054.60 0.05902
1054.70 0.059
1054.80 0.05897
1054.90 0.05895
1055.00 0.05893
1055.10 0.05891
1055.20 0.05888
1055.30 0.05886
1055.40 0.05884
1055.50 0.05882
1055.60 0.05879
1055.70 0.05877
1055.80 0.05875
1055.90 0.05873
1056.00 0.0587
1056.10 0.05868
1056.20 0.05866
1056.30 0.05864
1056.40 0.05862
1056.50 0.05859
1056.60 0.05857
1056.70 0.05855
1056.80 0.05853
1056.90 0.0585
1057.00 0.05848
1057.10 0.05846
1057.20 0.05844
1057.30 0.05841
1057.40 0.05839
1057.50 0.05837
1057.60 0.05834
1057.70 0.05832
1057.80 0.0583
1057.90 0.05827
1058.00 0.05825
1058.10 0.05823
1058.20 0.05821
1058.30 0.05818
1058.40 0.05816
1058.50 0.05814
1058.60 0.05812
1058.70 0.05809
1058.80 0.05807
1058.90 0.05805
1059.00 0.05802
1059.10 0.058
1059.20 0.05798
1059.30 0.05796
1059.40 0.05793
1059.50 0.05791
1059.60 0.05789
1059.70 0.05787
1059.80 0.05784
1059.90 0.05782
1060.00 0.0578
1060.10 0.05777
1060.20 0.05775
1060.30 0.05773
1060.40 0.05771
1060.50 0.05768
1060.60 0.05766
1060.70 0.05764
1060.80 0.05762
1060.90 0.05759
1061.00 0.05757
1061.10 0.05755
1061.20 0.05753
1061.30 0.0575
1061.40 0.05748
1061.50 0.05746
1061.60 0.05744
1061.70 0.05741
1061.80 0.05739
1061.90 0.05737
1062.00 0.05734
1062.10 0.05732
1062.20 0.0573
1062.30 0.05727
1062.40 0.05725
1062.50 0.05723
1062.60 0.0572
1062.70 0.05718
1062.80 0.05716
1062.90 0.05713
1063.00 0.05711
1063.10 0.05709
1063.20 0.05706
1063.30 0.05704
1063.40 0.05702
1063.50 0.05699
1063.60 0.05697
1063.70 0.05695
1063.80 0.05692
1063.90 0.0569
1064.00 0.05688
1064.10 0.05686
1064.20 0.05683
1064.30 0.05681
1064.40 0.05679
1064.50 0.05676
1064.60 0.05674
1064.70 0.05672
1064.80 0.05669
1064.90 0.05667
1065.00 0.05665
1065.10 0.05662
1065.20 0.0566
1065.30 0.05658
1065.40 0.05655
1065.50 0.05653
1065.60 0.05651
1065.70 0.05648
1065.80 0.05646
1065.90 0.05644
1066.00 0.05641
1066.10 0.05639
1066.20 0.05637
1066.30 0.05635
1066.40 0.05632
1066.50 0.0563
1066.60 0.05628
1066.70 0.05625
1066.80 0.05623
1066.90 0.05621
1067.00 0.05618
1067.10 0.05616
1067.20 0.05614
1067.30 0.05611
1067.40 0.05609
1067.50 0.05606
1067.60 0.05604
1067.70 0.05601
1067.80 0.05599
1067.90 0.05596
1068.00 0.05594
1068.10 0.05592
1068.20 0.05589
1068.30 0.05587
1068.40 0.05584
1068.50 0.05582
1068.60 0.05579
1068.70 0.05577
1068.80 0.05574
1068.90 0.05572
1069.00 0.0557
1069.10 0.05567
1069.20 0.05565
1069.30 0.05562
1069.40 0.0556
1069.50 0.05557
1069.60 0.05555
1069.70 0.05553
1069.80 0.0555
1069.90 0.05548
1070.00 0.05545
1070.10 0.05543
1070.20 0.0554
1070.30 0.05538
1070.40 0.05536
1070.50 0.05533
1070.60 0.05531
1070.70 0.05528
1070.80 0.05526
1070.90 0.05524
1071.00 0.05521
1071.10 0.05519
1071.20 0.05516
1071.30 0.05514
1071.40 0.05511
1071.50 0.05509
1071.60 0.05507
1071.70 0.05504
1071.80 0.05502
1071.90 0.05499
1072.00 0.05497
1072.10 0.05494
1072.20 0.05492
1072.30 0.05489
1072.40 0.05487
1072.50 0.05484
1072.60 0.05482
1072.70 0.05479
1072.80 0.05477
1072.90 0.05474
1073.00 0.05471
1073.10 0.05469
1073.20 0.05466
1073.30 0.05464
1073.40 0.05461
1073.50 0.05459
1073.60 0.05456
1073.70 0.05453
1073.80 0.05451
1073.90 0.05448
1074.00 0.05445
1074.10 0.05442
1074.20 0.0544
1074.30 0.05437
1074.40 0.05434
1074.50 0.05432
1074.60 0.05429
1074.70 0.05426
1074.80 0.05424
1074.90 0.05421
1075.00 0.05418
1075.10 0.05416
1075.20 0.05413
1075.30 0.0541
1075.40 0.05407
1075.50 0.05405
1075.60 0.05402
1075.70 0.05399
1075.80 0.05397
1075.90 0.05394
1076.00 0.05391
1076.10 0.05389
1076.20 0.05386
1076.30 0.05383
1076.40 0.05381
1076.50 0.05378
1076.60 0.05375
1076.70 0.05373
1076.80 0.0537
1076.90 0.05367
1077.00 0.05365
1077.10 0.05362
1077.20 0.05359
1077.30 0.05356
1077.40 0.05353
1077.50 0.0535
1077.60 0.05347
1077.70 0.05345
1077.80 0.05342
1077.90 0.05339
1078.00 0.05336
1078.10 0.05333
1078.20 0.0533
1078.30 0.05327
1078.40 0.05324
1078.50 0.05321
1078.60 0.05318
1078.70 0.05315
1078.80 0.05312
1078.90 0.05309
1079.00 0.05306
1079.10 0.05303
1079.20 0.053
1079.30 0.05298
1079.40 0.05295
1079.50 0.05292
1079.60 0.05288
1079.70 0.05285
1079.80 0.05282
1079.90 0.05279
1080.00 0.05276
1080.10 0.05273
1080.20 0.05269
1080.30 0.05266
1080.40 0.05263
1080.50 0.0526
1080.60 0.05257
1080.70 0.05254
1080.80 0.05251
1080.90 0.05247
1081.00 0.05244
1081.10 0.05241
1081.20 0.05238
1081.30 0.05235
1081.40 0.05232
1081.50 0.05229
1081.60 0.05225
1081.70 0.05222
1081.80 0.05219
1081.90 0.05215
1082.00 0.05212
1082.10 0.05209
1082.20 0.05205
1082.30 0.05202
1082.40 0.05198
1082.50 0.05195
1082.60 0.05191
1082.70 0.05188
1082.80 0.05184
1082.90 0.05181
1083.00 0.05178
1083.10 0.05174
1083.20 0.05171
1083.30 0.05167
1083.40 0.05164
1083.50 0.0516
1083.60 0.05157
1083.70 0.05153
1083.80 0.05149
1083.90 0.05146
1084.00 0.05142
1084.10 0.05138
1084.20 0.05135
1084.30 0.05131
1084.40 0.05127
1084.50 0.05124
1084.60 0.0512
1084.70 0.05116
1084.80 0.05112
1084.90 0.05108
1085.00 0.05104
1085.10 0.051
1085.20 0.05096
1085.30 0.05093
1085.40 0.05089
1085.50 0.05085
1085.60 0.05081
1085.70 0.05077
1085.80 0.05073
1085.90 0.05069
1086.00 0.05065
1086.10 0.05061
1086.20 0.05058
1086.30 0.05054
1086.40 0.0505
1086.50 0.05046
1086.60 0.05042
1086.70 0.05038
1086.80 0.05034
1086.90 0.05029
1087.00 0.05025
1087.10 0.05021
1087.20 0.05017
1087.30 0.05012
1087.40 0.05008
1087.50 0.05004
1087.60 0.05
1087.70 0.04995
1087.80 0.04991
1087.90 0.04987
1088.00 0.04982
1088.10 0.04978
1088.20 0.04974
1088.30 0.0497
1088.40 0.04965
1088.50 0.04961
1088.60 0.04956
1088.70 0.04952
1088.80 0.04947
1088.90 0.04943
1089.00 0.04938
1089.10 0.04934
1089.20 0.04929
1089.30 0.04925
1089.40 0.0492
1089.50 0.04916
1089.60 0.04911
1089.70 0.04906
1089.80 0.04902
1089.90 0.04897
1090.00 0.04893
1090.10 0.04888
1090.20 0.04884
1090.30 0.04879
1090.40 0.04875
1090.50 0.0487
1090.60 0.04865
1090.70 0.04861
1090.80 0.04856
1090.90 0.04851
1091.00 0.04846
1091.10 0.04841
1091.20 0.04837
1091.30 0.04832
1091.40 0.04827
1091.50 0.04822
1091.60 0.04817
1091.70 0.04813
1091.80 0.04808
1091.90 0.04803
1092.00 0.04798
1092.10 0.04793
1092.20 0.04788
1092.30 0.04782
1092.40 0.04777
1092.50 0.04772
1092.60 0.04766
1092.70 0.04761
1092.80 0.04755
1092.90 0.04749
1093.00 0.04743
1093.10 0.04737
1093.20 0.04731
1093.30 0.04724
1093.40 0.04718
1093.50 0.04711
1093.60 0.04705
1093.70 0.04701
1093.80 0.04698
1093.90 0.04698
1094.00 0.047
1094.10 0.04703
1094.20 0.04705
1094.30 0.04708
1094.40 0.04711
1094.50 0.04714
1094.60 0.04717
1094.70 0.0472
1094.80 0.04722
1094.90 0.04725
1095.00 0.04728
1095.10 0.0473
1095.20 0.04731
1095.30 0.04733
1095.40 0.04735
1095.50 0.04736
1095.60 0.04738
1095.70 0.0474
1095.80 0.04742
1095.90 0.04743
1096.00 0.04745
1096.10 0.04747
1096.20 0.04749
1096.30 0.0475
1096.40 0.04752
1096.50 0.04754
1096.60 0.04755
1096.70 0.04756
1096.80 0.04758
1096.90 0.04759
1097.00 0.04761
1097.10 0.04762
1097.20 0.04763
1097.30 0.04764
1097.40 0.04765
1097.50 0.04767
1097.60 0.04768
1097.70 0.04769
1097.80 0.0477
1097.90 0.04771
1098.00 0.04772
1098.10 0.04774
1098.20 0.04775
1098.30 0.04776
1098.40 0.04777
1098.50 0.04778
1098.60 0.04779
1098.70 0.0478
1098.80 0.04781
1098.90 0.04782
1099.00 0.04783
1099.10 0.04783
1099.20 0.04784
1099.30 0.04785
1099.40 0.04786
1099.50 0.04787
1099.60 0.04788
1099.70 0.04789
1099.80 0.0479
1099.90 0.0479
1100.00 0.04791
1100.10 0.04792
1100.20 0.04793
1100.30 0.04794
1100.40 0.04795
1100.50 0.04795
1100.60 0.04796
1100.70 0.04796
1100.80 0.04797
1100.90 0.04797
1101.00 0.04798
1101.10 0.04798
1101.20 0.04799
1101.30 0.04799
1101.40 0.048
1101.50 0.048
1101.60 0.04801
1101.70 0.04801
1101.80 0.04802
1101.90 0.04802
1102.00 0.04803
1102.10 0.04803
1102.20 0.04804
1102.30 0.04804
1102.40 0.04804
1102.50 0.04804
1102.60 0.04804
1102.70 0.04805
1102.80 0.04805
1102.90 0.04805
1103.00 0.04805
1103.10 0.04805
1103.20 0.04805
1103.30 0.04805
1103.40 0.04806
1103.50 0.04806
1103.60 0.04806
1103.70 0.04805
1103.80 0.04805
1103.90 0.04805
1104.00 0.04805
1104.10 0.04805
1104.20 0.04805
1104.30 0.04805
1104.40 0.04805
1104.50 0.04804
1104.60 0.04804
1104.70 0.04804
1104.80 0.04804
1104.90 0.04804
1105.00 0.04804
1105.10 0.04804
1105.20 0.04804
1105.30 0.04803
1105.40 0.04803
1105.50 0.04803
1105.60 0.04803
1105.70 0.04802
1105.80 0.04802
1105.90 0.04801
1106.00 0.04801
1106.10 0.04801
1106.20 0.048
1106.30 0.048
1106.40 0.04799
1106.50 0.04799
1106.60 0.04799
1106.70 0.04798
1106.80 0.04798
1106.90 0.04797
1107.00 0.04797
1107.10 0.04797
1107.20 0.04796
1107.30 0.04795
1107.40 0.04795
1107.50 0.04794
1107.60 0.04794
1107.70 0.04793
1107.80 0.04792
1107.90 0.04792
1108.00 0.04791
1108.10 0.0479
1108.20 0.04789
1108.30 0.04789
1108.40 0.04788
1108.50 0.04787
1108.60 0.04787
1108.70 0.04786
1108.80 0.04785
1108.90 0.04785
1109.00 0.04784
1109.10 0.04783
1109.20 0.04783
1109.30 0.04782
1109.40 0.04781
1109.50 0.04781
1109.60 0.0478
1109.70 0.04779
1109.80 0.04778
1109.90 0.04777
1110.00 0.04776
1110.10 0.04775
1110.20 0.04774
1110.30 0.04773
1110.40 0.04772
1110.50 0.04771
1110.60 0.04771
1110.70 0.0477
1110.80 0.04769
1110.90 0.04768
1111.00 0.04767
1111.10 0.04766
1111.20 0.04765
1111.30 0.04764
1111.40 0.04763
1111.50 0.04762
1111.60 0.04762
1111.70 0.04761
1111.80 0.0476
1111.90 0.04759
1112.00 0.04758
1112.10 0.04757
1112.20 0.04756
1112.30 0.04755
1112.40 0.04754
1112.50 0.04753
1112.60 0.04752
1112.70 0.04751
1112.80 0.04749
1112.90 0.04748
1113.00 0.04747
1113.10 0.04746
1113.20 0.04745
1113.30 0.04744
1113.40 0.04743
1113.50 0.04742
1113.60 0.04741
1113.70 0.0474
1113.80 0.04739
1113.90 0.04737
1114.00 0.04736
1114.10 0.04735
1114.20 0.04734
1114.30 0.04733
1114.40 0.04731
1114.50 0.0473
1114.60 0.04729
1114.70 0.04728
1114.80 0.04727
1114.90 0.04725
1115.00 0.04724
1115.10 0.04723
1115.20 0.04722
1115.30 0.04721
1115.40 0.0472
1115.50 0.04718
1115.60 0.04717
1115.70 0.04716
1115.80 0.04715
1115.90 0.04714
1116.00 0.04712
1116.10 0.04711
1116.20 0.0471
1116.30 0.04709
1116.40 0.04708
1116.50 0.04706
1116.60 0.04705
1116.70 0.04704
1116.80 0.04703
1116.90 0.04702
1117.00 0.04701
1117.10 0.04699
1117.20 0.04698
1117.30 0.04697
1117.40 0.04695
1117.50 0.04694
1117.60 0.04693
1117.70 0.04691
1117.80 0.0469
1117.90 0.04689
1118.00 0.04687
1118.10 0.04686
1118.20 0.04685
1118.30 0.04683
1118.40 0.04682
1118.50 0.04681
1118.60 0.04679
1118.70 0.04678
1118.80 0.04677
1118.90 0.04675
1119.00 0.04674
1119.10 0.04673
1119.20 0.04671
1119.30 0.0467
1119.40 0.04669
1119.50 0.04667
1119.60 0.04666
1119.70 0.04665
1119.80 0.04663
1119.90 0.04662
1120.00 0.04661
1120.10 0.04659
1120.20 0.04658
1120.30 0.04657
1120.40 0.04655
1120.50 0.04654
1120.60 0.04653
1120.70 0.04651
1120.80 0.0465
1120.90 0.04649
1121.00 0.04647
1121.10 0.04646
1121.20 0.04645
1121.30 0.04643
1121.40 0.04642
1121.50 0.04641
1121.60 0.04639
1121.70 0.04638
1121.80 0.04637
1121.90 0.04635
1122.00 0.04634
1122.10 0.04633
1122.20 0.04631
1122.30 0.0463
1122.40 0.04628
1122.50 0.04627
1122.60 0.04625
1122.70 0.04624
1122.80 0.04623
1122.90 0.04621
1123.00 0.0462
1123.10 0.04618
1123.20 0.04617
1123.30 0.04615
1123.40 0.04614
1123.50 0.04613
1123.60 0.04611
1123.70 0.0461
1123.80 0.04608
1123.90 0.04607
1124.00 0.04605
1124.10 0.04604
1124.20 0.04603
1124.30 0.04601
1124.40 0.046
1124.50 0.04598
1124.60 0.04597
1124.70 0.04596
1124.80 0.04594
1124.90 0.04593
1125.00 0.04591
1125.10 0.0459
1125.20 0.04588
1125.30 0.04587
1125.40 0.04586
1125.50 0.04584
1125.60 0.04583
1125.70 0.04581
1125.80 0.0458
1125.90 0.04579
1126.00 0.04577
1126.10 0.04576
1126.20 0.04574
1126.30 0.04573
1126.40 0.04571
1126.50 0.0457
1126.60 0.04569
1126.70 0.04567
1126.80 0.04566
1126.90 0.04564
1127.00 0.04563
1127.10 0.04562
1127.20 0.0456
1127.30 0.04559
1127.40 0.04557
1127.50 0.04556
1127.60 0.04554
1127.70 0.04553
1127.80 0.04551
1127.90 0.0455
1128.00 0.04548
1128.10 0.04547
1128.20 0.04545
1128.30 0.04544
1128.40 0.04543
1128.50 0.04541
1128.60 0.0454
1128.70 0.04538
1128.80 0.04537
1128.90 0.04535
1129.00 0.04534
1129.10 0.04532
1129.20 0.04531
1129.30 0.04529
1129.40 0.04528
1129.50 0.04527
1129.60 0.04525
1129.70 0.04524
1129.80 0.04522
1129.90 0.04521
1130.00 0.04519
1130.10 0.04518
1130.20 0.04516
1130.30 0.04515
1130.40 0.04513
1130.50 0.04512
1130.60 0.04511
1130.70 0.04509
1130.80 0.04508
1130.90 0.04506
1131.00 0.04505
1131.10 0.04503
1131.20 0.04502
1131.30 0.045
1131.40 0.04499
1131.50 0.04498
1131.60 0.04496
1131.70 0.04495
1131.80 0.04493
1131.90 0.04492
1132.00 0.0449
1132.10 0.04489
1132.20 0.04487
1132.30 0.04486
1132.40 0.04484
1132.50 0.04483
1132.60 0.04481
1132.70 0.0448
1132.80 0.04479
1132.90 0.04477
1133.00 0.04476
1133.10 0.04474
1133.20 0.04473
1133.30 0.04471
1133.40 0.0447
1133.50 0.04468
1133.60 0.04467
1133.70 0.04465
1133.80 0.04464
1133.90 0.04462
1134.00 0.04461
1134.10 0.04459
1134.20 0.04458
1134.30 0.04457
1134.40 0.04455
1134.50 0.04454
1134.60 0.04452
1134.70 0.04451
1134.80 0.04449
1134.90 0.04448
1135.00 0.04446
1135.10 0.04445
1135.20 0.04443
1135.30 0.04442
1135.40 0.0444
1135.50 0.04439
1135.60 0.04438
1135.70 0.04436
1135.80 0.04435
1135.90 0.04433
1136.00 0.04432
1136.10 0.0443
1136.20 0.04429
1136.30 0.04427
1136.40 0.04426
1136.50 0.04424
1136.60 0.04423
1136.70 0.04422
1136.80 0.0442
1136.90 0.04419
1137.00 0.04417
1137.10 0.04416
1137.20 0.04414
1137.30 0.04413
1137.40 0.04411
1137.50 0.0441
1137.60 0.04408
1137.70 0.04407
1137.80 0.04405
1137.90 0.04404
1138.00 0.04403
1138.10 0.04401
1138.20 0.044
1138.30 0.04398
1138.40 0.04397
1138.50 0.04395
1138.60 0.04394
1138.70 0.04392
1138.80 0.04391
1138.90 0.04389
1139.00 0.04388
1139.10 0.04386
1139.20 0.04385
1139.30 0.04384
1139.40 0.04382
1139.50 0.04381
1139.60 0.04379
1139.70 0.04378
1139.80 0.04376
1139.90 0.04375
1140.00 0.04373
1140.10 0.04372
1140.20 0.0437
1140.30 0.04369
1140.40 0.04368
1140.50 0.04366
1140.60 0.04365
1140.70 0.04363
1140.80 0.04362
1140.90 0.0436
1141.00 0.04359
1141.10 0.04357
1141.20 0.04356
1141.30 0.04355
1141.40 0.04353
1141.50 0.04352
1141.60 0.0435
1141.70 0.04349
1141.80 0.04347
1141.90 0.04346
1142.00 0.04344
1142.10 0.04343
1142.20 0.04341
1142.30 0.0434
1142.40 0.04339
1142.50 0.04337
1142.60 0.04336
1142.70 0.04334
1142.80 0.04333
1142.90 0.04331
1143.00 0.0433
1143.10 0.04328
1143.20 0.04327
1143.30 0.04326
1143.40 0.04324
1143.50 0.04323
1143.60 0.04321
1143.70 0.0432
1143.80 0.04318
1143.90 0.04317
1144.00 0.04315
1144.10 0.04314
1144.20 0.04313
1144.30 0.04311
1144.40 0.0431
1144.50 0.04308
1144.60 0.04307
1144.70 0.04305
1144.80 0.04304
1144.90 0.04303
1145.00 0.04301
1145.10 0.043
1145.20 0.04298
1145.30 0.04297
1145.40 0.04295
1145.50 0.04294
1145.60 0.04293
1145.70 0.04291
1145.80 0.0429
1145.90 0.04288
1146.00 0.04287
1146.10 0.04285
1146.20 0.04284
1146.30 0.04282
1146.40 0.04281
1146.50 0.0428
1146.60 0.04278
1146.70 0.04277
1146.80 0.04275
1146.90 0.04274
1147.00 0.04272
1147.10 0.04271
1147.20 0.0427
1147.30 0.04268
1147.40 0.04267
1147.50 0.04265
1147.60 0.04264
1147.70 0.04262
1147.80 0.04261
1147.90 0.0426
1148.00 0.04258
1148.10 0.04257
1148.20 0.04255
1148.30 0.04254
1148.40 0.04253
1148.50 0.04251
1148.60 0.0425
1148.70 0.04248
1148.80 0.04247
1148.90 0.04245
1149.00 0.04244
1149.10 0.04243
1149.20 0.04241
1149.30 0.0424
1149.40 0.04238
1149.50 0.04237
1149.60 0.04235
1149.70 0.04234
1149.80 0.04233
1149.90 0.04231
1150.00 0.0423
1150.10 0.04228
1150.20 0.04227
1150.30 0.04226
1150.40 0.04224
1150.50 0.04223
1150.60 0.04221
1150.70 0.0422
1150.80 0.04218
1150.90 0.04217
1151.00 0.04216
1151.10 0.04214
1151.20 0.04213
1151.30 0.04211
1151.40 0.0421
1151.50 0.04209
1151.60 0.04207
1151.70 0.04206
1151.80 0.04204
1151.90 0.04203
1152.00 0.04202
1152.10 0.042
1152.20 0.04199
1152.30 0.04197
1152.40 0.04196
1152.50 0.04195
1152.60 0.04193
1152.70 0.04192
1152.80 0.0419
1152.90 0.04189
1153.00 0.04187
1153.10 0.04186
1153.20 0.04185
1153.30 0.04183
1153.40 0.04182
1153.50 0.0418
1153.60 0.04179
1153.70 0.04178
1153.80 0.04176
1153.90 0.04175
1154.00 0.04173
1154.10 0.04172
1154.20 0.04171
1154.30 0.04169
1154.40 0.04168
1154.50 0.04167
1154.60 0.04165
1154.70 0.04164
1154.80 0.04162
1154.90 0.04161
1155.00 0.0416
1155.10 0.04158
1155.20 0.04157
1155.30 0.04155
1155.40 0.04154
1155.50 0.04153
1155.60 0.04151
1155.70 0.0415
1155.80 0.04148
1155.90 0.04147
1156.00 0.04146
1156.10 0.04144
1156.20 0.04143
1156.30 0.04141
1156.40 0.0414
1156.50 0.04139
1156.60 0.04137
1156.70 0.04136
1156.80 0.04135
1156.90 0.04133
1157.00 0.04132
1157.10 0.0413
1157.20 0.04129
1157.30 0.04128
1157.40 0.04126
1157.50 0.04125
1157.60 0.04123
1157.70 0.04122
1157.80 0.04121
1157.90 0.04119
1158.00 0.04118
1158.10 0.04117
1158.20 0.04115
1158.30 0.04114
1158.40 0.04112
1158.50 0.04111
1158.60 0.0411
1158.70 0.04108
1158.80 0.04107
1158.90 0.04106
1159.00 0.04104
1159.10 0.04103
1159.20 0.04101
1159.30 0.041
1159.40 0.04099
1159.50 0.04097
1159.60 0.04096
1159.70 0.04095
1159.80 0.04093
1159.90 0.04092
1160.00 0.04091
1160.10 0.04089
1160.20 0.04088
1160.30 0.04086
1160.40 0.04085
1160.50 0.04084
1160.60 0.04082
1160.70 0.04081
1160.80 0.0408
1160.90 0.04078
1161.00 0.04077
1161.10 0.04075
1161.20 0.04074
1161.30 0.04073
1161.40 0.04071
1161.50 0.0407
1161.60 0.04069
1161.70 0.04067
1161.80 0.04066
1161.90 0.04065
1162.00 0.04063
1162.10 0.04062
1162.20 0.04061
1162.30 0.04059
1162.40 0.04058
1162.50 0.04056
1162.60 0.04055
1162.70 0.04054
1162.80 0.04052
1162.90 0.04051
1163.00 0.0405
1163.10 0.04048
1163.20 0.04047
1163.30 0.04046
1163.40 0.04044
1163.50 0.04043
1163.60 0.04042
1163.70 0.0404
1163.80 0.04039
1163.90 0.04038
1164.00 0.04036
1164.10 0.04035
1164.20 0.04033
1164.30 0.04032
1164.40 0.04031
1164.50 0.04029
1164.60 0.04028
1164.70 0.04027
1164.80 0.04025
1164.90 0.04024
1165.00 0.04023
1165.10 0.04021
1165.20 0.0402
1165.30 0.04019
1165.40 0.04017
1165.50 0.04016
1165.60 0.04015
1165.70 0.04013
1165.80 0.04012
1165.90 0.04011
1166.00 0.04009
1166.10 0.04008
1166.20 0.04007
1166.30 0.04005
1166.40 0.04004
1166.50 0.04003
1166.60 0.04001
1166.70 0.04
1166.80 0.03999
1166.90 0.03997
1167.00 0.03996
1167.10 0.03995
1167.20 0.03993
1167.30 0.03992
1167.40 0.03991
1167.50 0.03989
1167.60 0.03988
1167.70 0.03987
1167.80 0.03985
1167.90 0.03984
1168.00 0.03983
1168.10 0.03981
1168.20 0.0398
1168.30 0.03979
1168.40 0.03977
1168.50 0.03976
1168.60 0.03975
1168.70 0.03973
1168.80 0.03972
1168.90 0.03971
1169.00 0.03969
1169.10 0.03968
1169.20 0.03967
1169.30 0.03965
1169.40 0.03964
1169.50 0.03963
1169.60 0.03961
1169.70 0.0396
1169.80 0.03959
1169.90 0.03958
1170.00 0.03956
1170.10 0.03955
1170.20 0.03954
1170.30 0.03952
1170.40 0.03951
1170.50 0.0395
1170.60 0.03948
1170.70 0.03947
1170.80 0.03946
1170.90 0.03944
1171.00 0.03943
1171.10 0.03942
1171.20 0.0394
1171.30 0.03939
1171.40 0.03938
1171.50 0.03936
1171.60 0.03935
1171.70 0.03934
1171.80 0.03933
1171.90 0.03931
1172.00 0.0393
1172.10 0.03929
1172.20 0.03927
1172.30 0.03926
1172.40 0.03925
1172.50 0.03923
1172.60 0.03922
1172.70 0.03921
1172.80 0.03919
1172.90 0.03918
1173.00 0.03917
1173.10 0.03916
1173.20 0.03914
1173.30 0.03913
1173.40 0.03912
1173.50 0.0391
1173.60 0.03909
1173.70 0.03908
1173.80 0.03906
1173.90 0.03905
1174.00 0.03904
1174.10 0.03903
1174.20 0.03901
1174.30 0.039
1174.40 0.03899
1174.50 0.03897
1174.60 0.03896
1174.70 0.03895
1174.80 0.03894
1174.90 0.03892
1175.00 0.03891
1175.10 0.0389
1175.20 0.03888
1175.30 0.03887
1175.40 0.03886
1175.50 0.03884
1175.60 0.03883
1175.70 0.03882
1175.80 0.03881
1175.90 0.03879
1176.00 0.03878
1176.10 0.03877
1176.20 0.03875
1176.30 0.03874
1176.40 0.03873
1176.50 0.03872
1176.60 0.0387
1176.70 0.03869
1176.80 0.03868
1176.90 0.03866
1177.00 0.03865
1177.10 0.03864
1177.20 0.03863
1177.30 0.03861
1177.40 0.0386
1177.50 0.03859
1177.60 0.03858
1177.70 0.03856
1177.80 0.03855
1177.90 0.03854
1178.00 0.03852
1178.10 0.03851
1178.20 0.0385
1178.30 0.03849
1178.40 0.03847
1178.50 0.03846
1178.60 0.03845
1178.70 0.03843
1178.80 0.03842
1178.90 0.03841
1179.00 0.0384
1179.10 0.03838
1179.20 0.03837
1179.30 0.03836
1179.40 0.03835
1179.50 0.03833
1179.60 0.03832
1179.70 0.03831
1179.80 0.03829
1179.90 0.03828
1180.00 0.03827
1180.10 0.03826
1180.20 0.03824
1180.30 0.03823
1180.40 0.03822
1180.50 0.03821
1180.60 0.03819
1180.70 0.03818
1180.80 0.03817
1180.90 0.03816
1181.00 0.03814
1181.10 0.03813
1181.20 0.03812
1181.30 0.0381
1181.40 0.03809
1181.50 0.03808
1181.60 0.03807
1181.70 0.03805
1181.80 0.03804
1181.90 0.03803
1182.00 0.03802
1182.10 0.038
1182.20 0.03799
1182.30 0.03798
1182.40 0.03797
1182.50 0.03795
1182.60 0.03794
1182.70 0.03793
1182.80 0.03792
1182.90 0.0379
1183.00 0.03789
1183.10 0.03788
1183.20 0.03787
1183.30 0.03785
1183.40 0.03784
1183.50 0.03783
1183.60 0.03782
1183.70 0.0378
1183.80 0.03779
1183.90 0.03778
1184.00 0.03777
1184.10 0.03775
1184.20 0.03774
1184.30 0.03773
1184.40 0.03772
1184.50 0.0377
1184.60 0.03769
1184.70 0.03768
1184.80 0.03767
1184.90 0.03765
1185.00 0.03764
1185.10 0.03763
1185.20 0.03762
1185.30 0.0376
1185.40 0.03759
1185.50 0.03758
1185.60 0.03757
1185.70 0.03755
1185.80 0.03754
1185.90 0.03753
1186.00 0.03752
1186.10 0.0375
1186.20 0.03749
1186.30 0.03748
1186.40 0.03747
1186.50 0.03746
1186.60 0.03744
1186.70 0.03743
1186.80 0.03742
1186.90 0.03741
1187.00 0.03739
1187.10 0.03738
1187.20 0.03737
1187.30 0.03736
1187.40 0.03734
1187.50 0.03733
1187.60 0.03732
1187.70 0.03731
1187.80 0.0373
1187.90 0.03728
1188.00 0.03727
1188.10 0.03726
1188.20 0.03725
1188.30 0.03723
1188.40 0.03722
1188.50 0.03721
1188.60 0.0372
1188.70 0.03718
1188.80 0.03717
1188.90 0.03716
1189.00 0.03715
1189.10 0.03714
1189.20 0.03712
1189.30 0.03711
1189.40 0.0371
1189.50 0.03709
1189.60 0.03707
1189.70 0.03706
1189.80 0.03705
1189.90 0.03704
1190.00 0.03703
1190.10 0.03701
1190.20 0.037
1190.30 0.03699
1190.40 0.03698
1190.50 0.03696
1190.60 0.03695
1190.70 0.03694
1190.80 0.03693
1190.90 0.03692
1191.00 0.0369
1191.10 0.03689
1191.20 0.03688
1191.30 0.03687
1191.40 0.03686
1191.50 0.03684
1191.60 0.03683
1191.70 0.03682
1191.80 0.03681
1191.90 0.03679
1192.00 0.03678
1192.10 0.03677
1192.20 0.03676
1192.30 0.03675
1192.40 0.03673
1192.50 0.03672
1192.60 0.03671
1192.70 0.0367
1192.80 0.03669
1192.90 0.03667
1193.00 0.03666
1193.10 0.03665
1193.20 0.03664
1193.30 0.03663
1193.40 0.03661
1193.50 0.0366
1193.60 0.03659
1193.70 0.03658
1193.80 0.03657
1193.90 0.03655
1194.00 0.03654
1194.10 0.03653
1194.20 0.03652
1194.30 0.03651
1194.40 0.03649
1194.50 0.03648
1194.60 0.03647
1194.70 0.03646
1194.80 0.03645
1194.90 0.03643
1195.00 0.03642
1195.10 0.03641
1195.20 0.0364
1195.30 0.03639
1195.40 0.03637
1195.50 0.03636
1195.60 0.03635
1195.70 0.03634
1195.80 0.03633
1195.90 0.03631
1196.00 0.0363
1196.10 0.03629
1196.20 0.03628
1196.30 0.03627
1196.40 0.03625
1196.50 0.03624
1196.60 0.03623
1196.70 0.03622
1196.80 0.03621
1196.90 0.0362
1197.00 0.03618
1197.10 0.03617
1197.20 0.03616
1197.30 0.03615
1197.40 0.03614
1197.50 0.03612
1197.60 0.03611
1197.70 0.0361
1197.80 0.03609
1197.90 0.03608
1198.00 0.03606
1198.10 0.03605
1198.20 0.03604
1198.30 0.03603
1198.40 0.03602
1198.50 0.03601
1198.60 0.03599
1198.70 0.03598
1198.80 0.03597
1198.90 0.03596
1199.00 0.03595
1199.10 0.03593
1199.20 0.03592
1199.30 0.03591
1199.40 0.0359
1199.50 0.03589
1199.60 0.03588
1199.70 0.03586
1199.80 0.03585
1199.90 0.03584
1200.00 0
