# Version 2.1 - nm, norm@500 to 1, cut digits, bergeron_4250_95.dat_4250
# Wavelength(nm)  Flambda(ergs/cm^s/s/nm)
300.00 0.2562
300.10 0.2566
300.20 0.257
300.30 0.2574
300.40 0.2578
300.50 0.2582
300.60 0.2586
300.70 0.259
300.80 0.2594
300.90 0.2598
301.00 0.2601
301.10 0.2605
301.20 0.2609
301.30 0.2613
301.40 0.2617
301.50 0.2621
301.60 0.2625
301.70 0.2629
301.80 0.2633
301.90 0.2637
302.00 0.2641
302.10 0.2645
302.20 0.2649
302.30 0.2653
302.40 0.2657
302.50 0.2661
302.60 0.2665
302.70 0.2669
302.80 0.2672
302.90 0.2676
303.00 0.268
303.10 0.2684
303.20 0.2688
303.30 0.2692
303.40 0.2696
303.50 0.27
303.60 0.2704
303.70 0.2708
303.80 0.2712
303.90 0.2716
304.00 0.272
304.10 0.2724
304.20 0.2728
304.30 0.2732
304.40 0.2736
304.50 0.274
304.60 0.2744
304.70 0.2748
304.80 0.2752
304.90 0.2756
305.00 0.276
305.10 0.2764
305.20 0.2768
305.30 0.2772
305.40 0.2776
305.50 0.278
305.60 0.2784
305.70 0.2788
305.80 0.2792
305.90 0.2796
306.00 0.28
306.10 0.2804
306.20 0.2808
306.30 0.2812
306.40 0.2816
306.50 0.282
306.60 0.2825
306.70 0.2829
306.80 0.2833
306.90 0.2837
307.00 0.2841
307.10 0.2845
307.20 0.2849
307.30 0.2853
307.40 0.2857
307.50 0.2861
307.60 0.2865
307.70 0.2869
307.80 0.2873
307.90 0.2877
308.00 0.2881
308.10 0.2885
308.20 0.2889
308.30 0.2893
308.40 0.2897
308.50 0.2901
308.60 0.2906
308.70 0.291
308.80 0.2914
308.90 0.2918
309.00 0.2922
309.10 0.2926
309.20 0.293
309.30 0.2934
309.40 0.2938
309.50 0.2942
309.60 0.2946
309.70 0.295
309.80 0.2954
309.90 0.2958
310.00 0.2963
310.10 0.2967
310.20 0.2971
310.30 0.2975
310.40 0.2979
310.50 0.2983
310.60 0.2987
310.70 0.2992
310.80 0.2996
310.90 0.3
311.00 0.3004
311.10 0.3008
311.20 0.3012
311.30 0.3016
311.40 0.302
311.50 0.3025
311.60 0.3029
311.70 0.3033
311.80 0.3037
311.90 0.3041
312.00 0.3045
312.10 0.3049
312.20 0.3053
312.30 0.3057
312.40 0.3061
312.50 0.3066
312.60 0.307
312.70 0.3074
312.80 0.3078
312.90 0.3082
313.00 0.3086
313.10 0.3091
313.20 0.3095
313.30 0.3099
313.40 0.3103
313.50 0.3107
313.60 0.3111
313.70 0.3115
313.80 0.312
313.90 0.3124
314.00 0.3128
314.10 0.3132
314.20 0.3136
314.30 0.314
314.40 0.3145
314.50 0.3149
314.60 0.3153
314.70 0.3157
314.80 0.3162
314.90 0.3166
315.00 0.317
315.10 0.3174
315.20 0.3178
315.30 0.3182
315.40 0.3187
315.50 0.3191
315.60 0.3195
315.70 0.3199
315.80 0.3203
315.90 0.3207
316.00 0.3212
316.10 0.3216
316.20 0.322
316.30 0.3224
316.40 0.3228
316.50 0.3233
316.60 0.3237
316.70 0.3241
316.80 0.3245
316.90 0.325
317.00 0.3254
317.10 0.3258
317.20 0.3262
317.30 0.3266
317.40 0.3271
317.50 0.3275
317.60 0.3279
317.70 0.3283
317.80 0.3287
317.90 0.3292
318.00 0.3296
318.10 0.33
318.20 0.3304
318.30 0.3309
318.40 0.3313
318.50 0.3317
318.60 0.3321
318.70 0.3326
318.80 0.333
318.90 0.3334
319.00 0.3338
319.10 0.3343
319.20 0.3347
319.30 0.3351
319.40 0.3355
319.50 0.336
319.60 0.3364
319.70 0.3368
319.80 0.3372
319.90 0.3376
320.00 0.3381
320.10 0.3385
320.20 0.3389
320.30 0.3393
320.40 0.3398
320.50 0.3402
320.60 0.3406
320.70 0.3411
320.80 0.3415
320.90 0.3419
321.00 0.3423
321.10 0.3428
321.20 0.3432
321.30 0.3436
321.40 0.344
321.50 0.3445
321.60 0.3449
321.70 0.3453
321.80 0.3457
321.90 0.3462
322.00 0.3466
322.10 0.347
322.20 0.3475
322.30 0.3479
322.40 0.3483
322.50 0.3487
322.60 0.3492
322.70 0.3496
322.80 0.35
322.90 0.3505
323.00 0.3509
323.10 0.3513
323.20 0.3518
323.30 0.3522
323.40 0.3526
323.50 0.353
323.60 0.3535
323.70 0.3539
323.80 0.3543
323.90 0.3547
324.00 0.3552
324.10 0.3556
324.20 0.356
324.30 0.3565
324.40 0.3569
324.50 0.3573
324.60 0.3578
324.70 0.3582
324.80 0.3586
324.90 0.3591
325.00 0.3595
325.10 0.3599
325.20 0.3604
325.30 0.3608
325.40 0.3612
325.50 0.3617
325.60 0.3621
325.70 0.3625
325.80 0.3629
325.90 0.3634
326.00 0.3638
326.10 0.3642
326.20 0.3647
326.30 0.3651
326.40 0.3656
326.50 0.366
326.60 0.3664
326.70 0.3669
326.80 0.3673
326.90 0.3677
327.00 0.3682
327.10 0.3686
327.20 0.369
327.30 0.3695
327.40 0.3699
327.50 0.3703
327.60 0.3708
327.70 0.3712
327.80 0.3716
327.90 0.3721
328.00 0.3725
328.10 0.3729
328.20 0.3734
328.30 0.3738
328.40 0.3742
328.50 0.3747
328.60 0.3751
328.70 0.3756
328.80 0.376
328.90 0.3764
329.00 0.3769
329.10 0.3773
329.20 0.3777
329.30 0.3782
329.40 0.3786
329.50 0.379
329.60 0.3795
329.70 0.3799
329.80 0.3803
329.90 0.3807
330.00 0.3812
330.10 0.3816
330.20 0.3821
330.30 0.3825
330.40 0.3829
330.50 0.3834
330.60 0.3838
330.70 0.3843
330.80 0.3847
330.90 0.3851
331.00 0.3856
331.10 0.386
331.20 0.3865
331.30 0.3869
331.40 0.3873
331.50 0.3878
331.60 0.3882
331.70 0.3886
331.80 0.3891
331.90 0.3895
332.00 0.3899
332.10 0.3904
332.20 0.3908
332.30 0.3913
332.40 0.3917
332.50 0.3921
332.60 0.3926
332.70 0.393
332.80 0.3935
332.90 0.3939
333.00 0.3943
333.10 0.3948
333.20 0.3952
333.30 0.3957
333.40 0.3961
333.50 0.3965
333.60 0.397
333.70 0.3974
333.80 0.3978
333.90 0.3983
334.00 0.3987
334.10 0.3992
334.20 0.3996
334.30 0.4
334.40 0.4005
334.50 0.4009
334.60 0.4014
334.70 0.4018
334.80 0.4023
334.90 0.4027
335.00 0.4031
335.10 0.4036
335.20 0.404
335.30 0.4045
335.40 0.4049
335.50 0.4053
335.60 0.4058
335.70 0.4062
335.80 0.4066
335.90 0.4071
336.00 0.4075
336.10 0.408
336.20 0.4084
336.30 0.4089
336.40 0.4093
336.50 0.4097
336.60 0.4102
336.70 0.4106
336.80 0.4111
336.90 0.4115
337.00 0.412
337.10 0.4124
337.20 0.4128
337.30 0.4133
337.40 0.4137
337.50 0.4142
337.60 0.4146
337.70 0.415
337.80 0.4155
337.90 0.4159
338.00 0.4164
338.10 0.4168
338.20 0.4173
338.30 0.4177
338.40 0.4181
338.50 0.4186
338.60 0.419
338.70 0.4195
338.80 0.4199
338.90 0.4204
339.00 0.4208
339.10 0.4213
339.20 0.4217
339.30 0.4221
339.40 0.4226
339.50 0.423
339.60 0.4235
339.70 0.4239
339.80 0.4243
339.90 0.4248
340.00 0.4252
340.10 0.4257
340.20 0.4261
340.30 0.4266
340.40 0.427
340.50 0.4275
340.60 0.4279
340.70 0.4283
340.80 0.4288
340.90 0.4292
341.00 0.4297
341.10 0.4301
341.20 0.4306
341.30 0.431
341.40 0.4314
341.50 0.4319
341.60 0.4323
341.70 0.4328
341.80 0.4332
341.90 0.4336
342.00 0.4341
342.10 0.4345
342.20 0.435
342.30 0.4354
342.40 0.4359
342.50 0.4363
342.60 0.4368
342.70 0.4372
342.80 0.4377
342.90 0.4381
343.00 0.4386
343.10 0.439
343.20 0.4395
343.30 0.4399
343.40 0.4403
343.50 0.4408
343.60 0.4412
343.70 0.4417
343.80 0.4421
343.90 0.4425
344.00 0.443
344.10 0.4434
344.20 0.4439
344.30 0.4443
344.40 0.4448
344.50 0.4452
344.60 0.4457
344.70 0.4461
344.80 0.4466
344.90 0.447
345.00 0.4475
345.10 0.4479
345.20 0.4484
345.30 0.4488
345.40 0.4492
345.50 0.4497
345.60 0.4501
345.70 0.4506
345.80 0.451
345.90 0.4514
346.00 0.4519
346.10 0.4523
346.20 0.4528
346.30 0.4532
346.40 0.4537
346.50 0.4541
346.60 0.4546
346.70 0.455
346.80 0.4555
346.90 0.4559
347.00 0.4564
347.10 0.4568
347.20 0.4573
347.30 0.4577
347.40 0.4582
347.50 0.4586
347.60 0.459
347.70 0.4595
347.80 0.4599
347.90 0.4604
348.00 0.4608
348.10 0.4613
348.20 0.4617
348.30 0.4622
348.40 0.4626
348.50 0.4631
348.60 0.4635
348.70 0.464
348.80 0.4644
348.90 0.4648
349.00 0.4653
349.10 0.4657
349.20 0.4662
349.30 0.4666
349.40 0.4671
349.50 0.4675
349.60 0.468
349.70 0.4684
349.80 0.4688
349.90 0.4693
350.00 0.4697
350.10 0.4702
350.20 0.4706
350.30 0.4711
350.40 0.4715
350.50 0.472
350.60 0.4724
350.70 0.4729
350.80 0.4733
350.90 0.4738
351.00 0.4742
351.10 0.4747
351.20 0.4751
351.30 0.4755
351.40 0.476
351.50 0.4764
351.60 0.4769
351.70 0.4773
351.80 0.4778
351.90 0.4782
352.00 0.4786
352.10 0.4791
352.20 0.4795
352.30 0.48
352.40 0.4804
352.50 0.4809
352.60 0.4813
352.70 0.4818
352.80 0.4822
352.90 0.4827
353.00 0.4831
353.10 0.4836
353.20 0.484
353.30 0.4845
353.40 0.4849
353.50 0.4854
353.60 0.4858
353.70 0.4862
353.80 0.4867
353.90 0.4871
354.00 0.4876
354.10 0.488
354.20 0.4885
354.30 0.4889
354.40 0.4894
354.50 0.4898
354.60 0.4903
354.70 0.4907
354.80 0.4912
354.90 0.4916
355.00 0.4921
355.10 0.4925
355.20 0.493
355.30 0.4934
355.40 0.4938
355.50 0.4943
355.60 0.4947
355.70 0.4952
355.80 0.4956
355.90 0.4961
356.00 0.4965
356.10 0.4969
356.20 0.4974
356.30 0.4978
356.40 0.4983
356.50 0.4987
356.60 0.4992
356.70 0.4996
356.80 0.5001
356.90 0.5005
357.00 0.501
357.10 0.5014
357.20 0.5019
357.30 0.5023
357.40 0.5028
357.50 0.5032
357.60 0.5036
357.70 0.5041
357.80 0.5045
357.90 0.505
358.00 0.5054
358.10 0.5059
358.20 0.5063
358.30 0.5068
358.40 0.5072
358.50 0.5077
358.60 0.5081
358.70 0.5086
358.80 0.509
358.90 0.5094
359.00 0.5099
359.10 0.5103
359.20 0.5108
359.30 0.5112
359.40 0.5117
359.50 0.5121
359.60 0.5125
359.70 0.513
359.80 0.5134
359.90 0.5139
360.00 0.5143
360.10 0.5148
360.20 0.5152
360.30 0.5157
360.40 0.5161
360.50 0.5166
360.60 0.517
360.70 0.5174
360.80 0.5179
360.90 0.5183
361.00 0.5188
361.10 0.5192
361.20 0.5197
361.30 0.5201
361.40 0.5206
361.50 0.521
361.60 0.5214
361.70 0.5219
361.80 0.5223
361.90 0.5228
362.00 0.5232
362.10 0.5236
362.20 0.5241
362.30 0.5245
362.40 0.525
362.50 0.5254
362.60 0.5259
362.70 0.5263
362.80 0.5268
362.90 0.5272
363.00 0.5276
363.10 0.5281
363.20 0.5285
363.30 0.529
363.40 0.5294
363.50 0.5299
363.60 0.5303
363.70 0.5308
363.80 0.5312
363.90 0.5317
364.00 0.5321
364.10 0.5325
364.20 0.533
364.30 0.5334
364.40 0.5339
364.50 0.5343
364.60 0.5347
364.70 0.5352
364.80 0.5356
364.90 0.5361
365.00 0.5365
365.10 0.537
365.20 0.5374
365.30 0.5379
365.40 0.5383
365.50 0.5387
365.60 0.5392
365.70 0.5396
365.80 0.5401
365.90 0.5405
366.00 0.541
366.10 0.5414
366.20 0.5418
366.30 0.5423
366.40 0.5427
366.50 0.5432
366.60 0.5436
366.70 0.5441
366.80 0.5445
366.90 0.545
367.00 0.5454
367.10 0.5458
367.20 0.5463
367.30 0.5467
367.40 0.5472
367.50 0.5476
367.60 0.548
367.70 0.5485
367.80 0.5489
367.90 0.5494
368.00 0.5498
368.10 0.5502
368.20 0.5507
368.30 0.5511
368.40 0.5516
368.50 0.552
368.60 0.5525
368.70 0.5529
368.80 0.5534
368.90 0.5538
369.00 0.5542
369.10 0.5547
369.20 0.5551
369.30 0.5556
369.40 0.556
369.50 0.5564
369.60 0.5569
369.70 0.5573
369.80 0.5578
369.90 0.5582
370.00 0.5586
370.10 0.5591
370.20 0.5595
370.30 0.56
370.40 0.5604
370.50 0.5608
370.60 0.5613
370.70 0.5617
370.80 0.5622
370.90 0.5626
371.00 0.5631
371.10 0.5635
371.20 0.5639
371.30 0.5644
371.40 0.5648
371.50 0.5652
371.60 0.5657
371.70 0.5661
371.80 0.5666
371.90 0.567
372.00 0.5674
372.10 0.5679
372.20 0.5683
372.30 0.5688
372.40 0.5692
372.50 0.5696
372.60 0.5701
372.70 0.5705
372.80 0.571
372.90 0.5714
373.00 0.5718
373.10 0.5723
373.20 0.5727
373.30 0.5731
373.40 0.5736
373.50 0.574
373.60 0.5745
373.70 0.5749
373.80 0.5753
373.90 0.5758
374.00 0.5762
374.10 0.5766
374.20 0.5771
374.30 0.5775
374.40 0.578
374.50 0.5784
374.60 0.5788
374.70 0.5793
374.80 0.5797
374.90 0.5801
375.00 0.5806
375.10 0.581
375.20 0.5815
375.30 0.5819
375.40 0.5823
375.50 0.5828
375.60 0.5832
375.70 0.5836
375.80 0.5841
375.90 0.5845
376.00 0.5849
376.10 0.5854
376.20 0.5858
376.30 0.5862
376.40 0.5867
376.50 0.5871
376.60 0.5875
376.70 0.588
376.80 0.5884
376.90 0.5888
377.00 0.5893
377.10 0.5897
377.20 0.5902
377.30 0.5906
377.40 0.591
377.50 0.5915
377.60 0.5919
377.70 0.5923
377.80 0.5928
377.90 0.5932
378.00 0.5936
378.10 0.5941
378.20 0.5945
378.30 0.5949
378.40 0.5954
378.50 0.5958
378.60 0.5962
378.70 0.5967
378.80 0.5971
378.90 0.5975
379.00 0.598
379.10 0.5984
379.20 0.5988
379.30 0.5993
379.40 0.5997
379.50 0.6001
379.60 0.6006
379.70 0.601
379.80 0.6014
379.90 0.6019
380.00 0.6023
380.10 0.6027
380.20 0.6032
380.30 0.6036
380.40 0.604
380.50 0.6045
380.60 0.6049
380.70 0.6053
380.80 0.6058
380.90 0.6062
381.00 0.6066
381.10 0.607
381.20 0.6075
381.30 0.6079
381.40 0.6083
381.50 0.6088
381.60 0.6092
381.70 0.6096
381.80 0.6101
381.90 0.6105
382.00 0.6109
382.10 0.6114
382.20 0.6118
382.30 0.6122
382.40 0.6127
382.50 0.6131
382.60 0.6135
382.70 0.6139
382.80 0.6144
382.90 0.6148
383.00 0.6152
383.10 0.6157
383.20 0.6161
383.30 0.6165
383.40 0.6169
383.50 0.6174
383.60 0.6178
383.70 0.6182
383.80 0.6187
383.90 0.6191
384.00 0.6195
384.10 0.62
384.20 0.6204
384.30 0.6208
384.40 0.6212
384.50 0.6217
384.60 0.6221
384.70 0.6225
384.80 0.623
384.90 0.6234
385.00 0.6238
385.10 0.6242
385.20 0.6247
385.30 0.6251
385.40 0.6255
385.50 0.6259
385.60 0.6264
385.70 0.6268
385.80 0.6272
385.90 0.6276
386.00 0.6281
386.10 0.6285
386.20 0.6289
386.30 0.6294
386.40 0.6298
386.50 0.6302
386.60 0.6306
386.70 0.6311
386.80 0.6315
386.90 0.6319
387.00 0.6323
387.10 0.6328
387.20 0.6332
387.30 0.6336
387.40 0.634
387.50 0.6345
387.60 0.6349
387.70 0.6353
387.80 0.6357
387.90 0.6362
388.00 0.6366
388.10 0.637
388.20 0.6374
388.30 0.6378
388.40 0.6383
388.50 0.6387
388.60 0.6391
388.70 0.6395
388.80 0.64
388.90 0.6404
389.00 0.6408
389.10 0.6412
389.20 0.6417
389.30 0.6421
389.40 0.6425
389.50 0.6429
389.60 0.6434
389.70 0.6438
389.80 0.6442
389.90 0.6446
390.00 0.645
390.10 0.6455
390.20 0.6459
390.30 0.6463
390.40 0.6467
390.50 0.6471
390.60 0.6476
390.70 0.648
390.80 0.6484
390.90 0.6488
391.00 0.6492
391.10 0.6497
391.20 0.6501
391.30 0.6505
391.40 0.6509
391.50 0.6513
391.60 0.6518
391.70 0.6522
391.80 0.6526
391.90 0.653
392.00 0.6534
392.10 0.6539
392.20 0.6543
392.30 0.6547
392.40 0.6551
392.50 0.6555
392.60 0.656
392.70 0.6564
392.80 0.6568
392.90 0.6572
393.00 0.6576
393.10 0.658
393.20 0.6585
393.30 0.6589
393.40 0.6593
393.50 0.6597
393.60 0.6601
393.70 0.6606
393.80 0.661
393.90 0.6614
394.00 0.6618
394.10 0.6622
394.20 0.6626
394.30 0.6631
394.40 0.6635
394.50 0.6639
394.60 0.6643
394.70 0.6647
394.80 0.6651
394.90 0.6656
395.00 0.666
395.10 0.6664
395.20 0.6668
395.30 0.6672
395.40 0.6676
395.50 0.668
395.60 0.6685
395.70 0.6689
395.80 0.6693
395.90 0.6697
396.00 0.6701
396.10 0.6705
396.20 0.6709
396.30 0.6714
396.40 0.6718
396.50 0.6722
396.60 0.6726
396.70 0.673
396.80 0.6734
396.90 0.6738
397.00 0.6742
397.10 0.6747
397.20 0.6751
397.30 0.6755
397.40 0.6759
397.50 0.6763
397.60 0.6767
397.70 0.6771
397.80 0.6775
397.90 0.678
398.00 0.6784
398.10 0.6788
398.20 0.6792
398.30 0.6796
398.40 0.68
398.50 0.6804
398.60 0.6808
398.70 0.6812
398.80 0.6817
398.90 0.6821
399.00 0.6825
399.10 0.6829
399.20 0.6833
399.30 0.6837
399.40 0.6841
399.50 0.6845
399.60 0.6849
399.70 0.6853
399.80 0.6857
399.90 0.6862
400.00 0.6866
400.10 0.687
400.20 0.6874
400.30 0.6878
400.40 0.6882
400.50 0.6886
400.60 0.689
400.70 0.6894
400.80 0.6898
400.90 0.6902
401.00 0.6906
401.10 0.691
401.20 0.6915
401.30 0.6919
401.40 0.6923
401.50 0.6927
401.60 0.6931
401.70 0.6935
401.80 0.6939
401.90 0.6943
402.00 0.6947
402.10 0.6951
402.20 0.6955
402.30 0.6959
402.40 0.6963
402.50 0.6967
402.60 0.6971
402.70 0.6975
402.80 0.6979
402.90 0.6983
403.00 0.6988
403.10 0.6992
403.20 0.6996
403.30 0.7
403.40 0.7004
403.50 0.7008
403.60 0.7012
403.70 0.7016
403.80 0.702
403.90 0.7024
404.00 0.7028
404.10 0.7032
404.20 0.7036
404.30 0.704
404.40 0.7044
404.50 0.7048
404.60 0.7052
404.70 0.7056
404.80 0.706
404.90 0.7064
405.00 0.7068
405.10 0.7072
405.20 0.7076
405.30 0.708
405.40 0.7084
405.50 0.7088
405.60 0.7092
405.70 0.7096
405.80 0.71
405.90 0.7104
406.00 0.7108
406.10 0.7112
406.20 0.7116
406.30 0.712
406.40 0.7124
406.50 0.7128
406.60 0.7132
406.70 0.7136
406.80 0.714
406.90 0.7144
407.00 0.7148
407.10 0.7152
407.20 0.7156
407.30 0.716
407.40 0.7164
407.50 0.7168
407.60 0.7172
407.70 0.7176
407.80 0.718
407.90 0.7184
408.00 0.7188
408.10 0.7191
408.20 0.7195
408.30 0.7199
408.40 0.7203
408.50 0.7207
408.60 0.7211
408.70 0.7215
408.80 0.7219
408.90 0.7223
409.00 0.7227
409.10 0.7231
409.20 0.7235
409.30 0.7239
409.40 0.7243
409.50 0.7247
409.60 0.7251
409.70 0.7255
409.80 0.7259
409.90 0.7263
410.00 0.7266
410.10 0.727
410.20 0.7274
410.30 0.7278
410.40 0.7282
410.50 0.7286
410.60 0.729
410.70 0.7294
410.80 0.7298
410.90 0.7302
411.00 0.7306
411.10 0.731
411.20 0.7313
411.30 0.7317
411.40 0.7321
411.50 0.7325
411.60 0.7329
411.70 0.7333
411.80 0.7337
411.90 0.7341
412.00 0.7345
412.10 0.7349
412.20 0.7352
412.30 0.7356
412.40 0.736
412.50 0.7364
412.60 0.7368
412.70 0.7372
412.80 0.7376
412.90 0.738
413.00 0.7383
413.10 0.7387
413.20 0.7391
413.30 0.7395
413.40 0.7399
413.50 0.7403
413.60 0.7407
413.70 0.7411
413.80 0.7414
413.90 0.7418
414.00 0.7422
414.10 0.7426
414.20 0.743
414.30 0.7434
414.40 0.7438
414.50 0.7441
414.60 0.7445
414.70 0.7449
414.80 0.7453
414.90 0.7457
415.00 0.7461
415.10 0.7465
415.20 0.7468
415.30 0.7472
415.40 0.7476
415.50 0.748
415.60 0.7484
415.70 0.7488
415.80 0.7491
415.90 0.7495
416.00 0.7499
416.10 0.7503
416.20 0.7507
416.30 0.7511
416.40 0.7514
416.50 0.7518
416.60 0.7522
416.70 0.7526
416.80 0.753
416.90 0.7533
417.00 0.7537
417.10 0.7541
417.20 0.7545
417.30 0.7549
417.40 0.7553
417.50 0.7556
417.60 0.756
417.70 0.7564
417.80 0.7568
417.90 0.7571
418.00 0.7575
418.10 0.7579
418.20 0.7583
418.30 0.7587
418.40 0.759
418.50 0.7594
418.60 0.7598
418.70 0.7602
418.80 0.7606
418.90 0.7609
419.00 0.7613
419.10 0.7617
419.20 0.7621
419.30 0.7624
419.40 0.7628
419.50 0.7632
419.60 0.7636
419.70 0.764
419.80 0.7643
419.90 0.7647
420.00 0.7651
420.10 0.7655
420.20 0.7658
420.30 0.7662
420.40 0.7666
420.50 0.7669
420.60 0.7673
420.70 0.7677
420.80 0.7681
420.90 0.7684
421.00 0.7688
421.10 0.7692
421.20 0.7696
421.30 0.7699
421.40 0.7703
421.50 0.7707
421.60 0.7711
421.70 0.7714
421.80 0.7718
421.90 0.7722
422.00 0.7725
422.10 0.7729
422.20 0.7733
422.30 0.7737
422.40 0.774
422.50 0.7744
422.60 0.7748
422.70 0.7751
422.80 0.7755
422.90 0.7759
423.00 0.7763
423.10 0.7766
423.20 0.777
423.30 0.7774
423.40 0.7777
423.50 0.7781
423.60 0.7785
423.70 0.7788
423.80 0.7792
423.90 0.7796
424.00 0.7799
424.10 0.7803
424.20 0.7807
424.30 0.7811
424.40 0.7814
424.50 0.7818
424.60 0.7822
424.70 0.7825
424.80 0.7829
424.90 0.7833
425.00 0.7836
425.10 0.784
425.20 0.7844
425.30 0.7847
425.40 0.7851
425.50 0.7855
425.60 0.7858
425.70 0.7862
425.80 0.7865
425.90 0.7869
426.00 0.7873
426.10 0.7876
426.20 0.788
426.30 0.7884
426.40 0.7887
426.50 0.7891
426.60 0.7895
426.70 0.7898
426.80 0.7902
426.90 0.7905
427.00 0.7909
427.10 0.7913
427.20 0.7916
427.30 0.792
427.40 0.7924
427.50 0.7927
427.60 0.7931
427.70 0.7934
427.80 0.7938
427.90 0.7942
428.00 0.7945
428.10 0.7949
428.20 0.7952
428.30 0.7956
428.40 0.796
428.50 0.7963
428.60 0.7967
428.70 0.797
428.80 0.7974
428.90 0.7978
429.00 0.7981
429.10 0.7985
429.20 0.7988
429.30 0.7992
429.40 0.7996
429.50 0.7999
429.60 0.8003
429.70 0.8006
429.80 0.801
429.90 0.8013
430.00 0.8017
430.10 0.8021
430.20 0.8024
430.30 0.8028
430.40 0.8031
430.50 0.8035
430.60 0.8038
430.70 0.8042
430.80 0.8045
430.90 0.8049
431.00 0.8053
431.10 0.8056
431.20 0.806
431.30 0.8063
431.40 0.8067
431.50 0.807
431.60 0.8074
431.70 0.8077
431.80 0.8081
431.90 0.8084
432.00 0.8088
432.10 0.8092
432.20 0.8095
432.30 0.8099
432.40 0.8102
432.50 0.8106
432.60 0.8109
432.70 0.8113
432.80 0.8116
432.90 0.812
433.00 0.8123
433.10 0.8127
433.20 0.813
433.30 0.8134
433.40 0.8137
433.50 0.8141
433.60 0.8144
433.70 0.8148
433.80 0.8151
433.90 0.8155
434.00 0.8158
434.10 0.8162
434.20 0.8165
434.30 0.8169
434.40 0.8172
434.50 0.8176
434.60 0.8179
434.70 0.8183
434.80 0.8186
434.90 0.8189
435.00 0.8193
435.10 0.8196
435.20 0.82
435.30 0.8203
435.40 0.8207
435.50 0.821
435.60 0.8214
435.70 0.8217
435.80 0.8221
435.90 0.8224
436.00 0.8228
436.10 0.8231
436.20 0.8234
436.30 0.8238
436.40 0.8241
436.50 0.8245
436.60 0.8248
436.70 0.8252
436.80 0.8255
436.90 0.8259
437.00 0.8262
437.10 0.8265
437.20 0.8269
437.30 0.8272
437.40 0.8276
437.50 0.8279
437.60 0.8282
437.70 0.8286
437.80 0.8289
437.90 0.8293
438.00 0.8296
438.10 0.83
438.20 0.8303
438.30 0.8306
438.40 0.831
438.50 0.8313
438.60 0.8317
438.70 0.832
438.80 0.8323
438.90 0.8327
439.00 0.833
439.10 0.8333
439.20 0.8337
439.30 0.834
439.40 0.8344
439.50 0.8347
439.60 0.835
439.70 0.8354
439.80 0.8357
439.90 0.836
440.00 0.8364
440.10 0.8367
440.20 0.8371
440.30 0.8374
440.40 0.8377
440.50 0.8381
440.60 0.8384
440.70 0.8387
440.80 0.8391
440.90 0.8394
441.00 0.8397
441.10 0.8401
441.20 0.8404
441.30 0.8408
441.40 0.8411
441.50 0.8414
441.60 0.8418
441.70 0.8421
441.80 0.8424
441.90 0.8428
442.00 0.8431
442.10 0.8434
442.20 0.8438
442.30 0.8441
442.40 0.8444
442.50 0.8447
442.60 0.8451
442.70 0.8454
442.80 0.8457
442.90 0.8461
443.00 0.8464
443.10 0.8467
443.20 0.8471
443.30 0.8474
443.40 0.8477
443.50 0.8481
443.60 0.8484
443.70 0.8487
443.80 0.849
443.90 0.8494
444.00 0.8497
444.10 0.85
444.20 0.8504
444.30 0.8507
444.40 0.851
444.50 0.8513
444.60 0.8517
444.70 0.852
444.80 0.8523
444.90 0.8526
445.00 0.853
445.10 0.8533
445.20 0.8536
445.30 0.854
445.40 0.8543
445.50 0.8546
445.60 0.8549
445.70 0.8553
445.80 0.8556
445.90 0.8559
446.00 0.8562
446.10 0.8566
446.20 0.8569
446.30 0.8572
446.40 0.8575
446.50 0.8579
446.60 0.8582
446.70 0.8585
446.80 0.8588
446.90 0.8591
447.00 0.8595
447.10 0.8598
447.20 0.8601
447.30 0.8604
447.40 0.8607
447.50 0.8611
447.60 0.8614
447.70 0.8617
447.80 0.862
447.90 0.8624
448.00 0.8627
448.10 0.863
448.20 0.8633
448.30 0.8636
448.40 0.864
448.50 0.8643
448.60 0.8646
448.70 0.8649
448.80 0.8652
448.90 0.8656
449.00 0.8659
449.10 0.8662
449.20 0.8665
449.30 0.8668
449.40 0.8671
449.50 0.8675
449.60 0.8678
449.70 0.8681
449.80 0.8684
449.90 0.8687
450.00 0.869
450.10 0.8694
450.20 0.8697
450.30 0.87
450.40 0.8703
450.50 0.8706
450.60 0.8709
450.70 0.8712
450.80 0.8716
450.90 0.8719
451.00 0.8722
451.10 0.8725
451.20 0.8728
451.30 0.8731
451.40 0.8734
451.50 0.8738
451.60 0.8741
451.70 0.8744
451.80 0.8747
451.90 0.875
452.00 0.8753
452.10 0.8756
452.20 0.8759
452.30 0.8763
452.40 0.8766
452.50 0.8769
452.60 0.8772
452.70 0.8775
452.80 0.8778
452.90 0.8781
453.00 0.8784
453.10 0.8787
453.20 0.879
453.30 0.8794
453.40 0.8797
453.50 0.88
453.60 0.8803
453.70 0.8806
453.80 0.8809
453.90 0.8812
454.00 0.8815
454.10 0.8818
454.20 0.8821
454.30 0.8824
454.40 0.8827
454.50 0.8831
454.60 0.8834
454.70 0.8837
454.80 0.884
454.90 0.8843
455.00 0.8846
455.10 0.8849
455.20 0.8852
455.30 0.8855
455.40 0.8858
455.50 0.8861
455.60 0.8864
455.70 0.8867
455.80 0.887
455.90 0.8873
456.00 0.8876
456.10 0.8879
456.20 0.8882
456.30 0.8885
456.40 0.8888
456.50 0.8891
456.60 0.8894
456.70 0.8897
456.80 0.8901
456.90 0.8904
457.00 0.8907
457.10 0.891
457.20 0.8913
457.30 0.8916
457.40 0.8919
457.50 0.8922
457.60 0.8925
457.70 0.8928
457.80 0.8931
457.90 0.8934
458.00 0.8937
458.10 0.894
458.20 0.8943
458.30 0.8946
458.40 0.8949
458.50 0.8952
458.60 0.8955
458.70 0.8958
458.80 0.8961
458.90 0.8964
459.00 0.8967
459.10 0.897
459.20 0.8973
459.30 0.8976
459.40 0.8979
459.50 0.8981
459.60 0.8984
459.70 0.8987
459.80 0.899
459.90 0.8993
460.00 0.8995
460.10 0.8999
460.20 0.9002
460.30 0.9005
460.40 0.9008
460.50 0.9011
460.60 0.9014
460.70 0.9017
460.80 0.902
460.90 0.9022
461.00 0.9025
461.10 0.9028
461.20 0.9031
461.30 0.9034
461.40 0.9037
461.50 0.904
461.60 0.9043
461.70 0.9045
461.80 0.9048
461.90 0.9051
462.00 0.9054
462.10 0.9057
462.20 0.906
462.30 0.9063
462.40 0.9066
462.50 0.9069
462.60 0.9072
462.70 0.9075
462.80 0.9078
462.90 0.908
463.00 0.9083
463.10 0.9086
463.20 0.9089
463.30 0.9092
463.40 0.9095
463.50 0.9098
463.60 0.91
463.70 0.9103
463.80 0.9106
463.90 0.9109
464.00 0.9112
464.10 0.9114
464.20 0.9117
464.30 0.912
464.40 0.9123
464.50 0.9126
464.60 0.9129
464.70 0.9132
464.80 0.9135
464.90 0.9137
465.00 0.914
465.10 0.9143
465.20 0.9146
465.30 0.9149
465.40 0.9152
465.50 0.9154
465.60 0.9157
465.70 0.916
465.80 0.9163
465.90 0.9166
466.00 0.9169
466.10 0.9171
466.20 0.9174
466.30 0.9177
466.40 0.918
466.50 0.9183
466.60 0.9185
466.70 0.9188
466.80 0.9191
466.90 0.9194
467.00 0.9197
467.10 0.9199
467.20 0.9202
467.30 0.9205
467.40 0.9208
467.50 0.9211
467.60 0.9213
467.70 0.9216
467.80 0.9219
467.90 0.9222
468.00 0.9224
468.10 0.9227
468.20 0.923
468.30 0.9233
468.40 0.9236
468.50 0.9238
468.60 0.9241
468.70 0.9244
468.80 0.9247
468.90 0.925
469.00 0.9253
469.10 0.9255
469.20 0.9258
469.30 0.9261
469.40 0.9264
469.50 0.9266
469.60 0.9269
469.70 0.9272
469.80 0.9274
469.90 0.9277
470.00 0.928
470.10 0.9283
470.20 0.9285
470.30 0.9288
470.40 0.9291
470.50 0.9293
470.60 0.9296
470.70 0.9299
470.80 0.9301
470.90 0.9304
471.00 0.9307
471.10 0.9309
471.20 0.9312
471.30 0.9315
471.40 0.9317
471.50 0.932
471.60 0.9323
471.70 0.9326
471.80 0.9328
471.90 0.9331
472.00 0.9334
472.10 0.9336
472.20 0.9339
472.30 0.9342
472.40 0.9345
472.50 0.9347
472.60 0.935
472.70 0.9353
472.80 0.9355
472.90 0.9358
473.00 0.9361
473.10 0.9363
473.20 0.9366
473.30 0.9369
473.40 0.9371
473.50 0.9374
473.60 0.9377
473.70 0.9379
473.80 0.9382
473.90 0.9385
474.00 0.9387
474.10 0.939
474.20 0.9393
474.30 0.9395
474.40 0.9398
474.50 0.9401
474.60 0.9403
474.70 0.9406
474.80 0.9408
474.90 0.9411
475.00 0.9414
475.10 0.9416
475.20 0.9419
475.30 0.9422
475.40 0.9424
475.50 0.9427
475.60 0.9429
475.70 0.9432
475.80 0.9435
475.90 0.9437
476.00 0.944
476.10 0.9442
476.20 0.9445
476.30 0.9448
476.40 0.945
476.50 0.9453
476.60 0.9455
476.70 0.9458
476.80 0.946
476.90 0.9463
477.00 0.9466
477.10 0.9468
477.20 0.9471
477.30 0.9473
477.40 0.9476
477.50 0.9478
477.60 0.9481
477.70 0.9483
477.80 0.9486
477.90 0.9488
478.00 0.9491
478.10 0.9494
478.20 0.9496
478.30 0.9499
478.40 0.9501
478.50 0.9504
478.60 0.9506
478.70 0.9509
478.80 0.9511
478.90 0.9514
479.00 0.9516
479.10 0.9519
479.20 0.9521
479.30 0.9524
479.40 0.9526
479.50 0.9529
479.60 0.9532
479.70 0.9534
479.80 0.9537
479.90 0.9539
480.00 0.9542
480.10 0.9544
480.20 0.9547
480.30 0.9549
480.40 0.9552
480.50 0.9554
480.60 0.9557
480.70 0.9559
480.80 0.9562
480.90 0.9564
481.00 0.9566
481.10 0.9569
481.20 0.9571
481.30 0.9574
481.40 0.9576
481.50 0.9579
481.60 0.9581
481.70 0.9584
481.80 0.9586
481.90 0.9589
482.00 0.9591
482.10 0.9594
482.20 0.9596
482.30 0.9599
482.40 0.9601
482.50 0.9604
482.60 0.9606
482.70 0.9609
482.80 0.9611
482.90 0.9614
483.00 0.9616
483.10 0.9619
483.20 0.9621
483.30 0.9623
483.40 0.9626
483.50 0.9628
483.60 0.9631
483.70 0.9633
483.80 0.9635
483.90 0.9638
484.00 0.964
484.10 0.9642
484.20 0.9645
484.30 0.9647
484.40 0.965
484.50 0.9652
484.60 0.9655
484.70 0.9657
484.80 0.966
484.90 0.9662
485.00 0.9664
485.10 0.9667
485.20 0.9669
485.30 0.9671
485.40 0.9674
485.50 0.9677
485.60 0.9679
485.70 0.9681
485.80 0.9684
485.90 0.9686
486.00 0.9689
486.10 0.9691
486.20 0.9693
486.30 0.9695
486.40 0.9698
486.50 0.97
486.60 0.9703
486.70 0.9705
486.80 0.9707
486.90 0.971
487.00 0.9712
487.10 0.9714
487.20 0.9717
487.30 0.9719
487.40 0.9721
487.50 0.9724
487.60 0.9726
487.70 0.9729
487.80 0.9731
487.90 0.9733
488.00 0.9735
488.10 0.9738
488.20 0.974
488.30 0.9742
488.40 0.9745
488.50 0.9747
488.60 0.975
488.70 0.9752
488.80 0.9754
488.90 0.9757
489.00 0.9759
489.10 0.9761
489.20 0.9764
489.30 0.9766
489.40 0.9768
489.50 0.9771
489.60 0.9773
489.70 0.9775
489.80 0.9777
489.90 0.978
490.00 0.9782
490.10 0.9784
490.20 0.9787
490.30 0.9789
490.40 0.9791
490.50 0.9793
490.60 0.9796
490.70 0.9798
490.80 0.98
490.90 0.9802
491.00 0.9805
491.10 0.9807
491.20 0.9809
491.30 0.9811
491.40 0.9814
491.50 0.9816
491.60 0.9818
491.70 0.982
491.80 0.9823
491.90 0.9825
492.00 0.9827
492.10 0.9829
492.20 0.9832
492.30 0.9834
492.40 0.9836
492.50 0.9838
492.60 0.9841
492.70 0.9843
492.80 0.9845
492.90 0.9847
493.00 0.985
493.10 0.9852
493.20 0.9854
493.30 0.9856
493.40 0.9859
493.50 0.9861
493.60 0.9863
493.70 0.9865
493.80 0.9867
493.90 0.9869
494.00 0.9872
494.10 0.9874
494.20 0.9876
494.30 0.9878
494.40 0.988
494.50 0.9883
494.60 0.9885
494.70 0.9887
494.80 0.9889
494.90 0.9892
495.00 0.9894
495.10 0.9896
495.20 0.9898
495.30 0.99
495.40 0.9902
495.50 0.9905
495.60 0.9907
495.70 0.9909
495.80 0.9911
495.90 0.9913
496.00 0.9915
496.10 0.9917
496.20 0.9919
496.30 0.9922
496.40 0.9924
496.50 0.9926
496.60 0.9928
496.70 0.993
496.80 0.9933
496.90 0.9935
497.00 0.9937
497.10 0.9939
497.20 0.9941
497.30 0.9943
497.40 0.9946
497.50 0.9948
497.60 0.995
497.70 0.9952
497.80 0.9954
497.90 0.9956
498.00 0.9958
498.10 0.9961
498.20 0.9963
498.30 0.9965
498.40 0.9967
498.50 0.9969
498.60 0.9971
498.70 0.9973
498.80 0.9975
498.90 0.9977
499.00 0.9979
499.10 0.9981
499.20 0.9983
499.30 0.9985
499.40 0.9987
499.50 0.999
499.60 0.9992
499.70 0.9994
499.80 0.9996
499.90 0.9998
500.00 1
500.10 1
500.20 1
500.30 1.001
500.40 1.001
500.50 1.001
500.60 1.001
500.70 1.001
500.80 1.002
500.90 1.002
501.00 1.002
501.10 1.002
501.20 1.002
501.30 1.003
501.40 1.003
501.50 1.003
501.60 1.003
501.70 1.004
501.80 1.004
501.90 1.004
502.00 1.004
502.10 1.004
502.20 1.005
502.30 1.005
502.40 1.005
502.50 1.005
502.60 1.005
502.70 1.006
502.80 1.006
502.90 1.006
503.00 1.006
503.10 1.006
503.20 1.007
503.30 1.007
503.40 1.007
503.50 1.007
503.60 1.007
503.70 1.008
503.80 1.008
503.90 1.008
504.00 1.008
504.10 1.008
504.20 1.009
504.30 1.009
504.40 1.009
504.50 1.009
504.60 1.009
504.70 1.01
504.80 1.01
504.90 1.01
505.00 1.01
505.10 1.01
505.20 1.011
505.30 1.011
505.40 1.011
505.50 1.011
505.60 1.011
505.70 1.012
505.80 1.012
505.90 1.012
506.00 1.012
506.10 1.012
506.20 1.013
506.30 1.013
506.40 1.013
506.50 1.013
506.60 1.013
506.70 1.013
506.80 1.014
506.90 1.014
507.00 1.014
507.10 1.014
507.20 1.014
507.30 1.015
507.40 1.015
507.50 1.015
507.60 1.015
507.70 1.015
507.80 1.016
507.90 1.016
508.00 1.016
508.10 1.016
508.20 1.016
508.30 1.017
508.40 1.017
508.50 1.017
508.60 1.017
508.70 1.017
508.80 1.017
508.90 1.018
509.00 1.018
509.10 1.018
509.20 1.018
509.30 1.018
509.40 1.019
509.50 1.019
509.60 1.019
509.70 1.019
509.80 1.019
509.90 1.02
510.00 1.02
510.10 1.02
510.20 1.02
510.30 1.02
510.40 1.02
510.50 1.021
510.60 1.021
510.70 1.021
510.80 1.021
510.90 1.021
511.00 1.022
511.10 1.022
511.20 1.022
511.30 1.022
511.40 1.022
511.50 1.022
511.60 1.023
511.70 1.023
511.80 1.023
511.90 1.023
512.00 1.023
512.10 1.024
512.20 1.024
512.30 1.024
512.40 1.024
512.50 1.024
512.60 1.024
512.70 1.025
512.80 1.025
512.90 1.025
513.00 1.025
513.10 1.025
513.20 1.026
513.30 1.026
513.40 1.026
513.50 1.026
513.60 1.026
513.70 1.026
513.80 1.027
513.90 1.027
514.00 1.027
514.10 1.027
514.20 1.027
514.30 1.028
514.40 1.028
514.50 1.028
514.60 1.028
514.70 1.028
514.80 1.028
514.90 1.029
515.00 1.029
515.10 1.029
515.20 1.029
515.30 1.029
515.40 1.029
515.50 1.03
515.60 1.03
515.70 1.03
515.80 1.03
515.90 1.03
516.00 1.031
516.10 1.031
516.20 1.031
516.30 1.031
516.40 1.031
516.50 1.031
516.60 1.032
516.70 1.032
516.80 1.032
516.90 1.032
517.00 1.032
517.10 1.032
517.20 1.033
517.30 1.033
517.40 1.033
517.50 1.033
517.60 1.033
517.70 1.033
517.80 1.034
517.90 1.034
518.00 1.034
518.10 1.034
518.20 1.034
518.30 1.034
518.40 1.035
518.50 1.035
518.60 1.035
518.70 1.035
518.80 1.035
518.90 1.035
519.00 1.036
519.10 1.036
519.20 1.036
519.30 1.036
519.40 1.036
519.50 1.036
519.60 1.037
519.70 1.037
519.80 1.037
519.90 1.037
520.00 1.037
520.10 1.037
520.20 1.038
520.30 1.038
520.40 1.038
520.50 1.038
520.60 1.038
520.70 1.038
520.80 1.039
520.90 1.039
521.00 1.039
521.10 1.039
521.20 1.039
521.30 1.039
521.40 1.04
521.50 1.04
521.60 1.04
521.70 1.04
521.80 1.04
521.90 1.04
522.00 1.041
522.10 1.041
522.20 1.041
522.30 1.041
522.40 1.041
522.50 1.041
522.60 1.042
522.70 1.042
522.80 1.042
522.90 1.042
523.00 1.042
523.10 1.042
523.20 1.042
523.30 1.043
523.40 1.043
523.50 1.043
523.60 1.043
523.70 1.043
523.80 1.043
523.90 1.044
524.00 1.044
524.10 1.044
524.20 1.044
524.30 1.044
524.40 1.044
524.50 1.045
524.60 1.045
524.70 1.045
524.80 1.045
524.90 1.045
525.00 1.045
525.10 1.045
525.20 1.046
525.30 1.046
525.40 1.046
525.50 1.046
525.60 1.046
525.70 1.046
525.80 1.047
525.90 1.047
526.00 1.047
526.10 1.047
526.20 1.047
526.30 1.047
526.40 1.048
526.50 1.048
526.60 1.048
526.70 1.048
526.80 1.048
526.90 1.048
527.00 1.048
527.10 1.049
527.20 1.049
527.30 1.049
527.40 1.049
527.50 1.049
527.60 1.049
527.70 1.049
527.80 1.05
527.90 1.05
528.00 1.05
528.10 1.05
528.20 1.05
528.30 1.05
528.40 1.05
528.50 1.051
528.60 1.051
528.70 1.051
528.80 1.051
528.90 1.051
529.00 1.051
529.10 1.052
529.20 1.052
529.30 1.052
529.40 1.052
529.50 1.052
529.60 1.052
529.70 1.052
529.80 1.053
529.90 1.053
530.00 1.053
530.10 1.053
530.20 1.053
530.30 1.053
530.40 1.053
530.50 1.054
530.60 1.054
530.70 1.054
530.80 1.054
530.90 1.054
531.00 1.054
531.10 1.054
531.20 1.055
531.30 1.055
531.40 1.055
531.50 1.055
531.60 1.055
531.70 1.055
531.80 1.055
531.90 1.056
532.00 1.056
532.10 1.056
532.20 1.056
532.30 1.056
532.40 1.056
532.50 1.056
532.60 1.057
532.70 1.057
532.80 1.057
532.90 1.057
533.00 1.057
533.10 1.057
533.20 1.057
533.30 1.058
533.40 1.058
533.50 1.058
533.60 1.058
533.70 1.058
533.80 1.058
533.90 1.058
534.00 1.058
534.10 1.059
534.20 1.059
534.30 1.059
534.40 1.059
534.50 1.059
534.60 1.059
534.70 1.059
534.80 1.06
534.90 1.06
535.00 1.06
535.10 1.06
535.20 1.06
535.30 1.06
535.40 1.06
535.50 1.061
535.60 1.061
535.70 1.061
535.80 1.061
535.90 1.061
536.00 1.061
536.10 1.061
536.20 1.061
536.30 1.062
536.40 1.062
536.50 1.062
536.60 1.062
536.70 1.062
536.80 1.062
536.90 1.062
537.00 1.063
537.10 1.063
537.20 1.063
537.30 1.063
537.40 1.063
537.50 1.063
537.60 1.063
537.70 1.063
537.80 1.064
537.90 1.064
538.00 1.064
538.10 1.064
538.20 1.064
538.30 1.064
538.40 1.064
538.50 1.064
538.60 1.065
538.70 1.065
538.80 1.065
538.90 1.065
539.00 1.065
539.10 1.065
539.20 1.065
539.30 1.065
539.40 1.066
539.50 1.066
539.60 1.066
539.70 1.066
539.80 1.066
539.90 1.066
540.00 1.066
540.10 1.066
540.20 1.067
540.30 1.067
540.40 1.067
540.50 1.067
540.60 1.067
540.70 1.067
540.80 1.067
540.90 1.068
541.00 1.068
541.10 1.068
541.20 1.068
541.30 1.068
541.40 1.068
541.50 1.068
541.60 1.068
541.70 1.069
541.80 1.069
541.90 1.069
542.00 1.069
542.10 1.069
542.20 1.069
542.30 1.069
542.40 1.069
542.50 1.069
542.60 1.07
542.70 1.07
542.80 1.07
542.90 1.07
543.00 1.07
543.10 1.07
543.20 1.07
543.30 1.07
543.40 1.071
543.50 1.071
543.60 1.071
543.70 1.071
543.80 1.071
543.90 1.071
544.00 1.071
544.10 1.071
544.20 1.072
544.30 1.072
544.40 1.072
544.50 1.072
544.60 1.072
544.70 1.072
544.80 1.072
544.90 1.072
545.00 1.072
545.10 1.073
545.20 1.073
545.30 1.073
545.40 1.073
545.50 1.073
545.60 1.073
545.70 1.073
545.80 1.073
545.90 1.073
546.00 1.074
546.10 1.074
546.20 1.074
546.30 1.074
546.40 1.074
546.50 1.074
546.60 1.074
546.70 1.074
546.80 1.074
546.90 1.075
547.00 1.075
547.10 1.075
547.20 1.075
547.30 1.075
547.40 1.075
547.50 1.075
547.60 1.075
547.70 1.075
547.80 1.076
547.90 1.076
548.00 1.076
548.10 1.076
548.20 1.076
548.30 1.076
548.40 1.076
548.50 1.076
548.60 1.076
548.70 1.077
548.80 1.077
548.90 1.077
549.00 1.077
549.10 1.077
549.20 1.077
549.30 1.077
549.40 1.077
549.50 1.077
549.60 1.078
549.70 1.078
549.80 1.078
549.90 1.078
550.00 1.078
550.10 1.078
550.20 1.078
550.30 1.078
550.40 1.078
550.50 1.079
550.60 1.079
550.70 1.079
550.80 1.079
550.90 1.079
551.00 1.079
551.10 1.079
551.20 1.079
551.30 1.079
551.40 1.08
551.50 1.08
551.60 1.08
551.70 1.08
551.80 1.08
551.90 1.08
552.00 1.08
552.10 1.08
552.20 1.08
552.30 1.08
552.40 1.081
552.50 1.081
552.60 1.081
552.70 1.081
552.80 1.081
552.90 1.081
553.00 1.081
553.10 1.081
553.20 1.081
553.30 1.081
553.40 1.082
553.50 1.082
553.60 1.082
553.70 1.082
553.80 1.082
553.90 1.082
554.00 1.082
554.10 1.082
554.20 1.082
554.30 1.082
554.40 1.083
554.50 1.083
554.60 1.083
554.70 1.083
554.80 1.083
554.90 1.083
555.00 1.083
555.10 1.083
555.20 1.083
555.30 1.083
555.40 1.084
555.50 1.084
555.60 1.084
555.70 1.084
555.80 1.084
555.90 1.084
556.00 1.084
556.10 1.084
556.20 1.084
556.30 1.084
556.40 1.084
556.50 1.085
556.60 1.085
556.70 1.085
556.80 1.085
556.90 1.085
557.00 1.085
557.10 1.085
557.20 1.085
557.30 1.085
557.40 1.085
557.50 1.085
557.60 1.086
557.70 1.086
557.80 1.086
557.90 1.086
558.00 1.086
558.10 1.086
558.20 1.086
558.30 1.086
558.40 1.086
558.50 1.086
558.60 1.087
558.70 1.087
558.80 1.087
558.90 1.087
559.00 1.087
559.10 1.087
559.20 1.087
559.30 1.087
559.40 1.087
559.50 1.087
559.60 1.087
559.70 1.088
559.80 1.088
559.90 1.088
560.00 1.088
560.10 1.088
560.20 1.088
560.30 1.088
560.40 1.088
560.50 1.088
560.60 1.088
560.70 1.088
560.80 1.088
560.90 1.089
561.00 1.089
561.10 1.089
561.20 1.089
561.30 1.089
561.40 1.089
561.50 1.089
561.60 1.089
561.70 1.089
561.80 1.089
561.90 1.089
562.00 1.089
562.10 1.09
562.20 1.09
562.30 1.09
562.40 1.09
562.50 1.09
562.60 1.09
562.70 1.09
562.80 1.09
562.90 1.09
563.00 1.09
563.10 1.09
563.20 1.091
563.30 1.091
563.40 1.091
563.50 1.091
563.60 1.091
563.70 1.091
563.80 1.091
563.90 1.091
564.00 1.091
564.10 1.091
564.20 1.091
564.30 1.091
564.40 1.091
564.50 1.092
564.60 1.092
564.70 1.092
564.80 1.092
564.90 1.092
565.00 1.092
565.10 1.092
565.20 1.092
565.30 1.092
565.40 1.092
565.50 1.092
565.60 1.092
565.70 1.093
565.80 1.093
565.90 1.093
566.00 1.093
566.10 1.093
566.20 1.093
566.30 1.093
566.40 1.093
566.50 1.093
566.60 1.093
566.70 1.093
566.80 1.093
566.90 1.093
567.00 1.094
567.10 1.094
567.20 1.094
567.30 1.094
567.40 1.094
567.50 1.094
567.60 1.094
567.70 1.094
567.80 1.094
567.90 1.094
568.00 1.094
568.10 1.094
568.20 1.094
568.30 1.095
568.40 1.095
568.50 1.095
568.60 1.095
568.70 1.095
568.80 1.095
568.90 1.095
569.00 1.095
569.10 1.095
569.20 1.095
569.30 1.095
569.40 1.095
569.50 1.095
569.60 1.095
569.70 1.096
569.80 1.096
569.90 1.096
570.00 1.096
570.10 1.096
570.20 1.096
570.30 1.096
570.40 1.096
570.50 1.096
570.60 1.096
570.70 1.096
570.80 1.096
570.90 1.096
571.00 1.096
571.10 1.097
571.20 1.097
571.30 1.097
571.40 1.097
571.50 1.097
571.60 1.097
571.70 1.097
571.80 1.097
571.90 1.097
572.00 1.097
572.10 1.097
572.20 1.097
572.30 1.097
572.40 1.097
572.50 1.097
572.60 1.098
572.70 1.098
572.80 1.098
572.90 1.098
573.00 1.098
573.10 1.098
573.20 1.098
573.30 1.098
573.40 1.098
573.50 1.098
573.60 1.098
573.70 1.098
573.80 1.098
573.90 1.098
574.00 1.098
574.10 1.099
574.20 1.099
574.30 1.099
574.40 1.099
574.50 1.099
574.60 1.099
574.70 1.099
574.80 1.099
574.90 1.099
575.00 1.099
575.10 1.099
575.20 1.099
575.30 1.099
575.40 1.099
575.50 1.099
575.60 1.1
575.70 1.1
575.80 1.1
575.90 1.1
576.00 1.1
576.10 1.1
576.20 1.1
576.30 1.1
576.40 1.1
576.50 1.1
576.60 1.1
576.70 1.1
576.80 1.1
576.90 1.1
577.00 1.1
577.10 1.1
577.20 1.1
577.30 1.101
577.40 1.101
577.50 1.101
577.60 1.101
577.70 1.101
577.80 1.101
577.90 1.101
578.00 1.101
578.10 1.101
578.20 1.101
578.30 1.101
578.40 1.101
578.50 1.101
578.60 1.101
578.70 1.101
578.80 1.101
578.90 1.101
579.00 1.102
579.10 1.102
579.20 1.102
579.30 1.102
579.40 1.102
579.50 1.102
579.60 1.102
579.70 1.102
579.80 1.102
579.90 1.102
580.00 1.102
580.10 1.102
580.20 1.102
580.30 1.102
580.40 1.102
580.50 1.102
580.60 1.102
580.70 1.102
580.80 1.102
580.90 1.103
581.00 1.103
581.10 1.103
581.20 1.103
581.30 1.103
581.40 1.103
581.50 1.103
581.60 1.103
581.70 1.103
581.80 1.103
581.90 1.103
582.00 1.103
582.10 1.103
582.20 1.103
582.30 1.103
582.40 1.103
582.50 1.103
582.60 1.103
582.70 1.103
582.80 1.104
582.90 1.104
583.00 1.104
583.10 1.104
583.20 1.104
583.30 1.104
583.40 1.104
583.50 1.104
583.60 1.104
583.70 1.104
583.80 1.104
583.90 1.104
584.00 1.104
584.10 1.104
584.20 1.104
584.30 1.104
584.40 1.104
584.50 1.104
584.60 1.104
584.70 1.104
584.80 1.105
584.90 1.105
585.00 1.105
585.10 1.105
585.20 1.105
585.30 1.105
585.40 1.105
585.50 1.105
585.60 1.105
585.70 1.105
585.80 1.105
585.90 1.105
586.00 1.105
586.10 1.105
586.20 1.105
586.30 1.105
586.40 1.105
586.50 1.105
586.60 1.105
586.70 1.105
586.80 1.105
586.90 1.105
587.00 1.106
587.10 1.106
587.20 1.106
587.30 1.106
587.40 1.106
587.50 1.106
587.60 1.106
587.70 1.106
587.80 1.106
587.90 1.106
588.00 1.106
588.10 1.106
588.20 1.106
588.30 1.106
588.40 1.106
588.50 1.106
588.60 1.106
588.70 1.106
588.80 1.106
588.90 1.106
589.00 1.106
589.10 1.106
589.20 1.106
589.30 1.106
589.40 1.107
589.50 1.107
589.60 1.107
589.70 1.107
589.80 1.107
589.90 1.107
590.00 1.107
590.10 1.107
590.20 1.107
590.30 1.107
590.40 1.107
590.50 1.107
590.60 1.107
590.70 1.107
590.80 1.107
590.90 1.107
591.00 1.107
591.10 1.107
591.20 1.107
591.30 1.107
591.40 1.107
591.50 1.107
591.60 1.107
591.70 1.107
591.80 1.107
591.90 1.107
592.00 1.107
592.10 1.108
592.20 1.108
592.30 1.108
592.40 1.108
592.50 1.108
592.60 1.108
592.70 1.108
592.80 1.108
592.90 1.108
593.00 1.108
593.10 1.108
593.20 1.108
593.30 1.108
593.40 1.108
593.50 1.108
593.60 1.108
593.70 1.108
593.80 1.108
593.90 1.108
594.00 1.108
594.10 1.108
594.20 1.108
594.30 1.108
594.40 1.108
594.50 1.108
594.60 1.108
594.70 1.108
594.80 1.108
594.90 1.108
595.00 1.109
595.10 1.109
595.20 1.109
595.30 1.109
595.40 1.109
595.50 1.109
595.60 1.109
595.70 1.109
595.80 1.109
595.90 1.109
596.00 1.109
596.10 1.109
596.20 1.109
596.30 1.109
596.40 1.109
596.50 1.109
596.60 1.109
596.70 1.109
596.80 1.109
596.90 1.109
597.00 1.109
597.10 1.109
597.20 1.109
597.30 1.109
597.40 1.109
597.50 1.109
597.60 1.109
597.70 1.109
597.80 1.109
597.90 1.109
598.00 1.109
598.10 1.109
598.20 1.109
598.30 1.109
598.40 1.109
598.50 1.11
598.60 1.11
598.70 1.11
598.80 1.11
598.90 1.11
599.00 1.11
599.10 1.11
599.20 1.11
599.30 1.11
599.40 1.11
599.50 1.11
599.60 1.11
599.70 1.11
599.80 1.11
599.90 1.11
600.00 1.11
600.10 1.11
600.20 1.11
600.30 1.11
600.40 1.11
600.50 1.11
600.60 1.11
600.70 1.11
600.80 1.11
600.90 1.11
601.00 1.11
601.10 1.11
601.20 1.11
601.30 1.11
601.40 1.11
601.50 1.11
601.60 1.11
601.70 1.11
601.80 1.11
601.90 1.11
602.00 1.11
602.10 1.11
602.20 1.11
602.30 1.11
602.40 1.11
602.50 1.11
602.60 1.11
602.70 1.11
602.80 1.111
602.90 1.111
603.00 1.111
603.10 1.111
603.20 1.111
603.30 1.111
603.40 1.111
603.50 1.111
603.60 1.111
603.70 1.111
603.80 1.111
603.90 1.111
604.00 1.111
604.10 1.111
604.20 1.111
604.30 1.111
604.40 1.111
604.50 1.111
604.60 1.111
604.70 1.111
604.80 1.111
604.90 1.111
605.00 1.111
605.10 1.111
605.20 1.111
605.30 1.111
605.40 1.111
605.50 1.111
605.60 1.111
605.70 1.111
605.80 1.111
605.90 1.111
606.00 1.111
606.10 1.111
606.20 1.111
606.30 1.111
606.40 1.111
606.50 1.111
606.60 1.111
606.70 1.111
606.80 1.111
606.90 1.111
607.00 1.111
607.10 1.111
607.20 1.111
607.30 1.111
607.40 1.111
607.50 1.111
607.60 1.111
607.70 1.111
607.80 1.111
607.90 1.111
608.00 1.111
608.10 1.111
608.20 1.111
608.30 1.111
608.40 1.111
608.50 1.111
608.60 1.111
608.70 1.111
608.80 1.111
608.90 1.111
609.00 1.111
609.10 1.111
609.20 1.111
609.30 1.112
609.40 1.112
609.50 1.112
609.60 1.112
609.70 1.112
609.80 1.112
609.90 1.112
610.00 1.112
610.10 1.112
610.20 1.112
610.30 1.112
610.40 1.112
610.50 1.112
610.60 1.112
610.70 1.112
610.80 1.112
610.90 1.112
611.00 1.112
611.10 1.112
611.20 1.112
611.30 1.112
611.40 1.112
611.50 1.112
611.60 1.112
611.70 1.112
611.80 1.112
611.90 1.112
612.00 1.112
612.10 1.112
612.20 1.112
612.30 1.112
612.40 1.112
612.50 1.112
612.60 1.112
612.70 1.112
612.80 1.112
612.90 1.112
613.00 1.112
613.10 1.112
613.20 1.112
613.30 1.112
613.40 1.112
613.50 1.112
613.60 1.112
613.70 1.112
613.80 1.112
613.90 1.112
614.00 1.112
614.10 1.112
614.20 1.112
614.30 1.112
614.40 1.112
614.50 1.112
614.60 1.112
614.70 1.112
614.80 1.112
614.90 1.112
615.00 1.112
615.10 1.112
615.20 1.112
615.30 1.112
615.40 1.112
615.50 1.112
615.60 1.112
615.70 1.112
615.80 1.112
615.90 1.112
616.00 1.112
616.10 1.112
616.20 1.112
616.30 1.112
616.40 1.112
616.50 1.112
616.60 1.112
616.70 1.112
616.80 1.112
616.90 1.112
617.00 1.112
617.10 1.112
617.20 1.112
617.30 1.112
617.40 1.112
617.50 1.112
617.60 1.112
617.70 1.112
617.80 1.112
617.90 1.112
618.00 1.112
618.10 1.112
618.20 1.112
618.30 1.112
618.40 1.112
618.50 1.112
618.60 1.112
618.70 1.112
618.80 1.112
618.90 1.112
619.00 1.112
619.10 1.112
619.20 1.112
619.30 1.112
619.40 1.112
619.50 1.112
619.60 1.112
619.70 1.112
619.80 1.112
619.90 1.112
620.00 1.112
620.10 1.112
620.20 1.112
620.30 1.112
620.40 1.112
620.50 1.112
620.60 1.112
620.70 1.112
620.80 1.112
620.90 1.112
621.00 1.112
621.10 1.112
621.20 1.112
621.30 1.112
621.40 1.112
621.50 1.112
621.60 1.112
621.70 1.112
621.80 1.112
621.90 1.112
622.00 1.112
622.10 1.112
622.20 1.112
622.30 1.112
622.40 1.112
622.50 1.112
622.60 1.112
622.70 1.112
622.80 1.112
622.90 1.112
623.00 1.112
623.10 1.112
623.20 1.112
623.30 1.112
623.40 1.112
623.50 1.112
623.60 1.112
623.70 1.112
623.80 1.112
623.90 1.112
624.00 1.112
624.10 1.112
624.20 1.112
624.30 1.112
624.40 1.112
624.50 1.112
624.60 1.112
624.70 1.112
624.80 1.112
624.90 1.112
625.00 1.112
625.10 1.112
625.20 1.112
625.30 1.112
625.40 1.112
625.50 1.112
625.60 1.112
625.70 1.112
625.80 1.111
625.90 1.111
626.00 1.111
626.10 1.111
626.20 1.111
626.30 1.111
626.40 1.111
626.50 1.111
626.60 1.111
626.70 1.111
626.80 1.111
626.90 1.111
627.00 1.111
627.10 1.111
627.20 1.111
627.30 1.111
627.40 1.111
627.50 1.111
627.60 1.111
627.70 1.111
627.80 1.111
627.90 1.111
628.00 1.111
628.10 1.111
628.20 1.111
628.30 1.111
628.40 1.111
628.50 1.111
628.60 1.111
628.70 1.111
628.80 1.111
628.90 1.111
629.00 1.111
629.10 1.111
629.20 1.111
629.30 1.111
629.40 1.111
629.50 1.111
629.60 1.111
629.70 1.111
629.80 1.111
629.90 1.111
630.00 1.111
630.10 1.111
630.20 1.111
630.30 1.111
630.40 1.111
630.50 1.111
630.60 1.111
630.70 1.111
630.80 1.111
630.90 1.111
631.00 1.111
631.10 1.111
631.20 1.111
631.30 1.111
631.40 1.111
631.50 1.111
631.60 1.111
631.70 1.111
631.80 1.111
631.90 1.111
632.00 1.111
632.10 1.111
632.20 1.111
632.30 1.111
632.40 1.11
632.50 1.11
632.60 1.11
632.70 1.11
632.80 1.11
632.90 1.11
633.00 1.11
633.10 1.11
633.20 1.11
633.30 1.11
633.40 1.11
633.50 1.11
633.60 1.11
633.70 1.11
633.80 1.11
633.90 1.11
634.00 1.11
634.10 1.11
634.20 1.11
634.30 1.11
634.40 1.11
634.50 1.11
634.60 1.11
634.70 1.11
634.80 1.11
634.90 1.11
635.00 1.11
635.10 1.11
635.20 1.11
635.30 1.11
635.40 1.11
635.50 1.11
635.60 1.11
635.70 1.11
635.80 1.11
635.90 1.11
636.00 1.11
636.10 1.11
636.20 1.11
636.30 1.11
636.40 1.11
636.50 1.11
636.60 1.11
636.70 1.11
636.80 1.11
636.90 1.11
637.00 1.11
637.10 1.109
637.20 1.109
637.30 1.109
637.40 1.109
637.50 1.109
637.60 1.109
637.70 1.109
637.80 1.109
637.90 1.109
638.00 1.109
638.10 1.109
638.20 1.109
638.30 1.109
638.40 1.109
638.50 1.109
638.60 1.109
638.70 1.109
638.80 1.109
638.90 1.109
639.00 1.109
639.10 1.109
639.20 1.109
639.30 1.109
639.40 1.109
639.50 1.109
639.60 1.109
639.70 1.109
639.80 1.109
639.90 1.109
640.00 1.109
640.10 1.109
640.20 1.109
640.30 1.109
640.40 1.109
640.50 1.109
640.60 1.109
640.70 1.109
640.80 1.108
640.90 1.108
641.00 1.108
641.10 1.108
641.20 1.108
641.30 1.108
641.40 1.108
641.50 1.108
641.60 1.108
641.70 1.108
641.80 1.108
641.90 1.108
642.00 1.108
642.10 1.108
642.20 1.108
642.30 1.108
642.40 1.108
642.50 1.108
642.60 1.108
642.70 1.108
642.80 1.108
642.90 1.108
643.00 1.108
643.10 1.108
643.20 1.108
643.30 1.108
643.40 1.108
643.50 1.108
643.60 1.108
643.70 1.108
643.80 1.108
643.90 1.108
644.00 1.107
644.10 1.107
644.20 1.107
644.30 1.107
644.40 1.107
644.50 1.107
644.60 1.107
644.70 1.107
644.80 1.107
644.90 1.107
645.00 1.107
645.10 1.107
645.20 1.107
645.30 1.107
645.40 1.107
645.50 1.107
645.60 1.107
645.70 1.107
645.80 1.107
645.90 1.107
646.00 1.107
646.10 1.107
646.20 1.107
646.30 1.107
646.40 1.107
646.50 1.107
646.60 1.107
646.70 1.107
646.80 1.107
646.90 1.107
647.00 1.106
647.10 1.106
647.20 1.106
647.30 1.106
647.40 1.106
647.50 1.106
647.60 1.106
647.70 1.106
647.80 1.106
647.90 1.106
648.00 1.106
648.10 1.106
648.20 1.106
648.30 1.106
648.40 1.106
648.50 1.106
648.60 1.106
648.70 1.106
648.80 1.106
648.90 1.106
649.00 1.106
649.10 1.106
649.20 1.106
649.30 1.106
649.40 1.106
649.50 1.106
649.60 1.105
649.70 1.105
649.80 1.105
649.90 1.105
650.00 1.105
650.10 1.105
650.20 1.105
650.30 1.105
650.40 1.105
650.50 1.105
650.60 1.105
650.70 1.105
650.80 1.105
650.90 1.105
651.00 1.105
651.10 1.105
651.20 1.105
651.30 1.105
651.40 1.105
651.50 1.105
651.60 1.105
651.70 1.105
651.80 1.105
651.90 1.105
652.00 1.105
652.10 1.104
652.20 1.104
652.30 1.104
652.40 1.104
652.50 1.104
652.60 1.104
652.70 1.104
652.80 1.104
652.90 1.104
653.00 1.104
653.10 1.104
653.20 1.104
653.30 1.104
653.40 1.104
653.50 1.104
653.60 1.104
653.70 1.104
653.80 1.104
653.90 1.104
654.00 1.104
654.10 1.104
654.20 1.104
654.30 1.104
654.40 1.103
654.50 1.103
654.60 1.103
654.70 1.103
654.80 1.103
654.90 1.103
655.00 1.103
655.10 1.103
655.20 1.103
655.30 1.103
655.40 1.103
655.50 1.103
655.60 1.103
655.70 1.103
655.80 1.103
655.90 1.103
656.00 1.103
656.10 1.103
656.20 1.103
656.30 1.103
656.40 1.103
656.50 1.102
656.60 1.102
656.70 1.102
656.80 1.102
656.90 1.102
657.00 1.102
657.10 1.102
657.20 1.102
657.30 1.102
657.40 1.102
657.50 1.102
657.60 1.102
657.70 1.102
657.80 1.102
657.90 1.102
658.00 1.102
658.10 1.102
658.20 1.102
658.30 1.102
658.40 1.102
658.50 1.102
658.60 1.102
658.70 1.101
658.80 1.101
658.90 1.101
659.00 1.101
659.10 1.101
659.20 1.101
659.30 1.101
659.40 1.101
659.50 1.101
659.60 1.101
659.70 1.101
659.80 1.101
659.90 1.101
660.00 1.101
660.10 1.101
660.20 1.101
660.30 1.101
660.40 1.101
660.50 1.101
660.60 1.101
660.70 1.1
660.80 1.1
660.90 1.1
661.00 1.1
661.10 1.1
661.20 1.1
661.30 1.1
661.40 1.1
661.50 1.1
661.60 1.1
661.70 1.1
661.80 1.1
661.90 1.1
662.00 1.1
662.10 1.1
662.20 1.1
662.30 1.1
662.40 1.1
662.50 1.1
662.60 1.099
662.70 1.099
662.80 1.099
662.90 1.099
663.00 1.099
663.10 1.099
663.20 1.099
663.30 1.099
663.40 1.099
663.50 1.099
663.60 1.099
663.70 1.099
663.80 1.099
663.90 1.099
664.00 1.099
664.10 1.099
664.20 1.099
664.30 1.099
664.40 1.099
664.50 1.098
664.60 1.098
664.70 1.098
664.80 1.098
664.90 1.098
665.00 1.098
665.10 1.098
665.20 1.098
665.30 1.098
665.40 1.098
665.50 1.098
665.60 1.098
665.70 1.098
665.80 1.098
665.90 1.098
666.00 1.098
666.10 1.098
666.20 1.098
666.30 1.097
666.40 1.097
666.50 1.097
666.60 1.097
666.70 1.097
666.80 1.097
666.90 1.097
667.00 1.097
667.10 1.097
667.20 1.097
667.30 1.097
667.40 1.097
667.50 1.097
667.60 1.097
667.70 1.097
667.80 1.097
667.90 1.097
668.00 1.097
668.10 1.096
668.20 1.096
668.30 1.096
668.40 1.096
668.50 1.096
668.60 1.096
668.70 1.096
668.80 1.096
668.90 1.096
669.00 1.096
669.10 1.096
669.20 1.096
669.30 1.096
669.40 1.096
669.50 1.096
669.60 1.096
669.70 1.096
669.80 1.095
669.90 1.095
670.00 1.095
670.10 1.095
670.20 1.095
670.30 1.095
670.40 1.095
670.50 1.095
670.60 1.095
670.70 1.095
670.80 1.095
670.90 1.095
671.00 1.095
671.10 1.095
671.20 1.095
671.30 1.095
671.40 1.094
671.50 1.094
671.60 1.094
671.70 1.094
671.80 1.094
671.90 1.094
672.00 1.094
672.10 1.094
672.20 1.094
672.30 1.094
672.40 1.094
672.50 1.094
672.60 1.094
672.70 1.094
672.80 1.094
672.90 1.094
673.00 1.093
673.10 1.093
673.20 1.093
673.30 1.093
673.40 1.093
673.50 1.093
673.60 1.093
673.70 1.093
673.80 1.093
673.90 1.093
674.00 1.093
674.10 1.093
674.20 1.093
674.30 1.093
674.40 1.093
674.50 1.093
674.60 1.092
674.70 1.092
674.80 1.092
674.90 1.092
675.00 1.092
675.10 1.092
675.20 1.092
675.30 1.092
675.40 1.092
675.50 1.092
675.60 1.092
675.70 1.092
675.80 1.092
675.90 1.092
676.00 1.092
676.10 1.091
676.20 1.091
676.30 1.091
676.40 1.091
676.50 1.091
676.60 1.091
676.70 1.091
676.80 1.091
676.90 1.091
677.00 1.091
677.10 1.091
677.20 1.091
677.30 1.091
677.40 1.091
677.50 1.09
677.60 1.09
677.70 1.09
677.80 1.09
677.90 1.09
678.00 1.09
678.10 1.09
678.20 1.09
678.30 1.09
678.40 1.09
678.50 1.09
678.60 1.09
678.70 1.09
678.80 1.09
678.90 1.09
679.00 1.089
679.10 1.089
679.20 1.089
679.30 1.089
679.40 1.089
679.50 1.089
679.60 1.089
679.70 1.089
679.80 1.089
679.90 1.089
680.00 1.089
680.10 1.089
680.20 1.089
680.30 1.089
680.40 1.089
680.50 1.088
680.60 1.088
680.70 1.088
680.80 1.088
680.90 1.088
681.00 1.088
681.10 1.088
681.20 1.088
681.30 1.088
681.40 1.088
681.50 1.088
681.60 1.088
681.70 1.088
681.80 1.087
681.90 1.087
682.00 1.087
682.10 1.087
682.20 1.087
682.30 1.087
682.40 1.087
682.50 1.087
682.60 1.087
682.70 1.087
682.80 1.087
682.90 1.087
683.00 1.087
683.10 1.087
683.20 1.086
683.30 1.086
683.40 1.086
683.50 1.086
683.60 1.086
683.70 1.086
683.80 1.086
683.90 1.086
684.00 1.086
684.10 1.086
684.20 1.086
684.30 1.086
684.40 1.086
684.50 1.085
684.60 1.085
684.70 1.085
684.80 1.085
684.90 1.085
685.00 1.085
685.10 1.085
685.20 1.085
685.30 1.085
685.40 1.085
685.50 1.085
685.60 1.085
685.70 1.085
685.80 1.085
685.90 1.084
686.00 1.084
686.10 1.084
686.20 1.084
686.30 1.084
686.40 1.084
686.50 1.084
686.60 1.084
686.70 1.084
686.80 1.084
686.90 1.084
687.00 1.084
687.10 1.084
687.20 1.083
687.30 1.083
687.40 1.083
687.50 1.083
687.60 1.083
687.70 1.083
687.80 1.083
687.90 1.083
688.00 1.083
688.10 1.083
688.20 1.083
688.30 1.083
688.40 1.083
688.50 1.082
688.60 1.082
688.70 1.082
688.80 1.082
688.90 1.082
689.00 1.082
689.10 1.082
689.20 1.082
689.30 1.082
689.40 1.082
689.50 1.082
689.60 1.082
689.70 1.081
689.80 1.081
689.90 1.081
690.00 1.081
690.10 1.081
690.20 1.081
690.30 1.081
690.40 1.081
690.50 1.081
690.60 1.081
690.70 1.081
690.80 1.081
690.90 1.08
691.00 1.08
691.10 1.08
691.20 1.08
691.30 1.08
691.40 1.08
691.50 1.08
691.60 1.08
691.70 1.08
691.80 1.08
691.90 1.08
692.00 1.08
692.10 1.079
692.20 1.079
692.30 1.079
692.40 1.079
692.50 1.079
692.60 1.079
692.70 1.079
692.80 1.079
692.90 1.079
693.00 1.079
693.10 1.079
693.20 1.079
693.30 1.078
693.40 1.078
693.50 1.078
693.60 1.078
693.70 1.078
693.80 1.078
693.90 1.078
694.00 1.078
694.10 1.078
694.20 1.078
694.30 1.078
694.40 1.078
694.50 1.077
694.60 1.077
694.70 1.077
694.80 1.077
694.90 1.077
695.00 1.077
695.10 1.077
695.20 1.077
695.30 1.077
695.40 1.077
695.50 1.077
695.60 1.077
695.70 1.076
695.80 1.076
695.90 1.076
696.00 1.076
696.10 1.076
696.20 1.076
696.30 1.076
696.40 1.076
696.50 1.076
696.60 1.076
696.70 1.076
696.80 1.075
696.90 1.075
697.00 1.075
697.10 1.075
697.20 1.075
697.30 1.075
697.40 1.075
697.50 1.075
697.60 1.075
697.70 1.075
697.80 1.075
697.90 1.075
698.00 1.074
698.10 1.074
698.20 1.074
698.30 1.074
698.40 1.074
698.50 1.074
698.60 1.074
698.70 1.074
698.80 1.074
698.90 1.074
699.00 1.074
699.10 1.073
699.20 1.073
699.30 1.073
699.40 1.073
699.50 1.073
699.60 1.073
699.70 1.073
699.80 1.073
699.90 1.073
700.00 1.073
700.10 1.073
700.20 1.073
700.30 1.072
700.40 1.072
700.50 1.072
700.60 1.072
700.70 1.072
700.80 1.072
700.90 1.072
701.00 1.072
701.10 1.072
701.20 1.072
701.30 1.071
701.40 1.071
701.50 1.071
701.60 1.071
701.70 1.071
701.80 1.071
701.90 1.071
702.00 1.071
702.10 1.071
702.20 1.071
702.30 1.071
702.40 1.07
702.50 1.07
702.60 1.07
702.70 1.07
702.80 1.07
702.90 1.07
703.00 1.07
703.10 1.07
703.20 1.07
703.30 1.07
703.40 1.07
703.50 1.069
703.60 1.069
703.70 1.069
703.80 1.069
703.90 1.069
704.00 1.069
704.10 1.069
704.20 1.069
704.30 1.069
704.40 1.069
704.50 1.069
704.60 1.068
704.70 1.068
704.80 1.068
704.90 1.068
705.00 1.068
705.10 1.068
705.20 1.068
705.30 1.068
705.40 1.068
705.50 1.068
705.60 1.067
705.70 1.067
705.80 1.067
705.90 1.067
706.00 1.067
706.10 1.067
706.20 1.067
706.30 1.067
706.40 1.067
706.50 1.067
706.60 1.067
706.70 1.066
706.80 1.066
706.90 1.066
707.00 1.066
707.10 1.066
707.20 1.066
707.30 1.066
707.40 1.066
707.50 1.066
707.60 1.066
707.70 1.065
707.80 1.065
707.90 1.065
708.00 1.065
708.10 1.065
708.20 1.065
708.30 1.065
708.40 1.065
708.50 1.065
708.60 1.065
708.70 1.064
708.80 1.064
708.90 1.064
709.00 1.064
709.10 1.064
709.20 1.064
709.30 1.064
709.40 1.064
709.50 1.064
709.60 1.064
709.70 1.064
709.80 1.063
709.90 1.063
710.00 1.063
710.10 1.063
710.20 1.063
710.30 1.063
710.40 1.063
710.50 1.063
710.60 1.063
710.70 1.063
710.80 1.062
710.90 1.062
711.00 1.062
711.10 1.062
711.20 1.062
711.30 1.062
711.40 1.062
711.50 1.062
711.60 1.062
711.70 1.062
711.80 1.061
711.90 1.061
712.00 1.061
712.10 1.061
712.20 1.061
712.30 1.061
712.40 1.061
712.50 1.061
712.60 1.061
712.70 1.061
712.80 1.06
712.90 1.06
713.00 1.06
713.10 1.06
713.20 1.06
713.30 1.06
713.40 1.06
713.50 1.06
713.60 1.06
713.70 1.06
713.80 1.059
713.90 1.059
714.00 1.059
714.10 1.059
714.20 1.059
714.30 1.059
714.40 1.059
714.50 1.059
714.60 1.059
714.70 1.059
714.80 1.058
714.90 1.058
715.00 1.058
715.10 1.058
715.20 1.058
715.30 1.058
715.40 1.058
715.50 1.058
715.60 1.058
715.70 1.057
715.80 1.057
715.90 1.057
716.00 1.057
716.10 1.057
716.20 1.057
716.30 1.057
716.40 1.057
716.50 1.057
716.60 1.057
716.70 1.056
716.80 1.056
716.90 1.056
717.00 1.056
717.10 1.056
717.20 1.056
717.30 1.056
717.40 1.056
717.50 1.056
717.60 1.055
717.70 1.055
717.80 1.055
717.90 1.055
718.00 1.055
718.10 1.055
718.20 1.055
718.30 1.055
718.40 1.055
718.50 1.055
718.60 1.054
718.70 1.054
718.80 1.054
718.90 1.054
719.00 1.054
719.10 1.054
719.20 1.054
719.30 1.054
719.40 1.054
719.50 1.053
719.60 1.053
719.70 1.053
719.80 1.053
719.90 1.053
720.00 1.053
720.10 1.053
720.20 1.053
720.30 1.053
720.40 1.053
720.50 1.052
720.60 1.052
720.70 1.052
720.80 1.052
720.90 1.052
721.00 1.052
721.10 1.052
721.20 1.052
721.30 1.052
721.40 1.051
721.50 1.051
721.60 1.051
721.70 1.051
721.80 1.051
721.90 1.051
722.00 1.051
722.10 1.051
722.20 1.051
722.30 1.05
722.40 1.05
722.50 1.05
722.60 1.05
722.70 1.05
722.80 1.05
722.90 1.05
723.00 1.05
723.10 1.05
723.20 1.05
723.30 1.049
723.40 1.049
723.50 1.049
723.60 1.049
723.70 1.049
723.80 1.049
723.90 1.049
724.00 1.049
724.10 1.049
724.20 1.048
724.30 1.048
724.40 1.048
724.50 1.048
724.60 1.048
724.70 1.048
724.80 1.048
724.90 1.048
725.00 1.048
725.10 1.047
725.20 1.047
725.30 1.047
725.40 1.047
725.50 1.047
725.60 1.047
725.70 1.047
725.80 1.047
725.90 1.047
726.00 1.046
726.10 1.046
726.20 1.046
726.30 1.046
726.40 1.046
726.50 1.046
726.60 1.046
726.70 1.046
726.80 1.046
726.90 1.045
727.00 1.045
727.10 1.045
727.20 1.045
727.30 1.045
727.40 1.045
727.50 1.045
727.60 1.045
727.70 1.045
727.80 1.044
727.90 1.044
728.00 1.044
728.10 1.044
728.20 1.044
728.30 1.044
728.40 1.044
728.50 1.044
728.60 1.044
728.70 1.043
728.80 1.043
728.90 1.043
729.00 1.043
729.10 1.043
729.20 1.043
729.30 1.043
729.40 1.043
729.50 1.043
729.60 1.043
729.70 1.042
729.80 1.042
729.90 1.042
730.00 1.042
730.10 1.042
730.20 1.042
730.30 1.042
730.40 1.042
730.50 1.041
730.60 1.041
730.70 1.041
730.80 1.041
730.90 1.041
731.00 1.041
731.10 1.041
731.20 1.041
731.30 1.041
731.40 1.04
731.50 1.04
731.60 1.04
731.70 1.04
731.80 1.04
731.90 1.04
732.00 1.04
732.10 1.04
732.20 1.04
732.30 1.039
732.40 1.039
732.50 1.039
732.60 1.039
732.70 1.039
732.80 1.039
732.90 1.039
733.00 1.039
733.10 1.039
733.20 1.038
733.30 1.038
733.40 1.038
733.50 1.038
733.60 1.038
733.70 1.038
733.80 1.038
733.90 1.038
734.00 1.038
734.10 1.037
734.20 1.037
734.30 1.037
734.40 1.037
734.50 1.037
734.60 1.037
734.70 1.037
734.80 1.037
734.90 1.036
735.00 1.036
735.10 1.036
735.20 1.036
735.30 1.036
735.40 1.036
735.50 1.036
735.60 1.036
735.70 1.036
735.80 1.035
735.90 1.035
736.00 1.035
736.10 1.035
736.20 1.035
736.30 1.035
736.40 1.035
736.50 1.035
736.60 1.035
736.70 1.034
736.80 1.034
736.90 1.034
737.00 1.034
737.10 1.034
737.20 1.034
737.30 1.034
737.40 1.034
737.50 1.034
737.60 1.033
737.70 1.033
737.80 1.033
737.90 1.033
738.00 1.033
738.10 1.033
738.20 1.033
738.30 1.033
738.40 1.033
738.50 1.032
738.60 1.032
738.70 1.032
738.80 1.032
738.90 1.032
739.00 1.032
739.10 1.032
739.20 1.032
739.30 1.032
739.40 1.031
739.50 1.031
739.60 1.031
739.70 1.031
739.80 1.031
739.90 1.031
740.00 1.031
740.10 1.031
740.20 1.031
740.30 1.03
740.40 1.03
740.50 1.03
740.60 1.03
740.70 1.03
740.80 1.03
740.90 1.03
741.00 1.03
741.10 1.029
741.20 1.029
741.30 1.029
741.40 1.029
741.50 1.029
741.60 1.029
741.70 1.029
741.80 1.029
741.90 1.029
742.00 1.028
742.10 1.028
742.20 1.028
742.30 1.028
742.40 1.028
742.50 1.028
742.60 1.028
742.70 1.028
742.80 1.027
742.90 1.027
743.00 1.027
743.10 1.027
743.20 1.027
743.30 1.027
743.40 1.027
743.50 1.027
743.60 1.027
743.70 1.026
743.80 1.026
743.90 1.026
744.00 1.026
744.10 1.026
744.20 1.026
744.30 1.026
744.40 1.026
744.50 1.025
744.60 1.025
744.70 1.025
744.80 1.025
744.90 1.025
745.00 1.025
745.10 1.025
745.20 1.025
745.30 1.025
745.40 1.024
745.50 1.024
745.60 1.024
745.70 1.024
745.80 1.024
745.90 1.024
746.00 1.024
746.10 1.024
746.20 1.024
746.30 1.023
746.40 1.023
746.50 1.023
746.60 1.023
746.70 1.023
746.80 1.023
746.90 1.023
747.00 1.023
747.10 1.022
747.20 1.022
747.30 1.022
747.40 1.022
747.50 1.022
747.60 1.022
747.70 1.022
747.80 1.022
747.90 1.022
748.00 1.021
748.10 1.021
748.20 1.021
748.30 1.021
748.40 1.021
748.50 1.021
748.60 1.021
748.70 1.021
748.80 1.021
748.90 1.02
749.00 1.02
749.10 1.02
749.20 1.02
749.30 1.02
749.40 1.02
749.50 1.02
749.60 1.02
749.70 1.019
749.80 1.019
749.90 1.019
750.00 1.019
750.10 1.019
750.20 1.019
750.30 1.019
750.40 1.019
750.50 1.019
750.60 1.018
750.70 1.018
750.80 1.018
750.90 1.018
751.00 1.018
751.10 1.018
751.20 1.018
751.30 1.018
751.40 1.017
751.50 1.017
751.60 1.017
751.70 1.017
751.80 1.017
751.90 1.017
752.00 1.017
752.10 1.017
752.20 1.016
752.30 1.016
752.40 1.016
752.50 1.016
752.60 1.016
752.70 1.016
752.80 1.016
752.90 1.016
753.00 1.016
753.10 1.015
753.20 1.015
753.30 1.015
753.40 1.015
753.50 1.015
753.60 1.015
753.70 1.015
753.80 1.015
753.90 1.014
754.00 1.014
754.10 1.014
754.20 1.014
754.30 1.014
754.40 1.014
754.50 1.014
754.60 1.014
754.70 1.014
754.80 1.013
754.90 1.013
755.00 1.013
755.10 1.013
755.20 1.013
755.30 1.013
755.40 1.013
755.50 1.013
755.60 1.012
755.70 1.012
755.80 1.012
755.90 1.012
756.00 1.012
756.10 1.012
756.20 1.012
756.30 1.012
756.40 1.012
756.50 1.011
756.60 1.011
756.70 1.011
756.80 1.011
756.90 1.011
757.00 1.011
757.10 1.011
757.20 1.011
757.30 1.01
757.40 1.01
757.50 1.01
757.60 1.01
757.70 1.01
757.80 1.01
757.90 1.01
758.00 1.01
758.10 1.01
758.20 1.009
758.30 1.009
758.40 1.009
758.50 1.009
758.60 1.009
758.70 1.009
758.80 1.009
758.90 1.009
759.00 1.008
759.10 1.008
759.20 1.008
759.30 1.008
759.40 1.008
759.50 1.008
759.60 1.008
759.70 1.008
759.80 1.008
759.90 1.007
760.00 1.007
760.10 1.007
760.20 1.007
760.30 1.007
760.40 1.007
760.50 1.007
760.60 1.007
760.70 1.006
760.80 1.006
760.90 1.006
761.00 1.006
761.10 1.006
761.20 1.006
761.30 1.006
761.40 1.006
761.50 1.005
761.60 1.005
761.70 1.005
761.80 1.005
761.90 1.005
762.00 1.005
762.10 1.005
762.20 1.005
762.30 1.004
762.40 1.004
762.50 1.004
762.60 1.004
762.70 1.004
762.80 1.004
762.90 1.004
763.00 1.004
763.10 1.004
763.20 1.003
763.30 1.003
763.40 1.003
763.50 1.003
763.60 1.003
763.70 1.003
763.80 1.003
763.90 1.003
764.00 1.002
764.10 1.002
764.20 1.002
764.30 1.002
764.40 1.002
764.50 1.002
764.60 1.002
764.70 1.002
764.80 1.001
764.90 1.001
765.00 1.001
765.10 1.001
765.20 1.001
765.30 1.001
765.40 1.001
765.50 1.001
765.60 1
765.70 1
765.80 1
765.90 1
766.00 1
766.10 0.9999
766.20 0.9998
766.30 0.9996
766.40 0.9995
766.50 0.9994
766.60 0.9993
766.70 0.9992
766.80 0.999
766.90 0.9989
767.00 0.9988
767.10 0.9987
767.20 0.9986
767.30 0.9984
767.40 0.9983
767.50 0.9982
767.60 0.9981
767.70 0.998
767.80 0.9978
767.90 0.9977
768.00 0.9976
768.10 0.9975
768.20 0.9974
768.30 0.9972
768.40 0.9971
768.50 0.997
768.60 0.9969
768.70 0.9968
768.80 0.9966
768.90 0.9965
769.00 0.9964
769.10 0.9963
769.20 0.9962
769.30 0.9961
769.40 0.9959
769.50 0.9958
769.60 0.9957
769.70 0.9956
769.80 0.9955
769.90 0.9953
770.00 0.9952
770.10 0.9951
770.20 0.995
770.30 0.9948
770.40 0.9947
770.50 0.9946
770.60 0.9945
770.70 0.9944
770.80 0.9942
770.90 0.9941
771.00 0.994
771.10 0.9939
771.20 0.9937
771.30 0.9936
771.40 0.9935
771.50 0.9934
771.60 0.9932
771.70 0.9931
771.80 0.993
771.90 0.9929
772.00 0.9927
772.10 0.9926
772.20 0.9925
772.30 0.9924
772.40 0.9923
772.50 0.9921
772.60 0.992
772.70 0.9919
772.80 0.9918
772.90 0.9916
773.00 0.9915
773.10 0.9914
773.20 0.9913
773.30 0.9911
773.40 0.991
773.50 0.9909
773.60 0.9908
773.70 0.9907
773.80 0.9905
773.90 0.9904
774.00 0.9903
774.10 0.9902
774.20 0.99
774.30 0.9899
774.40 0.9898
774.50 0.9897
774.60 0.9896
774.70 0.9894
774.80 0.9893
774.90 0.9892
775.00 0.9891
775.10 0.9889
775.20 0.9888
775.30 0.9887
775.40 0.9886
775.50 0.9885
775.60 0.9883
775.70 0.9882
775.80 0.9881
775.90 0.988
776.00 0.9878
776.10 0.9877
776.20 0.9876
776.30 0.9875
776.40 0.9874
776.50 0.9872
776.60 0.9871
776.70 0.987
776.80 0.9869
776.90 0.9867
777.00 0.9866
777.10 0.9865
777.20 0.9864
777.30 0.9863
777.40 0.9861
777.50 0.986
777.60 0.9859
777.70 0.9858
777.80 0.9857
777.90 0.9855
778.00 0.9854
778.10 0.9853
778.20 0.9852
778.30 0.985
778.40 0.9849
778.50 0.9848
778.60 0.9847
778.70 0.9846
778.80 0.9844
778.90 0.9843
779.00 0.9842
779.10 0.9841
779.20 0.984
779.30 0.9838
779.40 0.9837
779.50 0.9836
779.60 0.9835
779.70 0.9834
779.80 0.9832
779.90 0.9831
780.00 0.983
780.10 0.9829
780.20 0.9827
780.30 0.9826
780.40 0.9825
780.50 0.9824
780.60 0.9822
780.70 0.9821
780.80 0.982
780.90 0.9819
781.00 0.9817
781.10 0.9816
781.20 0.9815
781.30 0.9814
781.40 0.9812
781.50 0.9811
781.60 0.981
781.70 0.9809
781.80 0.9807
781.90 0.9806
782.00 0.9805
782.10 0.9804
782.20 0.9802
782.30 0.9801
782.40 0.98
782.50 0.9799
782.60 0.9797
782.70 0.9796
782.80 0.9795
782.90 0.9794
783.00 0.9792
783.10 0.9791
783.20 0.979
783.30 0.9789
783.40 0.9787
783.50 0.9786
783.60 0.9785
783.70 0.9784
783.80 0.9782
783.90 0.9781
784.00 0.978
784.10 0.9779
784.20 0.9778
784.30 0.9776
784.40 0.9775
784.50 0.9774
784.60 0.9773
784.70 0.9771
784.80 0.977
784.90 0.9769
785.00 0.9768
785.10 0.9766
785.20 0.9765
785.30 0.9764
785.40 0.9763
785.50 0.9761
785.60 0.976
785.70 0.9759
785.80 0.9758
785.90 0.9756
786.00 0.9755
786.10 0.9754
786.20 0.9753
786.30 0.9752
786.40 0.975
786.50 0.9749
786.60 0.9748
786.70 0.9747
786.80 0.9745
786.90 0.9744
787.00 0.9743
787.10 0.9742
787.20 0.974
787.30 0.9739
787.40 0.9738
787.50 0.9737
787.60 0.9736
787.70 0.9734
787.80 0.9733
787.90 0.9732
788.00 0.9731
788.10 0.9729
788.20 0.9728
788.30 0.9727
788.40 0.9726
788.50 0.9724
788.60 0.9723
788.70 0.9722
788.80 0.9721
788.90 0.972
789.00 0.9718
789.10 0.9717
789.20 0.9716
789.30 0.9715
789.40 0.9713
789.50 0.9712
789.60 0.9711
789.70 0.971
789.80 0.9709
789.90 0.9707
790.00 0.9706
790.10 0.9705
790.20 0.9704
790.30 0.9702
790.40 0.9701
790.50 0.97
790.60 0.9698
790.70 0.9697
790.80 0.9696
790.90 0.9695
791.00 0.9693
791.10 0.9692
791.20 0.9691
791.30 0.969
791.40 0.9688
791.50 0.9687
791.60 0.9686
791.70 0.9684
791.80 0.9683
791.90 0.9682
792.00 0.9681
792.10 0.9679
792.20 0.9678
792.30 0.9677
792.40 0.9676
792.50 0.9674
792.60 0.9673
792.70 0.9672
792.80 0.9671
792.90 0.9669
793.00 0.9668
793.10 0.9667
793.20 0.9665
793.30 0.9664
793.40 0.9663
793.50 0.9662
793.60 0.966
793.70 0.9659
793.80 0.9658
793.90 0.9657
794.00 0.9655
794.10 0.9654
794.20 0.9653
794.30 0.9652
794.40 0.965
794.50 0.9649
794.60 0.9648
794.70 0.9647
794.80 0.9645
794.90 0.9644
795.00 0.9643
795.10 0.9641
795.20 0.964
795.30 0.9639
795.40 0.9638
795.50 0.9636
795.60 0.9635
795.70 0.9634
795.80 0.9633
795.90 0.9631
796.00 0.963
796.10 0.9629
796.20 0.9628
796.30 0.9626
796.40 0.9625
796.50 0.9624
796.60 0.9623
796.70 0.9621
796.80 0.962
796.90 0.9619
797.00 0.9618
797.10 0.9616
797.20 0.9615
797.30 0.9614
797.40 0.9613
797.50 0.9611
797.60 0.961
797.70 0.9609
797.80 0.9608
797.90 0.9606
798.00 0.9605
798.10 0.9604
798.20 0.9603
798.30 0.9601
798.40 0.96
798.50 0.9599
798.60 0.9598
798.70 0.9596
798.80 0.9595
798.90 0.9594
799.00 0.9593
799.10 0.9591
799.20 0.959
799.30 0.9589
799.40 0.9588
799.50 0.9586
799.60 0.9585
799.70 0.9584
799.80 0.9583
799.90 0.9581
800.00 0.958
800.10 0.9579
800.20 0.9578
800.30 0.9576
800.40 0.9575
800.50 0.9574
800.60 0.9572
800.70 0.9571
800.80 0.957
800.90 0.9568
801.00 0.9567
801.10 0.9566
801.20 0.9564
801.30 0.9563
801.40 0.9562
801.50 0.956
801.60 0.9559
801.70 0.9558
801.80 0.9556
801.90 0.9555
802.00 0.9554
802.10 0.9553
802.20 0.9551
802.30 0.955
802.40 0.9549
802.50 0.9547
802.60 0.9546
802.70 0.9545
802.80 0.9543
802.90 0.9542
803.00 0.9541
803.10 0.9539
803.20 0.9538
803.30 0.9537
803.40 0.9536
803.50 0.9534
803.60 0.9533
803.70 0.9532
803.80 0.953
803.90 0.9529
804.00 0.9528
804.10 0.9526
804.20 0.9525
804.30 0.9524
804.40 0.9523
804.50 0.9521
804.60 0.952
804.70 0.9519
804.80 0.9517
804.90 0.9516
805.00 0.9515
805.10 0.9513
805.20 0.9512
805.30 0.9511
805.40 0.9509
805.50 0.9508
805.60 0.9507
805.70 0.9506
805.80 0.9504
805.90 0.9503
806.00 0.9502
806.10 0.95
806.20 0.9499
806.30 0.9498
806.40 0.9497
806.50 0.9495
806.60 0.9494
806.70 0.9493
806.80 0.9491
806.90 0.949
807.00 0.9489
807.10 0.9487
807.20 0.9486
807.30 0.9485
807.40 0.9484
807.50 0.9482
807.60 0.9481
807.70 0.948
807.80 0.9478
807.90 0.9477
808.00 0.9476
808.10 0.9475
808.20 0.9473
808.30 0.9472
808.40 0.9471
808.50 0.9469
808.60 0.9468
808.70 0.9467
808.80 0.9466
808.90 0.9464
809.00 0.9463
809.10 0.9462
809.20 0.946
809.30 0.9459
809.40 0.9458
809.50 0.9457
809.60 0.9455
809.70 0.9454
809.80 0.9453
809.90 0.9451
810.00 0.945
810.10 0.9449
810.20 0.9447
810.30 0.9446
810.40 0.9445
810.50 0.9443
810.60 0.9442
810.70 0.9441
810.80 0.9439
810.90 0.9438
811.00 0.9436
811.10 0.9435
811.20 0.9434
811.30 0.9432
811.40 0.9431
811.50 0.943
811.60 0.9428
811.70 0.9427
811.80 0.9426
811.90 0.9424
812.00 0.9423
812.10 0.9422
812.20 0.942
812.30 0.9419
812.40 0.9418
812.50 0.9416
812.60 0.9415
812.70 0.9413
812.80 0.9412
812.90 0.9411
813.00 0.9409
813.10 0.9408
813.20 0.9407
813.30 0.9405
813.40 0.9404
813.50 0.9403
813.60 0.9401
813.70 0.94
813.80 0.9399
813.90 0.9397
814.00 0.9396
814.10 0.9395
814.20 0.9393
814.30 0.9392
814.40 0.9391
814.50 0.9389
814.60 0.9388
814.70 0.9386
814.80 0.9385
814.90 0.9384
815.00 0.9382
815.10 0.9381
815.20 0.938
815.30 0.9378
815.40 0.9377
815.50 0.9376
815.60 0.9374
815.70 0.9373
815.80 0.9372
815.90 0.937
816.00 0.9369
816.10 0.9368
816.20 0.9366
816.30 0.9365
816.40 0.9364
816.50 0.9362
816.60 0.9361
816.70 0.936
816.80 0.9358
816.90 0.9357
817.00 0.9356
817.10 0.9354
817.20 0.9353
817.30 0.9352
817.40 0.935
817.50 0.9349
817.60 0.9348
817.70 0.9346
817.80 0.9345
817.90 0.9344
818.00 0.9342
818.10 0.9341
818.20 0.934
818.30 0.9338
818.40 0.9337
818.50 0.9336
818.60 0.9334
818.70 0.9333
818.80 0.9332
818.90 0.933
819.00 0.9329
819.10 0.9328
819.20 0.9326
819.30 0.9325
819.40 0.9324
819.50 0.9322
819.60 0.9321
819.70 0.932
819.80 0.9318
819.90 0.9317
820.00 0.9316
820.10 0.9314
820.20 0.9313
820.30 0.9312
820.40 0.931
820.50 0.9309
820.60 0.9308
820.70 0.9306
820.80 0.9305
820.90 0.9304
821.00 0.9302
821.10 0.9301
821.20 0.9299
821.30 0.9298
821.40 0.9297
821.50 0.9295
821.60 0.9294
821.70 0.9293
821.80 0.9291
821.90 0.929
822.00 0.9289
822.10 0.9287
822.20 0.9286
822.30 0.9284
822.40 0.9283
822.50 0.9282
822.60 0.928
822.70 0.9279
822.80 0.9277
822.90 0.9276
823.00 0.9275
823.10 0.9273
823.20 0.9272
823.30 0.9271
823.40 0.9269
823.50 0.9268
823.60 0.9266
823.70 0.9265
823.80 0.9264
823.90 0.9262
824.00 0.9261
824.10 0.9259
824.20 0.9258
824.30 0.9257
824.40 0.9255
824.50 0.9254
824.60 0.9253
824.70 0.9251
824.80 0.925
824.90 0.9248
825.00 0.9247
825.10 0.9246
825.20 0.9244
825.30 0.9243
825.40 0.9242
825.50 0.924
825.60 0.9239
825.70 0.9237
825.80 0.9236
825.90 0.9235
826.00 0.9233
826.10 0.9232
826.20 0.9231
826.30 0.9229
826.40 0.9228
826.50 0.9226
826.60 0.9225
826.70 0.9224
826.80 0.9222
826.90 0.9221
827.00 0.922
827.10 0.9218
827.20 0.9217
827.30 0.9215
827.40 0.9214
827.50 0.9213
827.60 0.9211
827.70 0.921
827.80 0.9208
827.90 0.9207
828.00 0.9206
828.10 0.9204
828.20 0.9203
828.30 0.9201
828.40 0.92
828.50 0.9199
828.60 0.9197
828.70 0.9196
828.80 0.9194
828.90 0.9193
829.00 0.9192
829.10 0.919
829.20 0.9189
829.30 0.9187
829.40 0.9186
829.50 0.9185
829.60 0.9183
829.70 0.9182
829.80 0.918
829.90 0.9179
830.00 0.9178
830.10 0.9176
830.20 0.9175
830.30 0.9173
830.40 0.9172
830.50 0.9171
830.60 0.9169
830.70 0.9168
830.80 0.9166
830.90 0.9165
831.00 0.9164
831.10 0.9162
831.20 0.9161
831.30 0.916
831.40 0.9158
831.50 0.9157
831.60 0.9155
831.70 0.9154
831.80 0.9153
831.90 0.9151
832.00 0.915
832.10 0.9148
832.20 0.9147
832.30 0.9146
832.40 0.9144
832.50 0.9143
832.60 0.9141
832.70 0.914
832.80 0.9138
832.90 0.9137
833.00 0.9136
833.10 0.9134
833.20 0.9133
833.30 0.9131
833.40 0.913
833.50 0.9129
833.60 0.9127
833.70 0.9126
833.80 0.9124
833.90 0.9123
834.00 0.9121
834.10 0.912
834.20 0.9119
834.30 0.9117
834.40 0.9116
834.50 0.9114
834.60 0.9113
834.70 0.9112
834.80 0.911
834.90 0.9109
835.00 0.9107
835.10 0.9106
835.20 0.9105
835.30 0.9103
835.40 0.9102
835.50 0.91
835.60 0.9099
835.70 0.9098
835.80 0.9096
835.90 0.9095
836.00 0.9093
836.10 0.9092
836.20 0.9091
836.30 0.9089
836.40 0.9088
836.50 0.9086
836.60 0.9085
836.70 0.9083
836.80 0.9082
836.90 0.9081
837.00 0.9079
837.10 0.9078
837.20 0.9076
837.30 0.9075
837.40 0.9074
837.50 0.9072
837.60 0.9071
837.70 0.9069
837.80 0.9068
837.90 0.9066
838.00 0.9065
838.10 0.9064
838.20 0.9062
838.30 0.9061
838.40 0.9059
838.50 0.9058
838.60 0.9056
838.70 0.9055
838.80 0.9053
838.90 0.9052
839.00 0.9051
839.10 0.9049
839.20 0.9048
839.30 0.9046
839.40 0.9045
839.50 0.9043
839.60 0.9042
839.70 0.9041
839.80 0.9039
839.90 0.9038
840.00 0.9036
840.10 0.9035
840.20 0.9034
840.30 0.9032
840.40 0.9031
840.50 0.9029
840.60 0.9028
840.70 0.9026
840.80 0.9025
840.90 0.9024
841.00 0.9022
841.10 0.9021
841.20 0.9019
841.30 0.9018
841.40 0.9016
841.50 0.9015
841.60 0.9014
841.70 0.9012
841.80 0.9011
841.90 0.9009
842.00 0.9008
842.10 0.9006
842.20 0.9005
842.30 0.9004
842.40 0.9002
842.50 0.9001
842.60 0.8999
842.70 0.8998
842.80 0.8996
842.90 0.8995
843.00 0.8993
843.10 0.8992
843.20 0.8991
843.30 0.8989
843.40 0.8988
843.50 0.8986
843.60 0.8985
843.70 0.8983
843.80 0.8982
843.90 0.898
844.00 0.8979
844.10 0.8978
844.20 0.8976
844.30 0.8975
844.40 0.8973
844.50 0.8972
844.60 0.897
844.70 0.8969
844.80 0.8968
844.90 0.8966
845.00 0.8965
845.10 0.8963
845.20 0.8962
845.30 0.896
845.40 0.8959
845.50 0.8958
845.60 0.8956
845.70 0.8955
845.80 0.8953
845.90 0.8952
846.00 0.895
846.10 0.8949
846.20 0.8947
846.30 0.8946
846.40 0.8945
846.50 0.8943
846.60 0.8942
846.70 0.894
846.80 0.8939
846.90 0.8937
847.00 0.8936
847.10 0.8935
847.20 0.8933
847.30 0.8932
847.40 0.893
847.50 0.8929
847.60 0.8927
847.70 0.8926
847.80 0.8924
847.90 0.8923
848.00 0.8921
848.10 0.892
848.20 0.8919
848.30 0.8917
848.40 0.8916
848.50 0.8914
848.60 0.8913
848.70 0.8911
848.80 0.891
848.90 0.8908
849.00 0.8907
849.10 0.8905
849.20 0.8904
849.30 0.8903
849.40 0.8901
849.50 0.89
849.60 0.8898
849.70 0.8897
849.80 0.8895
849.90 0.8894
850.00 0.8892
850.10 0.8891
850.20 0.8889
850.30 0.8888
850.40 0.8887
850.50 0.8885
850.60 0.8884
850.70 0.8882
850.80 0.8881
850.90 0.8879
851.00 0.8878
851.10 0.8876
851.20 0.8875
851.30 0.8874
851.40 0.8872
851.50 0.8871
851.60 0.8869
851.70 0.8868
851.80 0.8866
851.90 0.8865
852.00 0.8863
852.10 0.8862
852.20 0.886
852.30 0.8859
852.40 0.8858
852.50 0.8856
852.60 0.8855
852.70 0.8853
852.80 0.8852
852.90 0.885
853.00 0.8849
853.10 0.8847
853.20 0.8846
853.30 0.8844
853.40 0.8843
853.50 0.8841
853.60 0.884
853.70 0.8838
853.80 0.8837
853.90 0.8835
854.00 0.8834
854.10 0.8832
854.20 0.8831
854.30 0.8829
854.40 0.8828
854.50 0.8827
854.60 0.8825
854.70 0.8824
854.80 0.8822
854.90 0.8821
855.00 0.8819
855.10 0.8818
855.20 0.8816
855.30 0.8815
855.40 0.8813
855.50 0.8812
855.60 0.881
855.70 0.8809
855.80 0.8807
855.90 0.8806
856.00 0.8805
856.10 0.8803
856.20 0.8802
856.30 0.88
856.40 0.8799
856.50 0.8797
856.60 0.8796
856.70 0.8794
856.80 0.8793
856.90 0.8791
857.00 0.879
857.10 0.8788
857.20 0.8787
857.30 0.8785
857.40 0.8784
857.50 0.8782
857.60 0.8781
857.70 0.8779
857.80 0.8778
857.90 0.8777
858.00 0.8775
858.10 0.8774
858.20 0.8772
858.30 0.8771
858.40 0.8769
858.50 0.8768
858.60 0.8766
858.70 0.8765
858.80 0.8763
858.90 0.8762
859.00 0.876
859.10 0.8759
859.20 0.8757
859.30 0.8756
859.40 0.8754
859.50 0.8753
859.60 0.8751
859.70 0.875
859.80 0.8748
859.90 0.8747
860.00 0.8745
860.10 0.8744
860.20 0.8742
860.30 0.8741
860.40 0.874
860.50 0.8738
860.60 0.8737
860.70 0.8735
860.80 0.8734
860.90 0.8732
861.00 0.8731
861.10 0.8729
861.20 0.8728
861.30 0.8726
861.40 0.8725
861.50 0.8723
861.60 0.8722
861.70 0.872
861.80 0.8719
861.90 0.8717
862.00 0.8716
862.10 0.8714
862.20 0.8713
862.30 0.8711
862.40 0.871
862.50 0.8708
862.60 0.8707
862.70 0.8705
862.80 0.8704
862.90 0.8702
863.00 0.8701
863.10 0.8699
863.20 0.8698
863.30 0.8696
863.40 0.8695
863.50 0.8693
863.60 0.8692
863.70 0.869
863.80 0.8689
863.90 0.8687
864.00 0.8686
864.10 0.8684
864.20 0.8683
864.30 0.8681
864.40 0.868
864.50 0.8678
864.60 0.8677
864.70 0.8675
864.80 0.8674
864.90 0.8672
865.00 0.8671
865.10 0.8669
865.20 0.8668
865.30 0.8666
865.40 0.8665
865.50 0.8664
865.60 0.8662
865.70 0.8661
865.80 0.8659
865.90 0.8658
866.00 0.8656
866.10 0.8655
866.20 0.8653
866.30 0.8652
866.40 0.865
866.50 0.8649
866.60 0.8647
866.70 0.8646
866.80 0.8644
866.90 0.8643
867.00 0.8641
867.10 0.864
867.20 0.8638
867.30 0.8637
867.40 0.8635
867.50 0.8634
867.60 0.8632
867.70 0.8631
867.80 0.8629
867.90 0.8627
868.00 0.8626
868.10 0.8624
868.20 0.8623
868.30 0.8621
868.40 0.862
868.50 0.8618
868.60 0.8617
868.70 0.8615
868.80 0.8614
868.90 0.8612
869.00 0.8611
869.10 0.8609
869.20 0.8608
869.30 0.8606
869.40 0.8605
869.50 0.8603
869.60 0.8602
869.70 0.86
869.80 0.8599
869.90 0.8597
870.00 0.8596
870.10 0.8594
870.20 0.8593
870.30 0.8591
870.40 0.859
870.50 0.8588
870.60 0.8587
870.70 0.8585
870.80 0.8584
870.90 0.8582
871.00 0.8581
871.10 0.8579
871.20 0.8578
871.30 0.8576
871.40 0.8575
871.50 0.8573
871.60 0.8572
871.70 0.857
871.80 0.8569
871.90 0.8567
872.00 0.8566
872.10 0.8564
872.20 0.8562
872.30 0.8561
872.40 0.8559
872.50 0.8558
872.60 0.8556
872.70 0.8555
872.80 0.8553
872.90 0.8552
873.00 0.855
873.10 0.8549
873.20 0.8547
873.30 0.8546
873.40 0.8544
873.50 0.8543
873.60 0.8541
873.70 0.8539
873.80 0.8538
873.90 0.8536
874.00 0.8535
874.10 0.8533
874.20 0.8532
874.30 0.853
874.40 0.8529
874.50 0.8527
874.60 0.8526
874.70 0.8524
874.80 0.8523
874.90 0.8521
875.00 0.852
875.10 0.8518
875.20 0.8517
875.30 0.8515
875.40 0.8514
875.50 0.8512
875.60 0.851
875.70 0.8509
875.80 0.8507
875.90 0.8506
876.00 0.8504
876.10 0.8503
876.20 0.8501
876.30 0.85
876.40 0.8498
876.50 0.8497
876.60 0.8495
876.70 0.8494
876.80 0.8492
876.90 0.8491
877.00 0.8489
877.10 0.8488
877.20 0.8486
877.30 0.8485
877.40 0.8483
877.50 0.8481
877.60 0.848
877.70 0.8478
877.80 0.8477
877.90 0.8475
878.00 0.8474
878.10 0.8472
878.20 0.847
878.30 0.8469
878.40 0.8467
878.50 0.8466
878.60 0.8464
878.70 0.8463
878.80 0.8461
878.90 0.846
879.00 0.8458
879.10 0.8456
879.20 0.8455
879.30 0.8453
879.40 0.8452
879.50 0.845
879.60 0.8449
879.70 0.8447
879.80 0.8446
879.90 0.8444
880.00 0.8442
880.10 0.8441
880.20 0.8439
880.30 0.8438
880.40 0.8436
880.50 0.8435
880.60 0.8433
880.70 0.8432
880.80 0.843
880.90 0.8429
881.00 0.8427
881.10 0.8425
881.20 0.8424
881.30 0.8422
881.40 0.8421
881.50 0.8419
881.60 0.8418
881.70 0.8416
881.80 0.8415
881.90 0.8413
882.00 0.8412
882.10 0.841
882.20 0.8408
882.30 0.8407
882.40 0.8405
882.50 0.8404
882.60 0.8402
882.70 0.84
882.80 0.8399
882.90 0.8397
883.00 0.8396
883.10 0.8394
883.20 0.8393
883.30 0.8391
883.40 0.8389
883.50 0.8388
883.60 0.8386
883.70 0.8385
883.80 0.8383
883.90 0.8382
884.00 0.838
884.10 0.8378
884.20 0.8377
884.30 0.8375
884.40 0.8374
884.50 0.8372
884.60 0.837
884.70 0.8369
884.80 0.8367
884.90 0.8366
885.00 0.8364
885.10 0.8363
885.20 0.8361
885.30 0.8359
885.40 0.8358
885.50 0.8356
885.60 0.8355
885.70 0.8353
885.80 0.8352
885.90 0.835
886.00 0.8349
886.10 0.8347
886.20 0.8345
886.30 0.8344
886.40 0.8342
886.50 0.8341
886.60 0.8339
886.70 0.8338
886.80 0.8336
886.90 0.8334
887.00 0.8333
887.10 0.8331
887.20 0.833
887.30 0.8328
887.40 0.8326
887.50 0.8325
887.60 0.8323
887.70 0.8321
887.80 0.832
887.90 0.8318
888.00 0.8317
888.10 0.8315
888.20 0.8313
888.30 0.8312
888.40 0.831
888.50 0.8309
888.60 0.8307
888.70 0.8305
888.80 0.8304
888.90 0.8302
889.00 0.83
889.10 0.8299
889.20 0.8297
889.30 0.8296
889.40 0.8294
889.50 0.8292
889.60 0.8291
889.70 0.8289
889.80 0.8288
889.90 0.8286
890.00 0.8284
890.10 0.8283
890.20 0.8281
890.30 0.828
890.40 0.8278
890.50 0.8276
890.60 0.8275
890.70 0.8273
890.80 0.8272
890.90 0.827
891.00 0.8268
891.10 0.8267
891.20 0.8265
891.30 0.8263
891.40 0.8262
891.50 0.826
891.60 0.8259
891.70 0.8257
891.80 0.8255
891.90 0.8254
892.00 0.8252
892.10 0.8251
892.20 0.8249
892.30 0.8248
892.40 0.8246
892.50 0.8245
892.60 0.8243
892.70 0.8242
892.80 0.824
892.90 0.8239
893.00 0.8237
893.10 0.8235
893.20 0.8234
893.30 0.8232
893.40 0.8231
893.50 0.8229
893.60 0.8228
893.70 0.8226
893.80 0.8225
893.90 0.8223
894.00 0.8222
894.10 0.822
894.20 0.8219
894.30 0.8217
894.40 0.8216
894.50 0.8214
894.60 0.8213
894.70 0.8211
894.80 0.821
894.90 0.8208
895.00 0.8207
895.10 0.8205
895.20 0.8203
895.30 0.8202
895.40 0.82
895.50 0.8199
895.60 0.8197
895.70 0.8196
895.80 0.8194
895.90 0.8193
896.00 0.8191
896.10 0.819
896.20 0.8188
896.30 0.8187
896.40 0.8185
896.50 0.8184
896.60 0.8182
896.70 0.8181
896.80 0.8179
896.90 0.8178
897.00 0.8176
897.10 0.8175
897.20 0.8173
897.30 0.8171
897.40 0.8169
897.50 0.8168
897.60 0.8166
897.70 0.8164
897.80 0.8163
897.90 0.8161
898.00 0.8159
898.10 0.8157
898.20 0.8156
898.30 0.8154
898.40 0.8152
898.50 0.8151
898.60 0.8149
898.70 0.8147
898.80 0.8146
898.90 0.8144
899.00 0.8142
899.10 0.814
899.20 0.8139
899.30 0.8137
899.40 0.8135
899.50 0.8134
899.60 0.8132
899.70 0.813
899.80 0.8129
899.90 0.8127
900.00 0.8125
900.10 0.8123
900.20 0.8122
900.30 0.812
900.40 0.8118
900.50 0.8117
900.60 0.8115
900.70 0.8113
900.80 0.8112
900.90 0.811
901.00 0.8108
901.10 0.8107
901.20 0.8105
901.30 0.8103
901.40 0.8101
901.50 0.81
901.60 0.8098
901.70 0.8096
901.80 0.8095
901.90 0.8093
902.00 0.8091
902.10 0.8089
902.20 0.8087
902.30 0.8085
902.40 0.8083
902.50 0.8081
902.60 0.8079
902.70 0.8077
902.80 0.8075
902.90 0.8073
903.00 0.8071
903.10 0.8069
903.20 0.8067
903.30 0.8065
903.40 0.8063
903.50 0.8061
903.60 0.8059
903.70 0.8057
903.80 0.8055
903.90 0.8053
904.00 0.8051
904.10 0.8049
904.20 0.8047
904.30 0.8045
904.40 0.8043
904.50 0.8041
904.60 0.8039
904.70 0.8037
904.80 0.8035
904.90 0.8033
905.00 0.8031
905.10 0.8029
905.20 0.8027
905.30 0.8025
905.40 0.8023
905.50 0.8021
905.60 0.8018
905.70 0.8016
905.80 0.8014
905.90 0.8012
906.00 0.801
906.10 0.8008
906.20 0.8006
906.30 0.8004
906.40 0.8002
906.50 0.8
906.60 0.7998
906.70 0.7996
906.80 0.7994
906.90 0.7992
907.00 0.799
907.10 0.7989
907.20 0.7987
907.30 0.7985
907.40 0.7983
907.50 0.7981
907.60 0.7979
907.70 0.7977
907.80 0.7976
907.90 0.7974
908.00 0.7972
908.10 0.797
908.20 0.7968
908.30 0.7966
908.40 0.7965
908.50 0.7963
908.60 0.7961
908.70 0.7959
908.80 0.7957
908.90 0.7955
909.00 0.7954
909.10 0.7952
909.20 0.795
909.30 0.7948
909.40 0.7946
909.50 0.7944
909.60 0.7943
909.70 0.7941
909.80 0.7939
909.90 0.7937
910.00 0.7935
910.10 0.7933
910.20 0.7932
910.30 0.793
910.40 0.7928
910.50 0.7926
910.60 0.7924
910.70 0.7922
910.80 0.7921
910.90 0.7919
911.00 0.7917
911.10 0.7915
911.20 0.7913
911.30 0.7912
911.40 0.791
911.50 0.7908
911.60 0.7906
911.70 0.7904
911.80 0.7902
911.90 0.7901
912.00 0.7899
912.10 0.7897
912.20 0.7895
912.30 0.7894
912.40 0.7892
912.50 0.789
912.60 0.7889
912.70 0.7887
912.80 0.7885
912.90 0.7884
913.00 0.7882
913.10 0.788
913.20 0.7879
913.30 0.7877
913.40 0.7875
913.50 0.7874
913.60 0.7872
913.70 0.787
913.80 0.7869
913.90 0.7867
914.00 0.7865
914.10 0.7864
914.20 0.7862
914.30 0.786
914.40 0.7859
914.50 0.7857
914.60 0.7855
914.70 0.7854
914.80 0.7852
914.90 0.785
915.00 0.7849
915.10 0.7847
915.20 0.7845
915.30 0.7844
915.40 0.7842
915.50 0.7841
915.60 0.7839
915.70 0.7837
915.80 0.7836
915.90 0.7834
916.00 0.7832
916.10 0.7831
916.20 0.7829
916.30 0.7827
916.40 0.7826
916.50 0.7824
916.60 0.7822
916.70 0.7821
916.80 0.7819
916.90 0.7817
917.00 0.7816
917.10 0.7814
917.20 0.7812
917.30 0.781
917.40 0.7809
917.50 0.7807
917.60 0.7805
917.70 0.7803
917.80 0.7801
917.90 0.78
918.00 0.7798
918.10 0.7796
918.20 0.7794
918.30 0.7792
918.40 0.7791
918.50 0.7789
918.60 0.7787
918.70 0.7785
918.80 0.7784
918.90 0.7782
919.00 0.778
919.10 0.7778
919.20 0.7776
919.30 0.7775
919.40 0.7773
919.50 0.7771
919.60 0.7769
919.70 0.7767
919.80 0.7766
919.90 0.7764
920.00 0.7762
920.10 0.776
920.20 0.7759
920.30 0.7757
920.40 0.7755
920.50 0.7753
920.60 0.7751
920.70 0.775
920.80 0.7748
920.90 0.7746
921.00 0.7744
921.10 0.7743
921.20 0.7741
921.30 0.7739
921.40 0.7737
921.50 0.7735
921.60 0.7734
921.70 0.7732
921.80 0.773
921.90 0.7728
922.00 0.7727
922.10 0.7725
922.20 0.7723
922.30 0.7721
922.40 0.7719
922.50 0.7718
922.60 0.7716
922.70 0.7714
922.80 0.7712
922.90 0.771
923.00 0.7709
923.10 0.7707
923.20 0.7705
923.30 0.7703
923.40 0.7701
923.50 0.7699
923.60 0.7698
923.70 0.7696
923.80 0.7694
923.90 0.7692
924.00 0.769
924.10 0.7689
924.20 0.7687
924.30 0.7685
924.40 0.7683
924.50 0.7681
924.60 0.768
924.70 0.7678
924.80 0.7676
924.90 0.7674
925.00 0.7672
925.10 0.7671
925.20 0.7669
925.30 0.7667
925.40 0.7665
925.50 0.7663
925.60 0.7662
925.70 0.766
925.80 0.7658
925.90 0.7656
926.00 0.7654
926.10 0.7653
926.20 0.7651
926.30 0.7649
926.40 0.7647
926.50 0.7646
926.60 0.7644
926.70 0.7642
926.80 0.764
926.90 0.7638
927.00 0.7637
927.10 0.7635
927.20 0.7633
927.30 0.7631
927.40 0.7629
927.50 0.7627
927.60 0.7626
927.70 0.7624
927.80 0.7622
927.90 0.762
928.00 0.7618
928.10 0.7616
928.20 0.7615
928.30 0.7613
928.40 0.7611
928.50 0.7609
928.60 0.7607
928.70 0.7606
928.80 0.7604
928.90 0.7602
929.00 0.76
929.10 0.7598
929.20 0.7596
929.30 0.7595
929.40 0.7593
929.50 0.7591
929.60 0.7589
929.70 0.7587
929.80 0.7585
929.90 0.7584
930.00 0.7582
930.10 0.758
930.20 0.7578
930.30 0.7576
930.40 0.7575
930.50 0.7573
930.60 0.7571
930.70 0.7569
930.80 0.7567
930.90 0.7566
931.00 0.7564
931.10 0.7562
931.20 0.756
931.30 0.7558
931.40 0.7557
931.50 0.7555
931.60 0.7553
931.70 0.7551
931.80 0.7549
931.90 0.7547
932.00 0.7546
932.10 0.7544
932.20 0.7542
932.30 0.754
932.40 0.7538
932.50 0.7536
932.60 0.7535
932.70 0.7533
932.80 0.7531
932.90 0.7529
933.00 0.7527
933.10 0.7525
933.20 0.7524
933.30 0.7522
933.40 0.752
933.50 0.7518
933.60 0.7516
933.70 0.7514
933.80 0.7513
933.90 0.7511
934.00 0.7509
934.10 0.7507
934.20 0.7505
934.30 0.7503
934.40 0.7502
934.50 0.75
934.60 0.7498
934.70 0.7496
934.80 0.7494
934.90 0.7492
935.00 0.749
935.10 0.7489
935.20 0.7487
935.30 0.7485
935.40 0.7483
935.50 0.7481
935.60 0.7479
935.70 0.7477
935.80 0.7476
935.90 0.7474
936.00 0.7472
936.10 0.747
936.20 0.7468
936.30 0.7466
936.40 0.7464
936.50 0.7463
936.60 0.7461
936.70 0.7459
936.80 0.7457
936.90 0.7455
937.00 0.7453
937.10 0.7451
937.20 0.745
937.30 0.7448
937.40 0.7446
937.50 0.7444
937.60 0.7442
937.70 0.744
937.80 0.7438
937.90 0.7437
938.00 0.7435
938.10 0.7433
938.20 0.7431
938.30 0.7429
938.40 0.7427
938.50 0.7425
938.60 0.7423
938.70 0.7422
938.80 0.742
938.90 0.7418
939.00 0.7416
939.10 0.7414
939.20 0.7412
939.30 0.741
939.40 0.7408
939.50 0.7407
939.60 0.7405
939.70 0.7403
939.80 0.7401
939.90 0.7399
940.00 0.7397
940.10 0.7395
940.20 0.7393
940.30 0.7392
940.40 0.739
940.50 0.7388
940.60 0.7386
940.70 0.7384
940.80 0.7382
940.90 0.738
941.00 0.7378
941.10 0.7377
941.20 0.7375
941.30 0.7373
941.40 0.7371
941.50 0.7369
941.60 0.7367
941.70 0.7365
941.80 0.7363
941.90 0.7361
942.00 0.736
942.10 0.7358
942.20 0.7356
942.30 0.7354
942.40 0.7352
942.50 0.735
942.60 0.7348
942.70 0.7346
942.80 0.7345
942.90 0.7343
943.00 0.7341
943.10 0.7339
943.20 0.7337
943.30 0.7335
943.40 0.7333
943.50 0.7331
943.60 0.7329
943.70 0.7328
943.80 0.7326
943.90 0.7324
944.00 0.7322
944.10 0.732
944.20 0.7318
944.30 0.7316
944.40 0.7314
944.50 0.7312
944.60 0.7311
944.70 0.7309
944.80 0.7307
944.90 0.7305
945.00 0.7303
945.10 0.7301
945.20 0.7299
945.30 0.7297
945.40 0.7295
945.50 0.7293
945.60 0.7291
945.70 0.729
945.80 0.7288
945.90 0.7286
946.00 0.7284
946.10 0.7282
946.20 0.728
946.30 0.7278
946.40 0.7276
946.50 0.7274
946.60 0.7272
946.70 0.7271
946.80 0.7269
946.90 0.7267
947.00 0.7265
947.10 0.7263
947.20 0.7261
947.30 0.7259
947.40 0.7257
947.50 0.7255
947.60 0.7253
947.70 0.7251
947.80 0.725
947.90 0.7248
948.00 0.7246
948.10 0.7244
948.20 0.7242
948.30 0.724
948.40 0.7238
948.50 0.7236
948.60 0.7234
948.70 0.7232
948.80 0.723
948.90 0.7228
949.00 0.7227
949.10 0.7225
949.20 0.7223
949.30 0.7221
949.40 0.7219
949.50 0.7217
949.60 0.7215
949.70 0.7213
949.80 0.7211
949.90 0.7209
950.00 0.7207
950.10 0.7205
950.20 0.7204
950.30 0.7202
950.40 0.72
950.50 0.7198
950.60 0.7196
950.70 0.7194
950.80 0.7192
950.90 0.719
951.00 0.7188
951.10 0.7186
951.20 0.7184
951.30 0.7182
951.40 0.7181
951.50 0.7179
951.60 0.7177
951.70 0.7175
951.80 0.7173
951.90 0.7171
952.00 0.7169
952.10 0.7167
952.20 0.7165
952.30 0.7163
952.40 0.7161
952.50 0.7159
952.60 0.7157
952.70 0.7155
952.80 0.7154
952.90 0.7152
953.00 0.715
953.10 0.7148
953.20 0.7146
953.30 0.7144
953.40 0.7142
953.50 0.714
953.60 0.7138
953.70 0.7136
953.80 0.7134
953.90 0.7132
954.00 0.713
954.10 0.7128
954.20 0.7127
954.30 0.7125
954.40 0.7123
954.50 0.7121
954.60 0.7119
954.70 0.7117
954.80 0.7115
954.90 0.7113
955.00 0.7111
955.10 0.7109
955.20 0.7107
955.30 0.7105
955.40 0.7103
955.50 0.7101
955.60 0.71
955.70 0.7098
955.80 0.7096
955.90 0.7094
956.00 0.7092
956.10 0.709
956.20 0.7088
956.30 0.7086
956.40 0.7084
956.50 0.7082
956.60 0.708
956.70 0.7078
956.80 0.7076
956.90 0.7074
957.00 0.7072
957.10 0.707
957.20 0.7068
957.30 0.7067
957.40 0.7065
957.50 0.7063
957.60 0.7061
957.70 0.7059
957.80 0.7057
957.90 0.7055
958.00 0.7053
958.10 0.7051
958.20 0.7049
958.30 0.7047
958.40 0.7045
958.50 0.7043
958.60 0.7041
958.70 0.7039
958.80 0.7037
958.90 0.7035
959.00 0.7033
959.10 0.7032
959.20 0.703
959.30 0.7028
959.40 0.7026
959.50 0.7024
959.60 0.7022
959.70 0.702
959.80 0.7018
959.90 0.7016
960.00 0.7014
960.10 0.7012
960.20 0.701
960.30 0.7008
960.40 0.7006
960.50 0.7004
960.60 0.7002
960.70 0.7001
960.80 0.6999
960.90 0.6997
961.00 0.6995
961.10 0.6993
961.20 0.6991
961.30 0.6989
961.40 0.6987
961.50 0.6985
961.60 0.6983
961.70 0.6981
961.80 0.6979
961.90 0.6977
962.00 0.6975
962.10 0.6973
962.20 0.6972
962.30 0.697
962.40 0.6968
962.50 0.6966
962.60 0.6964
962.70 0.6962
962.80 0.696
962.90 0.6958
963.00 0.6956
963.10 0.6954
963.20 0.6952
963.30 0.695
963.40 0.6948
963.50 0.6946
963.60 0.6944
963.70 0.6942
963.80 0.694
963.90 0.6939
964.00 0.6937
964.10 0.6935
964.20 0.6933
964.30 0.6931
964.40 0.6929
964.50 0.6927
964.60 0.6925
964.70 0.6923
964.80 0.6921
964.90 0.6919
965.00 0.6917
965.10 0.6915
965.20 0.6913
965.30 0.6911
965.40 0.6909
965.50 0.6907
965.60 0.6905
965.70 0.6903
965.80 0.6901
965.90 0.6899
966.00 0.6897
966.10 0.6895
966.20 0.6894
966.30 0.6892
966.40 0.689
966.50 0.6888
966.60 0.6886
966.70 0.6884
966.80 0.6882
966.90 0.688
967.00 0.6878
967.10 0.6876
967.20 0.6874
967.30 0.6872
967.40 0.687
967.50 0.6868
967.60 0.6866
967.70 0.6864
967.80 0.6863
967.90 0.6861
968.00 0.6859
968.10 0.6857
968.20 0.6855
968.30 0.6853
968.40 0.6851
968.50 0.6849
968.60 0.6847
968.70 0.6845
968.80 0.6843
968.90 0.6841
969.00 0.6839
969.10 0.6837
969.20 0.6835
969.30 0.6833
969.40 0.6831
969.50 0.6829
969.60 0.6828
969.70 0.6826
969.80 0.6824
969.90 0.6822
970.00 0.682
970.10 0.6818
970.20 0.6816
970.30 0.6814
970.40 0.6812
970.50 0.681
970.60 0.6808
970.70 0.6806
970.80 0.6804
970.90 0.6802
971.00 0.68
971.10 0.6798
971.20 0.6797
971.30 0.6795
971.40 0.6793
971.50 0.6791
971.60 0.6789
971.70 0.6787
971.80 0.6785
971.90 0.6783
972.00 0.6781
972.10 0.6779
972.20 0.6777
972.30 0.6775
972.40 0.6773
972.50 0.6771
972.60 0.6769
972.70 0.6768
972.80 0.6766
972.90 0.6764
973.00 0.6762
973.10 0.676
973.20 0.6758
973.30 0.6756
973.40 0.6754
973.50 0.6752
973.60 0.675
973.70 0.6748
973.80 0.6746
973.90 0.6744
974.00 0.6742
974.10 0.674
974.20 0.6739
974.30 0.6737
974.40 0.6735
974.50 0.6733
974.60 0.6731
974.70 0.6729
974.80 0.6727
974.90 0.6725
975.00 0.6723
975.10 0.6721
975.20 0.6719
975.30 0.6717
975.40 0.6715
975.50 0.6713
975.60 0.6711
975.70 0.6709
975.80 0.6707
975.90 0.6706
976.00 0.6704
976.10 0.6702
976.20 0.67
976.30 0.6698
976.40 0.6696
976.50 0.6694
976.60 0.6692
976.70 0.669
976.80 0.6688
976.90 0.6686
977.00 0.6684
977.10 0.6682
977.20 0.668
977.30 0.6678
977.40 0.6677
977.50 0.6675
977.60 0.6673
977.70 0.6671
977.80 0.6669
977.90 0.6667
978.00 0.6665
978.10 0.6663
978.20 0.6661
978.30 0.6659
978.40 0.6657
978.50 0.6655
978.60 0.6653
978.70 0.6652
978.80 0.665
978.90 0.6648
979.00 0.6646
979.10 0.6644
979.20 0.6642
979.30 0.664
979.40 0.6638
979.50 0.6636
979.60 0.6634
979.70 0.6632
979.80 0.663
979.90 0.6628
980.00 0.6627
980.10 0.6625
980.20 0.6623
980.30 0.6621
980.40 0.6619
980.50 0.6617
980.60 0.6615
980.70 0.6613
980.80 0.6611
980.90 0.6609
981.00 0.6607
981.10 0.6606
981.20 0.6604
981.30 0.6602
981.40 0.66
981.50 0.6598
981.60 0.6596
981.70 0.6594
981.80 0.6592
981.90 0.659
982.00 0.6588
982.10 0.6587
982.20 0.6585
982.30 0.6583
982.40 0.6581
982.50 0.6579
982.60 0.6577
982.70 0.6575
982.80 0.6573
982.90 0.6571
983.00 0.6569
983.10 0.6568
983.20 0.6566
983.30 0.6564
983.40 0.6562
983.50 0.656
983.60 0.6558
983.70 0.6556
983.80 0.6554
983.90 0.6552
984.00 0.655
984.10 0.6549
984.20 0.6547
984.30 0.6545
984.40 0.6543
984.50 0.6541
984.60 0.6539
984.70 0.6537
984.80 0.6535
984.90 0.6533
985.00 0.6531
985.10 0.653
985.20 0.6528
985.30 0.6526
985.40 0.6524
985.50 0.6522
985.60 0.652
985.70 0.6518
985.80 0.6516
985.90 0.6514
986.00 0.6512
986.10 0.6511
986.20 0.6509
986.30 0.6507
986.40 0.6505
986.50 0.6503
986.60 0.6501
986.70 0.6499
986.80 0.6497
986.90 0.6495
987.00 0.6493
987.10 0.6492
987.20 0.649
987.30 0.6488
987.40 0.6486
987.50 0.6484
987.60 0.6482
987.70 0.648
987.80 0.6478
987.90 0.6477
988.00 0.6475
988.10 0.6473
988.20 0.6471
988.30 0.6469
988.40 0.6467
988.50 0.6465
988.60 0.6463
988.70 0.6462
988.80 0.646
988.90 0.6458
989.00 0.6456
989.10 0.6454
989.20 0.6452
989.30 0.645
989.40 0.6448
989.50 0.6447
989.60 0.6445
989.70 0.6443
989.80 0.6441
989.90 0.6439
990.00 0.6437
990.10 0.6435
990.20 0.6434
990.30 0.6432
990.40 0.643
990.50 0.6428
990.60 0.6426
990.70 0.6424
990.80 0.6422
990.90 0.642
991.00 0.6419
991.10 0.6417
991.20 0.6415
991.30 0.6413
991.40 0.6411
991.50 0.6409
991.60 0.6407
991.70 0.6406
991.80 0.6404
991.90 0.6402
992.00 0.64
992.10 0.6398
992.20 0.6396
992.30 0.6394
992.40 0.6393
992.50 0.6391
992.60 0.6389
992.70 0.6387
992.80 0.6385
992.90 0.6383
993.00 0.6381
993.10 0.638
993.20 0.6378
993.30 0.6376
993.40 0.6374
993.50 0.6372
993.60 0.637
993.70 0.6369
993.80 0.6367
993.90 0.6365
994.00 0.6363
994.10 0.6361
994.20 0.6359
994.30 0.6358
994.40 0.6356
994.50 0.6354
994.60 0.6352
994.70 0.635
994.80 0.6348
994.90 0.6347
995.00 0.6345
995.10 0.6343
995.20 0.6341
995.30 0.6339
995.40 0.6337
995.50 0.6335
995.60 0.6334
995.70 0.6332
995.80 0.633
995.90 0.6328
996.00 0.6326
996.10 0.6324
996.20 0.6323
996.30 0.6321
996.40 0.6319
996.50 0.6317
996.60 0.6315
996.70 0.6313
996.80 0.6312
996.90 0.631
997.00 0.6308
997.10 0.6306
997.20 0.6304
997.30 0.6303
997.40 0.6301
997.50 0.6299
997.60 0.6297
997.70 0.6295
997.80 0.6294
997.90 0.6292
998.00 0.629
998.10 0.6288
998.20 0.6286
998.30 0.6284
998.40 0.6283
998.50 0.6281
998.60 0.6279
998.70 0.6277
998.80 0.6275
998.90 0.6274
999.00 0.6272
999.10 0.627
999.20 0.6268
999.30 0.6266
999.40 0.6265
999.50 0.6263
999.60 0.6261
999.70 0.6259
999.80 0.6257
999.90 0.6256
1000.00 0.6254
1000.10 0.6252
1000.20 0.625
1000.30 0.6248
1000.40 0.6247
1000.50 0.6245
1000.60 0.6243
1000.70 0.6241
1000.80 0.6239
1000.90 0.6238
1001.00 0.6236
1001.10 0.6234
1001.20 0.6232
1001.30 0.623
1001.40 0.6229
1001.50 0.6227
1001.60 0.6225
1001.70 0.6223
1001.80 0.6222
1001.90 0.622
1002.00 0.6218
1002.10 0.6216
1002.20 0.6214
1002.30 0.6213
1002.40 0.6211
1002.50 0.6209
1002.60 0.6207
1002.70 0.6206
1002.80 0.6204
1002.90 0.6202
1003.00 0.62
1003.10 0.6199
1003.20 0.6197
1003.30 0.6195
1003.40 0.6193
1003.50 0.6191
1003.60 0.619
1003.70 0.6188
1003.80 0.6186
1003.90 0.6184
1004.00 0.6183
1004.10 0.6181
1004.20 0.6179
1004.30 0.6177
1004.40 0.6175
1004.50 0.6174
1004.60 0.6172
1004.70 0.617
1004.80 0.6169
1004.90 0.6167
1005.00 0.6165
1005.10 0.6163
1005.20 0.6162
1005.30 0.616
1005.40 0.6158
1005.50 0.6156
1005.60 0.6155
1005.70 0.6153
1005.80 0.6151
1005.90 0.6149
1006.00 0.6148
1006.10 0.6146
1006.20 0.6144
1006.30 0.6142
1006.40 0.6141
1006.50 0.6139
1006.60 0.6137
1006.70 0.6135
1006.80 0.6134
1006.90 0.6132
1007.00 0.613
1007.10 0.6128
1007.20 0.6127
1007.30 0.6125
1007.40 0.6123
1007.50 0.6122
1007.60 0.612
1007.70 0.6118
1007.80 0.6116
1007.90 0.6115
1008.00 0.6113
1008.10 0.6111
1008.20 0.611
1008.30 0.6108
1008.40 0.6106
1008.50 0.6104
1008.60 0.6103
1008.70 0.6101
1008.80 0.6099
1008.90 0.6097
1009.00 0.6096
1009.10 0.6094
1009.20 0.6092
1009.30 0.609
1009.40 0.6089
1009.50 0.6087
1009.60 0.6085
1009.70 0.6084
1009.80 0.6082
1009.90 0.608
1010.00 0.6078
1010.10 0.6077
1010.20 0.6075
1010.30 0.6073
1010.40 0.6072
1010.50 0.607
1010.60 0.6068
1010.70 0.6066
1010.80 0.6065
1010.90 0.6063
1011.00 0.6061
1011.10 0.606
1011.20 0.6058
1011.30 0.6056
1011.40 0.6055
1011.50 0.6053
1011.60 0.6051
1011.70 0.6049
1011.80 0.6048
1011.90 0.6046
1012.00 0.6044
1012.10 0.6043
1012.20 0.6041
1012.30 0.6039
1012.40 0.6037
1012.50 0.6036
1012.60 0.6034
1012.70 0.6032
1012.80 0.6031
1012.90 0.6029
1013.00 0.6027
1013.10 0.6026
1013.20 0.6024
1013.30 0.6022
1013.40 0.6021
1013.50 0.6019
1013.60 0.6017
1013.70 0.6015
1013.80 0.6014
1013.90 0.6012
1014.00 0.601
1014.10 0.6009
1014.20 0.6007
1014.30 0.6005
1014.40 0.6004
1014.50 0.6002
1014.60 0.6
1014.70 0.5999
1014.80 0.5997
1014.90 0.5995
1015.00 0.5994
1015.10 0.5992
1015.20 0.599
1015.30 0.5989
1015.40 0.5987
1015.50 0.5985
1015.60 0.5984
1015.70 0.5982
1015.80 0.598
1015.90 0.5979
1016.00 0.5977
1016.10 0.5975
1016.20 0.5974
1016.30 0.5972
1016.40 0.597
1016.50 0.5969
1016.60 0.5967
1016.70 0.5965
1016.80 0.5964
1016.90 0.5962
1017.00 0.596
1017.10 0.5959
1017.20 0.5957
1017.30 0.5955
1017.40 0.5954
1017.50 0.5952
1017.60 0.595
1017.70 0.5949
1017.80 0.5947
1017.90 0.5945
1018.00 0.5944
1018.10 0.5942
1018.20 0.594
1018.30 0.5939
1018.40 0.5937
1018.50 0.5935
1018.60 0.5934
1018.70 0.5932
1018.80 0.5931
1018.90 0.5929
1019.00 0.5927
1019.10 0.5926
1019.20 0.5924
1019.30 0.5922
1019.40 0.5921
1019.50 0.5919
1019.60 0.5917
1019.70 0.5916
1019.80 0.5914
1019.90 0.5912
1020.00 0.5911
1020.10 0.5909
1020.20 0.5908
1020.30 0.5906
1020.40 0.5904
1020.50 0.5903
1020.60 0.5901
1020.70 0.5899
1020.80 0.5898
1020.90 0.5896
1021.00 0.5895
1021.10 0.5893
1021.20 0.5891
1021.30 0.589
1021.40 0.5888
1021.50 0.5886
1021.60 0.5885
1021.70 0.5883
1021.80 0.5882
1021.90 0.588
1022.00 0.5878
1022.10 0.5877
1022.20 0.5875
1022.30 0.5873
1022.40 0.5872
1022.50 0.587
1022.60 0.5869
1022.70 0.5867
1022.80 0.5865
1022.90 0.5864
1023.00 0.5862
1023.10 0.5861
1023.20 0.5859
1023.30 0.5857
1023.40 0.5856
1023.50 0.5854
1023.60 0.5853
1023.70 0.5851
1023.80 0.5849
1023.90 0.5848
1024.00 0.5846
1024.10 0.5845
1024.20 0.5843
1024.30 0.5841
1024.40 0.584
1024.50 0.5838
1024.60 0.5837
1024.70 0.5835
1024.80 0.5833
1024.90 0.5832
1025.00 0.583
1025.10 0.5829
1025.20 0.5827
1025.30 0.5825
1025.40 0.5824
1025.50 0.5822
1025.60 0.5821
1025.70 0.5819
1025.80 0.5818
1025.90 0.5816
1026.00 0.5814
1026.10 0.5813
1026.20 0.5811
1026.30 0.581
1026.40 0.5808
1026.50 0.5806
1026.60 0.5805
1026.70 0.5803
1026.80 0.5802
1026.90 0.58
1027.00 0.5799
1027.10 0.5797
1027.20 0.5795
1027.30 0.5794
1027.40 0.5792
1027.50 0.5791
1027.60 0.5789
1027.70 0.5788
1027.80 0.5786
1027.90 0.5785
1028.00 0.5783
1028.10 0.5781
1028.20 0.578
1028.30 0.5778
1028.40 0.5777
1028.50 0.5775
1028.60 0.5774
1028.70 0.5772
1028.80 0.5771
1028.90 0.5769
1029.00 0.5768
1029.10 0.5766
1029.20 0.5764
1029.30 0.5763
1029.40 0.5761
1029.50 0.576
1029.60 0.5758
1029.70 0.5757
1029.80 0.5755
1029.90 0.5754
1030.00 0.5752
1030.10 0.5751
1030.20 0.5749
1030.30 0.5747
1030.40 0.5746
1030.50 0.5744
1030.60 0.5743
1030.70 0.5741
1030.80 0.574
1030.90 0.5738
1031.00 0.5737
1031.10 0.5735
1031.20 0.5734
1031.30 0.5732
1031.40 0.5731
1031.50 0.5729
1031.60 0.5727
1031.70 0.5726
1031.80 0.5724
1031.90 0.5723
1032.00 0.5721
1032.10 0.572
1032.20 0.5718
1032.30 0.5717
1032.40 0.5715
1032.50 0.5714
1032.60 0.5712
1032.70 0.5711
1032.80 0.5709
1032.90 0.5708
1033.00 0.5706
1033.10 0.5705
1033.20 0.5703
1033.30 0.5702
1033.40 0.57
1033.50 0.5699
1033.60 0.5697
1033.70 0.5696
1033.80 0.5694
1033.90 0.5693
1034.00 0.5691
1034.10 0.569
1034.20 0.5688
1034.30 0.5687
1034.40 0.5685
1034.50 0.5684
1034.60 0.5682
1034.70 0.5681
1034.80 0.5679
1034.90 0.5678
1035.00 0.5676
1035.10 0.5675
1035.20 0.5674
1035.30 0.5672
1035.40 0.5671
1035.50 0.5669
1035.60 0.5668
1035.70 0.5666
1035.80 0.5665
1035.90 0.5663
1036.00 0.5662
1036.10 0.566
1036.20 0.5659
1036.30 0.5657
1036.40 0.5656
1036.50 0.5654
1036.60 0.5653
1036.70 0.5651
1036.80 0.565
1036.90 0.5648
1037.00 0.5647
1037.10 0.5645
1037.20 0.5644
1037.30 0.5642
1037.40 0.5641
1037.50 0.564
1037.60 0.5638
1037.70 0.5637
1037.80 0.5635
1037.90 0.5634
1038.00 0.5632
1038.10 0.5631
1038.20 0.5629
1038.30 0.5628
1038.40 0.5627
1038.50 0.5625
1038.60 0.5624
1038.70 0.5622
1038.80 0.5621
1038.90 0.5619
1039.00 0.5618
1039.10 0.5616
1039.20 0.5615
1039.30 0.5614
1039.40 0.5612
1039.50 0.5611
1039.60 0.5609
1039.70 0.5608
1039.80 0.5606
1039.90 0.5605
1040.00 0.5604
1040.10 0.5602
1040.20 0.5601
1040.30 0.5599
1040.40 0.5598
1040.50 0.5596
1040.60 0.5595
1040.70 0.5594
1040.80 0.5592
1040.90 0.5591
1041.00 0.5589
1041.10 0.5588
1041.20 0.5586
1041.30 0.5585
1041.40 0.5584
1041.50 0.5582
1041.60 0.5581
1041.70 0.5579
1041.80 0.5578
1041.90 0.5576
1042.00 0.5575
1042.10 0.5574
1042.20 0.5572
1042.30 0.5571
1042.40 0.5569
1042.50 0.5568
1042.60 0.5567
1042.70 0.5565
1042.80 0.5564
1042.90 0.5562
1043.00 0.5561
1043.10 0.556
1043.20 0.5558
1043.30 0.5557
1043.40 0.5555
1043.50 0.5554
1043.60 0.5553
1043.70 0.5551
1043.80 0.555
1043.90 0.5548
1044.00 0.5547
1044.10 0.5546
1044.20 0.5544
1044.30 0.5543
1044.40 0.5541
1044.50 0.554
1044.60 0.5539
1044.70 0.5537
1044.80 0.5536
1044.90 0.5535
1045.00 0.5533
1045.10 0.5532
1045.20 0.553
1045.30 0.5529
1045.40 0.5528
1045.50 0.5526
1045.60 0.5525
1045.70 0.5523
1045.80 0.5522
1045.90 0.5521
1046.00 0.5519
1046.10 0.5518
1046.20 0.5517
1046.30 0.5515
1046.40 0.5514
1046.50 0.5512
1046.60 0.5511
1046.70 0.551
1046.80 0.5508
1046.90 0.5507
1047.00 0.5506
1047.10 0.5504
1047.20 0.5503
1047.30 0.5502
1047.40 0.55
1047.50 0.5499
1047.60 0.5498
1047.70 0.5496
1047.80 0.5495
1047.90 0.5493
1048.00 0.5492
1048.10 0.5491
1048.20 0.5489
1048.30 0.5488
1048.40 0.5487
1048.50 0.5485
1048.60 0.5484
1048.70 0.5483
1048.80 0.5481
1048.90 0.548
1049.00 0.5479
1049.10 0.5477
1049.20 0.5476
1049.30 0.5475
1049.40 0.5473
1049.50 0.5472
1049.60 0.5471
1049.70 0.5469
1049.80 0.5468
1049.90 0.5467
1050.00 0.5465
1050.10 0.5464
1050.20 0.5463
1050.30 0.5461
1050.40 0.546
1050.50 0.5459
1050.60 0.5457
1050.70 0.5456
1050.80 0.5455
1050.90 0.5453
1051.00 0.5452
1051.10 0.5451
1051.20 0.545
1051.30 0.5448
1051.40 0.5447
1051.50 0.5446
1051.60 0.5444
1051.70 0.5443
1051.80 0.5442
1051.90 0.544
1052.00 0.5439
1052.10 0.5438
1052.20 0.5436
1052.30 0.5435
1052.40 0.5434
1052.50 0.5432
1052.60 0.5431
1052.70 0.543
1052.80 0.5429
1052.90 0.5427
1053.00 0.5426
1053.10 0.5425
1053.20 0.5423
1053.30 0.5422
1053.40 0.5421
1053.50 0.542
1053.60 0.5418
1053.70 0.5417
1053.80 0.5416
1053.90 0.5414
1054.00 0.5413
1054.10 0.5412
1054.20 0.5411
1054.30 0.5409
1054.40 0.5408
1054.50 0.5407
1054.60 0.5406
1054.70 0.5404
1054.80 0.5403
1054.90 0.5402
1055.00 0.54
1055.10 0.5399
1055.20 0.5398
1055.30 0.5397
1055.40 0.5395
1055.50 0.5394
1055.60 0.5393
1055.70 0.5391
1055.80 0.539
1055.90 0.5389
1056.00 0.5388
1056.10 0.5386
1056.20 0.5385
1056.30 0.5384
1056.40 0.5383
1056.50 0.5381
1056.60 0.538
1056.70 0.5379
1056.80 0.5377
1056.90 0.5376
1057.00 0.5375
1057.10 0.5374
1057.20 0.5372
1057.30 0.5371
1057.40 0.537
1057.50 0.5369
1057.60 0.5368
1057.70 0.5366
1057.80 0.5365
1057.90 0.5364
1058.00 0.5363
1058.10 0.5361
1058.20 0.536
1058.30 0.5359
1058.40 0.5358
1058.50 0.5356
1058.60 0.5355
1058.70 0.5354
1058.80 0.5353
1058.90 0.5351
1059.00 0.535
1059.10 0.5349
1059.20 0.5348
1059.30 0.5347
1059.40 0.5345
1059.50 0.5344
1059.60 0.5343
1059.70 0.5342
1059.80 0.534
1059.90 0.5339
1060.00 0.5338
1060.10 0.5337
1060.20 0.5335
1060.30 0.5334
1060.40 0.5333
1060.50 0.5332
1060.60 0.5331
1060.70 0.5329
1060.80 0.5328
1060.90 0.5327
1061.00 0.5326
1061.10 0.5324
1061.20 0.5323
1061.30 0.5322
1061.40 0.5321
1061.50 0.532
1061.60 0.5318
1061.70 0.5317
1061.80 0.5316
1061.90 0.5315
1062.00 0.5313
1062.10 0.5312
1062.20 0.5311
1062.30 0.531
1062.40 0.5309
1062.50 0.5307
1062.60 0.5306
1062.70 0.5305
1062.80 0.5304
1062.90 0.5303
1063.00 0.5302
1063.10 0.53
1063.20 0.5299
1063.30 0.5298
1063.40 0.5297
1063.50 0.5296
1063.60 0.5294
1063.70 0.5293
1063.80 0.5292
1063.90 0.5291
1064.00 0.529
1064.10 0.5289
1064.20 0.5287
1064.30 0.5286
1064.40 0.5285
1064.50 0.5284
1064.60 0.5283
1064.70 0.5281
1064.80 0.528
1064.90 0.5279
1065.00 0.5278
1065.10 0.5277
1065.20 0.5276
1065.30 0.5274
1065.40 0.5273
1065.50 0.5272
1065.60 0.5271
1065.70 0.527
1065.80 0.5269
1065.90 0.5267
1066.00 0.5266
1066.10 0.5265
1066.20 0.5264
1066.30 0.5263
1066.40 0.5261
1066.50 0.526
1066.60 0.5259
1066.70 0.5258
1066.80 0.5257
1066.90 0.5256
1067.00 0.5254
1067.10 0.5253
1067.20 0.5252
1067.30 0.5251
1067.40 0.525
1067.50 0.5249
1067.60 0.5248
1067.70 0.5247
1067.80 0.5245
1067.90 0.5244
1068.00 0.5243
1068.10 0.5242
1068.20 0.5241
1068.30 0.524
1068.40 0.5239
1068.50 0.5237
1068.60 0.5236
1068.70 0.5235
1068.80 0.5234
1068.90 0.5233
1069.00 0.5232
1069.10 0.5231
1069.20 0.523
1069.30 0.5228
1069.40 0.5227
1069.50 0.5226
1069.60 0.5225
1069.70 0.5224
1069.80 0.5223
1069.90 0.5222
1070.00 0.5221
1070.10 0.5219
1070.20 0.5218
1070.30 0.5217
1070.40 0.5216
1070.50 0.5215
1070.60 0.5214
1070.70 0.5213
1070.80 0.5212
1070.90 0.521
1071.00 0.5209
1071.10 0.5208
1071.20 0.5207
1071.30 0.5206
1071.40 0.5205
1071.50 0.5204
1071.60 0.5203
1071.70 0.5201
1071.80 0.52
1071.90 0.5199
1072.00 0.5198
1072.10 0.5197
1072.20 0.5196
1072.30 0.5195
1072.40 0.5194
1072.50 0.5193
1072.60 0.5191
1072.70 0.519
1072.80 0.5189
1072.90 0.5188
1073.00 0.5187
1073.10 0.5186
1073.20 0.5185
1073.30 0.5184
1073.40 0.5183
1073.50 0.5181
1073.60 0.518
1073.70 0.5179
1073.80 0.5178
1073.90 0.5177
1074.00 0.5176
1074.10 0.5175
1074.20 0.5174
1074.30 0.5173
1074.40 0.5172
1074.50 0.517
1074.60 0.5169
1074.70 0.5168
1074.80 0.5167
1074.90 0.5166
1075.00 0.5165
1075.10 0.5164
1075.20 0.5163
1075.30 0.5162
1075.40 0.5161
1075.50 0.5159
1075.60 0.5158
1075.70 0.5157
1075.80 0.5156
1075.90 0.5155
1076.00 0.5154
1076.10 0.5153
1076.20 0.5152
1076.30 0.5151
1076.40 0.515
1076.50 0.5149
1076.60 0.5147
1076.70 0.5146
1076.80 0.5145
1076.90 0.5144
1077.00 0.5143
1077.10 0.5142
1077.20 0.5141
1077.30 0.514
1077.40 0.5139
1077.50 0.5138
1077.60 0.5137
1077.70 0.5136
1077.80 0.5135
1077.90 0.5133
1078.00 0.5132
1078.10 0.5131
1078.20 0.513
1078.30 0.5129
1078.40 0.5128
1078.50 0.5127
1078.60 0.5126
1078.70 0.5125
1078.80 0.5124
1078.90 0.5123
1079.00 0.5122
1079.10 0.5121
1079.20 0.5119
1079.30 0.5118
1079.40 0.5117
1079.50 0.5116
1079.60 0.5115
1079.70 0.5114
1079.80 0.5113
1079.90 0.5112
1080.00 0.5111
1080.10 0.511
1080.20 0.5109
1080.30 0.5108
1080.40 0.5107
1080.50 0.5106
1080.60 0.5105
1080.70 0.5104
1080.80 0.5103
1080.90 0.5102
1081.00 0.51
1081.10 0.5099
1081.20 0.5098
1081.30 0.5097
1081.40 0.5096
1081.50 0.5095
1081.60 0.5094
1081.70 0.5093
1081.80 0.5092
1081.90 0.5091
1082.00 0.509
1082.10 0.5089
1082.20 0.5088
1082.30 0.5087
1082.40 0.5086
1082.50 0.5085
1082.60 0.5084
1082.70 0.5083
1082.80 0.5082
1082.90 0.5081
1083.00 0.5079
1083.10 0.5078
1083.20 0.5077
1083.30 0.5076
1083.40 0.5075
1083.50 0.5074
1083.60 0.5073
1083.70 0.5072
1083.80 0.5071
1083.90 0.507
1084.00 0.5069
1084.10 0.5068
1084.20 0.5067
1084.30 0.5066
1084.40 0.5065
1084.50 0.5064
1084.60 0.5063
1084.70 0.5062
1084.80 0.5061
1084.90 0.506
1085.00 0.5059
1085.10 0.5058
1085.20 0.5057
1085.30 0.5056
1085.40 0.5055
1085.50 0.5054
1085.60 0.5053
1085.70 0.5052
1085.80 0.505
1085.90 0.5049
1086.00 0.5048
1086.10 0.5047
1086.20 0.5046
1086.30 0.5045
1086.40 0.5044
1086.50 0.5043
1086.60 0.5042
1086.70 0.5041
1086.80 0.504
1086.90 0.5039
1087.00 0.5038
1087.10 0.5037
1087.20 0.5036
1087.30 0.5035
1087.40 0.5034
1087.50 0.5033
1087.60 0.5032
1087.70 0.5031
1087.80 0.503
1087.90 0.5029
1088.00 0.5028
1088.10 0.5027
1088.20 0.5026
1088.30 0.5025
1088.40 0.5024
1088.50 0.5023
1088.60 0.5022
1088.70 0.5021
1088.80 0.502
1088.90 0.5019
1089.00 0.5018
1089.10 0.5017
1089.20 0.5016
1089.30 0.5015
1089.40 0.5014
1089.50 0.5013
1089.60 0.5012
1089.70 0.5011
1089.80 0.501
1089.90 0.5009
1090.00 0.5008
1090.10 0.5007
1090.20 0.5006
1090.30 0.5005
1090.40 0.5004
1090.50 0.5003
1090.60 0.5002
1090.70 0.5001
1090.80 0.5
1090.90 0.4999
1091.00 0.4998
1091.10 0.4997
1091.20 0.4996
1091.30 0.4995
1091.40 0.4994
1091.50 0.4993
1091.60 0.4992
1091.70 0.4991
1091.80 0.499
1091.90 0.4989
1092.00 0.4988
1092.10 0.4987
1092.20 0.4986
1092.30 0.4985
1092.40 0.4984
1092.50 0.4983
1092.60 0.4982
1092.70 0.4981
1092.80 0.498
1092.90 0.4979
1093.00 0.4978
1093.10 0.4977
1093.20 0.4976
1093.30 0.4975
1093.40 0.4974
1093.50 0.4973
1093.60 0.4972
1093.70 0.4971
1093.80 0.497
1093.90 0.4969
1094.00 0.4968
1094.10 0.4967
1094.20 0.4966
1094.30 0.4965
1094.40 0.4964
1094.50 0.4963
1094.60 0.4962
1094.70 0.4961
1094.80 0.496
1094.90 0.4959
1095.00 0.4958
1095.10 0.4957
1095.20 0.4956
1095.30 0.4955
1095.40 0.4954
1095.50 0.4953
1095.60 0.4952
1095.70 0.4951
1095.80 0.495
1095.90 0.4949
1096.00 0.4948
1096.10 0.4947
1096.20 0.4946
1096.30 0.4945
1096.40 0.4944
1096.50 0.4944
1096.60 0.4943
1096.70 0.4942
1096.80 0.4941
1096.90 0.494
1097.00 0.4939
1097.10 0.4938
1097.20 0.4937
1097.30 0.4936
1097.40 0.4935
1097.50 0.4934
1097.60 0.4933
1097.70 0.4932
1097.80 0.4931
1097.90 0.493
1098.00 0.4929
1098.10 0.4928
1098.20 0.4927
1098.30 0.4926
1098.40 0.4925
1098.50 0.4924
1098.60 0.4923
1098.70 0.4922
1098.80 0.4921
1098.90 0.492
1099.00 0.4919
1099.10 0.4918
1099.20 0.4917
1099.30 0.4916
1099.40 0.4915
1099.50 0.4914
1099.60 0.4913
1099.70 0.4912
1099.80 0.4911
1099.90 0.491
1100.00 0.4909
1100.10 0.4908
1100.20 0.4907
1100.30 0.4907
1100.40 0.4906
1100.50 0.4905
1100.60 0.4904
1100.70 0.4903
1100.80 0.4902
1100.90 0.4901
1101.00 0.49
1101.10 0.4899
1101.20 0.4898
1101.30 0.4897
1101.40 0.4896
1101.50 0.4895
1101.60 0.4894
1101.70 0.4893
1101.80 0.4892
1101.90 0.4891
1102.00 0.489
1102.10 0.4889
1102.20 0.4888
1102.30 0.4887
1102.40 0.4886
1102.50 0.4885
1102.60 0.4884
1102.70 0.4883
1102.80 0.4882
1102.90 0.4881
1103.00 0.488
1103.10 0.488
1103.20 0.4879
1103.30 0.4878
1103.40 0.4877
1103.50 0.4876
1103.60 0.4875
1103.70 0.4874
1103.80 0.4873
1103.90 0.4872
1104.00 0.4871
1104.10 0.487
1104.20 0.4869
1104.30 0.4868
1104.40 0.4867
1104.50 0.4866
1104.60 0.4865
1104.70 0.4864
1104.80 0.4863
1104.90 0.4862
1105.00 0.4861
1105.10 0.486
1105.20 0.4859
1105.30 0.4858
1105.40 0.4857
1105.50 0.4857
1105.60 0.4856
1105.70 0.4855
1105.80 0.4854
1105.90 0.4853
1106.00 0.4852
1106.10 0.4851
1106.20 0.485
1106.30 0.4849
1106.40 0.4848
1106.50 0.4847
1106.60 0.4846
1106.70 0.4845
1106.80 0.4844
1106.90 0.4843
1107.00 0.4842
1107.10 0.4841
1107.20 0.484
1107.30 0.4839
1107.40 0.4838
1107.50 0.4837
1107.60 0.4837
1107.70 0.4836
1107.80 0.4835
1107.90 0.4834
1108.00 0.4833
1108.10 0.4832
1108.20 0.4831
1108.30 0.483
1108.40 0.4829
1108.50 0.4828
1108.60 0.4827
1108.70 0.4826
1108.80 0.4825
1108.90 0.4824
1109.00 0.4823
1109.10 0.4822
1109.20 0.4821
1109.30 0.482
1109.40 0.4819
1109.50 0.4819
1109.60 0.4818
1109.70 0.4817
1109.80 0.4816
1109.90 0.4815
1110.00 0.4814
1110.10 0.4813
1110.20 0.4812
1110.30 0.4811
1110.40 0.481
1110.50 0.4809
1110.60 0.4808
1110.70 0.4807
1110.80 0.4806
1110.90 0.4805
1111.00 0.4804
1111.10 0.4804
1111.20 0.4803
1111.30 0.4802
1111.40 0.4801
1111.50 0.48
1111.60 0.4799
1111.70 0.4798
1111.80 0.4797
1111.90 0.4796
1112.00 0.4795
1112.10 0.4794
1112.20 0.4793
1112.30 0.4792
1112.40 0.4791
1112.50 0.479
1112.60 0.479
1112.70 0.4789
1112.80 0.4788
1112.90 0.4787
1113.00 0.4786
1113.10 0.4785
1113.20 0.4784
1113.30 0.4783
1113.40 0.4782
1113.50 0.4781
1113.60 0.478
1113.70 0.4779
1113.80 0.4778
1113.90 0.4777
1114.00 0.4777
1114.10 0.4776
1114.20 0.4775
1114.30 0.4774
1114.40 0.4773
1114.50 0.4772
1114.60 0.4771
1114.70 0.477
1114.80 0.4769
1114.90 0.4768
1115.00 0.4767
1115.10 0.4766
1115.20 0.4765
1115.30 0.4765
1115.40 0.4764
1115.50 0.4763
1115.60 0.4762
1115.70 0.4761
1115.80 0.476
1115.90 0.4759
1116.00 0.4758
1116.10 0.4757
1116.20 0.4756
1116.30 0.4755
1116.40 0.4754
1116.50 0.4753
1116.60 0.4753
1116.70 0.4752
1116.80 0.4751
1116.90 0.475
1117.00 0.4749
1117.10 0.4748
1117.20 0.4747
1117.30 0.4746
1117.40 0.4745
1117.50 0.4744
1117.60 0.4743
1117.70 0.4742
1117.80 0.4742
1117.90 0.4741
1118.00 0.474
1118.10 0.4739
1118.20 0.4738
1118.30 0.4737
1118.40 0.4736
1118.50 0.4735
1118.60 0.4734
1118.70 0.4733
1118.80 0.4732
1118.90 0.4731
1119.00 0.4731
1119.10 0.473
1119.20 0.4729
1119.30 0.4728
1119.40 0.4727
1119.50 0.4726
1119.60 0.4725
1119.70 0.4724
1119.80 0.4723
1119.90 0.4722
1120.00 0.4721
1120.10 0.4721
1120.20 0.472
1120.30 0.4719
1120.40 0.4718
1120.50 0.4717
1120.60 0.4716
1120.70 0.4715
1120.80 0.4714
1120.90 0.4713
1121.00 0.4712
1121.10 0.4711
1121.20 0.471
1121.30 0.471
1121.40 0.4709
1121.50 0.4708
1121.60 0.4707
1121.70 0.4706
1121.80 0.4705
1121.90 0.4704
1122.00 0.4703
1122.10 0.4702
1122.20 0.4701
1122.30 0.4701
1122.40 0.47
1122.50 0.4699
1122.60 0.4698
1122.70 0.4697
1122.80 0.4696
1122.90 0.4695
1123.00 0.4694
1123.10 0.4693
1123.20 0.4692
1123.30 0.4691
1123.40 0.469
1123.50 0.469
1123.60 0.4689
1123.70 0.4688
1123.80 0.4687
1123.90 0.4686
1124.00 0.4685
1124.10 0.4684
1124.20 0.4683
1124.30 0.4682
1124.40 0.4681
1124.50 0.4681
1124.60 0.468
1124.70 0.4679
1124.80 0.4678
1124.90 0.4677
1125.00 0.4676
1125.10 0.4675
1125.20 0.4674
1125.30 0.4673
1125.40 0.4672
1125.50 0.4671
1125.60 0.4671
1125.70 0.467
1125.80 0.4669
1125.90 0.4668
1126.00 0.4667
1126.10 0.4666
1126.20 0.4665
1126.30 0.4664
1126.40 0.4663
1126.50 0.4662
1126.60 0.4662
1126.70 0.4661
1126.80 0.466
1126.90 0.4659
1127.00 0.4658
1127.10 0.4657
1127.20 0.4656
1127.30 0.4655
1127.40 0.4654
1127.50 0.4653
1127.60 0.4653
1127.70 0.4652
1127.80 0.4651
1127.90 0.465
1128.00 0.4649
1128.10 0.4648
1128.20 0.4647
1128.30 0.4646
1128.40 0.4645
1128.50 0.4644
1128.60 0.4644
1128.70 0.4643
1128.80 0.4642
1128.90 0.4641
1129.00 0.464
1129.10 0.4639
1129.20 0.4638
1129.30 0.4637
1129.40 0.4636
1129.50 0.4635
1129.60 0.4635
1129.70 0.4634
1129.80 0.4633
1129.90 0.4632
1130.00 0.4631
1130.10 0.463
1130.20 0.4629
1130.30 0.4628
1130.40 0.4627
1130.50 0.4627
1130.60 0.4626
1130.70 0.4625
1130.80 0.4624
1130.90 0.4623
1131.00 0.4622
1131.10 0.4621
1131.20 0.462
1131.30 0.4619
1131.40 0.4618
1131.50 0.4618
1131.60 0.4617
1131.70 0.4616
1131.80 0.4615
1131.90 0.4614
1132.00 0.4613
1132.10 0.4612
1132.20 0.4611
1132.30 0.461
1132.40 0.461
1132.50 0.4609
1132.60 0.4608
1132.70 0.4607
1132.80 0.4606
1132.90 0.4605
1133.00 0.4604
1133.10 0.4603
1133.20 0.4602
1133.30 0.4601
1133.40 0.46
1133.50 0.46
1133.60 0.4599
1133.70 0.4598
1133.80 0.4597
1133.90 0.4596
1134.00 0.4595
1134.10 0.4594
1134.20 0.4593
1134.30 0.4592
1134.40 0.4591
1134.50 0.4591
1134.60 0.459
1134.70 0.4589
1134.80 0.4588
1134.90 0.4587
1135.00 0.4586
1135.10 0.4585
1135.20 0.4584
1135.30 0.4583
1135.40 0.4582
1135.50 0.4582
1135.60 0.4581
1135.70 0.458
1135.80 0.4579
1135.90 0.4578
1136.00 0.4577
1136.10 0.4576
1136.20 0.4575
1136.30 0.4574
1136.40 0.4574
1136.50 0.4573
1136.60 0.4572
1136.70 0.4571
1136.80 0.457
1136.90 0.4569
1137.00 0.4568
1137.10 0.4567
1137.20 0.4566
1137.30 0.4565
1137.40 0.4565
1137.50 0.4564
1137.60 0.4563
1137.70 0.4562
1137.80 0.4561
1137.90 0.456
1138.00 0.4559
1138.10 0.4558
1138.20 0.4557
1138.30 0.4556
1138.40 0.4556
1138.50 0.4555
1138.60 0.4554
1138.70 0.4553
1138.80 0.4552
1138.90 0.4551
1139.00 0.455
1139.10 0.4549
1139.20 0.4548
1139.30 0.4547
1139.40 0.4547
1139.50 0.4546
1139.60 0.4545
1139.70 0.4544
1139.80 0.4543
1139.90 0.4542
1140.00 0.4541
1140.10 0.454
1140.20 0.4539
1140.30 0.4538
1140.40 0.4538
1140.50 0.4537
1140.60 0.4536
1140.70 0.4535
1140.80 0.4534
1140.90 0.4533
1141.00 0.4532
1141.10 0.4531
1141.20 0.453
1141.30 0.453
1141.40 0.4529
1141.50 0.4528
1141.60 0.4527
1141.70 0.4526
1141.80 0.4525
1141.90 0.4524
1142.00 0.4523
1142.10 0.4522
1142.20 0.4521
1142.30 0.4521
1142.40 0.452
1142.50 0.4519
1142.60 0.4518
1142.70 0.4517
1142.80 0.4516
1142.90 0.4515
1143.00 0.4514
1143.10 0.4513
1143.20 0.4512
1143.30 0.4512
1143.40 0.4511
1143.50 0.451
1143.60 0.4509
1143.70 0.4508
1143.80 0.4507
1143.90 0.4506
1144.00 0.4505
1144.10 0.4504
1144.20 0.4504
1144.30 0.4503
1144.40 0.4502
1144.50 0.4501
1144.60 0.45
1144.70 0.4499
1144.80 0.4498
1144.90 0.4497
1145.00 0.4496
1145.10 0.4495
1145.20 0.4495
1145.30 0.4494
1145.40 0.4493
1145.50 0.4492
1145.60 0.4491
1145.70 0.449
1145.80 0.4489
1145.90 0.4488
1146.00 0.4487
1146.10 0.4487
1146.20 0.4486
1146.30 0.4485
1146.40 0.4484
1146.50 0.4483
1146.60 0.4482
1146.70 0.4481
1146.80 0.448
1146.90 0.4479
1147.00 0.4479
1147.10 0.4478
1147.20 0.4477
1147.30 0.4476
1147.40 0.4475
1147.50 0.4474
1147.60 0.4473
1147.70 0.4472
1147.80 0.4471
1147.90 0.447
1148.00 0.447
1148.10 0.4469
1148.20 0.4468
1148.30 0.4467
1148.40 0.4466
1148.50 0.4465
1148.60 0.4464
1148.70 0.4463
1148.80 0.4462
1148.90 0.4461
1149.00 0.4461
1149.10 0.446
1149.20 0.4459
1149.30 0.4458
1149.40 0.4457
1149.50 0.4456
1149.60 0.4455
1149.70 0.4454
1149.80 0.4453
1149.90 0.4452
1150.00 0.4452
1150.10 0.4451
1150.20 0.445
1150.30 0.4449
1150.40 0.4448
1150.50 0.4447
1150.60 0.4446
1150.70 0.4445
1150.80 0.4444
1150.90 0.4443
1151.00 0.4443
1151.10 0.4442
1151.20 0.4441
1151.30 0.444
1151.40 0.4439
1151.50 0.4438
1151.60 0.4437
1151.70 0.4436
1151.80 0.4435
1151.90 0.4435
1152.00 0.4434
1152.10 0.4433
1152.20 0.4432
1152.30 0.4431
1152.40 0.443
1152.50 0.4429
1152.60 0.4428
1152.70 0.4427
1152.80 0.4426
1152.90 0.4425
1153.00 0.4425
1153.10 0.4424
1153.20 0.4423
1153.30 0.4422
1153.40 0.4421
1153.50 0.442
1153.60 0.4419
1153.70 0.4418
1153.80 0.4417
1153.90 0.4416
1154.00 0.4416
1154.10 0.4415
1154.20 0.4414
1154.30 0.4413
1154.40 0.4412
1154.50 0.4411
1154.60 0.441
1154.70 0.4409
1154.80 0.4408
1154.90 0.4407
1155.00 0.4407
1155.10 0.4406
1155.20 0.4405
1155.30 0.4404
1155.40 0.4403
1155.50 0.4402
1155.60 0.4401
1155.70 0.44
1155.80 0.4399
1155.90 0.4398
1156.00 0.4398
1156.10 0.4397
1156.20 0.4396
1156.30 0.4395
1156.40 0.4394
1156.50 0.4393
1156.60 0.4392
1156.70 0.4391
1156.80 0.439
1156.90 0.4389
1157.00 0.4389
1157.10 0.4388
1157.20 0.4387
1157.30 0.4386
1157.40 0.4385
1157.50 0.4384
1157.60 0.4383
1157.70 0.4382
1157.80 0.4381
1157.90 0.438
1158.00 0.4379
1158.10 0.4379
1158.20 0.4378
1158.30 0.4377
1158.40 0.4376
1158.50 0.4375
1158.60 0.4374
1158.70 0.4373
1158.80 0.4372
1158.90 0.4371
1159.00 0.437
1159.10 0.4369
1159.20 0.4369
1159.30 0.4368
1159.40 0.4367
1159.50 0.4366
1159.60 0.4365
1159.70 0.4364
1159.80 0.4363
1159.90 0.4362
1160.00 0.4361
1160.10 0.436
1160.20 0.4359
1160.30 0.4359
1160.40 0.4358
1160.50 0.4357
1160.60 0.4356
1160.70 0.4355
1160.80 0.4354
1160.90 0.4353
1161.00 0.4352
1161.10 0.4351
1161.20 0.435
1161.30 0.435
1161.40 0.4349
1161.50 0.4348
1161.60 0.4347
1161.70 0.4346
1161.80 0.4345
1161.90 0.4344
1162.00 0.4343
1162.10 0.4342
1162.20 0.4341
1162.30 0.434
1162.40 0.434
1162.50 0.4339
1162.60 0.4338
1162.70 0.4337
1162.80 0.4336
1162.90 0.4335
1163.00 0.4334
1163.10 0.4333
1163.20 0.4332
1163.30 0.4331
1163.40 0.433
1163.50 0.4329
1163.60 0.4328
1163.70 0.4328
1163.80 0.4327
1163.90 0.4326
1164.00 0.4325
1164.10 0.4324
1164.20 0.4323
1164.30 0.4322
1164.40 0.4321
1164.50 0.432
1164.60 0.4319
1164.70 0.4318
1164.80 0.4318
1164.90 0.4317
1165.00 0.4316
1165.10 0.4315
1165.20 0.4314
1165.30 0.4313
1165.40 0.4312
1165.50 0.4311
1165.60 0.431
1165.70 0.4309
1165.80 0.4308
1165.90 0.4307
1166.00 0.4307
1166.10 0.4306
1166.20 0.4305
1166.30 0.4304
1166.40 0.4303
1166.50 0.4302
1166.60 0.4301
1166.70 0.43
1166.80 0.4299
1166.90 0.4298
1167.00 0.4297
1167.10 0.4297
1167.20 0.4296
1167.30 0.4295
1167.40 0.4294
1167.50 0.4293
1167.60 0.4292
1167.70 0.4291
1167.80 0.429
1167.90 0.4289
1168.00 0.4288
1168.10 0.4287
1168.20 0.4286
1168.30 0.4286
1168.40 0.4285
1168.50 0.4284
1168.60 0.4283
1168.70 0.4282
1168.80 0.4281
1168.90 0.428
1169.00 0.4279
1169.10 0.4278
1169.20 0.4277
1169.30 0.4276
1169.40 0.4275
1169.50 0.4274
1169.60 0.4274
1169.70 0.4273
1169.80 0.4272
1169.90 0.4271
1170.00 0.427
1170.10 0.4269
1170.20 0.4268
1170.30 0.4267
1170.40 0.4266
1170.50 0.4265
1170.60 0.4264
1170.70 0.4264
1170.80 0.4263
1170.90 0.4262
1171.00 0.4261
1171.10 0.426
1171.20 0.4259
1171.30 0.4258
1171.40 0.4257
1171.50 0.4256
1171.60 0.4255
1171.70 0.4254
1171.80 0.4254
1171.90 0.4253
1172.00 0.4252
1172.10 0.4251
1172.20 0.425
1172.30 0.4249
1172.40 0.4248
1172.50 0.4247
1172.60 0.4246
1172.70 0.4245
1172.80 0.4244
1172.90 0.4243
1173.00 0.4242
1173.10 0.4241
1173.20 0.4241
1173.30 0.424
1173.40 0.4239
1173.50 0.4238
1173.60 0.4237
1173.70 0.4236
1173.80 0.4235
1173.90 0.4234
1174.00 0.4233
1174.10 0.4232
1174.20 0.4231
1174.30 0.423
1174.40 0.4229
1174.50 0.4229
1174.60 0.4228
1174.70 0.4227
1174.80 0.4226
1174.90 0.4225
1175.00 0.4224
1175.10 0.4223
1175.20 0.4222
1175.30 0.4221
1175.40 0.422
1175.50 0.4219
1175.60 0.4218
1175.70 0.4218
1175.80 0.4217
1175.90 0.4216
1176.00 0.4215
1176.10 0.4214
1176.20 0.4213
1176.30 0.4212
1176.40 0.4211
1176.50 0.421
1176.60 0.4209
1176.70 0.4208
1176.80 0.4207
1176.90 0.4207
1177.00 0.4206
1177.10 0.4205
1177.20 0.4204
1177.30 0.4203
1177.40 0.4202
1177.50 0.4201
1177.60 0.42
1177.70 0.4199
1177.80 0.4198
1177.90 0.4197
1178.00 0.4196
1178.10 0.4195
1178.20 0.4194
1178.30 0.4193
1178.40 0.4193
1178.50 0.4192
1178.60 0.4191
1178.70 0.419
1178.80 0.4189
1178.90 0.4188
1179.00 0.4187
1179.10 0.4186
1179.20 0.4185
1179.30 0.4184
1179.40 0.4183
1179.50 0.4182
1179.60 0.4181
1179.70 0.4181
1179.80 0.418
1179.90 0.4179
1180.00 0.4178
1180.10 0.4177
1180.20 0.4176
1180.30 0.4175
1180.40 0.4174
1180.50 0.4173
1180.60 0.4172
1180.70 0.4171
1180.80 0.417
1180.90 0.4169
1181.00 0.4169
1181.10 0.4168
1181.20 0.4167
1181.30 0.4166
1181.40 0.4165
1181.50 0.4164
1181.60 0.4163
1181.70 0.4162
1181.80 0.4161
1181.90 0.416
1182.00 0.4159
1182.10 0.4158
1182.20 0.4157
1182.30 0.4157
1182.40 0.4156
1182.50 0.4155
1182.60 0.4154
1182.70 0.4153
1182.80 0.4152
1182.90 0.4151
1183.00 0.415
1183.10 0.4149
1183.20 0.4148
1183.30 0.4147
1183.40 0.4146
1183.50 0.4145
1183.60 0.4144
1183.70 0.4143
1183.80 0.4142
1183.90 0.4142
1184.00 0.4141
1184.10 0.414
1184.20 0.4139
1184.30 0.4138
1184.40 0.4137
1184.50 0.4136
1184.60 0.4135
1184.70 0.4134
1184.80 0.4133
1184.90 0.4132
1185.00 0.4131
1185.10 0.413
1185.20 0.4129
1185.30 0.4129
1185.40 0.4128
1185.50 0.4127
1185.60 0.4126
1185.70 0.4125
1185.80 0.4124
1185.90 0.4123
1186.00 0.4122
1186.10 0.4121
1186.20 0.412
1186.30 0.4119
1186.40 0.4118
1186.50 0.4117
1186.60 0.4116
1186.70 0.4116
1186.80 0.4115
1186.90 0.4114
1187.00 0.4113
1187.10 0.4112
1187.20 0.4111
1187.30 0.411
1187.40 0.4109
1187.50 0.4108
1187.60 0.4107
1187.70 0.4106
1187.80 0.4105
1187.90 0.4104
1188.00 0.4103
1188.10 0.4102
1188.20 0.4102
1188.30 0.4101
1188.40 0.41
1188.50 0.4099
1188.60 0.4098
1188.70 0.4097
1188.80 0.4096
1188.90 0.4095
1189.00 0.4094
1189.10 0.4093
1189.20 0.4092
1189.30 0.4091
1189.40 0.409
1189.50 0.4089
1189.60 0.4089
1189.70 0.4088
1189.80 0.4087
1189.90 0.4086
1190.00 0.4085
1190.10 0.4084
1190.20 0.4083
1190.30 0.4082
1190.40 0.4081
1190.50 0.408
1190.60 0.4079
1190.70 0.4078
1190.80 0.4077
1190.90 0.4076
1191.00 0.4076
1191.10 0.4075
1191.20 0.4074
1191.30 0.4073
1191.40 0.4072
1191.50 0.4071
1191.60 0.407
1191.70 0.4069
1191.80 0.4068
1191.90 0.4067
1192.00 0.4066
1192.10 0.4065
1192.20 0.4064
1192.30 0.4063
1192.40 0.4063
1192.50 0.4062
1192.60 0.4061
1192.70 0.406
1192.80 0.4059
1192.90 0.4058
1193.00 0.4057
1193.10 0.4056
1193.20 0.4055
1193.30 0.4054
1193.40 0.4053
1193.50 0.4052
1193.60 0.4051
1193.70 0.405
1193.80 0.405
1193.90 0.4049
1194.00 0.4048
1194.10 0.4047
1194.20 0.4046
1194.30 0.4045
1194.40 0.4044
1194.50 0.4043
1194.60 0.4042
1194.70 0.4041
1194.80 0.404
1194.90 0.4039
1195.00 0.4038
1195.10 0.4037
1195.20 0.4037
1195.30 0.4036
1195.40 0.4035
1195.50 0.4034
1195.60 0.4033
1195.70 0.4032
1195.80 0.4031
1195.90 0.403
1196.00 0.4029
1196.10 0.4028
1196.20 0.4027
1196.30 0.4026
1196.40 0.4025
1196.50 0.4025
1196.60 0.4024
1196.70 0.4023
1196.80 0.4022
1196.90 0.4021
1197.00 0.402
1197.10 0.4019
1197.20 0.4018
1197.30 0.4017
1197.40 0.4016
1197.50 0.4015
1197.60 0.4014
1197.70 0.4013
1197.80 0.4012
1197.90 0.4012
1198.00 0.4011
1198.10 0.401
1198.20 0.4009
1198.30 0.4008
1198.40 0.4007
1198.50 0.4006
1198.60 0.4005
1198.70 0.4004
1198.80 0.4003
1198.90 0.4002
1199.00 0.4001
1199.10 0.4
1199.20 0.3999
1199.30 0.3998
1199.40 0.3998
1199.50 0.3997
1199.60 0.3996
1199.70 0.3995
1199.80 0.3994
1199.90 0.3993
1200.00 0
