# Version 2.1 - nm, norm@500 to 1, cut digits, bergeron_30000_65.dat_30000
# Wavelength(nm)  Flambda(ergs/cm^s/s/nm)
300.00 4.89
300.10 4.884
300.20 4.879
300.30 4.873
300.40 4.868
300.50 4.862
300.60 4.857
300.70 4.851
300.80 4.846
300.90 4.84
301.00 4.835
301.10 4.829
301.20 4.824
301.30 4.819
301.40 4.813
301.50 4.808
301.60 4.802
301.70 4.797
301.80 4.792
301.90 4.786
302.00 4.781
302.10 4.776
302.20 4.77
302.30 4.765
302.40 4.76
302.50 4.754
302.60 4.749
302.70 4.744
302.80 4.738
302.90 4.733
303.00 4.728
303.10 4.722
303.20 4.717
303.30 4.712
303.40 4.707
303.50 4.701
303.60 4.696
303.70 4.691
303.80 4.686
303.90 4.681
304.00 4.675
304.10 4.67
304.20 4.665
304.30 4.66
304.40 4.655
304.50 4.649
304.60 4.644
304.70 4.639
304.80 4.634
304.90 4.629
305.00 4.624
305.10 4.619
305.20 4.613
305.30 4.608
305.40 4.603
305.50 4.598
305.60 4.593
305.70 4.588
305.80 4.583
305.90 4.578
306.00 4.573
306.10 4.568
306.20 4.563
306.30 4.558
306.40 4.552
306.50 4.547
306.60 4.542
306.70 4.537
306.80 4.532
306.90 4.527
307.00 4.522
307.10 4.517
307.20 4.512
307.30 4.507
307.40 4.503
307.50 4.498
307.60 4.493
307.70 4.488
307.80 4.483
307.90 4.478
308.00 4.473
308.10 4.468
308.20 4.463
308.30 4.458
308.40 4.453
308.50 4.448
308.60 4.443
308.70 4.439
308.80 4.434
308.90 4.429
309.00 4.424
309.10 4.419
309.20 4.414
309.30 4.409
309.40 4.405
309.50 4.4
309.60 4.395
309.70 4.39
309.80 4.385
309.90 4.381
310.00 4.376
310.10 4.371
310.20 4.366
310.30 4.361
310.40 4.357
310.50 4.352
310.60 4.347
310.70 4.342
310.80 4.338
310.90 4.333
311.00 4.328
311.10 4.324
311.20 4.319
311.30 4.314
311.40 4.309
311.50 4.305
311.60 4.3
311.70 4.295
311.80 4.291
311.90 4.286
312.00 4.281
312.10 4.277
312.20 4.272
312.30 4.267
312.40 4.263
312.50 4.258
312.60 4.254
312.70 4.249
312.80 4.244
312.90 4.24
313.00 4.235
313.10 4.231
313.20 4.226
313.30 4.221
313.40 4.217
313.50 4.212
313.60 4.208
313.70 4.203
313.80 4.199
313.90 4.194
314.00 4.19
314.10 4.185
314.20 4.181
314.30 4.176
314.40 4.171
314.50 4.167
314.60 4.162
314.70 4.158
314.80 4.154
314.90 4.149
315.00 4.145
315.10 4.14
315.20 4.136
315.30 4.131
315.40 4.127
315.50 4.122
315.60 4.118
315.70 4.113
315.80 4.109
315.90 4.105
316.00 4.1
316.10 4.096
316.20 4.091
316.30 4.087
316.40 4.083
316.50 4.078
316.60 4.074
316.70 4.07
316.80 4.065
316.90 4.061
317.00 4.056
317.10 4.052
317.20 4.048
317.30 4.043
317.40 4.039
317.50 4.035
317.60 4.03
317.70 4.026
317.80 4.022
317.90 4.018
318.00 4.013
318.10 4.009
318.20 4.005
318.30 4
318.40 3.996
318.50 3.992
318.60 3.988
318.70 3.983
318.80 3.979
318.90 3.975
319.00 3.971
319.10 3.966
319.20 3.962
319.30 3.958
319.40 3.954
319.50 3.95
319.60 3.945
319.70 3.941
319.80 3.937
319.90 3.933
320.00 3.929
320.10 3.924
320.20 3.92
320.30 3.916
320.40 3.912
320.50 3.908
320.60 3.904
320.70 3.9
320.80 3.895
320.90 3.891
321.00 3.887
321.10 3.883
321.20 3.879
321.30 3.875
321.40 3.871
321.50 3.867
321.60 3.863
321.70 3.858
321.80 3.854
321.90 3.85
322.00 3.846
322.10 3.842
322.20 3.838
322.30 3.834
322.40 3.83
322.50 3.826
322.60 3.822
322.70 3.818
322.80 3.814
322.90 3.81
323.00 3.806
323.10 3.802
323.20 3.798
323.30 3.794
323.40 3.79
323.50 3.786
323.60 3.782
323.70 3.778
323.80 3.774
323.90 3.77
324.00 3.766
324.10 3.762
324.20 3.758
324.30 3.754
324.40 3.75
324.50 3.746
324.60 3.742
324.70 3.739
324.80 3.735
324.90 3.731
325.00 3.727
325.10 3.723
325.20 3.719
325.30 3.715
325.40 3.711
325.50 3.707
325.60 3.703
325.70 3.7
325.80 3.696
325.90 3.692
326.00 3.688
326.10 3.684
326.20 3.68
326.30 3.676
326.40 3.673
326.50 3.669
326.60 3.665
326.70 3.661
326.80 3.657
326.90 3.654
327.00 3.65
327.10 3.646
327.20 3.642
327.30 3.638
327.40 3.635
327.50 3.631
327.60 3.627
327.70 3.623
327.80 3.619
327.90 3.616
328.00 3.612
328.10 3.608
328.20 3.604
328.30 3.601
328.40 3.597
328.50 3.593
328.60 3.59
328.70 3.586
328.80 3.582
328.90 3.578
329.00 3.575
329.10 3.571
329.20 3.567
329.30 3.564
329.40 3.56
329.50 3.556
329.60 3.553
329.70 3.549
329.80 3.545
329.90 3.542
330.00 3.538
330.10 3.534
330.20 3.531
330.30 3.527
330.40 3.523
330.50 3.52
330.60 3.516
330.70 3.512
330.80 3.509
330.90 3.505
331.00 3.502
331.10 3.498
331.20 3.494
331.30 3.491
331.40 3.487
331.50 3.484
331.60 3.48
331.70 3.476
331.80 3.473
331.90 3.469
332.00 3.466
332.10 3.462
332.20 3.459
332.30 3.455
332.40 3.452
332.50 3.448
332.60 3.444
332.70 3.441
332.80 3.437
332.90 3.434
333.00 3.43
333.10 3.427
333.20 3.423
333.30 3.42
333.40 3.416
333.50 3.413
333.60 3.409
333.70 3.406
333.80 3.402
333.90 3.399
334.00 3.395
334.10 3.392
334.20 3.389
334.30 3.385
334.40 3.382
334.50 3.378
334.60 3.375
334.70 3.371
334.80 3.368
334.90 3.364
335.00 3.361
335.10 3.358
335.20 3.354
335.30 3.351
335.40 3.347
335.50 3.344
335.60 3.341
335.70 3.337
335.80 3.334
335.90 3.33
336.00 3.327
336.10 3.324
336.20 3.32
336.30 3.317
336.40 3.313
336.50 3.31
336.60 3.307
336.70 3.303
336.80 3.3
336.90 3.297
337.00 3.293
337.10 3.29
337.20 3.287
337.30 3.283
337.40 3.28
337.50 3.277
337.60 3.273
337.70 3.27
337.80 3.267
337.90 3.263
338.00 3.26
338.10 3.257
338.20 3.254
338.30 3.25
338.40 3.247
338.50 3.244
338.60 3.241
338.70 3.237
338.80 3.234
338.90 3.231
339.00 3.227
339.10 3.224
339.20 3.221
339.30 3.218
339.40 3.214
339.50 3.211
339.60 3.208
339.70 3.205
339.80 3.202
339.90 3.198
340.00 3.195
340.10 3.192
340.20 3.189
340.30 3.186
340.40 3.182
340.50 3.179
340.60 3.176
340.70 3.173
340.80 3.17
340.90 3.166
341.00 3.163
341.10 3.16
341.20 3.157
341.30 3.154
341.40 3.151
341.50 3.147
341.60 3.144
341.70 3.141
341.80 3.138
341.90 3.135
342.00 3.132
342.10 3.129
342.20 3.125
342.30 3.122
342.40 3.119
342.50 3.116
342.60 3.113
342.70 3.11
342.80 3.107
342.90 3.104
343.00 3.101
343.10 3.098
343.20 3.094
343.30 3.091
343.40 3.088
343.50 3.085
343.60 3.082
343.70 3.079
343.80 3.076
343.90 3.073
344.00 3.07
344.10 3.067
344.20 3.064
344.30 3.061
344.40 3.058
344.50 3.055
344.60 3.052
344.70 3.049
344.80 3.046
344.90 3.043
345.00 3.04
345.10 3.037
345.20 3.033
345.30 3.03
345.40 3.027
345.50 3.024
345.60 3.021
345.70 3.018
345.80 3.015
345.90 3.012
346.00 3.01
346.10 3.007
346.20 3.004
346.30 3.001
346.40 2.998
346.50 2.995
346.60 2.992
346.70 2.989
346.80 2.986
346.90 2.983
347.00 2.98
347.10 2.977
347.20 2.974
347.30 2.971
347.40 2.968
347.50 2.965
347.60 2.962
347.70 2.959
347.80 2.957
347.90 2.954
348.00 2.951
348.10 2.948
348.20 2.945
348.30 2.942
348.40 2.939
348.50 2.936
348.60 2.933
348.70 2.93
348.80 2.928
348.90 2.925
349.00 2.922
349.10 2.919
349.20 2.916
349.30 2.913
349.40 2.91
349.50 2.908
349.60 2.905
349.70 2.902
349.80 2.899
349.90 2.896
350.00 2.893
350.10 2.891
350.20 2.888
350.30 2.885
350.40 2.882
350.50 2.879
350.60 2.876
350.70 2.874
350.80 2.871
350.90 2.868
351.00 2.865
351.10 2.862
351.20 2.86
351.30 2.857
351.40 2.854
351.50 2.851
351.60 2.848
351.70 2.846
351.80 2.843
351.90 2.84
352.00 2.837
352.10 2.835
352.20 2.832
352.30 2.829
352.40 2.826
352.50 2.824
352.60 2.821
352.70 2.818
352.80 2.815
352.90 2.813
353.00 2.81
353.10 2.807
353.20 2.804
353.30 2.802
353.40 2.799
353.50 2.796
353.60 2.794
353.70 2.791
353.80 2.788
353.90 2.785
354.00 2.783
354.10 2.78
354.20 2.777
354.30 2.775
354.40 2.772
354.50 2.769
354.60 2.767
354.70 2.764
354.80 2.761
354.90 2.759
355.00 2.756
355.10 2.753
355.20 2.751
355.30 2.748
355.40 2.745
355.50 2.743
355.60 2.74
355.70 2.737
355.80 2.735
355.90 2.732
356.00 2.729
356.10 2.727
356.20 2.724
356.30 2.722
356.40 2.719
356.50 2.716
356.60 2.714
356.70 2.711
356.80 2.709
356.90 2.706
357.00 2.703
357.10 2.701
357.20 2.698
357.30 2.696
357.40 2.693
357.50 2.69
357.60 2.688
357.70 2.685
357.80 2.683
357.90 2.68
358.00 2.677
358.10 2.675
358.20 2.672
358.30 2.67
358.40 2.667
358.50 2.665
358.60 2.662
358.70 2.66
358.80 2.657
358.90 2.655
359.00 2.652
359.10 2.649
359.20 2.647
359.30 2.644
359.40 2.642
359.50 2.639
359.60 2.637
359.70 2.634
359.80 2.632
359.90 2.629
360.00 2.627
360.10 2.624
360.20 2.622
360.30 2.619
360.40 2.617
360.50 2.614
360.60 2.612
360.70 2.609
360.80 2.607
360.90 2.604
361.00 2.602
361.10 2.599
361.20 2.597
361.30 2.594
361.40 2.592
361.50 2.589
361.60 2.587
361.70 2.585
361.80 2.582
361.90 2.58
362.00 2.577
362.10 2.575
362.20 2.572
362.30 2.57
362.40 2.567
362.50 2.565
362.60 2.563
362.70 2.56
362.80 2.558
362.90 2.555
363.00 2.553
363.10 2.55
363.20 2.548
363.30 2.546
363.40 2.543
363.50 2.541
363.60 2.538
363.70 2.536
363.80 2.534
363.90 2.531
364.00 2.529
364.10 2.526
364.20 2.524
364.30 2.522
364.40 2.519
364.50 2.517
364.60 2.515
364.70 2.512
364.80 2.51
364.90 2.507
365.00 2.505
365.10 2.503
365.20 2.5
365.30 2.498
365.40 2.496
365.50 2.493
365.60 2.491
365.70 2.489
365.80 2.486
365.90 2.484
366.00 2.482
366.10 2.479
366.20 2.476
366.30 2.473
366.40 2.471
366.50 2.468
366.60 2.465
366.70 2.463
366.80 2.46
366.90 2.457
367.00 2.455
367.10 2.452
367.20 2.449
367.30 2.447
367.40 2.444
367.50 2.441
367.60 2.439
367.70 2.436
367.80 2.434
367.90 2.431
368.00 2.428
368.10 2.426
368.20 2.423
368.30 2.421
368.40 2.418
368.50 2.416
368.60 2.413
368.70 2.411
368.80 2.408
368.90 2.406
369.00 2.403
369.10 2.401
369.20 2.398
369.30 2.396
369.40 2.393
369.50 2.391
369.60 2.388
369.70 2.386
369.80 2.383
369.90 2.381
370.00 2.378
370.10 2.376
370.20 2.374
370.30 2.372
370.40 2.369
370.50 2.367
370.60 2.365
370.70 2.363
370.80 2.361
370.90 2.359
371.00 2.356
371.10 2.354
371.20 2.352
371.30 2.35
371.40 2.348
371.50 2.346
371.60 2.343
371.70 2.341
371.80 2.339
371.90 2.337
372.00 2.335
372.10 2.333
372.20 2.332
372.30 2.331
372.40 2.329
372.50 2.328
372.60 2.327
372.70 2.325
372.80 2.324
372.90 2.322
373.00 2.321
373.10 2.32
373.20 2.318
373.30 2.317
373.40 2.316
373.50 2.314
373.60 2.313
373.70 2.311
373.80 2.31
373.90 2.309
374.00 2.307
374.10 2.306
374.20 2.305
374.30 2.304
374.40 2.303
374.50 2.302
374.60 2.301
374.70 2.3
374.80 2.299
374.90 2.298
375.00 2.297
375.10 2.295
375.20 2.294
375.30 2.293
375.40 2.292
375.50 2.291
375.60 2.29
375.70 2.289
375.80 2.288
375.90 2.287
376.00 2.286
376.10 2.279
376.20 2.271
376.30 2.264
376.40 2.257
376.50 2.249
376.60 2.242
376.70 2.235
376.80 2.228
376.90 2.22
377.00 2.213
377.10 2.219
377.20 2.225
377.30 2.231
377.40 2.237
377.50 2.243
377.60 2.249
377.70 2.255
377.80 2.261
377.90 2.267
378.00 2.273
378.10 2.268
378.20 2.262
378.30 2.257
378.40 2.251
378.50 2.246
378.60 2.24
378.70 2.235
378.80 2.229
378.90 2.224
379.00 2.218
379.10 2.208
379.20 2.197
379.30 2.186
379.40 2.176
379.50 2.165
379.60 2.155
379.70 2.144
379.80 2.134
379.90 2.123
380.00 2.113
380.10 2.128
380.20 2.143
380.30 2.158
380.40 2.173
380.50 2.187
380.60 2.202
380.70 2.217
380.80 2.232
380.90 2.247
381.00 2.262
381.10 2.265
381.20 2.268
381.30 2.271
381.40 2.274
381.50 2.278
381.60 2.276
381.70 2.272
381.80 2.266
381.90 2.259
382.00 2.249
382.10 2.238
382.20 2.225
382.30 2.199
382.40 2.173
382.50 2.148
382.60 2.122
382.70 2.097
382.80 2.071
382.90 2.046
383.00 2.02
383.10 1.995
383.20 1.969
383.30 1.933
383.40 1.897
383.50 1.864
383.60 1.87
383.70 1.902
383.80 1.937
383.90 1.971
384.00 2.004
384.10 2.036
384.20 2.066
384.30 2.093
384.40 2.119
384.50 2.143
384.60 2.165
384.70 2.184
384.80 2.203
384.90 2.219
385.00 2.234
385.10 2.246
385.20 2.258
385.30 2.268
385.40 2.277
385.50 2.284
385.60 2.29
385.70 2.294
385.80 2.297
385.90 2.299
386.00 2.3
386.10 2.299
386.20 2.297
386.30 2.294
386.40 2.289
386.50 2.284
386.60 2.276
386.70 2.267
386.80 2.257
386.90 2.245
387.00 2.232
387.10 2.218
387.20 2.201
387.30 2.182
387.40 2.163
387.50 2.14
387.60 2.116
387.70 2.09
387.80 2.061
387.90 2.03
388.00 1.997
388.10 1.96
388.20 1.921
388.30 1.881
388.40 1.836
388.50 1.788
388.60 1.739
388.70 1.687
388.80 1.642
388.90 1.603
389.00 1.636
389.10 1.678
389.20 1.727
389.30 1.774
389.40 1.818
389.50 1.861
389.60 1.899
389.70 1.935
389.80 1.97
389.90 2
390.00 2.029
390.10 2.056
390.20 2.08
390.30 2.103
390.40 2.124
390.50 2.142
390.60 2.16
390.70 2.176
390.80 2.19
390.90 2.203
391.00 2.216
391.10 2.226
391.20 2.236
391.30 2.245
391.40 2.253
391.50 2.26
391.60 2.266
391.70 2.271
391.80 2.276
391.90 2.28
392.00 2.283
392.10 2.285
392.20 2.288
392.30 2.289
392.40 2.29
392.50 2.29
392.60 2.29
392.70 2.29
392.80 2.289
392.90 2.287
393.00 2.285
393.10 2.282
393.20 2.279
393.30 2.276
393.40 2.272
393.50 2.267
393.60 2.262
393.70 2.257
393.80 2.25
393.90 2.243
394.00 2.236
394.10 2.228
394.20 2.219
394.30 2.209
394.40 2.199
394.50 2.187
394.60 2.175
394.70 2.162
394.80 2.147
394.90 2.132
395.00 2.115
395.10 2.097
395.20 2.078
395.30 2.056
395.40 2.034
395.50 2.01
395.60 1.983
395.70 1.955
395.80 1.925
395.90 1.893
396.00 1.858
396.10 1.821
396.20 1.781
396.30 1.738
396.40 1.693
396.50 1.643
396.60 1.59
396.70 1.534
396.80 1.472
396.90 1.408
397.00 1.343
397.10 1.401
397.20 1.459
397.30 1.519
397.40 1.573
397.50 1.624
397.60 1.671
397.70 1.714
397.80 1.754
397.90 1.792
398.00 1.825
398.10 1.857
398.20 1.887
398.30 1.913
398.40 1.938
398.50 1.961
398.60 1.982
398.70 2.001
398.80 2.02
398.90 2.035
399.00 2.05
399.10 2.064
399.20 2.076
399.30 2.087
399.40 2.098
399.50 2.107
399.60 2.115
399.70 2.123
399.80 2.13
399.90 2.136
400.00 2.142
400.10 2.147
400.20 2.151
400.30 2.155
400.40 2.159
400.50 2.162
400.60 2.165
400.70 2.167
400.80 2.169
400.90 2.171
401.00 2.173
401.10 2.174
401.20 2.175
401.30 2.175
401.40 2.176
401.50 2.177
401.60 2.177
401.70 2.177
401.80 2.177
401.90 2.176
402.00 2.176
402.10 2.175
402.20 2.175
402.30 2.174
402.40 2.173
402.50 2.172
402.60 2.171
402.70 2.17
402.80 2.169
402.90 2.167
403.00 2.166
403.10 2.164
403.20 2.163
403.30 2.161
403.40 2.16
403.50 2.158
403.60 2.156
403.70 2.154
403.80 2.152
403.90 2.15
404.00 2.148
404.10 2.145
404.20 2.143
404.30 2.141
404.40 2.138
404.50 2.136
404.60 2.133
404.70 2.13
404.80 2.127
404.90 2.124
405.00 2.121
405.10 2.118
405.20 2.115
405.30 2.112
405.40 2.108
405.50 2.104
405.60 2.1
405.70 2.097
405.80 2.092
405.90 2.088
406.00 2.083
406.10 2.079
406.20 2.073
406.30 2.068
406.40 2.063
406.50 2.057
406.60 2.051
406.70 2.044
406.80 2.037
406.90 2.03
407.00 2.022
407.10 2.014
407.20 2.005
407.30 1.996
407.40 1.986
407.50 1.976
407.60 1.964
407.70 1.952
407.80 1.94
407.90 1.926
408.00 1.911
408.10 1.896
408.20 1.879
408.30 1.861
408.40 1.842
408.50 1.822
408.60 1.8
408.70 1.777
408.80 1.751
408.90 1.724
409.00 1.695
409.10 1.664
409.20 1.63
409.30 1.595
409.40 1.556
409.50 1.514
409.60 1.471
409.70 1.421
409.80 1.368
409.90 1.312
410.00 1.246
410.10 1.189
410.20 1.14
410.30 1.211
410.40 1.277
410.50 1.337
410.60 1.389
410.70 1.437
410.80 1.481
410.90 1.52
411.00 1.557
411.10 1.592
411.20 1.623
411.30 1.652
411.40 1.679
411.50 1.703
411.60 1.726
411.70 1.747
411.80 1.766
411.90 1.784
412.00 1.8
412.10 1.815
412.20 1.828
412.30 1.841
412.40 1.852
412.50 1.862
412.60 1.872
412.70 1.881
412.80 1.888
412.90 1.896
413.00 1.902
413.10 1.908
413.20 1.913
413.30 1.918
413.40 1.922
413.50 1.926
413.60 1.929
413.70 1.933
413.80 1.935
413.90 1.938
414.00 1.94
414.10 1.942
414.20 1.943
414.30 1.944
414.40 1.946
414.50 1.947
414.60 1.947
414.70 1.948
414.80 1.948
414.90 1.949
415.00 1.949
415.10 1.949
415.20 1.949
415.30 1.949
415.40 1.948
415.50 1.948
415.60 1.948
415.70 1.947
415.80 1.946
415.90 1.946
416.00 1.945
416.10 1.944
416.20 1.944
416.30 1.943
416.40 1.942
416.50 1.941
416.60 1.94
416.70 1.939
416.80 1.938
416.90 1.937
417.00 1.936
417.10 1.934
417.20 1.933
417.30 1.932
417.40 1.931
417.50 1.93
417.60 1.928
417.70 1.927
417.80 1.926
417.90 1.924
418.00 1.923
418.10 1.922
418.20 1.92
418.30 1.919
418.40 1.918
418.50 1.916
418.60 1.915
418.70 1.913
418.80 1.912
418.90 1.91
419.00 1.909
419.10 1.908
419.20 1.906
419.30 1.905
419.40 1.903
419.50 1.902
419.60 1.9
419.70 1.899
419.80 1.897
419.90 1.896
420.00 1.894
420.10 1.893
420.20 1.891
420.30 1.889
420.40 1.888
420.50 1.886
420.60 1.885
420.70 1.883
420.80 1.882
420.90 1.88
421.00 1.879
421.10 1.877
421.20 1.875
421.30 1.874
421.40 1.872
421.50 1.871
421.60 1.869
421.70 1.867
421.80 1.866
421.90 1.864
422.00 1.863
422.10 1.861
422.20 1.859
422.30 1.858
422.40 1.856
422.50 1.854
422.60 1.853
422.70 1.851
422.80 1.85
422.90 1.848
423.00 1.846
423.10 1.845
423.20 1.843
423.30 1.841
423.40 1.84
423.50 1.838
423.60 1.836
423.70 1.835
423.80 1.833
423.90 1.831
424.00 1.83
424.10 1.828
424.20 1.826
424.30 1.825
424.40 1.823
424.50 1.821
424.60 1.819
424.70 1.818
424.80 1.816
424.90 1.814
425.00 1.812
425.10 1.811
425.20 1.809
425.30 1.807
425.40 1.805
425.50 1.804
425.60 1.802
425.70 1.8
425.80 1.798
425.90 1.796
426.00 1.794
426.10 1.793
426.20 1.791
426.30 1.789
426.40 1.787
426.50 1.785
426.60 1.783
426.70 1.781
426.80 1.779
426.90 1.777
427.00 1.775
427.10 1.773
427.20 1.771
427.30 1.769
427.40 1.767
427.50 1.765
427.60 1.763
427.70 1.76
427.80 1.758
427.90 1.756
428.00 1.753
428.10 1.751
428.20 1.749
428.30 1.746
428.40 1.744
428.50 1.741
428.60 1.739
428.70 1.736
428.80 1.733
428.90 1.73
429.00 1.728
429.10 1.725
429.20 1.722
429.30 1.718
429.40 1.715
429.50 1.712
429.60 1.708
429.70 1.705
429.80 1.701
429.90 1.697
430.00 1.693
430.10 1.689
430.20 1.684
430.30 1.68
430.40 1.675
430.50 1.67
430.60 1.665
430.70 1.659
430.80 1.653
430.90 1.647
431.00 1.64
431.10 1.633
431.20 1.626
431.30 1.618
431.40 1.61
431.50 1.601
431.60 1.592
431.70 1.581
431.80 1.571
431.90 1.559
432.00 1.547
432.10 1.533
432.20 1.519
432.30 1.504
432.40 1.487
432.50 1.469
432.60 1.45
432.70 1.43
432.80 1.408
432.90 1.385
433.00 1.36
433.10 1.332
433.20 1.303
433.30 1.272
433.40 1.237
433.50 1.2
433.60 1.16
433.70 1.114
433.80 1.063
433.90 1.007
434.00 0.9333
434.10 0.9341
434.20 1.01
434.30 1.063
434.40 1.112
434.50 1.156
434.60 1.194
434.70 1.228
434.80 1.261
434.90 1.289
435.00 1.316
435.10 1.341
435.20 1.363
435.30 1.384
435.40 1.404
435.50 1.421
435.60 1.437
435.70 1.452
435.80 1.465
435.90 1.478
436.00 1.489
436.10 1.5
436.20 1.509
436.30 1.518
436.40 1.525
436.50 1.533
436.60 1.539
436.70 1.545
436.80 1.55
436.90 1.555
437.00 1.559
437.10 1.563
437.20 1.567
437.30 1.57
437.40 1.573
437.50 1.576
437.60 1.578
437.70 1.58
437.80 1.582
437.90 1.583
438.00 1.585
438.10 1.586
438.20 1.587
438.30 1.588
438.40 1.588
438.50 1.589
438.60 1.589
438.70 1.59
438.80 1.59
438.90 1.59
439.00 1.59
439.10 1.59
439.20 1.59
439.30 1.59
439.40 1.59
439.50 1.59
439.60 1.589
439.70 1.589
439.80 1.588
439.90 1.588
440.00 1.587
440.10 1.587
440.20 1.586
440.30 1.586
440.40 1.585
440.50 1.584
440.60 1.583
440.70 1.583
440.80 1.582
440.90 1.581
441.00 1.58
441.10 1.579
441.20 1.578
441.30 1.577
441.40 1.577
441.50 1.576
441.60 1.575
441.70 1.574
441.80 1.573
441.90 1.572
442.00 1.571
442.10 1.57
442.20 1.569
442.30 1.568
442.40 1.567
442.50 1.565
442.60 1.564
442.70 1.563
442.80 1.562
442.90 1.561
443.00 1.56
443.10 1.559
443.20 1.558
443.30 1.557
443.40 1.556
443.50 1.554
443.60 1.553
443.70 1.552
443.80 1.551
443.90 1.55
444.00 1.549
444.10 1.548
444.20 1.546
444.30 1.545
444.40 1.544
444.50 1.543
444.60 1.542
444.70 1.541
444.80 1.539
444.90 1.538
445.00 1.537
445.10 1.536
445.20 1.535
445.30 1.533
445.40 1.532
445.50 1.531
445.60 1.53
445.70 1.529
445.80 1.527
445.90 1.526
446.00 1.525
446.10 1.524
446.20 1.523
446.30 1.522
446.40 1.52
446.50 1.519
446.60 1.518
446.70 1.517
446.80 1.516
446.90 1.514
447.00 1.513
447.10 1.512
447.20 1.511
447.30 1.51
447.40 1.508
447.50 1.507
447.60 1.506
447.70 1.505
447.80 1.504
447.90 1.502
448.00 1.501
448.10 1.5
448.20 1.499
448.30 1.498
448.40 1.496
448.50 1.495
448.60 1.494
448.70 1.493
448.80 1.492
448.90 1.49
449.00 1.489
449.10 1.488
449.20 1.487
449.30 1.486
449.40 1.484
449.50 1.483
449.60 1.482
449.70 1.481
449.80 1.48
449.90 1.478
450.00 1.477
450.10 1.476
450.20 1.475
450.30 1.474
450.40 1.472
450.50 1.471
450.60 1.47
450.70 1.469
450.80 1.468
450.90 1.467
451.00 1.465
451.10 1.464
451.20 1.463
451.30 1.462
451.40 1.461
451.50 1.459
451.60 1.458
451.70 1.457
451.80 1.456
451.90 1.455
452.00 1.454
452.10 1.452
452.20 1.451
452.30 1.45
452.40 1.449
452.50 1.448
452.60 1.447
452.70 1.445
452.80 1.444
452.90 1.443
453.00 1.442
453.10 1.441
453.20 1.44
453.30 1.438
453.40 1.437
453.50 1.436
453.60 1.435
453.70 1.434
453.80 1.433
453.90 1.431
454.00 1.43
454.10 1.429
454.20 1.428
454.30 1.427
454.40 1.426
454.50 1.425
454.60 1.423
454.70 1.422
454.80 1.421
454.90 1.42
455.00 1.419
455.10 1.418
455.20 1.417
455.30 1.415
455.40 1.414
455.50 1.413
455.60 1.412
455.70 1.411
455.80 1.41
455.90 1.409
456.00 1.407
456.10 1.406
456.20 1.405
456.30 1.404
456.40 1.403
456.50 1.402
456.60 1.401
456.70 1.399
456.80 1.398
456.90 1.397
457.00 1.396
457.10 1.395
457.20 1.394
457.30 1.393
457.40 1.392
457.50 1.391
457.60 1.389
457.70 1.388
457.80 1.387
457.90 1.386
458.00 1.385
458.10 1.384
458.20 1.383
458.30 1.382
458.40 1.38
458.50 1.379
458.60 1.378
458.70 1.377
458.80 1.376
458.90 1.375
459.00 1.374
459.10 1.373
459.20 1.372
459.30 1.37
459.40 1.369
459.50 1.368
459.60 1.367
459.70 1.366
459.80 1.365
459.90 1.364
460.00 1.363
460.10 1.362
460.20 1.361
460.30 1.36
460.40 1.358
460.50 1.357
460.60 1.356
460.70 1.355
460.80 1.354
460.90 1.353
461.00 1.352
461.10 1.351
461.20 1.35
461.30 1.349
461.40 1.348
461.50 1.346
461.60 1.345
461.70 1.344
461.80 1.343
461.90 1.342
462.00 1.341
462.10 1.34
462.20 1.339
462.30 1.338
462.40 1.337
462.50 1.336
462.60 1.335
462.70 1.334
462.80 1.332
462.90 1.331
463.00 1.33
463.10 1.329
463.20 1.328
463.30 1.327
463.40 1.326
463.50 1.325
463.60 1.324
463.70 1.323
463.80 1.322
463.90 1.321
464.00 1.32
464.10 1.319
464.20 1.318
464.30 1.317
464.40 1.316
464.50 1.314
464.60 1.313
464.70 1.312
464.80 1.311
464.90 1.31
465.00 1.309
465.10 1.308
465.20 1.307
465.30 1.306
465.40 1.305
465.50 1.304
465.60 1.303
465.70 1.302
465.80 1.301
465.90 1.3
466.00 1.299
466.10 1.298
466.20 1.297
466.30 1.296
466.40 1.295
466.50 1.294
466.60 1.293
466.70 1.291
466.80 1.29
466.90 1.289
467.00 1.288
467.10 1.287
467.20 1.286
467.30 1.285
467.40 1.284
467.50 1.283
467.60 1.282
467.70 1.281
467.80 1.28
467.90 1.279
468.00 1.278
468.10 1.277
468.20 1.276
468.30 1.275
468.40 1.274
468.50 1.273
468.60 1.272
468.70 1.271
468.80 1.27
468.90 1.269
469.00 1.268
469.10 1.267
469.20 1.266
469.30 1.265
469.40 1.264
469.50 1.263
469.60 1.262
469.70 1.261
469.80 1.26
469.90 1.259
470.00 1.258
470.10 1.257
470.20 1.256
470.30 1.255
470.40 1.254
470.50 1.253
470.60 1.252
470.70 1.251
470.80 1.25
470.90 1.249
471.00 1.248
471.10 1.247
471.20 1.246
471.30 1.245
471.40 1.243
471.50 1.242
471.60 1.241
471.70 1.24
471.80 1.239
471.90 1.238
472.00 1.237
472.10 1.236
472.20 1.235
472.30 1.234
472.40 1.233
472.50 1.232
472.60 1.231
472.70 1.23
472.80 1.229
472.90 1.228
473.00 1.227
473.10 1.226
473.20 1.225
473.30 1.224
473.40 1.223
473.50 1.222
473.60 1.221
473.70 1.22
473.80 1.219
473.90 1.218
474.00 1.217
474.10 1.216
474.20 1.215
474.30 1.214
474.40 1.213
474.50 1.212
474.60 1.211
474.70 1.21
474.80 1.209
474.90 1.208
475.00 1.207
475.10 1.206
475.20 1.205
475.30 1.204
475.40 1.203
475.50 1.202
475.60 1.201
475.70 1.2
475.80 1.199
475.90 1.198
476.00 1.197
476.10 1.196
476.20 1.195
476.30 1.193
476.40 1.192
476.50 1.191
476.60 1.19
476.70 1.189
476.80 1.188
476.90 1.187
477.00 1.186
477.10 1.185
477.20 1.184
477.30 1.183
477.40 1.182
477.50 1.18
477.60 1.179
477.70 1.178
477.80 1.177
477.90 1.176
478.00 1.175
478.10 1.174
478.20 1.173
478.30 1.171
478.40 1.17
478.50 1.169
478.60 1.168
478.70 1.166
478.80 1.165
478.90 1.164
479.00 1.163
479.10 1.162
479.20 1.16
479.30 1.159
479.40 1.158
479.50 1.156
479.60 1.155
479.70 1.153
479.80 1.152
479.90 1.151
480.00 1.149
480.10 1.148
480.20 1.146
480.30 1.145
480.40 1.143
480.50 1.141
480.60 1.14
480.70 1.138
480.80 1.137
480.90 1.135
481.00 1.133
481.10 1.132
481.20 1.13
481.30 1.127
481.40 1.125
481.50 1.123
481.60 1.121
481.70 1.118
481.80 1.116
481.90 1.114
482.00 1.112
482.10 1.11
482.20 1.107
482.30 1.103
482.40 1.1
482.50 1.096
482.60 1.093
482.70 1.09
482.80 1.086
482.90 1.083
483.00 1.079
483.10 1.076
483.20 1.071
483.30 1.065
483.40 1.059
483.50 1.053
483.60 1.047
483.70 1.041
483.80 1.036
483.90 1.03
484.00 1.024
484.10 1.018
484.20 1.01
484.30 1
484.40 0.9908
484.50 0.9813
484.60 0.9719
484.70 0.9599
484.80 0.9466
484.90 0.9334
485.00 0.9201
485.10 0.9069
485.20 0.8911
485.30 0.874
485.40 0.8549
485.50 0.835
485.60 0.8123
485.70 0.7883
485.80 0.7599
485.90 0.7294
486.00 0.6936
486.10 0.6227
486.20 0.6587
486.30 0.7058
486.40 0.7371
486.50 0.7667
486.60 0.7917
486.70 0.8146
486.80 0.8346
486.90 0.8533
487.00 0.8698
487.10 0.8855
487.20 0.8985
487.30 0.9103
487.40 0.922
487.50 0.9338
487.60 0.9455
487.70 0.9546
487.80 0.9623
487.90 0.9701
488.00 0.9778
488.10 0.9855
488.20 0.9908
488.30 0.995
488.40 0.9992
488.50 1.003
488.60 1.007
488.70 1.012
488.80 1.016
488.90 1.02
489.00 1.024
489.10 1.028
489.20 1.031
489.30 1.032
489.40 1.034
489.50 1.035
489.60 1.037
489.70 1.039
489.80 1.04
489.90 1.042
490.00 1.043
490.10 1.045
490.20 1.046
490.30 1.046
490.40 1.047
490.50 1.047
490.60 1.048
490.70 1.048
490.80 1.048
490.90 1.049
491.00 1.049
491.10 1.05
491.20 1.05
491.30 1.05
491.40 1.05
491.50 1.049
491.60 1.049
491.70 1.049
491.80 1.049
491.90 1.049
492.00 1.049
492.10 1.049
492.20 1.049
492.30 1.048
492.40 1.048
492.50 1.047
492.60 1.047
492.70 1.047
492.80 1.046
492.90 1.046
493.00 1.046
493.10 1.045
493.20 1.045
493.30 1.044
493.40 1.044
493.50 1.043
493.60 1.043
493.70 1.042
493.80 1.041
493.90 1.041
494.00 1.04
494.10 1.04
494.20 1.039
494.30 1.039
494.40 1.038
494.50 1.037
494.60 1.037
494.70 1.036
494.80 1.036
494.90 1.035
495.00 1.034
495.10 1.034
495.20 1.033
495.30 1.033
495.40 1.032
495.50 1.031
495.60 1.031
495.70 1.03
495.80 1.029
495.90 1.029
496.00 1.028
496.10 1.027
496.20 1.027
496.30 1.026
496.40 1.025
496.50 1.025
496.60 1.024
496.70 1.023
496.80 1.023
496.90 1.022
497.00 1.021
497.10 1.02
497.20 1.02
497.30 1.019
497.40 1.018
497.50 1.018
497.60 1.017
497.70 1.016
497.80 1.016
497.90 1.015
498.00 1.014
498.10 1.013
498.20 1.013
498.30 1.012
498.40 1.011
498.50 1.011
498.60 1.01
498.70 1.009
498.80 1.009
498.90 1.008
499.00 1.007
499.10 1.006
499.20 1.006
499.30 1.005
499.40 1.004
499.50 1.004
499.60 1.003
499.70 1.002
499.80 1.001
499.90 1.001
500.00 1
500.10 0.9993
500.20 0.9986
500.30 0.9979
500.40 0.9971
500.50 0.9964
500.60 0.9957
500.70 0.995
500.80 0.9943
500.90 0.9936
501.00 0.9929
501.10 0.9922
501.20 0.9915
501.30 0.9907
501.40 0.99
501.50 0.9893
501.60 0.9886
501.70 0.9879
501.80 0.9872
501.90 0.9865
502.00 0.9858
502.10 0.9851
502.20 0.9843
502.30 0.9836
502.40 0.9829
502.50 0.9822
502.60 0.9815
502.70 0.9808
502.80 0.9801
502.90 0.9794
503.00 0.9787
503.10 0.978
503.20 0.9773
503.30 0.9766
503.40 0.9758
503.50 0.9751
503.60 0.9744
503.70 0.9737
503.80 0.973
503.90 0.9723
504.00 0.9716
504.10 0.9709
504.20 0.9702
504.30 0.9695
504.40 0.9688
504.50 0.9681
504.60 0.9674
504.70 0.9667
504.80 0.966
504.90 0.9653
505.00 0.9646
505.10 0.9639
505.20 0.9632
505.30 0.9625
505.40 0.9618
505.50 0.9611
505.60 0.9604
505.70 0.9597
505.80 0.959
505.90 0.9583
506.00 0.9576
506.10 0.9569
506.20 0.9562
506.30 0.9555
506.40 0.9548
506.50 0.9542
506.60 0.9535
506.70 0.9528
506.80 0.9521
506.90 0.9514
507.00 0.9507
507.10 0.95
507.20 0.9493
507.30 0.9486
507.40 0.9479
507.50 0.9473
507.60 0.9466
507.70 0.9459
507.80 0.9452
507.90 0.9445
508.00 0.9438
508.10 0.9431
508.20 0.9425
508.30 0.9418
508.40 0.9411
508.50 0.9404
508.60 0.9397
508.70 0.9391
508.80 0.9384
508.90 0.9377
509.00 0.937
509.10 0.9363
509.20 0.9357
509.30 0.935
509.40 0.9343
509.50 0.9336
509.60 0.9329
509.70 0.9323
509.80 0.9316
509.90 0.9309
510.00 0.9302
510.10 0.9296
510.20 0.9289
510.30 0.9282
510.40 0.9276
510.50 0.9269
510.60 0.9262
510.70 0.9255
510.80 0.9249
510.90 0.9242
511.00 0.9235
511.10 0.9229
511.20 0.9222
511.30 0.9215
511.40 0.9209
511.50 0.9202
511.60 0.9195
511.70 0.9189
511.80 0.9182
511.90 0.9175
512.00 0.9169
512.10 0.9162
512.20 0.9156
512.30 0.9149
512.40 0.9142
512.50 0.9136
512.60 0.9129
512.70 0.9123
512.80 0.9116
512.90 0.9109
513.00 0.9103
513.10 0.9096
513.20 0.909
513.30 0.9083
513.40 0.9077
513.50 0.907
513.60 0.9064
513.70 0.9057
513.80 0.9051
513.90 0.9044
514.00 0.9037
514.10 0.9031
514.20 0.9024
514.30 0.9018
514.40 0.9011
514.50 0.9005
514.60 0.8999
514.70 0.8992
514.80 0.8986
514.90 0.8979
515.00 0.8973
515.10 0.8966
515.20 0.896
515.30 0.8953
515.40 0.8947
515.50 0.894
515.60 0.8934
515.70 0.8928
515.80 0.8921
515.90 0.8915
516.00 0.8908
516.10 0.8902
516.20 0.8896
516.30 0.8889
516.40 0.8883
516.50 0.8876
516.60 0.887
516.70 0.8864
516.80 0.8857
516.90 0.8851
517.00 0.8845
517.10 0.8838
517.20 0.8832
517.30 0.8826
517.40 0.8819
517.50 0.8813
517.60 0.8807
517.70 0.88
517.80 0.8794
517.90 0.8788
518.00 0.8781
518.10 0.8775
518.20 0.8769
518.30 0.8763
518.40 0.8756
518.50 0.875
518.60 0.8744
518.70 0.8738
518.80 0.8731
518.90 0.8725
519.00 0.8719
519.10 0.8713
519.20 0.8706
519.30 0.87
519.40 0.8694
519.50 0.8688
519.60 0.8681
519.70 0.8675
519.80 0.8669
519.90 0.8663
520.00 0.8657
520.10 0.8651
520.20 0.8644
520.30 0.8638
520.40 0.8632
520.50 0.8626
520.60 0.862
520.70 0.8614
520.80 0.8607
520.90 0.8601
521.00 0.8595
521.10 0.8589
521.20 0.8583
521.30 0.8577
521.40 0.8571
521.50 0.8565
521.60 0.8559
521.70 0.8552
521.80 0.8546
521.90 0.854
522.00 0.8534
522.10 0.8528
522.20 0.8522
522.30 0.8516
522.40 0.851
522.50 0.8504
522.60 0.8498
522.70 0.8492
522.80 0.8486
522.90 0.848
523.00 0.8474
523.10 0.8468
523.20 0.8462
523.30 0.8456
523.40 0.845
523.50 0.8444
523.60 0.8438
523.70 0.8432
523.80 0.8426
523.90 0.842
524.00 0.8414
524.10 0.8408
524.20 0.8402
524.30 0.8396
524.40 0.839
524.50 0.8384
524.60 0.8378
524.70 0.8372
524.80 0.8366
524.90 0.836
525.00 0.8354
525.10 0.8348
525.20 0.8343
525.30 0.8337
525.40 0.8331
525.50 0.8325
525.60 0.8319
525.70 0.8313
525.80 0.8307
525.90 0.8301
526.00 0.8295
526.10 0.829
526.20 0.8284
526.30 0.8278
526.40 0.8272
526.50 0.8266
526.60 0.826
526.70 0.8255
526.80 0.8249
526.90 0.8243
527.00 0.8237
527.10 0.8231
527.20 0.8225
527.30 0.822
527.40 0.8214
527.50 0.8208
527.60 0.8202
527.70 0.8197
527.80 0.8191
527.90 0.8185
528.00 0.8179
528.10 0.8173
528.20 0.8168
528.30 0.8162
528.40 0.8156
528.50 0.815
528.60 0.8145
528.70 0.8139
528.80 0.8133
528.90 0.8128
529.00 0.8122
529.10 0.8116
529.20 0.811
529.30 0.8105
529.40 0.8099
529.50 0.8093
529.60 0.8088
529.70 0.8082
529.80 0.8076
529.90 0.8071
530.00 0.8065
530.10 0.8059
530.20 0.8054
530.30 0.8048
530.40 0.8042
530.50 0.8037
530.60 0.8031
530.70 0.8025
530.80 0.802
530.90 0.8014
531.00 0.8009
531.10 0.8003
531.20 0.7997
531.30 0.7992
531.40 0.7986
531.50 0.7981
531.60 0.7975
531.70 0.7969
531.80 0.7964
531.90 0.7958
532.00 0.7953
532.10 0.7947
532.20 0.7942
532.30 0.7936
532.40 0.7931
532.50 0.7925
532.60 0.7919
532.70 0.7914
532.80 0.7908
532.90 0.7903
533.00 0.7897
533.10 0.7892
533.20 0.7886
533.30 0.7881
533.40 0.7875
533.50 0.787
533.60 0.7864
533.70 0.7859
533.80 0.7853
533.90 0.7848
534.00 0.7842
534.10 0.7837
534.20 0.7832
534.30 0.7826
534.40 0.7821
534.50 0.7815
534.60 0.781
534.70 0.7804
534.80 0.7799
534.90 0.7793
535.00 0.7788
535.10 0.7783
535.20 0.7777
535.30 0.7772
535.40 0.7766
535.50 0.7761
535.60 0.7756
535.70 0.775
535.80 0.7745
535.90 0.7739
536.00 0.7734
536.10 0.7729
536.20 0.7723
536.30 0.7718
536.40 0.7713
536.50 0.7707
536.60 0.7702
536.70 0.7697
536.80 0.7691
536.90 0.7686
537.00 0.7681
537.10 0.7675
537.20 0.767
537.30 0.7665
537.40 0.7659
537.50 0.7654
537.60 0.7649
537.70 0.7643
537.80 0.7638
537.90 0.7633
538.00 0.7627
538.10 0.7622
538.20 0.7617
538.30 0.7612
538.40 0.7606
538.50 0.7601
538.60 0.7596
538.70 0.7591
538.80 0.7585
538.90 0.758
539.00 0.7575
539.10 0.757
539.20 0.7564
539.30 0.7559
539.40 0.7554
539.50 0.7549
539.60 0.7544
539.70 0.7538
539.80 0.7533
539.90 0.7528
540.00 0.7523
540.10 0.7518
540.20 0.7512
540.30 0.7507
540.40 0.7502
540.50 0.7497
540.60 0.7492
540.70 0.7487
540.80 0.7481
540.90 0.7476
541.00 0.7471
541.10 0.7466
541.20 0.7461
541.30 0.7456
541.40 0.7451
541.50 0.7445
541.60 0.744
541.70 0.7435
541.80 0.743
541.90 0.7425
542.00 0.742
542.10 0.7415
542.20 0.741
542.30 0.7405
542.40 0.7399
542.50 0.7394
542.60 0.7389
542.70 0.7384
542.80 0.7379
542.90 0.7374
543.00 0.7369
543.10 0.7364
543.20 0.7359
543.30 0.7354
543.40 0.7349
543.50 0.7344
543.60 0.7339
543.70 0.7334
543.80 0.7329
543.90 0.7324
544.00 0.7319
544.10 0.7314
544.20 0.7309
544.30 0.7304
544.40 0.7299
544.50 0.7294
544.60 0.7289
544.70 0.7284
544.80 0.7279
544.90 0.7274
545.00 0.7269
545.10 0.7264
545.20 0.7259
545.30 0.7254
545.40 0.7249
545.50 0.7244
545.60 0.7239
545.70 0.7234
545.80 0.7229
545.90 0.7224
546.00 0.7219
546.10 0.7214
546.20 0.7209
546.30 0.7204
546.40 0.72
546.50 0.7195
546.60 0.719
546.70 0.7185
546.80 0.718
546.90 0.7175
547.00 0.717
547.10 0.7165
547.20 0.716
547.30 0.7156
547.40 0.7151
547.50 0.7146
547.60 0.7141
547.70 0.7136
547.80 0.7131
547.90 0.7126
548.00 0.7121
548.10 0.7117
548.20 0.7112
548.30 0.7107
548.40 0.7102
548.50 0.7097
548.60 0.7093
548.70 0.7088
548.80 0.7083
548.90 0.7078
549.00 0.7073
549.10 0.7068
549.20 0.7064
549.30 0.7059
549.40 0.7054
549.50 0.7049
549.60 0.7044
549.70 0.704
549.80 0.7035
549.90 0.703
550.00 0.7025
550.10 0.7021
550.20 0.7016
550.30 0.7011
550.40 0.7006
550.50 0.7002
550.60 0.6997
550.70 0.6992
550.80 0.6987
550.90 0.6983
551.00 0.6978
551.10 0.6973
551.20 0.6969
551.30 0.6964
551.40 0.6959
551.50 0.6954
551.60 0.695
551.70 0.6945
551.80 0.694
551.90 0.6936
552.00 0.6931
552.10 0.6926
552.20 0.6922
552.30 0.6917
552.40 0.6912
552.50 0.6908
552.60 0.6903
552.70 0.6898
552.80 0.6894
552.90 0.6889
553.00 0.6884
553.10 0.688
553.20 0.6875
553.30 0.687
553.40 0.6866
553.50 0.6861
553.60 0.6856
553.70 0.6852
553.80 0.6847
553.90 0.6843
554.00 0.6838
554.10 0.6833
554.20 0.6829
554.30 0.6824
554.40 0.682
554.50 0.6815
554.60 0.681
554.70 0.6806
554.80 0.6801
554.90 0.6797
555.00 0.6792
555.10 0.6788
555.20 0.6783
555.30 0.6778
555.40 0.6774
555.50 0.6769
555.60 0.6765
555.70 0.676
555.80 0.6756
555.90 0.6751
556.00 0.6747
556.10 0.6742
556.20 0.6738
556.30 0.6733
556.40 0.6729
556.50 0.6724
556.60 0.672
556.70 0.6715
556.80 0.6711
556.90 0.6706
557.00 0.6702
557.10 0.6697
557.20 0.6693
557.30 0.6688
557.40 0.6684
557.50 0.6679
557.60 0.6675
557.70 0.667
557.80 0.6666
557.90 0.6661
558.00 0.6657
558.10 0.6652
558.20 0.6648
558.30 0.6643
558.40 0.6639
558.50 0.6635
558.60 0.663
558.70 0.6626
558.80 0.6621
558.90 0.6617
559.00 0.6612
559.10 0.6608
559.20 0.6604
559.30 0.6599
559.40 0.6595
559.50 0.659
559.60 0.6586
559.70 0.6582
559.80 0.6577
559.90 0.6573
560.00 0.6569
560.10 0.6564
560.20 0.656
560.30 0.6555
560.40 0.6551
560.50 0.6547
560.60 0.6542
560.70 0.6538
560.80 0.6534
560.90 0.6529
561.00 0.6525
561.10 0.6521
561.20 0.6516
561.30 0.6512
561.40 0.6508
561.50 0.6503
561.60 0.6499
561.70 0.6495
561.80 0.649
561.90 0.6486
562.00 0.6482
562.10 0.6477
562.20 0.6473
562.30 0.6469
562.40 0.6464
562.50 0.646
562.60 0.6456
562.70 0.6452
562.80 0.6447
562.90 0.6443
563.00 0.6439
563.10 0.6434
563.20 0.643
563.30 0.6426
563.40 0.6422
563.50 0.6417
563.60 0.6413
563.70 0.6409
563.80 0.6405
563.90 0.64
564.00 0.6396
564.10 0.6392
564.20 0.6388
564.30 0.6384
564.40 0.6379
564.50 0.6375
564.60 0.6371
564.70 0.6367
564.80 0.6362
564.90 0.6358
565.00 0.6354
565.10 0.635
565.20 0.6346
565.30 0.6341
565.40 0.6337
565.50 0.6333
565.60 0.6329
565.70 0.6325
565.80 0.6321
565.90 0.6316
566.00 0.6312
566.10 0.6308
566.20 0.6304
566.30 0.63
566.40 0.6296
566.50 0.6291
566.60 0.6287
566.70 0.6283
566.80 0.6279
566.90 0.6275
567.00 0.6271
567.10 0.6267
567.20 0.6262
567.30 0.6258
567.40 0.6254
567.50 0.625
567.60 0.6246
567.70 0.6242
567.80 0.6238
567.90 0.6234
568.00 0.623
568.10 0.6225
568.20 0.6221
568.30 0.6217
568.40 0.6213
568.50 0.6209
568.60 0.6205
568.70 0.6201
568.80 0.6197
568.90 0.6193
569.00 0.6189
569.10 0.6185
569.20 0.6181
569.30 0.6177
569.40 0.6172
569.50 0.6168
569.60 0.6164
569.70 0.616
569.80 0.6156
569.90 0.6152
570.00 0.6148
570.10 0.6144
570.20 0.614
570.30 0.6136
570.40 0.6132
570.50 0.6128
570.60 0.6124
570.70 0.612
570.80 0.6116
570.90 0.6112
571.00 0.6108
571.10 0.6104
571.20 0.61
571.30 0.6096
571.40 0.6092
571.50 0.6088
571.60 0.6084
571.70 0.608
571.80 0.6076
571.90 0.6072
572.00 0.6068
572.10 0.6064
572.20 0.606
572.30 0.6056
572.40 0.6052
572.50 0.6048
572.60 0.6045
572.70 0.6041
572.80 0.6037
572.90 0.6033
573.00 0.6029
573.10 0.6025
573.20 0.6021
573.30 0.6017
573.40 0.6013
573.50 0.6009
573.60 0.6005
573.70 0.6001
573.80 0.5997
573.90 0.5994
574.00 0.599
574.10 0.5986
574.20 0.5982
574.30 0.5978
574.40 0.5974
574.50 0.597
574.60 0.5966
574.70 0.5962
574.80 0.5958
574.90 0.5955
575.00 0.5951
575.10 0.5947
575.20 0.5943
575.30 0.5939
575.40 0.5935
575.50 0.5931
575.60 0.5928
575.70 0.5924
575.80 0.592
575.90 0.5916
576.00 0.5912
576.10 0.5908
576.20 0.5905
576.30 0.5901
576.40 0.5897
576.50 0.5893
576.60 0.5889
576.70 0.5885
576.80 0.5882
576.90 0.5878
577.00 0.5874
577.10 0.587
577.20 0.5866
577.30 0.5863
577.40 0.5859
577.50 0.5855
577.60 0.5851
577.70 0.5847
577.80 0.5844
577.90 0.584
578.00 0.5836
578.10 0.5832
578.20 0.5828
578.30 0.5825
578.40 0.5821
578.50 0.5817
578.60 0.5813
578.70 0.581
578.80 0.5806
578.90 0.5802
579.00 0.5798
579.10 0.5795
579.20 0.5791
579.30 0.5787
579.40 0.5783
579.50 0.578
579.60 0.5776
579.70 0.5772
579.80 0.5769
579.90 0.5765
580.00 0.5761
580.10 0.5757
580.20 0.5754
580.30 0.575
580.40 0.5746
580.50 0.5743
580.60 0.5739
580.70 0.5735
580.80 0.5731
580.90 0.5728
581.00 0.5724
581.10 0.572
581.20 0.5717
581.30 0.5713
581.40 0.5709
581.50 0.5706
581.60 0.5702
581.70 0.5698
581.80 0.5695
581.90 0.5691
582.00 0.5687
582.10 0.5684
582.20 0.568
582.30 0.5676
582.40 0.5673
582.50 0.5669
582.60 0.5665
582.70 0.5662
582.80 0.5658
582.90 0.5655
583.00 0.5651
583.10 0.5647
583.20 0.5644
583.30 0.564
583.40 0.5636
583.50 0.5633
583.60 0.5629
583.70 0.5626
583.80 0.5622
583.90 0.5618
584.00 0.5615
584.10 0.5611
584.20 0.5608
584.30 0.5604
584.40 0.56
584.50 0.5597
584.60 0.5593
584.70 0.559
584.80 0.5586
584.90 0.5583
585.00 0.5579
585.10 0.5575
585.20 0.5572
585.30 0.5568
585.40 0.5565
585.50 0.5561
585.60 0.5558
585.70 0.5554
585.80 0.5551
585.90 0.5547
586.00 0.5543
586.10 0.554
586.20 0.5536
586.30 0.5533
586.40 0.5529
586.50 0.5526
586.60 0.5522
586.70 0.5519
586.80 0.5515
586.90 0.5512
587.00 0.5508
587.10 0.5505
587.20 0.5501
587.30 0.5498
587.40 0.5494
587.50 0.5491
587.60 0.5487
587.70 0.5484
587.80 0.548
587.90 0.5477
588.00 0.5473
588.10 0.547
588.20 0.5466
588.30 0.5463
588.40 0.5459
588.50 0.5456
588.60 0.5452
588.70 0.5449
588.80 0.5445
588.90 0.5442
589.00 0.5438
589.10 0.5435
589.20 0.5432
589.30 0.5428
589.40 0.5425
589.50 0.5421
589.60 0.5418
589.70 0.5414
589.80 0.5411
589.90 0.5407
590.00 0.5404
590.10 0.5401
590.20 0.5397
590.30 0.5394
590.40 0.539
590.50 0.5387
590.60 0.5383
590.70 0.538
590.80 0.5377
590.90 0.5373
591.00 0.537
591.10 0.5366
591.20 0.5363
591.30 0.536
591.40 0.5356
591.50 0.5353
591.60 0.5349
591.70 0.5346
591.80 0.5343
591.90 0.5339
592.00 0.5336
592.10 0.5333
592.20 0.5329
592.30 0.5326
592.40 0.5322
592.50 0.5319
592.60 0.5316
592.70 0.5312
592.80 0.5309
592.90 0.5306
593.00 0.5302
593.10 0.5299
593.20 0.5296
593.30 0.5292
593.40 0.5289
593.50 0.5286
593.60 0.5282
593.70 0.5279
593.80 0.5276
593.90 0.5272
594.00 0.5269
594.10 0.5266
594.20 0.5262
594.30 0.5259
594.40 0.5256
594.50 0.5252
594.60 0.5249
594.70 0.5246
594.80 0.5242
594.90 0.5239
595.00 0.5236
595.10 0.5233
595.20 0.5229
595.30 0.5226
595.40 0.5223
595.50 0.5219
595.60 0.5216
595.70 0.5213
595.80 0.521
595.90 0.5206
596.00 0.5203
596.10 0.52
596.20 0.5196
596.30 0.5193
596.40 0.519
596.50 0.5187
596.60 0.5183
596.70 0.518
596.80 0.5177
596.90 0.5174
597.00 0.517
597.10 0.5167
597.20 0.5164
597.30 0.5161
597.40 0.5157
597.50 0.5154
597.60 0.5151
597.70 0.5148
597.80 0.5145
597.90 0.5141
598.00 0.5138
598.10 0.5135
598.20 0.5132
598.30 0.5128
598.40 0.5125
598.50 0.5122
598.60 0.5119
598.70 0.5116
598.80 0.5112
598.90 0.5109
599.00 0.5106
599.10 0.5103
599.20 0.51
599.30 0.5096
599.40 0.5093
599.50 0.509
599.60 0.5087
599.70 0.5084
599.80 0.5081
599.90 0.5077
600.00 0.5074
600.10 0.5071
600.20 0.5068
600.30 0.5065
600.40 0.5062
600.50 0.5058
600.60 0.5055
600.70 0.5052
600.80 0.5049
600.90 0.5046
601.00 0.5043
601.10 0.5039
601.20 0.5036
601.30 0.5033
601.40 0.503
601.50 0.5027
601.60 0.5024
601.70 0.5021
601.80 0.5018
601.90 0.5014
602.00 0.5011
602.10 0.5008
602.20 0.5005
602.30 0.5002
602.40 0.4999
602.50 0.4996
602.60 0.4993
602.70 0.4989
602.80 0.4986
602.90 0.4983
603.00 0.498
603.10 0.4977
603.20 0.4974
603.30 0.4971
603.40 0.4968
603.50 0.4965
603.60 0.4962
603.70 0.4959
603.80 0.4955
603.90 0.4952
604.00 0.4949
604.10 0.4946
604.20 0.4943
604.30 0.494
604.40 0.4937
604.50 0.4934
604.60 0.4931
604.70 0.4928
604.80 0.4925
604.90 0.4922
605.00 0.4919
605.10 0.4916
605.20 0.4913
605.30 0.491
605.40 0.4907
605.50 0.4903
605.60 0.49
605.70 0.4897
605.80 0.4894
605.90 0.4891
606.00 0.4888
606.10 0.4885
606.20 0.4882
606.30 0.4879
606.40 0.4876
606.50 0.4873
606.60 0.487
606.70 0.4867
606.80 0.4864
606.90 0.4861
607.00 0.4858
607.10 0.4855
607.20 0.4852
607.30 0.4849
607.40 0.4846
607.50 0.4843
607.60 0.484
607.70 0.4837
607.80 0.4834
607.90 0.4831
608.00 0.4828
608.10 0.4825
608.20 0.4822
608.30 0.4819
608.40 0.4816
608.50 0.4813
608.60 0.481
608.70 0.4807
608.80 0.4804
608.90 0.4802
609.00 0.4799
609.10 0.4796
609.20 0.4793
609.30 0.479
609.40 0.4787
609.50 0.4784
609.60 0.4781
609.70 0.4778
609.80 0.4775
609.90 0.4772
610.00 0.4769
610.10 0.4766
610.20 0.4763
610.30 0.476
610.40 0.4757
610.50 0.4754
610.60 0.4752
610.70 0.4749
610.80 0.4746
610.90 0.4743
611.00 0.474
611.10 0.4737
611.20 0.4734
611.30 0.4731
611.40 0.4728
611.50 0.4725
611.60 0.4722
611.70 0.472
611.80 0.4717
611.90 0.4714
612.00 0.4711
612.10 0.4708
612.20 0.4705
612.30 0.4702
612.40 0.4699
612.50 0.4696
612.60 0.4694
612.70 0.4691
612.80 0.4688
612.90 0.4685
613.00 0.4682
613.10 0.4679
613.20 0.4676
613.30 0.4673
613.40 0.4671
613.50 0.4668
613.60 0.4665
613.70 0.4662
613.80 0.4659
613.90 0.4656
614.00 0.4653
614.10 0.4651
614.20 0.4648
614.30 0.4645
614.40 0.4642
614.50 0.4639
614.60 0.4636
614.70 0.4634
614.80 0.4631
614.90 0.4628
615.00 0.4625
615.10 0.4622
615.20 0.4619
615.30 0.4617
615.40 0.4614
615.50 0.4611
615.60 0.4608
615.70 0.4605
615.80 0.4603
615.90 0.46
616.00 0.4597
616.10 0.4594
616.20 0.4591
616.30 0.4589
616.40 0.4586
616.50 0.4583
616.60 0.458
616.70 0.4577
616.80 0.4575
616.90 0.4572
617.00 0.4569
617.10 0.4566
617.20 0.4563
617.30 0.4561
617.40 0.4558
617.50 0.4555
617.60 0.4552
617.70 0.455
617.80 0.4547
617.90 0.4544
618.00 0.4541
618.10 0.4539
618.20 0.4536
618.30 0.4533
618.40 0.453
618.50 0.4528
618.60 0.4525
618.70 0.4522
618.80 0.4519
618.90 0.4517
619.00 0.4514
619.10 0.4511
619.20 0.4508
619.30 0.4506
619.40 0.4503
619.50 0.45
619.60 0.4497
619.70 0.4495
619.80 0.4492
619.90 0.4489
620.00 0.4486
620.10 0.4484
620.20 0.4481
620.30 0.4478
620.40 0.4476
620.50 0.4473
620.60 0.447
620.70 0.4467
620.80 0.4465
620.90 0.4462
621.00 0.4459
621.10 0.4457
621.20 0.4454
621.30 0.4451
621.40 0.4449
621.50 0.4446
621.60 0.4443
621.70 0.4441
621.80 0.4438
621.90 0.4435
622.00 0.4432
622.10 0.443
622.20 0.4427
622.30 0.4424
622.40 0.4422
622.50 0.4419
622.60 0.4416
622.70 0.4414
622.80 0.4411
622.90 0.4408
623.00 0.4406
623.10 0.4403
623.20 0.44
623.30 0.4398
623.40 0.4395
623.50 0.4392
623.60 0.439
623.70 0.4387
623.80 0.4385
623.90 0.4382
624.00 0.4379
624.10 0.4377
624.20 0.4374
624.30 0.4371
624.40 0.4369
624.50 0.4366
624.60 0.4363
624.70 0.4361
624.80 0.4358
624.90 0.4356
625.00 0.4353
625.10 0.435
625.20 0.4348
625.30 0.4345
625.40 0.4342
625.50 0.434
625.60 0.4337
625.70 0.4335
625.80 0.4332
625.90 0.4329
626.00 0.4327
626.10 0.4324
626.20 0.4322
626.30 0.4319
626.40 0.4316
626.50 0.4314
626.60 0.4311
626.70 0.4309
626.80 0.4306
626.90 0.4303
627.00 0.4301
627.10 0.4298
627.20 0.4296
627.30 0.4293
627.40 0.429
627.50 0.4288
627.60 0.4285
627.70 0.4283
627.80 0.428
627.90 0.4278
628.00 0.4275
628.10 0.4272
628.20 0.427
628.30 0.4267
628.40 0.4265
628.50 0.4262
628.60 0.426
628.70 0.4257
628.80 0.4255
628.90 0.4252
629.00 0.4249
629.10 0.4247
629.20 0.4244
629.30 0.4242
629.40 0.4239
629.50 0.4237
629.60 0.4234
629.70 0.4232
629.80 0.4229
629.90 0.4227
630.00 0.4224
630.10 0.4221
630.20 0.4219
630.30 0.4216
630.40 0.4214
630.50 0.4211
630.60 0.4209
630.70 0.4206
630.80 0.4204
630.90 0.4201
631.00 0.4199
631.10 0.4196
631.20 0.4194
631.30 0.4191
631.40 0.4189
631.50 0.4186
631.60 0.4184
631.70 0.4181
631.80 0.4179
631.90 0.4176
632.00 0.4174
632.10 0.4171
632.20 0.4169
632.30 0.4166
632.40 0.4164
632.50 0.4161
632.60 0.4159
632.70 0.4156
632.80 0.4154
632.90 0.4151
633.00 0.4149
633.10 0.4146
633.20 0.4144
633.30 0.4141
633.40 0.4139
633.50 0.4136
633.60 0.4134
633.70 0.4131
633.80 0.4129
633.90 0.4126
634.00 0.4124
634.10 0.4122
634.20 0.4119
634.30 0.4117
634.40 0.4114
634.50 0.4112
634.60 0.4109
634.70 0.4107
634.80 0.4104
634.90 0.4102
635.00 0.4099
635.10 0.4097
635.20 0.4095
635.30 0.4092
635.40 0.409
635.50 0.4087
635.60 0.4085
635.70 0.4082
635.80 0.408
635.90 0.4077
636.00 0.4075
636.10 0.4072
636.20 0.407
636.30 0.4068
636.40 0.4065
636.50 0.4063
636.60 0.406
636.70 0.4058
636.80 0.4055
636.90 0.4053
637.00 0.4051
637.10 0.4048
637.20 0.4046
637.30 0.4043
637.40 0.4041
637.50 0.4038
637.60 0.4036
637.70 0.4034
637.80 0.4031
637.90 0.4029
638.00 0.4026
638.10 0.4024
638.20 0.4022
638.30 0.4019
638.40 0.4017
638.50 0.4014
638.60 0.4012
638.70 0.4009
638.80 0.4007
638.90 0.4005
639.00 0.4002
639.10 0.4
639.20 0.3997
639.30 0.3995
639.40 0.3993
639.50 0.399
639.60 0.3988
639.70 0.3985
639.80 0.3983
639.90 0.3981
640.00 0.3978
640.10 0.3976
640.20 0.3973
640.30 0.3971
640.40 0.3969
640.50 0.3966
640.60 0.3964
640.70 0.3961
640.80 0.3959
640.90 0.3957
641.00 0.3954
641.10 0.3952
641.20 0.3949
641.30 0.3947
641.40 0.3945
641.50 0.3942
641.60 0.394
641.70 0.3937
641.80 0.3935
641.90 0.3933
642.00 0.393
642.10 0.3928
642.20 0.3925
642.30 0.3923
642.40 0.3921
642.50 0.3918
642.60 0.3916
642.70 0.3913
642.80 0.3911
642.90 0.3909
643.00 0.3906
643.10 0.3904
643.20 0.3901
643.30 0.3899
643.40 0.3896
643.50 0.3894
643.60 0.3892
643.70 0.3889
643.80 0.3887
643.90 0.3884
644.00 0.3882
644.10 0.3879
644.20 0.3877
644.30 0.3875
644.40 0.3872
644.50 0.387
644.60 0.3867
644.70 0.3865
644.80 0.3862
644.90 0.386
645.00 0.3857
645.10 0.3855
645.20 0.3853
645.30 0.385
645.40 0.3848
645.50 0.3845
645.60 0.3843
645.70 0.384
645.80 0.3838
645.90 0.3835
646.00 0.3833
646.10 0.383
646.20 0.3828
646.30 0.3825
646.40 0.3823
646.50 0.382
646.60 0.3817
646.70 0.3815
646.80 0.3812
646.90 0.381
647.00 0.3807
647.10 0.3804
647.20 0.3802
647.30 0.3799
647.40 0.3797
647.50 0.3794
647.60 0.3791
647.70 0.3788
647.80 0.3786
647.90 0.3783
648.00 0.378
648.10 0.3778
648.20 0.3775
648.30 0.3772
648.40 0.3769
648.50 0.3766
648.60 0.3763
648.70 0.376
648.80 0.3757
648.90 0.3755
649.00 0.3752
649.10 0.3749
649.20 0.3746
649.30 0.3743
649.40 0.3739
649.50 0.3736
649.60 0.3733
649.70 0.3729
649.80 0.3726
649.90 0.3723
650.00 0.372
650.10 0.3716
650.20 0.3713
650.30 0.3709
650.40 0.3705
650.50 0.3701
650.60 0.3697
650.70 0.3693
650.80 0.3689
650.90 0.3685
651.00 0.3681
651.10 0.3677
651.20 0.3673
651.30 0.3669
651.40 0.3664
651.50 0.3658
651.60 0.3653
651.70 0.3648
651.80 0.3642
651.90 0.3637
652.00 0.3632
652.10 0.3626
652.20 0.3621
652.30 0.3615
652.40 0.3607
652.50 0.3599
652.60 0.3591
652.70 0.3583
652.80 0.3574
652.90 0.3566
653.00 0.3558
653.10 0.355
653.20 0.3542
653.30 0.3533
653.40 0.3519
653.50 0.3504
653.60 0.349
653.70 0.3476
653.80 0.3462
653.90 0.3448
654.00 0.3434
654.10 0.342
654.20 0.3405
654.30 0.339
654.40 0.3367
654.50 0.3344
654.60 0.3321
654.70 0.3298
654.80 0.3273
654.90 0.324
655.00 0.3208
655.10 0.3175
655.20 0.3142
655.30 0.3108
655.40 0.3065
655.50 0.302
655.60 0.2969
655.70 0.2916
655.80 0.2855
655.90 0.2789
656.00 0.2709
656.10 0.2625
656.20 0.2404
656.30 0.1892
656.40 0.2529
656.50 0.2652
656.60 0.273
656.70 0.2804
656.80 0.2863
656.90 0.2919
657.00 0.2966
657.10 0.3012
657.20 0.3051
657.30 0.3089
657.40 0.3118
657.50 0.3146
657.60 0.3175
657.70 0.3204
657.80 0.3231
657.90 0.325
658.00 0.3269
658.10 0.3288
658.20 0.3306
658.30 0.3323
658.40 0.3333
658.50 0.3343
658.60 0.3353
658.70 0.3363
658.80 0.3373
658.90 0.3383
659.00 0.3393
659.10 0.3403
659.20 0.3412
659.30 0.3421
659.40 0.3425
659.50 0.3429
659.60 0.3433
659.70 0.3436
659.80 0.344
659.90 0.3444
660.00 0.3448
660.10 0.3452
660.20 0.3455
660.30 0.3459
660.40 0.346
660.50 0.3461
660.60 0.3462
660.70 0.3463
660.80 0.3464
660.90 0.3465
661.00 0.3466
661.10 0.3467
661.20 0.3468
661.30 0.3469
661.40 0.3469
661.50 0.3468
661.60 0.3468
661.70 0.3468
661.80 0.3468
661.90 0.3467
662.00 0.3467
662.10 0.3467
662.20 0.3467
662.30 0.3466
662.40 0.3465
662.50 0.3464
662.60 0.3463
662.70 0.3462
662.80 0.3461
662.90 0.346
663.00 0.346
663.10 0.3459
663.20 0.3458
663.30 0.3457
663.40 0.3455
663.50 0.3454
663.60 0.3453
663.70 0.3451
663.80 0.345
663.90 0.3449
664.00 0.3448
664.10 0.3446
664.20 0.3445
664.30 0.3444
664.40 0.3442
664.50 0.3441
664.60 0.3439
664.70 0.3438
664.80 0.3436
664.90 0.3435
665.00 0.3433
665.10 0.3432
665.20 0.343
665.30 0.3428
665.40 0.3427
665.50 0.3425
665.60 0.3424
665.70 0.3422
665.80 0.342
665.90 0.3419
666.00 0.3417
666.10 0.3415
666.20 0.3414
666.30 0.3412
666.40 0.341
666.50 0.3409
666.60 0.3407
666.70 0.3405
666.80 0.3404
666.90 0.3402
667.00 0.34
667.10 0.3398
667.20 0.3397
667.30 0.3395
667.40 0.3393
667.50 0.3392
667.60 0.339
667.70 0.3388
667.80 0.3386
667.90 0.3385
668.00 0.3383
668.10 0.3381
668.20 0.3379
668.30 0.3378
668.40 0.3376
668.50 0.3374
668.60 0.3372
668.70 0.337
668.80 0.3369
668.90 0.3367
669.00 0.3365
669.10 0.3363
669.20 0.3362
669.30 0.336
669.40 0.3358
669.50 0.3356
669.60 0.3354
669.70 0.3353
669.80 0.3351
669.90 0.3349
670.00 0.3347
670.10 0.3345
670.20 0.3344
670.30 0.3342
670.40 0.334
670.50 0.3338
670.60 0.3336
670.70 0.3335
670.80 0.3333
670.90 0.3331
671.00 0.3329
671.10 0.3327
671.20 0.3326
671.30 0.3324
671.40 0.3322
671.50 0.332
671.60 0.3318
671.70 0.3317
671.80 0.3315
671.90 0.3313
672.00 0.3311
672.10 0.3309
672.20 0.3308
672.30 0.3306
672.40 0.3304
672.50 0.3302
672.60 0.33
672.70 0.3299
672.80 0.3297
672.90 0.3295
673.00 0.3293
673.10 0.3291
673.20 0.329
673.30 0.3288
673.40 0.3286
673.50 0.3284
673.60 0.3282
673.70 0.3281
673.80 0.3279
673.90 0.3277
674.00 0.3275
674.10 0.3273
674.20 0.3272
674.30 0.327
674.40 0.3268
674.50 0.3266
674.60 0.3264
674.70 0.3263
674.80 0.3261
674.90 0.3259
675.00 0.3257
675.10 0.3255
675.20 0.3254
675.30 0.3252
675.40 0.325
675.50 0.3248
675.60 0.3247
675.70 0.3245
675.80 0.3243
675.90 0.3241
676.00 0.3239
676.10 0.3238
676.20 0.3236
676.30 0.3234
676.40 0.3232
676.50 0.323
676.60 0.3229
676.70 0.3227
676.80 0.3225
676.90 0.3223
677.00 0.3222
677.10 0.322
677.20 0.3218
677.30 0.3216
677.40 0.3215
677.50 0.3213
677.60 0.3211
677.70 0.3209
677.80 0.3207
677.90 0.3206
678.00 0.3204
678.10 0.3202
678.20 0.32
678.30 0.3199
678.40 0.3197
678.50 0.3195
678.60 0.3193
678.70 0.3192
678.80 0.319
678.90 0.3188
679.00 0.3186
679.10 0.3185
679.20 0.3183
679.30 0.3181
679.40 0.3179
679.50 0.3178
679.60 0.3176
679.70 0.3174
679.80 0.3172
679.90 0.3171
680.00 0.3169
680.10 0.3167
680.20 0.3165
680.30 0.3164
680.40 0.3162
680.50 0.316
680.60 0.3158
680.70 0.3157
680.80 0.3155
680.90 0.3153
681.00 0.3151
681.10 0.315
681.20 0.3148
681.30 0.3146
681.40 0.3144
681.50 0.3143
681.60 0.3141
681.70 0.3139
681.80 0.3138
681.90 0.3136
682.00 0.3134
682.10 0.3132
682.20 0.3131
682.30 0.3129
682.40 0.3127
682.50 0.3126
682.60 0.3124
682.70 0.3122
682.80 0.312
682.90 0.3119
683.00 0.3117
683.10 0.3115
683.20 0.3114
683.30 0.3112
683.40 0.311
683.50 0.3108
683.60 0.3107
683.70 0.3105
683.80 0.3103
683.90 0.3102
684.00 0.31
684.10 0.3098
684.20 0.3096
684.30 0.3095
684.40 0.3093
684.50 0.3091
684.60 0.309
684.70 0.3088
684.80 0.3086
684.90 0.3085
685.00 0.3083
685.10 0.3081
685.20 0.3079
685.30 0.3078
685.40 0.3076
685.50 0.3074
685.60 0.3073
685.70 0.3071
685.80 0.3069
685.90 0.3068
686.00 0.3066
686.10 0.3064
686.20 0.3063
686.30 0.3061
686.40 0.3059
686.50 0.3058
686.60 0.3056
686.70 0.3054
686.80 0.3053
686.90 0.3051
687.00 0.3049
687.10 0.3048
687.20 0.3046
687.30 0.3044
687.40 0.3043
687.50 0.3041
687.60 0.3039
687.70 0.3038
687.80 0.3036
687.90 0.3034
688.00 0.3033
688.10 0.3031
688.20 0.3029
688.30 0.3028
688.40 0.3026
688.50 0.3024
688.60 0.3023
688.70 0.3021
688.80 0.3019
688.90 0.3018
689.00 0.3016
689.10 0.3014
689.20 0.3013
689.30 0.3011
689.40 0.301
689.50 0.3008
689.60 0.3006
689.70 0.3005
689.80 0.3003
689.90 0.3001
690.00 0.3
690.10 0.2998
690.20 0.2996
690.30 0.2995
690.40 0.2993
690.50 0.2992
690.60 0.299
690.70 0.2988
690.80 0.2987
690.90 0.2985
691.00 0.2983
691.10 0.2982
691.20 0.298
691.30 0.2979
691.40 0.2977
691.50 0.2975
691.60 0.2974
691.70 0.2972
691.80 0.297
691.90 0.2969
692.00 0.2967
692.10 0.2966
692.20 0.2964
692.30 0.2962
692.40 0.2961
692.50 0.2959
692.60 0.2958
692.70 0.2956
692.80 0.2954
692.90 0.2953
693.00 0.2951
693.10 0.295
693.20 0.2948
693.30 0.2946
693.40 0.2945
693.50 0.2943
693.60 0.2941
693.70 0.294
693.80 0.2938
693.90 0.2937
694.00 0.2935
694.10 0.2933
694.20 0.2932
694.30 0.293
694.40 0.2929
694.50 0.2927
694.60 0.2926
694.70 0.2924
694.80 0.2922
694.90 0.2921
695.00 0.2919
695.10 0.2918
695.20 0.2916
695.30 0.2914
695.40 0.2913
695.50 0.2911
695.60 0.291
695.70 0.2908
695.80 0.2907
695.90 0.2905
696.00 0.2903
696.10 0.2902
696.20 0.29
696.30 0.2899
696.40 0.2897
696.50 0.2896
696.60 0.2894
696.70 0.2892
696.80 0.2891
696.90 0.2889
697.00 0.2888
697.10 0.2886
697.20 0.2885
697.30 0.2883
697.40 0.2882
697.50 0.288
697.60 0.2878
697.70 0.2877
697.80 0.2875
697.90 0.2874
698.00 0.2872
698.10 0.2871
698.20 0.2869
698.30 0.2868
698.40 0.2866
698.50 0.2864
698.60 0.2863
698.70 0.2861
698.80 0.286
698.90 0.2858
699.00 0.2857
699.10 0.2855
699.20 0.2854
699.30 0.2852
699.40 0.285
699.50 0.2849
699.60 0.2847
699.70 0.2846
699.80 0.2844
699.90 0.2843
700.00 0.2841
700.10 0.284
700.20 0.2838
700.30 0.2837
700.40 0.2835
700.50 0.2834
700.60 0.2832
700.70 0.2831
700.80 0.2829
700.90 0.2828
701.00 0.2826
701.10 0.2825
701.20 0.2823
701.30 0.2821
701.40 0.282
701.50 0.2818
701.60 0.2817
701.70 0.2815
701.80 0.2814
701.90 0.2812
702.00 0.2811
702.10 0.2809
702.20 0.2808
702.30 0.2806
702.40 0.2805
702.50 0.2803
702.60 0.2802
702.70 0.28
702.80 0.2799
702.90 0.2797
703.00 0.2796
703.10 0.2794
703.20 0.2793
703.30 0.2791
703.40 0.279
703.50 0.2788
703.60 0.2787
703.70 0.2785
703.80 0.2784
703.90 0.2782
704.00 0.2781
704.10 0.2779
704.20 0.2778
704.30 0.2776
704.40 0.2775
704.50 0.2773
704.60 0.2772
704.70 0.277
704.80 0.2769
704.90 0.2767
705.00 0.2766
705.10 0.2764
705.20 0.2763
705.30 0.2762
705.40 0.276
705.50 0.2759
705.60 0.2757
705.70 0.2756
705.80 0.2754
705.90 0.2753
706.00 0.2751
706.10 0.275
706.20 0.2748
706.30 0.2747
706.40 0.2745
706.50 0.2744
706.60 0.2742
706.70 0.2741
706.80 0.274
706.90 0.2738
707.00 0.2737
707.10 0.2735
707.20 0.2734
707.30 0.2732
707.40 0.2731
707.50 0.2729
707.60 0.2728
707.70 0.2726
707.80 0.2725
707.90 0.2723
708.00 0.2722
708.10 0.2721
708.20 0.2719
708.30 0.2718
708.40 0.2716
708.50 0.2715
708.60 0.2713
708.70 0.2712
708.80 0.271
708.90 0.2709
709.00 0.2708
709.10 0.2706
709.20 0.2705
709.30 0.2703
709.40 0.2702
709.50 0.27
709.60 0.2699
709.70 0.2697
709.80 0.2696
709.90 0.2695
710.00 0.2693
710.10 0.2692
710.20 0.269
710.30 0.2689
710.40 0.2687
710.50 0.2686
710.60 0.2685
710.70 0.2683
710.80 0.2682
710.90 0.268
711.00 0.2679
711.10 0.2677
711.20 0.2676
711.30 0.2675
711.40 0.2673
711.50 0.2672
711.60 0.267
711.70 0.2669
711.80 0.2668
711.90 0.2666
712.00 0.2665
712.10 0.2663
712.20 0.2662
712.30 0.266
712.40 0.2659
712.50 0.2658
712.60 0.2656
712.70 0.2655
712.80 0.2653
712.90 0.2652
713.00 0.2651
713.10 0.2649
713.20 0.2648
713.30 0.2646
713.40 0.2645
713.50 0.2644
713.60 0.2642
713.70 0.2641
713.80 0.2639
713.90 0.2638
714.00 0.2637
714.10 0.2635
714.20 0.2634
714.30 0.2632
714.40 0.2631
714.50 0.263
714.60 0.2628
714.70 0.2627
714.80 0.2625
714.90 0.2624
715.00 0.2623
715.10 0.2621
715.20 0.262
715.30 0.2619
715.40 0.2617
715.50 0.2616
715.60 0.2614
715.70 0.2613
715.80 0.2612
715.90 0.261
716.00 0.2609
716.10 0.2608
716.20 0.2606
716.30 0.2605
716.40 0.2603
716.50 0.2602
716.60 0.2601
716.70 0.2599
716.80 0.2598
716.90 0.2597
717.00 0.2595
717.10 0.2594
717.20 0.2592
717.30 0.2591
717.40 0.259
717.50 0.2588
717.60 0.2587
717.70 0.2586
717.80 0.2584
717.90 0.2583
718.00 0.2582
718.10 0.258
718.20 0.2579
718.30 0.2577
718.40 0.2576
718.50 0.2575
718.60 0.2573
718.70 0.2572
718.80 0.2571
718.90 0.2569
719.00 0.2568
719.10 0.2567
719.20 0.2565
719.30 0.2564
719.40 0.2563
719.50 0.2561
719.60 0.256
719.70 0.2558
719.80 0.2557
719.90 0.2556
720.00 0.2554
720.10 0.2553
720.20 0.2552
720.30 0.255
720.40 0.2549
720.50 0.2548
720.60 0.2546
720.70 0.2545
720.80 0.2544
720.90 0.2542
721.00 0.2541
721.10 0.254
721.20 0.2538
721.30 0.2537
721.40 0.2536
721.50 0.2534
721.60 0.2533
721.70 0.2532
721.80 0.2531
721.90 0.2529
722.00 0.2528
722.10 0.2527
722.20 0.2525
722.30 0.2524
722.40 0.2523
722.50 0.2521
722.60 0.252
722.70 0.2519
722.80 0.2517
722.90 0.2516
723.00 0.2515
723.10 0.2513
723.20 0.2512
723.30 0.2511
723.40 0.2509
723.50 0.2508
723.60 0.2507
723.70 0.2505
723.80 0.2504
723.90 0.2503
724.00 0.2502
724.10 0.25
724.20 0.2499
724.30 0.2498
724.40 0.2496
724.50 0.2495
724.60 0.2494
724.70 0.2492
724.80 0.2491
724.90 0.249
725.00 0.2488
725.10 0.2487
725.20 0.2486
725.30 0.2485
725.40 0.2483
725.50 0.2482
725.60 0.2481
725.70 0.2479
725.80 0.2478
725.90 0.2477
726.00 0.2476
726.10 0.2474
726.20 0.2473
726.30 0.2472
726.40 0.247
726.50 0.2469
726.60 0.2468
726.70 0.2467
726.80 0.2465
726.90 0.2464
727.00 0.2463
727.10 0.2461
727.20 0.246
727.30 0.2459
727.40 0.2458
727.50 0.2456
727.60 0.2455
727.70 0.2454
727.80 0.2453
727.90 0.2451
728.00 0.245
728.10 0.2449
728.20 0.2447
728.30 0.2446
728.40 0.2445
728.50 0.2444
728.60 0.2442
728.70 0.2441
728.80 0.244
728.90 0.2439
729.00 0.2437
729.10 0.2436
729.20 0.2435
729.30 0.2433
729.40 0.2432
729.50 0.2431
729.60 0.243
729.70 0.2428
729.80 0.2427
729.90 0.2426
730.00 0.2425
730.10 0.2423
730.20 0.2422
730.30 0.2421
730.40 0.242
730.50 0.2418
730.60 0.2417
730.70 0.2416
730.80 0.2415
730.90 0.2413
731.00 0.2412
731.10 0.2411
731.20 0.241
731.30 0.2408
731.40 0.2407
731.50 0.2406
731.60 0.2405
731.70 0.2404
731.80 0.2402
731.90 0.2401
732.00 0.24
732.10 0.2399
732.20 0.2397
732.30 0.2396
732.40 0.2395
732.50 0.2394
732.60 0.2392
732.70 0.2391
732.80 0.239
732.90 0.2389
733.00 0.2387
733.10 0.2386
733.20 0.2385
733.30 0.2384
733.40 0.2383
733.50 0.2381
733.60 0.238
733.70 0.2379
733.80 0.2378
733.90 0.2376
734.00 0.2375
734.10 0.2374
734.20 0.2373
734.30 0.2372
734.40 0.237
734.50 0.2369
734.60 0.2368
734.70 0.2367
734.80 0.2365
734.90 0.2364
735.00 0.2363
735.10 0.2362
735.20 0.2361
735.30 0.2359
735.40 0.2358
735.50 0.2357
735.60 0.2356
735.70 0.2355
735.80 0.2353
735.90 0.2352
736.00 0.2351
736.10 0.235
736.20 0.2348
736.30 0.2347
736.40 0.2346
736.50 0.2345
736.60 0.2344
736.70 0.2342
736.80 0.2341
736.90 0.234
737.00 0.2339
737.10 0.2338
737.20 0.2336
737.30 0.2335
737.40 0.2334
737.50 0.2333
737.60 0.2332
737.70 0.233
737.80 0.2329
737.90 0.2328
738.00 0.2327
738.10 0.2326
738.20 0.2324
738.30 0.2323
738.40 0.2322
738.50 0.2321
738.60 0.232
738.70 0.2318
738.80 0.2317
738.90 0.2316
739.00 0.2315
739.10 0.2314
739.20 0.2312
739.30 0.2311
739.40 0.231
739.50 0.2309
739.60 0.2308
739.70 0.2306
739.80 0.2305
739.90 0.2304
740.00 0.2303
740.10 0.2302
740.20 0.2301
740.30 0.2299
740.40 0.2298
740.50 0.2297
740.60 0.2296
740.70 0.2295
740.80 0.2294
740.90 0.2292
741.00 0.2291
741.10 0.229
741.20 0.2289
741.30 0.2288
741.40 0.2287
741.50 0.2285
741.60 0.2284
741.70 0.2283
741.80 0.2282
741.90 0.2281
742.00 0.228
742.10 0.2278
742.20 0.2277
742.30 0.2276
742.40 0.2275
742.50 0.2274
742.60 0.2273
742.70 0.2272
742.80 0.227
742.90 0.2269
743.00 0.2268
743.10 0.2267
743.20 0.2266
743.30 0.2265
743.40 0.2264
743.50 0.2262
743.60 0.2261
743.70 0.226
743.80 0.2259
743.90 0.2258
744.00 0.2257
744.10 0.2255
744.20 0.2254
744.30 0.2253
744.40 0.2252
744.50 0.2251
744.60 0.225
744.70 0.2249
744.80 0.2247
744.90 0.2246
745.00 0.2245
745.10 0.2244
745.20 0.2243
745.30 0.2242
745.40 0.2241
745.50 0.2239
745.60 0.2238
745.70 0.2237
745.80 0.2236
745.90 0.2235
746.00 0.2234
746.10 0.2233
746.20 0.2232
746.30 0.223
746.40 0.2229
746.50 0.2228
746.60 0.2227
746.70 0.2226
746.80 0.2225
746.90 0.2224
747.00 0.2222
747.10 0.2221
747.20 0.222
747.30 0.2219
747.40 0.2218
747.50 0.2217
747.60 0.2216
747.70 0.2215
747.80 0.2213
747.90 0.2212
748.00 0.2211
748.10 0.221
748.20 0.2209
748.30 0.2208
748.40 0.2207
748.50 0.2206
748.60 0.2204
748.70 0.2203
748.80 0.2202
748.90 0.2201
749.00 0.22
749.10 0.2199
749.20 0.2198
749.30 0.2197
749.40 0.2195
749.50 0.2194
749.60 0.2193
749.70 0.2192
749.80 0.2191
749.90 0.219
750.00 0.2189
750.10 0.2188
750.20 0.2187
750.30 0.2185
750.40 0.2184
750.50 0.2183
750.60 0.2182
750.70 0.2181
750.80 0.218
750.90 0.2179
751.00 0.2178
751.10 0.2177
751.20 0.2176
751.30 0.2175
751.40 0.2173
751.50 0.2172
751.60 0.2171
751.70 0.217
751.80 0.2169
751.90 0.2168
752.00 0.2167
752.10 0.2166
752.20 0.2165
752.30 0.2164
752.40 0.2163
752.50 0.2162
752.60 0.216
752.70 0.2159
752.80 0.2158
752.90 0.2157
753.00 0.2156
753.10 0.2155
753.20 0.2154
753.30 0.2153
753.40 0.2152
753.50 0.2151
753.60 0.215
753.70 0.2149
753.80 0.2147
753.90 0.2146
754.00 0.2145
754.10 0.2144
754.20 0.2143
754.30 0.2142
754.40 0.2141
754.50 0.214
754.60 0.2139
754.70 0.2138
754.80 0.2137
754.90 0.2136
755.00 0.2135
755.10 0.2134
755.20 0.2132
755.30 0.2131
755.40 0.213
755.50 0.2129
755.60 0.2128
755.70 0.2127
755.80 0.2126
755.90 0.2125
756.00 0.2124
756.10 0.2123
756.20 0.2122
756.30 0.2121
756.40 0.212
756.50 0.2119
756.60 0.2117
756.70 0.2116
756.80 0.2115
756.90 0.2114
757.00 0.2113
757.10 0.2112
757.20 0.2111
757.30 0.211
757.40 0.2109
757.50 0.2108
757.60 0.2107
757.70 0.2106
757.80 0.2105
757.90 0.2104
758.00 0.2103
758.10 0.2102
758.20 0.2101
758.30 0.2099
758.40 0.2098
758.50 0.2097
758.60 0.2096
758.70 0.2095
758.80 0.2094
758.90 0.2093
759.00 0.2092
759.10 0.2091
759.20 0.209
759.30 0.2089
759.40 0.2088
759.50 0.2087
759.60 0.2086
759.70 0.2085
759.80 0.2084
759.90 0.2083
760.00 0.2082
760.10 0.2081
760.20 0.208
760.30 0.2079
760.40 0.2077
760.50 0.2076
760.60 0.2075
760.70 0.2074
760.80 0.2073
760.90 0.2072
761.00 0.2071
761.10 0.207
761.20 0.2069
761.30 0.2068
761.40 0.2067
761.50 0.2066
761.60 0.2065
761.70 0.2064
761.80 0.2063
761.90 0.2062
762.00 0.2061
762.10 0.206
762.20 0.2059
762.30 0.2058
762.40 0.2057
762.50 0.2056
762.60 0.2055
762.70 0.2054
762.80 0.2053
762.90 0.2052
763.00 0.2051
763.10 0.205
763.20 0.2049
763.30 0.2048
763.40 0.2047
763.50 0.2046
763.60 0.2045
763.70 0.2044
763.80 0.2043
763.90 0.2042
764.00 0.2041
764.10 0.204
764.20 0.2039
764.30 0.2038
764.40 0.2037
764.50 0.2036
764.60 0.2035
764.70 0.2034
764.80 0.2033
764.90 0.2032
765.00 0.2031
765.10 0.203
765.20 0.2029
765.30 0.2028
765.40 0.2027
765.50 0.2026
765.60 0.2025
765.70 0.2024
765.80 0.2023
765.90 0.2022
766.00 0.2021
766.10 0.202
766.20 0.2019
766.30 0.2018
766.40 0.2017
766.50 0.2016
766.60 0.2015
766.70 0.2014
766.80 0.2013
766.90 0.2012
767.00 0.2011
767.10 0.201
767.20 0.2009
767.30 0.2008
767.40 0.2007
767.50 0.2006
767.60 0.2005
767.70 0.2004
767.80 0.2003
767.90 0.2002
768.00 0.2001
768.10 0.2
768.20 0.1999
768.30 0.1998
768.40 0.1997
768.50 0.1996
768.60 0.1995
768.70 0.1994
768.80 0.1993
768.90 0.1992
769.00 0.1991
769.10 0.199
769.20 0.1989
769.30 0.1988
769.40 0.1987
769.50 0.1986
769.60 0.1985
769.70 0.1984
769.80 0.1983
769.90 0.1982
770.00 0.1981
770.10 0.198
770.20 0.1979
770.30 0.1978
770.40 0.1977
770.50 0.1976
770.60 0.1975
770.70 0.1974
770.80 0.1973
770.90 0.1972
771.00 0.1971
771.10 0.197
771.20 0.1969
771.30 0.1968
771.40 0.1967
771.50 0.1966
771.60 0.1966
771.70 0.1965
771.80 0.1964
771.90 0.1963
772.00 0.1962
772.10 0.1961
772.20 0.196
772.30 0.1959
772.40 0.1958
772.50 0.1957
772.60 0.1956
772.70 0.1955
772.80 0.1954
772.90 0.1953
773.00 0.1952
773.10 0.1951
773.20 0.195
773.30 0.1949
773.40 0.1948
773.50 0.1947
773.60 0.1946
773.70 0.1945
773.80 0.1944
773.90 0.1944
774.00 0.1943
774.10 0.1942
774.20 0.1941
774.30 0.194
774.40 0.1939
774.50 0.1938
774.60 0.1937
774.70 0.1936
774.80 0.1935
774.90 0.1934
775.00 0.1933
775.10 0.1932
775.20 0.1931
775.30 0.193
775.40 0.1929
775.50 0.1928
775.60 0.1927
775.70 0.1926
775.80 0.1926
775.90 0.1925
776.00 0.1924
776.10 0.1923
776.20 0.1922
776.30 0.1921
776.40 0.192
776.50 0.1919
776.60 0.1918
776.70 0.1917
776.80 0.1916
776.90 0.1915
777.00 0.1914
777.10 0.1913
777.20 0.1912
777.30 0.1911
777.40 0.191
777.50 0.191
777.60 0.1909
777.70 0.1908
777.80 0.1907
777.90 0.1906
778.00 0.1905
778.10 0.1904
778.20 0.1903
778.30 0.1902
778.40 0.1901
778.50 0.19
778.60 0.1899
778.70 0.1898
778.80 0.1897
778.90 0.1896
779.00 0.1896
779.10 0.1895
779.20 0.1894
779.30 0.1893
779.40 0.1892
779.50 0.1891
779.60 0.189
779.70 0.1889
779.80 0.1888
779.90 0.1887
780.00 0.1886
780.10 0.1885
780.20 0.1884
780.30 0.1884
780.40 0.1883
780.50 0.1882
780.60 0.1881
780.70 0.188
780.80 0.1879
780.90 0.1878
781.00 0.1877
781.10 0.1876
781.20 0.1875
781.30 0.1874
781.40 0.1874
781.50 0.1873
781.60 0.1872
781.70 0.1871
781.80 0.187
781.90 0.1869
782.00 0.1868
782.10 0.1867
782.20 0.1866
782.30 0.1865
782.40 0.1865
782.50 0.1864
782.60 0.1863
782.70 0.1862
782.80 0.1861
782.90 0.186
783.00 0.1859
783.10 0.1858
783.20 0.1857
783.30 0.1856
783.40 0.1856
783.50 0.1855
783.60 0.1854
783.70 0.1853
783.80 0.1852
783.90 0.1851
784.00 0.185
784.10 0.1849
784.20 0.1848
784.30 0.1848
784.40 0.1847
784.50 0.1846
784.60 0.1845
784.70 0.1844
784.80 0.1843
784.90 0.1842
785.00 0.1841
785.10 0.184
785.20 0.1839
785.30 0.1839
785.40 0.1838
785.50 0.1837
785.60 0.1836
785.70 0.1835
785.80 0.1834
785.90 0.1833
786.00 0.1832
786.10 0.1831
786.20 0.1831
786.30 0.183
786.40 0.1829
786.50 0.1828
786.60 0.1827
786.70 0.1826
786.80 0.1825
786.90 0.1824
787.00 0.1824
787.10 0.1823
787.20 0.1822
787.30 0.1821
787.40 0.182
787.50 0.1819
787.60 0.1818
787.70 0.1817
787.80 0.1816
787.90 0.1816
788.00 0.1815
788.10 0.1814
788.20 0.1813
788.30 0.1812
788.40 0.1811
788.50 0.181
788.60 0.1809
788.70 0.1809
788.80 0.1808
788.90 0.1807
789.00 0.1806
789.10 0.1805
789.20 0.1804
789.30 0.1803
789.40 0.1802
789.50 0.1802
789.60 0.1801
789.70 0.18
789.80 0.1799
789.90 0.1798
790.00 0.1797
790.10 0.1796
790.20 0.1796
790.30 0.1795
790.40 0.1794
790.50 0.1793
790.60 0.1792
790.70 0.1791
790.80 0.179
790.90 0.179
791.00 0.1789
791.10 0.1788
791.20 0.1787
791.30 0.1786
791.40 0.1785
791.50 0.1784
791.60 0.1784
791.70 0.1783
791.80 0.1782
791.90 0.1781
792.00 0.178
792.10 0.1779
792.20 0.1778
792.30 0.1778
792.40 0.1777
792.50 0.1776
792.60 0.1775
792.70 0.1774
792.80 0.1773
792.90 0.1773
793.00 0.1772
793.10 0.1771
793.20 0.177
793.30 0.1769
793.40 0.1768
793.50 0.1767
793.60 0.1767
793.70 0.1766
793.80 0.1765
793.90 0.1764
794.00 0.1763
794.10 0.1762
794.20 0.1762
794.30 0.1761
794.40 0.176
794.50 0.1759
794.60 0.1758
794.70 0.1757
794.80 0.1757
794.90 0.1756
795.00 0.1755
795.10 0.1754
795.20 0.1753
795.30 0.1752
795.40 0.1751
795.50 0.1751
795.60 0.175
795.70 0.1749
795.80 0.1748
795.90 0.1747
796.00 0.1746
796.10 0.1746
796.20 0.1745
796.30 0.1744
796.40 0.1743
796.50 0.1742
796.60 0.1741
796.70 0.1741
796.80 0.174
796.90 0.1739
797.00 0.1738
797.10 0.1737
797.20 0.1736
797.30 0.1736
797.40 0.1735
797.50 0.1734
797.60 0.1733
797.70 0.1732
797.80 0.1732
797.90 0.1731
798.00 0.173
798.10 0.1729
798.20 0.1728
798.30 0.1727
798.40 0.1727
798.50 0.1726
798.60 0.1725
798.70 0.1724
798.80 0.1723
798.90 0.1722
799.00 0.1722
799.10 0.1721
799.20 0.172
799.30 0.1719
799.40 0.1718
799.50 0.1717
799.60 0.1717
799.70 0.1716
799.80 0.1715
799.90 0.1714
800.00 0.1713
800.10 0.1713
800.20 0.1712
800.30 0.1711
800.40 0.171
800.50 0.1709
800.60 0.1709
800.70 0.1708
800.80 0.1707
800.90 0.1706
801.00 0.1705
801.10 0.1705
801.20 0.1704
801.30 0.1703
801.40 0.1702
801.50 0.1701
801.60 0.17
801.70 0.17
801.80 0.1699
801.90 0.1698
802.00 0.1697
802.10 0.1696
802.20 0.1696
802.30 0.1695
802.40 0.1694
802.50 0.1693
802.60 0.1692
802.70 0.1692
802.80 0.1691
802.90 0.169
803.00 0.1689
803.10 0.1689
803.20 0.1688
803.30 0.1687
803.40 0.1686
803.50 0.1685
803.60 0.1685
803.70 0.1684
803.80 0.1683
803.90 0.1682
804.00 0.1681
804.10 0.1681
804.20 0.168
804.30 0.1679
804.40 0.1678
804.50 0.1677
804.60 0.1677
804.70 0.1676
804.80 0.1675
804.90 0.1674
805.00 0.1673
805.10 0.1673
805.20 0.1672
805.30 0.1671
805.40 0.167
805.50 0.1669
805.60 0.1669
805.70 0.1668
805.80 0.1667
805.90 0.1666
806.00 0.1666
806.10 0.1665
806.20 0.1664
806.30 0.1663
806.40 0.1662
806.50 0.1662
806.60 0.1661
806.70 0.166
806.80 0.1659
806.90 0.1658
807.00 0.1658
807.10 0.1657
807.20 0.1656
807.30 0.1655
807.40 0.1655
807.50 0.1654
807.60 0.1653
807.70 0.1652
807.80 0.1651
807.90 0.1651
808.00 0.165
808.10 0.1649
808.20 0.1648
808.30 0.1648
808.40 0.1647
808.50 0.1646
808.60 0.1645
808.70 0.1644
808.80 0.1644
808.90 0.1643
809.00 0.1642
809.10 0.1641
809.20 0.1641
809.30 0.164
809.40 0.1639
809.50 0.1638
809.60 0.1637
809.70 0.1637
809.80 0.1636
809.90 0.1635
810.00 0.1634
810.10 0.1634
810.20 0.1633
810.30 0.1632
810.40 0.1631
810.50 0.1631
810.60 0.163
810.70 0.1629
810.80 0.1628
810.90 0.1628
811.00 0.1627
811.10 0.1626
811.20 0.1625
811.30 0.1624
811.40 0.1624
811.50 0.1623
811.60 0.1622
811.70 0.1621
811.80 0.1621
811.90 0.162
812.00 0.1619
812.10 0.1618
812.20 0.1618
812.30 0.1617
812.40 0.1616
812.50 0.1615
812.60 0.1615
812.70 0.1614
812.80 0.1613
812.90 0.1612
813.00 0.1612
813.10 0.1611
813.20 0.161
813.30 0.1609
813.40 0.1609
813.50 0.1608
813.60 0.1607
813.70 0.1606
813.80 0.1606
813.90 0.1605
814.00 0.1604
814.10 0.1603
814.20 0.1603
814.30 0.1602
814.40 0.1601
814.50 0.16
814.60 0.16
814.70 0.1599
814.80 0.1598
814.90 0.1597
815.00 0.1597
815.10 0.1596
815.20 0.1595
815.30 0.1594
815.40 0.1594
815.50 0.1593
815.60 0.1592
815.70 0.1591
815.80 0.1591
815.90 0.159
816.00 0.1589
816.10 0.1589
816.20 0.1588
816.30 0.1587
816.40 0.1586
816.50 0.1586
816.60 0.1585
816.70 0.1584
816.80 0.1583
816.90 0.1583
817.00 0.1582
817.10 0.1581
817.20 0.158
817.30 0.158
817.40 0.1579
817.50 0.1578
817.60 0.1577
817.70 0.1577
817.80 0.1576
817.90 0.1575
818.00 0.1574
818.10 0.1574
818.20 0.1573
818.30 0.1572
818.40 0.1572
818.50 0.1571
818.60 0.157
818.70 0.1569
818.80 0.1569
818.90 0.1568
819.00 0.1567
819.10 0.1566
819.20 0.1566
819.30 0.1565
819.40 0.1564
819.50 0.1563
819.60 0.1563
819.70 0.1562
819.80 0.1561
819.90 0.1561
820.00 0.156
820.10 0.1559
820.20 0.1558
820.30 0.1558
820.40 0.1557
820.50 0.1556
820.60 0.1556
820.70 0.1555
820.80 0.1554
820.90 0.1553
821.00 0.1553
821.10 0.1552
821.20 0.1551
821.30 0.155
821.40 0.155
821.50 0.1549
821.60 0.1548
821.70 0.1548
821.80 0.1547
821.90 0.1546
822.00 0.1545
822.10 0.1545
822.20 0.1544
822.30 0.1543
822.40 0.1543
822.50 0.1542
822.60 0.1541
822.70 0.154
822.80 0.154
822.90 0.1539
823.00 0.1538
823.10 0.1538
823.20 0.1537
823.30 0.1536
823.40 0.1535
823.50 0.1535
823.60 0.1534
823.70 0.1533
823.80 0.1533
823.90 0.1532
824.00 0.1531
824.10 0.1531
824.20 0.153
824.30 0.1529
824.40 0.1528
824.50 0.1528
824.60 0.1527
824.70 0.1526
824.80 0.1526
824.90 0.1525
825.00 0.1524
825.10 0.1523
825.20 0.1523
825.30 0.1522
825.40 0.1521
825.50 0.1521
825.60 0.152
825.70 0.1519
825.80 0.1519
825.90 0.1518
826.00 0.1517
826.10 0.1516
826.20 0.1516
826.30 0.1515
826.40 0.1514
826.50 0.1514
826.60 0.1513
826.70 0.1512
826.80 0.1512
826.90 0.1511
827.00 0.151
827.10 0.1509
827.20 0.1509
827.30 0.1508
827.40 0.1507
827.50 0.1507
827.60 0.1506
827.70 0.1505
827.80 0.1505
827.90 0.1504
828.00 0.1503
828.10 0.1503
828.20 0.1502
828.30 0.1501
828.40 0.15
828.50 0.15
828.60 0.1499
828.70 0.1498
828.80 0.1498
828.90 0.1497
829.00 0.1496
829.10 0.1496
829.20 0.1495
829.30 0.1494
829.40 0.1493
829.50 0.1493
829.60 0.1492
829.70 0.1491
829.80 0.1491
829.90 0.149
830.00 0.1489
830.10 0.1489
830.20 0.1488
830.30 0.1487
830.40 0.1487
830.50 0.1486
830.60 0.1485
830.70 0.1485
830.80 0.1484
830.90 0.1483
831.00 0.1482
831.10 0.1482
831.20 0.1481
831.30 0.148
831.40 0.148
831.50 0.1479
831.60 0.1478
831.70 0.1478
831.80 0.1477
831.90 0.1476
832.00 0.1476
832.10 0.1475
832.20 0.1474
832.30 0.1474
832.40 0.1473
832.50 0.1472
832.60 0.1471
832.70 0.1471
832.80 0.147
832.90 0.1469
833.00 0.1469
833.10 0.1468
833.20 0.1467
833.30 0.1467
833.40 0.1466
833.50 0.1465
833.60 0.1465
833.70 0.1464
833.80 0.1463
833.90 0.1463
834.00 0.1462
834.10 0.1461
834.20 0.146
834.30 0.146
834.40 0.1459
834.50 0.1458
834.60 0.1458
834.70 0.1457
834.80 0.1456
834.90 0.1456
835.00 0.1455
835.10 0.1454
835.20 0.1454
835.30 0.1453
835.40 0.1452
835.50 0.1452
835.60 0.1451
835.70 0.145
835.80 0.145
835.90 0.1449
836.00 0.1448
836.10 0.1448
836.20 0.1447
836.30 0.1446
836.40 0.1446
836.50 0.1445
836.60 0.1444
836.70 0.1443
836.80 0.1443
836.90 0.1442
837.00 0.1441
837.10 0.1441
837.20 0.144
837.30 0.1439
837.40 0.1439
837.50 0.1438
837.60 0.1437
837.70 0.1437
837.80 0.1436
837.90 0.1436
838.00 0.1435
838.10 0.1434
838.20 0.1434
838.30 0.1433
838.40 0.1432
838.50 0.1432
838.60 0.1431
838.70 0.143
838.80 0.143
838.90 0.1429
839.00 0.1428
839.10 0.1428
839.20 0.1427
839.30 0.1426
839.40 0.1426
839.50 0.1425
839.60 0.1424
839.70 0.1424
839.80 0.1423
839.90 0.1422
840.00 0.1422
840.10 0.1421
840.20 0.142
840.30 0.142
840.40 0.1419
840.50 0.1418
840.60 0.1418
840.70 0.1417
840.80 0.1416
840.90 0.1416
841.00 0.1415
841.10 0.1415
841.20 0.1414
841.30 0.1413
841.40 0.1413
841.50 0.1412
841.60 0.1411
841.70 0.1411
841.80 0.141
841.90 0.1409
842.00 0.1409
842.10 0.1408
842.20 0.1407
842.30 0.1407
842.40 0.1406
842.50 0.1405
842.60 0.1405
842.70 0.1404
842.80 0.1404
842.90 0.1403
843.00 0.1402
843.10 0.1402
843.20 0.1401
843.30 0.14
843.40 0.14
843.50 0.1399
843.60 0.1398
843.70 0.1398
843.80 0.1397
843.90 0.1397
844.00 0.1396
844.10 0.1395
844.20 0.1395
844.30 0.1394
844.40 0.1393
844.50 0.1393
844.60 0.1392
844.70 0.1391
844.80 0.1391
844.90 0.139
845.00 0.139
845.10 0.1389
845.20 0.1388
845.30 0.1388
845.40 0.1387
845.50 0.1386
845.60 0.1386
845.70 0.1385
845.80 0.1384
845.90 0.1384
846.00 0.1383
846.10 0.1383
846.20 0.1382
846.30 0.1381
846.40 0.1381
846.50 0.138
846.60 0.1379
846.70 0.1379
846.80 0.1378
846.90 0.1378
847.00 0.1377
847.10 0.1376
847.20 0.1376
847.30 0.1375
847.40 0.1374
847.50 0.1374
847.60 0.1373
847.70 0.1373
847.80 0.1372
847.90 0.1371
848.00 0.1371
848.10 0.137
848.20 0.137
848.30 0.1369
848.40 0.1368
848.50 0.1368
848.60 0.1367
848.70 0.1366
848.80 0.1366
848.90 0.1365
849.00 0.1365
849.10 0.1364
849.20 0.1363
849.30 0.1363
849.40 0.1362
849.50 0.1362
849.60 0.1361
849.70 0.136
849.80 0.136
849.90 0.1359
850.00 0.1359
850.10 0.1358
850.20 0.1357
850.30 0.1357
850.40 0.1356
850.50 0.1356
850.60 0.1355
850.70 0.1354
850.80 0.1354
850.90 0.1353
851.00 0.1352
851.10 0.1352
851.20 0.1351
851.30 0.1351
851.40 0.135
851.50 0.1349
851.60 0.1349
851.70 0.1348
851.80 0.1348
851.90 0.1347
852.00 0.1346
852.10 0.1346
852.20 0.1345
852.30 0.1345
852.40 0.1344
852.50 0.1343
852.60 0.1343
852.70 0.1342
852.80 0.1342
852.90 0.1341
853.00 0.1341
853.10 0.134
853.20 0.1339
853.30 0.1339
853.40 0.1338
853.50 0.1338
853.60 0.1337
853.70 0.1336
853.80 0.1336
853.90 0.1335
854.00 0.1335
854.10 0.1334
854.20 0.1334
854.30 0.1333
854.40 0.1332
854.50 0.1332
854.60 0.1331
854.70 0.1331
854.80 0.133
854.90 0.1329
855.00 0.1329
855.10 0.1328
855.20 0.1328
855.30 0.1327
855.40 0.1327
855.50 0.1326
855.60 0.1325
855.70 0.1325
855.80 0.1324
855.90 0.1324
856.00 0.1323
856.10 0.1322
856.20 0.1322
856.30 0.1321
856.40 0.1321
856.50 0.132
856.60 0.132
856.70 0.1319
856.80 0.1318
856.90 0.1318
857.00 0.1317
857.10 0.1317
857.20 0.1316
857.30 0.1316
857.40 0.1315
857.50 0.1314
857.60 0.1314
857.70 0.1313
857.80 0.1313
857.90 0.1312
858.00 0.1312
858.10 0.1311
858.20 0.1311
858.30 0.131
858.40 0.1309
858.50 0.1309
858.60 0.1308
858.70 0.1308
858.80 0.1307
858.90 0.1307
859.00 0.1306
859.10 0.1305
859.20 0.1305
859.30 0.1304
859.40 0.1304
859.50 0.1303
859.60 0.1303
859.70 0.1302
859.80 0.1302
859.90 0.1301
860.00 0.13
860.10 0.13
860.20 0.1299
860.30 0.1299
860.40 0.1298
860.50 0.1298
860.60 0.1297
860.70 0.1297
860.80 0.1296
860.90 0.1295
861.00 0.1295
861.10 0.1294
861.20 0.1294
861.30 0.1293
861.40 0.1293
861.50 0.1292
861.60 0.1292
861.70 0.1291
861.80 0.1291
861.90 0.129
862.00 0.1289
862.10 0.1289
862.20 0.1288
862.30 0.1288
862.40 0.1287
862.50 0.1287
862.60 0.1286
862.70 0.1285
862.80 0.1285
862.90 0.1284
863.00 0.1284
863.10 0.1283
863.20 0.1283
863.30 0.1282
863.40 0.1281
863.50 0.1281
863.60 0.128
863.70 0.128
863.80 0.1279
863.90 0.1279
864.00 0.1278
864.10 0.1278
864.20 0.1277
864.30 0.1276
864.40 0.1276
864.50 0.1275
864.60 0.1275
864.70 0.1274
864.80 0.1274
864.90 0.1273
865.00 0.1272
865.10 0.1272
865.20 0.1271
865.30 0.1271
865.40 0.127
865.50 0.127
865.60 0.1269
865.70 0.1269
865.80 0.1268
865.90 0.1267
866.00 0.1267
866.10 0.1266
866.20 0.1266
866.30 0.1265
866.40 0.1265
866.50 0.1264
866.60 0.1264
866.70 0.1263
866.80 0.1262
866.90 0.1262
867.00 0.1261
867.10 0.1261
867.20 0.126
867.30 0.126
867.40 0.1259
867.50 0.1259
867.60 0.1258
867.70 0.1258
867.80 0.1257
867.90 0.1257
868.00 0.1256
868.10 0.1256
868.20 0.1255
868.30 0.1255
868.40 0.1254
868.50 0.1254
868.60 0.1253
868.70 0.1253
868.80 0.1252
868.90 0.1251
869.00 0.1251
869.10 0.125
869.20 0.125
869.30 0.1249
869.40 0.1249
869.50 0.1248
869.60 0.1248
869.70 0.1247
869.80 0.1247
869.90 0.1246
870.00 0.1246
870.10 0.1245
870.20 0.1245
870.30 0.1244
870.40 0.1244
870.50 0.1243
870.60 0.1243
870.70 0.1242
870.80 0.1242
870.90 0.1241
871.00 0.1241
871.10 0.124
871.20 0.124
871.30 0.1239
871.40 0.1239
871.50 0.1238
871.60 0.1238
871.70 0.1237
871.80 0.1237
871.90 0.1236
872.00 0.1236
872.10 0.1235
872.20 0.1235
872.30 0.1234
872.40 0.1234
872.50 0.1233
872.60 0.1232
872.70 0.1232
872.80 0.1231
872.90 0.1231
873.00 0.123
873.10 0.123
873.20 0.1229
873.30 0.1229
873.40 0.1228
873.50 0.1228
873.60 0.1227
873.70 0.1227
873.80 0.1226
873.90 0.1226
874.00 0.1225
874.10 0.1225
874.20 0.1224
874.30 0.1224
874.40 0.1223
874.50 0.1223
874.60 0.1222
874.70 0.1222
874.80 0.1221
874.90 0.122
875.00 0.122
875.10 0.1219
875.20 0.1219
875.30 0.1218
875.40 0.1218
875.50 0.1217
875.60 0.1217
875.70 0.1216
875.80 0.1216
875.90 0.1215
876.00 0.1215
876.10 0.1214
876.20 0.1214
876.30 0.1213
876.40 0.1213
876.50 0.1212
876.60 0.1212
876.70 0.1211
876.80 0.1211
876.90 0.121
877.00 0.121
877.10 0.1209
877.20 0.1209
877.30 0.1208
877.40 0.1208
877.50 0.1207
877.60 0.1207
877.70 0.1206
877.80 0.1206
877.90 0.1205
878.00 0.1205
878.10 0.1204
878.20 0.1204
878.30 0.1203
878.40 0.1203
878.50 0.1202
878.60 0.1202
878.70 0.1201
878.80 0.1201
878.90 0.12
879.00 0.12
879.10 0.1199
879.20 0.1199
879.30 0.1198
879.40 0.1198
879.50 0.1197
879.60 0.1197
879.70 0.1196
879.80 0.1196
879.90 0.1195
880.00 0.1195
880.10 0.1195
880.20 0.1194
880.30 0.1194
880.40 0.1193
880.50 0.1193
880.60 0.1192
880.70 0.1192
880.80 0.1191
880.90 0.1191
881.00 0.119
881.10 0.119
881.20 0.1189
881.30 0.1189
881.40 0.1188
881.50 0.1188
881.60 0.1187
881.70 0.1187
881.80 0.1186
881.90 0.1186
882.00 0.1185
882.10 0.1185
882.20 0.1184
882.30 0.1183
882.40 0.1183
882.50 0.1182
882.60 0.1181
882.70 0.1181
882.80 0.118
882.90 0.1179
883.00 0.1179
883.10 0.1178
883.20 0.1177
883.30 0.1177
883.40 0.1176
883.50 0.1175
883.60 0.1175
883.70 0.1174
883.80 0.1173
883.90 0.1172
884.00 0.1172
884.10 0.1171
884.20 0.117
884.30 0.117
884.40 0.1169
884.50 0.1168
884.60 0.1168
884.70 0.1167
884.80 0.1166
884.90 0.1166
885.00 0.1165
885.10 0.1164
885.20 0.1164
885.30 0.1163
885.40 0.1162
885.50 0.1162
885.60 0.1161
885.70 0.116
885.80 0.116
885.90 0.1159
886.00 0.1158
886.10 0.1158
886.20 0.1157
886.30 0.1156
886.40 0.1156
886.50 0.1155
886.60 0.1154
886.70 0.1154
886.80 0.1153
886.90 0.1152
887.00 0.1152
887.10 0.1152
887.20 0.1151
887.30 0.1151
887.40 0.1151
887.50 0.1151
887.60 0.1151
887.70 0.115
887.80 0.115
887.90 0.115
888.00 0.115
888.10 0.115
888.20 0.1149
888.30 0.1149
888.40 0.1149
888.50 0.1149
888.60 0.1149
888.70 0.1148
888.80 0.1148
888.90 0.1148
889.00 0.1148
889.10 0.1148
889.20 0.1148
889.30 0.1147
889.40 0.1147
889.50 0.1147
889.60 0.1147
889.70 0.1147
889.80 0.1146
889.90 0.1146
890.00 0.1146
890.10 0.1146
890.20 0.1146
890.30 0.1145
890.40 0.1145
890.50 0.1145
890.60 0.1145
890.70 0.1145
890.80 0.1144
890.90 0.1144
891.00 0.1144
891.10 0.1144
891.20 0.1144
891.30 0.1144
891.40 0.1143
891.50 0.1143
891.60 0.1143
891.70 0.1143
891.80 0.1143
891.90 0.1142
892.00 0.1142
892.10 0.1142
892.20 0.1141
892.30 0.114
892.40 0.114
892.50 0.1139
892.60 0.1138
892.70 0.1138
892.80 0.1137
892.90 0.1137
893.00 0.1136
893.10 0.1135
893.20 0.1135
893.30 0.1134
893.40 0.1134
893.50 0.1133
893.60 0.1132
893.70 0.1132
893.80 0.1131
893.90 0.113
894.00 0.113
894.10 0.1129
894.20 0.1129
894.30 0.1128
894.40 0.1127
894.50 0.1127
894.60 0.1126
894.70 0.1126
894.80 0.1125
894.90 0.1124
895.00 0.1124
895.10 0.1123
895.20 0.1122
895.30 0.1122
895.40 0.1121
895.50 0.1121
895.60 0.112
895.70 0.1119
895.80 0.1119
895.90 0.1118
896.00 0.1118
896.10 0.1117
896.20 0.1116
896.30 0.1116
896.40 0.1115
896.50 0.1115
896.60 0.1114
896.70 0.1113
896.80 0.1113
896.90 0.1112
897.00 0.1111
897.10 0.111
897.20 0.111
897.30 0.1109
897.40 0.1108
897.50 0.1107
897.60 0.1106
897.70 0.1105
897.80 0.1104
897.90 0.1103
898.00 0.1102
898.10 0.1101
898.20 0.11
898.30 0.1099
898.40 0.1098
898.50 0.1097
898.60 0.1096
898.70 0.1095
898.80 0.1094
898.90 0.1093
899.00 0.1092
899.10 0.1091
899.20 0.109
899.30 0.1089
899.40 0.1088
899.50 0.1087
899.60 0.1086
899.70 0.1085
899.80 0.1084
899.90 0.1083
900.00 0.1082
900.10 0.1081
900.20 0.108
900.30 0.1079
900.40 0.1078
900.50 0.1078
900.60 0.1077
900.70 0.1076
900.80 0.1075
900.90 0.1074
901.00 0.1073
901.10 0.1072
901.20 0.1071
901.30 0.107
901.40 0.1069
901.50 0.1068
901.60 0.1067
901.70 0.1066
901.80 0.1065
901.90 0.1064
902.00 0.1063
902.10 0.1063
902.20 0.1064
902.30 0.1064
902.40 0.1064
902.50 0.1064
902.60 0.1064
902.70 0.1065
902.80 0.1065
902.90 0.1065
903.00 0.1065
903.10 0.1065
903.20 0.1066
903.30 0.1066
903.40 0.1066
903.50 0.1066
903.60 0.1067
903.70 0.1067
903.80 0.1067
903.90 0.1067
904.00 0.1067
904.10 0.1068
904.20 0.1068
904.30 0.1068
904.40 0.1068
904.50 0.1069
904.60 0.1069
904.70 0.1069
904.80 0.1069
904.90 0.1069
905.00 0.107
905.10 0.107
905.20 0.107
905.30 0.107
905.40 0.107
905.50 0.1071
905.60 0.1071
905.70 0.1071
905.80 0.1071
905.90 0.1072
906.00 0.1072
906.10 0.1072
906.20 0.1072
906.30 0.1072
906.40 0.1073
906.50 0.1073
906.60 0.1073
906.70 0.1073
906.80 0.1073
906.90 0.1074
907.00 0.1074
907.10 0.1074
907.20 0.1073
907.30 0.1073
907.40 0.1073
907.50 0.1072
907.60 0.1072
907.70 0.1072
907.80 0.1072
907.90 0.1071
908.00 0.1071
908.10 0.1071
908.20 0.107
908.30 0.107
908.40 0.107
908.50 0.107
908.60 0.1069
908.70 0.1069
908.80 0.1069
908.90 0.1068
909.00 0.1068
909.10 0.1068
909.20 0.1068
909.30 0.1067
909.40 0.1067
909.50 0.1067
909.60 0.1067
909.70 0.1066
909.80 0.1066
909.90 0.1066
910.00 0.1065
910.10 0.1065
910.20 0.1065
910.30 0.1065
910.40 0.1064
910.50 0.1064
910.60 0.1064
910.70 0.1063
910.80 0.1063
910.90 0.1063
911.00 0.1063
911.10 0.1062
911.20 0.1062
911.30 0.1062
911.40 0.1061
911.50 0.1061
911.60 0.1061
911.70 0.1061
911.80 0.106
911.90 0.106
912.00 0.106
912.10 0.1059
912.20 0.1058
912.30 0.1058
912.40 0.1057
912.50 0.1056
912.60 0.1056
912.70 0.1055
912.80 0.1054
912.90 0.1054
913.00 0.1053
913.10 0.1052
913.20 0.1052
913.30 0.1051
913.40 0.105
913.50 0.105
913.60 0.1049
913.70 0.1048
913.80 0.1048
913.90 0.1047
914.00 0.1046
914.10 0.1046
914.20 0.1045
914.30 0.1044
914.40 0.1044
914.50 0.1043
914.60 0.1042
914.70 0.1042
914.80 0.1041
914.90 0.104
915.00 0.104
915.10 0.1039
915.20 0.1038
915.30 0.1038
915.40 0.1037
915.50 0.1036
915.60 0.1036
915.70 0.1035
915.80 0.1035
915.90 0.1034
916.00 0.1033
916.10 0.1033
916.20 0.1032
916.30 0.1031
916.40 0.1031
916.50 0.103
916.60 0.1029
916.70 0.1029
916.80 0.1028
916.90 0.1027
917.00 0.1027
917.10 0.1025
917.20 0.1024
917.30 0.1022
917.40 0.1021
917.50 0.102
917.60 0.1018
917.70 0.1017
917.80 0.1015
917.90 0.1014
918.00 0.1012
918.10 0.1011
918.20 0.101
918.30 0.1008
918.40 0.1007
918.50 0.1005
918.60 0.1004
918.70 0.1003
918.80 0.1001
918.90 0.09998
919.00 0.09984
919.10 0.0997
919.20 0.09956
919.30 0.09942
919.40 0.09928
919.50 0.09914
919.60 0.099
919.70 0.09886
919.80 0.09872
919.90 0.09858
920.00 0.09844
920.10 0.09831
920.20 0.09817
920.30 0.09803
920.40 0.09789
920.50 0.09775
920.60 0.09761
920.70 0.09747
920.80 0.09733
920.90 0.09719
921.00 0.09705
921.10 0.09691
921.20 0.09677
921.30 0.09663
921.40 0.0965
921.50 0.09636
921.60 0.09622
921.70 0.09608
921.80 0.09594
921.90 0.0958
922.00 0.09566
922.10 0.0957
922.20 0.09574
922.30 0.09578
922.40 0.09582
922.50 0.09585
922.60 0.09589
922.70 0.09593
922.80 0.09597
922.90 0.09601
923.00 0.09604
923.10 0.09608
923.20 0.09612
923.30 0.09616
923.40 0.0962
923.50 0.09623
923.60 0.09627
923.70 0.09631
923.80 0.09635
923.90 0.09638
924.00 0.09642
924.10 0.09646
924.20 0.0965
924.30 0.09654
924.40 0.09657
924.50 0.09661
924.60 0.09665
924.70 0.09669
924.80 0.09672
924.90 0.09676
925.00 0.0968
925.10 0.09684
925.20 0.09687
925.30 0.09691
925.40 0.09695
925.50 0.09699
925.60 0.09702
925.70 0.09706
925.80 0.0971
925.90 0.09714
926.00 0.09717
926.10 0.09721
926.20 0.09725
926.30 0.09729
926.40 0.09732
926.50 0.09736
926.60 0.0974
926.70 0.09744
926.80 0.09747
926.90 0.09751
927.00 0.09755
927.10 0.09755
927.20 0.09756
927.30 0.09757
927.40 0.09757
927.50 0.09758
927.60 0.09759
927.70 0.09759
927.80 0.0976
927.90 0.09761
928.00 0.09761
928.10 0.09762
928.20 0.09763
928.30 0.09763
928.40 0.09764
928.50 0.09765
928.60 0.09765
928.70 0.09766
928.80 0.09767
928.90 0.09767
929.00 0.09768
929.10 0.09769
929.20 0.09769
929.30 0.0977
929.40 0.09771
929.50 0.09771
929.60 0.09772
929.70 0.09773
929.80 0.09773
929.90 0.09774
930.00 0.09775
930.10 0.09775
930.20 0.09776
930.30 0.09777
930.40 0.09777
930.50 0.09778
930.60 0.09779
930.70 0.09779
930.80 0.0978
930.90 0.09781
931.00 0.09781
931.10 0.09782
931.20 0.09783
931.30 0.09783
931.40 0.09784
931.50 0.09785
931.60 0.09785
931.70 0.09786
931.80 0.09787
931.90 0.09787
932.00 0.09788
932.10 0.09786
932.20 0.09783
932.30 0.09781
932.40 0.09778
932.50 0.09776
932.60 0.09774
932.70 0.09771
932.80 0.09769
932.90 0.09767
933.00 0.09764
933.10 0.09762
933.20 0.0976
933.30 0.09757
933.40 0.09755
933.50 0.09753
933.60 0.0975
933.70 0.09748
933.80 0.09746
933.90 0.09743
934.00 0.09741
934.10 0.09739
934.20 0.09736
934.30 0.09734
934.40 0.09731
934.50 0.09727
934.60 0.09724
934.70 0.09721
934.80 0.09718
934.90 0.09714
935.00 0.09711
935.10 0.09708
935.20 0.09704
935.30 0.09701
935.40 0.09698
935.50 0.09695
935.60 0.09691
935.70 0.09688
935.80 0.09685
935.90 0.09682
936.00 0.09678
936.10 0.09675
936.20 0.09672
936.30 0.09669
936.40 0.09665
936.50 0.09662
936.60 0.09659
936.70 0.09656
936.80 0.09653
936.90 0.09649
937.00 0.09646
937.10 0.09642
937.20 0.09639
937.30 0.09635
937.40 0.09631
937.50 0.09627
937.60 0.09624
937.70 0.0962
937.80 0.09616
937.90 0.09612
938.00 0.09609
938.10 0.09605
938.20 0.09601
938.30 0.09597
938.40 0.09593
938.50 0.09589
938.60 0.09585
938.70 0.09581
938.80 0.09577
938.90 0.09573
939.00 0.09569
939.10 0.09565
939.20 0.0956
939.30 0.09556
939.40 0.09552
939.50 0.09548
939.60 0.09544
939.70 0.0954
939.80 0.09536
939.90 0.09532
940.00 0.09528
940.10 0.09524
940.20 0.09519
940.30 0.09515
940.40 0.09511
940.50 0.09506
940.60 0.09502
940.70 0.09497
940.80 0.09493
940.90 0.09488
941.00 0.09484
941.10 0.09479
941.20 0.09474
941.30 0.0947
941.40 0.09465
941.50 0.09461
941.60 0.09456
941.70 0.09452
941.80 0.09447
941.90 0.09443
942.00 0.09438
942.10 0.09433
942.20 0.09429
942.30 0.09424
942.40 0.09418
942.50 0.09413
942.60 0.09408
942.70 0.09403
942.80 0.09397
942.90 0.09392
943.00 0.09387
943.10 0.09382
943.20 0.09376
943.30 0.09371
943.40 0.09366
943.50 0.09361
943.60 0.09355
943.70 0.0935
943.80 0.09345
943.90 0.0934
944.00 0.09334
944.10 0.09329
944.20 0.09324
944.30 0.09319
944.40 0.09313
944.50 0.09307
944.60 0.09301
944.70 0.09295
944.80 0.09289
944.90 0.09283
945.00 0.09277
945.10 0.09271
945.20 0.09265
945.30 0.09259
945.40 0.09252
945.50 0.09245
945.60 0.09238
945.70 0.09231
945.80 0.09224
945.90 0.09217
946.00 0.0921
946.10 0.09203
946.20 0.09196
946.30 0.09189
946.40 0.09182
946.50 0.09175
946.60 0.09168
946.70 0.09161
946.80 0.09154
946.90 0.09147
947.00 0.0914
947.10 0.09132
947.20 0.09124
947.30 0.09116
947.40 0.09106
947.50 0.09097
947.60 0.09087
947.70 0.09077
947.80 0.09068
947.90 0.09058
948.00 0.09048
948.10 0.09039
948.20 0.09029
948.30 0.0902
948.40 0.0901
948.50 0.09
948.60 0.08991
948.70 0.08981
948.80 0.08972
948.90 0.08962
949.00 0.08953
949.10 0.08943
949.20 0.08933
949.30 0.08924
949.40 0.0891
949.50 0.08896
949.60 0.08882
949.70 0.08868
949.80 0.08854
949.90 0.08841
950.00 0.08827
950.10 0.08813
950.20 0.08799
950.30 0.08785
950.40 0.08771
950.50 0.08757
950.60 0.08743
950.70 0.0873
950.80 0.08716
950.90 0.08702
951.00 0.08688
951.10 0.08674
951.20 0.08661
951.30 0.08647
951.40 0.08629
951.50 0.0861
951.60 0.08592
951.70 0.08574
951.80 0.08556
951.90 0.08538
952.00 0.0852
952.10 0.08499
952.20 0.08478
952.30 0.08457
952.40 0.08435
952.50 0.08414
952.60 0.08393
952.70 0.08372
952.80 0.08351
952.90 0.08327
953.00 0.08303
953.10 0.08279
953.20 0.08256
953.30 0.08232
953.40 0.08208
953.50 0.08184
953.60 0.08159
953.70 0.08134
953.80 0.08109
953.90 0.08084
954.00 0.08059
954.10 0.08035
954.20 0.08011
954.30 0.07987
954.40 0.07965
954.50 0.07948
954.60 0.07945
954.70 0.07942
954.80 0.07959
954.90 0.07975
955.00 0.07991
955.10 0.08007
955.20 0.08026
955.30 0.08045
955.40 0.08063
955.50 0.08082
955.60 0.081
955.70 0.08119
955.80 0.08138
955.90 0.08154
956.00 0.08169
956.10 0.08185
956.20 0.08201
956.30 0.08217
956.40 0.08233
956.50 0.08249
956.60 0.08265
956.70 0.08281
956.80 0.08297
956.90 0.08313
957.00 0.08328
957.10 0.08341
957.20 0.08354
957.30 0.08366
957.40 0.08375
957.50 0.08384
957.60 0.08392
957.70 0.08401
957.80 0.08409
957.90 0.08418
958.00 0.08426
958.10 0.08435
958.20 0.08443
958.30 0.08452
958.40 0.0846
958.50 0.08469
958.60 0.08477
958.70 0.08486
958.80 0.08494
958.90 0.08503
959.00 0.08511
959.10 0.0852
959.20 0.08528
959.30 0.08537
959.40 0.0854
959.50 0.08543
959.60 0.08547
959.70 0.0855
959.80 0.08553
959.90 0.08557
960.00 0.0856
960.10 0.08563
960.20 0.08567
960.30 0.0857
960.40 0.08573
960.50 0.08577
960.60 0.0858
960.70 0.08583
960.80 0.08587
960.90 0.0859
961.00 0.08593
961.10 0.08597
961.20 0.086
961.30 0.08603
961.40 0.08605
961.50 0.08606
961.60 0.08607
961.70 0.08608
961.80 0.08609
961.90 0.0861
962.00 0.08611
962.10 0.08611
962.20 0.08611
962.30 0.08611
962.40 0.08611
962.50 0.08612
962.60 0.08612
962.70 0.08612
962.80 0.08612
962.90 0.08612
963.00 0.08612
963.10 0.08612
963.20 0.08612
963.30 0.08612
963.40 0.08611
963.50 0.0861
963.60 0.08609
963.70 0.08608
963.80 0.08607
963.90 0.08606
964.00 0.08606
964.10 0.08605
964.20 0.08604
964.30 0.08603
964.40 0.08601
964.50 0.08599
964.60 0.08598
964.70 0.08596
964.80 0.08594
964.90 0.08593
965.00 0.08591
965.10 0.08589
965.20 0.08588
965.30 0.08586
965.40 0.08584
965.50 0.08582
965.60 0.08581
965.70 0.08579
965.80 0.08577
965.90 0.08576
966.00 0.08574
966.10 0.08572
966.20 0.08571
966.30 0.08569
966.40 0.08567
966.50 0.08565
966.60 0.08562
966.70 0.0856
966.80 0.08558
966.90 0.08556
967.00 0.08554
967.10 0.08551
967.20 0.08549
967.30 0.08546
967.40 0.08544
967.50 0.08541
967.60 0.08539
967.70 0.08536
967.80 0.08534
967.90 0.08532
968.00 0.08529
968.10 0.08527
968.20 0.08524
968.30 0.08522
968.40 0.08519
968.50 0.08516
968.60 0.08514
968.70 0.08511
968.80 0.08508
968.90 0.08505
969.00 0.08503
969.10 0.085
969.20 0.08497
969.30 0.08494
969.40 0.08492
969.50 0.08489
969.60 0.08486
969.70 0.08484
969.80 0.08481
969.90 0.08478
970.00 0.08475
970.10 0.08473
970.20 0.0847
970.30 0.08467
970.40 0.08464
970.50 0.08461
970.60 0.08458
970.70 0.08455
970.80 0.08453
970.90 0.0845
971.00 0.08447
971.10 0.08444
971.20 0.08441
971.30 0.08438
971.40 0.08435
971.50 0.08432
971.60 0.08429
971.70 0.08426
971.80 0.08423
971.90 0.0842
972.00 0.08417
972.10 0.08414
972.20 0.08411
972.30 0.08408
972.40 0.08405
972.50 0.08402
972.60 0.08399
972.70 0.08396
972.80 0.08393
972.90 0.0839
973.00 0.08387
973.10 0.08384
973.20 0.08381
973.30 0.08378
973.40 0.08375
973.50 0.08372
973.60 0.08369
973.70 0.08365
973.80 0.08362
973.90 0.08359
974.00 0.08356
974.10 0.08353
974.20 0.0835
974.30 0.08347
974.40 0.08344
974.50 0.08341
974.60 0.08338
974.70 0.08335
974.80 0.08331
974.90 0.08328
975.00 0.08325
975.10 0.08322
975.20 0.08319
975.30 0.08316
975.40 0.08312
975.50 0.08309
975.60 0.08306
975.70 0.08303
975.80 0.083
975.90 0.08297
976.00 0.08294
976.10 0.0829
976.20 0.08287
976.30 0.08284
976.40 0.08281
976.50 0.08278
976.60 0.08275
976.70 0.08272
976.80 0.08268
976.90 0.08265
977.00 0.08262
977.10 0.08259
977.20 0.08256
977.30 0.08252
977.40 0.08249
977.50 0.08246
977.60 0.08243
977.70 0.08239
977.80 0.08236
977.90 0.08233
978.00 0.0823
978.10 0.08226
978.20 0.08223
978.30 0.0822
978.40 0.08217
978.50 0.08213
978.60 0.0821
978.70 0.08207
978.80 0.08204
978.90 0.08201
979.00 0.08197
979.10 0.08194
979.20 0.08191
979.30 0.08188
979.40 0.08184
979.50 0.08181
979.60 0.08178
979.70 0.08175
979.80 0.08172
979.90 0.08168
980.00 0.08165
980.10 0.08162
980.20 0.08159
980.30 0.08155
980.40 0.08152
980.50 0.08149
980.60 0.08146
980.70 0.08143
980.80 0.08139
980.90 0.08136
981.00 0.08133
981.10 0.0813
981.20 0.08127
981.30 0.08123
981.40 0.0812
981.50 0.08117
981.60 0.08114
981.70 0.08111
981.80 0.08107
981.90 0.08104
982.00 0.08101
982.10 0.08098
982.20 0.08094
982.30 0.08091
982.40 0.08088
982.50 0.08084
982.60 0.08081
982.70 0.08078
982.80 0.08075
982.90 0.08071
983.00 0.08068
983.10 0.08065
983.20 0.08061
983.30 0.08058
983.40 0.08055
983.50 0.08051
983.60 0.08048
983.70 0.08045
983.80 0.08042
983.90 0.08038
984.00 0.08035
984.10 0.08032
984.20 0.08028
984.30 0.08025
984.40 0.08022
984.50 0.08019
984.60 0.08015
984.70 0.08012
984.80 0.08009
984.90 0.08005
985.00 0.08002
985.10 0.07999
985.20 0.07995
985.30 0.07992
985.40 0.07988
985.50 0.07985
985.60 0.07982
985.70 0.07978
985.80 0.07975
985.90 0.07972
986.00 0.07968
986.10 0.07965
986.20 0.07962
986.30 0.07958
986.40 0.07955
986.50 0.07951
986.60 0.07948
986.70 0.07945
986.80 0.07941
986.90 0.07938
987.00 0.07935
987.10 0.07931
987.20 0.07928
987.30 0.07924
987.40 0.07921
987.50 0.07917
987.60 0.07914
987.70 0.0791
987.80 0.07907
987.90 0.07904
988.00 0.079
988.10 0.07897
988.20 0.07893
988.30 0.0789
988.40 0.07886
988.50 0.07883
988.60 0.07879
988.70 0.07876
988.80 0.07872
988.90 0.07869
989.00 0.07865
989.10 0.07861
989.20 0.07858
989.30 0.07854
989.40 0.0785
989.50 0.07847
989.60 0.07843
989.70 0.0784
989.80 0.07836
989.90 0.07832
990.00 0.07829
990.10 0.07825
990.20 0.07822
990.30 0.07818
990.40 0.07814
990.50 0.07811
990.60 0.07807
990.70 0.07803
990.80 0.078
990.90 0.07796
991.00 0.07792
991.10 0.07788
991.20 0.07784
991.30 0.0778
991.40 0.07777
991.50 0.07773
991.60 0.07769
991.70 0.07765
991.80 0.07761
991.90 0.07757
992.00 0.07754
992.10 0.0775
992.20 0.07746
992.30 0.07742
992.40 0.07738
992.50 0.07734
992.60 0.07729
992.70 0.07725
992.80 0.07721
992.90 0.07716
993.00 0.07712
993.10 0.07708
993.20 0.07703
993.30 0.07699
993.40 0.07694
993.50 0.0769
993.60 0.07686
993.70 0.07681
993.80 0.07677
993.90 0.07672
994.00 0.07668
994.10 0.07664
994.20 0.07659
994.30 0.07655
994.40 0.0765
994.50 0.07646
994.60 0.07642
994.70 0.07637
994.80 0.07632
994.90 0.07627
995.00 0.07622
995.10 0.07617
995.20 0.07612
995.30 0.07607
995.40 0.07602
995.50 0.07597
995.60 0.07592
995.70 0.07586
995.80 0.0758
995.90 0.07574
996.00 0.07568
996.10 0.07563
996.20 0.07557
996.30 0.07551
996.40 0.07545
996.50 0.07539
996.60 0.07534
996.70 0.07528
996.80 0.07522
996.90 0.07516
997.00 0.0751
997.10 0.07504
997.20 0.07497
997.30 0.0749
997.40 0.07484
997.50 0.07477
997.60 0.0747
997.70 0.07462
997.80 0.07453
997.90 0.07445
998.00 0.07436
998.10 0.07427
998.20 0.07419
998.30 0.0741
998.40 0.07402
998.50 0.07393
998.60 0.07384
998.70 0.07376
998.80 0.07367
998.90 0.07359
999.00 0.0735
999.10 0.07341
999.20 0.07333
999.30 0.07324
999.40 0.07316
999.50 0.07307
999.60 0.07299
999.70 0.07286
999.80 0.07273
999.90 0.07259
1000.00 0.07246
1000.10 0.07232
1000.20 0.07219
1000.30 0.07205
1000.40 0.07192
1000.50 0.07178
1000.60 0.07165
1000.70 0.07152
1000.80 0.07138
1000.90 0.07125
1001.00 0.07111
1001.10 0.07098
1001.20 0.07084
1001.30 0.07071
1001.40 0.07058
1001.50 0.07044
1001.60 0.07031
1001.70 0.07014
1001.80 0.06996
1001.90 0.06978
1002.00 0.0696
1002.10 0.06938
1002.20 0.06916
1002.30 0.06894
1002.40 0.06872
1002.50 0.0685
1002.60 0.06828
1002.70 0.06806
1002.80 0.06784
1002.90 0.06762
1003.00 0.0674
1003.10 0.06718
1003.20 0.06692
1003.30 0.06664
1003.40 0.06636
1003.50 0.06609
1003.60 0.06581
1003.70 0.06553
1003.80 0.06525
1003.90 0.06495
1004.00 0.06464
1004.10 0.06433
1004.20 0.06402
1004.30 0.06371
1004.40 0.0634
1004.50 0.06309
1004.60 0.06283
1004.70 0.06265
1004.80 0.06263
1004.90 0.06264
1005.00 0.06264
1005.10 0.06272
1005.20 0.06282
1005.30 0.06292
1005.40 0.06302
1005.50 0.06324
1005.60 0.0635
1005.70 0.06377
1005.80 0.06403
1005.90 0.06429
1006.00 0.06455
1006.10 0.06481
1006.20 0.06504
1006.30 0.06525
1006.40 0.06547
1006.50 0.06568
1006.60 0.0659
1006.70 0.06611
1006.80 0.06633
1006.90 0.06654
1007.00 0.06676
1007.10 0.06692
1007.20 0.06709
1007.30 0.06725
1007.40 0.06742
1007.50 0.06758
1007.60 0.06775
1007.70 0.06787
1007.80 0.06797
1007.90 0.06807
1008.00 0.06817
1008.10 0.06827
1008.20 0.06837
1008.30 0.06847
1008.40 0.06857
1008.50 0.06867
1008.60 0.06877
1008.70 0.06887
1008.80 0.06898
1008.90 0.06908
1009.00 0.06918
1009.10 0.06928
1009.20 0.06938
1009.30 0.06948
1009.40 0.06958
1009.50 0.06968
1009.60 0.06978
1009.70 0.06983
1009.80 0.06987
1009.90 0.06991
1010.00 0.06995
1010.10 0.06999
1010.20 0.07003
1010.30 0.07007
1010.40 0.07011
1010.50 0.07015
1010.60 0.07019
1010.70 0.07023
1010.80 0.07027
1010.90 0.07031
1011.00 0.07035
1011.10 0.07039
1011.20 0.07043
1011.30 0.07047
1011.40 0.07051
1011.50 0.07055
1011.60 0.07059
1011.70 0.07061
1011.80 0.07063
1011.90 0.07065
1012.00 0.07066
1012.10 0.07067
1012.20 0.07068
1012.30 0.07068
1012.40 0.07069
1012.50 0.0707
1012.60 0.0707
1012.70 0.07071
1012.80 0.07072
1012.90 0.07072
1013.00 0.07073
1013.10 0.07073
1013.20 0.07074
1013.30 0.07075
1013.40 0.07075
1013.50 0.07076
1013.60 0.07077
1013.70 0.07076
1013.80 0.07076
1013.90 0.07076
1014.00 0.07075
1014.10 0.07075
1014.20 0.07074
1014.30 0.07074
1014.40 0.07073
1014.50 0.07073
1014.60 0.07072
1014.70 0.07071
1014.80 0.0707
1014.90 0.07069
1015.00 0.07068
1015.10 0.07067
1015.20 0.07065
1015.30 0.07064
1015.40 0.07063
1015.50 0.07062
1015.60 0.07061
1015.70 0.07059
1015.80 0.07058
1015.90 0.07057
1016.00 0.07056
1016.10 0.07055
1016.20 0.07053
1016.30 0.07052
1016.40 0.07051
1016.50 0.0705
1016.60 0.07049
1016.70 0.07047
1016.80 0.07046
1016.90 0.07044
1017.00 0.07042
1017.10 0.07041
1017.20 0.07039
1017.30 0.07037
1017.40 0.07035
1017.50 0.07033
1017.60 0.07031
1017.70 0.0703
1017.80 0.07028
1017.90 0.07026
1018.00 0.07024
1018.10 0.07022
1018.20 0.0702
1018.30 0.07019
1018.40 0.07017
1018.50 0.07015
1018.60 0.07013
1018.70 0.07011
1018.80 0.07009
1018.90 0.07007
1019.00 0.07005
1019.10 0.07003
1019.20 0.07001
1019.30 0.06999
1019.40 0.06996
1019.50 0.06994
1019.60 0.06992
1019.70 0.0699
1019.80 0.06988
1019.90 0.06986
1020.00 0.06984
1020.10 0.06982
1020.20 0.0698
1020.30 0.06978
1020.40 0.06976
1020.50 0.06973
1020.60 0.06971
1020.70 0.06969
1020.80 0.06967
1020.90 0.06965
1021.00 0.06962
1021.10 0.0696
1021.20 0.06958
1021.30 0.06956
1021.40 0.06953
1021.50 0.06951
1021.60 0.06949
1021.70 0.06947
1021.80 0.06944
1021.90 0.06942
1022.00 0.0694
1022.10 0.06938
1022.20 0.06935
1022.30 0.06933
1022.40 0.06931
1022.50 0.06928
1022.60 0.06926
1022.70 0.06924
1022.80 0.06921
1022.90 0.06919
1023.00 0.06916
1023.10 0.06914
1023.20 0.06912
1023.30 0.06909
1023.40 0.06907
1023.50 0.06905
1023.60 0.06902
1023.70 0.069
1023.80 0.06898
1023.90 0.06895
1024.00 0.06893
1024.10 0.06891
1024.20 0.06888
1024.30 0.06886
1024.40 0.06884
1024.50 0.06881
1024.60 0.06879
1024.70 0.06877
1024.80 0.06874
1024.90 0.06872
1025.00 0.06869
1025.10 0.06867
1025.20 0.06864
1025.30 0.06862
1025.40 0.0686
1025.50 0.06857
1025.60 0.06855
1025.70 0.06852
1025.80 0.0685
1025.90 0.06848
1026.00 0.06845
1026.10 0.06843
1026.20 0.0684
1026.30 0.06838
1026.40 0.06836
1026.50 0.06833
1026.60 0.06831
1026.70 0.06828
1026.80 0.06826
1026.90 0.06824
1027.00 0.06821
1027.10 0.06819
1027.20 0.06816
1027.30 0.06814
1027.40 0.06811
1027.50 0.06809
1027.60 0.06806
1027.70 0.06804
1027.80 0.06801
1027.90 0.06799
1028.00 0.06797
1028.10 0.06794
1028.20 0.06792
1028.30 0.06789
1028.40 0.06787
1028.50 0.06784
1028.60 0.06782
1028.70 0.06779
1028.80 0.06777
1028.90 0.06774
1029.00 0.06772
1029.10 0.0677
1029.20 0.06767
1029.30 0.06765
1029.40 0.06762
1029.50 0.0676
1029.60 0.06757
1029.70 0.06755
1029.80 0.06752
1029.90 0.0675
1030.00 0.06748
1030.10 0.06745
1030.20 0.06743
1030.30 0.0674
1030.40 0.06738
1030.50 0.06735
1030.60 0.06733
1030.70 0.06731
1030.80 0.06728
1030.90 0.06726
1031.00 0.06723
1031.10 0.06721
1031.20 0.06718
1031.30 0.06716
1031.40 0.06714
1031.50 0.06711
1031.60 0.06709
1031.70 0.06706
1031.80 0.06704
1031.90 0.06701
1032.00 0.06699
1032.10 0.06697
1032.20 0.06694
1032.30 0.06692
1032.40 0.06689
1032.50 0.06687
1032.60 0.06684
1032.70 0.06682
1032.80 0.06679
1032.90 0.06677
1033.00 0.06674
1033.10 0.06672
1033.20 0.0667
1033.30 0.06667
1033.40 0.06665
1033.50 0.06662
1033.60 0.0666
1033.70 0.06657
1033.80 0.06655
1033.90 0.06652
1034.00 0.0665
1034.10 0.06648
1034.20 0.06645
1034.30 0.06643
1034.40 0.0664
1034.50 0.06638
1034.60 0.06635
1034.70 0.06633
1034.80 0.06631
1034.90 0.06628
1035.00 0.06626
1035.10 0.06623
1035.20 0.06621
1035.30 0.06618
1035.40 0.06616
1035.50 0.06614
1035.60 0.06611
1035.70 0.06609
1035.80 0.06606
1035.90 0.06604
1036.00 0.06601
1036.10 0.06599
1036.20 0.06597
1036.30 0.06594
1036.40 0.06592
1036.50 0.06589
1036.60 0.06587
1036.70 0.06584
1036.80 0.06582
1036.90 0.0658
1037.00 0.06577
1037.10 0.06575
1037.20 0.06572
1037.30 0.0657
1037.40 0.06568
1037.50 0.06565
1037.60 0.06563
1037.70 0.0656
1037.80 0.06558
1037.90 0.06555
1038.00 0.06553
1038.10 0.06551
1038.20 0.06548
1038.30 0.06546
1038.40 0.06543
1038.50 0.06541
1038.60 0.06539
1038.70 0.06536
1038.80 0.06534
1038.90 0.06531
1039.00 0.06529
1039.10 0.06527
1039.20 0.06524
1039.30 0.06522
1039.40 0.06519
1039.50 0.06517
1039.60 0.06515
1039.70 0.06512
1039.80 0.0651
1039.90 0.06507
1040.00 0.06505
1040.10 0.06503
1040.20 0.065
1040.30 0.06498
1040.40 0.06495
1040.50 0.06493
1040.60 0.06491
1040.70 0.06488
1040.80 0.06486
1040.90 0.06483
1041.00 0.06481
1041.10 0.06479
1041.20 0.06476
1041.30 0.06474
1041.40 0.06471
1041.50 0.06469
1041.60 0.06467
1041.70 0.06464
1041.80 0.06462
1041.90 0.0646
1042.00 0.06457
1042.10 0.06455
1042.20 0.06452
1042.30 0.0645
1042.40 0.06448
1042.50 0.06445
1042.60 0.06443
1042.70 0.06441
1042.80 0.06438
1042.90 0.06436
1043.00 0.06433
1043.10 0.06431
1043.20 0.06429
1043.30 0.06426
1043.40 0.06424
1043.50 0.06422
1043.60 0.06419
1043.70 0.06417
1043.80 0.06414
1043.90 0.06412
1044.00 0.0641
1044.10 0.06407
1044.20 0.06405
1044.30 0.06403
1044.40 0.064
1044.50 0.06398
1044.60 0.06396
1044.70 0.06393
1044.80 0.06391
1044.90 0.06388
1045.00 0.06386
1045.10 0.06384
1045.20 0.06381
1045.30 0.06379
1045.40 0.06377
1045.50 0.06374
1045.60 0.06372
1045.70 0.0637
1045.80 0.06367
1045.90 0.06365
1046.00 0.06363
1046.10 0.0636
1046.20 0.06358
1046.30 0.06356
1046.40 0.06353
1046.50 0.06351
1046.60 0.06349
1046.70 0.06346
1046.80 0.06344
1046.90 0.06341
1047.00 0.06339
1047.10 0.06337
1047.20 0.06334
1047.30 0.06332
1047.40 0.0633
1047.50 0.06327
1047.60 0.06325
1047.70 0.06323
1047.80 0.0632
1047.90 0.06318
1048.00 0.06316
1048.10 0.06313
1048.20 0.06311
1048.30 0.06309
1048.40 0.06307
1048.50 0.06304
1048.60 0.06302
1048.70 0.063
1048.80 0.06297
1048.90 0.06295
1049.00 0.06293
1049.10 0.0629
1049.20 0.06288
1049.30 0.06286
1049.40 0.06283
1049.50 0.06281
1049.60 0.06279
1049.70 0.06276
1049.80 0.06274
1049.90 0.06272
1050.00 0.06269
1050.10 0.06267
1050.20 0.06265
1050.30 0.06262
1050.40 0.0626
1050.50 0.06258
1050.60 0.06256
1050.70 0.06253
1050.80 0.06251
1050.90 0.06249
1051.00 0.06246
1051.10 0.06244
1051.20 0.06242
1051.30 0.06239
1051.40 0.06237
1051.50 0.06235
1051.60 0.06233
1051.70 0.0623
1051.80 0.06228
1051.90 0.06226
1052.00 0.06223
1052.10 0.06221
1052.20 0.06219
1052.30 0.06216
1052.40 0.06214
1052.50 0.06212
1052.60 0.0621
1052.70 0.06207
1052.80 0.06205
1052.90 0.06203
1053.00 0.062
1053.10 0.06198
1053.20 0.06196
1053.30 0.06194
1053.40 0.06191
1053.50 0.06189
1053.60 0.06187
1053.70 0.06184
1053.80 0.06182
1053.90 0.0618
1054.00 0.06178
1054.10 0.06175
1054.20 0.06173
1054.30 0.06171
1054.40 0.06168
1054.50 0.06166
1054.60 0.06164
1054.70 0.06162
1054.80 0.06159
1054.90 0.06157
1055.00 0.06155
1055.10 0.06153
1055.20 0.0615
1055.30 0.06148
1055.40 0.06146
1055.50 0.06143
1055.60 0.06141
1055.70 0.06139
1055.80 0.06137
1055.90 0.06134
1056.00 0.06132
1056.10 0.0613
1056.20 0.06128
1056.30 0.06125
1056.40 0.06123
1056.50 0.06121
1056.60 0.06119
1056.70 0.06116
1056.80 0.06114
1056.90 0.06112
1057.00 0.06109
1057.10 0.06107
1057.20 0.06105
1057.30 0.06103
1057.40 0.061
1057.50 0.06098
1057.60 0.06096
1057.70 0.06094
1057.80 0.06091
1057.90 0.06089
1058.00 0.06087
1058.10 0.06085
1058.20 0.06083
1058.30 0.0608
1058.40 0.06078
1058.50 0.06076
1058.60 0.06074
1058.70 0.06071
1058.80 0.06069
1058.90 0.06067
1059.00 0.06065
1059.10 0.06062
1059.20 0.0606
1059.30 0.06058
1059.40 0.06056
1059.50 0.06053
1059.60 0.06051
1059.70 0.06049
1059.80 0.06047
1059.90 0.06044
1060.00 0.06042
1060.10 0.0604
1060.20 0.06038
1060.30 0.06036
1060.40 0.06033
1060.50 0.06031
1060.60 0.06029
1060.70 0.06027
1060.80 0.06024
1060.90 0.06022
1061.00 0.0602
1061.10 0.06018
1061.20 0.06015
1061.30 0.06013
1061.40 0.06011
1061.50 0.06009
1061.60 0.06007
1061.70 0.06004
1061.80 0.06002
1061.90 0.06
1062.00 0.05998
1062.10 0.05995
1062.20 0.05993
1062.30 0.05991
1062.40 0.05989
1062.50 0.05987
1062.60 0.05984
1062.70 0.05982
1062.80 0.0598
1062.90 0.05978
1063.00 0.05975
1063.10 0.05973
1063.20 0.05971
1063.30 0.05969
1063.40 0.05967
1063.50 0.05964
1063.60 0.05962
1063.70 0.0596
1063.80 0.05958
1063.90 0.05956
1064.00 0.05953
1064.10 0.05951
1064.20 0.05949
1064.30 0.05947
1064.40 0.05944
1064.50 0.05942
1064.60 0.0594
1064.70 0.05938
1064.80 0.05936
1064.90 0.05933
1065.00 0.05931
1065.10 0.05929
1065.20 0.05927
1065.30 0.05925
1065.40 0.05922
1065.50 0.0592
1065.60 0.05918
1065.70 0.05916
1065.80 0.05914
1065.90 0.05911
1066.00 0.05909
1066.10 0.05907
1066.20 0.05905
1066.30 0.05903
1066.40 0.059
1066.50 0.05898
1066.60 0.05896
1066.70 0.05894
1066.80 0.05892
1066.90 0.05889
1067.00 0.05887
1067.10 0.05885
1067.20 0.05883
1067.30 0.05881
1067.40 0.05878
1067.50 0.05876
1067.60 0.05874
1067.70 0.05872
1067.80 0.0587
1067.90 0.05867
1068.00 0.05865
1068.10 0.05863
1068.20 0.05861
1068.30 0.05858
1068.40 0.05856
1068.50 0.05854
1068.60 0.05852
1068.70 0.0585
1068.80 0.05847
1068.90 0.05845
1069.00 0.05843
1069.10 0.05841
1069.20 0.05839
1069.30 0.05836
1069.40 0.05834
1069.50 0.05832
1069.60 0.0583
1069.70 0.05827
1069.80 0.05825
1069.90 0.05823
1070.00 0.05821
1070.10 0.05819
1070.20 0.05816
1070.30 0.05814
1070.40 0.05812
1070.50 0.0581
1070.60 0.05808
1070.70 0.05805
1070.80 0.05803
1070.90 0.05801
1071.00 0.05799
1071.10 0.05797
1071.20 0.05794
1071.30 0.05792
1071.40 0.0579
1071.50 0.05788
1071.60 0.05786
1071.70 0.05784
1071.80 0.05781
1071.90 0.05779
1072.00 0.05777
1072.10 0.05775
1072.20 0.05772
1072.30 0.0577
1072.40 0.05768
1072.50 0.05766
1072.60 0.05764
1072.70 0.05761
1072.80 0.05759
1072.90 0.05757
1073.00 0.05755
1073.10 0.05752
1073.20 0.0575
1073.30 0.05748
1073.40 0.05746
1073.50 0.05743
1073.60 0.05741
1073.70 0.05739
1073.80 0.05737
1073.90 0.05734
1074.00 0.05732
1074.10 0.0573
1074.20 0.05727
1074.30 0.05725
1074.40 0.05723
1074.50 0.0572
1074.60 0.05718
1074.70 0.05716
1074.80 0.05714
1074.90 0.05711
1075.00 0.05709
1075.10 0.05707
1075.20 0.05704
1075.30 0.05702
1075.40 0.057
1075.50 0.05698
1075.60 0.05695
1075.70 0.05693
1075.80 0.05691
1075.90 0.05688
1076.00 0.05686
1076.10 0.05684
1076.20 0.05682
1076.30 0.05679
1076.40 0.05677
1076.50 0.05675
1076.60 0.05673
1076.70 0.0567
1076.80 0.05668
1076.90 0.05666
1077.00 0.05663
1077.10 0.05661
1077.20 0.05659
1077.30 0.05656
1077.40 0.05654
1077.50 0.05652
1077.60 0.05649
1077.70 0.05647
1077.80 0.05644
1077.90 0.05642
1078.00 0.05639
1078.10 0.05637
1078.20 0.05634
1078.30 0.05632
1078.40 0.0563
1078.50 0.05627
1078.60 0.05625
1078.70 0.05622
1078.80 0.0562
1078.90 0.05617
1079.00 0.05615
1079.10 0.05612
1079.20 0.0561
1079.30 0.05608
1079.40 0.05605
1079.50 0.05603
1079.60 0.056
1079.70 0.05597
1079.80 0.05595
1079.90 0.05592
1080.00 0.05589
1080.10 0.05587
1080.20 0.05584
1080.30 0.05581
1080.40 0.05579
1080.50 0.05576
1080.60 0.05573
1080.70 0.05571
1080.80 0.05568
1080.90 0.05566
1081.00 0.05563
1081.10 0.0556
1081.20 0.05558
1081.30 0.05555
1081.40 0.05552
1081.50 0.0555
1081.60 0.05547
1081.70 0.05544
1081.80 0.05541
1081.90 0.05538
1082.00 0.05535
1082.10 0.05532
1082.20 0.05529
1082.30 0.05526
1082.40 0.05523
1082.50 0.0552
1082.60 0.05517
1082.70 0.05514
1082.80 0.05511
1082.90 0.05508
1083.00 0.05505
1083.10 0.05501
1083.20 0.05498
1083.30 0.05495
1083.40 0.05492
1083.50 0.05489
1083.60 0.05485
1083.70 0.05482
1083.80 0.05479
1083.90 0.05475
1084.00 0.05472
1084.10 0.05468
1084.20 0.05465
1084.30 0.05461
1084.40 0.05458
1084.50 0.05454
1084.60 0.0545
1084.70 0.05445
1084.80 0.05441
1084.90 0.05437
1085.00 0.05432
1085.10 0.05428
1085.20 0.05424
1085.30 0.0542
1085.40 0.05415
1085.50 0.05411
1085.60 0.05407
1085.70 0.05402
1085.80 0.05398
1085.90 0.05394
1086.00 0.0539
1086.10 0.05385
1086.20 0.05381
1086.30 0.05377
1086.40 0.05372
1086.50 0.05368
1086.60 0.05363
1086.70 0.05357
1086.80 0.05352
1086.90 0.05347
1087.00 0.05341
1087.10 0.05335
1087.20 0.05328
1087.30 0.05322
1087.40 0.05315
1087.50 0.05309
1087.60 0.05302
1087.70 0.05296
1087.80 0.05289
1087.90 0.05282
1088.00 0.05276
1088.10 0.05269
1088.20 0.05263
1088.30 0.05256
1088.40 0.0525
1088.50 0.05242
1088.60 0.05232
1088.70 0.05222
1088.80 0.05212
1088.90 0.05202
1089.00 0.05192
1089.10 0.05182
1089.20 0.05171
1089.30 0.05161
1089.40 0.05151
1089.50 0.05141
1089.60 0.05131
1089.70 0.05121
1089.80 0.05111
1089.90 0.05101
1090.00 0.05091
1090.10 0.05081
1090.20 0.05071
1090.30 0.05061
1090.40 0.05051
1090.50 0.05039
1090.60 0.05022
1090.70 0.05006
1090.80 0.0499
1090.90 0.04973
1091.00 0.04957
1091.10 0.0494
1091.20 0.04924
1091.30 0.04908
1091.40 0.04891
1091.50 0.04875
1091.60 0.04859
1091.70 0.04842
1091.80 0.04826
1091.90 0.0481
1092.00 0.04792
1092.10 0.0477
1092.20 0.04748
1092.30 0.04725
1092.40 0.04703
1092.50 0.04681
1092.60 0.04658
1092.70 0.04635
1092.80 0.0461
1092.90 0.04585
1093.00 0.0456
1093.10 0.04535
1093.20 0.0451
1093.30 0.04485
1093.40 0.04462
1093.50 0.0444
1093.60 0.04421
1093.70 0.0441
1093.80 0.04406
1093.90 0.04408
1094.00 0.04423
1094.10 0.04437
1094.20 0.04452
1094.30 0.04469
1094.40 0.0449
1094.50 0.04512
1094.60 0.04534
1094.70 0.04556
1094.80 0.04577
1094.90 0.04599
1095.00 0.04619
1095.10 0.04635
1095.20 0.04652
1095.30 0.04668
1095.40 0.04685
1095.50 0.04701
1095.60 0.04717
1095.70 0.04734
1095.80 0.0475
1095.90 0.04767
1096.00 0.04783
1096.10 0.04799
1096.20 0.04816
1096.30 0.04832
1096.40 0.04848
1096.50 0.04863
1096.60 0.04874
1096.70 0.04885
1096.80 0.04896
1096.90 0.04907
1097.00 0.04918
1097.10 0.04926
1097.20 0.04933
1097.30 0.0494
1097.40 0.04948
1097.50 0.04955
1097.60 0.04963
1097.70 0.0497
1097.80 0.04977
1097.90 0.04985
1098.00 0.04992
1098.10 0.05
1098.20 0.05007
1098.30 0.05014
1098.40 0.05022
1098.50 0.05028
1098.60 0.05031
1098.70 0.05035
1098.80 0.05038
1098.90 0.05041
1099.00 0.05045
1099.10 0.05048
1099.20 0.05051
1099.30 0.05055
1099.40 0.05058
1099.50 0.05061
1099.60 0.05065
1099.70 0.05068
1099.80 0.05072
1099.90 0.05075
1100.00 0.05078
1100.10 0.05082
1100.20 0.05085
1100.30 0.05088
1100.40 0.05092
1100.50 0.05094
1100.60 0.05095
1100.70 0.05096
1100.80 0.05097
1100.90 0.05099
1101.00 0.051
1101.10 0.05101
1101.20 0.05102
1101.30 0.05103
1101.40 0.05104
1101.50 0.05105
1101.60 0.05106
1101.70 0.05107
1101.80 0.05108
1101.90 0.05109
1102.00 0.0511
1102.10 0.05111
1102.20 0.05111
1102.30 0.05111
1102.40 0.05112
1102.50 0.05112
1102.60 0.05112
1102.70 0.05112
1102.80 0.05111
1102.90 0.05111
1103.00 0.05111
1103.10 0.05111
1103.20 0.05111
1103.30 0.05111
1103.40 0.05111
1103.50 0.05111
1103.60 0.0511
1103.70 0.05109
1103.80 0.05109
1103.90 0.05108
1104.00 0.05107
1104.10 0.05107
1104.20 0.05106
1104.30 0.05105
1104.40 0.05104
1104.50 0.05104
1104.60 0.05103
1104.70 0.05102
1104.80 0.05102
1104.90 0.05101
1105.00 0.051
1105.10 0.051
1105.20 0.05099
1105.30 0.05098
1105.40 0.05098
1105.50 0.05097
1105.60 0.05096
1105.70 0.05095
1105.80 0.05094
1105.90 0.05093
1106.00 0.05092
1106.10 0.0509
1106.20 0.05089
1106.30 0.05088
1106.40 0.05087
1106.50 0.05086
1106.60 0.05085
1106.70 0.05084
1106.80 0.05083
1106.90 0.05082
1107.00 0.05081
1107.10 0.0508
1107.20 0.05078
1107.30 0.05077
1107.40 0.05076
1107.50 0.05075
1107.60 0.05073
1107.70 0.05072
1107.80 0.0507
1107.90 0.05069
1108.00 0.05068
1108.10 0.05066
1108.20 0.05065
1108.30 0.05064
1108.40 0.05062
1108.50 0.05061
1108.60 0.0506
1108.70 0.05058
1108.80 0.05057
1108.90 0.05056
1109.00 0.05054
1109.10 0.05053
1109.20 0.05052
1109.30 0.0505
1109.40 0.05049
1109.50 0.05047
1109.60 0.05046
1109.70 0.05044
1109.80 0.05043
1109.90 0.05041
1110.00 0.0504
1110.10 0.05038
1110.20 0.05037
1110.30 0.05035
1110.40 0.05034
1110.50 0.05032
1110.60 0.05031
1110.70 0.05029
1110.80 0.05028
1110.90 0.05026
1111.00 0.05025
1111.10 0.05023
1111.20 0.05022
1111.30 0.05021
1111.40 0.05019
1111.50 0.05018
1111.60 0.05016
1111.70 0.05015
1111.80 0.05013
1111.90 0.05012
1112.00 0.0501
1112.10 0.05008
1112.20 0.05007
1112.30 0.05005
1112.40 0.05004
1112.50 0.05002
1112.60 0.05001
1112.70 0.04999
1112.80 0.04998
1112.90 0.04996
1113.00 0.04994
1113.10 0.04993
1113.20 0.04991
1113.30 0.0499
1113.40 0.04988
1113.50 0.04987
1113.60 0.04985
1113.70 0.04983
1113.80 0.04982
1113.90 0.0498
1114.00 0.04978
1114.10 0.04977
1114.20 0.04975
1114.30 0.04974
1114.40 0.04972
1114.50 0.0497
1114.60 0.04969
1114.70 0.04967
1114.80 0.04966
1114.90 0.04964
1115.00 0.04962
1115.10 0.04961
1115.20 0.04959
1115.30 0.04958
1115.40 0.04956
1115.50 0.04954
1115.60 0.04953
1115.70 0.04951
1115.80 0.04949
1115.90 0.04948
1116.00 0.04946
1116.10 0.04945
1116.20 0.04943
1116.30 0.04941
1116.40 0.0494
1116.50 0.04938
1116.60 0.04937
1116.70 0.04935
1116.80 0.04933
1116.90 0.04932
1117.00 0.0493
1117.10 0.04929
1117.20 0.04927
1117.30 0.04925
1117.40 0.04924
1117.50 0.04922
1117.60 0.0492
1117.70 0.04919
1117.80 0.04917
1117.90 0.04915
1118.00 0.04914
1118.10 0.04912
1118.20 0.04911
1118.30 0.04909
1118.40 0.04907
1118.50 0.04906
1118.60 0.04904
1118.70 0.04902
1118.80 0.04901
1118.90 0.04899
1119.00 0.04897
1119.10 0.04896
1119.20 0.04894
1119.30 0.04893
1119.40 0.04891
1119.50 0.04889
1119.60 0.04888
1119.70 0.04886
1119.80 0.04884
1119.90 0.04883
1120.00 0.04881
1120.10 0.0488
1120.20 0.04878
1120.30 0.04876
1120.40 0.04875
1120.50 0.04873
1120.60 0.04871
1120.70 0.0487
1120.80 0.04868
1120.90 0.04866
1121.00 0.04865
1121.10 0.04863
1121.20 0.04862
1121.30 0.0486
1121.40 0.04858
1121.50 0.04857
1121.60 0.04855
1121.70 0.04854
1121.80 0.04852
1121.90 0.0485
1122.00 0.04849
1122.10 0.04847
1122.20 0.04845
1122.30 0.04844
1122.40 0.04842
1122.50 0.0484
1122.60 0.04839
1122.70 0.04837
1122.80 0.04836
1122.90 0.04834
1123.00 0.04832
1123.10 0.04831
1123.20 0.04829
1123.30 0.04827
1123.40 0.04826
1123.50 0.04824
1123.60 0.04822
1123.70 0.04821
1123.80 0.04819
1123.90 0.04818
1124.00 0.04816
1124.10 0.04814
1124.20 0.04813
1124.30 0.04811
1124.40 0.04809
1124.50 0.04808
1124.60 0.04806
1124.70 0.04805
1124.80 0.04803
1124.90 0.04801
1125.00 0.048
1125.10 0.04798
1125.20 0.04796
1125.30 0.04795
1125.40 0.04793
1125.50 0.04792
1125.60 0.0479
1125.70 0.04788
1125.80 0.04787
1125.90 0.04785
1126.00 0.04783
1126.10 0.04782
1126.20 0.0478
1126.30 0.04779
1126.40 0.04777
1126.50 0.04775
1126.60 0.04774
1126.70 0.04772
1126.80 0.04771
1126.90 0.04769
1127.00 0.04767
1127.10 0.04766
1127.20 0.04764
1127.30 0.04762
1127.40 0.04761
1127.50 0.04759
1127.60 0.04758
1127.70 0.04756
1127.80 0.04754
1127.90 0.04753
1128.00 0.04751
1128.10 0.0475
1128.20 0.04748
1128.30 0.04746
1128.40 0.04745
1128.50 0.04743
1128.60 0.04742
1128.70 0.0474
1128.80 0.04738
1128.90 0.04737
1129.00 0.04735
1129.10 0.04733
1129.20 0.04732
1129.30 0.0473
1129.40 0.04729
1129.50 0.04727
1129.60 0.04725
1129.70 0.04724
1129.80 0.04722
1129.90 0.04721
1130.00 0.04719
1130.10 0.04717
1130.20 0.04716
1130.30 0.04714
1130.40 0.04713
1130.50 0.04711
1130.60 0.04709
1130.70 0.04708
1130.80 0.04706
1130.90 0.04705
1131.00 0.04703
1131.10 0.04701
1131.20 0.047
1131.30 0.04698
1131.40 0.04697
1131.50 0.04695
1131.60 0.04693
1131.70 0.04692
1131.80 0.0469
1131.90 0.04689
1132.00 0.04687
1132.10 0.04686
1132.20 0.04684
1132.30 0.04682
1132.40 0.04681
1132.50 0.04679
1132.60 0.04678
1132.70 0.04676
1132.80 0.04674
1132.90 0.04673
1133.00 0.04671
1133.10 0.0467
1133.20 0.04668
1133.30 0.04666
1133.40 0.04665
1133.50 0.04663
1133.60 0.04662
1133.70 0.0466
1133.80 0.04659
1133.90 0.04657
1134.00 0.04655
1134.10 0.04654
1134.20 0.04652
1134.30 0.04651
1134.40 0.04649
1134.50 0.04647
1134.60 0.04646
1134.70 0.04644
1134.80 0.04643
1134.90 0.04641
1135.00 0.0464
1135.10 0.04638
1135.20 0.04636
1135.30 0.04635
1135.40 0.04633
1135.50 0.04632
1135.60 0.0463
1135.70 0.04629
1135.80 0.04627
1135.90 0.04625
1136.00 0.04624
1136.10 0.04622
1136.20 0.04621
1136.30 0.04619
1136.40 0.04618
1136.50 0.04616
1136.60 0.04614
1136.70 0.04613
1136.80 0.04611
1136.90 0.0461
1137.00 0.04608
1137.10 0.04607
1137.20 0.04605
1137.30 0.04604
1137.40 0.04602
1137.50 0.046
1137.60 0.04599
1137.70 0.04597
1137.80 0.04596
1137.90 0.04594
1138.00 0.04593
1138.10 0.04591
1138.20 0.0459
1138.30 0.04588
1138.40 0.04586
1138.50 0.04585
1138.60 0.04583
1138.70 0.04582
1138.80 0.0458
1138.90 0.04579
1139.00 0.04577
1139.10 0.04576
1139.20 0.04574
1139.30 0.04572
1139.40 0.04571
1139.50 0.04569
1139.60 0.04568
1139.70 0.04566
1139.80 0.04565
1139.90 0.04563
1140.00 0.04562
1140.10 0.0456
1140.20 0.04559
1140.30 0.04557
1140.40 0.04555
1140.50 0.04554
1140.60 0.04552
1140.70 0.04551
1140.80 0.04549
1140.90 0.04548
1141.00 0.04546
1141.10 0.04545
1141.20 0.04543
1141.30 0.04542
1141.40 0.0454
1141.50 0.04538
1141.60 0.04537
1141.70 0.04535
1141.80 0.04534
1141.90 0.04532
1142.00 0.04531
1142.10 0.04529
1142.20 0.04528
1142.30 0.04526
1142.40 0.04525
1142.50 0.04523
1142.60 0.04522
1142.70 0.0452
1142.80 0.04519
1142.90 0.04517
1143.00 0.04516
1143.10 0.04514
1143.20 0.04512
1143.30 0.04511
1143.40 0.04509
1143.50 0.04508
1143.60 0.04506
1143.70 0.04505
1143.80 0.04503
1143.90 0.04502
1144.00 0.045
1144.10 0.04499
1144.20 0.04497
1144.30 0.04496
1144.40 0.04494
1144.50 0.04493
1144.60 0.04491
1144.70 0.0449
1144.80 0.04488
1144.90 0.04487
1145.00 0.04485
1145.10 0.04484
1145.20 0.04482
1145.30 0.04481
1145.40 0.04479
1145.50 0.04478
1145.60 0.04476
1145.70 0.04474
1145.80 0.04473
1145.90 0.04471
1146.00 0.0447
1146.10 0.04468
1146.20 0.04467
1146.30 0.04465
1146.40 0.04464
1146.50 0.04462
1146.60 0.04461
1146.70 0.04459
1146.80 0.04458
1146.90 0.04456
1147.00 0.04455
1147.10 0.04453
1147.20 0.04452
1147.30 0.0445
1147.40 0.04449
1147.50 0.04447
1147.60 0.04446
1147.70 0.04444
1147.80 0.04443
1147.90 0.04441
1148.00 0.0444
1148.10 0.04438
1148.20 0.04437
1148.30 0.04435
1148.40 0.04434
1148.50 0.04432
1148.60 0.04431
1148.70 0.04429
1148.80 0.04428
1148.90 0.04426
1149.00 0.04425
1149.10 0.04423
1149.20 0.04422
1149.30 0.04421
1149.40 0.04419
1149.50 0.04418
1149.60 0.04416
1149.70 0.04415
1149.80 0.04413
1149.90 0.04412
1150.00 0.0441
1150.10 0.04409
1150.20 0.04407
1150.30 0.04406
1150.40 0.04404
1150.50 0.04403
1150.60 0.04401
1150.70 0.044
1150.80 0.04398
1150.90 0.04397
1151.00 0.04395
1151.10 0.04394
1151.20 0.04392
1151.30 0.04391
1151.40 0.04389
1151.50 0.04388
1151.60 0.04386
1151.70 0.04385
1151.80 0.04383
1151.90 0.04382
1152.00 0.0438
1152.10 0.04379
1152.20 0.04378
1152.30 0.04376
1152.40 0.04375
1152.50 0.04373
1152.60 0.04372
1152.70 0.0437
1152.80 0.04369
1152.90 0.04367
1153.00 0.04366
1153.10 0.04364
1153.20 0.04363
1153.30 0.04361
1153.40 0.0436
1153.50 0.04358
1153.60 0.04357
1153.70 0.04356
1153.80 0.04354
1153.90 0.04353
1154.00 0.04351
1154.10 0.0435
1154.20 0.04348
1154.30 0.04347
1154.40 0.04345
1154.50 0.04344
1154.60 0.04342
1154.70 0.04341
1154.80 0.0434
1154.90 0.04338
1155.00 0.04337
1155.10 0.04335
1155.20 0.04334
1155.30 0.04332
1155.40 0.04331
1155.50 0.04329
1155.60 0.04328
1155.70 0.04326
1155.80 0.04325
1155.90 0.04324
1156.00 0.04322
1156.10 0.04321
1156.20 0.04319
1156.30 0.04318
1156.40 0.04316
1156.50 0.04315
1156.60 0.04313
1156.70 0.04312
1156.80 0.0431
1156.90 0.04309
1157.00 0.04308
1157.10 0.04306
1157.20 0.04305
1157.30 0.04303
1157.40 0.04302
1157.50 0.043
1157.60 0.04299
1157.70 0.04298
1157.80 0.04296
1157.90 0.04295
1158.00 0.04293
1158.10 0.04292
1158.20 0.0429
1158.30 0.04289
1158.40 0.04287
1158.50 0.04286
1158.60 0.04285
1158.70 0.04283
1158.80 0.04282
1158.90 0.0428
1159.00 0.04279
1159.10 0.04277
1159.20 0.04276
1159.30 0.04275
1159.40 0.04273
1159.50 0.04272
1159.60 0.0427
1159.70 0.04269
1159.80 0.04267
1159.90 0.04266
1160.00 0.04265
1160.10 0.04263
1160.20 0.04262
1160.30 0.0426
1160.40 0.04259
1160.50 0.04257
1160.60 0.04256
1160.70 0.04255
1160.80 0.04253
1160.90 0.04252
1161.00 0.0425
1161.10 0.04249
1161.20 0.04248
1161.30 0.04246
1161.40 0.04245
1161.50 0.04243
1161.60 0.04242
1161.70 0.0424
1161.80 0.04239
1161.90 0.04238
1162.00 0.04236
1162.10 0.04235
1162.20 0.04233
1162.30 0.04232
1162.40 0.04231
1162.50 0.04229
1162.60 0.04228
1162.70 0.04226
1162.80 0.04225
1162.90 0.04223
1163.00 0.04222
1163.10 0.04221
1163.20 0.04219
1163.30 0.04218
1163.40 0.04216
1163.50 0.04215
1163.60 0.04214
1163.70 0.04212
1163.80 0.04211
1163.90 0.04209
1164.00 0.04208
1164.10 0.04207
1164.20 0.04205
1164.30 0.04204
1164.40 0.04202
1164.50 0.04201
1164.60 0.042
1164.70 0.04198
1164.80 0.04197
1164.90 0.04195
1165.00 0.04194
1165.10 0.04193
1165.20 0.04191
1165.30 0.0419
1165.40 0.04188
1165.50 0.04187
1165.60 0.04186
1165.70 0.04184
1165.80 0.04183
1165.90 0.04181
1166.00 0.0418
1166.10 0.04179
1166.20 0.04177
1166.30 0.04176
1166.40 0.04175
1166.50 0.04173
1166.60 0.04172
1166.70 0.0417
1166.80 0.04169
1166.90 0.04168
1167.00 0.04166
1167.10 0.04165
1167.20 0.04163
1167.30 0.04162
1167.40 0.04161
1167.50 0.04159
1167.60 0.04158
1167.70 0.04157
1167.80 0.04155
1167.90 0.04154
1168.00 0.04152
1168.10 0.04151
1168.20 0.0415
1168.30 0.04148
1168.40 0.04147
1168.50 0.04146
1168.60 0.04144
1168.70 0.04143
1168.80 0.04141
1168.90 0.0414
1169.00 0.04139
1169.10 0.04137
1169.20 0.04136
1169.30 0.04135
1169.40 0.04133
1169.50 0.04132
1169.60 0.0413
1169.70 0.04129
1169.80 0.04128
1169.90 0.04126
1170.00 0.04125
1170.10 0.04124
1170.20 0.04122
1170.30 0.04121
1170.40 0.04119
1170.50 0.04118
1170.60 0.04117
1170.70 0.04115
1170.80 0.04114
1170.90 0.04113
1171.00 0.04111
1171.10 0.0411
1171.20 0.04109
1171.30 0.04107
1171.40 0.04106
1171.50 0.04104
1171.60 0.04103
1171.70 0.04102
1171.80 0.041
1171.90 0.04099
1172.00 0.04098
1172.10 0.04096
1172.20 0.04095
1172.30 0.04094
1172.40 0.04092
1172.50 0.04091
1172.60 0.0409
1172.70 0.04088
1172.80 0.04087
1172.90 0.04085
1173.00 0.04084
1173.10 0.04083
1173.20 0.04081
1173.30 0.0408
1173.40 0.04079
1173.50 0.04077
1173.60 0.04076
1173.70 0.04075
1173.80 0.04073
1173.90 0.04072
1174.00 0.04071
1174.10 0.04069
1174.20 0.04068
1174.30 0.04067
1174.40 0.04065
1174.50 0.04064
1174.60 0.04063
1174.70 0.04061
1174.80 0.0406
1174.90 0.04059
1175.00 0.04057
1175.10 0.04056
1175.20 0.04055
1175.30 0.04053
1175.40 0.04052
1175.50 0.04051
1175.60 0.04049
1175.70 0.04048
1175.80 0.04047
1175.90 0.04045
1176.00 0.04044
1176.10 0.04043
1176.20 0.04041
1176.30 0.0404
1176.40 0.04039
1176.50 0.04037
1176.60 0.04036
1176.70 0.04035
1176.80 0.04033
1176.90 0.04032
1177.00 0.04031
1177.10 0.04029
1177.20 0.04028
1177.30 0.04027
1177.40 0.04025
1177.50 0.04024
1177.60 0.04023
1177.70 0.04021
1177.80 0.0402
1177.90 0.04019
1178.00 0.04017
1178.10 0.04016
1178.20 0.04015
1178.30 0.04013
1178.40 0.04012
1178.50 0.04011
1178.60 0.04009
1178.70 0.04008
1178.80 0.04007
1178.90 0.04005
1179.00 0.04004
1179.10 0.04003
1179.20 0.04001
1179.30 0.04
1179.40 0.03999
1179.50 0.03997
1179.60 0.03996
1179.70 0.03995
1179.80 0.03994
1179.90 0.03992
1180.00 0.03991
1180.10 0.0399
1180.20 0.03988
1180.30 0.03987
1180.40 0.03986
1180.50 0.03984
1180.60 0.03983
1180.70 0.03982
1180.80 0.0398
1180.90 0.03979
1181.00 0.03978
1181.10 0.03976
1181.20 0.03975
1181.30 0.03974
1181.40 0.03973
1181.50 0.03971
1181.60 0.0397
1181.70 0.03969
1181.80 0.03967
1181.90 0.03966
1182.00 0.03965
1182.10 0.03963
1182.20 0.03962
1182.30 0.03961
1182.40 0.0396
1182.50 0.03958
1182.60 0.03957
1182.70 0.03956
1182.80 0.03954
1182.90 0.03953
1183.00 0.03952
1183.10 0.0395
1183.20 0.03949
1183.30 0.03948
1183.40 0.03947
1183.50 0.03945
1183.60 0.03944
1183.70 0.03943
1183.80 0.03941
1183.90 0.0394
1184.00 0.03939
1184.10 0.03938
1184.20 0.03936
1184.30 0.03935
1184.40 0.03934
1184.50 0.03932
1184.60 0.03931
1184.70 0.0393
1184.80 0.03928
1184.90 0.03927
1185.00 0.03926
1185.10 0.03925
1185.20 0.03923
1185.30 0.03922
1185.40 0.03921
1185.50 0.03919
1185.60 0.03918
1185.70 0.03917
1185.80 0.03916
1185.90 0.03914
1186.00 0.03913
1186.10 0.03912
1186.20 0.0391
1186.30 0.03909
1186.40 0.03908
1186.50 0.03907
1186.60 0.03905
1186.70 0.03904
1186.80 0.03903
1186.90 0.03902
1187.00 0.039
1187.10 0.03899
1187.20 0.03898
1187.30 0.03896
1187.40 0.03895
1187.50 0.03894
1187.60 0.03893
1187.70 0.03891
1187.80 0.0389
1187.90 0.03889
1188.00 0.03888
1188.10 0.03886
1188.20 0.03885
1188.30 0.03884
1188.40 0.03882
1188.50 0.03881
1188.60 0.0388
1188.70 0.03879
1188.80 0.03877
1188.90 0.03876
1189.00 0.03875
1189.10 0.03874
1189.20 0.03872
1189.30 0.03871
1189.40 0.0387
1189.50 0.03869
1189.60 0.03867
1189.70 0.03866
1189.80 0.03865
1189.90 0.03863
1190.00 0.03862
1190.10 0.03861
1190.20 0.0386
1190.30 0.03858
1190.40 0.03857
1190.50 0.03856
1190.60 0.03855
1190.70 0.03853
1190.80 0.03852
1190.90 0.03851
1191.00 0.0385
1191.10 0.03848
1191.20 0.03847
1191.30 0.03846
1191.40 0.03845
1191.50 0.03843
1191.60 0.03842
1191.70 0.03841
1191.80 0.0384
1191.90 0.03838
1192.00 0.03837
1192.10 0.03836
1192.20 0.03835
1192.30 0.03833
1192.40 0.03832
1192.50 0.03831
1192.60 0.0383
1192.70 0.03828
1192.80 0.03827
1192.90 0.03826
1193.00 0.03825
1193.10 0.03823
1193.20 0.03822
1193.30 0.03821
1193.40 0.0382
1193.50 0.03818
1193.60 0.03817
1193.70 0.03816
1193.80 0.03815
1193.90 0.03813
1194.00 0.03812
1194.10 0.03811
1194.20 0.0381
1194.30 0.03808
1194.40 0.03807
1194.50 0.03806
1194.60 0.03805
1194.70 0.03804
1194.80 0.03802
1194.90 0.03801
1195.00 0.038
1195.10 0.03799
1195.20 0.03797
1195.30 0.03796
1195.40 0.03795
1195.50 0.03794
1195.60 0.03792
1195.70 0.03791
1195.80 0.0379
1195.90 0.03789
1196.00 0.03787
1196.10 0.03786
1196.20 0.03785
1196.30 0.03784
1196.40 0.03783
1196.50 0.03781
1196.60 0.0378
1196.70 0.03779
1196.80 0.03778
1196.90 0.03776
1197.00 0.03775
1197.10 0.03774
1197.20 0.03773
1197.30 0.03771
1197.40 0.0377
1197.50 0.03769
1197.60 0.03768
1197.70 0.03767
1197.80 0.03765
1197.90 0.03764
1198.00 0.03763
1198.10 0.03762
1198.20 0.0376
1198.30 0.03759
1198.40 0.03758
1198.50 0.03757
1198.60 0.03756
1198.70 0.03754
1198.80 0.03753
1198.90 0.03752
1199.00 0.03751
1199.10 0.0375
1199.20 0.03748
1199.30 0.03747
1199.40 0.03746
1199.50 0.03745
1199.60 0.03743
1199.70 0.03742
1199.80 0.03741
1199.90 0.0374
1200.00 0
