# Version 2.1 - nm, norm@500 to 1, cut digits, bergeron_4000_70.dat_4000
# Wavelength(nm)  Flambda(ergs/cm^s/s/nm)
300.00 0.1568
300.10 0.1571
300.20 0.1574
300.30 0.1578
300.40 0.1581
300.50 0.1584
300.60 0.1587
300.70 0.159
300.80 0.1593
300.90 0.1597
301.00 0.16
301.10 0.1603
301.20 0.1606
301.30 0.1609
301.40 0.1612
301.50 0.1615
301.60 0.1619
301.70 0.1622
301.80 0.1625
301.90 0.1628
302.00 0.1631
302.10 0.1634
302.20 0.1637
302.30 0.1641
302.40 0.1644
302.50 0.1647
302.60 0.165
302.70 0.1654
302.80 0.1657
302.90 0.166
303.00 0.1663
303.10 0.1666
303.20 0.167
303.30 0.1673
303.40 0.1676
303.50 0.1679
303.60 0.1682
303.70 0.1686
303.80 0.1689
303.90 0.1692
304.00 0.1695
304.10 0.1698
304.20 0.1702
304.30 0.1705
304.40 0.1708
304.50 0.1712
304.60 0.1715
304.70 0.1718
304.80 0.1721
304.90 0.1725
305.00 0.1728
305.10 0.1731
305.20 0.1735
305.30 0.1738
305.40 0.1741
305.50 0.1744
305.60 0.1748
305.70 0.1751
305.80 0.1754
305.90 0.1757
306.00 0.1761
306.10 0.1764
306.20 0.1767
306.30 0.1771
306.40 0.1774
306.50 0.1777
306.60 0.1781
306.70 0.1784
306.80 0.1787
306.90 0.1791
307.00 0.1794
307.10 0.1797
307.20 0.1801
307.30 0.1804
307.40 0.1807
307.50 0.1811
307.60 0.1814
307.70 0.1817
307.80 0.1821
307.90 0.1824
308.00 0.1827
308.10 0.1831
308.20 0.1834
308.30 0.1837
308.40 0.1841
308.50 0.1844
308.60 0.1848
308.70 0.1851
308.80 0.1854
308.90 0.1858
309.00 0.1861
309.10 0.1865
309.20 0.1868
309.30 0.1871
309.40 0.1875
309.50 0.1878
309.60 0.1881
309.70 0.1885
309.80 0.1888
309.90 0.1892
310.00 0.1895
310.10 0.1898
310.20 0.1902
310.30 0.1905
310.40 0.1909
310.50 0.1912
310.60 0.1916
310.70 0.1919
310.80 0.1923
310.90 0.1926
311.00 0.193
311.10 0.1933
311.20 0.1937
311.30 0.194
311.40 0.1944
311.50 0.1947
311.60 0.195
311.70 0.1954
311.80 0.1957
311.90 0.1961
312.00 0.1964
312.10 0.1967
312.20 0.1971
312.30 0.1974
312.40 0.1978
312.50 0.1981
312.60 0.1985
312.70 0.1989
312.80 0.1992
312.90 0.1996
313.00 0.1999
313.10 0.2003
313.20 0.2006
313.30 0.201
313.40 0.2013
313.50 0.2017
313.60 0.202
313.70 0.2024
313.80 0.2027
313.90 0.2031
314.00 0.2034
314.10 0.2038
314.20 0.2041
314.30 0.2045
314.40 0.2048
314.50 0.2052
314.60 0.2056
314.70 0.2059
314.80 0.2063
314.90 0.2066
315.00 0.207
315.10 0.2074
315.20 0.2077
315.30 0.2081
315.40 0.2084
315.50 0.2088
315.60 0.2091
315.70 0.2095
315.80 0.2098
315.90 0.2102
316.00 0.2105
316.10 0.2109
316.20 0.2113
316.30 0.2116
316.40 0.212
316.50 0.2124
316.60 0.2127
316.70 0.2131
316.80 0.2135
316.90 0.2138
317.00 0.2142
317.10 0.2145
317.20 0.2149
317.30 0.2153
317.40 0.2156
317.50 0.216
317.60 0.2163
317.70 0.2167
317.80 0.2171
317.90 0.2174
318.00 0.2178
318.10 0.2182
318.20 0.2185
318.30 0.2189
318.40 0.2193
318.50 0.2196
318.60 0.22
318.70 0.2204
318.80 0.2207
318.90 0.2211
319.00 0.2215
319.10 0.2219
319.20 0.2222
319.30 0.2226
319.40 0.223
319.50 0.2233
319.60 0.2237
319.70 0.224
319.80 0.2244
319.90 0.2248
320.00 0.2251
320.10 0.2255
320.20 0.2259
320.30 0.2263
320.40 0.2266
320.50 0.227
320.60 0.2274
320.70 0.2278
320.80 0.2281
320.90 0.2285
321.00 0.2289
321.10 0.2293
321.20 0.2296
321.30 0.23
321.40 0.2304
321.50 0.2308
321.60 0.2311
321.70 0.2315
321.80 0.2319
321.90 0.2322
322.00 0.2326
322.10 0.233
322.20 0.2334
322.30 0.2337
322.40 0.2341
322.50 0.2345
322.60 0.2349
322.70 0.2353
322.80 0.2356
322.90 0.236
323.00 0.2364
323.10 0.2368
323.20 0.2372
323.30 0.2375
323.40 0.2379
323.50 0.2383
323.60 0.2387
323.70 0.239
323.80 0.2394
323.90 0.2398
324.00 0.2402
324.10 0.2406
324.20 0.2409
324.30 0.2413
324.40 0.2417
324.50 0.2421
324.60 0.2425
324.70 0.2429
324.80 0.2433
324.90 0.2436
325.00 0.244
325.10 0.2444
325.20 0.2448
325.30 0.2452
325.40 0.2456
325.50 0.2459
325.60 0.2463
325.70 0.2467
325.80 0.2471
325.90 0.2475
326.00 0.2478
326.10 0.2482
326.20 0.2486
326.30 0.249
326.40 0.2494
326.50 0.2498
326.60 0.2502
326.70 0.2506
326.80 0.251
326.90 0.2514
327.00 0.2517
327.10 0.2521
327.20 0.2525
327.30 0.2529
327.40 0.2533
327.50 0.2537
327.60 0.2541
327.70 0.2545
327.80 0.2548
327.90 0.2552
328.00 0.2556
328.10 0.256
328.20 0.2564
328.30 0.2568
328.40 0.2572
328.50 0.2576
328.60 0.258
328.70 0.2584
328.80 0.2588
328.90 0.2592
329.00 0.2596
329.10 0.26
329.20 0.2604
329.30 0.2607
329.40 0.2611
329.50 0.2615
329.60 0.2619
329.70 0.2623
329.80 0.2627
329.90 0.2631
330.00 0.2635
330.10 0.2639
330.20 0.2643
330.30 0.2647
330.40 0.2651
330.50 0.2655
330.60 0.2659
330.70 0.2663
330.80 0.2667
330.90 0.2671
331.00 0.2675
331.10 0.2679
331.20 0.2683
331.30 0.2687
331.40 0.2691
331.50 0.2695
331.60 0.2699
331.70 0.2703
331.80 0.2707
331.90 0.271
332.00 0.2714
332.10 0.2718
332.20 0.2723
332.30 0.2727
332.40 0.2731
332.50 0.2735
332.60 0.2739
332.70 0.2743
332.80 0.2747
332.90 0.2751
333.00 0.2755
333.10 0.2759
333.20 0.2763
333.30 0.2767
333.40 0.2771
333.50 0.2775
333.60 0.2779
333.70 0.2783
333.80 0.2787
333.90 0.2791
334.00 0.2795
334.10 0.2799
334.20 0.2803
334.30 0.2807
334.40 0.2811
334.50 0.2815
334.60 0.282
334.70 0.2824
334.80 0.2828
334.90 0.2832
335.00 0.2836
335.10 0.284
335.20 0.2844
335.30 0.2848
335.40 0.2852
335.50 0.2856
335.60 0.286
335.70 0.2864
335.80 0.2868
335.90 0.2872
336.00 0.2876
336.10 0.2881
336.20 0.2885
336.30 0.2889
336.40 0.2893
336.50 0.2897
336.60 0.2901
336.70 0.2905
336.80 0.291
336.90 0.2914
337.00 0.2918
337.10 0.2922
337.20 0.2926
337.30 0.293
337.40 0.2934
337.50 0.2938
337.60 0.2942
337.70 0.2947
337.80 0.2951
337.90 0.2955
338.00 0.2959
338.10 0.2963
338.20 0.2967
338.30 0.2971
338.40 0.2976
338.50 0.298
338.60 0.2984
338.70 0.2988
338.80 0.2992
338.90 0.2996
339.00 0.3001
339.10 0.3005
339.20 0.3009
339.30 0.3013
339.40 0.3017
339.50 0.3021
339.60 0.3025
339.70 0.3029
339.80 0.3034
339.90 0.3038
340.00 0.3042
340.10 0.3046
340.20 0.305
340.30 0.3055
340.40 0.3059
340.50 0.3063
340.60 0.3067
340.70 0.3071
340.80 0.3076
340.90 0.308
341.00 0.3084
341.10 0.3088
341.20 0.3092
341.30 0.3097
341.40 0.3101
341.50 0.3105
341.60 0.3109
341.70 0.3113
341.80 0.3117
341.90 0.3122
342.00 0.3126
342.10 0.313
342.20 0.3134
342.30 0.3139
342.40 0.3143
342.50 0.3147
342.60 0.3151
342.70 0.3156
342.80 0.316
342.90 0.3164
343.00 0.3168
343.10 0.3173
343.20 0.3177
343.30 0.3181
343.40 0.3185
343.50 0.3189
343.60 0.3194
343.70 0.3198
343.80 0.3202
343.90 0.3206
344.00 0.321
344.10 0.3215
344.20 0.3219
344.30 0.3223
344.40 0.3228
344.50 0.3232
344.60 0.3236
344.70 0.3241
344.80 0.3245
344.90 0.3249
345.00 0.3253
345.10 0.3258
345.20 0.3262
345.30 0.3266
345.40 0.3271
345.50 0.3275
345.60 0.3279
345.70 0.3283
345.80 0.3288
345.90 0.3292
346.00 0.3296
346.10 0.33
346.20 0.3305
346.30 0.3309
346.40 0.3313
346.50 0.3318
346.60 0.3322
346.70 0.3326
346.80 0.3331
346.90 0.3335
347.00 0.3339
347.10 0.3344
347.20 0.3348
347.30 0.3352
347.40 0.3356
347.50 0.3361
347.60 0.3365
347.70 0.3369
347.80 0.3374
347.90 0.3378
348.00 0.3382
348.10 0.3386
348.20 0.3391
348.30 0.3395
348.40 0.34
348.50 0.3404
348.60 0.3408
348.70 0.3413
348.80 0.3417
348.90 0.3421
349.00 0.3426
349.10 0.343
349.20 0.3434
349.30 0.3439
349.40 0.3443
349.50 0.3447
349.60 0.3452
349.70 0.3456
349.80 0.346
349.90 0.3465
350.00 0.3469
350.10 0.3473
350.20 0.3478
350.30 0.3482
350.40 0.3487
350.50 0.3491
350.60 0.3495
350.70 0.35
350.80 0.3504
350.90 0.3509
351.00 0.3513
351.10 0.3517
351.20 0.3522
351.30 0.3526
351.40 0.3531
351.50 0.3535
351.60 0.3539
351.70 0.3544
351.80 0.3548
351.90 0.3552
352.00 0.3557
352.10 0.3561
352.20 0.3565
352.30 0.357
352.40 0.3574
352.50 0.3579
352.60 0.3583
352.70 0.3588
352.80 0.3592
352.90 0.3596
353.00 0.3601
353.10 0.3605
353.20 0.361
353.30 0.3614
353.40 0.3618
353.50 0.3623
353.60 0.3627
353.70 0.3632
353.80 0.3636
353.90 0.364
354.00 0.3645
354.10 0.3649
354.20 0.3654
354.30 0.3658
354.40 0.3663
354.50 0.3667
354.60 0.3672
354.70 0.3676
354.80 0.3681
354.90 0.3685
355.00 0.3689
355.10 0.3694
355.20 0.3698
355.30 0.3703
355.40 0.3707
355.50 0.3712
355.60 0.3716
355.70 0.372
355.80 0.3725
355.90 0.3729
356.00 0.3734
356.10 0.3738
356.20 0.3743
356.30 0.3747
356.40 0.3752
356.50 0.3756
356.60 0.3761
356.70 0.3765
356.80 0.377
356.90 0.3774
357.00 0.3779
357.10 0.3783
357.20 0.3787
357.30 0.3792
357.40 0.3796
357.50 0.3801
357.60 0.3805
357.70 0.381
357.80 0.3814
357.90 0.3818
358.00 0.3823
358.10 0.3827
358.20 0.3832
358.30 0.3836
358.40 0.3841
358.50 0.3846
358.60 0.385
358.70 0.3855
358.80 0.3859
358.90 0.3864
359.00 0.3868
359.10 0.3873
359.20 0.3877
359.30 0.3882
359.40 0.3886
359.50 0.3891
359.60 0.3895
359.70 0.3899
359.80 0.3904
359.90 0.3908
360.00 0.3913
360.10 0.3917
360.20 0.3922
360.30 0.3926
360.40 0.3931
360.50 0.3936
360.60 0.394
360.70 0.3945
360.80 0.3949
360.90 0.3954
361.00 0.3958
361.10 0.3963
361.20 0.3967
361.30 0.3972
361.40 0.3976
361.50 0.3981
361.60 0.3985
361.70 0.399
361.80 0.3994
361.90 0.3999
362.00 0.4003
362.10 0.4008
362.20 0.4012
362.30 0.4017
362.40 0.4021
362.50 0.4026
362.60 0.4031
362.70 0.4035
362.80 0.404
362.90 0.4044
363.00 0.4049
363.10 0.4053
363.20 0.4058
363.30 0.4062
363.40 0.4067
363.50 0.4072
363.60 0.4076
363.70 0.4081
363.80 0.4085
363.90 0.409
364.00 0.4094
364.10 0.4099
364.20 0.4103
364.30 0.4108
364.40 0.4112
364.50 0.4117
364.60 0.4122
364.70 0.4126
364.80 0.4131
364.90 0.4135
365.00 0.414
365.10 0.4144
365.20 0.4149
365.30 0.4154
365.40 0.4158
365.50 0.4163
365.60 0.4167
365.70 0.4172
365.80 0.4176
365.90 0.4181
366.00 0.4185
366.10 0.419
366.20 0.4195
366.30 0.4199
366.40 0.4204
366.50 0.4208
366.60 0.4213
366.70 0.4218
366.80 0.4222
366.90 0.4227
367.00 0.4231
367.10 0.4236
367.20 0.4241
367.30 0.4245
367.40 0.425
367.50 0.4254
367.60 0.4259
367.70 0.4263
367.80 0.4268
367.90 0.4273
368.00 0.4277
368.10 0.4282
368.20 0.4286
368.30 0.4291
368.40 0.4296
368.50 0.43
368.60 0.4305
368.70 0.431
368.80 0.4314
368.90 0.4319
369.00 0.4323
369.10 0.4328
369.20 0.4333
369.30 0.4337
369.40 0.4342
369.50 0.4346
369.60 0.4351
369.70 0.4356
369.80 0.436
369.90 0.4365
370.00 0.4369
370.10 0.4374
370.20 0.4379
370.30 0.4383
370.40 0.4388
370.50 0.4393
370.60 0.4397
370.70 0.4402
370.80 0.4407
370.90 0.4411
371.00 0.4416
371.10 0.442
371.20 0.4425
371.30 0.443
371.40 0.4434
371.50 0.4439
371.60 0.4443
371.70 0.4448
371.80 0.4453
371.90 0.4457
372.00 0.4462
372.10 0.4466
372.20 0.4471
372.30 0.4476
372.40 0.448
372.50 0.4485
372.60 0.449
372.70 0.4494
372.80 0.4499
372.90 0.4504
373.00 0.4508
373.10 0.4513
373.20 0.4518
373.30 0.4522
373.40 0.4527
373.50 0.4532
373.60 0.4536
373.70 0.4541
373.80 0.4545
373.90 0.455
374.00 0.4555
374.10 0.4559
374.20 0.4564
374.30 0.4569
374.40 0.4573
374.50 0.4578
374.60 0.4583
374.70 0.4587
374.80 0.4592
374.90 0.4597
375.00 0.4601
375.10 0.4606
375.20 0.4611
375.30 0.4615
375.40 0.462
375.50 0.4625
375.60 0.4629
375.70 0.4634
375.80 0.4638
375.90 0.4643
376.00 0.4648
376.10 0.4652
376.20 0.4657
376.30 0.4662
376.40 0.4666
376.50 0.4671
376.60 0.4676
376.70 0.468
376.80 0.4685
376.90 0.469
377.00 0.4694
377.10 0.4699
377.20 0.4704
377.30 0.4708
377.40 0.4713
377.50 0.4718
377.60 0.4722
377.70 0.4727
377.80 0.4732
377.90 0.4736
378.00 0.4741
378.10 0.4746
378.20 0.4751
378.30 0.4755
378.40 0.476
378.50 0.4765
378.60 0.4769
378.70 0.4774
378.80 0.4779
378.90 0.4783
379.00 0.4788
379.10 0.4793
379.20 0.4797
379.30 0.4802
379.40 0.4807
379.50 0.4811
379.60 0.4816
379.70 0.4821
379.80 0.4825
379.90 0.483
380.00 0.4835
380.10 0.4839
380.20 0.4844
380.30 0.4849
380.40 0.4854
380.50 0.4858
380.60 0.4863
380.70 0.4868
380.80 0.4872
380.90 0.4877
381.00 0.4882
381.10 0.4886
381.20 0.4891
381.30 0.4896
381.40 0.49
381.50 0.4905
381.60 0.491
381.70 0.4914
381.80 0.4919
381.90 0.4924
382.00 0.4929
382.10 0.4933
382.20 0.4938
382.30 0.4943
382.40 0.4948
382.50 0.4952
382.60 0.4957
382.70 0.4962
382.80 0.4966
382.90 0.4971
383.00 0.4976
383.10 0.498
383.20 0.4985
383.30 0.499
383.40 0.4994
383.50 0.4999
383.60 0.5004
383.70 0.5008
383.80 0.5013
383.90 0.5018
384.00 0.5023
384.10 0.5027
384.20 0.5032
384.30 0.5037
384.40 0.5042
384.50 0.5046
384.60 0.5051
384.70 0.5056
384.80 0.506
384.90 0.5065
385.00 0.507
385.10 0.5074
385.20 0.5079
385.30 0.5084
385.40 0.5089
385.50 0.5093
385.60 0.5098
385.70 0.5103
385.80 0.5107
385.90 0.5112
386.00 0.5117
386.10 0.5122
386.20 0.5126
386.30 0.5131
386.40 0.5136
386.50 0.514
386.60 0.5145
386.70 0.515
386.80 0.5154
386.90 0.5159
387.00 0.5164
387.10 0.5169
387.20 0.5173
387.30 0.5178
387.40 0.5183
387.50 0.5188
387.60 0.5192
387.70 0.5197
387.80 0.5202
387.90 0.5206
388.00 0.5211
388.10 0.5216
388.20 0.5221
388.30 0.5225
388.40 0.523
388.50 0.5235
388.60 0.5239
388.70 0.5244
388.80 0.5249
388.90 0.5253
389.00 0.5258
389.10 0.5263
389.20 0.5268
389.30 0.5272
389.40 0.5277
389.50 0.5282
389.60 0.5287
389.70 0.5291
389.80 0.5296
389.90 0.5301
390.00 0.5306
390.10 0.531
390.20 0.5315
390.30 0.532
390.40 0.5324
390.50 0.5329
390.60 0.5334
390.70 0.5339
390.80 0.5343
390.90 0.5348
391.00 0.5353
391.10 0.5357
391.20 0.5362
391.30 0.5367
391.40 0.5372
391.50 0.5376
391.60 0.5381
391.70 0.5386
391.80 0.5391
391.90 0.5395
392.00 0.54
392.10 0.5405
392.20 0.5409
392.30 0.5414
392.40 0.5419
392.50 0.5423
392.60 0.5428
392.70 0.5433
392.80 0.5438
392.90 0.5443
393.00 0.5447
393.10 0.5452
393.20 0.5457
393.30 0.5461
393.40 0.5466
393.50 0.5471
393.60 0.5476
393.70 0.548
393.80 0.5485
393.90 0.549
394.00 0.5494
394.10 0.5499
394.20 0.5504
394.30 0.5509
394.40 0.5513
394.50 0.5518
394.60 0.5523
394.70 0.5528
394.80 0.5532
394.90 0.5537
395.00 0.5542
395.10 0.5546
395.20 0.5551
395.30 0.5556
395.40 0.5561
395.50 0.5565
395.60 0.557
395.70 0.5575
395.80 0.5579
395.90 0.5584
396.00 0.5589
396.10 0.5594
396.20 0.5598
396.30 0.5603
396.40 0.5608
396.50 0.5613
396.60 0.5617
396.70 0.5622
396.80 0.5627
396.90 0.5632
397.00 0.5636
397.10 0.5641
397.20 0.5646
397.30 0.565
397.40 0.5655
397.50 0.566
397.60 0.5665
397.70 0.5669
397.80 0.5674
397.90 0.5679
398.00 0.5683
398.10 0.5688
398.20 0.5693
398.30 0.5698
398.40 0.5702
398.50 0.5707
398.60 0.5712
398.70 0.5717
398.80 0.5721
398.90 0.5726
399.00 0.5731
399.10 0.5735
399.20 0.574
399.30 0.5745
399.40 0.575
399.50 0.5754
399.60 0.5759
399.70 0.5764
399.80 0.5768
399.90 0.5773
400.00 0.5778
400.10 0.5783
400.20 0.5787
400.30 0.5792
400.40 0.5797
400.50 0.5802
400.60 0.5806
400.70 0.5811
400.80 0.5816
400.90 0.582
401.00 0.5825
401.10 0.583
401.20 0.5834
401.30 0.5839
401.40 0.5844
401.50 0.5849
401.60 0.5854
401.70 0.5858
401.80 0.5863
401.90 0.5868
402.00 0.5872
402.10 0.5877
402.20 0.5882
402.30 0.5886
402.40 0.5891
402.50 0.5896
402.60 0.5901
402.70 0.5905
402.80 0.591
402.90 0.5915
403.00 0.592
403.10 0.5924
403.20 0.5929
403.30 0.5934
403.40 0.5938
403.50 0.5943
403.60 0.5948
403.70 0.5952
403.80 0.5957
403.90 0.5962
404.00 0.5967
404.10 0.5971
404.20 0.5976
404.30 0.5981
404.40 0.5985
404.50 0.599
404.60 0.5995
404.70 0.6
404.80 0.6004
404.90 0.6009
405.00 0.6014
405.10 0.6019
405.20 0.6023
405.30 0.6028
405.40 0.6033
405.50 0.6037
405.60 0.6042
405.70 0.6047
405.80 0.6051
405.90 0.6056
406.00 0.6061
406.10 0.6066
406.20 0.607
406.30 0.6075
406.40 0.608
406.50 0.6084
406.60 0.6089
406.70 0.6094
406.80 0.6098
406.90 0.6103
407.00 0.6108
407.10 0.6113
407.20 0.6117
407.30 0.6122
407.40 0.6127
407.50 0.6131
407.60 0.6136
407.70 0.6141
407.80 0.6146
407.90 0.615
408.00 0.6155
408.10 0.616
408.20 0.6164
408.30 0.6169
408.40 0.6174
408.50 0.6178
408.60 0.6183
408.70 0.6188
408.80 0.6192
408.90 0.6197
409.00 0.6202
409.10 0.6207
409.20 0.6211
409.30 0.6216
409.40 0.6221
409.50 0.6225
409.60 0.623
409.70 0.6235
409.80 0.6239
409.90 0.6244
410.00 0.6249
410.10 0.6253
410.20 0.6258
410.30 0.6263
410.40 0.6267
410.50 0.6272
410.60 0.6277
410.70 0.6282
410.80 0.6286
410.90 0.6291
411.00 0.6296
411.10 0.63
411.20 0.6305
411.30 0.631
411.40 0.6314
411.50 0.6319
411.60 0.6324
411.70 0.6328
411.80 0.6333
411.90 0.6338
412.00 0.6343
412.10 0.6347
412.20 0.6352
412.30 0.6357
412.40 0.6361
412.50 0.6366
412.60 0.6371
412.70 0.6375
412.80 0.638
412.90 0.6385
413.00 0.6389
413.10 0.6394
413.20 0.6399
413.30 0.6403
413.40 0.6408
413.50 0.6413
413.60 0.6417
413.70 0.6422
413.80 0.6427
413.90 0.6431
414.00 0.6436
414.10 0.6441
414.20 0.6445
414.30 0.645
414.40 0.6455
414.50 0.6459
414.60 0.6464
414.70 0.6469
414.80 0.6473
414.90 0.6478
415.00 0.6483
415.10 0.6487
415.20 0.6492
415.30 0.6497
415.40 0.6501
415.50 0.6506
415.60 0.6511
415.70 0.6515
415.80 0.652
415.90 0.6525
416.00 0.6529
416.10 0.6534
416.20 0.6539
416.30 0.6543
416.40 0.6548
416.50 0.6553
416.60 0.6557
416.70 0.6562
416.80 0.6567
416.90 0.6571
417.00 0.6576
417.10 0.6581
417.20 0.6585
417.30 0.659
417.40 0.6594
417.50 0.6599
417.60 0.6604
417.70 0.6608
417.80 0.6613
417.90 0.6618
418.00 0.6622
418.10 0.6627
418.20 0.6632
418.30 0.6636
418.40 0.6641
418.50 0.6646
418.60 0.665
418.70 0.6655
418.80 0.6659
418.90 0.6664
419.00 0.6669
419.10 0.6673
419.20 0.6678
419.30 0.6683
419.40 0.6687
419.50 0.6692
419.60 0.6696
419.70 0.6701
419.80 0.6706
419.90 0.671
420.00 0.6715
420.10 0.672
420.20 0.6724
420.30 0.6729
420.40 0.6734
420.50 0.6738
420.60 0.6743
420.70 0.6747
420.80 0.6752
420.90 0.6757
421.00 0.6761
421.10 0.6766
421.20 0.6771
421.30 0.6775
421.40 0.678
421.50 0.6784
421.60 0.6789
421.70 0.6794
421.80 0.6798
421.90 0.6803
422.00 0.6807
422.10 0.6812
422.20 0.6817
422.30 0.6821
422.40 0.6826
422.50 0.6831
422.60 0.6835
422.70 0.684
422.80 0.6844
422.90 0.6849
423.00 0.6854
423.10 0.6858
423.20 0.6863
423.30 0.6867
423.40 0.6872
423.50 0.6877
423.60 0.6881
423.70 0.6886
423.80 0.689
423.90 0.6895
424.00 0.69
424.10 0.6904
424.20 0.6909
424.30 0.6913
424.40 0.6918
424.50 0.6923
424.60 0.6927
424.70 0.6932
424.80 0.6936
424.90 0.6941
425.00 0.6945
425.10 0.695
425.20 0.6955
425.30 0.6959
425.40 0.6964
425.50 0.6969
425.60 0.6973
425.70 0.6978
425.80 0.6982
425.90 0.6987
426.00 0.6991
426.10 0.6996
426.20 0.7001
426.30 0.7005
426.40 0.701
426.50 0.7014
426.60 0.7019
426.70 0.7023
426.80 0.7028
426.90 0.7033
427.00 0.7037
427.10 0.7042
427.20 0.7046
427.30 0.7051
427.40 0.7055
427.50 0.706
427.60 0.7065
427.70 0.7069
427.80 0.7074
427.90 0.7078
428.00 0.7083
428.10 0.7087
428.20 0.7092
428.30 0.7096
428.40 0.7101
428.50 0.7106
428.60 0.711
428.70 0.7115
428.80 0.7119
428.90 0.7124
429.00 0.7128
429.10 0.7133
429.20 0.7137
429.30 0.7142
429.40 0.7147
429.50 0.7151
429.60 0.7156
429.70 0.716
429.80 0.7165
429.90 0.7169
430.00 0.7174
430.10 0.7178
430.20 0.7183
430.30 0.7188
430.40 0.7192
430.50 0.7197
430.60 0.7201
430.70 0.7206
430.80 0.721
430.90 0.7215
431.00 0.7219
431.10 0.7224
431.20 0.7228
431.30 0.7233
431.40 0.7237
431.50 0.7242
431.60 0.7246
431.70 0.7251
431.80 0.7255
431.90 0.726
432.00 0.7264
432.10 0.7269
432.20 0.7273
432.30 0.7278
432.40 0.7283
432.50 0.7287
432.60 0.7291
432.70 0.7296
432.80 0.7301
432.90 0.7305
433.00 0.731
433.10 0.7314
433.20 0.7319
433.30 0.7323
433.40 0.7328
433.50 0.7332
433.60 0.7336
433.70 0.7341
433.80 0.7345
433.90 0.7349
434.00 0.7354
434.10 0.7358
434.20 0.7363
434.30 0.7368
434.40 0.7372
434.50 0.7377
434.60 0.7381
434.70 0.7386
434.80 0.7391
434.90 0.7395
435.00 0.74
435.10 0.7404
435.20 0.7409
435.30 0.7413
435.40 0.7418
435.50 0.7422
435.60 0.7427
435.70 0.7431
435.80 0.7436
435.90 0.744
436.00 0.7444
436.10 0.7449
436.20 0.7453
436.30 0.7458
436.40 0.7462
436.50 0.7467
436.60 0.7471
436.70 0.7476
436.80 0.748
436.90 0.7485
437.00 0.7489
437.10 0.7494
437.20 0.7498
437.30 0.7503
437.40 0.7507
437.50 0.7512
437.60 0.7516
437.70 0.752
437.80 0.7525
437.90 0.7529
438.00 0.7534
438.10 0.7538
438.20 0.7543
438.30 0.7547
438.40 0.7552
438.50 0.7556
438.60 0.756
438.70 0.7565
438.80 0.7569
438.90 0.7574
439.00 0.7578
439.10 0.7583
439.20 0.7587
439.30 0.7592
439.40 0.7596
439.50 0.76
439.60 0.7605
439.70 0.7609
439.80 0.7614
439.90 0.7618
440.00 0.7623
440.10 0.7627
440.20 0.7632
440.30 0.7636
440.40 0.764
440.50 0.7645
440.60 0.7649
440.70 0.7654
440.80 0.7658
440.90 0.7662
441.00 0.7667
441.10 0.7671
441.20 0.7676
441.30 0.768
441.40 0.7684
441.50 0.7689
441.60 0.7693
441.70 0.7698
441.80 0.7702
441.90 0.7707
442.00 0.7711
442.10 0.7715
442.20 0.772
442.30 0.7724
442.40 0.7729
442.50 0.7733
442.60 0.7737
442.70 0.7742
442.80 0.7746
442.90 0.7751
443.00 0.7755
443.10 0.7759
443.20 0.7764
443.30 0.7768
443.40 0.7773
443.50 0.7777
443.60 0.7781
443.70 0.7786
443.80 0.779
443.90 0.7794
444.00 0.7799
444.10 0.7803
444.20 0.7808
444.30 0.7812
444.40 0.7816
444.50 0.7821
444.60 0.7825
444.70 0.783
444.80 0.7834
444.90 0.7838
445.00 0.7843
445.10 0.7847
445.20 0.7851
445.30 0.7856
445.40 0.786
445.50 0.7864
445.60 0.7869
445.70 0.7873
445.80 0.7878
445.90 0.7882
446.00 0.7886
446.10 0.7891
446.20 0.7895
446.30 0.7899
446.40 0.7904
446.50 0.7908
446.60 0.7912
446.70 0.7917
446.80 0.7921
446.90 0.7925
447.00 0.793
447.10 0.7934
447.20 0.7938
447.30 0.7943
447.40 0.7947
447.50 0.7951
447.60 0.7956
447.70 0.796
447.80 0.7964
447.90 0.7969
448.00 0.7973
448.10 0.7977
448.20 0.7982
448.30 0.7986
448.40 0.799
448.50 0.7995
448.60 0.7999
448.70 0.8003
448.80 0.8008
448.90 0.8012
449.00 0.8016
449.10 0.802
449.20 0.8025
449.30 0.8029
449.40 0.8033
449.50 0.8038
449.60 0.8042
449.70 0.8046
449.80 0.8051
449.90 0.8055
450.00 0.8059
450.10 0.8063
450.20 0.8068
450.30 0.8072
450.40 0.8076
450.50 0.8081
450.60 0.8085
450.70 0.8089
450.80 0.8094
450.90 0.8098
451.00 0.8102
451.10 0.8106
451.20 0.8111
451.30 0.8115
451.40 0.8119
451.50 0.8124
451.60 0.8128
451.70 0.8132
451.80 0.8136
451.90 0.8141
452.00 0.8145
452.10 0.8149
452.20 0.8153
452.30 0.8158
452.40 0.8162
452.50 0.8166
452.60 0.817
452.70 0.8175
452.80 0.8179
452.90 0.8183
453.00 0.8187
453.10 0.8192
453.20 0.8196
453.30 0.82
453.40 0.8204
453.50 0.8209
453.60 0.8213
453.70 0.8217
453.80 0.8221
453.90 0.8226
454.00 0.823
454.10 0.8234
454.20 0.8238
454.30 0.8243
454.40 0.8247
454.50 0.8251
454.60 0.8255
454.70 0.826
454.80 0.8264
454.90 0.8268
455.00 0.8272
455.10 0.8277
455.20 0.8281
455.30 0.8285
455.40 0.8289
455.50 0.8293
455.60 0.8298
455.70 0.8302
455.80 0.8306
455.90 0.831
456.00 0.8314
456.10 0.8319
456.20 0.8323
456.30 0.8327
456.40 0.8331
456.50 0.8335
456.60 0.834
456.70 0.8344
456.80 0.8348
456.90 0.8352
457.00 0.8356
457.10 0.8361
457.20 0.8365
457.30 0.8369
457.40 0.8373
457.50 0.8377
457.60 0.8382
457.70 0.8386
457.80 0.839
457.90 0.8394
458.00 0.8398
458.10 0.8403
458.20 0.8407
458.30 0.8411
458.40 0.8415
458.50 0.8419
458.60 0.8423
458.70 0.8428
458.80 0.8432
458.90 0.8436
459.00 0.844
459.10 0.8444
459.20 0.8448
459.30 0.8453
459.40 0.8457
459.50 0.8461
459.60 0.8465
459.70 0.8469
459.80 0.8473
459.90 0.8477
460.00 0.8482
460.10 0.8486
460.20 0.849
460.30 0.8494
460.40 0.8498
460.50 0.8502
460.60 0.8506
460.70 0.8511
460.80 0.8515
460.90 0.8519
461.00 0.8523
461.10 0.8527
461.20 0.8531
461.30 0.8535
461.40 0.854
461.50 0.8544
461.60 0.8548
461.70 0.8552
461.80 0.8556
461.90 0.856
462.00 0.8564
462.10 0.8568
462.20 0.8572
462.30 0.8577
462.40 0.8581
462.50 0.8585
462.60 0.8589
462.70 0.8593
462.80 0.8597
462.90 0.8601
463.00 0.8605
463.10 0.8609
463.20 0.8614
463.30 0.8618
463.40 0.8622
463.50 0.8626
463.60 0.863
463.70 0.8634
463.80 0.8638
463.90 0.8642
464.00 0.8646
464.10 0.865
464.20 0.8654
464.30 0.8658
464.40 0.8663
464.50 0.8667
464.60 0.8671
464.70 0.8675
464.80 0.8679
464.90 0.8683
465.00 0.8687
465.10 0.8691
465.20 0.8695
465.30 0.8699
465.40 0.8703
465.50 0.8707
465.60 0.8711
465.70 0.8715
465.80 0.8719
465.90 0.8723
466.00 0.8728
466.10 0.8732
466.20 0.8736
466.30 0.874
466.40 0.8744
466.50 0.8748
466.60 0.8752
466.70 0.8756
466.80 0.876
466.90 0.8764
467.00 0.8768
467.10 0.8772
467.20 0.8776
467.30 0.878
467.40 0.8784
467.50 0.8788
467.60 0.8792
467.70 0.8796
467.80 0.88
467.90 0.8804
468.00 0.8808
468.10 0.8812
468.20 0.8816
468.30 0.882
468.40 0.8824
468.50 0.8828
468.60 0.8832
468.70 0.8836
468.80 0.884
468.90 0.8844
469.00 0.8848
469.10 0.8852
469.20 0.8856
469.30 0.886
469.40 0.8864
469.50 0.8868
469.60 0.8872
469.70 0.8876
469.80 0.888
469.90 0.8884
470.00 0.8888
470.10 0.8892
470.20 0.8896
470.30 0.89
470.40 0.8904
470.50 0.8908
470.60 0.8912
470.70 0.8916
470.80 0.892
470.90 0.8924
471.00 0.8928
471.10 0.8932
471.20 0.8936
471.30 0.894
471.40 0.8944
471.50 0.8948
471.60 0.8952
471.70 0.8956
471.80 0.896
471.90 0.8963
472.00 0.8967
472.10 0.8971
472.20 0.8975
472.30 0.8979
472.40 0.8983
472.50 0.8987
472.60 0.8991
472.70 0.8995
472.80 0.8999
472.90 0.9003
473.00 0.9007
473.10 0.9011
473.20 0.9015
473.30 0.9019
473.40 0.9023
473.50 0.9026
473.60 0.903
473.70 0.9034
473.80 0.9038
473.90 0.9042
474.00 0.9046
474.10 0.905
474.20 0.9054
474.30 0.9058
474.40 0.9062
474.50 0.9066
474.60 0.9069
474.70 0.9073
474.80 0.9077
474.90 0.9081
475.00 0.9085
475.10 0.9089
475.20 0.9093
475.30 0.9097
475.40 0.9101
475.50 0.9104
475.60 0.9108
475.70 0.9112
475.80 0.9116
475.90 0.912
476.00 0.9124
476.10 0.9128
476.20 0.9132
476.30 0.9136
476.40 0.9139
476.50 0.9143
476.60 0.9147
476.70 0.9151
476.80 0.9155
476.90 0.9159
477.00 0.9163
477.10 0.9166
477.20 0.917
477.30 0.9174
477.40 0.9178
477.50 0.9182
477.60 0.9186
477.70 0.919
477.80 0.9193
477.90 0.9197
478.00 0.9201
478.10 0.9205
478.20 0.9209
478.30 0.9213
478.40 0.9216
478.50 0.922
478.60 0.9224
478.70 0.9228
478.80 0.9232
478.90 0.9236
479.00 0.9239
479.10 0.9243
479.20 0.9247
479.30 0.9251
479.40 0.9255
479.50 0.9258
479.60 0.9262
479.70 0.9266
479.80 0.927
479.90 0.9274
480.00 0.9277
480.10 0.9281
480.20 0.9285
480.30 0.9289
480.40 0.9293
480.50 0.9296
480.60 0.93
480.70 0.9304
480.80 0.9308
480.90 0.9312
481.00 0.9315
481.10 0.9319
481.20 0.9323
481.30 0.9327
481.40 0.9331
481.50 0.9334
481.60 0.9338
481.70 0.9342
481.80 0.9346
481.90 0.9349
482.00 0.9353
482.10 0.9357
482.20 0.9361
482.30 0.9364
482.40 0.9368
482.50 0.9372
482.60 0.9376
482.70 0.9379
482.80 0.9383
482.90 0.9387
483.00 0.9391
483.10 0.9394
483.20 0.9398
483.30 0.9402
483.40 0.9406
483.50 0.9409
483.60 0.9413
483.70 0.9417
483.80 0.9421
483.90 0.9424
484.00 0.9428
484.10 0.9432
484.20 0.9436
484.30 0.9439
484.40 0.9443
484.50 0.9447
484.60 0.945
484.70 0.9454
484.80 0.9458
484.90 0.9461
485.00 0.9465
485.10 0.9469
485.20 0.9472
485.30 0.9476
485.40 0.948
485.50 0.9483
485.60 0.9487
485.70 0.949
485.80 0.9493
485.90 0.9496
486.00 0.9499
486.10 0.95
486.20 0.9505
486.30 0.951
486.40 0.9515
486.50 0.9519
486.60 0.9524
486.70 0.9527
486.80 0.9531
486.90 0.9535
487.00 0.9539
487.10 0.9543
487.20 0.9546
487.30 0.955
487.40 0.9554
487.50 0.9557
487.60 0.9561
487.70 0.9565
487.80 0.9568
487.90 0.9572
488.00 0.9576
488.10 0.9579
488.20 0.9583
488.30 0.9587
488.40 0.959
488.50 0.9594
488.60 0.9598
488.70 0.9601
488.80 0.9605
488.90 0.9609
489.00 0.9612
489.10 0.9616
489.20 0.9619
489.30 0.9623
489.40 0.9627
489.50 0.963
489.60 0.9634
489.70 0.9638
489.80 0.9641
489.90 0.9645
490.00 0.9648
490.10 0.9652
490.20 0.9656
490.30 0.9659
490.40 0.9663
490.50 0.9666
490.60 0.967
490.70 0.9674
490.80 0.9677
490.90 0.9681
491.00 0.9684
491.10 0.9688
491.20 0.9692
491.30 0.9695
491.40 0.9699
491.50 0.9702
491.60 0.9706
491.70 0.971
491.80 0.9713
491.90 0.9717
492.00 0.972
492.10 0.9724
492.20 0.9727
492.30 0.9731
492.40 0.9735
492.50 0.9738
492.60 0.9742
492.70 0.9745
492.80 0.9749
492.90 0.9752
493.00 0.9756
493.10 0.976
493.20 0.9763
493.30 0.9767
493.40 0.977
493.50 0.9774
493.60 0.9777
493.70 0.9781
493.80 0.9784
493.90 0.9788
494.00 0.9791
494.10 0.9795
494.20 0.9798
494.30 0.9802
494.40 0.9806
494.50 0.9809
494.60 0.9813
494.70 0.9816
494.80 0.982
494.90 0.9823
495.00 0.9827
495.10 0.983
495.20 0.9834
495.30 0.9837
495.40 0.9841
495.50 0.9844
495.60 0.9848
495.70 0.9851
495.80 0.9855
495.90 0.9858
496.00 0.9862
496.10 0.9865
496.20 0.9869
496.30 0.9872
496.40 0.9876
496.50 0.9879
496.60 0.9883
496.70 0.9886
496.80 0.989
496.90 0.9893
497.00 0.9897
497.10 0.99
497.20 0.9904
497.30 0.9907
497.40 0.991
497.50 0.9914
497.60 0.9917
497.70 0.9921
497.80 0.9924
497.90 0.9928
498.00 0.9931
498.10 0.9935
498.20 0.9938
498.30 0.9942
498.40 0.9945
498.50 0.9949
498.60 0.9952
498.70 0.9955
498.80 0.9959
498.90 0.9962
499.00 0.9966
499.10 0.9969
499.20 0.9973
499.30 0.9976
499.40 0.998
499.50 0.9983
499.60 0.9986
499.70 0.999
499.80 0.9993
499.90 0.9997
500.00 1
500.10 1
500.20 1.001
500.30 1.001
500.40 1.001
500.50 1.002
500.60 1.002
500.70 1.002
500.80 1.003
500.90 1.003
501.00 1.003
501.10 1.004
501.20 1.004
501.30 1.004
501.40 1.005
501.50 1.005
501.60 1.005
501.70 1.006
501.80 1.006
501.90 1.006
502.00 1.007
502.10 1.007
502.20 1.007
502.30 1.008
502.40 1.008
502.50 1.008
502.60 1.009
502.70 1.009
502.80 1.009
502.90 1.01
503.00 1.01
503.10 1.011
503.20 1.011
503.30 1.011
503.40 1.012
503.50 1.012
503.60 1.012
503.70 1.013
503.80 1.013
503.90 1.013
504.00 1.014
504.10 1.014
504.20 1.014
504.30 1.015
504.40 1.015
504.50 1.015
504.60 1.016
504.70 1.016
504.80 1.016
504.90 1.017
505.00 1.017
505.10 1.017
505.20 1.017
505.30 1.018
505.40 1.018
505.50 1.018
505.60 1.019
505.70 1.019
505.80 1.019
505.90 1.02
506.00 1.02
506.10 1.02
506.20 1.021
506.30 1.021
506.40 1.021
506.50 1.022
506.60 1.022
506.70 1.022
506.80 1.023
506.90 1.023
507.00 1.023
507.10 1.024
507.20 1.024
507.30 1.024
507.40 1.025
507.50 1.025
507.60 1.025
507.70 1.026
507.80 1.026
507.90 1.026
508.00 1.027
508.10 1.027
508.20 1.027
508.30 1.028
508.40 1.028
508.50 1.028
508.60 1.029
508.70 1.029
508.80 1.029
508.90 1.03
509.00 1.03
509.10 1.03
509.20 1.031
509.30 1.031
509.40 1.031
509.50 1.032
509.60 1.032
509.70 1.032
509.80 1.033
509.90 1.033
510.00 1.033
510.10 1.033
510.20 1.034
510.30 1.034
510.40 1.034
510.50 1.035
510.60 1.035
510.70 1.035
510.80 1.036
510.90 1.036
511.00 1.036
511.10 1.037
511.20 1.037
511.30 1.037
511.40 1.038
511.50 1.038
511.60 1.038
511.70 1.039
511.80 1.039
511.90 1.039
512.00 1.04
512.10 1.04
512.20 1.04
512.30 1.041
512.40 1.041
512.50 1.041
512.60 1.041
512.70 1.042
512.80 1.042
512.90 1.042
513.00 1.043
513.10 1.043
513.20 1.043
513.30 1.044
513.40 1.044
513.50 1.044
513.60 1.045
513.70 1.045
513.80 1.045
513.90 1.046
514.00 1.046
514.10 1.046
514.20 1.046
514.30 1.047
514.40 1.047
514.50 1.047
514.60 1.048
514.70 1.048
514.80 1.048
514.90 1.049
515.00 1.049
515.10 1.049
515.20 1.05
515.30 1.05
515.40 1.05
515.50 1.051
515.60 1.051
515.70 1.051
515.80 1.051
515.90 1.052
516.00 1.052
516.10 1.052
516.20 1.053
516.30 1.053
516.40 1.053
516.50 1.054
516.60 1.054
516.70 1.054
516.80 1.055
516.90 1.055
517.00 1.055
517.10 1.055
517.20 1.056
517.30 1.056
517.40 1.056
517.50 1.057
517.60 1.057
517.70 1.057
517.80 1.058
517.90 1.058
518.00 1.058
518.10 1.059
518.20 1.059
518.30 1.059
518.40 1.059
518.50 1.06
518.60 1.06
518.70 1.06
518.80 1.061
518.90 1.061
519.00 1.061
519.10 1.062
519.20 1.062
519.30 1.062
519.40 1.062
519.50 1.063
519.60 1.063
519.70 1.063
519.80 1.064
519.90 1.064
520.00 1.064
520.10 1.065
520.20 1.065
520.30 1.065
520.40 1.065
520.50 1.066
520.60 1.066
520.70 1.066
520.80 1.067
520.90 1.067
521.00 1.067
521.10 1.068
521.20 1.068
521.30 1.068
521.40 1.068
521.50 1.069
521.60 1.069
521.70 1.069
521.80 1.07
521.90 1.07
522.00 1.07
522.10 1.071
522.20 1.071
522.30 1.071
522.40 1.071
522.50 1.072
522.60 1.072
522.70 1.072
522.80 1.073
522.90 1.073
523.00 1.073
523.10 1.074
523.20 1.074
523.30 1.074
523.40 1.074
523.50 1.075
523.60 1.075
523.70 1.075
523.80 1.076
523.90 1.076
524.00 1.076
524.10 1.076
524.20 1.077
524.30 1.077
524.40 1.077
524.50 1.078
524.60 1.078
524.70 1.078
524.80 1.078
524.90 1.079
525.00 1.079
525.10 1.079
525.20 1.08
525.30 1.08
525.40 1.08
525.50 1.081
525.60 1.081
525.70 1.081
525.80 1.081
525.90 1.082
526.00 1.082
526.10 1.082
526.20 1.083
526.30 1.083
526.40 1.083
526.50 1.083
526.60 1.084
526.70 1.084
526.80 1.084
526.90 1.085
527.00 1.085
527.10 1.085
527.20 1.085
527.30 1.086
527.40 1.086
527.50 1.086
527.60 1.087
527.70 1.087
527.80 1.087
527.90 1.087
528.00 1.088
528.10 1.088
528.20 1.088
528.30 1.089
528.40 1.089
528.50 1.089
528.60 1.089
528.70 1.09
528.80 1.09
528.90 1.09
529.00 1.091
529.10 1.091
529.20 1.091
529.30 1.091
529.40 1.092
529.50 1.092
529.60 1.092
529.70 1.092
529.80 1.093
529.90 1.093
530.00 1.093
530.10 1.094
530.20 1.094
530.30 1.094
530.40 1.094
530.50 1.095
530.60 1.095
530.70 1.095
530.80 1.096
530.90 1.096
531.00 1.096
531.10 1.096
531.20 1.097
531.30 1.097
531.40 1.097
531.50 1.098
531.60 1.098
531.70 1.098
531.80 1.098
531.90 1.099
532.00 1.099
532.10 1.099
532.20 1.099
532.30 1.1
532.40 1.1
532.50 1.1
532.60 1.101
532.70 1.101
532.80 1.101
532.90 1.101
533.00 1.102
533.10 1.102
533.20 1.102
533.30 1.102
533.40 1.103
533.50 1.103
533.60 1.103
533.70 1.104
533.80 1.104
533.90 1.104
534.00 1.104
534.10 1.105
534.20 1.105
534.30 1.105
534.40 1.105
534.50 1.106
534.60 1.106
534.70 1.106
534.80 1.107
534.90 1.107
535.00 1.107
535.10 1.107
535.20 1.108
535.30 1.108
535.40 1.108
535.50 1.108
535.60 1.109
535.70 1.109
535.80 1.109
535.90 1.11
536.00 1.11
536.10 1.11
536.20 1.11
536.30 1.111
536.40 1.111
536.50 1.111
536.60 1.111
536.70 1.112
536.80 1.112
536.90 1.112
537.00 1.112
537.10 1.113
537.20 1.113
537.30 1.113
537.40 1.113
537.50 1.114
537.60 1.114
537.70 1.114
537.80 1.115
537.90 1.115
538.00 1.115
538.10 1.115
538.20 1.116
538.30 1.116
538.40 1.116
538.50 1.116
538.60 1.117
538.70 1.117
538.80 1.117
538.90 1.117
539.00 1.118
539.10 1.118
539.20 1.118
539.30 1.118
539.40 1.119
539.50 1.119
539.60 1.119
539.70 1.12
539.80 1.12
539.90 1.12
540.00 1.12
540.10 1.121
540.20 1.121
540.30 1.121
540.40 1.121
540.50 1.122
540.60 1.122
540.70 1.122
540.80 1.122
540.90 1.123
541.00 1.123
541.10 1.123
541.20 1.123
541.30 1.124
541.40 1.124
541.50 1.124
541.60 1.124
541.70 1.125
541.80 1.125
541.90 1.125
542.00 1.125
542.10 1.126
542.20 1.126
542.30 1.126
542.40 1.126
542.50 1.127
542.60 1.127
542.70 1.127
542.80 1.128
542.90 1.128
543.00 1.128
543.10 1.128
543.20 1.129
543.30 1.129
543.40 1.129
543.50 1.129
543.60 1.13
543.70 1.13
543.80 1.13
543.90 1.13
544.00 1.13
544.10 1.131
544.20 1.131
544.30 1.131
544.40 1.131
544.50 1.132
544.60 1.132
544.70 1.132
544.80 1.133
544.90 1.133
545.00 1.133
545.10 1.133
545.20 1.134
545.30 1.134
545.40 1.134
545.50 1.134
545.60 1.134
545.70 1.135
545.80 1.135
545.90 1.135
546.00 1.135
546.10 1.136
546.20 1.136
546.30 1.136
546.40 1.136
546.50 1.137
546.60 1.137
546.70 1.137
546.80 1.137
546.90 1.138
547.00 1.138
547.10 1.138
547.20 1.138
547.30 1.139
547.40 1.139
547.50 1.139
547.60 1.139
547.70 1.14
547.80 1.14
547.90 1.14
548.00 1.14
548.10 1.141
548.20 1.141
548.30 1.141
548.40 1.141
548.50 1.142
548.60 1.142
548.70 1.142
548.80 1.142
548.90 1.143
549.00 1.143
549.10 1.143
549.20 1.143
549.30 1.144
549.40 1.144
549.50 1.144
549.60 1.144
549.70 1.144
549.80 1.145
549.90 1.145
550.00 1.145
550.10 1.145
550.20 1.146
550.30 1.146
550.40 1.146
550.50 1.146
550.60 1.147
550.70 1.147
550.80 1.147
550.90 1.147
551.00 1.148
551.10 1.148
551.20 1.148
551.30 1.148
551.40 1.148
551.50 1.149
551.60 1.149
551.70 1.149
551.80 1.149
551.90 1.15
552.00 1.15
552.10 1.15
552.20 1.15
552.30 1.151
552.40 1.151
552.50 1.151
552.60 1.151
552.70 1.152
552.80 1.152
552.90 1.152
553.00 1.152
553.10 1.152
553.20 1.153
553.30 1.153
553.40 1.153
553.50 1.153
553.60 1.154
553.70 1.154
553.80 1.154
553.90 1.154
554.00 1.155
554.10 1.155
554.20 1.155
554.30 1.155
554.40 1.155
554.50 1.156
554.60 1.156
554.70 1.156
554.80 1.156
554.90 1.157
555.00 1.157
555.10 1.157
555.20 1.157
555.30 1.158
555.40 1.158
555.50 1.158
555.60 1.158
555.70 1.158
555.80 1.159
555.90 1.159
556.00 1.159
556.10 1.159
556.20 1.16
556.30 1.16
556.40 1.16
556.50 1.16
556.60 1.16
556.70 1.161
556.80 1.161
556.90 1.161
557.00 1.161
557.10 1.162
557.20 1.162
557.30 1.162
557.40 1.162
557.50 1.162
557.60 1.163
557.70 1.163
557.80 1.163
557.90 1.163
558.00 1.164
558.10 1.164
558.20 1.164
558.30 1.164
558.40 1.164
558.50 1.165
558.60 1.165
558.70 1.165
558.80 1.165
558.90 1.166
559.00 1.166
559.10 1.166
559.20 1.166
559.30 1.166
559.40 1.167
559.50 1.167
559.60 1.167
559.70 1.167
559.80 1.168
559.90 1.168
560.00 1.168
560.10 1.168
560.20 1.168
560.30 1.169
560.40 1.169
560.50 1.169
560.60 1.169
560.70 1.17
560.80 1.17
560.90 1.17
561.00 1.17
561.10 1.17
561.20 1.171
561.30 1.171
561.40 1.171
561.50 1.171
561.60 1.171
561.70 1.172
561.80 1.172
561.90 1.172
562.00 1.172
562.10 1.173
562.20 1.173
562.30 1.173
562.40 1.173
562.50 1.173
562.60 1.174
562.70 1.174
562.80 1.174
562.90 1.174
563.00 1.174
563.10 1.175
563.20 1.175
563.30 1.175
563.40 1.175
563.50 1.175
563.60 1.176
563.70 1.176
563.80 1.176
563.90 1.176
564.00 1.177
564.10 1.177
564.20 1.177
564.30 1.177
564.40 1.177
564.50 1.178
564.60 1.178
564.70 1.178
564.80 1.178
564.90 1.178
565.00 1.179
565.10 1.179
565.20 1.179
565.30 1.179
565.40 1.179
565.50 1.18
565.60 1.18
565.70 1.18
565.80 1.18
565.90 1.181
566.00 1.181
566.10 1.181
566.20 1.181
566.30 1.181
566.40 1.182
566.50 1.182
566.60 1.182
566.70 1.182
566.80 1.182
566.90 1.183
567.00 1.183
567.10 1.183
567.20 1.183
567.30 1.183
567.40 1.184
567.50 1.184
567.60 1.184
567.70 1.184
567.80 1.184
567.90 1.185
568.00 1.185
568.10 1.185
568.20 1.185
568.30 1.185
568.40 1.186
568.50 1.186
568.60 1.186
568.70 1.186
568.80 1.186
568.90 1.187
569.00 1.187
569.10 1.187
569.20 1.187
569.30 1.187
569.40 1.188
569.50 1.188
569.60 1.188
569.70 1.188
569.80 1.188
569.90 1.189
570.00 1.189
570.10 1.189
570.20 1.189
570.30 1.189
570.40 1.19
570.50 1.19
570.60 1.19
570.70 1.19
570.80 1.19
570.90 1.191
571.00 1.191
571.10 1.191
571.20 1.191
571.30 1.191
571.40 1.191
571.50 1.192
571.60 1.192
571.70 1.192
571.80 1.192
571.90 1.192
572.00 1.193
572.10 1.193
572.20 1.193
572.30 1.193
572.40 1.193
572.50 1.194
572.60 1.194
572.70 1.194
572.80 1.194
572.90 1.194
573.00 1.195
573.10 1.195
573.20 1.195
573.30 1.195
573.40 1.195
573.50 1.196
573.60 1.196
573.70 1.196
573.80 1.196
573.90 1.196
574.00 1.196
574.10 1.197
574.20 1.197
574.30 1.197
574.40 1.197
574.50 1.197
574.60 1.198
574.70 1.198
574.80 1.198
574.90 1.198
575.00 1.198
575.10 1.199
575.20 1.199
575.30 1.199
575.40 1.199
575.50 1.199
575.60 1.2
575.70 1.2
575.80 1.2
575.90 1.2
576.00 1.2
576.10 1.2
576.20 1.201
576.30 1.201
576.40 1.201
576.50 1.201
576.60 1.201
576.70 1.202
576.80 1.202
576.90 1.202
577.00 1.202
577.10 1.202
577.20 1.202
577.30 1.203
577.40 1.203
577.50 1.203
577.60 1.203
577.70 1.203
577.80 1.204
577.90 1.204
578.00 1.204
578.10 1.204
578.20 1.204
578.30 1.205
578.40 1.205
578.50 1.205
578.60 1.205
578.70 1.205
578.80 1.205
578.90 1.206
579.00 1.206
579.10 1.206
579.20 1.206
579.30 1.206
579.40 1.206
579.50 1.207
579.60 1.207
579.70 1.207
579.80 1.207
579.90 1.207
580.00 1.208
580.10 1.208
580.20 1.208
580.30 1.208
580.40 1.208
580.50 1.208
580.60 1.209
580.70 1.209
580.80 1.209
580.90 1.209
581.00 1.209
581.10 1.21
581.20 1.21
581.30 1.21
581.40 1.21
581.50 1.21
581.60 1.21
581.70 1.211
581.80 1.211
581.90 1.211
582.00 1.211
582.10 1.211
582.20 1.211
582.30 1.212
582.40 1.212
582.50 1.212
582.60 1.212
582.70 1.212
582.80 1.212
582.90 1.213
583.00 1.213
583.10 1.213
583.20 1.213
583.30 1.213
583.40 1.213
583.50 1.214
583.60 1.214
583.70 1.214
583.80 1.214
583.90 1.214
584.00 1.215
584.10 1.215
584.20 1.215
584.30 1.215
584.40 1.215
584.50 1.215
584.60 1.216
584.70 1.216
584.80 1.216
584.90 1.216
585.00 1.216
585.10 1.216
585.20 1.217
585.30 1.217
585.40 1.217
585.50 1.217
585.60 1.217
585.70 1.217
585.80 1.218
585.90 1.218
586.00 1.218
586.10 1.218
586.20 1.218
586.30 1.218
586.40 1.219
586.50 1.219
586.60 1.219
586.70 1.219
586.80 1.219
586.90 1.219
587.00 1.22
587.10 1.22
587.20 1.22
587.30 1.22
587.40 1.22
587.50 1.22
587.60 1.22
587.70 1.221
587.80 1.221
587.90 1.221
588.00 1.221
588.10 1.221
588.20 1.221
588.30 1.222
588.40 1.222
588.50 1.222
588.60 1.222
588.70 1.222
588.80 1.222
588.90 1.223
589.00 1.223
589.10 1.223
589.20 1.223
589.30 1.223
589.40 1.223
589.50 1.224
589.60 1.224
589.70 1.224
589.80 1.224
589.90 1.224
590.00 1.224
590.10 1.225
590.20 1.225
590.30 1.225
590.40 1.225
590.50 1.225
590.60 1.225
590.70 1.225
590.80 1.226
590.90 1.226
591.00 1.226
591.10 1.226
591.20 1.226
591.30 1.226
591.40 1.227
591.50 1.227
591.60 1.227
591.70 1.227
591.80 1.227
591.90 1.227
592.00 1.227
592.10 1.228
592.20 1.228
592.30 1.228
592.40 1.228
592.50 1.228
592.60 1.228
592.70 1.229
592.80 1.229
592.90 1.229
593.00 1.229
593.10 1.229
593.20 1.229
593.30 1.23
593.40 1.23
593.50 1.23
593.60 1.23
593.70 1.23
593.80 1.23
593.90 1.23
594.00 1.231
594.10 1.231
594.20 1.231
594.30 1.231
594.40 1.231
594.50 1.231
594.60 1.231
594.70 1.232
594.80 1.232
594.90 1.232
595.00 1.232
595.10 1.232
595.20 1.232
595.30 1.232
595.40 1.233
595.50 1.233
595.60 1.233
595.70 1.233
595.80 1.233
595.90 1.233
596.00 1.233
596.10 1.234
596.20 1.234
596.30 1.234
596.40 1.234
596.50 1.234
596.60 1.234
596.70 1.235
596.80 1.235
596.90 1.235
597.00 1.235
597.10 1.235
597.20 1.235
597.30 1.235
597.40 1.236
597.50 1.236
597.60 1.236
597.70 1.236
597.80 1.236
597.90 1.236
598.00 1.236
598.10 1.237
598.20 1.237
598.30 1.237
598.40 1.237
598.50 1.237
598.60 1.237
598.70 1.237
598.80 1.238
598.90 1.238
599.00 1.238
599.10 1.238
599.20 1.238
599.30 1.238
599.40 1.238
599.50 1.239
599.60 1.239
599.70 1.239
599.80 1.239
599.90 1.239
600.00 1.239
600.10 1.239
600.20 1.24
600.30 1.24
600.40 1.24
600.50 1.24
600.60 1.24
600.70 1.24
600.80 1.24
600.90 1.241
601.00 1.241
601.10 1.241
601.20 1.241
601.30 1.241
601.40 1.241
601.50 1.241
601.60 1.241
601.70 1.242
601.80 1.242
601.90 1.242
602.00 1.242
602.10 1.242
602.20 1.242
602.30 1.242
602.40 1.243
602.50 1.243
602.60 1.243
602.70 1.243
602.80 1.243
602.90 1.243
603.00 1.243
603.10 1.244
603.20 1.244
603.30 1.244
603.40 1.244
603.50 1.244
603.60 1.244
603.70 1.244
603.80 1.244
603.90 1.245
604.00 1.245
604.10 1.245
604.20 1.245
604.30 1.245
604.40 1.245
604.50 1.245
604.60 1.245
604.70 1.246
604.80 1.246
604.90 1.246
605.00 1.246
605.10 1.246
605.20 1.246
605.30 1.246
605.40 1.247
605.50 1.247
605.60 1.247
605.70 1.247
605.80 1.247
605.90 1.247
606.00 1.247
606.10 1.247
606.20 1.248
606.30 1.248
606.40 1.248
606.50 1.248
606.60 1.248
606.70 1.248
606.80 1.248
606.90 1.248
607.00 1.249
607.10 1.249
607.20 1.249
607.30 1.249
607.40 1.249
607.50 1.249
607.60 1.249
607.70 1.249
607.80 1.25
607.90 1.25
608.00 1.25
608.10 1.25
608.20 1.25
608.30 1.25
608.40 1.25
608.50 1.251
608.60 1.251
608.70 1.251
608.80 1.251
608.90 1.251
609.00 1.251
609.10 1.251
609.20 1.251
609.30 1.251
609.40 1.252
609.50 1.252
609.60 1.252
609.70 1.252
609.80 1.252
609.90 1.252
610.00 1.252
610.10 1.252
610.20 1.253
610.30 1.253
610.40 1.253
610.50 1.253
610.60 1.253
610.70 1.253
610.80 1.253
610.90 1.253
611.00 1.254
611.10 1.254
611.20 1.254
611.30 1.254
611.40 1.254
611.50 1.254
611.60 1.254
611.70 1.254
611.80 1.254
611.90 1.255
612.00 1.255
612.10 1.255
612.20 1.255
612.30 1.255
612.40 1.255
612.50 1.255
612.60 1.255
612.70 1.256
612.80 1.256
612.90 1.256
613.00 1.256
613.10 1.256
613.20 1.256
613.30 1.256
613.40 1.256
613.50 1.256
613.60 1.257
613.70 1.257
613.80 1.257
613.90 1.257
614.00 1.257
614.10 1.257
614.20 1.257
614.30 1.257
614.40 1.257
614.50 1.258
614.60 1.258
614.70 1.258
614.80 1.258
614.90 1.258
615.00 1.258
615.10 1.258
615.20 1.258
615.30 1.259
615.40 1.259
615.50 1.259
615.60 1.259
615.70 1.259
615.80 1.259
615.90 1.259
616.00 1.259
616.10 1.259
616.20 1.259
616.30 1.26
616.40 1.26
616.50 1.26
616.60 1.26
616.70 1.26
616.80 1.26
616.90 1.26
617.00 1.26
617.10 1.26
617.20 1.261
617.30 1.261
617.40 1.261
617.50 1.261
617.60 1.261
617.70 1.261
617.80 1.261
617.90 1.261
618.00 1.261
618.10 1.262
618.20 1.262
618.30 1.262
618.40 1.262
618.50 1.262
618.60 1.262
618.70 1.262
618.80 1.262
618.90 1.262
619.00 1.263
619.10 1.263
619.20 1.263
619.30 1.263
619.40 1.263
619.50 1.263
619.60 1.263
619.70 1.263
619.80 1.263
619.90 1.263
620.00 1.264
620.10 1.264
620.20 1.264
620.30 1.264
620.40 1.264
620.50 1.264
620.60 1.264
620.70 1.264
620.80 1.264
620.90 1.265
621.00 1.265
621.10 1.265
621.20 1.265
621.30 1.265
621.40 1.265
621.50 1.265
621.60 1.265
621.70 1.265
621.80 1.265
621.90 1.266
622.00 1.266
622.10 1.266
622.20 1.266
622.30 1.266
622.40 1.266
622.50 1.266
622.60 1.266
622.70 1.266
622.80 1.266
622.90 1.267
623.00 1.267
623.10 1.267
623.20 1.267
623.30 1.267
623.40 1.267
623.50 1.267
623.60 1.267
623.70 1.267
623.80 1.267
623.90 1.267
624.00 1.268
624.10 1.268
624.20 1.268
624.30 1.268
624.40 1.268
624.50 1.268
624.60 1.268
624.70 1.268
624.80 1.268
624.90 1.268
625.00 1.269
625.10 1.269
625.20 1.269
625.30 1.269
625.40 1.269
625.50 1.269
625.60 1.269
625.70 1.269
625.80 1.269
625.90 1.269
626.00 1.27
626.10 1.27
626.20 1.27
626.30 1.27
626.40 1.27
626.50 1.27
626.60 1.27
626.70 1.27
626.80 1.27
626.90 1.27
627.00 1.27
627.10 1.271
627.20 1.271
627.30 1.271
627.40 1.271
627.50 1.271
627.60 1.271
627.70 1.271
627.80 1.271
627.90 1.271
628.00 1.271
628.10 1.271
628.20 1.272
628.30 1.272
628.40 1.272
628.50 1.272
628.60 1.272
628.70 1.272
628.80 1.272
628.90 1.272
629.00 1.272
629.10 1.272
629.20 1.272
629.30 1.273
629.40 1.273
629.50 1.273
629.60 1.273
629.70 1.273
629.80 1.273
629.90 1.273
630.00 1.273
630.10 1.273
630.20 1.273
630.30 1.273
630.40 1.274
630.50 1.274
630.60 1.274
630.70 1.274
630.80 1.274
630.90 1.274
631.00 1.274
631.10 1.274
631.20 1.274
631.30 1.274
631.40 1.274
631.50 1.274
631.60 1.274
631.70 1.275
631.80 1.275
631.90 1.275
632.00 1.275
632.10 1.275
632.20 1.275
632.30 1.275
632.40 1.275
632.50 1.275
632.60 1.275
632.70 1.275
632.80 1.276
632.90 1.276
633.00 1.276
633.10 1.276
633.20 1.276
633.30 1.276
633.40 1.276
633.50 1.276
633.60 1.276
633.70 1.276
633.80 1.276
633.90 1.276
634.00 1.276
634.10 1.277
634.20 1.277
634.30 1.277
634.40 1.277
634.50 1.277
634.60 1.277
634.70 1.277
634.80 1.277
634.90 1.277
635.00 1.277
635.10 1.277
635.20 1.277
635.30 1.278
635.40 1.278
635.50 1.278
635.60 1.278
635.70 1.278
635.80 1.278
635.90 1.278
636.00 1.278
636.10 1.278
636.20 1.278
636.30 1.278
636.40 1.278
636.50 1.278
636.60 1.279
636.70 1.279
636.80 1.279
636.90 1.279
637.00 1.279
637.10 1.279
637.20 1.279
637.30 1.279
637.40 1.279
637.50 1.279
637.60 1.279
637.70 1.279
637.80 1.279
637.90 1.28
638.00 1.28
638.10 1.28
638.20 1.28
638.30 1.28
638.40 1.28
638.50 1.28
638.60 1.28
638.70 1.28
638.80 1.28
638.90 1.28
639.00 1.28
639.10 1.28
639.20 1.28
639.30 1.281
639.40 1.281
639.50 1.281
639.60 1.281
639.70 1.281
639.80 1.281
639.90 1.281
640.00 1.281
640.10 1.281
640.20 1.281
640.30 1.281
640.40 1.281
640.50 1.281
640.60 1.281
640.70 1.281
640.80 1.282
640.90 1.282
641.00 1.282
641.10 1.282
641.20 1.282
641.30 1.282
641.40 1.282
641.50 1.282
641.60 1.282
641.70 1.282
641.80 1.282
641.90 1.282
642.00 1.282
642.10 1.283
642.20 1.283
642.30 1.283
642.40 1.283
642.50 1.283
642.60 1.283
642.70 1.283
642.80 1.283
642.90 1.283
643.00 1.283
643.10 1.283
643.20 1.283
643.30 1.283
643.40 1.283
643.50 1.283
643.60 1.284
643.70 1.284
643.80 1.284
643.90 1.284
644.00 1.284
644.10 1.284
644.20 1.284
644.30 1.284
644.40 1.284
644.50 1.284
644.60 1.284
644.70 1.284
644.80 1.284
644.90 1.284
645.00 1.284
645.10 1.284
645.20 1.285
645.30 1.285
645.40 1.285
645.50 1.285
645.60 1.285
645.70 1.285
645.80 1.285
645.90 1.285
646.00 1.285
646.10 1.285
646.20 1.285
646.30 1.285
646.40 1.285
646.50 1.285
646.60 1.285
646.70 1.285
646.80 1.285
646.90 1.286
647.00 1.286
647.10 1.286
647.20 1.286
647.30 1.286
647.40 1.286
647.50 1.286
647.60 1.286
647.70 1.286
647.80 1.286
647.90 1.286
648.00 1.286
648.10 1.286
648.20 1.286
648.30 1.286
648.40 1.286
648.50 1.286
648.60 1.287
648.70 1.287
648.80 1.287
648.90 1.287
649.00 1.287
649.10 1.287
649.20 1.287
649.30 1.287
649.40 1.287
649.50 1.287
649.60 1.287
649.70 1.287
649.80 1.287
649.90 1.287
650.00 1.287
650.10 1.287
650.20 1.287
650.30 1.287
650.40 1.288
650.50 1.288
650.60 1.288
650.70 1.288
650.80 1.288
650.90 1.288
651.00 1.288
651.10 1.288
651.20 1.288
651.30 1.288
651.40 1.288
651.50 1.288
651.60 1.288
651.70 1.288
651.80 1.288
651.90 1.288
652.00 1.288
652.10 1.288
652.20 1.288
652.30 1.289
652.40 1.289
652.50 1.289
652.60 1.289
652.70 1.289
652.80 1.289
652.90 1.289
653.00 1.289
653.10 1.289
653.20 1.289
653.30 1.289
653.40 1.289
653.50 1.289
653.60 1.289
653.70 1.289
653.80 1.289
653.90 1.289
654.00 1.289
654.10 1.289
654.20 1.29
654.30 1.29
654.40 1.29
654.50 1.29
654.60 1.29
654.70 1.29
654.80 1.29
654.90 1.29
655.00 1.29
655.10 1.29
655.20 1.29
655.30 1.29
655.40 1.29
655.50 1.29
655.60 1.29
655.70 1.29
655.80 1.29
655.90 1.289
656.00 1.289
656.10 1.289
656.20 1.288
656.30 1.287
656.40 1.288
656.50 1.289
656.60 1.289
656.70 1.29
656.80 1.29
656.90 1.29
657.00 1.291
657.10 1.291
657.20 1.291
657.30 1.291
657.40 1.291
657.50 1.291
657.60 1.291
657.70 1.291
657.80 1.291
657.90 1.291
658.00 1.291
658.10 1.291
658.20 1.291
658.30 1.291
658.40 1.291
658.50 1.291
658.60 1.291
658.70 1.292
658.80 1.292
658.90 1.292
659.00 1.292
659.10 1.292
659.20 1.292
659.30 1.292
659.40 1.292
659.50 1.292
659.60 1.292
659.70 1.292
659.80 1.292
659.90 1.292
660.00 1.292
660.10 1.292
660.20 1.292
660.30 1.292
660.40 1.292
660.50 1.292
660.60 1.292
660.70 1.292
660.80 1.292
660.90 1.292
661.00 1.292
661.10 1.293
661.20 1.293
661.30 1.293
661.40 1.293
661.50 1.293
661.60 1.293
661.70 1.293
661.80 1.293
661.90 1.293
662.00 1.293
662.10 1.293
662.20 1.293
662.30 1.293
662.40 1.293
662.50 1.293
662.60 1.293
662.70 1.293
662.80 1.293
662.90 1.293
663.00 1.293
663.10 1.293
663.20 1.293
663.30 1.293
663.40 1.293
663.50 1.293
663.60 1.294
663.70 1.294
663.80 1.294
663.90 1.294
664.00 1.294
664.10 1.294
664.20 1.294
664.30 1.294
664.40 1.294
664.50 1.294
664.60 1.294
664.70 1.294
664.80 1.294
664.90 1.294
665.00 1.294
665.10 1.294
665.20 1.294
665.30 1.294
665.40 1.294
665.50 1.294
665.60 1.294
665.70 1.294
665.80 1.294
665.90 1.294
666.00 1.294
666.10 1.294
666.20 1.294
666.30 1.294
666.40 1.294
666.50 1.294
666.60 1.294
666.70 1.295
666.80 1.295
666.90 1.295
667.00 1.295
667.10 1.295
667.20 1.295
667.30 1.295
667.40 1.295
667.50 1.295
667.60 1.295
667.70 1.295
667.80 1.295
667.90 1.295
668.00 1.295
668.10 1.295
668.20 1.295
668.30 1.295
668.40 1.295
668.50 1.295
668.60 1.295
668.70 1.295
668.80 1.295
668.90 1.295
669.00 1.295
669.10 1.295
669.20 1.295
669.30 1.295
669.40 1.295
669.50 1.295
669.60 1.295
669.70 1.295
669.80 1.295
669.90 1.295
670.00 1.295
670.10 1.296
670.20 1.296
670.30 1.296
670.40 1.296
670.50 1.296
670.60 1.296
670.70 1.296
670.80 1.296
670.90 1.296
671.00 1.296
671.10 1.296
671.20 1.296
671.30 1.296
671.40 1.296
671.50 1.296
671.60 1.296
671.70 1.296
671.80 1.296
671.90 1.296
672.00 1.296
672.10 1.296
672.20 1.296
672.30 1.296
672.40 1.296
672.50 1.296
672.60 1.296
672.70 1.296
672.80 1.296
672.90 1.296
673.00 1.296
673.10 1.296
673.20 1.296
673.30 1.296
673.40 1.296
673.50 1.296
673.60 1.296
673.70 1.296
673.80 1.296
673.90 1.296
674.00 1.296
674.10 1.296
674.20 1.296
674.30 1.296
674.40 1.297
674.50 1.297
674.60 1.297
674.70 1.297
674.80 1.297
674.90 1.297
675.00 1.297
675.10 1.297
675.20 1.297
675.30 1.297
675.40 1.297
675.50 1.297
675.60 1.297
675.70 1.297
675.80 1.297
675.90 1.297
676.00 1.297
676.10 1.297
676.20 1.297
676.30 1.297
676.40 1.297
676.50 1.297
676.60 1.297
676.70 1.297
676.80 1.297
676.90 1.297
677.00 1.297
677.10 1.297
677.20 1.297
677.30 1.297
677.40 1.297
677.50 1.297
677.60 1.297
677.70 1.297
677.80 1.297
677.90 1.297
678.00 1.297
678.10 1.297
678.20 1.297
678.30 1.297
678.40 1.297
678.50 1.297
678.60 1.297
678.70 1.297
678.80 1.297
678.90 1.297
679.00 1.297
679.10 1.297
679.20 1.297
679.30 1.297
679.40 1.297
679.50 1.297
679.60 1.297
679.70 1.297
679.80 1.297
679.90 1.297
680.00 1.297
680.10 1.297
680.20 1.297
680.30 1.297
680.40 1.297
680.50 1.297
680.60 1.298
680.70 1.298
680.80 1.298
680.90 1.298
681.00 1.298
681.10 1.298
681.20 1.298
681.30 1.298
681.40 1.298
681.50 1.298
681.60 1.298
681.70 1.298
681.80 1.298
681.90 1.298
682.00 1.298
682.10 1.298
682.20 1.298
682.30 1.298
682.40 1.298
682.50 1.298
682.60 1.298
682.70 1.298
682.80 1.298
682.90 1.298
683.00 1.298
683.10 1.298
683.20 1.298
683.30 1.298
683.40 1.298
683.50 1.298
683.60 1.298
683.70 1.298
683.80 1.298
683.90 1.298
684.00 1.298
684.10 1.298
684.20 1.298
684.30 1.298
684.40 1.298
684.50 1.298
684.60 1.298
684.70 1.298
684.80 1.298
684.90 1.298
685.00 1.298
685.10 1.298
685.20 1.298
685.30 1.298
685.40 1.298
685.50 1.298
685.60 1.298
685.70 1.298
685.80 1.298
685.90 1.298
686.00 1.298
686.10 1.298
686.20 1.298
686.30 1.298
686.40 1.298
686.50 1.298
686.60 1.298
686.70 1.298
686.80 1.298
686.90 1.298
687.00 1.298
687.10 1.298
687.20 1.298
687.30 1.298
687.40 1.298
687.50 1.298
687.60 1.298
687.70 1.298
687.80 1.298
687.90 1.298
688.00 1.298
688.10 1.298
688.20 1.298
688.30 1.298
688.40 1.298
688.50 1.298
688.60 1.298
688.70 1.298
688.80 1.298
688.90 1.298
689.00 1.298
689.10 1.298
689.20 1.298
689.30 1.298
689.40 1.298
689.50 1.298
689.60 1.298
689.70 1.298
689.80 1.298
689.90 1.298
690.00 1.298
690.10 1.298
690.20 1.298
690.30 1.298
690.40 1.298
690.50 1.298
690.60 1.298
690.70 1.298
690.80 1.298
690.90 1.298
691.00 1.298
691.10 1.298
691.20 1.298
691.30 1.298
691.40 1.298
691.50 1.298
691.60 1.298
691.70 1.298
691.80 1.298
691.90 1.298
692.00 1.298
692.10 1.298
692.20 1.298
692.30 1.298
692.40 1.298
692.50 1.298
692.60 1.298
692.70 1.298
692.80 1.298
692.90 1.298
693.00 1.298
693.10 1.298
693.20 1.298
693.30 1.298
693.40 1.298
693.50 1.298
693.60 1.298
693.70 1.298
693.80 1.298
693.90 1.298
694.00 1.298
694.10 1.298
694.20 1.298
694.30 1.298
694.40 1.298
694.50 1.298
694.60 1.298
694.70 1.298
694.80 1.298
694.90 1.298
695.00 1.298
695.10 1.298
695.20 1.298
695.30 1.298
695.40 1.298
695.50 1.298
695.60 1.298
695.70 1.298
695.80 1.298
695.90 1.298
696.00 1.298
696.10 1.298
696.20 1.298
696.30 1.298
696.40 1.298
696.50 1.298
696.60 1.298
696.70 1.298
696.80 1.298
696.90 1.298
697.00 1.298
697.10 1.298
697.20 1.298
697.30 1.298
697.40 1.298
697.50 1.298
697.60 1.298
697.70 1.298
697.80 1.298
697.90 1.298
698.00 1.298
698.10 1.298
698.20 1.298
698.30 1.298
698.40 1.298
698.50 1.298
698.60 1.298
698.70 1.298
698.80 1.297
698.90 1.297
699.00 1.297
699.10 1.297
699.20 1.297
699.30 1.297
699.40 1.297
699.50 1.297
699.60 1.297
699.70 1.297
699.80 1.297
699.90 1.297
700.00 1.297
700.10 1.297
700.20 1.297
700.30 1.297
700.40 1.297
700.50 1.297
700.60 1.297
700.70 1.297
700.80 1.297
700.90 1.297
701.00 1.297
701.10 1.297
701.20 1.297
701.30 1.297
701.40 1.297
701.50 1.297
701.60 1.297
701.70 1.297
701.80 1.297
701.90 1.297
702.00 1.297
702.10 1.297
702.20 1.297
702.30 1.297
702.40 1.297
702.50 1.297
702.60 1.297
702.70 1.297
702.80 1.297
702.90 1.297
703.00 1.297
703.10 1.297
703.20 1.297
703.30 1.297
703.40 1.297
703.50 1.297
703.60 1.297
703.70 1.297
703.80 1.297
703.90 1.297
704.00 1.297
704.10 1.297
704.20 1.297
704.30 1.297
704.40 1.297
704.50 1.297
704.60 1.297
704.70 1.297
704.80 1.297
704.90 1.297
705.00 1.297
705.10 1.297
705.20 1.297
705.30 1.297
705.40 1.297
705.50 1.297
705.60 1.296
705.70 1.296
705.80 1.296
705.90 1.296
706.00 1.296
706.10 1.296
706.20 1.296
706.30 1.296
706.40 1.296
706.50 1.296
706.60 1.296
706.70 1.296
706.80 1.296
706.90 1.296
707.00 1.296
707.10 1.296
707.20 1.296
707.30 1.296
707.40 1.296
707.50 1.296
707.60 1.296
707.70 1.296
707.80 1.296
707.90 1.296
708.00 1.296
708.10 1.296
708.20 1.296
708.30 1.296
708.40 1.296
708.50 1.296
708.60 1.296
708.70 1.296
708.80 1.296
708.90 1.296
709.00 1.296
709.10 1.296
709.20 1.296
709.30 1.296
709.40 1.296
709.50 1.296
709.60 1.296
709.70 1.296
709.80 1.296
709.90 1.296
710.00 1.296
710.10 1.296
710.20 1.296
710.30 1.295
710.40 1.295
710.50 1.295
710.60 1.295
710.70 1.295
710.80 1.295
710.90 1.295
711.00 1.295
711.10 1.295
711.20 1.295
711.30 1.295
711.40 1.295
711.50 1.295
711.60 1.295
711.70 1.295
711.80 1.295
711.90 1.295
712.00 1.295
712.10 1.295
712.20 1.295
712.30 1.295
712.40 1.295
712.50 1.295
712.60 1.295
712.70 1.295
712.80 1.295
712.90 1.295
713.00 1.295
713.10 1.295
713.20 1.295
713.30 1.295
713.40 1.295
713.50 1.295
713.60 1.295
713.70 1.295
713.80 1.295
713.90 1.294
714.00 1.294
714.10 1.294
714.20 1.294
714.30 1.294
714.40 1.294
714.50 1.294
714.60 1.294
714.70 1.294
714.80 1.294
714.90 1.294
715.00 1.294
715.10 1.294
715.20 1.294
715.30 1.294
715.40 1.294
715.50 1.294
715.60 1.294
715.70 1.294
715.80 1.294
715.90 1.294
716.00 1.294
716.10 1.294
716.20 1.294
716.30 1.294
716.40 1.294
716.50 1.294
716.60 1.294
716.70 1.294
716.80 1.294
716.90 1.294
717.00 1.294
717.10 1.293
717.20 1.293
717.30 1.293
717.40 1.293
717.50 1.293
717.60 1.293
717.70 1.293
717.80 1.293
717.90 1.293
718.00 1.293
718.10 1.293
718.20 1.293
718.30 1.293
718.40 1.293
718.50 1.293
718.60 1.293
718.70 1.293
718.80 1.293
718.90 1.293
719.00 1.293
719.10 1.293
719.20 1.293
719.30 1.293
719.40 1.293
719.50 1.293
719.60 1.293
719.70 1.293
719.80 1.293
719.90 1.293
720.00 1.293
720.10 1.292
720.20 1.292
720.30 1.292
720.40 1.292
720.50 1.292
720.60 1.292
720.70 1.292
720.80 1.292
720.90 1.292
721.00 1.292
721.10 1.292
721.20 1.292
721.30 1.292
721.40 1.292
721.50 1.292
721.60 1.292
721.70 1.292
721.80 1.292
721.90 1.292
722.00 1.292
722.10 1.292
722.20 1.292
722.30 1.292
722.40 1.292
722.50 1.292
722.60 1.292
722.70 1.292
722.80 1.291
722.90 1.291
723.00 1.291
723.10 1.291
723.20 1.291
723.30 1.291
723.40 1.291
723.50 1.291
723.60 1.291
723.70 1.291
723.80 1.291
723.90 1.291
724.00 1.291
724.10 1.291
724.20 1.291
724.30 1.291
724.40 1.291
724.50 1.291
724.60 1.291
724.70 1.291
724.80 1.291
724.90 1.291
725.00 1.291
725.10 1.291
725.20 1.291
725.30 1.291
725.40 1.29
725.50 1.29
725.60 1.29
725.70 1.29
725.80 1.29
725.90 1.29
726.00 1.29
726.10 1.29
726.20 1.29
726.30 1.29
726.40 1.29
726.50 1.29
726.60 1.29
726.70 1.29
726.80 1.29
726.90 1.29
727.00 1.29
727.10 1.29
727.20 1.29
727.30 1.29
727.40 1.29
727.50 1.29
727.60 1.29
727.70 1.29
727.80 1.289
727.90 1.289
728.00 1.289
728.10 1.289
728.20 1.289
728.30 1.289
728.40 1.289
728.50 1.289
728.60 1.289
728.70 1.289
728.80 1.289
728.90 1.289
729.00 1.289
729.10 1.289
729.20 1.289
729.30 1.289
729.40 1.289
729.50 1.289
729.60 1.289
729.70 1.289
729.80 1.289
729.90 1.289
730.00 1.289
730.10 1.289
730.20 1.288
730.30 1.288
730.40 1.288
730.50 1.288
730.60 1.288
730.70 1.288
730.80 1.288
730.90 1.288
731.00 1.288
731.10 1.288
731.20 1.288
731.30 1.288
731.40 1.288
731.50 1.288
731.60 1.288
731.70 1.288
731.80 1.288
731.90 1.288
732.00 1.288
732.10 1.288
732.20 1.287
732.30 1.287
732.40 1.287
732.50 1.287
732.60 1.287
732.70 1.287
732.80 1.287
732.90 1.287
733.00 1.287
733.10 1.287
733.20 1.287
733.30 1.287
733.40 1.287
733.50 1.287
733.60 1.287
733.70 1.287
733.80 1.287
733.90 1.287
734.00 1.287
734.10 1.287
734.20 1.286
734.30 1.286
734.40 1.286
734.50 1.286
734.60 1.286
734.70 1.286
734.80 1.286
734.90 1.286
735.00 1.286
735.10 1.286
735.20 1.286
735.30 1.286
735.40 1.286
735.50 1.286
735.60 1.286
735.70 1.286
735.80 1.286
735.90 1.286
736.00 1.286
736.10 1.286
736.20 1.286
736.30 1.285
736.40 1.285
736.50 1.285
736.60 1.285
736.70 1.285
736.80 1.285
736.90 1.285
737.00 1.285
737.10 1.285
737.20 1.285
737.30 1.285
737.40 1.285
737.50 1.285
737.60 1.285
737.70 1.285
737.80 1.285
737.90 1.285
738.00 1.285
738.10 1.285
738.20 1.285
738.30 1.284
738.40 1.284
738.50 1.284
738.60 1.284
738.70 1.284
738.80 1.284
738.90 1.284
739.00 1.284
739.10 1.284
739.20 1.284
739.30 1.284
739.40 1.284
739.50 1.284
739.60 1.284
739.70 1.284
739.80 1.284
739.90 1.284
740.00 1.284
740.10 1.284
740.20 1.283
740.30 1.283
740.40 1.283
740.50 1.283
740.60 1.283
740.70 1.283
740.80 1.283
740.90 1.283
741.00 1.283
741.10 1.283
741.20 1.283
741.30 1.283
741.40 1.283
741.50 1.283
741.60 1.283
741.70 1.283
741.80 1.283
741.90 1.283
742.00 1.282
742.10 1.282
742.20 1.282
742.30 1.282
742.40 1.282
742.50 1.282
742.60 1.282
742.70 1.282
742.80 1.282
742.90 1.282
743.00 1.282
743.10 1.282
743.20 1.282
743.30 1.282
743.40 1.282
743.50 1.282
743.60 1.282
743.70 1.281
743.80 1.281
743.90 1.281
744.00 1.281
744.10 1.281
744.20 1.281
744.30 1.281
744.40 1.281
744.50 1.281
744.60 1.281
744.70 1.281
744.80 1.281
744.90 1.281
745.00 1.281
745.10 1.281
745.20 1.281
745.30 1.281
745.40 1.28
745.50 1.28
745.60 1.28
745.70 1.28
745.80 1.28
745.90 1.28
746.00 1.28
746.10 1.28
746.20 1.28
746.30 1.28
746.40 1.28
746.50 1.28
746.60 1.28
746.70 1.28
746.80 1.28
746.90 1.28
747.00 1.28
747.10 1.279
747.20 1.279
747.30 1.279
747.40 1.279
747.50 1.279
747.60 1.279
747.70 1.279
747.80 1.279
747.90 1.279
748.00 1.279
748.10 1.279
748.20 1.279
748.30 1.279
748.40 1.279
748.50 1.279
748.60 1.279
748.70 1.279
748.80 1.278
748.90 1.278
749.00 1.278
749.10 1.278
749.20 1.278
749.30 1.278
749.40 1.278
749.50 1.278
749.60 1.278
749.70 1.278
749.80 1.278
749.90 1.278
750.00 1.278
750.10 1.278
750.20 1.278
750.30 1.278
750.40 1.278
750.50 1.277
750.60 1.277
750.70 1.277
750.80 1.277
750.90 1.277
751.00 1.277
751.10 1.277
751.20 1.277
751.30 1.277
751.40 1.277
751.50 1.277
751.60 1.277
751.70 1.277
751.80 1.277
751.90 1.277
752.00 1.276
752.10 1.276
752.20 1.276
752.30 1.276
752.40 1.276
752.50 1.276
752.60 1.276
752.70 1.276
752.80 1.276
752.90 1.276
753.00 1.276
753.10 1.276
753.20 1.276
753.30 1.276
753.40 1.276
753.50 1.276
753.60 1.275
753.70 1.275
753.80 1.275
753.90 1.275
754.00 1.275
754.10 1.275
754.20 1.275
754.30 1.275
754.40 1.275
754.50 1.275
754.60 1.275
754.70 1.275
754.80 1.275
754.90 1.275
755.00 1.275
755.10 1.274
755.20 1.274
755.30 1.274
755.40 1.274
755.50 1.274
755.60 1.274
755.70 1.274
755.80 1.274
755.90 1.274
756.00 1.274
756.10 1.274
756.20 1.274
756.30 1.274
756.40 1.274
756.50 1.274
756.60 1.274
756.70 1.273
756.80 1.273
756.90 1.273
757.00 1.273
757.10 1.273
757.20 1.273
757.30 1.273
757.40 1.273
757.50 1.273
757.60 1.273
757.70 1.273
757.80 1.273
757.90 1.273
758.00 1.273
758.10 1.273
758.20 1.272
758.30 1.272
758.40 1.272
758.50 1.272
758.60 1.272
758.70 1.272
758.80 1.272
758.90 1.272
759.00 1.272
759.10 1.272
759.20 1.272
759.30 1.272
759.40 1.272
759.50 1.272
759.60 1.272
759.70 1.271
759.80 1.271
759.90 1.271
760.00 1.271
760.10 1.271
760.20 1.271
760.30 1.271
760.40 1.271
760.50 1.271
760.60 1.271
760.70 1.271
760.80 1.271
760.90 1.271
761.00 1.271
761.10 1.27
761.20 1.27
761.30 1.27
761.40 1.27
761.50 1.27
761.60 1.27
761.70 1.27
761.80 1.27
761.90 1.27
762.00 1.27
762.10 1.27
762.20 1.27
762.30 1.27
762.40 1.27
762.50 1.269
762.60 1.269
762.70 1.269
762.80 1.269
762.90 1.269
763.00 1.269
763.10 1.269
763.20 1.269
763.30 1.269
763.40 1.269
763.50 1.269
763.60 1.269
763.70 1.269
763.80 1.269
763.90 1.268
764.00 1.268
764.10 1.268
764.20 1.268
764.30 1.268
764.40 1.268
764.50 1.268
764.60 1.268
764.70 1.268
764.80 1.268
764.90 1.268
765.00 1.268
765.10 1.268
765.20 1.267
765.30 1.267
765.40 1.267
765.50 1.267
765.60 1.267
765.70 1.267
765.80 1.267
765.90 1.267
766.00 1.267
766.10 1.267
766.20 1.267
766.30 1.267
766.40 1.267
766.50 1.267
766.60 1.266
766.70 1.266
766.80 1.266
766.90 1.266
767.00 1.266
767.10 1.266
767.20 1.266
767.30 1.266
767.40 1.266
767.50 1.266
767.60 1.266
767.70 1.266
767.80 1.266
767.90 1.266
768.00 1.265
768.10 1.265
768.20 1.265
768.30 1.265
768.40 1.265
768.50 1.265
768.60 1.265
768.70 1.265
768.80 1.265
768.90 1.265
769.00 1.265
769.10 1.265
769.20 1.265
769.30 1.265
769.40 1.264
769.50 1.264
769.60 1.264
769.70 1.264
769.80 1.264
769.90 1.264
770.00 1.264
770.10 1.264
770.20 1.264
770.30 1.264
770.40 1.264
770.50 1.264
770.60 1.264
770.70 1.263
770.80 1.263
770.90 1.263
771.00 1.263
771.10 1.263
771.20 1.263
771.30 1.263
771.40 1.263
771.50 1.263
771.60 1.263
771.70 1.263
771.80 1.263
771.90 1.262
772.00 1.262
772.10 1.262
772.20 1.262
772.30 1.262
772.40 1.262
772.50 1.262
772.60 1.262
772.70 1.262
772.80 1.262
772.90 1.262
773.00 1.262
773.10 1.262
773.20 1.261
773.30 1.261
773.40 1.261
773.50 1.261
773.60 1.261
773.70 1.261
773.80 1.261
773.90 1.261
774.00 1.261
774.10 1.261
774.20 1.261
774.30 1.261
774.40 1.261
774.50 1.26
774.60 1.26
774.70 1.26
774.80 1.26
774.90 1.26
775.00 1.26
775.10 1.26
775.20 1.26
775.30 1.26
775.40 1.26
775.50 1.26
775.60 1.26
775.70 1.26
775.80 1.259
775.90 1.259
776.00 1.259
776.10 1.259
776.20 1.259
776.30 1.259
776.40 1.259
776.50 1.259
776.60 1.259
776.70 1.259
776.80 1.259
776.90 1.259
777.00 1.258
777.10 1.258
777.20 1.258
777.30 1.258
777.40 1.258
777.50 1.258
777.60 1.258
777.70 1.258
777.80 1.258
777.90 1.258
778.00 1.258
778.10 1.258
778.20 1.258
778.30 1.257
778.40 1.257
778.50 1.257
778.60 1.257
778.70 1.257
778.80 1.257
778.90 1.257
779.00 1.257
779.10 1.257
779.20 1.257
779.30 1.257
779.40 1.257
779.50 1.257
779.60 1.256
779.70 1.256
779.80 1.256
779.90 1.256
780.00 1.256
780.10 1.256
780.20 1.256
780.30 1.256
780.40 1.256
780.50 1.256
780.60 1.256
780.70 1.256
780.80 1.255
780.90 1.255
781.00 1.255
781.10 1.255
781.20 1.255
781.30 1.255
781.40 1.255
781.50 1.255
781.60 1.255
781.70 1.255
781.80 1.255
781.90 1.254
782.00 1.254
782.10 1.254
782.20 1.254
782.30 1.254
782.40 1.254
782.50 1.254
782.60 1.254
782.70 1.254
782.80 1.254
782.90 1.254
783.00 1.254
783.10 1.253
783.20 1.253
783.30 1.253
783.40 1.253
783.50 1.253
783.60 1.253
783.70 1.253
783.80 1.253
783.90 1.253
784.00 1.253
784.10 1.253
784.20 1.253
784.30 1.252
784.40 1.252
784.50 1.252
784.60 1.252
784.70 1.252
784.80 1.252
784.90 1.252
785.00 1.252
785.10 1.252
785.20 1.252
785.30 1.252
785.40 1.252
785.50 1.251
785.60 1.251
785.70 1.251
785.80 1.251
785.90 1.251
786.00 1.251
786.10 1.251
786.20 1.251
786.30 1.251
786.40 1.251
786.50 1.251
786.60 1.25
786.70 1.25
786.80 1.25
786.90 1.25
787.00 1.25
787.10 1.25
787.20 1.25
787.30 1.25
787.40 1.25
787.50 1.25
787.60 1.25
787.70 1.25
787.80 1.249
787.90 1.249
788.00 1.249
788.10 1.249
788.20 1.249
788.30 1.249
788.40 1.249
788.50 1.249
788.60 1.249
788.70 1.249
788.80 1.249
788.90 1.249
789.00 1.248
789.10 1.248
789.20 1.248
789.30 1.248
789.40 1.248
789.50 1.248
789.60 1.248
789.70 1.248
789.80 1.248
789.90 1.248
790.00 1.248
790.10 1.248
790.20 1.247
790.30 1.247
790.40 1.247
790.50 1.247
790.60 1.247
790.70 1.247
790.80 1.247
790.90 1.247
791.00 1.247
791.10 1.247
791.20 1.247
791.30 1.246
791.40 1.246
791.50 1.246
791.60 1.246
791.70 1.246
791.80 1.246
791.90 1.246
792.00 1.246
792.10 1.246
792.20 1.246
792.30 1.246
792.40 1.245
792.50 1.245
792.60 1.245
792.70 1.245
792.80 1.245
792.90 1.245
793.00 1.245
793.10 1.245
793.20 1.245
793.30 1.245
793.40 1.244
793.50 1.244
793.60 1.244
793.70 1.244
793.80 1.244
793.90 1.244
794.00 1.244
794.10 1.244
794.20 1.244
794.30 1.244
794.40 1.244
794.50 1.243
794.60 1.243
794.70 1.243
794.80 1.243
794.90 1.243
795.00 1.243
795.10 1.243
795.20 1.243
795.30 1.243
795.40 1.243
795.50 1.243
795.60 1.242
795.70 1.242
795.80 1.242
795.90 1.242
796.00 1.242
796.10 1.242
796.20 1.242
796.30 1.242
796.40 1.242
796.50 1.242
796.60 1.242
796.70 1.241
796.80 1.241
796.90 1.241
797.00 1.241
797.10 1.241
797.20 1.241
797.30 1.241
797.40 1.241
797.50 1.241
797.60 1.241
797.70 1.241
797.80 1.24
797.90 1.24
798.00 1.24
798.10 1.24
798.20 1.24
798.30 1.24
798.40 1.24
798.50 1.24
798.60 1.24
798.70 1.24
798.80 1.24
798.90 1.239
799.00 1.239
799.10 1.239
799.20 1.239
799.30 1.239
799.40 1.239
799.50 1.239
799.60 1.239
799.70 1.239
799.80 1.239
799.90 1.239
800.00 1.238
800.10 1.238
800.20 1.238
800.30 1.238
800.40 1.238
800.50 1.238
800.60 1.238
800.70 1.238
800.80 1.238
800.90 1.238
801.00 1.238
801.10 1.237
801.20 1.237
801.30 1.237
801.40 1.237
801.50 1.237
801.60 1.237
801.70 1.237
801.80 1.237
801.90 1.237
802.00 1.237
802.10 1.236
802.20 1.236
802.30 1.236
802.40 1.236
802.50 1.236
802.60 1.236
802.70 1.236
802.80 1.236
802.90 1.236
803.00 1.236
803.10 1.235
803.20 1.235
803.30 1.235
803.40 1.235
803.50 1.235
803.60 1.235
803.70 1.235
803.80 1.235
803.90 1.235
804.00 1.235
804.10 1.235
804.20 1.234
804.30 1.234
804.40 1.234
804.50 1.234
804.60 1.234
804.70 1.234
804.80 1.234
804.90 1.234
805.00 1.234
805.10 1.234
805.20 1.233
805.30 1.233
805.40 1.233
805.50 1.233
805.60 1.233
805.70 1.233
805.80 1.233
805.90 1.233
806.00 1.233
806.10 1.233
806.20 1.232
806.30 1.232
806.40 1.232
806.50 1.232
806.60 1.232
806.70 1.232
806.80 1.232
806.90 1.232
807.00 1.232
807.10 1.232
807.20 1.231
807.30 1.231
807.40 1.231
807.50 1.231
807.60 1.231
807.70 1.231
807.80 1.231
807.90 1.231
808.00 1.231
808.10 1.231
808.20 1.231
808.30 1.23
808.40 1.23
808.50 1.23
808.60 1.23
808.70 1.23
808.80 1.23
808.90 1.23
809.00 1.23
809.10 1.23
809.20 1.23
809.30 1.229
809.40 1.229
809.50 1.229
809.60 1.229
809.70 1.229
809.80 1.229
809.90 1.229
810.00 1.229
810.10 1.229
810.20 1.229
810.30 1.228
810.40 1.228
810.50 1.228
810.60 1.228
810.70 1.228
810.80 1.228
810.90 1.228
811.00 1.228
811.10 1.228
811.20 1.228
811.30 1.227
811.40 1.227
811.50 1.227
811.60 1.227
811.70 1.227
811.80 1.227
811.90 1.227
812.00 1.227
812.10 1.227
812.20 1.227
812.30 1.226
812.40 1.226
812.50 1.226
812.60 1.226
812.70 1.226
812.80 1.226
812.90 1.226
813.00 1.226
813.10 1.226
813.20 1.225
813.30 1.225
813.40 1.225
813.50 1.225
813.60 1.225
813.70 1.225
813.80 1.225
813.90 1.225
814.00 1.225
814.10 1.225
814.20 1.224
814.30 1.224
814.40 1.224
814.50 1.224
814.60 1.224
814.70 1.224
814.80 1.224
814.90 1.224
815.00 1.224
815.10 1.224
815.20 1.223
815.30 1.223
815.40 1.223
815.50 1.223
815.60 1.223
815.70 1.223
815.80 1.223
815.90 1.223
816.00 1.223
816.10 1.223
816.20 1.222
816.30 1.222
816.40 1.222
816.50 1.222
816.60 1.222
816.70 1.222
816.80 1.222
816.90 1.222
817.00 1.222
817.10 1.221
817.20 1.221
817.30 1.221
817.40 1.221
817.50 1.221
817.60 1.221
817.70 1.221
817.80 1.221
817.90 1.221
818.00 1.221
818.10 1.22
818.20 1.22
818.30 1.22
818.40 1.22
818.50 1.22
818.60 1.22
818.70 1.22
818.80 1.22
818.90 1.22
819.00 1.22
819.10 1.219
819.20 1.219
819.30 1.219
819.40 1.219
819.50 1.219
819.60 1.219
819.70 1.219
819.80 1.219
819.90 1.219
820.00 1.219
820.10 1.218
820.20 1.218
820.30 1.218
820.40 1.218
820.50 1.218
820.60 1.218
820.70 1.218
820.80 1.218
820.90 1.218
821.00 1.217
821.10 1.217
821.20 1.217
821.30 1.217
821.40 1.217
821.50 1.217
821.60 1.217
821.70 1.217
821.80 1.217
821.90 1.217
822.00 1.216
822.10 1.216
822.20 1.216
822.30 1.216
822.40 1.216
822.50 1.216
822.60 1.216
822.70 1.216
822.80 1.216
822.90 1.215
823.00 1.215
823.10 1.215
823.20 1.215
823.30 1.215
823.40 1.215
823.50 1.215
823.60 1.215
823.70 1.215
823.80 1.214
823.90 1.214
824.00 1.214
824.10 1.214
824.20 1.214
824.30 1.214
824.40 1.214
824.50 1.214
824.60 1.214
824.70 1.214
824.80 1.213
824.90 1.213
825.00 1.213
825.10 1.213
825.20 1.213
825.30 1.213
825.40 1.213
825.50 1.213
825.60 1.213
825.70 1.212
825.80 1.212
825.90 1.212
826.00 1.212
826.10 1.212
826.20 1.212
826.30 1.212
826.40 1.212
826.50 1.212
826.60 1.211
826.70 1.211
826.80 1.211
826.90 1.211
827.00 1.211
827.10 1.211
827.20 1.211
827.30 1.211
827.40 1.211
827.50 1.21
827.60 1.21
827.70 1.21
827.80 1.21
827.90 1.21
828.00 1.21
828.10 1.21
828.20 1.21
828.30 1.21
828.40 1.209
828.50 1.209
828.60 1.209
828.70 1.209
828.80 1.209
828.90 1.209
829.00 1.209
829.10 1.209
829.20 1.209
829.30 1.208
829.40 1.208
829.50 1.208
829.60 1.208
829.70 1.208
829.80 1.208
829.90 1.208
830.00 1.208
830.10 1.208
830.20 1.208
830.30 1.207
830.40 1.207
830.50 1.207
830.60 1.207
830.70 1.207
830.80 1.207
830.90 1.207
831.00 1.207
831.10 1.207
831.20 1.206
831.30 1.206
831.40 1.206
831.50 1.206
831.60 1.206
831.70 1.206
831.80 1.206
831.90 1.206
832.00 1.206
832.10 1.205
832.20 1.205
832.30 1.205
832.40 1.205
832.50 1.205
832.60 1.205
832.70 1.205
832.80 1.205
832.90 1.205
833.00 1.204
833.10 1.204
833.20 1.204
833.30 1.204
833.40 1.204
833.50 1.204
833.60 1.204
833.70 1.204
833.80 1.203
833.90 1.203
834.00 1.203
834.10 1.203
834.20 1.203
834.30 1.203
834.40 1.203
834.50 1.203
834.60 1.203
834.70 1.202
834.80 1.202
834.90 1.202
835.00 1.202
835.10 1.202
835.20 1.202
835.30 1.202
835.40 1.202
835.50 1.202
835.60 1.201
835.70 1.201
835.80 1.201
835.90 1.201
836.00 1.201
836.10 1.201
836.20 1.201
836.30 1.201
836.40 1.201
836.50 1.2
836.60 1.2
836.70 1.2
836.80 1.2
836.90 1.2
837.00 1.2
837.10 1.2
837.20 1.2
837.30 1.2
837.40 1.199
837.50 1.199
837.60 1.199
837.70 1.199
837.80 1.199
837.90 1.199
838.00 1.199
838.10 1.199
838.20 1.199
838.30 1.198
838.40 1.198
838.50 1.198
838.60 1.198
838.70 1.198
838.80 1.198
838.90 1.198
839.00 1.198
839.10 1.197
839.20 1.197
839.30 1.197
839.40 1.197
839.50 1.197
839.60 1.197
839.70 1.197
839.80 1.197
839.90 1.197
840.00 1.196
840.10 1.196
840.20 1.196
840.30 1.196
840.40 1.196
840.50 1.196
840.60 1.196
840.70 1.196
840.80 1.196
840.90 1.195
841.00 1.195
841.10 1.195
841.20 1.195
841.30 1.195
841.40 1.195
841.50 1.195
841.60 1.195
841.70 1.194
841.80 1.194
841.90 1.194
842.00 1.194
842.10 1.194
842.20 1.194
842.30 1.194
842.40 1.194
842.50 1.194
842.60 1.193
842.70 1.193
842.80 1.193
842.90 1.193
843.00 1.193
843.10 1.193
843.20 1.193
843.30 1.193
843.40 1.193
843.50 1.192
843.60 1.192
843.70 1.192
843.80 1.192
843.90 1.192
844.00 1.192
844.10 1.192
844.20 1.192
844.30 1.191
844.40 1.191
844.50 1.191
844.60 1.191
844.70 1.191
844.80 1.191
844.90 1.191
845.00 1.191
845.10 1.191
845.20 1.19
845.30 1.19
845.40 1.19
845.50 1.19
845.60 1.19
845.70 1.19
845.80 1.19
845.90 1.19
846.00 1.189
846.10 1.189
846.20 1.189
846.30 1.189
846.40 1.189
846.50 1.189
846.60 1.189
846.70 1.189
846.80 1.189
846.90 1.188
847.00 1.188
847.10 1.188
847.20 1.188
847.30 1.188
847.40 1.188
847.50 1.188
847.60 1.188
847.70 1.187
847.80 1.187
847.90 1.187
848.00 1.187
848.10 1.187
848.20 1.187
848.30 1.187
848.40 1.187
848.50 1.187
848.60 1.186
848.70 1.186
848.80 1.186
848.90 1.186
849.00 1.186
849.10 1.186
849.20 1.186
849.30 1.186
849.40 1.185
849.50 1.185
849.60 1.185
849.70 1.185
849.80 1.185
849.90 1.185
850.00 1.185
850.10 1.185
850.20 1.185
850.30 1.184
850.40 1.184
850.50 1.184
850.60 1.184
850.70 1.184
850.80 1.184
850.90 1.184
851.00 1.184
851.10 1.183
851.20 1.183
851.30 1.183
851.40 1.183
851.50 1.183
851.60 1.183
851.70 1.183
851.80 1.183
851.90 1.183
852.00 1.182
852.10 1.182
852.20 1.182
852.30 1.182
852.40 1.182
852.50 1.182
852.60 1.182
852.70 1.182
852.80 1.181
852.90 1.181
853.00 1.181
853.10 1.181
853.20 1.181
853.30 1.181
853.40 1.181
853.50 1.181
853.60 1.18
853.70 1.18
853.80 1.18
853.90 1.18
854.00 1.18
854.10 1.18
854.20 1.18
854.30 1.18
854.40 1.179
854.50 1.179
854.60 1.179
854.70 1.179
854.80 1.179
854.90 1.179
855.00 1.179
855.10 1.179
855.20 1.179
855.30 1.178
855.40 1.178
855.50 1.178
855.60 1.178
855.70 1.178
855.80 1.178
855.90 1.178
856.00 1.178
856.10 1.177
856.20 1.177
856.30 1.177
856.40 1.177
856.50 1.177
856.60 1.177
856.70 1.177
856.80 1.177
856.90 1.177
857.00 1.176
857.10 1.176
857.20 1.176
857.30 1.176
857.40 1.176
857.50 1.176
857.60 1.176
857.70 1.176
857.80 1.175
857.90 1.175
858.00 1.175
858.10 1.175
858.20 1.175
858.30 1.175
858.40 1.175
858.50 1.175
858.60 1.174
858.70 1.174
858.80 1.174
858.90 1.174
859.00 1.174
859.10 1.174
859.20 1.174
859.30 1.174
859.40 1.173
859.50 1.173
859.60 1.173
859.70 1.173
859.80 1.173
859.90 1.173
860.00 1.173
860.10 1.173
860.20 1.172
860.30 1.172
860.40 1.172
860.50 1.172
860.60 1.172
860.70 1.172
860.80 1.172
860.90 1.172
861.00 1.171
861.10 1.171
861.20 1.171
861.30 1.171
861.40 1.171
861.50 1.171
861.60 1.171
861.70 1.171
861.80 1.17
861.90 1.17
862.00 1.17
862.10 1.17
862.20 1.17
862.30 1.17
862.40 1.17
862.50 1.17
862.60 1.169
862.70 1.169
862.80 1.169
862.90 1.169
863.00 1.169
863.10 1.169
863.20 1.169
863.30 1.169
863.40 1.168
863.50 1.168
863.60 1.168
863.70 1.168
863.80 1.168
863.90 1.168
864.00 1.168
864.10 1.168
864.20 1.167
864.30 1.167
864.40 1.167
864.50 1.167
864.60 1.167
864.70 1.167
864.80 1.167
864.90 1.167
865.00 1.166
865.10 1.166
865.20 1.166
865.30 1.166
865.40 1.166
865.50 1.166
865.60 1.166
865.70 1.166
865.80 1.166
865.90 1.165
866.00 1.165
866.10 1.165
866.20 1.165
866.30 1.165
866.40 1.165
866.50 1.165
866.60 1.165
866.70 1.164
866.80 1.164
866.90 1.164
867.00 1.164
867.10 1.164
867.20 1.164
867.30 1.164
867.40 1.164
867.50 1.163
867.60 1.163
867.70 1.163
867.80 1.163
867.90 1.163
868.00 1.163
868.10 1.163
868.20 1.163
868.30 1.162
868.40 1.162
868.50 1.162
868.60 1.162
868.70 1.162
868.80 1.162
868.90 1.162
869.00 1.161
869.10 1.161
869.20 1.161
869.30 1.161
869.40 1.161
869.50 1.161
869.60 1.161
869.70 1.161
869.80 1.16
869.90 1.16
870.00 1.16
870.10 1.16
870.20 1.16
870.30 1.16
870.40 1.16
870.50 1.16
870.60 1.159
870.70 1.159
870.80 1.159
870.90 1.159
871.00 1.159
871.10 1.159
871.20 1.159
871.30 1.159
871.40 1.158
871.50 1.158
871.60 1.158
871.70 1.158
871.80 1.158
871.90 1.158
872.00 1.158
872.10 1.158
872.20 1.157
872.30 1.157
872.40 1.157
872.50 1.157
872.60 1.157
872.70 1.157
872.80 1.157
872.90 1.157
873.00 1.156
873.10 1.156
873.20 1.156
873.30 1.156
873.40 1.156
873.50 1.156
873.60 1.156
873.70 1.156
873.80 1.155
873.90 1.155
874.00 1.155
874.10 1.155
874.20 1.155
874.30 1.155
874.40 1.155
874.50 1.154
874.60 1.154
874.70 1.154
874.80 1.154
874.90 1.154
875.00 1.154
875.10 1.154
875.20 1.154
875.30 1.153
875.40 1.153
875.50 1.153
875.60 1.153
875.70 1.153
875.80 1.153
875.90 1.153
876.00 1.153
876.10 1.152
876.20 1.152
876.30 1.152
876.40 1.152
876.50 1.152
876.60 1.152
876.70 1.152
876.80 1.152
876.90 1.151
877.00 1.151
877.10 1.151
877.20 1.151
877.30 1.151
877.40 1.151
877.50 1.151
877.60 1.151
877.70 1.15
877.80 1.15
877.90 1.15
878.00 1.15
878.10 1.15
878.20 1.15
878.30 1.15
878.40 1.149
878.50 1.149
878.60 1.149
878.70 1.149
878.80 1.149
878.90 1.149
879.00 1.149
879.10 1.149
879.20 1.148
879.30 1.148
879.40 1.148
879.50 1.148
879.60 1.148
879.70 1.148
879.80 1.148
879.90 1.148
880.00 1.147
880.10 1.147
880.20 1.147
880.30 1.147
880.40 1.147
880.50 1.147
880.60 1.147
880.70 1.146
880.80 1.146
880.90 1.146
881.00 1.146
881.10 1.146
881.20 1.146
881.30 1.146
881.40 1.146
881.50 1.145
881.60 1.145
881.70 1.145
881.80 1.145
881.90 1.145
882.00 1.145
882.10 1.145
882.20 1.145
882.30 1.144
882.40 1.144
882.50 1.144
882.60 1.144
882.70 1.144
882.80 1.144
882.90 1.144
883.00 1.143
883.10 1.143
883.20 1.143
883.30 1.143
883.40 1.143
883.50 1.143
883.60 1.143
883.70 1.143
883.80 1.142
883.90 1.142
884.00 1.142
884.10 1.142
884.20 1.142
884.30 1.142
884.40 1.142
884.50 1.142
884.60 1.141
884.70 1.141
884.80 1.141
884.90 1.141
885.00 1.141
885.10 1.141
885.20 1.141
885.30 1.14
885.40 1.14
885.50 1.14
885.60 1.14
885.70 1.14
885.80 1.14
885.90 1.14
886.00 1.14
886.10 1.139
886.20 1.139
886.30 1.139
886.40 1.139
886.50 1.139
886.60 1.139
886.70 1.139
886.80 1.138
886.90 1.138
887.00 1.138
887.10 1.138
887.20 1.138
887.30 1.138
887.40 1.138
887.50 1.138
887.60 1.137
887.70 1.137
887.80 1.137
887.90 1.137
888.00 1.137
888.10 1.137
888.20 1.137
888.30 1.136
888.40 1.136
888.50 1.136
888.60 1.136
888.70 1.136
888.80 1.136
888.90 1.136
889.00 1.136
889.10 1.135
889.20 1.135
889.30 1.135
889.40 1.135
889.50 1.135
889.60 1.135
889.70 1.135
889.80 1.134
889.90 1.134
890.00 1.134
890.10 1.134
890.20 1.134
890.30 1.134
890.40 1.134
890.50 1.134
890.60 1.133
890.70 1.133
890.80 1.133
890.90 1.133
891.00 1.133
891.10 1.133
891.20 1.133
891.30 1.132
891.40 1.132
891.50 1.132
891.60 1.132
891.70 1.132
891.80 1.132
891.90 1.132
892.00 1.131
892.10 1.131
892.20 1.131
892.30 1.131
892.40 1.131
892.50 1.131
892.60 1.131
892.70 1.131
892.80 1.13
892.90 1.13
893.00 1.13
893.10 1.13
893.20 1.13
893.30 1.13
893.40 1.13
893.50 1.129
893.60 1.129
893.70 1.129
893.80 1.129
893.90 1.129
894.00 1.129
894.10 1.129
894.20 1.129
894.30 1.128
894.40 1.128
894.50 1.128
894.60 1.128
894.70 1.128
894.80 1.128
894.90 1.128
895.00 1.127
895.10 1.127
895.20 1.127
895.30 1.127
895.40 1.127
895.50 1.127
895.60 1.127
895.70 1.127
895.80 1.126
895.90 1.126
896.00 1.126
896.10 1.126
896.20 1.126
896.30 1.126
896.40 1.126
896.50 1.125
896.60 1.125
896.70 1.125
896.80 1.125
896.90 1.125
897.00 1.125
897.10 1.125
897.20 1.125
897.30 1.124
897.40 1.124
897.50 1.124
897.60 1.124
897.70 1.124
897.80 1.124
897.90 1.124
898.00 1.123
898.10 1.123
898.20 1.123
898.30 1.123
898.40 1.123
898.50 1.123
898.60 1.123
898.70 1.122
898.80 1.122
898.90 1.122
899.00 1.122
899.10 1.122
899.20 1.122
899.30 1.122
899.40 1.121
899.50 1.121
899.60 1.121
899.70 1.121
899.80 1.121
899.90 1.121
900.00 1.121
900.10 1.121
900.20 1.12
900.30 1.12
900.40 1.12
900.50 1.12
900.60 1.12
900.70 1.12
900.80 1.12
900.90 1.119
901.00 1.119
901.10 1.119
901.20 1.119
901.30 1.119
901.40 1.119
901.50 1.119
901.60 1.118
901.70 1.118
901.80 1.118
901.90 1.118
902.00 1.118
902.10 1.118
902.20 1.118
902.30 1.117
902.40 1.117
902.50 1.117
902.60 1.117
902.70 1.117
902.80 1.117
902.90 1.117
903.00 1.116
903.10 1.116
903.20 1.116
903.30 1.116
903.40 1.116
903.50 1.116
903.60 1.116
903.70 1.115
903.80 1.115
903.90 1.115
904.00 1.115
904.10 1.115
904.20 1.115
904.30 1.114
904.40 1.114
904.50 1.114
904.60 1.114
904.70 1.114
904.80 1.114
904.90 1.114
905.00 1.113
905.10 1.113
905.20 1.113
905.30 1.113
905.40 1.113
905.50 1.113
905.60 1.113
905.70 1.112
905.80 1.112
905.90 1.112
906.00 1.112
906.10 1.112
906.20 1.112
906.30 1.112
906.40 1.111
906.50 1.111
906.60 1.111
906.70 1.111
906.80 1.111
906.90 1.111
907.00 1.11
907.10 1.11
907.20 1.11
907.30 1.11
907.40 1.11
907.50 1.11
907.60 1.11
907.70 1.109
907.80 1.109
907.90 1.109
908.00 1.109
908.10 1.109
908.20 1.109
908.30 1.109
908.40 1.108
908.50 1.108
908.60 1.108
908.70 1.108
908.80 1.108
908.90 1.108
909.00 1.108
909.10 1.107
909.20 1.107
909.30 1.107
909.40 1.107
909.50 1.107
909.60 1.107
909.70 1.107
909.80 1.106
909.90 1.106
910.00 1.106
910.10 1.106
910.20 1.106
910.30 1.106
910.40 1.106
910.50 1.105
910.60 1.105
910.70 1.105
910.80 1.105
910.90 1.105
911.00 1.105
911.10 1.105
911.20 1.104
911.30 1.104
911.40 1.104
911.50 1.104
911.60 1.104
911.70 1.104
911.80 1.104
911.90 1.103
912.00 1.103
912.10 1.103
912.20 1.103
912.30 1.103
912.40 1.103
912.50 1.103
912.60 1.102
912.70 1.102
912.80 1.102
912.90 1.102
913.00 1.102
913.10 1.102
913.20 1.102
913.30 1.101
913.40 1.101
913.50 1.101
913.60 1.101
913.70 1.101
913.80 1.101
913.90 1.101
914.00 1.1
914.10 1.1
914.20 1.1
914.30 1.1
914.40 1.1
914.50 1.1
914.60 1.1
914.70 1.099
914.80 1.099
914.90 1.099
915.00 1.099
915.10 1.099
915.20 1.099
915.30 1.099
915.40 1.098
915.50 1.098
915.60 1.098
915.70 1.098
915.80 1.098
915.90 1.098
916.00 1.098
916.10 1.097
916.20 1.097
916.30 1.097
916.40 1.097
916.50 1.097
916.60 1.097
916.70 1.097
916.80 1.096
916.90 1.096
917.00 1.096
917.10 1.096
917.20 1.096
917.30 1.096
917.40 1.096
917.50 1.095
917.60 1.095
917.70 1.095
917.80 1.095
917.90 1.095
918.00 1.095
918.10 1.095
918.20 1.094
918.30 1.094
918.40 1.094
918.50 1.094
918.60 1.094
918.70 1.094
918.80 1.094
918.90 1.093
919.00 1.093
919.10 1.093
919.20 1.093
919.30 1.093
919.40 1.093
919.50 1.092
919.60 1.092
919.70 1.092
919.80 1.092
919.90 1.092
920.00 1.092
920.10 1.092
920.20 1.091
920.30 1.091
920.40 1.091
920.50 1.091
920.60 1.091
920.70 1.091
920.80 1.091
920.90 1.09
921.00 1.09
921.10 1.09
921.20 1.09
921.30 1.09
921.40 1.09
921.50 1.09
921.60 1.089
921.70 1.089
921.80 1.089
921.90 1.089
922.00 1.089
922.10 1.089
922.20 1.089
922.30 1.088
922.40 1.088
922.50 1.088
922.60 1.088
922.70 1.088
922.80 1.088
922.90 1.088
923.00 1.087
923.10 1.087
923.20 1.087
923.30 1.087
923.40 1.087
923.50 1.087
923.60 1.086
923.70 1.086
923.80 1.086
923.90 1.086
924.00 1.086
924.10 1.086
924.20 1.086
924.30 1.085
924.40 1.085
924.50 1.085
924.60 1.085
924.70 1.085
924.80 1.085
924.90 1.085
925.00 1.084
925.10 1.084
925.20 1.084
925.30 1.084
925.40 1.084
925.50 1.084
925.60 1.084
925.70 1.083
925.80 1.083
925.90 1.083
926.00 1.083
926.10 1.083
926.20 1.083
926.30 1.082
926.40 1.082
926.50 1.082
926.60 1.082
926.70 1.082
926.80 1.082
926.90 1.082
927.00 1.081
927.10 1.081
927.20 1.081
927.30 1.081
927.40 1.081
927.50 1.081
927.60 1.081
927.70 1.08
927.80 1.08
927.90 1.08
928.00 1.08
928.10 1.08
928.20 1.08
928.30 1.08
928.40 1.079
928.50 1.079
928.60 1.079
928.70 1.079
928.80 1.079
928.90 1.079
929.00 1.078
929.10 1.078
929.20 1.078
929.30 1.078
929.40 1.078
929.50 1.078
929.60 1.078
929.70 1.077
929.80 1.077
929.90 1.077
930.00 1.077
930.10 1.077
930.20 1.077
930.30 1.077
930.40 1.076
930.50 1.076
930.60 1.076
930.70 1.076
930.80 1.076
930.90 1.076
931.00 1.075
931.10 1.075
931.20 1.075
931.30 1.075
931.40 1.075
931.50 1.075
931.60 1.075
931.70 1.074
931.80 1.074
931.90 1.074
932.00 1.074
932.10 1.074
932.20 1.074
932.30 1.074
932.40 1.073
932.50 1.073
932.60 1.073
932.70 1.073
932.80 1.073
932.90 1.073
933.00 1.072
933.10 1.072
933.20 1.072
933.30 1.072
933.40 1.072
933.50 1.072
933.60 1.072
933.70 1.071
933.80 1.071
933.90 1.071
934.00 1.071
934.10 1.071
934.20 1.071
934.30 1.071
934.40 1.07
934.50 1.07
934.60 1.07
934.70 1.07
934.80 1.07
934.90 1.07
935.00 1.069
935.10 1.069
935.20 1.069
935.30 1.069
935.40 1.069
935.50 1.069
935.60 1.069
935.70 1.068
935.80 1.068
935.90 1.068
936.00 1.068
936.10 1.068
936.20 1.068
936.30 1.067
936.40 1.067
936.50 1.067
936.60 1.067
936.70 1.067
936.80 1.067
936.90 1.067
937.00 1.066
937.10 1.066
937.20 1.066
937.30 1.066
937.40 1.066
937.50 1.066
937.60 1.066
937.70 1.065
937.80 1.065
937.90 1.065
938.00 1.065
938.10 1.065
938.20 1.065
938.30 1.064
938.40 1.064
938.50 1.064
938.60 1.064
938.70 1.064
938.80 1.064
938.90 1.064
939.00 1.063
939.10 1.063
939.20 1.063
939.30 1.063
939.40 1.063
939.50 1.063
939.60 1.062
939.70 1.062
939.80 1.062
939.90 1.062
940.00 1.062
940.10 1.062
940.20 1.062
940.30 1.061
940.40 1.061
940.50 1.061
940.60 1.061
940.70 1.061
940.80 1.061
940.90 1.06
941.00 1.06
941.10 1.06
941.20 1.06
941.30 1.06
941.40 1.06
941.50 1.06
941.60 1.059
941.70 1.059
941.80 1.059
941.90 1.059
942.00 1.059
942.10 1.059
942.20 1.058
942.30 1.058
942.40 1.058
942.50 1.058
942.60 1.058
942.70 1.058
942.80 1.058
942.90 1.057
943.00 1.057
943.10 1.057
943.20 1.057
943.30 1.057
943.40 1.057
943.50 1.056
943.60 1.056
943.70 1.056
943.80 1.056
943.90 1.056
944.00 1.056
944.10 1.056
944.20 1.055
944.30 1.055
944.40 1.055
944.50 1.055
944.60 1.055
944.70 1.055
944.80 1.054
944.90 1.054
945.00 1.054
945.10 1.054
945.20 1.054
945.30 1.054
945.40 1.054
945.50 1.053
945.60 1.053
945.70 1.053
945.80 1.053
945.90 1.053
946.00 1.053
946.10 1.052
946.20 1.052
946.30 1.052
946.40 1.052
946.50 1.052
946.60 1.052
946.70 1.051
946.80 1.051
946.90 1.051
947.00 1.051
947.10 1.051
947.20 1.051
947.30 1.051
947.40 1.05
947.50 1.05
947.60 1.05
947.70 1.05
947.80 1.05
947.90 1.05
948.00 1.049
948.10 1.049
948.20 1.049
948.30 1.049
948.40 1.049
948.50 1.049
948.60 1.049
948.70 1.048
948.80 1.048
948.90 1.048
949.00 1.048
949.10 1.048
949.20 1.048
949.30 1.047
949.40 1.047
949.50 1.047
949.60 1.047
949.70 1.047
949.80 1.047
949.90 1.046
950.00 1.046
950.10 1.046
950.20 1.046
950.30 1.046
950.40 1.046
950.50 1.046
950.60 1.045
950.70 1.045
950.80 1.045
950.90 1.045
951.00 1.045
951.10 1.045
951.20 1.044
951.30 1.044
951.40 1.044
951.50 1.044
951.60 1.044
951.70 1.044
951.80 1.043
951.90 1.043
952.00 1.043
952.10 1.043
952.20 1.043
952.30 1.043
952.40 1.043
952.50 1.042
952.60 1.042
952.70 1.042
952.80 1.042
952.90 1.042
953.00 1.042
953.10 1.041
953.20 1.041
953.30 1.041
953.40 1.041
953.50 1.041
953.60 1.041
953.70 1.04
953.80 1.04
953.90 1.04
954.00 1.04
954.10 1.04
954.20 1.04
954.30 1.04
954.40 1.039
954.50 1.039
954.60 1.039
954.70 1.039
954.80 1.039
954.90 1.039
955.00 1.038
955.10 1.038
955.20 1.038
955.30 1.038
955.40 1.038
955.50 1.038
955.60 1.037
955.70 1.037
955.80 1.037
955.90 1.037
956.00 1.037
956.10 1.037
956.20 1.037
956.30 1.036
956.40 1.036
956.50 1.036
956.60 1.036
956.70 1.036
956.80 1.036
956.90 1.035
957.00 1.035
957.10 1.035
957.20 1.035
957.30 1.035
957.40 1.035
957.50 1.034
957.60 1.034
957.70 1.034
957.80 1.034
957.90 1.034
958.00 1.034
958.10 1.033
958.20 1.033
958.30 1.033
958.40 1.033
958.50 1.033
958.60 1.033
958.70 1.033
958.80 1.032
958.90 1.032
959.00 1.032
959.10 1.032
959.20 1.032
959.30 1.032
959.40 1.031
959.50 1.031
959.60 1.031
959.70 1.031
959.80 1.031
959.90 1.031
960.00 1.03
960.10 1.03
960.20 1.03
960.30 1.03
960.40 1.03
960.50 1.03
960.60 1.029
960.70 1.029
960.80 1.029
960.90 1.029
961.00 1.029
961.10 1.029
961.20 1.029
961.30 1.028
961.40 1.028
961.50 1.028
961.60 1.028
961.70 1.028
961.80 1.028
961.90 1.027
962.00 1.027
962.10 1.027
962.20 1.027
962.30 1.027
962.40 1.027
962.50 1.026
962.60 1.026
962.70 1.026
962.80 1.026
962.90 1.026
963.00 1.026
963.10 1.025
963.20 1.025
963.30 1.025
963.40 1.025
963.50 1.025
963.60 1.025
963.70 1.025
963.80 1.024
963.90 1.024
964.00 1.024
964.10 1.024
964.20 1.024
964.30 1.024
964.40 1.023
964.50 1.023
964.60 1.023
964.70 1.023
964.80 1.023
964.90 1.023
965.00 1.022
965.10 1.022
965.20 1.022
965.30 1.022
965.40 1.022
965.50 1.022
965.60 1.021
965.70 1.021
965.80 1.021
965.90 1.021
966.00 1.021
966.10 1.021
966.20 1.021
966.30 1.02
966.40 1.02
966.50 1.02
966.60 1.02
966.70 1.02
966.80 1.02
966.90 1.019
967.00 1.019
967.10 1.019
967.20 1.019
967.30 1.019
967.40 1.019
967.50 1.018
967.60 1.018
967.70 1.018
967.80 1.018
967.90 1.018
968.00 1.018
968.10 1.017
968.20 1.017
968.30 1.017
968.40 1.017
968.50 1.017
968.60 1.017
968.70 1.016
968.80 1.016
968.90 1.016
969.00 1.016
969.10 1.016
969.20 1.016
969.30 1.015
969.40 1.015
969.50 1.015
969.60 1.015
969.70 1.015
969.80 1.015
969.90 1.015
970.00 1.014
970.10 1.014
970.20 1.014
970.30 1.014
970.40 1.014
970.50 1.014
970.60 1.013
970.70 1.013
970.80 1.013
970.90 1.013
971.00 1.013
971.10 1.013
971.20 1.012
971.30 1.012
971.40 1.012
971.50 1.012
971.60 1.012
971.70 1.012
971.80 1.011
971.90 1.011
972.00 1.011
972.10 1.011
972.20 1.011
972.30 1.011
972.40 1.01
972.50 1.01
972.60 1.01
972.70 1.01
972.80 1.01
972.90 1.01
973.00 1.009
973.10 1.009
973.20 1.009
973.30 1.009
973.40 1.009
973.50 1.009
973.60 1.009
973.70 1.008
973.80 1.008
973.90 1.008
974.00 1.008
974.10 1.008
974.20 1.008
974.30 1.007
974.40 1.007
974.50 1.007
974.60 1.007
974.70 1.007
974.80 1.007
974.90 1.006
975.00 1.006
975.10 1.006
975.20 1.006
975.30 1.006
975.40 1.006
975.50 1.005
975.60 1.005
975.70 1.005
975.80 1.005
975.90 1.005
976.00 1.005
976.10 1.004
976.20 1.004
976.30 1.004
976.40 1.004
976.50 1.004
976.60 1.004
976.70 1.003
976.80 1.003
976.90 1.003
977.00 1.003
977.10 1.003
977.20 1.003
977.30 1.002
977.40 1.002
977.50 1.002
977.60 1.002
977.70 1.002
977.80 1.002
977.90 1.002
978.00 1.001
978.10 1.001
978.20 1.001
978.30 1.001
978.40 1.001
978.50 1.001
978.60 1
978.70 1
978.80 1
978.90 0.9999
979.00 0.9997
979.10 0.9996
979.20 0.9994
979.30 0.9992
979.40 0.9991
979.50 0.9989
979.60 0.9987
979.70 0.9986
979.80 0.9984
979.90 0.9983
980.00 0.9981
980.10 0.9979
980.20 0.9978
980.30 0.9976
980.40 0.9974
980.50 0.9973
980.60 0.9971
980.70 0.997
980.80 0.9968
980.90 0.9966
981.00 0.9965
981.10 0.9963
981.20 0.9961
981.30 0.996
981.40 0.9958
981.50 0.9957
981.60 0.9955
981.70 0.9953
981.80 0.9952
981.90 0.995
982.00 0.9949
982.10 0.9947
982.20 0.9945
982.30 0.9944
982.40 0.9942
982.50 0.994
982.60 0.9939
982.70 0.9937
982.80 0.9935
982.90 0.9934
983.00 0.9932
983.10 0.993
983.20 0.9929
983.30 0.9927
983.40 0.9926
983.50 0.9924
983.60 0.9922
983.70 0.9921
983.80 0.9919
983.90 0.9917
984.00 0.9916
984.10 0.9914
984.20 0.9912
984.30 0.9911
984.40 0.9909
984.50 0.9908
984.60 0.9906
984.70 0.9904
984.80 0.9903
984.90 0.9901
985.00 0.9899
985.10 0.9898
985.20 0.9896
985.30 0.9894
985.40 0.9893
985.50 0.9891
985.60 0.989
985.70 0.9888
985.80 0.9886
985.90 0.9885
986.00 0.9883
986.10 0.9881
986.20 0.988
986.30 0.9878
986.40 0.9876
986.50 0.9875
986.60 0.9873
986.70 0.9872
986.80 0.987
986.90 0.9868
987.00 0.9867
987.10 0.9865
987.20 0.9863
987.30 0.9862
987.40 0.986
987.50 0.9859
987.60 0.9857
987.70 0.9855
987.80 0.9854
987.90 0.9852
988.00 0.985
988.10 0.9849
988.20 0.9847
988.30 0.9846
988.40 0.9844
988.50 0.9842
988.60 0.9841
988.70 0.9839
988.80 0.9838
988.90 0.9836
989.00 0.9834
989.10 0.9833
989.20 0.9831
989.30 0.9829
989.40 0.9828
989.50 0.9826
989.60 0.9824
989.70 0.9823
989.80 0.9821
989.90 0.982
990.00 0.9818
990.10 0.9816
990.20 0.9815
990.30 0.9813
990.40 0.9811
990.50 0.981
990.60 0.9808
990.70 0.9807
990.80 0.9805
990.90 0.9803
991.00 0.9802
991.10 0.98
991.20 0.9798
991.30 0.9797
991.40 0.9795
991.50 0.9793
991.60 0.9792
991.70 0.979
991.80 0.9789
991.90 0.9787
992.00 0.9785
992.10 0.9784
992.20 0.9782
992.30 0.978
992.40 0.9779
992.50 0.9777
992.60 0.9775
992.70 0.9774
992.80 0.9772
992.90 0.9771
993.00 0.9769
993.10 0.9767
993.20 0.9766
993.30 0.9764
993.40 0.9762
993.50 0.9761
993.60 0.9759
993.70 0.9757
993.80 0.9756
993.90 0.9754
994.00 0.9753
994.10 0.9751
994.20 0.9749
994.30 0.9748
994.40 0.9746
994.50 0.9744
994.60 0.9743
994.70 0.9741
994.80 0.974
994.90 0.9738
995.00 0.9736
995.10 0.9735
995.20 0.9733
995.30 0.9731
995.40 0.973
995.50 0.9728
995.60 0.9726
995.70 0.9725
995.80 0.9723
995.90 0.9721
996.00 0.972
996.10 0.9718
996.20 0.9717
996.30 0.9715
996.40 0.9713
996.50 0.9712
996.60 0.971
996.70 0.9709
996.80 0.9707
996.90 0.9705
997.00 0.9704
997.10 0.9702
997.20 0.97
997.30 0.9699
997.40 0.9697
997.50 0.9696
997.60 0.9694
997.70 0.9692
997.80 0.9691
997.90 0.9689
998.00 0.9687
998.10 0.9686
998.20 0.9684
998.30 0.9682
998.40 0.9681
998.50 0.9679
998.60 0.9678
998.70 0.9676
998.80 0.9674
998.90 0.9673
999.00 0.9671
999.10 0.9669
999.20 0.9668
999.30 0.9666
999.40 0.9664
999.50 0.9663
999.60 0.9661
999.70 0.966
999.80 0.9658
999.90 0.9656
1000.00 0.9655
1000.10 0.9653
1000.20 0.9651
1000.30 0.965
1000.40 0.9648
1000.50 0.9647
1000.60 0.9645
1000.70 0.9643
1000.80 0.9642
1000.90 0.964
1001.00 0.9639
1001.10 0.9637
1001.20 0.9635
1001.30 0.9634
1001.40 0.9632
1001.50 0.9631
1001.60 0.9629
1001.70 0.9627
1001.80 0.9626
1001.90 0.9624
1002.00 0.9623
1002.10 0.9621
1002.20 0.9619
1002.30 0.9618
1002.40 0.9616
1002.50 0.9614
1002.60 0.9613
1002.70 0.9611
1002.80 0.961
1002.90 0.9608
1003.00 0.9606
1003.10 0.9605
1003.20 0.9603
1003.30 0.9601
1003.40 0.96
1003.50 0.9598
1003.60 0.9597
1003.70 0.9595
1003.80 0.9593
1003.90 0.9592
1004.00 0.959
1004.10 0.9589
1004.20 0.9587
1004.30 0.9585
1004.40 0.9584
1004.50 0.9582
1004.60 0.958
1004.70 0.9579
1004.80 0.9577
1004.90 0.9576
1005.00 0.9574
1005.10 0.9572
1005.20 0.9571
1005.30 0.9569
1005.40 0.9568
1005.50 0.9566
1005.60 0.9564
1005.70 0.9563
1005.80 0.9561
1005.90 0.956
1006.00 0.9558
1006.10 0.9556
1006.20 0.9555
1006.30 0.9553
1006.40 0.9552
1006.50 0.955
1006.60 0.9548
1006.70 0.9547
1006.80 0.9545
1006.90 0.9544
1007.00 0.9542
1007.10 0.954
1007.20 0.9539
1007.30 0.9537
1007.40 0.9535
1007.50 0.9534
1007.60 0.9532
1007.70 0.9531
1007.80 0.9529
1007.90 0.9527
1008.00 0.9526
1008.10 0.9524
1008.20 0.9523
1008.30 0.9521
1008.40 0.9519
1008.50 0.9518
1008.60 0.9516
1008.70 0.9515
1008.80 0.9513
1008.90 0.9511
1009.00 0.951
1009.10 0.9508
1009.20 0.9507
1009.30 0.9505
1009.40 0.9503
1009.50 0.9502
1009.60 0.95
1009.70 0.9499
1009.80 0.9497
1009.90 0.9496
1010.00 0.9494
1010.10 0.9492
1010.20 0.9491
1010.30 0.9489
1010.40 0.9487
1010.50 0.9486
1010.60 0.9484
1010.70 0.9483
1010.80 0.9481
1010.90 0.9479
1011.00 0.9478
1011.10 0.9476
1011.20 0.9475
1011.30 0.9473
1011.40 0.9471
1011.50 0.947
1011.60 0.9468
1011.70 0.9467
1011.80 0.9465
1011.90 0.9463
1012.00 0.9462
1012.10 0.946
1012.20 0.9459
1012.30 0.9457
1012.40 0.9455
1012.50 0.9454
1012.60 0.9452
1012.70 0.9451
1012.80 0.9449
1012.90 0.9448
1013.00 0.9446
1013.10 0.9444
1013.20 0.9443
1013.30 0.9441
1013.40 0.944
1013.50 0.9438
1013.60 0.9436
1013.70 0.9435
1013.80 0.9433
1013.90 0.9432
1014.00 0.943
1014.10 0.9428
1014.20 0.9427
1014.30 0.9425
1014.40 0.9424
1014.50 0.9422
1014.60 0.942
1014.70 0.9419
1014.80 0.9417
1014.90 0.9416
1015.00 0.9414
1015.10 0.9413
1015.20 0.9411
1015.30 0.9409
1015.40 0.9408
1015.50 0.9406
1015.60 0.9405
1015.70 0.9403
1015.80 0.9401
1015.90 0.94
1016.00 0.9398
1016.10 0.9397
1016.20 0.9395
1016.30 0.9394
1016.40 0.9392
1016.50 0.939
1016.60 0.9389
1016.70 0.9387
1016.80 0.9386
1016.90 0.9384
1017.00 0.9382
1017.10 0.9381
1017.20 0.9379
1017.30 0.9378
1017.40 0.9376
1017.50 0.9375
1017.60 0.9373
1017.70 0.9372
1017.80 0.937
1017.90 0.9368
1018.00 0.9367
1018.10 0.9365
1018.20 0.9364
1018.30 0.9362
1018.40 0.9361
1018.50 0.9359
1018.60 0.9357
1018.70 0.9356
1018.80 0.9354
1018.90 0.9353
1019.00 0.9351
1019.10 0.935
1019.20 0.9348
1019.30 0.9346
1019.40 0.9345
1019.50 0.9343
1019.60 0.9342
1019.70 0.934
1019.80 0.9338
1019.90 0.9337
1020.00 0.9335
1020.10 0.9334
1020.20 0.9332
1020.30 0.9331
1020.40 0.9329
1020.50 0.9327
1020.60 0.9326
1020.70 0.9324
1020.80 0.9323
1020.90 0.9321
1021.00 0.932
1021.10 0.9318
1021.20 0.9316
1021.30 0.9315
1021.40 0.9313
1021.50 0.9312
1021.60 0.931
1021.70 0.9309
1021.80 0.9307
1021.90 0.9305
1022.00 0.9304
1022.10 0.9302
1022.20 0.9301
1022.30 0.9299
1022.40 0.9298
1022.50 0.9296
1022.60 0.9295
1022.70 0.9293
1022.80 0.9291
1022.90 0.929
1023.00 0.9288
1023.10 0.9287
1023.20 0.9285
1023.30 0.9284
1023.40 0.9282
1023.50 0.928
1023.60 0.9279
1023.70 0.9277
1023.80 0.9276
1023.90 0.9274
1024.00 0.9273
1024.10 0.9271
1024.20 0.927
1024.30 0.9268
1024.40 0.9266
1024.50 0.9265
1024.60 0.9263
1024.70 0.9262
1024.80 0.926
1024.90 0.9259
1025.00 0.9257
1025.10 0.9255
1025.20 0.9254
1025.30 0.9252
1025.40 0.9251
1025.50 0.9249
1025.60 0.9248
1025.70 0.9246
1025.80 0.9245
1025.90 0.9243
1026.00 0.9241
1026.10 0.924
1026.20 0.9238
1026.30 0.9237
1026.40 0.9235
1026.50 0.9234
1026.60 0.9232
1026.70 0.923
1026.80 0.9229
1026.90 0.9227
1027.00 0.9226
1027.10 0.9224
1027.20 0.9223
1027.30 0.9221
1027.40 0.922
1027.50 0.9218
1027.60 0.9216
1027.70 0.9215
1027.80 0.9213
1027.90 0.9212
1028.00 0.921
1028.10 0.9209
1028.20 0.9207
1028.30 0.9206
1028.40 0.9204
1028.50 0.9203
1028.60 0.9201
1028.70 0.9199
1028.80 0.9198
1028.90 0.9196
1029.00 0.9195
1029.10 0.9193
1029.20 0.9192
1029.30 0.919
1029.40 0.9189
1029.50 0.9187
1029.60 0.9186
1029.70 0.9184
1029.80 0.9182
1029.90 0.9181
1030.00 0.9179
1030.10 0.9178
1030.20 0.9176
1030.30 0.9175
1030.40 0.9173
1030.50 0.9172
1030.60 0.917
1030.70 0.9169
1030.80 0.9167
1030.90 0.9166
1031.00 0.9164
1031.10 0.9163
1031.20 0.9161
1031.30 0.9159
1031.40 0.9158
1031.50 0.9156
1031.60 0.9155
1031.70 0.9153
1031.80 0.9152
1031.90 0.915
1032.00 0.9149
1032.10 0.9147
1032.20 0.9146
1032.30 0.9144
1032.40 0.9143
1032.50 0.9141
1032.60 0.914
1032.70 0.9138
1032.80 0.9136
1032.90 0.9135
1033.00 0.9133
1033.10 0.9132
1033.20 0.913
1033.30 0.9129
1033.40 0.9127
1033.50 0.9126
1033.60 0.9124
1033.70 0.9123
1033.80 0.9121
1033.90 0.912
1034.00 0.9118
1034.10 0.9117
1034.20 0.9115
1034.30 0.9114
1034.40 0.9112
1034.50 0.9111
1034.60 0.9109
1034.70 0.9108
1034.80 0.9106
1034.90 0.9105
1035.00 0.9103
1035.10 0.9101
1035.20 0.91
1035.30 0.9098
1035.40 0.9097
1035.50 0.9095
1035.60 0.9094
1035.70 0.9092
1035.80 0.9091
1035.90 0.9089
1036.00 0.9088
1036.10 0.9086
1036.20 0.9085
1036.30 0.9083
1036.40 0.9082
1036.50 0.908
1036.60 0.9079
1036.70 0.9077
1036.80 0.9076
1036.90 0.9074
1037.00 0.9073
1037.10 0.9071
1037.20 0.907
1037.30 0.9068
1037.40 0.9067
1037.50 0.9065
1037.60 0.9064
1037.70 0.9062
1037.80 0.9061
1037.90 0.9059
1038.00 0.9058
1038.10 0.9056
1038.20 0.9055
1038.30 0.9053
1038.40 0.9052
1038.50 0.905
1038.60 0.9049
1038.70 0.9047
1038.80 0.9046
1038.90 0.9044
1039.00 0.9043
1039.10 0.9041
1039.20 0.904
1039.30 0.9038
1039.40 0.9037
1039.50 0.9035
1039.60 0.9034
1039.70 0.9032
1039.80 0.9031
1039.90 0.9029
1040.00 0.9028
1040.10 0.9026
1040.20 0.9025
1040.30 0.9023
1040.40 0.9022
1040.50 0.902
1040.60 0.9019
1040.70 0.9017
1040.80 0.9016
1040.90 0.9014
1041.00 0.9013
1041.10 0.9011
1041.20 0.901
1041.30 0.9008
1041.40 0.9007
1041.50 0.9005
1041.60 0.9004
1041.70 0.9002
1041.80 0.9001
1041.90 0.8999
1042.00 0.8998
1042.10 0.8996
1042.20 0.8995
1042.30 0.8993
1042.40 0.8992
1042.50 0.899
1042.60 0.8989
1042.70 0.8987
1042.80 0.8986
1042.90 0.8984
1043.00 0.8983
1043.10 0.8981
1043.20 0.898
1043.30 0.8978
1043.40 0.8977
1043.50 0.8975
1043.60 0.8974
1043.70 0.8972
1043.80 0.8971
1043.90 0.897
1044.00 0.8968
1044.10 0.8967
1044.20 0.8965
1044.30 0.8964
1044.40 0.8962
1044.50 0.8961
1044.60 0.8959
1044.70 0.8958
1044.80 0.8956
1044.90 0.8955
1045.00 0.8953
1045.10 0.8952
1045.20 0.895
1045.30 0.8949
1045.40 0.8947
1045.50 0.8946
1045.60 0.8944
1045.70 0.8943
1045.80 0.8941
1045.90 0.894
1046.00 0.8939
1046.10 0.8937
1046.20 0.8936
1046.30 0.8934
1046.40 0.8933
1046.50 0.8931
1046.60 0.893
1046.70 0.8928
1046.80 0.8927
1046.90 0.8925
1047.00 0.8924
1047.10 0.8922
1047.20 0.8921
1047.30 0.8919
1047.40 0.8918
1047.50 0.8916
1047.60 0.8915
1047.70 0.8914
1047.80 0.8912
1047.90 0.8911
1048.00 0.8909
1048.10 0.8908
1048.20 0.8906
1048.30 0.8905
1048.40 0.8903
1048.50 0.8902
1048.60 0.89
1048.70 0.8899
1048.80 0.8897
1048.90 0.8896
1049.00 0.8894
1049.10 0.8893
1049.20 0.8892
1049.30 0.889
1049.40 0.8889
1049.50 0.8887
1049.60 0.8886
1049.70 0.8884
1049.80 0.8883
1049.90 0.8881
1050.00 0.888
1050.10 0.8878
1050.20 0.8877
1050.30 0.8876
1050.40 0.8874
1050.50 0.8873
1050.60 0.8871
1050.70 0.887
1050.80 0.8868
1050.90 0.8867
1051.00 0.8865
1051.10 0.8864
1051.20 0.8862
1051.30 0.8861
1051.40 0.886
1051.50 0.8858
1051.60 0.8857
1051.70 0.8855
1051.80 0.8854
1051.90 0.8852
1052.00 0.8851
1052.10 0.8849
1052.20 0.8848
1052.30 0.8847
1052.40 0.8845
1052.50 0.8844
1052.60 0.8842
1052.70 0.8841
1052.80 0.8839
1052.90 0.8838
1053.00 0.8836
1053.10 0.8835
1053.20 0.8834
1053.30 0.8832
1053.40 0.8831
1053.50 0.8829
1053.60 0.8828
1053.70 0.8826
1053.80 0.8825
1053.90 0.8824
1054.00 0.8822
1054.10 0.8821
1054.20 0.8819
1054.30 0.8818
1054.40 0.8816
1054.50 0.8815
1054.60 0.8814
1054.70 0.8812
1054.80 0.8811
1054.90 0.8809
1055.00 0.8808
1055.10 0.8806
1055.20 0.8805
1055.30 0.8804
1055.40 0.8802
1055.50 0.8801
1055.60 0.8799
1055.70 0.8798
1055.80 0.8797
1055.90 0.8795
1056.00 0.8794
1056.10 0.8792
1056.20 0.8791
1056.30 0.8789
1056.40 0.8788
1056.50 0.8787
1056.60 0.8785
1056.70 0.8784
1056.80 0.8782
1056.90 0.8781
1057.00 0.8779
1057.10 0.8778
1057.20 0.8777
1057.30 0.8775
1057.40 0.8774
1057.50 0.8772
1057.60 0.8771
1057.70 0.877
1057.80 0.8768
1057.90 0.8767
1058.00 0.8765
1058.10 0.8764
1058.20 0.8762
1058.30 0.8761
1058.40 0.876
1058.50 0.8758
1058.60 0.8757
1058.70 0.8755
1058.80 0.8754
1058.90 0.8753
1059.00 0.8751
1059.10 0.875
1059.20 0.8748
1059.30 0.8747
1059.40 0.8746
1059.50 0.8744
1059.60 0.8743
1059.70 0.8741
1059.80 0.874
1059.90 0.8738
1060.00 0.8737
1060.10 0.8736
1060.20 0.8734
1060.30 0.8733
1060.40 0.8731
1060.50 0.873
1060.60 0.8729
1060.70 0.8727
1060.80 0.8726
1060.90 0.8724
1061.00 0.8723
1061.10 0.8722
1061.20 0.872
1061.30 0.8719
1061.40 0.8717
1061.50 0.8716
1061.60 0.8715
1061.70 0.8713
1061.80 0.8712
1061.90 0.871
1062.00 0.8709
1062.10 0.8708
1062.20 0.8706
1062.30 0.8705
1062.40 0.8703
1062.50 0.8702
1062.60 0.8701
1062.70 0.8699
1062.80 0.8698
1062.90 0.8696
1063.00 0.8695
1063.10 0.8694
1063.20 0.8692
1063.30 0.8691
1063.40 0.869
1063.50 0.8688
1063.60 0.8687
1063.70 0.8685
1063.80 0.8684
1063.90 0.8683
1064.00 0.8681
1064.10 0.868
1064.20 0.8678
1064.30 0.8677
1064.40 0.8676
1064.50 0.8674
1064.60 0.8673
1064.70 0.8672
1064.80 0.867
1064.90 0.8669
1065.00 0.8667
1065.10 0.8666
1065.20 0.8665
1065.30 0.8663
1065.40 0.8662
1065.50 0.866
1065.60 0.8659
1065.70 0.8658
1065.80 0.8656
1065.90 0.8655
1066.00 0.8654
1066.10 0.8652
1066.20 0.8651
1066.30 0.8649
1066.40 0.8648
1066.50 0.8647
1066.60 0.8645
1066.70 0.8644
1066.80 0.8643
1066.90 0.8641
1067.00 0.864
1067.10 0.8638
1067.20 0.8637
1067.30 0.8636
1067.40 0.8634
1067.50 0.8633
1067.60 0.8632
1067.70 0.863
1067.80 0.8629
1067.90 0.8628
1068.00 0.8626
1068.10 0.8625
1068.20 0.8623
1068.30 0.8622
1068.40 0.8621
1068.50 0.8619
1068.60 0.8618
1068.70 0.8617
1068.80 0.8615
1068.90 0.8614
1069.00 0.8613
1069.10 0.8611
1069.20 0.861
1069.30 0.8609
1069.40 0.8607
1069.50 0.8606
1069.60 0.8604
1069.70 0.8603
1069.80 0.8602
1069.90 0.86
1070.00 0.8599
1070.10 0.8598
1070.20 0.8596
1070.30 0.8595
1070.40 0.8594
1070.50 0.8592
1070.60 0.8591
1070.70 0.859
1070.80 0.8588
1070.90 0.8587
1071.00 0.8586
1071.10 0.8584
1071.20 0.8583
1071.30 0.8582
1071.40 0.858
1071.50 0.8579
1071.60 0.8577
1071.70 0.8576
1071.80 0.8575
1071.90 0.8573
1072.00 0.8572
1072.10 0.8571
1072.20 0.8569
1072.30 0.8568
1072.40 0.8567
1072.50 0.8565
1072.60 0.8564
1072.70 0.8563
1072.80 0.8561
1072.90 0.856
1073.00 0.8558
1073.10 0.8557
1073.20 0.8556
1073.30 0.8554
1073.40 0.8553
1073.50 0.8552
1073.60 0.855
1073.70 0.8549
1073.80 0.8548
1073.90 0.8546
1074.00 0.8545
1074.10 0.8544
1074.20 0.8542
1074.30 0.8541
1074.40 0.854
1074.50 0.8538
1074.60 0.8537
1074.70 0.8536
1074.80 0.8534
1074.90 0.8533
1075.00 0.8532
1075.10 0.853
1075.20 0.8529
1075.30 0.8528
1075.40 0.8526
1075.50 0.8525
1075.60 0.8524
1075.70 0.8522
1075.80 0.8521
1075.90 0.852
1076.00 0.8518
1076.10 0.8517
1076.20 0.8516
1076.30 0.8514
1076.40 0.8513
1076.50 0.8512
1076.60 0.851
1076.70 0.8509
1076.80 0.8508
1076.90 0.8506
1077.00 0.8505
1077.10 0.8504
1077.20 0.8502
1077.30 0.8501
1077.40 0.85
1077.50 0.8498
1077.60 0.8497
1077.70 0.8496
1077.80 0.8494
1077.90 0.8493
1078.00 0.8492
1078.10 0.849
1078.20 0.8489
1078.30 0.8488
1078.40 0.8486
1078.50 0.8485
1078.60 0.8484
1078.70 0.8482
1078.80 0.8481
1078.90 0.848
1079.00 0.8478
1079.10 0.8477
1079.20 0.8476
1079.30 0.8474
1079.40 0.8473
1079.50 0.8472
1079.60 0.847
1079.70 0.8469
1079.80 0.8468
1079.90 0.8466
1080.00 0.8465
1080.10 0.8464
1080.20 0.8462
1080.30 0.8461
1080.40 0.846
1080.50 0.8459
1080.60 0.8457
1080.70 0.8456
1080.80 0.8455
1080.90 0.8453
1081.00 0.8452
1081.10 0.8451
1081.20 0.8449
1081.30 0.8448
1081.40 0.8447
1081.50 0.8445
1081.60 0.8444
1081.70 0.8443
1081.80 0.8441
1081.90 0.844
1082.00 0.8439
1082.10 0.8437
1082.20 0.8436
1082.30 0.8435
1082.40 0.8433
1082.50 0.8432
1082.60 0.8431
1082.70 0.843
1082.80 0.8428
1082.90 0.8427
1083.00 0.8426
1083.10 0.8424
1083.20 0.8423
1083.30 0.8422
1083.40 0.842
1083.50 0.8419
1083.60 0.8418
1083.70 0.8416
1083.80 0.8415
1083.90 0.8414
1084.00 0.8412
1084.10 0.8411
1084.20 0.841
1084.30 0.8408
1084.40 0.8407
1084.50 0.8406
1084.60 0.8405
1084.70 0.8403
1084.80 0.8402
1084.90 0.8401
1085.00 0.8399
1085.10 0.8398
1085.20 0.8397
1085.30 0.8395
1085.40 0.8394
1085.50 0.8393
1085.60 0.8391
1085.70 0.839
1085.80 0.8389
1085.90 0.8387
1086.00 0.8386
1086.10 0.8385
1086.20 0.8384
1086.30 0.8382
1086.40 0.8381
1086.50 0.838
1086.60 0.8378
1086.70 0.8377
1086.80 0.8376
1086.90 0.8375
1087.00 0.8373
1087.10 0.8372
1087.20 0.8371
1087.30 0.8369
1087.40 0.8368
1087.50 0.8367
1087.60 0.8365
1087.70 0.8364
1087.80 0.8363
1087.90 0.8361
1088.00 0.836
1088.10 0.8359
1088.20 0.8358
1088.30 0.8356
1088.40 0.8355
1088.50 0.8354
1088.60 0.8352
1088.70 0.8351
1088.80 0.835
1088.90 0.8348
1089.00 0.8347
1089.10 0.8346
1089.20 0.8345
1089.30 0.8343
1089.40 0.8342
1089.50 0.8341
1089.60 0.8339
1089.70 0.8338
1089.80 0.8337
1089.90 0.8336
1090.00 0.8334
1090.10 0.8333
1090.20 0.8332
1090.30 0.833
1090.40 0.8329
1090.50 0.8328
1090.60 0.8326
1090.70 0.8325
1090.80 0.8324
1090.90 0.8323
1091.00 0.8321
1091.10 0.832
1091.20 0.8319
1091.30 0.8317
1091.40 0.8316
1091.50 0.8315
1091.60 0.8314
1091.70 0.8312
1091.80 0.8311
1091.90 0.831
1092.00 0.8308
1092.10 0.8307
1092.20 0.8306
1092.30 0.8305
1092.40 0.8303
1092.50 0.8302
1092.60 0.8301
1092.70 0.83
1092.80 0.8298
1092.90 0.8297
1093.00 0.8296
1093.10 0.8295
1093.20 0.8293
1093.30 0.8292
1093.40 0.8291
1093.50 0.829
1093.60 0.8288
1093.70 0.8287
1093.80 0.8286
1093.90 0.8284
1094.00 0.8283
1094.10 0.8282
1094.20 0.828
1094.30 0.8279
1094.40 0.8278
1094.50 0.8277
1094.60 0.8275
1094.70 0.8274
1094.80 0.8273
1094.90 0.8272
1095.00 0.827
1095.10 0.8269
1095.20 0.8268
1095.30 0.8266
1095.40 0.8265
1095.50 0.8264
1095.60 0.8262
1095.70 0.8261
1095.80 0.826
1095.90 0.8259
1096.00 0.8257
1096.10 0.8256
1096.20 0.8255
1096.30 0.8253
1096.40 0.8252
1096.50 0.8251
1096.60 0.825
1096.70 0.8248
1096.80 0.8247
1096.90 0.8246
1097.00 0.8245
1097.10 0.8243
1097.20 0.8242
1097.30 0.8241
1097.40 0.824
1097.50 0.8238
1097.60 0.8237
1097.70 0.8236
1097.80 0.8234
1097.90 0.8233
1098.00 0.8232
1098.10 0.8231
1098.20 0.8229
1098.30 0.8228
1098.40 0.8227
1098.50 0.8226
1098.60 0.8224
1098.70 0.8223
1098.80 0.8222
1098.90 0.822
1099.00 0.8219
1099.10 0.8218
1099.20 0.8217
1099.30 0.8215
1099.40 0.8214
1099.50 0.8213
1099.60 0.8212
1099.70 0.821
1099.80 0.8209
1099.90 0.8208
1100.00 0.8206
1100.10 0.8205
1100.20 0.8204
1100.30 0.8203
1100.40 0.8201
1100.50 0.82
1100.60 0.8199
1100.70 0.8198
1100.80 0.8196
1100.90 0.8195
1101.00 0.8194
1101.10 0.8192
1101.20 0.8191
1101.30 0.819
1101.40 0.8189
1101.50 0.8187
1101.60 0.8186
1101.70 0.8185
1101.80 0.8184
1101.90 0.8182
1102.00 0.8181
1102.10 0.818
1102.20 0.8178
1102.30 0.8177
1102.40 0.8176
1102.50 0.8175
1102.60 0.8173
1102.70 0.8172
1102.80 0.8171
1102.90 0.817
1103.00 0.8168
1103.10 0.8167
1103.20 0.8166
1103.30 0.8165
1103.40 0.8163
1103.50 0.8162
1103.60 0.8161
1103.70 0.816
1103.80 0.8158
1103.90 0.8157
1104.00 0.8156
1104.10 0.8155
1104.20 0.8153
1104.30 0.8152
1104.40 0.8151
1104.50 0.8149
1104.60 0.8148
1104.70 0.8147
1104.80 0.8146
1104.90 0.8144
1105.00 0.8143
1105.10 0.8142
1105.20 0.8141
1105.30 0.8139
1105.40 0.8138
1105.50 0.8137
1105.60 0.8136
1105.70 0.8134
1105.80 0.8133
1105.90 0.8132
1106.00 0.8131
1106.10 0.8129
1106.20 0.8128
1106.30 0.8127
1106.40 0.8126
1106.50 0.8124
1106.60 0.8123
1106.70 0.8122
1106.80 0.8121
1106.90 0.8119
1107.00 0.8118
1107.10 0.8117
1107.20 0.8115
1107.30 0.8114
1107.40 0.8113
1107.50 0.8112
1107.60 0.811
1107.70 0.8109
1107.80 0.8108
1107.90 0.8107
1108.00 0.8105
1108.10 0.8104
1108.20 0.8103
1108.30 0.8102
1108.40 0.81
1108.50 0.8099
1108.60 0.8098
1108.70 0.8097
1108.80 0.8095
1108.90 0.8094
1109.00 0.8093
1109.10 0.8092
1109.20 0.809
1109.30 0.8089
1109.40 0.8088
1109.50 0.8087
1109.60 0.8085
1109.70 0.8084
1109.80 0.8083
1109.90 0.8082
1110.00 0.808
1110.10 0.8079
1110.20 0.8078
1110.30 0.8077
1110.40 0.8075
1110.50 0.8074
1110.60 0.8073
1110.70 0.8072
1110.80 0.807
1110.90 0.8069
1111.00 0.8068
1111.10 0.8067
1111.20 0.8065
1111.30 0.8064
1111.40 0.8063
1111.50 0.8062
1111.60 0.806
1111.70 0.8059
1111.80 0.8058
1111.90 0.8057
1112.00 0.8055
1112.10 0.8054
1112.20 0.8053
1112.30 0.8052
1112.40 0.805
1112.50 0.8049
1112.60 0.8048
1112.70 0.8047
1112.80 0.8045
1112.90 0.8044
1113.00 0.8043
1113.10 0.8042
1113.20 0.804
1113.30 0.8039
1113.40 0.8038
1113.50 0.8037
1113.60 0.8035
1113.70 0.8034
1113.80 0.8033
1113.90 0.8032
1114.00 0.803
1114.10 0.8029
1114.20 0.8028
1114.30 0.8027
1114.40 0.8025
1114.50 0.8024
1114.60 0.8023
1114.70 0.8022
1114.80 0.802
1114.90 0.8019
1115.00 0.8018
1115.10 0.8017
1115.20 0.8015
1115.30 0.8014
1115.40 0.8013
1115.50 0.8012
1115.60 0.801
1115.70 0.8009
1115.80 0.8008
1115.90 0.8007
1116.00 0.8005
1116.10 0.8004
1116.20 0.8003
1116.30 0.8002
1116.40 0.8
1116.50 0.7999
1116.60 0.7998
1116.70 0.7997
1116.80 0.7995
1116.90 0.7994
1117.00 0.7993
1117.10 0.7992
1117.20 0.7991
1117.30 0.7989
1117.40 0.7988
1117.50 0.7987
1117.60 0.7986
1117.70 0.7984
1117.80 0.7983
1117.90 0.7982
1118.00 0.7981
1118.10 0.7979
1118.20 0.7978
1118.30 0.7977
1118.40 0.7976
1118.50 0.7974
1118.60 0.7973
1118.70 0.7972
1118.80 0.7971
1118.90 0.7969
1119.00 0.7968
1119.10 0.7967
1119.20 0.7966
1119.30 0.7965
1119.40 0.7963
1119.50 0.7962
1119.60 0.7961
1119.70 0.796
1119.80 0.7958
1119.90 0.7957
1120.00 0.7956
1120.10 0.7955
1120.20 0.7953
1120.30 0.7952
1120.40 0.7951
1120.50 0.795
1120.60 0.7949
1120.70 0.7947
1120.80 0.7946
1120.90 0.7945
1121.00 0.7944
1121.10 0.7942
1121.20 0.7941
1121.30 0.794
1121.40 0.7939
1121.50 0.7937
1121.60 0.7936
1121.70 0.7935
1121.80 0.7934
1121.90 0.7933
1122.00 0.7931
1122.10 0.793
1122.20 0.7929
1122.30 0.7928
1122.40 0.7926
1122.50 0.7925
1122.60 0.7924
1122.70 0.7923
1122.80 0.7921
1122.90 0.792
1123.00 0.7919
1123.10 0.7918
1123.20 0.7917
1123.30 0.7915
1123.40 0.7914
1123.50 0.7913
1123.60 0.7912
1123.70 0.791
1123.80 0.7909
1123.90 0.7908
1124.00 0.7907
1124.10 0.7906
1124.20 0.7904
1124.30 0.7903
1124.40 0.7902
1124.50 0.7901
1124.60 0.7899
1124.70 0.7898
1124.80 0.7897
1124.90 0.7896
1125.00 0.7894
1125.10 0.7893
1125.20 0.7892
1125.30 0.7891
1125.40 0.789
1125.50 0.7888
1125.60 0.7887
1125.70 0.7886
1125.80 0.7885
1125.90 0.7883
1126.00 0.7882
1126.10 0.7881
1126.20 0.788
1126.30 0.7879
1126.40 0.7877
1126.50 0.7876
1126.60 0.7875
1126.70 0.7874
1126.80 0.7872
1126.90 0.7871
1127.00 0.787
1127.10 0.7869
1127.20 0.7868
1127.30 0.7866
1127.40 0.7865
1127.50 0.7864
1127.60 0.7863
1127.70 0.7861
1127.80 0.786
1127.90 0.7859
1128.00 0.7858
1128.10 0.7857
1128.20 0.7855
1128.30 0.7854
1128.40 0.7853
1128.50 0.7852
1128.60 0.785
1128.70 0.7849
1128.80 0.7848
1128.90 0.7847
1129.00 0.7845
1129.10 0.7844
1129.20 0.7843
1129.30 0.7842
1129.40 0.7841
1129.50 0.7839
1129.60 0.7838
1129.70 0.7837
1129.80 0.7836
1129.90 0.7834
1130.00 0.7833
1130.10 0.7832
1130.20 0.7831
1130.30 0.783
1130.40 0.7828
1130.50 0.7827
1130.60 0.7826
1130.70 0.7825
1130.80 0.7824
1130.90 0.7822
1131.00 0.7821
1131.10 0.782
1131.20 0.7819
1131.30 0.7817
1131.40 0.7816
1131.50 0.7815
1131.60 0.7814
1131.70 0.7813
1131.80 0.7811
1131.90 0.781
1132.00 0.7809
1132.10 0.7808
1132.20 0.7806
1132.30 0.7805
1132.40 0.7804
1132.50 0.7803
1132.60 0.7802
1132.70 0.78
1132.80 0.7799
1132.90 0.7798
1133.00 0.7797
1133.10 0.7795
1133.20 0.7794
1133.30 0.7793
1133.40 0.7792
1133.50 0.7791
1133.60 0.7789
1133.70 0.7788
1133.80 0.7787
1133.90 0.7786
1134.00 0.7784
1134.10 0.7783
1134.20 0.7782
1134.30 0.7781
1134.40 0.7779
1134.50 0.7778
1134.60 0.7777
1134.70 0.7776
1134.80 0.7775
1134.90 0.7773
1135.00 0.7772
1135.10 0.7771
1135.20 0.777
1135.30 0.7768
1135.40 0.7767
1135.50 0.7766
1135.60 0.7765
1135.70 0.7764
1135.80 0.7762
1135.90 0.7761
1136.00 0.776
1136.10 0.7759
1136.20 0.7758
1136.30 0.7756
1136.40 0.7755
1136.50 0.7754
1136.60 0.7753
1136.70 0.7751
1136.80 0.775
1136.90 0.7749
1137.00 0.7748
1137.10 0.7747
1137.20 0.7745
1137.30 0.7744
1137.40 0.7743
1137.50 0.7742
1137.60 0.774
1137.70 0.7739
1137.80 0.7738
1137.90 0.7737
1138.00 0.7736
1138.10 0.7734
1138.20 0.7733
1138.30 0.7732
1138.40 0.7731
1138.50 0.7729
1138.60 0.7728
1138.70 0.7727
1138.80 0.7726
1138.90 0.7725
1139.00 0.7723
1139.10 0.7722
1139.20 0.7721
1139.30 0.772
1139.40 0.7719
1139.50 0.7717
1139.60 0.7716
1139.70 0.7715
1139.80 0.7714
1139.90 0.7712
1140.00 0.7711
1140.10 0.771
1140.20 0.7709
1140.30 0.7708
1140.40 0.7706
1140.50 0.7705
1140.60 0.7704
1140.70 0.7703
1140.80 0.7702
1140.90 0.77
1141.00 0.7699
1141.10 0.7698
1141.20 0.7697
1141.30 0.7695
1141.40 0.7694
1141.50 0.7693
1141.60 0.7692
1141.70 0.7691
1141.80 0.7689
1141.90 0.7688
1142.00 0.7687
1142.10 0.7686
1142.20 0.7685
1142.30 0.7683
1142.40 0.7682
1142.50 0.7681
1142.60 0.768
1142.70 0.7678
1142.80 0.7677
1142.90 0.7676
1143.00 0.7675
1143.10 0.7674
1143.20 0.7672
1143.30 0.7671
1143.40 0.767
1143.50 0.7669
1143.60 0.7667
1143.70 0.7666
1143.80 0.7665
1143.90 0.7664
1144.00 0.7663
1144.10 0.7661
1144.20 0.766
1144.30 0.7659
1144.40 0.7658
1144.50 0.7656
1144.60 0.7655
1144.70 0.7654
1144.80 0.7653
1144.90 0.7652
1145.00 0.765
1145.10 0.7649
1145.20 0.7648
1145.30 0.7647
1145.40 0.7646
1145.50 0.7644
1145.60 0.7643
1145.70 0.7642
1145.80 0.7641
1145.90 0.7639
1146.00 0.7638
1146.10 0.7637
1146.20 0.7636
1146.30 0.7635
1146.40 0.7633
1146.50 0.7632
1146.60 0.7631
1146.70 0.763
1146.80 0.7629
1146.90 0.7627
1147.00 0.7626
1147.10 0.7625
1147.20 0.7624
1147.30 0.7622
1147.40 0.7621
1147.50 0.762
1147.60 0.7619
1147.70 0.7618
1147.80 0.7616
1147.90 0.7615
1148.00 0.7614
1148.10 0.7613
1148.20 0.7611
1148.30 0.761
1148.40 0.7609
1148.50 0.7608
1148.60 0.7607
1148.70 0.7605
1148.80 0.7604
1148.90 0.7603
1149.00 0.7602
1149.10 0.7601
1149.20 0.7599
1149.30 0.7598
1149.40 0.7597
1149.50 0.7596
1149.60 0.7594
1149.70 0.7593
1149.80 0.7592
1149.90 0.7591
1150.00 0.759
1150.10 0.7588
1150.20 0.7587
1150.30 0.7586
1150.40 0.7585
1150.50 0.7583
1150.60 0.7582
1150.70 0.7581
1150.80 0.758
1150.90 0.7579
1151.00 0.7577
1151.10 0.7576
1151.20 0.7575
1151.30 0.7574
1151.40 0.7573
1151.50 0.7571
1151.60 0.757
1151.70 0.7569
1151.80 0.7568
1151.90 0.7567
1152.00 0.7565
1152.10 0.7564
1152.20 0.7563
1152.30 0.7562
1152.40 0.756
1152.50 0.7559
1152.60 0.7558
1152.70 0.7557
1152.80 0.7556
1152.90 0.7554
1153.00 0.7553
1153.10 0.7552
1153.20 0.7551
1153.30 0.7549
1153.40 0.7548
1153.50 0.7547
1153.60 0.7546
1153.70 0.7545
1153.80 0.7543
1153.90 0.7542
1154.00 0.7541
1154.10 0.754
1154.20 0.7538
1154.30 0.7537
1154.40 0.7536
1154.50 0.7535
1154.60 0.7534
1154.70 0.7532
1154.80 0.7531
1154.90 0.753
1155.00 0.7529
1155.10 0.7528
1155.20 0.7526
1155.30 0.7525
1155.40 0.7524
1155.50 0.7523
1155.60 0.7521
1155.70 0.752
1155.80 0.7519
1155.90 0.7518
1156.00 0.7517
1156.10 0.7515
1156.20 0.7514
1156.30 0.7513
1156.40 0.7512
1156.50 0.7511
1156.60 0.7509
1156.70 0.7508
1156.80 0.7507
1156.90 0.7506
1157.00 0.7505
1157.10 0.7503
1157.20 0.7502
1157.30 0.7501
1157.40 0.75
1157.50 0.7498
1157.60 0.7497
1157.70 0.7496
1157.80 0.7495
1157.90 0.7493
1158.00 0.7492
1158.10 0.7491
1158.20 0.749
1158.30 0.7489
1158.40 0.7487
1158.50 0.7486
1158.60 0.7485
1158.70 0.7484
1158.80 0.7482
1158.90 0.7481
1159.00 0.748
1159.10 0.7479
1159.20 0.7478
1159.30 0.7476
1159.40 0.7475
1159.50 0.7474
1159.60 0.7473
1159.70 0.7471
1159.80 0.747
1159.90 0.7469
1160.00 0.7468
1160.10 0.7467
1160.20 0.7465
1160.30 0.7464
1160.40 0.7463
1160.50 0.7462
1160.60 0.7461
1160.70 0.7459
1160.80 0.7458
1160.90 0.7457
1161.00 0.7456
1161.10 0.7454
1161.20 0.7453
1161.30 0.7452
1161.40 0.7451
1161.50 0.745
1161.60 0.7448
1161.70 0.7447
1161.80 0.7446
1161.90 0.7445
1162.00 0.7444
1162.10 0.7442
1162.20 0.7441
1162.30 0.744
1162.40 0.7439
1162.50 0.7437
1162.60 0.7436
1162.70 0.7435
1162.80 0.7434
1162.90 0.7432
1163.00 0.7431
1163.10 0.743
1163.20 0.7429
1163.30 0.7428
1163.40 0.7426
1163.50 0.7425
1163.60 0.7424
1163.70 0.7423
1163.80 0.7421
1163.90 0.742
1164.00 0.7419
1164.10 0.7418
1164.20 0.7417
1164.30 0.7415
1164.40 0.7414
1164.50 0.7413
1164.60 0.7412
1164.70 0.741
1164.80 0.7409
1164.90 0.7408
1165.00 0.7407
1165.10 0.7406
1165.20 0.7404
1165.30 0.7403
1165.40 0.7402
1165.50 0.7401
1165.60 0.74
1165.70 0.7398
1165.80 0.7397
1165.90 0.7396
1166.00 0.7395
1166.10 0.7393
1166.20 0.7392
1166.30 0.7391
1166.40 0.739
1166.50 0.7389
1166.60 0.7387
1166.70 0.7386
1166.80 0.7385
1166.90 0.7384
1167.00 0.7383
1167.10 0.7381
1167.20 0.738
1167.30 0.7379
1167.40 0.7378
1167.50 0.7376
1167.60 0.7375
1167.70 0.7374
1167.80 0.7373
1167.90 0.7372
1168.00 0.737
1168.10 0.7369
1168.20 0.7368
1168.30 0.7367
1168.40 0.7365
1168.50 0.7364
1168.60 0.7363
1168.70 0.7362
1168.80 0.7361
1168.90 0.7359
1169.00 0.7358
1169.10 0.7357
1169.20 0.7356
1169.30 0.7354
1169.40 0.7353
1169.50 0.7352
1169.60 0.7351
1169.70 0.735
1169.80 0.7348
1169.90 0.7347
1170.00 0.7346
1170.10 0.7345
1170.20 0.7343
1170.30 0.7342
1170.40 0.7341
1170.50 0.734
1170.60 0.7339
1170.70 0.7337
1170.80 0.7336
1170.90 0.7335
1171.00 0.7334
1171.10 0.7333
1171.20 0.7331
1171.30 0.733
1171.40 0.7329
1171.50 0.7328
1171.60 0.7326
1171.70 0.7325
1171.80 0.7324
1171.90 0.7323
1172.00 0.7322
1172.10 0.732
1172.20 0.7319
1172.30 0.7318
1172.40 0.7317
1172.50 0.7315
1172.60 0.7314
1172.70 0.7313
1172.80 0.7312
1172.90 0.7311
1173.00 0.7309
1173.10 0.7308
1173.20 0.7307
1173.30 0.7306
1173.40 0.7304
1173.50 0.7303
1173.60 0.7302
1173.70 0.7301
1173.80 0.73
1173.90 0.7298
1174.00 0.7297
1174.10 0.7296
1174.20 0.7295
1174.30 0.7293
1174.40 0.7292
1174.50 0.7291
1174.60 0.729
1174.70 0.7289
1174.80 0.7287
1174.90 0.7286
1175.00 0.7285
1175.10 0.7284
1175.20 0.7282
1175.30 0.7281
1175.40 0.728
1175.50 0.7279
1175.60 0.7278
1175.70 0.7276
1175.80 0.7275
1175.90 0.7274
1176.00 0.7273
1176.10 0.7271
1176.20 0.727
1176.30 0.7269
1176.40 0.7268
1176.50 0.7267
1176.60 0.7265
1176.70 0.7264
1176.80 0.7263
1176.90 0.7262
1177.00 0.7261
1177.10 0.7259
1177.20 0.7258
1177.30 0.7257
1177.40 0.7256
1177.50 0.7254
1177.60 0.7253
1177.70 0.7252
1177.80 0.7251
1177.90 0.7249
1178.00 0.7248
1178.10 0.7247
1178.20 0.7246
1178.30 0.7245
1178.40 0.7243
1178.50 0.7242
1178.60 0.7241
1178.70 0.724
1178.80 0.7238
1178.90 0.7237
1179.00 0.7236
1179.10 0.7235
1179.20 0.7234
1179.30 0.7232
1179.40 0.7231
1179.50 0.723
1179.60 0.7229
1179.70 0.7227
1179.80 0.7226
1179.90 0.7225
1180.00 0.7224
1180.10 0.7223
1180.20 0.7221
1180.30 0.722
1180.40 0.7219
1180.50 0.7218
1180.60 0.7216
1180.70 0.7215
1180.80 0.7214
1180.90 0.7213
1181.00 0.7212
1181.10 0.721
1181.20 0.7209
1181.30 0.7208
1181.40 0.7207
1181.50 0.7206
1181.60 0.7204
1181.70 0.7203
1181.80 0.7202
1181.90 0.7201
1182.00 0.7199
1182.10 0.7198
1182.20 0.7197
1182.30 0.7196
1182.40 0.7194
1182.50 0.7193
1182.60 0.7192
1182.70 0.7191
1182.80 0.719
1182.90 0.7188
1183.00 0.7187
1183.10 0.7186
1183.20 0.7185
1183.30 0.7183
1183.40 0.7182
1183.50 0.7181
1183.60 0.718
1183.70 0.7178
1183.80 0.7177
1183.90 0.7176
1184.00 0.7175
1184.10 0.7174
1184.20 0.7172
1184.30 0.7171
1184.40 0.717
1184.50 0.7169
1184.60 0.7167
1184.70 0.7166
1184.80 0.7165
1184.90 0.7164
1185.00 0.7162
1185.10 0.7161
1185.20 0.716
1185.30 0.7159
1185.40 0.7158
1185.50 0.7156
1185.60 0.7155
1185.70 0.7154
1185.80 0.7153
1185.90 0.7151
1186.00 0.715
1186.10 0.7149
1186.20 0.7148
1186.30 0.7147
1186.40 0.7145
1186.50 0.7144
1186.60 0.7143
1186.70 0.7142
1186.80 0.714
1186.90 0.7139
1187.00 0.7138
1187.10 0.7137
1187.20 0.7136
1187.30 0.7134
1187.40 0.7133
1187.50 0.7132
1187.60 0.7131
1187.70 0.7129
1187.80 0.7128
1187.90 0.7127
1188.00 0.7126
1188.10 0.7124
1188.20 0.7123
1188.30 0.7122
1188.40 0.7121
1188.50 0.712
1188.60 0.7118
1188.70 0.7117
1188.80 0.7116
1188.90 0.7115
1189.00 0.7113
1189.10 0.7112
1189.20 0.7111
1189.30 0.711
1189.40 0.7109
1189.50 0.7107
1189.60 0.7106
1189.70 0.7105
1189.80 0.7104
1189.90 0.7102
1190.00 0.7101
1190.10 0.71
1190.20 0.7099
1190.30 0.7098
1190.40 0.7096
1190.50 0.7095
1190.60 0.7094
1190.70 0.7093
1190.80 0.7091
1190.90 0.709
1191.00 0.7089
1191.10 0.7088
1191.20 0.7087
1191.30 0.7085
1191.40 0.7084
1191.50 0.7083
1191.60 0.7082
1191.70 0.708
1191.80 0.7079
1191.90 0.7078
1192.00 0.7077
1192.10 0.7076
1192.20 0.7074
1192.30 0.7073
1192.40 0.7072
1192.50 0.7071
1192.60 0.7069
1192.70 0.7068
1192.80 0.7067
1192.90 0.7066
1193.00 0.7065
1193.10 0.7063
1193.20 0.7062
1193.30 0.7061
1193.40 0.706
1193.50 0.7058
1193.60 0.7057
1193.70 0.7056
1193.80 0.7055
1193.90 0.7054
1194.00 0.7052
1194.10 0.7051
1194.20 0.705
1194.30 0.7049
1194.40 0.7047
1194.50 0.7046
1194.60 0.7045
1194.70 0.7044
1194.80 0.7043
1194.90 0.7041
1195.00 0.704
1195.10 0.7039
1195.20 0.7038
1195.30 0.7036
1195.40 0.7035
1195.50 0.7034
1195.60 0.7033
1195.70 0.7032
1195.80 0.703
1195.90 0.7029
1196.00 0.7028
1196.10 0.7027
1196.20 0.7025
1196.30 0.7024
1196.40 0.7023
1196.50 0.7022
1196.60 0.7021
1196.70 0.7019
1196.80 0.7018
1196.90 0.7017
1197.00 0.7016
1197.10 0.7015
1197.20 0.7013
1197.30 0.7012
1197.40 0.7011
1197.50 0.701
1197.60 0.7008
1197.70 0.7007
1197.80 0.7006
1197.90 0.7005
1198.00 0.7003
1198.10 0.7002
1198.20 0.7001
1198.30 0.7
1198.40 0.6999
1198.50 0.6997
1198.60 0.6996
1198.70 0.6995
1198.80 0.6994
1198.90 0.6992
1199.00 0.6991
1199.10 0.699
1199.20 0.6989
1199.30 0.6988
1199.40 0.6986
1199.50 0.6985
1199.60 0.6984
1199.70 0.6983
1199.80 0.6981
1199.90 0.698
1200.00 0
