# Version 2.1 - nm, norm@500 to 1, cut digits, bergeron_130000_65.dat_130000
# Wavelength(nm)  Flambda(ergs/cm^s/s/nm)
300.00 7.001
300.10 6.992
300.20 6.983
300.30 6.974
300.40 6.965
300.50 6.956
300.60 6.947
300.70 6.939
300.80 6.93
300.90 6.921
301.00 6.912
301.10 6.903
301.20 6.895
301.30 6.886
301.40 6.877
301.50 6.869
301.60 6.86
301.70 6.851
301.80 6.843
301.90 6.834
302.00 6.825
302.10 6.817
302.20 6.808
302.30 6.799
302.40 6.791
302.50 6.782
302.60 6.774
302.70 6.765
302.80 6.757
302.90 6.748
303.00 6.74
303.10 6.731
303.20 6.723
303.30 6.714
303.40 6.706
303.50 6.697
303.60 6.689
303.70 6.681
303.80 6.672
303.90 6.664
304.00 6.656
304.10 6.647
304.20 6.639
304.30 6.631
304.40 6.622
304.50 6.614
304.60 6.606
304.70 6.597
304.80 6.589
304.90 6.581
305.00 6.573
305.10 6.564
305.20 6.556
305.30 6.548
305.40 6.54
305.50 6.532
305.60 6.524
305.70 6.515
305.80 6.507
305.90 6.499
306.00 6.491
306.10 6.483
306.20 6.475
306.30 6.467
306.40 6.459
306.50 6.451
306.60 6.443
306.70 6.435
306.80 6.427
306.90 6.419
307.00 6.411
307.10 6.403
307.20 6.395
307.30 6.387
307.40 6.379
307.50 6.371
307.60 6.363
307.70 6.355
307.80 6.347
307.90 6.339
308.00 6.332
308.10 6.324
308.20 6.316
308.30 6.308
308.40 6.3
308.50 6.293
308.60 6.285
308.70 6.277
308.80 6.269
308.90 6.261
309.00 6.254
309.10 6.246
309.20 6.238
309.30 6.231
309.40 6.223
309.50 6.215
309.60 6.208
309.70 6.2
309.80 6.192
309.90 6.185
310.00 6.177
310.10 6.169
310.20 6.162
310.30 6.154
310.40 6.147
310.50 6.139
310.60 6.132
310.70 6.124
310.80 6.117
310.90 6.109
311.00 6.102
311.10 6.094
311.20 6.087
311.30 6.079
311.40 6.072
311.50 6.064
311.60 6.057
311.70 6.049
311.80 6.042
311.90 6.035
312.00 6.027
312.10 6.02
312.20 6.012
312.30 6.005
312.40 5.998
312.50 5.99
312.60 5.983
312.70 5.976
312.80 5.968
312.90 5.961
313.00 5.954
313.10 5.947
313.20 5.939
313.30 5.932
313.40 5.925
313.50 5.918
313.60 5.911
313.70 5.903
313.80 5.896
313.90 5.889
314.00 5.882
314.10 5.875
314.20 5.868
314.30 5.86
314.40 5.853
314.50 5.846
314.60 5.839
314.70 5.832
314.80 5.825
314.90 5.818
315.00 5.811
315.10 5.804
315.20 5.797
315.30 5.79
315.40 5.783
315.50 5.776
315.60 5.769
315.70 5.762
315.80 5.755
315.90 5.748
316.00 5.741
316.10 5.734
316.20 5.727
316.30 5.72
316.40 5.713
316.50 5.706
316.60 5.699
316.70 5.692
316.80 5.686
316.90 5.679
317.00 5.672
317.10 5.665
317.20 5.658
317.30 5.651
317.40 5.645
317.50 5.638
317.60 5.631
317.70 5.624
317.80 5.617
317.90 5.611
318.00 5.604
318.10 5.597
318.20 5.591
318.30 5.584
318.40 5.577
318.50 5.57
318.60 5.564
318.70 5.557
318.80 5.55
318.90 5.544
319.00 5.537
319.10 5.53
319.20 5.524
319.30 5.517
319.40 5.511
319.50 5.504
319.60 5.497
319.70 5.491
319.80 5.484
319.90 5.478
320.00 5.471
320.10 5.465
320.20 5.458
320.30 5.452
320.40 5.445
320.50 5.439
320.60 5.432
320.70 5.426
320.80 5.419
320.90 5.413
321.00 5.406
321.10 5.4
321.20 5.394
321.30 5.387
321.40 5.381
321.50 5.374
321.60 5.368
321.70 5.362
321.80 5.355
321.90 5.349
322.00 5.342
322.10 5.336
322.20 5.33
322.30 5.323
322.40 5.317
322.50 5.311
322.60 5.305
322.70 5.298
322.80 5.292
322.90 5.286
323.00 5.279
323.10 5.273
323.20 5.267
323.30 5.261
323.40 5.255
323.50 5.248
323.60 5.242
323.70 5.236
323.80 5.23
323.90 5.224
324.00 5.217
324.10 5.211
324.20 5.205
324.30 5.199
324.40 5.193
324.50 5.187
324.60 5.181
324.70 5.174
324.80 5.168
324.90 5.162
325.00 5.156
325.10 5.15
325.20 5.144
325.30 5.138
325.40 5.132
325.50 5.126
325.60 5.12
325.70 5.114
325.80 5.108
325.90 5.102
326.00 5.096
326.10 5.09
326.20 5.084
326.30 5.078
326.40 5.072
326.50 5.066
326.60 5.06
326.70 5.054
326.80 5.048
326.90 5.042
327.00 5.037
327.10 5.031
327.20 5.025
327.30 5.019
327.40 5.013
327.50 5.007
327.60 5.001
327.70 4.996
327.80 4.99
327.90 4.984
328.00 4.978
328.10 4.972
328.20 4.966
328.30 4.961
328.40 4.955
328.50 4.949
328.60 4.943
328.70 4.938
328.80 4.932
328.90 4.926
329.00 4.92
329.10 4.915
329.20 4.909
329.30 4.903
329.40 4.898
329.50 4.892
329.60 4.886
329.70 4.88
329.80 4.875
329.90 4.869
330.00 4.864
330.10 4.858
330.20 4.852
330.30 4.847
330.40 4.841
330.50 4.835
330.60 4.83
330.70 4.824
330.80 4.819
330.90 4.813
331.00 4.808
331.10 4.802
331.20 4.797
331.30 4.791
331.40 4.785
331.50 4.78
331.60 4.774
331.70 4.769
331.80 4.763
331.90 4.758
332.00 4.752
332.10 4.747
332.20 4.741
332.30 4.736
332.40 4.73
332.50 4.725
332.60 4.72
332.70 4.714
332.80 4.709
332.90 4.703
333.00 4.698
333.10 4.693
333.20 4.687
333.30 4.682
333.40 4.676
333.50 4.671
333.60 4.666
333.70 4.66
333.80 4.655
333.90 4.65
334.00 4.644
334.10 4.639
334.20 4.634
334.30 4.628
334.40 4.623
334.50 4.618
334.60 4.612
334.70 4.607
334.80 4.602
334.90 4.597
335.00 4.591
335.10 4.586
335.20 4.581
335.30 4.576
335.40 4.571
335.50 4.565
335.60 4.56
335.70 4.555
335.80 4.55
335.90 4.544
336.00 4.539
336.10 4.534
336.20 4.529
336.30 4.524
336.40 4.519
336.50 4.514
336.60 4.508
336.70 4.503
336.80 4.498
336.90 4.493
337.00 4.488
337.10 4.483
337.20 4.478
337.30 4.473
337.40 4.468
337.50 4.462
337.60 4.457
337.70 4.452
337.80 4.447
337.90 4.442
338.00 4.437
338.10 4.432
338.20 4.427
338.30 4.422
338.40 4.417
338.50 4.412
338.60 4.407
338.70 4.402
338.80 4.397
338.90 4.392
339.00 4.387
339.10 4.382
339.20 4.377
339.30 4.372
339.40 4.368
339.50 4.363
339.60 4.358
339.70 4.353
339.80 4.348
339.90 4.343
340.00 4.338
340.10 4.333
340.20 4.328
340.30 4.323
340.40 4.319
340.50 4.314
340.60 4.309
340.70 4.304
340.80 4.299
340.90 4.294
341.00 4.289
341.10 4.285
341.20 4.28
341.30 4.275
341.40 4.27
341.50 4.265
341.60 4.261
341.70 4.256
341.80 4.251
341.90 4.246
342.00 4.242
342.10 4.237
342.20 4.232
342.30 4.227
342.40 4.223
342.50 4.218
342.60 4.213
342.70 4.208
342.80 4.204
342.90 4.199
343.00 4.194
343.10 4.19
343.20 4.185
343.30 4.18
343.40 4.176
343.50 4.171
343.60 4.166
343.70 4.162
343.80 4.157
343.90 4.152
344.00 4.148
344.10 4.143
344.20 4.139
344.30 4.134
344.40 4.129
344.50 4.125
344.60 4.12
344.70 4.116
344.80 4.111
344.90 4.106
345.00 4.102
345.10 4.097
345.20 4.093
345.30 4.088
345.40 4.084
345.50 4.079
345.60 4.075
345.70 4.07
345.80 4.066
345.90 4.061
346.00 4.057
346.10 4.052
346.20 4.048
346.30 4.043
346.40 4.039
346.50 4.034
346.60 4.03
346.70 4.025
346.80 4.021
346.90 4.016
347.00 4.012
347.10 4.008
347.20 4.003
347.30 3.999
347.40 3.994
347.50 3.99
347.60 3.985
347.70 3.981
347.80 3.977
347.90 3.972
348.00 3.968
348.10 3.963
348.20 3.959
348.30 3.955
348.40 3.95
348.50 3.946
348.60 3.942
348.70 3.937
348.80 3.933
348.90 3.929
349.00 3.924
349.10 3.92
349.20 3.916
349.30 3.912
349.40 3.907
349.50 3.903
349.60 3.899
349.70 3.894
349.80 3.89
349.90 3.886
350.00 3.882
350.10 3.877
350.20 3.873
350.30 3.869
350.40 3.865
350.50 3.86
350.60 3.856
350.70 3.852
350.80 3.848
350.90 3.844
351.00 3.839
351.10 3.835
351.20 3.831
351.30 3.827
351.40 3.823
351.50 3.818
351.60 3.814
351.70 3.81
351.80 3.806
351.90 3.802
352.00 3.798
352.10 3.793
352.20 3.789
352.30 3.785
352.40 3.781
352.50 3.777
352.60 3.773
352.70 3.769
352.80 3.765
352.90 3.761
353.00 3.757
353.10 3.752
353.20 3.748
353.30 3.744
353.40 3.74
353.50 3.736
353.60 3.732
353.70 3.728
353.80 3.724
353.90 3.72
354.00 3.716
354.10 3.712
354.20 3.708
354.30 3.704
354.40 3.7
354.50 3.696
354.60 3.692
354.70 3.688
354.80 3.684
354.90 3.68
355.00 3.676
355.10 3.672
355.20 3.668
355.30 3.664
355.40 3.66
355.50 3.656
355.60 3.652
355.70 3.648
355.80 3.644
355.90 3.64
356.00 3.636
356.10 3.632
356.20 3.629
356.30 3.625
356.40 3.621
356.50 3.617
356.60 3.613
356.70 3.609
356.80 3.605
356.90 3.601
357.00 3.598
357.10 3.594
357.20 3.59
357.30 3.586
357.40 3.582
357.50 3.578
357.60 3.574
357.70 3.571
357.80 3.567
357.90 3.563
358.00 3.559
358.10 3.555
358.20 3.551
358.30 3.548
358.40 3.544
358.50 3.54
358.60 3.536
358.70 3.532
358.80 3.529
358.90 3.525
359.00 3.521
359.10 3.517
359.20 3.514
359.30 3.51
359.40 3.506
359.50 3.502
359.60 3.499
359.70 3.495
359.80 3.491
359.90 3.487
360.00 3.484
360.10 3.48
360.20 3.476
360.30 3.473
360.40 3.469
360.50 3.465
360.60 3.461
360.70 3.458
360.80 3.454
360.90 3.45
361.00 3.447
361.10 3.443
361.20 3.439
361.30 3.436
361.40 3.432
361.50 3.428
361.60 3.425
361.70 3.421
361.80 3.418
361.90 3.414
362.00 3.41
362.10 3.407
362.20 3.403
362.30 3.399
362.40 3.396
362.50 3.392
362.60 3.389
362.70 3.385
362.80 3.381
362.90 3.378
363.00 3.374
363.10 3.371
363.20 3.367
363.30 3.364
363.40 3.36
363.50 3.357
363.60 3.353
363.70 3.349
363.80 3.346
363.90 3.342
364.00 3.339
364.10 3.335
364.20 3.332
364.30 3.328
364.40 3.325
364.50 3.321
364.60 3.318
364.70 3.314
364.80 3.311
364.90 3.307
365.00 3.304
365.10 3.3
365.20 3.297
365.30 3.293
365.40 3.29
365.50 3.287
365.60 3.283
365.70 3.28
365.80 3.276
365.90 3.273
366.00 3.269
366.10 3.266
366.20 3.262
366.30 3.259
366.40 3.255
366.50 3.252
366.60 3.249
366.70 3.245
366.80 3.242
366.90 3.238
367.00 3.235
367.10 3.231
367.20 3.228
367.30 3.224
367.40 3.221
367.50 3.218
367.60 3.214
367.70 3.211
367.80 3.207
367.90 3.204
368.00 3.2
368.10 3.197
368.20 3.194
368.30 3.19
368.40 3.187
368.50 3.184
368.60 3.18
368.70 3.177
368.80 3.174
368.90 3.17
369.00 3.167
369.10 3.164
369.20 3.16
369.30 3.157
369.40 3.154
369.50 3.15
369.60 3.147
369.70 3.144
369.80 3.14
369.90 3.137
370.00 3.134
370.10 3.13
370.20 3.127
370.30 3.124
370.40 3.12
370.50 3.117
370.60 3.114
370.70 3.111
370.80 3.107
370.90 3.104
371.00 3.101
371.10 3.098
371.20 3.094
371.30 3.091
371.40 3.088
371.50 3.085
371.60 3.081
371.70 3.078
371.80 3.075
371.90 3.072
372.00 3.069
372.10 3.065
372.20 3.062
372.30 3.059
372.40 3.056
372.50 3.053
372.60 3.05
372.70 3.047
372.80 3.043
372.90 3.04
373.00 3.037
373.10 3.034
373.20 3.031
373.30 3.028
373.40 3.025
373.50 3.022
373.60 3.018
373.70 3.015
373.80 3.012
373.90 3.009
374.00 3.006
374.10 3.003
374.20 3
374.30 2.997
374.40 2.994
374.50 2.991
374.60 2.988
374.70 2.985
374.80 2.982
374.90 2.979
375.00 2.976
375.10 2.973
375.20 2.97
375.30 2.967
375.40 2.964
375.50 2.961
375.60 2.958
375.70 2.955
375.80 2.952
375.90 2.949
376.00 2.946
376.10 2.943
376.20 2.94
376.30 2.937
376.40 2.934
376.50 2.93
376.60 2.927
376.70 2.924
376.80 2.921
376.90 2.918
377.00 2.914
377.10 2.912
377.20 2.909
377.30 2.907
377.40 2.904
377.50 2.902
377.60 2.899
377.70 2.897
377.80 2.894
377.90 2.892
378.00 2.889
378.10 2.886
378.20 2.883
378.30 2.88
378.40 2.877
378.50 2.874
378.60 2.871
378.70 2.868
378.80 2.865
378.90 2.861
379.00 2.858
379.10 2.855
379.20 2.852
379.30 2.848
379.40 2.845
379.50 2.842
379.60 2.839
379.70 2.835
379.80 2.832
379.90 2.829
380.00 2.825
380.10 2.824
380.20 2.822
380.30 2.82
380.40 2.818
380.50 2.817
380.60 2.815
380.70 2.813
380.80 2.812
380.90 2.81
381.00 2.808
381.10 2.806
381.20 2.803
381.30 2.8
381.40 2.798
381.50 2.795
381.60 2.792
381.70 2.789
381.80 2.786
381.90 2.783
382.00 2.779
382.10 2.776
382.20 2.772
382.30 2.767
382.40 2.762
382.50 2.758
382.60 2.753
382.70 2.748
382.80 2.743
382.90 2.739
383.00 2.734
383.10 2.729
383.20 2.724
383.30 2.719
383.40 2.713
383.50 2.709
383.60 2.707
383.70 2.707
383.80 2.707
383.90 2.708
384.00 2.708
384.10 2.709
384.20 2.709
384.30 2.709
384.40 2.709
384.50 2.708
384.60 2.708
384.70 2.707
384.80 2.706
384.90 2.705
385.00 2.704
385.10 2.702
385.20 2.701
385.30 2.699
385.40 2.697
385.50 2.695
385.60 2.693
385.70 2.691
385.80 2.689
385.90 2.686
386.00 2.684
386.10 2.681
386.20 2.678
386.30 2.675
386.40 2.672
386.50 2.669
386.60 2.666
386.70 2.662
386.80 2.659
386.90 2.655
387.00 2.651
387.10 2.647
387.20 2.642
387.30 2.638
387.40 2.633
387.50 2.628
387.60 2.623
387.70 2.617
387.80 2.611
387.90 2.605
388.00 2.598
388.10 2.591
388.20 2.584
388.30 2.576
388.40 2.568
388.50 2.559
388.60 2.55
388.70 2.541
388.80 2.534
388.90 2.53
389.00 2.529
389.10 2.531
389.20 2.535
389.30 2.539
389.40 2.543
389.50 2.547
389.60 2.55
389.70 2.552
389.80 2.555
389.90 2.556
390.00 2.558
390.10 2.559
390.20 2.56
390.30 2.56
390.40 2.561
390.50 2.561
390.60 2.56
390.70 2.56
390.80 2.559
390.90 2.559
391.00 2.558
391.10 2.557
391.20 2.556
391.30 2.554
391.40 2.553
391.50 2.552
391.60 2.55
391.70 2.548
391.80 2.547
391.90 2.545
392.00 2.543
392.10 2.541
392.20 2.539
392.30 2.537
392.40 2.535
392.50 2.532
392.60 2.53
392.70 2.528
392.80 2.525
392.90 2.523
393.00 2.52
393.10 2.518
393.20 2.515
393.30 2.513
393.40 2.51
393.50 2.507
393.60 2.504
393.70 2.501
393.80 2.498
393.90 2.495
394.00 2.492
394.10 2.489
394.20 2.485
394.30 2.482
394.40 2.478
394.50 2.475
394.60 2.471
394.70 2.467
394.80 2.462
394.90 2.458
395.00 2.453
395.10 2.449
395.20 2.444
395.30 2.438
395.40 2.432
395.50 2.426
395.60 2.42
395.70 2.413
395.80 2.406
395.90 2.398
396.00 2.389
396.10 2.381
396.20 2.37
396.30 2.36
396.40 2.348
396.50 2.335
396.60 2.321
396.70 2.307
396.80 2.29
396.90 2.273
397.00 2.257
397.10 2.267
397.20 2.279
397.30 2.292
397.40 2.302
397.50 2.312
397.60 2.321
397.70 2.328
397.80 2.334
397.90 2.339
398.00 2.344
398.10 2.348
398.20 2.351
398.30 2.354
398.40 2.356
398.50 2.358
398.60 2.36
398.70 2.361
398.80 2.362
398.90 2.362
399.00 2.362
399.10 2.362
399.20 2.362
399.30 2.362
399.40 2.361
399.50 2.36
399.60 2.359
399.70 2.359
399.80 2.357
399.90 2.356
400.00 2.355
400.10 2.354
400.20 2.352
400.30 2.351
400.40 2.349
400.50 2.348
400.60 2.346
400.70 2.344
400.80 2.342
400.90 2.341
401.00 2.339
401.10 2.337
401.20 2.335
401.30 2.333
401.40 2.331
401.50 2.329
401.60 2.327
401.70 2.325
401.80 2.323
401.90 2.321
402.00 2.319
402.10 2.317
402.20 2.315
402.30 2.313
402.40 2.311
402.50 2.309
402.60 2.307
402.70 2.305
402.80 2.302
402.90 2.3
403.00 2.298
403.10 2.296
403.20 2.294
403.30 2.292
403.40 2.29
403.50 2.287
403.60 2.285
403.70 2.283
403.80 2.281
403.90 2.279
404.00 2.276
404.10 2.274
404.20 2.272
404.30 2.27
404.40 2.267
404.50 2.265
404.60 2.263
404.70 2.261
404.80 2.258
404.90 2.256
405.00 2.254
405.10 2.252
405.20 2.249
405.30 2.247
405.40 2.245
405.50 2.242
405.60 2.24
405.70 2.238
405.80 2.235
405.90 2.233
406.00 2.23
406.10 2.228
406.20 2.225
406.30 2.223
406.40 2.22
406.50 2.217
406.60 2.215
406.70 2.212
406.80 2.209
406.90 2.206
407.00 2.204
407.10 2.201
407.20 2.198
407.30 2.194
407.40 2.191
407.50 2.188
407.60 2.184
407.70 2.181
407.80 2.177
407.90 2.173
408.00 2.168
408.10 2.164
408.20 2.159
408.30 2.154
408.40 2.149
408.50 2.143
408.60 2.137
408.70 2.13
408.80 2.123
408.90 2.115
409.00 2.107
409.10 2.097
409.20 2.087
409.30 2.076
409.40 2.063
409.50 2.048
409.60 2.033
409.70 2.014
409.80 1.993
409.90 1.969
410.00 1.941
410.10 1.923
410.20 1.917
410.30 1.929
410.40 1.947
410.50 1.971
410.60 1.989
410.70 2.005
410.80 2.018
410.90 2.029
411.00 2.038
411.10 2.047
411.20 2.053
411.30 2.059
411.40 2.064
411.50 2.068
411.60 2.072
411.70 2.075
411.80 2.077
411.90 2.079
412.00 2.08
412.10 2.081
412.20 2.082
412.30 2.083
412.40 2.083
412.50 2.083
412.60 2.083
412.70 2.082
412.80 2.082
412.90 2.081
413.00 2.08
413.10 2.08
413.20 2.079
413.30 2.078
413.40 2.076
413.50 2.075
413.60 2.074
413.70 2.073
413.80 2.071
413.90 2.07
414.00 2.068
414.10 2.067
414.20 2.065
414.30 2.064
414.40 2.062
414.50 2.061
414.60 2.059
414.70 2.057
414.80 2.056
414.90 2.054
415.00 2.052
415.10 2.051
415.20 2.049
415.30 2.047
415.40 2.045
415.50 2.044
415.60 2.042
415.70 2.04
415.80 2.038
415.90 2.037
416.00 2.035
416.10 2.033
416.20 2.031
416.30 2.03
416.40 2.028
416.50 2.026
416.60 2.024
416.70 2.022
416.80 2.021
416.90 2.019
417.00 2.017
417.10 2.015
417.20 2.013
417.30 2.012
417.40 2.01
417.50 2.008
417.60 2.006
417.70 2.004
417.80 2.002
417.90 2.001
418.00 1.999
418.10 1.997
418.20 1.995
418.30 1.993
418.40 1.992
418.50 1.99
418.60 1.988
418.70 1.986
418.80 1.984
418.90 1.983
419.00 1.981
419.10 1.979
419.20 1.977
419.30 1.975
419.40 1.974
419.50 1.972
419.60 1.97
419.70 1.968
419.80 1.966
419.90 1.965
420.00 1.963
420.10 1.961
420.20 1.959
420.30 1.957
420.40 1.956
420.50 1.954
420.60 1.952
420.70 1.95
420.80 1.949
420.90 1.947
421.00 1.945
421.10 1.943
421.20 1.941
421.30 1.94
421.40 1.938
421.50 1.936
421.60 1.934
421.70 1.933
421.80 1.931
421.90 1.929
422.00 1.927
422.10 1.926
422.20 1.924
422.30 1.922
422.40 1.92
422.50 1.918
422.60 1.917
422.70 1.915
422.80 1.913
422.90 1.911
423.00 1.91
423.10 1.908
423.20 1.906
423.30 1.904
423.40 1.903
423.50 1.901
423.60 1.899
423.70 1.898
423.80 1.896
423.90 1.894
424.00 1.892
424.10 1.891
424.20 1.889
424.30 1.887
424.40 1.885
424.50 1.884
424.60 1.882
424.70 1.88
424.80 1.878
424.90 1.877
425.00 1.875
425.10 1.873
425.20 1.872
425.30 1.87
425.40 1.868
425.50 1.866
425.60 1.865
425.70 1.863
425.80 1.861
425.90 1.86
426.00 1.858
426.10 1.856
426.20 1.854
426.30 1.853
426.40 1.851
426.50 1.849
426.60 1.848
426.70 1.846
426.80 1.844
426.90 1.842
427.00 1.841
427.10 1.839
427.20 1.837
427.30 1.835
427.40 1.834
427.50 1.832
427.60 1.83
427.70 1.829
427.80 1.827
427.90 1.825
428.00 1.823
428.10 1.822
428.20 1.82
428.30 1.818
428.40 1.816
428.50 1.815
428.60 1.813
428.70 1.811
428.80 1.809
428.90 1.808
429.00 1.806
429.10 1.804
429.20 1.802
429.30 1.8
429.40 1.799
429.50 1.797
429.60 1.795
429.70 1.793
429.80 1.791
429.90 1.789
430.00 1.787
430.10 1.785
430.20 1.783
430.30 1.781
430.40 1.779
430.50 1.777
430.60 1.775
430.70 1.773
430.80 1.771
430.90 1.769
431.00 1.766
431.10 1.764
431.20 1.761
431.30 1.759
431.40 1.756
431.50 1.753
431.60 1.75
431.70 1.747
431.80 1.744
431.90 1.741
432.00 1.737
432.10 1.733
432.20 1.729
432.30 1.724
432.40 1.719
432.50 1.714
432.60 1.708
432.70 1.701
432.80 1.694
432.90 1.686
433.00 1.677
433.10 1.666
433.20 1.655
433.30 1.642
433.40 1.627
433.50 1.609
433.60 1.59
433.70 1.563
433.80 1.532
433.90 1.495
434.00 1.461
434.10 1.46
434.20 1.494
434.30 1.527
434.40 1.556
434.50 1.579
434.60 1.595
434.70 1.61
434.80 1.622
434.90 1.631
435.00 1.64
435.10 1.647
435.20 1.653
435.30 1.658
435.40 1.662
435.50 1.665
435.60 1.668
435.70 1.671
435.80 1.672
435.90 1.674
436.00 1.675
436.10 1.676
436.20 1.676
436.30 1.677
436.40 1.677
436.50 1.677
436.60 1.676
436.70 1.676
436.80 1.676
436.90 1.675
437.00 1.674
437.10 1.674
437.20 1.673
437.30 1.672
437.40 1.671
437.50 1.67
437.60 1.669
437.70 1.668
437.80 1.667
437.90 1.666
438.00 1.665
438.10 1.664
438.20 1.662
438.30 1.661
438.40 1.66
438.50 1.659
438.60 1.657
438.70 1.656
438.80 1.655
438.90 1.654
439.00 1.652
439.10 1.651
439.20 1.65
439.30 1.648
439.40 1.647
439.50 1.646
439.60 1.644
439.70 1.643
439.80 1.642
439.90 1.64
440.00 1.639
440.10 1.638
440.20 1.636
440.30 1.635
440.40 1.633
440.50 1.632
440.60 1.631
440.70 1.629
440.80 1.628
440.90 1.627
441.00 1.625
441.10 1.624
441.20 1.622
441.30 1.621
441.40 1.62
441.50 1.618
441.60 1.617
441.70 1.616
441.80 1.614
441.90 1.613
442.00 1.611
442.10 1.61
442.20 1.609
442.30 1.607
442.40 1.606
442.50 1.604
442.60 1.603
442.70 1.602
442.80 1.6
442.90 1.599
443.00 1.598
443.10 1.596
443.20 1.595
443.30 1.593
443.40 1.592
443.50 1.591
443.60 1.589
443.70 1.588
443.80 1.587
443.90 1.585
444.00 1.584
444.10 1.583
444.20 1.581
444.30 1.58
444.40 1.578
444.50 1.577
444.60 1.576
444.70 1.574
444.80 1.573
444.90 1.572
445.00 1.57
445.10 1.569
445.20 1.568
445.30 1.566
445.40 1.565
445.50 1.564
445.60 1.562
445.70 1.561
445.80 1.559
445.90 1.558
446.00 1.557
446.10 1.555
446.20 1.554
446.30 1.553
446.40 1.551
446.50 1.55
446.60 1.549
446.70 1.547
446.80 1.546
446.90 1.545
447.00 1.543
447.10 1.542
447.20 1.541
447.30 1.539
447.40 1.538
447.50 1.537
447.60 1.535
447.70 1.534
447.80 1.533
447.90 1.531
448.00 1.53
448.10 1.529
448.20 1.528
448.30 1.526
448.40 1.525
448.50 1.524
448.60 1.522
448.70 1.521
448.80 1.52
448.90 1.518
449.00 1.517
449.10 1.516
449.20 1.514
449.30 1.513
449.40 1.512
449.50 1.511
449.60 1.509
449.70 1.508
449.80 1.507
449.90 1.505
450.00 1.504
450.10 1.503
450.20 1.501
450.30 1.5
450.40 1.499
450.50 1.498
450.60 1.496
450.70 1.495
450.80 1.494
450.90 1.492
451.00 1.491
451.10 1.49
451.20 1.489
451.30 1.487
451.40 1.486
451.50 1.485
451.60 1.484
451.70 1.482
451.80 1.481
451.90 1.48
452.00 1.479
452.10 1.477
452.20 1.476
452.30 1.475
452.40 1.473
452.50 1.472
452.60 1.471
452.70 1.47
452.80 1.468
452.90 1.467
453.00 1.466
453.10 1.465
453.20 1.463
453.30 1.462
453.40 1.461
453.50 1.46
453.60 1.458
453.70 1.457
453.80 1.456
453.90 1.455
454.00 1.453
454.10 1.452
454.20 1.451
454.30 1.45
454.40 1.449
454.50 1.447
454.60 1.446
454.70 1.445
454.80 1.444
454.90 1.442
455.00 1.441
455.10 1.44
455.20 1.439
455.30 1.437
455.40 1.436
455.50 1.435
455.60 1.434
455.70 1.433
455.80 1.431
455.90 1.43
456.00 1.429
456.10 1.428
456.20 1.427
456.30 1.425
456.40 1.424
456.50 1.423
456.60 1.422
456.70 1.421
456.80 1.419
456.90 1.418
457.00 1.417
457.10 1.416
457.20 1.415
457.30 1.413
457.40 1.412
457.50 1.411
457.60 1.41
457.70 1.409
457.80 1.407
457.90 1.406
458.00 1.405
458.10 1.404
458.20 1.403
458.30 1.401
458.40 1.4
458.50 1.399
458.60 1.398
458.70 1.397
458.80 1.396
458.90 1.394
459.00 1.393
459.10 1.392
459.20 1.391
459.30 1.39
459.40 1.388
459.50 1.387
459.60 1.386
459.70 1.385
459.80 1.384
459.90 1.383
460.00 1.381
460.10 1.38
460.20 1.379
460.30 1.378
460.40 1.377
460.50 1.376
460.60 1.375
460.70 1.373
460.80 1.372
460.90 1.371
461.00 1.37
461.10 1.369
461.20 1.368
461.30 1.366
461.40 1.365
461.50 1.364
461.60 1.363
461.70 1.362
461.80 1.361
461.90 1.36
462.00 1.358
462.10 1.357
462.20 1.356
462.30 1.355
462.40 1.354
462.50 1.353
462.60 1.352
462.70 1.351
462.80 1.349
462.90 1.348
463.00 1.347
463.10 1.346
463.20 1.345
463.30 1.344
463.40 1.343
463.50 1.342
463.60 1.34
463.70 1.339
463.80 1.338
463.90 1.337
464.00 1.336
464.10 1.335
464.20 1.334
464.30 1.333
464.40 1.331
464.50 1.33
464.60 1.329
464.70 1.328
464.80 1.327
464.90 1.326
465.00 1.325
465.10 1.324
465.20 1.323
465.30 1.322
465.40 1.32
465.50 1.319
465.60 1.318
465.70 1.317
465.80 1.316
465.90 1.315
466.00 1.314
466.10 1.313
466.20 1.312
466.30 1.311
466.40 1.309
466.50 1.308
466.60 1.307
466.70 1.306
466.80 1.305
466.90 1.304
467.00 1.303
467.10 1.302
467.20 1.301
467.30 1.3
467.40 1.299
467.50 1.298
467.60 1.297
467.70 1.295
467.80 1.294
467.90 1.293
468.00 1.292
468.10 1.291
468.20 1.29
468.30 1.289
468.40 1.288
468.50 1.287
468.60 1.286
468.70 1.285
468.80 1.284
468.90 1.283
469.00 1.282
469.10 1.28
469.20 1.279
469.30 1.278
469.40 1.277
469.50 1.276
469.60 1.275
469.70 1.274
469.80 1.273
469.90 1.272
470.00 1.271
470.10 1.27
470.20 1.269
470.30 1.268
470.40 1.267
470.50 1.266
470.60 1.265
470.70 1.264
470.80 1.263
470.90 1.262
471.00 1.261
471.10 1.26
471.20 1.258
471.30 1.257
471.40 1.256
471.50 1.255
471.60 1.254
471.70 1.253
471.80 1.252
471.90 1.251
472.00 1.25
472.10 1.249
472.20 1.248
472.30 1.247
472.40 1.246
472.50 1.245
472.60 1.244
472.70 1.243
472.80 1.242
472.90 1.241
473.00 1.24
473.10 1.239
473.20 1.238
473.30 1.237
473.40 1.236
473.50 1.235
473.60 1.234
473.70 1.233
473.80 1.232
473.90 1.231
474.00 1.23
474.10 1.229
474.20 1.228
474.30 1.227
474.40 1.226
474.50 1.225
474.60 1.224
474.70 1.223
474.80 1.222
474.90 1.221
475.00 1.22
475.10 1.219
475.20 1.218
475.30 1.217
475.40 1.216
475.50 1.215
475.60 1.214
475.70 1.213
475.80 1.212
475.90 1.211
476.00 1.21
476.10 1.209
476.20 1.208
476.30 1.207
476.40 1.206
476.50 1.205
476.60 1.204
476.70 1.203
476.80 1.202
476.90 1.201
477.00 1.2
477.10 1.199
477.20 1.198
477.30 1.197
477.40 1.196
477.50 1.195
477.60 1.194
477.70 1.193
477.80 1.192
477.90 1.191
478.00 1.19
478.10 1.189
478.20 1.188
478.30 1.187
478.40 1.186
478.50 1.185
478.60 1.184
478.70 1.183
478.80 1.182
478.90 1.181
479.00 1.18
479.10 1.179
479.20 1.178
479.30 1.177
479.40 1.176
479.50 1.175
479.60 1.174
479.70 1.173
479.80 1.172
479.90 1.171
480.00 1.17
480.10 1.169
480.20 1.168
480.30 1.167
480.40 1.166
480.50 1.165
480.60 1.164
480.70 1.163
480.80 1.162
480.90 1.161
481.00 1.16
481.10 1.159
481.20 1.158
481.30 1.157
481.40 1.156
481.50 1.154
481.60 1.153
481.70 1.152
481.80 1.151
481.90 1.15
482.00 1.149
482.10 1.148
482.20 1.147
482.30 1.145
482.40 1.144
482.50 1.143
482.60 1.142
482.70 1.14
482.80 1.139
482.90 1.138
483.00 1.137
483.10 1.135
483.20 1.134
483.30 1.132
483.40 1.13
483.50 1.128
483.60 1.126
483.70 1.124
483.80 1.123
483.90 1.121
484.00 1.119
484.10 1.117
484.20 1.114
484.30 1.111
484.40 1.108
484.50 1.105
484.60 1.102
484.70 1.098
484.80 1.093
484.90 1.087
485.00 1.082
485.10 1.077
485.20 1.07
485.30 1.062
485.40 1.053
485.50 1.042
485.60 1.028
485.70 1.012
485.80 0.9882
485.90 0.9599
486.00 0.9211
486.10 0.9029
486.20 0.9006
486.30 0.9338
486.40 0.965
486.50 0.9921
486.60 1.01
486.70 1.024
486.80 1.035
486.90 1.044
487.00 1.051
487.10 1.057
487.20 1.061
487.30 1.064
487.40 1.068
487.50 1.071
487.60 1.074
487.70 1.076
487.80 1.078
487.90 1.079
488.00 1.08
488.10 1.081
488.20 1.082
488.30 1.082
488.40 1.082
488.50 1.082
488.60 1.082
488.70 1.082
488.80 1.082
488.90 1.082
489.00 1.082
489.10 1.082
489.20 1.082
489.30 1.081
489.40 1.081
489.50 1.08
489.60 1.08
489.70 1.079
489.80 1.079
489.90 1.078
490.00 1.078
490.10 1.077
490.20 1.076
490.30 1.076
490.40 1.075
490.50 1.074
490.60 1.074
490.70 1.073
490.80 1.072
490.90 1.071
491.00 1.071
491.10 1.07
491.20 1.069
491.30 1.069
491.40 1.068
491.50 1.067
491.60 1.066
491.70 1.066
491.80 1.065
491.90 1.064
492.00 1.063
492.10 1.062
492.20 1.062
492.30 1.061
492.40 1.06
492.50 1.059
492.60 1.059
492.70 1.058
492.80 1.057
492.90 1.056
493.00 1.055
493.10 1.055
493.20 1.054
493.30 1.053
493.40 1.052
493.50 1.051
493.60 1.051
493.70 1.05
493.80 1.049
493.90 1.048
494.00 1.047
494.10 1.047
494.20 1.046
494.30 1.045
494.40 1.044
494.50 1.043
494.60 1.043
494.70 1.042
494.80 1.041
494.90 1.04
495.00 1.039
495.10 1.039
495.20 1.038
495.30 1.037
495.40 1.036
495.50 1.035
495.60 1.035
495.70 1.034
495.80 1.033
495.90 1.032
496.00 1.031
496.10 1.031
496.20 1.03
496.30 1.029
496.40 1.028
496.50 1.027
496.60 1.027
496.70 1.026
496.80 1.025
496.90 1.024
497.00 1.023
497.10 1.023
497.20 1.022
497.30 1.021
497.40 1.02
497.50 1.02
497.60 1.019
497.70 1.018
497.80 1.017
497.90 1.016
498.00 1.016
498.10 1.015
498.20 1.014
498.30 1.013
498.40 1.012
498.50 1.012
498.60 1.011
498.70 1.01
498.80 1.009
498.90 1.009
499.00 1.008
499.10 1.007
499.20 1.006
499.30 1.005
499.40 1.005
499.50 1.004
499.60 1.003
499.70 1.002
499.80 1.002
499.90 1.001
500.00 1
500.10 0.9992
500.20 0.9985
500.30 0.9977
500.40 0.9969
500.50 0.9961
500.60 0.9954
500.70 0.9946
500.80 0.9938
500.90 0.9931
501.00 0.9923
501.10 0.9915
501.20 0.9908
501.30 0.99
501.40 0.9893
501.50 0.9885
501.60 0.9877
501.70 0.987
501.80 0.9862
501.90 0.9854
502.00 0.9847
502.10 0.9839
502.20 0.9832
502.30 0.9824
502.40 0.9817
502.50 0.9809
502.60 0.9801
502.70 0.9794
502.80 0.9786
502.90 0.9779
503.00 0.9771
503.10 0.9764
503.20 0.9756
503.30 0.9749
503.40 0.9741
503.50 0.9734
503.60 0.9726
503.70 0.9719
503.80 0.9711
503.90 0.9704
504.00 0.9696
504.10 0.9689
504.20 0.9682
504.30 0.9674
504.40 0.9667
504.50 0.9659
504.60 0.9652
504.70 0.9644
504.80 0.9637
504.90 0.963
505.00 0.9622
505.10 0.9615
505.20 0.9608
505.30 0.96
505.40 0.9593
505.50 0.9586
505.60 0.9578
505.70 0.9571
505.80 0.9564
505.90 0.9556
506.00 0.9549
506.10 0.9542
506.20 0.9534
506.30 0.9527
506.40 0.952
506.50 0.9512
506.60 0.9505
506.70 0.9498
506.80 0.9491
506.90 0.9483
507.00 0.9476
507.10 0.9469
507.20 0.9462
507.30 0.9454
507.40 0.9447
507.50 0.944
507.60 0.9433
507.70 0.9426
507.80 0.9418
507.90 0.9411
508.00 0.9404
508.10 0.9397
508.20 0.939
508.30 0.9382
508.40 0.9375
508.50 0.9368
508.60 0.9361
508.70 0.9354
508.80 0.9347
508.90 0.934
509.00 0.9333
509.10 0.9325
509.20 0.9318
509.30 0.9311
509.40 0.9304
509.50 0.9297
509.60 0.929
509.70 0.9283
509.80 0.9276
509.90 0.9269
510.00 0.9262
510.10 0.9255
510.20 0.9248
510.30 0.9241
510.40 0.9234
510.50 0.9227
510.60 0.922
510.70 0.9213
510.80 0.9206
510.90 0.9199
511.00 0.9192
511.10 0.9185
511.20 0.9178
511.30 0.9171
511.40 0.9164
511.50 0.9157
511.60 0.915
511.70 0.9143
511.80 0.9136
511.90 0.9129
512.00 0.9122
512.10 0.9115
512.20 0.9108
512.30 0.9102
512.40 0.9095
512.50 0.9088
512.60 0.9081
512.70 0.9074
512.80 0.9067
512.90 0.906
513.00 0.9054
513.10 0.9047
513.20 0.904
513.30 0.9033
513.40 0.9026
513.50 0.9019
513.60 0.9013
513.70 0.9006
513.80 0.8999
513.90 0.8992
514.00 0.8985
514.10 0.8979
514.20 0.8972
514.30 0.8965
514.40 0.8958
514.50 0.8952
514.60 0.8945
514.70 0.8938
514.80 0.8931
514.90 0.8925
515.00 0.8918
515.10 0.8911
515.20 0.8905
515.30 0.8898
515.40 0.8891
515.50 0.8884
515.60 0.8878
515.70 0.8871
515.80 0.8864
515.90 0.8858
516.00 0.8851
516.10 0.8844
516.20 0.8838
516.30 0.8831
516.40 0.8825
516.50 0.8818
516.60 0.8811
516.70 0.8805
516.80 0.8798
516.90 0.8791
517.00 0.8785
517.10 0.8778
517.20 0.8772
517.30 0.8765
517.40 0.8759
517.50 0.8752
517.60 0.8745
517.70 0.8739
517.80 0.8732
517.90 0.8726
518.00 0.8719
518.10 0.8713
518.20 0.8706
518.30 0.87
518.40 0.8693
518.50 0.8687
518.60 0.868
518.70 0.8674
518.80 0.8667
518.90 0.8661
519.00 0.8654
519.10 0.8648
519.20 0.8641
519.30 0.8635
519.40 0.8628
519.50 0.8622
519.60 0.8615
519.70 0.8609
519.80 0.8603
519.90 0.8596
520.00 0.859
520.10 0.8583
520.20 0.8577
520.30 0.8571
520.40 0.8564
520.50 0.8558
520.60 0.8551
520.70 0.8545
520.80 0.8539
520.90 0.8532
521.00 0.8526
521.10 0.852
521.20 0.8513
521.30 0.8507
521.40 0.8501
521.50 0.8494
521.60 0.8488
521.70 0.8482
521.80 0.8475
521.90 0.8469
522.00 0.8463
522.10 0.8456
522.20 0.845
522.30 0.8444
522.40 0.8438
522.50 0.8431
522.60 0.8425
522.70 0.8419
522.80 0.8413
522.90 0.8406
523.00 0.84
523.10 0.8394
523.20 0.8388
523.30 0.8381
523.40 0.8375
523.50 0.8369
523.60 0.8363
523.70 0.8357
523.80 0.835
523.90 0.8344
524.00 0.8338
524.10 0.8332
524.20 0.8326
524.30 0.832
524.40 0.8313
524.50 0.8307
524.60 0.8301
524.70 0.8295
524.80 0.8289
524.90 0.8283
525.00 0.8277
525.10 0.8271
525.20 0.8264
525.30 0.8258
525.40 0.8252
525.50 0.8246
525.60 0.824
525.70 0.8234
525.80 0.8228
525.90 0.8222
526.00 0.8216
526.10 0.821
526.20 0.8204
526.30 0.8198
526.40 0.8192
526.50 0.8186
526.60 0.8179
526.70 0.8173
526.80 0.8167
526.90 0.8161
527.00 0.8155
527.10 0.8149
527.20 0.8143
527.30 0.8137
527.40 0.8131
527.50 0.8125
527.60 0.8119
527.70 0.8114
527.80 0.8108
527.90 0.8102
528.00 0.8096
528.10 0.809
528.20 0.8084
528.30 0.8078
528.40 0.8072
528.50 0.8066
528.60 0.806
528.70 0.8054
528.80 0.8048
528.90 0.8042
529.00 0.8036
529.10 0.803
529.20 0.8025
529.30 0.8019
529.40 0.8013
529.50 0.8007
529.60 0.8001
529.70 0.7995
529.80 0.7989
529.90 0.7984
530.00 0.7978
530.10 0.7972
530.20 0.7966
530.30 0.796
530.40 0.7954
530.50 0.7949
530.60 0.7943
530.70 0.7937
530.80 0.7931
530.90 0.7925
531.00 0.7919
531.10 0.7914
531.20 0.7908
531.30 0.7902
531.40 0.7896
531.50 0.7891
531.60 0.7885
531.70 0.7879
531.80 0.7873
531.90 0.7868
532.00 0.7862
532.10 0.7856
532.20 0.785
532.30 0.7845
532.40 0.7839
532.50 0.7833
532.60 0.7828
532.70 0.7822
532.80 0.7816
532.90 0.781
533.00 0.7805
533.10 0.7799
533.20 0.7793
533.30 0.7788
533.40 0.7782
533.50 0.7776
533.60 0.7771
533.70 0.7765
533.80 0.7759
533.90 0.7754
534.00 0.7748
534.10 0.7743
534.20 0.7737
534.30 0.7731
534.40 0.7726
534.50 0.772
534.60 0.7714
534.70 0.7709
534.80 0.7703
534.90 0.7698
535.00 0.7692
535.10 0.7686
535.20 0.7681
535.30 0.7675
535.40 0.767
535.50 0.7664
535.60 0.7659
535.70 0.7653
535.80 0.7648
535.90 0.7642
536.00 0.7636
536.10 0.7631
536.20 0.7625
536.30 0.762
536.40 0.7614
536.50 0.7609
536.60 0.7603
536.70 0.7598
536.80 0.7592
536.90 0.7587
537.00 0.7581
537.10 0.7576
537.20 0.757
537.30 0.7565
537.40 0.7559
537.50 0.7554
537.60 0.7549
537.70 0.7543
537.80 0.7538
537.90 0.7532
538.00 0.7527
538.10 0.7521
538.20 0.7516
538.30 0.7511
538.40 0.7505
538.50 0.75
538.60 0.7494
538.70 0.7489
538.80 0.7484
538.90 0.7478
539.00 0.7473
539.10 0.7467
539.20 0.7462
539.30 0.7457
539.40 0.7451
539.50 0.7446
539.60 0.7441
539.70 0.7435
539.80 0.743
539.90 0.7424
540.00 0.7419
540.10 0.7414
540.20 0.7408
540.30 0.7403
540.40 0.7398
540.50 0.7392
540.60 0.7387
540.70 0.7382
540.80 0.7377
540.90 0.7371
541.00 0.7366
541.10 0.7361
541.20 0.7355
541.30 0.735
541.40 0.7345
541.50 0.734
541.60 0.7334
541.70 0.7329
541.80 0.7324
541.90 0.7319
542.00 0.7313
542.10 0.7308
542.20 0.7303
542.30 0.7298
542.40 0.7292
542.50 0.7287
542.60 0.7282
542.70 0.7277
542.80 0.7272
542.90 0.7266
543.00 0.7261
543.10 0.7256
543.20 0.7251
543.30 0.7246
543.40 0.724
543.50 0.7235
543.60 0.723
543.70 0.7225
543.80 0.722
543.90 0.7215
544.00 0.7209
544.10 0.7204
544.20 0.7199
544.30 0.7194
544.40 0.7189
544.50 0.7184
544.60 0.7179
544.70 0.7174
544.80 0.7168
544.90 0.7163
545.00 0.7158
545.10 0.7153
545.20 0.7148
545.30 0.7143
545.40 0.7138
545.50 0.7133
545.60 0.7128
545.70 0.7123
545.80 0.7118
545.90 0.7112
546.00 0.7107
546.10 0.7102
546.20 0.7097
546.30 0.7092
546.40 0.7087
546.50 0.7082
546.60 0.7077
546.70 0.7072
546.80 0.7067
546.90 0.7062
547.00 0.7057
547.10 0.7052
547.20 0.7047
547.30 0.7042
547.40 0.7037
547.50 0.7032
547.60 0.7027
547.70 0.7022
547.80 0.7017
547.90 0.7012
548.00 0.7007
548.10 0.7002
548.20 0.6997
548.30 0.6992
548.40 0.6987
548.50 0.6982
548.60 0.6977
548.70 0.6973
548.80 0.6968
548.90 0.6963
549.00 0.6958
549.10 0.6953
549.20 0.6948
549.30 0.6943
549.40 0.6938
549.50 0.6933
549.60 0.6928
549.70 0.6923
549.80 0.6918
549.90 0.6914
550.00 0.6909
550.10 0.6904
550.20 0.6899
550.30 0.6894
550.40 0.6889
550.50 0.6884
550.60 0.688
550.70 0.6875
550.80 0.687
550.90 0.6865
551.00 0.686
551.10 0.6855
551.20 0.685
551.30 0.6846
551.40 0.6841
551.50 0.6836
551.60 0.6831
551.70 0.6826
551.80 0.6822
551.90 0.6817
552.00 0.6812
552.10 0.6807
552.20 0.6802
552.30 0.6798
552.40 0.6793
552.50 0.6788
552.60 0.6783
552.70 0.6779
552.80 0.6774
552.90 0.6769
553.00 0.6764
553.10 0.6759
553.20 0.6755
553.30 0.675
553.40 0.6745
553.50 0.6741
553.60 0.6736
553.70 0.6731
553.80 0.6726
553.90 0.6722
554.00 0.6717
554.10 0.6712
554.20 0.6707
554.30 0.6703
554.40 0.6698
554.50 0.6693
554.60 0.6689
554.70 0.6684
554.80 0.6679
554.90 0.6675
555.00 0.667
555.10 0.6665
555.20 0.6661
555.30 0.6656
555.40 0.6651
555.50 0.6647
555.60 0.6642
555.70 0.6637
555.80 0.6633
555.90 0.6628
556.00 0.6623
556.10 0.6619
556.20 0.6614
556.30 0.661
556.40 0.6605
556.50 0.66
556.60 0.6596
556.70 0.6591
556.80 0.6587
556.90 0.6582
557.00 0.6577
557.10 0.6573
557.20 0.6568
557.30 0.6564
557.40 0.6559
557.50 0.6555
557.60 0.655
557.70 0.6545
557.80 0.6541
557.90 0.6536
558.00 0.6532
558.10 0.6527
558.20 0.6523
558.30 0.6518
558.40 0.6514
558.50 0.6509
558.60 0.6505
558.70 0.65
558.80 0.6495
558.90 0.6491
559.00 0.6486
559.10 0.6482
559.20 0.6477
559.30 0.6473
559.40 0.6468
559.50 0.6464
559.60 0.6459
559.70 0.6455
559.80 0.645
559.90 0.6446
560.00 0.6442
560.10 0.6437
560.20 0.6433
560.30 0.6428
560.40 0.6424
560.50 0.6419
560.60 0.6415
560.70 0.641
560.80 0.6406
560.90 0.6401
561.00 0.6397
561.10 0.6393
561.20 0.6388
561.30 0.6384
561.40 0.6379
561.50 0.6375
561.60 0.637
561.70 0.6366
561.80 0.6362
561.90 0.6357
562.00 0.6353
562.10 0.6348
562.20 0.6344
562.30 0.634
562.40 0.6335
562.50 0.6331
562.60 0.6327
562.70 0.6322
562.80 0.6318
562.90 0.6313
563.00 0.6309
563.10 0.6305
563.20 0.63
563.30 0.6296
563.40 0.6292
563.50 0.6287
563.60 0.6283
563.70 0.6279
563.80 0.6274
563.90 0.627
564.00 0.6266
564.10 0.6261
564.20 0.6257
564.30 0.6253
564.40 0.6248
564.50 0.6244
564.60 0.624
564.70 0.6236
564.80 0.6231
564.90 0.6227
565.00 0.6223
565.10 0.6218
565.20 0.6214
565.30 0.621
565.40 0.6206
565.50 0.6201
565.60 0.6197
565.70 0.6193
565.80 0.6189
565.90 0.6184
566.00 0.618
566.10 0.6176
566.20 0.6172
566.30 0.6167
566.40 0.6163
566.50 0.6159
566.60 0.6155
566.70 0.6151
566.80 0.6146
566.90 0.6142
567.00 0.6138
567.10 0.6134
567.20 0.6129
567.30 0.6125
567.40 0.6121
567.50 0.6117
567.60 0.6113
567.70 0.6109
567.80 0.6104
567.90 0.61
568.00 0.6096
568.10 0.6092
568.20 0.6088
568.30 0.6083
568.40 0.6079
568.50 0.6075
568.60 0.6071
568.70 0.6067
568.80 0.6063
568.90 0.6059
569.00 0.6054
569.10 0.605
569.20 0.6046
569.30 0.6042
569.40 0.6038
569.50 0.6034
569.60 0.603
569.70 0.6026
569.80 0.6021
569.90 0.6017
570.00 0.6013
570.10 0.6009
570.20 0.6005
570.30 0.6001
570.40 0.5997
570.50 0.5993
570.60 0.5989
570.70 0.5985
570.80 0.5981
570.90 0.5976
571.00 0.5972
571.10 0.5968
571.20 0.5964
571.30 0.596
571.40 0.5956
571.50 0.5952
571.60 0.5948
571.70 0.5944
571.80 0.594
571.90 0.5936
572.00 0.5932
572.10 0.5928
572.20 0.5924
572.30 0.592
572.40 0.5916
572.50 0.5912
572.60 0.5908
572.70 0.5904
572.80 0.59
572.90 0.5896
573.00 0.5892
573.10 0.5888
573.20 0.5884
573.30 0.588
573.40 0.5876
573.50 0.5872
573.60 0.5868
573.70 0.5864
573.80 0.586
573.90 0.5856
574.00 0.5852
574.10 0.5848
574.20 0.5844
574.30 0.584
574.40 0.5836
574.50 0.5832
574.60 0.5828
574.70 0.5824
574.80 0.582
574.90 0.5816
575.00 0.5812
575.10 0.5809
575.20 0.5805
575.30 0.5801
575.40 0.5797
575.50 0.5793
575.60 0.5789
575.70 0.5785
575.80 0.5781
575.90 0.5777
576.00 0.5773
576.10 0.5769
576.20 0.5766
576.30 0.5762
576.40 0.5758
576.50 0.5754
576.60 0.575
576.70 0.5746
576.80 0.5742
576.90 0.5738
577.00 0.5734
577.10 0.5731
577.20 0.5727
577.30 0.5723
577.40 0.5719
577.50 0.5715
577.60 0.5711
577.70 0.5708
577.80 0.5704
577.90 0.57
578.00 0.5696
578.10 0.5692
578.20 0.5688
578.30 0.5685
578.40 0.5681
578.50 0.5677
578.60 0.5673
578.70 0.5669
578.80 0.5665
578.90 0.5662
579.00 0.5658
579.10 0.5654
579.20 0.565
579.30 0.5646
579.40 0.5643
579.50 0.5639
579.60 0.5635
579.70 0.5631
579.80 0.5628
579.90 0.5624
580.00 0.562
580.10 0.5616
580.20 0.5612
580.30 0.5609
580.40 0.5605
580.50 0.5601
580.60 0.5597
580.70 0.5594
580.80 0.559
580.90 0.5586
581.00 0.5582
581.10 0.5579
581.20 0.5575
581.30 0.5571
581.40 0.5568
581.50 0.5564
581.60 0.556
581.70 0.5556
581.80 0.5553
581.90 0.5549
582.00 0.5545
582.10 0.5542
582.20 0.5538
582.30 0.5534
582.40 0.553
582.50 0.5527
582.60 0.5523
582.70 0.5519
582.80 0.5516
582.90 0.5512
583.00 0.5508
583.10 0.5505
583.20 0.5501
583.30 0.5497
583.40 0.5494
583.50 0.549
583.60 0.5486
583.70 0.5483
583.80 0.5479
583.90 0.5475
584.00 0.5472
584.10 0.5468
584.20 0.5464
584.30 0.5461
584.40 0.5457
584.50 0.5454
584.60 0.545
584.70 0.5446
584.80 0.5443
584.90 0.5439
585.00 0.5435
585.10 0.5432
585.20 0.5428
585.30 0.5425
585.40 0.5421
585.50 0.5417
585.60 0.5414
585.70 0.541
585.80 0.5407
585.90 0.5403
586.00 0.5399
586.10 0.5396
586.20 0.5392
586.30 0.5389
586.40 0.5385
586.50 0.5382
586.60 0.5378
586.70 0.5374
586.80 0.5371
586.90 0.5367
587.00 0.5364
587.10 0.536
587.20 0.5357
587.30 0.5353
587.40 0.535
587.50 0.5346
587.60 0.5342
587.70 0.5339
587.80 0.5335
587.90 0.5332
588.00 0.5328
588.10 0.5325
588.20 0.5321
588.30 0.5318
588.40 0.5314
588.50 0.5311
588.60 0.5307
588.70 0.5304
588.80 0.53
588.90 0.5297
589.00 0.5293
589.10 0.529
589.20 0.5286
589.30 0.5283
589.40 0.5279
589.50 0.5276
589.60 0.5272
589.70 0.5269
589.80 0.5265
589.90 0.5262
590.00 0.5258
590.10 0.5255
590.20 0.5252
590.30 0.5248
590.40 0.5245
590.50 0.5241
590.60 0.5238
590.70 0.5234
590.80 0.5231
590.90 0.5227
591.00 0.5224
591.10 0.5221
591.20 0.5217
591.30 0.5214
591.40 0.521
591.50 0.5207
591.60 0.5203
591.70 0.52
591.80 0.5197
591.90 0.5193
592.00 0.519
592.10 0.5186
592.20 0.5183
592.30 0.5179
592.40 0.5176
592.50 0.5173
592.60 0.5169
592.70 0.5166
592.80 0.5162
592.90 0.5159
593.00 0.5156
593.10 0.5152
593.20 0.5149
593.30 0.5146
593.40 0.5142
593.50 0.5139
593.60 0.5135
593.70 0.5132
593.80 0.5129
593.90 0.5125
594.00 0.5122
594.10 0.5119
594.20 0.5115
594.30 0.5112
594.40 0.5109
594.50 0.5105
594.60 0.5102
594.70 0.5099
594.80 0.5095
594.90 0.5092
595.00 0.5089
595.10 0.5085
595.20 0.5082
595.30 0.5079
595.40 0.5075
595.50 0.5072
595.60 0.5069
595.70 0.5065
595.80 0.5062
595.90 0.5059
596.00 0.5055
596.10 0.5052
596.20 0.5049
596.30 0.5046
596.40 0.5042
596.50 0.5039
596.60 0.5036
596.70 0.5032
596.80 0.5029
596.90 0.5026
597.00 0.5023
597.10 0.5019
597.20 0.5016
597.30 0.5013
597.40 0.5009
597.50 0.5006
597.60 0.5003
597.70 0.5
597.80 0.4996
597.90 0.4993
598.00 0.499
598.10 0.4987
598.20 0.4983
598.30 0.498
598.40 0.4977
598.50 0.4974
598.60 0.4971
598.70 0.4967
598.80 0.4964
598.90 0.4961
599.00 0.4958
599.10 0.4954
599.20 0.4951
599.30 0.4948
599.40 0.4945
599.50 0.4942
599.60 0.4938
599.70 0.4935
599.80 0.4932
599.90 0.4929
600.00 0.4926
600.10 0.4922
600.20 0.4919
600.30 0.4916
600.40 0.4913
600.50 0.491
600.60 0.4906
600.70 0.4903
600.80 0.49
600.90 0.4897
601.00 0.4894
601.10 0.4891
601.20 0.4887
601.30 0.4884
601.40 0.4881
601.50 0.4878
601.60 0.4875
601.70 0.4872
601.80 0.4868
601.90 0.4865
602.00 0.4862
602.10 0.4859
602.20 0.4856
602.30 0.4853
602.40 0.485
602.50 0.4846
602.60 0.4843
602.70 0.484
602.80 0.4837
602.90 0.4834
603.00 0.4831
603.10 0.4828
603.20 0.4825
603.30 0.4822
603.40 0.4818
603.50 0.4815
603.60 0.4812
603.70 0.4809
603.80 0.4806
603.90 0.4803
604.00 0.48
604.10 0.4797
604.20 0.4794
604.30 0.4791
604.40 0.4787
604.50 0.4784
604.60 0.4781
604.70 0.4778
604.80 0.4775
604.90 0.4772
605.00 0.4769
605.10 0.4766
605.20 0.4763
605.30 0.476
605.40 0.4757
605.50 0.4754
605.60 0.4751
605.70 0.4748
605.80 0.4745
605.90 0.4741
606.00 0.4738
606.10 0.4735
606.20 0.4732
606.30 0.4729
606.40 0.4726
606.50 0.4723
606.60 0.472
606.70 0.4717
606.80 0.4714
606.90 0.4711
607.00 0.4708
607.10 0.4705
607.20 0.4702
607.30 0.4699
607.40 0.4696
607.50 0.4693
607.60 0.469
607.70 0.4687
607.80 0.4684
607.90 0.4681
608.00 0.4678
608.10 0.4675
608.20 0.4672
608.30 0.4669
608.40 0.4666
608.50 0.4663
608.60 0.466
608.70 0.4657
608.80 0.4654
608.90 0.4651
609.00 0.4648
609.10 0.4645
609.20 0.4642
609.30 0.4639
609.40 0.4636
609.50 0.4633
609.60 0.463
609.70 0.4627
609.80 0.4625
609.90 0.4622
610.00 0.4619
610.10 0.4616
610.20 0.4613
610.30 0.461
610.40 0.4607
610.50 0.4604
610.60 0.4601
610.70 0.4598
610.80 0.4595
610.90 0.4592
611.00 0.4589
611.10 0.4586
611.20 0.4583
611.30 0.458
611.40 0.4578
611.50 0.4575
611.60 0.4572
611.70 0.4569
611.80 0.4566
611.90 0.4563
612.00 0.456
612.10 0.4557
612.20 0.4554
612.30 0.4551
612.40 0.4549
612.50 0.4546
612.60 0.4543
612.70 0.454
612.80 0.4537
612.90 0.4534
613.00 0.4531
613.10 0.4528
613.20 0.4525
613.30 0.4523
613.40 0.452
613.50 0.4517
613.60 0.4514
613.70 0.4511
613.80 0.4508
613.90 0.4505
614.00 0.4503
614.10 0.45
614.20 0.4497
614.30 0.4494
614.40 0.4491
614.50 0.4488
614.60 0.4485
614.70 0.4483
614.80 0.448
614.90 0.4477
615.00 0.4474
615.10 0.4471
615.20 0.4468
615.30 0.4466
615.40 0.4463
615.50 0.446
615.60 0.4457
615.70 0.4454
615.80 0.4452
615.90 0.4449
616.00 0.4446
616.10 0.4443
616.20 0.444
616.30 0.4437
616.40 0.4435
616.50 0.4432
616.60 0.4429
616.70 0.4426
616.80 0.4423
616.90 0.4421
617.00 0.4418
617.10 0.4415
617.20 0.4412
617.30 0.441
617.40 0.4407
617.50 0.4404
617.60 0.4401
617.70 0.4398
617.80 0.4396
617.90 0.4393
618.00 0.439
618.10 0.4387
618.20 0.4385
618.30 0.4382
618.40 0.4379
618.50 0.4376
618.60 0.4374
618.70 0.4371
618.80 0.4368
618.90 0.4365
619.00 0.4363
619.10 0.436
619.20 0.4357
619.30 0.4354
619.40 0.4352
619.50 0.4349
619.60 0.4346
619.70 0.4343
619.80 0.4341
619.90 0.4338
620.00 0.4335
620.10 0.4333
620.20 0.433
620.30 0.4327
620.40 0.4324
620.50 0.4322
620.60 0.4319
620.70 0.4316
620.80 0.4314
620.90 0.4311
621.00 0.4308
621.10 0.4305
621.20 0.4303
621.30 0.43
621.40 0.4297
621.50 0.4295
621.60 0.4292
621.70 0.4289
621.80 0.4287
621.90 0.4284
622.00 0.4281
622.10 0.4279
622.20 0.4276
622.30 0.4273
622.40 0.427
622.50 0.4268
622.60 0.4265
622.70 0.4262
622.80 0.426
622.90 0.4257
623.00 0.4255
623.10 0.4252
623.20 0.4249
623.30 0.4247
623.40 0.4244
623.50 0.4241
623.60 0.4239
623.70 0.4236
623.80 0.4233
623.90 0.4231
624.00 0.4228
624.10 0.4225
624.20 0.4223
624.30 0.422
624.40 0.4217
624.50 0.4215
624.60 0.4212
624.70 0.421
624.80 0.4207
624.90 0.4204
625.00 0.4202
625.10 0.4199
625.20 0.4196
625.30 0.4194
625.40 0.4191
625.50 0.4189
625.60 0.4186
625.70 0.4183
625.80 0.4181
625.90 0.4178
626.00 0.4176
626.10 0.4173
626.20 0.417
626.30 0.4168
626.40 0.4165
626.50 0.4163
626.60 0.416
626.70 0.4157
626.80 0.4155
626.90 0.4152
627.00 0.415
627.10 0.4147
627.20 0.4145
627.30 0.4142
627.40 0.4139
627.50 0.4137
627.60 0.4134
627.70 0.4132
627.80 0.4129
627.90 0.4127
628.00 0.4124
628.10 0.4121
628.20 0.4119
628.30 0.4116
628.40 0.4114
628.50 0.4111
628.60 0.4109
628.70 0.4106
628.80 0.4104
628.90 0.4101
629.00 0.4099
629.10 0.4096
629.20 0.4093
629.30 0.4091
629.40 0.4088
629.50 0.4086
629.60 0.4083
629.70 0.4081
629.80 0.4078
629.90 0.4076
630.00 0.4073
630.10 0.4071
630.20 0.4068
630.30 0.4066
630.40 0.4063
630.50 0.4061
630.60 0.4058
630.70 0.4056
630.80 0.4053
630.90 0.4051
631.00 0.4048
631.10 0.4046
631.20 0.4043
631.30 0.4041
631.40 0.4038
631.50 0.4036
631.60 0.4033
631.70 0.4031
631.80 0.4028
631.90 0.4026
632.00 0.4023
632.10 0.4021
632.20 0.4018
632.30 0.4016
632.40 0.4013
632.50 0.4011
632.60 0.4008
632.70 0.4006
632.80 0.4003
632.90 0.4001
633.00 0.3999
633.10 0.3996
633.20 0.3994
633.30 0.3991
633.40 0.3989
633.50 0.3986
633.60 0.3984
633.70 0.3981
633.80 0.3979
633.90 0.3976
634.00 0.3974
634.10 0.3972
634.20 0.3969
634.30 0.3967
634.40 0.3964
634.50 0.3962
634.60 0.3959
634.70 0.3957
634.80 0.3954
634.90 0.3952
635.00 0.395
635.10 0.3947
635.20 0.3945
635.30 0.3942
635.40 0.394
635.50 0.3938
635.60 0.3935
635.70 0.3933
635.80 0.393
635.90 0.3928
636.00 0.3925
636.10 0.3923
636.20 0.3921
636.30 0.3918
636.40 0.3916
636.50 0.3913
636.60 0.3911
636.70 0.3909
636.80 0.3906
636.90 0.3904
637.00 0.3901
637.10 0.3899
637.20 0.3897
637.30 0.3894
637.40 0.3892
637.50 0.389
637.60 0.3887
637.70 0.3885
637.80 0.3882
637.90 0.388
638.00 0.3878
638.10 0.3875
638.20 0.3873
638.30 0.3871
638.40 0.3868
638.50 0.3866
638.60 0.3863
638.70 0.3861
638.80 0.3859
638.90 0.3856
639.00 0.3854
639.10 0.3852
639.20 0.3849
639.30 0.3847
639.40 0.3845
639.50 0.3842
639.60 0.384
639.70 0.3838
639.80 0.3835
639.90 0.3833
640.00 0.383
640.10 0.3828
640.20 0.3826
640.30 0.3823
640.40 0.3821
640.50 0.3819
640.60 0.3816
640.70 0.3814
640.80 0.3812
640.90 0.381
641.00 0.3807
641.10 0.3805
641.20 0.3803
641.30 0.38
641.40 0.3798
641.50 0.3796
641.60 0.3793
641.70 0.3791
641.80 0.3789
641.90 0.3786
642.00 0.3784
642.10 0.3782
642.20 0.3779
642.30 0.3777
642.40 0.3775
642.50 0.3772
642.60 0.377
642.70 0.3768
642.80 0.3766
642.90 0.3763
643.00 0.3761
643.10 0.3759
643.20 0.3756
643.30 0.3754
643.40 0.3752
643.50 0.375
643.60 0.3747
643.70 0.3745
643.80 0.3743
643.90 0.374
644.00 0.3738
644.10 0.3736
644.20 0.3734
644.30 0.3731
644.40 0.3729
644.50 0.3727
644.60 0.3724
644.70 0.3722
644.80 0.372
644.90 0.3718
645.00 0.3715
645.10 0.3713
645.20 0.3711
645.30 0.3709
645.40 0.3706
645.50 0.3704
645.60 0.3702
645.70 0.3699
645.80 0.3697
645.90 0.3695
646.00 0.3693
646.10 0.369
646.20 0.3688
646.30 0.3686
646.40 0.3684
646.50 0.3681
646.60 0.3679
646.70 0.3677
646.80 0.3675
646.90 0.3672
647.00 0.367
647.10 0.3668
647.20 0.3666
647.30 0.3663
647.40 0.3661
647.50 0.3659
647.60 0.3657
647.70 0.3654
647.80 0.3652
647.90 0.365
648.00 0.3647
648.10 0.3645
648.20 0.3643
648.30 0.3641
648.40 0.3638
648.50 0.3636
648.60 0.3634
648.70 0.3632
648.80 0.3629
648.90 0.3627
649.00 0.3625
649.10 0.3622
649.20 0.362
649.30 0.3618
649.40 0.3616
649.50 0.3613
649.60 0.3611
649.70 0.3609
649.80 0.3606
649.90 0.3604
650.00 0.3602
650.10 0.3599
650.20 0.3597
650.30 0.3595
650.40 0.3592
650.50 0.359
650.60 0.3587
650.70 0.3585
650.80 0.3583
650.90 0.358
651.00 0.3578
651.10 0.3575
651.20 0.3573
651.30 0.3571
651.40 0.3568
651.50 0.3565
651.60 0.3563
651.70 0.356
651.80 0.3557
651.90 0.3555
652.00 0.3552
652.10 0.355
652.20 0.3547
652.30 0.3544
652.40 0.3541
652.50 0.3538
652.60 0.3534
652.70 0.3531
652.80 0.3528
652.90 0.3525
653.00 0.3522
653.10 0.3518
653.20 0.3515
653.30 0.3512
653.40 0.3506
653.50 0.3501
653.60 0.3496
653.70 0.3491
653.80 0.3486
653.90 0.3481
654.00 0.3476
654.10 0.3471
654.20 0.3466
654.30 0.346
654.40 0.345
654.50 0.3441
654.60 0.3431
654.70 0.3422
654.80 0.3411
654.90 0.3394
655.00 0.3377
655.10 0.336
655.20 0.3342
655.30 0.3323
655.40 0.3294
655.50 0.3263
655.60 0.3222
655.70 0.3175
655.80 0.3108
655.90 0.3028
656.00 0.2893
656.10 0.2749
656.20 0.2748
656.30 0.2886
656.40 0.269
656.50 0.28
656.60 0.2932
656.70 0.3051
656.80 0.3114
656.90 0.3173
657.00 0.321
657.10 0.3245
657.20 0.327
657.30 0.3292
657.40 0.3305
657.50 0.3318
657.60 0.3331
657.70 0.3344
657.80 0.3356
657.90 0.3361
658.00 0.3366
658.10 0.3371
658.20 0.3377
658.30 0.3381
658.40 0.3382
658.50 0.3383
658.60 0.3384
658.70 0.3385
658.80 0.3386
658.90 0.3387
659.00 0.3388
659.10 0.3388
659.20 0.3389
659.30 0.339
659.40 0.3389
659.50 0.3388
659.60 0.3387
659.70 0.3386
659.80 0.3385
659.90 0.3384
660.00 0.3383
660.10 0.3382
660.20 0.3381
660.30 0.338
660.40 0.3379
660.50 0.3377
660.60 0.3376
660.70 0.3374
660.80 0.3373
660.90 0.3371
661.00 0.337
661.10 0.3368
661.20 0.3367
661.30 0.3365
661.40 0.3363
661.50 0.3362
661.60 0.336
661.70 0.3358
661.80 0.3356
661.90 0.3355
662.00 0.3353
662.10 0.3351
662.20 0.335
662.30 0.3348
662.40 0.3346
662.50 0.3344
662.60 0.3342
662.70 0.334
662.80 0.3339
662.90 0.3337
663.00 0.3335
663.10 0.3333
663.20 0.3331
663.30 0.333
663.40 0.3328
663.50 0.3326
663.60 0.3324
663.70 0.3322
663.80 0.332
663.90 0.3318
664.00 0.3316
664.10 0.3315
664.20 0.3313
664.30 0.3311
664.40 0.3309
664.50 0.3307
664.60 0.3305
664.70 0.3303
664.80 0.3301
664.90 0.33
665.00 0.3298
665.10 0.3296
665.20 0.3294
665.30 0.3292
665.40 0.329
665.50 0.3288
665.60 0.3286
665.70 0.3285
665.80 0.3283
665.90 0.3281
666.00 0.3279
666.10 0.3277
666.20 0.3275
666.30 0.3273
666.40 0.3271
666.50 0.3269
666.60 0.3268
666.70 0.3266
666.80 0.3264
666.90 0.3262
667.00 0.326
667.10 0.3258
667.20 0.3256
667.30 0.3254
667.40 0.3253
667.50 0.3251
667.60 0.3249
667.70 0.3247
667.80 0.3245
667.90 0.3243
668.00 0.3241
668.10 0.3239
668.20 0.3238
668.30 0.3236
668.40 0.3234
668.50 0.3232
668.60 0.323
668.70 0.3228
668.80 0.3226
668.90 0.3224
669.00 0.3223
669.10 0.3221
669.20 0.3219
669.30 0.3217
669.40 0.3215
669.50 0.3213
669.60 0.3211
669.70 0.321
669.80 0.3208
669.90 0.3206
670.00 0.3204
670.10 0.3202
670.20 0.32
670.30 0.3198
670.40 0.3197
670.50 0.3195
670.60 0.3193
670.70 0.3191
670.80 0.3189
670.90 0.3187
671.00 0.3186
671.10 0.3184
671.20 0.3182
671.30 0.318
671.40 0.3178
671.50 0.3176
671.60 0.3175
671.70 0.3173
671.80 0.3171
671.90 0.3169
672.00 0.3167
672.10 0.3165
672.20 0.3164
672.30 0.3162
672.40 0.316
672.50 0.3158
672.60 0.3156
672.70 0.3154
672.80 0.3153
672.90 0.3151
673.00 0.3149
673.10 0.3147
673.20 0.3145
673.30 0.3143
673.40 0.3142
673.50 0.314
673.60 0.3138
673.70 0.3136
673.80 0.3134
673.90 0.3133
674.00 0.3131
674.10 0.3129
674.20 0.3127
674.30 0.3125
674.40 0.3124
674.50 0.3122
674.60 0.312
674.70 0.3118
674.80 0.3116
674.90 0.3115
675.00 0.3113
675.10 0.3111
675.20 0.3109
675.30 0.3107
675.40 0.3106
675.50 0.3104
675.60 0.3102
675.70 0.31
675.80 0.3098
675.90 0.3097
676.00 0.3095
676.10 0.3093
676.20 0.3091
676.30 0.309
676.40 0.3088
676.50 0.3086
676.60 0.3084
676.70 0.3082
676.80 0.3081
676.90 0.3079
677.00 0.3077
677.10 0.3075
677.20 0.3074
677.30 0.3072
677.40 0.307
677.50 0.3068
677.60 0.3067
677.70 0.3065
677.80 0.3063
677.90 0.3061
678.00 0.3059
678.10 0.3058
678.20 0.3056
678.30 0.3054
678.40 0.3052
678.50 0.3051
678.60 0.3049
678.70 0.3047
678.80 0.3045
678.90 0.3044
679.00 0.3042
679.10 0.304
679.20 0.3038
679.30 0.3037
679.40 0.3035
679.50 0.3033
679.60 0.3032
679.70 0.303
679.80 0.3028
679.90 0.3026
680.00 0.3025
680.10 0.3023
680.20 0.3021
680.30 0.3019
680.40 0.3018
680.50 0.3016
680.60 0.3014
680.70 0.3012
680.80 0.3011
680.90 0.3009
681.00 0.3007
681.10 0.3006
681.20 0.3004
681.30 0.3002
681.40 0.3
681.50 0.2999
681.60 0.2997
681.70 0.2995
681.80 0.2994
681.90 0.2992
682.00 0.299
682.10 0.2988
682.20 0.2987
682.30 0.2985
682.40 0.2983
682.50 0.2982
682.60 0.298
682.70 0.2978
682.80 0.2977
682.90 0.2975
683.00 0.2973
683.10 0.2971
683.20 0.297
683.30 0.2968
683.40 0.2966
683.50 0.2965
683.60 0.2963
683.70 0.2961
683.80 0.296
683.90 0.2958
684.00 0.2956
684.10 0.2955
684.20 0.2953
684.30 0.2951
684.40 0.2949
684.50 0.2948
684.60 0.2946
684.70 0.2944
684.80 0.2943
684.90 0.2941
685.00 0.2939
685.10 0.2938
685.20 0.2936
685.30 0.2934
685.40 0.2933
685.50 0.2931
685.60 0.2929
685.70 0.2928
685.80 0.2926
685.90 0.2924
686.00 0.2923
686.10 0.2921
686.20 0.2919
686.30 0.2918
686.40 0.2916
686.50 0.2914
686.60 0.2913
686.70 0.2911
686.80 0.291
686.90 0.2908
687.00 0.2906
687.10 0.2905
687.20 0.2903
687.30 0.2901
687.40 0.29
687.50 0.2898
687.60 0.2896
687.70 0.2895
687.80 0.2893
687.90 0.2891
688.00 0.289
688.10 0.2888
688.20 0.2886
688.30 0.2885
688.40 0.2883
688.50 0.2882
688.60 0.288
688.70 0.2878
688.80 0.2877
688.90 0.2875
689.00 0.2873
689.10 0.2872
689.20 0.287
689.30 0.2869
689.40 0.2867
689.50 0.2865
689.60 0.2864
689.70 0.2862
689.80 0.2861
689.90 0.2859
690.00 0.2857
690.10 0.2856
690.20 0.2854
690.30 0.2852
690.40 0.2851
690.50 0.2849
690.60 0.2848
690.70 0.2846
690.80 0.2844
690.90 0.2843
691.00 0.2841
691.10 0.284
691.20 0.2838
691.30 0.2836
691.40 0.2835
691.50 0.2833
691.60 0.2832
691.70 0.283
691.80 0.2828
691.90 0.2827
692.00 0.2825
692.10 0.2824
692.20 0.2822
692.30 0.2821
692.40 0.2819
692.50 0.2817
692.60 0.2816
692.70 0.2814
692.80 0.2813
692.90 0.2811
693.00 0.2809
693.10 0.2808
693.20 0.2806
693.30 0.2805
693.40 0.2803
693.50 0.2802
693.60 0.28
693.70 0.2798
693.80 0.2797
693.90 0.2795
694.00 0.2794
694.10 0.2792
694.20 0.279
694.30 0.2789
694.40 0.2787
694.50 0.2786
694.60 0.2784
694.70 0.2783
694.80 0.2781
694.90 0.2779
695.00 0.2778
695.10 0.2776
695.20 0.2775
695.30 0.2773
695.40 0.2772
695.50 0.277
695.60 0.2769
695.70 0.2767
695.80 0.2766
695.90 0.2764
696.00 0.2762
696.10 0.2761
696.20 0.2759
696.30 0.2758
696.40 0.2756
696.50 0.2755
696.60 0.2753
696.70 0.2752
696.80 0.275
696.90 0.2749
697.00 0.2747
697.10 0.2745
697.20 0.2744
697.30 0.2742
697.40 0.2741
697.50 0.2739
697.60 0.2738
697.70 0.2736
697.80 0.2735
697.90 0.2733
698.00 0.2732
698.10 0.273
698.20 0.2729
698.30 0.2727
698.40 0.2726
698.50 0.2724
698.60 0.2723
698.70 0.2721
698.80 0.2719
698.90 0.2718
699.00 0.2716
699.10 0.2715
699.20 0.2713
699.30 0.2712
699.40 0.271
699.50 0.2709
699.60 0.2707
699.70 0.2706
699.80 0.2704
699.90 0.2703
700.00 0.2701
700.10 0.27
700.20 0.2698
700.30 0.2697
700.40 0.2695
700.50 0.2694
700.60 0.2692
700.70 0.2691
700.80 0.2689
700.90 0.2688
701.00 0.2686
701.10 0.2685
701.20 0.2683
701.30 0.2682
701.40 0.268
701.50 0.2679
701.60 0.2677
701.70 0.2676
701.80 0.2674
701.90 0.2673
702.00 0.2671
702.10 0.267
702.20 0.2669
702.30 0.2667
702.40 0.2666
702.50 0.2664
702.60 0.2663
702.70 0.2661
702.80 0.266
702.90 0.2658
703.00 0.2657
703.10 0.2655
703.20 0.2654
703.30 0.2652
703.40 0.2651
703.50 0.2649
703.60 0.2648
703.70 0.2646
703.80 0.2645
703.90 0.2643
704.00 0.2642
704.10 0.264
704.20 0.2639
704.30 0.2638
704.40 0.2636
704.50 0.2635
704.60 0.2633
704.70 0.2632
704.80 0.263
704.90 0.2629
705.00 0.2627
705.10 0.2626
705.20 0.2624
705.30 0.2623
705.40 0.2622
705.50 0.262
705.60 0.2619
705.70 0.2617
705.80 0.2616
705.90 0.2614
706.00 0.2613
706.10 0.2611
706.20 0.261
706.30 0.2609
706.40 0.2607
706.50 0.2606
706.60 0.2604
706.70 0.2603
706.80 0.2601
706.90 0.26
707.00 0.2599
707.10 0.2597
707.20 0.2596
707.30 0.2594
707.40 0.2593
707.50 0.2591
707.60 0.259
707.70 0.2588
707.80 0.2587
707.90 0.2586
708.00 0.2584
708.10 0.2583
708.20 0.2581
708.30 0.258
708.40 0.2579
708.50 0.2577
708.60 0.2576
708.70 0.2574
708.80 0.2573
708.90 0.2571
709.00 0.257
709.10 0.2569
709.20 0.2567
709.30 0.2566
709.40 0.2564
709.50 0.2563
709.60 0.2561
709.70 0.256
709.80 0.2559
709.90 0.2557
710.00 0.2556
710.10 0.2554
710.20 0.2553
710.30 0.2552
710.40 0.255
710.50 0.2549
710.60 0.2547
710.70 0.2546
710.80 0.2545
710.90 0.2543
711.00 0.2542
711.10 0.254
711.20 0.2539
711.30 0.2538
711.40 0.2536
711.50 0.2535
711.60 0.2534
711.70 0.2532
711.80 0.2531
711.90 0.2529
712.00 0.2528
712.10 0.2527
712.20 0.2525
712.30 0.2524
712.40 0.2522
712.50 0.2521
712.60 0.252
712.70 0.2518
712.80 0.2517
712.90 0.2516
713.00 0.2514
713.10 0.2513
713.20 0.2511
713.30 0.251
713.40 0.2509
713.50 0.2507
713.60 0.2506
713.70 0.2505
713.80 0.2503
713.90 0.2502
714.00 0.25
714.10 0.2499
714.20 0.2498
714.30 0.2496
714.40 0.2495
714.50 0.2494
714.60 0.2492
714.70 0.2491
714.80 0.249
714.90 0.2488
715.00 0.2487
715.10 0.2485
715.20 0.2484
715.30 0.2483
715.40 0.2481
715.50 0.248
715.60 0.2479
715.70 0.2477
715.80 0.2476
715.90 0.2475
716.00 0.2473
716.10 0.2472
716.20 0.2471
716.30 0.2469
716.40 0.2468
716.50 0.2467
716.60 0.2465
716.70 0.2464
716.80 0.2463
716.90 0.2461
717.00 0.246
717.10 0.2459
717.20 0.2457
717.30 0.2456
717.40 0.2455
717.50 0.2453
717.60 0.2452
717.70 0.2451
717.80 0.2449
717.90 0.2448
718.00 0.2447
718.10 0.2445
718.20 0.2444
718.30 0.2443
718.40 0.2441
718.50 0.244
718.60 0.2439
718.70 0.2437
718.80 0.2436
718.90 0.2435
719.00 0.2433
719.10 0.2432
719.20 0.2431
719.30 0.2429
719.40 0.2428
719.50 0.2427
719.60 0.2425
719.70 0.2424
719.80 0.2423
719.90 0.2421
720.00 0.242
720.10 0.2419
720.20 0.2417
720.30 0.2416
720.40 0.2415
720.50 0.2414
720.60 0.2412
720.70 0.2411
720.80 0.241
720.90 0.2408
721.00 0.2407
721.10 0.2406
721.20 0.2404
721.30 0.2403
721.40 0.2402
721.50 0.2401
721.60 0.2399
721.70 0.2398
721.80 0.2397
721.90 0.2395
722.00 0.2394
722.10 0.2393
722.20 0.2391
722.30 0.239
722.40 0.2389
722.50 0.2388
722.60 0.2386
722.70 0.2385
722.80 0.2384
722.90 0.2382
723.00 0.2381
723.10 0.238
723.20 0.2379
723.30 0.2377
723.40 0.2376
723.50 0.2375
723.60 0.2373
723.70 0.2372
723.80 0.2371
723.90 0.237
724.00 0.2368
724.10 0.2367
724.20 0.2366
724.30 0.2364
724.40 0.2363
724.50 0.2362
724.60 0.2361
724.70 0.2359
724.80 0.2358
724.90 0.2357
725.00 0.2356
725.10 0.2354
725.20 0.2353
725.30 0.2352
725.40 0.235
725.50 0.2349
725.60 0.2348
725.70 0.2347
725.80 0.2345
725.90 0.2344
726.00 0.2343
726.10 0.2342
726.20 0.234
726.30 0.2339
726.40 0.2338
726.50 0.2337
726.60 0.2335
726.70 0.2334
726.80 0.2333
726.90 0.2332
727.00 0.233
727.10 0.2329
727.20 0.2328
727.30 0.2327
727.40 0.2325
727.50 0.2324
727.60 0.2323
727.70 0.2322
727.80 0.232
727.90 0.2319
728.00 0.2318
728.10 0.2317
728.20 0.2315
728.30 0.2314
728.40 0.2313
728.50 0.2312
728.60 0.231
728.70 0.2309
728.80 0.2308
728.90 0.2307
729.00 0.2306
729.10 0.2304
729.20 0.2303
729.30 0.2302
729.40 0.2301
729.50 0.2299
729.60 0.2298
729.70 0.2297
729.80 0.2296
729.90 0.2294
730.00 0.2293
730.10 0.2292
730.20 0.2291
730.30 0.229
730.40 0.2288
730.50 0.2287
730.60 0.2286
730.70 0.2285
730.80 0.2283
730.90 0.2282
731.00 0.2281
731.10 0.228
731.20 0.2279
731.30 0.2277
731.40 0.2276
731.50 0.2275
731.60 0.2274
731.70 0.2273
731.80 0.2271
731.90 0.227
732.00 0.2269
732.10 0.2268
732.20 0.2267
732.30 0.2265
732.40 0.2264
732.50 0.2263
732.60 0.2262
732.70 0.2261
732.80 0.2259
732.90 0.2258
733.00 0.2257
733.10 0.2256
733.20 0.2255
733.30 0.2253
733.40 0.2252
733.50 0.2251
733.60 0.225
733.70 0.2249
733.80 0.2247
733.90 0.2246
734.00 0.2245
734.10 0.2244
734.20 0.2243
734.30 0.2241
734.40 0.224
734.50 0.2239
734.60 0.2238
734.70 0.2237
734.80 0.2236
734.90 0.2234
735.00 0.2233
735.10 0.2232
735.20 0.2231
735.30 0.223
735.40 0.2228
735.50 0.2227
735.60 0.2226
735.70 0.2225
735.80 0.2224
735.90 0.2222
736.00 0.2221
736.10 0.222
736.20 0.2219
736.30 0.2218
736.40 0.2217
736.50 0.2215
736.60 0.2214
736.70 0.2213
736.80 0.2212
736.90 0.2211
737.00 0.221
737.10 0.2208
737.20 0.2207
737.30 0.2206
737.40 0.2205
737.50 0.2204
737.60 0.2202
737.70 0.2201
737.80 0.22
737.90 0.2199
738.00 0.2198
738.10 0.2197
738.20 0.2195
738.30 0.2194
738.40 0.2193
738.50 0.2192
738.60 0.2191
738.70 0.219
738.80 0.2188
738.90 0.2187
739.00 0.2186
739.10 0.2185
739.20 0.2184
739.30 0.2183
739.40 0.2181
739.50 0.218
739.60 0.2179
739.70 0.2178
739.80 0.2177
739.90 0.2176
740.00 0.2175
740.10 0.2173
740.20 0.2172
740.30 0.2171
740.40 0.217
740.50 0.2169
740.60 0.2168
740.70 0.2167
740.80 0.2165
740.90 0.2164
741.00 0.2163
741.10 0.2162
741.20 0.2161
741.30 0.216
741.40 0.2159
741.50 0.2158
741.60 0.2156
741.70 0.2155
741.80 0.2154
741.90 0.2153
742.00 0.2152
742.10 0.2151
742.20 0.215
742.30 0.2149
742.40 0.2147
742.50 0.2146
742.60 0.2145
742.70 0.2144
742.80 0.2143
742.90 0.2142
743.00 0.2141
743.10 0.214
743.20 0.2138
743.30 0.2137
743.40 0.2136
743.50 0.2135
743.60 0.2134
743.70 0.2133
743.80 0.2132
743.90 0.2131
744.00 0.2129
744.10 0.2128
744.20 0.2127
744.30 0.2126
744.40 0.2125
744.50 0.2124
744.60 0.2123
744.70 0.2122
744.80 0.2121
744.90 0.2119
745.00 0.2118
745.10 0.2117
745.20 0.2116
745.30 0.2115
745.40 0.2114
745.50 0.2113
745.60 0.2112
745.70 0.2111
745.80 0.2109
745.90 0.2108
746.00 0.2107
746.10 0.2106
746.20 0.2105
746.30 0.2104
746.40 0.2103
746.50 0.2102
746.60 0.2101
746.70 0.21
746.80 0.2098
746.90 0.2097
747.00 0.2096
747.10 0.2095
747.20 0.2094
747.30 0.2093
747.40 0.2092
747.50 0.2091
747.60 0.209
747.70 0.2089
747.80 0.2087
747.90 0.2086
748.00 0.2085
748.10 0.2084
748.20 0.2083
748.30 0.2082
748.40 0.2081
748.50 0.208
748.60 0.2079
748.70 0.2078
748.80 0.2077
748.90 0.2075
749.00 0.2074
749.10 0.2073
749.20 0.2072
749.30 0.2071
749.40 0.207
749.50 0.2069
749.60 0.2068
749.70 0.2067
749.80 0.2066
749.90 0.2065
750.00 0.2063
750.10 0.2062
750.20 0.2061
750.30 0.206
750.40 0.2059
750.50 0.2058
750.60 0.2057
750.70 0.2056
750.80 0.2055
750.90 0.2054
751.00 0.2053
751.10 0.2052
751.20 0.2051
751.30 0.205
751.40 0.2049
751.50 0.2048
751.60 0.2046
751.70 0.2045
751.80 0.2044
751.90 0.2043
752.00 0.2042
752.10 0.2041
752.20 0.204
752.30 0.2039
752.40 0.2038
752.50 0.2037
752.60 0.2036
752.70 0.2035
752.80 0.2034
752.90 0.2033
753.00 0.2032
753.10 0.2031
753.20 0.203
753.30 0.2029
753.40 0.2028
753.50 0.2026
753.60 0.2025
753.70 0.2024
753.80 0.2023
753.90 0.2022
754.00 0.2021
754.10 0.202
754.20 0.2019
754.30 0.2018
754.40 0.2017
754.50 0.2016
754.60 0.2015
754.70 0.2014
754.80 0.2013
754.90 0.2012
755.00 0.2011
755.10 0.201
755.20 0.2009
755.30 0.2008
755.40 0.2007
755.50 0.2006
755.60 0.2005
755.70 0.2004
755.80 0.2003
755.90 0.2001
756.00 0.2
756.10 0.1999
756.20 0.1998
756.30 0.1997
756.40 0.1996
756.50 0.1995
756.60 0.1994
756.70 0.1993
756.80 0.1992
756.90 0.1991
757.00 0.199
757.10 0.1989
757.20 0.1988
757.30 0.1987
757.40 0.1986
757.50 0.1985
757.60 0.1984
757.70 0.1983
757.80 0.1982
757.90 0.1981
758.00 0.198
758.10 0.1979
758.20 0.1978
758.30 0.1977
758.40 0.1976
758.50 0.1975
758.60 0.1974
758.70 0.1973
758.80 0.1972
758.90 0.1971
759.00 0.197
759.10 0.1969
759.20 0.1968
759.30 0.1967
759.40 0.1966
759.50 0.1964
759.60 0.1963
759.70 0.1962
759.80 0.1961
759.90 0.196
760.00 0.1959
760.10 0.1958
760.20 0.1957
760.30 0.1956
760.40 0.1955
760.50 0.1954
760.60 0.1953
760.70 0.1952
760.80 0.1951
760.90 0.195
761.00 0.1949
761.10 0.1948
761.20 0.1947
761.30 0.1946
761.40 0.1945
761.50 0.1944
761.60 0.1943
761.70 0.1942
761.80 0.1942
761.90 0.1941
762.00 0.194
762.10 0.1939
762.20 0.1938
762.30 0.1937
762.40 0.1936
762.50 0.1935
762.60 0.1934
762.70 0.1933
762.80 0.1932
762.90 0.1931
763.00 0.193
763.10 0.1929
763.20 0.1928
763.30 0.1927
763.40 0.1926
763.50 0.1925
763.60 0.1924
763.70 0.1923
763.80 0.1922
763.90 0.1921
764.00 0.192
764.10 0.1919
764.20 0.1918
764.30 0.1917
764.40 0.1916
764.50 0.1915
764.60 0.1914
764.70 0.1913
764.80 0.1912
764.90 0.1911
765.00 0.191
765.10 0.1909
765.20 0.1908
765.30 0.1907
765.40 0.1906
765.50 0.1905
765.60 0.1904
765.70 0.1903
765.80 0.1902
765.90 0.1901
766.00 0.19
766.10 0.1899
766.20 0.1898
766.30 0.1897
766.40 0.1896
766.50 0.1895
766.60 0.1895
766.70 0.1894
766.80 0.1893
766.90 0.1892
767.00 0.1891
767.10 0.189
767.20 0.1889
767.30 0.1888
767.40 0.1887
767.50 0.1886
767.60 0.1885
767.70 0.1884
767.80 0.1883
767.90 0.1882
768.00 0.1881
768.10 0.188
768.20 0.1879
768.30 0.1878
768.40 0.1877
768.50 0.1876
768.60 0.1875
768.70 0.1874
768.80 0.1873
768.90 0.1872
769.00 0.1871
769.10 0.187
769.20 0.1869
769.30 0.1869
769.40 0.1868
769.50 0.1867
769.60 0.1866
769.70 0.1865
769.80 0.1864
769.90 0.1863
770.00 0.1862
770.10 0.1861
770.20 0.186
770.30 0.1859
770.40 0.1858
770.50 0.1857
770.60 0.1856
770.70 0.1855
770.80 0.1854
770.90 0.1853
771.00 0.1852
771.10 0.1852
771.20 0.1851
771.30 0.185
771.40 0.1849
771.50 0.1848
771.60 0.1847
771.70 0.1846
771.80 0.1845
771.90 0.1844
772.00 0.1843
772.10 0.1842
772.20 0.1841
772.30 0.184
772.40 0.1839
772.50 0.1839
772.60 0.1838
772.70 0.1837
772.80 0.1836
772.90 0.1835
773.00 0.1834
773.10 0.1833
773.20 0.1832
773.30 0.1831
773.40 0.183
773.50 0.1829
773.60 0.1828
773.70 0.1827
773.80 0.1827
773.90 0.1826
774.00 0.1825
774.10 0.1824
774.20 0.1823
774.30 0.1822
774.40 0.1821
774.50 0.182
774.60 0.1819
774.70 0.1818
774.80 0.1817
774.90 0.1816
775.00 0.1816
775.10 0.1815
775.20 0.1814
775.30 0.1813
775.40 0.1812
775.50 0.1811
775.60 0.181
775.70 0.1809
775.80 0.1808
775.90 0.1807
776.00 0.1806
776.10 0.1805
776.20 0.1805
776.30 0.1804
776.40 0.1803
776.50 0.1802
776.60 0.1801
776.70 0.18
776.80 0.1799
776.90 0.1798
777.00 0.1797
777.10 0.1796
777.20 0.1795
777.30 0.1795
777.40 0.1794
777.50 0.1793
777.60 0.1792
777.70 0.1791
777.80 0.179
777.90 0.1789
778.00 0.1788
778.10 0.1787
778.20 0.1786
778.30 0.1786
778.40 0.1785
778.50 0.1784
778.60 0.1783
778.70 0.1782
778.80 0.1781
778.90 0.178
779.00 0.1779
779.10 0.1778
779.20 0.1777
779.30 0.1777
779.40 0.1776
779.50 0.1775
779.60 0.1774
779.70 0.1773
779.80 0.1772
779.90 0.1771
780.00 0.177
780.10 0.1769
780.20 0.1769
780.30 0.1768
780.40 0.1767
780.50 0.1766
780.60 0.1765
780.70 0.1764
780.80 0.1763
780.90 0.1762
781.00 0.1761
781.10 0.1761
781.20 0.176
781.30 0.1759
781.40 0.1758
781.50 0.1757
781.60 0.1756
781.70 0.1755
781.80 0.1755
781.90 0.1754
782.00 0.1753
782.10 0.1752
782.20 0.1751
782.30 0.175
782.40 0.1749
782.50 0.1748
782.60 0.1748
782.70 0.1747
782.80 0.1746
782.90 0.1745
783.00 0.1744
783.10 0.1743
783.20 0.1742
783.30 0.1741
783.40 0.1741
783.50 0.174
783.60 0.1739
783.70 0.1738
783.80 0.1737
783.90 0.1736
784.00 0.1735
784.10 0.1735
784.20 0.1734
784.30 0.1733
784.40 0.1732
784.50 0.1731
784.60 0.173
784.70 0.1729
784.80 0.1729
784.90 0.1728
785.00 0.1727
785.10 0.1726
785.20 0.1725
785.30 0.1724
785.40 0.1723
785.50 0.1723
785.60 0.1722
785.70 0.1721
785.80 0.172
785.90 0.1719
786.00 0.1718
786.10 0.1717
786.20 0.1717
786.30 0.1716
786.40 0.1715
786.50 0.1714
786.60 0.1713
786.70 0.1712
786.80 0.1711
786.90 0.1711
787.00 0.171
787.10 0.1709
787.20 0.1708
787.30 0.1707
787.40 0.1706
787.50 0.1705
787.60 0.1705
787.70 0.1704
787.80 0.1703
787.90 0.1702
788.00 0.1701
788.10 0.17
788.20 0.1699
788.30 0.1699
788.40 0.1698
788.50 0.1697
788.60 0.1696
788.70 0.1695
788.80 0.1694
788.90 0.1694
789.00 0.1693
789.10 0.1692
789.20 0.1691
789.30 0.169
789.40 0.1689
789.50 0.1688
789.60 0.1688
789.70 0.1687
789.80 0.1686
789.90 0.1685
790.00 0.1684
790.10 0.1683
790.20 0.1683
790.30 0.1682
790.40 0.1681
790.50 0.168
790.60 0.1679
790.70 0.1679
790.80 0.1678
790.90 0.1677
791.00 0.1676
791.10 0.1675
791.20 0.1674
791.30 0.1674
791.40 0.1673
791.50 0.1672
791.60 0.1671
791.70 0.167
791.80 0.1669
791.90 0.1669
792.00 0.1668
792.10 0.1667
792.20 0.1666
792.30 0.1665
792.40 0.1665
792.50 0.1664
792.60 0.1663
792.70 0.1662
792.80 0.1661
792.90 0.166
793.00 0.166
793.10 0.1659
793.20 0.1658
793.30 0.1657
793.40 0.1656
793.50 0.1656
793.60 0.1655
793.70 0.1654
793.80 0.1653
793.90 0.1652
794.00 0.1652
794.10 0.1651
794.20 0.165
794.30 0.1649
794.40 0.1648
794.50 0.1647
794.60 0.1647
794.70 0.1646
794.80 0.1645
794.90 0.1644
795.00 0.1643
795.10 0.1643
795.20 0.1642
795.30 0.1641
795.40 0.164
795.50 0.1639
795.60 0.1639
795.70 0.1638
795.80 0.1637
795.90 0.1636
796.00 0.1635
796.10 0.1635
796.20 0.1634
796.30 0.1633
796.40 0.1632
796.50 0.1631
796.60 0.1631
796.70 0.163
796.80 0.1629
796.90 0.1628
797.00 0.1627
797.10 0.1627
797.20 0.1626
797.30 0.1625
797.40 0.1624
797.50 0.1623
797.60 0.1623
797.70 0.1622
797.80 0.1621
797.90 0.162
798.00 0.1619
798.10 0.1619
798.20 0.1618
798.30 0.1617
798.40 0.1616
798.50 0.1615
798.60 0.1615
798.70 0.1614
798.80 0.1613
798.90 0.1612
799.00 0.1611
799.10 0.1611
799.20 0.161
799.30 0.1609
799.40 0.1608
799.50 0.1607
799.60 0.1607
799.70 0.1606
799.80 0.1605
799.90 0.1604
800.00 0.1603
800.10 0.1603
800.20 0.1602
800.30 0.1601
800.40 0.16
800.50 0.16
800.60 0.1599
800.70 0.1598
800.80 0.1597
800.90 0.1596
801.00 0.1596
801.10 0.1595
801.20 0.1594
801.30 0.1593
801.40 0.1593
801.50 0.1592
801.60 0.1591
801.70 0.159
801.80 0.159
801.90 0.1589
802.00 0.1588
802.10 0.1587
802.20 0.1586
802.30 0.1586
802.40 0.1585
802.50 0.1584
802.60 0.1583
802.70 0.1583
802.80 0.1582
802.90 0.1581
803.00 0.158
803.10 0.158
803.20 0.1579
803.30 0.1578
803.40 0.1577
803.50 0.1576
803.60 0.1576
803.70 0.1575
803.80 0.1574
803.90 0.1573
804.00 0.1573
804.10 0.1572
804.20 0.1571
804.30 0.157
804.40 0.157
804.50 0.1569
804.60 0.1568
804.70 0.1567
804.80 0.1567
804.90 0.1566
805.00 0.1565
805.10 0.1564
805.20 0.1564
805.30 0.1563
805.40 0.1562
805.50 0.1561
805.60 0.156
805.70 0.156
805.80 0.1559
805.90 0.1558
806.00 0.1557
806.10 0.1557
806.20 0.1556
806.30 0.1555
806.40 0.1554
806.50 0.1554
806.60 0.1553
806.70 0.1552
806.80 0.1551
806.90 0.1551
807.00 0.155
807.10 0.1549
807.20 0.1548
807.30 0.1548
807.40 0.1547
807.50 0.1546
807.60 0.1545
807.70 0.1545
807.80 0.1544
807.90 0.1543
808.00 0.1542
808.10 0.1542
808.20 0.1541
808.30 0.154
808.40 0.1539
808.50 0.1539
808.60 0.1538
808.70 0.1537
808.80 0.1536
808.90 0.1536
809.00 0.1535
809.10 0.1534
809.20 0.1533
809.30 0.1533
809.40 0.1532
809.50 0.1531
809.60 0.153
809.70 0.153
809.80 0.1529
809.90 0.1528
810.00 0.1527
810.10 0.1527
810.20 0.1526
810.30 0.1525
810.40 0.1524
810.50 0.1524
810.60 0.1523
810.70 0.1522
810.80 0.1522
810.90 0.1521
811.00 0.152
811.10 0.1519
811.20 0.1519
811.30 0.1518
811.40 0.1517
811.50 0.1516
811.60 0.1516
811.70 0.1515
811.80 0.1514
811.90 0.1514
812.00 0.1513
812.10 0.1512
812.20 0.1511
812.30 0.1511
812.40 0.151
812.50 0.1509
812.60 0.1509
812.70 0.1508
812.80 0.1507
812.90 0.1506
813.00 0.1506
813.10 0.1505
813.20 0.1504
813.30 0.1503
813.40 0.1503
813.50 0.1502
813.60 0.1501
813.70 0.1501
813.80 0.15
813.90 0.1499
814.00 0.1498
814.10 0.1498
814.20 0.1497
814.30 0.1496
814.40 0.1496
814.50 0.1495
814.60 0.1494
814.70 0.1493
814.80 0.1493
814.90 0.1492
815.00 0.1491
815.10 0.1491
815.20 0.149
815.30 0.1489
815.40 0.1488
815.50 0.1488
815.60 0.1487
815.70 0.1486
815.80 0.1486
815.90 0.1485
816.00 0.1484
816.10 0.1483
816.20 0.1483
816.30 0.1482
816.40 0.1481
816.50 0.1481
816.60 0.148
816.70 0.1479
816.80 0.1478
816.90 0.1478
817.00 0.1477
817.10 0.1476
817.20 0.1476
817.30 0.1475
817.40 0.1474
817.50 0.1473
817.60 0.1473
817.70 0.1472
817.80 0.1471
817.90 0.1471
818.00 0.147
818.10 0.1469
818.20 0.1469
818.30 0.1468
818.40 0.1467
818.50 0.1466
818.60 0.1466
818.70 0.1465
818.80 0.1464
818.90 0.1464
819.00 0.1463
819.10 0.1462
819.20 0.1461
819.30 0.1461
819.40 0.146
819.50 0.1459
819.60 0.1459
819.70 0.1458
819.80 0.1457
819.90 0.1457
820.00 0.1456
820.10 0.1455
820.20 0.1454
820.30 0.1454
820.40 0.1453
820.50 0.1452
820.60 0.1452
820.70 0.1451
820.80 0.145
820.90 0.145
821.00 0.1449
821.10 0.1448
821.20 0.1448
821.30 0.1447
821.40 0.1446
821.50 0.1445
821.60 0.1445
821.70 0.1444
821.80 0.1443
821.90 0.1443
822.00 0.1442
822.10 0.1441
822.20 0.1441
822.30 0.144
822.40 0.1439
822.50 0.1439
822.60 0.1438
822.70 0.1437
822.80 0.1437
822.90 0.1436
823.00 0.1435
823.10 0.1435
823.20 0.1434
823.30 0.1433
823.40 0.1433
823.50 0.1432
823.60 0.1431
823.70 0.143
823.80 0.143
823.90 0.1429
824.00 0.1428
824.10 0.1428
824.20 0.1427
824.30 0.1426
824.40 0.1426
824.50 0.1425
824.60 0.1424
824.70 0.1424
824.80 0.1423
824.90 0.1422
825.00 0.1422
825.10 0.1421
825.20 0.142
825.30 0.142
825.40 0.1419
825.50 0.1418
825.60 0.1418
825.70 0.1417
825.80 0.1416
825.90 0.1416
826.00 0.1415
826.10 0.1414
826.20 0.1414
826.30 0.1413
826.40 0.1412
826.50 0.1412
826.60 0.1411
826.70 0.141
826.80 0.141
826.90 0.1409
827.00 0.1408
827.10 0.1408
827.20 0.1407
827.30 0.1406
827.40 0.1406
827.50 0.1405
827.60 0.1404
827.70 0.1404
827.80 0.1403
827.90 0.1402
828.00 0.1402
828.10 0.1401
828.20 0.14
828.30 0.14
828.40 0.1399
828.50 0.1398
828.60 0.1398
828.70 0.1397
828.80 0.1396
828.90 0.1396
829.00 0.1395
829.10 0.1394
829.20 0.1394
829.30 0.1393
829.40 0.1392
829.50 0.1392
829.60 0.1391
829.70 0.139
829.80 0.139
829.90 0.1389
830.00 0.1388
830.10 0.1388
830.20 0.1387
830.30 0.1386
830.40 0.1386
830.50 0.1385
830.60 0.1385
830.70 0.1384
830.80 0.1383
830.90 0.1383
831.00 0.1382
831.10 0.1381
831.20 0.1381
831.30 0.138
831.40 0.1379
831.50 0.1379
831.60 0.1378
831.70 0.1377
831.80 0.1377
831.90 0.1376
832.00 0.1375
832.10 0.1375
832.20 0.1374
832.30 0.1373
832.40 0.1373
832.50 0.1372
832.60 0.1372
832.70 0.1371
832.80 0.137
832.90 0.137
833.00 0.1369
833.10 0.1368
833.20 0.1368
833.30 0.1367
833.40 0.1366
833.50 0.1366
833.60 0.1365
833.70 0.1364
833.80 0.1364
833.90 0.1363
834.00 0.1363
834.10 0.1362
834.20 0.1361
834.30 0.1361
834.40 0.136
834.50 0.1359
834.60 0.1359
834.70 0.1358
834.80 0.1357
834.90 0.1357
835.00 0.1356
835.10 0.1356
835.20 0.1355
835.30 0.1354
835.40 0.1354
835.50 0.1353
835.60 0.1352
835.70 0.1352
835.80 0.1351
835.90 0.135
836.00 0.135
836.10 0.1349
836.20 0.1349
836.30 0.1348
836.40 0.1347
836.50 0.1347
836.60 0.1346
836.70 0.1345
836.80 0.1345
836.90 0.1344
837.00 0.1343
837.10 0.1343
837.20 0.1342
837.30 0.1342
837.40 0.1341
837.50 0.134
837.60 0.134
837.70 0.1339
837.80 0.1338
837.90 0.1338
838.00 0.1337
838.10 0.1337
838.20 0.1336
838.30 0.1335
838.40 0.1335
838.50 0.1334
838.60 0.1334
838.70 0.1333
838.80 0.1332
838.90 0.1332
839.00 0.1331
839.10 0.133
839.20 0.133
839.30 0.1329
839.40 0.1329
839.50 0.1328
839.60 0.1327
839.70 0.1327
839.80 0.1326
839.90 0.1325
840.00 0.1325
840.10 0.1324
840.20 0.1324
840.30 0.1323
840.40 0.1322
840.50 0.1322
840.60 0.1321
840.70 0.1321
840.80 0.132
840.90 0.1319
841.00 0.1319
841.10 0.1318
841.20 0.1317
841.30 0.1317
841.40 0.1316
841.50 0.1316
841.60 0.1315
841.70 0.1314
841.80 0.1314
841.90 0.1313
842.00 0.1313
842.10 0.1312
842.20 0.1311
842.30 0.1311
842.40 0.131
842.50 0.1309
842.60 0.1309
842.70 0.1308
842.80 0.1308
842.90 0.1307
843.00 0.1306
843.10 0.1306
843.20 0.1305
843.30 0.1305
843.40 0.1304
843.50 0.1303
843.60 0.1303
843.70 0.1302
843.80 0.1302
843.90 0.1301
844.00 0.13
844.10 0.13
844.20 0.1299
844.30 0.1299
844.40 0.1298
844.50 0.1297
844.60 0.1297
844.70 0.1296
844.80 0.1296
844.90 0.1295
845.00 0.1294
845.10 0.1294
845.20 0.1293
845.30 0.1293
845.40 0.1292
845.50 0.1291
845.60 0.1291
845.70 0.129
845.80 0.129
845.90 0.1289
846.00 0.1288
846.10 0.1288
846.20 0.1287
846.30 0.1287
846.40 0.1286
846.50 0.1285
846.60 0.1285
846.70 0.1284
846.80 0.1284
846.90 0.1283
847.00 0.1282
847.10 0.1282
847.20 0.1281
847.30 0.1281
847.40 0.128
847.50 0.1279
847.60 0.1279
847.70 0.1278
847.80 0.1278
847.90 0.1277
848.00 0.1277
848.10 0.1276
848.20 0.1275
848.30 0.1275
848.40 0.1274
848.50 0.1274
848.60 0.1273
848.70 0.1272
848.80 0.1272
848.90 0.1271
849.00 0.1271
849.10 0.127
849.20 0.1269
849.30 0.1269
849.40 0.1268
849.50 0.1268
849.60 0.1267
849.70 0.1267
849.80 0.1266
849.90 0.1265
850.00 0.1265
850.10 0.1264
850.20 0.1264
850.30 0.1263
850.40 0.1262
850.50 0.1262
850.60 0.1261
850.70 0.1261
850.80 0.126
850.90 0.126
851.00 0.1259
851.10 0.1258
851.20 0.1258
851.30 0.1257
851.40 0.1257
851.50 0.1256
851.60 0.1256
851.70 0.1255
851.80 0.1254
851.90 0.1254
852.00 0.1253
852.10 0.1253
852.20 0.1252
852.30 0.1251
852.40 0.1251
852.50 0.125
852.60 0.125
852.70 0.1249
852.80 0.1249
852.90 0.1248
853.00 0.1247
853.10 0.1247
853.20 0.1246
853.30 0.1246
853.40 0.1245
853.50 0.1245
853.60 0.1244
853.70 0.1243
853.80 0.1243
853.90 0.1242
854.00 0.1242
854.10 0.1241
854.20 0.1241
854.30 0.124
854.40 0.1239
854.50 0.1239
854.60 0.1238
854.70 0.1238
854.80 0.1237
854.90 0.1237
855.00 0.1236
855.10 0.1236
855.20 0.1235
855.30 0.1234
855.40 0.1234
855.50 0.1233
855.60 0.1233
855.70 0.1232
855.80 0.1232
855.90 0.1231
856.00 0.123
856.10 0.123
856.20 0.1229
856.30 0.1229
856.40 0.1228
856.50 0.1228
856.60 0.1227
856.70 0.1226
856.80 0.1226
856.90 0.1225
857.00 0.1225
857.10 0.1224
857.20 0.1224
857.30 0.1223
857.40 0.1223
857.50 0.1222
857.60 0.1221
857.70 0.1221
857.80 0.122
857.90 0.122
858.00 0.1219
858.10 0.1219
858.20 0.1218
858.30 0.1218
858.40 0.1217
858.50 0.1216
858.60 0.1216
858.70 0.1215
858.80 0.1215
858.90 0.1214
859.00 0.1214
859.10 0.1213
859.20 0.1213
859.30 0.1212
859.40 0.1211
859.50 0.1211
859.60 0.121
859.70 0.121
859.80 0.1209
859.90 0.1209
860.00 0.1208
860.10 0.1208
860.20 0.1207
860.30 0.1207
860.40 0.1206
860.50 0.1205
860.60 0.1205
860.70 0.1204
860.80 0.1204
860.90 0.1203
861.00 0.1203
861.10 0.1202
861.20 0.1202
861.30 0.1201
861.40 0.12
861.50 0.12
861.60 0.1199
861.70 0.1199
861.80 0.1198
861.90 0.1198
862.00 0.1197
862.10 0.1197
862.20 0.1196
862.30 0.1196
862.40 0.1195
862.50 0.1195
862.60 0.1194
862.70 0.1193
862.80 0.1193
862.90 0.1192
863.00 0.1192
863.10 0.1191
863.20 0.1191
863.30 0.119
863.40 0.119
863.50 0.1189
863.60 0.1189
863.70 0.1188
863.80 0.1188
863.90 0.1187
864.00 0.1186
864.10 0.1186
864.20 0.1185
864.30 0.1185
864.40 0.1184
864.50 0.1184
864.60 0.1183
864.70 0.1183
864.80 0.1182
864.90 0.1182
865.00 0.1181
865.10 0.1181
865.20 0.118
865.30 0.118
865.40 0.1179
865.50 0.1178
865.60 0.1178
865.70 0.1177
865.80 0.1177
865.90 0.1176
866.00 0.1176
866.10 0.1175
866.20 0.1175
866.30 0.1174
866.40 0.1174
866.50 0.1173
866.60 0.1173
866.70 0.1172
866.80 0.1172
866.90 0.1171
867.00 0.117
867.10 0.117
867.20 0.1169
867.30 0.1169
867.40 0.1168
867.50 0.1168
867.60 0.1167
867.70 0.1167
867.80 0.1166
867.90 0.1166
868.00 0.1165
868.10 0.1165
868.20 0.1164
868.30 0.1164
868.40 0.1163
868.50 0.1163
868.60 0.1162
868.70 0.1162
868.80 0.1161
868.90 0.1161
869.00 0.116
869.10 0.1159
869.20 0.1159
869.30 0.1158
869.40 0.1158
869.50 0.1157
869.60 0.1157
869.70 0.1156
869.80 0.1156
869.90 0.1155
870.00 0.1155
870.10 0.1154
870.20 0.1154
870.30 0.1153
870.40 0.1153
870.50 0.1152
870.60 0.1152
870.70 0.1151
870.80 0.1151
870.90 0.115
871.00 0.115
871.10 0.1149
871.20 0.1149
871.30 0.1148
871.40 0.1148
871.50 0.1147
871.60 0.1146
871.70 0.1146
871.80 0.1145
871.90 0.1145
872.00 0.1144
872.10 0.1144
872.20 0.1143
872.30 0.1143
872.40 0.1142
872.50 0.1142
872.60 0.1141
872.70 0.1141
872.80 0.114
872.90 0.114
873.00 0.1139
873.10 0.1139
873.20 0.1138
873.30 0.1138
873.40 0.1137
873.50 0.1137
873.60 0.1136
873.70 0.1136
873.80 0.1135
873.90 0.1135
874.00 0.1134
874.10 0.1134
874.20 0.1133
874.30 0.1133
874.40 0.1132
874.50 0.1132
874.60 0.1131
874.70 0.1131
874.80 0.113
874.90 0.113
875.00 0.1129
875.10 0.1129
875.20 0.1128
875.30 0.1128
875.40 0.1127
875.50 0.1127
875.60 0.1126
875.70 0.1126
875.80 0.1125
875.90 0.1125
876.00 0.1124
876.10 0.1124
876.20 0.1123
876.30 0.1123
876.40 0.1122
876.50 0.1122
876.60 0.1121
876.70 0.1121
876.80 0.112
876.90 0.112
877.00 0.1119
877.10 0.1119
877.20 0.1118
877.30 0.1118
877.40 0.1117
877.50 0.1117
877.60 0.1116
877.70 0.1116
877.80 0.1115
877.90 0.1115
878.00 0.1114
878.10 0.1114
878.20 0.1113
878.30 0.1113
878.40 0.1112
878.50 0.1112
878.60 0.1111
878.70 0.1111
878.80 0.111
878.90 0.111
879.00 0.1109
879.10 0.1109
879.20 0.1108
879.30 0.1108
879.40 0.1107
879.50 0.1107
879.60 0.1106
879.70 0.1106
879.80 0.1105
879.90 0.1105
880.00 0.1104
880.10 0.1104
880.20 0.1103
880.30 0.1103
880.40 0.1102
880.50 0.1102
880.60 0.1101
880.70 0.1101
880.80 0.11
880.90 0.11
881.00 0.1099
881.10 0.1099
881.20 0.1098
881.30 0.1098
881.40 0.1097
881.50 0.1097
881.60 0.1096
881.70 0.1096
881.80 0.1095
881.90 0.1095
882.00 0.1095
882.10 0.1094
882.20 0.1094
882.30 0.1093
882.40 0.1093
882.50 0.1092
882.60 0.1092
882.70 0.1091
882.80 0.1091
882.90 0.109
883.00 0.109
883.10 0.1089
883.20 0.1089
883.30 0.1088
883.40 0.1088
883.50 0.1087
883.60 0.1087
883.70 0.1086
883.80 0.1086
883.90 0.1085
884.00 0.1085
884.10 0.1084
884.20 0.1084
884.30 0.1083
884.40 0.1083
884.50 0.1083
884.60 0.1082
884.70 0.1082
884.80 0.1081
884.90 0.1081
885.00 0.108
885.10 0.108
885.20 0.1079
885.30 0.1079
885.40 0.1078
885.50 0.1078
885.60 0.1077
885.70 0.1077
885.80 0.1076
885.90 0.1076
886.00 0.1075
886.10 0.1075
886.20 0.1074
886.30 0.1074
886.40 0.1073
886.50 0.1073
886.60 0.1073
886.70 0.1072
886.80 0.1072
886.90 0.1071
887.00 0.1071
887.10 0.107
887.20 0.107
887.30 0.1069
887.40 0.1069
887.50 0.1068
887.60 0.1068
887.70 0.1067
887.80 0.1067
887.90 0.1066
888.00 0.1066
888.10 0.1065
888.20 0.1065
888.30 0.1065
888.40 0.1064
888.50 0.1064
888.60 0.1063
888.70 0.1063
888.80 0.1062
888.90 0.1062
889.00 0.1061
889.10 0.1061
889.20 0.106
889.30 0.106
889.40 0.1059
889.50 0.1059
889.60 0.1059
889.70 0.1058
889.80 0.1058
889.90 0.1057
890.00 0.1057
890.10 0.1056
890.20 0.1056
890.30 0.1055
890.40 0.1055
890.50 0.1054
890.60 0.1054
890.70 0.1053
890.80 0.1053
890.90 0.1053
891.00 0.1052
891.10 0.1052
891.20 0.1051
891.30 0.1051
891.40 0.105
891.50 0.105
891.60 0.1049
891.70 0.1049
891.80 0.1048
891.90 0.1048
892.00 0.1047
892.10 0.1047
892.20 0.1047
892.30 0.1046
892.40 0.1046
892.50 0.1045
892.60 0.1045
892.70 0.1044
892.80 0.1044
892.90 0.1043
893.00 0.1043
893.10 0.1042
893.20 0.1042
893.30 0.1041
893.40 0.1041
893.50 0.1041
893.60 0.104
893.70 0.104
893.80 0.1039
893.90 0.1039
894.00 0.1038
894.10 0.1038
894.20 0.1037
894.30 0.1037
894.40 0.1036
894.50 0.1036
894.60 0.1035
894.70 0.1035
894.80 0.1035
894.90 0.1034
895.00 0.1034
895.10 0.1033
895.20 0.1033
895.30 0.1032
895.40 0.1032
895.50 0.1031
895.60 0.1031
895.70 0.103
895.80 0.103
895.90 0.103
896.00 0.1029
896.10 0.1029
896.20 0.1028
896.30 0.1028
896.40 0.1027
896.50 0.1027
896.60 0.1026
896.70 0.1026
896.80 0.1025
896.90 0.1025
897.00 0.1025
897.10 0.1024
897.20 0.1024
897.30 0.1023
897.40 0.1023
897.50 0.1022
897.60 0.1022
897.70 0.1021
897.80 0.1021
897.90 0.102
898.00 0.102
898.10 0.102
898.20 0.1019
898.30 0.1019
898.40 0.1018
898.50 0.1018
898.60 0.1017
898.70 0.1017
898.80 0.1016
898.90 0.1016
899.00 0.1016
899.10 0.1015
899.20 0.1015
899.30 0.1014
899.40 0.1014
899.50 0.1013
899.60 0.1013
899.70 0.1012
899.80 0.1012
899.90 0.1011
900.00 0.1011
900.10 0.1011
900.20 0.101
900.30 0.101
900.40 0.1009
900.50 0.1009
900.60 0.1008
900.70 0.1008
900.80 0.1007
900.90 0.1007
901.00 0.1007
901.10 0.1006
901.20 0.1006
901.30 0.1005
901.40 0.1005
901.50 0.1004
901.60 0.1004
901.70 0.1003
901.80 0.1003
901.90 0.1003
902.00 0.1002
902.10 0.1002
902.20 0.1001
902.30 0.1001
902.40 0.1
902.50 0.1
902.60 0.09996
902.70 0.09992
902.80 0.09988
902.90 0.09984
903.00 0.0998
903.10 0.09975
903.20 0.09971
903.30 0.09967
903.40 0.09963
903.50 0.09959
903.60 0.09955
903.70 0.0995
903.80 0.09946
903.90 0.09942
904.00 0.09938
904.10 0.09934
904.20 0.0993
904.30 0.09926
904.40 0.09921
904.50 0.09917
904.60 0.09913
904.70 0.09909
904.80 0.09905
904.90 0.09901
905.00 0.09897
905.10 0.09892
905.20 0.09888
905.30 0.09884
905.40 0.0988
905.50 0.09876
905.60 0.09872
905.70 0.09868
905.80 0.09864
905.90 0.09859
906.00 0.09855
906.10 0.09851
906.20 0.09847
906.30 0.09843
906.40 0.09839
906.50 0.09835
906.60 0.09831
906.70 0.09827
906.80 0.09822
906.90 0.09818
907.00 0.09814
907.10 0.0981
907.20 0.09806
907.30 0.09802
907.40 0.09798
907.50 0.09794
907.60 0.09789
907.70 0.09785
907.80 0.09781
907.90 0.09777
908.00 0.09773
908.10 0.09769
908.20 0.09765
908.30 0.0976
908.40 0.09756
908.50 0.09752
908.60 0.09748
908.70 0.09744
908.80 0.0974
908.90 0.09736
909.00 0.09731
909.10 0.09727
909.20 0.09723
909.30 0.09719
909.40 0.09715
909.50 0.09711
909.60 0.09707
909.70 0.09703
909.80 0.09699
909.90 0.09694
910.00 0.0969
910.10 0.09686
910.20 0.09682
910.30 0.09678
910.40 0.09674
910.50 0.0967
910.60 0.09666
910.70 0.09662
910.80 0.09658
910.90 0.09653
911.00 0.09649
911.10 0.09645
911.20 0.09641
911.30 0.09637
911.40 0.09633
911.50 0.09629
911.60 0.09625
911.70 0.09621
911.80 0.09617
911.90 0.09613
912.00 0.09608
912.10 0.09604
912.20 0.096
912.30 0.09596
912.40 0.09592
912.50 0.09587
912.60 0.09583
912.70 0.09579
912.80 0.09575
912.90 0.0957
913.00 0.09566
913.10 0.09562
913.20 0.09558
913.30 0.09554
913.40 0.09549
913.50 0.09545
913.60 0.09541
913.70 0.09537
913.80 0.09532
913.90 0.09528
914.00 0.09524
914.10 0.0952
914.20 0.09516
914.30 0.09511
914.40 0.09507
914.50 0.09503
914.60 0.09499
914.70 0.09495
914.80 0.0949
914.90 0.09486
915.00 0.09482
915.10 0.09478
915.20 0.09474
915.30 0.0947
915.40 0.09465
915.50 0.09461
915.60 0.09457
915.70 0.09453
915.80 0.09449
915.90 0.09444
916.00 0.0944
916.10 0.09436
916.20 0.09432
916.30 0.09428
916.40 0.09424
916.50 0.09419
916.60 0.09415
916.70 0.09411
916.80 0.09407
916.90 0.09403
917.00 0.09399
917.10 0.09394
917.20 0.0939
917.30 0.09386
917.40 0.09381
917.50 0.09377
917.60 0.09373
917.70 0.09368
917.80 0.09364
917.90 0.09359
918.00 0.09355
918.10 0.09351
918.20 0.09346
918.30 0.09342
918.40 0.09338
918.50 0.09333
918.60 0.09329
918.70 0.09325
918.80 0.0932
918.90 0.09316
919.00 0.09312
919.10 0.09308
919.20 0.09303
919.30 0.09299
919.40 0.09295
919.50 0.0929
919.60 0.09286
919.70 0.09282
919.80 0.09277
919.90 0.09273
920.00 0.09269
920.10 0.09264
920.20 0.0926
920.30 0.09256
920.40 0.09252
920.50 0.09247
920.60 0.09243
920.70 0.09239
920.80 0.09234
920.90 0.0923
921.00 0.09226
921.10 0.09221
921.20 0.09217
921.30 0.09213
921.40 0.09209
921.50 0.09204
921.60 0.092
921.70 0.09196
921.80 0.09191
921.90 0.09187
922.00 0.09183
922.10 0.09179
922.20 0.09176
922.30 0.09172
922.40 0.09168
922.50 0.09165
922.60 0.09161
922.70 0.09158
922.80 0.09154
922.90 0.0915
923.00 0.09147
923.10 0.09143
923.20 0.0914
923.30 0.09136
923.40 0.09132
923.50 0.09129
923.60 0.09125
923.70 0.09122
923.80 0.09118
923.90 0.09114
924.00 0.09111
924.10 0.09107
924.20 0.09104
924.30 0.091
924.40 0.09097
924.50 0.09093
924.60 0.09089
924.70 0.09086
924.80 0.09082
924.90 0.09079
925.00 0.09075
925.10 0.09071
925.20 0.09068
925.30 0.09064
925.40 0.09061
925.50 0.09057
925.60 0.09054
925.70 0.0905
925.80 0.09046
925.90 0.09043
926.00 0.09039
926.10 0.09036
926.20 0.09032
926.30 0.09029
926.40 0.09025
926.50 0.09021
926.60 0.09018
926.70 0.09014
926.80 0.09011
926.90 0.09007
927.00 0.09004
927.10 0.09
927.20 0.08997
927.30 0.08993
927.40 0.0899
927.50 0.08986
927.60 0.08983
927.70 0.08979
927.80 0.08975
927.90 0.08972
928.00 0.08968
928.10 0.08965
928.20 0.08961
928.30 0.08958
928.40 0.08954
928.50 0.08951
928.60 0.08947
928.70 0.08944
928.80 0.0894
928.90 0.08937
929.00 0.08933
929.10 0.0893
929.20 0.08926
929.30 0.08923
929.40 0.08919
929.50 0.08916
929.60 0.08912
929.70 0.08909
929.80 0.08905
929.90 0.08902
930.00 0.08898
930.10 0.08895
930.20 0.08891
930.30 0.08888
930.40 0.08884
930.50 0.08881
930.60 0.08877
930.70 0.08874
930.80 0.0887
930.90 0.08867
931.00 0.08863
931.10 0.0886
931.20 0.08856
931.30 0.08853
931.40 0.08849
931.50 0.08846
931.60 0.08842
931.70 0.08839
931.80 0.08835
931.90 0.08832
932.00 0.08829
932.10 0.08825
932.20 0.08821
932.30 0.08818
932.40 0.08814
932.50 0.08811
932.60 0.08807
932.70 0.08803
932.80 0.088
932.90 0.08796
933.00 0.08793
933.10 0.08789
933.20 0.08785
933.30 0.08782
933.40 0.08778
933.50 0.08775
933.60 0.08771
933.70 0.08767
933.80 0.08764
933.90 0.0876
934.00 0.08757
934.10 0.08753
934.20 0.0875
934.30 0.08746
934.40 0.08742
934.50 0.08739
934.60 0.08735
934.70 0.08732
934.80 0.08728
934.90 0.08724
935.00 0.08721
935.10 0.08717
935.20 0.08714
935.30 0.0871
935.40 0.08706
935.50 0.08703
935.60 0.08699
935.70 0.08696
935.80 0.08692
935.90 0.08688
936.00 0.08685
936.10 0.08681
936.20 0.08678
936.30 0.08674
936.40 0.0867
936.50 0.08667
936.60 0.08663
936.70 0.0866
936.80 0.08656
936.90 0.08652
937.00 0.08649
937.10 0.08645
937.20 0.08642
937.30 0.08638
937.40 0.08635
937.50 0.08631
937.60 0.08627
937.70 0.08624
937.80 0.0862
937.90 0.08617
938.00 0.08613
938.10 0.08609
938.20 0.08606
938.30 0.08602
938.40 0.08599
938.50 0.08595
938.60 0.08591
938.70 0.08588
938.80 0.08584
938.90 0.08581
939.00 0.08577
939.10 0.08573
939.20 0.0857
939.30 0.08566
939.40 0.08563
939.50 0.08559
939.60 0.08555
939.70 0.08552
939.80 0.08548
939.90 0.08545
940.00 0.08541
940.10 0.08538
940.20 0.08534
940.30 0.0853
940.40 0.08527
940.50 0.08523
940.60 0.0852
940.70 0.08516
940.80 0.08512
940.90 0.08509
941.00 0.08505
941.10 0.08502
941.20 0.08498
941.30 0.08494
941.40 0.08491
941.50 0.08487
941.60 0.08484
941.70 0.0848
941.80 0.08477
941.90 0.08473
942.00 0.08469
942.10 0.08466
942.20 0.08462
942.30 0.08459
942.40 0.08455
942.50 0.08451
942.60 0.08448
942.70 0.08444
942.80 0.08441
942.90 0.08437
943.00 0.08433
943.10 0.0843
943.20 0.08426
943.30 0.08423
943.40 0.08419
943.50 0.08415
943.60 0.08412
943.70 0.08408
943.80 0.08405
943.90 0.08401
944.00 0.08397
944.10 0.08394
944.20 0.0839
944.30 0.08387
944.40 0.08383
944.50 0.08379
944.60 0.08376
944.70 0.08372
944.80 0.08368
944.90 0.08365
945.00 0.08361
945.10 0.08358
945.20 0.08354
945.30 0.0835
945.40 0.08347
945.50 0.08343
945.60 0.08339
945.70 0.08336
945.80 0.08332
945.90 0.08328
946.00 0.08325
946.10 0.08321
946.20 0.08317
946.30 0.08314
946.40 0.0831
946.50 0.08306
946.60 0.08303
946.70 0.08299
946.80 0.08295
946.90 0.08292
947.00 0.08288
947.10 0.08284
947.20 0.0828
947.30 0.08277
947.40 0.08273
947.50 0.08269
947.60 0.08265
947.70 0.08261
947.80 0.08258
947.90 0.08254
948.00 0.0825
948.10 0.08246
948.20 0.08242
948.30 0.08238
948.40 0.08235
948.50 0.08231
948.60 0.08227
948.70 0.08223
948.80 0.08219
948.90 0.08216
949.00 0.08212
949.10 0.08208
949.20 0.08204
949.30 0.082
949.40 0.08196
949.50 0.08192
949.60 0.08188
949.70 0.08184
949.80 0.0818
949.90 0.08176
950.00 0.08172
950.10 0.08168
950.20 0.08164
950.30 0.0816
950.40 0.08156
950.50 0.08152
950.60 0.08148
950.70 0.08144
950.80 0.0814
950.90 0.08136
951.00 0.08132
951.10 0.08128
951.20 0.08123
951.30 0.08119
951.40 0.08115
951.50 0.08111
951.60 0.08107
951.70 0.08102
951.80 0.08098
951.90 0.08094
952.00 0.0809
952.10 0.08085
952.20 0.08081
952.30 0.08077
952.40 0.08073
952.50 0.08068
952.60 0.08064
952.70 0.0806
952.80 0.08055
952.90 0.08051
953.00 0.08047
953.10 0.08043
953.20 0.08039
953.30 0.08035
953.40 0.08031
953.50 0.08026
953.60 0.08023
953.70 0.08019
953.80 0.08015
953.90 0.08012
954.00 0.08008
954.10 0.08005
954.20 0.08002
954.30 0.07999
954.40 0.07996
954.50 0.07994
954.60 0.0799
954.70 0.07987
954.80 0.07983
954.90 0.0798
955.00 0.07976
955.10 0.07972
955.20 0.07969
955.30 0.07966
955.40 0.07964
955.50 0.07961
955.60 0.07958
955.70 0.07955
955.80 0.07952
955.90 0.0795
956.00 0.07947
956.10 0.07945
956.20 0.07943
956.30 0.0794
956.40 0.07938
956.50 0.07936
956.60 0.07933
956.70 0.07931
956.80 0.07929
956.90 0.07927
957.00 0.07924
957.10 0.07922
957.20 0.0792
957.30 0.07917
957.40 0.07915
957.50 0.07912
957.60 0.0791
957.70 0.07908
957.80 0.07905
957.90 0.07903
958.00 0.079
958.10 0.07898
958.20 0.07895
958.30 0.07893
958.40 0.0789
958.50 0.07888
958.60 0.07885
958.70 0.07883
958.80 0.07881
958.90 0.07878
959.00 0.07876
959.10 0.07873
959.20 0.07871
959.30 0.07868
959.40 0.07866
959.50 0.07863
959.60 0.0786
959.70 0.07857
959.80 0.07855
959.90 0.07852
960.00 0.07849
960.10 0.07846
960.20 0.07844
960.30 0.07841
960.40 0.07838
960.50 0.07835
960.60 0.07833
960.70 0.0783
960.80 0.07827
960.90 0.07825
961.00 0.07822
961.10 0.07819
961.20 0.07816
961.30 0.07814
961.40 0.07811
961.50 0.07808
961.60 0.07805
961.70 0.07802
961.80 0.07799
961.90 0.07797
962.00 0.07794
962.10 0.07791
962.20 0.07788
962.30 0.07785
962.40 0.07782
962.50 0.07779
962.60 0.07776
962.70 0.07773
962.80 0.0777
962.90 0.07767
963.00 0.07764
963.10 0.07762
963.20 0.07759
963.30 0.07756
963.40 0.07753
963.50 0.0775
963.60 0.07747
963.70 0.07744
963.80 0.07741
963.90 0.07738
964.00 0.07735
964.10 0.07732
964.20 0.07729
964.30 0.07726
964.40 0.07723
964.50 0.0772
964.60 0.07717
964.70 0.07714
964.80 0.07711
964.90 0.07708
965.00 0.07705
965.10 0.07702
965.20 0.07699
965.30 0.07696
965.40 0.07693
965.50 0.0769
965.60 0.07687
965.70 0.07684
965.80 0.07681
965.90 0.07678
966.00 0.07675
966.10 0.07672
966.20 0.07669
966.30 0.07666
966.40 0.07663
966.50 0.0766
966.60 0.07657
966.70 0.07654
966.80 0.07651
966.90 0.07648
967.00 0.07645
967.10 0.07642
967.20 0.07639
967.30 0.07636
967.40 0.07633
967.50 0.0763
967.60 0.07627
967.70 0.07624
967.80 0.07621
967.90 0.07618
968.00 0.07615
968.10 0.07612
968.20 0.07609
968.30 0.07606
968.40 0.07603
968.50 0.076
968.60 0.07597
968.70 0.07594
968.80 0.07591
968.90 0.07588
969.00 0.07585
969.10 0.07582
969.20 0.07579
969.30 0.07576
969.40 0.07573
969.50 0.0757
969.60 0.07566
969.70 0.07563
969.80 0.0756
969.90 0.07557
970.00 0.07554
970.10 0.07551
970.20 0.07548
970.30 0.07545
970.40 0.07542
970.50 0.07539
970.60 0.07536
970.70 0.07533
970.80 0.0753
970.90 0.07527
971.00 0.07524
971.10 0.07521
971.20 0.07518
971.30 0.07515
971.40 0.07512
971.50 0.07509
971.60 0.07506
971.70 0.07503
971.80 0.075
971.90 0.07497
972.00 0.07494
972.10 0.07491
972.20 0.07488
972.30 0.07485
972.40 0.07482
972.50 0.07479
972.60 0.07476
972.70 0.07473
972.80 0.0747
972.90 0.07467
973.00 0.07464
973.10 0.07461
973.20 0.07458
973.30 0.07456
973.40 0.07453
973.50 0.0745
973.60 0.07447
973.70 0.07444
973.80 0.07441
973.90 0.07438
974.00 0.07435
974.10 0.07432
974.20 0.07429
974.30 0.07426
974.40 0.07423
974.50 0.0742
974.60 0.07417
974.70 0.07414
974.80 0.07411
974.90 0.07408
975.00 0.07405
975.10 0.07402
975.20 0.07399
975.30 0.07396
975.40 0.07393
975.50 0.0739
975.60 0.07387
975.70 0.07384
975.80 0.07381
975.90 0.07378
976.00 0.07375
976.10 0.07372
976.20 0.0737
976.30 0.07367
976.40 0.07364
976.50 0.07361
976.60 0.07358
976.70 0.07355
976.80 0.07352
976.90 0.07349
977.00 0.07346
977.10 0.07343
977.20 0.0734
977.30 0.07337
977.40 0.07334
977.50 0.07331
977.60 0.07328
977.70 0.07325
977.80 0.07322
977.90 0.0732
978.00 0.07317
978.10 0.07314
978.20 0.07311
978.30 0.07308
978.40 0.07305
978.50 0.07302
978.60 0.07299
978.70 0.07296
978.80 0.07293
978.90 0.0729
979.00 0.07287
979.10 0.07285
979.20 0.07282
979.30 0.07279
979.40 0.07276
979.50 0.07273
979.60 0.0727
979.70 0.07267
979.80 0.07264
979.90 0.07261
980.00 0.07258
980.10 0.07255
980.20 0.07253
980.30 0.0725
980.40 0.07247
980.50 0.07244
980.60 0.07241
980.70 0.07238
980.80 0.07235
980.90 0.07232
981.00 0.07229
981.10 0.07226
981.20 0.07224
981.30 0.07221
981.40 0.07218
981.50 0.07215
981.60 0.07212
981.70 0.07209
981.80 0.07206
981.90 0.07203
982.00 0.072
982.10 0.07198
982.20 0.07195
982.30 0.07192
982.40 0.07189
982.50 0.07186
982.60 0.07183
982.70 0.0718
982.80 0.07177
982.90 0.07175
983.00 0.07172
983.10 0.07169
983.20 0.07166
983.30 0.07163
983.40 0.0716
983.50 0.07157
983.60 0.07155
983.70 0.07152
983.80 0.07149
983.90 0.07146
984.00 0.07143
984.10 0.0714
984.20 0.07137
984.30 0.07135
984.40 0.07132
984.50 0.07129
984.60 0.07126
984.70 0.07123
984.80 0.0712
984.90 0.07117
985.00 0.07115
985.10 0.07112
985.20 0.07109
985.30 0.07106
985.40 0.07103
985.50 0.071
985.60 0.07098
985.70 0.07095
985.80 0.07092
985.90 0.07089
986.00 0.07086
986.10 0.07083
986.20 0.0708
986.30 0.07078
986.40 0.07075
986.50 0.07072
986.60 0.07069
986.70 0.07066
986.80 0.07064
986.90 0.07061
987.00 0.07058
987.10 0.07055
987.20 0.07052
987.30 0.07049
987.40 0.07047
987.50 0.07044
987.60 0.07041
987.70 0.07038
987.80 0.07035
987.90 0.07032
988.00 0.0703
988.10 0.07027
988.20 0.07024
988.30 0.07021
988.40 0.07018
988.50 0.07016
988.60 0.07013
988.70 0.0701
988.80 0.07007
988.90 0.07004
989.00 0.07001
989.10 0.06999
989.20 0.06996
989.30 0.06993
989.40 0.0699
989.50 0.06987
989.60 0.06985
989.70 0.06982
989.80 0.06979
989.90 0.06976
990.00 0.06973
990.10 0.06971
990.20 0.06968
990.30 0.06965
990.40 0.06962
990.50 0.06959
990.60 0.06957
990.70 0.06954
990.80 0.06951
990.90 0.06948
991.00 0.06945
991.10 0.06942
991.20 0.0694
991.30 0.06937
991.40 0.06934
991.50 0.06931
991.60 0.06928
991.70 0.06926
991.80 0.06923
991.90 0.0692
992.00 0.06917
992.10 0.06914
992.20 0.06912
992.30 0.06909
992.40 0.06906
992.50 0.06903
992.60 0.069
992.70 0.06898
992.80 0.06895
992.90 0.06892
993.00 0.06889
993.10 0.06886
993.20 0.06883
993.30 0.0688
993.40 0.06878
993.50 0.06875
993.60 0.06872
993.70 0.06869
993.80 0.06866
993.90 0.06864
994.00 0.06861
994.10 0.06858
994.20 0.06855
994.30 0.06852
994.40 0.06849
994.50 0.06847
994.60 0.06844
994.70 0.06841
994.80 0.06838
994.90 0.06835
995.00 0.06832
995.10 0.06829
995.20 0.06827
995.30 0.06824
995.40 0.06821
995.50 0.06818
995.60 0.06815
995.70 0.06812
995.80 0.06809
995.90 0.06806
996.00 0.06804
996.10 0.06801
996.20 0.06798
996.30 0.06795
996.40 0.06792
996.50 0.06789
996.60 0.06786
996.70 0.06783
996.80 0.0678
996.90 0.06777
997.00 0.06774
997.10 0.06771
997.20 0.06768
997.30 0.06765
997.40 0.06762
997.50 0.06759
997.60 0.06757
997.70 0.06753
997.80 0.0675
997.90 0.06747
998.00 0.06744
998.10 0.06741
998.20 0.06738
998.30 0.06734
998.40 0.06731
998.50 0.06728
998.60 0.06725
998.70 0.06722
998.80 0.06719
998.90 0.06715
999.00 0.06712
999.10 0.06709
999.20 0.06706
999.30 0.06703
999.40 0.067
999.50 0.06696
999.60 0.06693
999.70 0.0669
999.80 0.06686
999.90 0.06682
1000.00 0.06679
1000.10 0.06675
1000.20 0.06671
1000.30 0.06668
1000.40 0.06664
1000.50 0.0666
1000.60 0.06657
1000.70 0.06653
1000.80 0.06649
1000.90 0.06646
1001.00 0.06642
1001.10 0.06638
1001.20 0.06635
1001.30 0.06631
1001.40 0.06627
1001.50 0.06624
1001.60 0.0662
1001.70 0.06616
1001.80 0.06612
1001.90 0.06608
1002.00 0.06604
1002.10 0.06599
1002.20 0.06595
1002.30 0.0659
1002.40 0.06586
1002.50 0.06581
1002.60 0.06577
1002.70 0.06572
1002.80 0.06568
1002.90 0.06563
1003.00 0.06559
1003.10 0.06554
1003.20 0.0655
1003.30 0.06545
1003.40 0.0654
1003.50 0.06536
1003.60 0.06531
1003.70 0.06526
1003.80 0.06522
1003.90 0.06518
1004.00 0.06514
1004.10 0.0651
1004.20 0.06506
1004.30 0.06504
1004.40 0.06502
1004.50 0.06501
1004.60 0.06502
1004.70 0.06505
1004.80 0.06508
1004.90 0.06507
1005.00 0.06505
1005.10 0.065
1005.20 0.06492
1005.30 0.06485
1005.40 0.06478
1005.50 0.06475
1005.60 0.06473
1005.70 0.06472
1005.80 0.0647
1005.90 0.06468
1006.00 0.06466
1006.10 0.06465
1006.20 0.06464
1006.30 0.06464
1006.40 0.06463
1006.50 0.06463
1006.60 0.06462
1006.70 0.06462
1006.80 0.06462
1006.90 0.06461
1007.00 0.06461
1007.10 0.0646
1007.20 0.0646
1007.30 0.06459
1007.40 0.06458
1007.50 0.06458
1007.60 0.06457
1007.70 0.06456
1007.80 0.06455
1007.90 0.06454
1008.00 0.06452
1008.10 0.06451
1008.20 0.0645
1008.30 0.06448
1008.40 0.06447
1008.50 0.06446
1008.60 0.06445
1008.70 0.06443
1008.80 0.06442
1008.90 0.06441
1009.00 0.0644
1009.10 0.06438
1009.20 0.06437
1009.30 0.06436
1009.40 0.06435
1009.50 0.06433
1009.60 0.06432
1009.70 0.0643
1009.80 0.06428
1009.90 0.06426
1010.00 0.06425
1010.10 0.06423
1010.20 0.06421
1010.30 0.06419
1010.40 0.06417
1010.50 0.06415
1010.60 0.06413
1010.70 0.06411
1010.80 0.06409
1010.90 0.06408
1011.00 0.06406
1011.10 0.06404
1011.20 0.06402
1011.30 0.064
1011.40 0.06398
1011.50 0.06396
1011.60 0.06394
1011.70 0.06392
1011.80 0.0639
1011.90 0.06388
1012.00 0.06386
1012.10 0.06384
1012.20 0.06382
1012.30 0.06379
1012.40 0.06377
1012.50 0.06375
1012.60 0.06373
1012.70 0.06371
1012.80 0.06368
1012.90 0.06366
1013.00 0.06364
1013.10 0.06362
1013.20 0.0636
1013.30 0.06357
1013.40 0.06355
1013.50 0.06353
1013.60 0.06351
1013.70 0.06349
1013.80 0.06346
1013.90 0.06344
1014.00 0.06342
1014.10 0.0634
1014.20 0.06337
1014.30 0.06335
1014.40 0.06333
1014.50 0.0633
1014.60 0.06328
1014.70 0.06326
1014.80 0.06324
1014.90 0.06321
1015.00 0.06319
1015.10 0.06317
1015.20 0.06314
1015.30 0.06312
1015.40 0.0631
1015.50 0.06307
1015.60 0.06305
1015.70 0.06303
1015.80 0.063
1015.90 0.06298
1016.00 0.06296
1016.10 0.06293
1016.20 0.06291
1016.30 0.06289
1016.40 0.06286
1016.50 0.06284
1016.60 0.06282
1016.70 0.06279
1016.80 0.06277
1016.90 0.06275
1017.00 0.06272
1017.10 0.0627
1017.20 0.06268
1017.30 0.06265
1017.40 0.06263
1017.50 0.06261
1017.60 0.06258
1017.70 0.06256
1017.80 0.06254
1017.90 0.06251
1018.00 0.06249
1018.10 0.06247
1018.20 0.06244
1018.30 0.06242
1018.40 0.0624
1018.50 0.06237
1018.60 0.06235
1018.70 0.06233
1018.80 0.0623
1018.90 0.06228
1019.00 0.06226
1019.10 0.06223
1019.20 0.06221
1019.30 0.06218
1019.40 0.06216
1019.50 0.06214
1019.60 0.06211
1019.70 0.06209
1019.80 0.06207
1019.90 0.06204
1020.00 0.06202
1020.10 0.062
1020.20 0.06197
1020.30 0.06195
1020.40 0.06193
1020.50 0.0619
1020.60 0.06188
1020.70 0.06186
1020.80 0.06183
1020.90 0.06181
1021.00 0.06179
1021.10 0.06176
1021.20 0.06174
1021.30 0.06172
1021.40 0.06169
1021.50 0.06167
1021.60 0.06165
1021.70 0.06162
1021.80 0.0616
1021.90 0.06158
1022.00 0.06155
1022.10 0.06153
1022.20 0.06151
1022.30 0.06148
1022.40 0.06146
1022.50 0.06144
1022.60 0.06141
1022.70 0.06139
1022.80 0.06137
1022.90 0.06134
1023.00 0.06132
1023.10 0.0613
1023.20 0.06127
1023.30 0.06125
1023.40 0.06123
1023.50 0.0612
1023.60 0.06118
1023.70 0.06116
1023.80 0.06113
1023.90 0.06111
1024.00 0.06109
1024.10 0.06106
1024.20 0.06104
1024.30 0.06102
1024.40 0.06099
1024.50 0.06097
1024.60 0.06095
1024.70 0.06092
1024.80 0.0609
1024.90 0.06088
1025.00 0.06085
1025.10 0.06083
1025.20 0.06081
1025.30 0.06079
1025.40 0.06076
1025.50 0.06074
1025.60 0.06072
1025.70 0.06069
1025.80 0.06067
1025.90 0.06065
1026.00 0.06062
1026.10 0.0606
1026.20 0.06058
1026.30 0.06055
1026.40 0.06053
1026.50 0.06051
1026.60 0.06049
1026.70 0.06046
1026.80 0.06044
1026.90 0.06042
1027.00 0.06039
1027.10 0.06037
1027.20 0.06035
1027.30 0.06032
1027.40 0.0603
1027.50 0.06028
1027.60 0.06026
1027.70 0.06023
1027.80 0.06021
1027.90 0.06019
1028.00 0.06016
1028.10 0.06014
1028.20 0.06012
1028.30 0.0601
1028.40 0.06007
1028.50 0.06005
1028.60 0.06003
1028.70 0.06001
1028.80 0.05998
1028.90 0.05996
1029.00 0.05994
1029.10 0.05991
1029.20 0.05989
1029.30 0.05987
1029.40 0.05985
1029.50 0.05982
1029.60 0.0598
1029.70 0.05978
1029.80 0.05976
1029.90 0.05973
1030.00 0.05971
1030.10 0.05969
1030.20 0.05966
1030.30 0.05964
1030.40 0.05962
1030.50 0.0596
1030.60 0.05957
1030.70 0.05955
1030.80 0.05953
1030.90 0.05951
1031.00 0.05948
1031.10 0.05946
1031.20 0.05944
1031.30 0.05942
1031.40 0.05939
1031.50 0.05937
1031.60 0.05935
1031.70 0.05933
1031.80 0.0593
1031.90 0.05928
1032.00 0.05926
1032.10 0.05924
1032.20 0.05921
1032.30 0.05919
1032.40 0.05917
1032.50 0.05915
1032.60 0.05912
1032.70 0.0591
1032.80 0.05908
1032.90 0.05906
1033.00 0.05903
1033.10 0.05901
1033.20 0.05899
1033.30 0.05897
1033.40 0.05895
1033.50 0.05892
1033.60 0.0589
1033.70 0.05888
1033.80 0.05886
1033.90 0.05883
1034.00 0.05881
1034.10 0.05879
1034.20 0.05877
1034.30 0.05874
1034.40 0.05872
1034.50 0.0587
1034.60 0.05868
1034.70 0.05866
1034.80 0.05863
1034.90 0.05861
1035.00 0.05859
1035.10 0.05857
1035.20 0.05855
1035.30 0.05852
1035.40 0.0585
1035.50 0.05848
1035.60 0.05846
1035.70 0.05843
1035.80 0.05841
1035.90 0.05839
1036.00 0.05837
1036.10 0.05835
1036.20 0.05832
1036.30 0.0583
1036.40 0.05828
1036.50 0.05826
1036.60 0.05824
1036.70 0.05821
1036.80 0.05819
1036.90 0.05817
1037.00 0.05815
1037.10 0.05813
1037.20 0.0581
1037.30 0.05808
1037.40 0.05806
1037.50 0.05804
1037.60 0.05802
1037.70 0.05799
1037.80 0.05797
1037.90 0.05795
1038.00 0.05793
1038.10 0.05791
1038.20 0.05789
1038.30 0.05786
1038.40 0.05784
1038.50 0.05782
1038.60 0.0578
1038.70 0.05778
1038.80 0.05775
1038.90 0.05773
1039.00 0.05771
1039.10 0.05769
1039.20 0.05767
1039.30 0.05765
1039.40 0.05762
1039.50 0.0576
1039.60 0.05758
1039.70 0.05756
1039.80 0.05754
1039.90 0.05752
1040.00 0.05749
1040.10 0.05747
1040.20 0.05745
1040.30 0.05743
1040.40 0.05741
1040.50 0.05739
1040.60 0.05736
1040.70 0.05734
1040.80 0.05732
1040.90 0.0573
1041.00 0.05728
1041.10 0.05726
1041.20 0.05723
1041.30 0.05721
1041.40 0.05719
1041.50 0.05717
1041.60 0.05715
1041.70 0.05713
1041.80 0.05711
1041.90 0.05708
1042.00 0.05706
1042.10 0.05704
1042.20 0.05702
1042.30 0.057
1042.40 0.05698
1042.50 0.05696
1042.60 0.05693
1042.70 0.05691
1042.80 0.05689
1042.90 0.05687
1043.00 0.05685
1043.10 0.05683
1043.20 0.05681
1043.30 0.05678
1043.40 0.05676
1043.50 0.05674
1043.60 0.05672
1043.70 0.0567
1043.80 0.05668
1043.90 0.05666
1044.00 0.05664
1044.10 0.05661
1044.20 0.05659
1044.30 0.05657
1044.40 0.05655
1044.50 0.05653
1044.60 0.05651
1044.70 0.05649
1044.80 0.05647
1044.90 0.05644
1045.00 0.05642
1045.10 0.0564
1045.20 0.05638
1045.30 0.05636
1045.40 0.05634
1045.50 0.05632
1045.60 0.0563
1045.70 0.05628
1045.80 0.05625
1045.90 0.05623
1046.00 0.05621
1046.10 0.05619
1046.20 0.05617
1046.30 0.05615
1046.40 0.05613
1046.50 0.05611
1046.60 0.05609
1046.70 0.05606
1046.80 0.05604
1046.90 0.05602
1047.00 0.056
1047.10 0.05598
1047.20 0.05596
1047.30 0.05594
1047.40 0.05592
1047.50 0.0559
1047.60 0.05588
1047.70 0.05586
1047.80 0.05583
1047.90 0.05581
1048.00 0.05579
1048.10 0.05577
1048.20 0.05575
1048.30 0.05573
1048.40 0.05571
1048.50 0.05569
1048.60 0.05567
1048.70 0.05565
1048.80 0.05563
1048.90 0.05561
1049.00 0.05559
1049.10 0.05556
1049.20 0.05554
1049.30 0.05552
1049.40 0.0555
1049.50 0.05548
1049.60 0.05546
1049.70 0.05544
1049.80 0.05542
1049.90 0.0554
1050.00 0.05538
1050.10 0.05536
1050.20 0.05534
1050.30 0.05532
1050.40 0.0553
1050.50 0.05527
1050.60 0.05525
1050.70 0.05523
1050.80 0.05521
1050.90 0.05519
1051.00 0.05517
1051.10 0.05515
1051.20 0.05513
1051.30 0.05511
1051.40 0.05509
1051.50 0.05507
1051.60 0.05505
1051.70 0.05503
1051.80 0.05501
1051.90 0.05499
1052.00 0.05497
1052.10 0.05495
1052.20 0.05492
1052.30 0.0549
1052.40 0.05488
1052.50 0.05486
1052.60 0.05484
1052.70 0.05482
1052.80 0.0548
1052.90 0.05478
1053.00 0.05476
1053.10 0.05474
1053.20 0.05472
1053.30 0.0547
1053.40 0.05468
1053.50 0.05466
1053.60 0.05464
1053.70 0.05462
1053.80 0.0546
1053.90 0.05458
1054.00 0.05456
1054.10 0.05454
1054.20 0.05452
1054.30 0.0545
1054.40 0.05448
1054.50 0.05446
1054.60 0.05444
1054.70 0.05442
1054.80 0.0544
1054.90 0.05438
1055.00 0.05436
1055.10 0.05434
1055.20 0.05432
1055.30 0.0543
1055.40 0.05427
1055.50 0.05425
1055.60 0.05423
1055.70 0.05421
1055.80 0.05419
1055.90 0.05417
1056.00 0.05415
1056.10 0.05413
1056.20 0.05411
1056.30 0.05409
1056.40 0.05407
1056.50 0.05405
1056.60 0.05403
1056.70 0.05401
1056.80 0.05399
1056.90 0.05397
1057.00 0.05395
1057.10 0.05393
1057.20 0.05391
1057.30 0.05389
1057.40 0.05387
1057.50 0.05385
1057.60 0.05383
1057.70 0.05381
1057.80 0.05379
1057.90 0.05377
1058.00 0.05375
1058.10 0.05373
1058.20 0.05371
1058.30 0.05369
1058.40 0.05367
1058.50 0.05365
1058.60 0.05363
1058.70 0.05361
1058.80 0.05359
1058.90 0.05357
1059.00 0.05355
1059.10 0.05353
1059.20 0.05352
1059.30 0.0535
1059.40 0.05348
1059.50 0.05346
1059.60 0.05344
1059.70 0.05342
1059.80 0.0534
1059.90 0.05338
1060.00 0.05336
1060.10 0.05334
1060.20 0.05332
1060.30 0.0533
1060.40 0.05328
1060.50 0.05326
1060.60 0.05324
1060.70 0.05322
1060.80 0.0532
1060.90 0.05318
1061.00 0.05316
1061.10 0.05314
1061.20 0.05312
1061.30 0.0531
1061.40 0.05308
1061.50 0.05306
1061.60 0.05304
1061.70 0.05302
1061.80 0.053
1061.90 0.05298
1062.00 0.05296
1062.10 0.05294
1062.20 0.05292
1062.30 0.0529
1062.40 0.05288
1062.50 0.05287
1062.60 0.05285
1062.70 0.05283
1062.80 0.05281
1062.90 0.05279
1063.00 0.05277
1063.10 0.05275
1063.20 0.05273
1063.30 0.05271
1063.40 0.05269
1063.50 0.05267
1063.60 0.05265
1063.70 0.05263
1063.80 0.05261
1063.90 0.05259
1064.00 0.05257
1064.10 0.05255
1064.20 0.05253
1064.30 0.05252
1064.40 0.0525
1064.50 0.05248
1064.60 0.05246
1064.70 0.05244
1064.80 0.05242
1064.90 0.0524
1065.00 0.05238
1065.10 0.05236
1065.20 0.05234
1065.30 0.05232
1065.40 0.0523
1065.50 0.05228
1065.60 0.05226
1065.70 0.05224
1065.80 0.05223
1065.90 0.05221
1066.00 0.05219
1066.10 0.05217
1066.20 0.05215
1066.30 0.05213
1066.40 0.05211
1066.50 0.05209
1066.60 0.05207
1066.70 0.05205
1066.80 0.05203
1066.90 0.05201
1067.00 0.05199
1067.10 0.05198
1067.20 0.05196
1067.30 0.05194
1067.40 0.05192
1067.50 0.0519
1067.60 0.05188
1067.70 0.05186
1067.80 0.05184
1067.90 0.05182
1068.00 0.0518
1068.10 0.05178
1068.20 0.05177
1068.30 0.05175
1068.40 0.05173
1068.50 0.05171
1068.60 0.05169
1068.70 0.05167
1068.80 0.05165
1068.90 0.05163
1069.00 0.05161
1069.10 0.05159
1069.20 0.05158
1069.30 0.05156
1069.40 0.05154
1069.50 0.05152
1069.60 0.0515
1069.70 0.05148
1069.80 0.05146
1069.90 0.05144
1070.00 0.05142
1070.10 0.05141
1070.20 0.05139
1070.30 0.05137
1070.40 0.05135
1070.50 0.05133
1070.60 0.05131
1070.70 0.05129
1070.80 0.05127
1070.90 0.05125
1071.00 0.05124
1071.10 0.05122
1071.20 0.0512
1071.30 0.05118
1071.40 0.05116
1071.50 0.05114
1071.60 0.05112
1071.70 0.0511
1071.80 0.05108
1071.90 0.05107
1072.00 0.05105
1072.10 0.05103
1072.20 0.05101
1072.30 0.05099
1072.40 0.05097
1072.50 0.05095
1072.60 0.05093
1072.70 0.05092
1072.80 0.0509
1072.90 0.05088
1073.00 0.05086
1073.10 0.05084
1073.20 0.05082
1073.30 0.0508
1073.40 0.05078
1073.50 0.05077
1073.60 0.05075
1073.70 0.05073
1073.80 0.05071
1073.90 0.05069
1074.00 0.05067
1074.10 0.05065
1074.20 0.05064
1074.30 0.05062
1074.40 0.0506
1074.50 0.05058
1074.60 0.05056
1074.70 0.05054
1074.80 0.05052
1074.90 0.05051
1075.00 0.05049
1075.10 0.05047
1075.20 0.05045
1075.30 0.05043
1075.40 0.05041
1075.50 0.05039
1075.60 0.05038
1075.70 0.05036
1075.80 0.05034
1075.90 0.05032
1076.00 0.0503
1076.10 0.05028
1076.20 0.05026
1076.30 0.05025
1076.40 0.05023
1076.50 0.05021
1076.60 0.05019
1076.70 0.05017
1076.80 0.05015
1076.90 0.05013
1077.00 0.05012
1077.10 0.0501
1077.20 0.05008
1077.30 0.05006
1077.40 0.05004
1077.50 0.05002
1077.60 0.05001
1077.70 0.04999
1077.80 0.04997
1077.90 0.04995
1078.00 0.04993
1078.10 0.04991
1078.20 0.04989
1078.30 0.04988
1078.40 0.04986
1078.50 0.04984
1078.60 0.04982
1078.70 0.0498
1078.80 0.04978
1078.90 0.04977
1079.00 0.04975
1079.10 0.04973
1079.20 0.04971
1079.30 0.04969
1079.40 0.04967
1079.50 0.04965
1079.60 0.04964
1079.70 0.04962
1079.80 0.0496
1079.90 0.04958
1080.00 0.04956
1080.10 0.04954
1080.20 0.04953
1080.30 0.04951
1080.40 0.04949
1080.50 0.04947
1080.60 0.04945
1080.70 0.04943
1080.80 0.04941
1080.90 0.0494
1081.00 0.04938
1081.10 0.04936
1081.20 0.04934
1081.30 0.04932
1081.40 0.0493
1081.50 0.04929
1081.60 0.04927
1081.70 0.04925
1081.80 0.04923
1081.90 0.04921
1082.00 0.04919
1082.10 0.04917
1082.20 0.04916
1082.30 0.04914
1082.40 0.04912
1082.50 0.0491
1082.60 0.04908
1082.70 0.04906
1082.80 0.04904
1082.90 0.04902
1083.00 0.04901
1083.10 0.04899
1083.20 0.04897
1083.30 0.04895
1083.40 0.04893
1083.50 0.04891
1083.60 0.04889
1083.70 0.04887
1083.80 0.04885
1083.90 0.04884
1084.00 0.04882
1084.10 0.0488
1084.20 0.04878
1084.30 0.04876
1084.40 0.04874
1084.50 0.04872
1084.60 0.0487
1084.70 0.04868
1084.80 0.04866
1084.90 0.04864
1085.00 0.04862
1085.10 0.0486
1085.20 0.04858
1085.30 0.04856
1085.40 0.04854
1085.50 0.04852
1085.60 0.0485
1085.70 0.04848
1085.80 0.04846
1085.90 0.04844
1086.00 0.04842
1086.10 0.0484
1086.20 0.04838
1086.30 0.04836
1086.40 0.04834
1086.50 0.04832
1086.60 0.0483
1086.70 0.04828
1086.80 0.04826
1086.90 0.04824
1087.00 0.04822
1087.10 0.0482
1087.20 0.04817
1087.30 0.04815
1087.40 0.04813
1087.50 0.0481
1087.60 0.04808
1087.70 0.04806
1087.80 0.04804
1087.90 0.04801
1088.00 0.04799
1088.10 0.04797
1088.20 0.04795
1088.30 0.04792
1088.40 0.0479
1088.50 0.04788
1088.60 0.04785
1088.70 0.04782
1088.80 0.04779
1088.90 0.04776
1089.00 0.04773
1089.10 0.0477
1089.20 0.04767
1089.30 0.04764
1089.40 0.04761
1089.50 0.04759
1089.60 0.04756
1089.70 0.04753
1089.80 0.0475
1089.90 0.04747
1090.00 0.04744
1090.10 0.04741
1090.20 0.04738
1090.30 0.04735
1090.40 0.04733
1090.50 0.04729
1090.60 0.04725
1090.70 0.04721
1090.80 0.04717
1090.90 0.04713
1091.00 0.04709
1091.10 0.04704
1091.20 0.047
1091.30 0.04696
1091.40 0.04692
1091.50 0.04688
1091.60 0.04684
1091.70 0.0468
1091.80 0.04676
1091.90 0.04671
1092.00 0.04667
1092.10 0.04662
1092.20 0.04658
1092.30 0.04653
1092.40 0.04648
1092.50 0.04644
1092.60 0.04639
1092.70 0.04635
1092.80 0.04631
1092.90 0.04628
1093.00 0.04624
1093.10 0.04621
1093.20 0.04619
1093.30 0.04618
1093.40 0.04617
1093.50 0.04616
1093.60 0.04617
1093.70 0.04618
1093.80 0.04618
1093.90 0.04617
1094.00 0.04613
1094.10 0.04609
1094.20 0.04605
1094.30 0.04602
1094.40 0.04601
1094.50 0.04601
1094.60 0.046
1094.70 0.046
1094.80 0.046
1094.90 0.04599
1095.00 0.04599
1095.10 0.046
1095.20 0.04602
1095.30 0.04603
1095.40 0.04604
1095.50 0.04605
1095.60 0.04606
1095.70 0.04608
1095.80 0.04609
1095.90 0.0461
1096.00 0.04611
1096.10 0.04612
1096.20 0.04614
1096.30 0.04615
1096.40 0.04616
1096.50 0.04617
1096.60 0.04617
1096.70 0.04618
1096.80 0.04618
1096.90 0.04619
1097.00 0.04619
1097.10 0.04619
1097.20 0.04618
1097.30 0.04618
1097.40 0.04618
1097.50 0.04618
1097.60 0.04617
1097.70 0.04617
1097.80 0.04617
1097.90 0.04616
1098.00 0.04616
1098.10 0.04616
1098.20 0.04616
1098.30 0.04615
1098.40 0.04615
1098.50 0.04614
1098.60 0.04613
1098.70 0.04612
1098.80 0.04611
1098.90 0.0461
1099.00 0.04609
1099.10 0.04608
1099.20 0.04607
1099.30 0.04606
1099.40 0.04605
1099.50 0.04604
1099.60 0.04603
1099.70 0.04602
1099.80 0.04601
1099.90 0.046
1100.00 0.04599
1100.10 0.04598
1100.20 0.04597
1100.30 0.04596
1100.40 0.04595
1100.50 0.04594
1100.60 0.04593
1100.70 0.04591
1100.80 0.0459
1100.90 0.04589
1101.00 0.04587
1101.10 0.04586
1101.20 0.04585
1101.30 0.04583
1101.40 0.04582
1101.50 0.04581
1101.60 0.04579
1101.70 0.04578
1101.80 0.04577
1101.90 0.04575
1102.00 0.04574
1102.10 0.04573
1102.20 0.04571
1102.30 0.0457
1102.40 0.04568
1102.50 0.04567
1102.60 0.04565
1102.70 0.04564
1102.80 0.04563
1102.90 0.04561
1103.00 0.0456
1103.10 0.04558
1103.20 0.04557
1103.30 0.04555
1103.40 0.04554
1103.50 0.04552
1103.60 0.04551
1103.70 0.04549
1103.80 0.04548
1103.90 0.04546
1104.00 0.04545
1104.10 0.04543
1104.20 0.04542
1104.30 0.0454
1104.40 0.04539
1104.50 0.04537
1104.60 0.04536
1104.70 0.04534
1104.80 0.04533
1104.90 0.04531
1105.00 0.04529
1105.10 0.04528
1105.20 0.04526
1105.30 0.04525
1105.40 0.04523
1105.50 0.04522
1105.60 0.0452
1105.70 0.04519
1105.80 0.04517
1105.90 0.04516
1106.00 0.04514
1106.10 0.04513
1106.20 0.04511
1106.30 0.0451
1106.40 0.04508
1106.50 0.04506
1106.60 0.04505
1106.70 0.04503
1106.80 0.04502
1106.90 0.045
1107.00 0.04499
1107.10 0.04497
1107.20 0.04496
1107.30 0.04494
1107.40 0.04493
1107.50 0.04491
1107.60 0.04489
1107.70 0.04488
1107.80 0.04486
1107.90 0.04485
1108.00 0.04483
1108.10 0.04482
1108.20 0.0448
1108.30 0.04479
1108.40 0.04477
1108.50 0.04476
1108.60 0.04474
1108.70 0.04472
1108.80 0.04471
1108.90 0.04469
1109.00 0.04468
1109.10 0.04466
1109.20 0.04465
1109.30 0.04463
1109.40 0.04462
1109.50 0.0446
1109.60 0.04458
1109.70 0.04457
1109.80 0.04455
1109.90 0.04454
1110.00 0.04452
1110.10 0.04451
1110.20 0.04449
1110.30 0.04448
1110.40 0.04446
1110.50 0.04445
1110.60 0.04443
1110.70 0.04441
1110.80 0.0444
1110.90 0.04438
1111.00 0.04437
1111.10 0.04435
1111.20 0.04434
1111.30 0.04432
1111.40 0.04431
1111.50 0.04429
1111.60 0.04427
1111.70 0.04426
1111.80 0.04424
1111.90 0.04423
1112.00 0.04421
1112.10 0.0442
1112.20 0.04418
1112.30 0.04417
1112.40 0.04415
1112.50 0.04414
1112.60 0.04412
1112.70 0.04411
1112.80 0.04409
1112.90 0.04407
1113.00 0.04406
1113.10 0.04404
1113.20 0.04403
1113.30 0.04401
1113.40 0.044
1113.50 0.04398
1113.60 0.04397
1113.70 0.04395
1113.80 0.04394
1113.90 0.04392
1114.00 0.04391
1114.10 0.04389
1114.20 0.04387
1114.30 0.04386
1114.40 0.04384
1114.50 0.04383
1114.60 0.04381
1114.70 0.0438
1114.80 0.04378
1114.90 0.04377
1115.00 0.04375
1115.10 0.04374
1115.20 0.04372
1115.30 0.04371
1115.40 0.04369
1115.50 0.04368
1115.60 0.04366
1115.70 0.04364
1115.80 0.04363
1115.90 0.04361
1116.00 0.0436
1116.10 0.04358
1116.20 0.04357
1116.30 0.04355
1116.40 0.04354
1116.50 0.04352
1116.60 0.04351
1116.70 0.04349
1116.80 0.04348
1116.90 0.04346
1117.00 0.04345
1117.10 0.04343
1117.20 0.04342
1117.30 0.0434
1117.40 0.04339
1117.50 0.04337
1117.60 0.04336
1117.70 0.04334
1117.80 0.04333
1117.90 0.04331
1118.00 0.0433
1118.10 0.04328
1118.20 0.04327
1118.30 0.04325
1118.40 0.04324
1118.50 0.04322
1118.60 0.0432
1118.70 0.04319
1118.80 0.04317
1118.90 0.04316
1119.00 0.04314
1119.10 0.04313
1119.20 0.04311
1119.30 0.0431
1119.40 0.04308
1119.50 0.04307
1119.60 0.04305
1119.70 0.04304
1119.80 0.04302
1119.90 0.04301
1120.00 0.04299
1120.10 0.04298
1120.20 0.04296
1120.30 0.04295
1120.40 0.04293
1120.50 0.04292
1120.60 0.0429
1120.70 0.04289
1120.80 0.04287
1120.90 0.04286
1121.00 0.04284
1121.10 0.04283
1121.20 0.04281
1121.30 0.0428
1121.40 0.04278
1121.50 0.04277
1121.60 0.04275
1121.70 0.04274
1121.80 0.04272
1121.90 0.04271
1122.00 0.04269
1122.10 0.04268
1122.20 0.04266
1122.30 0.04265
1122.40 0.04264
1122.50 0.04262
1122.60 0.04261
1122.70 0.04259
1122.80 0.04258
1122.90 0.04256
1123.00 0.04255
1123.10 0.04253
1123.20 0.04252
1123.30 0.0425
1123.40 0.04249
1123.50 0.04247
1123.60 0.04246
1123.70 0.04244
1123.80 0.04243
1123.90 0.04241
1124.00 0.0424
1124.10 0.04238
1124.20 0.04237
1124.30 0.04235
1124.40 0.04234
1124.50 0.04232
1124.60 0.04231
1124.70 0.0423
1124.80 0.04228
1124.90 0.04227
1125.00 0.04225
1125.10 0.04224
1125.20 0.04222
1125.30 0.04221
1125.40 0.04219
1125.50 0.04218
1125.60 0.04216
1125.70 0.04215
1125.80 0.04213
1125.90 0.04212
1126.00 0.0421
1126.10 0.04209
1126.20 0.04207
1126.30 0.04206
1126.40 0.04205
1126.50 0.04203
1126.60 0.04202
1126.70 0.042
1126.80 0.04199
1126.90 0.04197
1127.00 0.04196
1127.10 0.04194
1127.20 0.04193
1127.30 0.04191
1127.40 0.0419
1127.50 0.04188
1127.60 0.04187
1127.70 0.04186
1127.80 0.04184
1127.90 0.04183
1128.00 0.04181
1128.10 0.0418
1128.20 0.04178
1128.30 0.04177
1128.40 0.04175
1128.50 0.04174
1128.60 0.04173
1128.70 0.04171
1128.80 0.0417
1128.90 0.04168
1129.00 0.04167
1129.10 0.04165
1129.20 0.04164
1129.30 0.04162
1129.40 0.04161
1129.50 0.0416
1129.60 0.04158
1129.70 0.04157
1129.80 0.04155
1129.90 0.04154
1130.00 0.04152
1130.10 0.04151
1130.20 0.04149
1130.30 0.04148
1130.40 0.04147
1130.50 0.04145
1130.60 0.04144
1130.70 0.04142
1130.80 0.04141
1130.90 0.04139
1131.00 0.04138
1131.10 0.04136
1131.20 0.04135
1131.30 0.04134
1131.40 0.04132
1131.50 0.04131
1131.60 0.04129
1131.70 0.04128
1131.80 0.04126
1131.90 0.04125
1132.00 0.04124
1132.10 0.04122
1132.20 0.04121
1132.30 0.04119
1132.40 0.04118
1132.50 0.04116
1132.60 0.04115
1132.70 0.04114
1132.80 0.04112
1132.90 0.04111
1133.00 0.04109
1133.10 0.04108
1133.20 0.04107
1133.30 0.04105
1133.40 0.04104
1133.50 0.04102
1133.60 0.04101
1133.70 0.04099
1133.80 0.04098
1133.90 0.04097
1134.00 0.04095
1134.10 0.04094
1134.20 0.04092
1134.30 0.04091
1134.40 0.0409
1134.50 0.04088
1134.60 0.04087
1134.70 0.04085
1134.80 0.04084
1134.90 0.04082
1135.00 0.04081
1135.10 0.0408
1135.20 0.04078
1135.30 0.04077
1135.40 0.04075
1135.50 0.04074
1135.60 0.04073
1135.70 0.04071
1135.80 0.0407
1135.90 0.04068
1136.00 0.04067
1136.10 0.04066
1136.20 0.04064
1136.30 0.04063
1136.40 0.04061
1136.50 0.0406
1136.60 0.04059
1136.70 0.04057
1136.80 0.04056
1136.90 0.04054
1137.00 0.04053
1137.10 0.04052
1137.20 0.0405
1137.30 0.04049
1137.40 0.04047
1137.50 0.04046
1137.60 0.04045
1137.70 0.04043
1137.80 0.04042
1137.90 0.0404
1138.00 0.04039
1138.10 0.04038
1138.20 0.04036
1138.30 0.04035
1138.40 0.04033
1138.50 0.04032
1138.60 0.04031
1138.70 0.04029
1138.80 0.04028
1138.90 0.04027
1139.00 0.04025
1139.10 0.04024
1139.20 0.04022
1139.30 0.04021
1139.40 0.0402
1139.50 0.04018
1139.60 0.04017
1139.70 0.04015
1139.80 0.04014
1139.90 0.04013
1140.00 0.04011
1140.10 0.0401
1140.20 0.04009
1140.30 0.04007
1140.40 0.04006
1140.50 0.04004
1140.60 0.04003
1140.70 0.04002
1140.80 0.04
1140.90 0.03999
1141.00 0.03998
1141.10 0.03996
1141.20 0.03995
1141.30 0.03993
1141.40 0.03992
1141.50 0.03991
1141.60 0.03989
1141.70 0.03988
1141.80 0.03987
1141.90 0.03985
1142.00 0.03984
1142.10 0.03982
1142.20 0.03981
1142.30 0.0398
1142.40 0.03978
1142.50 0.03977
1142.60 0.03976
1142.70 0.03974
1142.80 0.03973
1142.90 0.03972
1143.00 0.0397
1143.10 0.03969
1143.20 0.03967
1143.30 0.03966
1143.40 0.03965
1143.50 0.03963
1143.60 0.03962
1143.70 0.03961
1143.80 0.03959
1143.90 0.03958
1144.00 0.03957
1144.10 0.03955
1144.20 0.03954
1144.30 0.03953
1144.40 0.03951
1144.50 0.0395
1144.60 0.03948
1144.70 0.03947
1144.80 0.03946
1144.90 0.03944
1145.00 0.03943
1145.10 0.03942
1145.20 0.0394
1145.30 0.03939
1145.40 0.03938
1145.50 0.03936
1145.60 0.03935
1145.70 0.03934
1145.80 0.03932
1145.90 0.03931
1146.00 0.0393
1146.10 0.03928
1146.20 0.03927
1146.30 0.03926
1146.40 0.03924
1146.50 0.03923
1146.60 0.03921
1146.70 0.0392
1146.80 0.03919
1146.90 0.03917
1147.00 0.03916
1147.10 0.03915
1147.20 0.03913
1147.30 0.03912
1147.40 0.03911
1147.50 0.03909
1147.60 0.03908
1147.70 0.03907
1147.80 0.03905
1147.90 0.03904
1148.00 0.03903
1148.10 0.03901
1148.20 0.039
1148.30 0.03899
1148.40 0.03897
1148.50 0.03896
1148.60 0.03895
1148.70 0.03893
1148.80 0.03892
1148.90 0.03891
1149.00 0.03889
1149.10 0.03888
1149.20 0.03887
1149.30 0.03886
1149.40 0.03884
1149.50 0.03883
1149.60 0.03882
1149.70 0.0388
1149.80 0.03879
1149.90 0.03878
1150.00 0.03876
1150.10 0.03875
1150.20 0.03874
1150.30 0.03872
1150.40 0.03871
1150.50 0.0387
1150.60 0.03868
1150.70 0.03867
1150.80 0.03866
1150.90 0.03864
1151.00 0.03863
1151.10 0.03862
1151.20 0.0386
1151.30 0.03859
1151.40 0.03858
1151.50 0.03856
1151.60 0.03855
1151.70 0.03854
1151.80 0.03852
1151.90 0.03851
1152.00 0.0385
1152.10 0.03849
1152.20 0.03847
1152.30 0.03846
1152.40 0.03845
1152.50 0.03843
1152.60 0.03842
1152.70 0.03841
1152.80 0.03839
1152.90 0.03838
1153.00 0.03837
1153.10 0.03836
1153.20 0.03834
1153.30 0.03833
1153.40 0.03832
1153.50 0.0383
1153.60 0.03829
1153.70 0.03828
1153.80 0.03826
1153.90 0.03825
1154.00 0.03824
1154.10 0.03822
1154.20 0.03821
1154.30 0.0382
1154.40 0.03819
1154.50 0.03817
1154.60 0.03816
1154.70 0.03815
1154.80 0.03813
1154.90 0.03812
1155.00 0.03811
1155.10 0.0381
1155.20 0.03808
1155.30 0.03807
1155.40 0.03806
1155.50 0.03804
1155.60 0.03803
1155.70 0.03802
1155.80 0.038
1155.90 0.03799
1156.00 0.03798
1156.10 0.03797
1156.20 0.03795
1156.30 0.03794
1156.40 0.03793
1156.50 0.03791
1156.60 0.0379
1156.70 0.03789
1156.80 0.03788
1156.90 0.03786
1157.00 0.03785
1157.10 0.03784
1157.20 0.03782
1157.30 0.03781
1157.40 0.0378
1157.50 0.03779
1157.60 0.03777
1157.70 0.03776
1157.80 0.03775
1157.90 0.03773
1158.00 0.03772
1158.10 0.03771
1158.20 0.0377
1158.30 0.03768
1158.40 0.03767
1158.50 0.03766
1158.60 0.03765
1158.70 0.03763
1158.80 0.03762
1158.90 0.03761
1159.00 0.03759
1159.10 0.03758
1159.20 0.03757
1159.30 0.03756
1159.40 0.03754
1159.50 0.03753
1159.60 0.03752
1159.70 0.03751
1159.80 0.03749
1159.90 0.03748
1160.00 0.03747
1160.10 0.03746
1160.20 0.03744
1160.30 0.03743
1160.40 0.03742
1160.50 0.0374
1160.60 0.03739
1160.70 0.03738
1160.80 0.03737
1160.90 0.03735
1161.00 0.03734
1161.10 0.03733
1161.20 0.03732
1161.30 0.0373
1161.40 0.03729
1161.50 0.03728
1161.60 0.03727
1161.70 0.03725
1161.80 0.03724
1161.90 0.03723
1162.00 0.03721
1162.10 0.0372
1162.20 0.03719
1162.30 0.03718
1162.40 0.03716
1162.50 0.03715
1162.60 0.03714
1162.70 0.03713
1162.80 0.03711
1162.90 0.0371
1163.00 0.03709
1163.10 0.03708
1163.20 0.03706
1163.30 0.03705
1163.40 0.03704
1163.50 0.03703
1163.60 0.03702
1163.70 0.037
1163.80 0.03699
1163.90 0.03698
1164.00 0.03697
1164.10 0.03695
1164.20 0.03694
1164.30 0.03693
1164.40 0.03692
1164.50 0.0369
1164.60 0.03689
1164.70 0.03688
1164.80 0.03687
1164.90 0.03685
1165.00 0.03684
1165.10 0.03683
1165.20 0.03682
1165.30 0.0368
1165.40 0.03679
1165.50 0.03678
1165.60 0.03677
1165.70 0.03675
1165.80 0.03674
1165.90 0.03673
1166.00 0.03672
1166.10 0.0367
1166.20 0.03669
1166.30 0.03668
1166.40 0.03667
1166.50 0.03666
1166.60 0.03664
1166.70 0.03663
1166.80 0.03662
1166.90 0.03661
1167.00 0.03659
1167.10 0.03658
1167.20 0.03657
1167.30 0.03656
1167.40 0.03654
1167.50 0.03653
1167.60 0.03652
1167.70 0.03651
1167.80 0.0365
1167.90 0.03648
1168.00 0.03647
1168.10 0.03646
1168.20 0.03645
1168.30 0.03643
1168.40 0.03642
1168.50 0.03641
1168.60 0.0364
1168.70 0.03639
1168.80 0.03637
1168.90 0.03636
1169.00 0.03635
1169.10 0.03634
1169.20 0.03632
1169.30 0.03631
1169.40 0.0363
1169.50 0.03629
1169.60 0.03628
1169.70 0.03626
1169.80 0.03625
1169.90 0.03624
1170.00 0.03623
1170.10 0.03621
1170.20 0.0362
1170.30 0.03619
1170.40 0.03618
1170.50 0.03617
1170.60 0.03615
1170.70 0.03614
1170.80 0.03613
1170.90 0.03612
1171.00 0.03611
1171.10 0.03609
1171.20 0.03608
1171.30 0.03607
1171.40 0.03606
1171.50 0.03604
1171.60 0.03603
1171.70 0.03602
1171.80 0.03601
1171.90 0.036
1172.00 0.03598
1172.10 0.03597
1172.20 0.03596
1172.30 0.03595
1172.40 0.03594
1172.50 0.03592
1172.60 0.03591
1172.70 0.0359
1172.80 0.03589
1172.90 0.03588
1173.00 0.03586
1173.10 0.03585
1173.20 0.03584
1173.30 0.03583
1173.40 0.03582
1173.50 0.0358
1173.60 0.03579
1173.70 0.03578
1173.80 0.03577
1173.90 0.03576
1174.00 0.03574
1174.10 0.03573
1174.20 0.03572
1174.30 0.03571
1174.40 0.0357
1174.50 0.03569
1174.60 0.03567
1174.70 0.03566
1174.80 0.03565
1174.90 0.03564
1175.00 0.03563
1175.10 0.03561
1175.20 0.0356
1175.30 0.03559
1175.40 0.03558
1175.50 0.03557
1175.60 0.03555
1175.70 0.03554
1175.80 0.03553
1175.90 0.03552
1176.00 0.03551
1176.10 0.03549
1176.20 0.03548
1176.30 0.03547
1176.40 0.03546
1176.50 0.03545
1176.60 0.03544
1176.70 0.03542
1176.80 0.03541
1176.90 0.0354
1177.00 0.03539
1177.10 0.03538
1177.20 0.03536
1177.30 0.03535
1177.40 0.03534
1177.50 0.03533
1177.60 0.03532
1177.70 0.03531
1177.80 0.03529
1177.90 0.03528
1178.00 0.03527
1178.10 0.03526
1178.20 0.03525
1178.30 0.03524
1178.40 0.03522
1178.50 0.03521
1178.60 0.0352
1178.70 0.03519
1178.80 0.03518
1178.90 0.03517
1179.00 0.03515
1179.10 0.03514
1179.20 0.03513
1179.30 0.03512
1179.40 0.03511
1179.50 0.0351
1179.60 0.03508
1179.70 0.03507
1179.80 0.03506
1179.90 0.03505
1180.00 0.03504
1180.10 0.03503
1180.20 0.03501
1180.30 0.035
1180.40 0.03499
1180.50 0.03498
1180.60 0.03497
1180.70 0.03496
1180.80 0.03494
1180.90 0.03493
1181.00 0.03492
1181.10 0.03491
1181.20 0.0349
1181.30 0.03489
1181.40 0.03487
1181.50 0.03486
1181.60 0.03485
1181.70 0.03484
1181.80 0.03483
1181.90 0.03482
1182.00 0.0348
1182.10 0.03479
1182.20 0.03478
1182.30 0.03477
1182.40 0.03476
1182.50 0.03475
1182.60 0.03474
1182.70 0.03472
1182.80 0.03471
1182.90 0.0347
1183.00 0.03469
1183.10 0.03468
1183.20 0.03467
1183.30 0.03466
1183.40 0.03464
1183.50 0.03463
1183.60 0.03462
1183.70 0.03461
1183.80 0.0346
1183.90 0.03459
1184.00 0.03457
1184.10 0.03456
1184.20 0.03455
1184.30 0.03454
1184.40 0.03453
1184.50 0.03452
1184.60 0.03451
1184.70 0.03449
1184.80 0.03448
1184.90 0.03447
1185.00 0.03446
1185.10 0.03445
1185.20 0.03444
1185.30 0.03443
1185.40 0.03441
1185.50 0.0344
1185.60 0.03439
1185.70 0.03438
1185.80 0.03437
1185.90 0.03436
1186.00 0.03435
1186.10 0.03433
1186.20 0.03432
1186.30 0.03431
1186.40 0.0343
1186.50 0.03429
1186.60 0.03428
1186.70 0.03427
1186.80 0.03426
1186.90 0.03424
1187.00 0.03423
1187.10 0.03422
1187.20 0.03421
1187.30 0.0342
1187.40 0.03419
1187.50 0.03418
1187.60 0.03417
1187.70 0.03415
1187.80 0.03414
1187.90 0.03413
1188.00 0.03412
1188.10 0.03411
1188.20 0.0341
1188.30 0.03409
1188.40 0.03408
1188.50 0.03406
1188.60 0.03405
1188.70 0.03404
1188.80 0.03403
1188.90 0.03402
1189.00 0.03401
1189.10 0.034
1189.20 0.03399
1189.30 0.03397
1189.40 0.03396
1189.50 0.03395
1189.60 0.03394
1189.70 0.03393
1189.80 0.03392
1189.90 0.03391
1190.00 0.0339
1190.10 0.03388
1190.20 0.03387
1190.30 0.03386
1190.40 0.03385
1190.50 0.03384
1190.60 0.03383
1190.70 0.03382
1190.80 0.03381
1190.90 0.0338
1191.00 0.03378
1191.10 0.03377
1191.20 0.03376
1191.30 0.03375
1191.40 0.03374
1191.50 0.03373
1191.60 0.03372
1191.70 0.03371
1191.80 0.03369
1191.90 0.03368
1192.00 0.03367
1192.10 0.03366
1192.20 0.03365
1192.30 0.03364
1192.40 0.03363
1192.50 0.03362
1192.60 0.03361
1192.70 0.0336
1192.80 0.03358
1192.90 0.03357
1193.00 0.03356
1193.10 0.03355
1193.20 0.03354
1193.30 0.03353
1193.40 0.03352
1193.50 0.03351
1193.60 0.0335
1193.70 0.03349
1193.80 0.03347
1193.90 0.03346
1194.00 0.03345
1194.10 0.03344
1194.20 0.03343
1194.30 0.03342
1194.40 0.03341
1194.50 0.0334
1194.60 0.03339
1194.70 0.03338
1194.80 0.03336
1194.90 0.03335
1195.00 0.03334
1195.10 0.03333
1195.20 0.03332
1195.30 0.03331
1195.40 0.0333
1195.50 0.03329
1195.60 0.03328
1195.70 0.03327
1195.80 0.03325
1195.90 0.03324
1196.00 0.03323
1196.10 0.03322
1196.20 0.03321
1196.30 0.0332
1196.40 0.03319
1196.50 0.03318
1196.60 0.03317
1196.70 0.03316
1196.80 0.03315
1196.90 0.03313
1197.00 0.03312
1197.10 0.03311
1197.20 0.0331
1197.30 0.03309
1197.40 0.03308
1197.50 0.03307
1197.60 0.03306
1197.70 0.03305
1197.80 0.03304
1197.90 0.03303
1198.00 0.03302
1198.10 0.033
1198.20 0.03299
1198.30 0.03298
1198.40 0.03297
1198.50 0.03296
1198.60 0.03295
1198.70 0.03294
1198.80 0.03293
1198.90 0.03292
1199.00 0.03291
1199.10 0.0329
1199.20 0.03289
1199.30 0.03288
1199.40 0.03286
1199.50 0.03285
1199.60 0.03284
1199.70 0.03283
1199.80 0.03282
1199.90 0.03281
1200.00 0
