# Version 2.1 - nm, norm@500 to 1, cut digits, bergeron_4250_80.dat_4250
# Wavelength(nm)  Flambda(ergs/cm^s/s/nm)
300.00 0.2112
300.10 0.2115
300.20 0.2119
300.30 0.2123
300.40 0.2126
300.50 0.213
300.60 0.2134
300.70 0.2137
300.80 0.2141
300.90 0.2145
301.00 0.2148
301.10 0.2152
301.20 0.2155
301.30 0.2159
301.40 0.2163
301.50 0.2166
301.60 0.217
301.70 0.2173
301.80 0.2177
301.90 0.2181
302.00 0.2184
302.10 0.2188
302.20 0.2192
302.30 0.2195
302.40 0.2199
302.50 0.2203
302.60 0.2206
302.70 0.221
302.80 0.2214
302.90 0.2217
303.00 0.2221
303.10 0.2225
303.20 0.2228
303.30 0.2232
303.40 0.2236
303.50 0.2239
303.60 0.2243
303.70 0.2247
303.80 0.225
303.90 0.2254
304.00 0.2258
304.10 0.2261
304.20 0.2265
304.30 0.2269
304.40 0.2273
304.50 0.2276
304.60 0.228
304.70 0.2284
304.80 0.2288
304.90 0.2291
305.00 0.2295
305.10 0.2299
305.20 0.2302
305.30 0.2306
305.40 0.231
305.50 0.2314
305.60 0.2317
305.70 0.2321
305.80 0.2325
305.90 0.2328
306.00 0.2332
306.10 0.2336
306.20 0.234
306.30 0.2343
306.40 0.2347
306.50 0.2351
306.60 0.2355
306.70 0.2359
306.80 0.2362
306.90 0.2366
307.00 0.237
307.10 0.2374
307.20 0.2377
307.30 0.2381
307.40 0.2385
307.50 0.2389
307.60 0.2392
307.70 0.2396
307.80 0.24
307.90 0.2404
308.00 0.2407
308.10 0.2411
308.20 0.2415
308.30 0.2419
308.40 0.2423
308.50 0.2427
308.60 0.243
308.70 0.2434
308.80 0.2438
308.90 0.2442
309.00 0.2446
309.10 0.245
309.20 0.2453
309.30 0.2457
309.40 0.2461
309.50 0.2465
309.60 0.2469
309.70 0.2472
309.80 0.2476
309.90 0.248
310.00 0.2484
310.10 0.2488
310.20 0.2492
310.30 0.2495
310.40 0.2499
310.50 0.2503
310.60 0.2507
310.70 0.2511
310.80 0.2515
310.90 0.2519
311.00 0.2523
311.10 0.2526
311.20 0.253
311.30 0.2534
311.40 0.2538
311.50 0.2542
311.60 0.2546
311.70 0.255
311.80 0.2553
311.90 0.2557
312.00 0.2561
312.10 0.2565
312.20 0.2569
312.30 0.2573
312.40 0.2577
312.50 0.2581
312.60 0.2585
312.70 0.2588
312.80 0.2592
312.90 0.2596
313.00 0.26
313.10 0.2604
313.20 0.2608
313.30 0.2612
313.40 0.2616
313.50 0.262
313.60 0.2624
313.70 0.2628
313.80 0.2631
313.90 0.2635
314.00 0.2639
314.10 0.2643
314.20 0.2647
314.30 0.2651
314.40 0.2655
314.50 0.2659
314.60 0.2663
314.70 0.2667
314.80 0.2671
314.90 0.2675
315.00 0.2679
315.10 0.2683
315.20 0.2687
315.30 0.2691
315.40 0.2695
315.50 0.2699
315.60 0.2703
315.70 0.2707
315.80 0.271
315.90 0.2714
316.00 0.2718
316.10 0.2722
316.20 0.2726
316.30 0.273
316.40 0.2734
316.50 0.2738
316.60 0.2742
316.70 0.2746
316.80 0.275
316.90 0.2754
317.00 0.2758
317.10 0.2762
317.20 0.2766
317.30 0.277
317.40 0.2774
317.50 0.2778
317.60 0.2782
317.70 0.2786
317.80 0.279
317.90 0.2794
318.00 0.2798
318.10 0.2802
318.20 0.2806
318.30 0.281
318.40 0.2814
318.50 0.2818
318.60 0.2822
318.70 0.2826
318.80 0.2831
318.90 0.2835
319.00 0.2839
319.10 0.2843
319.20 0.2847
319.30 0.2851
319.40 0.2855
319.50 0.2859
319.60 0.2863
319.70 0.2867
319.80 0.2871
319.90 0.2875
320.00 0.2879
320.10 0.2883
320.20 0.2887
320.30 0.2891
320.40 0.2895
320.50 0.2899
320.60 0.2903
320.70 0.2907
320.80 0.2912
320.90 0.2916
321.00 0.292
321.10 0.2924
321.20 0.2928
321.30 0.2932
321.40 0.2936
321.50 0.294
321.60 0.2944
321.70 0.2948
321.80 0.2952
321.90 0.2956
322.00 0.296
322.10 0.2964
322.20 0.2969
322.30 0.2973
322.40 0.2977
322.50 0.2981
322.60 0.2985
322.70 0.2989
322.80 0.2993
322.90 0.2997
323.00 0.3002
323.10 0.3006
323.20 0.301
323.30 0.3014
323.40 0.3018
323.50 0.3022
323.60 0.3026
323.70 0.303
323.80 0.3034
323.90 0.3038
324.00 0.3042
324.10 0.3047
324.20 0.3051
324.30 0.3055
324.40 0.3059
324.50 0.3063
324.60 0.3068
324.70 0.3072
324.80 0.3076
324.90 0.308
325.00 0.3084
325.10 0.3088
325.20 0.3093
325.30 0.3097
325.40 0.3101
325.50 0.3105
325.60 0.3109
325.70 0.3113
325.80 0.3117
325.90 0.3121
326.00 0.3126
326.10 0.313
326.20 0.3134
326.30 0.3138
326.40 0.3142
326.50 0.3147
326.60 0.3151
326.70 0.3155
326.80 0.3159
326.90 0.3163
327.00 0.3168
327.10 0.3172
327.20 0.3176
327.30 0.318
327.40 0.3184
327.50 0.3188
327.60 0.3192
327.70 0.3197
327.80 0.3201
327.90 0.3205
328.00 0.3209
328.10 0.3213
328.20 0.3218
328.30 0.3222
328.40 0.3226
328.50 0.323
328.60 0.3235
328.70 0.3239
328.80 0.3243
328.90 0.3247
329.00 0.3251
329.10 0.3256
329.20 0.326
329.30 0.3264
329.40 0.3268
329.50 0.3272
329.60 0.3277
329.70 0.3281
329.80 0.3285
329.90 0.3289
330.00 0.3293
330.10 0.3298
330.20 0.3302
330.30 0.3306
330.40 0.331
330.50 0.3315
330.60 0.3319
330.70 0.3323
330.80 0.3328
330.90 0.3332
331.00 0.3336
331.10 0.334
331.20 0.3345
331.30 0.3349
331.40 0.3353
331.50 0.3357
331.60 0.3361
331.70 0.3366
331.80 0.337
331.90 0.3374
332.00 0.3378
332.10 0.3382
332.20 0.3387
332.30 0.3391
332.40 0.3395
332.50 0.34
332.60 0.3404
332.70 0.3408
332.80 0.3413
332.90 0.3417
333.00 0.3421
333.10 0.3425
333.20 0.343
333.30 0.3434
333.40 0.3438
333.50 0.3443
333.60 0.3447
333.70 0.3451
333.80 0.3455
333.90 0.3459
334.00 0.3464
334.10 0.3468
334.20 0.3472
334.30 0.3477
334.40 0.3481
334.50 0.3485
334.60 0.349
334.70 0.3494
334.80 0.3498
334.90 0.3503
335.00 0.3507
335.10 0.3511
335.20 0.3516
335.30 0.352
335.40 0.3524
335.50 0.3529
335.60 0.3533
335.70 0.3537
335.80 0.3541
335.90 0.3546
336.00 0.355
336.10 0.3554
336.20 0.3559
336.30 0.3563
336.40 0.3567
336.50 0.3572
336.60 0.3576
336.70 0.358
336.80 0.3585
336.90 0.3589
337.00 0.3593
337.10 0.3598
337.20 0.3602
337.30 0.3606
337.40 0.3611
337.50 0.3615
337.60 0.3619
337.70 0.3624
337.80 0.3628
337.90 0.3632
338.00 0.3636
338.10 0.3641
338.20 0.3645
338.30 0.365
338.40 0.3654
338.50 0.3658
338.60 0.3663
338.70 0.3667
338.80 0.3671
338.90 0.3676
339.00 0.368
339.10 0.3684
339.20 0.3689
339.30 0.3693
339.40 0.3697
339.50 0.3702
339.60 0.3706
339.70 0.371
339.80 0.3715
339.90 0.3719
340.00 0.3723
340.10 0.3728
340.20 0.3732
340.30 0.3737
340.40 0.3741
340.50 0.3745
340.60 0.375
340.70 0.3754
340.80 0.3759
340.90 0.3763
341.00 0.3767
341.10 0.3772
341.20 0.3776
341.30 0.3781
341.40 0.3785
341.50 0.3789
341.60 0.3794
341.70 0.3798
341.80 0.3802
341.90 0.3807
342.00 0.3811
342.10 0.3815
342.20 0.382
342.30 0.3824
342.40 0.3829
342.50 0.3833
342.60 0.3838
342.70 0.3842
342.80 0.3846
342.90 0.3851
343.00 0.3855
343.10 0.386
343.20 0.3864
343.30 0.3868
343.40 0.3873
343.50 0.3877
343.60 0.3881
343.70 0.3886
343.80 0.389
343.90 0.3895
344.00 0.3899
344.10 0.3903
344.20 0.3908
344.30 0.3912
344.40 0.3917
344.50 0.3921
344.60 0.3926
344.70 0.393
344.80 0.3934
344.90 0.3939
345.00 0.3943
345.10 0.3948
345.20 0.3952
345.30 0.3956
345.40 0.3961
345.50 0.3965
345.60 0.397
345.70 0.3974
345.80 0.3978
345.90 0.3983
346.00 0.3987
346.10 0.3992
346.20 0.3996
346.30 0.4001
346.40 0.4005
346.50 0.401
346.60 0.4014
346.70 0.4018
346.80 0.4023
346.90 0.4027
347.00 0.4032
347.10 0.4036
347.20 0.4041
347.30 0.4045
347.40 0.4049
347.50 0.4054
347.60 0.4058
347.70 0.4063
347.80 0.4067
347.90 0.4071
348.00 0.4076
348.10 0.408
348.20 0.4085
348.30 0.4089
348.40 0.4094
348.50 0.4098
348.60 0.4103
348.70 0.4107
348.80 0.4112
348.90 0.4116
349.00 0.4121
349.10 0.4125
349.20 0.413
349.30 0.4134
349.40 0.4138
349.50 0.4143
349.60 0.4147
349.70 0.4152
349.80 0.4156
349.90 0.4161
350.00 0.4165
350.10 0.4169
350.20 0.4174
350.30 0.4178
350.40 0.4183
350.50 0.4187
350.60 0.4192
350.70 0.4196
350.80 0.4201
350.90 0.4205
351.00 0.421
351.10 0.4214
351.20 0.4219
351.30 0.4223
351.40 0.4228
351.50 0.4232
351.60 0.4236
351.70 0.4241
351.80 0.4245
351.90 0.425
352.00 0.4254
352.10 0.4259
352.20 0.4263
352.30 0.4268
352.40 0.4272
352.50 0.4277
352.60 0.4281
352.70 0.4286
352.80 0.429
352.90 0.4295
353.00 0.4299
353.10 0.4304
353.20 0.4308
353.30 0.4313
353.40 0.4317
353.50 0.4322
353.60 0.4326
353.70 0.433
353.80 0.4335
353.90 0.4339
354.00 0.4344
354.10 0.4348
354.20 0.4353
354.30 0.4357
354.40 0.4362
354.50 0.4366
354.60 0.4371
354.70 0.4375
354.80 0.438
354.90 0.4384
355.00 0.4389
355.10 0.4393
355.20 0.4398
355.30 0.4402
355.40 0.4407
355.50 0.4411
355.60 0.4416
355.70 0.442
355.80 0.4425
355.90 0.4429
356.00 0.4434
356.10 0.4438
356.20 0.4443
356.30 0.4447
356.40 0.4452
356.50 0.4456
356.60 0.4461
356.70 0.4465
356.80 0.447
356.90 0.4474
357.00 0.4479
357.10 0.4483
357.20 0.4488
357.30 0.4492
357.40 0.4497
357.50 0.4501
357.60 0.4506
357.70 0.451
357.80 0.4515
357.90 0.4519
358.00 0.4524
358.10 0.4528
358.20 0.4533
358.30 0.4537
358.40 0.4542
358.50 0.4546
358.60 0.4551
358.70 0.4555
358.80 0.456
358.90 0.4564
359.00 0.4569
359.10 0.4573
359.20 0.4578
359.30 0.4582
359.40 0.4587
359.50 0.4591
359.60 0.4596
359.70 0.46
359.80 0.4605
359.90 0.4609
360.00 0.4614
360.10 0.4618
360.20 0.4623
360.30 0.4627
360.40 0.4632
360.50 0.4637
360.60 0.4641
360.70 0.4646
360.80 0.465
360.90 0.4655
361.00 0.4659
361.10 0.4664
361.20 0.4668
361.30 0.4673
361.40 0.4677
361.50 0.4682
361.60 0.4686
361.70 0.4691
361.80 0.4695
361.90 0.47
362.00 0.4704
362.10 0.4709
362.20 0.4713
362.30 0.4718
362.40 0.4722
362.50 0.4727
362.60 0.4731
362.70 0.4736
362.80 0.474
362.90 0.4745
363.00 0.4749
363.10 0.4754
363.20 0.4758
363.30 0.4763
363.40 0.4767
363.50 0.4772
363.60 0.4777
363.70 0.4781
363.80 0.4786
363.90 0.479
364.00 0.4795
364.10 0.4799
364.20 0.4804
364.30 0.4808
364.40 0.4813
364.50 0.4817
364.60 0.4822
364.70 0.4826
364.80 0.4831
364.90 0.4835
365.00 0.484
365.10 0.4845
365.20 0.4849
365.30 0.4854
365.40 0.4858
365.50 0.4863
365.60 0.4867
365.70 0.4872
365.80 0.4876
365.90 0.4881
366.00 0.4885
366.10 0.489
366.20 0.4894
366.30 0.4899
366.40 0.4903
366.50 0.4908
366.60 0.4913
366.70 0.4917
366.80 0.4922
366.90 0.4926
367.00 0.4931
367.10 0.4935
367.20 0.494
367.30 0.4944
367.40 0.4949
367.50 0.4953
367.60 0.4958
367.70 0.4962
367.80 0.4967
367.90 0.4971
368.00 0.4976
368.10 0.498
368.20 0.4985
368.30 0.4989
368.40 0.4994
368.50 0.4999
368.60 0.5003
368.70 0.5008
368.80 0.5012
368.90 0.5017
369.00 0.5021
369.10 0.5026
369.20 0.503
369.30 0.5035
369.40 0.5039
369.50 0.5044
369.60 0.5048
369.70 0.5053
369.80 0.5057
369.90 0.5062
370.00 0.5066
370.10 0.5071
370.20 0.5075
370.30 0.508
370.40 0.5085
370.50 0.5089
370.60 0.5094
370.70 0.5098
370.80 0.5103
370.90 0.5107
371.00 0.5112
371.10 0.5116
371.20 0.5121
371.30 0.5125
371.40 0.513
371.50 0.5134
371.60 0.5139
371.70 0.5143
371.80 0.5148
371.90 0.5152
372.00 0.5157
372.10 0.5161
372.20 0.5166
372.30 0.5171
372.40 0.5175
372.50 0.518
372.60 0.5184
372.70 0.5189
372.80 0.5193
372.90 0.5198
373.00 0.5202
373.10 0.5207
373.20 0.5212
373.30 0.5216
373.40 0.5221
373.50 0.5225
373.60 0.523
373.70 0.5234
373.80 0.5239
373.90 0.5243
374.00 0.5248
374.10 0.5252
374.20 0.5257
374.30 0.5261
374.40 0.5266
374.50 0.527
374.60 0.5275
374.70 0.5279
374.80 0.5284
374.90 0.5289
375.00 0.5293
375.10 0.5298
375.20 0.5302
375.30 0.5307
375.40 0.5311
375.50 0.5316
375.60 0.532
375.70 0.5325
375.80 0.5329
375.90 0.5333
376.00 0.5338
376.10 0.5342
376.20 0.5347
376.30 0.5352
376.40 0.5356
376.50 0.5361
376.60 0.5365
376.70 0.537
376.80 0.5374
376.90 0.5379
377.00 0.5383
377.10 0.5388
377.20 0.5392
377.30 0.5397
377.40 0.5401
377.50 0.5406
377.60 0.541
377.70 0.5415
377.80 0.5419
377.90 0.5424
378.00 0.5429
378.10 0.5433
378.20 0.5438
378.30 0.5442
378.40 0.5447
378.50 0.5451
378.60 0.5456
378.70 0.546
378.80 0.5465
378.90 0.5469
379.00 0.5474
379.10 0.5478
379.20 0.5483
379.30 0.5487
379.40 0.5492
379.50 0.5496
379.60 0.5501
379.70 0.5505
379.80 0.551
379.90 0.5514
380.00 0.5519
380.10 0.5523
380.20 0.5528
380.30 0.5532
380.40 0.5537
380.50 0.5541
380.60 0.5546
380.70 0.555
380.80 0.5555
380.90 0.5559
381.00 0.5564
381.10 0.5568
381.20 0.5573
381.30 0.5577
381.40 0.5582
381.50 0.5586
381.60 0.5591
381.70 0.5595
381.80 0.56
381.90 0.5604
382.00 0.5609
382.10 0.5613
382.20 0.5618
382.30 0.5622
382.40 0.5627
382.50 0.5632
382.60 0.5636
382.70 0.5641
382.80 0.5645
382.90 0.5649
383.00 0.5654
383.10 0.5658
383.20 0.5663
383.30 0.5667
383.40 0.5672
383.50 0.5676
383.60 0.5681
383.70 0.5685
383.80 0.569
383.90 0.5694
384.00 0.5699
384.10 0.5703
384.20 0.5708
384.30 0.5712
384.40 0.5717
384.50 0.5721
384.60 0.5726
384.70 0.573
384.80 0.5735
384.90 0.5739
385.00 0.5744
385.10 0.5748
385.20 0.5753
385.30 0.5757
385.40 0.5762
385.50 0.5766
385.60 0.5771
385.70 0.5775
385.80 0.578
385.90 0.5784
386.00 0.5789
386.10 0.5793
386.20 0.5798
386.30 0.5802
386.40 0.5807
386.50 0.5811
386.60 0.5816
386.70 0.582
386.80 0.5825
386.90 0.5829
387.00 0.5834
387.10 0.5838
387.20 0.5843
387.30 0.5847
387.40 0.5851
387.50 0.5856
387.60 0.586
387.70 0.5865
387.80 0.5869
387.90 0.5874
388.00 0.5878
388.10 0.5883
388.20 0.5887
388.30 0.5892
388.40 0.5896
388.50 0.5901
388.60 0.5905
388.70 0.591
388.80 0.5914
388.90 0.5919
389.00 0.5923
389.10 0.5927
389.20 0.5932
389.30 0.5936
389.40 0.5941
389.50 0.5945
389.60 0.595
389.70 0.5954
389.80 0.5959
389.90 0.5963
390.00 0.5968
390.10 0.5972
390.20 0.5977
390.30 0.5981
390.40 0.5985
390.50 0.599
390.60 0.5994
390.70 0.5999
390.80 0.6003
390.90 0.6008
391.00 0.6012
391.10 0.6017
391.20 0.6021
391.30 0.6025
391.40 0.603
391.50 0.6034
391.60 0.6039
391.70 0.6043
391.80 0.6048
391.90 0.6052
392.00 0.6057
392.10 0.6061
392.20 0.6066
392.30 0.607
392.40 0.6075
392.50 0.6079
392.60 0.6083
392.70 0.6088
392.80 0.6092
392.90 0.6097
393.00 0.6101
393.10 0.6106
393.20 0.611
393.30 0.6114
393.40 0.6119
393.50 0.6123
393.60 0.6128
393.70 0.6132
393.80 0.6137
393.90 0.6141
394.00 0.6145
394.10 0.615
394.20 0.6154
394.30 0.6159
394.40 0.6163
394.50 0.6168
394.60 0.6172
394.70 0.6176
394.80 0.6181
394.90 0.6185
395.00 0.619
395.10 0.6194
395.20 0.6198
395.30 0.6203
395.40 0.6207
395.50 0.6212
395.60 0.6216
395.70 0.6221
395.80 0.6225
395.90 0.623
396.00 0.6234
396.10 0.6238
396.20 0.6243
396.30 0.6247
396.40 0.6252
396.50 0.6256
396.60 0.626
396.70 0.6265
396.80 0.6269
396.90 0.6274
397.00 0.6278
397.10 0.6282
397.20 0.6287
397.30 0.6291
397.40 0.6296
397.50 0.63
397.60 0.6304
397.70 0.6309
397.80 0.6313
397.90 0.6318
398.00 0.6322
398.10 0.6326
398.20 0.6331
398.30 0.6335
398.40 0.634
398.50 0.6344
398.60 0.6348
398.70 0.6353
398.80 0.6357
398.90 0.6362
399.00 0.6366
399.10 0.637
399.20 0.6375
399.30 0.6379
399.40 0.6383
399.50 0.6388
399.60 0.6392
399.70 0.6397
399.80 0.6401
399.90 0.6405
400.00 0.641
400.10 0.6414
400.20 0.6419
400.30 0.6423
400.40 0.6427
400.50 0.6432
400.60 0.6436
400.70 0.644
400.80 0.6445
400.90 0.6449
401.00 0.6453
401.10 0.6458
401.20 0.6462
401.30 0.6467
401.40 0.6471
401.50 0.6475
401.60 0.648
401.70 0.6484
401.80 0.6488
401.90 0.6493
402.00 0.6497
402.10 0.6502
402.20 0.6506
402.30 0.651
402.40 0.6515
402.50 0.6519
402.60 0.6523
402.70 0.6528
402.80 0.6532
402.90 0.6536
403.00 0.6541
403.10 0.6545
403.20 0.6549
403.30 0.6554
403.40 0.6558
403.50 0.6562
403.60 0.6567
403.70 0.6571
403.80 0.6575
403.90 0.658
404.00 0.6584
404.10 0.6588
404.20 0.6593
404.30 0.6597
404.40 0.6601
404.50 0.6606
404.60 0.661
404.70 0.6614
404.80 0.6619
404.90 0.6623
405.00 0.6627
405.10 0.6632
405.20 0.6636
405.30 0.664
405.40 0.6645
405.50 0.6649
405.60 0.6653
405.70 0.6658
405.80 0.6662
405.90 0.6666
406.00 0.6671
406.10 0.6675
406.20 0.6679
406.30 0.6684
406.40 0.6688
406.50 0.6692
406.60 0.6696
406.70 0.6701
406.80 0.6705
406.90 0.6709
407.00 0.6714
407.10 0.6718
407.20 0.6722
407.30 0.6727
407.40 0.6731
407.50 0.6735
407.60 0.674
407.70 0.6744
407.80 0.6748
407.90 0.6752
408.00 0.6757
408.10 0.6761
408.20 0.6765
408.30 0.677
408.40 0.6774
408.50 0.6778
408.60 0.6783
408.70 0.6787
408.80 0.6791
408.90 0.6795
409.00 0.68
409.10 0.6804
409.20 0.6808
409.30 0.6812
409.40 0.6817
409.50 0.6821
409.60 0.6825
409.70 0.683
409.80 0.6834
409.90 0.6838
410.00 0.6842
410.10 0.6847
410.20 0.6851
410.30 0.6855
410.40 0.6859
410.50 0.6864
410.60 0.6868
410.70 0.6872
410.80 0.6877
410.90 0.6881
411.00 0.6885
411.10 0.6889
411.20 0.6893
411.30 0.6898
411.40 0.6902
411.50 0.6906
411.60 0.6911
411.70 0.6915
411.80 0.6919
411.90 0.6923
412.00 0.6928
412.10 0.6932
412.20 0.6936
412.30 0.694
412.40 0.6944
412.50 0.6949
412.60 0.6953
412.70 0.6957
412.80 0.6961
412.90 0.6966
413.00 0.697
413.10 0.6974
413.20 0.6978
413.30 0.6983
413.40 0.6987
413.50 0.6991
413.60 0.6995
413.70 0.7
413.80 0.7004
413.90 0.7008
414.00 0.7012
414.10 0.7016
414.20 0.7021
414.30 0.7025
414.40 0.7029
414.50 0.7033
414.60 0.7038
414.70 0.7042
414.80 0.7046
414.90 0.705
415.00 0.7054
415.10 0.7058
415.20 0.7063
415.30 0.7067
415.40 0.7071
415.50 0.7075
415.60 0.708
415.70 0.7084
415.80 0.7088
415.90 0.7092
416.00 0.7096
416.10 0.7101
416.20 0.7105
416.30 0.7109
416.40 0.7113
416.50 0.7117
416.60 0.7121
416.70 0.7126
416.80 0.713
416.90 0.7134
417.00 0.7138
417.10 0.7142
417.20 0.7147
417.30 0.7151
417.40 0.7155
417.50 0.7159
417.60 0.7163
417.70 0.7167
417.80 0.7172
417.90 0.7176
418.00 0.718
418.10 0.7184
418.20 0.7188
418.30 0.7192
418.40 0.7197
418.50 0.7201
418.60 0.7205
418.70 0.7209
418.80 0.7213
418.90 0.7217
419.00 0.7222
419.10 0.7226
419.20 0.723
419.30 0.7234
419.40 0.7238
419.50 0.7242
419.60 0.7246
419.70 0.7251
419.80 0.7255
419.90 0.7259
420.00 0.7263
420.10 0.7267
420.20 0.7271
420.30 0.7275
420.40 0.728
420.50 0.7284
420.60 0.7288
420.70 0.7292
420.80 0.7296
420.90 0.73
421.00 0.7304
421.10 0.7308
421.20 0.7313
421.30 0.7317
421.40 0.7321
421.50 0.7325
421.60 0.7329
421.70 0.7333
421.80 0.7337
421.90 0.7341
422.00 0.7345
422.10 0.735
422.20 0.7354
422.30 0.7358
422.40 0.7362
422.50 0.7366
422.60 0.737
422.70 0.7374
422.80 0.7378
422.90 0.7382
423.00 0.7386
423.10 0.7391
423.20 0.7395
423.30 0.7399
423.40 0.7403
423.50 0.7407
423.60 0.7411
423.70 0.7415
423.80 0.7419
423.90 0.7423
424.00 0.7427
424.10 0.7431
424.20 0.7436
424.30 0.744
424.40 0.7444
424.50 0.7448
424.60 0.7452
424.70 0.7456
424.80 0.746
424.90 0.7464
425.00 0.7468
425.10 0.7472
425.20 0.7476
425.30 0.748
425.40 0.7484
425.50 0.7488
425.60 0.7493
425.70 0.7497
425.80 0.7501
425.90 0.7505
426.00 0.7509
426.10 0.7513
426.20 0.7517
426.30 0.7521
426.40 0.7525
426.50 0.7529
426.60 0.7533
426.70 0.7537
426.80 0.7541
426.90 0.7545
427.00 0.7549
427.10 0.7553
427.20 0.7557
427.30 0.7561
427.40 0.7565
427.50 0.7569
427.60 0.7573
427.70 0.7577
427.80 0.7581
427.90 0.7585
428.00 0.7589
428.10 0.7593
428.20 0.7597
428.30 0.7601
428.40 0.7605
428.50 0.7609
428.60 0.7613
428.70 0.7617
428.80 0.7621
428.90 0.7625
429.00 0.7629
429.10 0.7633
429.20 0.7638
429.30 0.7642
429.40 0.7645
429.50 0.7649
429.60 0.7653
429.70 0.7657
429.80 0.7661
429.90 0.7665
430.00 0.7669
430.10 0.7673
430.20 0.7677
430.30 0.7681
430.40 0.7685
430.50 0.7689
430.60 0.7693
430.70 0.7697
430.80 0.7701
430.90 0.7705
431.00 0.7709
431.10 0.7713
431.20 0.7717
431.30 0.7721
431.40 0.7725
431.50 0.7729
431.60 0.7733
431.70 0.7737
431.80 0.7741
431.90 0.7745
432.00 0.7749
432.10 0.7753
432.20 0.7757
432.30 0.7761
432.40 0.7765
432.50 0.7769
432.60 0.7772
432.70 0.7776
432.80 0.778
432.90 0.7784
433.00 0.7788
433.10 0.7792
433.20 0.7796
433.30 0.78
433.40 0.7804
433.50 0.7808
433.60 0.7812
433.70 0.7816
433.80 0.782
433.90 0.7823
434.00 0.7827
434.10 0.7831
434.20 0.7835
434.30 0.7839
434.40 0.7843
434.50 0.7847
434.60 0.7851
434.70 0.7855
434.80 0.7859
434.90 0.7863
435.00 0.7867
435.10 0.7871
435.20 0.7874
435.30 0.7878
435.40 0.7882
435.50 0.7886
435.60 0.789
435.70 0.7894
435.80 0.7898
435.90 0.7902
436.00 0.7906
436.10 0.791
436.20 0.7913
436.30 0.7917
436.40 0.7921
436.50 0.7925
436.60 0.7929
436.70 0.7933
436.80 0.7937
436.90 0.7941
437.00 0.7944
437.10 0.7948
437.20 0.7952
437.30 0.7956
437.40 0.796
437.50 0.7964
437.60 0.7968
437.70 0.7972
437.80 0.7975
437.90 0.7979
438.00 0.7983
438.10 0.7987
438.20 0.7991
438.30 0.7995
438.40 0.7999
438.50 0.8002
438.60 0.8006
438.70 0.801
438.80 0.8014
438.90 0.8018
439.00 0.8022
439.10 0.8025
439.20 0.8029
439.30 0.8033
439.40 0.8037
439.50 0.8041
439.60 0.8045
439.70 0.8048
439.80 0.8052
439.90 0.8056
440.00 0.806
440.10 0.8064
440.20 0.8067
440.30 0.8071
440.40 0.8075
440.50 0.8079
440.60 0.8083
440.70 0.8087
440.80 0.809
440.90 0.8094
441.00 0.8098
441.10 0.8102
441.20 0.8106
441.30 0.8109
441.40 0.8113
441.50 0.8117
441.60 0.8121
441.70 0.8125
441.80 0.8128
441.90 0.8132
442.00 0.8136
442.10 0.814
442.20 0.8143
442.30 0.8147
442.40 0.8151
442.50 0.8155
442.60 0.8159
442.70 0.8162
442.80 0.8166
442.90 0.817
443.00 0.8174
443.10 0.8177
443.20 0.8181
443.30 0.8185
443.40 0.8189
443.50 0.8192
443.60 0.8196
443.70 0.82
443.80 0.8204
443.90 0.8207
444.00 0.8211
444.10 0.8215
444.20 0.8219
444.30 0.8222
444.40 0.8226
444.50 0.823
444.60 0.8234
444.70 0.8237
444.80 0.8241
444.90 0.8245
445.00 0.8249
445.10 0.8252
445.20 0.8256
445.30 0.826
445.40 0.8263
445.50 0.8267
445.60 0.8271
445.70 0.8275
445.80 0.8278
445.90 0.8282
446.00 0.8286
446.10 0.8289
446.20 0.8293
446.30 0.8297
446.40 0.8301
446.50 0.8304
446.60 0.8308
446.70 0.8312
446.80 0.8315
446.90 0.8319
447.00 0.8323
447.10 0.8326
447.20 0.833
447.30 0.8334
447.40 0.8338
447.50 0.8341
447.60 0.8345
447.70 0.8349
447.80 0.8352
447.90 0.8356
448.00 0.836
448.10 0.8363
448.20 0.8367
448.30 0.8371
448.40 0.8374
448.50 0.8378
448.60 0.8382
448.70 0.8385
448.80 0.8389
448.90 0.8393
449.00 0.8396
449.10 0.84
449.20 0.8404
449.30 0.8407
449.40 0.8411
449.50 0.8415
449.60 0.8418
449.70 0.8422
449.80 0.8425
449.90 0.8429
450.00 0.8433
450.10 0.8436
450.20 0.844
450.30 0.8444
450.40 0.8447
450.50 0.8451
450.60 0.8454
450.70 0.8458
450.80 0.8462
450.90 0.8465
451.00 0.8469
451.10 0.8473
451.20 0.8476
451.30 0.848
451.40 0.8483
451.50 0.8487
451.60 0.8491
451.70 0.8494
451.80 0.8498
451.90 0.8502
452.00 0.8505
452.10 0.8509
452.20 0.8512
452.30 0.8516
452.40 0.8519
452.50 0.8523
452.60 0.8527
452.70 0.853
452.80 0.8534
452.90 0.8537
453.00 0.8541
453.10 0.8545
453.20 0.8548
453.30 0.8552
453.40 0.8555
453.50 0.8559
453.60 0.8562
453.70 0.8566
453.80 0.857
453.90 0.8573
454.00 0.8577
454.10 0.858
454.20 0.8584
454.30 0.8587
454.40 0.8591
454.50 0.8594
454.60 0.8598
454.70 0.8602
454.80 0.8605
454.90 0.8609
455.00 0.8612
455.10 0.8616
455.20 0.8619
455.30 0.8623
455.40 0.8626
455.50 0.863
455.60 0.8633
455.70 0.8637
455.80 0.864
455.90 0.8644
456.00 0.8648
456.10 0.8651
456.20 0.8655
456.30 0.8658
456.40 0.8662
456.50 0.8665
456.60 0.8669
456.70 0.8672
456.80 0.8676
456.90 0.8679
457.00 0.8683
457.10 0.8686
457.20 0.869
457.30 0.8693
457.40 0.8697
457.50 0.87
457.60 0.8704
457.70 0.8707
457.80 0.8711
457.90 0.8714
458.00 0.8718
458.10 0.8721
458.20 0.8725
458.30 0.8728
458.40 0.8732
458.50 0.8735
458.60 0.8738
458.70 0.8742
458.80 0.8745
458.90 0.8749
459.00 0.8752
459.10 0.8756
459.20 0.8759
459.30 0.8763
459.40 0.8766
459.50 0.877
459.60 0.8773
459.70 0.8776
459.80 0.878
459.90 0.8783
460.00 0.8787
460.10 0.879
460.20 0.8794
460.30 0.8797
460.40 0.8801
460.50 0.8804
460.60 0.8807
460.70 0.8811
460.80 0.8814
460.90 0.8818
461.00 0.8821
461.10 0.8825
461.20 0.8828
461.30 0.8831
461.40 0.8835
461.50 0.8838
461.60 0.8842
461.70 0.8845
461.80 0.8849
461.90 0.8852
462.00 0.8855
462.10 0.8859
462.20 0.8862
462.30 0.8866
462.40 0.8869
462.50 0.8872
462.60 0.8876
462.70 0.8879
462.80 0.8883
462.90 0.8886
463.00 0.8889
463.10 0.8893
463.20 0.8896
463.30 0.8899
463.40 0.8903
463.50 0.8906
463.60 0.891
463.70 0.8913
463.80 0.8916
463.90 0.892
464.00 0.8923
464.10 0.8926
464.20 0.893
464.30 0.8933
464.40 0.8936
464.50 0.894
464.60 0.8943
464.70 0.8947
464.80 0.895
464.90 0.8953
465.00 0.8957
465.10 0.896
465.20 0.8963
465.30 0.8967
465.40 0.897
465.50 0.8973
465.60 0.8977
465.70 0.898
465.80 0.8983
465.90 0.8987
466.00 0.899
466.10 0.8993
466.20 0.8997
466.30 0.9
466.40 0.9003
466.50 0.9006
466.60 0.901
466.70 0.9013
466.80 0.9016
466.90 0.902
467.00 0.9023
467.10 0.9026
467.20 0.903
467.30 0.9033
467.40 0.9036
467.50 0.9039
467.60 0.9043
467.70 0.9046
467.80 0.9049
467.90 0.9053
468.00 0.9056
468.10 0.9059
468.20 0.9062
468.30 0.9066
468.40 0.9069
468.50 0.9072
468.60 0.9076
468.70 0.9079
468.80 0.9082
468.90 0.9085
469.00 0.9089
469.10 0.9092
469.20 0.9095
469.30 0.9098
469.40 0.9102
469.50 0.9105
469.60 0.9108
469.70 0.9111
469.80 0.9115
469.90 0.9118
470.00 0.9121
470.10 0.9124
470.20 0.9128
470.30 0.9131
470.40 0.9134
470.50 0.9137
470.60 0.9141
470.70 0.9144
470.80 0.9147
470.90 0.915
471.00 0.9154
471.10 0.9157
471.20 0.916
471.30 0.9163
471.40 0.9166
471.50 0.917
471.60 0.9173
471.70 0.9176
471.80 0.9179
471.90 0.9182
472.00 0.9186
472.10 0.9189
472.20 0.9192
472.30 0.9195
472.40 0.9198
472.50 0.9202
472.60 0.9205
472.70 0.9208
472.80 0.9211
472.90 0.9214
473.00 0.9218
473.10 0.9221
473.20 0.9224
473.30 0.9227
473.40 0.923
473.50 0.9233
473.60 0.9237
473.70 0.924
473.80 0.9243
473.90 0.9246
474.00 0.9249
474.10 0.9252
474.20 0.9256
474.30 0.9259
474.40 0.9262
474.50 0.9265
474.60 0.9268
474.70 0.9271
474.80 0.9274
474.90 0.9278
475.00 0.9281
475.10 0.9284
475.20 0.9287
475.30 0.929
475.40 0.9293
475.50 0.9296
475.60 0.93
475.70 0.9303
475.80 0.9306
475.90 0.9309
476.00 0.9312
476.10 0.9315
476.20 0.9318
476.30 0.9321
476.40 0.9324
476.50 0.9328
476.60 0.9331
476.70 0.9334
476.80 0.9337
476.90 0.934
477.00 0.9343
477.10 0.9346
477.20 0.9349
477.30 0.9352
477.40 0.9355
477.50 0.9359
477.60 0.9362
477.70 0.9365
477.80 0.9368
477.90 0.9371
478.00 0.9374
478.10 0.9377
478.20 0.938
478.30 0.9383
478.40 0.9386
478.50 0.9389
478.60 0.9392
478.70 0.9395
478.80 0.9399
478.90 0.9402
479.00 0.9405
479.10 0.9408
479.20 0.9411
479.30 0.9414
479.40 0.9417
479.50 0.942
479.60 0.9423
479.70 0.9426
479.80 0.9429
479.90 0.9432
480.00 0.9435
480.10 0.9438
480.20 0.9441
480.30 0.9444
480.40 0.9447
480.50 0.945
480.60 0.9453
480.70 0.9456
480.80 0.9459
480.90 0.9462
481.00 0.9465
481.10 0.9468
481.20 0.9471
481.30 0.9474
481.40 0.9477
481.50 0.948
481.60 0.9483
481.70 0.9486
481.80 0.9489
481.90 0.9492
482.00 0.9495
482.10 0.9498
482.20 0.9501
482.30 0.9504
482.40 0.9507
482.50 0.951
482.60 0.9513
482.70 0.9516
482.80 0.9519
482.90 0.9522
483.00 0.9525
483.10 0.9528
483.20 0.9531
483.30 0.9534
483.40 0.9537
483.50 0.954
483.60 0.9543
483.70 0.9546
483.80 0.9549
483.90 0.9552
484.00 0.9555
484.10 0.9558
484.20 0.9561
484.30 0.9564
484.40 0.9566
484.50 0.9569
484.60 0.9572
484.70 0.9575
484.80 0.9578
484.90 0.9581
485.00 0.9584
485.10 0.9587
485.20 0.959
485.30 0.9593
485.40 0.9595
485.50 0.9598
485.60 0.9601
485.70 0.9604
485.80 0.9606
485.90 0.9608
486.00 0.9612
486.10 0.9614
486.20 0.9617
486.30 0.962
486.40 0.9623
486.50 0.9626
486.60 0.963
486.70 0.9633
486.80 0.9636
486.90 0.9639
487.00 0.9642
487.10 0.9645
487.20 0.9648
487.30 0.9651
487.40 0.9653
487.50 0.9656
487.60 0.9659
487.70 0.9662
487.80 0.9665
487.90 0.9668
488.00 0.9671
488.10 0.9674
488.20 0.9676
488.30 0.9679
488.40 0.9682
488.50 0.9685
488.60 0.9688
488.70 0.9691
488.80 0.9694
488.90 0.9696
489.00 0.9699
489.10 0.9702
489.20 0.9705
489.30 0.9708
489.40 0.9711
489.50 0.9714
489.60 0.9717
489.70 0.972
489.80 0.9723
489.90 0.9726
490.00 0.9728
490.10 0.9731
490.20 0.9734
490.30 0.9737
490.40 0.974
490.50 0.9743
490.60 0.9745
490.70 0.9748
490.80 0.9751
490.90 0.9754
491.00 0.9757
491.10 0.9759
491.20 0.9762
491.30 0.9765
491.40 0.9768
491.50 0.977
491.60 0.9773
491.70 0.9776
491.80 0.9779
491.90 0.9782
492.00 0.9784
492.10 0.9787
492.20 0.979
492.30 0.9793
492.40 0.9795
492.50 0.9798
492.60 0.9801
492.70 0.9803
492.80 0.9806
492.90 0.9809
493.00 0.9812
493.10 0.9814
493.20 0.9817
493.30 0.982
493.40 0.9823
493.50 0.9825
493.60 0.9828
493.70 0.9831
493.80 0.9834
493.90 0.9837
494.00 0.9839
494.10 0.9842
494.20 0.9845
494.30 0.9848
494.40 0.985
494.50 0.9853
494.60 0.9856
494.70 0.9859
494.80 0.9862
494.90 0.9864
495.00 0.9867
495.10 0.987
495.20 0.9872
495.30 0.9875
495.40 0.9878
495.50 0.988
495.60 0.9883
495.70 0.9886
495.80 0.9888
495.90 0.9891
496.00 0.9894
496.10 0.9896
496.20 0.9899
496.30 0.9902
496.40 0.9904
496.50 0.9907
496.60 0.991
496.70 0.9912
496.80 0.9915
496.90 0.9918
497.00 0.9921
497.10 0.9923
497.20 0.9926
497.30 0.9929
497.40 0.9931
497.50 0.9934
497.60 0.9937
497.70 0.9939
497.80 0.9942
497.90 0.9945
498.00 0.9947
498.10 0.995
498.20 0.9953
498.30 0.9955
498.40 0.9958
498.50 0.9961
498.60 0.9963
498.70 0.9966
498.80 0.9969
498.90 0.9971
499.00 0.9974
499.10 0.9976
499.20 0.9979
499.30 0.9982
499.40 0.9984
499.50 0.9987
499.60 0.999
499.70 0.9992
499.80 0.9995
499.90 0.9997
500.00 1
500.10 1
500.20 1.001
500.30 1.001
500.40 1.001
500.50 1.001
500.60 1.002
500.70 1.002
500.80 1.002
500.90 1.002
501.00 1.003
501.10 1.003
501.20 1.003
501.30 1.003
501.40 1.004
501.50 1.004
501.60 1.004
501.70 1.004
501.80 1.005
501.90 1.005
502.00 1.005
502.10 1.005
502.20 1.006
502.30 1.006
502.40 1.006
502.50 1.006
502.60 1.007
502.70 1.007
502.80 1.007
502.90 1.008
503.00 1.008
503.10 1.008
503.20 1.008
503.30 1.009
503.40 1.009
503.50 1.009
503.60 1.009
503.70 1.01
503.80 1.01
503.90 1.01
504.00 1.01
504.10 1.011
504.20 1.011
504.30 1.011
504.40 1.011
504.50 1.012
504.60 1.012
504.70 1.012
504.80 1.012
504.90 1.013
505.00 1.013
505.10 1.013
505.20 1.013
505.30 1.014
505.40 1.014
505.50 1.014
505.60 1.014
505.70 1.015
505.80 1.015
505.90 1.015
506.00 1.015
506.10 1.016
506.20 1.016
506.30 1.016
506.40 1.016
506.50 1.017
506.60 1.017
506.70 1.017
506.80 1.017
506.90 1.017
507.00 1.018
507.10 1.018
507.20 1.018
507.30 1.018
507.40 1.019
507.50 1.019
507.60 1.019
507.70 1.019
507.80 1.02
507.90 1.02
508.00 1.02
508.10 1.02
508.20 1.021
508.30 1.021
508.40 1.021
508.50 1.021
508.60 1.022
508.70 1.022
508.80 1.022
508.90 1.022
509.00 1.023
509.10 1.023
509.20 1.023
509.30 1.023
509.40 1.024
509.50 1.024
509.60 1.024
509.70 1.024
509.80 1.025
509.90 1.025
510.00 1.025
510.10 1.025
510.20 1.026
510.30 1.026
510.40 1.026
510.50 1.026
510.60 1.027
510.70 1.027
510.80 1.027
510.90 1.027
511.00 1.027
511.10 1.028
511.20 1.028
511.30 1.028
511.40 1.028
511.50 1.029
511.60 1.029
511.70 1.029
511.80 1.029
511.90 1.03
512.00 1.03
512.10 1.03
512.20 1.03
512.30 1.03
512.40 1.031
512.50 1.031
512.60 1.031
512.70 1.031
512.80 1.032
512.90 1.032
513.00 1.032
513.10 1.032
513.20 1.033
513.30 1.033
513.40 1.033
513.50 1.033
513.60 1.034
513.70 1.034
513.80 1.034
513.90 1.034
514.00 1.034
514.10 1.035
514.20 1.035
514.30 1.035
514.40 1.035
514.50 1.036
514.60 1.036
514.70 1.036
514.80 1.036
514.90 1.037
515.00 1.037
515.10 1.037
515.20 1.037
515.30 1.037
515.40 1.038
515.50 1.038
515.60 1.038
515.70 1.038
515.80 1.039
515.90 1.039
516.00 1.039
516.10 1.039
516.20 1.04
516.30 1.04
516.40 1.04
516.50 1.04
516.60 1.04
516.70 1.041
516.80 1.041
516.90 1.041
517.00 1.041
517.10 1.042
517.20 1.042
517.30 1.042
517.40 1.042
517.50 1.042
517.60 1.043
517.70 1.043
517.80 1.043
517.90 1.043
518.00 1.044
518.10 1.044
518.20 1.044
518.30 1.044
518.40 1.044
518.50 1.045
518.60 1.045
518.70 1.045
518.80 1.045
518.90 1.046
519.00 1.046
519.10 1.046
519.20 1.046
519.30 1.046
519.40 1.047
519.50 1.047
519.60 1.047
519.70 1.047
519.80 1.048
519.90 1.048
520.00 1.048
520.10 1.048
520.20 1.048
520.30 1.049
520.40 1.049
520.50 1.049
520.60 1.049
520.70 1.05
520.80 1.05
520.90 1.05
521.00 1.05
521.10 1.05
521.20 1.051
521.30 1.051
521.40 1.051
521.50 1.051
521.60 1.051
521.70 1.052
521.80 1.052
521.90 1.052
522.00 1.052
522.10 1.052
522.20 1.053
522.30 1.053
522.40 1.053
522.50 1.053
522.60 1.054
522.70 1.054
522.80 1.054
522.90 1.054
523.00 1.054
523.10 1.055
523.20 1.055
523.30 1.055
523.40 1.055
523.50 1.055
523.60 1.056
523.70 1.056
523.80 1.056
523.90 1.056
524.00 1.057
524.10 1.057
524.20 1.057
524.30 1.057
524.40 1.057
524.50 1.058
524.60 1.058
524.70 1.058
524.80 1.058
524.90 1.058
525.00 1.059
525.10 1.059
525.20 1.059
525.30 1.059
525.40 1.059
525.50 1.06
525.60 1.06
525.70 1.06
525.80 1.06
525.90 1.061
526.00 1.061
526.10 1.061
526.20 1.061
526.30 1.061
526.40 1.062
526.50 1.062
526.60 1.062
526.70 1.062
526.80 1.062
526.90 1.063
527.00 1.063
527.10 1.063
527.20 1.063
527.30 1.063
527.40 1.064
527.50 1.064
527.60 1.064
527.70 1.064
527.80 1.064
527.90 1.065
528.00 1.065
528.10 1.065
528.20 1.065
528.30 1.065
528.40 1.066
528.50 1.066
528.60 1.066
528.70 1.066
528.80 1.066
528.90 1.067
529.00 1.067
529.10 1.067
529.20 1.067
529.30 1.067
529.40 1.068
529.50 1.068
529.60 1.068
529.70 1.068
529.80 1.068
529.90 1.069
530.00 1.069
530.10 1.069
530.20 1.069
530.30 1.069
530.40 1.07
530.50 1.07
530.60 1.07
530.70 1.07
530.80 1.07
530.90 1.071
531.00 1.071
531.10 1.071
531.20 1.071
531.30 1.071
531.40 1.072
531.50 1.072
531.60 1.072
531.70 1.072
531.80 1.072
531.90 1.073
532.00 1.073
532.10 1.073
532.20 1.073
532.30 1.073
532.40 1.073
532.50 1.074
532.60 1.074
532.70 1.074
532.80 1.074
532.90 1.074
533.00 1.075
533.10 1.075
533.20 1.075
533.30 1.075
533.40 1.075
533.50 1.076
533.60 1.076
533.70 1.076
533.80 1.076
533.90 1.076
534.00 1.077
534.10 1.077
534.20 1.077
534.30 1.077
534.40 1.077
534.50 1.078
534.60 1.078
534.70 1.078
534.80 1.078
534.90 1.078
535.00 1.078
535.10 1.079
535.20 1.079
535.30 1.079
535.40 1.079
535.50 1.079
535.60 1.08
535.70 1.08
535.80 1.08
535.90 1.08
536.00 1.08
536.10 1.081
536.20 1.081
536.30 1.081
536.40 1.081
536.50 1.081
536.60 1.081
536.70 1.082
536.80 1.082
536.90 1.082
537.00 1.082
537.10 1.082
537.20 1.083
537.30 1.083
537.40 1.083
537.50 1.083
537.60 1.083
537.70 1.083
537.80 1.084
537.90 1.084
538.00 1.084
538.10 1.084
538.20 1.084
538.30 1.085
538.40 1.085
538.50 1.085
538.60 1.085
538.70 1.085
538.80 1.085
538.90 1.086
539.00 1.086
539.10 1.086
539.20 1.086
539.30 1.086
539.40 1.087
539.50 1.087
539.60 1.087
539.70 1.087
539.80 1.087
539.90 1.087
540.00 1.088
540.10 1.088
540.20 1.088
540.30 1.088
540.40 1.088
540.50 1.088
540.60 1.089
540.70 1.089
540.80 1.089
540.90 1.089
541.00 1.089
541.10 1.09
541.20 1.09
541.30 1.09
541.40 1.09
541.50 1.09
541.60 1.09
541.70 1.091
541.80 1.091
541.90 1.091
542.00 1.091
542.10 1.091
542.20 1.091
542.30 1.092
542.40 1.092
542.50 1.092
542.60 1.092
542.70 1.092
542.80 1.092
542.90 1.093
543.00 1.093
543.10 1.093
543.20 1.093
543.30 1.093
543.40 1.093
543.50 1.094
543.60 1.094
543.70 1.094
543.80 1.094
543.90 1.094
544.00 1.095
544.10 1.095
544.20 1.095
544.30 1.095
544.40 1.095
544.50 1.095
544.60 1.096
544.70 1.096
544.80 1.096
544.90 1.096
545.00 1.096
545.10 1.096
545.20 1.097
545.30 1.097
545.40 1.097
545.50 1.097
545.60 1.097
545.70 1.097
545.80 1.098
545.90 1.098
546.00 1.098
546.10 1.098
546.20 1.098
546.30 1.098
546.40 1.099
546.50 1.099
546.60 1.099
546.70 1.099
546.80 1.099
546.90 1.099
547.00 1.1
547.10 1.1
547.20 1.1
547.30 1.1
547.40 1.1
547.50 1.1
547.60 1.101
547.70 1.101
547.80 1.101
547.90 1.101
548.00 1.101
548.10 1.101
548.20 1.102
548.30 1.102
548.40 1.102
548.50 1.102
548.60 1.102
548.70 1.102
548.80 1.102
548.90 1.103
549.00 1.103
549.10 1.103
549.20 1.103
549.30 1.103
549.40 1.103
549.50 1.104
549.60 1.104
549.70 1.104
549.80 1.104
549.90 1.104
550.00 1.104
550.10 1.105
550.20 1.105
550.30 1.105
550.40 1.105
550.50 1.105
550.60 1.105
550.70 1.105
550.80 1.106
550.90 1.106
551.00 1.106
551.10 1.106
551.20 1.106
551.30 1.106
551.40 1.107
551.50 1.107
551.60 1.107
551.70 1.107
551.80 1.107
551.90 1.107
552.00 1.107
552.10 1.108
552.20 1.108
552.30 1.108
552.40 1.108
552.50 1.108
552.60 1.108
552.70 1.109
552.80 1.109
552.90 1.109
553.00 1.109
553.10 1.109
553.20 1.109
553.30 1.109
553.40 1.11
553.50 1.11
553.60 1.11
553.70 1.11
553.80 1.11
553.90 1.11
554.00 1.11
554.10 1.111
554.20 1.111
554.30 1.111
554.40 1.111
554.50 1.111
554.60 1.111
554.70 1.112
554.80 1.112
554.90 1.112
555.00 1.112
555.10 1.112
555.20 1.112
555.30 1.112
555.40 1.113
555.50 1.113
555.60 1.113
555.70 1.113
555.80 1.113
555.90 1.113
556.00 1.113
556.10 1.114
556.20 1.114
556.30 1.114
556.40 1.114
556.50 1.114
556.60 1.114
556.70 1.115
556.80 1.115
556.90 1.115
557.00 1.115
557.10 1.115
557.20 1.115
557.30 1.115
557.40 1.116
557.50 1.116
557.60 1.116
557.70 1.116
557.80 1.116
557.90 1.116
558.00 1.116
558.10 1.116
558.20 1.117
558.30 1.117
558.40 1.117
558.50 1.117
558.60 1.117
558.70 1.117
558.80 1.117
558.90 1.118
559.00 1.118
559.10 1.118
559.20 1.118
559.30 1.118
559.40 1.118
559.50 1.118
559.60 1.119
559.70 1.119
559.80 1.119
559.90 1.119
560.00 1.119
560.10 1.119
560.20 1.119
560.30 1.12
560.40 1.12
560.50 1.12
560.60 1.12
560.70 1.12
560.80 1.12
560.90 1.12
561.00 1.121
561.10 1.121
561.20 1.121
561.30 1.121
561.40 1.121
561.50 1.121
561.60 1.121
561.70 1.121
561.80 1.122
561.90 1.122
562.00 1.122
562.10 1.122
562.20 1.122
562.30 1.122
562.40 1.122
562.50 1.123
562.60 1.123
562.70 1.123
562.80 1.123
562.90 1.123
563.00 1.123
563.10 1.123
563.20 1.123
563.30 1.124
563.40 1.124
563.50 1.124
563.60 1.124
563.70 1.124
563.80 1.124
563.90 1.124
564.00 1.125
564.10 1.125
564.20 1.125
564.30 1.125
564.40 1.125
564.50 1.125
564.60 1.125
564.70 1.125
564.80 1.126
564.90 1.126
565.00 1.126
565.10 1.126
565.20 1.126
565.30 1.126
565.40 1.126
565.50 1.126
565.60 1.127
565.70 1.127
565.80 1.127
565.90 1.127
566.00 1.127
566.10 1.127
566.20 1.127
566.30 1.128
566.40 1.128
566.50 1.128
566.60 1.128
566.70 1.128
566.80 1.128
566.90 1.128
567.00 1.128
567.10 1.129
567.20 1.129
567.30 1.129
567.40 1.129
567.50 1.129
567.60 1.129
567.70 1.129
567.80 1.129
567.90 1.129
568.00 1.13
568.10 1.13
568.20 1.13
568.30 1.13
568.40 1.13
568.50 1.13
568.60 1.13
568.70 1.131
568.80 1.131
568.90 1.131
569.00 1.131
569.10 1.131
569.20 1.131
569.30 1.131
569.40 1.131
569.50 1.131
569.60 1.132
569.70 1.132
569.80 1.132
569.90 1.132
570.00 1.132
570.10 1.132
570.20 1.132
570.30 1.132
570.40 1.133
570.50 1.133
570.60 1.133
570.70 1.133
570.80 1.133
570.90 1.133
571.00 1.133
571.10 1.133
571.20 1.133
571.30 1.134
571.40 1.134
571.50 1.134
571.60 1.134
571.70 1.134
571.80 1.134
571.90 1.134
572.00 1.134
572.10 1.135
572.20 1.135
572.30 1.135
572.40 1.135
572.50 1.135
572.60 1.135
572.70 1.135
572.80 1.135
572.90 1.135
573.00 1.136
573.10 1.136
573.20 1.136
573.30 1.136
573.40 1.136
573.50 1.136
573.60 1.136
573.70 1.136
573.80 1.136
573.90 1.137
574.00 1.137
574.10 1.137
574.20 1.137
574.30 1.137
574.40 1.137
574.50 1.137
574.60 1.137
574.70 1.138
574.80 1.138
574.90 1.138
575.00 1.138
575.10 1.138
575.20 1.138
575.30 1.138
575.40 1.138
575.50 1.138
575.60 1.139
575.70 1.139
575.80 1.139
575.90 1.139
576.00 1.139
576.10 1.139
576.20 1.139
576.30 1.139
576.40 1.139
576.50 1.139
576.60 1.14
576.70 1.14
576.80 1.14
576.90 1.14
577.00 1.14
577.10 1.14
577.20 1.14
577.30 1.14
577.40 1.14
577.50 1.141
577.60 1.141
577.70 1.141
577.80 1.141
577.90 1.141
578.00 1.141
578.10 1.141
578.20 1.141
578.30 1.141
578.40 1.141
578.50 1.142
578.60 1.142
578.70 1.142
578.80 1.142
578.90 1.142
579.00 1.142
579.10 1.142
579.20 1.142
579.30 1.142
579.40 1.143
579.50 1.143
579.60 1.143
579.70 1.143
579.80 1.143
579.90 1.143
580.00 1.143
580.10 1.143
580.20 1.143
580.30 1.143
580.40 1.144
580.50 1.144
580.60 1.144
580.70 1.144
580.80 1.144
580.90 1.144
581.00 1.144
581.10 1.144
581.20 1.144
581.30 1.144
581.40 1.145
581.50 1.145
581.60 1.145
581.70 1.145
581.80 1.145
581.90 1.145
582.00 1.145
582.10 1.145
582.20 1.145
582.30 1.145
582.40 1.146
582.50 1.146
582.60 1.146
582.70 1.146
582.80 1.146
582.90 1.146
583.00 1.146
583.10 1.146
583.20 1.146
583.30 1.146
583.40 1.146
583.50 1.147
583.60 1.147
583.70 1.147
583.80 1.147
583.90 1.147
584.00 1.147
584.10 1.147
584.20 1.147
584.30 1.147
584.40 1.147
584.50 1.148
584.60 1.148
584.70 1.148
584.80 1.148
584.90 1.148
585.00 1.148
585.10 1.148
585.20 1.148
585.30 1.148
585.40 1.148
585.50 1.148
585.60 1.149
585.70 1.149
585.80 1.149
585.90 1.149
586.00 1.149
586.10 1.149
586.20 1.149
586.30 1.149
586.40 1.149
586.50 1.149
586.60 1.149
586.70 1.15
586.80 1.15
586.90 1.15
587.00 1.15
587.10 1.15
587.20 1.15
587.30 1.15
587.40 1.15
587.50 1.15
587.60 1.15
587.70 1.15
587.80 1.151
587.90 1.151
588.00 1.151
588.10 1.151
588.20 1.151
588.30 1.151
588.40 1.151
588.50 1.151
588.60 1.151
588.70 1.151
588.80 1.151
588.90 1.151
589.00 1.152
589.10 1.152
589.20 1.152
589.30 1.152
589.40 1.152
589.50 1.152
589.60 1.152
589.70 1.152
589.80 1.152
589.90 1.152
590.00 1.152
590.10 1.153
590.20 1.153
590.30 1.153
590.40 1.153
590.50 1.153
590.60 1.153
590.70 1.153
590.80 1.153
590.90 1.153
591.00 1.153
591.10 1.153
591.20 1.153
591.30 1.154
591.40 1.154
591.50 1.154
591.60 1.154
591.70 1.154
591.80 1.154
591.90 1.154
592.00 1.154
592.10 1.154
592.20 1.154
592.30 1.154
592.40 1.154
592.50 1.155
592.60 1.155
592.70 1.155
592.80 1.155
592.90 1.155
593.00 1.155
593.10 1.155
593.20 1.155
593.30 1.155
593.40 1.155
593.50 1.155
593.60 1.155
593.70 1.155
593.80 1.156
593.90 1.156
594.00 1.156
594.10 1.156
594.20 1.156
594.30 1.156
594.40 1.156
594.50 1.156
594.60 1.156
594.70 1.156
594.80 1.156
594.90 1.156
595.00 1.156
595.10 1.157
595.20 1.157
595.30 1.157
595.40 1.157
595.50 1.157
595.60 1.157
595.70 1.157
595.80 1.157
595.90 1.157
596.00 1.157
596.10 1.157
596.20 1.157
596.30 1.157
596.40 1.158
596.50 1.158
596.60 1.158
596.70 1.158
596.80 1.158
596.90 1.158
597.00 1.158
597.10 1.158
597.20 1.158
597.30 1.158
597.40 1.158
597.50 1.158
597.60 1.158
597.70 1.158
597.80 1.159
597.90 1.159
598.00 1.159
598.10 1.159
598.20 1.159
598.30 1.159
598.40 1.159
598.50 1.159
598.60 1.159
598.70 1.159
598.80 1.159
598.90 1.159
599.00 1.159
599.10 1.159
599.20 1.16
599.30 1.16
599.40 1.16
599.50 1.16
599.60 1.16
599.70 1.16
599.80 1.16
599.90 1.16
600.00 1.16
600.10 1.16
600.20 1.16
600.30 1.16
600.40 1.16
600.50 1.16
600.60 1.16
600.70 1.161
600.80 1.161
600.90 1.161
601.00 1.161
601.10 1.161
601.20 1.161
601.30 1.161
601.40 1.161
601.50 1.161
601.60 1.161
601.70 1.161
601.80 1.161
601.90 1.161
602.00 1.161
602.10 1.161
602.20 1.162
602.30 1.162
602.40 1.162
602.50 1.162
602.60 1.162
602.70 1.162
602.80 1.162
602.90 1.162
603.00 1.162
603.10 1.162
603.20 1.162
603.30 1.162
603.40 1.162
603.50 1.162
603.60 1.162
603.70 1.162
603.80 1.163
603.90 1.163
604.00 1.163
604.10 1.163
604.20 1.163
604.30 1.163
604.40 1.163
604.50 1.163
604.60 1.163
604.70 1.163
604.80 1.163
604.90 1.163
605.00 1.163
605.10 1.163
605.20 1.163
605.30 1.163
605.40 1.164
605.50 1.164
605.60 1.164
605.70 1.164
605.80 1.164
605.90 1.164
606.00 1.164
606.10 1.164
606.20 1.164
606.30 1.164
606.40 1.164
606.50 1.164
606.60 1.164
606.70 1.164
606.80 1.164
606.90 1.164
607.00 1.164
607.10 1.165
607.20 1.165
607.30 1.165
607.40 1.165
607.50 1.165
607.60 1.165
607.70 1.165
607.80 1.165
607.90 1.165
608.00 1.165
608.10 1.165
608.20 1.165
608.30 1.165
608.40 1.165
608.50 1.165
608.60 1.165
608.70 1.165
608.80 1.165
608.90 1.165
609.00 1.166
609.10 1.166
609.20 1.166
609.30 1.166
609.40 1.166
609.50 1.166
609.60 1.166
609.70 1.166
609.80 1.166
609.90 1.166
610.00 1.166
610.10 1.166
610.20 1.166
610.30 1.166
610.40 1.166
610.50 1.166
610.60 1.166
610.70 1.166
610.80 1.166
610.90 1.167
611.00 1.167
611.10 1.167
611.20 1.167
611.30 1.167
611.40 1.167
611.50 1.167
611.60 1.167
611.70 1.167
611.80 1.167
611.90 1.167
612.00 1.167
612.10 1.167
612.20 1.167
612.30 1.167
612.40 1.167
612.50 1.167
612.60 1.167
612.70 1.167
612.80 1.167
612.90 1.167
613.00 1.168
613.10 1.168
613.20 1.168
613.30 1.168
613.40 1.168
613.50 1.168
613.60 1.168
613.70 1.168
613.80 1.168
613.90 1.168
614.00 1.168
614.10 1.168
614.20 1.168
614.30 1.168
614.40 1.168
614.50 1.168
614.60 1.168
614.70 1.168
614.80 1.168
614.90 1.168
615.00 1.169
615.10 1.169
615.20 1.169
615.30 1.169
615.40 1.169
615.50 1.169
615.60 1.169
615.70 1.169
615.80 1.169
615.90 1.169
616.00 1.169
616.10 1.169
616.20 1.169
616.30 1.169
616.40 1.169
616.50 1.169
616.60 1.169
616.70 1.169
616.80 1.169
616.90 1.169
617.00 1.169
617.10 1.169
617.20 1.169
617.30 1.17
617.40 1.17
617.50 1.17
617.60 1.17
617.70 1.17
617.80 1.17
617.90 1.17
618.00 1.17
618.10 1.17
618.20 1.17
618.30 1.17
618.40 1.17
618.50 1.17
618.60 1.17
618.70 1.17
618.80 1.17
618.90 1.17
619.00 1.17
619.10 1.17
619.20 1.17
619.30 1.17
619.40 1.17
619.50 1.17
619.60 1.17
619.70 1.17
619.80 1.17
619.90 1.17
620.00 1.171
620.10 1.171
620.20 1.171
620.30 1.171
620.40 1.171
620.50 1.171
620.60 1.171
620.70 1.171
620.80 1.171
620.90 1.171
621.00 1.171
621.10 1.171
621.20 1.171
621.30 1.171
621.40 1.171
621.50 1.171
621.60 1.171
621.70 1.171
621.80 1.171
621.90 1.171
622.00 1.171
622.10 1.171
622.20 1.171
622.30 1.171
622.40 1.171
622.50 1.171
622.60 1.171
622.70 1.172
622.80 1.172
622.90 1.172
623.00 1.172
623.10 1.172
623.20 1.172
623.30 1.172
623.40 1.172
623.50 1.172
623.60 1.172
623.70 1.172
623.80 1.172
623.90 1.172
624.00 1.172
624.10 1.172
624.20 1.172
624.30 1.172
624.40 1.172
624.50 1.172
624.60 1.172
624.70 1.172
624.80 1.172
624.90 1.172
625.00 1.172
625.10 1.172
625.20 1.172
625.30 1.172
625.40 1.172
625.50 1.172
625.60 1.172
625.70 1.172
625.80 1.172
625.90 1.173
626.00 1.173
626.10 1.173
626.20 1.173
626.30 1.173
626.40 1.173
626.50 1.173
626.60 1.173
626.70 1.173
626.80 1.173
626.90 1.173
627.00 1.173
627.10 1.173
627.20 1.173
627.30 1.173
627.40 1.173
627.50 1.173
627.60 1.173
627.70 1.173
627.80 1.173
627.90 1.173
628.00 1.173
628.10 1.173
628.20 1.173
628.30 1.173
628.40 1.173
628.50 1.173
628.60 1.173
628.70 1.173
628.80 1.173
628.90 1.173
629.00 1.173
629.10 1.173
629.20 1.173
629.30 1.173
629.40 1.173
629.50 1.173
629.60 1.173
629.70 1.173
629.80 1.174
629.90 1.174
630.00 1.174
630.10 1.174
630.20 1.174
630.30 1.174
630.40 1.174
630.50 1.174
630.60 1.174
630.70 1.174
630.80 1.174
630.90 1.174
631.00 1.174
631.10 1.174
631.20 1.174
631.30 1.174
631.40 1.174
631.50 1.174
631.60 1.174
631.70 1.174
631.80 1.174
631.90 1.174
632.00 1.174
632.10 1.174
632.20 1.174
632.30 1.174
632.40 1.174
632.50 1.174
632.60 1.174
632.70 1.174
632.80 1.174
632.90 1.174
633.00 1.174
633.10 1.174
633.20 1.174
633.30 1.174
633.40 1.174
633.50 1.174
633.60 1.174
633.70 1.174
633.80 1.174
633.90 1.174
634.00 1.174
634.10 1.174
634.20 1.174
634.30 1.174
634.40 1.174
634.50 1.174
634.60 1.174
634.70 1.174
634.80 1.175
634.90 1.175
635.00 1.175
635.10 1.175
635.20 1.175
635.30 1.175
635.40 1.175
635.50 1.175
635.60 1.175
635.70 1.175
635.80 1.175
635.90 1.175
636.00 1.175
636.10 1.175
636.20 1.175
636.30 1.175
636.40 1.175
636.50 1.175
636.60 1.175
636.70 1.175
636.80 1.175
636.90 1.175
637.00 1.175
637.10 1.175
637.20 1.175
637.30 1.175
637.40 1.175
637.50 1.175
637.60 1.175
637.70 1.175
637.80 1.175
637.90 1.175
638.00 1.175
638.10 1.175
638.20 1.175
638.30 1.175
638.40 1.175
638.50 1.175
638.60 1.175
638.70 1.175
638.80 1.175
638.90 1.175
639.00 1.175
639.10 1.175
639.20 1.175
639.30 1.175
639.40 1.175
639.50 1.175
639.60 1.175
639.70 1.175
639.80 1.175
639.90 1.175
640.00 1.175
640.10 1.175
640.20 1.175
640.30 1.175
640.40 1.175
640.50 1.175
640.60 1.175
640.70 1.175
640.80 1.175
640.90 1.175
641.00 1.175
641.10 1.175
641.20 1.175
641.30 1.175
641.40 1.175
641.50 1.175
641.60 1.175
641.70 1.175
641.80 1.175
641.90 1.175
642.00 1.175
642.10 1.175
642.20 1.175
642.30 1.175
642.40 1.175
642.50 1.175
642.60 1.175
642.70 1.175
642.80 1.175
642.90 1.175
643.00 1.175
643.10 1.175
643.20 1.175
643.30 1.175
643.40 1.175
643.50 1.175
643.60 1.175
643.70 1.175
643.80 1.175
643.90 1.175
644.00 1.175
644.10 1.176
644.20 1.176
644.30 1.176
644.40 1.176
644.50 1.176
644.60 1.176
644.70 1.176
644.80 1.176
644.90 1.176
645.00 1.176
645.10 1.176
645.20 1.176
645.30 1.176
645.40 1.176
645.50 1.176
645.60 1.176
645.70 1.176
645.80 1.176
645.90 1.176
646.00 1.176
646.10 1.176
646.20 1.176
646.30 1.176
646.40 1.176
646.50 1.176
646.60 1.176
646.70 1.176
646.80 1.176
646.90 1.176
647.00 1.176
647.10 1.176
647.20 1.176
647.30 1.176
647.40 1.176
647.50 1.176
647.60 1.176
647.70 1.176
647.80 1.176
647.90 1.176
648.00 1.176
648.10 1.176
648.20 1.176
648.30 1.176
648.40 1.176
648.50 1.176
648.60 1.176
648.70 1.176
648.80 1.176
648.90 1.176
649.00 1.176
649.10 1.176
649.20 1.176
649.30 1.176
649.40 1.176
649.50 1.176
649.60 1.176
649.70 1.176
649.80 1.176
649.90 1.176
650.00 1.176
650.10 1.176
650.20 1.176
650.30 1.176
650.40 1.176
650.50 1.176
650.60 1.176
650.70 1.176
650.80 1.176
650.90 1.176
651.00 1.176
651.10 1.175
651.20 1.175
651.30 1.175
651.40 1.175
651.50 1.175
651.60 1.175
651.70 1.175
651.80 1.175
651.90 1.175
652.00 1.175
652.10 1.175
652.20 1.175
652.30 1.175
652.40 1.175
652.50 1.175
652.60 1.175
652.70 1.175
652.80 1.175
652.90 1.175
653.00 1.175
653.10 1.175
653.20 1.175
653.30 1.175
653.40 1.175
653.50 1.175
653.60 1.175
653.70 1.175
653.80 1.175
653.90 1.175
654.00 1.175
654.10 1.175
654.20 1.175
654.30 1.175
654.40 1.175
654.50 1.175
654.60 1.175
654.70 1.175
654.80 1.175
654.90 1.175
655.00 1.175
655.10 1.175
655.20 1.175
655.30 1.175
655.40 1.175
655.50 1.175
655.60 1.175
655.70 1.175
655.80 1.174
655.90 1.174
656.00 1.174
656.10 1.174
656.20 1.174
656.30 1.174
656.40 1.174
656.50 1.174
656.60 1.174
656.70 1.174
656.80 1.174
656.90 1.174
657.00 1.175
657.10 1.175
657.20 1.175
657.30 1.175
657.40 1.175
657.50 1.175
657.60 1.175
657.70 1.175
657.80 1.175
657.90 1.175
658.00 1.175
658.10 1.175
658.20 1.175
658.30 1.175
658.40 1.175
658.50 1.175
658.60 1.175
658.70 1.175
658.80 1.175
658.90 1.175
659.00 1.175
659.10 1.175
659.20 1.175
659.30 1.175
659.40 1.175
659.50 1.175
659.60 1.175
659.70 1.175
659.80 1.175
659.90 1.175
660.00 1.175
660.10 1.175
660.20 1.175
660.30 1.175
660.40 1.175
660.50 1.175
660.60 1.175
660.70 1.175
660.80 1.174
660.90 1.174
661.00 1.174
661.10 1.174
661.20 1.174
661.30 1.174
661.40 1.174
661.50 1.174
661.60 1.174
661.70 1.174
661.80 1.174
661.90 1.174
662.00 1.174
662.10 1.174
662.20 1.174
662.30 1.174
662.40 1.174
662.50 1.174
662.60 1.174
662.70 1.174
662.80 1.174
662.90 1.174
663.00 1.174
663.10 1.174
663.20 1.174
663.30 1.174
663.40 1.174
663.50 1.174
663.60 1.174
663.70 1.174
663.80 1.174
663.90 1.174
664.00 1.174
664.10 1.174
664.20 1.174
664.30 1.174
664.40 1.174
664.50 1.174
664.60 1.174
664.70 1.174
664.80 1.174
664.90 1.174
665.00 1.174
665.10 1.174
665.20 1.174
665.30 1.174
665.40 1.174
665.50 1.174
665.60 1.174
665.70 1.174
665.80 1.174
665.90 1.174
666.00 1.174
666.10 1.174
666.20 1.174
666.30 1.173
666.40 1.173
666.50 1.173
666.60 1.173
666.70 1.173
666.80 1.173
666.90 1.173
667.00 1.173
667.10 1.173
667.20 1.173
667.30 1.173
667.40 1.173
667.50 1.173
667.60 1.173
667.70 1.173
667.80 1.173
667.90 1.173
668.00 1.173
668.10 1.173
668.20 1.173
668.30 1.173
668.40 1.173
668.50 1.173
668.60 1.173
668.70 1.173
668.80 1.173
668.90 1.173
669.00 1.173
669.10 1.173
669.20 1.173
669.30 1.173
669.40 1.173
669.50 1.173
669.60 1.173
669.70 1.173
669.80 1.173
669.90 1.173
670.00 1.173
670.10 1.173
670.20 1.173
670.30 1.173
670.40 1.172
670.50 1.172
670.60 1.172
670.70 1.172
670.80 1.172
670.90 1.172
671.00 1.172
671.10 1.172
671.20 1.172
671.30 1.172
671.40 1.172
671.50 1.172
671.60 1.172
671.70 1.172
671.80 1.172
671.90 1.172
672.00 1.172
672.10 1.172
672.20 1.172
672.30 1.172
672.40 1.172
672.50 1.172
672.60 1.172
672.70 1.172
672.80 1.172
672.90 1.172
673.00 1.172
673.10 1.172
673.20 1.172
673.30 1.172
673.40 1.172
673.50 1.172
673.60 1.172
673.70 1.172
673.80 1.172
673.90 1.171
674.00 1.171
674.10 1.171
674.20 1.171
674.30 1.171
674.40 1.171
674.50 1.171
674.60 1.171
674.70 1.171
674.80 1.171
674.90 1.171
675.00 1.171
675.10 1.171
675.20 1.171
675.30 1.171
675.40 1.171
675.50 1.171
675.60 1.171
675.70 1.171
675.80 1.171
675.90 1.171
676.00 1.171
676.10 1.171
676.20 1.171
676.30 1.171
676.40 1.171
676.50 1.171
676.60 1.171
676.70 1.171
676.80 1.171
676.90 1.171
677.00 1.17
677.10 1.17
677.20 1.17
677.30 1.17
677.40 1.17
677.50 1.17
677.60 1.17
677.70 1.17
677.80 1.17
677.90 1.17
678.00 1.17
678.10 1.17
678.20 1.17
678.30 1.17
678.40 1.17
678.50 1.17
678.60 1.17
678.70 1.17
678.80 1.17
678.90 1.17
679.00 1.17
679.10 1.17
679.20 1.17
679.30 1.17
679.40 1.17
679.50 1.17
679.60 1.17
679.70 1.17
679.80 1.17
679.90 1.169
680.00 1.169
680.10 1.169
680.20 1.169
680.30 1.169
680.40 1.169
680.50 1.169
680.60 1.169
680.70 1.169
680.80 1.169
680.90 1.169
681.00 1.169
681.10 1.169
681.20 1.169
681.30 1.169
681.40 1.169
681.50 1.169
681.60 1.169
681.70 1.169
681.80 1.169
681.90 1.169
682.00 1.169
682.10 1.169
682.20 1.169
682.30 1.169
682.40 1.169
682.50 1.168
682.60 1.168
682.70 1.168
682.80 1.168
682.90 1.168
683.00 1.168
683.10 1.168
683.20 1.168
683.30 1.168
683.40 1.168
683.50 1.168
683.60 1.168
683.70 1.168
683.80 1.168
683.90 1.168
684.00 1.168
684.10 1.168
684.20 1.168
684.30 1.168
684.40 1.168
684.50 1.168
684.60 1.168
684.70 1.168
684.80 1.168
684.90 1.168
685.00 1.167
685.10 1.167
685.20 1.167
685.30 1.167
685.40 1.167
685.50 1.167
685.60 1.167
685.70 1.167
685.80 1.167
685.90 1.167
686.00 1.167
686.10 1.167
686.20 1.167
686.30 1.167
686.40 1.167
686.50 1.167
686.60 1.167
686.70 1.167
686.80 1.167
686.90 1.167
687.00 1.167
687.10 1.167
687.20 1.167
687.30 1.167
687.40 1.166
687.50 1.166
687.60 1.166
687.70 1.166
687.80 1.166
687.90 1.166
688.00 1.166
688.10 1.166
688.20 1.166
688.30 1.166
688.40 1.166
688.50 1.166
688.60 1.166
688.70 1.166
688.80 1.166
688.90 1.166
689.00 1.166
689.10 1.166
689.20 1.166
689.30 1.166
689.40 1.166
689.50 1.166
689.60 1.165
689.70 1.165
689.80 1.165
689.90 1.165
690.00 1.165
690.10 1.165
690.20 1.165
690.30 1.165
690.40 1.165
690.50 1.165
690.60 1.165
690.70 1.165
690.80 1.165
690.90 1.165
691.00 1.165
691.10 1.165
691.20 1.165
691.30 1.165
691.40 1.165
691.50 1.165
691.60 1.164
691.70 1.164
691.80 1.164
691.90 1.164
692.00 1.164
692.10 1.164
692.20 1.164
692.30 1.164
692.40 1.164
692.50 1.164
692.60 1.164
692.70 1.164
692.80 1.164
692.90 1.164
693.00 1.164
693.10 1.164
693.20 1.164
693.30 1.164
693.40 1.164
693.50 1.164
693.60 1.164
693.70 1.163
693.80 1.163
693.90 1.163
694.00 1.163
694.10 1.163
694.20 1.163
694.30 1.163
694.40 1.163
694.50 1.163
694.60 1.163
694.70 1.163
694.80 1.163
694.90 1.163
695.00 1.163
695.10 1.163
695.20 1.163
695.30 1.163
695.40 1.163
695.50 1.163
695.60 1.163
695.70 1.162
695.80 1.162
695.90 1.162
696.00 1.162
696.10 1.162
696.20 1.162
696.30 1.162
696.40 1.162
696.50 1.162
696.60 1.162
696.70 1.162
696.80 1.162
696.90 1.162
697.00 1.162
697.10 1.162
697.20 1.162
697.30 1.162
697.40 1.162
697.50 1.161
697.60 1.161
697.70 1.161
697.80 1.161
697.90 1.161
698.00 1.161
698.10 1.161
698.20 1.161
698.30 1.161
698.40 1.161
698.50 1.161
698.60 1.161
698.70 1.161
698.80 1.161
698.90 1.161
699.00 1.161
699.10 1.161
699.20 1.161
699.30 1.161
699.40 1.16
699.50 1.16
699.60 1.16
699.70 1.16
699.80 1.16
699.90 1.16
700.00 1.16
700.10 1.16
700.20 1.16
700.30 1.16
700.40 1.16
700.50 1.16
700.60 1.16
700.70 1.16
700.80 1.16
700.90 1.16
701.00 1.16
701.10 1.16
701.20 1.159
701.30 1.159
701.40 1.159
701.50 1.159
701.60 1.159
701.70 1.159
701.80 1.159
701.90 1.159
702.00 1.159
702.10 1.159
702.20 1.159
702.30 1.159
702.40 1.159
702.50 1.159
702.60 1.159
702.70 1.159
702.80 1.159
702.90 1.158
703.00 1.158
703.10 1.158
703.20 1.158
703.30 1.158
703.40 1.158
703.50 1.158
703.60 1.158
703.70 1.158
703.80 1.158
703.90 1.158
704.00 1.158
704.10 1.158
704.20 1.158
704.30 1.158
704.40 1.158
704.50 1.158
704.60 1.157
704.70 1.157
704.80 1.157
704.90 1.157
705.00 1.157
705.10 1.157
705.20 1.157
705.30 1.157
705.40 1.157
705.50 1.157
705.60 1.157
705.70 1.157
705.80 1.157
705.90 1.157
706.00 1.157
706.10 1.157
706.20 1.156
706.30 1.156
706.40 1.156
706.50 1.156
706.60 1.156
706.70 1.156
706.80 1.156
706.90 1.156
707.00 1.156
707.10 1.156
707.20 1.156
707.30 1.156
707.40 1.156
707.50 1.156
707.60 1.156
707.70 1.156
707.80 1.155
707.90 1.155
708.00 1.155
708.10 1.155
708.20 1.155
708.30 1.155
708.40 1.155
708.50 1.155
708.60 1.155
708.70 1.155
708.80 1.155
708.90 1.155
709.00 1.155
709.10 1.155
709.20 1.155
709.30 1.155
709.40 1.154
709.50 1.154
709.60 1.154
709.70 1.154
709.80 1.154
709.90 1.154
710.00 1.154
710.10 1.154
710.20 1.154
710.30 1.154
710.40 1.154
710.50 1.154
710.60 1.154
710.70 1.154
710.80 1.154
710.90 1.154
711.00 1.153
711.10 1.153
711.20 1.153
711.30 1.153
711.40 1.153
711.50 1.153
711.60 1.153
711.70 1.153
711.80 1.153
711.90 1.153
712.00 1.153
712.10 1.153
712.20 1.153
712.30 1.153
712.40 1.153
712.50 1.152
712.60 1.152
712.70 1.152
712.80 1.152
712.90 1.152
713.00 1.152
713.10 1.152
713.20 1.152
713.30 1.152
713.40 1.152
713.50 1.152
713.60 1.152
713.70 1.152
713.80 1.152
713.90 1.152
714.00 1.151
714.10 1.151
714.20 1.151
714.30 1.151
714.40 1.151
714.50 1.151
714.60 1.151
714.70 1.151
714.80 1.151
714.90 1.151
715.00 1.151
715.10 1.151
715.20 1.151
715.30 1.151
715.40 1.15
715.50 1.15
715.60 1.15
715.70 1.15
715.80 1.15
715.90 1.15
716.00 1.15
716.10 1.15
716.20 1.15
716.30 1.15
716.40 1.15
716.50 1.15
716.60 1.15
716.70 1.15
716.80 1.15
716.90 1.149
717.00 1.149
717.10 1.149
717.20 1.149
717.30 1.149
717.40 1.149
717.50 1.149
717.60 1.149
717.70 1.149
717.80 1.149
717.90 1.149
718.00 1.149
718.10 1.149
718.20 1.149
718.30 1.148
718.40 1.148
718.50 1.148
718.60 1.148
718.70 1.148
718.80 1.148
718.90 1.148
719.00 1.148
719.10 1.148
719.20 1.148
719.30 1.148
719.40 1.148
719.50 1.148
719.60 1.148
719.70 1.147
719.80 1.147
719.90 1.147
720.00 1.147
720.10 1.147
720.20 1.147
720.30 1.147
720.40 1.147
720.50 1.147
720.60 1.147
720.70 1.147
720.80 1.147
720.90 1.147
721.00 1.146
721.10 1.146
721.20 1.146
721.30 1.146
721.40 1.146
721.50 1.146
721.60 1.146
721.70 1.146
721.80 1.146
721.90 1.146
722.00 1.146
722.10 1.146
722.20 1.146
722.30 1.146
722.40 1.145
722.50 1.145
722.60 1.145
722.70 1.145
722.80 1.145
722.90 1.145
723.00 1.145
723.10 1.145
723.20 1.145
723.30 1.145
723.40 1.145
723.50 1.145
723.60 1.145
723.70 1.144
723.80 1.144
723.90 1.144
724.00 1.144
724.10 1.144
724.20 1.144
724.30 1.144
724.40 1.144
724.50 1.144
724.60 1.144
724.70 1.144
724.80 1.144
724.90 1.144
725.00 1.144
725.10 1.143
725.20 1.143
725.30 1.143
725.40 1.143
725.50 1.143
725.60 1.143
725.70 1.143
725.80 1.143
725.90 1.143
726.00 1.143
726.10 1.143
726.20 1.143
726.30 1.143
726.40 1.142
726.50 1.142
726.60 1.142
726.70 1.142
726.80 1.142
726.90 1.142
727.00 1.142
727.10 1.142
727.20 1.142
727.30 1.142
727.40 1.142
727.50 1.142
727.60 1.141
727.70 1.141
727.80 1.141
727.90 1.141
728.00 1.141
728.10 1.141
728.20 1.141
728.30 1.141
728.40 1.141
728.50 1.141
728.60 1.141
728.70 1.141
728.80 1.141
728.90 1.14
729.00 1.14
729.10 1.14
729.20 1.14
729.30 1.14
729.40 1.14
729.50 1.14
729.60 1.14
729.70 1.14
729.80 1.14
729.90 1.14
730.00 1.14
730.10 1.14
730.20 1.139
730.30 1.139
730.40 1.139
730.50 1.139
730.60 1.139
730.70 1.139
730.80 1.139
730.90 1.139
731.00 1.139
731.10 1.139
731.20 1.139
731.30 1.139
731.40 1.138
731.50 1.138
731.60 1.138
731.70 1.138
731.80 1.138
731.90 1.138
732.00 1.138
732.10 1.138
732.20 1.138
732.30 1.138
732.40 1.138
732.50 1.138
732.60 1.137
732.70 1.137
732.80 1.137
732.90 1.137
733.00 1.137
733.10 1.137
733.20 1.137
733.30 1.137
733.40 1.137
733.50 1.137
733.60 1.137
733.70 1.137
733.80 1.136
733.90 1.136
734.00 1.136
734.10 1.136
734.20 1.136
734.30 1.136
734.40 1.136
734.50 1.136
734.60 1.136
734.70 1.136
734.80 1.136
734.90 1.136
735.00 1.135
735.10 1.135
735.20 1.135
735.30 1.135
735.40 1.135
735.50 1.135
735.60 1.135
735.70 1.135
735.80 1.135
735.90 1.135
736.00 1.135
736.10 1.135
736.20 1.135
736.30 1.134
736.40 1.134
736.50 1.134
736.60 1.134
736.70 1.134
736.80 1.134
736.90 1.134
737.00 1.134
737.10 1.134
737.20 1.134
737.30 1.134
737.40 1.134
737.50 1.133
737.60 1.133
737.70 1.133
737.80 1.133
737.90 1.133
738.00 1.133
738.10 1.133
738.20 1.133
738.30 1.133
738.40 1.133
738.50 1.133
738.60 1.133
738.70 1.132
738.80 1.132
738.90 1.132
739.00 1.132
739.10 1.132
739.20 1.132
739.30 1.132
739.40 1.132
739.50 1.132
739.60 1.132
739.70 1.132
739.80 1.132
739.90 1.131
740.00 1.131
740.10 1.131
740.20 1.131
740.30 1.131
740.40 1.131
740.50 1.131
740.60 1.131
740.70 1.131
740.80 1.131
740.90 1.131
741.00 1.13
741.10 1.13
741.20 1.13
741.30 1.13
741.40 1.13
741.50 1.13
741.60 1.13
741.70 1.13
741.80 1.13
741.90 1.13
742.00 1.13
742.10 1.13
742.20 1.129
742.30 1.129
742.40 1.129
742.50 1.129
742.60 1.129
742.70 1.129
742.80 1.129
742.90 1.129
743.00 1.129
743.10 1.129
743.20 1.129
743.30 1.128
743.40 1.128
743.50 1.128
743.60 1.128
743.70 1.128
743.80 1.128
743.90 1.128
744.00 1.128
744.10 1.128
744.20 1.128
744.30 1.128
744.40 1.127
744.50 1.127
744.60 1.127
744.70 1.127
744.80 1.127
744.90 1.127
745.00 1.127
745.10 1.127
745.20 1.127
745.30 1.127
745.40 1.127
745.50 1.126
745.60 1.126
745.70 1.126
745.80 1.126
745.90 1.126
746.00 1.126
746.10 1.126
746.20 1.126
746.30 1.126
746.40 1.126
746.50 1.126
746.60 1.126
746.70 1.125
746.80 1.125
746.90 1.125
747.00 1.125
747.10 1.125
747.20 1.125
747.30 1.125
747.40 1.125
747.50 1.125
747.60 1.125
747.70 1.125
747.80 1.124
747.90 1.124
748.00 1.124
748.10 1.124
748.20 1.124
748.30 1.124
748.40 1.124
748.50 1.124
748.60 1.124
748.70 1.124
748.80 1.124
748.90 1.123
749.00 1.123
749.10 1.123
749.20 1.123
749.30 1.123
749.40 1.123
749.50 1.123
749.60 1.123
749.70 1.123
749.80 1.123
749.90 1.123
750.00 1.123
750.10 1.122
750.20 1.122
750.30 1.122
750.40 1.122
750.50 1.122
750.60 1.122
750.70 1.122
750.80 1.122
750.90 1.122
751.00 1.122
751.10 1.121
751.20 1.121
751.30 1.121
751.40 1.121
751.50 1.121
751.60 1.121
751.70 1.121
751.80 1.121
751.90 1.121
752.00 1.121
752.10 1.121
752.20 1.12
752.30 1.12
752.40 1.12
752.50 1.12
752.60 1.12
752.70 1.12
752.80 1.12
752.90 1.12
753.00 1.12
753.10 1.12
753.20 1.119
753.30 1.119
753.40 1.119
753.50 1.119
753.60 1.119
753.70 1.119
753.80 1.119
753.90 1.119
754.00 1.119
754.10 1.119
754.20 1.119
754.30 1.118
754.40 1.118
754.50 1.118
754.60 1.118
754.70 1.118
754.80 1.118
754.90 1.118
755.00 1.118
755.10 1.118
755.20 1.118
755.30 1.118
755.40 1.117
755.50 1.117
755.60 1.117
755.70 1.117
755.80 1.117
755.90 1.117
756.00 1.117
756.10 1.117
756.20 1.117
756.30 1.117
756.40 1.116
756.50 1.116
756.60 1.116
756.70 1.116
756.80 1.116
756.90 1.116
757.00 1.116
757.10 1.116
757.20 1.116
757.30 1.116
757.40 1.116
757.50 1.115
757.60 1.115
757.70 1.115
757.80 1.115
757.90 1.115
758.00 1.115
758.10 1.115
758.20 1.115
758.30 1.115
758.40 1.115
758.50 1.115
758.60 1.114
758.70 1.114
758.80 1.114
758.90 1.114
759.00 1.114
759.10 1.114
759.20 1.114
759.30 1.114
759.40 1.114
759.50 1.114
759.60 1.113
759.70 1.113
759.80 1.113
759.90 1.113
760.00 1.113
760.10 1.113
760.20 1.113
760.30 1.113
760.40 1.113
760.50 1.113
760.60 1.113
760.70 1.112
760.80 1.112
760.90 1.112
761.00 1.112
761.10 1.112
761.20 1.112
761.30 1.112
761.40 1.112
761.50 1.112
761.60 1.112
761.70 1.111
761.80 1.111
761.90 1.111
762.00 1.111
762.10 1.111
762.20 1.111
762.30 1.111
762.40 1.111
762.50 1.111
762.60 1.111
762.70 1.11
762.80 1.11
762.90 1.11
763.00 1.11
763.10 1.11
763.20 1.11
763.30 1.11
763.40 1.11
763.50 1.11
763.60 1.11
763.70 1.109
763.80 1.109
763.90 1.109
764.00 1.109
764.10 1.109
764.20 1.109
764.30 1.109
764.40 1.109
764.50 1.109
764.60 1.109
764.70 1.108
764.80 1.108
764.90 1.108
765.00 1.108
765.10 1.108
765.20 1.108
765.30 1.108
765.40 1.108
765.50 1.108
765.60 1.108
765.70 1.107
765.80 1.107
765.90 1.107
766.00 1.107
766.10 1.107
766.20 1.107
766.30 1.107
766.40 1.107
766.50 1.107
766.60 1.107
766.70 1.106
766.80 1.106
766.90 1.106
767.00 1.106
767.10 1.106
767.20 1.106
767.30 1.106
767.40 1.106
767.50 1.106
767.60 1.106
767.70 1.106
767.80 1.105
767.90 1.105
768.00 1.105
768.10 1.105
768.20 1.105
768.30 1.105
768.40 1.105
768.50 1.105
768.60 1.105
768.70 1.105
768.80 1.104
768.90 1.104
769.00 1.104
769.10 1.104
769.20 1.104
769.30 1.104
769.40 1.104
769.50 1.104
769.60 1.104
769.70 1.104
769.80 1.103
769.90 1.103
770.00 1.103
770.10 1.103
770.20 1.103
770.30 1.103
770.40 1.103
770.50 1.103
770.60 1.103
770.70 1.103
770.80 1.102
770.90 1.102
771.00 1.102
771.10 1.102
771.20 1.102
771.30 1.102
771.40 1.102
771.50 1.102
771.60 1.102
771.70 1.101
771.80 1.101
771.90 1.101
772.00 1.101
772.10 1.101
772.20 1.101
772.30 1.101
772.40 1.101
772.50 1.101
772.60 1.101
772.70 1.1
772.80 1.1
772.90 1.1
773.00 1.1
773.10 1.1
773.20 1.1
773.30 1.1
773.40 1.1
773.50 1.1
773.60 1.1
773.70 1.099
773.80 1.099
773.90 1.099
774.00 1.099
774.10 1.099
774.20 1.099
774.30 1.099
774.40 1.099
774.50 1.099
774.60 1.099
774.70 1.098
774.80 1.098
774.90 1.098
775.00 1.098
775.10 1.098
775.20 1.098
775.30 1.098
775.40 1.098
775.50 1.098
775.60 1.097
775.70 1.097
775.80 1.097
775.90 1.097
776.00 1.097
776.10 1.097
776.20 1.097
776.30 1.097
776.40 1.097
776.50 1.097
776.60 1.096
776.70 1.096
776.80 1.096
776.90 1.096
777.00 1.096
777.10 1.096
777.20 1.096
777.30 1.096
777.40 1.096
777.50 1.096
777.60 1.095
777.70 1.095
777.80 1.095
777.90 1.095
778.00 1.095
778.10 1.095
778.20 1.095
778.30 1.095
778.40 1.095
778.50 1.094
778.60 1.094
778.70 1.094
778.80 1.094
778.90 1.094
779.00 1.094
779.10 1.094
779.20 1.094
779.30 1.094
779.40 1.094
779.50 1.093
779.60 1.093
779.70 1.093
779.80 1.093
779.90 1.093
780.00 1.093
780.10 1.093
780.20 1.093
780.30 1.093
780.40 1.093
780.50 1.092
780.60 1.092
780.70 1.092
780.80 1.092
780.90 1.092
781.00 1.092
781.10 1.092
781.20 1.092
781.30 1.092
781.40 1.091
781.50 1.091
781.60 1.091
781.70 1.091
781.80 1.091
781.90 1.091
782.00 1.091
782.10 1.091
782.20 1.091
782.30 1.09
782.40 1.09
782.50 1.09
782.60 1.09
782.70 1.09
782.80 1.09
782.90 1.09
783.00 1.09
783.10 1.09
783.20 1.09
783.30 1.089
783.40 1.089
783.50 1.089
783.60 1.089
783.70 1.089
783.80 1.089
783.90 1.089
784.00 1.089
784.10 1.089
784.20 1.088
784.30 1.088
784.40 1.088
784.50 1.088
784.60 1.088
784.70 1.088
784.80 1.088
784.90 1.088
785.00 1.088
785.10 1.087
785.20 1.087
785.30 1.087
785.40 1.087
785.50 1.087
785.60 1.087
785.70 1.087
785.80 1.087
785.90 1.087
786.00 1.087
786.10 1.086
786.20 1.086
786.30 1.086
786.40 1.086
786.50 1.086
786.60 1.086
786.70 1.086
786.80 1.086
786.90 1.086
787.00 1.085
787.10 1.085
787.20 1.085
787.30 1.085
787.40 1.085
787.50 1.085
787.60 1.085
787.70 1.085
787.80 1.085
787.90 1.084
788.00 1.084
788.10 1.084
788.20 1.084
788.30 1.084
788.40 1.084
788.50 1.084
788.60 1.084
788.70 1.084
788.80 1.084
788.90 1.083
789.00 1.083
789.10 1.083
789.20 1.083
789.30 1.083
789.40 1.083
789.50 1.083
789.60 1.083
789.70 1.083
789.80 1.082
789.90 1.082
790.00 1.082
790.10 1.082
790.20 1.082
790.30 1.082
790.40 1.082
790.50 1.082
790.60 1.082
790.70 1.081
790.80 1.081
790.90 1.081
791.00 1.081
791.10 1.081
791.20 1.081
791.30 1.081
791.40 1.081
791.50 1.081
791.60 1.08
791.70 1.08
791.80 1.08
791.90 1.08
792.00 1.08
792.10 1.08
792.20 1.08
792.30 1.08
792.40 1.08
792.50 1.079
792.60 1.079
792.70 1.079
792.80 1.079
792.90 1.079
793.00 1.079
793.10 1.079
793.20 1.079
793.30 1.079
793.40 1.078
793.50 1.078
793.60 1.078
793.70 1.078
793.80 1.078
793.90 1.078
794.00 1.078
794.10 1.078
794.20 1.078
794.30 1.077
794.40 1.077
794.50 1.077
794.60 1.077
794.70 1.077
794.80 1.077
794.90 1.077
795.00 1.077
795.10 1.077
795.20 1.076
795.30 1.076
795.40 1.076
795.50 1.076
795.60 1.076
795.70 1.076
795.80 1.076
795.90 1.076
796.00 1.076
796.10 1.075
796.20 1.075
796.30 1.075
796.40 1.075
796.50 1.075
796.60 1.075
796.70 1.075
796.80 1.075
796.90 1.075
797.00 1.074
797.10 1.074
797.20 1.074
797.30 1.074
797.40 1.074
797.50 1.074
797.60 1.074
797.70 1.074
797.80 1.074
797.90 1.073
798.00 1.073
798.10 1.073
798.20 1.073
798.30 1.073
798.40 1.073
798.50 1.073
798.60 1.073
798.70 1.073
798.80 1.073
798.90 1.072
799.00 1.072
799.10 1.072
799.20 1.072
799.30 1.072
799.40 1.072
799.50 1.072
799.60 1.072
799.70 1.072
799.80 1.071
799.90 1.071
800.00 1.071
800.10 1.071
800.20 1.071
800.30 1.071
800.40 1.071
800.50 1.071
800.60 1.07
800.70 1.07
800.80 1.07
800.90 1.07
801.00 1.07
801.10 1.07
801.20 1.07
801.30 1.07
801.40 1.07
801.50 1.069
801.60 1.069
801.70 1.069
801.80 1.069
801.90 1.069
802.00 1.069
802.10 1.069
802.20 1.069
802.30 1.069
802.40 1.068
802.50 1.068
802.60 1.068
802.70 1.068
802.80 1.068
802.90 1.068
803.00 1.068
803.10 1.068
803.20 1.068
803.30 1.067
803.40 1.067
803.50 1.067
803.60 1.067
803.70 1.067
803.80 1.067
803.90 1.067
804.00 1.067
804.10 1.066
804.20 1.066
804.30 1.066
804.40 1.066
804.50 1.066
804.60 1.066
804.70 1.066
804.80 1.066
804.90 1.066
805.00 1.065
805.10 1.065
805.20 1.065
805.30 1.065
805.40 1.065
805.50 1.065
805.60 1.065
805.70 1.065
805.80 1.065
805.90 1.064
806.00 1.064
806.10 1.064
806.20 1.064
806.30 1.064
806.40 1.064
806.50 1.064
806.60 1.064
806.70 1.064
806.80 1.063
806.90 1.063
807.00 1.063
807.10 1.063
807.20 1.063
807.30 1.063
807.40 1.063
807.50 1.063
807.60 1.062
807.70 1.062
807.80 1.062
807.90 1.062
808.00 1.062
808.10 1.062
808.20 1.062
808.30 1.062
808.40 1.062
808.50 1.061
808.60 1.061
808.70 1.061
808.80 1.061
808.90 1.061
809.00 1.061
809.10 1.061
809.20 1.061
809.30 1.061
809.40 1.06
809.50 1.06
809.60 1.06
809.70 1.06
809.80 1.06
809.90 1.06
810.00 1.06
810.10 1.06
810.20 1.06
810.30 1.059
810.40 1.059
810.50 1.059
810.60 1.059
810.70 1.059
810.80 1.059
810.90 1.059
811.00 1.059
811.10 1.058
811.20 1.058
811.30 1.058
811.40 1.058
811.50 1.058
811.60 1.058
811.70 1.058
811.80 1.058
811.90 1.057
812.00 1.057
812.10 1.057
812.20 1.057
812.30 1.057
812.40 1.057
812.50 1.057
812.60 1.057
812.70 1.057
812.80 1.056
812.90 1.056
813.00 1.056
813.10 1.056
813.20 1.056
813.30 1.056
813.40 1.056
813.50 1.056
813.60 1.055
813.70 1.055
813.80 1.055
813.90 1.055
814.00 1.055
814.10 1.055
814.20 1.055
814.30 1.055
814.40 1.055
814.50 1.054
814.60 1.054
814.70 1.054
814.80 1.054
814.90 1.054
815.00 1.054
815.10 1.054
815.20 1.054
815.30 1.053
815.40 1.053
815.50 1.053
815.60 1.053
815.70 1.053
815.80 1.053
815.90 1.053
816.00 1.053
816.10 1.053
816.20 1.052
816.30 1.052
816.40 1.052
816.50 1.052
816.60 1.052
816.70 1.052
816.80 1.052
816.90 1.052
817.00 1.051
817.10 1.051
817.20 1.051
817.30 1.051
817.40 1.051
817.50 1.051
817.60 1.051
817.70 1.051
817.80 1.051
817.90 1.05
818.00 1.05
818.10 1.05
818.20 1.05
818.30 1.05
818.40 1.05
818.50 1.05
818.60 1.05
818.70 1.049
818.80 1.049
818.90 1.049
819.00 1.049
819.10 1.049
819.20 1.049
819.30 1.049
819.40 1.049
819.50 1.049
819.60 1.048
819.70 1.048
819.80 1.048
819.90 1.048
820.00 1.048
820.10 1.048
820.20 1.048
820.30 1.048
820.40 1.047
820.50 1.047
820.60 1.047
820.70 1.047
820.80 1.047
820.90 1.047
821.00 1.047
821.10 1.047
821.20 1.047
821.30 1.046
821.40 1.046
821.50 1.046
821.60 1.046
821.70 1.046
821.80 1.046
821.90 1.046
822.00 1.046
822.10 1.045
822.20 1.045
822.30 1.045
822.40 1.045
822.50 1.045
822.60 1.045
822.70 1.045
822.80 1.045
822.90 1.044
823.00 1.044
823.10 1.044
823.20 1.044
823.30 1.044
823.40 1.044
823.50 1.044
823.60 1.044
823.70 1.044
823.80 1.043
823.90 1.043
824.00 1.043
824.10 1.043
824.20 1.043
824.30 1.043
824.40 1.043
824.50 1.043
824.60 1.042
824.70 1.042
824.80 1.042
824.90 1.042
825.00 1.042
825.10 1.042
825.20 1.042
825.30 1.042
825.40 1.041
825.50 1.041
825.60 1.041
825.70 1.041
825.80 1.041
825.90 1.041
826.00 1.041
826.10 1.041
826.20 1.041
826.30 1.04
826.40 1.04
826.50 1.04
826.60 1.04
826.70 1.04
826.80 1.04
826.90 1.04
827.00 1.04
827.10 1.039
827.20 1.039
827.30 1.039
827.40 1.039
827.50 1.039
827.60 1.039
827.70 1.039
827.80 1.039
827.90 1.038
828.00 1.038
828.10 1.038
828.20 1.038
828.30 1.038
828.40 1.038
828.50 1.038
828.60 1.038
828.70 1.037
828.80 1.037
828.90 1.037
829.00 1.037
829.10 1.037
829.20 1.037
829.30 1.037
829.40 1.037
829.50 1.036
829.60 1.036
829.70 1.036
829.80 1.036
829.90 1.036
830.00 1.036
830.10 1.036
830.20 1.036
830.30 1.036
830.40 1.035
830.50 1.035
830.60 1.035
830.70 1.035
830.80 1.035
830.90 1.035
831.00 1.035
831.10 1.035
831.20 1.034
831.30 1.034
831.40 1.034
831.50 1.034
831.60 1.034
831.70 1.034
831.80 1.034
831.90 1.034
832.00 1.033
832.10 1.033
832.20 1.033
832.30 1.033
832.40 1.033
832.50 1.033
832.60 1.033
832.70 1.033
832.80 1.032
832.90 1.032
833.00 1.032
833.10 1.032
833.20 1.032
833.30 1.032
833.40 1.032
833.50 1.032
833.60 1.031
833.70 1.031
833.80 1.031
833.90 1.031
834.00 1.031
834.10 1.031
834.20 1.031
834.30 1.031
834.40 1.03
834.50 1.03
834.60 1.03
834.70 1.03
834.80 1.03
834.90 1.03
835.00 1.03
835.10 1.03
835.20 1.029
835.30 1.029
835.40 1.029
835.50 1.029
835.60 1.029
835.70 1.029
835.80 1.029
835.90 1.029
836.00 1.029
836.10 1.028
836.20 1.028
836.30 1.028
836.40 1.028
836.50 1.028
836.60 1.028
836.70 1.028
836.80 1.028
836.90 1.027
837.00 1.027
837.10 1.027
837.20 1.027
837.30 1.027
837.40 1.027
837.50 1.027
837.60 1.027
837.70 1.026
837.80 1.026
837.90 1.026
838.00 1.026
838.10 1.026
838.20 1.026
838.30 1.026
838.40 1.026
838.50 1.025
838.60 1.025
838.70 1.025
838.80 1.025
838.90 1.025
839.00 1.025
839.10 1.025
839.20 1.025
839.30 1.024
839.40 1.024
839.50 1.024
839.60 1.024
839.70 1.024
839.80 1.024
839.90 1.024
840.00 1.024
840.10 1.023
840.20 1.023
840.30 1.023
840.40 1.023
840.50 1.023
840.60 1.023
840.70 1.023
840.80 1.023
840.90 1.022
841.00 1.022
841.10 1.022
841.20 1.022
841.30 1.022
841.40 1.022
841.50 1.022
841.60 1.022
841.70 1.021
841.80 1.021
841.90 1.021
842.00 1.021
842.10 1.021
842.20 1.021
842.30 1.021
842.40 1.021
842.50 1.02
842.60 1.02
842.70 1.02
842.80 1.02
842.90 1.02
843.00 1.02
843.10 1.02
843.20 1.02
843.30 1.019
843.40 1.019
843.50 1.019
843.60 1.019
843.70 1.019
843.80 1.019
843.90 1.019
844.00 1.019
844.10 1.018
844.20 1.018
844.30 1.018
844.40 1.018
844.50 1.018
844.60 1.018
844.70 1.018
844.80 1.018
844.90 1.017
845.00 1.017
845.10 1.017
845.20 1.017
845.30 1.017
845.40 1.017
845.50 1.017
845.60 1.017
845.70 1.016
845.80 1.016
845.90 1.016
846.00 1.016
846.10 1.016
846.20 1.016
846.30 1.016
846.40 1.016
846.50 1.015
846.60 1.015
846.70 1.015
846.80 1.015
846.90 1.015
847.00 1.015
847.10 1.015
847.20 1.015
847.30 1.014
847.40 1.014
847.50 1.014
847.60 1.014
847.70 1.014
847.80 1.014
847.90 1.014
848.00 1.014
848.10 1.013
848.20 1.013
848.30 1.013
848.40 1.013
848.50 1.013
848.60 1.013
848.70 1.013
848.80 1.012
848.90 1.012
849.00 1.012
849.10 1.012
849.20 1.012
849.30 1.012
849.40 1.012
849.50 1.012
849.60 1.011
849.70 1.011
849.80 1.011
849.90 1.011
850.00 1.011
850.10 1.011
850.20 1.011
850.30 1.011
850.40 1.01
850.50 1.01
850.60 1.01
850.70 1.01
850.80 1.01
850.90 1.01
851.00 1.01
851.10 1.01
851.20 1.009
851.30 1.009
851.40 1.009
851.50 1.009
851.60 1.009
851.70 1.009
851.80 1.009
851.90 1.009
852.00 1.008
852.10 1.008
852.20 1.008
852.30 1.008
852.40 1.008
852.50 1.008
852.60 1.008
852.70 1.008
852.80 1.007
852.90 1.007
853.00 1.007
853.10 1.007
853.20 1.007
853.30 1.007
853.40 1.007
853.50 1.007
853.60 1.006
853.70 1.006
853.80 1.006
853.90 1.006
854.00 1.006
854.10 1.006
854.20 1.006
854.30 1.005
854.40 1.005
854.50 1.005
854.60 1.005
854.70 1.005
854.80 1.005
854.90 1.005
855.00 1.005
855.10 1.004
855.20 1.004
855.30 1.004
855.40 1.004
855.50 1.004
855.60 1.004
855.70 1.004
855.80 1.004
855.90 1.003
856.00 1.003
856.10 1.003
856.20 1.003
856.30 1.003
856.40 1.003
856.50 1.003
856.60 1.003
856.70 1.002
856.80 1.002
856.90 1.002
857.00 1.002
857.10 1.002
857.20 1.002
857.30 1.002
857.40 1.002
857.50 1.001
857.60 1.001
857.70 1.001
857.80 1.001
857.90 1.001
858.00 1.001
858.10 1.001
858.20 1
858.30 1
858.40 1
858.50 1
858.60 1
858.70 0.9998
858.80 0.9997
858.90 0.9996
859.00 0.9995
859.10 0.9993
859.20 0.9992
859.30 0.9991
859.40 0.9989
859.50 0.9988
859.60 0.9987
859.70 0.9986
859.80 0.9984
859.90 0.9983
860.00 0.9982
860.10 0.998
860.20 0.9979
860.30 0.9978
860.40 0.9977
860.50 0.9975
860.60 0.9974
860.70 0.9973
860.80 0.9971
860.90 0.997
861.00 0.9969
861.10 0.9968
861.20 0.9966
861.30 0.9965
861.40 0.9964
861.50 0.9962
861.60 0.9961
861.70 0.996
861.80 0.9959
861.90 0.9957
862.00 0.9956
862.10 0.9955
862.20 0.9953
862.30 0.9952
862.40 0.9951
862.50 0.9949
862.60 0.9948
862.70 0.9947
862.80 0.9946
862.90 0.9944
863.00 0.9943
863.10 0.9942
863.20 0.994
863.30 0.9939
863.40 0.9938
863.50 0.9936
863.60 0.9935
863.70 0.9934
863.80 0.9933
863.90 0.9931
864.00 0.993
864.10 0.9929
864.20 0.9927
864.30 0.9926
864.40 0.9925
864.50 0.9923
864.60 0.9922
864.70 0.9921
864.80 0.992
864.90 0.9918
865.00 0.9917
865.10 0.9916
865.20 0.9914
865.30 0.9913
865.40 0.9912
865.50 0.9911
865.60 0.9909
865.70 0.9908
865.80 0.9907
865.90 0.9905
866.00 0.9904
866.10 0.9903
866.20 0.9901
866.30 0.99
866.40 0.9899
866.50 0.9898
866.60 0.9896
866.70 0.9895
866.80 0.9894
866.90 0.9892
867.00 0.9891
867.10 0.989
867.20 0.9889
867.30 0.9887
867.40 0.9886
867.50 0.9885
867.60 0.9883
867.70 0.9882
867.80 0.9881
867.90 0.9879
868.00 0.9878
868.10 0.9877
868.20 0.9875
868.30 0.9874
868.40 0.9873
868.50 0.9871
868.60 0.987
868.70 0.9869
868.80 0.9868
868.90 0.9866
869.00 0.9865
869.10 0.9864
869.20 0.9862
869.30 0.9861
869.40 0.986
869.50 0.9858
869.60 0.9857
869.70 0.9856
869.80 0.9855
869.90 0.9853
870.00 0.9852
870.10 0.9851
870.20 0.9849
870.30 0.9848
870.40 0.9847
870.50 0.9845
870.60 0.9844
870.70 0.9843
870.80 0.9842
870.90 0.984
871.00 0.9839
871.10 0.9838
871.20 0.9836
871.30 0.9835
871.40 0.9834
871.50 0.9832
871.60 0.9831
871.70 0.983
871.80 0.9829
871.90 0.9827
872.00 0.9826
872.10 0.9825
872.20 0.9823
872.30 0.9822
872.40 0.9821
872.50 0.9819
872.60 0.9818
872.70 0.9817
872.80 0.9815
872.90 0.9814
873.00 0.9813
873.10 0.9811
873.20 0.981
873.30 0.9809
873.40 0.9807
873.50 0.9806
873.60 0.9805
873.70 0.9803
873.80 0.9802
873.90 0.9801
874.00 0.9799
874.10 0.9798
874.20 0.9797
874.30 0.9796
874.40 0.9794
874.50 0.9793
874.60 0.9792
874.70 0.979
874.80 0.9789
874.90 0.9788
875.00 0.9786
875.10 0.9785
875.20 0.9784
875.30 0.9782
875.40 0.9781
875.50 0.978
875.60 0.9778
875.70 0.9777
875.80 0.9776
875.90 0.9774
876.00 0.9773
876.10 0.9772
876.20 0.9771
876.30 0.9769
876.40 0.9768
876.50 0.9767
876.60 0.9765
876.70 0.9764
876.80 0.9763
876.90 0.9761
877.00 0.976
877.10 0.9759
877.20 0.9757
877.30 0.9756
877.40 0.9755
877.50 0.9753
877.60 0.9752
877.70 0.9751
877.80 0.9749
877.90 0.9748
878.00 0.9747
878.10 0.9745
878.20 0.9744
878.30 0.9743
878.40 0.9741
878.50 0.974
878.60 0.9739
878.70 0.9737
878.80 0.9736
878.90 0.9735
879.00 0.9734
879.10 0.9732
879.20 0.9731
879.30 0.973
879.40 0.9728
879.50 0.9727
879.60 0.9726
879.70 0.9724
879.80 0.9723
879.90 0.9722
880.00 0.972
880.10 0.9719
880.20 0.9718
880.30 0.9716
880.40 0.9715
880.50 0.9714
880.60 0.9712
880.70 0.9711
880.80 0.971
880.90 0.9708
881.00 0.9707
881.10 0.9706
881.20 0.9704
881.30 0.9703
881.40 0.9702
881.50 0.9701
881.60 0.9699
881.70 0.9698
881.80 0.9697
881.90 0.9695
882.00 0.9694
882.10 0.9693
882.20 0.9691
882.30 0.969
882.40 0.9689
882.50 0.9687
882.60 0.9686
882.70 0.9685
882.80 0.9683
882.90 0.9682
883.00 0.9681
883.10 0.9679
883.20 0.9678
883.30 0.9676
883.40 0.9675
883.50 0.9674
883.60 0.9672
883.70 0.9671
883.80 0.967
883.90 0.9668
884.00 0.9667
884.10 0.9666
884.20 0.9664
884.30 0.9663
884.40 0.9662
884.50 0.966
884.60 0.9659
884.70 0.9658
884.80 0.9656
884.90 0.9655
885.00 0.9654
885.10 0.9652
885.20 0.9651
885.30 0.965
885.40 0.9648
885.50 0.9647
885.60 0.9646
885.70 0.9644
885.80 0.9643
885.90 0.9642
886.00 0.964
886.10 0.9639
886.20 0.9638
886.30 0.9636
886.40 0.9635
886.50 0.9634
886.60 0.9633
886.70 0.9631
886.80 0.963
886.90 0.9629
887.00 0.9627
887.10 0.9626
887.20 0.9625
887.30 0.9623
887.40 0.9622
887.50 0.962
887.60 0.9619
887.70 0.9618
887.80 0.9616
887.90 0.9615
888.00 0.9614
888.10 0.9612
888.20 0.9611
888.30 0.961
888.40 0.9608
888.50 0.9607
888.60 0.9606
888.70 0.9604
888.80 0.9603
888.90 0.9602
889.00 0.96
889.10 0.9599
889.20 0.9598
889.30 0.9596
889.40 0.9595
889.50 0.9593
889.60 0.9592
889.70 0.9591
889.80 0.9589
889.90 0.9588
890.00 0.9587
890.10 0.9585
890.20 0.9584
890.30 0.9583
890.40 0.9581
890.50 0.958
890.60 0.9579
890.70 0.9577
890.80 0.9576
890.90 0.9575
891.00 0.9573
891.10 0.9572
891.20 0.9571
891.30 0.9569
891.40 0.9568
891.50 0.9567
891.60 0.9565
891.70 0.9564
891.80 0.9563
891.90 0.9561
892.00 0.956
892.10 0.9559
892.20 0.9557
892.30 0.9556
892.40 0.9555
892.50 0.9553
892.60 0.9552
892.70 0.9551
892.80 0.9549
892.90 0.9548
893.00 0.9547
893.10 0.9545
893.20 0.9544
893.30 0.9543
893.40 0.9541
893.50 0.954
893.60 0.9539
893.70 0.9537
893.80 0.9536
893.90 0.9535
894.00 0.9533
894.10 0.9532
894.20 0.9531
894.30 0.9529
894.40 0.9528
894.50 0.9527
894.60 0.9525
894.70 0.9524
894.80 0.9523
894.90 0.9521
895.00 0.952
895.10 0.9519
895.20 0.9517
895.30 0.9516
895.40 0.9515
895.50 0.9513
895.60 0.9512
895.70 0.9511
895.80 0.9509
895.90 0.9508
896.00 0.9507
896.10 0.9505
896.20 0.9504
896.30 0.9503
896.40 0.9501
896.50 0.95
896.60 0.9499
896.70 0.9497
896.80 0.9496
896.90 0.9495
897.00 0.9493
897.10 0.9492
897.20 0.9491
897.30 0.9489
897.40 0.9488
897.50 0.9486
897.60 0.9485
897.70 0.9484
897.80 0.9482
897.90 0.9481
898.00 0.948
898.10 0.9478
898.20 0.9477
898.30 0.9475
898.40 0.9474
898.50 0.9473
898.60 0.9471
898.70 0.947
898.80 0.9469
898.90 0.9467
899.00 0.9466
899.10 0.9464
899.20 0.9463
899.30 0.9462
899.40 0.946
899.50 0.9459
899.60 0.9458
899.70 0.9456
899.80 0.9455
899.90 0.9453
900.00 0.9452
900.10 0.9451
900.20 0.9449
900.30 0.9448
900.40 0.9447
900.50 0.9445
900.60 0.9444
900.70 0.9442
900.80 0.9441
900.90 0.944
901.00 0.9438
901.10 0.9437
901.20 0.9436
901.30 0.9434
901.40 0.9433
901.50 0.9432
901.60 0.943
901.70 0.9429
901.80 0.9427
901.90 0.9426
902.00 0.9425
902.10 0.9423
902.20 0.9422
902.30 0.942
902.40 0.9419
902.50 0.9418
902.60 0.9416
902.70 0.9415
902.80 0.9413
902.90 0.9412
903.00 0.941
903.10 0.9409
903.20 0.9407
903.30 0.9406
903.40 0.9405
903.50 0.9403
903.60 0.9402
903.70 0.94
903.80 0.9399
903.90 0.9397
904.00 0.9396
904.10 0.9394
904.20 0.9393
904.30 0.9392
904.40 0.939
904.50 0.9389
904.60 0.9387
904.70 0.9386
904.80 0.9384
904.90 0.9383
905.00 0.9381
905.10 0.938
905.20 0.9379
905.30 0.9377
905.40 0.9376
905.50 0.9374
905.60 0.9373
905.70 0.9371
905.80 0.937
905.90 0.9369
906.00 0.9367
906.10 0.9366
906.20 0.9364
906.30 0.9363
906.40 0.9361
906.50 0.936
906.60 0.9358
906.70 0.9357
906.80 0.9356
906.90 0.9354
907.00 0.9353
907.10 0.9351
907.20 0.935
907.30 0.9349
907.40 0.9347
907.50 0.9346
907.60 0.9344
907.70 0.9343
907.80 0.9341
907.90 0.934
908.00 0.9339
908.10 0.9337
908.20 0.9336
908.30 0.9334
908.40 0.9333
908.50 0.9332
908.60 0.933
908.70 0.9329
908.80 0.9327
908.90 0.9326
909.00 0.9324
909.10 0.9323
909.20 0.9322
909.30 0.932
909.40 0.9319
909.50 0.9317
909.60 0.9316
909.70 0.9315
909.80 0.9313
909.90 0.9312
910.00 0.931
910.10 0.9309
910.20 0.9308
910.30 0.9306
910.40 0.9305
910.50 0.9303
910.60 0.9302
910.70 0.9301
910.80 0.9299
910.90 0.9298
911.00 0.9296
911.10 0.9295
911.20 0.9294
911.30 0.9292
911.40 0.9291
911.50 0.9289
911.60 0.9288
911.70 0.9287
911.80 0.9285
911.90 0.9284
912.00 0.9282
912.10 0.9281
912.20 0.928
912.30 0.9278
912.40 0.9277
912.50 0.9275
912.60 0.9274
912.70 0.9273
912.80 0.9271
912.90 0.927
913.00 0.9268
913.10 0.9267
913.20 0.9266
913.30 0.9264
913.40 0.9263
913.50 0.9262
913.60 0.926
913.70 0.9259
913.80 0.9257
913.90 0.9256
914.00 0.9255
914.10 0.9253
914.20 0.9252
914.30 0.9251
914.40 0.9249
914.50 0.9248
914.60 0.9246
914.70 0.9245
914.80 0.9244
914.90 0.9242
915.00 0.9241
915.10 0.924
915.20 0.9238
915.30 0.9237
915.40 0.9236
915.50 0.9234
915.60 0.9233
915.70 0.9231
915.80 0.923
915.90 0.9229
916.00 0.9227
916.10 0.9226
916.20 0.9225
916.30 0.9223
916.40 0.9222
916.50 0.922
916.60 0.9219
916.70 0.9218
916.80 0.9216
916.90 0.9215
917.00 0.9214
917.10 0.9212
917.20 0.9211
917.30 0.9209
917.40 0.9208
917.50 0.9207
917.60 0.9205
917.70 0.9204
917.80 0.9202
917.90 0.9201
918.00 0.92
918.10 0.9198
918.20 0.9197
918.30 0.9195
918.40 0.9194
918.50 0.9192
918.60 0.9191
918.70 0.919
918.80 0.9188
918.90 0.9187
919.00 0.9185
919.10 0.9184
919.20 0.9183
919.30 0.9181
919.40 0.918
919.50 0.9178
919.60 0.9177
919.70 0.9176
919.80 0.9174
919.90 0.9173
920.00 0.9171
920.10 0.917
920.20 0.9169
920.30 0.9167
920.40 0.9166
920.50 0.9164
920.60 0.9163
920.70 0.9162
920.80 0.916
920.90 0.9159
921.00 0.9157
921.10 0.9156
921.20 0.9155
921.30 0.9153
921.40 0.9152
921.50 0.915
921.60 0.9149
921.70 0.9148
921.80 0.9146
921.90 0.9145
922.00 0.9144
922.10 0.9142
922.20 0.9141
922.30 0.9139
922.40 0.9138
922.50 0.9136
922.60 0.9135
922.70 0.9134
922.80 0.9132
922.90 0.9131
923.00 0.9129
923.10 0.9128
923.20 0.9127
923.30 0.9125
923.40 0.9124
923.50 0.9122
923.60 0.9121
923.70 0.9119
923.80 0.9118
923.90 0.9117
924.00 0.9115
924.10 0.9114
924.20 0.9112
924.30 0.9111
924.40 0.911
924.50 0.9108
924.60 0.9107
924.70 0.9105
924.80 0.9104
924.90 0.9103
925.00 0.9101
925.10 0.91
925.20 0.9098
925.30 0.9097
925.40 0.9095
925.50 0.9094
925.60 0.9093
925.70 0.9091
925.80 0.909
925.90 0.9088
926.00 0.9087
926.10 0.9086
926.20 0.9084
926.30 0.9083
926.40 0.9081
926.50 0.908
926.60 0.9079
926.70 0.9077
926.80 0.9076
926.90 0.9074
927.00 0.9073
927.10 0.9072
927.20 0.907
927.30 0.9069
927.40 0.9067
927.50 0.9066
927.60 0.9064
927.70 0.9063
927.80 0.9062
927.90 0.906
928.00 0.9059
928.10 0.9057
928.20 0.9056
928.30 0.9055
928.40 0.9053
928.50 0.9052
928.60 0.905
928.70 0.9049
928.80 0.9047
928.90 0.9046
929.00 0.9045
929.10 0.9043
929.20 0.9042
929.30 0.904
929.40 0.9039
929.50 0.9038
929.60 0.9036
929.70 0.9035
929.80 0.9033
929.90 0.9032
930.00 0.903
930.10 0.9029
930.20 0.9028
930.30 0.9026
930.40 0.9025
930.50 0.9023
930.60 0.9022
930.70 0.9021
930.80 0.9019
930.90 0.9018
931.00 0.9016
931.10 0.9015
931.20 0.9014
931.30 0.9012
931.40 0.9011
931.50 0.9009
931.60 0.9008
931.70 0.9006
931.80 0.9005
931.90 0.9004
932.00 0.9002
932.10 0.9001
932.20 0.8999
932.30 0.8998
932.40 0.8997
932.50 0.8995
932.60 0.8994
932.70 0.8992
932.80 0.8991
932.90 0.8989
933.00 0.8988
933.10 0.8987
933.20 0.8985
933.30 0.8984
933.40 0.8982
933.50 0.8981
933.60 0.898
933.70 0.8978
933.80 0.8977
933.90 0.8975
934.00 0.8974
934.10 0.8972
934.20 0.8971
934.30 0.897
934.40 0.8968
934.50 0.8967
934.60 0.8965
934.70 0.8964
934.80 0.8962
934.90 0.8961
935.00 0.896
935.10 0.8958
935.20 0.8957
935.30 0.8955
935.40 0.8954
935.50 0.8952
935.60 0.8951
935.70 0.895
935.80 0.8948
935.90 0.8947
936.00 0.8945
936.10 0.8944
936.20 0.8943
936.30 0.8941
936.40 0.894
936.50 0.8938
936.60 0.8937
936.70 0.8935
936.80 0.8934
936.90 0.8933
937.00 0.8931
937.10 0.893
937.20 0.8928
937.30 0.8927
937.40 0.8925
937.50 0.8924
937.60 0.8923
937.70 0.8921
937.80 0.892
937.90 0.8918
938.00 0.8917
938.10 0.8915
938.20 0.8914
938.30 0.8913
938.40 0.8911
938.50 0.891
938.60 0.8908
938.70 0.8907
938.80 0.8905
938.90 0.8904
939.00 0.8902
939.10 0.8901
939.20 0.89
939.30 0.8898
939.40 0.8897
939.50 0.8895
939.60 0.8894
939.70 0.8892
939.80 0.8891
939.90 0.8889
940.00 0.8888
940.10 0.8887
940.20 0.8885
940.30 0.8884
940.40 0.8882
940.50 0.8881
940.60 0.8879
940.70 0.8878
940.80 0.8876
940.90 0.8875
941.00 0.8874
941.10 0.8872
941.20 0.8871
941.30 0.8869
941.40 0.8868
941.50 0.8866
941.60 0.8865
941.70 0.8864
941.80 0.8862
941.90 0.8861
942.00 0.8859
942.10 0.8858
942.20 0.8857
942.30 0.8855
942.40 0.8854
942.50 0.8852
942.60 0.8851
942.70 0.8849
942.80 0.8848
942.90 0.8847
943.00 0.8845
943.10 0.8844
943.20 0.8842
943.30 0.8841
943.40 0.8839
943.50 0.8838
943.60 0.8836
943.70 0.8835
943.80 0.8834
943.90 0.8832
944.00 0.8831
944.10 0.8829
944.20 0.8828
944.30 0.8826
944.40 0.8825
944.50 0.8823
944.60 0.8822
944.70 0.8821
944.80 0.8819
944.90 0.8818
945.00 0.8816
945.10 0.8815
945.20 0.8813
945.30 0.8812
945.40 0.8811
945.50 0.8809
945.60 0.8808
945.70 0.8806
945.80 0.8805
945.90 0.8803
946.00 0.8802
946.10 0.88
946.20 0.8799
946.30 0.8798
946.40 0.8796
946.50 0.8795
946.60 0.8793
946.70 0.8792
946.80 0.879
946.90 0.8789
947.00 0.8787
947.10 0.8786
947.20 0.8785
947.30 0.8783
947.40 0.8782
947.50 0.878
947.60 0.8779
947.70 0.8777
947.80 0.8776
947.90 0.8774
948.00 0.8773
948.10 0.8772
948.20 0.877
948.30 0.8769
948.40 0.8767
948.50 0.8766
948.60 0.8764
948.70 0.8763
948.80 0.8761
948.90 0.876
949.00 0.8759
949.10 0.8757
949.20 0.8756
949.30 0.8754
949.40 0.8753
949.50 0.8751
949.60 0.875
949.70 0.8748
949.80 0.8747
949.90 0.8745
950.00 0.8744
950.10 0.8743
950.20 0.8741
950.30 0.874
950.40 0.8738
950.50 0.8737
950.60 0.8735
950.70 0.8734
950.80 0.8732
950.90 0.8731
951.00 0.8729
951.10 0.8728
951.20 0.8727
951.30 0.8725
951.40 0.8724
951.50 0.8722
951.60 0.8721
951.70 0.8719
951.80 0.8718
951.90 0.8717
952.00 0.8715
952.10 0.8714
952.20 0.8712
952.30 0.8711
952.40 0.8709
952.50 0.8708
952.60 0.8706
952.70 0.8705
952.80 0.8703
952.90 0.8702
953.00 0.87
953.10 0.8699
953.20 0.8698
953.30 0.8696
953.40 0.8695
953.50 0.8693
953.60 0.8692
953.70 0.869
953.80 0.8689
953.90 0.8687
954.00 0.8686
954.10 0.8685
954.20 0.8683
954.30 0.8682
954.40 0.868
954.50 0.8679
954.60 0.8677
954.70 0.8676
954.80 0.8674
954.90 0.8673
955.00 0.8671
955.10 0.867
955.20 0.8669
955.30 0.8667
955.40 0.8666
955.50 0.8664
955.60 0.8663
955.70 0.8661
955.80 0.866
955.90 0.8658
956.00 0.8657
956.10 0.8655
956.20 0.8654
956.30 0.8652
956.40 0.8651
956.50 0.865
956.60 0.8648
956.70 0.8647
956.80 0.8645
956.90 0.8644
957.00 0.8642
957.10 0.8641
957.20 0.8639
957.30 0.8638
957.40 0.8637
957.50 0.8635
957.60 0.8634
957.70 0.8632
957.80 0.8631
957.90 0.8629
958.00 0.8628
958.10 0.8626
958.20 0.8625
958.30 0.8623
958.40 0.8622
958.50 0.862
958.60 0.8619
958.70 0.8618
958.80 0.8616
958.90 0.8615
959.00 0.8613
959.10 0.8612
959.20 0.861
959.30 0.8609
959.40 0.8607
959.50 0.8606
959.60 0.8604
959.70 0.8603
959.80 0.8601
959.90 0.86
960.00 0.8599
960.10 0.8597
960.20 0.8596
960.30 0.8594
960.40 0.8593
960.50 0.8591
960.60 0.859
960.70 0.8588
960.80 0.8587
960.90 0.8586
961.00 0.8584
961.10 0.8583
961.20 0.8581
961.30 0.858
961.40 0.8578
961.50 0.8577
961.60 0.8575
961.70 0.8574
961.80 0.8572
961.90 0.8571
962.00 0.857
962.10 0.8568
962.20 0.8567
962.30 0.8565
962.40 0.8564
962.50 0.8562
962.60 0.8561
962.70 0.8559
962.80 0.8558
962.90 0.8556
963.00 0.8555
963.10 0.8553
963.20 0.8552
963.30 0.8551
963.40 0.8549
963.50 0.8548
963.60 0.8546
963.70 0.8545
963.80 0.8543
963.90 0.8542
964.00 0.854
964.10 0.8539
964.20 0.8537
964.30 0.8536
964.40 0.8535
964.50 0.8533
964.60 0.8532
964.70 0.853
964.80 0.8529
964.90 0.8527
965.00 0.8526
965.10 0.8524
965.20 0.8523
965.30 0.8521
965.40 0.852
965.50 0.8518
965.60 0.8517
965.70 0.8516
965.80 0.8514
965.90 0.8513
966.00 0.8511
966.10 0.851
966.20 0.8508
966.30 0.8507
966.40 0.8505
966.50 0.8504
966.60 0.8502
966.70 0.8501
966.80 0.8499
966.90 0.8498
967.00 0.8496
967.10 0.8495
967.20 0.8493
967.30 0.8492
967.40 0.8491
967.50 0.8489
967.60 0.8488
967.70 0.8486
967.80 0.8485
967.90 0.8483
968.00 0.8482
968.10 0.848
968.20 0.8479
968.30 0.8477
968.40 0.8476
968.50 0.8475
968.60 0.8473
968.70 0.8472
968.80 0.847
968.90 0.8469
969.00 0.8467
969.10 0.8466
969.20 0.8464
969.30 0.8463
969.40 0.8461
969.50 0.846
969.60 0.8458
969.70 0.8457
969.80 0.8456
969.90 0.8454
970.00 0.8453
970.10 0.8451
970.20 0.845
970.30 0.8448
970.40 0.8447
970.50 0.8445
970.60 0.8444
970.70 0.8442
970.80 0.8441
970.90 0.8439
971.00 0.8438
971.10 0.8437
971.20 0.8435
971.30 0.8434
971.40 0.8432
971.50 0.8431
971.60 0.8429
971.70 0.8428
971.80 0.8426
971.90 0.8425
972.00 0.8423
972.10 0.8422
972.20 0.842
972.30 0.8419
972.40 0.8417
972.50 0.8416
972.60 0.8415
972.70 0.8413
972.80 0.8412
972.90 0.841
973.00 0.8409
973.10 0.8407
973.20 0.8406
973.30 0.8404
973.40 0.8403
973.50 0.8401
973.60 0.84
973.70 0.8399
973.80 0.8397
973.90 0.8396
974.00 0.8394
974.10 0.8393
974.20 0.8391
974.30 0.839
974.40 0.8388
974.50 0.8387
974.60 0.8385
974.70 0.8384
974.80 0.8382
974.90 0.8381
975.00 0.8379
975.10 0.8378
975.20 0.8377
975.30 0.8375
975.40 0.8374
975.50 0.8372
975.60 0.8371
975.70 0.8369
975.80 0.8368
975.90 0.8366
976.00 0.8365
976.10 0.8363
976.20 0.8362
976.30 0.836
976.40 0.8359
976.50 0.8357
976.60 0.8356
976.70 0.8355
976.80 0.8353
976.90 0.8352
977.00 0.835
977.10 0.8349
977.20 0.8347
977.30 0.8346
977.40 0.8344
977.50 0.8343
977.60 0.8341
977.70 0.834
977.80 0.8338
977.90 0.8337
978.00 0.8335
978.10 0.8334
978.20 0.8333
978.30 0.8331
978.40 0.833
978.50 0.8328
978.60 0.8327
978.70 0.8325
978.80 0.8324
978.90 0.8322
979.00 0.8321
979.10 0.8319
979.20 0.8318
979.30 0.8316
979.40 0.8315
979.50 0.8314
979.60 0.8312
979.70 0.8311
979.80 0.8309
979.90 0.8308
980.00 0.8306
980.10 0.8305
980.20 0.8303
980.30 0.8302
980.40 0.83
980.50 0.8299
980.60 0.8298
980.70 0.8296
980.80 0.8295
980.90 0.8293
981.00 0.8292
981.10 0.829
981.20 0.8289
981.30 0.8287
981.40 0.8286
981.50 0.8284
981.60 0.8283
981.70 0.8282
981.80 0.828
981.90 0.8279
982.00 0.8277
982.10 0.8276
982.20 0.8274
982.30 0.8273
982.40 0.8271
982.50 0.827
982.60 0.8268
982.70 0.8267
982.80 0.8266
982.90 0.8264
983.00 0.8263
983.10 0.8261
983.20 0.826
983.30 0.8258
983.40 0.8257
983.50 0.8255
983.60 0.8254
983.70 0.8252
983.80 0.8251
983.90 0.825
984.00 0.8248
984.10 0.8247
984.20 0.8245
984.30 0.8244
984.40 0.8242
984.50 0.8241
984.60 0.8239
984.70 0.8238
984.80 0.8236
984.90 0.8235
985.00 0.8234
985.10 0.8232
985.20 0.8231
985.30 0.8229
985.40 0.8228
985.50 0.8226
985.60 0.8225
985.70 0.8223
985.80 0.8222
985.90 0.822
986.00 0.8219
986.10 0.8217
986.20 0.8216
986.30 0.8214
986.40 0.8213
986.50 0.8212
986.60 0.821
986.70 0.8209
986.80 0.8207
986.90 0.8206
987.00 0.8204
987.10 0.8203
987.20 0.8201
987.30 0.82
987.40 0.8198
987.50 0.8197
987.60 0.8196
987.70 0.8194
987.80 0.8193
987.90 0.8191
988.00 0.819
988.10 0.8188
988.20 0.8187
988.30 0.8185
988.40 0.8184
988.50 0.8182
988.60 0.8181
988.70 0.8179
988.80 0.8178
988.90 0.8177
989.00 0.8175
989.10 0.8174
989.20 0.8172
989.30 0.8171
989.40 0.8169
989.50 0.8168
989.60 0.8166
989.70 0.8165
989.80 0.8164
989.90 0.8162
990.00 0.8161
990.10 0.8159
990.20 0.8158
990.30 0.8156
990.40 0.8155
990.50 0.8154
990.60 0.8152
990.70 0.8151
990.80 0.8149
990.90 0.8148
991.00 0.8146
991.10 0.8145
991.20 0.8143
991.30 0.8142
991.40 0.8141
991.50 0.8139
991.60 0.8138
991.70 0.8136
991.80 0.8135
991.90 0.8133
992.00 0.8132
992.10 0.813
992.20 0.8129
992.30 0.8128
992.40 0.8126
992.50 0.8125
992.60 0.8123
992.70 0.8122
992.80 0.812
992.90 0.8119
993.00 0.8117
993.10 0.8116
993.20 0.8114
993.30 0.8113
993.40 0.8112
993.50 0.811
993.60 0.8109
993.70 0.8107
993.80 0.8106
993.90 0.8104
994.00 0.8103
994.10 0.8101
994.20 0.81
994.30 0.8099
994.40 0.8097
994.50 0.8096
994.60 0.8094
994.70 0.8093
994.80 0.8091
994.90 0.809
995.00 0.8088
995.10 0.8087
995.20 0.8086
995.30 0.8084
995.40 0.8083
995.50 0.8081
995.60 0.808
995.70 0.8078
995.80 0.8077
995.90 0.8075
996.00 0.8074
996.10 0.8073
996.20 0.8071
996.30 0.807
996.40 0.8068
996.50 0.8067
996.60 0.8065
996.70 0.8064
996.80 0.8063
996.90 0.8061
997.00 0.806
997.10 0.8058
997.20 0.8057
997.30 0.8055
997.40 0.8054
997.50 0.8052
997.60 0.8051
997.70 0.805
997.80 0.8048
997.90 0.8047
998.00 0.8045
998.10 0.8044
998.20 0.8042
998.30 0.8041
998.40 0.804
998.50 0.8038
998.60 0.8037
998.70 0.8035
998.80 0.8034
998.90 0.8032
999.00 0.8031
999.10 0.803
999.20 0.8028
999.30 0.8027
999.40 0.8025
999.50 0.8024
999.60 0.8022
999.70 0.8021
999.80 0.802
999.90 0.8018
1000.00 0.8017
1000.10 0.8015
1000.20 0.8014
1000.30 0.8012
1000.40 0.8011
1000.50 0.801
1000.60 0.8008
1000.70 0.8007
1000.80 0.8005
1000.90 0.8004
1001.00 0.8002
1001.10 0.8001
1001.20 0.8
1001.30 0.7998
1001.40 0.7997
1001.50 0.7995
1001.60 0.7994
1001.70 0.7992
1001.80 0.7991
1001.90 0.799
1002.00 0.7988
1002.10 0.7987
1002.20 0.7985
1002.30 0.7984
1002.40 0.7982
1002.50 0.7981
1002.60 0.798
1002.70 0.7978
1002.80 0.7977
1002.90 0.7975
1003.00 0.7974
1003.10 0.7972
1003.20 0.7971
1003.30 0.797
1003.40 0.7968
1003.50 0.7967
1003.60 0.7965
1003.70 0.7964
1003.80 0.7962
1003.90 0.7961
1004.00 0.796
1004.10 0.7958
1004.20 0.7957
1004.30 0.7955
1004.40 0.7954
1004.50 0.7953
1004.60 0.7951
1004.70 0.795
1004.80 0.7948
1004.90 0.7947
1005.00 0.7945
1005.10 0.7944
1005.20 0.7943
1005.30 0.7941
1005.40 0.794
1005.50 0.7938
1005.60 0.7937
1005.70 0.7936
1005.80 0.7934
1005.90 0.7933
1006.00 0.7931
1006.10 0.793
1006.20 0.7928
1006.30 0.7927
1006.40 0.7926
1006.50 0.7924
1006.60 0.7923
1006.70 0.7921
1006.80 0.792
1006.90 0.7919
1007.00 0.7917
1007.10 0.7916
1007.20 0.7914
1007.30 0.7913
1007.40 0.7911
1007.50 0.791
1007.60 0.7909
1007.70 0.7907
1007.80 0.7906
1007.90 0.7904
1008.00 0.7903
1008.10 0.7901
1008.20 0.79
1008.30 0.7899
1008.40 0.7897
1008.50 0.7896
1008.60 0.7894
1008.70 0.7893
1008.80 0.7892
1008.90 0.789
1009.00 0.7889
1009.10 0.7887
1009.20 0.7886
1009.30 0.7885
1009.40 0.7883
1009.50 0.7882
1009.60 0.788
1009.70 0.7879
1009.80 0.7877
1009.90 0.7876
1010.00 0.7875
1010.10 0.7873
1010.20 0.7872
1010.30 0.787
1010.40 0.7869
1010.50 0.7868
1010.60 0.7866
1010.70 0.7865
1010.80 0.7863
1010.90 0.7862
1011.00 0.7861
1011.10 0.7859
1011.20 0.7858
1011.30 0.7856
1011.40 0.7855
1011.50 0.7853
1011.60 0.7852
1011.70 0.7851
1011.80 0.7849
1011.90 0.7848
1012.00 0.7846
1012.10 0.7845
1012.20 0.7844
1012.30 0.7842
1012.40 0.7841
1012.50 0.7839
1012.60 0.7838
1012.70 0.7837
1012.80 0.7835
1012.90 0.7834
1013.00 0.7832
1013.10 0.7831
1013.20 0.783
1013.30 0.7828
1013.40 0.7827
1013.50 0.7825
1013.60 0.7824
1013.70 0.7823
1013.80 0.7821
1013.90 0.782
1014.00 0.7818
1014.10 0.7817
1014.20 0.7816
1014.30 0.7814
1014.40 0.7813
1014.50 0.7811
1014.60 0.781
1014.70 0.7808
1014.80 0.7807
1014.90 0.7806
1015.00 0.7804
1015.10 0.7803
1015.20 0.7801
1015.30 0.78
1015.40 0.7799
1015.50 0.7797
1015.60 0.7796
1015.70 0.7794
1015.80 0.7793
1015.90 0.7792
1016.00 0.779
1016.10 0.7789
1016.20 0.7787
1016.30 0.7786
1016.40 0.7785
1016.50 0.7783
1016.60 0.7782
1016.70 0.778
1016.80 0.7779
1016.90 0.7778
1017.00 0.7776
1017.10 0.7775
1017.20 0.7773
1017.30 0.7772
1017.40 0.7771
1017.50 0.7769
1017.60 0.7768
1017.70 0.7766
1017.80 0.7765
1017.90 0.7764
1018.00 0.7762
1018.10 0.7761
1018.20 0.7759
1018.30 0.7758
1018.40 0.7757
1018.50 0.7755
1018.60 0.7754
1018.70 0.7753
1018.80 0.7751
1018.90 0.775
1019.00 0.7748
1019.10 0.7747
1019.20 0.7746
1019.30 0.7744
1019.40 0.7743
1019.50 0.7741
1019.60 0.774
1019.70 0.7739
1019.80 0.7737
1019.90 0.7736
1020.00 0.7734
1020.10 0.7733
1020.20 0.7732
1020.30 0.773
1020.40 0.7729
1020.50 0.7728
1020.60 0.7726
1020.70 0.7725
1020.80 0.7723
1020.90 0.7722
1021.00 0.7721
1021.10 0.7719
1021.20 0.7718
1021.30 0.7716
1021.40 0.7715
1021.50 0.7714
1021.60 0.7712
1021.70 0.7711
1021.80 0.771
1021.90 0.7708
1022.00 0.7707
1022.10 0.7705
1022.20 0.7704
1022.30 0.7703
1022.40 0.7701
1022.50 0.77
1022.60 0.7698
1022.70 0.7697
1022.80 0.7696
1022.90 0.7694
1023.00 0.7693
1023.10 0.7692
1023.20 0.769
1023.30 0.7689
1023.40 0.7687
1023.50 0.7686
1023.60 0.7685
1023.70 0.7683
1023.80 0.7682
1023.90 0.7681
1024.00 0.7679
1024.10 0.7678
1024.20 0.7676
1024.30 0.7675
1024.40 0.7674
1024.50 0.7672
1024.60 0.7671
1024.70 0.767
1024.80 0.7668
1024.90 0.7667
1025.00 0.7665
1025.10 0.7664
1025.20 0.7663
1025.30 0.7661
1025.40 0.766
1025.50 0.7658
1025.60 0.7657
1025.70 0.7656
1025.80 0.7654
1025.90 0.7653
1026.00 0.7651
1026.10 0.765
1026.20 0.7649
1026.30 0.7647
1026.40 0.7646
1026.50 0.7645
1026.60 0.7643
1026.70 0.7642
1026.80 0.764
1026.90 0.7639
1027.00 0.7638
1027.10 0.7636
1027.20 0.7635
1027.30 0.7634
1027.40 0.7632
1027.50 0.7631
1027.60 0.7629
1027.70 0.7628
1027.80 0.7627
1027.90 0.7625
1028.00 0.7624
1028.10 0.7623
1028.20 0.7621
1028.30 0.762
1028.40 0.7619
1028.50 0.7617
1028.60 0.7616
1028.70 0.7615
1028.80 0.7613
1028.90 0.7612
1029.00 0.761
1029.10 0.7609
1029.20 0.7608
1029.30 0.7606
1029.40 0.7605
1029.50 0.7604
1029.60 0.7602
1029.70 0.7601
1029.80 0.76
1029.90 0.7598
1030.00 0.7597
1030.10 0.7595
1030.20 0.7594
1030.30 0.7593
1030.40 0.7591
1030.50 0.759
1030.60 0.7589
1030.70 0.7587
1030.80 0.7586
1030.90 0.7585
1031.00 0.7583
1031.10 0.7582
1031.20 0.7581
1031.30 0.7579
1031.40 0.7578
1031.50 0.7577
1031.60 0.7575
1031.70 0.7574
1031.80 0.7573
1031.90 0.7571
1032.00 0.757
1032.10 0.7568
1032.20 0.7567
1032.30 0.7566
1032.40 0.7564
1032.50 0.7563
1032.60 0.7562
1032.70 0.756
1032.80 0.7559
1032.90 0.7558
1033.00 0.7556
1033.10 0.7555
1033.20 0.7554
1033.30 0.7552
1033.40 0.7551
1033.50 0.755
1033.60 0.7548
1033.70 0.7547
1033.80 0.7545
1033.90 0.7544
1034.00 0.7543
1034.10 0.7541
1034.20 0.754
1034.30 0.7539
1034.40 0.7537
1034.50 0.7536
1034.60 0.7535
1034.70 0.7533
1034.80 0.7532
1034.90 0.7531
1035.00 0.7529
1035.10 0.7528
1035.20 0.7527
1035.30 0.7525
1035.40 0.7524
1035.50 0.7523
1035.60 0.7521
1035.70 0.752
1035.80 0.7519
1035.90 0.7517
1036.00 0.7516
1036.10 0.7515
1036.20 0.7513
1036.30 0.7512
1036.40 0.751
1036.50 0.7509
1036.60 0.7508
1036.70 0.7506
1036.80 0.7505
1036.90 0.7504
1037.00 0.7502
1037.10 0.7501
1037.20 0.75
1037.30 0.7498
1037.40 0.7497
1037.50 0.7496
1037.60 0.7494
1037.70 0.7493
1037.80 0.7492
1037.90 0.749
1038.00 0.7489
1038.10 0.7488
1038.20 0.7486
1038.30 0.7485
1038.40 0.7484
1038.50 0.7482
1038.60 0.7481
1038.70 0.748
1038.80 0.7478
1038.90 0.7477
1039.00 0.7476
1039.10 0.7474
1039.20 0.7473
1039.30 0.7472
1039.40 0.747
1039.50 0.7469
1039.60 0.7468
1039.70 0.7466
1039.80 0.7465
1039.90 0.7464
1040.00 0.7462
1040.10 0.7461
1040.20 0.746
1040.30 0.7459
1040.40 0.7457
1040.50 0.7456
1040.60 0.7455
1040.70 0.7453
1040.80 0.7452
1040.90 0.7451
1041.00 0.7449
1041.10 0.7448
1041.20 0.7447
1041.30 0.7445
1041.40 0.7444
1041.50 0.7443
1041.60 0.7441
1041.70 0.744
1041.80 0.7439
1041.90 0.7437
1042.00 0.7436
1042.10 0.7435
1042.20 0.7433
1042.30 0.7432
1042.40 0.7431
1042.50 0.7429
1042.60 0.7428
1042.70 0.7427
1042.80 0.7426
1042.90 0.7424
1043.00 0.7423
1043.10 0.7422
1043.20 0.742
1043.30 0.7419
1043.40 0.7418
1043.50 0.7416
1043.60 0.7415
1043.70 0.7414
1043.80 0.7412
1043.90 0.7411
1044.00 0.741
1044.10 0.7409
1044.20 0.7407
1044.30 0.7406
1044.40 0.7405
1044.50 0.7403
1044.60 0.7402
1044.70 0.7401
1044.80 0.7399
1044.90 0.7398
1045.00 0.7397
1045.10 0.7395
1045.20 0.7394
1045.30 0.7393
1045.40 0.7392
1045.50 0.739
1045.60 0.7389
1045.70 0.7388
1045.80 0.7386
1045.90 0.7385
1046.00 0.7384
1046.10 0.7382
1046.20 0.7381
1046.30 0.738
1046.40 0.7379
1046.50 0.7377
1046.60 0.7376
1046.70 0.7375
1046.80 0.7373
1046.90 0.7372
1047.00 0.7371
1047.10 0.7369
1047.20 0.7368
1047.30 0.7367
1047.40 0.7366
1047.50 0.7364
1047.60 0.7363
1047.70 0.7362
1047.80 0.736
1047.90 0.7359
1048.00 0.7358
1048.10 0.7356
1048.20 0.7355
1048.30 0.7354
1048.40 0.7353
1048.50 0.7351
1048.60 0.735
1048.70 0.7349
1048.80 0.7347
1048.90 0.7346
1049.00 0.7345
1049.10 0.7344
1049.20 0.7342
1049.30 0.7341
1049.40 0.734
1049.50 0.7338
1049.60 0.7337
1049.70 0.7336
1049.80 0.7334
1049.90 0.7333
1050.00 0.7332
1050.10 0.7331
1050.20 0.7329
1050.30 0.7328
1050.40 0.7327
1050.50 0.7325
1050.60 0.7324
1050.70 0.7323
1050.80 0.7322
1050.90 0.732
1051.00 0.7319
1051.10 0.7318
1051.20 0.7316
1051.30 0.7315
1051.40 0.7314
1051.50 0.7313
1051.60 0.7311
1051.70 0.731
1051.80 0.7309
1051.90 0.7307
1052.00 0.7306
1052.10 0.7305
1052.20 0.7304
1052.30 0.7302
1052.40 0.7301
1052.50 0.73
1052.60 0.7298
1052.70 0.7297
1052.80 0.7296
1052.90 0.7295
1053.00 0.7293
1053.10 0.7292
1053.20 0.7291
1053.30 0.729
1053.40 0.7288
1053.50 0.7287
1053.60 0.7286
1053.70 0.7284
1053.80 0.7283
1053.90 0.7282
1054.00 0.7281
1054.10 0.7279
1054.20 0.7278
1054.30 0.7277
1054.40 0.7275
1054.50 0.7274
1054.60 0.7273
1054.70 0.7272
1054.80 0.727
1054.90 0.7269
1055.00 0.7268
1055.10 0.7267
1055.20 0.7265
1055.30 0.7264
1055.40 0.7263
1055.50 0.7261
1055.60 0.726
1055.70 0.7259
1055.80 0.7258
1055.90 0.7256
1056.00 0.7255
1056.10 0.7254
1056.20 0.7253
1056.30 0.7251
1056.40 0.725
1056.50 0.7249
1056.60 0.7248
1056.70 0.7246
1056.80 0.7245
1056.90 0.7244
1057.00 0.7242
1057.10 0.7241
1057.20 0.724
1057.30 0.7239
1057.40 0.7237
1057.50 0.7236
1057.60 0.7235
1057.70 0.7234
1057.80 0.7232
1057.90 0.7231
1058.00 0.723
1058.10 0.7229
1058.20 0.7227
1058.30 0.7226
1058.40 0.7225
1058.50 0.7224
1058.60 0.7222
1058.70 0.7221
1058.80 0.722
1058.90 0.7219
1059.00 0.7217
1059.10 0.7216
1059.20 0.7215
1059.30 0.7214
1059.40 0.7212
1059.50 0.7211
1059.60 0.721
1059.70 0.7209
1059.80 0.7207
1059.90 0.7206
1060.00 0.7205
1060.10 0.7204
1060.20 0.7202
1060.30 0.7201
1060.40 0.72
1060.50 0.7199
1060.60 0.7197
1060.70 0.7196
1060.80 0.7195
1060.90 0.7194
1061.00 0.7192
1061.10 0.7191
1061.20 0.719
1061.30 0.7189
1061.40 0.7188
1061.50 0.7186
1061.60 0.7185
1061.70 0.7184
1061.80 0.7183
1061.90 0.7181
1062.00 0.718
1062.10 0.7179
1062.20 0.7178
1062.30 0.7176
1062.40 0.7175
1062.50 0.7174
1062.60 0.7173
1062.70 0.7171
1062.80 0.717
1062.90 0.7169
1063.00 0.7168
1063.10 0.7166
1063.20 0.7165
1063.30 0.7164
1063.40 0.7163
1063.50 0.7161
1063.60 0.716
1063.70 0.7159
1063.80 0.7158
1063.90 0.7156
1064.00 0.7155
1064.10 0.7154
1064.20 0.7153
1064.30 0.7152
1064.40 0.715
1064.50 0.7149
1064.60 0.7148
1064.70 0.7147
1064.80 0.7145
1064.90 0.7144
1065.00 0.7143
1065.10 0.7142
1065.20 0.714
1065.30 0.7139
1065.40 0.7138
1065.50 0.7137
1065.60 0.7135
1065.70 0.7134
1065.80 0.7133
1065.90 0.7132
1066.00 0.7131
1066.10 0.7129
1066.20 0.7128
1066.30 0.7127
1066.40 0.7126
1066.50 0.7124
1066.60 0.7123
1066.70 0.7122
1066.80 0.7121
1066.90 0.712
1067.00 0.7118
1067.10 0.7117
1067.20 0.7116
1067.30 0.7115
1067.40 0.7113
1067.50 0.7112
1067.60 0.7111
1067.70 0.711
1067.80 0.7109
1067.90 0.7107
1068.00 0.7106
1068.10 0.7105
1068.20 0.7104
1068.30 0.7102
1068.40 0.7101
1068.50 0.71
1068.60 0.7099
1068.70 0.7098
1068.80 0.7096
1068.90 0.7095
1069.00 0.7094
1069.10 0.7093
1069.20 0.7092
1069.30 0.709
1069.40 0.7089
1069.50 0.7088
1069.60 0.7087
1069.70 0.7085
1069.80 0.7084
1069.90 0.7083
1070.00 0.7082
1070.10 0.7081
1070.20 0.7079
1070.30 0.7078
1070.40 0.7077
1070.50 0.7076
1070.60 0.7075
1070.70 0.7073
1070.80 0.7072
1070.90 0.7071
1071.00 0.707
1071.10 0.7069
1071.20 0.7067
1071.30 0.7066
1071.40 0.7065
1071.50 0.7064
1071.60 0.7063
1071.70 0.7061
1071.80 0.706
1071.90 0.7059
1072.00 0.7058
1072.10 0.7057
1072.20 0.7055
1072.30 0.7054
1072.40 0.7053
1072.50 0.7052
1072.60 0.705
1072.70 0.7049
1072.80 0.7048
1072.90 0.7047
1073.00 0.7046
1073.10 0.7044
1073.20 0.7043
1073.30 0.7042
1073.40 0.7041
1073.50 0.704
1073.60 0.7038
1073.70 0.7037
1073.80 0.7036
1073.90 0.7035
1074.00 0.7034
1074.10 0.7032
1074.20 0.7031
1074.30 0.703
1074.40 0.7029
1074.50 0.7028
1074.60 0.7026
1074.70 0.7025
1074.80 0.7024
1074.90 0.7023
1075.00 0.7022
1075.10 0.702
1075.20 0.7019
1075.30 0.7018
1075.40 0.7017
1075.50 0.7016
1075.60 0.7015
1075.70 0.7013
1075.80 0.7012
1075.90 0.7011
1076.00 0.701
1076.10 0.7009
1076.20 0.7007
1076.30 0.7006
1076.40 0.7005
1076.50 0.7004
1076.60 0.7003
1076.70 0.7001
1076.80 0.7
1076.90 0.6999
1077.00 0.6998
1077.10 0.6997
1077.20 0.6995
1077.30 0.6994
1077.40 0.6993
1077.50 0.6992
1077.60 0.6991
1077.70 0.6989
1077.80 0.6988
1077.90 0.6987
1078.00 0.6986
1078.10 0.6985
1078.20 0.6983
1078.30 0.6982
1078.40 0.6981
1078.50 0.698
1078.60 0.6979
1078.70 0.6977
1078.80 0.6976
1078.90 0.6975
1079.00 0.6974
1079.10 0.6973
1079.20 0.6972
1079.30 0.697
1079.40 0.6969
1079.50 0.6968
1079.60 0.6967
1079.70 0.6966
1079.80 0.6964
1079.90 0.6963
1080.00 0.6962
1080.10 0.6961
1080.20 0.696
1080.30 0.6959
1080.40 0.6957
1080.50 0.6956
1080.60 0.6955
1080.70 0.6954
1080.80 0.6953
1080.90 0.6951
1081.00 0.695
1081.10 0.6949
1081.20 0.6948
1081.30 0.6947
1081.40 0.6946
1081.50 0.6944
1081.60 0.6943
1081.70 0.6942
1081.80 0.6941
1081.90 0.694
1082.00 0.6939
1082.10 0.6937
1082.20 0.6936
1082.30 0.6935
1082.40 0.6934
1082.50 0.6933
1082.60 0.6931
1082.70 0.693
1082.80 0.6929
1082.90 0.6928
1083.00 0.6927
1083.10 0.6926
1083.20 0.6924
1083.30 0.6923
1083.40 0.6922
1083.50 0.6921
1083.60 0.692
1083.70 0.6919
1083.80 0.6917
1083.90 0.6916
1084.00 0.6915
1084.10 0.6914
1084.20 0.6913
1084.30 0.6912
1084.40 0.691
1084.50 0.6909
1084.60 0.6908
1084.70 0.6907
1084.80 0.6906
1084.90 0.6905
1085.00 0.6903
1085.10 0.6902
1085.20 0.6901
1085.30 0.69
1085.40 0.6899
1085.50 0.6898
1085.60 0.6896
1085.70 0.6895
1085.80 0.6894
1085.90 0.6893
1086.00 0.6892
1086.10 0.689
1086.20 0.6889
1086.30 0.6888
1086.40 0.6887
1086.50 0.6886
1086.60 0.6885
1086.70 0.6883
1086.80 0.6882
1086.90 0.6881
1087.00 0.688
1087.10 0.6879
1087.20 0.6878
1087.30 0.6877
1087.40 0.6875
1087.50 0.6874
1087.60 0.6873
1087.70 0.6872
1087.80 0.6871
1087.90 0.687
1088.00 0.6868
1088.10 0.6867
1088.20 0.6866
1088.30 0.6865
1088.40 0.6864
1088.50 0.6863
1088.60 0.6861
1088.70 0.686
1088.80 0.6859
1088.90 0.6858
1089.00 0.6857
1089.10 0.6856
1089.20 0.6854
1089.30 0.6853
1089.40 0.6852
1089.50 0.6851
1089.60 0.685
1089.70 0.6849
1089.80 0.6847
1089.90 0.6846
1090.00 0.6845
1090.10 0.6844
1090.20 0.6843
1090.30 0.6842
1090.40 0.6841
1090.50 0.6839
1090.60 0.6838
1090.70 0.6837
1090.80 0.6836
1090.90 0.6835
1091.00 0.6834
1091.10 0.6832
1091.20 0.6831
1091.30 0.683
1091.40 0.6829
1091.50 0.6828
1091.60 0.6827
1091.70 0.6826
1091.80 0.6824
1091.90 0.6823
1092.00 0.6822
1092.10 0.6821
1092.20 0.682
1092.30 0.6819
1092.40 0.6817
1092.50 0.6816
1092.60 0.6815
1092.70 0.6814
1092.80 0.6813
1092.90 0.6812
1093.00 0.6811
1093.10 0.681
1093.20 0.6808
1093.30 0.6807
1093.40 0.6806
1093.50 0.6805
1093.60 0.6804
1093.70 0.6803
1093.80 0.6801
1093.90 0.68
1094.00 0.6799
1094.10 0.6798
1094.20 0.6797
1094.30 0.6796
1094.40 0.6795
1094.50 0.6793
1094.60 0.6792
1094.70 0.6791
1094.80 0.679
1094.90 0.6789
1095.00 0.6788
1095.10 0.6787
1095.20 0.6785
1095.30 0.6784
1095.40 0.6783
1095.50 0.6782
1095.60 0.6781
1095.70 0.678
1095.80 0.6779
1095.90 0.6777
1096.00 0.6776
1096.10 0.6775
1096.20 0.6774
1096.30 0.6773
1096.40 0.6772
1096.50 0.6771
1096.60 0.6769
1096.70 0.6768
1096.80 0.6767
1096.90 0.6766
1097.00 0.6765
1097.10 0.6764
1097.20 0.6763
1097.30 0.6761
1097.40 0.676
1097.50 0.6759
1097.60 0.6758
1097.70 0.6757
1097.80 0.6756
1097.90 0.6755
1098.00 0.6753
1098.10 0.6752
1098.20 0.6751
1098.30 0.675
1098.40 0.6749
1098.50 0.6748
1098.60 0.6747
1098.70 0.6746
1098.80 0.6744
1098.90 0.6743
1099.00 0.6742
1099.10 0.6741
1099.20 0.674
1099.30 0.6739
1099.40 0.6738
1099.50 0.6736
1099.60 0.6735
1099.70 0.6734
1099.80 0.6733
1099.90 0.6732
1100.00 0.6731
1100.10 0.673
1100.20 0.6728
1100.30 0.6727
1100.40 0.6726
1100.50 0.6725
1100.60 0.6724
1100.70 0.6723
1100.80 0.6722
1100.90 0.672
1101.00 0.6719
1101.10 0.6718
1101.20 0.6717
1101.30 0.6716
1101.40 0.6715
1101.50 0.6714
1101.60 0.6712
1101.70 0.6711
1101.80 0.671
1101.90 0.6709
1102.00 0.6708
1102.10 0.6707
1102.20 0.6706
1102.30 0.6705
1102.40 0.6703
1102.50 0.6702
1102.60 0.6701
1102.70 0.67
1102.80 0.6699
1102.90 0.6698
1103.00 0.6697
1103.10 0.6696
1103.20 0.6694
1103.30 0.6693
1103.40 0.6692
1103.50 0.6691
1103.60 0.669
1103.70 0.6689
1103.80 0.6688
1103.90 0.6686
1104.00 0.6685
1104.10 0.6684
1104.20 0.6683
1104.30 0.6682
1104.40 0.6681
1104.50 0.668
1104.60 0.6679
1104.70 0.6677
1104.80 0.6676
1104.90 0.6675
1105.00 0.6674
1105.10 0.6673
1105.20 0.6672
1105.30 0.6671
1105.40 0.6669
1105.50 0.6668
1105.60 0.6667
1105.70 0.6666
1105.80 0.6665
1105.90 0.6664
1106.00 0.6663
1106.10 0.6662
1106.20 0.6661
1106.30 0.6659
1106.40 0.6658
1106.50 0.6657
1106.60 0.6656
1106.70 0.6655
1106.80 0.6654
1106.90 0.6653
1107.00 0.6652
1107.10 0.665
1107.20 0.6649
1107.30 0.6648
1107.40 0.6647
1107.50 0.6646
1107.60 0.6645
1107.70 0.6644
1107.80 0.6643
1107.90 0.6641
1108.00 0.664
1108.10 0.6639
1108.20 0.6638
1108.30 0.6637
1108.40 0.6636
1108.50 0.6635
1108.60 0.6634
1108.70 0.6632
1108.80 0.6631
1108.90 0.663
1109.00 0.6629
1109.10 0.6628
1109.20 0.6627
1109.30 0.6626
1109.40 0.6625
1109.50 0.6623
1109.60 0.6622
1109.70 0.6621
1109.80 0.662
1109.90 0.6619
1110.00 0.6618
1110.10 0.6617
1110.20 0.6616
1110.30 0.6615
1110.40 0.6613
1110.50 0.6612
1110.60 0.6611
1110.70 0.661
1110.80 0.6609
1110.90 0.6608
1111.00 0.6607
1111.10 0.6606
1111.20 0.6604
1111.30 0.6603
1111.40 0.6602
1111.50 0.6601
1111.60 0.66
1111.70 0.6599
1111.80 0.6598
1111.90 0.6597
1112.00 0.6596
1112.10 0.6594
1112.20 0.6593
1112.30 0.6592
1112.40 0.6591
1112.50 0.659
1112.60 0.6589
1112.70 0.6588
1112.80 0.6587
1112.90 0.6586
1113.00 0.6584
1113.10 0.6583
1113.20 0.6582
1113.30 0.6581
1113.40 0.658
1113.50 0.6579
1113.60 0.6578
1113.70 0.6577
1113.80 0.6576
1113.90 0.6574
1114.00 0.6573
1114.10 0.6572
1114.20 0.6571
1114.30 0.657
1114.40 0.6569
1114.50 0.6568
1114.60 0.6567
1114.70 0.6566
1114.80 0.6564
1114.90 0.6563
1115.00 0.6562
1115.10 0.6561
1115.20 0.656
1115.30 0.6559
1115.40 0.6558
1115.50 0.6557
1115.60 0.6556
1115.70 0.6554
1115.80 0.6553
1115.90 0.6552
1116.00 0.6551
1116.10 0.655
1116.20 0.6549
1116.30 0.6548
1116.40 0.6547
1116.50 0.6546
1116.60 0.6544
1116.70 0.6543
1116.80 0.6542
1116.90 0.6541
1117.00 0.654
1117.10 0.6539
1117.20 0.6538
1117.30 0.6537
1117.40 0.6536
1117.50 0.6535
1117.60 0.6533
1117.70 0.6532
1117.80 0.6531
1117.90 0.653
1118.00 0.6529
1118.10 0.6528
1118.20 0.6527
1118.30 0.6526
1118.40 0.6525
1118.50 0.6524
1118.60 0.6522
1118.70 0.6521
1118.80 0.652
1118.90 0.6519
1119.00 0.6518
1119.10 0.6517
1119.20 0.6516
1119.30 0.6515
1119.40 0.6514
1119.50 0.6513
1119.60 0.6511
1119.70 0.651
1119.80 0.6509
1119.90 0.6508
1120.00 0.6507
1120.10 0.6506
1120.20 0.6505
1120.30 0.6504
1120.40 0.6503
1120.50 0.6502
1120.60 0.65
1120.70 0.6499
1120.80 0.6498
1120.90 0.6497
1121.00 0.6496
1121.10 0.6495
1121.20 0.6494
1121.30 0.6493
1121.40 0.6492
1121.50 0.6491
1121.60 0.649
1121.70 0.6488
1121.80 0.6487
1121.90 0.6486
1122.00 0.6485
1122.10 0.6484
1122.20 0.6483
1122.30 0.6482
1122.40 0.6481
1122.50 0.648
1122.60 0.6479
1122.70 0.6477
1122.80 0.6476
1122.90 0.6475
1123.00 0.6474
1123.10 0.6473
1123.20 0.6472
1123.30 0.6471
1123.40 0.647
1123.50 0.6469
1123.60 0.6468
1123.70 0.6467
1123.80 0.6465
1123.90 0.6464
1124.00 0.6463
1124.10 0.6462
1124.20 0.6461
1124.30 0.646
1124.40 0.6459
1124.50 0.6458
1124.60 0.6457
1124.70 0.6456
1124.80 0.6454
1124.90 0.6453
1125.00 0.6452
1125.10 0.6451
1125.20 0.645
1125.30 0.6449
1125.40 0.6448
1125.50 0.6447
1125.60 0.6446
1125.70 0.6445
1125.80 0.6444
1125.90 0.6443
1126.00 0.6441
1126.10 0.644
1126.20 0.6439
1126.30 0.6438
1126.40 0.6437
1126.50 0.6436
1126.60 0.6435
1126.70 0.6434
1126.80 0.6433
1126.90 0.6432
1127.00 0.6431
1127.10 0.6429
1127.20 0.6428
1127.30 0.6427
1127.40 0.6426
1127.50 0.6425
1127.60 0.6424
1127.70 0.6423
1127.80 0.6422
1127.90 0.6421
1128.00 0.642
1128.10 0.6419
1128.20 0.6417
1128.30 0.6416
1128.40 0.6415
1128.50 0.6414
1128.60 0.6413
1128.70 0.6412
1128.80 0.6411
1128.90 0.641
1129.00 0.6409
1129.10 0.6408
1129.20 0.6407
1129.30 0.6405
1129.40 0.6404
1129.50 0.6403
1129.60 0.6402
1129.70 0.6401
1129.80 0.64
1129.90 0.6399
1130.00 0.6398
1130.10 0.6397
1130.20 0.6396
1130.30 0.6395
1130.40 0.6394
1130.50 0.6392
1130.60 0.6391
1130.70 0.639
1130.80 0.6389
1130.90 0.6388
1131.00 0.6387
1131.10 0.6386
1131.20 0.6385
1131.30 0.6384
1131.40 0.6383
1131.50 0.6382
1131.60 0.6381
1131.70 0.6379
1131.80 0.6378
1131.90 0.6377
1132.00 0.6376
1132.10 0.6375
1132.20 0.6374
1132.30 0.6373
1132.40 0.6372
1132.50 0.6371
1132.60 0.637
1132.70 0.6369
1132.80 0.6367
1132.90 0.6366
1133.00 0.6365
1133.10 0.6364
1133.20 0.6363
1133.30 0.6362
1133.40 0.6361
1133.50 0.636
1133.60 0.6359
1133.70 0.6358
1133.80 0.6357
1133.90 0.6356
1134.00 0.6354
1134.10 0.6353
1134.20 0.6352
1134.30 0.6351
1134.40 0.635
1134.50 0.6349
1134.60 0.6348
1134.70 0.6347
1134.80 0.6346
1134.90 0.6345
1135.00 0.6344
1135.10 0.6343
1135.20 0.6342
1135.30 0.634
1135.40 0.6339
1135.50 0.6338
1135.60 0.6337
1135.70 0.6336
1135.80 0.6335
1135.90 0.6334
1136.00 0.6333
1136.10 0.6332
1136.20 0.6331
1136.30 0.633
1136.40 0.6329
1136.50 0.6328
1136.60 0.6326
1136.70 0.6325
1136.80 0.6324
1136.90 0.6323
1137.00 0.6322
1137.10 0.6321
1137.20 0.632
1137.30 0.6319
1137.40 0.6318
1137.50 0.6317
1137.60 0.6316
1137.70 0.6315
1137.80 0.6313
1137.90 0.6312
1138.00 0.6311
1138.10 0.631
1138.20 0.6309
1138.30 0.6308
1138.40 0.6307
1138.50 0.6306
1138.60 0.6305
1138.70 0.6304
1138.80 0.6303
1138.90 0.6302
1139.00 0.6301
1139.10 0.6299
1139.20 0.6298
1139.30 0.6297
1139.40 0.6296
1139.50 0.6295
1139.60 0.6294
1139.70 0.6293
1139.80 0.6292
1139.90 0.6291
1140.00 0.629
1140.10 0.6289
1140.20 0.6288
1140.30 0.6287
1140.40 0.6285
1140.50 0.6284
1140.60 0.6283
1140.70 0.6282
1140.80 0.6281
1140.90 0.628
1141.00 0.6279
1141.10 0.6278
1141.20 0.6277
1141.30 0.6276
1141.40 0.6275
1141.50 0.6274
1141.60 0.6273
1141.70 0.6272
1141.80 0.627
1141.90 0.6269
1142.00 0.6268
1142.10 0.6267
1142.20 0.6266
1142.30 0.6265
1142.40 0.6264
1142.50 0.6263
1142.60 0.6262
1142.70 0.6261
1142.80 0.626
1142.90 0.6259
1143.00 0.6258
1143.10 0.6256
1143.20 0.6255
1143.30 0.6254
1143.40 0.6253
1143.50 0.6252
1143.60 0.6251
1143.70 0.625
1143.80 0.6249
1143.90 0.6248
1144.00 0.6247
1144.10 0.6246
1144.20 0.6245
1144.30 0.6244
1144.40 0.6243
1144.50 0.6241
1144.60 0.624
1144.70 0.6239
1144.80 0.6238
1144.90 0.6237
1145.00 0.6236
1145.10 0.6235
1145.20 0.6234
1145.30 0.6233
1145.40 0.6232
1145.50 0.6231
1145.60 0.623
1145.70 0.6229
1145.80 0.6228
1145.90 0.6227
1146.00 0.6225
1146.10 0.6224
1146.20 0.6223
1146.30 0.6222
1146.40 0.6221
1146.50 0.622
1146.60 0.6219
1146.70 0.6218
1146.80 0.6217
1146.90 0.6216
1147.00 0.6215
1147.10 0.6214
1147.20 0.6213
1147.30 0.6212
1147.40 0.621
1147.50 0.6209
1147.60 0.6208
1147.70 0.6207
1147.80 0.6206
1147.90 0.6205
1148.00 0.6204
1148.10 0.6203
1148.20 0.6202
1148.30 0.6201
1148.40 0.62
1148.50 0.6199
1148.60 0.6198
1148.70 0.6197
1148.80 0.6195
1148.90 0.6194
1149.00 0.6193
1149.10 0.6192
1149.20 0.6191
1149.30 0.619
1149.40 0.6189
1149.50 0.6188
1149.60 0.6187
1149.70 0.6186
1149.80 0.6185
1149.90 0.6184
1150.00 0.6183
1150.10 0.6182
1150.20 0.618
1150.30 0.6179
1150.40 0.6178
1150.50 0.6177
1150.60 0.6176
1150.70 0.6175
1150.80 0.6174
1150.90 0.6173
1151.00 0.6172
1151.10 0.6171
1151.20 0.617
1151.30 0.6169
1151.40 0.6168
1151.50 0.6167
1151.60 0.6166
1151.70 0.6164
1151.80 0.6163
1151.90 0.6162
1152.00 0.6161
1152.10 0.616
1152.20 0.6159
1152.30 0.6158
1152.40 0.6157
1152.50 0.6156
1152.60 0.6155
1152.70 0.6154
1152.80 0.6153
1152.90 0.6152
1153.00 0.6151
1153.10 0.615
1153.20 0.6148
1153.30 0.6147
1153.40 0.6146
1153.50 0.6145
1153.60 0.6144
1153.70 0.6143
1153.80 0.6142
1153.90 0.6141
1154.00 0.614
1154.10 0.6139
1154.20 0.6138
1154.30 0.6137
1154.40 0.6136
1154.50 0.6135
1154.60 0.6134
1154.70 0.6133
1154.80 0.6131
1154.90 0.613
1155.00 0.6129
1155.10 0.6128
1155.20 0.6127
1155.30 0.6126
1155.40 0.6125
1155.50 0.6124
1155.60 0.6123
1155.70 0.6122
1155.80 0.6121
1155.90 0.612
1156.00 0.6119
1156.10 0.6118
1156.20 0.6117
1156.30 0.6116
1156.40 0.6115
1156.50 0.6113
1156.60 0.6112
1156.70 0.6111
1156.80 0.611
1156.90 0.6109
1157.00 0.6108
1157.10 0.6107
1157.20 0.6106
1157.30 0.6105
1157.40 0.6104
1157.50 0.6103
1157.60 0.6102
1157.70 0.6101
1157.80 0.61
1157.90 0.6099
1158.00 0.6097
1158.10 0.6096
1158.20 0.6095
1158.30 0.6094
1158.40 0.6093
1158.50 0.6092
1158.60 0.6091
1158.70 0.609
1158.80 0.6089
1158.90 0.6088
1159.00 0.6087
1159.10 0.6086
1159.20 0.6085
1159.30 0.6084
1159.40 0.6083
1159.50 0.6082
1159.60 0.608
1159.70 0.6079
1159.80 0.6078
1159.90 0.6077
1160.00 0.6076
1160.10 0.6075
1160.20 0.6074
1160.30 0.6073
1160.40 0.6072
1160.50 0.6071
1160.60 0.607
1160.70 0.6069
1160.80 0.6068
1160.90 0.6067
1161.00 0.6066
1161.10 0.6065
1161.20 0.6064
1161.30 0.6062
1161.40 0.6061
1161.50 0.606
1161.60 0.6059
1161.70 0.6058
1161.80 0.6057
1161.90 0.6056
1162.00 0.6055
1162.10 0.6054
1162.20 0.6053
1162.30 0.6052
1162.40 0.6051
1162.50 0.605
1162.60 0.6049
1162.70 0.6048
1162.80 0.6047
1162.90 0.6045
1163.00 0.6044
1163.10 0.6043
1163.20 0.6042
1163.30 0.6041
1163.40 0.604
1163.50 0.6039
1163.60 0.6038
1163.70 0.6037
1163.80 0.6036
1163.90 0.6035
1164.00 0.6034
1164.10 0.6033
1164.20 0.6032
1164.30 0.6031
1164.40 0.6029
1164.50 0.6028
1164.60 0.6027
1164.70 0.6026
1164.80 0.6025
1164.90 0.6024
1165.00 0.6023
1165.10 0.6022
1165.20 0.6021
1165.30 0.602
1165.40 0.6019
1165.50 0.6018
1165.60 0.6017
1165.70 0.6016
1165.80 0.6015
1165.90 0.6014
1166.00 0.6013
1166.10 0.6011
1166.20 0.601
1166.30 0.6009
1166.40 0.6008
1166.50 0.6007
1166.60 0.6006
1166.70 0.6005
1166.80 0.6004
1166.90 0.6003
1167.00 0.6002
1167.10 0.6001
1167.20 0.6
1167.30 0.5999
1167.40 0.5998
1167.50 0.5997
1167.60 0.5996
1167.70 0.5994
1167.80 0.5993
1167.90 0.5992
1168.00 0.5991
1168.10 0.599
1168.20 0.5989
1168.30 0.5988
1168.40 0.5987
1168.50 0.5986
1168.60 0.5985
1168.70 0.5984
1168.80 0.5983
1168.90 0.5982
1169.00 0.5981
1169.10 0.598
1169.20 0.5979
1169.30 0.5978
1169.40 0.5976
1169.50 0.5975
1169.60 0.5974
1169.70 0.5973
1169.80 0.5972
1169.90 0.5971
1170.00 0.597
1170.10 0.5969
1170.20 0.5968
1170.30 0.5967
1170.40 0.5966
1170.50 0.5965
1170.60 0.5964
1170.70 0.5963
1170.80 0.5962
1170.90 0.5961
1171.00 0.596
1171.10 0.5959
1171.20 0.5957
1171.30 0.5956
1171.40 0.5955
1171.50 0.5954
1171.60 0.5953
1171.70 0.5952
1171.80 0.5951
1171.90 0.595
1172.00 0.5949
1172.10 0.5948
1172.20 0.5947
1172.30 0.5946
1172.40 0.5945
1172.50 0.5944
1172.60 0.5943
1172.70 0.5942
1172.80 0.5941
1172.90 0.5939
1173.00 0.5938
1173.10 0.5937
1173.20 0.5936
1173.30 0.5935
1173.40 0.5934
1173.50 0.5933
1173.60 0.5932
1173.70 0.5931
1173.80 0.593
1173.90 0.5929
1174.00 0.5928
1174.10 0.5927
1174.20 0.5926
1174.30 0.5925
1174.40 0.5924
1174.50 0.5923
1174.60 0.5922
1174.70 0.592
1174.80 0.5919
1174.90 0.5918
1175.00 0.5917
1175.10 0.5916
1175.20 0.5915
1175.30 0.5914
1175.40 0.5913
1175.50 0.5912
1175.60 0.5911
1175.70 0.591
1175.80 0.5909
1175.90 0.5908
1176.00 0.5907
1176.10 0.5906
1176.20 0.5905
1176.30 0.5904
1176.40 0.5903
1176.50 0.5902
1176.60 0.5901
1176.70 0.5899
1176.80 0.5898
1176.90 0.5897
1177.00 0.5896
1177.10 0.5895
1177.20 0.5894
1177.30 0.5893
1177.40 0.5892
1177.50 0.5891
1177.60 0.589
1177.70 0.5889
1177.80 0.5888
1177.90 0.5887
1178.00 0.5886
1178.10 0.5885
1178.20 0.5884
1178.30 0.5883
1178.40 0.5881
1178.50 0.588
1178.60 0.5879
1178.70 0.5878
1178.80 0.5877
1178.90 0.5876
1179.00 0.5875
1179.10 0.5874
1179.20 0.5873
1179.30 0.5872
1179.40 0.5871
1179.50 0.587
1179.60 0.5869
1179.70 0.5868
1179.80 0.5867
1179.90 0.5866
1180.00 0.5865
1180.10 0.5864
1180.20 0.5863
1180.30 0.5861
1180.40 0.586
1180.50 0.5859
1180.60 0.5858
1180.70 0.5857
1180.80 0.5856
1180.90 0.5855
1181.00 0.5854
1181.10 0.5853
1181.20 0.5852
1181.30 0.5851
1181.40 0.585
1181.50 0.5849
1181.60 0.5848
1181.70 0.5847
1181.80 0.5846
1181.90 0.5845
1182.00 0.5844
1182.10 0.5843
1182.20 0.5842
1182.30 0.584
1182.40 0.5839
1182.50 0.5838
1182.60 0.5837
1182.70 0.5836
1182.80 0.5835
1182.90 0.5834
1183.00 0.5833
1183.10 0.5832
1183.20 0.5831
1183.30 0.583
1183.40 0.5829
1183.50 0.5828
1183.60 0.5827
1183.70 0.5826
1183.80 0.5825
1183.90 0.5824
1184.00 0.5823
1184.10 0.5821
1184.20 0.582
1184.30 0.5819
1184.40 0.5818
1184.50 0.5817
1184.60 0.5816
1184.70 0.5815
1184.80 0.5814
1184.90 0.5813
1185.00 0.5812
1185.10 0.5811
1185.20 0.581
1185.30 0.5809
1185.40 0.5808
1185.50 0.5807
1185.60 0.5806
1185.70 0.5805
1185.80 0.5804
1185.90 0.5803
1186.00 0.5802
1186.10 0.5801
1186.20 0.5799
1186.30 0.5798
1186.40 0.5797
1186.50 0.5796
1186.60 0.5795
1186.70 0.5794
1186.80 0.5793
1186.90 0.5792
1187.00 0.5791
1187.10 0.579
1187.20 0.5789
1187.30 0.5788
1187.40 0.5787
1187.50 0.5786
1187.60 0.5785
1187.70 0.5784
1187.80 0.5783
1187.90 0.5782
1188.00 0.5781
1188.10 0.578
1188.20 0.5778
1188.30 0.5777
1188.40 0.5776
1188.50 0.5775
1188.60 0.5774
1188.70 0.5773
1188.80 0.5772
1188.90 0.5771
1189.00 0.577
1189.10 0.5769
1189.20 0.5768
1189.30 0.5767
1189.40 0.5766
1189.50 0.5765
1189.60 0.5764
1189.70 0.5763
1189.80 0.5762
1189.90 0.5761
1190.00 0.576
1190.10 0.5759
1190.20 0.5757
1190.30 0.5756
1190.40 0.5755
1190.50 0.5754
1190.60 0.5753
1190.70 0.5752
1190.80 0.5751
1190.90 0.575
1191.00 0.5749
1191.10 0.5748
1191.20 0.5747
1191.30 0.5746
1191.40 0.5745
1191.50 0.5744
1191.60 0.5743
1191.70 0.5742
1191.80 0.5741
1191.90 0.574
1192.00 0.5739
1192.10 0.5738
1192.20 0.5737
1192.30 0.5736
1192.40 0.5734
1192.50 0.5733
1192.60 0.5732
1192.70 0.5731
1192.80 0.573
1192.90 0.5729
1193.00 0.5728
1193.10 0.5727
1193.20 0.5726
1193.30 0.5725
1193.40 0.5724
1193.50 0.5723
1193.60 0.5722
1193.70 0.5721
1193.80 0.572
1193.90 0.5719
1194.00 0.5718
1194.10 0.5717
1194.20 0.5716
1194.30 0.5715
1194.40 0.5714
1194.50 0.5713
1194.60 0.5711
1194.70 0.571
1194.80 0.5709
1194.90 0.5708
1195.00 0.5707
1195.10 0.5706
1195.20 0.5705
1195.30 0.5704
1195.40 0.5703
1195.50 0.5702
1195.60 0.5701
1195.70 0.57
1195.80 0.5699
1195.90 0.5698
1196.00 0.5697
1196.10 0.5696
1196.20 0.5695
1196.30 0.5694
1196.40 0.5693
1196.50 0.5692
1196.60 0.5691
1196.70 0.569
1196.80 0.5689
1196.90 0.5688
1197.00 0.5687
1197.10 0.5686
1197.20 0.5684
1197.30 0.5683
1197.40 0.5682
1197.50 0.5681
1197.60 0.568
1197.70 0.5679
1197.80 0.5678
1197.90 0.5677
1198.00 0.5676
1198.10 0.5675
1198.20 0.5674
1198.30 0.5673
1198.40 0.5672
1198.50 0.5671
1198.60 0.567
1198.70 0.5669
1198.80 0.5668
1198.90 0.5667
1199.00 0.5666
1199.10 0.5665
1199.20 0.5664
1199.30 0.5663
1199.40 0.5661
1199.50 0.566
1199.60 0.5659
1199.70 0.5658
1199.80 0.5657
1199.90 0.5656
1200.00 0
