# Version 2.1 - nm, norm@500 to 1, cut digits, bergeron_6500_65.dat_6500
# Wavelength(nm)  Flambda(ergs/cm^s/s/nm)
300.00 0.9073
300.10 0.9077
300.20 0.908
300.30 0.9084
300.40 0.9088
300.50 0.9092
300.60 0.9095
300.70 0.9099
300.80 0.9103
300.90 0.9106
301.00 0.911
301.10 0.9114
301.20 0.9117
301.30 0.9121
301.40 0.9124
301.50 0.9128
301.60 0.9132
301.70 0.9135
301.80 0.9139
301.90 0.9142
302.00 0.9146
302.10 0.915
302.20 0.9153
302.30 0.9157
302.40 0.916
302.50 0.9164
302.60 0.9168
302.70 0.9171
302.80 0.9175
302.90 0.9178
303.00 0.9182
303.10 0.9185
303.20 0.9189
303.30 0.9193
303.40 0.9196
303.50 0.92
303.60 0.9203
303.70 0.9207
303.80 0.921
303.90 0.9214
304.00 0.9217
304.10 0.9221
304.20 0.9224
304.30 0.9228
304.40 0.9231
304.50 0.9235
304.60 0.9238
304.70 0.9242
304.80 0.9245
304.90 0.9249
305.00 0.9252
305.10 0.9256
305.20 0.9259
305.30 0.9262
305.40 0.9266
305.50 0.9269
305.60 0.9273
305.70 0.9276
305.80 0.9279
305.90 0.9283
306.00 0.9286
306.10 0.929
306.20 0.9293
306.30 0.9296
306.40 0.93
306.50 0.9303
306.60 0.9307
306.70 0.931
306.80 0.9313
306.90 0.9317
307.00 0.932
307.10 0.9323
307.20 0.9327
307.30 0.933
307.40 0.9333
307.50 0.9337
307.60 0.934
307.70 0.9343
307.80 0.9347
307.90 0.935
308.00 0.9353
308.10 0.9356
308.20 0.936
308.30 0.9363
308.40 0.9366
308.50 0.937
308.60 0.9373
308.70 0.9376
308.80 0.9379
308.90 0.9383
309.00 0.9386
309.10 0.9389
309.20 0.9393
309.30 0.9396
309.40 0.9399
309.50 0.9402
309.60 0.9405
309.70 0.9409
309.80 0.9412
309.90 0.9415
310.00 0.9418
310.10 0.9422
310.20 0.9425
310.30 0.9428
310.40 0.9431
310.50 0.9434
310.60 0.9437
310.70 0.9441
310.80 0.9444
310.90 0.9447
311.00 0.945
311.10 0.9453
311.20 0.9456
311.30 0.9459
311.40 0.9462
311.50 0.9466
311.60 0.9469
311.70 0.9472
311.80 0.9475
311.90 0.9478
312.00 0.9481
312.10 0.9484
312.20 0.9487
312.30 0.949
312.40 0.9494
312.50 0.9497
312.60 0.95
312.70 0.9503
312.80 0.9506
312.90 0.9509
313.00 0.9512
313.10 0.9515
313.20 0.9518
313.30 0.9521
313.40 0.9524
313.50 0.9527
313.60 0.953
313.70 0.9533
313.80 0.9536
313.90 0.9539
314.00 0.9542
314.10 0.9545
314.20 0.9548
314.30 0.9551
314.40 0.9554
314.50 0.9557
314.60 0.956
314.70 0.9563
314.80 0.9566
314.90 0.9569
315.00 0.9572
315.10 0.9575
315.20 0.9578
315.30 0.9581
315.40 0.9584
315.50 0.9586
315.60 0.9589
315.70 0.9592
315.80 0.9595
315.90 0.9598
316.00 0.9601
316.10 0.9604
316.20 0.9607
316.30 0.961
316.40 0.9613
316.50 0.9615
316.60 0.9618
316.70 0.9621
316.80 0.9624
316.90 0.9627
317.00 0.963
317.10 0.9633
317.20 0.9635
317.30 0.9638
317.40 0.9641
317.50 0.9644
317.60 0.9647
317.70 0.9649
317.80 0.9652
317.90 0.9655
318.00 0.9658
318.10 0.9661
318.20 0.9664
318.30 0.9666
318.40 0.9669
318.50 0.9672
318.60 0.9675
318.70 0.9677
318.80 0.968
318.90 0.9683
319.00 0.9686
319.10 0.9688
319.20 0.9691
319.30 0.9694
319.40 0.9697
319.50 0.9699
319.60 0.9702
319.70 0.9705
319.80 0.9708
319.90 0.971
320.00 0.9713
320.10 0.9716
320.20 0.9718
320.30 0.9721
320.40 0.9724
320.50 0.9726
320.60 0.9729
320.70 0.9732
320.80 0.9735
320.90 0.9737
321.00 0.974
321.10 0.9742
321.20 0.9745
321.30 0.9748
321.40 0.975
321.50 0.9753
321.60 0.9756
321.70 0.9758
321.80 0.9761
321.90 0.9764
322.00 0.9766
322.10 0.9769
322.20 0.9771
322.30 0.9774
322.40 0.9777
322.50 0.9779
322.60 0.9782
322.70 0.9784
322.80 0.9787
322.90 0.9789
323.00 0.9792
323.10 0.9795
323.20 0.9797
323.30 0.98
323.40 0.9802
323.50 0.9805
323.60 0.9807
323.70 0.981
323.80 0.9812
323.90 0.9815
324.00 0.9817
324.10 0.982
324.20 0.9822
324.30 0.9825
324.40 0.9827
324.50 0.983
324.60 0.9832
324.70 0.9835
324.80 0.9837
324.90 0.984
325.00 0.9842
325.10 0.9845
325.20 0.9847
325.30 0.985
325.40 0.9852
325.50 0.9854
325.60 0.9857
325.70 0.9859
325.80 0.9862
325.90 0.9864
326.00 0.9867
326.10 0.9869
326.20 0.9871
326.30 0.9874
326.40 0.9876
326.50 0.9879
326.60 0.9881
326.70 0.9883
326.80 0.9886
326.90 0.9888
327.00 0.9891
327.10 0.9893
327.20 0.9895
327.30 0.9898
327.40 0.99
327.50 0.9902
327.60 0.9905
327.70 0.9907
327.80 0.9909
327.90 0.9912
328.00 0.9914
328.10 0.9916
328.20 0.9919
328.30 0.9921
328.40 0.9923
328.50 0.9926
328.60 0.9928
328.70 0.993
328.80 0.9932
328.90 0.9935
329.00 0.9937
329.10 0.9939
329.20 0.9942
329.30 0.9944
329.40 0.9946
329.50 0.9948
329.60 0.9951
329.70 0.9953
329.80 0.9955
329.90 0.9957
330.00 0.9959
330.10 0.9962
330.20 0.9964
330.30 0.9966
330.40 0.9968
330.50 0.997
330.60 0.9973
330.70 0.9975
330.80 0.9977
330.90 0.9979
331.00 0.9981
331.10 0.9984
331.20 0.9986
331.30 0.9988
331.40 0.999
331.50 0.9992
331.60 0.9994
331.70 0.9997
331.80 0.9999
331.90 1
332.00 1
332.10 1.001
332.20 1.001
332.30 1.001
332.40 1.001
332.50 1.001
332.60 1.002
332.70 1.002
332.80 1.002
332.90 1.002
333.00 1.002
333.10 1.003
333.20 1.003
333.30 1.003
333.40 1.003
333.50 1.003
333.60 1.004
333.70 1.004
333.80 1.004
333.90 1.004
334.00 1.004
334.10 1.005
334.20 1.005
334.30 1.005
334.40 1.005
334.50 1.006
334.60 1.006
334.70 1.006
334.80 1.006
334.90 1.006
335.00 1.007
335.10 1.007
335.20 1.007
335.30 1.007
335.40 1.007
335.50 1.008
335.60 1.008
335.70 1.008
335.80 1.008
335.90 1.008
336.00 1.008
336.10 1.009
336.20 1.009
336.30 1.009
336.40 1.009
336.50 1.009
336.60 1.01
336.70 1.01
336.80 1.01
336.90 1.01
337.00 1.01
337.10 1.011
337.20 1.011
337.30 1.011
337.40 1.011
337.50 1.011
337.60 1.012
337.70 1.012
337.80 1.012
337.90 1.012
338.00 1.012
338.10 1.013
338.20 1.013
338.30 1.013
338.40 1.013
338.50 1.013
338.60 1.013
338.70 1.014
338.80 1.014
338.90 1.014
339.00 1.014
339.10 1.014
339.20 1.015
339.30 1.015
339.40 1.015
339.50 1.015
339.60 1.015
339.70 1.015
339.80 1.016
339.90 1.016
340.00 1.016
340.10 1.016
340.20 1.016
340.30 1.017
340.40 1.017
340.50 1.017
340.60 1.017
340.70 1.017
340.80 1.017
340.90 1.018
341.00 1.018
341.10 1.018
341.20 1.018
341.30 1.018
341.40 1.018
341.50 1.019
341.60 1.019
341.70 1.019
341.80 1.019
341.90 1.019
342.00 1.019
342.10 1.02
342.20 1.02
342.30 1.02
342.40 1.02
342.50 1.02
342.60 1.02
342.70 1.021
342.80 1.021
342.90 1.021
343.00 1.021
343.10 1.021
343.20 1.021
343.30 1.022
343.40 1.022
343.50 1.022
343.60 1.022
343.70 1.022
343.80 1.022
343.90 1.023
344.00 1.023
344.10 1.023
344.20 1.023
344.30 1.023
344.40 1.023
344.50 1.024
344.60 1.024
344.70 1.024
344.80 1.024
344.90 1.024
345.00 1.024
345.10 1.025
345.20 1.025
345.30 1.025
345.40 1.025
345.50 1.025
345.60 1.025
345.70 1.025
345.80 1.026
345.90 1.026
346.00 1.026
346.10 1.026
346.20 1.026
346.30 1.026
346.40 1.027
346.50 1.027
346.60 1.027
346.70 1.027
346.80 1.027
346.90 1.027
347.00 1.027
347.10 1.028
347.20 1.028
347.30 1.028
347.40 1.028
347.50 1.028
347.60 1.028
347.70 1.028
347.80 1.029
347.90 1.029
348.00 1.029
348.10 1.029
348.20 1.029
348.30 1.029
348.40 1.029
348.50 1.03
348.60 1.03
348.70 1.03
348.80 1.03
348.90 1.03
349.00 1.03
349.10 1.03
349.20 1.031
349.30 1.031
349.40 1.031
349.50 1.031
349.60 1.031
349.70 1.031
349.80 1.031
349.90 1.032
350.00 1.032
350.10 1.032
350.20 1.032
350.30 1.032
350.40 1.032
350.50 1.032
350.60 1.032
350.70 1.033
350.80 1.033
350.90 1.033
351.00 1.033
351.10 1.033
351.20 1.033
351.30 1.033
351.40 1.034
351.50 1.034
351.60 1.034
351.70 1.034
351.80 1.034
351.90 1.034
352.00 1.034
352.10 1.034
352.20 1.035
352.30 1.035
352.40 1.035
352.50 1.035
352.60 1.035
352.70 1.035
352.80 1.035
352.90 1.035
353.00 1.036
353.10 1.036
353.20 1.036
353.30 1.036
353.40 1.036
353.50 1.036
353.60 1.036
353.70 1.036
353.80 1.037
353.90 1.037
354.00 1.037
354.10 1.037
354.20 1.037
354.30 1.037
354.40 1.037
354.50 1.037
354.60 1.038
354.70 1.038
354.80 1.038
354.90 1.038
355.00 1.038
355.10 1.038
355.20 1.038
355.30 1.038
355.40 1.038
355.50 1.039
355.60 1.039
355.70 1.039
355.80 1.039
355.90 1.039
356.00 1.039
356.10 1.039
356.20 1.039
356.30 1.039
356.40 1.04
356.50 1.04
356.60 1.04
356.70 1.04
356.80 1.04
356.90 1.04
357.00 1.04
357.10 1.04
357.20 1.04
357.30 1.041
357.40 1.041
357.50 1.041
357.60 1.041
357.70 1.041
357.80 1.041
357.90 1.041
358.00 1.041
358.10 1.041
358.20 1.042
358.30 1.042
358.40 1.042
358.50 1.042
358.60 1.042
358.70 1.042
358.80 1.042
358.90 1.042
359.00 1.042
359.10 1.042
359.20 1.043
359.30 1.043
359.40 1.043
359.50 1.043
359.60 1.043
359.70 1.043
359.80 1.043
359.90 1.043
360.00 1.043
360.10 1.043
360.20 1.043
360.30 1.044
360.40 1.044
360.50 1.044
360.60 1.044
360.70 1.044
360.80 1.044
360.90 1.044
361.00 1.044
361.10 1.044
361.20 1.044
361.30 1.045
361.40 1.045
361.50 1.045
361.60 1.045
361.70 1.045
361.80 1.045
361.90 1.045
362.00 1.045
362.10 1.045
362.20 1.045
362.30 1.045
362.40 1.046
362.50 1.046
362.60 1.046
362.70 1.046
362.80 1.046
362.90 1.046
363.00 1.046
363.10 1.046
363.20 1.046
363.30 1.046
363.40 1.046
363.50 1.046
363.60 1.047
363.70 1.047
363.80 1.047
363.90 1.047
364.00 1.047
364.10 1.047
364.20 1.047
364.30 1.047
364.40 1.047
364.50 1.047
364.60 1.047
364.70 1.047
364.80 1.048
364.90 1.048
365.00 1.048
365.10 1.048
365.20 1.048
365.30 1.048
365.40 1.048
365.50 1.048
365.60 1.048
365.70 1.048
365.80 1.048
365.90 1.048
366.00 1.048
366.10 1.048
366.20 1.049
366.30 1.049
366.40 1.049
366.50 1.049
366.60 1.049
366.70 1.049
366.80 1.049
366.90 1.049
367.00 1.049
367.10 1.049
367.20 1.049
367.30 1.049
367.40 1.049
367.50 1.05
367.60 1.05
367.70 1.05
367.80 1.05
367.90 1.05
368.00 1.05
368.10 1.05
368.20 1.05
368.30 1.05
368.40 1.05
368.50 1.05
368.60 1.05
368.70 1.05
368.80 1.05
368.90 1.05
369.00 1.051
369.10 1.051
369.20 1.051
369.30 1.051
369.40 1.051
369.50 1.051
369.60 1.051
369.70 1.051
369.80 1.051
369.90 1.051
370.00 1.051
370.10 1.052
370.20 1.052
370.30 1.053
370.40 1.054
370.50 1.054
370.60 1.055
370.70 1.056
370.80 1.057
370.90 1.057
371.00 1.058
371.10 1.059
371.20 1.059
371.30 1.06
371.40 1.06
371.50 1.061
371.60 1.062
371.70 1.062
371.80 1.063
371.90 1.064
372.00 1.064
372.10 1.065
372.20 1.066
372.30 1.067
372.40 1.068
372.50 1.068
372.60 1.069
372.70 1.07
372.80 1.071
372.90 1.072
373.00 1.072
373.10 1.073
373.20 1.074
373.30 1.075
373.40 1.076
373.50 1.076
373.60 1.077
373.70 1.078
373.80 1.079
373.90 1.08
374.00 1.08
374.10 1.081
374.20 1.082
374.30 1.082
374.40 1.083
374.50 1.084
374.60 1.084
374.70 1.085
374.80 1.086
374.90 1.086
375.00 1.087
375.10 1.088
375.20 1.088
375.30 1.089
375.40 1.089
375.50 1.09
375.60 1.091
375.70 1.091
375.80 1.092
375.90 1.093
376.00 1.093
376.10 1.094
376.20 1.094
376.30 1.095
376.40 1.095
376.50 1.095
376.60 1.096
376.70 1.096
376.80 1.097
376.90 1.097
377.00 1.098
377.10 1.098
377.20 1.098
377.30 1.098
377.40 1.098
377.50 1.098
377.60 1.098
377.70 1.098
377.80 1.099
377.90 1.099
378.00 1.099
378.10 1.097
378.20 1.096
378.30 1.094
378.40 1.092
378.50 1.091
378.60 1.089
378.70 1.087
378.80 1.086
378.90 1.084
379.00 1.083
379.10 1.075
379.20 1.068
379.30 1.06
379.40 1.053
379.50 1.045
379.60 1.038
379.70 1.031
379.80 1.023
379.90 1.016
380.00 1.008
380.10 1.018
380.20 1.027
380.30 1.036
380.40 1.045
380.50 1.054
380.60 1.063
380.70 1.072
380.80 1.081
380.90 1.09
381.00 1.099
381.10 1.1
381.20 1.101
381.30 1.102
381.40 1.103
381.50 1.104
381.60 1.104
381.70 1.105
381.80 1.104
381.90 1.104
382.00 1.104
382.10 1.103
382.20 1.102
382.30 1.093
382.40 1.085
382.50 1.077
382.60 1.069
382.70 1.061
382.80 1.053
382.90 1.045
383.00 1.037
383.10 1.029
383.20 1.02
383.30 0.9862
383.40 0.9313
383.50 0.8065
383.60 0.8504
383.70 0.9467
383.80 0.9958
383.90 1.027
384.00 1.049
384.10 1.064
384.20 1.075
384.30 1.084
384.40 1.09
384.50 1.095
384.60 1.099
384.70 1.102
384.80 1.105
384.90 1.107
385.00 1.108
385.10 1.109
385.20 1.11
385.30 1.111
385.40 1.112
385.50 1.113
385.60 1.113
385.70 1.113
385.80 1.114
385.90 1.114
386.00 1.114
386.10 1.114
386.20 1.114
386.30 1.114
386.40 1.114
386.50 1.114
386.60 1.114
386.70 1.114
386.80 1.114
386.90 1.113
387.00 1.113
387.10 1.112
387.20 1.112
387.30 1.111
387.40 1.11
387.50 1.108
387.60 1.106
387.70 1.104
387.80 1.101
387.90 1.097
388.00 1.092
388.10 1.085
388.20 1.076
388.30 1.065
388.40 1.047
388.50 1.022
388.60 0.9898
388.70 0.9264
388.80 0.7877
388.90 0.5738
389.00 0.7816
389.10 0.9189
389.20 0.9859
389.30 1.019
389.40 1.046
389.50 1.064
389.60 1.076
389.70 1.085
389.80 1.093
389.90 1.098
390.00 1.102
390.10 1.105
390.20 1.108
390.30 1.11
390.40 1.111
390.50 1.113
390.60 1.114
390.70 1.115
390.80 1.115
390.90 1.116
391.00 1.117
391.10 1.117
391.20 1.118
391.30 1.118
391.40 1.118
391.50 1.118
391.60 1.119
391.70 1.119
391.80 1.119
391.90 1.119
392.00 1.119
392.10 1.119
392.20 1.12
392.30 1.12
392.40 1.12
392.50 1.12
392.60 1.12
392.70 1.12
392.80 1.12
392.90 1.12
393.00 1.12
393.10 1.12
393.20 1.12
393.30 1.12
393.40 1.12
393.50 1.12
393.60 1.12
393.70 1.12
393.80 1.12
393.90 1.12
394.00 1.119
394.10 1.119
394.20 1.119
394.30 1.119
394.40 1.119
394.50 1.118
394.60 1.118
394.70 1.118
394.80 1.117
394.90 1.117
395.00 1.116
395.10 1.115
395.20 1.115
395.30 1.114
395.40 1.113
395.50 1.111
395.60 1.11
395.70 1.107
395.80 1.105
395.90 1.101
396.00 1.097
396.10 1.092
396.20 1.084
396.30 1.074
396.40 1.061
396.50 1.04
396.60 1.011
396.70 0.9742
396.80 0.897
396.90 0.7201
397.00 0.4438
397.10 0.709
397.20 0.8835
397.30 0.9673
397.40 1.007
397.50 1.037
397.60 1.059
397.70 1.072
397.80 1.083
397.90 1.091
398.00 1.097
398.10 1.101
398.20 1.105
398.30 1.107
398.40 1.109
398.50 1.111
398.60 1.112
398.70 1.114
398.80 1.115
398.90 1.115
399.00 1.116
399.10 1.117
399.20 1.117
399.30 1.118
399.40 1.118
399.50 1.118
399.60 1.119
399.70 1.119
399.80 1.119
399.90 1.119
400.00 1.119
400.10 1.119
400.20 1.12
400.30 1.12
400.40 1.12
400.50 1.12
400.60 1.12
400.70 1.12
400.80 1.12
400.90 1.12
401.00 1.12
401.10 1.12
401.20 1.12
401.30 1.12
401.40 1.12
401.50 1.12
401.60 1.12
401.70 1.12
401.80 1.12
401.90 1.12
402.00 1.12
402.10 1.12
402.20 1.12
402.30 1.12
402.40 1.12
402.50 1.12
402.60 1.12
402.70 1.12
402.80 1.12
402.90 1.12
403.00 1.12
403.10 1.12
403.20 1.12
403.30 1.12
403.40 1.12
403.50 1.12
403.60 1.12
403.70 1.12
403.80 1.12
403.90 1.12
404.00 1.12
404.10 1.12
404.20 1.12
404.30 1.12
404.40 1.12
404.50 1.12
404.60 1.119
404.70 1.119
404.80 1.119
404.90 1.119
405.00 1.119
405.10 1.119
405.20 1.119
405.30 1.119
405.40 1.119
405.50 1.119
405.60 1.119
405.70 1.119
405.80 1.119
405.90 1.119
406.00 1.119
406.10 1.118
406.20 1.118
406.30 1.118
406.40 1.118
406.50 1.118
406.60 1.118
406.70 1.118
406.80 1.118
406.90 1.118
407.00 1.117
407.10 1.117
407.20 1.117
407.30 1.117
407.40 1.116
407.50 1.116
407.60 1.116
407.70 1.115
407.80 1.115
407.90 1.114
408.00 1.114
408.10 1.113
408.20 1.112
408.30 1.111
408.40 1.11
408.50 1.109
408.60 1.108
408.70 1.106
408.80 1.104
408.90 1.101
409.00 1.098
409.10 1.094
409.20 1.089
409.30 1.083
409.40 1.074
409.50 1.062
409.60 1.047
409.70 1.022
409.80 0.9858
409.90 0.9393
410.00 0.8325
410.10 0.6698
410.20 0.4515
410.30 0.7212
410.40 0.8941
410.50 0.9703
410.60 1.007
410.70 1.035
410.80 1.056
410.90 1.068
411.00 1.078
411.10 1.086
411.20 1.091
411.30 1.096
411.40 1.099
411.50 1.102
411.60 1.104
411.70 1.106
411.80 1.107
411.90 1.108
412.00 1.109
412.10 1.11
412.20 1.111
412.30 1.111
412.40 1.112
412.50 1.112
412.60 1.113
412.70 1.113
412.80 1.113
412.90 1.114
413.00 1.114
413.10 1.114
413.20 1.114
413.30 1.114
413.40 1.114
413.50 1.114
413.60 1.114
413.70 1.114
413.80 1.114
413.90 1.114
414.00 1.114
414.10 1.114
414.20 1.114
414.30 1.114
414.40 1.114
414.50 1.114
414.60 1.114
414.70 1.114
414.80 1.114
414.90 1.114
415.00 1.114
415.10 1.114
415.20 1.114
415.30 1.114
415.40 1.114
415.50 1.114
415.60 1.114
415.70 1.114
415.80 1.114
415.90 1.114
416.00 1.114
416.10 1.114
416.20 1.114
416.30 1.113
416.40 1.113
416.50 1.113
416.60 1.113
416.70 1.113
416.80 1.113
416.90 1.113
417.00 1.113
417.10 1.113
417.20 1.113
417.30 1.113
417.40 1.113
417.50 1.113
417.60 1.113
417.70 1.113
417.80 1.113
417.90 1.112
418.00 1.112
418.10 1.112
418.20 1.112
418.30 1.112
418.40 1.112
418.50 1.112
418.60 1.112
418.70 1.112
418.80 1.112
418.90 1.112
419.00 1.112
419.10 1.112
419.20 1.112
419.30 1.111
419.40 1.111
419.50 1.111
419.60 1.111
419.70 1.111
419.80 1.111
419.90 1.111
420.00 1.111
420.10 1.111
420.20 1.111
420.30 1.111
420.40 1.111
420.50 1.111
420.60 1.111
420.70 1.11
420.80 1.11
420.90 1.11
421.00 1.11
421.10 1.11
421.20 1.11
421.30 1.11
421.40 1.11
421.50 1.11
421.60 1.11
421.70 1.11
421.80 1.11
421.90 1.109
422.00 1.109
422.10 1.109
422.20 1.109
422.30 1.109
422.40 1.109
422.50 1.109
422.60 1.109
422.70 1.109
422.80 1.109
422.90 1.109
423.00 1.109
423.10 1.108
423.20 1.108
423.30 1.108
423.40 1.108
423.50 1.108
423.60 1.108
423.70 1.108
423.80 1.108
423.90 1.108
424.00 1.108
424.10 1.108
424.20 1.108
424.30 1.107
424.40 1.107
424.50 1.107
424.60 1.107
424.70 1.107
424.80 1.107
424.90 1.107
425.00 1.107
425.10 1.107
425.20 1.107
425.30 1.107
425.40 1.106
425.50 1.106
425.60 1.106
425.70 1.106
425.80 1.106
425.90 1.106
426.00 1.106
426.10 1.106
426.20 1.106
426.30 1.106
426.40 1.106
426.50 1.105
426.60 1.105
426.70 1.105
426.80 1.105
426.90 1.105
427.00 1.105
427.10 1.105
427.20 1.105
427.30 1.105
427.40 1.105
427.50 1.104
427.60 1.104
427.70 1.104
427.80 1.104
427.90 1.104
428.00 1.104
428.10 1.104
428.20 1.104
428.30 1.104
428.40 1.103
428.50 1.103
428.60 1.103
428.70 1.103
428.80 1.103
428.90 1.103
429.00 1.103
429.10 1.103
429.20 1.102
429.30 1.102
429.40 1.102
429.50 1.102
429.60 1.102
429.70 1.102
429.80 1.102
429.90 1.102
430.00 1.101
430.10 1.101
430.20 1.101
430.30 1.101
430.40 1.101
430.50 1.101
430.60 1.1
430.70 1.1
430.80 1.1
430.90 1.1
431.00 1.1
431.10 1.099
431.20 1.099
431.30 1.099
431.40 1.098
431.50 1.098
431.60 1.097
431.70 1.097
431.80 1.096
431.90 1.095
432.00 1.094
432.10 1.093
432.20 1.092
432.30 1.091
432.40 1.09
432.50 1.088
432.60 1.086
432.70 1.084
432.80 1.081
432.90 1.077
433.00 1.073
433.10 1.067
433.20 1.06
433.30 1.051
433.40 1.036
433.50 1.018
433.60 0.9942
433.70 0.9523
433.80 0.8839
433.90 0.7891
434.00 0.4797
434.10 0.4838
434.20 0.801
434.30 0.8909
434.40 0.956
434.50 0.9962
434.60 1.019
434.70 1.037
434.80 1.05
434.90 1.059
435.00 1.066
435.10 1.071
435.20 1.075
435.30 1.079
435.40 1.081
435.50 1.083
435.60 1.085
435.70 1.087
435.80 1.088
435.90 1.089
436.00 1.09
436.10 1.09
436.20 1.091
436.30 1.091
436.40 1.092
436.50 1.092
436.60 1.093
436.70 1.093
436.80 1.093
436.90 1.093
437.00 1.093
437.10 1.093
437.20 1.093
437.30 1.093
437.40 1.093
437.50 1.093
437.60 1.093
437.70 1.093
437.80 1.093
437.90 1.093
438.00 1.093
438.10 1.093
438.20 1.093
438.30 1.093
438.40 1.093
438.50 1.093
438.60 1.093
438.70 1.093
438.80 1.092
438.90 1.092
439.00 1.092
439.10 1.092
439.20 1.092
439.30 1.092
439.40 1.092
439.50 1.092
439.60 1.092
439.70 1.092
439.80 1.092
439.90 1.091
440.00 1.091
440.10 1.091
440.20 1.091
440.30 1.091
440.40 1.091
440.50 1.091
440.60 1.091
440.70 1.091
440.80 1.09
440.90 1.09
441.00 1.09
441.10 1.09
441.20 1.09
441.30 1.09
441.40 1.09
441.50 1.09
441.60 1.09
441.70 1.089
441.80 1.089
441.90 1.089
442.00 1.089
442.10 1.089
442.20 1.089
442.30 1.089
442.40 1.089
442.50 1.089
442.60 1.088
442.70 1.088
442.80 1.088
442.90 1.088
443.00 1.088
443.10 1.088
443.20 1.088
443.30 1.088
443.40 1.087
443.50 1.087
443.60 1.087
443.70 1.087
443.80 1.087
443.90 1.087
444.00 1.087
444.10 1.087
444.20 1.087
444.30 1.086
444.40 1.086
444.50 1.086
444.60 1.086
444.70 1.086
444.80 1.086
444.90 1.086
445.00 1.086
445.10 1.085
445.20 1.085
445.30 1.085
445.40 1.085
445.50 1.085
445.60 1.085
445.70 1.085
445.80 1.085
445.90 1.084
446.00 1.084
446.10 1.084
446.20 1.084
446.30 1.084
446.40 1.084
446.50 1.084
446.60 1.084
446.70 1.083
446.80 1.083
446.90 1.083
447.00 1.083
447.10 1.083
447.20 1.083
447.30 1.083
447.40 1.083
447.50 1.082
447.60 1.082
447.70 1.082
447.80 1.082
447.90 1.082
448.00 1.082
448.10 1.082
448.20 1.082
448.30 1.081
448.40 1.081
448.50 1.081
448.60 1.081
448.70 1.081
448.80 1.081
448.90 1.081
449.00 1.081
449.10 1.08
449.20 1.08
449.30 1.08
449.40 1.08
449.50 1.08
449.60 1.08
449.70 1.08
449.80 1.079
449.90 1.079
450.00 1.079
450.10 1.079
450.20 1.079
450.30 1.079
450.40 1.079
450.50 1.079
450.60 1.078
450.70 1.078
450.80 1.078
450.90 1.078
451.00 1.078
451.10 1.078
451.20 1.078
451.30 1.078
451.40 1.077
451.50 1.077
451.60 1.077
451.70 1.077
451.80 1.077
451.90 1.077
452.00 1.077
452.10 1.076
452.20 1.076
452.30 1.076
452.40 1.076
452.50 1.076
452.60 1.076
452.70 1.076
452.80 1.076
452.90 1.075
453.00 1.075
453.10 1.075
453.20 1.075
453.30 1.075
453.40 1.075
453.50 1.075
453.60 1.074
453.70 1.074
453.80 1.074
453.90 1.074
454.00 1.074
454.10 1.074
454.20 1.074
454.30 1.073
454.40 1.073
454.50 1.073
454.60 1.073
454.70 1.073
454.80 1.073
454.90 1.073
455.00 1.073
455.10 1.072
455.20 1.072
455.30 1.072
455.40 1.072
455.50 1.072
455.60 1.072
455.70 1.072
455.80 1.071
455.90 1.071
456.00 1.071
456.10 1.071
456.20 1.071
456.30 1.071
456.40 1.071
456.50 1.07
456.60 1.07
456.70 1.07
456.80 1.07
456.90 1.07
457.00 1.07
457.10 1.07
457.20 1.069
457.30 1.069
457.40 1.069
457.50 1.069
457.60 1.069
457.70 1.069
457.80 1.069
457.90 1.068
458.00 1.068
458.10 1.068
458.20 1.068
458.30 1.068
458.40 1.068
458.50 1.068
458.60 1.067
458.70 1.067
458.80 1.067
458.90 1.067
459.00 1.067
459.10 1.067
459.20 1.067
459.30 1.066
459.40 1.066
459.50 1.066
459.60 1.066
459.70 1.066
459.80 1.066
459.90 1.066
460.00 1.065
460.10 1.065
460.20 1.065
460.30 1.065
460.40 1.065
460.50 1.065
460.60 1.065
460.70 1.064
460.80 1.064
460.90 1.064
461.00 1.064
461.10 1.064
461.20 1.064
461.30 1.064
461.40 1.063
461.50 1.063
461.60 1.063
461.70 1.063
461.80 1.063
461.90 1.063
462.00 1.063
462.10 1.062
462.20 1.062
462.30 1.062
462.40 1.062
462.50 1.062
462.60 1.062
462.70 1.062
462.80 1.061
462.90 1.061
463.00 1.061
463.10 1.061
463.20 1.061
463.30 1.061
463.40 1.06
463.50 1.06
463.60 1.06
463.70 1.06
463.80 1.06
463.90 1.06
464.00 1.06
464.10 1.059
464.20 1.059
464.30 1.059
464.40 1.059
464.50 1.059
464.60 1.059
464.70 1.059
464.80 1.058
464.90 1.058
465.00 1.058
465.10 1.058
465.20 1.058
465.30 1.058
465.40 1.057
465.50 1.057
465.60 1.057
465.70 1.057
465.80 1.057
465.90 1.057
466.00 1.057
466.10 1.056
466.20 1.056
466.30 1.056
466.40 1.056
466.50 1.056
466.60 1.056
466.70 1.056
466.80 1.055
466.90 1.055
467.00 1.055
467.10 1.055
467.20 1.055
467.30 1.055
467.40 1.054
467.50 1.054
467.60 1.054
467.70 1.054
467.80 1.054
467.90 1.054
468.00 1.054
468.10 1.053
468.20 1.053
468.30 1.053
468.40 1.053
468.50 1.053
468.60 1.053
468.70 1.052
468.80 1.052
468.90 1.052
469.00 1.052
469.10 1.052
469.20 1.052
469.30 1.052
469.40 1.051
469.50 1.051
469.60 1.051
469.70 1.051
469.80 1.051
469.90 1.051
470.00 1.05
470.10 1.05
470.20 1.05
470.30 1.05
470.40 1.05
470.50 1.05
470.60 1.05
470.70 1.049
470.80 1.049
470.90 1.049
471.00 1.049
471.10 1.049
471.20 1.049
471.30 1.048
471.40 1.048
471.50 1.048
471.60 1.048
471.70 1.048
471.80 1.048
471.90 1.047
472.00 1.047
472.10 1.047
472.20 1.047
472.30 1.047
472.40 1.047
472.50 1.047
472.60 1.046
472.70 1.046
472.80 1.046
472.90 1.046
473.00 1.046
473.10 1.046
473.20 1.045
473.30 1.045
473.40 1.045
473.50 1.045
473.60 1.045
473.70 1.045
473.80 1.044
473.90 1.044
474.00 1.044
474.10 1.044
474.20 1.044
474.30 1.044
474.40 1.043
474.50 1.043
474.60 1.043
474.70 1.043
474.80 1.043
474.90 1.043
475.00 1.043
475.10 1.042
475.20 1.042
475.30 1.042
475.40 1.042
475.50 1.042
475.60 1.042
475.70 1.041
475.80 1.041
475.90 1.041
476.00 1.041
476.10 1.041
476.20 1.041
476.30 1.04
476.40 1.04
476.50 1.04
476.60 1.04
476.70 1.04
476.80 1.04
476.90 1.039
477.00 1.039
477.10 1.039
477.20 1.039
477.30 1.039
477.40 1.039
477.50 1.038
477.60 1.038
477.70 1.038
477.80 1.038
477.90 1.038
478.00 1.038
478.10 1.037
478.20 1.037
478.30 1.037
478.40 1.037
478.50 1.037
478.60 1.037
478.70 1.036
478.80 1.036
478.90 1.036
479.00 1.036
479.10 1.036
479.20 1.035
479.30 1.035
479.40 1.035
479.50 1.035
479.60 1.035
479.70 1.035
479.80 1.034
479.90 1.034
480.00 1.034
480.10 1.034
480.20 1.034
480.30 1.034
480.40 1.033
480.50 1.033
480.60 1.033
480.70 1.033
480.80 1.033
480.90 1.032
481.00 1.032
481.10 1.032
481.20 1.032
481.30 1.032
481.40 1.031
481.50 1.031
481.60 1.031
481.70 1.031
481.80 1.031
481.90 1.03
482.00 1.03
482.10 1.03
482.20 1.03
482.30 1.029
482.40 1.029
482.50 1.029
482.60 1.029
482.70 1.028
482.80 1.028
482.90 1.028
483.00 1.027
483.10 1.027
483.20 1.027
483.30 1.026
483.40 1.025
483.50 1.024
483.60 1.023
483.70 1.023
483.80 1.022
483.90 1.021
484.00 1.02
484.10 1.02
484.20 1.018
484.30 1.016
484.40 1.014
484.50 1.012
484.60 1.01
484.70 1.007
484.80 1.003
484.90 0.9988
485.00 0.9948
485.10 0.9908
485.20 0.984
485.30 0.976
485.40 0.9642
485.50 0.9506
485.60 0.9288
485.70 0.9031
485.80 0.8546
485.90 0.7954
486.00 0.6891
486.10 0.3853
486.20 0.5335
486.30 0.7377
486.40 0.8138
486.50 0.8741
486.60 0.9108
486.70 0.9364
486.80 0.9536
486.90 0.9669
487.00 0.9764
487.10 0.9841
487.20 0.989
487.30 0.9926
487.40 0.9963
487.50 0.9999
487.60 1.004
487.70 1.006
487.80 1.007
487.90 1.009
488.00 1.011
488.10 1.012
488.20 1.013
488.30 1.013
488.40 1.014
488.50 1.014
488.60 1.015
488.70 1.015
488.80 1.016
488.90 1.016
489.00 1.016
489.10 1.017
489.20 1.017
489.30 1.017
489.40 1.017
489.50 1.017
489.60 1.017
489.70 1.017
489.80 1.017
489.90 1.016
490.00 1.016
490.10 1.016
490.20 1.016
490.30 1.016
490.40 1.016
490.50 1.016
490.60 1.016
490.70 1.016
490.80 1.015
490.90 1.015
491.00 1.015
491.10 1.015
491.20 1.015
491.30 1.015
491.40 1.015
491.50 1.015
491.60 1.014
491.70 1.014
491.80 1.014
491.90 1.014
492.00 1.014
492.10 1.014
492.20 1.013
492.30 1.013
492.40 1.013
492.50 1.013
492.60 1.013
492.70 1.013
492.80 1.012
492.90 1.012
493.00 1.012
493.10 1.012
493.20 1.012
493.30 1.012
493.40 1.011
493.50 1.011
493.60 1.011
493.70 1.011
493.80 1.011
493.90 1.011
494.00 1.01
494.10 1.01
494.20 1.01
494.30 1.01
494.40 1.01
494.50 1.01
494.60 1.009
494.70 1.009
494.80 1.009
494.90 1.009
495.00 1.009
495.10 1.009
495.20 1.008
495.30 1.008
495.40 1.008
495.50 1.008
495.60 1.008
495.70 1.008
495.80 1.007
495.90 1.007
496.00 1.007
496.10 1.007
496.20 1.007
496.30 1.007
496.40 1.006
496.50 1.006
496.60 1.006
496.70 1.006
496.80 1.006
496.90 1.005
497.00 1.005
497.10 1.005
497.20 1.005
497.30 1.005
497.40 1.005
497.50 1.004
497.60 1.004
497.70 1.004
497.80 1.004
497.90 1.004
498.00 1.004
498.10 1.003
498.20 1.003
498.30 1.003
498.40 1.003
498.50 1.003
498.60 1.002
498.70 1.002
498.80 1.002
498.90 1.002
499.00 1.002
499.10 1.002
499.20 1.001
499.30 1.001
499.40 1.001
499.50 1.001
499.60 1.001
499.70 1.001
499.80 1
499.90 1
500.00 1
500.10 0.9998
500.20 0.9996
500.30 0.9995
500.40 0.9993
500.50 0.9991
500.60 0.9989
500.70 0.9988
500.80 0.9986
500.90 0.9984
501.00 0.9982
501.10 0.998
501.20 0.9979
501.30 0.9977
501.40 0.9975
501.50 0.9973
501.60 0.9971
501.70 0.997
501.80 0.9968
501.90 0.9966
502.00 0.9964
502.10 0.9962
502.20 0.9961
502.30 0.9959
502.40 0.9957
502.50 0.9955
502.60 0.9953
502.70 0.9952
502.80 0.995
502.90 0.9948
503.00 0.9946
503.10 0.9944
503.20 0.9943
503.30 0.9941
503.40 0.9939
503.50 0.9937
503.60 0.9935
503.70 0.9934
503.80 0.9932
503.90 0.993
504.00 0.9928
504.10 0.9926
504.20 0.9925
504.30 0.9923
504.40 0.9921
504.50 0.9919
504.60 0.9917
504.70 0.9916
504.80 0.9914
504.90 0.9912
505.00 0.991
505.10 0.9908
505.20 0.9907
505.30 0.9905
505.40 0.9903
505.50 0.9901
505.60 0.9899
505.70 0.9897
505.80 0.9896
505.90 0.9894
506.00 0.9892
506.10 0.989
506.20 0.9888
506.30 0.9887
506.40 0.9885
506.50 0.9883
506.60 0.9881
506.70 0.9879
506.80 0.9877
506.90 0.9876
507.00 0.9874
507.10 0.9872
507.20 0.987
507.30 0.9868
507.40 0.9867
507.50 0.9865
507.60 0.9863
507.70 0.9861
507.80 0.9859
507.90 0.9857
508.00 0.9856
508.10 0.9854
508.20 0.9852
508.30 0.985
508.40 0.9848
508.50 0.9846
508.60 0.9845
508.70 0.9843
508.80 0.9841
508.90 0.9839
509.00 0.9837
509.10 0.9835
509.20 0.9834
509.30 0.9832
509.40 0.983
509.50 0.9828
509.60 0.9826
509.70 0.9824
509.80 0.9823
509.90 0.9821
510.00 0.9819
510.10 0.9817
510.20 0.9815
510.30 0.9813
510.40 0.9812
510.50 0.981
510.60 0.9808
510.70 0.9806
510.80 0.9804
510.90 0.9802
511.00 0.9801
511.10 0.9799
511.20 0.9797
511.30 0.9795
511.40 0.9793
511.50 0.9791
511.60 0.9789
511.70 0.9788
511.80 0.9786
511.90 0.9784
512.00 0.9782
512.10 0.978
512.20 0.9778
512.30 0.9777
512.40 0.9775
512.50 0.9773
512.60 0.9771
512.70 0.9769
512.80 0.9767
512.90 0.9766
513.00 0.9764
513.10 0.9762
513.20 0.976
513.30 0.9758
513.40 0.9756
513.50 0.9754
513.60 0.9753
513.70 0.9751
513.80 0.9749
513.90 0.9747
514.00 0.9745
514.10 0.9743
514.20 0.9741
514.30 0.974
514.40 0.9738
514.50 0.9736
514.60 0.9734
514.70 0.9732
514.80 0.973
514.90 0.9728
515.00 0.9727
515.10 0.9725
515.20 0.9723
515.30 0.9721
515.40 0.9719
515.50 0.9717
515.60 0.9715
515.70 0.9714
515.80 0.9712
515.90 0.971
516.00 0.9708
516.10 0.9706
516.20 0.9704
516.30 0.9702
516.40 0.97
516.50 0.9699
516.60 0.9697
516.70 0.9695
516.80 0.9693
516.90 0.9691
517.00 0.9689
517.10 0.9687
517.20 0.9686
517.30 0.9684
517.40 0.9682
517.50 0.968
517.60 0.9678
517.70 0.9676
517.80 0.9674
517.90 0.9672
518.00 0.9671
518.10 0.9669
518.20 0.9667
518.30 0.9665
518.40 0.9663
518.50 0.9661
518.60 0.9659
518.70 0.9658
518.80 0.9656
518.90 0.9654
519.00 0.9652
519.10 0.965
519.20 0.9648
519.30 0.9646
519.40 0.9644
519.50 0.9643
519.60 0.9641
519.70 0.9639
519.80 0.9637
519.90 0.9635
520.00 0.9633
520.10 0.9631
520.20 0.9629
520.30 0.9628
520.40 0.9626
520.50 0.9624
520.60 0.9622
520.70 0.962
520.80 0.9618
520.90 0.9616
521.00 0.9614
521.10 0.9613
521.20 0.9611
521.30 0.9609
521.40 0.9607
521.50 0.9605
521.60 0.9603
521.70 0.9601
521.80 0.9599
521.90 0.9597
522.00 0.9596
522.10 0.9594
522.20 0.9592
522.30 0.959
522.40 0.9588
522.50 0.9586
522.60 0.9584
522.70 0.9582
522.80 0.9581
522.90 0.9579
523.00 0.9577
523.10 0.9575
523.20 0.9573
523.30 0.9571
523.40 0.9569
523.50 0.9567
523.60 0.9565
523.70 0.9564
523.80 0.9562
523.90 0.956
524.00 0.9558
524.10 0.9556
524.20 0.9554
524.30 0.9552
524.40 0.955
524.50 0.9548
524.60 0.9547
524.70 0.9545
524.80 0.9543
524.90 0.9541
525.00 0.9539
525.10 0.9537
525.20 0.9535
525.30 0.9533
525.40 0.9531
525.50 0.953
525.60 0.9528
525.70 0.9526
525.80 0.9524
525.90 0.9522
526.00 0.952
526.10 0.9518
526.20 0.9516
526.30 0.9514
526.40 0.9513
526.50 0.9511
526.60 0.9509
526.70 0.9507
526.80 0.9505
526.90 0.9503
527.00 0.9501
527.10 0.9499
527.20 0.9497
527.30 0.9495
527.40 0.9494
527.50 0.9492
527.60 0.949
527.70 0.9488
527.80 0.9486
527.90 0.9484
528.00 0.9482
528.10 0.948
528.20 0.9478
528.30 0.9476
528.40 0.9475
528.50 0.9473
528.60 0.9471
528.70 0.9469
528.80 0.9467
528.90 0.9465
529.00 0.9463
529.10 0.9461
529.20 0.9459
529.30 0.9457
529.40 0.9456
529.50 0.9454
529.60 0.9452
529.70 0.945
529.80 0.9448
529.90 0.9446
530.00 0.9444
530.10 0.9442
530.20 0.944
530.30 0.9438
530.40 0.9436
530.50 0.9435
530.60 0.9433
530.70 0.9431
530.80 0.9429
530.90 0.9427
531.00 0.9425
531.10 0.9423
531.20 0.9421
531.30 0.9419
531.40 0.9417
531.50 0.9415
531.60 0.9414
531.70 0.9412
531.80 0.941
531.90 0.9408
532.00 0.9406
532.10 0.9404
532.20 0.9402
532.30 0.94
532.40 0.9398
532.50 0.9396
532.60 0.9395
532.70 0.9393
532.80 0.9391
532.90 0.9389
533.00 0.9387
533.10 0.9385
533.20 0.9383
533.30 0.9381
533.40 0.9379
533.50 0.9377
533.60 0.9375
533.70 0.9374
533.80 0.9372
533.90 0.937
534.00 0.9368
534.10 0.9366
534.20 0.9364
534.30 0.9362
534.40 0.936
534.50 0.9358
534.60 0.9356
534.70 0.9354
534.80 0.9352
534.90 0.935
535.00 0.9349
535.10 0.9347
535.20 0.9345
535.30 0.9343
535.40 0.9341
535.50 0.9339
535.60 0.9337
535.70 0.9335
535.80 0.9333
535.90 0.9331
536.00 0.9329
536.10 0.9328
536.20 0.9326
536.30 0.9324
536.40 0.9322
536.50 0.932
536.60 0.9318
536.70 0.9316
536.80 0.9314
536.90 0.9312
537.00 0.931
537.10 0.9308
537.20 0.9306
537.30 0.9305
537.40 0.9303
537.50 0.9301
537.60 0.9299
537.70 0.9297
537.80 0.9295
537.90 0.9293
538.00 0.9291
538.10 0.9289
538.20 0.9287
538.30 0.9285
538.40 0.9283
538.50 0.9281
538.60 0.928
538.70 0.9278
538.80 0.9276
538.90 0.9274
539.00 0.9272
539.10 0.927
539.20 0.9268
539.30 0.9266
539.40 0.9264
539.50 0.9262
539.60 0.926
539.70 0.9258
539.80 0.9256
539.90 0.9255
540.00 0.9253
540.10 0.9251
540.20 0.9249
540.30 0.9247
540.40 0.9245
540.50 0.9243
540.60 0.9241
540.70 0.9239
540.80 0.9237
540.90 0.9235
541.00 0.9233
541.10 0.9231
541.20 0.923
541.30 0.9228
541.40 0.9226
541.50 0.9224
541.60 0.9222
541.70 0.922
541.80 0.9218
541.90 0.9216
542.00 0.9214
542.10 0.9212
542.20 0.921
542.30 0.9208
542.40 0.9206
542.50 0.9204
542.60 0.9203
542.70 0.9201
542.80 0.9199
542.90 0.9197
543.00 0.9195
543.10 0.9193
543.20 0.9191
543.30 0.9189
543.40 0.9187
543.50 0.9185
543.60 0.9183
543.70 0.9181
543.80 0.9179
543.90 0.9178
544.00 0.9176
544.10 0.9174
544.20 0.9172
544.30 0.917
544.40 0.9168
544.50 0.9166
544.60 0.9164
544.70 0.9162
544.80 0.916
544.90 0.9158
545.00 0.9156
545.10 0.9154
545.20 0.9152
545.30 0.9151
545.40 0.9149
545.50 0.9147
545.60 0.9145
545.70 0.9143
545.80 0.9141
545.90 0.9139
546.00 0.9137
546.10 0.9135
546.20 0.9133
546.30 0.9131
546.40 0.9129
546.50 0.9127
546.60 0.9125
546.70 0.9123
546.80 0.9122
546.90 0.912
547.00 0.9118
547.10 0.9116
547.20 0.9114
547.30 0.9112
547.40 0.911
547.50 0.9108
547.60 0.9106
547.70 0.9104
547.80 0.9102
547.90 0.91
548.00 0.9098
548.10 0.9096
548.20 0.9094
548.30 0.9093
548.40 0.9091
548.50 0.9089
548.60 0.9087
548.70 0.9085
548.80 0.9083
548.90 0.9081
549.00 0.9079
549.10 0.9077
549.20 0.9075
549.30 0.9073
549.40 0.9071
549.50 0.9069
549.60 0.9067
549.70 0.9065
549.80 0.9063
549.90 0.9061
550.00 0.906
550.10 0.9058
550.20 0.9056
550.30 0.9054
550.40 0.9052
550.50 0.905
550.60 0.9048
550.70 0.9046
550.80 0.9044
550.90 0.9042
551.00 0.904
551.10 0.9038
551.20 0.9036
551.30 0.9034
551.40 0.9032
551.50 0.9031
551.60 0.9029
551.70 0.9027
551.80 0.9025
551.90 0.9023
552.00 0.9021
552.10 0.9019
552.20 0.9017
552.30 0.9015
552.40 0.9013
552.50 0.9011
552.60 0.9009
552.70 0.9007
552.80 0.9006
552.90 0.9004
553.00 0.9002
553.10 0.9
553.20 0.8998
553.30 0.8996
553.40 0.8994
553.50 0.8992
553.60 0.899
553.70 0.8988
553.80 0.8986
553.90 0.8985
554.00 0.8983
554.10 0.8981
554.20 0.8979
554.30 0.8977
554.40 0.8975
554.50 0.8973
554.60 0.8971
554.70 0.8969
554.80 0.8967
554.90 0.8965
555.00 0.8963
555.10 0.8961
555.20 0.8959
555.30 0.8957
555.40 0.8955
555.50 0.8953
555.60 0.8951
555.70 0.8949
555.80 0.8948
555.90 0.8946
556.00 0.8944
556.10 0.8942
556.20 0.894
556.30 0.8938
556.40 0.8936
556.50 0.8934
556.60 0.8932
556.70 0.893
556.80 0.8928
556.90 0.8926
557.00 0.8924
557.10 0.8922
557.20 0.892
557.30 0.8918
557.40 0.8916
557.50 0.8914
557.60 0.8912
557.70 0.891
557.80 0.8908
557.90 0.8906
558.00 0.8904
558.10 0.8903
558.20 0.8901
558.30 0.8899
558.40 0.8897
558.50 0.8895
558.60 0.8893
558.70 0.8891
558.80 0.8889
558.90 0.8888
559.00 0.8886
559.10 0.8884
559.20 0.8882
559.30 0.888
559.40 0.8878
559.50 0.8876
559.60 0.8874
559.70 0.8872
559.80 0.887
559.90 0.8868
560.00 0.8866
560.10 0.8864
560.20 0.8862
560.30 0.886
560.40 0.8858
560.50 0.8857
560.60 0.8855
560.70 0.8853
560.80 0.8851
560.90 0.8849
561.00 0.8847
561.10 0.8845
561.20 0.8843
561.30 0.8841
561.40 0.8839
561.50 0.8837
561.60 0.8835
561.70 0.8833
561.80 0.8831
561.90 0.8829
562.00 0.8828
562.10 0.8826
562.20 0.8824
562.30 0.8822
562.40 0.882
562.50 0.8818
562.60 0.8816
562.70 0.8814
562.80 0.8812
562.90 0.881
563.00 0.8808
563.10 0.8806
563.20 0.8804
563.30 0.8802
563.40 0.88
563.50 0.8798
563.60 0.8796
563.70 0.8794
563.80 0.8792
563.90 0.879
564.00 0.8788
564.10 0.8786
564.20 0.8784
564.30 0.8782
564.40 0.8781
564.50 0.8779
564.60 0.8777
564.70 0.8775
564.80 0.8773
564.90 0.8771
565.00 0.8769
565.10 0.8767
565.20 0.8765
565.30 0.8763
565.40 0.8761
565.50 0.8759
565.60 0.8757
565.70 0.8755
565.80 0.8753
565.90 0.8751
566.00 0.8749
566.10 0.8747
566.20 0.8745
566.30 0.8744
566.40 0.8742
566.50 0.874
566.60 0.8738
566.70 0.8736
566.80 0.8734
566.90 0.8732
567.00 0.873
567.10 0.8728
567.20 0.8726
567.30 0.8725
567.40 0.8723
567.50 0.8721
567.60 0.8719
567.70 0.8717
567.80 0.8715
567.90 0.8713
568.00 0.8711
568.10 0.8709
568.20 0.8707
568.30 0.8705
568.40 0.8703
568.50 0.8701
568.60 0.8699
568.70 0.8697
568.80 0.8696
568.90 0.8694
569.00 0.8692
569.10 0.869
569.20 0.8688
569.30 0.8686
569.40 0.8684
569.50 0.8682
569.60 0.868
569.70 0.8678
569.80 0.8676
569.90 0.8674
570.00 0.8672
570.10 0.867
570.20 0.8669
570.30 0.8667
570.40 0.8665
570.50 0.8663
570.60 0.8661
570.70 0.8659
570.80 0.8657
570.90 0.8655
571.00 0.8653
571.10 0.8651
571.20 0.8649
571.30 0.8647
571.40 0.8645
571.50 0.8643
571.60 0.8641
571.70 0.8639
571.80 0.8638
571.90 0.8636
572.00 0.8634
572.10 0.8632
572.20 0.863
572.30 0.8628
572.40 0.8626
572.50 0.8624
572.60 0.8622
572.70 0.862
572.80 0.8618
572.90 0.8616
573.00 0.8614
573.10 0.8612
573.20 0.8611
573.30 0.8609
573.40 0.8607
573.50 0.8605
573.60 0.8603
573.70 0.8601
573.80 0.8599
573.90 0.8597
574.00 0.8595
574.10 0.8593
574.20 0.8591
574.30 0.8589
574.40 0.8587
574.50 0.8585
574.60 0.8583
574.70 0.8581
574.80 0.8579
574.90 0.8577
575.00 0.8575
575.10 0.8573
575.20 0.8571
575.30 0.8569
575.40 0.8568
575.50 0.8566
575.60 0.8564
575.70 0.8562
575.80 0.856
575.90 0.8558
576.00 0.8556
576.10 0.8554
576.20 0.8552
576.30 0.855
576.40 0.8549
576.50 0.8547
576.60 0.8545
576.70 0.8543
576.80 0.8541
576.90 0.8539
577.00 0.8537
577.10 0.8535
577.20 0.8533
577.30 0.8531
577.40 0.8529
577.50 0.8527
577.60 0.8525
577.70 0.8524
577.80 0.8522
577.90 0.852
578.00 0.8518
578.10 0.8516
578.20 0.8514
578.30 0.8512
578.40 0.851
578.50 0.8508
578.60 0.8506
578.70 0.8504
578.80 0.8502
578.90 0.85
579.00 0.8498
579.10 0.8496
579.20 0.8494
579.30 0.8492
579.40 0.849
579.50 0.8489
579.60 0.8487
579.70 0.8485
579.80 0.8483
579.90 0.8481
580.00 0.8479
580.10 0.8477
580.20 0.8475
580.30 0.8473
580.40 0.8472
580.50 0.847
580.60 0.8468
580.70 0.8466
580.80 0.8464
580.90 0.8462
581.00 0.846
581.10 0.8458
581.20 0.8456
581.30 0.8454
581.40 0.8452
581.50 0.845
581.60 0.8448
581.70 0.8446
581.80 0.8444
581.90 0.8442
582.00 0.8441
582.10 0.8439
582.20 0.8437
582.30 0.8435
582.40 0.8433
582.50 0.8431
582.60 0.8429
582.70 0.8427
582.80 0.8425
582.90 0.8423
583.00 0.8421
583.10 0.8419
583.20 0.8417
583.30 0.8415
583.40 0.8414
583.50 0.8412
583.60 0.841
583.70 0.8408
583.80 0.8406
583.90 0.8404
584.00 0.8402
584.10 0.84
584.20 0.8398
584.30 0.8396
584.40 0.8394
584.50 0.8392
584.60 0.8391
584.70 0.8389
584.80 0.8387
584.90 0.8385
585.00 0.8383
585.10 0.8381
585.20 0.8379
585.30 0.8377
585.40 0.8375
585.50 0.8373
585.60 0.8371
585.70 0.837
585.80 0.8368
585.90 0.8366
586.00 0.8364
586.10 0.8362
586.20 0.836
586.30 0.8358
586.40 0.8356
586.50 0.8354
586.60 0.8352
586.70 0.835
586.80 0.8348
586.90 0.8346
587.00 0.8344
587.10 0.8342
587.20 0.834
587.30 0.8338
587.40 0.8337
587.50 0.8335
587.60 0.8333
587.70 0.8331
587.80 0.8329
587.90 0.8327
588.00 0.8325
588.10 0.8323
588.20 0.8321
588.30 0.8319
588.40 0.8318
588.50 0.8316
588.60 0.8314
588.70 0.8312
588.80 0.831
588.90 0.8308
589.00 0.8306
589.10 0.8304
589.20 0.8302
589.30 0.83
589.40 0.8298
589.50 0.8296
589.60 0.8294
589.70 0.8293
589.80 0.8291
589.90 0.8289
590.00 0.8287
590.10 0.8285
590.20 0.8283
590.30 0.8281
590.40 0.8279
590.50 0.8277
590.60 0.8275
590.70 0.8273
590.80 0.8272
590.90 0.827
591.00 0.8268
591.10 0.8266
591.20 0.8264
591.30 0.8262
591.40 0.826
591.50 0.8258
591.60 0.8256
591.70 0.8254
591.80 0.8252
591.90 0.825
592.00 0.8248
592.10 0.8246
592.20 0.8245
592.30 0.8243
592.40 0.8241
592.50 0.8239
592.60 0.8237
592.70 0.8235
592.80 0.8233
592.90 0.8232
593.00 0.823
593.10 0.8228
593.20 0.8226
593.30 0.8224
593.40 0.8222
593.50 0.822
593.60 0.8218
593.70 0.8216
593.80 0.8215
593.90 0.8213
594.00 0.8211
594.10 0.8209
594.20 0.8207
594.30 0.8205
594.40 0.8203
594.50 0.8201
594.60 0.8199
594.70 0.8197
594.80 0.8195
594.90 0.8194
595.00 0.8192
595.10 0.819
595.20 0.8188
595.30 0.8186
595.40 0.8184
595.50 0.8182
595.60 0.818
595.70 0.8178
595.80 0.8176
595.90 0.8175
596.00 0.8173
596.10 0.8171
596.20 0.8169
596.30 0.8167
596.40 0.8165
596.50 0.8163
596.60 0.8161
596.70 0.8159
596.80 0.8157
596.90 0.8155
597.00 0.8153
597.10 0.8151
597.20 0.8149
597.30 0.8147
597.40 0.8145
597.50 0.8144
597.60 0.8142
597.70 0.814
597.80 0.8138
597.90 0.8136
598.00 0.8134
598.10 0.8132
598.20 0.813
598.30 0.8128
598.40 0.8127
598.50 0.8125
598.60 0.8123
598.70 0.8121
598.80 0.8119
598.90 0.8117
599.00 0.8115
599.10 0.8113
599.20 0.8112
599.30 0.811
599.40 0.8108
599.50 0.8106
599.60 0.8104
599.70 0.8102
599.80 0.81
599.90 0.8098
600.00 0.8096
600.10 0.8094
600.20 0.8092
600.30 0.809
600.40 0.8088
600.50 0.8087
600.60 0.8085
600.70 0.8083
600.80 0.8081
600.90 0.8079
601.00 0.8077
601.10 0.8075
601.20 0.8074
601.30 0.8072
601.40 0.807
601.50 0.8068
601.60 0.8066
601.70 0.8064
601.80 0.8062
601.90 0.806
602.00 0.8058
602.10 0.8056
602.20 0.8054
602.30 0.8053
602.40 0.8051
602.50 0.8049
602.60 0.8047
602.70 0.8045
602.80 0.8043
602.90 0.8041
603.00 0.804
603.10 0.8038
603.20 0.8036
603.30 0.8034
603.40 0.8032
603.50 0.803
603.60 0.8028
603.70 0.8026
603.80 0.8024
603.90 0.8023
604.00 0.8021
604.10 0.8019
604.20 0.8017
604.30 0.8015
604.40 0.8013
604.50 0.8011
604.60 0.8009
604.70 0.8007
604.80 0.8005
604.90 0.8003
605.00 0.8002
605.10 0.8
605.20 0.7998
605.30 0.7996
605.40 0.7994
605.50 0.7992
605.60 0.799
605.70 0.7988
605.80 0.7986
605.90 0.7985
606.00 0.7983
606.10 0.7981
606.20 0.7979
606.30 0.7977
606.40 0.7975
606.50 0.7973
606.60 0.7971
606.70 0.7969
606.80 0.7968
606.90 0.7966
607.00 0.7964
607.10 0.7962
607.20 0.796
607.30 0.7958
607.40 0.7956
607.50 0.7954
607.60 0.7953
607.70 0.7951
607.80 0.7949
607.90 0.7947
608.00 0.7945
608.10 0.7943
608.20 0.7941
608.30 0.7939
608.40 0.7938
608.50 0.7936
608.60 0.7934
608.70 0.7932
608.80 0.793
608.90 0.7928
609.00 0.7926
609.10 0.7924
609.20 0.7923
609.30 0.7921
609.40 0.7919
609.50 0.7917
609.60 0.7915
609.70 0.7913
609.80 0.7911
609.90 0.791
610.00 0.7908
610.10 0.7906
610.20 0.7904
610.30 0.7902
610.40 0.79
610.50 0.7898
610.60 0.7897
610.70 0.7895
610.80 0.7893
610.90 0.7891
611.00 0.7889
611.10 0.7887
611.20 0.7885
611.30 0.7883
611.40 0.7882
611.50 0.788
611.60 0.7878
611.70 0.7876
611.80 0.7874
611.90 0.7872
612.00 0.787
612.10 0.7868
612.20 0.7866
612.30 0.7864
612.40 0.7863
612.50 0.7861
612.60 0.7859
612.70 0.7857
612.80 0.7855
612.90 0.7853
613.00 0.7852
613.10 0.785
613.20 0.7848
613.30 0.7846
613.40 0.7844
613.50 0.7842
613.60 0.784
613.70 0.7838
613.80 0.7836
613.90 0.7835
614.00 0.7833
614.10 0.7831
614.20 0.7829
614.30 0.7827
614.40 0.7825
614.50 0.7823
614.60 0.7822
614.70 0.782
614.80 0.7818
614.90 0.7816
615.00 0.7814
615.10 0.7813
615.20 0.7811
615.30 0.7809
615.40 0.7807
615.50 0.7805
615.60 0.7803
615.70 0.7801
615.80 0.7799
615.90 0.7797
616.00 0.7796
616.10 0.7794
616.20 0.7792
616.30 0.779
616.40 0.7788
616.50 0.7786
616.60 0.7784
616.70 0.7782
616.80 0.7781
616.90 0.7779
617.00 0.7777
617.10 0.7775
617.20 0.7773
617.30 0.7771
617.40 0.7769
617.50 0.7767
617.60 0.7766
617.70 0.7764
617.80 0.7762
617.90 0.776
618.00 0.7758
618.10 0.7756
618.20 0.7754
618.30 0.7752
618.40 0.7751
618.50 0.7749
618.60 0.7747
618.70 0.7745
618.80 0.7743
618.90 0.7741
619.00 0.7739
619.10 0.7738
619.20 0.7736
619.30 0.7734
619.40 0.7732
619.50 0.773
619.60 0.7728
619.70 0.7726
619.80 0.7725
619.90 0.7723
620.00 0.7721
620.10 0.7719
620.20 0.7717
620.30 0.7715
620.40 0.7714
620.50 0.7712
620.60 0.771
620.70 0.7708
620.80 0.7706
620.90 0.7704
621.00 0.7702
621.10 0.7701
621.20 0.7699
621.30 0.7697
621.40 0.7695
621.50 0.7693
621.60 0.7691
621.70 0.769
621.80 0.7688
621.90 0.7686
622.00 0.7684
622.10 0.7682
622.20 0.768
622.30 0.7679
622.40 0.7677
622.50 0.7675
622.60 0.7673
622.70 0.7671
622.80 0.7669
622.90 0.7668
623.00 0.7666
623.10 0.7664
623.20 0.7662
623.30 0.766
623.40 0.7658
623.50 0.7657
623.60 0.7655
623.70 0.7653
623.80 0.7651
623.90 0.7649
624.00 0.7648
624.10 0.7646
624.20 0.7644
624.30 0.7642
624.40 0.764
624.50 0.7638
624.60 0.7636
624.70 0.7634
624.80 0.7633
624.90 0.7631
625.00 0.7629
625.10 0.7627
625.20 0.7625
625.30 0.7623
625.40 0.7621
625.50 0.762
625.60 0.7618
625.70 0.7616
625.80 0.7614
625.90 0.7612
626.00 0.7611
626.10 0.7609
626.20 0.7607
626.30 0.7605
626.40 0.7603
626.50 0.7601
626.60 0.7599
626.70 0.7598
626.80 0.7596
626.90 0.7594
627.00 0.7592
627.10 0.759
627.20 0.7588
627.30 0.7587
627.40 0.7585
627.50 0.7583
627.60 0.7581
627.70 0.7579
627.80 0.7578
627.90 0.7576
628.00 0.7574
628.10 0.7572
628.20 0.757
628.30 0.7568
628.40 0.7567
628.50 0.7565
628.60 0.7563
628.70 0.7561
628.80 0.7559
628.90 0.7557
629.00 0.7556
629.10 0.7554
629.20 0.7552
629.30 0.755
629.40 0.7548
629.50 0.7546
629.60 0.7544
629.70 0.7543
629.80 0.7541
629.90 0.7539
630.00 0.7537
630.10 0.7535
630.20 0.7533
630.30 0.7532
630.40 0.753
630.50 0.7528
630.60 0.7526
630.70 0.7524
630.80 0.7522
630.90 0.7521
631.00 0.7519
631.10 0.7517
631.20 0.7515
631.30 0.7514
631.40 0.7512
631.50 0.751
631.60 0.7508
631.70 0.7506
631.80 0.7505
631.90 0.7503
632.00 0.7501
632.10 0.7499
632.20 0.7497
632.30 0.7495
632.40 0.7494
632.50 0.7492
632.60 0.749
632.70 0.7488
632.80 0.7486
632.90 0.7485
633.00 0.7483
633.10 0.7481
633.20 0.7479
633.30 0.7477
633.40 0.7475
633.50 0.7474
633.60 0.7472
633.70 0.747
633.80 0.7468
633.90 0.7466
634.00 0.7465
634.10 0.7463
634.20 0.7461
634.30 0.7459
634.40 0.7457
634.50 0.7456
634.60 0.7454
634.70 0.7452
634.80 0.745
634.90 0.7448
635.00 0.7447
635.10 0.7445
635.20 0.7443
635.30 0.7441
635.40 0.7439
635.50 0.7437
635.60 0.7435
635.70 0.7434
635.80 0.7432
635.90 0.743
636.00 0.7428
636.10 0.7426
636.20 0.7424
636.30 0.7422
636.40 0.7421
636.50 0.7419
636.60 0.7417
636.70 0.7415
636.80 0.7414
636.90 0.7412
637.00 0.741
637.10 0.7408
637.20 0.7406
637.30 0.7405
637.40 0.7403
637.50 0.7401
637.60 0.7399
637.70 0.7397
637.80 0.7396
637.90 0.7394
638.00 0.7392
638.10 0.739
638.20 0.7389
638.30 0.7387
638.40 0.7385
638.50 0.7383
638.60 0.7381
638.70 0.7379
638.80 0.7378
638.90 0.7376
639.00 0.7374
639.10 0.7372
639.20 0.737
639.30 0.7368
639.40 0.7367
639.50 0.7365
639.60 0.7363
639.70 0.7361
639.80 0.736
639.90 0.7358
640.00 0.7356
640.10 0.7354
640.20 0.7352
640.30 0.7351
640.40 0.7349
640.50 0.7347
640.60 0.7345
640.70 0.7343
640.80 0.7342
640.90 0.734
641.00 0.7338
641.10 0.7336
641.20 0.7334
641.30 0.7332
641.40 0.7331
641.50 0.7329
641.60 0.7327
641.70 0.7325
641.80 0.7323
641.90 0.7322
642.00 0.732
642.10 0.7318
642.20 0.7316
642.30 0.7314
642.40 0.7313
642.50 0.7311
642.60 0.7309
642.70 0.7307
642.80 0.7306
642.90 0.7304
643.00 0.7302
643.10 0.73
643.20 0.7299
643.30 0.7297
643.40 0.7295
643.50 0.7293
643.60 0.7291
643.70 0.729
643.80 0.7288
643.90 0.7286
644.00 0.7284
644.10 0.7282
644.20 0.7281
644.30 0.7279
644.40 0.7277
644.50 0.7275
644.60 0.7273
644.70 0.7272
644.80 0.727
644.90 0.7268
645.00 0.7266
645.10 0.7264
645.20 0.7263
645.30 0.7261
645.40 0.7259
645.50 0.7257
645.60 0.7255
645.70 0.7253
645.80 0.7252
645.90 0.725
646.00 0.7248
646.10 0.7246
646.20 0.7244
646.30 0.7242
646.40 0.7241
646.50 0.7239
646.60 0.7237
646.70 0.7235
646.80 0.7233
646.90 0.7232
647.00 0.723
647.10 0.7228
647.20 0.7226
647.30 0.7225
647.40 0.7223
647.50 0.7221
647.60 0.7219
647.70 0.7217
647.80 0.7215
647.90 0.7213
648.00 0.7212
648.10 0.721
648.20 0.7208
648.30 0.7206
648.40 0.7204
648.50 0.7202
648.60 0.7201
648.70 0.7199
648.80 0.7197
648.90 0.7195
649.00 0.7193
649.10 0.7192
649.20 0.719
649.30 0.7188
649.40 0.7186
649.50 0.7184
649.60 0.7182
649.70 0.718
649.80 0.7178
649.90 0.7177
650.00 0.7175
650.10 0.7173
650.20 0.7171
650.30 0.7169
650.40 0.7167
650.50 0.7165
650.60 0.7163
650.70 0.7161
650.80 0.7159
650.90 0.7157
651.00 0.7155
651.10 0.7153
651.20 0.7151
651.30 0.715
651.40 0.7147
651.50 0.7145
651.60 0.7143
651.70 0.7141
651.80 0.7139
651.90 0.7137
652.00 0.7135
652.10 0.7133
652.20 0.713
652.30 0.7127
652.40 0.7121
652.50 0.7114
652.60 0.7107
652.70 0.71
652.80 0.7093
652.90 0.7087
653.00 0.708
653.10 0.7073
653.20 0.7066
653.30 0.7057
653.40 0.7041
653.50 0.7024
653.60 0.7007
653.70 0.6991
653.80 0.6974
653.90 0.6957
654.00 0.6941
654.10 0.6924
654.20 0.6907
654.30 0.6889
654.40 0.6861
654.50 0.6834
654.60 0.6806
654.70 0.6779
654.80 0.6746
654.90 0.6692
655.00 0.6639
655.10 0.6585
655.20 0.6531
655.30 0.647
655.40 0.6375
655.50 0.627
655.60 0.6127
655.70 0.5965
655.80 0.5729
655.90 0.5452
656.00 0.501
656.10 0.4528
656.20 0.3767
656.30 0.3315
656.40 0.4076
656.50 0.473
656.60 0.5173
656.70 0.5573
656.80 0.5807
656.90 0.6022
657.00 0.6162
657.10 0.6293
657.20 0.6385
657.30 0.6468
657.40 0.6518
657.50 0.6569
657.60 0.6619
657.70 0.6669
657.80 0.6714
657.90 0.6738
658.00 0.6762
658.10 0.6786
658.20 0.681
658.30 0.6832
658.40 0.6845
658.50 0.6857
658.60 0.687
658.70 0.6883
658.80 0.6896
658.90 0.6909
659.00 0.6922
659.10 0.6935
659.20 0.6948
659.30 0.6959
659.40 0.6962
659.50 0.6965
659.60 0.6968
659.70 0.6971
659.80 0.6974
659.90 0.6978
660.00 0.6981
660.10 0.6984
660.20 0.6987
660.30 0.6989
660.40 0.6988
660.50 0.6987
660.60 0.6985
660.70 0.6984
660.80 0.6983
660.90 0.6981
661.00 0.698
661.10 0.6978
661.20 0.6977
661.30 0.6976
661.40 0.6974
661.50 0.6973
661.60 0.6971
661.70 0.6969
661.80 0.6968
661.90 0.6966
662.00 0.6965
662.10 0.6963
662.20 0.6962
662.30 0.696
662.40 0.6959
662.50 0.6957
662.60 0.6955
662.70 0.6954
662.80 0.6952
662.90 0.695
663.00 0.6949
663.10 0.6947
663.20 0.6945
663.30 0.6944
663.40 0.6942
663.50 0.694
663.60 0.6939
663.70 0.6937
663.80 0.6935
663.90 0.6934
664.00 0.6932
664.10 0.693
664.20 0.6929
664.30 0.6927
664.40 0.6925
664.50 0.6924
664.60 0.6922
664.70 0.692
664.80 0.6919
664.90 0.6917
665.00 0.6915
665.10 0.6914
665.20 0.6912
665.30 0.6911
665.40 0.6909
665.50 0.6907
665.60 0.6905
665.70 0.6904
665.80 0.6902
665.90 0.69
666.00 0.6899
666.10 0.6897
666.20 0.6895
666.30 0.6893
666.40 0.6892
666.50 0.689
666.60 0.6888
666.70 0.6887
666.80 0.6885
666.90 0.6883
667.00 0.6882
667.10 0.688
667.20 0.6878
667.30 0.6877
667.40 0.6875
667.50 0.6873
667.60 0.6871
667.70 0.687
667.80 0.6868
667.90 0.6866
668.00 0.6865
668.10 0.6863
668.20 0.6861
668.30 0.686
668.40 0.6858
668.50 0.6856
668.60 0.6855
668.70 0.6853
668.80 0.6851
668.90 0.685
669.00 0.6848
669.10 0.6846
669.20 0.6845
669.30 0.6843
669.40 0.6841
669.50 0.6839
669.60 0.6838
669.70 0.6836
669.80 0.6834
669.90 0.6833
670.00 0.6831
670.10 0.6829
670.20 0.6828
670.30 0.6826
670.40 0.6824
670.50 0.6823
670.60 0.6821
670.70 0.6819
670.80 0.6817
670.90 0.6816
671.00 0.6814
671.10 0.6812
671.20 0.681
671.30 0.6809
671.40 0.6807
671.50 0.6805
671.60 0.6804
671.70 0.6802
671.80 0.68
671.90 0.6799
672.00 0.6797
672.10 0.6795
672.20 0.6794
672.30 0.6792
672.40 0.679
672.50 0.6789
672.60 0.6787
672.70 0.6785
672.80 0.6784
672.90 0.6782
673.00 0.678
673.10 0.6778
673.20 0.6777
673.30 0.6775
673.40 0.6773
673.50 0.6772
673.60 0.677
673.70 0.6768
673.80 0.6767
673.90 0.6765
674.00 0.6763
674.10 0.6762
674.20 0.676
674.30 0.6759
674.40 0.6757
674.50 0.6755
674.60 0.6753
674.70 0.6752
674.80 0.675
674.90 0.6748
675.00 0.6747
675.10 0.6745
675.20 0.6743
675.30 0.6742
675.40 0.674
675.50 0.6738
675.60 0.6736
675.70 0.6735
675.80 0.6733
675.90 0.6731
676.00 0.673
676.10 0.6728
676.20 0.6726
676.30 0.6725
676.40 0.6723
676.50 0.6721
676.60 0.672
676.70 0.6718
676.80 0.6716
676.90 0.6714
677.00 0.6713
677.10 0.6711
677.20 0.6709
677.30 0.6708
677.40 0.6706
677.50 0.6705
677.60 0.6703
677.70 0.6701
677.80 0.67
677.90 0.6698
678.00 0.6696
678.10 0.6695
678.20 0.6693
678.30 0.6692
678.40 0.669
678.50 0.6688
678.60 0.6687
678.70 0.6685
678.80 0.6683
678.90 0.6682
679.00 0.668
679.10 0.6678
679.20 0.6676
679.30 0.6675
679.40 0.6673
679.50 0.6671
679.60 0.667
679.70 0.6668
679.80 0.6666
679.90 0.6665
680.00 0.6663
680.10 0.6661
680.20 0.666
680.30 0.6658
680.40 0.6657
680.50 0.6655
680.60 0.6653
680.70 0.6652
680.80 0.665
680.90 0.6648
681.00 0.6647
681.10 0.6645
681.20 0.6643
681.30 0.6642
681.40 0.664
681.50 0.6638
681.60 0.6636
681.70 0.6635
681.80 0.6633
681.90 0.6631
682.00 0.663
682.10 0.6628
682.20 0.6626
682.30 0.6624
682.40 0.6623
682.50 0.6621
682.60 0.662
682.70 0.6618
682.80 0.6616
682.90 0.6615
683.00 0.6613
683.10 0.6611
683.20 0.661
683.30 0.6608
683.40 0.6606
683.50 0.6605
683.60 0.6603
683.70 0.6601
683.80 0.66
683.90 0.6598
684.00 0.6597
684.10 0.6595
684.20 0.6593
684.30 0.6592
684.40 0.659
684.50 0.6588
684.60 0.6587
684.70 0.6585
684.80 0.6583
684.90 0.6582
685.00 0.658
685.10 0.6579
685.20 0.6577
685.30 0.6575
685.40 0.6574
685.50 0.6572
685.60 0.657
685.70 0.6569
685.80 0.6567
685.90 0.6565
686.00 0.6564
686.10 0.6562
686.20 0.656
686.30 0.6559
686.40 0.6557
686.50 0.6555
686.60 0.6554
686.70 0.6552
686.80 0.655
686.90 0.6549
687.00 0.6547
687.10 0.6546
687.20 0.6544
687.30 0.6542
687.40 0.6541
687.50 0.6539
687.60 0.6537
687.70 0.6536
687.80 0.6534
687.90 0.6532
688.00 0.6531
688.10 0.6529
688.20 0.6527
688.30 0.6526
688.40 0.6524
688.50 0.6522
688.60 0.6521
688.70 0.6519
688.80 0.6518
688.90 0.6516
689.00 0.6514
689.10 0.6513
689.20 0.6511
689.30 0.651
689.40 0.6508
689.50 0.6506
689.60 0.6505
689.70 0.6503
689.80 0.6501
689.90 0.65
690.00 0.6498
690.10 0.6496
690.20 0.6495
690.30 0.6493
690.40 0.6492
690.50 0.649
690.60 0.6488
690.70 0.6487
690.80 0.6485
690.90 0.6483
691.00 0.6482
691.10 0.648
691.20 0.6478
691.30 0.6477
691.40 0.6475
691.50 0.6474
691.60 0.6472
691.70 0.647
691.80 0.6469
691.90 0.6467
692.00 0.6465
692.10 0.6464
692.20 0.6462
692.30 0.646
692.40 0.6459
692.50 0.6457
692.60 0.6456
692.70 0.6454
692.80 0.6452
692.90 0.6451
693.00 0.6449
693.10 0.6447
693.20 0.6446
693.30 0.6444
693.40 0.6443
693.50 0.6441
693.60 0.6439
693.70 0.6438
693.80 0.6436
693.90 0.6435
694.00 0.6433
694.10 0.6431
694.20 0.643
694.30 0.6428
694.40 0.6426
694.50 0.6425
694.60 0.6423
694.70 0.6422
694.80 0.642
694.90 0.6418
695.00 0.6417
695.10 0.6415
695.20 0.6414
695.30 0.6412
695.40 0.641
695.50 0.6409
695.60 0.6407
695.70 0.6405
695.80 0.6404
695.90 0.6402
696.00 0.6401
696.10 0.6399
696.20 0.6397
696.30 0.6396
696.40 0.6394
696.50 0.6393
696.60 0.6391
696.70 0.6389
696.80 0.6388
696.90 0.6386
697.00 0.6385
697.10 0.6383
697.20 0.6381
697.30 0.638
697.40 0.6378
697.50 0.6376
697.60 0.6375
697.70 0.6373
697.80 0.6372
697.90 0.637
698.00 0.6368
698.10 0.6367
698.20 0.6365
698.30 0.6364
698.40 0.6362
698.50 0.636
698.60 0.6359
698.70 0.6357
698.80 0.6356
698.90 0.6354
699.00 0.6353
699.10 0.6351
699.20 0.6349
699.30 0.6348
699.40 0.6346
699.50 0.6345
699.60 0.6343
699.70 0.6341
699.80 0.634
699.90 0.6338
700.00 0.6337
700.10 0.6335
700.20 0.6333
700.30 0.6332
700.40 0.633
700.50 0.6329
700.60 0.6327
700.70 0.6325
700.80 0.6324
700.90 0.6322
701.00 0.6321
701.10 0.6319
701.20 0.6317
701.30 0.6316
701.40 0.6314
701.50 0.6313
701.60 0.6311
701.70 0.631
701.80 0.6308
701.90 0.6306
702.00 0.6305
702.10 0.6303
702.20 0.6302
702.30 0.63
702.40 0.6298
702.50 0.6297
702.60 0.6295
702.70 0.6294
702.80 0.6292
702.90 0.6291
703.00 0.6289
703.10 0.6287
703.20 0.6286
703.30 0.6284
703.40 0.6283
703.50 0.6281
703.60 0.6279
703.70 0.6278
703.80 0.6276
703.90 0.6275
704.00 0.6273
704.10 0.6272
704.20 0.627
704.30 0.6268
704.40 0.6267
704.50 0.6265
704.60 0.6264
704.70 0.6262
704.80 0.6261
704.90 0.6259
705.00 0.6257
705.10 0.6256
705.20 0.6254
705.30 0.6253
705.40 0.6251
705.50 0.625
705.60 0.6248
705.70 0.6246
705.80 0.6245
705.90 0.6243
706.00 0.6242
706.10 0.624
706.20 0.6238
706.30 0.6237
706.40 0.6235
706.50 0.6234
706.60 0.6232
706.70 0.6231
706.80 0.6229
706.90 0.6227
707.00 0.6226
707.10 0.6224
707.20 0.6223
707.30 0.6221
707.40 0.622
707.50 0.6218
707.60 0.6216
707.70 0.6215
707.80 0.6213
707.90 0.6212
708.00 0.621
708.10 0.6209
708.20 0.6207
708.30 0.6205
708.40 0.6204
708.50 0.6202
708.60 0.6201
708.70 0.6199
708.80 0.6198
708.90 0.6196
709.00 0.6194
709.10 0.6193
709.20 0.6191
709.30 0.619
709.40 0.6188
709.50 0.6187
709.60 0.6185
709.70 0.6184
709.80 0.6182
709.90 0.618
710.00 0.6179
710.10 0.6177
710.20 0.6176
710.30 0.6174
710.40 0.6173
710.50 0.6171
710.60 0.617
710.70 0.6168
710.80 0.6166
710.90 0.6165
711.00 0.6163
711.10 0.6162
711.20 0.616
711.30 0.6159
711.40 0.6157
711.50 0.6155
711.60 0.6154
711.70 0.6152
711.80 0.6151
711.90 0.6149
712.00 0.6148
712.10 0.6146
712.20 0.6145
712.30 0.6143
712.40 0.6141
712.50 0.614
712.60 0.6138
712.70 0.6137
712.80 0.6135
712.90 0.6134
713.00 0.6132
713.10 0.6131
713.20 0.6129
713.30 0.6128
713.40 0.6126
713.50 0.6124
713.60 0.6123
713.70 0.6121
713.80 0.612
713.90 0.6118
714.00 0.6117
714.10 0.6115
714.20 0.6114
714.30 0.6112
714.40 0.6111
714.50 0.6109
714.60 0.6107
714.70 0.6106
714.80 0.6104
714.90 0.6103
715.00 0.6101
715.10 0.61
715.20 0.6098
715.30 0.6097
715.40 0.6095
715.50 0.6094
715.60 0.6092
715.70 0.6091
715.80 0.6089
715.90 0.6087
716.00 0.6086
716.10 0.6084
716.20 0.6083
716.30 0.6081
716.40 0.608
716.50 0.6078
716.60 0.6077
716.70 0.6075
716.80 0.6074
716.90 0.6072
717.00 0.6071
717.10 0.6069
717.20 0.6067
717.30 0.6066
717.40 0.6064
717.50 0.6063
717.60 0.6061
717.70 0.606
717.80 0.6058
717.90 0.6057
718.00 0.6055
718.10 0.6054
718.20 0.6052
718.30 0.6051
718.40 0.6049
718.50 0.6048
718.60 0.6046
718.70 0.6045
718.80 0.6043
718.90 0.6042
719.00 0.604
719.10 0.6038
719.20 0.6037
719.30 0.6035
719.40 0.6034
719.50 0.6032
719.60 0.6031
719.70 0.6029
719.80 0.6028
719.90 0.6026
720.00 0.6025
720.10 0.6023
720.20 0.6022
720.30 0.602
720.40 0.6019
720.50 0.6017
720.60 0.6016
720.70 0.6014
720.80 0.6013
720.90 0.6011
721.00 0.601
721.10 0.6008
721.20 0.6007
721.30 0.6005
721.40 0.6003
721.50 0.6002
721.60 0.6
721.70 0.5999
721.80 0.5997
721.90 0.5996
722.00 0.5994
722.10 0.5993
722.20 0.5991
722.30 0.599
722.40 0.5988
722.50 0.5987
722.60 0.5985
722.70 0.5984
722.80 0.5982
722.90 0.5981
723.00 0.5979
723.10 0.5978
723.20 0.5976
723.30 0.5975
723.40 0.5973
723.50 0.5972
723.60 0.597
723.70 0.5969
723.80 0.5967
723.90 0.5966
724.00 0.5964
724.10 0.5963
724.20 0.5961
724.30 0.596
724.40 0.5958
724.50 0.5957
724.60 0.5955
724.70 0.5954
724.80 0.5952
724.90 0.5951
725.00 0.5949
725.10 0.5948
725.20 0.5946
725.30 0.5945
725.40 0.5943
725.50 0.5942
725.60 0.594
725.70 0.5939
725.80 0.5937
725.90 0.5936
726.00 0.5934
726.10 0.5933
726.20 0.5931
726.30 0.593
726.40 0.5928
726.50 0.5927
726.60 0.5925
726.70 0.5924
726.80 0.5922
726.90 0.5921
727.00 0.5919
727.10 0.5918
727.20 0.5916
727.30 0.5915
727.40 0.5913
727.50 0.5912
727.60 0.591
727.70 0.5909
727.80 0.5907
727.90 0.5906
728.00 0.5904
728.10 0.5903
728.20 0.5901
728.30 0.59
728.40 0.5898
728.50 0.5897
728.60 0.5895
728.70 0.5894
728.80 0.5892
728.90 0.5891
729.00 0.589
729.10 0.5888
729.20 0.5887
729.30 0.5885
729.40 0.5884
729.50 0.5882
729.60 0.5881
729.70 0.5879
729.80 0.5878
729.90 0.5876
730.00 0.5875
730.10 0.5873
730.20 0.5872
730.30 0.587
730.40 0.5869
730.50 0.5867
730.60 0.5866
730.70 0.5864
730.80 0.5863
730.90 0.5861
731.00 0.586
731.10 0.5858
731.20 0.5857
731.30 0.5855
731.40 0.5854
731.50 0.5852
731.60 0.5851
731.70 0.5849
731.80 0.5848
731.90 0.5846
732.00 0.5845
732.10 0.5843
732.20 0.5842
732.30 0.584
732.40 0.5839
732.50 0.5837
732.60 0.5836
732.70 0.5834
732.80 0.5833
732.90 0.5831
733.00 0.583
733.10 0.5828
733.20 0.5827
733.30 0.5825
733.40 0.5824
733.50 0.5823
733.60 0.5821
733.70 0.582
733.80 0.5818
733.90 0.5817
734.00 0.5815
734.10 0.5814
734.20 0.5812
734.30 0.5811
734.40 0.5809
734.50 0.5808
734.60 0.5806
734.70 0.5805
734.80 0.5803
734.90 0.5802
735.00 0.58
735.10 0.5799
735.20 0.5797
735.30 0.5796
735.40 0.5794
735.50 0.5793
735.60 0.5792
735.70 0.579
735.80 0.5789
735.90 0.5787
736.00 0.5786
736.10 0.5784
736.20 0.5783
736.30 0.5781
736.40 0.578
736.50 0.5778
736.60 0.5777
736.70 0.5775
736.80 0.5774
736.90 0.5773
737.00 0.5771
737.10 0.577
737.20 0.5768
737.30 0.5767
737.40 0.5765
737.50 0.5764
737.60 0.5762
737.70 0.5761
737.80 0.5759
737.90 0.5758
738.00 0.5756
738.10 0.5755
738.20 0.5754
738.30 0.5752
738.40 0.5751
738.50 0.5749
738.60 0.5748
738.70 0.5746
738.80 0.5745
738.90 0.5743
739.00 0.5742
739.10 0.5741
739.20 0.5739
739.30 0.5738
739.40 0.5736
739.50 0.5735
739.60 0.5733
739.70 0.5732
739.80 0.573
739.90 0.5729
740.00 0.5727
740.10 0.5726
740.20 0.5725
740.30 0.5723
740.40 0.5722
740.50 0.572
740.60 0.5719
740.70 0.5717
740.80 0.5716
740.90 0.5714
741.00 0.5713
741.10 0.5711
741.20 0.571
741.30 0.5709
741.40 0.5707
741.50 0.5706
741.60 0.5704
741.70 0.5703
741.80 0.5701
741.90 0.57
742.00 0.5698
742.10 0.5697
742.20 0.5695
742.30 0.5694
742.40 0.5693
742.50 0.5691
742.60 0.569
742.70 0.5688
742.80 0.5687
742.90 0.5685
743.00 0.5684
743.10 0.5682
743.20 0.5681
743.30 0.568
743.40 0.5678
743.50 0.5677
743.60 0.5675
743.70 0.5674
743.80 0.5672
743.90 0.5671
744.00 0.5669
744.10 0.5668
744.20 0.5667
744.30 0.5665
744.40 0.5664
744.50 0.5662
744.60 0.5661
744.70 0.5659
744.80 0.5658
744.90 0.5656
745.00 0.5655
745.10 0.5654
745.20 0.5652
745.30 0.5651
745.40 0.5649
745.50 0.5648
745.60 0.5646
745.70 0.5645
745.80 0.5644
745.90 0.5642
746.00 0.5641
746.10 0.5639
746.20 0.5638
746.30 0.5636
746.40 0.5635
746.50 0.5634
746.60 0.5632
746.70 0.5631
746.80 0.5629
746.90 0.5628
747.00 0.5626
747.10 0.5625
747.20 0.5624
747.30 0.5622
747.40 0.5621
747.50 0.5619
747.60 0.5618
747.70 0.5617
747.80 0.5615
747.90 0.5614
748.00 0.5612
748.10 0.5611
748.20 0.5609
748.30 0.5608
748.40 0.5607
748.50 0.5605
748.60 0.5604
748.70 0.5602
748.80 0.5601
748.90 0.56
749.00 0.5598
749.10 0.5597
749.20 0.5595
749.30 0.5594
749.40 0.5592
749.50 0.5591
749.60 0.559
749.70 0.5588
749.80 0.5587
749.90 0.5585
750.00 0.5584
750.10 0.5583
750.20 0.5581
750.30 0.558
750.40 0.5578
750.50 0.5577
750.60 0.5576
750.70 0.5574
750.80 0.5573
750.90 0.5571
751.00 0.557
751.10 0.5568
751.20 0.5567
751.30 0.5566
751.40 0.5564
751.50 0.5563
751.60 0.5561
751.70 0.556
751.80 0.5559
751.90 0.5557
752.00 0.5556
752.10 0.5554
752.20 0.5553
752.30 0.5552
752.40 0.555
752.50 0.5549
752.60 0.5547
752.70 0.5546
752.80 0.5544
752.90 0.5543
753.00 0.5542
753.10 0.554
753.20 0.5539
753.30 0.5537
753.40 0.5536
753.50 0.5535
753.60 0.5533
753.70 0.5532
753.80 0.553
753.90 0.5529
754.00 0.5528
754.10 0.5526
754.20 0.5525
754.30 0.5523
754.40 0.5522
754.50 0.5521
754.60 0.5519
754.70 0.5518
754.80 0.5516
754.90 0.5515
755.00 0.5514
755.10 0.5512
755.20 0.5511
755.30 0.551
755.40 0.5508
755.50 0.5507
755.60 0.5505
755.70 0.5504
755.80 0.5503
755.90 0.5501
756.00 0.55
756.10 0.5498
756.20 0.5497
756.30 0.5496
756.40 0.5494
756.50 0.5493
756.60 0.5491
756.70 0.549
756.80 0.5489
756.90 0.5487
757.00 0.5486
757.10 0.5485
757.20 0.5483
757.30 0.5482
757.40 0.548
757.50 0.5479
757.60 0.5478
757.70 0.5476
757.80 0.5475
757.90 0.5474
758.00 0.5472
758.10 0.5471
758.20 0.5469
758.30 0.5468
758.40 0.5467
758.50 0.5465
758.60 0.5464
758.70 0.5462
758.80 0.5461
758.90 0.546
759.00 0.5458
759.10 0.5457
759.20 0.5456
759.30 0.5454
759.40 0.5453
759.50 0.5452
759.60 0.545
759.70 0.5449
759.80 0.5447
759.90 0.5446
760.00 0.5445
760.10 0.5443
760.20 0.5442
760.30 0.5441
760.40 0.5439
760.50 0.5438
760.60 0.5436
760.70 0.5435
760.80 0.5434
760.90 0.5432
761.00 0.5431
761.10 0.5429
761.20 0.5428
761.30 0.5427
761.40 0.5425
761.50 0.5424
761.60 0.5423
761.70 0.5421
761.80 0.542
761.90 0.5418
762.00 0.5417
762.10 0.5416
762.20 0.5414
762.30 0.5413
762.40 0.5411
762.50 0.541
762.60 0.5409
762.70 0.5407
762.80 0.5406
762.90 0.5405
763.00 0.5403
763.10 0.5402
763.20 0.54
763.30 0.5399
763.40 0.5398
763.50 0.5396
763.60 0.5395
763.70 0.5394
763.80 0.5392
763.90 0.5391
764.00 0.539
764.10 0.5388
764.20 0.5387
764.30 0.5385
764.40 0.5384
764.50 0.5383
764.60 0.5381
764.70 0.538
764.80 0.5379
764.90 0.5377
765.00 0.5376
765.10 0.5374
765.20 0.5373
765.30 0.5372
765.40 0.537
765.50 0.5369
765.60 0.5368
765.70 0.5366
765.80 0.5365
765.90 0.5364
766.00 0.5362
766.10 0.5361
766.20 0.536
766.30 0.5358
766.40 0.5357
766.50 0.5355
766.60 0.5354
766.70 0.5353
766.80 0.5351
766.90 0.535
767.00 0.5349
767.10 0.5347
767.20 0.5346
767.30 0.5345
767.40 0.5343
767.50 0.5342
767.60 0.5341
767.70 0.5339
767.80 0.5338
767.90 0.5337
768.00 0.5335
768.10 0.5334
768.20 0.5332
768.30 0.5331
768.40 0.533
768.50 0.5328
768.60 0.5327
768.70 0.5326
768.80 0.5324
768.90 0.5323
769.00 0.5322
769.10 0.532
769.20 0.5319
769.30 0.5318
769.40 0.5316
769.50 0.5315
769.60 0.5314
769.70 0.5312
769.80 0.5311
769.90 0.531
770.00 0.5308
770.10 0.5307
770.20 0.5306
770.30 0.5304
770.40 0.5303
770.50 0.5302
770.60 0.53
770.70 0.5299
770.80 0.5298
770.90 0.5296
771.00 0.5295
771.10 0.5294
771.20 0.5292
771.30 0.5291
771.40 0.5289
771.50 0.5288
771.60 0.5287
771.70 0.5285
771.80 0.5284
771.90 0.5283
772.00 0.5281
772.10 0.528
772.20 0.5279
772.30 0.5277
772.40 0.5276
772.50 0.5275
772.60 0.5273
772.70 0.5272
772.80 0.5271
772.90 0.5269
773.00 0.5268
773.10 0.5267
773.20 0.5265
773.30 0.5264
773.40 0.5263
773.50 0.5261
773.60 0.526
773.70 0.5259
773.80 0.5257
773.90 0.5256
774.00 0.5255
774.10 0.5253
774.20 0.5252
774.30 0.5251
774.40 0.5249
774.50 0.5248
774.60 0.5247
774.70 0.5245
774.80 0.5244
774.90 0.5243
775.00 0.5241
775.10 0.524
775.20 0.5239
775.30 0.5237
775.40 0.5236
775.50 0.5235
775.60 0.5233
775.70 0.5232
775.80 0.5231
775.90 0.523
776.00 0.5228
776.10 0.5227
776.20 0.5226
776.30 0.5224
776.40 0.5223
776.50 0.5222
776.60 0.522
776.70 0.5219
776.80 0.5218
776.90 0.5216
777.00 0.5215
777.10 0.5214
777.20 0.5212
777.30 0.5211
777.40 0.521
777.50 0.5208
777.60 0.5207
777.70 0.5206
777.80 0.5205
777.90 0.5203
778.00 0.5202
778.10 0.5201
778.20 0.5199
778.30 0.5198
778.40 0.5197
778.50 0.5195
778.60 0.5194
778.70 0.5193
778.80 0.5191
778.90 0.519
779.00 0.5189
779.10 0.5188
779.20 0.5186
779.30 0.5185
779.40 0.5184
779.50 0.5182
779.60 0.5181
779.70 0.518
779.80 0.5178
779.90 0.5177
780.00 0.5176
780.10 0.5174
780.20 0.5173
780.30 0.5172
780.40 0.5171
780.50 0.5169
780.60 0.5168
780.70 0.5167
780.80 0.5165
780.90 0.5164
781.00 0.5163
781.10 0.5161
781.20 0.516
781.30 0.5159
781.40 0.5157
781.50 0.5156
781.60 0.5155
781.70 0.5153
781.80 0.5152
781.90 0.5151
782.00 0.515
782.10 0.5148
782.20 0.5147
782.30 0.5146
782.40 0.5144
782.50 0.5143
782.60 0.5142
782.70 0.514
782.80 0.5139
782.90 0.5138
783.00 0.5136
783.10 0.5135
783.20 0.5134
783.30 0.5133
783.40 0.5131
783.50 0.513
783.60 0.5129
783.70 0.5127
783.80 0.5126
783.90 0.5125
784.00 0.5123
784.10 0.5122
784.20 0.5121
784.30 0.512
784.40 0.5118
784.50 0.5117
784.60 0.5116
784.70 0.5114
784.80 0.5113
784.90 0.5112
785.00 0.5111
785.10 0.5109
785.20 0.5108
785.30 0.5107
785.40 0.5105
785.50 0.5104
785.60 0.5103
785.70 0.5101
785.80 0.51
785.90 0.5099
786.00 0.5098
786.10 0.5096
786.20 0.5095
786.30 0.5094
786.40 0.5092
786.50 0.5091
786.60 0.509
786.70 0.5089
786.80 0.5087
786.90 0.5086
787.00 0.5085
787.10 0.5083
787.20 0.5082
787.30 0.5081
787.40 0.508
787.50 0.5078
787.60 0.5077
787.70 0.5076
787.80 0.5074
787.90 0.5073
788.00 0.5072
788.10 0.5071
788.20 0.5069
788.30 0.5068
788.40 0.5067
788.50 0.5066
788.60 0.5064
788.70 0.5063
788.80 0.5062
788.90 0.506
789.00 0.5059
789.10 0.5058
789.20 0.5057
789.30 0.5055
789.40 0.5054
789.50 0.5053
789.60 0.5052
789.70 0.505
789.80 0.5049
789.90 0.5048
790.00 0.5046
790.10 0.5045
790.20 0.5044
790.30 0.5043
790.40 0.5041
790.50 0.504
790.60 0.5039
790.70 0.5038
790.80 0.5036
790.90 0.5035
791.00 0.5034
791.10 0.5032
791.20 0.5031
791.30 0.503
791.40 0.5029
791.50 0.5027
791.60 0.5026
791.70 0.5025
791.80 0.5023
791.90 0.5022
792.00 0.5021
792.10 0.502
792.20 0.5018
792.30 0.5017
792.40 0.5016
792.50 0.5015
792.60 0.5013
792.70 0.5012
792.80 0.5011
792.90 0.5009
793.00 0.5008
793.10 0.5007
793.20 0.5006
793.30 0.5004
793.40 0.5003
793.50 0.5002
793.60 0.5001
793.70 0.4999
793.80 0.4998
793.90 0.4997
794.00 0.4996
794.10 0.4994
794.20 0.4993
794.30 0.4992
794.40 0.4991
794.50 0.4989
794.60 0.4988
794.70 0.4987
794.80 0.4985
794.90 0.4984
795.00 0.4983
795.10 0.4982
795.20 0.498
795.30 0.4979
795.40 0.4978
795.50 0.4977
795.60 0.4975
795.70 0.4974
795.80 0.4973
795.90 0.4972
796.00 0.497
796.10 0.4969
796.20 0.4968
796.30 0.4967
796.40 0.4965
796.50 0.4964
796.60 0.4963
796.70 0.4962
796.80 0.496
796.90 0.4959
797.00 0.4958
797.10 0.4957
797.20 0.4955
797.30 0.4954
797.40 0.4953
797.50 0.4952
797.60 0.495
797.70 0.4949
797.80 0.4948
797.90 0.4947
798.00 0.4945
798.10 0.4944
798.20 0.4943
798.30 0.4942
798.40 0.494
798.50 0.4939
798.60 0.4938
798.70 0.4937
798.80 0.4936
798.90 0.4934
799.00 0.4933
799.10 0.4932
799.20 0.4931
799.30 0.4929
799.40 0.4928
799.50 0.4927
799.60 0.4926
799.70 0.4924
799.80 0.4923
799.90 0.4922
800.00 0.4921
800.10 0.4919
800.20 0.4918
800.30 0.4917
800.40 0.4916
800.50 0.4914
800.60 0.4913
800.70 0.4912
800.80 0.4911
800.90 0.4909
801.00 0.4908
801.10 0.4907
801.20 0.4906
801.30 0.4904
801.40 0.4903
801.50 0.4902
801.60 0.4901
801.70 0.4899
801.80 0.4898
801.90 0.4897
802.00 0.4896
802.10 0.4894
802.20 0.4893
802.30 0.4892
802.40 0.4891
802.50 0.489
802.60 0.4888
802.70 0.4887
802.80 0.4886
802.90 0.4885
803.00 0.4883
803.10 0.4882
803.20 0.4881
803.30 0.488
803.40 0.4878
803.50 0.4877
803.60 0.4876
803.70 0.4875
803.80 0.4873
803.90 0.4872
804.00 0.4871
804.10 0.487
804.20 0.4869
804.30 0.4867
804.40 0.4866
804.50 0.4865
804.60 0.4864
804.70 0.4862
804.80 0.4861
804.90 0.486
805.00 0.4859
805.10 0.4857
805.20 0.4856
805.30 0.4855
805.40 0.4854
805.50 0.4853
805.60 0.4851
805.70 0.485
805.80 0.4849
805.90 0.4848
806.00 0.4846
806.10 0.4845
806.20 0.4844
806.30 0.4843
806.40 0.4842
806.50 0.484
806.60 0.4839
806.70 0.4838
806.80 0.4837
806.90 0.4835
807.00 0.4834
807.10 0.4833
807.20 0.4832
807.30 0.4831
807.40 0.4829
807.50 0.4828
807.60 0.4827
807.70 0.4826
807.80 0.4824
807.90 0.4823
808.00 0.4822
808.10 0.4821
808.20 0.482
808.30 0.4818
808.40 0.4817
808.50 0.4816
808.60 0.4815
808.70 0.4814
808.80 0.4812
808.90 0.4811
809.00 0.481
809.10 0.4809
809.20 0.4807
809.30 0.4806
809.40 0.4805
809.50 0.4804
809.60 0.4803
809.70 0.4801
809.80 0.48
809.90 0.4799
810.00 0.4798
810.10 0.4797
810.20 0.4795
810.30 0.4794
810.40 0.4793
810.50 0.4792
810.60 0.4791
810.70 0.4789
810.80 0.4788
810.90 0.4787
811.00 0.4786
811.10 0.4785
811.20 0.4783
811.30 0.4782
811.40 0.4781
811.50 0.478
811.60 0.4778
811.70 0.4777
811.80 0.4776
811.90 0.4775
812.00 0.4774
812.10 0.4772
812.20 0.4771
812.30 0.477
812.40 0.4769
812.50 0.4768
812.60 0.4766
812.70 0.4765
812.80 0.4764
812.90 0.4763
813.00 0.4762
813.10 0.476
813.20 0.4759
813.30 0.4758
813.40 0.4757
813.50 0.4756
813.60 0.4754
813.70 0.4753
813.80 0.4752
813.90 0.4751
814.00 0.475
814.10 0.4748
814.20 0.4747
814.30 0.4746
814.40 0.4745
814.50 0.4744
814.60 0.4742
814.70 0.4741
814.80 0.474
814.90 0.4739
815.00 0.4738
815.10 0.4737
815.20 0.4735
815.30 0.4734
815.40 0.4733
815.50 0.4732
815.60 0.4731
815.70 0.4729
815.80 0.4728
815.90 0.4727
816.00 0.4726
816.10 0.4725
816.20 0.4723
816.30 0.4722
816.40 0.4721
816.50 0.472
816.60 0.4719
816.70 0.4718
816.80 0.4716
816.90 0.4715
817.00 0.4714
817.10 0.4713
817.20 0.4712
817.30 0.471
817.40 0.4709
817.50 0.4708
817.60 0.4707
817.70 0.4706
817.80 0.4705
817.90 0.4703
818.00 0.4702
818.10 0.4701
818.20 0.47
818.30 0.4699
818.40 0.4697
818.50 0.4696
818.60 0.4695
818.70 0.4694
818.80 0.4693
818.90 0.4692
819.00 0.469
819.10 0.4689
819.20 0.4688
819.30 0.4687
819.40 0.4686
819.50 0.4685
819.60 0.4683
819.70 0.4682
819.80 0.4681
819.90 0.468
820.00 0.4679
820.10 0.4678
820.20 0.4676
820.30 0.4675
820.40 0.4674
820.50 0.4673
820.60 0.4672
820.70 0.4671
820.80 0.4669
820.90 0.4668
821.00 0.4667
821.10 0.4666
821.20 0.4665
821.30 0.4664
821.40 0.4662
821.50 0.4661
821.60 0.466
821.70 0.4659
821.80 0.4658
821.90 0.4657
822.00 0.4656
822.10 0.4654
822.20 0.4653
822.30 0.4652
822.40 0.4651
822.50 0.465
822.60 0.4649
822.70 0.4647
822.80 0.4646
822.90 0.4645
823.00 0.4644
823.10 0.4643
823.20 0.4641
823.30 0.464
823.40 0.4639
823.50 0.4638
823.60 0.4637
823.70 0.4636
823.80 0.4634
823.90 0.4633
824.00 0.4632
824.10 0.4631
824.20 0.463
824.30 0.4629
824.40 0.4628
824.50 0.4626
824.60 0.4625
824.70 0.4624
824.80 0.4623
824.90 0.4622
825.00 0.4621
825.10 0.4619
825.20 0.4618
825.30 0.4617
825.40 0.4616
825.50 0.4615
825.60 0.4614
825.70 0.4612
825.80 0.4611
825.90 0.461
826.00 0.4609
826.10 0.4608
826.20 0.4607
826.30 0.4605
826.40 0.4604
826.50 0.4603
826.60 0.4602
826.70 0.4601
826.80 0.46
826.90 0.4599
827.00 0.4597
827.10 0.4596
827.20 0.4595
827.30 0.4594
827.40 0.4593
827.50 0.4592
827.60 0.459
827.70 0.4589
827.80 0.4588
827.90 0.4587
828.00 0.4586
828.10 0.4585
828.20 0.4584
828.30 0.4582
828.40 0.4581
828.50 0.458
828.60 0.4579
828.70 0.4578
828.80 0.4577
828.90 0.4575
829.00 0.4574
829.10 0.4573
829.20 0.4572
829.30 0.4571
829.40 0.457
829.50 0.4569
829.60 0.4567
829.70 0.4566
829.80 0.4565
829.90 0.4564
830.00 0.4563
830.10 0.4562
830.20 0.4561
830.30 0.4559
830.40 0.4558
830.50 0.4557
830.60 0.4556
830.70 0.4555
830.80 0.4554
830.90 0.4553
831.00 0.4551
831.10 0.455
831.20 0.4549
831.30 0.4548
831.40 0.4547
831.50 0.4546
831.60 0.4545
831.70 0.4543
831.80 0.4542
831.90 0.4541
832.00 0.454
832.10 0.4539
832.20 0.4538
832.30 0.4537
832.40 0.4535
832.50 0.4534
832.60 0.4533
832.70 0.4532
832.80 0.4531
832.90 0.453
833.00 0.4529
833.10 0.4527
833.20 0.4526
833.30 0.4525
833.40 0.4524
833.50 0.4523
833.60 0.4522
833.70 0.4521
833.80 0.4519
833.90 0.4518
834.00 0.4517
834.10 0.4516
834.20 0.4515
834.30 0.4514
834.40 0.4513
834.50 0.4511
834.60 0.451
834.70 0.4509
834.80 0.4508
834.90 0.4507
835.00 0.4506
835.10 0.4505
835.20 0.4503
835.30 0.4502
835.40 0.4501
835.50 0.45
835.60 0.4499
835.70 0.4498
835.80 0.4497
835.90 0.4496
836.00 0.4494
836.10 0.4493
836.20 0.4492
836.30 0.4491
836.40 0.449
836.50 0.4489
836.60 0.4488
836.70 0.4487
836.80 0.4485
836.90 0.4484
837.00 0.4483
837.10 0.4482
837.20 0.4481
837.30 0.448
837.40 0.4479
837.50 0.4478
837.60 0.4476
837.70 0.4475
837.80 0.4474
837.90 0.4473
838.00 0.4472
838.10 0.4471
838.20 0.447
838.30 0.4469
838.40 0.4467
838.50 0.4466
838.60 0.4465
838.70 0.4464
838.80 0.4463
838.90 0.4462
839.00 0.4461
839.10 0.446
839.20 0.4458
839.30 0.4457
839.40 0.4456
839.50 0.4455
839.60 0.4454
839.70 0.4453
839.80 0.4452
839.90 0.4451
840.00 0.445
840.10 0.4448
840.20 0.4447
840.30 0.4446
840.40 0.4445
840.50 0.4444
840.60 0.4443
840.70 0.4442
840.80 0.4441
840.90 0.444
841.00 0.4438
841.10 0.4437
841.20 0.4436
841.30 0.4435
841.40 0.4434
841.50 0.4433
841.60 0.4432
841.70 0.4431
841.80 0.443
841.90 0.4428
842.00 0.4427
842.10 0.4426
842.20 0.4425
842.30 0.4424
842.40 0.4423
842.50 0.4422
842.60 0.4421
842.70 0.4419
842.80 0.4418
842.90 0.4417
843.00 0.4416
843.10 0.4415
843.20 0.4414
843.30 0.4413
843.40 0.4411
843.50 0.441
843.60 0.4409
843.70 0.4408
843.80 0.4407
843.90 0.4406
844.00 0.4405
844.10 0.4403
844.20 0.4402
844.30 0.4401
844.40 0.44
844.50 0.4399
844.60 0.4398
844.70 0.4397
844.80 0.4395
844.90 0.4394
845.00 0.4393
845.10 0.4392
845.20 0.4391
845.30 0.439
845.40 0.4389
845.50 0.4388
845.60 0.4386
845.70 0.4385
845.80 0.4384
845.90 0.4383
846.00 0.4382
846.10 0.4381
846.20 0.438
846.30 0.4379
846.40 0.4377
846.50 0.4376
846.60 0.4375
846.70 0.4374
846.80 0.4373
846.90 0.4372
847.00 0.4371
847.10 0.437
847.20 0.4369
847.30 0.4368
847.40 0.4367
847.50 0.4365
847.60 0.4364
847.70 0.4363
847.80 0.4362
847.90 0.4361
848.00 0.436
848.10 0.4359
848.20 0.4358
848.30 0.4357
848.40 0.4356
848.50 0.4355
848.60 0.4354
848.70 0.4353
848.80 0.4352
848.90 0.4351
849.00 0.435
849.10 0.4349
849.20 0.4348
849.30 0.4347
849.40 0.4346
849.50 0.4345
849.60 0.4344
849.70 0.4343
849.80 0.4342
849.90 0.4341
850.00 0.434
850.10 0.4339
850.20 0.4338
850.30 0.4337
850.40 0.4336
850.50 0.4335
850.60 0.4333
850.70 0.4332
850.80 0.4331
850.90 0.433
851.00 0.4329
851.10 0.4328
851.20 0.4327
851.30 0.4326
851.40 0.4325
851.50 0.4324
851.60 0.4323
851.70 0.4322
851.80 0.4321
851.90 0.432
852.00 0.4319
852.10 0.4318
852.20 0.4317
852.30 0.4316
852.40 0.4315
852.50 0.4314
852.60 0.4313
852.70 0.4312
852.80 0.4311
852.90 0.431
853.00 0.4308
853.10 0.4307
853.20 0.4306
853.30 0.4305
853.40 0.4304
853.50 0.4303
853.60 0.4302
853.70 0.4301
853.80 0.43
853.90 0.4299
854.00 0.4298
854.10 0.4297
854.20 0.4296
854.30 0.4295
854.40 0.4294
854.50 0.4293
854.60 0.4292
854.70 0.429
854.80 0.4289
854.90 0.4288
855.00 0.4287
855.10 0.4286
855.20 0.4285
855.30 0.4284
855.40 0.4283
855.50 0.4282
855.60 0.4281
855.70 0.428
855.80 0.4279
855.90 0.4278
856.00 0.4277
856.10 0.4276
856.20 0.4275
856.30 0.4274
856.40 0.4273
856.50 0.4272
856.60 0.427
856.70 0.4269
856.80 0.4268
856.90 0.4267
857.00 0.4266
857.10 0.4265
857.20 0.4264
857.30 0.4263
857.40 0.4262
857.50 0.4261
857.60 0.426
857.70 0.4259
857.80 0.4258
857.90 0.4257
858.00 0.4256
858.10 0.4255
858.20 0.4254
858.30 0.4253
858.40 0.4251
858.50 0.425
858.60 0.4249
858.70 0.4248
858.80 0.4247
858.90 0.4246
859.00 0.4245
859.10 0.4244
859.20 0.4243
859.30 0.4242
859.40 0.4241
859.50 0.424
859.60 0.4239
859.70 0.4238
859.80 0.4237
859.90 0.4236
860.00 0.4235
860.10 0.4234
860.20 0.4232
860.30 0.4231
860.40 0.423
860.50 0.4229
860.60 0.4228
860.70 0.4227
860.80 0.4226
860.90 0.4225
861.00 0.4224
861.10 0.4223
861.20 0.4222
861.30 0.4221
861.40 0.422
861.50 0.4219
861.60 0.4218
861.70 0.4217
861.80 0.4216
861.90 0.4215
862.00 0.4214
862.10 0.4212
862.20 0.4211
862.30 0.421
862.40 0.4209
862.50 0.4208
862.60 0.4207
862.70 0.4206
862.80 0.4205
862.90 0.4203
863.00 0.4202
863.10 0.4201
863.20 0.42
863.30 0.4199
863.40 0.4198
863.50 0.4197
863.60 0.4195
863.70 0.4194
863.80 0.4193
863.90 0.4192
864.00 0.4191
864.10 0.419
864.20 0.4189
864.30 0.4188
864.40 0.4186
864.50 0.4185
864.60 0.4184
864.70 0.4183
864.80 0.4182
864.90 0.4181
865.00 0.418
865.10 0.4178
865.20 0.4177
865.30 0.4176
865.40 0.4175
865.50 0.4174
865.60 0.4173
865.70 0.4172
865.80 0.4171
865.90 0.4169
866.00 0.4168
866.10 0.4167
866.20 0.4166
866.30 0.4165
866.40 0.4164
866.50 0.4163
866.60 0.4162
866.70 0.4161
866.80 0.4159
866.90 0.4158
867.00 0.4157
867.10 0.4156
867.20 0.4155
867.30 0.4154
867.40 0.4153
867.50 0.4152
867.60 0.4152
867.70 0.4151
867.80 0.415
867.90 0.4149
868.00 0.4148
868.10 0.4147
868.20 0.4146
868.30 0.4145
868.40 0.4144
868.50 0.4143
868.60 0.4142
868.70 0.4141
868.80 0.414
868.90 0.4139
869.00 0.4138
869.10 0.4138
869.20 0.4137
869.30 0.4136
869.40 0.4135
869.50 0.4134
869.60 0.4133
869.70 0.4132
869.80 0.4131
869.90 0.413
870.00 0.4129
870.10 0.4128
870.20 0.4127
870.30 0.4126
870.40 0.4125
870.50 0.4125
870.60 0.4124
870.70 0.4123
870.80 0.4122
870.90 0.4121
871.00 0.412
871.10 0.4119
871.20 0.4118
871.30 0.4117
871.40 0.4116
871.50 0.4115
871.60 0.4114
871.70 0.4113
871.80 0.4113
871.90 0.4112
872.00 0.4111
872.10 0.411
872.20 0.4109
872.30 0.4108
872.40 0.4107
872.50 0.4105
872.60 0.4104
872.70 0.4103
872.80 0.4102
872.90 0.4101
873.00 0.41
873.10 0.4099
873.20 0.4098
873.30 0.4097
873.40 0.4096
873.50 0.4095
873.60 0.4094
873.70 0.4093
873.80 0.4092
873.90 0.4091
874.00 0.409
874.10 0.4089
874.20 0.4088
874.30 0.4087
874.40 0.4086
874.50 0.4085
874.60 0.4084
874.70 0.4083
874.80 0.4082
874.90 0.4081
875.00 0.408
875.10 0.4079
875.20 0.4078
875.30 0.4076
875.40 0.4075
875.50 0.4074
875.60 0.4073
875.70 0.4072
875.80 0.4071
875.90 0.407
876.00 0.4069
876.10 0.4068
876.20 0.4067
876.30 0.4066
876.40 0.4065
876.50 0.4064
876.60 0.4063
876.70 0.4062
876.80 0.4061
876.90 0.406
877.00 0.4059
877.10 0.4058
877.20 0.4057
877.30 0.4056
877.40 0.4055
877.50 0.4054
877.60 0.4053
877.70 0.4052
877.80 0.4051
877.90 0.405
878.00 0.4049
878.10 0.4048
878.20 0.4047
878.30 0.4047
878.40 0.4046
878.50 0.4045
878.60 0.4044
878.70 0.4043
878.80 0.4042
878.90 0.4041
879.00 0.404
879.10 0.4039
879.20 0.4038
879.30 0.4037
879.40 0.4036
879.50 0.4035
879.60 0.4034
879.70 0.4033
879.80 0.4032
879.90 0.4031
880.00 0.403
880.10 0.4029
880.20 0.4028
880.30 0.4027
880.40 0.4027
880.50 0.4026
880.60 0.4025
880.70 0.4024
880.80 0.4023
880.90 0.4022
881.00 0.4021
881.10 0.402
881.20 0.4019
881.30 0.4018
881.40 0.4017
881.50 0.4016
881.60 0.4015
881.70 0.4014
881.80 0.4013
881.90 0.4012
882.00 0.4011
882.10 0.401
882.20 0.4009
882.30 0.4007
882.40 0.4006
882.50 0.4005
882.60 0.4004
882.70 0.4002
882.80 0.4001
882.90 0.4
883.00 0.3999
883.10 0.3997
883.20 0.3996
883.30 0.3995
883.40 0.3993
883.50 0.3992
883.60 0.3991
883.70 0.399
883.80 0.3988
883.90 0.3987
884.00 0.3986
884.10 0.3985
884.20 0.3983
884.30 0.3982
884.40 0.3981
884.50 0.3979
884.60 0.3978
884.70 0.3977
884.80 0.3976
884.90 0.3974
885.00 0.3973
885.10 0.3972
885.20 0.3971
885.30 0.3969
885.40 0.3968
885.50 0.3967
885.60 0.3965
885.70 0.3964
885.80 0.3963
885.90 0.3962
886.00 0.396
886.10 0.3959
886.20 0.3958
886.30 0.3957
886.40 0.3955
886.50 0.3954
886.60 0.3953
886.70 0.3952
886.80 0.395
886.90 0.3949
887.00 0.3948
887.10 0.3947
887.20 0.3947
887.30 0.3946
887.40 0.3945
887.50 0.3945
887.60 0.3944
887.70 0.3943
887.80 0.3943
887.90 0.3942
888.00 0.3941
888.10 0.3941
888.20 0.394
888.30 0.3939
888.40 0.3939
888.50 0.3938
888.60 0.3937
888.70 0.3937
888.80 0.3936
888.90 0.3935
889.00 0.3935
889.10 0.3934
889.20 0.3933
889.30 0.3933
889.40 0.3932
889.50 0.3931
889.60 0.3931
889.70 0.393
889.80 0.3929
889.90 0.3929
890.00 0.3928
890.10 0.3927
890.20 0.3927
890.30 0.3926
890.40 0.3925
890.50 0.3925
890.60 0.3924
890.70 0.3924
890.80 0.3923
890.90 0.3922
891.00 0.3922
891.10 0.3921
891.20 0.392
891.30 0.392
891.40 0.3919
891.50 0.3918
891.60 0.3918
891.70 0.3917
891.80 0.3916
891.90 0.3916
892.00 0.3915
892.10 0.3914
892.20 0.3913
892.30 0.3912
892.40 0.3911
892.50 0.391
892.60 0.3909
892.70 0.3908
892.80 0.3907
892.90 0.3906
893.00 0.3905
893.10 0.3904
893.20 0.3903
893.30 0.3902
893.40 0.3901
893.50 0.39
893.60 0.3899
893.70 0.3898
893.80 0.3897
893.90 0.3896
894.00 0.3895
894.10 0.3895
894.20 0.3894
894.30 0.3893
894.40 0.3892
894.50 0.3891
894.60 0.389
894.70 0.3889
894.80 0.3888
894.90 0.3887
895.00 0.3886
895.10 0.3885
895.20 0.3884
895.30 0.3883
895.40 0.3882
895.50 0.3881
895.60 0.388
895.70 0.3879
895.80 0.3878
895.90 0.3877
896.00 0.3876
896.10 0.3875
896.20 0.3874
896.30 0.3873
896.40 0.3872
896.50 0.3871
896.60 0.387
896.70 0.3869
896.80 0.3868
896.90 0.3867
897.00 0.3866
897.10 0.3865
897.20 0.3863
897.30 0.3862
897.40 0.386
897.50 0.3859
897.60 0.3857
897.70 0.3856
897.80 0.3854
897.90 0.3853
898.00 0.3852
898.10 0.385
898.20 0.3849
898.30 0.3847
898.40 0.3846
898.50 0.3844
898.60 0.3843
898.70 0.3841
898.80 0.384
898.90 0.3838
899.00 0.3837
899.10 0.3835
899.20 0.3834
899.30 0.3832
899.40 0.3831
899.50 0.3829
899.60 0.3828
899.70 0.3826
899.80 0.3825
899.90 0.3823
900.00 0.3822
900.10 0.382
900.20 0.3819
900.30 0.3817
900.40 0.3816
900.50 0.3814
900.60 0.3813
900.70 0.3812
900.80 0.381
900.90 0.3809
901.00 0.3807
901.10 0.3806
901.20 0.3804
901.30 0.3803
901.40 0.3801
901.50 0.38
901.60 0.3798
901.70 0.3797
901.80 0.3795
901.90 0.3794
902.00 0.3792
902.10 0.3792
902.20 0.3792
902.30 0.3791
902.40 0.3791
902.50 0.3791
902.60 0.379
902.70 0.379
902.80 0.379
902.90 0.3789
903.00 0.3789
903.10 0.3788
903.20 0.3788
903.30 0.3788
903.40 0.3787
903.50 0.3787
903.60 0.3787
903.70 0.3786
903.80 0.3786
903.90 0.3786
904.00 0.3785
904.10 0.3785
904.20 0.3784
904.30 0.3784
904.40 0.3784
904.50 0.3783
904.60 0.3783
904.70 0.3783
904.80 0.3782
904.90 0.3782
905.00 0.3782
905.10 0.3781
905.20 0.3781
905.30 0.378
905.40 0.378
905.50 0.378
905.60 0.3779
905.70 0.3779
905.80 0.3779
905.90 0.3778
906.00 0.3778
906.10 0.3778
906.20 0.3777
906.30 0.3777
906.40 0.3776
906.50 0.3776
906.60 0.3776
906.70 0.3775
906.80 0.3775
906.90 0.3775
907.00 0.3774
907.10 0.3773
907.20 0.3772
907.30 0.3772
907.40 0.3771
907.50 0.377
907.60 0.3769
907.70 0.3768
907.80 0.3767
907.90 0.3766
908.00 0.3765
908.10 0.3764
908.20 0.3763
908.30 0.3762
908.40 0.3762
908.50 0.3761
908.60 0.376
908.70 0.3759
908.80 0.3758
908.90 0.3757
909.00 0.3756
909.10 0.3755
909.20 0.3754
909.30 0.3753
909.40 0.3753
909.50 0.3752
909.60 0.3751
909.70 0.375
909.80 0.3749
909.90 0.3748
910.00 0.3747
910.10 0.3746
910.20 0.3745
910.30 0.3744
910.40 0.3743
910.50 0.3743
910.60 0.3742
910.70 0.3741
910.80 0.374
910.90 0.3739
911.00 0.3738
911.10 0.3737
911.20 0.3736
911.30 0.3735
911.40 0.3734
911.50 0.3734
911.60 0.3733
911.70 0.3732
911.80 0.3731
911.90 0.373
912.00 0.3729
912.10 0.3728
912.20 0.3727
912.30 0.3726
912.40 0.3725
912.50 0.3724
912.60 0.3724
912.70 0.3723
912.80 0.3722
912.90 0.3721
913.00 0.372
913.10 0.3719
913.20 0.3718
913.30 0.3717
913.40 0.3716
913.50 0.3715
913.60 0.3714
913.70 0.3713
913.80 0.3713
913.90 0.3712
914.00 0.3711
914.10 0.371
914.20 0.3709
914.30 0.3708
914.40 0.3707
914.50 0.3706
914.60 0.3705
914.70 0.3704
914.80 0.3703
914.90 0.3702
915.00 0.3702
915.10 0.3701
915.20 0.37
915.30 0.3699
915.40 0.3698
915.50 0.3697
915.60 0.3696
915.70 0.3695
915.80 0.3694
915.90 0.3693
916.00 0.3692
916.10 0.3692
916.20 0.3691
916.30 0.369
916.40 0.3689
916.50 0.3688
916.60 0.3687
916.70 0.3686
916.80 0.3685
916.90 0.3684
917.00 0.3683
917.10 0.3681
917.20 0.3679
917.30 0.3677
917.40 0.3675
917.50 0.3673
917.60 0.3671
917.70 0.3669
917.80 0.3668
917.90 0.3666
918.00 0.3664
918.10 0.3662
918.20 0.366
918.30 0.3658
918.40 0.3656
918.50 0.3654
918.60 0.3652
918.70 0.365
918.80 0.3648
918.90 0.3646
919.00 0.3644
919.10 0.3642
919.20 0.364
919.30 0.3638
919.40 0.3636
919.50 0.3634
919.60 0.3632
919.70 0.363
919.80 0.3628
919.90 0.3626
920.00 0.3624
920.10 0.3622
920.20 0.362
920.30 0.3618
920.40 0.3616
920.50 0.3615
920.60 0.3613
920.70 0.3611
920.80 0.3609
920.90 0.3607
921.00 0.3605
921.10 0.3603
921.20 0.3601
921.30 0.3599
921.40 0.3597
921.50 0.3595
921.60 0.3593
921.70 0.3591
921.80 0.3589
921.90 0.3587
922.00 0.3585
922.10 0.3585
922.20 0.3586
922.30 0.3586
922.40 0.3586
922.50 0.3586
922.60 0.3586
922.70 0.3587
922.80 0.3587
922.90 0.3587
923.00 0.3587
923.10 0.3587
923.20 0.3587
923.30 0.3588
923.40 0.3588
923.50 0.3588
923.60 0.3588
923.70 0.3588
923.80 0.3589
923.90 0.3589
924.00 0.3589
924.10 0.3589
924.20 0.3589
924.30 0.3589
924.40 0.359
924.50 0.359
924.60 0.359
924.70 0.359
924.80 0.359
924.90 0.359
925.00 0.3591
925.10 0.3591
925.20 0.3591
925.30 0.3591
925.40 0.3591
925.50 0.3592
925.60 0.3592
925.70 0.3592
925.80 0.3592
925.90 0.3592
926.00 0.3592
926.10 0.3593
926.20 0.3593
926.30 0.3593
926.40 0.3593
926.50 0.3593
926.60 0.3593
926.70 0.3594
926.80 0.3594
926.90 0.3594
927.00 0.3594
927.10 0.3593
927.20 0.3592
927.30 0.3592
927.40 0.3591
927.50 0.359
927.60 0.3589
927.70 0.3588
927.80 0.3587
927.90 0.3587
928.00 0.3586
928.10 0.3585
928.20 0.3584
928.30 0.3583
928.40 0.3582
928.50 0.3582
928.60 0.3581
928.70 0.358
928.80 0.3579
928.90 0.3578
929.00 0.3578
929.10 0.3577
929.20 0.3576
929.30 0.3575
929.40 0.3574
929.50 0.3573
929.60 0.3573
929.70 0.3572
929.80 0.3571
929.90 0.357
930.00 0.3569
930.10 0.3568
930.20 0.3568
930.30 0.3567
930.40 0.3566
930.50 0.3565
930.60 0.3564
930.70 0.3564
930.80 0.3563
930.90 0.3562
931.00 0.3561
931.10 0.356
931.20 0.3559
931.30 0.3559
931.40 0.3558
931.50 0.3557
931.60 0.3556
931.70 0.3555
931.80 0.3554
931.90 0.3554
932.00 0.3553
932.10 0.3552
932.20 0.3551
932.30 0.355
932.40 0.3549
932.50 0.3549
932.60 0.3548
932.70 0.3547
932.80 0.3546
932.90 0.3545
933.00 0.3544
933.10 0.3543
933.20 0.3543
933.30 0.3542
933.40 0.3541
933.50 0.354
933.60 0.3539
933.70 0.3538
933.80 0.3537
933.90 0.3537
934.00 0.3536
934.10 0.3535
934.20 0.3534
934.30 0.3533
934.40 0.3532
934.50 0.3531
934.60 0.3531
934.70 0.353
934.80 0.3529
934.90 0.3528
935.00 0.3527
935.10 0.3526
935.20 0.3526
935.30 0.3525
935.40 0.3524
935.50 0.3523
935.60 0.3522
935.70 0.3521
935.80 0.352
935.90 0.352
936.00 0.3519
936.10 0.3518
936.20 0.3517
936.30 0.3516
936.40 0.3515
936.50 0.3515
936.60 0.3514
936.70 0.3513
936.80 0.3512
936.90 0.3511
937.00 0.351
937.10 0.3509
937.20 0.3509
937.30 0.3508
937.40 0.3507
937.50 0.3506
937.60 0.3505
937.70 0.3504
937.80 0.3504
937.90 0.3503
938.00 0.3502
938.10 0.3501
938.20 0.35
938.30 0.3499
938.40 0.3499
938.50 0.3498
938.60 0.3497
938.70 0.3496
938.80 0.3495
938.90 0.3494
939.00 0.3494
939.10 0.3493
939.20 0.3492
939.30 0.3491
939.40 0.349
939.50 0.3489
939.60 0.3488
939.70 0.3488
939.80 0.3487
939.90 0.3486
940.00 0.3485
940.10 0.3484
940.20 0.3483
940.30 0.3483
940.40 0.3482
940.50 0.3481
940.60 0.348
940.70 0.3479
940.80 0.3478
940.90 0.3478
941.00 0.3477
941.10 0.3476
941.20 0.3475
941.30 0.3474
941.40 0.3474
941.50 0.3473
941.60 0.3472
941.70 0.3471
941.80 0.347
941.90 0.3469
942.00 0.3469
942.10 0.3468
942.20 0.3467
942.30 0.3466
942.40 0.3465
942.50 0.3464
942.60 0.3464
942.70 0.3463
942.80 0.3462
942.90 0.3461
943.00 0.346
943.10 0.3459
943.20 0.3458
943.30 0.3458
943.40 0.3457
943.50 0.3456
943.60 0.3455
943.70 0.3454
943.80 0.3453
943.90 0.3453
944.00 0.3452
944.10 0.3451
944.20 0.345
944.30 0.3449
944.40 0.3448
944.50 0.3448
944.60 0.3447
944.70 0.3446
944.80 0.3445
944.90 0.3444
945.00 0.3443
945.10 0.3443
945.20 0.3442
945.30 0.3441
945.40 0.344
945.50 0.3439
945.60 0.3439
945.70 0.3438
945.80 0.3437
945.90 0.3436
946.00 0.3435
946.10 0.3434
946.20 0.3434
946.30 0.3433
946.40 0.3432
946.50 0.3431
946.60 0.343
946.70 0.3429
946.80 0.3429
946.90 0.3428
947.00 0.3427
947.10 0.3426
947.20 0.3425
947.30 0.3424
947.40 0.3423
947.50 0.3422
947.60 0.3421
947.70 0.3421
947.80 0.342
947.90 0.3419
948.00 0.3418
948.10 0.3417
948.20 0.3416
948.30 0.3415
948.40 0.3415
948.50 0.3414
948.60 0.3413
948.70 0.3412
948.80 0.3411
948.90 0.341
949.00 0.3409
949.10 0.3409
949.20 0.3408
949.30 0.3407
949.40 0.3406
949.50 0.3405
949.60 0.3404
949.70 0.3403
949.80 0.3402
949.90 0.3401
950.00 0.34
950.10 0.3399
950.20 0.3398
950.30 0.3397
950.40 0.3396
950.50 0.3395
950.60 0.3394
950.70 0.3393
950.80 0.3392
950.90 0.3391
951.00 0.339
951.10 0.3389
951.20 0.3388
951.30 0.3387
951.40 0.3385
951.50 0.3384
951.60 0.3382
951.70 0.3381
951.80 0.3379
951.90 0.3378
952.00 0.3376
952.10 0.3374
952.20 0.3372
952.30 0.3369
952.40 0.3367
952.50 0.3364
952.60 0.3362
952.70 0.336
952.80 0.3357
952.90 0.3352
953.00 0.3346
953.10 0.3341
953.20 0.3336
953.30 0.333
953.40 0.3325
953.50 0.3319
953.60 0.3308
953.70 0.3296
953.80 0.3285
953.90 0.3273
954.00 0.3252
954.10 0.3231
954.20 0.3196
954.30 0.3165
954.40 0.3195
954.50 0.3228
954.60 0.3248
954.70 0.3267
954.80 0.3277
954.90 0.3287
955.00 0.3297
955.10 0.3307
955.20 0.3311
955.30 0.3314
955.40 0.3318
955.50 0.3322
955.60 0.3326
955.70 0.333
955.80 0.3333
955.90 0.3334
956.00 0.3334
956.10 0.3335
956.20 0.3335
956.30 0.3336
956.40 0.3336
956.50 0.3337
956.60 0.3337
956.70 0.3338
956.80 0.3338
956.90 0.3339
957.00 0.3339
957.10 0.3339
957.20 0.3339
957.30 0.3338
957.40 0.3338
957.50 0.3337
957.60 0.3337
957.70 0.3336
957.80 0.3335
957.90 0.3335
958.00 0.3334
958.10 0.3334
958.20 0.3333
958.30 0.3332
958.40 0.3332
958.50 0.3331
958.60 0.3331
958.70 0.333
958.80 0.3329
958.90 0.3329
959.00 0.3328
959.10 0.3328
959.20 0.3327
959.30 0.3326
959.40 0.3326
959.50 0.3325
959.60 0.3324
959.70 0.3323
959.80 0.3323
959.90 0.3322
960.00 0.3321
960.10 0.332
960.20 0.332
960.30 0.3319
960.40 0.3318
960.50 0.3317
960.60 0.3317
960.70 0.3316
960.80 0.3315
960.90 0.3314
961.00 0.3314
961.10 0.3313
961.20 0.3312
961.30 0.3311
961.40 0.3311
961.50 0.331
961.60 0.3309
961.70 0.3308
961.80 0.3308
961.90 0.3307
962.00 0.3306
962.10 0.3305
962.20 0.3304
962.30 0.3304
962.40 0.3303
962.50 0.3302
962.60 0.3301
962.70 0.3301
962.80 0.33
962.90 0.3299
963.00 0.3298
963.10 0.3297
963.20 0.3297
963.30 0.3296
963.40 0.3295
963.50 0.3294
963.60 0.3294
963.70 0.3293
963.80 0.3292
963.90 0.3291
964.00 0.3291
964.10 0.329
964.20 0.3289
964.30 0.3288
964.40 0.3287
964.50 0.3287
964.60 0.3286
964.70 0.3285
964.80 0.3284
964.90 0.3284
965.00 0.3283
965.10 0.3282
965.20 0.3281
965.30 0.3281
965.40 0.328
965.50 0.3279
965.60 0.3278
965.70 0.3277
965.80 0.3277
965.90 0.3276
966.00 0.3275
966.10 0.3274
966.20 0.3274
966.30 0.3273
966.40 0.3272
966.50 0.3271
966.60 0.327
966.70 0.327
966.80 0.3269
966.90 0.3268
967.00 0.3267
967.10 0.3266
967.20 0.3266
967.30 0.3265
967.40 0.3264
967.50 0.3263
967.60 0.3263
967.70 0.3262
967.80 0.3261
967.90 0.326
968.00 0.326
968.10 0.3259
968.20 0.3258
968.30 0.3257
968.40 0.3257
968.50 0.3256
968.60 0.3255
968.70 0.3254
968.80 0.3253
968.90 0.3253
969.00 0.3252
969.10 0.3251
969.20 0.325
969.30 0.325
969.40 0.3249
969.50 0.3248
969.60 0.3247
969.70 0.3247
969.80 0.3246
969.90 0.3245
970.00 0.3244
970.10 0.3243
970.20 0.3243
970.30 0.3242
970.40 0.3241
970.50 0.324
970.60 0.324
970.70 0.3239
970.80 0.3238
970.90 0.3237
971.00 0.3236
971.10 0.3236
971.20 0.3235
971.30 0.3234
971.40 0.3233
971.50 0.3233
971.60 0.3232
971.70 0.3231
971.80 0.323
971.90 0.323
972.00 0.3229
972.10 0.3228
972.20 0.3227
972.30 0.3227
972.40 0.3226
972.50 0.3225
972.60 0.3224
972.70 0.3223
972.80 0.3223
972.90 0.3222
973.00 0.3221
973.10 0.322
973.20 0.322
973.30 0.3219
973.40 0.3218
973.50 0.3217
973.60 0.3217
973.70 0.3216
973.80 0.3215
973.90 0.3214
974.00 0.3214
974.10 0.3213
974.20 0.3212
974.30 0.3211
974.40 0.3211
974.50 0.321
974.60 0.3209
974.70 0.3208
974.80 0.3208
974.90 0.3207
975.00 0.3206
975.10 0.3205
975.20 0.3204
975.30 0.3204
975.40 0.3203
975.50 0.3202
975.60 0.3201
975.70 0.3201
975.80 0.32
975.90 0.3199
976.00 0.3198
976.10 0.3198
976.20 0.3197
976.30 0.3196
976.40 0.3195
976.50 0.3195
976.60 0.3194
976.70 0.3193
976.80 0.3192
976.90 0.3192
977.00 0.3191
977.10 0.319
977.20 0.3189
977.30 0.3189
977.40 0.3188
977.50 0.3187
977.60 0.3186
977.70 0.3186
977.80 0.3185
977.90 0.3184
978.00 0.3183
978.10 0.3183
978.20 0.3182
978.30 0.3181
978.40 0.318
978.50 0.318
978.60 0.3179
978.70 0.3178
978.80 0.3177
978.90 0.3177
979.00 0.3176
979.10 0.3175
979.20 0.3174
979.30 0.3174
979.40 0.3173
979.50 0.3172
979.60 0.3171
979.70 0.3171
979.80 0.317
979.90 0.3169
980.00 0.3168
980.10 0.3168
980.20 0.3167
980.30 0.3166
980.40 0.3165
980.50 0.3165
980.60 0.3164
980.70 0.3163
980.80 0.3162
980.90 0.3162
981.00 0.3161
981.10 0.316
981.20 0.3159
981.30 0.3159
981.40 0.3158
981.50 0.3157
981.60 0.3156
981.70 0.3156
981.80 0.3155
981.90 0.3154
982.00 0.3153
982.10 0.3153
982.20 0.3152
982.30 0.3151
982.40 0.3151
982.50 0.315
982.60 0.3149
982.70 0.3148
982.80 0.3148
982.90 0.3147
983.00 0.3146
983.10 0.3145
983.20 0.3145
983.30 0.3144
983.40 0.3143
983.50 0.3142
983.60 0.3142
983.70 0.3141
983.80 0.314
983.90 0.3139
984.00 0.3139
984.10 0.3138
984.20 0.3137
984.30 0.3137
984.40 0.3136
984.50 0.3135
984.60 0.3134
984.70 0.3134
984.80 0.3133
984.90 0.3132
985.00 0.3131
985.10 0.3131
985.20 0.313
985.30 0.3129
985.40 0.3128
985.50 0.3128
985.60 0.3127
985.70 0.3126
985.80 0.3125
985.90 0.3125
986.00 0.3124
986.10 0.3123
986.20 0.3122
986.30 0.3122
986.40 0.3121
986.50 0.312
986.60 0.3119
986.70 0.3119
986.80 0.3118
986.90 0.3117
987.00 0.3117
987.10 0.3116
987.20 0.3115
987.30 0.3114
987.40 0.3114
987.50 0.3113
987.60 0.3112
987.70 0.3111
987.80 0.3111
987.90 0.311
988.00 0.3109
988.10 0.3108
988.20 0.3108
988.30 0.3107
988.40 0.3106
988.50 0.3106
988.60 0.3105
988.70 0.3104
988.80 0.3103
988.90 0.3103
989.00 0.3102
989.10 0.3101
989.20 0.31
989.30 0.31
989.40 0.3099
989.50 0.3098
989.60 0.3098
989.70 0.3097
989.80 0.3096
989.90 0.3095
990.00 0.3095
990.10 0.3094
990.20 0.3093
990.30 0.3093
990.40 0.3092
990.50 0.3091
990.60 0.309
990.70 0.309
990.80 0.3089
990.90 0.3088
991.00 0.3087
991.10 0.3087
991.20 0.3086
991.30 0.3085
991.40 0.3085
991.50 0.3084
991.60 0.3083
991.70 0.3082
991.80 0.3082
991.90 0.3081
992.00 0.308
992.10 0.3079
992.20 0.3079
992.30 0.3078
992.40 0.3077
992.50 0.3076
992.60 0.3076
992.70 0.3075
992.80 0.3074
992.90 0.3074
993.00 0.3073
993.10 0.3072
993.20 0.3071
993.30 0.3071
993.40 0.307
993.50 0.3069
993.60 0.3069
993.70 0.3068
993.80 0.3067
993.90 0.3066
994.00 0.3066
994.10 0.3065
994.20 0.3064
994.30 0.3064
994.40 0.3063
994.50 0.3062
994.60 0.3061
994.70 0.3061
994.80 0.306
994.90 0.3059
995.00 0.3058
995.10 0.3058
995.20 0.3057
995.30 0.3056
995.40 0.3056
995.50 0.3055
995.60 0.3054
995.70 0.3053
995.80 0.3053
995.90 0.3052
996.00 0.3051
996.10 0.305
996.20 0.305
996.30 0.3049
996.40 0.3048
996.50 0.3048
996.60 0.3047
996.70 0.3046
996.80 0.3045
996.90 0.3045
997.00 0.3044
997.10 0.3043
997.20 0.3042
997.30 0.3042
997.40 0.3041
997.50 0.304
997.60 0.3039
997.70 0.3039
997.80 0.3038
997.90 0.3037
998.00 0.3036
998.10 0.3036
998.20 0.3035
998.30 0.3034
998.40 0.3033
998.50 0.3033
998.60 0.3032
998.70 0.3031
998.80 0.303
998.90 0.303
999.00 0.3029
999.10 0.3028
999.20 0.3027
999.30 0.3027
999.40 0.3026
999.50 0.3025
999.60 0.3024
999.70 0.3023
999.80 0.3022
999.90 0.3021
1000.00 0.3021
1000.10 0.302
1000.20 0.3019
1000.30 0.3018
1000.40 0.3017
1000.50 0.3016
1000.60 0.3015
1000.70 0.3014
1000.80 0.3013
1000.90 0.3012
1001.00 0.3011
1001.10 0.301
1001.20 0.3009
1001.30 0.3008
1001.40 0.3007
1001.50 0.3006
1001.60 0.3005
1001.70 0.3004
1001.80 0.3003
1001.90 0.3001
1002.00 0.3
1002.10 0.2998
1002.20 0.2995
1002.30 0.2993
1002.40 0.2991
1002.50 0.2988
1002.60 0.2986
1002.70 0.2983
1002.80 0.2981
1002.90 0.2979
1003.00 0.2976
1003.10 0.2974
1003.20 0.2968
1003.30 0.2961
1003.40 0.2955
1003.50 0.2948
1003.60 0.2941
1003.70 0.2934
1003.80 0.2927
1003.90 0.2912
1004.00 0.2894
1004.10 0.2877
1004.20 0.2859
1004.30 0.2827
1004.40 0.279
1004.50 0.2736
1004.60 0.2633
1004.70 0.269
1004.80 0.2769
1004.90 0.2806
1005.00 0.2841
1005.10 0.2862
1005.20 0.2878
1005.30 0.2895
1005.40 0.2911
1005.50 0.2919
1005.60 0.2924
1005.70 0.293
1005.80 0.2935
1005.90 0.294
1006.00 0.2946
1006.10 0.2951
1006.20 0.2953
1006.30 0.2955
1006.40 0.2956
1006.50 0.2957
1006.60 0.2958
1006.70 0.2959
1006.80 0.2961
1006.90 0.2962
1007.00 0.2963
1007.10 0.2963
1007.20 0.2963
1007.30 0.2963
1007.40 0.2963
1007.50 0.2963
1007.60 0.2963
1007.70 0.2963
1007.80 0.2963
1007.90 0.2962
1008.00 0.2962
1008.10 0.2961
1008.20 0.2961
1008.30 0.296
1008.40 0.296
1008.50 0.2959
1008.60 0.2959
1008.70 0.2958
1008.80 0.2958
1008.90 0.2958
1009.00 0.2957
1009.10 0.2957
1009.20 0.2956
1009.30 0.2956
1009.40 0.2955
1009.50 0.2955
1009.60 0.2954
1009.70 0.2954
1009.80 0.2953
1009.90 0.2953
1010.00 0.2952
1010.10 0.2951
1010.20 0.2951
1010.30 0.295
1010.40 0.2949
1010.50 0.2949
1010.60 0.2948
1010.70 0.2948
1010.80 0.2947
1010.90 0.2946
1011.00 0.2946
1011.10 0.2945
1011.20 0.2944
1011.30 0.2944
1011.40 0.2943
1011.50 0.2943
1011.60 0.2942
1011.70 0.2941
1011.80 0.2941
1011.90 0.294
1012.00 0.2939
1012.10 0.2939
1012.20 0.2938
1012.30 0.2937
1012.40 0.2937
1012.50 0.2936
1012.60 0.2935
1012.70 0.2935
1012.80 0.2934
1012.90 0.2933
1013.00 0.2933
1013.10 0.2932
1013.20 0.2931
1013.30 0.2931
1013.40 0.293
1013.50 0.2929
1013.60 0.2929
1013.70 0.2928
1013.80 0.2927
1013.90 0.2927
1014.00 0.2926
1014.10 0.2925
1014.20 0.2925
1014.30 0.2924
1014.40 0.2923
1014.50 0.2923
1014.60 0.2922
1014.70 0.2921
1014.80 0.2921
1014.90 0.292
1015.00 0.2919
1015.10 0.2919
1015.20 0.2918
1015.30 0.2917
1015.40 0.2917
1015.50 0.2916
1015.60 0.2915
1015.70 0.2915
1015.80 0.2914
1015.90 0.2913
1016.00 0.2913
1016.10 0.2912
1016.20 0.2911
1016.30 0.2911
1016.40 0.291
1016.50 0.2909
1016.60 0.2909
1016.70 0.2908
1016.80 0.2907
1016.90 0.2906
1017.00 0.2906
1017.10 0.2905
1017.20 0.2904
1017.30 0.2904
1017.40 0.2903
1017.50 0.2902
1017.60 0.2902
1017.70 0.2901
1017.80 0.29
1017.90 0.29
1018.00 0.2899
1018.10 0.2898
1018.20 0.2898
1018.30 0.2897
1018.40 0.2896
1018.50 0.2896
1018.60 0.2895
1018.70 0.2894
1018.80 0.2894
1018.90 0.2893
1019.00 0.2892
1019.10 0.2892
1019.20 0.2891
1019.30 0.289
1019.40 0.289
1019.50 0.2889
1019.60 0.2889
1019.70 0.2888
1019.80 0.2887
1019.90 0.2887
1020.00 0.2886
1020.10 0.2885
1020.20 0.2885
1020.30 0.2884
1020.40 0.2883
1020.50 0.2883
1020.60 0.2882
1020.70 0.2881
1020.80 0.2881
1020.90 0.288
1021.00 0.2879
1021.10 0.2879
1021.20 0.2878
1021.30 0.2877
1021.40 0.2877
1021.50 0.2876
1021.60 0.2875
1021.70 0.2874
1021.80 0.2874
1021.90 0.2873
1022.00 0.2872
1022.10 0.2872
1022.20 0.2871
1022.30 0.287
1022.40 0.287
1022.50 0.2869
1022.60 0.2868
1022.70 0.2868
1022.80 0.2867
1022.90 0.2867
1023.00 0.2866
1023.10 0.2865
1023.20 0.2865
1023.30 0.2864
1023.40 0.2863
1023.50 0.2863
1023.60 0.2862
1023.70 0.2861
1023.80 0.2861
1023.90 0.286
1024.00 0.2859
1024.10 0.2859
1024.20 0.2858
1024.30 0.2857
1024.40 0.2857
1024.50 0.2856
1024.60 0.2855
1024.70 0.2855
1024.80 0.2854
1024.90 0.2853
1025.00 0.2853
1025.10 0.2852
1025.20 0.2851
1025.30 0.2851
1025.40 0.285
1025.50 0.2849
1025.60 0.2849
1025.70 0.2848
1025.80 0.2847
1025.90 0.2847
1026.00 0.2846
1026.10 0.2845
1026.20 0.2845
1026.30 0.2844
1026.40 0.2844
1026.50 0.2843
1026.60 0.2842
1026.70 0.2842
1026.80 0.2841
1026.90 0.284
1027.00 0.284
1027.10 0.2839
1027.20 0.2838
1027.30 0.2838
1027.40 0.2837
1027.50 0.2836
1027.60 0.2836
1027.70 0.2835
1027.80 0.2834
1027.90 0.2834
1028.00 0.2833
1028.10 0.2832
1028.20 0.2832
1028.30 0.2831
1028.40 0.2831
1028.50 0.283
1028.60 0.2829
1028.70 0.2829
1028.80 0.2828
1028.90 0.2827
1029.00 0.2827
1029.10 0.2826
1029.20 0.2825
1029.30 0.2825
1029.40 0.2824
1029.50 0.2823
1029.60 0.2823
1029.70 0.2822
1029.80 0.2821
1029.90 0.2821
1030.00 0.282
1030.10 0.282
1030.20 0.2819
1030.30 0.2818
1030.40 0.2818
1030.50 0.2817
1030.60 0.2816
1030.70 0.2816
1030.80 0.2815
1030.90 0.2814
1031.00 0.2814
1031.10 0.2813
1031.20 0.2812
1031.30 0.2812
1031.40 0.2811
1031.50 0.2811
1031.60 0.281
1031.70 0.2809
1031.80 0.2809
1031.90 0.2808
1032.00 0.2807
1032.10 0.2807
1032.20 0.2806
1032.30 0.2805
1032.40 0.2805
1032.50 0.2804
1032.60 0.2803
1032.70 0.2803
1032.80 0.2802
1032.90 0.2801
1033.00 0.2801
1033.10 0.28
1033.20 0.28
1033.30 0.2799
1033.40 0.2798
1033.50 0.2798
1033.60 0.2797
1033.70 0.2796
1033.80 0.2796
1033.90 0.2795
1034.00 0.2794
1034.10 0.2794
1034.20 0.2793
1034.30 0.2792
1034.40 0.2792
1034.50 0.2791
1034.60 0.2791
1034.70 0.279
1034.80 0.2789
1034.90 0.2789
1035.00 0.2788
1035.10 0.2787
1035.20 0.2787
1035.30 0.2786
1035.40 0.2785
1035.50 0.2785
1035.60 0.2784
1035.70 0.2784
1035.80 0.2783
1035.90 0.2782
1036.00 0.2782
1036.10 0.2781
1036.20 0.278
1036.30 0.278
1036.40 0.2779
1036.50 0.2778
1036.60 0.2778
1036.70 0.2777
1036.80 0.2776
1036.90 0.2776
1037.00 0.2775
1037.10 0.2775
1037.20 0.2774
1037.30 0.2773
1037.40 0.2773
1037.50 0.2772
1037.60 0.2771
1037.70 0.2771
1037.80 0.277
1037.90 0.2769
1038.00 0.2769
1038.10 0.2768
1038.20 0.2768
1038.30 0.2767
1038.40 0.2766
1038.50 0.2766
1038.60 0.2765
1038.70 0.2764
1038.80 0.2764
1038.90 0.2763
1039.00 0.2763
1039.10 0.2762
1039.20 0.2761
1039.30 0.2761
1039.40 0.276
1039.50 0.2759
1039.60 0.2759
1039.70 0.2758
1039.80 0.2757
1039.90 0.2757
1040.00 0.2756
1040.10 0.2756
1040.20 0.2755
1040.30 0.2754
1040.40 0.2754
1040.50 0.2753
1040.60 0.2752
1040.70 0.2752
1040.80 0.2751
1040.90 0.2751
1041.00 0.275
1041.10 0.2749
1041.20 0.2749
1041.30 0.2748
1041.40 0.2747
1041.50 0.2747
1041.60 0.2746
1041.70 0.2745
1041.80 0.2745
1041.90 0.2744
1042.00 0.2744
1042.10 0.2743
1042.20 0.2742
1042.30 0.2742
1042.40 0.2741
1042.50 0.274
1042.60 0.274
1042.70 0.2739
1042.80 0.2739
1042.90 0.2738
1043.00 0.2737
1043.10 0.2737
1043.20 0.2736
1043.30 0.2735
1043.40 0.2735
1043.50 0.2734
1043.60 0.2734
1043.70 0.2733
1043.80 0.2732
1043.90 0.2732
1044.00 0.2731
1044.10 0.273
1044.20 0.273
1044.30 0.2729
1044.40 0.2729
1044.50 0.2728
1044.60 0.2727
1044.70 0.2727
1044.80 0.2726
1044.90 0.2725
1045.00 0.2725
1045.10 0.2724
1045.20 0.2724
1045.30 0.2723
1045.40 0.2722
1045.50 0.2722
1045.60 0.2721
1045.70 0.2721
1045.80 0.272
1045.90 0.2719
1046.00 0.2719
1046.10 0.2718
1046.20 0.2717
1046.30 0.2717
1046.40 0.2716
1046.50 0.2716
1046.60 0.2715
1046.70 0.2714
1046.80 0.2714
1046.90 0.2713
1047.00 0.2712
1047.10 0.2712
1047.20 0.2711
1047.30 0.2711
1047.40 0.271
1047.50 0.2709
1047.60 0.2709
1047.70 0.2708
1047.80 0.2708
1047.90 0.2707
1048.00 0.2706
1048.10 0.2706
1048.20 0.2705
1048.30 0.2705
1048.40 0.2704
1048.50 0.2703
1048.60 0.2703
1048.70 0.2702
1048.80 0.2701
1048.90 0.2701
1049.00 0.27
1049.10 0.27
1049.20 0.2699
1049.30 0.2698
1049.40 0.2698
1049.50 0.2697
1049.60 0.2697
1049.70 0.2696
1049.80 0.2695
1049.90 0.2695
1050.00 0.2694
1050.10 0.2694
1050.20 0.2693
1050.30 0.2692
1050.40 0.2692
1050.50 0.2691
1050.60 0.2691
1050.70 0.269
1050.80 0.2689
1050.90 0.2689
1051.00 0.2688
1051.10 0.2687
1051.20 0.2687
1051.30 0.2686
1051.40 0.2686
1051.50 0.2685
1051.60 0.2684
1051.70 0.2684
1051.80 0.2683
1051.90 0.2683
1052.00 0.2682
1052.10 0.2681
1052.20 0.2681
1052.30 0.268
1052.40 0.268
1052.50 0.2679
1052.60 0.2678
1052.70 0.2678
1052.80 0.2677
1052.90 0.2677
1053.00 0.2676
1053.10 0.2675
1053.20 0.2675
1053.30 0.2674
1053.40 0.2673
1053.50 0.2673
1053.60 0.2672
1053.70 0.2672
1053.80 0.2671
1053.90 0.267
1054.00 0.267
1054.10 0.2669
1054.20 0.2669
1054.30 0.2668
1054.40 0.2667
1054.50 0.2667
1054.60 0.2666
1054.70 0.2666
1054.80 0.2665
1054.90 0.2664
1055.00 0.2664
1055.10 0.2663
1055.20 0.2663
1055.30 0.2662
1055.40 0.2661
1055.50 0.2661
1055.60 0.266
1055.70 0.2659
1055.80 0.2659
1055.90 0.2658
1056.00 0.2658
1056.10 0.2657
1056.20 0.2656
1056.30 0.2656
1056.40 0.2655
1056.50 0.2655
1056.60 0.2654
1056.70 0.2653
1056.80 0.2653
1056.90 0.2652
1057.00 0.2652
1057.10 0.2651
1057.20 0.265
1057.30 0.265
1057.40 0.2649
1057.50 0.2649
1057.60 0.2648
1057.70 0.2647
1057.80 0.2647
1057.90 0.2646
1058.00 0.2646
1058.10 0.2645
1058.20 0.2644
1058.30 0.2644
1058.40 0.2643
1058.50 0.2643
1058.60 0.2642
1058.70 0.2641
1058.80 0.2641
1058.90 0.264
1059.00 0.264
1059.10 0.2639
1059.20 0.2638
1059.30 0.2638
1059.40 0.2637
1059.50 0.2637
1059.60 0.2636
1059.70 0.2635
1059.80 0.2635
1059.90 0.2634
1060.00 0.2634
1060.10 0.2633
1060.20 0.2633
1060.30 0.2632
1060.40 0.2631
1060.50 0.2631
1060.60 0.263
1060.70 0.263
1060.80 0.2629
1060.90 0.2628
1061.00 0.2628
1061.10 0.2627
1061.20 0.2627
1061.30 0.2626
1061.40 0.2625
1061.50 0.2625
1061.60 0.2624
1061.70 0.2624
1061.80 0.2623
1061.90 0.2622
1062.00 0.2622
1062.10 0.2621
1062.20 0.2621
1062.30 0.262
1062.40 0.2619
1062.50 0.2619
1062.60 0.2618
1062.70 0.2618
1062.80 0.2617
1062.90 0.2617
1063.00 0.2616
1063.10 0.2615
1063.20 0.2615
1063.30 0.2614
1063.40 0.2614
1063.50 0.2613
1063.60 0.2612
1063.70 0.2612
1063.80 0.2611
1063.90 0.2611
1064.00 0.261
1064.10 0.2609
1064.20 0.2609
1064.30 0.2608
1064.40 0.2608
1064.50 0.2607
1064.60 0.2607
1064.70 0.2606
1064.80 0.2605
1064.90 0.2605
1065.00 0.2604
1065.10 0.2604
1065.20 0.2603
1065.30 0.2602
1065.40 0.2602
1065.50 0.2601
1065.60 0.2601
1065.70 0.26
1065.80 0.26
1065.90 0.2599
1066.00 0.2598
1066.10 0.2598
1066.20 0.2597
1066.30 0.2597
1066.40 0.2596
1066.50 0.2595
1066.60 0.2595
1066.70 0.2594
1066.80 0.2594
1066.90 0.2593
1067.00 0.2593
1067.10 0.2592
1067.20 0.2591
1067.30 0.2591
1067.40 0.259
1067.50 0.259
1067.60 0.2589
1067.70 0.2588
1067.80 0.2588
1067.90 0.2587
1068.00 0.2587
1068.10 0.2586
1068.20 0.2585
1068.30 0.2585
1068.40 0.2584
1068.50 0.2584
1068.60 0.2583
1068.70 0.2583
1068.80 0.2582
1068.90 0.2581
1069.00 0.2581
1069.10 0.258
1069.20 0.258
1069.30 0.2579
1069.40 0.2578
1069.50 0.2578
1069.60 0.2577
1069.70 0.2577
1069.80 0.2576
1069.90 0.2576
1070.00 0.2575
1070.10 0.2574
1070.20 0.2574
1070.30 0.2573
1070.40 0.2573
1070.50 0.2572
1070.60 0.2572
1070.70 0.2571
1070.80 0.257
1070.90 0.257
1071.00 0.2569
1071.10 0.2569
1071.20 0.2568
1071.30 0.2567
1071.40 0.2567
1071.50 0.2566
1071.60 0.2566
1071.70 0.2565
1071.80 0.2565
1071.90 0.2564
1072.00 0.2563
1072.10 0.2563
1072.20 0.2562
1072.30 0.2562
1072.40 0.2561
1072.50 0.2561
1072.60 0.256
1072.70 0.2559
1072.80 0.2559
1072.90 0.2558
1073.00 0.2558
1073.10 0.2557
1073.20 0.2557
1073.30 0.2556
1073.40 0.2555
1073.50 0.2555
1073.60 0.2554
1073.70 0.2554
1073.80 0.2553
1073.90 0.2553
1074.00 0.2552
1074.10 0.2551
1074.20 0.2551
1074.30 0.255
1074.40 0.255
1074.50 0.2549
1074.60 0.2549
1074.70 0.2548
1074.80 0.2547
1074.90 0.2547
1075.00 0.2546
1075.10 0.2546
1075.20 0.2545
1075.30 0.2545
1075.40 0.2544
1075.50 0.2543
1075.60 0.2543
1075.70 0.2542
1075.80 0.2542
1075.90 0.2541
1076.00 0.2541
1076.10 0.254
1076.20 0.2539
1076.30 0.2539
1076.40 0.2538
1076.50 0.2538
1076.60 0.2537
1076.70 0.2537
1076.80 0.2536
1076.90 0.2536
1077.00 0.2535
1077.10 0.2534
1077.20 0.2534
1077.30 0.2533
1077.40 0.2533
1077.50 0.2532
1077.60 0.2532
1077.70 0.2531
1077.80 0.253
1077.90 0.253
1078.00 0.2529
1078.10 0.2529
1078.20 0.2528
1078.30 0.2528
1078.40 0.2527
1078.50 0.2526
1078.60 0.2526
1078.70 0.2525
1078.80 0.2525
1078.90 0.2524
1079.00 0.2524
1079.10 0.2523
1079.20 0.2523
1079.30 0.2522
1079.40 0.2521
1079.50 0.2521
1079.60 0.252
1079.70 0.252
1079.80 0.2519
1079.90 0.2519
1080.00 0.2518
1080.10 0.2517
1080.20 0.2517
1080.30 0.2516
1080.40 0.2516
1080.50 0.2515
1080.60 0.2515
1080.70 0.2514
1080.80 0.2513
1080.90 0.2513
1081.00 0.2512
1081.10 0.2512
1081.20 0.2511
1081.30 0.2511
1081.40 0.251
1081.50 0.2509
1081.60 0.2509
1081.70 0.2508
1081.80 0.2508
1081.90 0.2507
1082.00 0.2507
1082.10 0.2506
1082.20 0.2506
1082.30 0.2505
1082.40 0.2504
1082.50 0.2504
1082.60 0.2503
1082.70 0.2503
1082.80 0.2502
1082.90 0.2501
1083.00 0.2501
1083.10 0.25
1083.20 0.25
1083.30 0.2499
1083.40 0.2499
1083.50 0.2498
1083.60 0.2498
1083.70 0.2497
1083.80 0.2496
1083.90 0.2496
1084.00 0.2495
1084.10 0.2495
1084.20 0.2494
1084.30 0.2494
1084.40 0.2493
1084.50 0.2493
1084.60 0.2492
1084.70 0.2491
1084.80 0.2491
1084.90 0.249
1085.00 0.249
1085.10 0.2489
1085.20 0.2489
1085.30 0.2488
1085.40 0.2487
1085.50 0.2487
1085.60 0.2486
1085.70 0.2486
1085.80 0.2485
1085.90 0.2484
1086.00 0.2484
1086.10 0.2483
1086.20 0.2483
1086.30 0.2482
1086.40 0.2482
1086.50 0.2481
1086.60 0.248
1086.70 0.248
1086.80 0.2479
1086.90 0.2479
1087.00 0.2478
1087.10 0.2477
1087.20 0.2477
1087.30 0.2476
1087.40 0.2476
1087.50 0.2475
1087.60 0.2474
1087.70 0.2474
1087.80 0.2473
1087.90 0.2472
1088.00 0.2472
1088.10 0.2471
1088.20 0.2471
1088.30 0.247
1088.40 0.2469
1088.50 0.2469
1088.60 0.2468
1088.70 0.2467
1088.80 0.2466
1088.90 0.2465
1089.00 0.2465
1089.10 0.2464
1089.20 0.2463
1089.30 0.2462
1089.40 0.2461
1089.50 0.2461
1089.60 0.246
1089.70 0.2459
1089.80 0.2458
1089.90 0.2457
1090.00 0.2456
1090.10 0.2456
1090.20 0.2455
1090.30 0.2454
1090.40 0.2453
1090.50 0.2452
1090.60 0.245
1090.70 0.2448
1090.80 0.2446
1090.90 0.2444
1091.00 0.2442
1091.10 0.244
1091.20 0.2438
1091.30 0.2436
1091.40 0.2434
1091.50 0.2432
1091.60 0.243
1091.70 0.2429
1091.80 0.2427
1091.90 0.2425
1092.00 0.2422
1092.10 0.2415
1092.20 0.2408
1092.30 0.2401
1092.40 0.2394
1092.50 0.2387
1092.60 0.238
1092.70 0.2369
1092.80 0.2349
1092.90 0.2328
1093.00 0.2308
1093.10 0.2278
1093.20 0.2229
1093.30 0.2174
1093.40 0.2047
1093.50 0.1968
1093.60 0.2139
1093.70 0.2208
1093.80 0.2257
1093.90 0.2296
1094.00 0.2315
1094.10 0.2335
1094.20 0.2354
1094.30 0.2369
1094.40 0.2374
1094.50 0.238
1094.60 0.2386
1094.70 0.2392
1094.80 0.2397
1094.90 0.2403
1095.00 0.2407
1095.10 0.2408
1095.20 0.2409
1095.30 0.241
1095.40 0.2411
1095.50 0.2412
1095.60 0.2413
1095.70 0.2414
1095.80 0.2414
1095.90 0.2415
1096.00 0.2416
1096.10 0.2417
1096.20 0.2418
1096.30 0.2419
1096.40 0.242
1096.50 0.242
1096.60 0.242
1096.70 0.242
1096.80 0.242
1096.90 0.242
1097.00 0.242
1097.10 0.2419
1097.20 0.2419
1097.30 0.2419
1097.40 0.2418
1097.50 0.2418
1097.60 0.2418
1097.70 0.2417
1097.80 0.2417
1097.90 0.2417
1098.00 0.2416
1098.10 0.2416
1098.20 0.2416
1098.30 0.2415
1098.40 0.2415
1098.50 0.2415
1098.60 0.2414
1098.70 0.2414
1098.80 0.2413
1098.90 0.2413
1099.00 0.2412
1099.10 0.2412
1099.20 0.2411
1099.30 0.2411
1099.40 0.241
1099.50 0.241
1099.60 0.2409
1099.70 0.2409
1099.80 0.2409
1099.90 0.2408
1100.00 0.2408
1100.10 0.2407
1100.20 0.2407
1100.30 0.2406
1100.40 0.2406
1100.50 0.2405
1100.60 0.2405
1100.70 0.2404
1100.80 0.2404
1100.90 0.2403
1101.00 0.2403
1101.10 0.2402
1101.20 0.2402
1101.30 0.2401
1101.40 0.2401
1101.50 0.24
1101.60 0.24
1101.70 0.2399
1101.80 0.2399
1101.90 0.2398
1102.00 0.2398
1102.10 0.2397
1102.20 0.2397
1102.30 0.2396
1102.40 0.2395
1102.50 0.2395
1102.60 0.2394
1102.70 0.2394
1102.80 0.2393
1102.90 0.2393
1103.00 0.2392
1103.10 0.2392
1103.20 0.2391
1103.30 0.2391
1103.40 0.239
1103.50 0.239
1103.60 0.2389
1103.70 0.2389
1103.80 0.2388
1103.90 0.2388
1104.00 0.2387
1104.10 0.2387
1104.20 0.2386
1104.30 0.2386
1104.40 0.2385
1104.50 0.2385
1104.60 0.2384
1104.70 0.2384
1104.80 0.2383
1104.90 0.2383
1105.00 0.2382
1105.10 0.2382
1105.20 0.2381
1105.30 0.2381
1105.40 0.238
1105.50 0.238
1105.60 0.2379
1105.70 0.2378
1105.80 0.2378
1105.90 0.2377
1106.00 0.2377
1106.10 0.2376
1106.20 0.2376
1106.30 0.2375
1106.40 0.2375
1106.50 0.2374
1106.60 0.2374
1106.70 0.2373
1106.80 0.2373
1106.90 0.2372
1107.00 0.2372
1107.10 0.2371
1107.20 0.2371
1107.30 0.237
1107.40 0.237
1107.50 0.2369
1107.60 0.2369
1107.70 0.2368
1107.80 0.2368
1107.90 0.2367
1108.00 0.2367
1108.10 0.2366
1108.20 0.2366
1108.30 0.2365
1108.40 0.2364
1108.50 0.2364
1108.60 0.2363
1108.70 0.2363
1108.80 0.2362
1108.90 0.2362
1109.00 0.2361
1109.10 0.2361
1109.20 0.236
1109.30 0.236
1109.40 0.2359
1109.50 0.2359
1109.60 0.2358
1109.70 0.2358
1109.80 0.2357
1109.90 0.2357
1110.00 0.2356
1110.10 0.2356
1110.20 0.2355
1110.30 0.2355
1110.40 0.2354
1110.50 0.2354
1110.60 0.2353
1110.70 0.2353
1110.80 0.2352
1110.90 0.2352
1111.00 0.2351
1111.10 0.235
1111.20 0.235
1111.30 0.2349
1111.40 0.2349
1111.50 0.2348
1111.60 0.2348
1111.70 0.2347
1111.80 0.2347
1111.90 0.2346
1112.00 0.2346
1112.10 0.2345
1112.20 0.2345
1112.30 0.2344
1112.40 0.2344
1112.50 0.2343
1112.60 0.2343
1112.70 0.2342
1112.80 0.2342
1112.90 0.2341
1113.00 0.2341
1113.10 0.234
1113.20 0.234
1113.30 0.2339
1113.40 0.2339
1113.50 0.2338
1113.60 0.2338
1113.70 0.2337
1113.80 0.2337
1113.90 0.2336
1114.00 0.2336
1114.10 0.2335
1114.20 0.2335
1114.30 0.2334
1114.40 0.2334
1114.50 0.2333
1114.60 0.2333
1114.70 0.2332
1114.80 0.2332
1114.90 0.2331
1115.00 0.2331
1115.10 0.233
1115.20 0.233
1115.30 0.2329
1115.40 0.2329
1115.50 0.2328
1115.60 0.2328
1115.70 0.2327
1115.80 0.2327
1115.90 0.2326
1116.00 0.2326
1116.10 0.2325
1116.20 0.2325
1116.30 0.2324
1116.40 0.2324
1116.50 0.2323
1116.60 0.2322
1116.70 0.2322
1116.80 0.2321
1116.90 0.2321
1117.00 0.232
1117.10 0.232
1117.20 0.2319
1117.30 0.2319
1117.40 0.2318
1117.50 0.2318
1117.60 0.2317
1117.70 0.2317
1117.80 0.2316
1117.90 0.2316
1118.00 0.2315
1118.10 0.2315
1118.20 0.2314
1118.30 0.2314
1118.40 0.2313
1118.50 0.2313
1118.60 0.2312
1118.70 0.2312
1118.80 0.2311
1118.90 0.2311
1119.00 0.231
1119.10 0.231
1119.20 0.2309
1119.30 0.2309
1119.40 0.2308
1119.50 0.2308
1119.60 0.2307
1119.70 0.2307
1119.80 0.2306
1119.90 0.2306
1120.00 0.2305
1120.10 0.2305
1120.20 0.2304
1120.30 0.2304
1120.40 0.2303
1120.50 0.2303
1120.60 0.2302
1120.70 0.2302
1120.80 0.2301
1120.90 0.2301
1121.00 0.23
1121.10 0.23
1121.20 0.2299
1121.30 0.2299
1121.40 0.2298
1121.50 0.2298
1121.60 0.2297
1121.70 0.2297
1121.80 0.2296
1121.90 0.2296
1122.00 0.2295
1122.10 0.2295
1122.20 0.2294
1122.30 0.2294
1122.40 0.2293
1122.50 0.2293
1122.60 0.2292
1122.70 0.2292
1122.80 0.2291
1122.90 0.2291
1123.00 0.229
1123.10 0.229
1123.20 0.2289
1123.30 0.2289
1123.40 0.2288
1123.50 0.2288
1123.60 0.2287
1123.70 0.2287
1123.80 0.2286
1123.90 0.2286
1124.00 0.2285
1124.10 0.2285
1124.20 0.2284
1124.30 0.2284
1124.40 0.2283
1124.50 0.2283
1124.60 0.2282
1124.70 0.2282
1124.80 0.2281
1124.90 0.2281
1125.00 0.228
1125.10 0.228
1125.20 0.2279
1125.30 0.2279
1125.40 0.2278
1125.50 0.2278
1125.60 0.2277
1125.70 0.2277
1125.80 0.2276
1125.90 0.2276
1126.00 0.2275
1126.10 0.2275
1126.20 0.2274
1126.30 0.2274
1126.40 0.2273
1126.50 0.2273
1126.60 0.2272
1126.70 0.2272
1126.80 0.2271
1126.90 0.2271
1127.00 0.227
1127.10 0.227
1127.20 0.2269
1127.30 0.2269
1127.40 0.2268
1127.50 0.2268
1127.60 0.2267
1127.70 0.2267
1127.80 0.2267
1127.90 0.2266
1128.00 0.2266
1128.10 0.2265
1128.20 0.2265
1128.30 0.2264
1128.40 0.2264
1128.50 0.2263
1128.60 0.2263
1128.70 0.2262
1128.80 0.2262
1128.90 0.2261
1129.00 0.2261
1129.10 0.226
1129.20 0.226
1129.30 0.2259
1129.40 0.2259
1129.50 0.2258
1129.60 0.2258
1129.70 0.2257
1129.80 0.2257
1129.90 0.2256
1130.00 0.2256
1130.10 0.2255
1130.20 0.2255
1130.30 0.2254
1130.40 0.2254
1130.50 0.2253
1130.60 0.2253
1130.70 0.2252
1130.80 0.2252
1130.90 0.2251
1131.00 0.2251
1131.10 0.225
1131.20 0.225
1131.30 0.2249
1131.40 0.2249
1131.50 0.2248
1131.60 0.2248
1131.70 0.2247
1131.80 0.2247
1131.90 0.2246
1132.00 0.2246
1132.10 0.2245
1132.20 0.2245
1132.30 0.2244
1132.40 0.2244
1132.50 0.2244
1132.60 0.2243
1132.70 0.2243
1132.80 0.2242
1132.90 0.2242
1133.00 0.2241
1133.10 0.2241
1133.20 0.224
1133.30 0.224
1133.40 0.2239
1133.50 0.2239
1133.60 0.2238
1133.70 0.2238
1133.80 0.2237
1133.90 0.2237
1134.00 0.2236
1134.10 0.2236
1134.20 0.2235
1134.30 0.2235
1134.40 0.2234
1134.50 0.2234
1134.60 0.2233
1134.70 0.2233
1134.80 0.2232
1134.90 0.2232
1135.00 0.2231
1135.10 0.2231
1135.20 0.223
1135.30 0.223
1135.40 0.2229
1135.50 0.2229
1135.60 0.2229
1135.70 0.2228
1135.80 0.2228
1135.90 0.2227
1136.00 0.2227
1136.10 0.2226
1136.20 0.2226
1136.30 0.2225
1136.40 0.2225
1136.50 0.2224
1136.60 0.2224
1136.70 0.2223
1136.80 0.2223
1136.90 0.2222
1137.00 0.2222
1137.10 0.2221
1137.20 0.2221
1137.30 0.222
1137.40 0.222
1137.50 0.2219
1137.60 0.2219
1137.70 0.2218
1137.80 0.2218
1137.90 0.2217
1138.00 0.2217
1138.10 0.2217
1138.20 0.2216
1138.30 0.2216
1138.40 0.2215
1138.50 0.2215
1138.60 0.2214
1138.70 0.2214
1138.80 0.2213
1138.90 0.2213
1139.00 0.2212
1139.10 0.2212
1139.20 0.2211
1139.30 0.2211
1139.40 0.221
1139.50 0.221
1139.60 0.2209
1139.70 0.2209
1139.80 0.2208
1139.90 0.2208
1140.00 0.2207
1140.10 0.2207
1140.20 0.2207
1140.30 0.2206
1140.40 0.2206
1140.50 0.2205
1140.60 0.2205
1140.70 0.2204
1140.80 0.2204
1140.90 0.2203
1141.00 0.2203
1141.10 0.2202
1141.20 0.2202
1141.30 0.2201
1141.40 0.2201
1141.50 0.22
1141.60 0.22
1141.70 0.2199
1141.80 0.2199
1141.90 0.2198
1142.00 0.2198
1142.10 0.2198
1142.20 0.2197
1142.30 0.2197
1142.40 0.2196
1142.50 0.2196
1142.60 0.2195
1142.70 0.2195
1142.80 0.2194
1142.90 0.2194
1143.00 0.2193
1143.10 0.2193
1143.20 0.2192
1143.30 0.2192
1143.40 0.2191
1143.50 0.2191
1143.60 0.219
1143.70 0.219
1143.80 0.2189
1143.90 0.2189
1144.00 0.2189
1144.10 0.2188
1144.20 0.2188
1144.30 0.2187
1144.40 0.2187
1144.50 0.2186
1144.60 0.2186
1144.70 0.2185
1144.80 0.2185
1144.90 0.2184
1145.00 0.2184
1145.10 0.2183
1145.20 0.2183
1145.30 0.2182
1145.40 0.2182
1145.50 0.2182
1145.60 0.2181
1145.70 0.2181
1145.80 0.218
1145.90 0.218
1146.00 0.2179
1146.10 0.2179
1146.20 0.2178
1146.30 0.2178
1146.40 0.2177
1146.50 0.2177
1146.60 0.2176
1146.70 0.2176
1146.80 0.2175
1146.90 0.2175
1147.00 0.2175
1147.10 0.2174
1147.20 0.2174
1147.30 0.2173
1147.40 0.2173
1147.50 0.2172
1147.60 0.2172
1147.70 0.2171
1147.80 0.2171
1147.90 0.217
1148.00 0.217
1148.10 0.2169
1148.20 0.2169
1148.30 0.2169
1148.40 0.2168
1148.50 0.2168
1148.60 0.2167
1148.70 0.2167
1148.80 0.2166
1148.90 0.2166
1149.00 0.2165
1149.10 0.2165
1149.20 0.2164
1149.30 0.2164
1149.40 0.2163
1149.50 0.2163
1149.60 0.2163
1149.70 0.2162
1149.80 0.2162
1149.90 0.2161
1150.00 0.2161
1150.10 0.216
1150.20 0.216
1150.30 0.2159
1150.40 0.2159
1150.50 0.2158
1150.60 0.2158
1150.70 0.2157
1150.80 0.2157
1150.90 0.2157
1151.00 0.2156
1151.10 0.2156
1151.20 0.2155
1151.30 0.2155
1151.40 0.2154
1151.50 0.2154
1151.60 0.2153
1151.70 0.2153
1151.80 0.2152
1151.90 0.2152
1152.00 0.2152
1152.10 0.2151
1152.20 0.2151
1152.30 0.215
1152.40 0.215
1152.50 0.2149
1152.60 0.2149
1152.70 0.2148
1152.80 0.2148
1152.90 0.2147
1153.00 0.2147
1153.10 0.2146
1153.20 0.2146
1153.30 0.2146
1153.40 0.2145
1153.50 0.2145
1153.60 0.2144
1153.70 0.2144
1153.80 0.2143
1153.90 0.2143
1154.00 0.2142
1154.10 0.2142
1154.20 0.2141
1154.30 0.2141
1154.40 0.2141
1154.50 0.214
1154.60 0.214
1154.70 0.2139
1154.80 0.2139
1154.90 0.2138
1155.00 0.2138
1155.10 0.2137
1155.20 0.2137
1155.30 0.2136
1155.40 0.2136
1155.50 0.2136
1155.60 0.2135
1155.70 0.2135
1155.80 0.2134
1155.90 0.2134
1156.00 0.2133
1156.10 0.2133
1156.20 0.2132
1156.30 0.2132
1156.40 0.2131
1156.50 0.2131
1156.60 0.2131
1156.70 0.213
1156.80 0.213
1156.90 0.2129
1157.00 0.2129
1157.10 0.2128
1157.20 0.2128
1157.30 0.2127
1157.40 0.2127
1157.50 0.2126
1157.60 0.2126
1157.70 0.2126
1157.80 0.2125
1157.90 0.2125
1158.00 0.2124
1158.10 0.2124
1158.20 0.2123
1158.30 0.2123
1158.40 0.2122
1158.50 0.2122
1158.60 0.2121
1158.70 0.2121
1158.80 0.2121
1158.90 0.212
1159.00 0.212
1159.10 0.2119
1159.20 0.2119
1159.30 0.2118
1159.40 0.2118
1159.50 0.2117
1159.60 0.2117
1159.70 0.2116
1159.80 0.2116
1159.90 0.2116
1160.00 0.2115
1160.10 0.2115
1160.20 0.2114
1160.30 0.2114
1160.40 0.2113
1160.50 0.2113
1160.60 0.2112
1160.70 0.2112
1160.80 0.2112
1160.90 0.2111
1161.00 0.2111
1161.10 0.211
1161.20 0.211
1161.30 0.2109
1161.40 0.2109
1161.50 0.2108
1161.60 0.2108
1161.70 0.2108
1161.80 0.2107
1161.90 0.2107
1162.00 0.2106
1162.10 0.2106
1162.20 0.2105
1162.30 0.2105
1162.40 0.2104
1162.50 0.2104
1162.60 0.2103
1162.70 0.2103
1162.80 0.2103
1162.90 0.2102
1163.00 0.2102
1163.10 0.2101
1163.20 0.2101
1163.30 0.21
1163.40 0.21
1163.50 0.2099
1163.60 0.2099
1163.70 0.2099
1163.80 0.2098
1163.90 0.2098
1164.00 0.2097
1164.10 0.2097
1164.20 0.2096
1164.30 0.2096
1164.40 0.2095
1164.50 0.2095
1164.60 0.2095
1164.70 0.2094
1164.80 0.2094
1164.90 0.2093
1165.00 0.2093
1165.10 0.2092
1165.20 0.2092
1165.30 0.2091
1165.40 0.2091
1165.50 0.2091
1165.60 0.209
1165.70 0.209
1165.80 0.2089
1165.90 0.2089
1166.00 0.2088
1166.10 0.2088
1166.20 0.2087
1166.30 0.2087
1166.40 0.2087
1166.50 0.2086
1166.60 0.2086
1166.70 0.2085
1166.80 0.2085
1166.90 0.2084
1167.00 0.2084
1167.10 0.2084
1167.20 0.2083
1167.30 0.2083
1167.40 0.2082
1167.50 0.2082
1167.60 0.2081
1167.70 0.2081
1167.80 0.208
1167.90 0.208
1168.00 0.208
1168.10 0.2079
1168.20 0.2079
1168.30 0.2078
1168.40 0.2078
1168.50 0.2077
1168.60 0.2077
1168.70 0.2076
1168.80 0.2076
1168.90 0.2076
1169.00 0.2075
1169.10 0.2075
1169.20 0.2074
1169.30 0.2074
1169.40 0.2073
1169.50 0.2073
1169.60 0.2073
1169.70 0.2072
1169.80 0.2072
1169.90 0.2071
1170.00 0.2071
1170.10 0.207
1170.20 0.207
1170.30 0.2069
1170.40 0.2069
1170.50 0.2069
1170.60 0.2068
1170.70 0.2068
1170.80 0.2067
1170.90 0.2067
1171.00 0.2066
1171.10 0.2066
1171.20 0.2066
1171.30 0.2065
1171.40 0.2065
1171.50 0.2064
1171.60 0.2064
1171.70 0.2063
1171.80 0.2063
1171.90 0.2062
1172.00 0.2062
1172.10 0.2062
1172.20 0.2061
1172.30 0.2061
1172.40 0.206
1172.50 0.206
1172.60 0.2059
1172.70 0.2059
1172.80 0.2059
1172.90 0.2058
1173.00 0.2058
1173.10 0.2057
1173.20 0.2057
1173.30 0.2056
1173.40 0.2056
1173.50 0.2056
1173.60 0.2055
1173.70 0.2055
1173.80 0.2054
1173.90 0.2054
1174.00 0.2053
1174.10 0.2053
1174.20 0.2052
1174.30 0.2052
1174.40 0.2052
1174.50 0.2051
1174.60 0.2051
1174.70 0.205
1174.80 0.205
1174.90 0.2049
1175.00 0.2049
1175.10 0.2049
1175.20 0.2048
1175.30 0.2048
1175.40 0.2047
1175.50 0.2047
1175.60 0.2046
1175.70 0.2046
1175.80 0.2046
1175.90 0.2045
1176.00 0.2045
1176.10 0.2044
1176.20 0.2044
1176.30 0.2043
1176.40 0.2043
1176.50 0.2043
1176.60 0.2042
1176.70 0.2042
1176.80 0.2041
1176.90 0.2041
1177.00 0.204
1177.10 0.204
1177.20 0.204
1177.30 0.2039
1177.40 0.2039
1177.50 0.2038
1177.60 0.2038
1177.70 0.2037
1177.80 0.2037
1177.90 0.2037
1178.00 0.2036
1178.10 0.2036
1178.20 0.2035
1178.30 0.2035
1178.40 0.2034
1178.50 0.2034
1178.60 0.2034
1178.70 0.2033
1178.80 0.2033
1178.90 0.2032
1179.00 0.2032
1179.10 0.2031
1179.20 0.2031
1179.30 0.2031
1179.40 0.203
1179.50 0.203
1179.60 0.2029
1179.70 0.2029
1179.80 0.2028
1179.90 0.2028
1180.00 0.2028
1180.10 0.2027
1180.20 0.2027
1180.30 0.2026
1180.40 0.2026
1180.50 0.2025
1180.60 0.2025
1180.70 0.2025
1180.80 0.2024
1180.90 0.2024
1181.00 0.2023
1181.10 0.2023
1181.20 0.2022
1181.30 0.2022
1181.40 0.2022
1181.50 0.2021
1181.60 0.2021
1181.70 0.202
1181.80 0.202
1181.90 0.2019
1182.00 0.2019
1182.10 0.2019
1182.20 0.2018
1182.30 0.2018
1182.40 0.2017
1182.50 0.2017
1182.60 0.2017
1182.70 0.2016
1182.80 0.2016
1182.90 0.2015
1183.00 0.2015
1183.10 0.2014
1183.20 0.2014
1183.30 0.2014
1183.40 0.2013
1183.50 0.2013
1183.60 0.2012
1183.70 0.2012
1183.80 0.2011
1183.90 0.2011
1184.00 0.2011
1184.10 0.201
1184.20 0.201
1184.30 0.2009
1184.40 0.2009
1184.50 0.2009
1184.60 0.2008
1184.70 0.2008
1184.80 0.2007
1184.90 0.2007
1185.00 0.2006
1185.10 0.2006
1185.20 0.2006
1185.30 0.2005
1185.40 0.2005
1185.50 0.2004
1185.60 0.2004
1185.70 0.2003
1185.80 0.2003
1185.90 0.2003
1186.00 0.2002
1186.10 0.2002
1186.20 0.2001
1186.30 0.2001
1186.40 0.2001
1186.50 0.2
1186.60 0.2
1186.70 0.1999
1186.80 0.1999
1186.90 0.1998
1187.00 0.1998
1187.10 0.1998
1187.20 0.1997
1187.30 0.1997
1187.40 0.1996
1187.50 0.1996
1187.60 0.1996
1187.70 0.1995
1187.80 0.1995
1187.90 0.1994
1188.00 0.1994
1188.10 0.1993
1188.20 0.1993
1188.30 0.1993
1188.40 0.1992
1188.50 0.1992
1188.60 0.1991
1188.70 0.1991
1188.80 0.1991
1188.90 0.199
1189.00 0.199
1189.10 0.1989
1189.20 0.1989
1189.30 0.1989
1189.40 0.1988
1189.50 0.1988
1189.60 0.1987
1189.70 0.1987
1189.80 0.1986
1189.90 0.1986
1190.00 0.1986
1190.10 0.1985
1190.20 0.1985
1190.30 0.1984
1190.40 0.1984
1190.50 0.1984
1190.60 0.1983
1190.70 0.1983
1190.80 0.1982
1190.90 0.1982
1191.00 0.1982
1191.10 0.1981
1191.20 0.1981
1191.30 0.198
1191.40 0.198
1191.50 0.1979
1191.60 0.1979
1191.70 0.1979
1191.80 0.1978
1191.90 0.1978
1192.00 0.1977
1192.10 0.1977
1192.20 0.1977
1192.30 0.1976
1192.40 0.1976
1192.50 0.1975
1192.60 0.1975
1192.70 0.1975
1192.80 0.1974
1192.90 0.1974
1193.00 0.1973
1193.10 0.1973
1193.20 0.1972
1193.30 0.1972
1193.40 0.1972
1193.50 0.1971
1193.60 0.1971
1193.70 0.197
1193.80 0.197
1193.90 0.197
1194.00 0.1969
1194.10 0.1969
1194.20 0.1968
1194.30 0.1968
1194.40 0.1968
1194.50 0.1967
1194.60 0.1967
1194.70 0.1966
1194.80 0.1966
1194.90 0.1966
1195.00 0.1965
1195.10 0.1965
1195.20 0.1964
1195.30 0.1964
1195.40 0.1963
1195.50 0.1963
1195.60 0.1963
1195.70 0.1962
1195.80 0.1962
1195.90 0.1961
1196.00 0.1961
1196.10 0.1961
1196.20 0.196
1196.30 0.196
1196.40 0.1959
1196.50 0.1959
1196.60 0.1959
1196.70 0.1958
1196.80 0.1958
1196.90 0.1957
1197.00 0.1957
1197.10 0.1957
1197.20 0.1956
1197.30 0.1956
1197.40 0.1955
1197.50 0.1955
1197.60 0.1955
1197.70 0.1954
1197.80 0.1954
1197.90 0.1953
1198.00 0.1953
1198.10 0.1952
1198.20 0.1952
1198.30 0.1952
1198.40 0.1951
1198.50 0.1951
1198.60 0.195
1198.70 0.195
1198.80 0.195
1198.90 0.1949
1199.00 0.1949
1199.10 0.1948
1199.20 0.1948
1199.30 0.1948
1199.40 0.1947
1199.50 0.1947
1199.60 0.1946
1199.70 0.1946
1199.80 0.1946
1199.90 0.1945
1200.00 0
