# Version 2.1 - nm, norm@500 to 1, cut digits, bergeron_4250_85.dat_4250
# Wavelength(nm)  Flambda(ergs/cm^s/s/nm)
300.00 0.2231
300.10 0.2234
300.20 0.2238
300.30 0.2242
300.40 0.2246
300.50 0.2249
300.60 0.2253
300.70 0.2257
300.80 0.226
300.90 0.2264
301.00 0.2268
301.10 0.2272
301.20 0.2275
301.30 0.2279
301.40 0.2283
301.50 0.2286
301.60 0.229
301.70 0.2294
301.80 0.2297
301.90 0.2301
302.00 0.2305
302.10 0.2308
302.20 0.2312
302.30 0.2316
302.40 0.232
302.50 0.2324
302.60 0.2327
302.70 0.2331
302.80 0.2335
302.90 0.2339
303.00 0.2342
303.10 0.2346
303.20 0.235
303.30 0.2354
303.40 0.2357
303.50 0.2361
303.60 0.2365
303.70 0.2369
303.80 0.2372
303.90 0.2376
304.00 0.238
304.10 0.2384
304.20 0.2387
304.30 0.2391
304.40 0.2395
304.50 0.2399
304.60 0.2403
304.70 0.2407
304.80 0.241
304.90 0.2414
305.00 0.2418
305.10 0.2422
305.20 0.2426
305.30 0.2429
305.40 0.2433
305.50 0.2437
305.60 0.2441
305.70 0.2444
305.80 0.2448
305.90 0.2452
306.00 0.2456
306.10 0.246
306.20 0.2463
306.30 0.2467
306.40 0.2471
306.50 0.2475
306.60 0.2479
306.70 0.2483
306.80 0.2487
306.90 0.249
307.00 0.2494
307.10 0.2498
307.20 0.2502
307.30 0.2506
307.40 0.251
307.50 0.2514
307.60 0.2517
307.70 0.2521
307.80 0.2525
307.90 0.2529
308.00 0.2533
308.10 0.2537
308.20 0.254
308.30 0.2544
308.40 0.2548
308.50 0.2552
308.60 0.2556
308.70 0.256
308.80 0.2564
308.90 0.2568
309.00 0.2572
309.10 0.2576
309.20 0.2579
309.30 0.2583
309.40 0.2587
309.50 0.2591
309.60 0.2595
309.70 0.2599
309.80 0.2603
309.90 0.2607
310.00 0.261
310.10 0.2614
310.20 0.2618
310.30 0.2622
310.40 0.2626
310.50 0.263
310.60 0.2634
310.70 0.2638
310.80 0.2642
310.90 0.2646
311.00 0.265
311.10 0.2654
311.20 0.2658
311.30 0.2662
311.40 0.2666
311.50 0.267
311.60 0.2674
311.70 0.2678
311.80 0.2682
311.90 0.2685
312.00 0.2689
312.10 0.2693
312.20 0.2697
312.30 0.2701
312.40 0.2705
312.50 0.2709
312.60 0.2713
312.70 0.2717
312.80 0.2721
312.90 0.2725
313.00 0.2729
313.10 0.2733
313.20 0.2737
313.30 0.2741
313.40 0.2745
313.50 0.2749
313.60 0.2753
313.70 0.2757
313.80 0.2761
313.90 0.2765
314.00 0.2769
314.10 0.2773
314.20 0.2777
314.30 0.2781
314.40 0.2785
314.50 0.2789
314.60 0.2793
314.70 0.2797
314.80 0.2801
314.90 0.2805
315.00 0.2809
315.10 0.2813
315.20 0.2817
315.30 0.2821
315.40 0.2825
315.50 0.2829
315.60 0.2833
315.70 0.2837
315.80 0.2841
315.90 0.2845
316.00 0.2849
316.10 0.2853
316.20 0.2857
316.30 0.2861
316.40 0.2865
316.50 0.287
316.60 0.2874
316.70 0.2878
316.80 0.2882
316.90 0.2886
317.00 0.289
317.10 0.2894
317.20 0.2898
317.30 0.2902
317.40 0.2906
317.50 0.291
317.60 0.2914
317.70 0.2918
317.80 0.2922
317.90 0.2926
318.00 0.293
318.10 0.2934
318.20 0.2938
318.30 0.2943
318.40 0.2947
318.50 0.2951
318.60 0.2955
318.70 0.2959
318.80 0.2963
318.90 0.2967
319.00 0.2971
319.10 0.2975
319.20 0.298
319.30 0.2984
319.40 0.2988
319.50 0.2992
319.60 0.2996
319.70 0.3
319.80 0.3004
319.90 0.3008
320.00 0.3012
320.10 0.3016
320.20 0.302
320.30 0.3025
320.40 0.3029
320.50 0.3033
320.60 0.3037
320.70 0.3041
320.80 0.3045
320.90 0.305
321.00 0.3054
321.10 0.3058
321.20 0.3062
321.30 0.3066
321.40 0.307
321.50 0.3074
321.60 0.3078
321.70 0.3082
321.80 0.3087
321.90 0.3091
322.00 0.3095
322.10 0.3099
322.20 0.3103
322.30 0.3107
322.40 0.3112
322.50 0.3116
322.60 0.312
322.70 0.3124
322.80 0.3128
322.90 0.3133
323.00 0.3137
323.10 0.3141
323.20 0.3145
323.30 0.3149
323.40 0.3153
323.50 0.3157
323.60 0.3162
323.70 0.3166
323.80 0.317
323.90 0.3174
324.00 0.3178
324.10 0.3182
324.20 0.3187
324.30 0.3191
324.40 0.3195
324.50 0.3199
324.60 0.3203
324.70 0.3208
324.80 0.3212
324.90 0.3216
325.00 0.322
325.10 0.3224
325.20 0.3229
325.30 0.3233
325.40 0.3237
325.50 0.3241
325.60 0.3245
325.70 0.3249
325.80 0.3254
325.90 0.3258
326.00 0.3262
326.10 0.3266
326.20 0.327
326.30 0.3275
326.40 0.3279
326.50 0.3283
326.60 0.3288
326.70 0.3292
326.80 0.3296
326.90 0.33
327.00 0.3304
327.10 0.3309
327.20 0.3313
327.30 0.3317
327.40 0.3321
327.50 0.3326
327.60 0.333
327.70 0.3334
327.80 0.3338
327.90 0.3342
328.00 0.3347
328.10 0.3351
328.20 0.3355
328.30 0.3359
328.40 0.3364
328.50 0.3368
328.60 0.3372
328.70 0.3376
328.80 0.3381
328.90 0.3385
329.00 0.3389
329.10 0.3393
329.20 0.3398
329.30 0.3402
329.40 0.3406
329.50 0.341
329.60 0.3415
329.70 0.3419
329.80 0.3423
329.90 0.3427
330.00 0.3431
330.10 0.3436
330.20 0.344
330.30 0.3444
330.40 0.3449
330.50 0.3453
330.60 0.3457
330.70 0.3462
330.80 0.3466
330.90 0.347
331.00 0.3475
331.10 0.3479
331.20 0.3483
331.30 0.3488
331.40 0.3492
331.50 0.3496
331.60 0.35
331.70 0.3505
331.80 0.3509
331.90 0.3513
332.00 0.3517
332.10 0.3522
332.20 0.3526
332.30 0.353
332.40 0.3535
332.50 0.3539
332.60 0.3543
332.70 0.3548
332.80 0.3552
332.90 0.3556
333.00 0.3561
333.10 0.3565
333.20 0.3569
333.30 0.3573
333.40 0.3578
333.50 0.3582
333.60 0.3586
333.70 0.3591
333.80 0.3595
333.90 0.3599
334.00 0.3603
334.10 0.3608
334.20 0.3612
334.30 0.3616
334.40 0.3621
334.50 0.3625
334.60 0.363
334.70 0.3634
334.80 0.3638
334.90 0.3643
335.00 0.3647
335.10 0.3651
335.20 0.3656
335.30 0.366
335.40 0.3664
335.50 0.3669
335.60 0.3673
335.70 0.3677
335.80 0.3682
335.90 0.3686
336.00 0.369
336.10 0.3695
336.20 0.3699
336.30 0.3703
336.40 0.3708
336.50 0.3712
336.60 0.3716
336.70 0.3721
336.80 0.3725
336.90 0.373
337.00 0.3734
337.10 0.3738
337.20 0.3743
337.30 0.3747
337.40 0.3751
337.50 0.3756
337.60 0.376
337.70 0.3764
337.80 0.3769
337.90 0.3773
338.00 0.3777
338.10 0.3782
338.20 0.3786
338.30 0.379
338.40 0.3795
338.50 0.3799
338.60 0.3804
338.70 0.3808
338.80 0.3812
338.90 0.3817
339.00 0.3821
339.10 0.3826
339.20 0.383
339.30 0.3834
339.40 0.3839
339.50 0.3843
339.60 0.3847
339.70 0.3852
339.80 0.3856
339.90 0.386
340.00 0.3865
340.10 0.3869
340.20 0.3874
340.30 0.3878
340.40 0.3882
340.50 0.3887
340.60 0.3891
340.70 0.3896
340.80 0.39
340.90 0.3905
341.00 0.3909
341.10 0.3913
341.20 0.3918
341.30 0.3922
341.40 0.3927
341.50 0.3931
341.60 0.3935
341.70 0.394
341.80 0.3944
341.90 0.3948
342.00 0.3953
342.10 0.3957
342.20 0.3962
342.30 0.3966
342.40 0.3971
342.50 0.3975
342.60 0.3979
342.70 0.3984
342.80 0.3988
342.90 0.3993
343.00 0.3997
343.10 0.4001
343.20 0.4006
343.30 0.401
343.40 0.4015
343.50 0.4019
343.60 0.4023
343.70 0.4028
343.80 0.4032
343.90 0.4037
344.00 0.4041
344.10 0.4045
344.20 0.405
344.30 0.4054
344.40 0.4059
344.50 0.4063
344.60 0.4068
344.70 0.4072
344.80 0.4077
344.90 0.4081
345.00 0.4086
345.10 0.409
345.20 0.4094
345.30 0.4099
345.40 0.4103
345.50 0.4108
345.60 0.4112
345.70 0.4116
345.80 0.4121
345.90 0.4125
346.00 0.413
346.10 0.4134
346.20 0.4139
346.30 0.4143
346.40 0.4148
346.50 0.4152
346.60 0.4157
346.70 0.4161
346.80 0.4165
346.90 0.417
347.00 0.4174
347.10 0.4179
347.20 0.4183
347.30 0.4188
347.40 0.4192
347.50 0.4196
347.60 0.4201
347.70 0.4205
347.80 0.421
347.90 0.4214
348.00 0.4218
348.10 0.4223
348.20 0.4227
348.30 0.4232
348.40 0.4236
348.50 0.4241
348.60 0.4245
348.70 0.425
348.80 0.4254
348.90 0.4259
349.00 0.4263
349.10 0.4268
349.20 0.4272
349.30 0.4277
349.40 0.4281
349.50 0.4286
349.60 0.429
349.70 0.4294
349.80 0.4299
349.90 0.4303
350.00 0.4308
350.10 0.4312
350.20 0.4317
350.30 0.4321
350.40 0.4326
350.50 0.433
350.60 0.4335
350.70 0.4339
350.80 0.4344
350.90 0.4348
351.00 0.4353
351.10 0.4357
351.20 0.4362
351.30 0.4366
351.40 0.437
351.50 0.4375
351.60 0.4379
351.70 0.4384
351.80 0.4388
351.90 0.4393
352.00 0.4397
352.10 0.4402
352.20 0.4406
352.30 0.4411
352.40 0.4415
352.50 0.442
352.60 0.4424
352.70 0.4429
352.80 0.4433
352.90 0.4438
353.00 0.4442
353.10 0.4447
353.20 0.4451
353.30 0.4455
353.40 0.446
353.50 0.4464
353.60 0.4469
353.70 0.4473
353.80 0.4478
353.90 0.4482
354.00 0.4486
354.10 0.4491
354.20 0.4496
354.30 0.45
354.40 0.4505
354.50 0.4509
354.60 0.4514
354.70 0.4518
354.80 0.4523
354.90 0.4527
355.00 0.4532
355.10 0.4536
355.20 0.4541
355.30 0.4545
355.40 0.455
355.50 0.4554
355.60 0.4559
355.70 0.4563
355.80 0.4567
355.90 0.4572
356.00 0.4576
356.10 0.4581
356.20 0.4585
356.30 0.459
356.40 0.4594
356.50 0.4599
356.60 0.4604
356.70 0.4608
356.80 0.4613
356.90 0.4617
357.00 0.4622
357.10 0.4626
357.20 0.463
357.30 0.4635
357.40 0.4639
357.50 0.4644
357.60 0.4648
357.70 0.4653
357.80 0.4657
357.90 0.4662
358.00 0.4666
358.10 0.4671
358.20 0.4675
358.30 0.468
358.40 0.4684
358.50 0.4689
358.60 0.4693
358.70 0.4698
358.80 0.4702
358.90 0.4707
359.00 0.4711
359.10 0.4716
359.20 0.472
359.30 0.4725
359.40 0.4729
359.50 0.4734
359.60 0.4738
359.70 0.4743
359.80 0.4747
359.90 0.4752
360.00 0.4756
360.10 0.4761
360.20 0.4765
360.30 0.477
360.40 0.4774
360.50 0.4779
360.60 0.4783
360.70 0.4788
360.80 0.4792
360.90 0.4797
361.00 0.4801
361.10 0.4806
361.20 0.481
361.30 0.4815
361.40 0.4819
361.50 0.4824
361.60 0.4828
361.70 0.4833
361.80 0.4837
361.90 0.4842
362.00 0.4846
362.10 0.4851
362.20 0.4855
362.30 0.486
362.40 0.4864
362.50 0.4869
362.60 0.4873
362.70 0.4878
362.80 0.4882
362.90 0.4887
363.00 0.4891
363.10 0.4896
363.20 0.49
363.30 0.4905
363.40 0.4909
363.50 0.4914
363.60 0.4918
363.70 0.4923
363.80 0.4927
363.90 0.4932
364.00 0.4936
364.10 0.4941
364.20 0.4945
364.30 0.495
364.40 0.4954
364.50 0.4959
364.60 0.4963
364.70 0.4968
364.80 0.4972
364.90 0.4977
365.00 0.4981
365.10 0.4986
365.20 0.499
365.30 0.4995
365.40 0.4999
365.50 0.5004
365.60 0.5008
365.70 0.5013
365.80 0.5017
365.90 0.5022
366.00 0.5026
366.10 0.5031
366.20 0.5035
366.30 0.504
366.40 0.5044
366.50 0.5049
366.60 0.5054
366.70 0.5058
366.80 0.5063
366.90 0.5067
367.00 0.5072
367.10 0.5076
367.20 0.5081
367.30 0.5085
367.40 0.509
367.50 0.5094
367.60 0.5099
367.70 0.5103
367.80 0.5108
367.90 0.5112
368.00 0.5116
368.10 0.5121
368.20 0.5126
368.30 0.513
368.40 0.5135
368.50 0.5139
368.60 0.5144
368.70 0.5148
368.80 0.5153
368.90 0.5157
369.00 0.5162
369.10 0.5166
369.20 0.5171
369.30 0.5175
369.40 0.518
369.50 0.5184
369.60 0.5189
369.70 0.5193
369.80 0.5198
369.90 0.5202
370.00 0.5207
370.10 0.5211
370.20 0.5216
370.30 0.522
370.40 0.5225
370.50 0.5229
370.60 0.5234
370.70 0.5238
370.80 0.5243
370.90 0.5247
371.00 0.5252
371.10 0.5256
371.20 0.5261
371.30 0.5265
371.40 0.527
371.50 0.5274
371.60 0.5279
371.70 0.5283
371.80 0.5288
371.90 0.5292
372.00 0.5296
372.10 0.5301
372.20 0.5306
372.30 0.531
372.40 0.5315
372.50 0.5319
372.60 0.5324
372.70 0.5328
372.80 0.5333
372.90 0.5337
373.00 0.5342
373.10 0.5346
373.20 0.5351
373.30 0.5355
373.40 0.536
373.50 0.5364
373.60 0.5369
373.70 0.5373
373.80 0.5377
373.90 0.5382
374.00 0.5386
374.10 0.5391
374.20 0.5395
374.30 0.54
374.40 0.5404
374.50 0.5409
374.60 0.5413
374.70 0.5418
374.80 0.5422
374.90 0.5427
375.00 0.5431
375.10 0.5436
375.20 0.544
375.30 0.5445
375.40 0.5449
375.50 0.5454
375.60 0.5458
375.70 0.5463
375.80 0.5467
375.90 0.5472
376.00 0.5476
376.10 0.5481
376.20 0.5485
376.30 0.549
376.40 0.5494
376.50 0.5499
376.60 0.5503
376.70 0.5507
376.80 0.5512
376.90 0.5516
377.00 0.5521
377.10 0.5525
377.20 0.553
377.30 0.5534
377.40 0.5539
377.50 0.5543
377.60 0.5548
377.70 0.5552
377.80 0.5557
377.90 0.5561
378.00 0.5566
378.10 0.557
378.20 0.5575
378.30 0.5579
378.40 0.5584
378.50 0.5588
378.60 0.5593
378.70 0.5597
378.80 0.5602
378.90 0.5606
379.00 0.561
379.10 0.5615
379.20 0.5619
379.30 0.5624
379.40 0.5628
379.50 0.5633
379.60 0.5637
379.70 0.5642
379.80 0.5646
379.90 0.5651
380.00 0.5655
380.10 0.566
380.20 0.5664
380.30 0.5668
380.40 0.5673
380.50 0.5677
380.60 0.5682
380.70 0.5686
380.80 0.5691
380.90 0.5695
381.00 0.57
381.10 0.5704
381.20 0.5709
381.30 0.5713
381.40 0.5718
381.50 0.5722
381.60 0.5726
381.70 0.5731
381.80 0.5735
381.90 0.574
382.00 0.5744
382.10 0.5749
382.20 0.5753
382.30 0.5758
382.40 0.5762
382.50 0.5767
382.60 0.5771
382.70 0.5775
382.80 0.578
382.90 0.5784
383.00 0.5789
383.10 0.5793
383.20 0.5798
383.30 0.5802
383.40 0.5807
383.50 0.5811
383.60 0.5815
383.70 0.582
383.80 0.5824
383.90 0.5829
384.00 0.5833
384.10 0.5838
384.20 0.5842
384.30 0.5846
384.40 0.5851
384.50 0.5855
384.60 0.586
384.70 0.5864
384.80 0.5869
384.90 0.5873
385.00 0.5878
385.10 0.5882
385.20 0.5886
385.30 0.5891
385.40 0.5895
385.50 0.59
385.60 0.5904
385.70 0.5909
385.80 0.5913
385.90 0.5917
386.00 0.5922
386.10 0.5926
386.20 0.5931
386.30 0.5935
386.40 0.594
386.50 0.5944
386.60 0.5948
386.70 0.5953
386.80 0.5957
386.90 0.5962
387.00 0.5966
387.10 0.5971
387.20 0.5975
387.30 0.5979
387.40 0.5984
387.50 0.5988
387.60 0.5993
387.70 0.5997
387.80 0.6001
387.90 0.6006
388.00 0.601
388.10 0.6015
388.20 0.6019
388.30 0.6024
388.40 0.6028
388.50 0.6032
388.60 0.6037
388.70 0.6041
388.80 0.6046
388.90 0.605
389.00 0.6054
389.10 0.6059
389.20 0.6063
389.30 0.6068
389.40 0.6072
389.50 0.6076
389.60 0.6081
389.70 0.6085
389.80 0.609
389.90 0.6094
390.00 0.6098
390.10 0.6103
390.20 0.6107
390.30 0.6112
390.40 0.6116
390.50 0.612
390.60 0.6125
390.70 0.6129
390.80 0.6134
390.90 0.6138
391.00 0.6142
391.10 0.6147
391.20 0.6151
391.30 0.6156
391.40 0.616
391.50 0.6164
391.60 0.6169
391.70 0.6173
391.80 0.6177
391.90 0.6182
392.00 0.6186
392.10 0.6191
392.20 0.6195
392.30 0.6199
392.40 0.6204
392.50 0.6208
392.60 0.6212
392.70 0.6217
392.80 0.6221
392.90 0.6226
393.00 0.623
393.10 0.6234
393.20 0.6239
393.30 0.6243
393.40 0.6247
393.50 0.6252
393.60 0.6256
393.70 0.626
393.80 0.6265
393.90 0.6269
394.00 0.6274
394.10 0.6278
394.20 0.6282
394.30 0.6287
394.40 0.6291
394.50 0.6295
394.60 0.63
394.70 0.6304
394.80 0.6308
394.90 0.6313
395.00 0.6317
395.10 0.6322
395.20 0.6326
395.30 0.633
395.40 0.6335
395.50 0.6339
395.60 0.6343
395.70 0.6348
395.80 0.6352
395.90 0.6356
396.00 0.6361
396.10 0.6365
396.20 0.6369
396.30 0.6374
396.40 0.6378
396.50 0.6382
396.60 0.6387
396.70 0.6391
396.80 0.6395
396.90 0.64
397.00 0.6404
397.10 0.6408
397.20 0.6413
397.30 0.6417
397.40 0.6421
397.50 0.6426
397.60 0.643
397.70 0.6434
397.80 0.6439
397.90 0.6443
398.00 0.6447
398.10 0.6452
398.20 0.6456
398.30 0.646
398.40 0.6465
398.50 0.6469
398.60 0.6473
398.70 0.6478
398.80 0.6482
398.90 0.6486
399.00 0.649
399.10 0.6495
399.20 0.6499
399.30 0.6503
399.40 0.6508
399.50 0.6512
399.60 0.6516
399.70 0.6521
399.80 0.6525
399.90 0.6529
400.00 0.6534
400.10 0.6538
400.20 0.6542
400.30 0.6546
400.40 0.6551
400.50 0.6555
400.60 0.6559
400.70 0.6564
400.80 0.6568
400.90 0.6572
401.00 0.6576
401.10 0.6581
401.20 0.6585
401.30 0.6589
401.40 0.6594
401.50 0.6598
401.60 0.6602
401.70 0.6606
401.80 0.6611
401.90 0.6615
402.00 0.6619
402.10 0.6624
402.20 0.6628
402.30 0.6632
402.40 0.6636
402.50 0.6641
402.60 0.6645
402.70 0.6649
402.80 0.6654
402.90 0.6658
403.00 0.6662
403.10 0.6666
403.20 0.6671
403.30 0.6675
403.40 0.6679
403.50 0.6683
403.60 0.6688
403.70 0.6692
403.80 0.6696
403.90 0.67
404.00 0.6705
404.10 0.6709
404.20 0.6713
404.30 0.6717
404.40 0.6722
404.50 0.6726
404.60 0.673
404.70 0.6734
404.80 0.6739
404.90 0.6743
405.00 0.6747
405.10 0.6751
405.20 0.6756
405.30 0.676
405.40 0.6764
405.50 0.6768
405.60 0.6773
405.70 0.6777
405.80 0.6781
405.90 0.6785
406.00 0.679
406.10 0.6794
406.20 0.6798
406.30 0.6802
406.40 0.6806
406.50 0.6811
406.60 0.6815
406.70 0.6819
406.80 0.6823
406.90 0.6827
407.00 0.6832
407.10 0.6836
407.20 0.684
407.30 0.6844
407.40 0.6849
407.50 0.6853
407.60 0.6857
407.70 0.6861
407.80 0.6865
407.90 0.687
408.00 0.6874
408.10 0.6878
408.20 0.6882
408.30 0.6886
408.40 0.6891
408.50 0.6895
408.60 0.6899
408.70 0.6903
408.80 0.6908
408.90 0.6912
409.00 0.6916
409.10 0.692
409.20 0.6924
409.30 0.6928
409.40 0.6933
409.50 0.6937
409.60 0.6941
409.70 0.6945
409.80 0.6949
409.90 0.6954
410.00 0.6958
410.10 0.6962
410.20 0.6966
410.30 0.697
410.40 0.6974
410.50 0.6979
410.60 0.6983
410.70 0.6987
410.80 0.6991
410.90 0.6995
411.00 0.6999
411.10 0.7004
411.20 0.7008
411.30 0.7012
411.40 0.7016
411.50 0.702
411.60 0.7024
411.70 0.7029
411.80 0.7033
411.90 0.7037
412.00 0.7041
412.10 0.7045
412.20 0.7049
412.30 0.7054
412.40 0.7058
412.50 0.7062
412.60 0.7066
412.70 0.707
412.80 0.7074
412.90 0.7078
413.00 0.7082
413.10 0.7087
413.20 0.7091
413.30 0.7095
413.40 0.7099
413.50 0.7103
413.60 0.7107
413.70 0.7111
413.80 0.7116
413.90 0.712
414.00 0.7124
414.10 0.7128
414.20 0.7132
414.30 0.7136
414.40 0.714
414.50 0.7144
414.60 0.7149
414.70 0.7153
414.80 0.7157
414.90 0.7161
415.00 0.7165
415.10 0.7169
415.20 0.7173
415.30 0.7177
415.40 0.7181
415.50 0.7186
415.60 0.719
415.70 0.7194
415.80 0.7198
415.90 0.7202
416.00 0.7206
416.10 0.721
416.20 0.7214
416.30 0.7218
416.40 0.7222
416.50 0.7226
416.60 0.7231
416.70 0.7235
416.80 0.7239
416.90 0.7243
417.00 0.7247
417.10 0.7251
417.20 0.7255
417.30 0.7259
417.40 0.7263
417.50 0.7267
417.60 0.7271
417.70 0.7275
417.80 0.728
417.90 0.7284
418.00 0.7288
418.10 0.7292
418.20 0.7296
418.30 0.73
418.40 0.7304
418.50 0.7308
418.60 0.7312
418.70 0.7316
418.80 0.732
418.90 0.7324
419.00 0.7328
419.10 0.7332
419.20 0.7336
419.30 0.734
419.40 0.7344
419.50 0.7348
419.60 0.7352
419.70 0.7357
419.80 0.7361
419.90 0.7365
420.00 0.7369
420.10 0.7373
420.20 0.7377
420.30 0.7381
420.40 0.7385
420.50 0.7389
420.60 0.7393
420.70 0.7397
420.80 0.7401
420.90 0.7405
421.00 0.7409
421.10 0.7413
421.20 0.7417
421.30 0.7421
421.40 0.7425
421.50 0.7429
421.60 0.7433
421.70 0.7437
421.80 0.7441
421.90 0.7445
422.00 0.7449
422.10 0.7453
422.20 0.7457
422.30 0.7461
422.40 0.7465
422.50 0.7469
422.60 0.7473
422.70 0.7477
422.80 0.7481
422.90 0.7485
423.00 0.7489
423.10 0.7493
423.20 0.7497
423.30 0.7501
423.40 0.7505
423.50 0.7509
423.60 0.7513
423.70 0.7517
423.80 0.7521
423.90 0.7525
424.00 0.7529
424.10 0.7533
424.20 0.7537
424.30 0.7541
424.40 0.7545
424.50 0.7549
424.60 0.7553
424.70 0.7557
424.80 0.7561
424.90 0.7565
425.00 0.7569
425.10 0.7573
425.20 0.7576
425.30 0.758
425.40 0.7584
425.50 0.7588
425.60 0.7592
425.70 0.7596
425.80 0.76
425.90 0.7604
426.00 0.7608
426.10 0.7612
426.20 0.7616
426.30 0.762
426.40 0.7624
426.50 0.7628
426.60 0.7632
426.70 0.7636
426.80 0.764
426.90 0.7643
427.00 0.7647
427.10 0.7651
427.20 0.7655
427.30 0.7659
427.40 0.7663
427.50 0.7667
427.60 0.7671
427.70 0.7675
427.80 0.7679
427.90 0.7683
428.00 0.7687
428.10 0.769
428.20 0.7694
428.30 0.7698
428.40 0.7702
428.50 0.7706
428.60 0.771
428.70 0.7714
428.80 0.7718
428.90 0.7722
429.00 0.7726
429.10 0.7729
429.20 0.7733
429.30 0.7737
429.40 0.7741
429.50 0.7745
429.60 0.7749
429.70 0.7753
429.80 0.7757
429.90 0.776
430.00 0.7764
430.10 0.7768
430.20 0.7772
430.30 0.7776
430.40 0.778
430.50 0.7784
430.60 0.7788
430.70 0.7791
430.80 0.7795
430.90 0.7799
431.00 0.7803
431.10 0.7807
431.20 0.7811
431.30 0.7815
431.40 0.7818
431.50 0.7822
431.60 0.7826
431.70 0.783
431.80 0.7834
431.90 0.7838
432.00 0.7841
432.10 0.7845
432.20 0.7849
432.30 0.7853
432.40 0.7857
432.50 0.7861
432.60 0.7864
432.70 0.7868
432.80 0.7872
432.90 0.7876
433.00 0.788
433.10 0.7884
433.20 0.7887
433.30 0.7891
433.40 0.7895
433.50 0.7899
433.60 0.7903
433.70 0.7906
433.80 0.791
433.90 0.7914
434.00 0.7918
434.10 0.7922
434.20 0.7926
434.30 0.7929
434.40 0.7933
434.50 0.7937
434.60 0.7941
434.70 0.7944
434.80 0.7948
434.90 0.7952
435.00 0.7956
435.10 0.796
435.20 0.7963
435.30 0.7967
435.40 0.7971
435.50 0.7975
435.60 0.7979
435.70 0.7982
435.80 0.7986
435.90 0.799
436.00 0.7994
436.10 0.7997
436.20 0.8001
436.30 0.8005
436.40 0.8009
436.50 0.8013
436.60 0.8016
436.70 0.802
436.80 0.8024
436.90 0.8027
437.00 0.8031
437.10 0.8035
437.20 0.8039
437.30 0.8042
437.40 0.8046
437.50 0.805
437.60 0.8054
437.70 0.8057
437.80 0.8061
437.90 0.8065
438.00 0.8069
438.10 0.8072
438.20 0.8076
438.30 0.808
438.40 0.8084
438.50 0.8087
438.60 0.8091
438.70 0.8095
438.80 0.8099
438.90 0.8102
439.00 0.8106
439.10 0.811
439.20 0.8113
439.30 0.8117
439.40 0.8121
439.50 0.8124
439.60 0.8128
439.70 0.8132
439.80 0.8136
439.90 0.8139
440.00 0.8143
440.10 0.8147
440.20 0.815
440.30 0.8154
440.40 0.8158
440.50 0.8162
440.60 0.8165
440.70 0.8169
440.80 0.8172
440.90 0.8176
441.00 0.818
441.10 0.8184
441.20 0.8187
441.30 0.8191
441.40 0.8195
441.50 0.8198
441.60 0.8202
441.70 0.8206
441.80 0.8209
441.90 0.8213
442.00 0.8217
442.10 0.822
442.20 0.8224
442.30 0.8228
442.40 0.8231
442.50 0.8235
442.60 0.8238
442.70 0.8242
442.80 0.8246
442.90 0.8249
443.00 0.8253
443.10 0.8257
443.20 0.826
443.30 0.8264
443.40 0.8268
443.50 0.8271
443.60 0.8275
443.70 0.8279
443.80 0.8282
443.90 0.8286
444.00 0.8289
444.10 0.8293
444.20 0.8297
444.30 0.83
444.40 0.8304
444.50 0.8307
444.60 0.8311
444.70 0.8315
444.80 0.8318
444.90 0.8322
445.00 0.8326
445.10 0.8329
445.20 0.8333
445.30 0.8336
445.40 0.834
445.50 0.8344
445.60 0.8347
445.70 0.8351
445.80 0.8354
445.90 0.8358
446.00 0.8361
446.10 0.8365
446.20 0.8369
446.30 0.8372
446.40 0.8376
446.50 0.8379
446.60 0.8383
446.70 0.8387
446.80 0.839
446.90 0.8394
447.00 0.8397
447.10 0.8401
447.20 0.8404
447.30 0.8408
447.40 0.8411
447.50 0.8415
447.60 0.8419
447.70 0.8422
447.80 0.8426
447.90 0.8429
448.00 0.8433
448.10 0.8436
448.20 0.844
448.30 0.8443
448.40 0.8447
448.50 0.845
448.60 0.8454
448.70 0.8458
448.80 0.8461
448.90 0.8465
449.00 0.8468
449.10 0.8472
449.20 0.8475
449.30 0.8479
449.40 0.8482
449.50 0.8486
449.60 0.8489
449.70 0.8493
449.80 0.8496
449.90 0.85
450.00 0.8503
450.10 0.8507
450.20 0.851
450.30 0.8514
450.40 0.8517
450.50 0.8521
450.60 0.8524
450.70 0.8528
450.80 0.8531
450.90 0.8535
451.00 0.8538
451.10 0.8542
451.20 0.8545
451.30 0.8549
451.40 0.8552
451.50 0.8556
451.60 0.8559
451.70 0.8563
451.80 0.8566
451.90 0.857
452.00 0.8573
452.10 0.8576
452.20 0.858
452.30 0.8583
452.40 0.8587
452.50 0.859
452.60 0.8594
452.70 0.8597
452.80 0.8601
452.90 0.8604
453.00 0.8608
453.10 0.8611
453.20 0.8615
453.30 0.8618
453.40 0.8621
453.50 0.8625
453.60 0.8628
453.70 0.8632
453.80 0.8635
453.90 0.8639
454.00 0.8642
454.10 0.8645
454.20 0.8649
454.30 0.8652
454.40 0.8656
454.50 0.8659
454.60 0.8663
454.70 0.8666
454.80 0.8669
454.90 0.8673
455.00 0.8676
455.10 0.868
455.20 0.8683
455.30 0.8686
455.40 0.869
455.50 0.8693
455.60 0.8697
455.70 0.87
455.80 0.8703
455.90 0.8707
456.00 0.871
456.10 0.8714
456.20 0.8717
456.30 0.872
456.40 0.8724
456.50 0.8727
456.60 0.873
456.70 0.8734
456.80 0.8737
456.90 0.8741
457.00 0.8744
457.10 0.8747
457.20 0.8751
457.30 0.8754
457.40 0.8757
457.50 0.8761
457.60 0.8764
457.70 0.8768
457.80 0.8771
457.90 0.8774
458.00 0.8778
458.10 0.8781
458.20 0.8784
458.30 0.8788
458.40 0.8791
458.50 0.8794
458.60 0.8798
458.70 0.8801
458.80 0.8804
458.90 0.8808
459.00 0.8811
459.10 0.8814
459.20 0.8818
459.30 0.8821
459.40 0.8824
459.50 0.8828
459.60 0.8831
459.70 0.8834
459.80 0.8838
459.90 0.8841
460.00 0.8844
460.10 0.8847
460.20 0.8851
460.30 0.8854
460.40 0.8857
460.50 0.8861
460.60 0.8864
460.70 0.8867
460.80 0.887
460.90 0.8874
461.00 0.8877
461.10 0.888
461.20 0.8884
461.30 0.8887
461.40 0.889
461.50 0.8894
461.60 0.8897
461.70 0.89
461.80 0.8903
461.90 0.8907
462.00 0.891
462.10 0.8913
462.20 0.8916
462.30 0.892
462.40 0.8923
462.50 0.8926
462.60 0.8929
462.70 0.8933
462.80 0.8936
462.90 0.8939
463.00 0.8942
463.10 0.8946
463.20 0.8949
463.30 0.8952
463.40 0.8955
463.50 0.8959
463.60 0.8962
463.70 0.8965
463.80 0.8968
463.90 0.8972
464.00 0.8975
464.10 0.8978
464.20 0.8981
464.30 0.8984
464.40 0.8988
464.50 0.8991
464.60 0.8994
464.70 0.8997
464.80 0.9001
464.90 0.9004
465.00 0.9007
465.10 0.901
465.20 0.9013
465.30 0.9017
465.40 0.902
465.50 0.9023
465.60 0.9026
465.70 0.9029
465.80 0.9033
465.90 0.9036
466.00 0.9039
466.10 0.9042
466.20 0.9045
466.30 0.9048
466.40 0.9052
466.50 0.9055
466.60 0.9058
466.70 0.9061
466.80 0.9064
466.90 0.9068
467.00 0.9071
467.10 0.9074
467.20 0.9077
467.30 0.908
467.40 0.9083
467.50 0.9087
467.60 0.909
467.70 0.9093
467.80 0.9096
467.90 0.9099
468.00 0.9102
468.10 0.9105
468.20 0.9109
468.30 0.9112
468.40 0.9115
468.50 0.9118
468.60 0.9121
468.70 0.9124
468.80 0.9127
468.90 0.913
469.00 0.9134
469.10 0.9137
469.20 0.914
469.30 0.9143
469.40 0.9146
469.50 0.9149
469.60 0.9152
469.70 0.9155
469.80 0.9158
469.90 0.9162
470.00 0.9165
470.10 0.9168
470.20 0.9171
470.30 0.9174
470.40 0.9177
470.50 0.918
470.60 0.9183
470.70 0.9186
470.80 0.9189
470.90 0.9193
471.00 0.9196
471.10 0.9199
471.20 0.9202
471.30 0.9205
471.40 0.9208
471.50 0.9211
471.60 0.9214
471.70 0.9217
471.80 0.922
471.90 0.9223
472.00 0.9226
472.10 0.9229
472.20 0.9232
472.30 0.9235
472.40 0.9238
472.50 0.9242
472.60 0.9245
472.70 0.9248
472.80 0.9251
472.90 0.9254
473.00 0.9257
473.10 0.926
473.20 0.9263
473.30 0.9266
473.40 0.9269
473.50 0.9272
473.60 0.9275
473.70 0.9278
473.80 0.9281
473.90 0.9284
474.00 0.9287
474.10 0.929
474.20 0.9293
474.30 0.9296
474.40 0.9299
474.50 0.9302
474.60 0.9305
474.70 0.9308
474.80 0.9311
474.90 0.9314
475.00 0.9317
475.10 0.932
475.20 0.9323
475.30 0.9326
475.40 0.9329
475.50 0.9332
475.60 0.9335
475.70 0.9338
475.80 0.9341
475.90 0.9344
476.00 0.9347
476.10 0.935
476.20 0.9353
476.30 0.9356
476.40 0.9359
476.50 0.9362
476.60 0.9365
476.70 0.9368
476.80 0.9371
476.90 0.9374
477.00 0.9377
477.10 0.938
477.20 0.9383
477.30 0.9386
477.40 0.9389
477.50 0.9392
477.60 0.9394
477.70 0.9397
477.80 0.94
477.90 0.9403
478.00 0.9406
478.10 0.9409
478.20 0.9412
478.30 0.9415
478.40 0.9418
478.50 0.9421
478.60 0.9424
478.70 0.9427
478.80 0.943
478.90 0.9433
479.00 0.9436
479.10 0.9438
479.20 0.9441
479.30 0.9444
479.40 0.9447
479.50 0.945
479.60 0.9453
479.70 0.9456
479.80 0.9458
479.90 0.9461
480.00 0.9464
480.10 0.9467
480.20 0.947
480.30 0.9473
480.40 0.9476
480.50 0.9479
480.60 0.9481
480.70 0.9484
480.80 0.9487
480.90 0.949
481.00 0.9493
481.10 0.9496
481.20 0.9499
481.30 0.9502
481.40 0.9504
481.50 0.9507
481.60 0.951
481.70 0.9513
481.80 0.9516
481.90 0.9519
482.00 0.9522
482.10 0.9524
482.20 0.9527
482.30 0.953
482.40 0.9533
482.50 0.9536
482.60 0.9539
482.70 0.9541
482.80 0.9544
482.90 0.9547
483.00 0.955
483.10 0.9553
483.20 0.9555
483.30 0.9558
483.40 0.9561
483.50 0.9564
483.60 0.9567
483.70 0.957
483.80 0.9572
483.90 0.9575
484.00 0.9578
484.10 0.9581
484.20 0.9584
484.30 0.9587
484.40 0.9589
484.50 0.9592
484.60 0.9595
484.70 0.9598
484.80 0.9601
484.90 0.9604
485.00 0.9606
485.10 0.9609
485.20 0.9612
485.30 0.9614
485.40 0.9617
485.50 0.962
485.60 0.9622
485.70 0.9625
485.80 0.9628
485.90 0.963
486.00 0.9633
486.10 0.9636
486.20 0.9639
486.30 0.9641
486.40 0.9644
486.50 0.9647
486.60 0.965
486.70 0.9653
486.80 0.9656
486.90 0.9659
487.00 0.9661
487.10 0.9664
487.20 0.9666
487.30 0.9669
487.40 0.9672
487.50 0.9675
487.60 0.9678
487.70 0.9681
487.80 0.9683
487.90 0.9686
488.00 0.9689
488.10 0.9691
488.20 0.9694
488.30 0.9697
488.40 0.97
488.50 0.9702
488.60 0.9705
488.70 0.9708
488.80 0.971
488.90 0.9713
489.00 0.9716
489.10 0.9719
489.20 0.9721
489.30 0.9724
489.40 0.9727
489.50 0.9729
489.60 0.9732
489.70 0.9735
489.80 0.9738
489.90 0.974
490.00 0.9743
490.10 0.9746
490.20 0.9748
490.30 0.9751
490.40 0.9754
490.50 0.9756
490.60 0.9759
490.70 0.9762
490.80 0.9764
490.90 0.9767
491.00 0.977
491.10 0.9772
491.20 0.9775
491.30 0.9778
491.40 0.978
491.50 0.9783
491.60 0.9786
491.70 0.9788
491.80 0.9791
491.90 0.9794
492.00 0.9796
492.10 0.9799
492.20 0.9802
492.30 0.9804
492.40 0.9807
492.50 0.9809
492.60 0.9812
492.70 0.9815
492.80 0.9817
492.90 0.982
493.00 0.9822
493.10 0.9825
493.20 0.9828
493.30 0.983
493.40 0.9833
493.50 0.9835
493.60 0.9838
493.70 0.9841
493.80 0.9843
493.90 0.9846
494.00 0.9848
494.10 0.9851
494.20 0.9853
494.30 0.9856
494.40 0.9859
494.50 0.9861
494.60 0.9864
494.70 0.9866
494.80 0.9869
494.90 0.9871
495.00 0.9874
495.10 0.9876
495.20 0.9879
495.30 0.9882
495.40 0.9884
495.50 0.9887
495.60 0.9889
495.70 0.9892
495.80 0.9895
495.90 0.9897
496.00 0.99
496.10 0.9902
496.20 0.9905
496.30 0.9908
496.40 0.991
496.50 0.9913
496.60 0.9915
496.70 0.9918
496.80 0.992
496.90 0.9923
497.00 0.9925
497.10 0.9928
497.20 0.993
497.30 0.9933
497.40 0.9935
497.50 0.9938
497.60 0.994
497.70 0.9943
497.80 0.9945
497.90 0.9948
498.00 0.9951
498.10 0.9953
498.20 0.9956
498.30 0.9958
498.40 0.996
498.50 0.9963
498.60 0.9965
498.70 0.9968
498.80 0.997
498.90 0.9973
499.00 0.9975
499.10 0.9978
499.20 0.998
499.30 0.9983
499.40 0.9985
499.50 0.9988
499.60 0.999
499.70 0.9993
499.80 0.9995
499.90 0.9998
500.00 1
500.10 1
500.20 1
500.30 1.001
500.40 1.001
500.50 1.001
500.60 1.001
500.70 1.002
500.80 1.002
500.90 1.002
501.00 1.002
501.10 1.003
501.20 1.003
501.30 1.003
501.40 1.003
501.50 1.004
501.60 1.004
501.70 1.004
501.80 1.004
501.90 1.005
502.00 1.005
502.10 1.005
502.20 1.005
502.30 1.006
502.40 1.006
502.50 1.006
502.60 1.006
502.70 1.007
502.80 1.007
502.90 1.007
503.00 1.007
503.10 1.008
503.20 1.008
503.30 1.008
503.40 1.008
503.50 1.008
503.60 1.009
503.70 1.009
503.80 1.009
503.90 1.009
504.00 1.01
504.10 1.01
504.20 1.01
504.30 1.01
504.40 1.011
504.50 1.011
504.60 1.011
504.70 1.011
504.80 1.012
504.90 1.012
505.00 1.012
505.10 1.012
505.20 1.012
505.30 1.013
505.40 1.013
505.50 1.013
505.60 1.013
505.70 1.014
505.80 1.014
505.90 1.014
506.00 1.014
506.10 1.015
506.20 1.015
506.30 1.015
506.40 1.015
506.50 1.016
506.60 1.016
506.70 1.016
506.80 1.016
506.90 1.016
507.00 1.017
507.10 1.017
507.20 1.017
507.30 1.017
507.40 1.018
507.50 1.018
507.60 1.018
507.70 1.018
507.80 1.019
507.90 1.019
508.00 1.019
508.10 1.019
508.20 1.02
508.30 1.02
508.40 1.02
508.50 1.02
508.60 1.02
508.70 1.021
508.80 1.021
508.90 1.021
509.00 1.021
509.10 1.022
509.20 1.022
509.30 1.022
509.40 1.022
509.50 1.022
509.60 1.023
509.70 1.023
509.80 1.023
509.90 1.023
510.00 1.024
510.10 1.024
510.20 1.024
510.30 1.024
510.40 1.024
510.50 1.025
510.60 1.025
510.70 1.025
510.80 1.025
510.90 1.026
511.00 1.026
511.10 1.026
511.20 1.026
511.30 1.026
511.40 1.027
511.50 1.027
511.60 1.027
511.70 1.027
511.80 1.028
511.90 1.028
512.00 1.028
512.10 1.028
512.20 1.028
512.30 1.029
512.40 1.029
512.50 1.029
512.60 1.029
512.70 1.03
512.80 1.03
512.90 1.03
513.00 1.03
513.10 1.03
513.20 1.031
513.30 1.031
513.40 1.031
513.50 1.031
513.60 1.032
513.70 1.032
513.80 1.032
513.90 1.032
514.00 1.032
514.10 1.033
514.20 1.033
514.30 1.033
514.40 1.033
514.50 1.033
514.60 1.034
514.70 1.034
514.80 1.034
514.90 1.034
515.00 1.035
515.10 1.035
515.20 1.035
515.30 1.035
515.40 1.035
515.50 1.036
515.60 1.036
515.70 1.036
515.80 1.036
515.90 1.036
516.00 1.037
516.10 1.037
516.20 1.037
516.30 1.037
516.40 1.038
516.50 1.038
516.60 1.038
516.70 1.038
516.80 1.038
516.90 1.039
517.00 1.039
517.10 1.039
517.20 1.039
517.30 1.039
517.40 1.04
517.50 1.04
517.60 1.04
517.70 1.04
517.80 1.04
517.90 1.041
518.00 1.041
518.10 1.041
518.20 1.041
518.30 1.041
518.40 1.042
518.50 1.042
518.60 1.042
518.70 1.042
518.80 1.043
518.90 1.043
519.00 1.043
519.10 1.043
519.20 1.043
519.30 1.044
519.40 1.044
519.50 1.044
519.60 1.044
519.70 1.044
519.80 1.045
519.90 1.045
520.00 1.045
520.10 1.045
520.20 1.045
520.30 1.046
520.40 1.046
520.50 1.046
520.60 1.046
520.70 1.046
520.80 1.047
520.90 1.047
521.00 1.047
521.10 1.047
521.20 1.047
521.30 1.048
521.40 1.048
521.50 1.048
521.60 1.048
521.70 1.048
521.80 1.049
521.90 1.049
522.00 1.049
522.10 1.049
522.20 1.049
522.30 1.05
522.40 1.05
522.50 1.05
522.60 1.05
522.70 1.05
522.80 1.051
522.90 1.051
523.00 1.051
523.10 1.051
523.20 1.051
523.30 1.052
523.40 1.052
523.50 1.052
523.60 1.052
523.70 1.052
523.80 1.053
523.90 1.053
524.00 1.053
524.10 1.053
524.20 1.053
524.30 1.054
524.40 1.054
524.50 1.054
524.60 1.054
524.70 1.054
524.80 1.055
524.90 1.055
525.00 1.055
525.10 1.055
525.20 1.055
525.30 1.056
525.40 1.056
525.50 1.056
525.60 1.056
525.70 1.056
525.80 1.056
525.90 1.057
526.00 1.057
526.10 1.057
526.20 1.057
526.30 1.057
526.40 1.058
526.50 1.058
526.60 1.058
526.70 1.058
526.80 1.058
526.90 1.059
527.00 1.059
527.10 1.059
527.20 1.059
527.30 1.059
527.40 1.06
527.50 1.06
527.60 1.06
527.70 1.06
527.80 1.06
527.90 1.06
528.00 1.061
528.10 1.061
528.20 1.061
528.30 1.061
528.40 1.061
528.50 1.062
528.60 1.062
528.70 1.062
528.80 1.062
528.90 1.062
529.00 1.063
529.10 1.063
529.20 1.063
529.30 1.063
529.40 1.063
529.50 1.063
529.60 1.064
529.70 1.064
529.80 1.064
529.90 1.064
530.00 1.064
530.10 1.065
530.20 1.065
530.30 1.065
530.40 1.065
530.50 1.065
530.60 1.065
530.70 1.066
530.80 1.066
530.90 1.066
531.00 1.066
531.10 1.066
531.20 1.067
531.30 1.067
531.40 1.067
531.50 1.067
531.60 1.067
531.70 1.067
531.80 1.068
531.90 1.068
532.00 1.068
532.10 1.068
532.20 1.068
532.30 1.069
532.40 1.069
532.50 1.069
532.60 1.069
532.70 1.069
532.80 1.069
532.90 1.07
533.00 1.07
533.10 1.07
533.20 1.07
533.30 1.07
533.40 1.071
533.50 1.071
533.60 1.071
533.70 1.071
533.80 1.071
533.90 1.071
534.00 1.072
534.10 1.072
534.20 1.072
534.30 1.072
534.40 1.072
534.50 1.072
534.60 1.073
534.70 1.073
534.80 1.073
534.90 1.073
535.00 1.073
535.10 1.073
535.20 1.074
535.30 1.074
535.40 1.074
535.50 1.074
535.60 1.074
535.70 1.075
535.80 1.075
535.90 1.075
536.00 1.075
536.10 1.075
536.20 1.075
536.30 1.076
536.40 1.076
536.50 1.076
536.60 1.076
536.70 1.076
536.80 1.076
536.90 1.077
537.00 1.077
537.10 1.077
537.20 1.077
537.30 1.077
537.40 1.077
537.50 1.078
537.60 1.078
537.70 1.078
537.80 1.078
537.90 1.078
538.00 1.078
538.10 1.079
538.20 1.079
538.30 1.079
538.40 1.079
538.50 1.079
538.60 1.079
538.70 1.08
538.80 1.08
538.90 1.08
539.00 1.08
539.10 1.08
539.20 1.08
539.30 1.081
539.40 1.081
539.50 1.081
539.60 1.081
539.70 1.081
539.80 1.081
539.90 1.082
540.00 1.082
540.10 1.082
540.20 1.082
540.30 1.082
540.40 1.082
540.50 1.083
540.60 1.083
540.70 1.083
540.80 1.083
540.90 1.083
541.00 1.083
541.10 1.083
541.20 1.084
541.30 1.084
541.40 1.084
541.50 1.084
541.60 1.084
541.70 1.084
541.80 1.085
541.90 1.085
542.00 1.085
542.10 1.085
542.20 1.085
542.30 1.085
542.40 1.086
542.50 1.086
542.60 1.086
542.70 1.086
542.80 1.086
542.90 1.086
543.00 1.087
543.10 1.087
543.20 1.087
543.30 1.087
543.40 1.087
543.50 1.087
543.60 1.087
543.70 1.088
543.80 1.088
543.90 1.088
544.00 1.088
544.10 1.088
544.20 1.088
544.30 1.089
544.40 1.089
544.50 1.089
544.60 1.089
544.70 1.089
544.80 1.089
544.90 1.089
545.00 1.09
545.10 1.09
545.20 1.09
545.30 1.09
545.40 1.09
545.50 1.09
545.60 1.091
545.70 1.091
545.80 1.091
545.90 1.091
546.00 1.091
546.10 1.091
546.20 1.091
546.30 1.092
546.40 1.092
546.50 1.092
546.60 1.092
546.70 1.092
546.80 1.092
546.90 1.093
547.00 1.093
547.10 1.093
547.20 1.093
547.30 1.093
547.40 1.093
547.50 1.093
547.60 1.094
547.70 1.094
547.80 1.094
547.90 1.094
548.00 1.094
548.10 1.094
548.20 1.094
548.30 1.095
548.40 1.095
548.50 1.095
548.60 1.095
548.70 1.095
548.80 1.095
548.90 1.095
549.00 1.096
549.10 1.096
549.20 1.096
549.30 1.096
549.40 1.096
549.50 1.096
549.60 1.096
549.70 1.097
549.80 1.097
549.90 1.097
550.00 1.097
550.10 1.097
550.20 1.097
550.30 1.097
550.40 1.098
550.50 1.098
550.60 1.098
550.70 1.098
550.80 1.098
550.90 1.098
551.00 1.098
551.10 1.099
551.20 1.099
551.30 1.099
551.40 1.099
551.50 1.099
551.60 1.099
551.70 1.099
551.80 1.1
551.90 1.1
552.00 1.1
552.10 1.1
552.20 1.1
552.30 1.1
552.40 1.1
552.50 1.101
552.60 1.101
552.70 1.101
552.80 1.101
552.90 1.101
553.00 1.101
553.10 1.101
553.20 1.102
553.30 1.102
553.40 1.102
553.50 1.102
553.60 1.102
553.70 1.102
553.80 1.102
553.90 1.103
554.00 1.103
554.10 1.103
554.20 1.103
554.30 1.103
554.40 1.103
554.50 1.103
554.60 1.103
554.70 1.104
554.80 1.104
554.90 1.104
555.00 1.104
555.10 1.104
555.20 1.104
555.30 1.104
555.40 1.104
555.50 1.105
555.60 1.105
555.70 1.105
555.80 1.105
555.90 1.105
556.00 1.105
556.10 1.105
556.20 1.106
556.30 1.106
556.40 1.106
556.50 1.106
556.60 1.106
556.70 1.106
556.80 1.106
556.90 1.106
557.00 1.107
557.10 1.107
557.20 1.107
557.30 1.107
557.40 1.107
557.50 1.107
557.60 1.107
557.70 1.108
557.80 1.108
557.90 1.108
558.00 1.108
558.10 1.108
558.20 1.108
558.30 1.108
558.40 1.108
558.50 1.109
558.60 1.109
558.70 1.109
558.80 1.109
558.90 1.109
559.00 1.109
559.10 1.109
559.20 1.109
559.30 1.11
559.40 1.11
559.50 1.11
559.60 1.11
559.70 1.11
559.80 1.11
559.90 1.11
560.00 1.11
560.10 1.111
560.20 1.111
560.30 1.111
560.40 1.111
560.50 1.111
560.60 1.111
560.70 1.111
560.80 1.111
560.90 1.112
561.00 1.112
561.10 1.112
561.20 1.112
561.30 1.112
561.40 1.112
561.50 1.112
561.60 1.112
561.70 1.112
561.80 1.113
561.90 1.113
562.00 1.113
562.10 1.113
562.20 1.113
562.30 1.113
562.40 1.113
562.50 1.113
562.60 1.114
562.70 1.114
562.80 1.114
562.90 1.114
563.00 1.114
563.10 1.114
563.20 1.114
563.30 1.114
563.40 1.115
563.50 1.115
563.60 1.115
563.70 1.115
563.80 1.115
563.90 1.115
564.00 1.115
564.10 1.115
564.20 1.115
564.30 1.116
564.40 1.116
564.50 1.116
564.60 1.116
564.70 1.116
564.80 1.116
564.90 1.116
565.00 1.116
565.10 1.117
565.20 1.117
565.30 1.117
565.40 1.117
565.50 1.117
565.60 1.117
565.70 1.117
565.80 1.117
565.90 1.117
566.00 1.118
566.10 1.118
566.20 1.118
566.30 1.118
566.40 1.118
566.50 1.118
566.60 1.118
566.70 1.118
566.80 1.118
566.90 1.119
567.00 1.119
567.10 1.119
567.20 1.119
567.30 1.119
567.40 1.119
567.50 1.119
567.60 1.119
567.70 1.119
567.80 1.12
567.90 1.12
568.00 1.12
568.10 1.12
568.20 1.12
568.30 1.12
568.40 1.12
568.50 1.12
568.60 1.12
568.70 1.121
568.80 1.121
568.90 1.121
569.00 1.121
569.10 1.121
569.20 1.121
569.30 1.121
569.40 1.121
569.50 1.121
569.60 1.122
569.70 1.122
569.80 1.122
569.90 1.122
570.00 1.122
570.10 1.122
570.20 1.122
570.30 1.122
570.40 1.122
570.50 1.122
570.60 1.123
570.70 1.123
570.80 1.123
570.90 1.123
571.00 1.123
571.10 1.123
571.20 1.123
571.30 1.123
571.40 1.123
571.50 1.124
571.60 1.124
571.70 1.124
571.80 1.124
571.90 1.124
572.00 1.124
572.10 1.124
572.20 1.124
572.30 1.124
572.40 1.124
572.50 1.125
572.60 1.125
572.70 1.125
572.80 1.125
572.90 1.125
573.00 1.125
573.10 1.125
573.20 1.125
573.30 1.125
573.40 1.125
573.50 1.126
573.60 1.126
573.70 1.126
573.80 1.126
573.90 1.126
574.00 1.126
574.10 1.126
574.20 1.126
574.30 1.126
574.40 1.126
574.50 1.127
574.60 1.127
574.70 1.127
574.80 1.127
574.90 1.127
575.00 1.127
575.10 1.127
575.20 1.127
575.30 1.127
575.40 1.127
575.50 1.128
575.60 1.128
575.70 1.128
575.80 1.128
575.90 1.128
576.00 1.128
576.10 1.128
576.20 1.128
576.30 1.128
576.40 1.128
576.50 1.128
576.60 1.129
576.70 1.129
576.80 1.129
576.90 1.129
577.00 1.129
577.10 1.129
577.20 1.129
577.30 1.129
577.40 1.129
577.50 1.129
577.60 1.13
577.70 1.13
577.80 1.13
577.90 1.13
578.00 1.13
578.10 1.13
578.20 1.13
578.30 1.13
578.40 1.13
578.50 1.13
578.60 1.13
578.70 1.131
578.80 1.131
578.90 1.131
579.00 1.131
579.10 1.131
579.20 1.131
579.30 1.131
579.40 1.131
579.50 1.131
579.60 1.131
579.70 1.131
579.80 1.131
579.90 1.132
580.00 1.132
580.10 1.132
580.20 1.132
580.30 1.132
580.40 1.132
580.50 1.132
580.60 1.132
580.70 1.132
580.80 1.132
580.90 1.132
581.00 1.133
581.10 1.133
581.20 1.133
581.30 1.133
581.40 1.133
581.50 1.133
581.60 1.133
581.70 1.133
581.80 1.133
581.90 1.133
582.00 1.133
582.10 1.134
582.20 1.134
582.30 1.134
582.40 1.134
582.50 1.134
582.60 1.134
582.70 1.134
582.80 1.134
582.90 1.134
583.00 1.134
583.10 1.134
583.20 1.134
583.30 1.134
583.40 1.135
583.50 1.135
583.60 1.135
583.70 1.135
583.80 1.135
583.90 1.135
584.00 1.135
584.10 1.135
584.20 1.135
584.30 1.135
584.40 1.135
584.50 1.136
584.60 1.136
584.70 1.136
584.80 1.136
584.90 1.136
585.00 1.136
585.10 1.136
585.20 1.136
585.30 1.136
585.40 1.136
585.50 1.136
585.60 1.136
585.70 1.136
585.80 1.137
585.90 1.137
586.00 1.137
586.10 1.137
586.20 1.137
586.30 1.137
586.40 1.137
586.50 1.137
586.60 1.137
586.70 1.137
586.80 1.137
586.90 1.137
587.00 1.137
587.10 1.138
587.20 1.138
587.30 1.138
587.40 1.138
587.50 1.138
587.60 1.138
587.70 1.138
587.80 1.138
587.90 1.138
588.00 1.138
588.10 1.138
588.20 1.138
588.30 1.138
588.40 1.139
588.50 1.139
588.60 1.139
588.70 1.139
588.80 1.139
588.90 1.139
589.00 1.139
589.10 1.139
589.20 1.139
589.30 1.139
589.40 1.139
589.50 1.139
589.60 1.139
589.70 1.139
589.80 1.14
589.90 1.14
590.00 1.14
590.10 1.14
590.20 1.14
590.30 1.14
590.40 1.14
590.50 1.14
590.60 1.14
590.70 1.14
590.80 1.14
590.90 1.14
591.00 1.14
591.10 1.14
591.20 1.141
591.30 1.141
591.40 1.141
591.50 1.141
591.60 1.141
591.70 1.141
591.80 1.141
591.90 1.141
592.00 1.141
592.10 1.141
592.20 1.141
592.30 1.141
592.40 1.141
592.50 1.141
592.60 1.142
592.70 1.142
592.80 1.142
592.90 1.142
593.00 1.142
593.10 1.142
593.20 1.142
593.30 1.142
593.40 1.142
593.50 1.142
593.60 1.142
593.70 1.142
593.80 1.142
593.90 1.142
594.00 1.142
594.10 1.142
594.20 1.143
594.30 1.143
594.40 1.143
594.50 1.143
594.60 1.143
594.70 1.143
594.80 1.143
594.90 1.143
595.00 1.143
595.10 1.143
595.20 1.143
595.30 1.143
595.40 1.143
595.50 1.143
595.60 1.143
595.70 1.144
595.80 1.144
595.90 1.144
596.00 1.144
596.10 1.144
596.20 1.144
596.30 1.144
596.40 1.144
596.50 1.144
596.60 1.144
596.70 1.144
596.80 1.144
596.90 1.144
597.00 1.144
597.10 1.144
597.20 1.144
597.30 1.145
597.40 1.145
597.50 1.145
597.60 1.145
597.70 1.145
597.80 1.145
597.90 1.145
598.00 1.145
598.10 1.145
598.20 1.145
598.30 1.145
598.40 1.145
598.50 1.145
598.60 1.145
598.70 1.145
598.80 1.145
598.90 1.145
599.00 1.146
599.10 1.146
599.20 1.146
599.30 1.146
599.40 1.146
599.50 1.146
599.60 1.146
599.70 1.146
599.80 1.146
599.90 1.146
600.00 1.146
600.10 1.146
600.20 1.146
600.30 1.146
600.40 1.146
600.50 1.146
600.60 1.146
600.70 1.146
600.80 1.146
600.90 1.147
601.00 1.147
601.10 1.147
601.20 1.147
601.30 1.147
601.40 1.147
601.50 1.147
601.60 1.147
601.70 1.147
601.80 1.147
601.90 1.147
602.00 1.147
602.10 1.147
602.20 1.147
602.30 1.147
602.40 1.147
602.50 1.147
602.60 1.147
602.70 1.148
602.80 1.148
602.90 1.148
603.00 1.148
603.10 1.148
603.20 1.148
603.30 1.148
603.40 1.148
603.50 1.148
603.60 1.148
603.70 1.148
603.80 1.148
603.90 1.148
604.00 1.148
604.10 1.148
604.20 1.148
604.30 1.148
604.40 1.148
604.50 1.148
604.60 1.148
604.70 1.148
604.80 1.149
604.90 1.149
605.00 1.149
605.10 1.149
605.20 1.149
605.30 1.149
605.40 1.149
605.50 1.149
605.60 1.149
605.70 1.149
605.80 1.149
605.90 1.149
606.00 1.149
606.10 1.149
606.20 1.149
606.30 1.149
606.40 1.149
606.50 1.149
606.60 1.149
606.70 1.149
606.80 1.149
606.90 1.15
607.00 1.15
607.10 1.15
607.20 1.15
607.30 1.15
607.40 1.15
607.50 1.15
607.60 1.15
607.70 1.15
607.80 1.15
607.90 1.15
608.00 1.15
608.10 1.15
608.20 1.15
608.30 1.15
608.40 1.15
608.50 1.15
608.60 1.15
608.70 1.15
608.80 1.15
608.90 1.15
609.00 1.15
609.10 1.15
609.20 1.151
609.30 1.151
609.40 1.151
609.50 1.151
609.60 1.151
609.70 1.151
609.80 1.151
609.90 1.151
610.00 1.151
610.10 1.151
610.20 1.151
610.30 1.151
610.40 1.151
610.50 1.151
610.60 1.151
610.70 1.151
610.80 1.151
610.90 1.151
611.00 1.151
611.10 1.151
611.20 1.151
611.30 1.151
611.40 1.151
611.50 1.151
611.60 1.151
611.70 1.152
611.80 1.152
611.90 1.152
612.00 1.152
612.10 1.152
612.20 1.152
612.30 1.152
612.40 1.152
612.50 1.152
612.60 1.152
612.70 1.152
612.80 1.152
612.90 1.152
613.00 1.152
613.10 1.152
613.20 1.152
613.30 1.152
613.40 1.152
613.50 1.152
613.60 1.152
613.70 1.152
613.80 1.152
613.90 1.152
614.00 1.152
614.10 1.152
614.20 1.152
614.30 1.152
614.40 1.152
614.50 1.153
614.60 1.153
614.70 1.153
614.80 1.153
614.90 1.153
615.00 1.153
615.10 1.153
615.20 1.153
615.30 1.153
615.40 1.153
615.50 1.153
615.60 1.153
615.70 1.153
615.80 1.153
615.90 1.153
616.00 1.153
616.10 1.153
616.20 1.153
616.30 1.153
616.40 1.153
616.50 1.153
616.60 1.153
616.70 1.153
616.80 1.153
616.90 1.153
617.00 1.153
617.10 1.153
617.20 1.153
617.30 1.153
617.40 1.153
617.50 1.153
617.60 1.154
617.70 1.154
617.80 1.154
617.90 1.154
618.00 1.154
618.10 1.154
618.20 1.154
618.30 1.154
618.40 1.154
618.50 1.154
618.60 1.154
618.70 1.154
618.80 1.154
618.90 1.154
619.00 1.154
619.10 1.154
619.20 1.154
619.30 1.154
619.40 1.154
619.50 1.154
619.60 1.154
619.70 1.154
619.80 1.154
619.90 1.154
620.00 1.154
620.10 1.154
620.20 1.154
620.30 1.154
620.40 1.154
620.50 1.154
620.60 1.154
620.70 1.154
620.80 1.154
620.90 1.154
621.00 1.154
621.10 1.154
621.20 1.154
621.30 1.154
621.40 1.155
621.50 1.155
621.60 1.155
621.70 1.155
621.80 1.155
621.90 1.155
622.00 1.155
622.10 1.155
622.20 1.155
622.30 1.155
622.40 1.155
622.50 1.155
622.60 1.155
622.70 1.155
622.80 1.155
622.90 1.155
623.00 1.155
623.10 1.155
623.20 1.155
623.30 1.155
623.40 1.155
623.50 1.155
623.60 1.155
623.70 1.155
623.80 1.155
623.90 1.155
624.00 1.155
624.10 1.155
624.20 1.155
624.30 1.155
624.40 1.155
624.50 1.155
624.60 1.155
624.70 1.155
624.80 1.155
624.90 1.155
625.00 1.155
625.10 1.155
625.20 1.155
625.30 1.155
625.40 1.155
625.50 1.155
625.60 1.155
625.70 1.155
625.80 1.155
625.90 1.155
626.00 1.155
626.10 1.155
626.20 1.155
626.30 1.156
626.40 1.156
626.50 1.156
626.60 1.156
626.70 1.156
626.80 1.156
626.90 1.156
627.00 1.156
627.10 1.156
627.20 1.156
627.30 1.156
627.40 1.156
627.50 1.156
627.60 1.156
627.70 1.156
627.80 1.156
627.90 1.156
628.00 1.156
628.10 1.156
628.20 1.156
628.30 1.156
628.40 1.156
628.50 1.156
628.60 1.156
628.70 1.156
628.80 1.156
628.90 1.156
629.00 1.156
629.10 1.156
629.20 1.156
629.30 1.156
629.40 1.156
629.50 1.156
629.60 1.156
629.70 1.156
629.80 1.156
629.90 1.156
630.00 1.156
630.10 1.156
630.20 1.156
630.30 1.156
630.40 1.156
630.50 1.156
630.60 1.156
630.70 1.156
630.80 1.156
630.90 1.156
631.00 1.156
631.10 1.156
631.20 1.156
631.30 1.156
631.40 1.156
631.50 1.156
631.60 1.156
631.70 1.156
631.80 1.156
631.90 1.156
632.00 1.156
632.10 1.156
632.20 1.156
632.30 1.156
632.40 1.156
632.50 1.156
632.60 1.156
632.70 1.156
632.80 1.156
632.90 1.156
633.00 1.156
633.10 1.156
633.20 1.156
633.30 1.156
633.40 1.156
633.50 1.156
633.60 1.156
633.70 1.156
633.80 1.156
633.90 1.156
634.00 1.156
634.10 1.156
634.20 1.156
634.30 1.156
634.40 1.156
634.50 1.157
634.60 1.157
634.70 1.157
634.80 1.157
634.90 1.157
635.00 1.157
635.10 1.157
635.20 1.157
635.30 1.157
635.40 1.157
635.50 1.157
635.60 1.157
635.70 1.157
635.80 1.157
635.90 1.157
636.00 1.157
636.10 1.157
636.20 1.157
636.30 1.157
636.40 1.157
636.50 1.157
636.60 1.157
636.70 1.157
636.80 1.157
636.90 1.157
637.00 1.157
637.10 1.157
637.20 1.157
637.30 1.157
637.40 1.157
637.50 1.157
637.60 1.157
637.70 1.157
637.80 1.157
637.90 1.157
638.00 1.157
638.10 1.157
638.20 1.157
638.30 1.157
638.40 1.157
638.50 1.157
638.60 1.157
638.70 1.157
638.80 1.157
638.90 1.157
639.00 1.157
639.10 1.157
639.20 1.157
639.30 1.157
639.40 1.157
639.50 1.157
639.60 1.157
639.70 1.157
639.80 1.157
639.90 1.157
640.00 1.157
640.10 1.157
640.20 1.157
640.30 1.157
640.40 1.157
640.50 1.157
640.60 1.157
640.70 1.157
640.80 1.157
640.90 1.157
641.00 1.157
641.10 1.157
641.20 1.157
641.30 1.157
641.40 1.157
641.50 1.157
641.60 1.157
641.70 1.157
641.80 1.157
641.90 1.157
642.00 1.157
642.10 1.157
642.20 1.157
642.30 1.157
642.40 1.157
642.50 1.157
642.60 1.157
642.70 1.157
642.80 1.157
642.90 1.157
643.00 1.157
643.10 1.157
643.20 1.157
643.30 1.157
643.40 1.157
643.50 1.157
643.60 1.157
643.70 1.157
643.80 1.157
643.90 1.157
644.00 1.157
644.10 1.157
644.20 1.157
644.30 1.157
644.40 1.156
644.50 1.156
644.60 1.156
644.70 1.156
644.80 1.156
644.90 1.156
645.00 1.156
645.10 1.156
645.20 1.156
645.30 1.156
645.40 1.156
645.50 1.156
645.60 1.156
645.70 1.156
645.80 1.156
645.90 1.156
646.00 1.156
646.10 1.156
646.20 1.156
646.30 1.156
646.40 1.156
646.50 1.156
646.60 1.156
646.70 1.156
646.80 1.156
646.90 1.156
647.00 1.156
647.10 1.156
647.20 1.156
647.30 1.156
647.40 1.156
647.50 1.156
647.60 1.156
647.70 1.156
647.80 1.156
647.90 1.156
648.00 1.156
648.10 1.156
648.20 1.156
648.30 1.156
648.40 1.156
648.50 1.156
648.60 1.156
648.70 1.156
648.80 1.156
648.90 1.156
649.00 1.156
649.10 1.156
649.20 1.156
649.30 1.156
649.40 1.156
649.50 1.156
649.60 1.156
649.70 1.156
649.80 1.156
649.90 1.156
650.00 1.156
650.10 1.156
650.20 1.156
650.30 1.156
650.40 1.156
650.50 1.156
650.60 1.156
650.70 1.156
650.80 1.156
650.90 1.156
651.00 1.156
651.10 1.156
651.20 1.156
651.30 1.156
651.40 1.156
651.50 1.156
651.60 1.156
651.70 1.156
651.80 1.156
651.90 1.156
652.00 1.156
652.10 1.156
652.20 1.156
652.30 1.156
652.40 1.156
652.50 1.156
652.60 1.156
652.70 1.156
652.80 1.156
652.90 1.155
653.00 1.155
653.10 1.155
653.20 1.155
653.30 1.155
653.40 1.155
653.50 1.155
653.60 1.155
653.70 1.155
653.80 1.155
653.90 1.155
654.00 1.155
654.10 1.155
654.20 1.155
654.30 1.155
654.40 1.155
654.50 1.155
654.60 1.155
654.70 1.155
654.80 1.155
654.90 1.155
655.00 1.155
655.10 1.155
655.20 1.155
655.30 1.155
655.40 1.155
655.50 1.155
655.60 1.155
655.70 1.155
655.80 1.155
655.90 1.155
656.00 1.155
656.10 1.154
656.20 1.154
656.30 1.154
656.40 1.154
656.50 1.154
656.60 1.154
656.70 1.154
656.80 1.154
656.90 1.154
657.00 1.154
657.10 1.155
657.20 1.154
657.30 1.154
657.40 1.154
657.50 1.154
657.60 1.154
657.70 1.154
657.80 1.154
657.90 1.154
658.00 1.154
658.10 1.154
658.20 1.154
658.30 1.154
658.40 1.154
658.50 1.154
658.60 1.154
658.70 1.154
658.80 1.154
658.90 1.154
659.00 1.154
659.10 1.154
659.20 1.154
659.30 1.154
659.40 1.154
659.50 1.154
659.60 1.154
659.70 1.154
659.80 1.154
659.90 1.154
660.00 1.154
660.10 1.154
660.20 1.154
660.30 1.154
660.40 1.154
660.50 1.154
660.60 1.154
660.70 1.154
660.80 1.154
660.90 1.154
661.00 1.154
661.10 1.154
661.20 1.154
661.30 1.154
661.40 1.154
661.50 1.154
661.60 1.154
661.70 1.154
661.80 1.154
661.90 1.154
662.00 1.154
662.10 1.153
662.20 1.153
662.30 1.153
662.40 1.153
662.50 1.153
662.60 1.153
662.70 1.153
662.80 1.153
662.90 1.153
663.00 1.153
663.10 1.153
663.20 1.153
663.30 1.153
663.40 1.153
663.50 1.153
663.60 1.153
663.70 1.153
663.80 1.153
663.90 1.153
664.00 1.153
664.10 1.153
664.20 1.153
664.30 1.153
664.40 1.153
664.50 1.153
664.60 1.153
664.70 1.153
664.80 1.153
664.90 1.153
665.00 1.153
665.10 1.153
665.20 1.153
665.30 1.153
665.40 1.153
665.50 1.153
665.60 1.152
665.70 1.152
665.80 1.152
665.90 1.152
666.00 1.152
666.10 1.152
666.20 1.152
666.30 1.152
666.40 1.152
666.50 1.152
666.60 1.152
666.70 1.152
666.80 1.152
666.90 1.152
667.00 1.152
667.10 1.152
667.20 1.152
667.30 1.152
667.40 1.152
667.50 1.152
667.60 1.152
667.70 1.152
667.80 1.152
667.90 1.152
668.00 1.152
668.10 1.152
668.20 1.152
668.30 1.152
668.40 1.152
668.50 1.152
668.60 1.152
668.70 1.152
668.80 1.151
668.90 1.151
669.00 1.151
669.10 1.151
669.20 1.151
669.30 1.151
669.40 1.151
669.50 1.151
669.60 1.151
669.70 1.151
669.80 1.151
669.90 1.151
670.00 1.151
670.10 1.151
670.20 1.151
670.30 1.151
670.40 1.151
670.50 1.151
670.60 1.151
670.70 1.151
670.80 1.151
670.90 1.151
671.00 1.151
671.10 1.151
671.20 1.151
671.30 1.151
671.40 1.151
671.50 1.15
671.60 1.15
671.70 1.15
671.80 1.15
671.90 1.15
672.00 1.15
672.10 1.15
672.20 1.15
672.30 1.15
672.40 1.15
672.50 1.15
672.60 1.15
672.70 1.15
672.80 1.15
672.90 1.15
673.00 1.15
673.10 1.15
673.20 1.15
673.30 1.15
673.40 1.15
673.50 1.15
673.60 1.15
673.70 1.15
673.80 1.15
673.90 1.15
674.00 1.15
674.10 1.15
674.20 1.149
674.30 1.149
674.40 1.149
674.50 1.149
674.60 1.149
674.70 1.149
674.80 1.149
674.90 1.149
675.00 1.149
675.10 1.149
675.20 1.149
675.30 1.149
675.40 1.149
675.50 1.149
675.60 1.149
675.70 1.149
675.80 1.149
675.90 1.149
676.00 1.149
676.10 1.149
676.20 1.149
676.30 1.149
676.40 1.149
676.50 1.149
676.60 1.148
676.70 1.148
676.80 1.148
676.90 1.148
677.00 1.148
677.10 1.148
677.20 1.148
677.30 1.148
677.40 1.148
677.50 1.148
677.60 1.148
677.70 1.148
677.80 1.148
677.90 1.148
678.00 1.148
678.10 1.148
678.20 1.148
678.30 1.148
678.40 1.148
678.50 1.148
678.60 1.148
678.70 1.148
678.80 1.148
678.90 1.147
679.00 1.147
679.10 1.147
679.20 1.147
679.30 1.147
679.40 1.147
679.50 1.147
679.60 1.147
679.70 1.147
679.80 1.147
679.90 1.147
680.00 1.147
680.10 1.147
680.20 1.147
680.30 1.147
680.40 1.147
680.50 1.147
680.60 1.147
680.70 1.147
680.80 1.147
680.90 1.147
681.00 1.147
681.10 1.146
681.20 1.146
681.30 1.146
681.40 1.146
681.50 1.146
681.60 1.146
681.70 1.146
681.80 1.146
681.90 1.146
682.00 1.146
682.10 1.146
682.20 1.146
682.30 1.146
682.40 1.146
682.50 1.146
682.60 1.146
682.70 1.146
682.80 1.146
682.90 1.146
683.00 1.146
683.10 1.146
683.20 1.145
683.30 1.145
683.40 1.145
683.50 1.145
683.60 1.145
683.70 1.145
683.80 1.145
683.90 1.145
684.00 1.145
684.10 1.145
684.20 1.145
684.30 1.145
684.40 1.145
684.50 1.145
684.60 1.145
684.70 1.145
684.80 1.145
684.90 1.145
685.00 1.145
685.10 1.145
685.20 1.144
685.30 1.144
685.40 1.144
685.50 1.144
685.60 1.144
685.70 1.144
685.80 1.144
685.90 1.144
686.00 1.144
686.10 1.144
686.20 1.144
686.30 1.144
686.40 1.144
686.50 1.144
686.60 1.144
686.70 1.144
686.80 1.144
686.90 1.144
687.00 1.144
687.10 1.143
687.20 1.143
687.30 1.143
687.40 1.143
687.50 1.143
687.60 1.143
687.70 1.143
687.80 1.143
687.90 1.143
688.00 1.143
688.10 1.143
688.20 1.143
688.30 1.143
688.40 1.143
688.50 1.143
688.60 1.143
688.70 1.143
688.80 1.143
688.90 1.143
689.00 1.142
689.10 1.142
689.20 1.142
689.30 1.142
689.40 1.142
689.50 1.142
689.60 1.142
689.70 1.142
689.80 1.142
689.90 1.142
690.00 1.142
690.10 1.142
690.20 1.142
690.30 1.142
690.40 1.142
690.50 1.142
690.60 1.142
690.70 1.142
690.80 1.141
690.90 1.141
691.00 1.141
691.10 1.141
691.20 1.141
691.30 1.141
691.40 1.141
691.50 1.141
691.60 1.141
691.70 1.141
691.80 1.141
691.90 1.141
692.00 1.141
692.10 1.141
692.20 1.141
692.30 1.141
692.40 1.141
692.50 1.14
692.60 1.14
692.70 1.14
692.80 1.14
692.90 1.14
693.00 1.14
693.10 1.14
693.20 1.14
693.30 1.14
693.40 1.14
693.50 1.14
693.60 1.14
693.70 1.14
693.80 1.14
693.90 1.14
694.00 1.14
694.10 1.14
694.20 1.14
694.30 1.139
694.40 1.139
694.50 1.139
694.60 1.139
694.70 1.139
694.80 1.139
694.90 1.139
695.00 1.139
695.10 1.139
695.20 1.139
695.30 1.139
695.40 1.139
695.50 1.139
695.60 1.139
695.70 1.139
695.80 1.139
695.90 1.138
696.00 1.138
696.10 1.138
696.20 1.138
696.30 1.138
696.40 1.138
696.50 1.138
696.60 1.138
696.70 1.138
696.80 1.138
696.90 1.138
697.00 1.138
697.10 1.138
697.20 1.138
697.30 1.138
697.40 1.138
697.50 1.137
697.60 1.137
697.70 1.137
697.80 1.137
697.90 1.137
698.00 1.137
698.10 1.137
698.20 1.137
698.30 1.137
698.40 1.137
698.50 1.137
698.60 1.137
698.70 1.137
698.80 1.137
698.90 1.137
699.00 1.137
699.10 1.136
699.20 1.136
699.30 1.136
699.40 1.136
699.50 1.136
699.60 1.136
699.70 1.136
699.80 1.136
699.90 1.136
700.00 1.136
700.10 1.136
700.20 1.136
700.30 1.136
700.40 1.136
700.50 1.136
700.60 1.136
700.70 1.135
700.80 1.135
700.90 1.135
701.00 1.135
701.10 1.135
701.20 1.135
701.30 1.135
701.40 1.135
701.50 1.135
701.60 1.135
701.70 1.135
701.80 1.135
701.90 1.135
702.00 1.135
702.10 1.134
702.20 1.134
702.30 1.134
702.40 1.134
702.50 1.134
702.60 1.134
702.70 1.134
702.80 1.134
702.90 1.134
703.00 1.134
703.10 1.134
703.20 1.134
703.30 1.134
703.40 1.134
703.50 1.134
703.60 1.133
703.70 1.133
703.80 1.133
703.90 1.133
704.00 1.133
704.10 1.133
704.20 1.133
704.30 1.133
704.40 1.133
704.50 1.133
704.60 1.133
704.70 1.133
704.80 1.133
704.90 1.133
705.00 1.133
705.10 1.132
705.20 1.132
705.30 1.132
705.40 1.132
705.50 1.132
705.60 1.132
705.70 1.132
705.80 1.132
705.90 1.132
706.00 1.132
706.10 1.132
706.20 1.132
706.30 1.132
706.40 1.132
706.50 1.132
706.60 1.131
706.70 1.131
706.80 1.131
706.90 1.131
707.00 1.131
707.10 1.131
707.20 1.131
707.30 1.131
707.40 1.131
707.50 1.131
707.60 1.131
707.70 1.131
707.80 1.131
707.90 1.131
708.00 1.13
708.10 1.13
708.20 1.13
708.30 1.13
708.40 1.13
708.50 1.13
708.60 1.13
708.70 1.13
708.80 1.13
708.90 1.13
709.00 1.13
709.10 1.13
709.20 1.13
709.30 1.13
709.40 1.129
709.50 1.129
709.60 1.129
709.70 1.129
709.80 1.129
709.90 1.129
710.00 1.129
710.10 1.129
710.20 1.129
710.30 1.129
710.40 1.129
710.50 1.129
710.60 1.129
710.70 1.129
710.80 1.128
710.90 1.128
711.00 1.128
711.10 1.128
711.20 1.128
711.30 1.128
711.40 1.128
711.50 1.128
711.60 1.128
711.70 1.128
711.80 1.128
711.90 1.128
712.00 1.128
712.10 1.127
712.20 1.127
712.30 1.127
712.40 1.127
712.50 1.127
712.60 1.127
712.70 1.127
712.80 1.127
712.90 1.127
713.00 1.127
713.10 1.127
713.20 1.127
713.30 1.127
713.40 1.126
713.50 1.126
713.60 1.126
713.70 1.126
713.80 1.126
713.90 1.126
714.00 1.126
714.10 1.126
714.20 1.126
714.30 1.126
714.40 1.126
714.50 1.126
714.60 1.126
714.70 1.126
714.80 1.125
714.90 1.125
715.00 1.125
715.10 1.125
715.20 1.125
715.30 1.125
715.40 1.125
715.50 1.125
715.60 1.125
715.70 1.125
715.80 1.125
715.90 1.125
716.00 1.124
716.10 1.124
716.20 1.124
716.30 1.124
716.40 1.124
716.50 1.124
716.60 1.124
716.70 1.124
716.80 1.124
716.90 1.124
717.00 1.124
717.10 1.124
717.20 1.124
717.30 1.123
717.40 1.123
717.50 1.123
717.60 1.123
717.70 1.123
717.80 1.123
717.90 1.123
718.00 1.123
718.10 1.123
718.20 1.123
718.30 1.123
718.40 1.123
718.50 1.123
718.60 1.122
718.70 1.122
718.80 1.122
718.90 1.122
719.00 1.122
719.10 1.122
719.20 1.122
719.30 1.122
719.40 1.122
719.50 1.122
719.60 1.122
719.70 1.122
719.80 1.121
719.90 1.121
720.00 1.121
720.10 1.121
720.20 1.121
720.30 1.121
720.40 1.121
720.50 1.121
720.60 1.121
720.70 1.121
720.80 1.121
720.90 1.121
721.00 1.12
721.10 1.12
721.20 1.12
721.30 1.12
721.40 1.12
721.50 1.12
721.60 1.12
721.70 1.12
721.80 1.12
721.90 1.12
722.00 1.12
722.10 1.12
722.20 1.12
722.30 1.119
722.40 1.119
722.50 1.119
722.60 1.119
722.70 1.119
722.80 1.119
722.90 1.119
723.00 1.119
723.10 1.119
723.20 1.119
723.30 1.119
723.40 1.119
723.50 1.118
723.60 1.118
723.70 1.118
723.80 1.118
723.90 1.118
724.00 1.118
724.10 1.118
724.20 1.118
724.30 1.118
724.40 1.118
724.50 1.118
724.60 1.118
724.70 1.117
724.80 1.117
724.90 1.117
725.00 1.117
725.10 1.117
725.20 1.117
725.30 1.117
725.40 1.117
725.50 1.117
725.60 1.117
725.70 1.117
725.80 1.117
725.90 1.116
726.00 1.116
726.10 1.116
726.20 1.116
726.30 1.116
726.40 1.116
726.50 1.116
726.60 1.116
726.70 1.116
726.80 1.116
726.90 1.116
727.00 1.115
727.10 1.115
727.20 1.115
727.30 1.115
727.40 1.115
727.50 1.115
727.60 1.115
727.70 1.115
727.80 1.115
727.90 1.115
728.00 1.115
728.10 1.115
728.20 1.114
728.30 1.114
728.40 1.114
728.50 1.114
728.60 1.114
728.70 1.114
728.80 1.114
728.90 1.114
729.00 1.114
729.10 1.114
729.20 1.114
729.30 1.113
729.40 1.113
729.50 1.113
729.60 1.113
729.70 1.113
729.80 1.113
729.90 1.113
730.00 1.113
730.10 1.113
730.20 1.113
730.30 1.113
730.40 1.113
730.50 1.112
730.60 1.112
730.70 1.112
730.80 1.112
730.90 1.112
731.00 1.112
731.10 1.112
731.20 1.112
731.30 1.112
731.40 1.112
731.50 1.112
731.60 1.111
731.70 1.111
731.80 1.111
731.90 1.111
732.00 1.111
732.10 1.111
732.20 1.111
732.30 1.111
732.40 1.111
732.50 1.111
732.60 1.111
732.70 1.11
732.80 1.11
732.90 1.11
733.00 1.11
733.10 1.11
733.20 1.11
733.30 1.11
733.40 1.11
733.50 1.11
733.60 1.11
733.70 1.11
733.80 1.109
733.90 1.109
734.00 1.109
734.10 1.109
734.20 1.109
734.30 1.109
734.40 1.109
734.50 1.109
734.60 1.109
734.70 1.109
734.80 1.109
734.90 1.108
735.00 1.108
735.10 1.108
735.20 1.108
735.30 1.108
735.40 1.108
735.50 1.108
735.60 1.108
735.70 1.108
735.80 1.108
735.90 1.108
736.00 1.107
736.10 1.107
736.20 1.107
736.30 1.107
736.40 1.107
736.50 1.107
736.60 1.107
736.70 1.107
736.80 1.107
736.90 1.107
737.00 1.107
737.10 1.106
737.20 1.106
737.30 1.106
737.40 1.106
737.50 1.106
737.60 1.106
737.70 1.106
737.80 1.106
737.90 1.106
738.00 1.106
738.10 1.106
738.20 1.105
738.30 1.105
738.40 1.105
738.50 1.105
738.60 1.105
738.70 1.105
738.80 1.105
738.90 1.105
739.00 1.105
739.10 1.105
739.20 1.105
739.30 1.104
739.40 1.104
739.50 1.104
739.60 1.104
739.70 1.104
739.80 1.104
739.90 1.104
740.00 1.104
740.10 1.104
740.20 1.104
740.30 1.104
740.40 1.103
740.50 1.103
740.60 1.103
740.70 1.103
740.80 1.103
740.90 1.103
741.00 1.103
741.10 1.103
741.20 1.103
741.30 1.103
741.40 1.103
741.50 1.102
741.60 1.102
741.70 1.102
741.80 1.102
741.90 1.102
742.00 1.102
742.10 1.102
742.20 1.102
742.30 1.102
742.40 1.102
742.50 1.101
742.60 1.101
742.70 1.101
742.80 1.101
742.90 1.101
743.00 1.101
743.10 1.101
743.20 1.101
743.30 1.101
743.40 1.101
743.50 1.101
743.60 1.1
743.70 1.1
743.80 1.1
743.90 1.1
744.00 1.1
744.10 1.1
744.20 1.1
744.30 1.1
744.40 1.1
744.50 1.1
744.60 1.099
744.70 1.099
744.80 1.099
744.90 1.099
745.00 1.099
745.10 1.099
745.20 1.099
745.30 1.099
745.40 1.099
745.50 1.099
745.60 1.099
745.70 1.098
745.80 1.098
745.90 1.098
746.00 1.098
746.10 1.098
746.20 1.098
746.30 1.098
746.40 1.098
746.50 1.098
746.60 1.098
746.70 1.097
746.80 1.097
746.90 1.097
747.00 1.097
747.10 1.097
747.20 1.097
747.30 1.097
747.40 1.097
747.50 1.097
747.60 1.097
747.70 1.096
747.80 1.096
747.90 1.096
748.00 1.096
748.10 1.096
748.20 1.096
748.30 1.096
748.40 1.096
748.50 1.096
748.60 1.096
748.70 1.096
748.80 1.095
748.90 1.095
749.00 1.095
749.10 1.095
749.20 1.095
749.30 1.095
749.40 1.095
749.50 1.095
749.60 1.095
749.70 1.095
749.80 1.095
749.90 1.094
750.00 1.094
750.10 1.094
750.20 1.094
750.30 1.094
750.40 1.094
750.50 1.094
750.60 1.094
750.70 1.094
750.80 1.094
750.90 1.093
751.00 1.093
751.10 1.093
751.20 1.093
751.30 1.093
751.40 1.093
751.50 1.093
751.60 1.093
751.70 1.093
751.80 1.093
751.90 1.092
752.00 1.092
752.10 1.092
752.20 1.092
752.30 1.092
752.40 1.092
752.50 1.092
752.60 1.092
752.70 1.092
752.80 1.091
752.90 1.091
753.00 1.091
753.10 1.091
753.20 1.091
753.30 1.091
753.40 1.091
753.50 1.091
753.60 1.091
753.70 1.091
753.80 1.09
753.90 1.09
754.00 1.09
754.10 1.09
754.20 1.09
754.30 1.09
754.40 1.09
754.50 1.09
754.60 1.09
754.70 1.09
754.80 1.089
754.90 1.089
755.00 1.089
755.10 1.089
755.20 1.089
755.30 1.089
755.40 1.089
755.50 1.089
755.60 1.089
755.70 1.089
755.80 1.088
755.90 1.088
756.00 1.088
756.10 1.088
756.20 1.088
756.30 1.088
756.40 1.088
756.50 1.088
756.60 1.088
756.70 1.088
756.80 1.087
756.90 1.087
757.00 1.087
757.10 1.087
757.20 1.087
757.30 1.087
757.40 1.087
757.50 1.087
757.60 1.087
757.70 1.087
757.80 1.086
757.90 1.086
758.00 1.086
758.10 1.086
758.20 1.086
758.30 1.086
758.40 1.086
758.50 1.086
758.60 1.086
758.70 1.086
758.80 1.085
758.90 1.085
759.00 1.085
759.10 1.085
759.20 1.085
759.30 1.085
759.40 1.085
759.50 1.085
759.60 1.085
759.70 1.085
759.80 1.084
759.90 1.084
760.00 1.084
760.10 1.084
760.20 1.084
760.30 1.084
760.40 1.084
760.50 1.084
760.60 1.084
760.70 1.084
760.80 1.083
760.90 1.083
761.00 1.083
761.10 1.083
761.20 1.083
761.30 1.083
761.40 1.083
761.50 1.083
761.60 1.083
761.70 1.083
761.80 1.082
761.90 1.082
762.00 1.082
762.10 1.082
762.20 1.082
762.30 1.082
762.40 1.082
762.50 1.082
762.60 1.082
762.70 1.081
762.80 1.081
762.90 1.081
763.00 1.081
763.10 1.081
763.20 1.081
763.30 1.081
763.40 1.081
763.50 1.081
763.60 1.081
763.70 1.08
763.80 1.08
763.90 1.08
764.00 1.08
764.10 1.08
764.20 1.08
764.30 1.08
764.40 1.08
764.50 1.08
764.60 1.079
764.70 1.079
764.80 1.079
764.90 1.079
765.00 1.079
765.10 1.079
765.20 1.079
765.30 1.079
765.40 1.079
765.50 1.079
765.60 1.078
765.70 1.078
765.80 1.078
765.90 1.078
766.00 1.078
766.10 1.078
766.20 1.078
766.30 1.078
766.40 1.078
766.50 1.078
766.60 1.077
766.70 1.077
766.80 1.077
766.90 1.077
767.00 1.077
767.10 1.077
767.20 1.077
767.30 1.077
767.40 1.077
767.50 1.076
767.60 1.076
767.70 1.076
767.80 1.076
767.90 1.076
768.00 1.076
768.10 1.076
768.20 1.076
768.30 1.076
768.40 1.076
768.50 1.075
768.60 1.075
768.70 1.075
768.80 1.075
768.90 1.075
769.00 1.075
769.10 1.075
769.20 1.075
769.30 1.075
769.40 1.075
769.50 1.074
769.60 1.074
769.70 1.074
769.80 1.074
769.90 1.074
770.00 1.074
770.10 1.074
770.20 1.074
770.30 1.074
770.40 1.073
770.50 1.073
770.60 1.073
770.70 1.073
770.80 1.073
770.90 1.073
771.00 1.073
771.10 1.073
771.20 1.073
771.30 1.072
771.40 1.072
771.50 1.072
771.60 1.072
771.70 1.072
771.80 1.072
771.90 1.072
772.00 1.072
772.10 1.072
772.20 1.071
772.30 1.071
772.40 1.071
772.50 1.071
772.60 1.071
772.70 1.071
772.80 1.071
772.90 1.071
773.00 1.071
773.10 1.071
773.20 1.07
773.30 1.07
773.40 1.07
773.50 1.07
773.60 1.07
773.70 1.07
773.80 1.07
773.90 1.07
774.00 1.07
774.10 1.069
774.20 1.069
774.30 1.069
774.40 1.069
774.50 1.069
774.60 1.069
774.70 1.069
774.80 1.069
774.90 1.069
775.00 1.068
775.10 1.068
775.20 1.068
775.30 1.068
775.40 1.068
775.50 1.068
775.60 1.068
775.70 1.068
775.80 1.068
775.90 1.067
776.00 1.067
776.10 1.067
776.20 1.067
776.30 1.067
776.40 1.067
776.50 1.067
776.60 1.067
776.70 1.067
776.80 1.066
776.90 1.066
777.00 1.066
777.10 1.066
777.20 1.066
777.30 1.066
777.40 1.066
777.50 1.066
777.60 1.066
777.70 1.066
777.80 1.065
777.90 1.065
778.00 1.065
778.10 1.065
778.20 1.065
778.30 1.065
778.40 1.065
778.50 1.065
778.60 1.065
778.70 1.064
778.80 1.064
778.90 1.064
779.00 1.064
779.10 1.064
779.20 1.064
779.30 1.064
779.40 1.064
779.50 1.064
779.60 1.063
779.70 1.063
779.80 1.063
779.90 1.063
780.00 1.063
780.10 1.063
780.20 1.063
780.30 1.063
780.40 1.063
780.50 1.062
780.60 1.062
780.70 1.062
780.80 1.062
780.90 1.062
781.00 1.062
781.10 1.062
781.20 1.062
781.30 1.062
781.40 1.061
781.50 1.061
781.60 1.061
781.70 1.061
781.80 1.061
781.90 1.061
782.00 1.061
782.10 1.061
782.20 1.061
782.30 1.06
782.40 1.06
782.50 1.06
782.60 1.06
782.70 1.06
782.80 1.06
782.90 1.06
783.00 1.06
783.10 1.06
783.20 1.059
783.30 1.059
783.40 1.059
783.50 1.059
783.60 1.059
783.70 1.059
783.80 1.059
783.90 1.059
784.00 1.059
784.10 1.058
784.20 1.058
784.30 1.058
784.40 1.058
784.50 1.058
784.60 1.058
784.70 1.058
784.80 1.058
784.90 1.058
785.00 1.057
785.10 1.057
785.20 1.057
785.30 1.057
785.40 1.057
785.50 1.057
785.60 1.057
785.70 1.057
785.80 1.057
785.90 1.056
786.00 1.056
786.10 1.056
786.20 1.056
786.30 1.056
786.40 1.056
786.50 1.056
786.60 1.056
786.70 1.056
786.80 1.055
786.90 1.055
787.00 1.055
787.10 1.055
787.20 1.055
787.30 1.055
787.40 1.055
787.50 1.055
787.60 1.055
787.70 1.054
787.80 1.054
787.90 1.054
788.00 1.054
788.10 1.054
788.20 1.054
788.30 1.054
788.40 1.054
788.50 1.054
788.60 1.053
788.70 1.053
788.80 1.053
788.90 1.053
789.00 1.053
789.10 1.053
789.20 1.053
789.30 1.053
789.40 1.053
789.50 1.052
789.60 1.052
789.70 1.052
789.80 1.052
789.90 1.052
790.00 1.052
790.10 1.052
790.20 1.052
790.30 1.052
790.40 1.051
790.50 1.051
790.60 1.051
790.70 1.051
790.80 1.051
790.90 1.051
791.00 1.051
791.10 1.051
791.20 1.051
791.30 1.05
791.40 1.05
791.50 1.05
791.60 1.05
791.70 1.05
791.80 1.05
791.90 1.05
792.00 1.05
792.10 1.05
792.20 1.049
792.30 1.049
792.40 1.049
792.50 1.049
792.60 1.049
792.70 1.049
792.80 1.049
792.90 1.049
793.00 1.048
793.10 1.048
793.20 1.048
793.30 1.048
793.40 1.048
793.50 1.048
793.60 1.048
793.70 1.048
793.80 1.048
793.90 1.047
794.00 1.047
794.10 1.047
794.20 1.047
794.30 1.047
794.40 1.047
794.50 1.047
794.60 1.047
794.70 1.047
794.80 1.046
794.90 1.046
795.00 1.046
795.10 1.046
795.20 1.046
795.30 1.046
795.40 1.046
795.50 1.046
795.60 1.045
795.70 1.045
795.80 1.045
795.90 1.045
796.00 1.045
796.10 1.045
796.20 1.045
796.30 1.045
796.40 1.045
796.50 1.044
796.60 1.044
796.70 1.044
796.80 1.044
796.90 1.044
797.00 1.044
797.10 1.044
797.20 1.044
797.30 1.044
797.40 1.043
797.50 1.043
797.60 1.043
797.70 1.043
797.80 1.043
797.90 1.043
798.00 1.043
798.10 1.043
798.20 1.043
798.30 1.042
798.40 1.042
798.50 1.042
798.60 1.042
798.70 1.042
798.80 1.042
798.90 1.042
799.00 1.042
799.10 1.041
799.20 1.041
799.30 1.041
799.40 1.041
799.50 1.041
799.60 1.041
799.70 1.041
799.80 1.041
799.90 1.041
800.00 1.04
800.10 1.04
800.20 1.04
800.30 1.04
800.40 1.04
800.50 1.04
800.60 1.04
800.70 1.04
800.80 1.039
800.90 1.039
801.00 1.039
801.10 1.039
801.20 1.039
801.30 1.039
801.40 1.039
801.50 1.039
801.60 1.039
801.70 1.038
801.80 1.038
801.90 1.038
802.00 1.038
802.10 1.038
802.20 1.038
802.30 1.038
802.40 1.038
802.50 1.037
802.60 1.037
802.70 1.037
802.80 1.037
802.90 1.037
803.00 1.037
803.10 1.037
803.20 1.037
803.30 1.037
803.40 1.036
803.50 1.036
803.60 1.036
803.70 1.036
803.80 1.036
803.90 1.036
804.00 1.036
804.10 1.036
804.20 1.035
804.30 1.035
804.40 1.035
804.50 1.035
804.60 1.035
804.70 1.035
804.80 1.035
804.90 1.035
805.00 1.035
805.10 1.034
805.20 1.034
805.30 1.034
805.40 1.034
805.50 1.034
805.60 1.034
805.70 1.034
805.80 1.034
805.90 1.033
806.00 1.033
806.10 1.033
806.20 1.033
806.30 1.033
806.40 1.033
806.50 1.033
806.60 1.033
806.70 1.032
806.80 1.032
806.90 1.032
807.00 1.032
807.10 1.032
807.20 1.032
807.30 1.032
807.40 1.032
807.50 1.032
807.60 1.031
807.70 1.031
807.80 1.031
807.90 1.031
808.00 1.031
808.10 1.031
808.20 1.031
808.30 1.031
808.40 1.03
808.50 1.03
808.60 1.03
808.70 1.03
808.80 1.03
808.90 1.03
809.00 1.03
809.10 1.03
809.20 1.03
809.30 1.029
809.40 1.029
809.50 1.029
809.60 1.029
809.70 1.029
809.80 1.029
809.90 1.029
810.00 1.029
810.10 1.028
810.20 1.028
810.30 1.028
810.40 1.028
810.50 1.028
810.60 1.028
810.70 1.028
810.80 1.028
810.90 1.028
811.00 1.027
811.10 1.027
811.20 1.027
811.30 1.027
811.40 1.027
811.50 1.027
811.60 1.027
811.70 1.027
811.80 1.026
811.90 1.026
812.00 1.026
812.10 1.026
812.20 1.026
812.30 1.026
812.40 1.026
812.50 1.026
812.60 1.025
812.70 1.025
812.80 1.025
812.90 1.025
813.00 1.025
813.10 1.025
813.20 1.025
813.30 1.025
813.40 1.024
813.50 1.024
813.60 1.024
813.70 1.024
813.80 1.024
813.90 1.024
814.00 1.024
814.10 1.024
814.20 1.023
814.30 1.023
814.40 1.023
814.50 1.023
814.60 1.023
814.70 1.023
814.80 1.023
814.90 1.023
815.00 1.023
815.10 1.022
815.20 1.022
815.30 1.022
815.40 1.022
815.50 1.022
815.60 1.022
815.70 1.022
815.80 1.022
815.90 1.021
816.00 1.021
816.10 1.021
816.20 1.021
816.30 1.021
816.40 1.021
816.50 1.021
816.60 1.021
816.70 1.02
816.80 1.02
816.90 1.02
817.00 1.02
817.10 1.02
817.20 1.02
817.30 1.02
817.40 1.02
817.50 1.019
817.60 1.019
817.70 1.019
817.80 1.019
817.90 1.019
818.00 1.019
818.10 1.019
818.20 1.019
818.30 1.019
818.40 1.018
818.50 1.018
818.60 1.018
818.70 1.018
818.80 1.018
818.90 1.018
819.00 1.018
819.10 1.018
819.20 1.017
819.30 1.017
819.40 1.017
819.50 1.017
819.60 1.017
819.70 1.017
819.80 1.017
819.90 1.017
820.00 1.016
820.10 1.016
820.20 1.016
820.30 1.016
820.40 1.016
820.50 1.016
820.60 1.016
820.70 1.016
820.80 1.015
820.90 1.015
821.00 1.015
821.10 1.015
821.20 1.015
821.30 1.015
821.40 1.015
821.50 1.015
821.60 1.014
821.70 1.014
821.80 1.014
821.90 1.014
822.00 1.014
822.10 1.014
822.20 1.014
822.30 1.014
822.40 1.013
822.50 1.013
822.60 1.013
822.70 1.013
822.80 1.013
822.90 1.013
823.00 1.013
823.10 1.013
823.20 1.012
823.30 1.012
823.40 1.012
823.50 1.012
823.60 1.012
823.70 1.012
823.80 1.012
823.90 1.012
824.00 1.011
824.10 1.011
824.20 1.011
824.30 1.011
824.40 1.011
824.50 1.011
824.60 1.011
824.70 1.011
824.80 1.01
824.90 1.01
825.00 1.01
825.10 1.01
825.20 1.01
825.30 1.01
825.40 1.01
825.50 1.01
825.60 1.009
825.70 1.009
825.80 1.009
825.90 1.009
826.00 1.009
826.10 1.009
826.20 1.009
826.30 1.009
826.40 1.008
826.50 1.008
826.60 1.008
826.70 1.008
826.80 1.008
826.90 1.008
827.00 1.008
827.10 1.008
827.20 1.007
827.30 1.007
827.40 1.007
827.50 1.007
827.60 1.007
827.70 1.007
827.80 1.007
827.90 1.007
828.00 1.006
828.10 1.006
828.20 1.006
828.30 1.006
828.40 1.006
828.50 1.006
828.60 1.006
828.70 1.006
828.80 1.005
828.90 1.005
829.00 1.005
829.10 1.005
829.20 1.005
829.30 1.005
829.40 1.005
829.50 1.005
829.60 1.004
829.70 1.004
829.80 1.004
829.90 1.004
830.00 1.004
830.10 1.004
830.20 1.004
830.30 1.004
830.40 1.003
830.50 1.003
830.60 1.003
830.70 1.003
830.80 1.003
830.90 1.003
831.00 1.003
831.10 1.003
831.20 1.002
831.30 1.002
831.40 1.002
831.50 1.002
831.60 1.002
831.70 1.002
831.80 1.002
831.90 1.002
832.00 1.001
832.10 1.001
832.20 1.001
832.30 1.001
832.40 1.001
832.50 1.001
832.60 1.001
832.70 1.001
832.80 1
832.90 1
833.00 1
833.10 1
833.20 0.9999
833.30 0.9998
833.40 0.9996
833.50 0.9995
833.60 0.9994
833.70 0.9993
833.80 0.9991
833.90 0.999
834.00 0.9989
834.10 0.9987
834.20 0.9986
834.30 0.9985
834.40 0.9984
834.50 0.9982
834.60 0.9981
834.70 0.998
834.80 0.9978
834.90 0.9977
835.00 0.9976
835.10 0.9975
835.20 0.9973
835.30 0.9972
835.40 0.9971
835.50 0.997
835.60 0.9968
835.70 0.9967
835.80 0.9966
835.90 0.9964
836.00 0.9963
836.10 0.9962
836.20 0.9961
836.30 0.9959
836.40 0.9958
836.50 0.9957
836.60 0.9956
836.70 0.9954
836.80 0.9953
836.90 0.9952
837.00 0.995
837.10 0.9949
837.20 0.9948
837.30 0.9947
837.40 0.9945
837.50 0.9944
837.60 0.9943
837.70 0.9941
837.80 0.994
837.90 0.9939
838.00 0.9938
838.10 0.9936
838.20 0.9935
838.30 0.9934
838.40 0.9932
838.50 0.9931
838.60 0.993
838.70 0.9929
838.80 0.9927
838.90 0.9926
839.00 0.9925
839.10 0.9923
839.20 0.9922
839.30 0.9921
839.40 0.992
839.50 0.9918
839.60 0.9917
839.70 0.9916
839.80 0.9914
839.90 0.9913
840.00 0.9912
840.10 0.9911
840.20 0.9909
840.30 0.9908
840.40 0.9907
840.50 0.9905
840.60 0.9904
840.70 0.9903
840.80 0.9902
840.90 0.99
841.00 0.9899
841.10 0.9898
841.20 0.9896
841.30 0.9895
841.40 0.9894
841.50 0.9893
841.60 0.9891
841.70 0.989
841.80 0.9889
841.90 0.9888
842.00 0.9886
842.10 0.9885
842.20 0.9884
842.30 0.9882
842.40 0.9881
842.50 0.988
842.60 0.9878
842.70 0.9877
842.80 0.9876
842.90 0.9874
843.00 0.9873
843.10 0.9872
843.20 0.9871
843.30 0.9869
843.40 0.9868
843.50 0.9867
843.60 0.9865
843.70 0.9864
843.80 0.9863
843.90 0.9861
844.00 0.986
844.10 0.9859
844.20 0.9858
844.30 0.9856
844.40 0.9855
844.50 0.9854
844.60 0.9852
844.70 0.9851
844.80 0.985
844.90 0.9848
845.00 0.9847
845.10 0.9846
845.20 0.9845
845.30 0.9843
845.40 0.9842
845.50 0.9841
845.60 0.9839
845.70 0.9838
845.80 0.9837
845.90 0.9836
846.00 0.9834
846.10 0.9833
846.20 0.9832
846.30 0.983
846.40 0.9829
846.50 0.9828
846.60 0.9827
846.70 0.9825
846.80 0.9824
846.90 0.9823
847.00 0.9821
847.10 0.982
847.20 0.9819
847.30 0.9817
847.40 0.9816
847.50 0.9815
847.60 0.9813
847.70 0.9812
847.80 0.9811
847.90 0.9809
848.00 0.9808
848.10 0.9807
848.20 0.9806
848.30 0.9804
848.40 0.9803
848.50 0.9802
848.60 0.98
848.70 0.9799
848.80 0.9798
848.90 0.9796
849.00 0.9795
849.10 0.9794
849.20 0.9792
849.30 0.9791
849.40 0.979
849.50 0.9788
849.60 0.9787
849.70 0.9786
849.80 0.9785
849.90 0.9783
850.00 0.9782
850.10 0.9781
850.20 0.9779
850.30 0.9778
850.40 0.9777
850.50 0.9775
850.60 0.9774
850.70 0.9773
850.80 0.9771
850.90 0.977
851.00 0.9769
851.10 0.9768
851.20 0.9766
851.30 0.9765
851.40 0.9764
851.50 0.9762
851.60 0.9761
851.70 0.976
851.80 0.9758
851.90 0.9757
852.00 0.9756
852.10 0.9754
852.20 0.9753
852.30 0.9752
852.40 0.9751
852.50 0.9749
852.60 0.9748
852.70 0.9747
852.80 0.9745
852.90 0.9744
853.00 0.9743
853.10 0.9741
853.20 0.974
853.30 0.9739
853.40 0.9737
853.50 0.9736
853.60 0.9735
853.70 0.9733
853.80 0.9732
853.90 0.9731
854.00 0.9729
854.10 0.9728
854.20 0.9727
854.30 0.9725
854.40 0.9724
854.50 0.9723
854.60 0.9721
854.70 0.972
854.80 0.9719
854.90 0.9718
855.00 0.9716
855.10 0.9715
855.20 0.9714
855.30 0.9712
855.40 0.9711
855.50 0.971
855.60 0.9708
855.70 0.9707
855.80 0.9706
855.90 0.9704
856.00 0.9703
856.10 0.9702
856.20 0.97
856.30 0.9699
856.40 0.9698
856.50 0.9697
856.60 0.9695
856.70 0.9694
856.80 0.9693
856.90 0.9691
857.00 0.969
857.10 0.9689
857.20 0.9687
857.30 0.9686
857.40 0.9685
857.50 0.9683
857.60 0.9682
857.70 0.9681
857.80 0.9679
857.90 0.9678
858.00 0.9677
858.10 0.9675
858.20 0.9674
858.30 0.9673
858.40 0.9671
858.50 0.967
858.60 0.9669
858.70 0.9667
858.80 0.9666
858.90 0.9665
859.00 0.9663
859.10 0.9662
859.20 0.9661
859.30 0.9659
859.40 0.9658
859.50 0.9657
859.60 0.9655
859.70 0.9654
859.80 0.9653
859.90 0.9651
860.00 0.965
860.10 0.9649
860.20 0.9647
860.30 0.9646
860.40 0.9645
860.50 0.9643
860.60 0.9642
860.70 0.9641
860.80 0.9639
860.90 0.9638
861.00 0.9637
861.10 0.9635
861.20 0.9634
861.30 0.9633
861.40 0.9631
861.50 0.963
861.60 0.9629
861.70 0.9628
861.80 0.9626
861.90 0.9625
862.00 0.9624
862.10 0.9622
862.20 0.9621
862.30 0.962
862.40 0.9618
862.50 0.9617
862.60 0.9615
862.70 0.9614
862.80 0.9613
862.90 0.9611
863.00 0.961
863.10 0.9609
863.20 0.9607
863.30 0.9606
863.40 0.9605
863.50 0.9603
863.60 0.9602
863.70 0.9601
863.80 0.9599
863.90 0.9598
864.00 0.9597
864.10 0.9595
864.20 0.9594
864.30 0.9593
864.40 0.9591
864.50 0.959
864.60 0.9588
864.70 0.9587
864.80 0.9586
864.90 0.9584
865.00 0.9583
865.10 0.9582
865.20 0.958
865.30 0.9579
865.40 0.9578
865.50 0.9576
865.60 0.9575
865.70 0.9574
865.80 0.9572
865.90 0.9571
866.00 0.957
866.10 0.9568
866.20 0.9567
866.30 0.9566
866.40 0.9564
866.50 0.9563
866.60 0.9562
866.70 0.956
866.80 0.9559
866.90 0.9558
867.00 0.9556
867.10 0.9555
867.20 0.9554
867.30 0.9552
867.40 0.9551
867.50 0.955
867.60 0.9548
867.70 0.9547
867.80 0.9545
867.90 0.9544
868.00 0.9543
868.10 0.9541
868.20 0.954
868.30 0.9539
868.40 0.9537
868.50 0.9536
868.60 0.9535
868.70 0.9533
868.80 0.9532
868.90 0.9531
869.00 0.9529
869.10 0.9528
869.20 0.9527
869.30 0.9525
869.40 0.9524
869.50 0.9523
869.60 0.9521
869.70 0.952
869.80 0.9518
869.90 0.9517
870.00 0.9516
870.10 0.9514
870.20 0.9513
870.30 0.9512
870.40 0.951
870.50 0.9509
870.60 0.9508
870.70 0.9506
870.80 0.9505
870.90 0.9504
871.00 0.9502
871.10 0.9501
871.20 0.95
871.30 0.9498
871.40 0.9497
871.50 0.9496
871.60 0.9494
871.70 0.9493
871.80 0.9492
871.90 0.949
872.00 0.9489
872.10 0.9488
872.20 0.9486
872.30 0.9485
872.40 0.9483
872.50 0.9482
872.60 0.9481
872.70 0.9479
872.80 0.9478
872.90 0.9477
873.00 0.9475
873.10 0.9474
873.20 0.9473
873.30 0.9471
873.40 0.947
873.50 0.9468
873.60 0.9467
873.70 0.9466
873.80 0.9464
873.90 0.9463
874.00 0.9462
874.10 0.946
874.20 0.9459
874.30 0.9458
874.40 0.9456
874.50 0.9455
874.60 0.9453
874.70 0.9452
874.80 0.9451
874.90 0.9449
875.00 0.9448
875.10 0.9447
875.20 0.9445
875.30 0.9444
875.40 0.9443
875.50 0.9441
875.60 0.944
875.70 0.9439
875.80 0.9437
875.90 0.9436
876.00 0.9434
876.10 0.9433
876.20 0.9432
876.30 0.943
876.40 0.9429
876.50 0.9428
876.60 0.9426
876.70 0.9425
876.80 0.9424
876.90 0.9422
877.00 0.9421
877.10 0.942
877.20 0.9418
877.30 0.9417
877.40 0.9415
877.50 0.9414
877.60 0.9413
877.70 0.9411
877.80 0.941
877.90 0.9409
878.00 0.9407
878.10 0.9406
878.20 0.9404
878.30 0.9403
878.40 0.9402
878.50 0.94
878.60 0.9399
878.70 0.9398
878.80 0.9396
878.90 0.9395
879.00 0.9393
879.10 0.9392
879.20 0.9391
879.30 0.9389
879.40 0.9388
879.50 0.9387
879.60 0.9385
879.70 0.9384
879.80 0.9382
879.90 0.9381
880.00 0.938
880.10 0.9378
880.20 0.9377
880.30 0.9376
880.40 0.9374
880.50 0.9373
880.60 0.9371
880.70 0.937
880.80 0.9369
880.90 0.9367
881.00 0.9366
881.10 0.9365
881.20 0.9363
881.30 0.9362
881.40 0.9361
881.50 0.9359
881.60 0.9358
881.70 0.9356
881.80 0.9355
881.90 0.9354
882.00 0.9352
882.10 0.9351
882.20 0.935
882.30 0.9348
882.40 0.9347
882.50 0.9345
882.60 0.9344
882.70 0.9343
882.80 0.9341
882.90 0.934
883.00 0.9338
883.10 0.9337
883.20 0.9336
883.30 0.9334
883.40 0.9333
883.50 0.9331
883.60 0.933
883.70 0.9329
883.80 0.9327
883.90 0.9326
884.00 0.9324
884.10 0.9323
884.20 0.9322
884.30 0.932
884.40 0.9319
884.50 0.9318
884.60 0.9316
884.70 0.9315
884.80 0.9313
884.90 0.9312
885.00 0.9311
885.10 0.9309
885.20 0.9308
885.30 0.9306
885.40 0.9305
885.50 0.9304
885.60 0.9302
885.70 0.9301
885.80 0.93
885.90 0.9298
886.00 0.9297
886.10 0.9295
886.20 0.9294
886.30 0.9293
886.40 0.9291
886.50 0.929
886.60 0.9289
886.70 0.9287
886.80 0.9286
886.90 0.9284
887.00 0.9283
887.10 0.9282
887.20 0.928
887.30 0.9279
887.40 0.9277
887.50 0.9276
887.60 0.9275
887.70 0.9273
887.80 0.9272
887.90 0.927
888.00 0.9269
888.10 0.9267
888.20 0.9266
888.30 0.9265
888.40 0.9263
888.50 0.9262
888.60 0.926
888.70 0.9259
888.80 0.9258
888.90 0.9256
889.00 0.9255
889.10 0.9253
889.20 0.9252
889.30 0.9251
889.40 0.9249
889.50 0.9248
889.60 0.9246
889.70 0.9245
889.80 0.9244
889.90 0.9242
890.00 0.9241
890.10 0.9239
890.20 0.9238
890.30 0.9237
890.40 0.9235
890.50 0.9234
890.60 0.9232
890.70 0.9231
890.80 0.923
890.90 0.9228
891.00 0.9227
891.10 0.9225
891.20 0.9224
891.30 0.9223
891.40 0.9221
891.50 0.922
891.60 0.9218
891.70 0.9217
891.80 0.9216
891.90 0.9214
892.00 0.9213
892.10 0.9211
892.20 0.921
892.30 0.9209
892.40 0.9207
892.50 0.9206
892.60 0.9205
892.70 0.9203
892.80 0.9202
892.90 0.92
893.00 0.9199
893.10 0.9198
893.20 0.9196
893.30 0.9195
893.40 0.9194
893.50 0.9192
893.60 0.9191
893.70 0.9189
893.80 0.9188
893.90 0.9187
894.00 0.9185
894.10 0.9184
894.20 0.9183
894.30 0.9181
894.40 0.918
894.50 0.9178
894.60 0.9177
894.70 0.9176
894.80 0.9174
894.90 0.9173
895.00 0.9172
895.10 0.917
895.20 0.9169
895.30 0.9167
895.40 0.9166
895.50 0.9165
895.60 0.9163
895.70 0.9162
895.80 0.9161
895.90 0.9159
896.00 0.9158
896.10 0.9157
896.20 0.9155
896.30 0.9154
896.40 0.9152
896.50 0.9151
896.60 0.915
896.70 0.9148
896.80 0.9147
896.90 0.9146
897.00 0.9144
897.10 0.9143
897.20 0.9141
897.30 0.914
897.40 0.9139
897.50 0.9137
897.60 0.9136
897.70 0.9134
897.80 0.9133
897.90 0.9131
898.00 0.913
898.10 0.9128
898.20 0.9127
898.30 0.9125
898.40 0.9124
898.50 0.9123
898.60 0.9121
898.70 0.912
898.80 0.9118
898.90 0.9117
899.00 0.9115
899.10 0.9114
899.20 0.9113
899.30 0.9111
899.40 0.911
899.50 0.9108
899.60 0.9107
899.70 0.9105
899.80 0.9104
899.90 0.9102
900.00 0.9101
900.10 0.91
900.20 0.9098
900.30 0.9097
900.40 0.9095
900.50 0.9094
900.60 0.9092
900.70 0.9091
900.80 0.909
900.90 0.9088
901.00 0.9087
901.10 0.9085
901.20 0.9084
901.30 0.9082
901.40 0.9081
901.50 0.9079
901.60 0.9078
901.70 0.9077
901.80 0.9075
901.90 0.9074
902.00 0.9072
902.10 0.9071
902.20 0.9069
902.30 0.9068
902.40 0.9066
902.50 0.9064
902.60 0.9063
902.70 0.9061
902.80 0.906
902.90 0.9058
903.00 0.9057
903.10 0.9055
903.20 0.9053
903.30 0.9052
903.40 0.905
903.50 0.9049
903.60 0.9047
903.70 0.9046
903.80 0.9044
903.90 0.9042
904.00 0.9041
904.10 0.9039
904.20 0.9038
904.30 0.9036
904.40 0.9035
904.50 0.9033
904.60 0.9032
904.70 0.903
904.80 0.9028
904.90 0.9027
905.00 0.9025
905.10 0.9024
905.20 0.9022
905.30 0.9021
905.40 0.9019
905.50 0.9017
905.60 0.9016
905.70 0.9014
905.80 0.9013
905.90 0.9011
906.00 0.901
906.10 0.9008
906.20 0.9007
906.30 0.9005
906.40 0.9003
906.50 0.9002
906.60 0.9
906.70 0.8999
906.80 0.8997
906.90 0.8996
907.00 0.8994
907.10 0.8993
907.20 0.8991
907.30 0.899
907.40 0.8988
907.50 0.8987
907.60 0.8985
907.70 0.8984
907.80 0.8982
907.90 0.8981
908.00 0.8979
908.10 0.8978
908.20 0.8976
908.30 0.8975
908.40 0.8973
908.50 0.8972
908.60 0.897
908.70 0.8969
908.80 0.8967
908.90 0.8966
909.00 0.8964
909.10 0.8963
909.20 0.8961
909.30 0.896
909.40 0.8958
909.50 0.8957
909.60 0.8955
909.70 0.8954
909.80 0.8952
909.90 0.8951
910.00 0.8949
910.10 0.8948
910.20 0.8946
910.30 0.8945
910.40 0.8943
910.50 0.8942
910.60 0.894
910.70 0.8939
910.80 0.8937
910.90 0.8936
911.00 0.8934
911.10 0.8933
911.20 0.8931
911.30 0.893
911.40 0.8928
911.50 0.8927
911.60 0.8925
911.70 0.8924
911.80 0.8922
911.90 0.8921
912.00 0.8919
912.10 0.8918
912.20 0.8916
912.30 0.8915
912.40 0.8914
912.50 0.8912
912.60 0.8911
912.70 0.8909
912.80 0.8908
912.90 0.8906
913.00 0.8905
913.10 0.8903
913.20 0.8902
913.30 0.8901
913.40 0.8899
913.50 0.8898
913.60 0.8896
913.70 0.8895
913.80 0.8893
913.90 0.8892
914.00 0.889
914.10 0.8889
914.20 0.8888
914.30 0.8886
914.40 0.8885
914.50 0.8883
914.60 0.8882
914.70 0.888
914.80 0.8879
914.90 0.8878
915.00 0.8876
915.10 0.8875
915.20 0.8873
915.30 0.8872
915.40 0.887
915.50 0.8869
915.60 0.8868
915.70 0.8866
915.80 0.8865
915.90 0.8863
916.00 0.8862
916.10 0.886
916.20 0.8859
916.30 0.8857
916.40 0.8856
916.50 0.8855
916.60 0.8853
916.70 0.8852
916.80 0.885
916.90 0.8849
917.00 0.8847
917.10 0.8846
917.20 0.8845
917.30 0.8843
917.40 0.8842
917.50 0.884
917.60 0.8839
917.70 0.8837
917.80 0.8836
917.90 0.8834
918.00 0.8833
918.10 0.8831
918.20 0.883
918.30 0.8828
918.40 0.8827
918.50 0.8825
918.60 0.8824
918.70 0.8822
918.80 0.8821
918.90 0.8819
919.00 0.8818
919.10 0.8816
919.20 0.8815
919.30 0.8813
919.40 0.8812
919.50 0.881
919.60 0.8809
919.70 0.8807
919.80 0.8806
919.90 0.8804
920.00 0.8803
920.10 0.8801
920.20 0.88
920.30 0.8798
920.40 0.8797
920.50 0.8796
920.60 0.8794
920.70 0.8793
920.80 0.8791
920.90 0.879
921.00 0.8788
921.10 0.8787
921.20 0.8785
921.30 0.8784
921.40 0.8782
921.50 0.8781
921.60 0.8779
921.70 0.8778
921.80 0.8776
921.90 0.8775
922.00 0.8773
922.10 0.8772
922.20 0.877
922.30 0.8769
922.40 0.8767
922.50 0.8766
922.60 0.8764
922.70 0.8763
922.80 0.8761
922.90 0.876
923.00 0.8758
923.10 0.8757
923.20 0.8755
923.30 0.8754
923.40 0.8752
923.50 0.8751
923.60 0.8749
923.70 0.8748
923.80 0.8746
923.90 0.8745
924.00 0.8743
924.10 0.8742
924.20 0.874
924.30 0.8739
924.40 0.8737
924.50 0.8736
924.60 0.8734
924.70 0.8733
924.80 0.8731
924.90 0.873
925.00 0.8728
925.10 0.8727
925.20 0.8725
925.30 0.8724
925.40 0.8722
925.50 0.8721
925.60 0.8719
925.70 0.8718
925.80 0.8716
925.90 0.8715
926.00 0.8713
926.10 0.8712
926.20 0.8711
926.30 0.8709
926.40 0.8708
926.50 0.8706
926.60 0.8705
926.70 0.8703
926.80 0.8702
926.90 0.87
927.00 0.8699
927.10 0.8697
927.20 0.8696
927.30 0.8694
927.40 0.8693
927.50 0.8691
927.60 0.869
927.70 0.8688
927.80 0.8686
927.90 0.8685
928.00 0.8683
928.10 0.8682
928.20 0.868
928.30 0.8679
928.40 0.8677
928.50 0.8676
928.60 0.8674
928.70 0.8673
928.80 0.8671
928.90 0.867
929.00 0.8668
929.10 0.8667
929.20 0.8665
929.30 0.8664
929.40 0.8662
929.50 0.8661
929.60 0.8659
929.70 0.8658
929.80 0.8656
929.90 0.8655
930.00 0.8653
930.10 0.8652
930.20 0.865
930.30 0.8649
930.40 0.8647
930.50 0.8646
930.60 0.8644
930.70 0.8643
930.80 0.8641
930.90 0.864
931.00 0.8638
931.10 0.8637
931.20 0.8635
931.30 0.8634
931.40 0.8632
931.50 0.8631
931.60 0.8629
931.70 0.8628
931.80 0.8626
931.90 0.8625
932.00 0.8623
932.10 0.8622
932.20 0.862
932.30 0.8619
932.40 0.8617
932.50 0.8616
932.60 0.8614
932.70 0.8613
932.80 0.8611
932.90 0.861
933.00 0.8608
933.10 0.8607
933.20 0.8605
933.30 0.8604
933.40 0.8602
933.50 0.8601
933.60 0.8599
933.70 0.8597
933.80 0.8596
933.90 0.8594
934.00 0.8593
934.10 0.8591
934.20 0.859
934.30 0.8588
934.40 0.8587
934.50 0.8585
934.60 0.8584
934.70 0.8582
934.80 0.8581
934.90 0.8579
935.00 0.8578
935.10 0.8576
935.20 0.8575
935.30 0.8573
935.40 0.8572
935.50 0.857
935.60 0.8569
935.70 0.8567
935.80 0.8566
935.90 0.8564
936.00 0.8563
936.10 0.8561
936.20 0.856
936.30 0.8558
936.40 0.8557
936.50 0.8555
936.60 0.8554
936.70 0.8552
936.80 0.8551
936.90 0.8549
937.00 0.8547
937.10 0.8546
937.20 0.8544
937.30 0.8543
937.40 0.8541
937.50 0.854
937.60 0.8538
937.70 0.8537
937.80 0.8535
937.90 0.8534
938.00 0.8532
938.10 0.8531
938.20 0.8529
938.30 0.8528
938.40 0.8526
938.50 0.8525
938.60 0.8523
938.70 0.8522
938.80 0.852
938.90 0.8518
939.00 0.8517
939.10 0.8515
939.20 0.8514
939.30 0.8512
939.40 0.8511
939.50 0.8509
939.60 0.8508
939.70 0.8506
939.80 0.8505
939.90 0.8503
940.00 0.8502
940.10 0.85
940.20 0.8499
940.30 0.8497
940.40 0.8495
940.50 0.8494
940.60 0.8492
940.70 0.8491
940.80 0.8489
940.90 0.8488
941.00 0.8486
941.10 0.8485
941.20 0.8483
941.30 0.8482
941.40 0.848
941.50 0.8478
941.60 0.8477
941.70 0.8475
941.80 0.8474
941.90 0.8472
942.00 0.8471
942.10 0.8469
942.20 0.8468
942.30 0.8466
942.40 0.8465
942.50 0.8463
942.60 0.8462
942.70 0.846
942.80 0.8459
942.90 0.8457
943.00 0.8455
943.10 0.8454
943.20 0.8452
943.30 0.8451
943.40 0.8449
943.50 0.8448
943.60 0.8446
943.70 0.8445
943.80 0.8443
943.90 0.8441
944.00 0.844
944.10 0.8438
944.20 0.8437
944.30 0.8435
944.40 0.8434
944.50 0.8432
944.60 0.8431
944.70 0.8429
944.80 0.8428
944.90 0.8426
945.00 0.8425
945.10 0.8423
945.20 0.8422
945.30 0.842
945.40 0.8418
945.50 0.8417
945.60 0.8415
945.70 0.8414
945.80 0.8412
945.90 0.8411
946.00 0.8409
946.10 0.8408
946.20 0.8406
946.30 0.8404
946.40 0.8403
946.50 0.8401
946.60 0.84
946.70 0.8398
946.80 0.8397
946.90 0.8395
947.00 0.8394
947.10 0.8392
947.20 0.8391
947.30 0.8389
947.40 0.8387
947.50 0.8386
947.60 0.8384
947.70 0.8383
947.80 0.8381
947.90 0.838
948.00 0.8378
948.10 0.8377
948.20 0.8375
948.30 0.8373
948.40 0.8372
948.50 0.837
948.60 0.8369
948.70 0.8367
948.80 0.8366
948.90 0.8364
949.00 0.8362
949.10 0.8361
949.20 0.8359
949.30 0.8358
949.40 0.8356
949.50 0.8355
949.60 0.8353
949.70 0.8352
949.80 0.835
949.90 0.8348
950.00 0.8347
950.10 0.8345
950.20 0.8344
950.30 0.8342
950.40 0.8341
950.50 0.8339
950.60 0.8338
950.70 0.8336
950.80 0.8334
950.90 0.8333
951.00 0.8331
951.10 0.833
951.20 0.8328
951.30 0.8327
951.40 0.8325
951.50 0.8324
951.60 0.8322
951.70 0.832
951.80 0.8319
951.90 0.8317
952.00 0.8316
952.10 0.8314
952.20 0.8313
952.30 0.8311
952.40 0.831
952.50 0.8308
952.60 0.8306
952.70 0.8305
952.80 0.8303
952.90 0.8302
953.00 0.83
953.10 0.8299
953.20 0.8297
953.30 0.8295
953.40 0.8294
953.50 0.8292
953.60 0.8291
953.70 0.8289
953.80 0.8288
953.90 0.8286
954.00 0.8285
954.10 0.8283
954.20 0.8282
954.30 0.828
954.40 0.8278
954.50 0.8277
954.60 0.8275
954.70 0.8274
954.80 0.8272
954.90 0.827
955.00 0.8269
955.10 0.8267
955.20 0.8266
955.30 0.8264
955.40 0.8263
955.50 0.8261
955.60 0.826
955.70 0.8258
955.80 0.8256
955.90 0.8255
956.00 0.8253
956.10 0.8252
956.20 0.825
956.30 0.8249
956.40 0.8247
956.50 0.8245
956.60 0.8244
956.70 0.8242
956.80 0.8241
956.90 0.8239
957.00 0.8238
957.10 0.8236
957.20 0.8234
957.30 0.8233
957.40 0.8231
957.50 0.823
957.60 0.8228
957.70 0.8227
957.80 0.8225
957.90 0.8223
958.00 0.8222
958.10 0.822
958.20 0.8219
958.30 0.8217
958.40 0.8216
958.50 0.8214
958.60 0.8212
958.70 0.8211
958.80 0.8209
958.90 0.8208
959.00 0.8206
959.10 0.8204
959.20 0.8203
959.30 0.8201
959.40 0.82
959.50 0.8198
959.60 0.8197
959.70 0.8195
959.80 0.8194
959.90 0.8192
960.00 0.819
960.10 0.8189
960.20 0.8187
960.30 0.8186
960.40 0.8184
960.50 0.8183
960.60 0.8181
960.70 0.8179
960.80 0.8178
960.90 0.8176
961.00 0.8175
961.10 0.8173
961.20 0.8172
961.30 0.817
961.40 0.8168
961.50 0.8167
961.60 0.8165
961.70 0.8164
961.80 0.8162
961.90 0.816
962.00 0.8159
962.10 0.8157
962.20 0.8156
962.30 0.8154
962.40 0.8153
962.50 0.8151
962.60 0.8149
962.70 0.8148
962.80 0.8146
962.90 0.8145
963.00 0.8143
963.10 0.8142
963.20 0.814
963.30 0.8138
963.40 0.8137
963.50 0.8135
963.60 0.8134
963.70 0.8132
963.80 0.8131
963.90 0.8129
964.00 0.8127
964.10 0.8126
964.20 0.8124
964.30 0.8123
964.40 0.8121
964.50 0.812
964.60 0.8118
964.70 0.8116
964.80 0.8115
964.90 0.8113
965.00 0.8112
965.10 0.811
965.20 0.8108
965.30 0.8107
965.40 0.8105
965.50 0.8104
965.60 0.8102
965.70 0.81
965.80 0.8099
965.90 0.8097
966.00 0.8096
966.10 0.8094
966.20 0.8093
966.30 0.8091
966.40 0.8089
966.50 0.8088
966.60 0.8086
966.70 0.8085
966.80 0.8083
966.90 0.8082
967.00 0.808
967.10 0.8078
967.20 0.8077
967.30 0.8075
967.40 0.8074
967.50 0.8072
967.60 0.807
967.70 0.8069
967.80 0.8067
967.90 0.8066
968.00 0.8064
968.10 0.8063
968.20 0.8061
968.30 0.8059
968.40 0.8058
968.50 0.8056
968.60 0.8055
968.70 0.8053
968.80 0.8051
968.90 0.805
969.00 0.8048
969.10 0.8047
969.20 0.8045
969.30 0.8044
969.40 0.8042
969.50 0.804
969.60 0.8039
969.70 0.8037
969.80 0.8036
969.90 0.8034
970.00 0.8033
970.10 0.8031
970.20 0.8029
970.30 0.8028
970.40 0.8026
970.50 0.8025
970.60 0.8023
970.70 0.8021
970.80 0.802
970.90 0.8018
971.00 0.8017
971.10 0.8015
971.20 0.8014
971.30 0.8012
971.40 0.801
971.50 0.8009
971.60 0.8007
971.70 0.8006
971.80 0.8004
971.90 0.8003
972.00 0.8001
972.10 0.8
972.20 0.7998
972.30 0.7996
972.40 0.7995
972.50 0.7993
972.60 0.7992
972.70 0.799
972.80 0.7988
972.90 0.7987
973.00 0.7985
973.10 0.7984
973.20 0.7982
973.30 0.798
973.40 0.7979
973.50 0.7977
973.60 0.7976
973.70 0.7974
973.80 0.7973
973.90 0.7971
974.00 0.7969
974.10 0.7968
974.20 0.7966
974.30 0.7965
974.40 0.7963
974.50 0.7962
974.60 0.796
974.70 0.7958
974.80 0.7957
974.90 0.7955
975.00 0.7954
975.10 0.7952
975.20 0.795
975.30 0.7949
975.40 0.7947
975.50 0.7946
975.60 0.7944
975.70 0.7942
975.80 0.7941
975.90 0.7939
976.00 0.7938
976.10 0.7936
976.20 0.7935
976.30 0.7933
976.40 0.7931
976.50 0.793
976.60 0.7928
976.70 0.7927
976.80 0.7925
976.90 0.7923
977.00 0.7922
977.10 0.792
977.20 0.7919
977.30 0.7917
977.40 0.7916
977.50 0.7914
977.60 0.7912
977.70 0.7911
977.80 0.7909
977.90 0.7908
978.00 0.7906
978.10 0.7904
978.20 0.7903
978.30 0.7901
978.40 0.79
978.50 0.7898
978.60 0.7897
978.70 0.7895
978.80 0.7893
978.90 0.7892
979.00 0.789
979.10 0.7889
979.20 0.7887
979.30 0.7886
979.40 0.7884
979.50 0.7882
979.60 0.7881
979.70 0.7879
979.80 0.7878
979.90 0.7876
980.00 0.7875
980.10 0.7873
980.20 0.7871
980.30 0.787
980.40 0.7868
980.50 0.7867
980.60 0.7865
980.70 0.7864
980.80 0.7862
980.90 0.786
981.00 0.7859
981.10 0.7857
981.20 0.7856
981.30 0.7854
981.40 0.7853
981.50 0.7851
981.60 0.7849
981.70 0.7848
981.80 0.7846
981.90 0.7845
982.00 0.7843
982.10 0.7842
982.20 0.784
982.30 0.7838
982.40 0.7837
982.50 0.7835
982.60 0.7834
982.70 0.7832
982.80 0.7831
982.90 0.7829
983.00 0.7827
983.10 0.7826
983.20 0.7824
983.30 0.7823
983.40 0.7821
983.50 0.782
983.60 0.7818
983.70 0.7816
983.80 0.7815
983.90 0.7813
984.00 0.7812
984.10 0.781
984.20 0.7809
984.30 0.7807
984.40 0.7805
984.50 0.7804
984.60 0.7802
984.70 0.7801
984.80 0.7799
984.90 0.7797
985.00 0.7796
985.10 0.7794
985.20 0.7793
985.30 0.7791
985.40 0.779
985.50 0.7788
985.60 0.7786
985.70 0.7785
985.80 0.7783
985.90 0.7782
986.00 0.778
986.10 0.7779
986.20 0.7777
986.30 0.7775
986.40 0.7774
986.50 0.7772
986.60 0.7771
986.70 0.7769
986.80 0.7767
986.90 0.7766
987.00 0.7764
987.10 0.7763
987.20 0.7761
987.30 0.776
987.40 0.7758
987.50 0.7756
987.60 0.7755
987.70 0.7753
987.80 0.7752
987.90 0.775
988.00 0.7749
988.10 0.7747
988.20 0.7746
988.30 0.7744
988.40 0.7742
988.50 0.7741
988.60 0.7739
988.70 0.7738
988.80 0.7736
988.90 0.7735
989.00 0.7733
989.10 0.7731
989.20 0.773
989.30 0.7728
989.40 0.7727
989.50 0.7725
989.60 0.7724
989.70 0.7722
989.80 0.772
989.90 0.7719
990.00 0.7717
990.10 0.7716
990.20 0.7714
990.30 0.7713
990.40 0.7711
990.50 0.771
990.60 0.7708
990.70 0.7706
990.80 0.7705
990.90 0.7703
991.00 0.7702
991.10 0.77
991.20 0.7699
991.30 0.7697
991.40 0.7696
991.50 0.7694
991.60 0.7692
991.70 0.7691
991.80 0.7689
991.90 0.7688
992.00 0.7686
992.10 0.7685
992.20 0.7683
992.30 0.7682
992.40 0.768
992.50 0.7679
992.60 0.7677
992.70 0.7675
992.80 0.7674
992.90 0.7672
993.00 0.7671
993.10 0.7669
993.20 0.7668
993.30 0.7666
993.40 0.7665
993.50 0.7663
993.60 0.7661
993.70 0.766
993.80 0.7658
993.90 0.7657
994.00 0.7655
994.10 0.7654
994.20 0.7652
994.30 0.7651
994.40 0.7649
994.50 0.7647
994.60 0.7646
994.70 0.7644
994.80 0.7643
994.90 0.7641
995.00 0.764
995.10 0.7638
995.20 0.7637
995.30 0.7635
995.40 0.7633
995.50 0.7632
995.60 0.763
995.70 0.7629
995.80 0.7627
995.90 0.7626
996.00 0.7624
996.10 0.7623
996.20 0.7621
996.30 0.762
996.40 0.7618
996.50 0.7616
996.60 0.7615
996.70 0.7613
996.80 0.7612
996.90 0.761
997.00 0.7609
997.10 0.7607
997.20 0.7606
997.30 0.7604
997.40 0.7602
997.50 0.7601
997.60 0.7599
997.70 0.7598
997.80 0.7596
997.90 0.7595
998.00 0.7593
998.10 0.7592
998.20 0.759
998.30 0.7589
998.40 0.7587
998.50 0.7586
998.60 0.7584
998.70 0.7583
998.80 0.7581
998.90 0.7579
999.00 0.7578
999.10 0.7576
999.20 0.7575
999.30 0.7573
999.40 0.7572
999.50 0.757
999.60 0.7569
999.70 0.7567
999.80 0.7566
999.90 0.7564
1000.00 0.7563
1000.10 0.7561
1000.20 0.756
1000.30 0.7558
1000.40 0.7556
1000.50 0.7555
1000.60 0.7553
1000.70 0.7552
1000.80 0.755
1000.90 0.7549
1001.00 0.7547
1001.10 0.7546
1001.20 0.7544
1001.30 0.7543
1001.40 0.7541
1001.50 0.7539
1001.60 0.7538
1001.70 0.7536
1001.80 0.7535
1001.90 0.7533
1002.00 0.7532
1002.10 0.753
1002.20 0.7529
1002.30 0.7527
1002.40 0.7526
1002.50 0.7524
1002.60 0.7523
1002.70 0.7521
1002.80 0.752
1002.90 0.7518
1003.00 0.7517
1003.10 0.7515
1003.20 0.7514
1003.30 0.7512
1003.40 0.7511
1003.50 0.7509
1003.60 0.7508
1003.70 0.7506
1003.80 0.7505
1003.90 0.7503
1004.00 0.7501
1004.10 0.75
1004.20 0.7498
1004.30 0.7497
1004.40 0.7495
1004.50 0.7494
1004.60 0.7492
1004.70 0.7491
1004.80 0.7489
1004.90 0.7488
1005.00 0.7486
1005.10 0.7485
1005.20 0.7483
1005.30 0.7482
1005.40 0.748
1005.50 0.7479
1005.60 0.7477
1005.70 0.7476
1005.80 0.7474
1005.90 0.7473
1006.00 0.7471
1006.10 0.747
1006.20 0.7468
1006.30 0.7467
1006.40 0.7465
1006.50 0.7464
1006.60 0.7462
1006.70 0.7461
1006.80 0.7459
1006.90 0.7458
1007.00 0.7456
1007.10 0.7455
1007.20 0.7453
1007.30 0.7452
1007.40 0.745
1007.50 0.7448
1007.60 0.7447
1007.70 0.7445
1007.80 0.7444
1007.90 0.7442
1008.00 0.7441
1008.10 0.7439
1008.20 0.7438
1008.30 0.7436
1008.40 0.7435
1008.50 0.7433
1008.60 0.7432
1008.70 0.743
1008.80 0.7429
1008.90 0.7427
1009.00 0.7426
1009.10 0.7424
1009.20 0.7423
1009.30 0.7421
1009.40 0.742
1009.50 0.7418
1009.60 0.7417
1009.70 0.7415
1009.80 0.7414
1009.90 0.7412
1010.00 0.7411
1010.10 0.7409
1010.20 0.7408
1010.30 0.7406
1010.40 0.7405
1010.50 0.7403
1010.60 0.7402
1010.70 0.74
1010.80 0.7399
1010.90 0.7397
1011.00 0.7396
1011.10 0.7394
1011.20 0.7393
1011.30 0.7391
1011.40 0.739
1011.50 0.7388
1011.60 0.7387
1011.70 0.7385
1011.80 0.7384
1011.90 0.7382
1012.00 0.7381
1012.10 0.7379
1012.20 0.7378
1012.30 0.7376
1012.40 0.7375
1012.50 0.7373
1012.60 0.7372
1012.70 0.737
1012.80 0.7369
1012.90 0.7367
1013.00 0.7366
1013.10 0.7364
1013.20 0.7363
1013.30 0.7361
1013.40 0.736
1013.50 0.7358
1013.60 0.7357
1013.70 0.7355
1013.80 0.7354
1013.90 0.7352
1014.00 0.7351
1014.10 0.7349
1014.20 0.7348
1014.30 0.7346
1014.40 0.7345
1014.50 0.7343
1014.60 0.7342
1014.70 0.734
1014.80 0.7339
1014.90 0.7337
1015.00 0.7336
1015.10 0.7334
1015.20 0.7333
1015.30 0.7331
1015.40 0.733
1015.50 0.7328
1015.60 0.7327
1015.70 0.7326
1015.80 0.7324
1015.90 0.7323
1016.00 0.7321
1016.10 0.732
1016.20 0.7318
1016.30 0.7317
1016.40 0.7315
1016.50 0.7314
1016.60 0.7312
1016.70 0.7311
1016.80 0.7309
1016.90 0.7308
1017.00 0.7306
1017.10 0.7305
1017.20 0.7303
1017.30 0.7302
1017.40 0.73
1017.50 0.7299
1017.60 0.7297
1017.70 0.7296
1017.80 0.7294
1017.90 0.7293
1018.00 0.7291
1018.10 0.729
1018.20 0.7289
1018.30 0.7287
1018.40 0.7286
1018.50 0.7284
1018.60 0.7283
1018.70 0.7281
1018.80 0.728
1018.90 0.7278
1019.00 0.7277
1019.10 0.7275
1019.20 0.7274
1019.30 0.7272
1019.40 0.7271
1019.50 0.7269
1019.60 0.7268
1019.70 0.7266
1019.80 0.7265
1019.90 0.7263
1020.00 0.7262
1020.10 0.7261
1020.20 0.7259
1020.30 0.7258
1020.40 0.7256
1020.50 0.7255
1020.60 0.7253
1020.70 0.7252
1020.80 0.725
1020.90 0.7249
1021.00 0.7247
1021.10 0.7246
1021.20 0.7244
1021.30 0.7243
1021.40 0.7241
1021.50 0.724
1021.60 0.7238
1021.70 0.7237
1021.80 0.7236
1021.90 0.7234
1022.00 0.7233
1022.10 0.7231
1022.20 0.723
1022.30 0.7228
1022.40 0.7227
1022.50 0.7225
1022.60 0.7224
1022.70 0.7222
1022.80 0.7221
1022.90 0.722
1023.00 0.7218
1023.10 0.7217
1023.20 0.7215
1023.30 0.7214
1023.40 0.7212
1023.50 0.7211
1023.60 0.7209
1023.70 0.7208
1023.80 0.7206
1023.90 0.7205
1024.00 0.7203
1024.10 0.7202
1024.20 0.7201
1024.30 0.7199
1024.40 0.7198
1024.50 0.7196
1024.60 0.7195
1024.70 0.7193
1024.80 0.7192
1024.90 0.719
1025.00 0.7189
1025.10 0.7188
1025.20 0.7186
1025.30 0.7185
1025.40 0.7183
1025.50 0.7182
1025.60 0.718
1025.70 0.7179
1025.80 0.7177
1025.90 0.7176
1026.00 0.7174
1026.10 0.7173
1026.20 0.7172
1026.30 0.717
1026.40 0.7169
1026.50 0.7167
1026.60 0.7166
1026.70 0.7164
1026.80 0.7163
1026.90 0.7161
1027.00 0.716
1027.10 0.7159
1027.20 0.7157
1027.30 0.7156
1027.40 0.7154
1027.50 0.7153
1027.60 0.7151
1027.70 0.715
1027.80 0.7149
1027.90 0.7147
1028.00 0.7146
1028.10 0.7144
1028.20 0.7143
1028.30 0.7141
1028.40 0.714
1028.50 0.7138
1028.60 0.7137
1028.70 0.7136
1028.80 0.7134
1028.90 0.7133
1029.00 0.7131
1029.10 0.713
1029.20 0.7129
1029.30 0.7127
1029.40 0.7126
1029.50 0.7124
1029.60 0.7123
1029.70 0.7121
1029.80 0.712
1029.90 0.7119
1030.00 0.7117
1030.10 0.7116
1030.20 0.7114
1030.30 0.7113
1030.40 0.7111
1030.50 0.711
1030.60 0.7109
1030.70 0.7107
1030.80 0.7106
1030.90 0.7104
1031.00 0.7103
1031.10 0.7101
1031.20 0.71
1031.30 0.7099
1031.40 0.7097
1031.50 0.7096
1031.60 0.7094
1031.70 0.7093
1031.80 0.7092
1031.90 0.709
1032.00 0.7089
1032.10 0.7087
1032.20 0.7086
1032.30 0.7085
1032.40 0.7083
1032.50 0.7082
1032.60 0.708
1032.70 0.7079
1032.80 0.7077
1032.90 0.7076
1033.00 0.7075
1033.10 0.7073
1033.20 0.7072
1033.30 0.707
1033.40 0.7069
1033.50 0.7068
1033.60 0.7066
1033.70 0.7065
1033.80 0.7063
1033.90 0.7062
1034.00 0.7061
1034.10 0.7059
1034.20 0.7058
1034.30 0.7056
1034.40 0.7055
1034.50 0.7054
1034.60 0.7052
1034.70 0.7051
1034.80 0.7049
1034.90 0.7048
1035.00 0.7047
1035.10 0.7045
1035.20 0.7044
1035.30 0.7042
1035.40 0.7041
1035.50 0.704
1035.60 0.7038
1035.70 0.7037
1035.80 0.7035
1035.90 0.7034
1036.00 0.7033
1036.10 0.7031
1036.20 0.703
1036.30 0.7028
1036.40 0.7027
1036.50 0.7026
1036.60 0.7024
1036.70 0.7023
1036.80 0.7021
1036.90 0.702
1037.00 0.7019
1037.10 0.7017
1037.20 0.7016
1037.30 0.7014
1037.40 0.7013
1037.50 0.7012
1037.60 0.701
1037.70 0.7009
1037.80 0.7008
1037.90 0.7006
1038.00 0.7005
1038.10 0.7003
1038.20 0.7002
1038.30 0.7001
1038.40 0.6999
1038.50 0.6998
1038.60 0.6996
1038.70 0.6995
1038.80 0.6994
1038.90 0.6992
1039.00 0.6991
1039.10 0.699
1039.20 0.6988
1039.30 0.6987
1039.40 0.6985
1039.50 0.6984
1039.60 0.6983
1039.70 0.6981
1039.80 0.698
1039.90 0.6979
1040.00 0.6977
1040.10 0.6976
1040.20 0.6974
1040.30 0.6973
1040.40 0.6972
1040.50 0.697
1040.60 0.6969
1040.70 0.6968
1040.80 0.6966
1040.90 0.6965
1041.00 0.6963
1041.10 0.6962
1041.20 0.6961
1041.30 0.6959
1041.40 0.6958
1041.50 0.6957
1041.60 0.6955
1041.70 0.6954
1041.80 0.6953
1041.90 0.6951
1042.00 0.695
1042.10 0.6948
1042.20 0.6947
1042.30 0.6946
1042.40 0.6944
1042.50 0.6943
1042.60 0.6942
1042.70 0.694
1042.80 0.6939
1042.90 0.6938
1043.00 0.6936
1043.10 0.6935
1043.20 0.6934
1043.30 0.6932
1043.40 0.6931
1043.50 0.6929
1043.60 0.6928
1043.70 0.6927
1043.80 0.6925
1043.90 0.6924
1044.00 0.6923
1044.10 0.6921
1044.20 0.692
1044.30 0.6919
1044.40 0.6917
1044.50 0.6916
1044.60 0.6915
1044.70 0.6913
1044.80 0.6912
1044.90 0.691
1045.00 0.6909
1045.10 0.6908
1045.20 0.6906
1045.30 0.6905
1045.40 0.6904
1045.50 0.6902
1045.60 0.6901
1045.70 0.69
1045.80 0.6898
1045.90 0.6897
1046.00 0.6896
1046.10 0.6894
1046.20 0.6893
1046.30 0.6892
1046.40 0.689
1046.50 0.6889
1046.60 0.6888
1046.70 0.6886
1046.80 0.6885
1046.90 0.6884
1047.00 0.6882
1047.10 0.6881
1047.20 0.688
1047.30 0.6878
1047.40 0.6877
1047.50 0.6876
1047.60 0.6874
1047.70 0.6873
1047.80 0.6872
1047.90 0.687
1048.00 0.6869
1048.10 0.6868
1048.20 0.6866
1048.30 0.6865
1048.40 0.6864
1048.50 0.6862
1048.60 0.6861
1048.70 0.686
1048.80 0.6858
1048.90 0.6857
1049.00 0.6856
1049.10 0.6854
1049.20 0.6853
1049.30 0.6852
1049.40 0.685
1049.50 0.6849
1049.60 0.6848
1049.70 0.6846
1049.80 0.6845
1049.90 0.6844
1050.00 0.6842
1050.10 0.6841
1050.20 0.684
1050.30 0.6839
1050.40 0.6837
1050.50 0.6836
1050.60 0.6835
1050.70 0.6833
1050.80 0.6832
1050.90 0.6831
1051.00 0.6829
1051.10 0.6828
1051.20 0.6827
1051.30 0.6825
1051.40 0.6824
1051.50 0.6823
1051.60 0.6821
1051.70 0.682
1051.80 0.6819
1051.90 0.6818
1052.00 0.6816
1052.10 0.6815
1052.20 0.6814
1052.30 0.6812
1052.40 0.6811
1052.50 0.681
1052.60 0.6808
1052.70 0.6807
1052.80 0.6806
1052.90 0.6804
1053.00 0.6803
1053.10 0.6802
1053.20 0.6801
1053.30 0.6799
1053.40 0.6798
1053.50 0.6797
1053.60 0.6795
1053.70 0.6794
1053.80 0.6793
1053.90 0.6791
1054.00 0.679
1054.10 0.6789
1054.20 0.6788
1054.30 0.6786
1054.40 0.6785
1054.50 0.6784
1054.60 0.6782
1054.70 0.6781
1054.80 0.678
1054.90 0.6779
1055.00 0.6777
1055.10 0.6776
1055.20 0.6775
1055.30 0.6773
1055.40 0.6772
1055.50 0.6771
1055.60 0.6769
1055.70 0.6768
1055.80 0.6767
1055.90 0.6766
1056.00 0.6764
1056.10 0.6763
1056.20 0.6762
1056.30 0.676
1056.40 0.6759
1056.50 0.6758
1056.60 0.6757
1056.70 0.6755
1056.80 0.6754
1056.90 0.6753
1057.00 0.6751
1057.10 0.675
1057.20 0.6749
1057.30 0.6748
1057.40 0.6746
1057.50 0.6745
1057.60 0.6744
1057.70 0.6743
1057.80 0.6741
1057.90 0.674
1058.00 0.6739
1058.10 0.6737
1058.20 0.6736
1058.30 0.6735
1058.40 0.6734
1058.50 0.6732
1058.60 0.6731
1058.70 0.673
1058.80 0.6729
1058.90 0.6727
1059.00 0.6726
1059.10 0.6725
1059.20 0.6724
1059.30 0.6722
1059.40 0.6721
1059.50 0.672
1059.60 0.6718
1059.70 0.6717
1059.80 0.6716
1059.90 0.6715
1060.00 0.6713
1060.10 0.6712
1060.20 0.6711
1060.30 0.671
1060.40 0.6708
1060.50 0.6707
1060.60 0.6706
1060.70 0.6705
1060.80 0.6703
1060.90 0.6702
1061.00 0.6701
1061.10 0.67
1061.20 0.6698
1061.30 0.6697
1061.40 0.6696
1061.50 0.6695
1061.60 0.6693
1061.70 0.6692
1061.80 0.6691
1061.90 0.6689
1062.00 0.6688
1062.10 0.6687
1062.20 0.6686
1062.30 0.6684
1062.40 0.6683
1062.50 0.6682
1062.60 0.6681
1062.70 0.6679
1062.80 0.6678
1062.90 0.6677
1063.00 0.6676
1063.10 0.6674
1063.20 0.6673
1063.30 0.6672
1063.40 0.6671
1063.50 0.6669
1063.60 0.6668
1063.70 0.6667
1063.80 0.6666
1063.90 0.6664
1064.00 0.6663
1064.10 0.6662
1064.20 0.6661
1064.30 0.666
1064.40 0.6658
1064.50 0.6657
1064.60 0.6656
1064.70 0.6655
1064.80 0.6653
1064.90 0.6652
1065.00 0.6651
1065.10 0.665
1065.20 0.6648
1065.30 0.6647
1065.40 0.6646
1065.50 0.6645
1065.60 0.6643
1065.70 0.6642
1065.80 0.6641
1065.90 0.664
1066.00 0.6638
1066.10 0.6637
1066.20 0.6636
1066.30 0.6635
1066.40 0.6633
1066.50 0.6632
1066.60 0.6631
1066.70 0.663
1066.80 0.6629
1066.90 0.6627
1067.00 0.6626
1067.10 0.6625
1067.20 0.6624
1067.30 0.6622
1067.40 0.6621
1067.50 0.662
1067.60 0.6619
1067.70 0.6618
1067.80 0.6616
1067.90 0.6615
1068.00 0.6614
1068.10 0.6613
1068.20 0.6611
1068.30 0.661
1068.40 0.6609
1068.50 0.6608
1068.60 0.6607
1068.70 0.6605
1068.80 0.6604
1068.90 0.6603
1069.00 0.6602
1069.10 0.6601
1069.20 0.6599
1069.30 0.6598
1069.40 0.6597
1069.50 0.6596
1069.60 0.6595
1069.70 0.6593
1069.80 0.6592
1069.90 0.6591
1070.00 0.659
1070.10 0.6589
1070.20 0.6587
1070.30 0.6586
1070.40 0.6585
1070.50 0.6584
1070.60 0.6583
1070.70 0.6581
1070.80 0.658
1070.90 0.6579
1071.00 0.6578
1071.10 0.6576
1071.20 0.6575
1071.30 0.6574
1071.40 0.6573
1071.50 0.6572
1071.60 0.657
1071.70 0.6569
1071.80 0.6568
1071.90 0.6567
1072.00 0.6566
1072.10 0.6564
1072.20 0.6563
1072.30 0.6562
1072.40 0.6561
1072.50 0.656
1072.60 0.6559
1072.70 0.6557
1072.80 0.6556
1072.90 0.6555
1073.00 0.6554
1073.10 0.6553
1073.20 0.6551
1073.30 0.655
1073.40 0.6549
1073.50 0.6548
1073.60 0.6547
1073.70 0.6545
1073.80 0.6544
1073.90 0.6543
1074.00 0.6542
1074.10 0.6541
1074.20 0.6539
1074.30 0.6538
1074.40 0.6537
1074.50 0.6536
1074.60 0.6535
1074.70 0.6533
1074.80 0.6532
1074.90 0.6531
1075.00 0.653
1075.10 0.6529
1075.20 0.6527
1075.30 0.6526
1075.40 0.6525
1075.50 0.6524
1075.60 0.6523
1075.70 0.6521
1075.80 0.652
1075.90 0.6519
1076.00 0.6518
1076.10 0.6517
1076.20 0.6515
1076.30 0.6514
1076.40 0.6513
1076.50 0.6512
1076.60 0.6511
1076.70 0.651
1076.80 0.6508
1076.90 0.6507
1077.00 0.6506
1077.10 0.6505
1077.20 0.6504
1077.30 0.6502
1077.40 0.6501
1077.50 0.65
1077.60 0.6499
1077.70 0.6498
1077.80 0.6497
1077.90 0.6495
1078.00 0.6494
1078.10 0.6493
1078.20 0.6492
1078.30 0.6491
1078.40 0.649
1078.50 0.6488
1078.60 0.6487
1078.70 0.6486
1078.80 0.6485
1078.90 0.6484
1079.00 0.6482
1079.10 0.6481
1079.20 0.648
1079.30 0.6479
1079.40 0.6478
1079.50 0.6477
1079.60 0.6475
1079.70 0.6474
1079.80 0.6473
1079.90 0.6472
1080.00 0.6471
1080.10 0.647
1080.20 0.6468
1080.30 0.6467
1080.40 0.6466
1080.50 0.6465
1080.60 0.6464
1080.70 0.6463
1080.80 0.6461
1080.90 0.646
1081.00 0.6459
1081.10 0.6458
1081.20 0.6457
1081.30 0.6456
1081.40 0.6454
1081.50 0.6453
1081.60 0.6452
1081.70 0.6451
1081.80 0.645
1081.90 0.6449
1082.00 0.6447
1082.10 0.6446
1082.20 0.6445
1082.30 0.6444
1082.40 0.6443
1082.50 0.6442
1082.60 0.644
1082.70 0.6439
1082.80 0.6438
1082.90 0.6437
1083.00 0.6436
1083.10 0.6435
1083.20 0.6433
1083.30 0.6432
1083.40 0.6431
1083.50 0.643
1083.60 0.6429
1083.70 0.6428
1083.80 0.6427
1083.90 0.6425
1084.00 0.6424
1084.10 0.6423
1084.20 0.6422
1084.30 0.6421
1084.40 0.642
1084.50 0.6418
1084.60 0.6417
1084.70 0.6416
1084.80 0.6415
1084.90 0.6414
1085.00 0.6413
1085.10 0.6412
1085.20 0.641
1085.30 0.6409
1085.40 0.6408
1085.50 0.6407
1085.60 0.6406
1085.70 0.6405
1085.80 0.6403
1085.90 0.6402
1086.00 0.6401
1086.10 0.64
1086.20 0.6399
1086.30 0.6398
1086.40 0.6397
1086.50 0.6395
1086.60 0.6394
1086.70 0.6393
1086.80 0.6392
1086.90 0.6391
1087.00 0.639
1087.10 0.6389
1087.20 0.6387
1087.30 0.6386
1087.40 0.6385
1087.50 0.6384
1087.60 0.6383
1087.70 0.6382
1087.80 0.6381
1087.90 0.6379
1088.00 0.6378
1088.10 0.6377
1088.20 0.6376
1088.30 0.6375
1088.40 0.6374
1088.50 0.6372
1088.60 0.6371
1088.70 0.637
1088.80 0.6369
1088.90 0.6368
1089.00 0.6367
1089.10 0.6366
1089.20 0.6365
1089.30 0.6363
1089.40 0.6362
1089.50 0.6361
1089.60 0.636
1089.70 0.6359
1089.80 0.6358
1089.90 0.6357
1090.00 0.6355
1090.10 0.6354
1090.20 0.6353
1090.30 0.6352
1090.40 0.6351
1090.50 0.635
1090.60 0.6349
1090.70 0.6348
1090.80 0.6346
1090.90 0.6345
1091.00 0.6344
1091.10 0.6343
1091.20 0.6342
1091.30 0.6341
1091.40 0.634
1091.50 0.6338
1091.60 0.6337
1091.70 0.6336
1091.80 0.6335
1091.90 0.6334
1092.00 0.6333
1092.10 0.6332
1092.20 0.6331
1092.30 0.6329
1092.40 0.6328
1092.50 0.6327
1092.60 0.6326
1092.70 0.6325
1092.80 0.6324
1092.90 0.6323
1093.00 0.6322
1093.10 0.6321
1093.20 0.6319
1093.30 0.6318
1093.40 0.6317
1093.50 0.6316
1093.60 0.6315
1093.70 0.6314
1093.80 0.6313
1093.90 0.6312
1094.00 0.631
1094.10 0.6309
1094.20 0.6308
1094.30 0.6307
1094.40 0.6306
1094.50 0.6305
1094.60 0.6304
1094.70 0.6303
1094.80 0.6301
1094.90 0.63
1095.00 0.6299
1095.10 0.6298
1095.20 0.6297
1095.30 0.6296
1095.40 0.6295
1095.50 0.6294
1095.60 0.6292
1095.70 0.6291
1095.80 0.629
1095.90 0.6289
1096.00 0.6288
1096.10 0.6287
1096.20 0.6286
1096.30 0.6285
1096.40 0.6283
1096.50 0.6282
1096.60 0.6281
1096.70 0.628
1096.80 0.6279
1096.90 0.6278
1097.00 0.6277
1097.10 0.6276
1097.20 0.6275
1097.30 0.6273
1097.40 0.6272
1097.50 0.6271
1097.60 0.627
1097.70 0.6269
1097.80 0.6268
1097.90 0.6267
1098.00 0.6266
1098.10 0.6264
1098.20 0.6263
1098.30 0.6262
1098.40 0.6261
1098.50 0.626
1098.60 0.6259
1098.70 0.6258
1098.80 0.6257
1098.90 0.6256
1099.00 0.6254
1099.10 0.6253
1099.20 0.6252
1099.30 0.6251
1099.40 0.625
1099.50 0.6249
1099.60 0.6248
1099.70 0.6247
1099.80 0.6246
1099.90 0.6244
1100.00 0.6243
1100.10 0.6242
1100.20 0.6241
1100.30 0.624
1100.40 0.6239
1100.50 0.6238
1100.60 0.6237
1100.70 0.6236
1100.80 0.6234
1100.90 0.6233
1101.00 0.6232
1101.10 0.6231
1101.20 0.623
1101.30 0.6229
1101.40 0.6228
1101.50 0.6227
1101.60 0.6226
1101.70 0.6224
1101.80 0.6223
1101.90 0.6222
1102.00 0.6221
1102.10 0.622
1102.20 0.6219
1102.30 0.6218
1102.40 0.6217
1102.50 0.6216
1102.60 0.6215
1102.70 0.6213
1102.80 0.6212
1102.90 0.6211
1103.00 0.621
1103.10 0.6209
1103.20 0.6208
1103.30 0.6207
1103.40 0.6206
1103.50 0.6205
1103.60 0.6204
1103.70 0.6202
1103.80 0.6201
1103.90 0.62
1104.00 0.6199
1104.10 0.6198
1104.20 0.6197
1104.30 0.6196
1104.40 0.6195
1104.50 0.6194
1104.60 0.6192
1104.70 0.6191
1104.80 0.619
1104.90 0.6189
1105.00 0.6188
1105.10 0.6187
1105.20 0.6186
1105.30 0.6185
1105.40 0.6184
1105.50 0.6183
1105.60 0.6181
1105.70 0.618
1105.80 0.6179
1105.90 0.6178
1106.00 0.6177
1106.10 0.6176
1106.20 0.6175
1106.30 0.6174
1106.40 0.6173
1106.50 0.6172
1106.60 0.6171
1106.70 0.6169
1106.80 0.6168
1106.90 0.6167
1107.00 0.6166
1107.10 0.6165
1107.20 0.6164
1107.30 0.6163
1107.40 0.6162
1107.50 0.6161
1107.60 0.6159
1107.70 0.6158
1107.80 0.6157
1107.90 0.6156
1108.00 0.6155
1108.10 0.6154
1108.20 0.6153
1108.30 0.6152
1108.40 0.6151
1108.50 0.615
1108.60 0.6149
1108.70 0.6147
1108.80 0.6146
1108.90 0.6145
1109.00 0.6144
1109.10 0.6143
1109.20 0.6142
1109.30 0.6141
1109.40 0.614
1109.50 0.6139
1109.60 0.6138
1109.70 0.6137
1109.80 0.6135
1109.90 0.6134
1110.00 0.6133
1110.10 0.6132
1110.20 0.6131
1110.30 0.613
1110.40 0.6129
1110.50 0.6128
1110.60 0.6127
1110.70 0.6126
1110.80 0.6125
1110.90 0.6123
1111.00 0.6122
1111.10 0.6121
1111.20 0.612
1111.30 0.6119
1111.40 0.6118
1111.50 0.6117
1111.60 0.6116
1111.70 0.6115
1111.80 0.6114
1111.90 0.6113
1112.00 0.6112
1112.10 0.611
1112.20 0.6109
1112.30 0.6108
1112.40 0.6107
1112.50 0.6106
1112.60 0.6105
1112.70 0.6104
1112.80 0.6103
1112.90 0.6102
1113.00 0.6101
1113.10 0.61
1113.20 0.6099
1113.30 0.6098
1113.40 0.6096
1113.50 0.6095
1113.60 0.6094
1113.70 0.6093
1113.80 0.6092
1113.90 0.6091
1114.00 0.609
1114.10 0.6089
1114.20 0.6088
1114.30 0.6087
1114.40 0.6086
1114.50 0.6085
1114.60 0.6083
1114.70 0.6082
1114.80 0.6081
1114.90 0.608
1115.00 0.6079
1115.10 0.6078
1115.20 0.6077
1115.30 0.6076
1115.40 0.6075
1115.50 0.6074
1115.60 0.6073
1115.70 0.6072
1115.80 0.6071
1115.90 0.6069
1116.00 0.6068
1116.10 0.6067
1116.20 0.6066
1116.30 0.6065
1116.40 0.6064
1116.50 0.6063
1116.60 0.6062
1116.70 0.6061
1116.80 0.606
1116.90 0.6059
1117.00 0.6058
1117.10 0.6057
1117.20 0.6055
1117.30 0.6054
1117.40 0.6053
1117.50 0.6052
1117.60 0.6051
1117.70 0.605
1117.80 0.6049
1117.90 0.6048
1118.00 0.6047
1118.10 0.6046
1118.20 0.6045
1118.30 0.6044
1118.40 0.6043
1118.50 0.6042
1118.60 0.604
1118.70 0.6039
1118.80 0.6038
1118.90 0.6037
1119.00 0.6036
1119.10 0.6035
1119.20 0.6034
1119.30 0.6033
1119.40 0.6032
1119.50 0.6031
1119.60 0.603
1119.70 0.6029
1119.80 0.6028
1119.90 0.6027
1120.00 0.6025
1120.10 0.6024
1120.20 0.6023
1120.30 0.6022
1120.40 0.6021
1120.50 0.602
1120.60 0.6019
1120.70 0.6018
1120.80 0.6017
1120.90 0.6016
1121.00 0.6015
1121.10 0.6014
1121.20 0.6013
1121.30 0.6012
1121.40 0.6011
1121.50 0.601
1121.60 0.6008
1121.70 0.6007
1121.80 0.6006
1121.90 0.6005
1122.00 0.6004
1122.10 0.6003
1122.20 0.6002
1122.30 0.6001
1122.40 0.6
1122.50 0.5999
1122.60 0.5998
1122.70 0.5997
1122.80 0.5996
1122.90 0.5995
1123.00 0.5994
1123.10 0.5992
1123.20 0.5991
1123.30 0.599
1123.40 0.5989
1123.50 0.5988
1123.60 0.5987
1123.70 0.5986
1123.80 0.5985
1123.90 0.5984
1124.00 0.5983
1124.10 0.5982
1124.20 0.5981
1124.30 0.598
1124.40 0.5979
1124.50 0.5978
1124.60 0.5977
1124.70 0.5975
1124.80 0.5974
1124.90 0.5973
1125.00 0.5972
1125.10 0.5971
1125.20 0.597
1125.30 0.5969
1125.40 0.5968
1125.50 0.5967
1125.60 0.5966
1125.70 0.5965
1125.80 0.5964
1125.90 0.5963
1126.00 0.5962
1126.10 0.5961
1126.20 0.596
1126.30 0.5958
1126.40 0.5957
1126.50 0.5956
1126.60 0.5955
1126.70 0.5954
1126.80 0.5953
1126.90 0.5952
1127.00 0.5951
1127.10 0.595
1127.20 0.5949
1127.30 0.5948
1127.40 0.5947
1127.50 0.5946
1127.60 0.5945
1127.70 0.5944
1127.80 0.5943
1127.90 0.5942
1128.00 0.5941
1128.10 0.5939
1128.20 0.5938
1128.30 0.5937
1128.40 0.5936
1128.50 0.5935
1128.60 0.5934
1128.70 0.5933
1128.80 0.5932
1128.90 0.5931
1129.00 0.593
1129.10 0.5929
1129.20 0.5928
1129.30 0.5927
1129.40 0.5926
1129.50 0.5925
1129.60 0.5924
1129.70 0.5923
1129.80 0.5922
1129.90 0.592
1130.00 0.5919
1130.10 0.5918
1130.20 0.5917
1130.30 0.5916
1130.40 0.5915
1130.50 0.5914
1130.60 0.5913
1130.70 0.5912
1130.80 0.5911
1130.90 0.591
1131.00 0.5909
1131.10 0.5908
1131.20 0.5907
1131.30 0.5906
1131.40 0.5905
1131.50 0.5904
1131.60 0.5903
1131.70 0.5902
1131.80 0.5901
1131.90 0.59
1132.00 0.5898
1132.10 0.5897
1132.20 0.5896
1132.30 0.5895
1132.40 0.5894
1132.50 0.5893
1132.60 0.5892
1132.70 0.5891
1132.80 0.589
1132.90 0.5889
1133.00 0.5888
1133.10 0.5887
1133.20 0.5886
1133.30 0.5885
1133.40 0.5884
1133.50 0.5883
1133.60 0.5882
1133.70 0.5881
1133.80 0.5879
1133.90 0.5878
1134.00 0.5877
1134.10 0.5876
1134.20 0.5875
1134.30 0.5874
1134.40 0.5873
1134.50 0.5872
1134.60 0.5871
1134.70 0.587
1134.80 0.5869
1134.90 0.5868
1135.00 0.5867
1135.10 0.5866
1135.20 0.5865
1135.30 0.5864
1135.40 0.5863
1135.50 0.5862
1135.60 0.5861
1135.70 0.5859
1135.80 0.5858
1135.90 0.5857
1136.00 0.5856
1136.10 0.5855
1136.20 0.5854
1136.30 0.5853
1136.40 0.5852
1136.50 0.5851
1136.60 0.585
1136.70 0.5849
1136.80 0.5848
1136.90 0.5847
1137.00 0.5846
1137.10 0.5845
1137.20 0.5844
1137.30 0.5843
1137.40 0.5842
1137.50 0.5841
1137.60 0.584
1137.70 0.5839
1137.80 0.5837
1137.90 0.5836
1138.00 0.5835
1138.10 0.5834
1138.20 0.5833
1138.30 0.5832
1138.40 0.5831
1138.50 0.583
1138.60 0.5829
1138.70 0.5828
1138.80 0.5827
1138.90 0.5826
1139.00 0.5825
1139.10 0.5824
1139.20 0.5823
1139.30 0.5822
1139.40 0.5821
1139.50 0.582
1139.60 0.5819
1139.70 0.5818
1139.80 0.5817
1139.90 0.5815
1140.00 0.5814
1140.10 0.5813
1140.20 0.5812
1140.30 0.5811
1140.40 0.581
1140.50 0.5809
1140.60 0.5808
1140.70 0.5807
1140.80 0.5806
1140.90 0.5805
1141.00 0.5804
1141.10 0.5803
1141.20 0.5802
1141.30 0.5801
1141.40 0.58
1141.50 0.5799
1141.60 0.5798
1141.70 0.5797
1141.80 0.5796
1141.90 0.5795
1142.00 0.5794
1142.10 0.5793
1142.20 0.5792
1142.30 0.579
1142.40 0.5789
1142.50 0.5788
1142.60 0.5787
1142.70 0.5786
1142.80 0.5785
1142.90 0.5784
1143.00 0.5783
1143.10 0.5782
1143.20 0.5781
1143.30 0.578
1143.40 0.5779
1143.50 0.5778
1143.60 0.5777
1143.70 0.5776
1143.80 0.5775
1143.90 0.5774
1144.00 0.5773
1144.10 0.5772
1144.20 0.5771
1144.30 0.577
1144.40 0.5769
1144.50 0.5767
1144.60 0.5766
1144.70 0.5765
1144.80 0.5764
1144.90 0.5763
1145.00 0.5762
1145.10 0.5761
1145.20 0.576
1145.30 0.5759
1145.40 0.5758
1145.50 0.5757
1145.60 0.5756
1145.70 0.5755
1145.80 0.5754
1145.90 0.5753
1146.00 0.5752
1146.10 0.5751
1146.20 0.575
1146.30 0.5749
1146.40 0.5748
1146.50 0.5747
1146.60 0.5746
1146.70 0.5745
1146.80 0.5744
1146.90 0.5742
1147.00 0.5741
1147.10 0.574
1147.20 0.5739
1147.30 0.5738
1147.40 0.5737
1147.50 0.5736
1147.60 0.5735
1147.70 0.5734
1147.80 0.5733
1147.90 0.5732
1148.00 0.5731
1148.10 0.573
1148.20 0.5729
1148.30 0.5728
1148.40 0.5727
1148.50 0.5726
1148.60 0.5725
1148.70 0.5724
1148.80 0.5723
1148.90 0.5722
1149.00 0.5721
1149.10 0.5719
1149.20 0.5718
1149.30 0.5717
1149.40 0.5716
1149.50 0.5715
1149.60 0.5714
1149.70 0.5713
1149.80 0.5712
1149.90 0.5711
1150.00 0.571
1150.10 0.5709
1150.20 0.5708
1150.30 0.5707
1150.40 0.5706
1150.50 0.5705
1150.60 0.5704
1150.70 0.5703
1150.80 0.5702
1150.90 0.5701
1151.00 0.57
1151.10 0.5699
1151.20 0.5698
1151.30 0.5697
1151.40 0.5696
1151.50 0.5694
1151.60 0.5693
1151.70 0.5692
1151.80 0.5691
1151.90 0.569
1152.00 0.5689
1152.10 0.5688
1152.20 0.5687
1152.30 0.5686
1152.40 0.5685
1152.50 0.5684
1152.60 0.5683
1152.70 0.5682
1152.80 0.5681
1152.90 0.568
1153.00 0.5679
1153.10 0.5678
1153.20 0.5677
1153.30 0.5676
1153.40 0.5675
1153.50 0.5674
1153.60 0.5673
1153.70 0.5672
1153.80 0.5671
1153.90 0.5669
1154.00 0.5668
1154.10 0.5667
1154.20 0.5666
1154.30 0.5665
1154.40 0.5664
1154.50 0.5663
1154.60 0.5662
1154.70 0.5661
1154.80 0.566
1154.90 0.5659
1155.00 0.5658
1155.10 0.5657
1155.20 0.5656
1155.30 0.5655
1155.40 0.5654
1155.50 0.5653
1155.60 0.5652
1155.70 0.5651
1155.80 0.565
1155.90 0.5649
1156.00 0.5648
1156.10 0.5647
1156.20 0.5646
1156.30 0.5645
1156.40 0.5644
1156.50 0.5643
1156.60 0.5642
1156.70 0.564
1156.80 0.5639
1156.90 0.5638
1157.00 0.5637
1157.10 0.5636
1157.20 0.5635
1157.30 0.5634
1157.40 0.5633
1157.50 0.5632
1157.60 0.5631
1157.70 0.563
1157.80 0.5629
1157.90 0.5628
1158.00 0.5627
1158.10 0.5626
1158.20 0.5625
1158.30 0.5624
1158.40 0.5623
1158.50 0.5622
1158.60 0.5621
1158.70 0.562
1158.80 0.5619
1158.90 0.5618
1159.00 0.5616
1159.10 0.5615
1159.20 0.5614
1159.30 0.5613
1159.40 0.5612
1159.50 0.5611
1159.60 0.561
1159.70 0.5609
1159.80 0.5608
1159.90 0.5607
1160.00 0.5606
1160.10 0.5605
1160.20 0.5604
1160.30 0.5603
1160.40 0.5602
1160.50 0.5601
1160.60 0.56
1160.70 0.5599
1160.80 0.5598
1160.90 0.5597
1161.00 0.5596
1161.10 0.5595
1161.20 0.5594
1161.30 0.5593
1161.40 0.5592
1161.50 0.5591
1161.60 0.5589
1161.70 0.5588
1161.80 0.5587
1161.90 0.5586
1162.00 0.5585
1162.10 0.5584
1162.20 0.5583
1162.30 0.5582
1162.40 0.5581
1162.50 0.558
1162.60 0.5579
1162.70 0.5578
1162.80 0.5577
1162.90 0.5576
1163.00 0.5575
1163.10 0.5574
1163.20 0.5573
1163.30 0.5572
1163.40 0.5571
1163.50 0.557
1163.60 0.5569
1163.70 0.5568
1163.80 0.5567
1163.90 0.5565
1164.00 0.5564
1164.10 0.5563
1164.20 0.5562
1164.30 0.5561
1164.40 0.556
1164.50 0.5559
1164.60 0.5558
1164.70 0.5557
1164.80 0.5556
1164.90 0.5555
1165.00 0.5554
1165.10 0.5553
1165.20 0.5552
1165.30 0.5551
1165.40 0.555
1165.50 0.5549
1165.60 0.5548
1165.70 0.5547
1165.80 0.5546
1165.90 0.5545
1166.00 0.5544
1166.10 0.5543
1166.20 0.5542
1166.30 0.5541
1166.40 0.554
1166.50 0.5539
1166.60 0.5537
1166.70 0.5536
1166.80 0.5535
1166.90 0.5534
1167.00 0.5533
1167.10 0.5532
1167.20 0.5531
1167.30 0.553
1167.40 0.5529
1167.50 0.5528
1167.60 0.5527
1167.70 0.5526
1167.80 0.5525
1167.90 0.5524
1168.00 0.5523
1168.10 0.5522
1168.20 0.5521
1168.30 0.552
1168.40 0.5519
1168.50 0.5518
1168.60 0.5517
1168.70 0.5516
1168.80 0.5515
1168.90 0.5513
1169.00 0.5512
1169.10 0.5511
1169.20 0.551
1169.30 0.5509
1169.40 0.5508
1169.50 0.5507
1169.60 0.5506
1169.70 0.5505
1169.80 0.5504
1169.90 0.5503
1170.00 0.5502
1170.10 0.5501
1170.20 0.55
1170.30 0.5499
1170.40 0.5498
1170.50 0.5497
1170.60 0.5496
1170.70 0.5495
1170.80 0.5494
1170.90 0.5493
1171.00 0.5492
1171.10 0.5491
1171.20 0.549
1171.30 0.5489
1171.40 0.5487
1171.50 0.5486
1171.60 0.5485
1171.70 0.5484
1171.80 0.5483
1171.90 0.5482
1172.00 0.5481
1172.10 0.548
1172.20 0.5479
1172.30 0.5478
1172.40 0.5477
1172.50 0.5476
1172.60 0.5475
1172.70 0.5474
1172.80 0.5473
1172.90 0.5472
1173.00 0.5471
1173.10 0.547
1173.20 0.5469
1173.30 0.5468
1173.40 0.5467
1173.50 0.5466
1173.60 0.5465
1173.70 0.5463
1173.80 0.5462
1173.90 0.5461
1174.00 0.546
1174.10 0.5459
1174.20 0.5458
1174.30 0.5457
1174.40 0.5456
1174.50 0.5455
1174.60 0.5454
1174.70 0.5453
1174.80 0.5452
1174.90 0.5451
1175.00 0.545
1175.10 0.5449
1175.20 0.5448
1175.30 0.5447
1175.40 0.5446
1175.50 0.5445
1175.60 0.5444
1175.70 0.5443
1175.80 0.5442
1175.90 0.5441
1176.00 0.544
1176.10 0.5439
1176.20 0.5438
1176.30 0.5436
1176.40 0.5435
1176.50 0.5434
1176.60 0.5433
1176.70 0.5432
1176.80 0.5431
1176.90 0.543
1177.00 0.5429
1177.10 0.5428
1177.20 0.5427
1177.30 0.5426
1177.40 0.5425
1177.50 0.5424
1177.60 0.5423
1177.70 0.5422
1177.80 0.5421
1177.90 0.542
1178.00 0.5419
1178.10 0.5418
1178.20 0.5417
1178.30 0.5416
1178.40 0.5415
1178.50 0.5414
1178.60 0.5413
1178.70 0.5411
1178.80 0.541
1178.90 0.5409
1179.00 0.5408
1179.10 0.5407
1179.20 0.5406
1179.30 0.5405
1179.40 0.5404
1179.50 0.5403
1179.60 0.5402
1179.70 0.5401
1179.80 0.54
1179.90 0.5399
1180.00 0.5398
1180.10 0.5397
1180.20 0.5396
1180.30 0.5395
1180.40 0.5394
1180.50 0.5393
1180.60 0.5392
1180.70 0.5391
1180.80 0.539
1180.90 0.5389
1181.00 0.5388
1181.10 0.5387
1181.20 0.5386
1181.30 0.5385
1181.40 0.5383
1181.50 0.5382
1181.60 0.5381
1181.70 0.538
1181.80 0.5379
1181.90 0.5378
1182.00 0.5377
1182.10 0.5376
1182.20 0.5375
1182.30 0.5374
1182.40 0.5373
1182.50 0.5372
1182.60 0.5371
1182.70 0.537
1182.80 0.5369
1182.90 0.5368
1183.00 0.5367
1183.10 0.5366
1183.20 0.5365
1183.30 0.5364
1183.40 0.5363
1183.50 0.5362
1183.60 0.5361
1183.70 0.5359
1183.80 0.5358
1183.90 0.5357
1184.00 0.5356
1184.10 0.5355
1184.20 0.5354
1184.30 0.5353
1184.40 0.5352
1184.50 0.5351
1184.60 0.535
1184.70 0.5349
1184.80 0.5348
1184.90 0.5347
1185.00 0.5346
1185.10 0.5345
1185.20 0.5344
1185.30 0.5343
1185.40 0.5342
1185.50 0.5341
1185.60 0.534
1185.70 0.5339
1185.80 0.5338
1185.90 0.5337
1186.00 0.5335
1186.10 0.5334
1186.20 0.5333
1186.30 0.5332
1186.40 0.5331
1186.50 0.533
1186.60 0.5329
1186.70 0.5328
1186.80 0.5327
1186.90 0.5326
1187.00 0.5325
1187.10 0.5324
1187.20 0.5323
1187.30 0.5322
1187.40 0.5321
1187.50 0.532
1187.60 0.5319
1187.70 0.5318
1187.80 0.5317
1187.90 0.5316
1188.00 0.5315
1188.10 0.5314
1188.20 0.5313
1188.30 0.5312
1188.40 0.5311
1188.50 0.531
1188.60 0.5308
1188.70 0.5307
1188.80 0.5306
1188.90 0.5305
1189.00 0.5304
1189.10 0.5303
1189.20 0.5302
1189.30 0.5301
1189.40 0.53
1189.50 0.5299
1189.60 0.5298
1189.70 0.5297
1189.80 0.5296
1189.90 0.5295
1190.00 0.5294
1190.10 0.5293
1190.20 0.5292
1190.30 0.5291
1190.40 0.529
1190.50 0.5289
1190.60 0.5288
1190.70 0.5287
1190.80 0.5286
1190.90 0.5285
1191.00 0.5284
1191.10 0.5283
1191.20 0.5282
1191.30 0.5281
1191.40 0.528
1191.50 0.5278
1191.60 0.5277
1191.70 0.5276
1191.80 0.5275
1191.90 0.5274
1192.00 0.5273
1192.10 0.5272
1192.20 0.5271
1192.30 0.527
1192.40 0.5269
1192.50 0.5268
1192.60 0.5267
1192.70 0.5266
1192.80 0.5265
1192.90 0.5264
1193.00 0.5263
1193.10 0.5262
1193.20 0.5261
1193.30 0.526
1193.40 0.5259
1193.50 0.5258
1193.60 0.5257
1193.70 0.5256
1193.80 0.5255
1193.90 0.5254
1194.00 0.5253
1194.10 0.5252
1194.20 0.525
1194.30 0.5249
1194.40 0.5248
1194.50 0.5247
1194.60 0.5246
1194.70 0.5245
1194.80 0.5244
1194.90 0.5243
1195.00 0.5242
1195.10 0.5241
1195.20 0.524
1195.30 0.5239
1195.40 0.5238
1195.50 0.5237
1195.60 0.5236
1195.70 0.5235
1195.80 0.5234
1195.90 0.5233
1196.00 0.5232
1196.10 0.5231
1196.20 0.523
1196.30 0.5229
1196.40 0.5228
1196.50 0.5227
1196.60 0.5226
1196.70 0.5225
1196.80 0.5224
1196.90 0.5223
1197.00 0.5222
1197.10 0.5221
1197.20 0.522
1197.30 0.5218
1197.40 0.5217
1197.50 0.5216
1197.60 0.5215
1197.70 0.5214
1197.80 0.5213
1197.90 0.5212
1198.00 0.5211
1198.10 0.521
1198.20 0.5209
1198.30 0.5208
1198.40 0.5207
1198.50 0.5206
1198.60 0.5205
1198.70 0.5204
1198.80 0.5203
1198.90 0.5202
1199.00 0.5201
1199.10 0.52
1199.20 0.5199
1199.30 0.5198
1199.40 0.5197
1199.50 0.5196
1199.60 0.5195
1199.70 0.5194
1199.80 0.5193
1199.90 0.5192
1200.00 0
