# Version 2.1 - nm, norm@500 to 1, cut digits, bergeron_60000_90.dat_60000
# Wavelength(nm)  Flambda(ergs/cm^s/s/nm)
300.00 6.439
300.10 6.431
300.20 6.424
300.30 6.416
300.40 6.408
300.50 6.4
300.60 6.392
300.70 6.384
300.80 6.377
300.90 6.369
301.00 6.361
301.10 6.353
301.20 6.346
301.30 6.338
301.40 6.33
301.50 6.322
301.60 6.315
301.70 6.307
301.80 6.299
301.90 6.292
302.00 6.284
302.10 6.276
302.20 6.269
302.30 6.261
302.40 6.254
302.50 6.246
302.60 6.238
302.70 6.231
302.80 6.223
302.90 6.216
303.00 6.208
303.10 6.201
303.20 6.193
303.30 6.186
303.40 6.178
303.50 6.171
303.60 6.163
303.70 6.156
303.80 6.148
303.90 6.141
304.00 6.133
304.10 6.126
304.20 6.119
304.30 6.111
304.40 6.104
304.50 6.096
304.60 6.089
304.70 6.082
304.80 6.074
304.90 6.067
305.00 6.06
305.10 6.052
305.20 6.045
305.30 6.038
305.40 6.031
305.50 6.023
305.60 6.016
305.70 6.009
305.80 6.002
305.90 5.994
306.00 5.987
306.10 5.98
306.20 5.973
306.30 5.966
306.40 5.959
306.50 5.951
306.60 5.944
306.70 5.937
306.80 5.93
306.90 5.923
307.00 5.916
307.10 5.909
307.20 5.902
307.30 5.895
307.40 5.888
307.50 5.88
307.60 5.873
307.70 5.866
307.80 5.859
307.90 5.852
308.00 5.845
308.10 5.838
308.20 5.831
308.30 5.825
308.40 5.818
308.50 5.811
308.60 5.804
308.70 5.797
308.80 5.79
308.90 5.783
309.00 5.776
309.10 5.769
309.20 5.762
309.30 5.755
309.40 5.749
309.50 5.742
309.60 5.735
309.70 5.728
309.80 5.721
309.90 5.715
310.00 5.708
310.10 5.701
310.20 5.694
310.30 5.688
310.40 5.681
310.50 5.674
310.60 5.667
310.70 5.661
310.80 5.654
310.90 5.647
311.00 5.641
311.10 5.634
311.20 5.627
311.30 5.621
311.40 5.614
311.50 5.607
311.60 5.601
311.70 5.594
311.80 5.587
311.90 5.581
312.00 5.574
312.10 5.568
312.20 5.561
312.30 5.555
312.40 5.548
312.50 5.541
312.60 5.535
312.70 5.528
312.80 5.522
312.90 5.515
313.00 5.509
313.10 5.502
313.20 5.496
313.30 5.489
313.40 5.483
313.50 5.477
313.60 5.47
313.70 5.464
313.80 5.457
313.90 5.451
314.00 5.445
314.10 5.438
314.20 5.432
314.30 5.425
314.40 5.419
314.50 5.413
314.60 5.406
314.70 5.4
314.80 5.394
314.90 5.387
315.00 5.381
315.10 5.375
315.20 5.369
315.30 5.362
315.40 5.356
315.50 5.35
315.60 5.343
315.70 5.337
315.80 5.331
315.90 5.325
316.00 5.319
316.10 5.312
316.20 5.306
316.30 5.3
316.40 5.294
316.50 5.288
316.60 5.282
316.70 5.275
316.80 5.269
316.90 5.263
317.00 5.257
317.10 5.251
317.20 5.245
317.30 5.239
317.40 5.233
317.50 5.227
317.60 5.221
317.70 5.214
317.80 5.208
317.90 5.202
318.00 5.196
318.10 5.19
318.20 5.184
318.30 5.178
318.40 5.172
318.50 5.166
318.60 5.16
318.70 5.154
318.80 5.148
318.90 5.142
319.00 5.136
319.10 5.131
319.20 5.125
319.30 5.119
319.40 5.113
319.50 5.107
319.60 5.101
319.70 5.095
319.80 5.089
319.90 5.083
320.00 5.078
320.10 5.072
320.20 5.066
320.30 5.06
320.40 5.054
320.50 5.048
320.60 5.043
320.70 5.037
320.80 5.031
320.90 5.025
321.00 5.019
321.10 5.014
321.20 5.008
321.30 5.002
321.40 4.996
321.50 4.991
321.60 4.985
321.70 4.979
321.80 4.974
321.90 4.968
322.00 4.962
322.10 4.956
322.20 4.951
322.30 4.945
322.40 4.939
322.50 4.934
322.60 4.928
322.70 4.923
322.80 4.917
322.90 4.911
323.00 4.906
323.10 4.9
323.20 4.894
323.30 4.889
323.40 4.883
323.50 4.878
323.60 4.872
323.70 4.867
323.80 4.861
323.90 4.856
324.00 4.85
324.10 4.844
324.20 4.839
324.30 4.833
324.40 4.828
324.50 4.822
324.60 4.817
324.70 4.812
324.80 4.806
324.90 4.801
325.00 4.795
325.10 4.79
325.20 4.784
325.30 4.779
325.40 4.773
325.50 4.768
325.60 4.763
325.70 4.757
325.80 4.752
325.90 4.746
326.00 4.741
326.10 4.736
326.20 4.73
326.30 4.725
326.40 4.72
326.50 4.714
326.60 4.709
326.70 4.704
326.80 4.698
326.90 4.693
327.00 4.688
327.10 4.682
327.20 4.677
327.30 4.672
327.40 4.667
327.50 4.661
327.60 4.656
327.70 4.651
327.80 4.646
327.90 4.64
328.00 4.635
328.10 4.63
328.20 4.625
328.30 4.619
328.40 4.614
328.50 4.609
328.60 4.604
328.70 4.599
328.80 4.594
328.90 4.588
329.00 4.583
329.10 4.578
329.20 4.573
329.30 4.568
329.40 4.563
329.50 4.558
329.60 4.553
329.70 4.547
329.80 4.542
329.90 4.537
330.00 4.532
330.10 4.527
330.20 4.522
330.30 4.517
330.40 4.512
330.50 4.507
330.60 4.502
330.70 4.497
330.80 4.492
330.90 4.487
331.00 4.482
331.10 4.477
331.20 4.472
331.30 4.467
331.40 4.462
331.50 4.457
331.60 4.452
331.70 4.447
331.80 4.442
331.90 4.437
332.00 4.432
332.10 4.427
332.20 4.422
332.30 4.417
332.40 4.412
332.50 4.408
332.60 4.403
332.70 4.398
332.80 4.393
332.90 4.388
333.00 4.383
333.10 4.378
333.20 4.373
333.30 4.369
333.40 4.364
333.50 4.359
333.60 4.354
333.70 4.349
333.80 4.344
333.90 4.34
334.00 4.335
334.10 4.33
334.20 4.325
334.30 4.32
334.40 4.316
334.50 4.311
334.60 4.306
334.70 4.301
334.80 4.297
334.90 4.292
335.00 4.287
335.10 4.282
335.20 4.278
335.30 4.273
335.40 4.268
335.50 4.264
335.60 4.259
335.70 4.254
335.80 4.249
335.90 4.245
336.00 4.24
336.10 4.235
336.20 4.231
336.30 4.226
336.40 4.221
336.50 4.217
336.60 4.212
336.70 4.208
336.80 4.203
336.90 4.198
337.00 4.194
337.10 4.189
337.20 4.185
337.30 4.18
337.40 4.175
337.50 4.171
337.60 4.166
337.70 4.162
337.80 4.157
337.90 4.152
338.00 4.148
338.10 4.143
338.20 4.139
338.30 4.134
338.40 4.13
338.50 4.125
338.60 4.121
338.70 4.116
338.80 4.112
338.90 4.107
339.00 4.103
339.10 4.098
339.20 4.094
339.30 4.089
339.40 4.085
339.50 4.081
339.60 4.076
339.70 4.072
339.80 4.067
339.90 4.063
340.00 4.058
340.10 4.054
340.20 4.05
340.30 4.045
340.40 4.041
340.50 4.036
340.60 4.032
340.70 4.028
340.80 4.023
340.90 4.019
341.00 4.014
341.10 4.01
341.20 4.006
341.30 4.001
341.40 3.997
341.50 3.993
341.60 3.988
341.70 3.984
341.80 3.98
341.90 3.975
342.00 3.971
342.10 3.967
342.20 3.963
342.30 3.958
342.40 3.954
342.50 3.95
342.60 3.945
342.70 3.941
342.80 3.937
342.90 3.933
343.00 3.928
343.10 3.924
343.20 3.92
343.30 3.916
343.40 3.912
343.50 3.907
343.60 3.903
343.70 3.899
343.80 3.895
343.90 3.89
344.00 3.886
344.10 3.882
344.20 3.878
344.30 3.874
344.40 3.87
344.50 3.865
344.60 3.861
344.70 3.857
344.80 3.853
344.90 3.849
345.00 3.845
345.10 3.841
345.20 3.836
345.30 3.832
345.40 3.828
345.50 3.824
345.60 3.82
345.70 3.816
345.80 3.812
345.90 3.808
346.00 3.804
346.10 3.8
346.20 3.796
346.30 3.791
346.40 3.787
346.50 3.783
346.60 3.779
346.70 3.775
346.80 3.771
346.90 3.767
347.00 3.763
347.10 3.759
347.20 3.755
347.30 3.751
347.40 3.747
347.50 3.743
347.60 3.739
347.70 3.735
347.80 3.731
347.90 3.727
348.00 3.723
348.10 3.719
348.20 3.715
348.30 3.711
348.40 3.707
348.50 3.704
348.60 3.7
348.70 3.696
348.80 3.692
348.90 3.688
349.00 3.684
349.10 3.68
349.20 3.676
349.30 3.672
349.40 3.668
349.50 3.664
349.60 3.661
349.70 3.657
349.80 3.653
349.90 3.649
350.00 3.645
350.10 3.641
350.20 3.637
350.30 3.633
350.40 3.63
350.50 3.626
350.60 3.622
350.70 3.618
350.80 3.614
350.90 3.61
351.00 3.607
351.10 3.603
351.20 3.599
351.30 3.595
351.40 3.591
351.50 3.588
351.60 3.584
351.70 3.58
351.80 3.576
351.90 3.573
352.00 3.569
352.10 3.565
352.20 3.561
352.30 3.558
352.40 3.554
352.50 3.55
352.60 3.546
352.70 3.543
352.80 3.539
352.90 3.535
353.00 3.531
353.10 3.528
353.20 3.524
353.30 3.52
353.40 3.517
353.50 3.513
353.60 3.509
353.70 3.506
353.80 3.502
353.90 3.498
354.00 3.495
354.10 3.491
354.20 3.487
354.30 3.484
354.40 3.48
354.50 3.476
354.60 3.473
354.70 3.469
354.80 3.465
354.90 3.462
355.00 3.458
355.10 3.455
355.20 3.451
355.30 3.447
355.40 3.444
355.50 3.44
355.60 3.437
355.70 3.433
355.80 3.429
355.90 3.426
356.00 3.422
356.10 3.419
356.20 3.415
356.30 3.412
356.40 3.408
356.50 3.404
356.60 3.401
356.70 3.397
356.80 3.394
356.90 3.39
357.00 3.387
357.10 3.383
357.20 3.38
357.30 3.376
357.40 3.373
357.50 3.369
357.60 3.366
357.70 3.362
357.80 3.359
357.90 3.355
358.00 3.352
358.10 3.348
358.20 3.345
358.30 3.341
358.40 3.338
358.50 3.334
358.60 3.331
358.70 3.328
358.80 3.324
358.90 3.321
359.00 3.317
359.10 3.314
359.20 3.31
359.30 3.307
359.40 3.304
359.50 3.3
359.60 3.297
359.70 3.293
359.80 3.29
359.90 3.286
360.00 3.283
360.10 3.28
360.20 3.276
360.30 3.273
360.40 3.27
360.50 3.266
360.60 3.263
360.70 3.26
360.80 3.256
360.90 3.253
361.00 3.249
361.10 3.246
361.20 3.243
361.30 3.239
361.40 3.236
361.50 3.233
361.60 3.229
361.70 3.226
361.80 3.223
361.90 3.22
362.00 3.216
362.10 3.213
362.20 3.21
362.30 3.206
362.40 3.203
362.50 3.2
362.60 3.196
362.70 3.193
362.80 3.19
362.90 3.187
363.00 3.183
363.10 3.18
363.20 3.177
363.30 3.174
363.40 3.17
363.50 3.167
363.60 3.164
363.70 3.161
363.80 3.157
363.90 3.154
364.00 3.151
364.10 3.148
364.20 3.145
364.30 3.141
364.40 3.138
364.50 3.135
364.60 3.132
364.70 3.129
364.80 3.125
364.90 3.122
365.00 3.119
365.10 3.116
365.20 3.113
365.30 3.11
365.40 3.106
365.50 3.103
365.60 3.1
365.70 3.097
365.80 3.094
365.90 3.091
366.00 3.087
366.10 3.084
366.20 3.081
366.30 3.078
366.40 3.075
366.50 3.072
366.60 3.069
366.70 3.065
366.80 3.062
366.90 3.059
367.00 3.056
367.10 3.053
367.20 3.05
367.30 3.047
367.40 3.043
367.50 3.04
367.60 3.037
367.70 3.034
367.80 3.031
367.90 3.028
368.00 3.025
368.10 3.022
368.20 3.018
368.30 3.015
368.40 3.012
368.50 3.009
368.60 3.006
368.70 3.003
368.80 3
368.90 2.996
369.00 2.993
369.10 2.99
369.20 2.987
369.30 2.984
369.40 2.981
369.50 2.978
369.60 2.974
369.70 2.971
369.80 2.968
369.90 2.965
370.00 2.962
370.10 2.959
370.20 2.956
370.30 2.953
370.40 2.95
370.50 2.947
370.60 2.944
370.70 2.941
370.80 2.937
370.90 2.934
371.00 2.931
371.10 2.928
371.20 2.925
371.30 2.922
371.40 2.919
371.50 2.916
371.60 2.913
371.70 2.91
371.80 2.907
371.90 2.904
372.00 2.901
372.10 2.898
372.20 2.895
372.30 2.892
372.40 2.89
372.50 2.887
372.60 2.884
372.70 2.881
372.80 2.878
372.90 2.875
373.00 2.872
373.10 2.87
373.20 2.867
373.30 2.864
373.40 2.861
373.50 2.858
373.60 2.855
373.70 2.853
373.80 2.85
373.90 2.847
374.00 2.844
374.10 2.841
374.20 2.838
374.30 2.835
374.40 2.832
374.50 2.829
374.60 2.827
374.70 2.824
374.80 2.821
374.90 2.818
375.00 2.815
375.10 2.812
375.20 2.809
375.30 2.806
375.40 2.803
375.50 2.8
375.60 2.798
375.70 2.795
375.80 2.792
375.90 2.789
376.00 2.786
376.10 2.783
376.20 2.78
376.30 2.778
376.40 2.775
376.50 2.772
376.60 2.769
376.70 2.766
376.80 2.763
376.90 2.761
377.00 2.758
377.10 2.755
377.20 2.752
377.30 2.75
377.40 2.747
377.50 2.744
377.60 2.741
377.70 2.739
377.80 2.736
377.90 2.733
378.00 2.73
378.10 2.728
378.20 2.725
378.30 2.722
378.40 2.719
378.50 2.717
378.60 2.714
378.70 2.711
378.80 2.709
378.90 2.706
379.00 2.703
379.10 2.701
379.20 2.698
379.30 2.695
379.40 2.693
379.50 2.69
379.60 2.687
379.70 2.685
379.80 2.682
379.90 2.679
380.00 2.677
380.10 2.674
380.20 2.671
380.30 2.669
380.40 2.666
380.50 2.664
380.60 2.661
380.70 2.658
380.80 2.656
380.90 2.653
381.00 2.651
381.10 2.648
381.20 2.646
381.30 2.643
381.40 2.64
381.50 2.638
381.60 2.635
381.70 2.633
381.80 2.63
381.90 2.628
382.00 2.625
382.10 2.623
382.20 2.62
382.30 2.618
382.40 2.615
382.50 2.613
382.60 2.61
382.70 2.608
382.80 2.605
382.90 2.603
383.00 2.6
383.10 2.598
383.20 2.595
383.30 2.593
383.40 2.59
383.50 2.588
383.60 2.585
383.70 2.583
383.80 2.58
383.90 2.578
384.00 2.576
384.10 2.573
384.20 2.571
384.30 2.569
384.40 2.566
384.50 2.564
384.60 2.561
384.70 2.559
384.80 2.557
384.90 2.554
385.00 2.552
385.10 2.55
385.20 2.547
385.30 2.545
385.40 2.543
385.50 2.54
385.60 2.538
385.70 2.536
385.80 2.533
385.90 2.531
386.00 2.528
386.10 2.526
386.20 2.524
386.30 2.521
386.40 2.519
386.50 2.517
386.60 2.514
386.70 2.512
386.80 2.509
386.90 2.507
387.00 2.505
387.10 2.502
387.20 2.5
387.30 2.498
387.40 2.495
387.50 2.493
387.60 2.49
387.70 2.488
387.80 2.486
387.90 2.483
388.00 2.481
388.10 2.479
388.20 2.476
388.30 2.474
388.40 2.472
388.50 2.47
388.60 2.467
388.70 2.465
388.80 2.463
388.90 2.461
389.00 2.459
389.10 2.456
389.20 2.454
389.30 2.452
389.40 2.45
389.50 2.448
389.60 2.446
389.70 2.444
389.80 2.442
389.90 2.44
390.00 2.438
390.10 2.436
390.20 2.434
390.30 2.432
390.40 2.43
390.50 2.428
390.60 2.426
390.70 2.424
390.80 2.422
390.90 2.42
391.00 2.418
391.10 2.416
391.20 2.414
391.30 2.412
391.40 2.41
391.50 2.408
391.60 2.405
391.70 2.403
391.80 2.401
391.90 2.399
392.00 2.397
392.10 2.395
392.20 2.392
392.30 2.39
392.40 2.388
392.50 2.386
392.60 2.383
392.70 2.381
392.80 2.379
392.90 2.377
393.00 2.374
393.10 2.372
393.20 2.37
393.30 2.367
393.40 2.365
393.50 2.362
393.60 2.36
393.70 2.357
393.80 2.355
393.90 2.352
394.00 2.35
394.10 2.347
394.20 2.345
394.30 2.342
394.40 2.34
394.50 2.337
394.60 2.335
394.70 2.332
394.80 2.329
394.90 2.327
395.00 2.324
395.10 2.321
395.20 2.319
395.30 2.316
395.40 2.313
395.50 2.311
395.60 2.308
395.70 2.305
395.80 2.302
395.90 2.3
396.00 2.297
396.10 2.294
396.20 2.292
396.30 2.289
396.40 2.286
396.50 2.284
396.60 2.281
396.70 2.279
396.80 2.276
396.90 2.274
397.00 2.271
397.10 2.27
397.20 2.269
397.30 2.267
397.40 2.266
397.50 2.265
397.60 2.264
397.70 2.263
397.80 2.261
397.90 2.26
398.00 2.259
398.10 2.258
398.20 2.257
398.30 2.256
398.40 2.255
398.50 2.254
398.60 2.253
398.70 2.252
398.80 2.251
398.90 2.25
399.00 2.249
399.10 2.248
399.20 2.246
399.30 2.245
399.40 2.244
399.50 2.243
399.60 2.242
399.70 2.24
399.80 2.239
399.90 2.238
400.00 2.236
400.10 2.235
400.20 2.234
400.30 2.232
400.40 2.231
400.50 2.229
400.60 2.228
400.70 2.226
400.80 2.225
400.90 2.223
401.00 2.222
401.10 2.22
401.20 2.219
401.30 2.217
401.40 2.215
401.50 2.214
401.60 2.212
401.70 2.21
401.80 2.208
401.90 2.206
402.00 2.205
402.10 2.203
402.20 2.201
402.30 2.199
402.40 2.197
402.50 2.195
402.60 2.193
402.70 2.191
402.80 2.189
402.90 2.187
403.00 2.185
403.10 2.182
403.20 2.18
403.30 2.178
403.40 2.176
403.50 2.174
403.60 2.171
403.70 2.169
403.80 2.167
403.90 2.164
404.00 2.162
404.10 2.159
404.20 2.157
404.30 2.154
404.40 2.152
404.50 2.149
404.60 2.146
404.70 2.144
404.80 2.141
404.90 2.138
405.00 2.135
405.10 2.133
405.20 2.13
405.30 2.127
405.40 2.124
405.50 2.121
405.60 2.118
405.70 2.115
405.80 2.112
405.90 2.109
406.00 2.105
406.10 2.102
406.20 2.099
406.30 2.096
406.40 2.092
406.50 2.089
406.60 2.085
406.70 2.082
406.80 2.079
406.90 2.075
407.00 2.071
407.10 2.068
407.20 2.064
407.30 2.06
407.40 2.057
407.50 2.053
407.60 2.049
407.70 2.045
407.80 2.041
407.90 2.038
408.00 2.034
408.10 2.03
408.20 2.026
408.30 2.022
408.40 2.018
408.50 2.014
408.60 2.01
408.70 2.006
408.80 2.002
408.90 1.998
409.00 1.994
409.10 1.99
409.20 1.986
409.30 1.983
409.40 1.979
409.50 1.976
409.60 1.973
409.70 1.97
409.80 1.968
409.90 1.966
410.00 1.965
410.10 1.964
410.20 1.963
410.30 1.96
410.40 1.958
410.50 1.956
410.60 1.955
410.70 1.954
410.80 1.954
410.90 1.954
411.00 1.954
411.10 1.954
411.20 1.955
411.30 1.955
411.40 1.956
411.50 1.956
411.60 1.957
411.70 1.958
411.80 1.958
411.90 1.959
412.00 1.96
412.10 1.96
412.20 1.961
412.30 1.961
412.40 1.962
412.50 1.963
412.60 1.963
412.70 1.964
412.80 1.964
412.90 1.964
413.00 1.965
413.10 1.965
413.20 1.965
413.30 1.966
413.40 1.966
413.50 1.966
413.60 1.966
413.70 1.966
413.80 1.966
413.90 1.966
414.00 1.966
414.10 1.966
414.20 1.966
414.30 1.966
414.40 1.966
414.50 1.965
414.60 1.965
414.70 1.965
414.80 1.965
414.90 1.964
415.00 1.964
415.10 1.963
415.20 1.963
415.30 1.963
415.40 1.962
415.50 1.961
415.60 1.961
415.70 1.96
415.80 1.96
415.90 1.959
416.00 1.958
416.10 1.958
416.20 1.957
416.30 1.956
416.40 1.955
416.50 1.954
416.60 1.954
416.70 1.953
416.80 1.952
416.90 1.951
417.00 1.95
417.10 1.949
417.20 1.948
417.30 1.947
417.40 1.946
417.50 1.945
417.60 1.944
417.70 1.943
417.80 1.942
417.90 1.94
418.00 1.939
418.10 1.938
418.20 1.937
418.30 1.936
418.40 1.934
418.50 1.933
418.60 1.932
418.70 1.931
418.80 1.929
418.90 1.928
419.00 1.927
419.10 1.925
419.20 1.924
419.30 1.923
419.40 1.921
419.50 1.92
419.60 1.918
419.70 1.917
419.80 1.916
419.90 1.914
420.00 1.913
420.10 1.911
420.20 1.91
420.30 1.908
420.40 1.907
420.50 1.905
420.60 1.904
420.70 1.902
420.80 1.9
420.90 1.899
421.00 1.897
421.10 1.896
421.20 1.894
421.30 1.892
421.40 1.891
421.50 1.889
421.60 1.887
421.70 1.886
421.80 1.884
421.90 1.882
422.00 1.881
422.10 1.879
422.20 1.877
422.30 1.875
422.40 1.874
422.50 1.872
422.60 1.87
422.70 1.868
422.80 1.866
422.90 1.865
423.00 1.863
423.10 1.861
423.20 1.859
423.30 1.857
423.40 1.855
423.50 1.853
423.60 1.851
423.70 1.849
423.80 1.847
423.90 1.845
424.00 1.843
424.10 1.841
424.20 1.839
424.30 1.837
424.40 1.835
424.50 1.833
424.60 1.831
424.70 1.829
424.80 1.827
424.90 1.825
425.00 1.823
425.10 1.821
425.20 1.818
425.30 1.816
425.40 1.814
425.50 1.812
425.60 1.809
425.70 1.807
425.80 1.805
425.90 1.802
426.00 1.8
426.10 1.798
426.20 1.795
426.30 1.793
426.40 1.79
426.50 1.788
426.60 1.785
426.70 1.783
426.80 1.78
426.90 1.778
427.00 1.775
427.10 1.772
427.20 1.77
427.30 1.767
427.40 1.764
427.50 1.762
427.60 1.759
427.70 1.756
427.80 1.753
427.90 1.75
428.00 1.747
428.10 1.744
428.20 1.741
428.30 1.738
428.40 1.735
428.50 1.732
428.60 1.729
428.70 1.725
428.80 1.722
428.90 1.719
429.00 1.716
429.10 1.712
429.20 1.709
429.30 1.705
429.40 1.702
429.50 1.698
429.60 1.694
429.70 1.691
429.80 1.687
429.90 1.683
430.00 1.679
430.10 1.675
430.20 1.671
430.30 1.667
430.40 1.663
430.50 1.659
430.60 1.655
430.70 1.651
430.80 1.646
430.90 1.642
431.00 1.638
431.10 1.633
431.20 1.629
431.30 1.624
431.40 1.619
431.50 1.615
431.60 1.61
431.70 1.605
431.80 1.6
431.90 1.595
432.00 1.59
432.10 1.585
432.20 1.58
432.30 1.575
432.40 1.57
432.50 1.565
432.60 1.56
432.70 1.555
432.80 1.549
432.90 1.544
433.00 1.539
433.10 1.534
433.20 1.528
433.30 1.523
433.40 1.518
433.50 1.512
433.60 1.506
433.70 1.5
433.80 1.493
433.90 1.486
434.00 1.48
434.10 1.479
434.20 1.483
434.30 1.488
434.40 1.492
434.50 1.496
434.60 1.499
434.70 1.502
434.80 1.505
434.90 1.508
435.00 1.511
435.10 1.513
435.20 1.516
435.30 1.519
435.40 1.521
435.50 1.524
435.60 1.527
435.70 1.529
435.80 1.532
435.90 1.534
436.00 1.536
436.10 1.539
436.20 1.541
436.30 1.543
436.40 1.545
436.50 1.547
436.60 1.549
436.70 1.551
436.80 1.553
436.90 1.555
437.00 1.557
437.10 1.559
437.20 1.56
437.30 1.562
437.40 1.563
437.50 1.565
437.60 1.566
437.70 1.567
437.80 1.569
437.90 1.57
438.00 1.571
438.10 1.572
438.20 1.573
438.30 1.574
438.40 1.575
438.50 1.575
438.60 1.576
438.70 1.577
438.80 1.578
438.90 1.578
439.00 1.579
439.10 1.579
439.20 1.58
439.30 1.58
439.40 1.58
439.50 1.581
439.60 1.581
439.70 1.581
439.80 1.581
439.90 1.581
440.00 1.582
440.10 1.582
440.20 1.582
440.30 1.582
440.40 1.582
440.50 1.581
440.60 1.581
440.70 1.581
440.80 1.581
440.90 1.581
441.00 1.581
441.10 1.58
441.20 1.58
441.30 1.58
441.40 1.579
441.50 1.579
441.60 1.578
441.70 1.578
441.80 1.577
441.90 1.577
442.00 1.576
442.10 1.576
442.20 1.575
442.30 1.575
442.40 1.574
442.50 1.574
442.60 1.573
442.70 1.572
442.80 1.572
442.90 1.571
443.00 1.57
443.10 1.569
443.20 1.569
443.30 1.568
443.40 1.567
443.50 1.566
443.60 1.566
443.70 1.565
443.80 1.564
443.90 1.563
444.00 1.562
444.10 1.561
444.20 1.561
444.30 1.56
444.40 1.559
444.50 1.558
444.60 1.557
444.70 1.556
444.80 1.555
444.90 1.554
445.00 1.553
445.10 1.552
445.20 1.551
445.30 1.55
445.40 1.549
445.50 1.548
445.60 1.547
445.70 1.546
445.80 1.545
445.90 1.544
446.00 1.543
446.10 1.542
446.20 1.541
446.30 1.54
446.40 1.539
446.50 1.538
446.60 1.537
446.70 1.536
446.80 1.535
446.90 1.534
447.00 1.533
447.10 1.532
447.20 1.53
447.30 1.529
447.40 1.528
447.50 1.527
447.60 1.526
447.70 1.525
447.80 1.524
447.90 1.523
448.00 1.522
448.10 1.521
448.20 1.519
448.30 1.518
448.40 1.517
448.50 1.516
448.60 1.515
448.70 1.514
448.80 1.513
448.90 1.511
449.00 1.51
449.10 1.509
449.20 1.508
449.30 1.507
449.40 1.506
449.50 1.505
449.60 1.503
449.70 1.502
449.80 1.501
449.90 1.5
450.00 1.499
450.10 1.498
450.20 1.496
450.30 1.495
450.40 1.494
450.50 1.493
450.60 1.492
450.70 1.491
450.80 1.489
450.90 1.488
451.00 1.487
451.10 1.486
451.20 1.485
451.30 1.484
451.40 1.482
451.50 1.481
451.60 1.48
451.70 1.479
451.80 1.478
451.90 1.476
452.00 1.475
452.10 1.474
452.20 1.473
452.30 1.472
452.40 1.471
452.50 1.469
452.60 1.468
452.70 1.467
452.80 1.466
452.90 1.465
453.00 1.463
453.10 1.462
453.20 1.461
453.30 1.46
453.40 1.459
453.50 1.458
453.60 1.456
453.70 1.455
453.80 1.454
453.90 1.453
454.00 1.452
454.10 1.45
454.20 1.449
454.30 1.448
454.40 1.447
454.50 1.446
454.60 1.445
454.70 1.443
454.80 1.442
454.90 1.441
455.00 1.44
455.10 1.439
455.20 1.438
455.30 1.436
455.40 1.435
455.50 1.434
455.60 1.433
455.70 1.432
455.80 1.43
455.90 1.429
456.00 1.428
456.10 1.427
456.20 1.426
456.30 1.425
456.40 1.423
456.50 1.422
456.60 1.421
456.70 1.42
456.80 1.419
456.90 1.418
457.00 1.416
457.10 1.415
457.20 1.414
457.30 1.413
457.40 1.412
457.50 1.41
457.60 1.409
457.70 1.408
457.80 1.407
457.90 1.406
458.00 1.405
458.10 1.403
458.20 1.402
458.30 1.401
458.40 1.4
458.50 1.399
458.60 1.398
458.70 1.397
458.80 1.395
458.90 1.394
459.00 1.393
459.10 1.392
459.20 1.391
459.30 1.39
459.40 1.388
459.50 1.387
459.60 1.386
459.70 1.385
459.80 1.384
459.90 1.383
460.00 1.381
460.10 1.38
460.20 1.379
460.30 1.378
460.40 1.377
460.50 1.376
460.60 1.374
460.70 1.373
460.80 1.372
460.90 1.371
461.00 1.37
461.10 1.369
461.20 1.368
461.30 1.366
461.40 1.365
461.50 1.364
461.60 1.363
461.70 1.362
461.80 1.361
461.90 1.36
462.00 1.358
462.10 1.357
462.20 1.356
462.30 1.355
462.40 1.354
462.50 1.353
462.60 1.352
462.70 1.35
462.80 1.349
462.90 1.348
463.00 1.347
463.10 1.346
463.20 1.345
463.30 1.344
463.40 1.342
463.50 1.341
463.60 1.34
463.70 1.339
463.80 1.338
463.90 1.337
464.00 1.336
464.10 1.334
464.20 1.333
464.30 1.332
464.40 1.331
464.50 1.33
464.60 1.329
464.70 1.328
464.80 1.327
464.90 1.325
465.00 1.324
465.10 1.323
465.20 1.322
465.30 1.321
465.40 1.32
465.50 1.319
465.60 1.317
465.70 1.316
465.80 1.315
465.90 1.314
466.00 1.313
466.10 1.312
466.20 1.311
466.30 1.31
466.40 1.308
466.50 1.307
466.60 1.306
466.70 1.305
466.80 1.304
466.90 1.303
467.00 1.302
467.10 1.3
467.20 1.299
467.30 1.298
467.40 1.297
467.50 1.296
467.60 1.295
467.70 1.294
467.80 1.293
467.90 1.291
468.00 1.29
468.10 1.289
468.20 1.288
468.30 1.287
468.40 1.286
468.50 1.285
468.60 1.283
468.70 1.282
468.80 1.281
468.90 1.28
469.00 1.279
469.10 1.278
469.20 1.277
469.30 1.275
469.40 1.274
469.50 1.273
469.60 1.272
469.70 1.271
469.80 1.27
469.90 1.269
470.00 1.267
470.10 1.266
470.20 1.265
470.30 1.264
470.40 1.263
470.50 1.262
470.60 1.261
470.70 1.259
470.80 1.258
470.90 1.257
471.00 1.256
471.10 1.255
471.20 1.254
471.30 1.252
471.40 1.251
471.50 1.25
471.60 1.249
471.70 1.248
471.80 1.247
471.90 1.245
472.00 1.244
472.10 1.243
472.20 1.242
472.30 1.241
472.40 1.239
472.50 1.238
472.60 1.237
472.70 1.236
472.80 1.235
472.90 1.234
473.00 1.232
473.10 1.231
473.20 1.23
473.30 1.229
473.40 1.227
473.50 1.226
473.60 1.225
473.70 1.224
473.80 1.223
473.90 1.221
474.00 1.22
474.10 1.219
474.20 1.218
474.30 1.216
474.40 1.215
474.50 1.214
474.60 1.212
474.70 1.211
474.80 1.21
474.90 1.209
475.00 1.207
475.10 1.206
475.20 1.205
475.30 1.203
475.40 1.202
475.50 1.201
475.60 1.199
475.70 1.198
475.80 1.197
475.90 1.195
476.00 1.194
476.10 1.193
476.20 1.191
476.30 1.19
476.40 1.189
476.50 1.187
476.60 1.186
476.70 1.184
476.80 1.183
476.90 1.181
477.00 1.18
477.10 1.179
477.20 1.177
477.30 1.176
477.40 1.174
477.50 1.172
477.60 1.171
477.70 1.169
477.80 1.168
477.90 1.166
478.00 1.165
478.10 1.163
478.20 1.162
478.30 1.16
478.40 1.158
478.50 1.156
478.60 1.155
478.70 1.153
478.80 1.151
478.90 1.15
479.00 1.148
479.10 1.146
479.20 1.144
479.30 1.143
479.40 1.141
479.50 1.139
479.60 1.137
479.70 1.135
479.80 1.133
479.90 1.131
480.00 1.129
480.10 1.127
480.20 1.125
480.30 1.123
480.40 1.121
480.50 1.119
480.60 1.116
480.70 1.114
480.80 1.112
480.90 1.11
481.00 1.108
481.10 1.106
481.20 1.103
481.30 1.101
481.40 1.098
481.50 1.096
481.60 1.093
481.70 1.09
481.80 1.088
481.90 1.085
482.00 1.083
482.10 1.08
482.20 1.077
482.30 1.074
482.40 1.071
482.50 1.069
482.60 1.066
482.70 1.063
482.80 1.06
482.90 1.057
483.00 1.054
483.10 1.051
483.20 1.047
483.30 1.044
483.40 1.04
483.50 1.037
483.60 1.033
483.70 1.03
483.80 1.026
483.90 1.023
484.00 1.019
484.10 1.016
484.20 1.012
484.30 1.008
484.40 1.004
484.50 1
484.60 0.9963
484.70 0.9923
484.80 0.9882
484.90 0.9841
485.00 0.98
485.10 0.976
485.20 0.9719
485.30 0.9678
485.40 0.9639
485.50 0.96
485.60 0.9565
485.70 0.9533
485.80 0.9517
485.90 0.951
486.00 0.9545
486.10 0.966
486.20 0.9612
486.30 0.9498
486.40 0.9476
486.50 0.9468
486.60 0.9478
486.70 0.9497
486.80 0.9519
486.90 0.9544
487.00 0.9569
487.10 0.9595
487.20 0.9621
487.30 0.9647
487.40 0.9673
487.50 0.9699
487.60 0.9725
487.70 0.9749
487.80 0.9772
487.90 0.9796
488.00 0.9819
488.10 0.9843
488.20 0.9863
488.30 0.9882
488.40 0.9901
488.50 0.992
488.60 0.9938
488.70 0.9957
488.80 0.9976
488.90 0.9995
489.00 1.001
489.10 1.003
489.20 1.005
489.30 1.006
489.40 1.007
489.50 1.009
489.60 1.01
489.70 1.011
489.80 1.012
489.90 1.014
490.00 1.015
490.10 1.016
490.20 1.017
490.30 1.018
490.40 1.019
490.50 1.02
490.60 1.02
490.70 1.021
490.80 1.022
490.90 1.023
491.00 1.024
491.10 1.024
491.20 1.025
491.30 1.025
491.40 1.026
491.50 1.026
491.60 1.027
491.70 1.027
491.80 1.027
491.90 1.028
492.00 1.028
492.10 1.029
492.20 1.029
492.30 1.029
492.40 1.029
492.50 1.029
492.60 1.029
492.70 1.029
492.80 1.029
492.90 1.029
493.00 1.03
493.10 1.03
493.20 1.03
493.30 1.029
493.40 1.029
493.50 1.029
493.60 1.029
493.70 1.029
493.80 1.029
493.90 1.029
494.00 1.029
494.10 1.029
494.20 1.028
494.30 1.028
494.40 1.028
494.50 1.027
494.60 1.027
494.70 1.027
494.80 1.027
494.90 1.026
495.00 1.026
495.10 1.026
495.20 1.025
495.30 1.025
495.40 1.025
495.50 1.024
495.60 1.024
495.70 1.023
495.80 1.023
495.90 1.023
496.00 1.022
496.10 1.022
496.20 1.021
496.30 1.021
496.40 1.02
496.50 1.02
496.60 1.019
496.70 1.019
496.80 1.018
496.90 1.018
497.00 1.017
497.10 1.017
497.20 1.016
497.30 1.016
497.40 1.015
497.50 1.015
497.60 1.014
497.70 1.014
497.80 1.013
497.90 1.013
498.00 1.012
498.10 1.012
498.20 1.011
498.30 1.01
498.40 1.01
498.50 1.009
498.60 1.009
498.70 1.008
498.80 1.007
498.90 1.007
499.00 1.006
499.10 1.006
499.20 1.005
499.30 1.004
499.40 1.004
499.50 1.003
499.60 1.002
499.70 1.002
499.80 1.001
499.90 1.001
500.00 1
500.10 0.9994
500.20 0.9987
500.30 0.9981
500.40 0.9974
500.50 0.9968
500.60 0.9961
500.70 0.9955
500.80 0.9949
500.90 0.9942
501.00 0.9936
501.10 0.9929
501.20 0.9923
501.30 0.9916
501.40 0.9909
501.50 0.9903
501.60 0.9896
501.70 0.9889
501.80 0.9883
501.90 0.9876
502.00 0.987
502.10 0.9863
502.20 0.9856
502.30 0.9849
502.40 0.9843
502.50 0.9836
502.60 0.9829
502.70 0.9823
502.80 0.9816
502.90 0.9809
503.00 0.9802
503.10 0.9796
503.20 0.9789
503.30 0.9782
503.40 0.9775
503.50 0.9768
503.60 0.9762
503.70 0.9755
503.80 0.9748
503.90 0.9741
504.00 0.9734
504.10 0.9728
504.20 0.9721
504.30 0.9714
504.40 0.9707
504.50 0.97
504.60 0.9693
504.70 0.9686
504.80 0.968
504.90 0.9673
505.00 0.9666
505.10 0.9659
505.20 0.9652
505.30 0.9645
505.40 0.9638
505.50 0.9632
505.60 0.9625
505.70 0.9618
505.80 0.9611
505.90 0.9604
506.00 0.9597
506.10 0.959
506.20 0.9584
506.30 0.9577
506.40 0.957
506.50 0.9563
506.60 0.9556
506.70 0.9549
506.80 0.9542
506.90 0.9535
507.00 0.9529
507.10 0.9522
507.20 0.9515
507.30 0.9508
507.40 0.9501
507.50 0.9494
507.60 0.9487
507.70 0.948
507.80 0.9474
507.90 0.9467
508.00 0.946
508.10 0.9453
508.20 0.9446
508.30 0.9439
508.40 0.9432
508.50 0.9426
508.60 0.9419
508.70 0.9412
508.80 0.9405
508.90 0.9398
509.00 0.9391
509.10 0.9385
509.20 0.9378
509.30 0.9371
509.40 0.9364
509.50 0.9357
509.60 0.935
509.70 0.9344
509.80 0.9337
509.90 0.933
510.00 0.9323
510.10 0.9316
510.20 0.931
510.30 0.9303
510.40 0.9296
510.50 0.9289
510.60 0.9282
510.70 0.9276
510.80 0.9269
510.90 0.9262
511.00 0.9255
511.10 0.9249
511.20 0.9242
511.30 0.9235
511.40 0.9228
511.50 0.9222
511.60 0.9215
511.70 0.9208
511.80 0.9201
511.90 0.9195
512.00 0.9188
512.10 0.9181
512.20 0.9174
512.30 0.9168
512.40 0.9161
512.50 0.9154
512.60 0.9147
512.70 0.9141
512.80 0.9134
512.90 0.9127
513.00 0.9121
513.10 0.9114
513.20 0.9107
513.30 0.9101
513.40 0.9094
513.50 0.9087
513.60 0.9081
513.70 0.9074
513.80 0.9067
513.90 0.9061
514.00 0.9054
514.10 0.9047
514.20 0.9041
514.30 0.9034
514.40 0.9028
514.50 0.9021
514.60 0.9014
514.70 0.9008
514.80 0.9001
514.90 0.8994
515.00 0.8988
515.10 0.8981
515.20 0.8975
515.30 0.8968
515.40 0.8962
515.50 0.8955
515.60 0.8948
515.70 0.8942
515.80 0.8935
515.90 0.8929
516.00 0.8922
516.10 0.8916
516.20 0.8909
516.30 0.8903
516.40 0.8896
516.50 0.8889
516.60 0.8883
516.70 0.8876
516.80 0.887
516.90 0.8863
517.00 0.8857
517.10 0.885
517.20 0.8844
517.30 0.8837
517.40 0.8831
517.50 0.8825
517.60 0.8818
517.70 0.8812
517.80 0.8805
517.90 0.8799
518.00 0.8792
518.10 0.8786
518.20 0.8779
518.30 0.8773
518.40 0.8767
518.50 0.876
518.60 0.8754
518.70 0.8747
518.80 0.8741
518.90 0.8734
519.00 0.8728
519.10 0.8722
519.20 0.8715
519.30 0.8709
519.40 0.8703
519.50 0.8696
519.60 0.869
519.70 0.8683
519.80 0.8677
519.90 0.8671
520.00 0.8664
520.10 0.8658
520.20 0.8652
520.30 0.8645
520.40 0.8639
520.50 0.8633
520.60 0.8626
520.70 0.862
520.80 0.8614
520.90 0.8608
521.00 0.8601
521.10 0.8595
521.20 0.8589
521.30 0.8582
521.40 0.8576
521.50 0.857
521.60 0.8564
521.70 0.8557
521.80 0.8551
521.90 0.8545
522.00 0.8539
522.10 0.8532
522.20 0.8526
522.30 0.852
522.40 0.8514
522.50 0.8507
522.60 0.8501
522.70 0.8495
522.80 0.8489
522.90 0.8483
523.00 0.8476
523.10 0.847
523.20 0.8464
523.30 0.8458
523.40 0.8452
523.50 0.8446
523.60 0.8439
523.70 0.8433
523.80 0.8427
523.90 0.8421
524.00 0.8415
524.10 0.8409
524.20 0.8403
524.30 0.8397
524.40 0.839
524.50 0.8384
524.60 0.8378
524.70 0.8372
524.80 0.8366
524.90 0.836
525.00 0.8354
525.10 0.8348
525.20 0.8342
525.30 0.8336
525.40 0.833
525.50 0.8324
525.60 0.8317
525.70 0.8311
525.80 0.8305
525.90 0.8299
526.00 0.8293
526.10 0.8287
526.20 0.8281
526.30 0.8275
526.40 0.8269
526.50 0.8263
526.60 0.8257
526.70 0.8251
526.80 0.8245
526.90 0.8239
527.00 0.8233
527.10 0.8227
527.20 0.8221
527.30 0.8215
527.40 0.8209
527.50 0.8204
527.60 0.8198
527.70 0.8192
527.80 0.8186
527.90 0.818
528.00 0.8174
528.10 0.8168
528.20 0.8162
528.30 0.8156
528.40 0.815
528.50 0.8144
528.60 0.8138
528.70 0.8133
528.80 0.8127
528.90 0.8121
529.00 0.8115
529.10 0.8109
529.20 0.8103
529.30 0.8097
529.40 0.8091
529.50 0.8086
529.60 0.808
529.70 0.8074
529.80 0.8068
529.90 0.8062
530.00 0.8056
530.10 0.8051
530.20 0.8045
530.30 0.8039
530.40 0.8033
530.50 0.8027
530.60 0.8022
530.70 0.8016
530.80 0.801
530.90 0.8004
531.00 0.7999
531.10 0.7993
531.20 0.7987
531.30 0.7981
531.40 0.7975
531.50 0.797
531.60 0.7964
531.70 0.7958
531.80 0.7953
531.90 0.7947
532.00 0.7941
532.10 0.7935
532.20 0.793
532.30 0.7924
532.40 0.7918
532.50 0.7913
532.60 0.7907
532.70 0.7901
532.80 0.7895
532.90 0.789
533.00 0.7884
533.10 0.7878
533.20 0.7873
533.30 0.7867
533.40 0.7862
533.50 0.7856
533.60 0.785
533.70 0.7845
533.80 0.7839
533.90 0.7833
534.00 0.7828
534.10 0.7822
534.20 0.7816
534.30 0.7811
534.40 0.7805
534.50 0.78
534.60 0.7794
534.70 0.7788
534.80 0.7783
534.90 0.7777
535.00 0.7772
535.10 0.7766
535.20 0.7761
535.30 0.7755
535.40 0.775
535.50 0.7744
535.60 0.7738
535.70 0.7733
535.80 0.7727
535.90 0.7722
536.00 0.7716
536.10 0.7711
536.20 0.7705
536.30 0.77
536.40 0.7694
536.50 0.7689
536.60 0.7683
536.70 0.7678
536.80 0.7672
536.90 0.7667
537.00 0.7661
537.10 0.7656
537.20 0.765
537.30 0.7645
537.40 0.7639
537.50 0.7634
537.60 0.7629
537.70 0.7623
537.80 0.7618
537.90 0.7612
538.00 0.7607
538.10 0.7601
538.20 0.7596
538.30 0.7591
538.40 0.7585
538.50 0.758
538.60 0.7574
538.70 0.7569
538.80 0.7564
538.90 0.7558
539.00 0.7553
539.10 0.7547
539.20 0.7542
539.30 0.7537
539.40 0.7531
539.50 0.7526
539.60 0.7521
539.70 0.7515
539.80 0.751
539.90 0.7505
540.00 0.7499
540.10 0.7494
540.20 0.7489
540.30 0.7483
540.40 0.7478
540.50 0.7473
540.60 0.7467
540.70 0.7462
540.80 0.7457
540.90 0.7452
541.00 0.7446
541.10 0.7441
541.20 0.7436
541.30 0.743
541.40 0.7425
541.50 0.742
541.60 0.7415
541.70 0.7409
541.80 0.7404
541.90 0.7399
542.00 0.7394
542.10 0.7388
542.20 0.7383
542.30 0.7378
542.40 0.7373
542.50 0.7368
542.60 0.7362
542.70 0.7357
542.80 0.7352
542.90 0.7347
543.00 0.7341
543.10 0.7336
543.20 0.7331
543.30 0.7326
543.40 0.7321
543.50 0.7316
543.60 0.731
543.70 0.7305
543.80 0.73
543.90 0.7295
544.00 0.729
544.10 0.7285
544.20 0.728
544.30 0.7274
544.40 0.7269
544.50 0.7264
544.60 0.7259
544.70 0.7254
544.80 0.7249
544.90 0.7244
545.00 0.7239
545.10 0.7233
545.20 0.7228
545.30 0.7223
545.40 0.7218
545.50 0.7213
545.60 0.7208
545.70 0.7203
545.80 0.7198
545.90 0.7193
546.00 0.7188
546.10 0.7183
546.20 0.7178
546.30 0.7173
546.40 0.7168
546.50 0.7163
546.60 0.7158
546.70 0.7152
546.80 0.7147
546.90 0.7142
547.00 0.7137
547.10 0.7132
547.20 0.7127
547.30 0.7122
547.40 0.7117
547.50 0.7112
547.60 0.7107
547.70 0.7102
547.80 0.7097
547.90 0.7092
548.00 0.7088
548.10 0.7083
548.20 0.7078
548.30 0.7073
548.40 0.7068
548.50 0.7063
548.60 0.7058
548.70 0.7053
548.80 0.7048
548.90 0.7043
549.00 0.7038
549.10 0.7033
549.20 0.7028
549.30 0.7023
549.40 0.7018
549.50 0.7013
549.60 0.7009
549.70 0.7004
549.80 0.6999
549.90 0.6994
550.00 0.6989
550.10 0.6984
550.20 0.6979
550.30 0.6974
550.40 0.6969
550.50 0.6965
550.60 0.696
550.70 0.6955
550.80 0.695
550.90 0.6945
551.00 0.694
551.10 0.6936
551.20 0.6931
551.30 0.6926
551.40 0.6921
551.50 0.6916
551.60 0.6911
551.70 0.6907
551.80 0.6902
551.90 0.6897
552.00 0.6892
552.10 0.6887
552.20 0.6883
552.30 0.6878
552.40 0.6873
552.50 0.6868
552.60 0.6863
552.70 0.6859
552.80 0.6854
552.90 0.6849
553.00 0.6844
553.10 0.684
553.20 0.6835
553.30 0.683
553.40 0.6825
553.50 0.6821
553.60 0.6816
553.70 0.6811
553.80 0.6806
553.90 0.6802
554.00 0.6797
554.10 0.6792
554.20 0.6788
554.30 0.6783
554.40 0.6778
554.50 0.6773
554.60 0.6769
554.70 0.6764
554.80 0.6759
554.90 0.6755
555.00 0.675
555.10 0.6745
555.20 0.6741
555.30 0.6736
555.40 0.6731
555.50 0.6727
555.60 0.6722
555.70 0.6717
555.80 0.6713
555.90 0.6708
556.00 0.6703
556.10 0.6699
556.20 0.6694
556.30 0.669
556.40 0.6685
556.50 0.668
556.60 0.6676
556.70 0.6671
556.80 0.6666
556.90 0.6662
557.00 0.6657
557.10 0.6653
557.20 0.6648
557.30 0.6643
557.40 0.6639
557.50 0.6634
557.60 0.663
557.70 0.6625
557.80 0.6621
557.90 0.6616
558.00 0.6612
558.10 0.6607
558.20 0.6602
558.30 0.6598
558.40 0.6593
558.50 0.6589
558.60 0.6584
558.70 0.658
558.80 0.6575
558.90 0.6571
559.00 0.6566
559.10 0.6562
559.20 0.6557
559.30 0.6553
559.40 0.6548
559.50 0.6544
559.60 0.6539
559.70 0.6535
559.80 0.653
559.90 0.6526
560.00 0.6521
560.10 0.6517
560.20 0.6512
560.30 0.6508
560.40 0.6503
560.50 0.6499
560.60 0.6494
560.70 0.649
560.80 0.6485
560.90 0.6481
561.00 0.6477
561.10 0.6472
561.20 0.6468
561.30 0.6463
561.40 0.6459
561.50 0.6454
561.60 0.645
561.70 0.6446
561.80 0.6441
561.90 0.6437
562.00 0.6432
562.10 0.6428
562.20 0.6423
562.30 0.6419
562.40 0.6415
562.50 0.641
562.60 0.6406
562.70 0.6402
562.80 0.6397
562.90 0.6393
563.00 0.6388
563.10 0.6384
563.20 0.638
563.30 0.6375
563.40 0.6371
563.50 0.6367
563.60 0.6362
563.70 0.6358
563.80 0.6354
563.90 0.6349
564.00 0.6345
564.10 0.6341
564.20 0.6336
564.30 0.6332
564.40 0.6328
564.50 0.6323
564.60 0.6319
564.70 0.6315
564.80 0.631
564.90 0.6306
565.00 0.6302
565.10 0.6298
565.20 0.6293
565.30 0.6289
565.40 0.6285
565.50 0.628
565.60 0.6276
565.70 0.6272
565.80 0.6268
565.90 0.6263
566.00 0.6259
566.10 0.6255
566.20 0.6251
566.30 0.6246
566.40 0.6242
566.50 0.6238
566.60 0.6234
566.70 0.6229
566.80 0.6225
566.90 0.6221
567.00 0.6217
567.10 0.6212
567.20 0.6208
567.30 0.6204
567.40 0.62
567.50 0.6196
567.60 0.6191
567.70 0.6187
567.80 0.6183
567.90 0.6179
568.00 0.6175
568.10 0.617
568.20 0.6166
568.30 0.6162
568.40 0.6158
568.50 0.6154
568.60 0.615
568.70 0.6145
568.80 0.6141
568.90 0.6137
569.00 0.6133
569.10 0.6129
569.20 0.6125
569.30 0.6121
569.40 0.6116
569.50 0.6112
569.60 0.6108
569.70 0.6104
569.80 0.61
569.90 0.6096
570.00 0.6092
570.10 0.6088
570.20 0.6083
570.30 0.6079
570.40 0.6075
570.50 0.6071
570.60 0.6067
570.70 0.6063
570.80 0.6059
570.90 0.6055
571.00 0.6051
571.10 0.6047
571.20 0.6043
571.30 0.6038
571.40 0.6034
571.50 0.603
571.60 0.6026
571.70 0.6022
571.80 0.6018
571.90 0.6014
572.00 0.601
572.10 0.6006
572.20 0.6002
572.30 0.5998
572.40 0.5994
572.50 0.599
572.60 0.5986
572.70 0.5982
572.80 0.5978
572.90 0.5974
573.00 0.597
573.10 0.5966
573.20 0.5962
573.30 0.5958
573.40 0.5954
573.50 0.595
573.60 0.5946
573.70 0.5942
573.80 0.5938
573.90 0.5934
574.00 0.593
574.10 0.5926
574.20 0.5922
574.30 0.5918
574.40 0.5914
574.50 0.591
574.60 0.5906
574.70 0.5902
574.80 0.5898
574.90 0.5894
575.00 0.589
575.10 0.5886
575.20 0.5882
575.30 0.5878
575.40 0.5874
575.50 0.587
575.60 0.5867
575.70 0.5863
575.80 0.5859
575.90 0.5855
576.00 0.5851
576.10 0.5847
576.20 0.5843
576.30 0.5839
576.40 0.5835
576.50 0.5831
576.60 0.5827
576.70 0.5824
576.80 0.582
576.90 0.5816
577.00 0.5812
577.10 0.5808
577.20 0.5804
577.30 0.58
577.40 0.5796
577.50 0.5793
577.60 0.5789
577.70 0.5785
577.80 0.5781
577.90 0.5777
578.00 0.5773
578.10 0.5769
578.20 0.5766
578.30 0.5762
578.40 0.5758
578.50 0.5754
578.60 0.575
578.70 0.5746
578.80 0.5743
578.90 0.5739
579.00 0.5735
579.10 0.5731
579.20 0.5727
579.30 0.5723
579.40 0.572
579.50 0.5716
579.60 0.5712
579.70 0.5708
579.80 0.5704
579.90 0.5701
580.00 0.5697
580.10 0.5693
580.20 0.5689
580.30 0.5686
580.40 0.5682
580.50 0.5678
580.60 0.5674
580.70 0.567
580.80 0.5667
580.90 0.5663
581.00 0.5659
581.10 0.5655
581.20 0.5652
581.30 0.5648
581.40 0.5644
581.50 0.564
581.60 0.5637
581.70 0.5633
581.80 0.5629
581.90 0.5626
582.00 0.5622
582.10 0.5618
582.20 0.5614
582.30 0.5611
582.40 0.5607
582.50 0.5603
582.60 0.56
582.70 0.5596
582.80 0.5592
582.90 0.5588
583.00 0.5585
583.10 0.5581
583.20 0.5577
583.30 0.5574
583.40 0.557
583.50 0.5566
583.60 0.5563
583.70 0.5559
583.80 0.5555
583.90 0.5552
584.00 0.5548
584.10 0.5544
584.20 0.5541
584.30 0.5537
584.40 0.5533
584.50 0.553
584.60 0.5526
584.70 0.5522
584.80 0.5519
584.90 0.5515
585.00 0.5511
585.10 0.5508
585.20 0.5504
585.30 0.5501
585.40 0.5497
585.50 0.5493
585.60 0.549
585.70 0.5486
585.80 0.5483
585.90 0.5479
586.00 0.5475
586.10 0.5472
586.20 0.5468
586.30 0.5465
586.40 0.5461
586.50 0.5457
586.60 0.5454
586.70 0.545
586.80 0.5447
586.90 0.5443
587.00 0.5439
587.10 0.5436
587.20 0.5432
587.30 0.5429
587.40 0.5425
587.50 0.5422
587.60 0.5418
587.70 0.5414
587.80 0.5411
587.90 0.5407
588.00 0.5404
588.10 0.54
588.20 0.5397
588.30 0.5393
588.40 0.539
588.50 0.5386
588.60 0.5383
588.70 0.5379
588.80 0.5376
588.90 0.5372
589.00 0.5369
589.10 0.5365
589.20 0.5361
589.30 0.5358
589.40 0.5354
589.50 0.5351
589.60 0.5347
589.70 0.5344
589.80 0.534
589.90 0.5337
590.00 0.5333
590.10 0.533
590.20 0.5327
590.30 0.5323
590.40 0.532
590.50 0.5316
590.60 0.5313
590.70 0.5309
590.80 0.5306
590.90 0.5302
591.00 0.5299
591.10 0.5295
591.20 0.5292
591.30 0.5288
591.40 0.5285
591.50 0.5282
591.60 0.5278
591.70 0.5275
591.80 0.5271
591.90 0.5268
592.00 0.5264
592.10 0.5261
592.20 0.5257
592.30 0.5254
592.40 0.5251
592.50 0.5247
592.60 0.5244
592.70 0.524
592.80 0.5237
592.90 0.5234
593.00 0.523
593.10 0.5227
593.20 0.5223
593.30 0.522
593.40 0.5217
593.50 0.5213
593.60 0.521
593.70 0.5206
593.80 0.5203
593.90 0.52
594.00 0.5196
594.10 0.5193
594.20 0.5189
594.30 0.5186
594.40 0.5183
594.50 0.5179
594.60 0.5176
594.70 0.5173
594.80 0.5169
594.90 0.5166
595.00 0.5163
595.10 0.5159
595.20 0.5156
595.30 0.5153
595.40 0.5149
595.50 0.5146
595.60 0.5143
595.70 0.5139
595.80 0.5136
595.90 0.5133
596.00 0.5129
596.10 0.5126
596.20 0.5123
596.30 0.5119
596.40 0.5116
596.50 0.5113
596.60 0.5109
596.70 0.5106
596.80 0.5103
596.90 0.5099
597.00 0.5096
597.10 0.5093
597.20 0.509
597.30 0.5086
597.40 0.5083
597.50 0.508
597.60 0.5076
597.70 0.5073
597.80 0.507
597.90 0.5067
598.00 0.5063
598.10 0.506
598.20 0.5057
598.30 0.5054
598.40 0.505
598.50 0.5047
598.60 0.5044
598.70 0.504
598.80 0.5037
598.90 0.5034
599.00 0.5031
599.10 0.5027
599.20 0.5024
599.30 0.5021
599.40 0.5018
599.50 0.5015
599.60 0.5011
599.70 0.5008
599.80 0.5005
599.90 0.5002
600.00 0.4998
600.10 0.4995
600.20 0.4992
600.30 0.4989
600.40 0.4986
600.50 0.4982
600.60 0.4979
600.70 0.4976
600.80 0.4973
600.90 0.497
601.00 0.4966
601.10 0.4963
601.20 0.496
601.30 0.4957
601.40 0.4954
601.50 0.495
601.60 0.4947
601.70 0.4944
601.80 0.4941
601.90 0.4938
602.00 0.4935
602.10 0.4931
602.20 0.4928
602.30 0.4925
602.40 0.4922
602.50 0.4919
602.60 0.4916
602.70 0.4912
602.80 0.4909
602.90 0.4906
603.00 0.4903
603.10 0.49
603.20 0.4897
603.30 0.4894
603.40 0.489
603.50 0.4887
603.60 0.4884
603.70 0.4881
603.80 0.4878
603.90 0.4875
604.00 0.4872
604.10 0.4869
604.20 0.4865
604.30 0.4862
604.40 0.4859
604.50 0.4856
604.60 0.4853
604.70 0.485
604.80 0.4847
604.90 0.4844
605.00 0.4841
605.10 0.4838
605.20 0.4834
605.30 0.4831
605.40 0.4828
605.50 0.4825
605.60 0.4822
605.70 0.4819
605.80 0.4816
605.90 0.4813
606.00 0.481
606.10 0.4807
606.20 0.4804
606.30 0.4801
606.40 0.4798
606.50 0.4795
606.60 0.4791
606.70 0.4788
606.80 0.4785
606.90 0.4782
607.00 0.4779
607.10 0.4776
607.20 0.4773
607.30 0.477
607.40 0.4767
607.50 0.4764
607.60 0.4761
607.70 0.4758
607.80 0.4755
607.90 0.4752
608.00 0.4749
608.10 0.4746
608.20 0.4743
608.30 0.474
608.40 0.4737
608.50 0.4734
608.60 0.4731
608.70 0.4728
608.80 0.4725
608.90 0.4722
609.00 0.4719
609.10 0.4716
609.20 0.4713
609.30 0.471
609.40 0.4707
609.50 0.4704
609.60 0.4701
609.70 0.4698
609.80 0.4695
609.90 0.4692
610.00 0.4689
610.10 0.4686
610.20 0.4683
610.30 0.468
610.40 0.4677
610.50 0.4674
610.60 0.4671
610.70 0.4668
610.80 0.4665
610.90 0.4662
611.00 0.4659
611.10 0.4656
611.20 0.4653
611.30 0.465
611.40 0.4647
611.50 0.4645
611.60 0.4642
611.70 0.4639
611.80 0.4636
611.90 0.4633
612.00 0.463
612.10 0.4627
612.20 0.4624
612.30 0.4621
612.40 0.4618
612.50 0.4615
612.60 0.4612
612.70 0.4609
612.80 0.4606
612.90 0.4604
613.00 0.4601
613.10 0.4598
613.20 0.4595
613.30 0.4592
613.40 0.4589
613.50 0.4586
613.60 0.4583
613.70 0.458
613.80 0.4577
613.90 0.4575
614.00 0.4572
614.10 0.4569
614.20 0.4566
614.30 0.4563
614.40 0.456
614.50 0.4557
614.60 0.4554
614.70 0.4551
614.80 0.4549
614.90 0.4546
615.00 0.4543
615.10 0.454
615.20 0.4537
615.30 0.4534
615.40 0.4531
615.50 0.4529
615.60 0.4526
615.70 0.4523
615.80 0.452
615.90 0.4517
616.00 0.4514
616.10 0.4511
616.20 0.4509
616.30 0.4506
616.40 0.4503
616.50 0.45
616.60 0.4497
616.70 0.4494
616.80 0.4492
616.90 0.4489
617.00 0.4486
617.10 0.4483
617.20 0.448
617.30 0.4478
617.40 0.4475
617.50 0.4472
617.60 0.4469
617.70 0.4466
617.80 0.4463
617.90 0.4461
618.00 0.4458
618.10 0.4455
618.20 0.4452
618.30 0.4449
618.40 0.4447
618.50 0.4444
618.60 0.4441
618.70 0.4438
618.80 0.4435
618.90 0.4433
619.00 0.443
619.10 0.4427
619.20 0.4424
619.30 0.4422
619.40 0.4419
619.50 0.4416
619.60 0.4413
619.70 0.441
619.80 0.4408
619.90 0.4405
620.00 0.4402
620.10 0.4399
620.20 0.4397
620.30 0.4394
620.40 0.4391
620.50 0.4388
620.60 0.4386
620.70 0.4383
620.80 0.438
620.90 0.4377
621.00 0.4375
621.10 0.4372
621.20 0.4369
621.30 0.4366
621.40 0.4364
621.50 0.4361
621.60 0.4358
621.70 0.4355
621.80 0.4353
621.90 0.435
622.00 0.4347
622.10 0.4345
622.20 0.4342
622.30 0.4339
622.40 0.4336
622.50 0.4334
622.60 0.4331
622.70 0.4328
622.80 0.4326
622.90 0.4323
623.00 0.432
623.10 0.4317
623.20 0.4315
623.30 0.4312
623.40 0.4309
623.50 0.4307
623.60 0.4304
623.70 0.4301
623.80 0.4299
623.90 0.4296
624.00 0.4293
624.10 0.429
624.20 0.4288
624.30 0.4285
624.40 0.4282
624.50 0.428
624.60 0.4277
624.70 0.4274
624.80 0.4272
624.90 0.4269
625.00 0.4266
625.10 0.4264
625.20 0.4261
625.30 0.4258
625.40 0.4256
625.50 0.4253
625.60 0.425
625.70 0.4248
625.80 0.4245
625.90 0.4242
626.00 0.424
626.10 0.4237
626.20 0.4234
626.30 0.4232
626.40 0.4229
626.50 0.4226
626.60 0.4224
626.70 0.4221
626.80 0.4219
626.90 0.4216
627.00 0.4213
627.10 0.4211
627.20 0.4208
627.30 0.4205
627.40 0.4203
627.50 0.42
627.60 0.4197
627.70 0.4195
627.80 0.4192
627.90 0.419
628.00 0.4187
628.10 0.4184
628.20 0.4182
628.30 0.4179
628.40 0.4176
628.50 0.4174
628.60 0.4171
628.70 0.4169
628.80 0.4166
628.90 0.4163
629.00 0.4161
629.10 0.4158
629.20 0.4156
629.30 0.4153
629.40 0.415
629.50 0.4148
629.60 0.4145
629.70 0.4143
629.80 0.414
629.90 0.4137
630.00 0.4135
630.10 0.4132
630.20 0.413
630.30 0.4127
630.40 0.4124
630.50 0.4122
630.60 0.4119
630.70 0.4117
630.80 0.4114
630.90 0.4111
631.00 0.4109
631.10 0.4106
631.20 0.4104
631.30 0.4101
631.40 0.4099
631.50 0.4096
631.60 0.4093
631.70 0.4091
631.80 0.4088
631.90 0.4086
632.00 0.4083
632.10 0.4081
632.20 0.4078
632.30 0.4075
632.40 0.4073
632.50 0.407
632.60 0.4068
632.70 0.4065
632.80 0.4063
632.90 0.406
633.00 0.4057
633.10 0.4055
633.20 0.4052
633.30 0.405
633.40 0.4047
633.50 0.4045
633.60 0.4042
633.70 0.4039
633.80 0.4037
633.90 0.4034
634.00 0.4032
634.10 0.4029
634.20 0.4027
634.30 0.4024
634.40 0.4022
634.50 0.4019
634.60 0.4016
634.70 0.4014
634.80 0.4011
634.90 0.4009
635.00 0.4006
635.10 0.4004
635.20 0.4001
635.30 0.3999
635.40 0.3996
635.50 0.3994
635.60 0.3991
635.70 0.3988
635.80 0.3986
635.90 0.3983
636.00 0.3981
636.10 0.3978
636.20 0.3976
636.30 0.3973
636.40 0.3971
636.50 0.3968
636.60 0.3965
636.70 0.3963
636.80 0.396
636.90 0.3958
637.00 0.3955
637.10 0.3953
637.20 0.395
637.30 0.3948
637.40 0.3945
637.50 0.3942
637.60 0.394
637.70 0.3937
637.80 0.3935
637.90 0.3932
638.00 0.393
638.10 0.3927
638.20 0.3925
638.30 0.3922
638.40 0.3919
638.50 0.3917
638.60 0.3914
638.70 0.3912
638.80 0.3909
638.90 0.3907
639.00 0.3904
639.10 0.3901
639.20 0.3899
639.30 0.3896
639.40 0.3894
639.50 0.3891
639.60 0.3889
639.70 0.3886
639.80 0.3883
639.90 0.3881
640.00 0.3878
640.10 0.3876
640.20 0.3873
640.30 0.387
640.40 0.3868
640.50 0.3865
640.60 0.3863
640.70 0.386
640.80 0.3857
640.90 0.3855
641.00 0.3852
641.10 0.385
641.20 0.3847
641.30 0.3844
641.40 0.3842
641.50 0.3839
641.60 0.3836
641.70 0.3834
641.80 0.3831
641.90 0.3828
642.00 0.3826
642.10 0.3823
642.20 0.382
642.30 0.3818
642.40 0.3815
642.50 0.3812
642.60 0.381
642.70 0.3807
642.80 0.3804
642.90 0.3802
643.00 0.3799
643.10 0.3796
643.20 0.3793
643.30 0.3791
643.40 0.3788
643.50 0.3785
643.60 0.3782
643.70 0.378
643.80 0.3777
643.90 0.3774
644.00 0.3771
644.10 0.3768
644.20 0.3766
644.30 0.3763
644.40 0.376
644.50 0.3757
644.60 0.3754
644.70 0.3751
644.80 0.3748
644.90 0.3745
645.00 0.3743
645.10 0.374
645.20 0.3737
645.30 0.3734
645.40 0.3731
645.50 0.3728
645.60 0.3725
645.70 0.3722
645.80 0.3719
645.90 0.3716
646.00 0.3713
646.10 0.371
646.20 0.3707
646.30 0.3704
646.40 0.37
646.50 0.3697
646.60 0.3694
646.70 0.3691
646.80 0.3687
646.90 0.3684
647.00 0.3681
647.10 0.3678
647.20 0.3674
647.30 0.3671
647.40 0.3668
647.50 0.3664
647.60 0.3661
647.70 0.3657
647.80 0.3654
647.90 0.365
648.00 0.3647
648.10 0.3643
648.20 0.364
648.30 0.3636
648.40 0.3632
648.50 0.3628
648.60 0.3624
648.70 0.3621
648.80 0.3617
648.90 0.3613
649.00 0.3609
649.10 0.3605
649.20 0.3601
649.30 0.3597
649.40 0.3593
649.50 0.3589
649.60 0.3584
649.70 0.358
649.80 0.3576
649.90 0.3571
650.00 0.3567
650.10 0.3562
650.20 0.3558
650.30 0.3554
650.40 0.3549
650.50 0.3544
650.60 0.3538
650.70 0.3533
650.80 0.3528
650.90 0.3523
651.00 0.3518
651.10 0.3513
651.20 0.3508
651.30 0.3503
651.40 0.3497
651.50 0.3491
651.60 0.3485
651.70 0.3479
651.80 0.3473
651.90 0.3468
652.00 0.3462
652.10 0.3456
652.20 0.345
652.30 0.3444
652.40 0.3437
652.50 0.343
652.60 0.3423
652.70 0.3415
652.80 0.3408
652.90 0.3401
653.00 0.3394
653.10 0.3387
653.20 0.338
653.30 0.3373
653.40 0.3365
653.50 0.3356
653.60 0.3348
653.70 0.334
653.80 0.3331
653.90 0.3323
654.00 0.3314
654.10 0.3306
654.20 0.3298
654.30 0.3289
654.40 0.328
654.50 0.3271
654.60 0.3261
654.70 0.3252
654.80 0.3243
654.90 0.3233
655.00 0.3223
655.10 0.3214
655.20 0.3204
655.30 0.3194
655.40 0.3185
655.50 0.3176
655.60 0.3167
655.70 0.3158
655.80 0.3151
655.90 0.3146
656.00 0.3149
656.10 0.3156
656.20 0.3239
656.30 0.3367
656.40 0.3186
656.50 0.3144
656.60 0.3137
656.70 0.3132
656.80 0.3135
656.90 0.3139
657.00 0.3144
657.10 0.315
657.20 0.3156
657.30 0.3162
657.40 0.3167
657.50 0.3173
657.60 0.3179
657.70 0.3185
657.80 0.3191
657.90 0.3197
658.00 0.3202
658.10 0.3208
658.20 0.3213
658.30 0.3218
658.40 0.3223
658.50 0.3227
658.60 0.3232
658.70 0.3236
658.80 0.3241
658.90 0.3245
659.00 0.3249
659.10 0.3254
659.20 0.3258
659.30 0.3262
659.40 0.3265
659.50 0.3268
659.60 0.3271
659.70 0.3274
659.80 0.3277
659.90 0.328
660.00 0.3283
660.10 0.3286
660.20 0.3289
660.30 0.3292
660.40 0.3294
660.50 0.3296
660.60 0.3298
660.70 0.3299
660.80 0.3301
660.90 0.3303
661.00 0.3305
661.10 0.3307
661.20 0.3308
661.30 0.331
661.40 0.3311
661.50 0.3312
661.60 0.3312
661.70 0.3313
661.80 0.3314
661.90 0.3315
662.00 0.3316
662.10 0.3317
662.20 0.3317
662.30 0.3318
662.40 0.3318
662.50 0.3318
662.60 0.3319
662.70 0.3319
662.80 0.3319
662.90 0.3319
663.00 0.3319
663.10 0.3319
663.20 0.3319
663.30 0.3319
663.40 0.3319
663.50 0.3319
663.60 0.3318
663.70 0.3318
663.80 0.3317
663.90 0.3317
664.00 0.3317
664.10 0.3316
664.20 0.3316
664.30 0.3315
664.40 0.3315
664.50 0.3314
664.60 0.3313
664.70 0.3312
664.80 0.3312
664.90 0.3311
665.00 0.331
665.10 0.3309
665.20 0.3309
665.30 0.3308
665.40 0.3307
665.50 0.3306
665.60 0.3305
665.70 0.3304
665.80 0.3303
665.90 0.3302
666.00 0.3301
666.10 0.3299
666.20 0.3298
666.30 0.3297
666.40 0.3296
666.50 0.3295
666.60 0.3294
666.70 0.3292
666.80 0.3291
666.90 0.329
667.00 0.3289
667.10 0.3288
667.20 0.3286
667.30 0.3285
667.40 0.3284
667.50 0.3282
667.60 0.3281
667.70 0.328
667.80 0.3278
667.90 0.3277
668.00 0.3276
668.10 0.3274
668.20 0.3273
668.30 0.3271
668.40 0.327
668.50 0.3268
668.60 0.3267
668.70 0.3266
668.80 0.3264
668.90 0.3263
669.00 0.3261
669.10 0.326
669.20 0.3258
669.30 0.3257
669.40 0.3255
669.50 0.3254
669.60 0.3252
669.70 0.3251
669.80 0.3249
669.90 0.3247
670.00 0.3246
670.10 0.3244
670.20 0.3243
670.30 0.3241
670.40 0.324
670.50 0.3238
670.60 0.3236
670.70 0.3235
670.80 0.3233
670.90 0.3232
671.00 0.323
671.10 0.3228
671.20 0.3227
671.30 0.3225
671.40 0.3224
671.50 0.3222
671.60 0.322
671.70 0.3219
671.80 0.3217
671.90 0.3215
672.00 0.3214
672.10 0.3212
672.20 0.3211
672.30 0.3209
672.40 0.3207
672.50 0.3206
672.60 0.3204
672.70 0.3202
672.80 0.3201
672.90 0.3199
673.00 0.3197
673.10 0.3196
673.20 0.3194
673.30 0.3192
673.40 0.3191
673.50 0.3189
673.60 0.3187
673.70 0.3186
673.80 0.3184
673.90 0.3182
674.00 0.3181
674.10 0.3179
674.20 0.3177
674.30 0.3175
674.40 0.3174
674.50 0.3172
674.60 0.317
674.70 0.3169
674.80 0.3167
674.90 0.3165
675.00 0.3164
675.10 0.3162
675.20 0.316
675.30 0.3159
675.40 0.3157
675.50 0.3155
675.60 0.3153
675.70 0.3152
675.80 0.315
675.90 0.3148
676.00 0.3147
676.10 0.3145
676.20 0.3143
676.30 0.3142
676.40 0.314
676.50 0.3138
676.60 0.3136
676.70 0.3135
676.80 0.3133
676.90 0.3131
677.00 0.313
677.10 0.3128
677.20 0.3126
677.30 0.3124
677.40 0.3123
677.50 0.3121
677.60 0.3119
677.70 0.3118
677.80 0.3116
677.90 0.3114
678.00 0.3113
678.10 0.3111
678.20 0.3109
678.30 0.3107
678.40 0.3106
678.50 0.3104
678.60 0.3102
678.70 0.3101
678.80 0.3099
678.90 0.3097
679.00 0.3096
679.10 0.3094
679.20 0.3092
679.30 0.309
679.40 0.3089
679.50 0.3087
679.60 0.3085
679.70 0.3084
679.80 0.3082
679.90 0.308
680.00 0.3078
680.10 0.3077
680.20 0.3075
680.30 0.3073
680.40 0.3072
680.50 0.307
680.60 0.3068
680.70 0.3067
680.80 0.3065
680.90 0.3063
681.00 0.3062
681.10 0.306
681.20 0.3058
681.30 0.3056
681.40 0.3055
681.50 0.3053
681.60 0.3051
681.70 0.305
681.80 0.3048
681.90 0.3046
682.00 0.3045
682.10 0.3043
682.20 0.3041
682.30 0.304
682.40 0.3038
682.50 0.3036
682.60 0.3034
682.70 0.3033
682.80 0.3031
682.90 0.3029
683.00 0.3028
683.10 0.3026
683.20 0.3024
683.30 0.3023
683.40 0.3021
683.50 0.3019
683.60 0.3018
683.70 0.3016
683.80 0.3014
683.90 0.3013
684.00 0.3011
684.10 0.3009
684.20 0.3008
684.30 0.3006
684.40 0.3004
684.50 0.3003
684.60 0.3001
684.70 0.2999
684.80 0.2998
684.90 0.2996
685.00 0.2994
685.10 0.2993
685.20 0.2991
685.30 0.2989
685.40 0.2988
685.50 0.2986
685.60 0.2984
685.70 0.2983
685.80 0.2981
685.90 0.2979
686.00 0.2978
686.10 0.2976
686.20 0.2974
686.30 0.2973
686.40 0.2971
686.50 0.2969
686.60 0.2968
686.70 0.2966
686.80 0.2964
686.90 0.2963
687.00 0.2961
687.10 0.296
687.20 0.2958
687.30 0.2956
687.40 0.2955
687.50 0.2953
687.60 0.2951
687.70 0.295
687.80 0.2948
687.90 0.2946
688.00 0.2945
688.10 0.2943
688.20 0.2941
688.30 0.294
688.40 0.2938
688.50 0.2937
688.60 0.2935
688.70 0.2933
688.80 0.2932
688.90 0.293
689.00 0.2928
689.10 0.2927
689.20 0.2925
689.30 0.2924
689.40 0.2922
689.50 0.292
689.60 0.2919
689.70 0.2917
689.80 0.2915
689.90 0.2914
690.00 0.2912
690.10 0.2911
690.20 0.2909
690.30 0.2907
690.40 0.2906
690.50 0.2904
690.60 0.2903
690.70 0.2901
690.80 0.2899
690.90 0.2898
691.00 0.2896
691.10 0.2895
691.20 0.2893
691.30 0.2891
691.40 0.289
691.50 0.2888
691.60 0.2886
691.70 0.2885
691.80 0.2883
691.90 0.2882
692.00 0.288
692.10 0.2878
692.20 0.2877
692.30 0.2875
692.40 0.2874
692.50 0.2872
692.60 0.2871
692.70 0.2869
692.80 0.2867
692.90 0.2866
693.00 0.2864
693.10 0.2863
693.20 0.2861
693.30 0.2859
693.40 0.2858
693.50 0.2856
693.60 0.2855
693.70 0.2853
693.80 0.2851
693.90 0.285
694.00 0.2848
694.10 0.2847
694.20 0.2845
694.30 0.2844
694.40 0.2842
694.50 0.284
694.60 0.2839
694.70 0.2837
694.80 0.2836
694.90 0.2834
695.00 0.2832
695.10 0.2831
695.20 0.2829
695.30 0.2828
695.40 0.2826
695.50 0.2825
695.60 0.2823
695.70 0.2822
695.80 0.282
695.90 0.2818
696.00 0.2817
696.10 0.2815
696.20 0.2814
696.30 0.2812
696.40 0.2811
696.50 0.2809
696.60 0.2808
696.70 0.2806
696.80 0.2804
696.90 0.2803
697.00 0.2801
697.10 0.28
697.20 0.2798
697.30 0.2797
697.40 0.2795
697.50 0.2794
697.60 0.2792
697.70 0.2791
697.80 0.2789
697.90 0.2787
698.00 0.2786
698.10 0.2784
698.20 0.2783
698.30 0.2781
698.40 0.278
698.50 0.2778
698.60 0.2777
698.70 0.2775
698.80 0.2774
698.90 0.2772
699.00 0.2771
699.10 0.2769
699.20 0.2768
699.30 0.2766
699.40 0.2764
699.50 0.2763
699.60 0.2761
699.70 0.276
699.80 0.2758
699.90 0.2757
700.00 0.2755
700.10 0.2754
700.20 0.2752
700.30 0.2751
700.40 0.2749
700.50 0.2748
700.60 0.2746
700.70 0.2745
700.80 0.2743
700.90 0.2742
701.00 0.274
701.10 0.2739
701.20 0.2737
701.30 0.2736
701.40 0.2734
701.50 0.2733
701.60 0.2731
701.70 0.273
701.80 0.2728
701.90 0.2727
702.00 0.2725
702.10 0.2724
702.20 0.2722
702.30 0.2721
702.40 0.2719
702.50 0.2718
702.60 0.2716
702.70 0.2715
702.80 0.2713
702.90 0.2712
703.00 0.271
703.10 0.2709
703.20 0.2707
703.30 0.2706
703.40 0.2704
703.50 0.2703
703.60 0.2701
703.70 0.27
703.80 0.2698
703.90 0.2697
704.00 0.2695
704.10 0.2694
704.20 0.2692
704.30 0.2691
704.40 0.2689
704.50 0.2688
704.60 0.2687
704.70 0.2685
704.80 0.2684
704.90 0.2682
705.00 0.2681
705.10 0.2679
705.20 0.2678
705.30 0.2676
705.40 0.2675
705.50 0.2673
705.60 0.2672
705.70 0.267
705.80 0.2669
705.90 0.2667
706.00 0.2666
706.10 0.2665
706.20 0.2663
706.30 0.2662
706.40 0.266
706.50 0.2659
706.60 0.2657
706.70 0.2656
706.80 0.2654
706.90 0.2653
707.00 0.2652
707.10 0.265
707.20 0.2649
707.30 0.2647
707.40 0.2646
707.50 0.2644
707.60 0.2643
707.70 0.2641
707.80 0.264
707.90 0.2639
708.00 0.2637
708.10 0.2636
708.20 0.2634
708.30 0.2633
708.40 0.2631
708.50 0.263
708.60 0.2628
708.70 0.2627
708.80 0.2626
708.90 0.2624
709.00 0.2623
709.10 0.2621
709.20 0.262
709.30 0.2618
709.40 0.2617
709.50 0.2616
709.60 0.2614
709.70 0.2613
709.80 0.2611
709.90 0.261
710.00 0.2608
710.10 0.2607
710.20 0.2606
710.30 0.2604
710.40 0.2603
710.50 0.2601
710.60 0.26
710.70 0.2598
710.80 0.2597
710.90 0.2596
711.00 0.2594
711.10 0.2593
711.20 0.2591
711.30 0.259
711.40 0.2589
711.50 0.2587
711.60 0.2586
711.70 0.2584
711.80 0.2583
711.90 0.2582
712.00 0.258
712.10 0.2579
712.20 0.2577
712.30 0.2576
712.40 0.2575
712.50 0.2573
712.60 0.2572
712.70 0.257
712.80 0.2569
712.90 0.2568
713.00 0.2566
713.10 0.2565
713.20 0.2563
713.30 0.2562
713.40 0.2561
713.50 0.2559
713.60 0.2558
713.70 0.2557
713.80 0.2555
713.90 0.2554
714.00 0.2552
714.10 0.2551
714.20 0.255
714.30 0.2548
714.40 0.2547
714.50 0.2545
714.60 0.2544
714.70 0.2543
714.80 0.2541
714.90 0.254
715.00 0.2539
715.10 0.2537
715.20 0.2536
715.30 0.2534
715.40 0.2533
715.50 0.2532
715.60 0.253
715.70 0.2529
715.80 0.2528
715.90 0.2526
716.00 0.2525
716.10 0.2524
716.20 0.2522
716.30 0.2521
716.40 0.2519
716.50 0.2518
716.60 0.2517
716.70 0.2515
716.80 0.2514
716.90 0.2513
717.00 0.2511
717.10 0.251
717.20 0.2509
717.30 0.2507
717.40 0.2506
717.50 0.2505
717.60 0.2503
717.70 0.2502
717.80 0.2501
717.90 0.2499
718.00 0.2498
718.10 0.2496
718.20 0.2495
718.30 0.2494
718.40 0.2492
718.50 0.2491
718.60 0.249
718.70 0.2488
718.80 0.2487
718.90 0.2486
719.00 0.2484
719.10 0.2483
719.20 0.2482
719.30 0.248
719.40 0.2479
719.50 0.2478
719.60 0.2476
719.70 0.2475
719.80 0.2474
719.90 0.2472
720.00 0.2471
720.10 0.247
720.20 0.2468
720.30 0.2467
720.40 0.2466
720.50 0.2464
720.60 0.2463
720.70 0.2462
720.80 0.246
720.90 0.2459
721.00 0.2458
721.10 0.2456
721.20 0.2455
721.30 0.2454
721.40 0.2453
721.50 0.2451
721.60 0.245
721.70 0.2449
721.80 0.2447
721.90 0.2446
722.00 0.2445
722.10 0.2443
722.20 0.2442
722.30 0.2441
722.40 0.2439
722.50 0.2438
722.60 0.2437
722.70 0.2436
722.80 0.2434
722.90 0.2433
723.00 0.2432
723.10 0.243
723.20 0.2429
723.30 0.2428
723.40 0.2426
723.50 0.2425
723.60 0.2424
723.70 0.2422
723.80 0.2421
723.90 0.242
724.00 0.2419
724.10 0.2417
724.20 0.2416
724.30 0.2415
724.40 0.2413
724.50 0.2412
724.60 0.2411
724.70 0.241
724.80 0.2408
724.90 0.2407
725.00 0.2406
725.10 0.2404
725.20 0.2403
725.30 0.2402
725.40 0.2401
725.50 0.2399
725.60 0.2398
725.70 0.2397
725.80 0.2395
725.90 0.2394
726.00 0.2393
726.10 0.2392
726.20 0.239
726.30 0.2389
726.40 0.2388
726.50 0.2387
726.60 0.2385
726.70 0.2384
726.80 0.2383
726.90 0.2381
727.00 0.238
727.10 0.2379
727.20 0.2378
727.30 0.2376
727.40 0.2375
727.50 0.2374
727.60 0.2373
727.70 0.2371
727.80 0.237
727.90 0.2369
728.00 0.2368
728.10 0.2366
728.20 0.2365
728.30 0.2364
728.40 0.2363
728.50 0.2361
728.60 0.236
728.70 0.2359
728.80 0.2357
728.90 0.2356
729.00 0.2355
729.10 0.2354
729.20 0.2352
729.30 0.2351
729.40 0.235
729.50 0.2349
729.60 0.2347
729.70 0.2346
729.80 0.2345
729.90 0.2344
730.00 0.2342
730.10 0.2341
730.20 0.234
730.30 0.2339
730.40 0.2338
730.50 0.2336
730.60 0.2335
730.70 0.2334
730.80 0.2333
730.90 0.2331
731.00 0.233
731.10 0.2329
731.20 0.2328
731.30 0.2326
731.40 0.2325
731.50 0.2324
731.60 0.2323
731.70 0.2322
731.80 0.232
731.90 0.2319
732.00 0.2318
732.10 0.2317
732.20 0.2315
732.30 0.2314
732.40 0.2313
732.50 0.2312
732.60 0.2311
732.70 0.2309
732.80 0.2308
732.90 0.2307
733.00 0.2306
733.10 0.2305
733.20 0.2303
733.30 0.2302
733.40 0.2301
733.50 0.23
733.60 0.2298
733.70 0.2297
733.80 0.2296
733.90 0.2295
734.00 0.2294
734.10 0.2292
734.20 0.2291
734.30 0.229
734.40 0.2289
734.50 0.2288
734.60 0.2286
734.70 0.2285
734.80 0.2284
734.90 0.2283
735.00 0.2282
735.10 0.228
735.20 0.2279
735.30 0.2278
735.40 0.2277
735.50 0.2276
735.60 0.2274
735.70 0.2273
735.80 0.2272
735.90 0.2271
736.00 0.227
736.10 0.2268
736.20 0.2267
736.30 0.2266
736.40 0.2265
736.50 0.2264
736.60 0.2262
736.70 0.2261
736.80 0.226
736.90 0.2259
737.00 0.2258
737.10 0.2256
737.20 0.2255
737.30 0.2254
737.40 0.2253
737.50 0.2252
737.60 0.225
737.70 0.2249
737.80 0.2248
737.90 0.2247
738.00 0.2246
738.10 0.2245
738.20 0.2243
738.30 0.2242
738.40 0.2241
738.50 0.224
738.60 0.2239
738.70 0.2237
738.80 0.2236
738.90 0.2235
739.00 0.2234
739.10 0.2233
739.20 0.2232
739.30 0.223
739.40 0.2229
739.50 0.2228
739.60 0.2227
739.70 0.2226
739.80 0.2224
739.90 0.2223
740.00 0.2222
740.10 0.2221
740.20 0.222
740.30 0.2219
740.40 0.2218
740.50 0.2216
740.60 0.2215
740.70 0.2214
740.80 0.2213
740.90 0.2212
741.00 0.2211
741.10 0.2209
741.20 0.2208
741.30 0.2207
741.40 0.2206
741.50 0.2205
741.60 0.2204
741.70 0.2203
741.80 0.2201
741.90 0.22
742.00 0.2199
742.10 0.2198
742.20 0.2197
742.30 0.2196
742.40 0.2195
742.50 0.2193
742.60 0.2192
742.70 0.2191
742.80 0.219
742.90 0.2189
743.00 0.2188
743.10 0.2187
743.20 0.2186
743.30 0.2184
743.40 0.2183
743.50 0.2182
743.60 0.2181
743.70 0.218
743.80 0.2179
743.90 0.2178
744.00 0.2176
744.10 0.2175
744.20 0.2174
744.30 0.2173
744.40 0.2172
744.50 0.2171
744.60 0.217
744.70 0.2169
744.80 0.2167
744.90 0.2166
745.00 0.2165
745.10 0.2164
745.20 0.2163
745.30 0.2162
745.40 0.2161
745.50 0.216
745.60 0.2158
745.70 0.2157
745.80 0.2156
745.90 0.2155
746.00 0.2154
746.10 0.2153
746.20 0.2152
746.30 0.2151
746.40 0.2149
746.50 0.2148
746.60 0.2147
746.70 0.2146
746.80 0.2145
746.90 0.2144
747.00 0.2143
747.10 0.2142
747.20 0.214
747.30 0.2139
747.40 0.2138
747.50 0.2137
747.60 0.2136
747.70 0.2135
747.80 0.2134
747.90 0.2133
748.00 0.2132
748.10 0.213
748.20 0.2129
748.30 0.2128
748.40 0.2127
748.50 0.2126
748.60 0.2125
748.70 0.2124
748.80 0.2123
748.90 0.2122
749.00 0.212
749.10 0.2119
749.20 0.2118
749.30 0.2117
749.40 0.2116
749.50 0.2115
749.60 0.2114
749.70 0.2113
749.80 0.2112
749.90 0.2111
750.00 0.2109
750.10 0.2108
750.20 0.2107
750.30 0.2106
750.40 0.2105
750.50 0.2104
750.60 0.2103
750.70 0.2102
750.80 0.2101
750.90 0.21
751.00 0.2099
751.10 0.2098
751.20 0.2097
751.30 0.2095
751.40 0.2094
751.50 0.2093
751.60 0.2092
751.70 0.2091
751.80 0.209
751.90 0.2089
752.00 0.2088
752.10 0.2087
752.20 0.2086
752.30 0.2085
752.40 0.2084
752.50 0.2083
752.60 0.2082
752.70 0.208
752.80 0.2079
752.90 0.2078
753.00 0.2077
753.10 0.2076
753.20 0.2075
753.30 0.2074
753.40 0.2073
753.50 0.2072
753.60 0.2071
753.70 0.207
753.80 0.2069
753.90 0.2068
754.00 0.2067
754.10 0.2066
754.20 0.2064
754.30 0.2063
754.40 0.2062
754.50 0.2061
754.60 0.206
754.70 0.2059
754.80 0.2058
754.90 0.2057
755.00 0.2056
755.10 0.2055
755.20 0.2054
755.30 0.2053
755.40 0.2052
755.50 0.2051
755.60 0.205
755.70 0.2049
755.80 0.2048
755.90 0.2047
756.00 0.2045
756.10 0.2044
756.20 0.2043
756.30 0.2042
756.40 0.2041
756.50 0.204
756.60 0.2039
756.70 0.2038
756.80 0.2037
756.90 0.2036
757.00 0.2035
757.10 0.2034
757.20 0.2033
757.30 0.2032
757.40 0.2031
757.50 0.203
757.60 0.2029
757.70 0.2028
757.80 0.2027
757.90 0.2026
758.00 0.2025
758.10 0.2024
758.20 0.2022
758.30 0.2021
758.40 0.202
758.50 0.2019
758.60 0.2018
758.70 0.2017
758.80 0.2016
758.90 0.2015
759.00 0.2014
759.10 0.2013
759.20 0.2012
759.30 0.2011
759.40 0.201
759.50 0.2009
759.60 0.2008
759.70 0.2007
759.80 0.2006
759.90 0.2005
760.00 0.2004
760.10 0.2003
760.20 0.2002
760.30 0.2001
760.40 0.2
760.50 0.1999
760.60 0.1998
760.70 0.1997
760.80 0.1996
760.90 0.1995
761.00 0.1994
761.10 0.1993
761.20 0.1992
761.30 0.1991
761.40 0.199
761.50 0.1989
761.60 0.1988
761.70 0.1987
761.80 0.1986
761.90 0.1985
762.00 0.1984
762.10 0.1983
762.20 0.1982
762.30 0.1981
762.40 0.198
762.50 0.1979
762.60 0.1978
762.70 0.1977
762.80 0.1976
762.90 0.1975
763.00 0.1974
763.10 0.1973
763.20 0.1972
763.30 0.1971
763.40 0.197
763.50 0.1969
763.60 0.1968
763.70 0.1967
763.80 0.1966
763.90 0.1965
764.00 0.1964
764.10 0.1963
764.20 0.1962
764.30 0.1961
764.40 0.196
764.50 0.1959
764.60 0.1958
764.70 0.1957
764.80 0.1956
764.90 0.1955
765.00 0.1954
765.10 0.1953
765.20 0.1952
765.30 0.1951
765.40 0.195
765.50 0.1949
765.60 0.1948
765.70 0.1947
765.80 0.1946
765.90 0.1945
766.00 0.1944
766.10 0.1943
766.20 0.1942
766.30 0.1941
766.40 0.194
766.50 0.1939
766.60 0.1938
766.70 0.1937
766.80 0.1936
766.90 0.1935
767.00 0.1934
767.10 0.1933
767.20 0.1932
767.30 0.1931
767.40 0.193
767.50 0.1929
767.60 0.1928
767.70 0.1927
767.80 0.1926
767.90 0.1925
768.00 0.1924
768.10 0.1923
768.20 0.1922
768.30 0.1921
768.40 0.192
768.50 0.1919
768.60 0.1918
768.70 0.1917
768.80 0.1916
768.90 0.1915
769.00 0.1914
769.10 0.1913
769.20 0.1912
769.30 0.1912
769.40 0.1911
769.50 0.191
769.60 0.1909
769.70 0.1908
769.80 0.1907
769.90 0.1906
770.00 0.1905
770.10 0.1904
770.20 0.1903
770.30 0.1902
770.40 0.1901
770.50 0.19
770.60 0.1899
770.70 0.1898
770.80 0.1897
770.90 0.1896
771.00 0.1895
771.10 0.1894
771.20 0.1893
771.30 0.1892
771.40 0.1891
771.50 0.189
771.60 0.189
771.70 0.1889
771.80 0.1888
771.90 0.1887
772.00 0.1886
772.10 0.1885
772.20 0.1884
772.30 0.1883
772.40 0.1882
772.50 0.1881
772.60 0.188
772.70 0.1879
772.80 0.1878
772.90 0.1877
773.00 0.1876
773.10 0.1875
773.20 0.1874
773.30 0.1874
773.40 0.1873
773.50 0.1872
773.60 0.1871
773.70 0.187
773.80 0.1869
773.90 0.1868
774.00 0.1867
774.10 0.1866
774.20 0.1865
774.30 0.1864
774.40 0.1863
774.50 0.1862
774.60 0.1861
774.70 0.186
774.80 0.186
774.90 0.1859
775.00 0.1858
775.10 0.1857
775.20 0.1856
775.30 0.1855
775.40 0.1854
775.50 0.1853
775.60 0.1852
775.70 0.1851
775.80 0.185
775.90 0.1849
776.00 0.1848
776.10 0.1847
776.20 0.1847
776.30 0.1846
776.40 0.1845
776.50 0.1844
776.60 0.1843
776.70 0.1842
776.80 0.1841
776.90 0.184
777.00 0.1839
777.10 0.1838
777.20 0.1837
777.30 0.1836
777.40 0.1835
777.50 0.1835
777.60 0.1834
777.70 0.1833
777.80 0.1832
777.90 0.1831
778.00 0.183
778.10 0.1829
778.20 0.1828
778.30 0.1827
778.40 0.1826
778.50 0.1825
778.60 0.1824
778.70 0.1824
778.80 0.1823
778.90 0.1822
779.00 0.1821
779.10 0.182
779.20 0.1819
779.30 0.1818
779.40 0.1817
779.50 0.1816
779.60 0.1815
779.70 0.1814
779.80 0.1813
779.90 0.1813
780.00 0.1812
780.10 0.1811
780.20 0.181
780.30 0.1809
780.40 0.1808
780.50 0.1807
780.60 0.1806
780.70 0.1805
780.80 0.1805
780.90 0.1804
781.00 0.1803
781.10 0.1802
781.20 0.1801
781.30 0.18
781.40 0.1799
781.50 0.1798
781.60 0.1797
781.70 0.1797
781.80 0.1796
781.90 0.1795
782.00 0.1794
782.10 0.1793
782.20 0.1792
782.30 0.1791
782.40 0.179
782.50 0.1789
782.60 0.1789
782.70 0.1788
782.80 0.1787
782.90 0.1786
783.00 0.1785
783.10 0.1784
783.20 0.1783
783.30 0.1782
783.40 0.1781
783.50 0.1781
783.60 0.178
783.70 0.1779
783.80 0.1778
783.90 0.1777
784.00 0.1776
784.10 0.1775
784.20 0.1774
784.30 0.1774
784.40 0.1773
784.50 0.1772
784.60 0.1771
784.70 0.177
784.80 0.1769
784.90 0.1768
785.00 0.1767
785.10 0.1767
785.20 0.1766
785.30 0.1765
785.40 0.1764
785.50 0.1763
785.60 0.1762
785.70 0.1761
785.80 0.176
785.90 0.176
786.00 0.1759
786.10 0.1758
786.20 0.1757
786.30 0.1756
786.40 0.1755
786.50 0.1754
786.60 0.1754
786.70 0.1753
786.80 0.1752
786.90 0.1751
787.00 0.175
787.10 0.1749
787.20 0.1748
787.30 0.1747
787.40 0.1747
787.50 0.1746
787.60 0.1745
787.70 0.1744
787.80 0.1743
787.90 0.1742
788.00 0.1741
788.10 0.1741
788.20 0.174
788.30 0.1739
788.40 0.1738
788.50 0.1737
788.60 0.1736
788.70 0.1735
788.80 0.1735
788.90 0.1734
789.00 0.1733
789.10 0.1732
789.20 0.1731
789.30 0.173
789.40 0.1729
789.50 0.1729
789.60 0.1728
789.70 0.1727
789.80 0.1726
789.90 0.1725
790.00 0.1724
790.10 0.1723
790.20 0.1723
790.30 0.1722
790.40 0.1721
790.50 0.172
790.60 0.1719
790.70 0.1718
790.80 0.1718
790.90 0.1717
791.00 0.1716
791.10 0.1715
791.20 0.1714
791.30 0.1713
791.40 0.1713
791.50 0.1712
791.60 0.1711
791.70 0.171
791.80 0.1709
791.90 0.1708
792.00 0.1707
792.10 0.1707
792.20 0.1706
792.30 0.1705
792.40 0.1704
792.50 0.1703
792.60 0.1703
792.70 0.1702
792.80 0.1701
792.90 0.17
793.00 0.1699
793.10 0.1698
793.20 0.1698
793.30 0.1697
793.40 0.1696
793.50 0.1695
793.60 0.1694
793.70 0.1693
793.80 0.1693
793.90 0.1692
794.00 0.1691
794.10 0.169
794.20 0.1689
794.30 0.1688
794.40 0.1688
794.50 0.1687
794.60 0.1686
794.70 0.1685
794.80 0.1684
794.90 0.1683
795.00 0.1683
795.10 0.1682
795.20 0.1681
795.30 0.168
795.40 0.1679
795.50 0.1679
795.60 0.1678
795.70 0.1677
795.80 0.1676
795.90 0.1675
796.00 0.1674
796.10 0.1674
796.20 0.1673
796.30 0.1672
796.40 0.1671
796.50 0.167
796.60 0.167
796.70 0.1669
796.80 0.1668
796.90 0.1667
797.00 0.1666
797.10 0.1665
797.20 0.1665
797.30 0.1664
797.40 0.1663
797.50 0.1662
797.60 0.1661
797.70 0.1661
797.80 0.166
797.90 0.1659
798.00 0.1658
798.10 0.1657
798.20 0.1657
798.30 0.1656
798.40 0.1655
798.50 0.1654
798.60 0.1653
798.70 0.1652
798.80 0.1652
798.90 0.1651
799.00 0.165
799.10 0.1649
799.20 0.1648
799.30 0.1648
799.40 0.1647
799.50 0.1646
799.60 0.1645
799.70 0.1644
799.80 0.1644
799.90 0.1643
800.00 0.1642
800.10 0.1641
800.20 0.164
800.30 0.164
800.40 0.1639
800.50 0.1638
800.60 0.1637
800.70 0.1636
800.80 0.1636
800.90 0.1635
801.00 0.1634
801.10 0.1633
801.20 0.1633
801.30 0.1632
801.40 0.1631
801.50 0.163
801.60 0.1629
801.70 0.1629
801.80 0.1628
801.90 0.1627
802.00 0.1626
802.10 0.1625
802.20 0.1625
802.30 0.1624
802.40 0.1623
802.50 0.1622
802.60 0.1622
802.70 0.1621
802.80 0.162
802.90 0.1619
803.00 0.1618
803.10 0.1618
803.20 0.1617
803.30 0.1616
803.40 0.1615
803.50 0.1615
803.60 0.1614
803.70 0.1613
803.80 0.1612
803.90 0.1611
804.00 0.1611
804.10 0.161
804.20 0.1609
804.30 0.1608
804.40 0.1608
804.50 0.1607
804.60 0.1606
804.70 0.1605
804.80 0.1604
804.90 0.1604
805.00 0.1603
805.10 0.1602
805.20 0.1601
805.30 0.1601
805.40 0.16
805.50 0.1599
805.60 0.1598
805.70 0.1598
805.80 0.1597
805.90 0.1596
806.00 0.1595
806.10 0.1594
806.20 0.1594
806.30 0.1593
806.40 0.1592
806.50 0.1591
806.60 0.1591
806.70 0.159
806.80 0.1589
806.90 0.1588
807.00 0.1588
807.10 0.1587
807.20 0.1586
807.30 0.1585
807.40 0.1584
807.50 0.1584
807.60 0.1583
807.70 0.1582
807.80 0.1581
807.90 0.1581
808.00 0.158
808.10 0.1579
808.20 0.1578
808.30 0.1578
808.40 0.1577
808.50 0.1576
808.60 0.1575
808.70 0.1575
808.80 0.1574
808.90 0.1573
809.00 0.1572
809.10 0.1571
809.20 0.1571
809.30 0.157
809.40 0.1569
809.50 0.1568
809.60 0.1568
809.70 0.1567
809.80 0.1566
809.90 0.1565
810.00 0.1565
810.10 0.1564
810.20 0.1563
810.30 0.1562
810.40 0.1562
810.50 0.1561
810.60 0.156
810.70 0.1559
810.80 0.1559
810.90 0.1558
811.00 0.1557
811.10 0.1556
811.20 0.1556
811.30 0.1555
811.40 0.1554
811.50 0.1554
811.60 0.1553
811.70 0.1552
811.80 0.1551
811.90 0.1551
812.00 0.155
812.10 0.1549
812.20 0.1548
812.30 0.1548
812.40 0.1547
812.50 0.1546
812.60 0.1545
812.70 0.1545
812.80 0.1544
812.90 0.1543
813.00 0.1542
813.10 0.1542
813.20 0.1541
813.30 0.154
813.40 0.154
813.50 0.1539
813.60 0.1538
813.70 0.1537
813.80 0.1537
813.90 0.1536
814.00 0.1535
814.10 0.1534
814.20 0.1534
814.30 0.1533
814.40 0.1532
814.50 0.1531
814.60 0.1531
814.70 0.153
814.80 0.1529
814.90 0.1529
815.00 0.1528
815.10 0.1527
815.20 0.1526
815.30 0.1526
815.40 0.1525
815.50 0.1524
815.60 0.1523
815.70 0.1523
815.80 0.1522
815.90 0.1521
816.00 0.1521
816.10 0.152
816.20 0.1519
816.30 0.1518
816.40 0.1518
816.50 0.1517
816.60 0.1516
816.70 0.1515
816.80 0.1515
816.90 0.1514
817.00 0.1513
817.10 0.1513
817.20 0.1512
817.30 0.1511
817.40 0.151
817.50 0.151
817.60 0.1509
817.70 0.1508
817.80 0.1508
817.90 0.1507
818.00 0.1506
818.10 0.1505
818.20 0.1505
818.30 0.1504
818.40 0.1503
818.50 0.1503
818.60 0.1502
818.70 0.1501
818.80 0.15
818.90 0.15
819.00 0.1499
819.10 0.1498
819.20 0.1498
819.30 0.1497
819.40 0.1496
819.50 0.1495
819.60 0.1495
819.70 0.1494
819.80 0.1493
819.90 0.1493
820.00 0.1492
820.10 0.1491
820.20 0.149
820.30 0.149
820.40 0.1489
820.50 0.1488
820.60 0.1488
820.70 0.1487
820.80 0.1486
820.90 0.1485
821.00 0.1485
821.10 0.1484
821.20 0.1483
821.30 0.1483
821.40 0.1482
821.50 0.1481
821.60 0.1481
821.70 0.148
821.80 0.1479
821.90 0.1478
822.00 0.1478
822.10 0.1477
822.20 0.1476
822.30 0.1476
822.40 0.1475
822.50 0.1474
822.60 0.1474
822.70 0.1473
822.80 0.1472
822.90 0.1471
823.00 0.1471
823.10 0.147
823.20 0.1469
823.30 0.1469
823.40 0.1468
823.50 0.1467
823.60 0.1467
823.70 0.1466
823.80 0.1465
823.90 0.1465
824.00 0.1464
824.10 0.1463
824.20 0.1462
824.30 0.1462
824.40 0.1461
824.50 0.146
824.60 0.146
824.70 0.1459
824.80 0.1458
824.90 0.1458
825.00 0.1457
825.10 0.1456
825.20 0.1456
825.30 0.1455
825.40 0.1454
825.50 0.1454
825.60 0.1453
825.70 0.1452
825.80 0.1451
825.90 0.1451
826.00 0.145
826.10 0.1449
826.20 0.1449
826.30 0.1448
826.40 0.1447
826.50 0.1447
826.60 0.1446
826.70 0.1445
826.80 0.1445
826.90 0.1444
827.00 0.1443
827.10 0.1443
827.20 0.1442
827.30 0.1441
827.40 0.1441
827.50 0.144
827.60 0.1439
827.70 0.1439
827.80 0.1438
827.90 0.1437
828.00 0.1437
828.10 0.1436
828.20 0.1435
828.30 0.1435
828.40 0.1434
828.50 0.1433
828.60 0.1433
828.70 0.1432
828.80 0.1431
828.90 0.1431
829.00 0.143
829.10 0.1429
829.20 0.1429
829.30 0.1428
829.40 0.1427
829.50 0.1426
829.60 0.1426
829.70 0.1425
829.80 0.1424
829.90 0.1424
830.00 0.1423
830.10 0.1422
830.20 0.1422
830.30 0.1421
830.40 0.142
830.50 0.142
830.60 0.1419
830.70 0.1418
830.80 0.1418
830.90 0.1417
831.00 0.1416
831.10 0.1416
831.20 0.1415
831.30 0.1415
831.40 0.1414
831.50 0.1413
831.60 0.1413
831.70 0.1412
831.80 0.1411
831.90 0.1411
832.00 0.141
832.10 0.1409
832.20 0.1409
832.30 0.1408
832.40 0.1407
832.50 0.1407
832.60 0.1406
832.70 0.1405
832.80 0.1405
832.90 0.1404
833.00 0.1403
833.10 0.1403
833.20 0.1402
833.30 0.1401
833.40 0.1401
833.50 0.14
833.60 0.1399
833.70 0.1399
833.80 0.1398
833.90 0.1397
834.00 0.1397
834.10 0.1396
834.20 0.1395
834.30 0.1395
834.40 0.1394
834.50 0.1394
834.60 0.1393
834.70 0.1392
834.80 0.1392
834.90 0.1391
835.00 0.139
835.10 0.139
835.20 0.1389
835.30 0.1388
835.40 0.1388
835.50 0.1387
835.60 0.1386
835.70 0.1386
835.80 0.1385
835.90 0.1384
836.00 0.1384
836.10 0.1383
836.20 0.1383
836.30 0.1382
836.40 0.1381
836.50 0.1381
836.60 0.138
836.70 0.1379
836.80 0.1379
836.90 0.1378
837.00 0.1377
837.10 0.1377
837.20 0.1376
837.30 0.1375
837.40 0.1375
837.50 0.1374
837.60 0.1374
837.70 0.1373
837.80 0.1372
837.90 0.1372
838.00 0.1371
838.10 0.137
838.20 0.137
838.30 0.1369
838.40 0.1368
838.50 0.1368
838.60 0.1367
838.70 0.1367
838.80 0.1366
838.90 0.1365
839.00 0.1365
839.10 0.1364
839.20 0.1363
839.30 0.1363
839.40 0.1362
839.50 0.1361
839.60 0.1361
839.70 0.136
839.80 0.136
839.90 0.1359
840.00 0.1358
840.10 0.1358
840.20 0.1357
840.30 0.1356
840.40 0.1356
840.50 0.1355
840.60 0.1355
840.70 0.1354
840.80 0.1353
840.90 0.1353
841.00 0.1352
841.10 0.1351
841.20 0.1351
841.30 0.135
841.40 0.1349
841.50 0.1349
841.60 0.1348
841.70 0.1348
841.80 0.1347
841.90 0.1346
842.00 0.1346
842.10 0.1345
842.20 0.1344
842.30 0.1344
842.40 0.1343
842.50 0.1343
842.60 0.1342
842.70 0.1341
842.80 0.1341
842.90 0.134
843.00 0.134
843.10 0.1339
843.20 0.1338
843.30 0.1338
843.40 0.1337
843.50 0.1336
843.60 0.1336
843.70 0.1335
843.80 0.1335
843.90 0.1334
844.00 0.1333
844.10 0.1333
844.20 0.1332
844.30 0.1331
844.40 0.1331
844.50 0.133
844.60 0.133
844.70 0.1329
844.80 0.1328
844.90 0.1328
845.00 0.1327
845.10 0.1327
845.20 0.1326
845.30 0.1325
845.40 0.1325
845.50 0.1324
845.60 0.1324
845.70 0.1323
845.80 0.1322
845.90 0.1322
846.00 0.1321
846.10 0.132
846.20 0.132
846.30 0.1319
846.40 0.1319
846.50 0.1318
846.60 0.1317
846.70 0.1317
846.80 0.1316
846.90 0.1316
847.00 0.1315
847.10 0.1314
847.20 0.1314
847.30 0.1313
847.40 0.1313
847.50 0.1312
847.60 0.1311
847.70 0.1311
847.80 0.131
847.90 0.131
848.00 0.1309
848.10 0.1308
848.20 0.1308
848.30 0.1307
848.40 0.1307
848.50 0.1306
848.60 0.1305
848.70 0.1305
848.80 0.1304
848.90 0.1304
849.00 0.1303
849.10 0.1302
849.20 0.1302
849.30 0.1301
849.40 0.1301
849.50 0.13
849.60 0.1299
849.70 0.1299
849.80 0.1298
849.90 0.1298
850.00 0.1297
850.10 0.1296
850.20 0.1296
850.30 0.1295
850.40 0.1295
850.50 0.1294
850.60 0.1293
850.70 0.1293
850.80 0.1292
850.90 0.1292
851.00 0.1291
851.10 0.129
851.20 0.129
851.30 0.1289
851.40 0.1289
851.50 0.1288
851.60 0.1287
851.70 0.1287
851.80 0.1286
851.90 0.1286
852.00 0.1285
852.10 0.1284
852.20 0.1284
852.30 0.1283
852.40 0.1283
852.50 0.1282
852.60 0.1282
852.70 0.1281
852.80 0.128
852.90 0.128
853.00 0.1279
853.10 0.1279
853.20 0.1278
853.30 0.1277
853.40 0.1277
853.50 0.1276
853.60 0.1276
853.70 0.1275
853.80 0.1275
853.90 0.1274
854.00 0.1273
854.10 0.1273
854.20 0.1272
854.30 0.1272
854.40 0.1271
854.50 0.127
854.60 0.127
854.70 0.1269
854.80 0.1269
854.90 0.1268
855.00 0.1268
855.10 0.1267
855.20 0.1266
855.30 0.1266
855.40 0.1265
855.50 0.1265
855.60 0.1264
855.70 0.1264
855.80 0.1263
855.90 0.1262
856.00 0.1262
856.10 0.1261
856.20 0.1261
856.30 0.126
856.40 0.1259
856.50 0.1259
856.60 0.1258
856.70 0.1258
856.80 0.1257
856.90 0.1257
857.00 0.1256
857.10 0.1255
857.20 0.1255
857.30 0.1254
857.40 0.1254
857.50 0.1253
857.60 0.1253
857.70 0.1252
857.80 0.1251
857.90 0.1251
858.00 0.125
858.10 0.125
858.20 0.1249
858.30 0.1249
858.40 0.1248
858.50 0.1248
858.60 0.1247
858.70 0.1246
858.80 0.1246
858.90 0.1245
859.00 0.1245
859.10 0.1244
859.20 0.1244
859.30 0.1243
859.40 0.1243
859.50 0.1242
859.60 0.1241
859.70 0.1241
859.80 0.124
859.90 0.124
860.00 0.1239
860.10 0.1239
860.20 0.1238
860.30 0.1237
860.40 0.1237
860.50 0.1236
860.60 0.1236
860.70 0.1235
860.80 0.1235
860.90 0.1234
861.00 0.1234
861.10 0.1233
861.20 0.1232
861.30 0.1232
861.40 0.1231
861.50 0.1231
861.60 0.123
861.70 0.123
861.80 0.1229
861.90 0.1229
862.00 0.1228
862.10 0.1227
862.20 0.1227
862.30 0.1226
862.40 0.1226
862.50 0.1225
862.60 0.1225
862.70 0.1224
862.80 0.1224
862.90 0.1223
863.00 0.1222
863.10 0.1222
863.20 0.1221
863.30 0.1221
863.40 0.122
863.50 0.122
863.60 0.1219
863.70 0.1219
863.80 0.1218
863.90 0.1218
864.00 0.1217
864.10 0.1216
864.20 0.1216
864.30 0.1215
864.40 0.1215
864.50 0.1214
864.60 0.1214
864.70 0.1213
864.80 0.1213
864.90 0.1212
865.00 0.1211
865.10 0.1211
865.20 0.121
865.30 0.121
865.40 0.1209
865.50 0.1209
865.60 0.1208
865.70 0.1208
865.80 0.1207
865.90 0.1207
866.00 0.1206
866.10 0.1205
866.20 0.1205
866.30 0.1204
866.40 0.1204
866.50 0.1203
866.60 0.1203
866.70 0.1202
866.80 0.1202
866.90 0.1201
867.00 0.1201
867.10 0.12
867.20 0.1199
867.30 0.1199
867.40 0.1198
867.50 0.1198
867.60 0.1197
867.70 0.1197
867.80 0.1196
867.90 0.1196
868.00 0.1195
868.10 0.1195
868.20 0.1194
868.30 0.1194
868.40 0.1193
868.50 0.1193
868.60 0.1192
868.70 0.1191
868.80 0.1191
868.90 0.119
869.00 0.119
869.10 0.1189
869.20 0.1189
869.30 0.1188
869.40 0.1188
869.50 0.1187
869.60 0.1187
869.70 0.1186
869.80 0.1186
869.90 0.1185
870.00 0.1185
870.10 0.1184
870.20 0.1183
870.30 0.1183
870.40 0.1182
870.50 0.1182
870.60 0.1181
870.70 0.1181
870.80 0.118
870.90 0.118
871.00 0.1179
871.10 0.1179
871.20 0.1178
871.30 0.1178
871.40 0.1177
871.50 0.1177
871.60 0.1176
871.70 0.1176
871.80 0.1175
871.90 0.1174
872.00 0.1174
872.10 0.1173
872.20 0.1173
872.30 0.1172
872.40 0.1172
872.50 0.1171
872.60 0.1171
872.70 0.117
872.80 0.117
872.90 0.1169
873.00 0.1169
873.10 0.1168
873.20 0.1168
873.30 0.1167
873.40 0.1167
873.50 0.1166
873.60 0.1166
873.70 0.1165
873.80 0.1165
873.90 0.1164
874.00 0.1163
874.10 0.1163
874.20 0.1162
874.30 0.1162
874.40 0.1161
874.50 0.1161
874.60 0.116
874.70 0.116
874.80 0.1159
874.90 0.1159
875.00 0.1158
875.10 0.1158
875.20 0.1157
875.30 0.1157
875.40 0.1156
875.50 0.1156
875.60 0.1155
875.70 0.1155
875.80 0.1154
875.90 0.1154
876.00 0.1153
876.10 0.1153
876.20 0.1152
876.30 0.1152
876.40 0.1151
876.50 0.1151
876.60 0.115
876.70 0.115
876.80 0.1149
876.90 0.1148
877.00 0.1148
877.10 0.1147
877.20 0.1147
877.30 0.1146
877.40 0.1146
877.50 0.1145
877.60 0.1145
877.70 0.1144
877.80 0.1144
877.90 0.1143
878.00 0.1143
878.10 0.1142
878.20 0.1142
878.30 0.1141
878.40 0.1141
878.50 0.114
878.60 0.114
878.70 0.1139
878.80 0.1139
878.90 0.1138
879.00 0.1138
879.10 0.1137
879.20 0.1137
879.30 0.1136
879.40 0.1136
879.50 0.1135
879.60 0.1135
879.70 0.1134
879.80 0.1134
879.90 0.1133
880.00 0.1133
880.10 0.1132
880.20 0.1132
880.30 0.1131
880.40 0.1131
880.50 0.113
880.60 0.113
880.70 0.1129
880.80 0.1129
880.90 0.1128
881.00 0.1128
881.10 0.1127
881.20 0.1127
881.30 0.1126
881.40 0.1126
881.50 0.1125
881.60 0.1125
881.70 0.1124
881.80 0.1124
881.90 0.1123
882.00 0.1123
882.10 0.1122
882.20 0.1122
882.30 0.1121
882.40 0.1121
882.50 0.112
882.60 0.112
882.70 0.1119
882.80 0.1119
882.90 0.1118
883.00 0.1118
883.10 0.1117
883.20 0.1117
883.30 0.1116
883.40 0.1116
883.50 0.1115
883.60 0.1115
883.70 0.1114
883.80 0.1114
883.90 0.1113
884.00 0.1113
884.10 0.1112
884.20 0.1112
884.30 0.1111
884.40 0.1111
884.50 0.1111
884.60 0.111
884.70 0.111
884.80 0.1109
884.90 0.1109
885.00 0.1108
885.10 0.1108
885.20 0.1107
885.30 0.1107
885.40 0.1106
885.50 0.1106
885.60 0.1105
885.70 0.1105
885.80 0.1104
885.90 0.1104
886.00 0.1103
886.10 0.1103
886.20 0.1102
886.30 0.1102
886.40 0.1101
886.50 0.1101
886.60 0.11
886.70 0.11
886.80 0.1099
886.90 0.1099
887.00 0.1098
887.10 0.1098
887.20 0.1097
887.30 0.1097
887.40 0.1096
887.50 0.1096
887.60 0.1095
887.70 0.1095
887.80 0.1094
887.90 0.1094
888.00 0.1094
888.10 0.1093
888.20 0.1093
888.30 0.1092
888.40 0.1092
888.50 0.1091
888.60 0.1091
888.70 0.109
888.80 0.109
888.90 0.1089
889.00 0.1089
889.10 0.1088
889.20 0.1088
889.30 0.1087
889.40 0.1087
889.50 0.1086
889.60 0.1086
889.70 0.1085
889.80 0.1085
889.90 0.1084
890.00 0.1084
890.10 0.1084
890.20 0.1083
890.30 0.1083
890.40 0.1082
890.50 0.1082
890.60 0.1081
890.70 0.1081
890.80 0.108
890.90 0.108
891.00 0.1079
891.10 0.1079
891.20 0.1078
891.30 0.1078
891.40 0.1077
891.50 0.1077
891.60 0.1076
891.70 0.1076
891.80 0.1075
891.90 0.1075
892.00 0.1075
892.10 0.1074
892.20 0.1074
892.30 0.1073
892.40 0.1073
892.50 0.1072
892.60 0.1072
892.70 0.1071
892.80 0.1071
892.90 0.107
893.00 0.107
893.10 0.1069
893.20 0.1069
893.30 0.1068
893.40 0.1068
893.50 0.1068
893.60 0.1067
893.70 0.1067
893.80 0.1066
893.90 0.1066
894.00 0.1065
894.10 0.1065
894.20 0.1064
894.30 0.1064
894.40 0.1063
894.50 0.1063
894.60 0.1062
894.70 0.1062
894.80 0.1062
894.90 0.1061
895.00 0.1061
895.10 0.106
895.20 0.106
895.30 0.1059
895.40 0.1059
895.50 0.1058
895.60 0.1058
895.70 0.1057
895.80 0.1057
895.90 0.1056
896.00 0.1056
896.10 0.1056
896.20 0.1055
896.30 0.1055
896.40 0.1054
896.50 0.1054
896.60 0.1053
896.70 0.1053
896.80 0.1052
896.90 0.1052
897.00 0.1051
897.10 0.1051
897.20 0.105
897.30 0.105
897.40 0.105
897.50 0.1049
897.60 0.1049
897.70 0.1048
897.80 0.1048
897.90 0.1047
898.00 0.1047
898.10 0.1046
898.20 0.1046
898.30 0.1046
898.40 0.1045
898.50 0.1045
898.60 0.1044
898.70 0.1044
898.80 0.1043
898.90 0.1043
899.00 0.1042
899.10 0.1042
899.20 0.1041
899.30 0.1041
899.40 0.1041
899.50 0.104
899.60 0.104
899.70 0.1039
899.80 0.1039
899.90 0.1038
900.00 0.1038
900.10 0.1037
900.20 0.1037
900.30 0.1037
900.40 0.1036
900.50 0.1036
900.60 0.1035
900.70 0.1035
900.80 0.1034
900.90 0.1034
901.00 0.1033
901.10 0.1033
901.20 0.1032
901.30 0.1032
901.40 0.1032
901.50 0.1031
901.60 0.1031
901.70 0.103
901.80 0.103
901.90 0.1029
902.00 0.1029
902.10 0.1028
902.20 0.1028
902.30 0.1028
902.40 0.1027
902.50 0.1027
902.60 0.1026
902.70 0.1026
902.80 0.1025
902.90 0.1025
903.00 0.1024
903.10 0.1024
903.20 0.1024
903.30 0.1023
903.40 0.1023
903.50 0.1022
903.60 0.1022
903.70 0.1021
903.80 0.1021
903.90 0.1021
904.00 0.102
904.10 0.102
904.20 0.1019
904.30 0.1019
904.40 0.1018
904.50 0.1018
904.60 0.1017
904.70 0.1017
904.80 0.1017
904.90 0.1016
905.00 0.1016
905.10 0.1015
905.20 0.1015
905.30 0.1014
905.40 0.1014
905.50 0.1014
905.60 0.1013
905.70 0.1013
905.80 0.1012
905.90 0.1012
906.00 0.1011
906.10 0.1011
906.20 0.101
906.30 0.101
906.40 0.101
906.50 0.1009
906.60 0.1009
906.70 0.1008
906.80 0.1008
906.90 0.1007
907.00 0.1007
907.10 0.1007
907.20 0.1006
907.30 0.1006
907.40 0.1005
907.50 0.1005
907.60 0.1004
907.70 0.1004
907.80 0.1004
907.90 0.1003
908.00 0.1003
908.10 0.1002
908.20 0.1002
908.30 0.1001
908.40 0.1001
908.50 0.1001
908.60 0.1
908.70 0.09997
908.80 0.09993
908.90 0.09989
909.00 0.09984
909.10 0.0998
909.20 0.09976
909.30 0.09972
909.40 0.09967
909.50 0.09963
909.60 0.09959
909.70 0.09955
909.80 0.0995
909.90 0.09946
910.00 0.09942
910.10 0.09938
910.20 0.09933
910.30 0.09929
910.40 0.09925
910.50 0.09921
910.60 0.09916
910.70 0.09912
910.80 0.09908
910.90 0.09904
911.00 0.09899
911.10 0.09895
911.20 0.09891
911.30 0.09887
911.40 0.09883
911.50 0.09878
911.60 0.09874
911.70 0.0987
911.80 0.09866
911.90 0.09861
912.00 0.09857
912.10 0.09853
912.20 0.09849
912.30 0.09845
912.40 0.0984
912.50 0.09836
912.60 0.09832
912.70 0.09828
912.80 0.09824
912.90 0.0982
913.00 0.09815
913.10 0.09811
913.20 0.09807
913.30 0.09803
913.40 0.09799
913.50 0.09795
913.60 0.0979
913.70 0.09786
913.80 0.09782
913.90 0.09778
914.00 0.09774
914.10 0.0977
914.20 0.09766
914.30 0.09761
914.40 0.09757
914.50 0.09753
914.60 0.09749
914.70 0.09745
914.80 0.09741
914.90 0.09737
915.00 0.09732
915.10 0.09728
915.20 0.09724
915.30 0.0972
915.40 0.09716
915.50 0.09712
915.60 0.09708
915.70 0.09703
915.80 0.09699
915.90 0.09695
916.00 0.09691
916.10 0.09687
916.20 0.09683
916.30 0.09679
916.40 0.09675
916.50 0.09671
916.60 0.09666
916.70 0.09662
916.80 0.09658
916.90 0.09654
917.00 0.0965
917.10 0.09646
917.20 0.09642
917.30 0.09638
917.40 0.09634
917.50 0.0963
917.60 0.09626
917.70 0.09622
917.80 0.09618
917.90 0.09614
918.00 0.09609
918.10 0.09605
918.20 0.09601
918.30 0.09597
918.40 0.09593
918.50 0.09589
918.60 0.09585
918.70 0.09581
918.80 0.09577
918.90 0.09573
919.00 0.09569
919.10 0.09565
919.20 0.09561
919.30 0.09557
919.40 0.09553
919.50 0.09549
919.60 0.09545
919.70 0.09541
919.80 0.09537
919.90 0.09533
920.00 0.09529
920.10 0.09525
920.20 0.09521
920.30 0.09517
920.40 0.09513
920.50 0.09509
920.60 0.09505
920.70 0.09501
920.80 0.09497
920.90 0.09493
921.00 0.09489
921.10 0.09485
921.20 0.09481
921.30 0.09477
921.40 0.09473
921.50 0.09469
921.60 0.09465
921.70 0.09461
921.80 0.09457
921.90 0.09453
922.00 0.09449
922.10 0.09445
922.20 0.09441
922.30 0.09437
922.40 0.09433
922.50 0.09429
922.60 0.09425
922.70 0.09421
922.80 0.09417
922.90 0.09413
923.00 0.09409
923.10 0.09405
923.20 0.09401
923.30 0.09398
923.40 0.09394
923.50 0.0939
923.60 0.09386
923.70 0.09382
923.80 0.09378
923.90 0.09374
924.00 0.0937
924.10 0.09366
924.20 0.09362
924.30 0.09358
924.40 0.09354
924.50 0.0935
924.60 0.09346
924.70 0.09342
924.80 0.09339
924.90 0.09335
925.00 0.09331
925.10 0.09327
925.20 0.09323
925.30 0.09319
925.40 0.09315
925.50 0.09311
925.60 0.09307
925.70 0.09303
925.80 0.09299
925.90 0.09296
926.00 0.09292
926.10 0.09288
926.20 0.09284
926.30 0.0928
926.40 0.09276
926.50 0.09272
926.60 0.09268
926.70 0.09264
926.80 0.0926
926.90 0.09257
927.00 0.09253
927.10 0.09249
927.20 0.09245
927.30 0.09241
927.40 0.09237
927.50 0.09233
927.60 0.0923
927.70 0.09226
927.80 0.09222
927.90 0.09218
928.00 0.09214
928.10 0.0921
928.20 0.09207
928.30 0.09203
928.40 0.09199
928.50 0.09195
928.60 0.09191
928.70 0.09187
928.80 0.09184
928.90 0.0918
929.00 0.09176
929.10 0.09172
929.20 0.09168
929.30 0.09164
929.40 0.09161
929.50 0.09157
929.60 0.09153
929.70 0.09149
929.80 0.09145
929.90 0.09142
930.00 0.09138
930.10 0.09134
930.20 0.0913
930.30 0.09126
930.40 0.09122
930.50 0.09119
930.60 0.09115
930.70 0.09111
930.80 0.09107
930.90 0.09103
931.00 0.091
931.10 0.09096
931.20 0.09092
931.30 0.09088
931.40 0.09085
931.50 0.09081
931.60 0.09077
931.70 0.09073
931.80 0.09069
931.90 0.09066
932.00 0.09062
932.10 0.09058
932.20 0.09054
932.30 0.09051
932.40 0.09047
932.50 0.09043
932.60 0.09039
932.70 0.09035
932.80 0.09032
932.90 0.09028
933.00 0.09024
933.10 0.0902
933.20 0.09017
933.30 0.09013
933.40 0.09009
933.50 0.09005
933.60 0.09002
933.70 0.08998
933.80 0.08994
933.90 0.08991
934.00 0.08987
934.10 0.08983
934.20 0.08979
934.30 0.08976
934.40 0.08972
934.50 0.08968
934.60 0.08964
934.70 0.08961
934.80 0.08957
934.90 0.08953
935.00 0.0895
935.10 0.08946
935.20 0.08942
935.30 0.08938
935.40 0.08935
935.50 0.08931
935.60 0.08927
935.70 0.08924
935.80 0.0892
935.90 0.08916
936.00 0.08912
936.10 0.08909
936.20 0.08905
936.30 0.08901
936.40 0.08898
936.50 0.08894
936.60 0.0889
936.70 0.08887
936.80 0.08883
936.90 0.08879
937.00 0.08875
937.10 0.08872
937.20 0.08868
937.30 0.08864
937.40 0.08861
937.50 0.08857
937.60 0.08853
937.70 0.0885
937.80 0.08846
937.90 0.08842
938.00 0.08839
938.10 0.08835
938.20 0.08831
938.30 0.08828
938.40 0.08824
938.50 0.0882
938.60 0.08817
938.70 0.08813
938.80 0.08809
938.90 0.08806
939.00 0.08802
939.10 0.08798
939.20 0.08795
939.30 0.08791
939.40 0.08788
939.50 0.08784
939.60 0.0878
939.70 0.08777
939.80 0.08773
939.90 0.08769
940.00 0.08766
940.10 0.08762
940.20 0.08758
940.30 0.08755
940.40 0.08751
940.50 0.08747
940.60 0.08744
940.70 0.0874
940.80 0.08737
940.90 0.08733
941.00 0.08729
941.10 0.08726
941.20 0.08722
941.30 0.08718
941.40 0.08715
941.50 0.08711
941.60 0.08708
941.70 0.08704
941.80 0.087
941.90 0.08697
942.00 0.08693
942.10 0.0869
942.20 0.08686
942.30 0.08682
942.40 0.08679
942.50 0.08675
942.60 0.08672
942.70 0.08668
942.80 0.08664
942.90 0.08661
943.00 0.08657
943.10 0.08654
943.20 0.0865
943.30 0.08646
943.40 0.08643
943.50 0.08639
943.60 0.08636
943.70 0.08632
943.80 0.08629
943.90 0.08625
944.00 0.08621
944.10 0.08618
944.20 0.08614
944.30 0.08611
944.40 0.08607
944.50 0.08604
944.60 0.086
944.70 0.08596
944.80 0.08593
944.90 0.08589
945.00 0.08586
945.10 0.08582
945.20 0.08579
945.30 0.08575
945.40 0.08572
945.50 0.08568
945.60 0.08564
945.70 0.08561
945.80 0.08557
945.90 0.08554
946.00 0.0855
946.10 0.08547
946.20 0.08543
946.30 0.0854
946.40 0.08536
946.50 0.08533
946.60 0.08529
946.70 0.08526
946.80 0.08522
946.90 0.08519
947.00 0.08515
947.10 0.08511
947.20 0.08508
947.30 0.08504
947.40 0.08501
947.50 0.08497
947.60 0.08494
947.70 0.0849
947.80 0.08487
947.90 0.08483
948.00 0.0848
948.10 0.08476
948.20 0.08473
948.30 0.08469
948.40 0.08466
948.50 0.08462
948.60 0.08459
948.70 0.08455
948.80 0.08452
948.90 0.08449
949.00 0.08445
949.10 0.08442
949.20 0.08438
949.30 0.08435
949.40 0.08431
949.50 0.08428
949.60 0.08424
949.70 0.08421
949.80 0.08417
949.90 0.08414
950.00 0.0841
950.10 0.08407
950.20 0.08403
950.30 0.084
950.40 0.08397
950.50 0.08393
950.60 0.0839
950.70 0.08386
950.80 0.08383
950.90 0.08379
951.00 0.08376
951.10 0.08372
951.20 0.08369
951.30 0.08366
951.40 0.08362
951.50 0.08359
951.60 0.08355
951.70 0.08352
951.80 0.08349
951.90 0.08345
952.00 0.08342
952.10 0.08338
952.20 0.08335
952.30 0.08332
952.40 0.08328
952.50 0.08325
952.60 0.08321
952.70 0.08318
952.80 0.08315
952.90 0.08311
953.00 0.08308
953.10 0.08305
953.20 0.08301
953.30 0.08298
953.40 0.08295
953.50 0.08291
953.60 0.08288
953.70 0.08285
953.80 0.08281
953.90 0.08278
954.00 0.08275
954.10 0.08271
954.20 0.08268
954.30 0.08265
954.40 0.08261
954.50 0.08258
954.60 0.08255
954.70 0.08251
954.80 0.08248
954.90 0.08245
955.00 0.08241
955.10 0.08238
955.20 0.08235
955.30 0.08231
955.40 0.08228
955.50 0.08224
955.60 0.08221
955.70 0.08218
955.80 0.08214
955.90 0.08211
956.00 0.08208
956.10 0.08204
956.20 0.08201
956.30 0.08198
956.40 0.08195
956.50 0.08191
956.60 0.08188
956.70 0.08185
956.80 0.08181
956.90 0.08178
957.00 0.08175
957.10 0.08171
957.20 0.08168
957.30 0.08165
957.40 0.08162
957.50 0.08158
957.60 0.08155
957.70 0.08152
957.80 0.08149
957.90 0.08145
958.00 0.08142
958.10 0.08139
958.20 0.08136
958.30 0.08132
958.40 0.08129
958.50 0.08126
958.60 0.08123
958.70 0.08119
958.80 0.08116
958.90 0.08113
959.00 0.0811
959.10 0.08106
959.20 0.08103
959.30 0.081
959.40 0.08097
959.50 0.08093
959.60 0.0809
959.70 0.08087
959.80 0.08084
959.90 0.08081
960.00 0.08077
960.10 0.08074
960.20 0.08071
960.30 0.08068
960.40 0.08065
960.50 0.08061
960.60 0.08058
960.70 0.08055
960.80 0.08052
960.90 0.08049
961.00 0.08045
961.10 0.08042
961.20 0.08039
961.30 0.08036
961.40 0.08033
961.50 0.08029
961.60 0.08026
961.70 0.08023
961.80 0.0802
961.90 0.08017
962.00 0.08013
962.10 0.0801
962.20 0.08007
962.30 0.08004
962.40 0.08001
962.50 0.07998
962.60 0.07994
962.70 0.07991
962.80 0.07988
962.90 0.07985
963.00 0.07982
963.10 0.07979
963.20 0.07975
963.30 0.07972
963.40 0.07969
963.50 0.07966
963.60 0.07963
963.70 0.0796
963.80 0.07957
963.90 0.07953
964.00 0.0795
964.10 0.07947
964.20 0.07944
964.30 0.07941
964.40 0.07938
964.50 0.07934
964.60 0.07931
964.70 0.07928
964.80 0.07925
964.90 0.07922
965.00 0.07919
965.10 0.07916
965.20 0.07913
965.30 0.07909
965.40 0.07906
965.50 0.07903
965.60 0.079
965.70 0.07897
965.80 0.07894
965.90 0.07891
966.00 0.07887
966.10 0.07884
966.20 0.07881
966.30 0.07878
966.40 0.07875
966.50 0.07872
966.60 0.07869
966.70 0.07866
966.80 0.07862
966.90 0.07859
967.00 0.07856
967.10 0.07853
967.20 0.0785
967.30 0.07847
967.40 0.07844
967.50 0.07841
967.60 0.07838
967.70 0.07834
967.80 0.07831
967.90 0.07828
968.00 0.07825
968.10 0.07822
968.20 0.07819
968.30 0.07816
968.40 0.07813
968.50 0.0781
968.60 0.07806
968.70 0.07803
968.80 0.078
968.90 0.07797
969.00 0.07794
969.10 0.07791
969.20 0.07788
969.30 0.07785
969.40 0.07782
969.50 0.07779
969.60 0.07776
969.70 0.07772
969.80 0.07769
969.90 0.07766
970.00 0.07763
970.10 0.0776
970.20 0.07757
970.30 0.07754
970.40 0.07751
970.50 0.07748
970.60 0.07745
970.70 0.07742
970.80 0.07739
970.90 0.07735
971.00 0.07732
971.10 0.07729
971.20 0.07726
971.30 0.07723
971.40 0.0772
971.50 0.07717
971.60 0.07714
971.70 0.07711
971.80 0.07708
971.90 0.07705
972.00 0.07702
972.10 0.07699
972.20 0.07695
972.30 0.07692
972.40 0.07689
972.50 0.07686
972.60 0.07683
972.70 0.0768
972.80 0.07677
972.90 0.07674
973.00 0.07671
973.10 0.07668
973.20 0.07665
973.30 0.07662
973.40 0.07659
973.50 0.07656
973.60 0.07653
973.70 0.0765
973.80 0.07646
973.90 0.07643
974.00 0.0764
974.10 0.07637
974.20 0.07634
974.30 0.07631
974.40 0.07628
974.50 0.07625
974.60 0.07622
974.70 0.07619
974.80 0.07616
974.90 0.07613
975.00 0.0761
975.10 0.07607
975.20 0.07604
975.30 0.07601
975.40 0.07598
975.50 0.07595
975.60 0.07592
975.70 0.07589
975.80 0.07585
975.90 0.07582
976.00 0.07579
976.10 0.07576
976.20 0.07573
976.30 0.0757
976.40 0.07567
976.50 0.07564
976.60 0.07561
976.70 0.07558
976.80 0.07555
976.90 0.07552
977.00 0.07549
977.10 0.07546
977.20 0.07543
977.30 0.0754
977.40 0.07537
977.50 0.07534
977.60 0.07531
977.70 0.07528
977.80 0.07525
977.90 0.07522
978.00 0.07519
978.10 0.07516
978.20 0.07513
978.30 0.0751
978.40 0.07507
978.50 0.07504
978.60 0.07501
978.70 0.07498
978.80 0.07495
978.90 0.07492
979.00 0.07489
979.10 0.07485
979.20 0.07482
979.30 0.07479
979.40 0.07476
979.50 0.07473
979.60 0.0747
979.70 0.07467
979.80 0.07464
979.90 0.07461
980.00 0.07458
980.10 0.07455
980.20 0.07452
980.30 0.07449
980.40 0.07446
980.50 0.07443
980.60 0.0744
980.70 0.07437
980.80 0.07434
980.90 0.07431
981.00 0.07428
981.10 0.07425
981.20 0.07422
981.30 0.07419
981.40 0.07416
981.50 0.07413
981.60 0.0741
981.70 0.07407
981.80 0.07404
981.90 0.07401
982.00 0.07398
982.10 0.07395
982.20 0.07392
982.30 0.07389
982.40 0.07386
982.50 0.07383
982.60 0.0738
982.70 0.07377
982.80 0.07374
982.90 0.07371
983.00 0.07368
983.10 0.07365
983.20 0.07362
983.30 0.07359
983.40 0.07356
983.50 0.07353
983.60 0.0735
983.70 0.07347
983.80 0.07344
983.90 0.07342
984.00 0.07339
984.10 0.07336
984.20 0.07333
984.30 0.0733
984.40 0.07327
984.50 0.07324
984.60 0.07321
984.70 0.07318
984.80 0.07315
984.90 0.07312
985.00 0.07309
985.10 0.07306
985.20 0.07303
985.30 0.073
985.40 0.07297
985.50 0.07294
985.60 0.07291
985.70 0.07288
985.80 0.07285
985.90 0.07282
986.00 0.07279
986.10 0.07276
986.20 0.07273
986.30 0.0727
986.40 0.07267
986.50 0.07264
986.60 0.07261
986.70 0.07258
986.80 0.07255
986.90 0.07252
987.00 0.07249
987.10 0.07246
987.20 0.07243
987.30 0.0724
987.40 0.07237
987.50 0.07234
987.60 0.07231
987.70 0.07228
987.80 0.07225
987.90 0.07223
988.00 0.0722
988.10 0.07217
988.20 0.07214
988.30 0.07211
988.40 0.07208
988.50 0.07205
988.60 0.07202
988.70 0.07199
988.80 0.07196
988.90 0.07193
989.00 0.0719
989.10 0.07187
989.20 0.07184
989.30 0.07181
989.40 0.07178
989.50 0.07175
989.60 0.07172
989.70 0.07169
989.80 0.07166
989.90 0.07163
990.00 0.0716
990.10 0.07157
990.20 0.07154
990.30 0.07152
990.40 0.07149
990.50 0.07146
990.60 0.07143
990.70 0.0714
990.80 0.07137
990.90 0.07134
991.00 0.07131
991.10 0.07128
991.20 0.07125
991.30 0.07122
991.40 0.07119
991.50 0.07116
991.60 0.07113
991.70 0.0711
991.80 0.07107
991.90 0.07104
992.00 0.07101
992.10 0.07098
992.20 0.07096
992.30 0.07093
992.40 0.0709
992.50 0.07087
992.60 0.07084
992.70 0.07081
992.80 0.07078
992.90 0.07075
993.00 0.07072
993.10 0.07069
993.20 0.07066
993.30 0.07063
993.40 0.0706
993.50 0.07057
993.60 0.07054
993.70 0.07052
993.80 0.07049
993.90 0.07046
994.00 0.07043
994.10 0.0704
994.20 0.07037
994.30 0.07034
994.40 0.07031
994.50 0.07028
994.60 0.07025
994.70 0.07022
994.80 0.07019
994.90 0.07016
995.00 0.07014
995.10 0.07011
995.20 0.07008
995.30 0.07005
995.40 0.07002
995.50 0.06999
995.60 0.06996
995.70 0.06993
995.80 0.0699
995.90 0.06987
996.00 0.06984
996.10 0.06982
996.20 0.06979
996.30 0.06976
996.40 0.06973
996.50 0.0697
996.60 0.06967
996.70 0.06964
996.80 0.06961
996.90 0.06958
997.00 0.06955
997.10 0.06953
997.20 0.0695
997.30 0.06947
997.40 0.06944
997.50 0.06941
997.60 0.06938
997.70 0.06935
997.80 0.06932
997.90 0.0693
998.00 0.06927
998.10 0.06924
998.20 0.06921
998.30 0.06918
998.40 0.06915
998.50 0.06912
998.60 0.0691
998.70 0.06907
998.80 0.06904
998.90 0.06901
999.00 0.06898
999.10 0.06895
999.20 0.06892
999.30 0.0689
999.40 0.06887
999.50 0.06884
999.60 0.06881
999.70 0.06878
999.80 0.06875
999.90 0.06872
1000.00 0.06869
1000.10 0.06866
1000.20 0.06863
1000.30 0.0686
1000.40 0.06858
1000.50 0.06855
1000.60 0.06852
1000.70 0.06849
1000.80 0.06846
1000.90 0.06843
1001.00 0.0684
1001.10 0.06837
1001.20 0.06834
1001.30 0.06831
1001.40 0.06828
1001.50 0.06825
1001.60 0.06822
1001.70 0.0682
1001.80 0.06817
1001.90 0.06814
1002.00 0.06812
1002.10 0.06809
1002.20 0.06806
1002.30 0.06804
1002.40 0.06801
1002.50 0.06799
1002.60 0.06796
1002.70 0.06793
1002.80 0.06791
1002.90 0.06788
1003.00 0.06785
1003.10 0.06783
1003.20 0.0678
1003.30 0.06778
1003.40 0.06775
1003.50 0.06773
1003.60 0.0677
1003.70 0.06768
1003.80 0.06765
1003.90 0.06763
1004.00 0.06761
1004.10 0.06758
1004.20 0.06756
1004.30 0.06753
1004.40 0.06751
1004.50 0.06749
1004.60 0.06746
1004.70 0.06744
1004.80 0.06741
1004.90 0.06739
1005.00 0.06736
1005.10 0.06733
1005.20 0.06731
1005.30 0.06728
1005.40 0.06725
1005.50 0.06723
1005.60 0.0672
1005.70 0.06717
1005.80 0.06714
1005.90 0.06712
1006.00 0.06709
1006.10 0.06706
1006.20 0.06703
1006.30 0.06701
1006.40 0.06698
1006.50 0.06695
1006.60 0.06693
1006.70 0.0669
1006.80 0.06687
1006.90 0.06685
1007.00 0.06682
1007.10 0.0668
1007.20 0.06677
1007.30 0.06674
1007.40 0.06672
1007.50 0.06669
1007.60 0.06667
1007.70 0.06664
1007.80 0.06662
1007.90 0.06659
1008.00 0.06657
1008.10 0.06654
1008.20 0.06652
1008.30 0.0665
1008.40 0.06647
1008.50 0.06645
1008.60 0.06642
1008.70 0.0664
1008.80 0.06637
1008.90 0.06635
1009.00 0.06632
1009.10 0.0663
1009.20 0.06628
1009.30 0.06625
1009.40 0.06623
1009.50 0.0662
1009.60 0.06618
1009.70 0.06615
1009.80 0.06613
1009.90 0.06611
1010.00 0.06608
1010.10 0.06606
1010.20 0.06604
1010.30 0.06601
1010.40 0.06599
1010.50 0.06597
1010.60 0.06594
1010.70 0.06592
1010.80 0.0659
1010.90 0.06587
1011.00 0.06585
1011.10 0.06582
1011.20 0.0658
1011.30 0.06578
1011.40 0.06575
1011.50 0.06573
1011.60 0.06571
1011.70 0.06568
1011.80 0.06566
1011.90 0.06564
1012.00 0.06561
1012.10 0.06559
1012.20 0.06557
1012.30 0.06554
1012.40 0.06552
1012.50 0.0655
1012.60 0.06548
1012.70 0.06545
1012.80 0.06543
1012.90 0.06541
1013.00 0.06538
1013.10 0.06536
1013.20 0.06534
1013.30 0.06531
1013.40 0.06529
1013.50 0.06527
1013.60 0.06524
1013.70 0.06522
1013.80 0.0652
1013.90 0.06518
1014.00 0.06515
1014.10 0.06513
1014.20 0.06511
1014.30 0.06508
1014.40 0.06506
1014.50 0.06504
1014.60 0.06501
1014.70 0.06499
1014.80 0.06497
1014.90 0.06495
1015.00 0.06492
1015.10 0.0649
1015.20 0.06488
1015.30 0.06485
1015.40 0.06483
1015.50 0.06481
1015.60 0.06478
1015.70 0.06476
1015.80 0.06474
1015.90 0.06472
1016.00 0.06469
1016.10 0.06467
1016.20 0.06465
1016.30 0.06462
1016.40 0.0646
1016.50 0.06458
1016.60 0.06456
1016.70 0.06453
1016.80 0.06451
1016.90 0.06449
1017.00 0.06446
1017.10 0.06444
1017.20 0.06442
1017.30 0.0644
1017.40 0.06437
1017.50 0.06435
1017.60 0.06433
1017.70 0.0643
1017.80 0.06428
1017.90 0.06426
1018.00 0.06424
1018.10 0.06421
1018.20 0.06419
1018.30 0.06417
1018.40 0.06414
1018.50 0.06412
1018.60 0.0641
1018.70 0.06408
1018.80 0.06405
1018.90 0.06403
1019.00 0.06401
1019.10 0.06398
1019.20 0.06396
1019.30 0.06394
1019.40 0.06392
1019.50 0.06389
1019.60 0.06387
1019.70 0.06385
1019.80 0.06382
1019.90 0.0638
1020.00 0.06378
1020.10 0.06376
1020.20 0.06373
1020.30 0.06371
1020.40 0.06369
1020.50 0.06367
1020.60 0.06364
1020.70 0.06362
1020.80 0.0636
1020.90 0.06357
1021.00 0.06355
1021.10 0.06353
1021.20 0.06351
1021.30 0.06348
1021.40 0.06346
1021.50 0.06344
1021.60 0.06341
1021.70 0.06339
1021.80 0.06337
1021.90 0.06335
1022.00 0.06332
1022.10 0.0633
1022.20 0.06328
1022.30 0.06326
1022.40 0.06323
1022.50 0.06321
1022.60 0.06319
1022.70 0.06316
1022.80 0.06314
1022.90 0.06312
1023.00 0.0631
1023.10 0.06307
1023.20 0.06305
1023.30 0.06303
1023.40 0.063
1023.50 0.06298
1023.60 0.06296
1023.70 0.06294
1023.80 0.06291
1023.90 0.06289
1024.00 0.06287
1024.10 0.06285
1024.20 0.06282
1024.30 0.0628
1024.40 0.06278
1024.50 0.06276
1024.60 0.06273
1024.70 0.06271
1024.80 0.06269
1024.90 0.06266
1025.00 0.06264
1025.10 0.06262
1025.20 0.0626
1025.30 0.06257
1025.40 0.06255
1025.50 0.06253
1025.60 0.06251
1025.70 0.06248
1025.80 0.06246
1025.90 0.06244
1026.00 0.06241
1026.10 0.06239
1026.20 0.06237
1026.30 0.06235
1026.40 0.06232
1026.50 0.0623
1026.60 0.06228
1026.70 0.06226
1026.80 0.06223
1026.90 0.06221
1027.00 0.06219
1027.10 0.06217
1027.20 0.06214
1027.30 0.06212
1027.40 0.0621
1027.50 0.06207
1027.60 0.06205
1027.70 0.06203
1027.80 0.06201
1027.90 0.06198
1028.00 0.06196
1028.10 0.06194
1028.20 0.06192
1028.30 0.06189
1028.40 0.06187
1028.50 0.06185
1028.60 0.06183
1028.70 0.0618
1028.80 0.06178
1028.90 0.06176
1029.00 0.06174
1029.10 0.06171
1029.20 0.06169
1029.30 0.06167
1029.40 0.06164
1029.50 0.06162
1029.60 0.0616
1029.70 0.06158
1029.80 0.06155
1029.90 0.06153
1030.00 0.06151
1030.10 0.06149
1030.20 0.06146
1030.30 0.06144
1030.40 0.06142
1030.50 0.0614
1030.60 0.06137
1030.70 0.06135
1030.80 0.06133
1030.90 0.06131
1031.00 0.06128
1031.10 0.06126
1031.20 0.06124
1031.30 0.06122
1031.40 0.0612
1031.50 0.06117
1031.60 0.06115
1031.70 0.06113
1031.80 0.06111
1031.90 0.06108
1032.00 0.06106
1032.10 0.06104
1032.20 0.06102
1032.30 0.06099
1032.40 0.06097
1032.50 0.06095
1032.60 0.06093
1032.70 0.0609
1032.80 0.06088
1032.90 0.06086
1033.00 0.06084
1033.10 0.06081
1033.20 0.06079
1033.30 0.06077
1033.40 0.06075
1033.50 0.06072
1033.60 0.0607
1033.70 0.06068
1033.80 0.06066
1033.90 0.06063
1034.00 0.06061
1034.10 0.06059
1034.20 0.06057
1034.30 0.06055
1034.40 0.06052
1034.50 0.0605
1034.60 0.06048
1034.70 0.06046
1034.80 0.06043
1034.90 0.06041
1035.00 0.06039
1035.10 0.06037
1035.20 0.06034
1035.30 0.06032
1035.40 0.0603
1035.50 0.06028
1035.60 0.06026
1035.70 0.06023
1035.80 0.06021
1035.90 0.06019
1036.00 0.06017
1036.10 0.06014
1036.20 0.06012
1036.30 0.0601
1036.40 0.06008
1036.50 0.06006
1036.60 0.06003
1036.70 0.06001
1036.80 0.05999
1036.90 0.05997
1037.00 0.05994
1037.10 0.05992
1037.20 0.0599
1037.30 0.05988
1037.40 0.05986
1037.50 0.05983
1037.60 0.05981
1037.70 0.05979
1037.80 0.05977
1037.90 0.05974
1038.00 0.05972
1038.10 0.0597
1038.20 0.05968
1038.30 0.05966
1038.40 0.05963
1038.50 0.05961
1038.60 0.05959
1038.70 0.05957
1038.80 0.05955
1038.90 0.05952
1039.00 0.0595
1039.10 0.05948
1039.20 0.05946
1039.30 0.05944
1039.40 0.05941
1039.50 0.05939
1039.60 0.05937
1039.70 0.05935
1039.80 0.05932
1039.90 0.0593
1040.00 0.05928
1040.10 0.05926
1040.20 0.05924
1040.30 0.05921
1040.40 0.05919
1040.50 0.05917
1040.60 0.05915
1040.70 0.05913
1040.80 0.0591
1040.90 0.05908
1041.00 0.05906
1041.10 0.05904
1041.20 0.05902
1041.30 0.059
1041.40 0.05897
1041.50 0.05895
1041.60 0.05893
1041.70 0.05891
1041.80 0.05889
1041.90 0.05886
1042.00 0.05884
1042.10 0.05882
1042.20 0.0588
1042.30 0.05878
1042.40 0.05875
1042.50 0.05873
1042.60 0.05871
1042.70 0.05869
1042.80 0.05867
1042.90 0.05864
1043.00 0.05862
1043.10 0.0586
1043.20 0.05858
1043.30 0.05856
1043.40 0.05854
1043.50 0.05851
1043.60 0.05849
1043.70 0.05847
1043.80 0.05845
1043.90 0.05843
1044.00 0.0584
1044.10 0.05838
1044.20 0.05836
1044.30 0.05834
1044.40 0.05832
1044.50 0.0583
1044.60 0.05827
1044.70 0.05825
1044.80 0.05823
1044.90 0.05821
1045.00 0.05819
1045.10 0.05817
1045.20 0.05814
1045.30 0.05812
1045.40 0.0581
1045.50 0.05808
1045.60 0.05806
1045.70 0.05804
1045.80 0.05801
1045.90 0.05799
1046.00 0.05797
1046.10 0.05795
1046.20 0.05793
1046.30 0.05791
1046.40 0.05788
1046.50 0.05786
1046.60 0.05784
1046.70 0.05782
1046.80 0.0578
1046.90 0.05778
1047.00 0.05775
1047.10 0.05773
1047.20 0.05771
1047.30 0.05769
1047.40 0.05767
1047.50 0.05765
1047.60 0.05762
1047.70 0.0576
1047.80 0.05758
1047.90 0.05756
1048.00 0.05754
1048.10 0.05752
1048.20 0.0575
1048.30 0.05747
1048.40 0.05745
1048.50 0.05743
1048.60 0.05741
1048.70 0.05739
1048.80 0.05737
1048.90 0.05734
1049.00 0.05732
1049.10 0.0573
1049.20 0.05728
1049.30 0.05726
1049.40 0.05724
1049.50 0.05722
1049.60 0.05719
1049.70 0.05717
1049.80 0.05715
1049.90 0.05713
1050.00 0.05711
1050.10 0.05709
1050.20 0.05707
1050.30 0.05704
1050.40 0.05702
1050.50 0.057
1050.60 0.05698
1050.70 0.05696
1050.80 0.05694
1050.90 0.05692
1051.00 0.05689
1051.10 0.05687
1051.20 0.05685
1051.30 0.05683
1051.40 0.05681
1051.50 0.05679
1051.60 0.05677
1051.70 0.05674
1051.80 0.05672
1051.90 0.0567
1052.00 0.05668
1052.10 0.05666
1052.20 0.05664
1052.30 0.05662
1052.40 0.0566
1052.50 0.05657
1052.60 0.05655
1052.70 0.05653
1052.80 0.05651
1052.90 0.05649
1053.00 0.05647
1053.10 0.05645
1053.20 0.05642
1053.30 0.0564
1053.40 0.05638
1053.50 0.05636
1053.60 0.05634
1053.70 0.05632
1053.80 0.0563
1053.90 0.05628
1054.00 0.05625
1054.10 0.05623
1054.20 0.05621
1054.30 0.05619
1054.40 0.05617
1054.50 0.05615
1054.60 0.05613
1054.70 0.05611
1054.80 0.05609
1054.90 0.05606
1055.00 0.05604
1055.10 0.05602
1055.20 0.056
1055.30 0.05598
1055.40 0.05596
1055.50 0.05594
1055.60 0.05592
1055.70 0.05589
1055.80 0.05587
1055.90 0.05585
1056.00 0.05583
1056.10 0.05581
1056.20 0.05579
1056.30 0.05577
1056.40 0.05575
1056.50 0.05573
1056.60 0.0557
1056.70 0.05568
1056.80 0.05566
1056.90 0.05564
1057.00 0.05562
1057.10 0.0556
1057.20 0.05558
1057.30 0.05556
1057.40 0.05554
1057.50 0.05552
1057.60 0.05549
1057.70 0.05547
1057.80 0.05545
1057.90 0.05543
1058.00 0.05541
1058.10 0.05539
1058.20 0.05537
1058.30 0.05535
1058.40 0.05533
1058.50 0.0553
1058.60 0.05528
1058.70 0.05526
1058.80 0.05524
1058.90 0.05522
1059.00 0.0552
1059.10 0.05518
1059.20 0.05516
1059.30 0.05514
1059.40 0.05511
1059.50 0.05509
1059.60 0.05507
1059.70 0.05505
1059.80 0.05503
1059.90 0.05501
1060.00 0.05499
1060.10 0.05497
1060.20 0.05495
1060.30 0.05493
1060.40 0.05491
1060.50 0.05488
1060.60 0.05486
1060.70 0.05484
1060.80 0.05482
1060.90 0.0548
1061.00 0.05478
1061.10 0.05476
1061.20 0.05474
1061.30 0.05472
1061.40 0.0547
1061.50 0.05468
1061.60 0.05465
1061.70 0.05463
1061.80 0.05461
1061.90 0.05459
1062.00 0.05457
1062.10 0.05455
1062.20 0.05453
1062.30 0.05451
1062.40 0.05449
1062.50 0.05447
1062.60 0.05445
1062.70 0.05442
1062.80 0.0544
1062.90 0.05438
1063.00 0.05436
1063.10 0.05434
1063.20 0.05432
1063.30 0.0543
1063.40 0.05428
1063.50 0.05426
1063.60 0.05424
1063.70 0.05421
1063.80 0.05419
1063.90 0.05417
1064.00 0.05415
1064.10 0.05413
1064.20 0.05411
1064.30 0.05409
1064.40 0.05407
1064.50 0.05405
1064.60 0.05403
1064.70 0.05401
1064.80 0.05398
1064.90 0.05396
1065.00 0.05394
1065.10 0.05392
1065.20 0.0539
1065.30 0.05388
1065.40 0.05386
1065.50 0.05384
1065.60 0.05382
1065.70 0.0538
1065.80 0.05378
1065.90 0.05376
1066.00 0.05373
1066.10 0.05371
1066.20 0.05369
1066.30 0.05367
1066.40 0.05365
1066.50 0.05363
1066.60 0.05361
1066.70 0.05359
1066.80 0.05357
1066.90 0.05355
1067.00 0.05353
1067.10 0.05351
1067.20 0.05349
1067.30 0.05346
1067.40 0.05344
1067.50 0.05342
1067.60 0.0534
1067.70 0.05338
1067.80 0.05336
1067.90 0.05334
1068.00 0.05332
1068.10 0.0533
1068.20 0.05328
1068.30 0.05325
1068.40 0.05323
1068.50 0.05321
1068.60 0.05319
1068.70 0.05317
1068.80 0.05315
1068.90 0.05313
1069.00 0.05311
1069.10 0.05309
1069.20 0.05307
1069.30 0.05305
1069.40 0.05302
1069.50 0.053
1069.60 0.05298
1069.70 0.05296
1069.80 0.05294
1069.90 0.05292
1070.00 0.0529
1070.10 0.05288
1070.20 0.05286
1070.30 0.05284
1070.40 0.05282
1070.50 0.0528
1070.60 0.05277
1070.70 0.05275
1070.80 0.05273
1070.90 0.05271
1071.00 0.05269
1071.10 0.05267
1071.20 0.05265
1071.30 0.05263
1071.40 0.05261
1071.50 0.05259
1071.60 0.05257
1071.70 0.05255
1071.80 0.05253
1071.90 0.0525
1072.00 0.05248
1072.10 0.05246
1072.20 0.05244
1072.30 0.05242
1072.40 0.0524
1072.50 0.05238
1072.60 0.05236
1072.70 0.05234
1072.80 0.05232
1072.90 0.0523
1073.00 0.05227
1073.10 0.05225
1073.20 0.05223
1073.30 0.05221
1073.40 0.05219
1073.50 0.05217
1073.60 0.05215
1073.70 0.05213
1073.80 0.05211
1073.90 0.05209
1074.00 0.05206
1074.10 0.05204
1074.20 0.05202
1074.30 0.052
1074.40 0.05198
1074.50 0.05196
1074.60 0.05194
1074.70 0.05192
1074.80 0.0519
1074.90 0.05187
1075.00 0.05185
1075.10 0.05183
1075.20 0.05181
1075.30 0.05179
1075.40 0.05177
1075.50 0.05175
1075.60 0.05173
1075.70 0.05171
1075.80 0.05168
1075.90 0.05166
1076.00 0.05164
1076.10 0.05162
1076.20 0.0516
1076.30 0.05158
1076.40 0.05156
1076.50 0.05154
1076.60 0.05152
1076.70 0.0515
1076.80 0.05148
1076.90 0.05145
1077.00 0.05143
1077.10 0.05141
1077.20 0.05139
1077.30 0.05137
1077.40 0.05135
1077.50 0.05133
1077.60 0.05131
1077.70 0.05128
1077.80 0.05126
1077.90 0.05124
1078.00 0.05122
1078.10 0.0512
1078.20 0.05118
1078.30 0.05116
1078.40 0.05114
1078.50 0.05111
1078.60 0.05109
1078.70 0.05107
1078.80 0.05105
1078.90 0.05103
1079.00 0.05101
1079.10 0.05099
1079.20 0.05097
1079.30 0.05094
1079.40 0.05092
1079.50 0.0509
1079.60 0.05088
1079.70 0.05086
1079.80 0.05084
1079.90 0.05082
1080.00 0.0508
1080.10 0.05077
1080.20 0.05075
1080.30 0.05073
1080.40 0.05071
1080.50 0.05069
1080.60 0.05067
1080.70 0.05065
1080.80 0.05062
1080.90 0.0506
1081.00 0.05058
1081.10 0.05056
1081.20 0.05054
1081.30 0.05052
1081.40 0.0505
1081.50 0.05048
1081.60 0.05045
1081.70 0.05043
1081.80 0.05041
1081.90 0.05039
1082.00 0.05037
1082.10 0.05035
1082.20 0.05033
1082.30 0.0503
1082.40 0.05028
1082.50 0.05026
1082.60 0.05024
1082.70 0.05022
1082.80 0.0502
1082.90 0.05017
1083.00 0.05015
1083.10 0.05013
1083.20 0.05011
1083.30 0.05009
1083.40 0.05007
1083.50 0.05005
1083.60 0.05002
1083.70 0.05
1083.80 0.04998
1083.90 0.04996
1084.00 0.04994
1084.10 0.04992
1084.20 0.04989
1084.30 0.04987
1084.40 0.04985
1084.50 0.04983
1084.60 0.04981
1084.70 0.04979
1084.80 0.04977
1084.90 0.04974
1085.00 0.04972
1085.10 0.0497
1085.20 0.04968
1085.30 0.04966
1085.40 0.04964
1085.50 0.04961
1085.60 0.04959
1085.70 0.04957
1085.80 0.04955
1085.90 0.04953
1086.00 0.04951
1086.10 0.04949
1086.20 0.04946
1086.30 0.04944
1086.40 0.04942
1086.50 0.0494
1086.60 0.04938
1086.70 0.04936
1086.80 0.04933
1086.90 0.04931
1087.00 0.04929
1087.10 0.04927
1087.20 0.04925
1087.30 0.04923
1087.40 0.04921
1087.50 0.04918
1087.60 0.04916
1087.70 0.04914
1087.80 0.04912
1087.90 0.0491
1088.00 0.04908
1088.10 0.04906
1088.20 0.04903
1088.30 0.04901
1088.40 0.04899
1088.50 0.04897
1088.60 0.04895
1088.70 0.04893
1088.80 0.04891
1088.90 0.04888
1089.00 0.04886
1089.10 0.04884
1089.20 0.04882
1089.30 0.0488
1089.40 0.04878
1089.50 0.04875
1089.60 0.04873
1089.70 0.04871
1089.80 0.04869
1089.90 0.04867
1090.00 0.04865
1090.10 0.04863
1090.20 0.04861
1090.30 0.04858
1090.40 0.04856
1090.50 0.04854
1090.60 0.04852
1090.70 0.0485
1090.80 0.04848
1090.90 0.04845
1091.00 0.04843
1091.10 0.04841
1091.20 0.04839
1091.30 0.04837
1091.40 0.04835
1091.50 0.04833
1091.60 0.0483
1091.70 0.04828
1091.80 0.04826
1091.90 0.04824
1092.00 0.04822
1092.10 0.0482
1092.20 0.04817
1092.30 0.04815
1092.40 0.04813
1092.50 0.04811
1092.60 0.04809
1092.70 0.04807
1092.80 0.04804
1092.90 0.04802
1093.00 0.048
1093.10 0.04798
1093.20 0.04796
1093.30 0.04794
1093.40 0.04792
1093.50 0.0479
1093.60 0.04789
1093.70 0.04788
1093.80 0.04787
1093.90 0.04785
1094.00 0.04783
1094.10 0.04782
1094.20 0.0478
1094.30 0.04778
1094.40 0.04777
1094.50 0.04776
1094.60 0.04774
1094.70 0.04773
1094.80 0.04772
1094.90 0.0477
1095.00 0.04769
1095.10 0.04768
1095.20 0.04767
1095.30 0.04766
1095.40 0.04764
1095.50 0.04763
1095.60 0.04762
1095.70 0.04761
1095.80 0.04759
1095.90 0.04758
1096.00 0.04757
1096.10 0.04756
1096.20 0.04755
1096.30 0.04753
1096.40 0.04752
1096.50 0.04751
1096.60 0.0475
1096.70 0.04748
1096.80 0.04747
1096.90 0.04746
1097.00 0.04745
1097.10 0.04743
1097.20 0.04742
1097.30 0.04741
1097.40 0.0474
1097.50 0.04738
1097.60 0.04737
1097.70 0.04736
1097.80 0.04735
1097.90 0.04733
1098.00 0.04732
1098.10 0.04731
1098.20 0.0473
1098.30 0.04728
1098.40 0.04727
1098.50 0.04726
1098.60 0.04725
1098.70 0.04723
1098.80 0.04722
1098.90 0.04721
1099.00 0.04719
1099.10 0.04718
1099.20 0.04717
1099.30 0.04716
1099.40 0.04714
1099.50 0.04713
1099.60 0.04712
1099.70 0.04711
1099.80 0.04709
1099.90 0.04708
1100.00 0.04707
1100.10 0.04706
1100.20 0.04704
1100.30 0.04703
1100.40 0.04702
1100.50 0.047
1100.60 0.04699
1100.70 0.04698
1100.80 0.04697
1100.90 0.04695
1101.00 0.04694
1101.10 0.04693
1101.20 0.04691
1101.30 0.0469
1101.40 0.04689
1101.50 0.04688
1101.60 0.04686
1101.70 0.04685
1101.80 0.04684
1101.90 0.04683
1102.00 0.04681
1102.10 0.0468
1102.20 0.04679
1102.30 0.04677
1102.40 0.04676
1102.50 0.04675
1102.60 0.04674
1102.70 0.04672
1102.80 0.04671
1102.90 0.0467
1103.00 0.04668
1103.10 0.04667
1103.20 0.04666
1103.30 0.04664
1103.40 0.04663
1103.50 0.04662
1103.60 0.04661
1103.70 0.04659
1103.80 0.04658
1103.90 0.04657
1104.00 0.04655
1104.10 0.04654
1104.20 0.04653
1104.30 0.04651
1104.40 0.0465
1104.50 0.04649
1104.60 0.04648
1104.70 0.04646
1104.80 0.04645
1104.90 0.04644
1105.00 0.04642
1105.10 0.04641
1105.20 0.0464
1105.30 0.04638
1105.40 0.04637
1105.50 0.04636
1105.60 0.04634
1105.70 0.04633
1105.80 0.04632
1105.90 0.0463
1106.00 0.04629
1106.10 0.04628
1106.20 0.04626
1106.30 0.04625
1106.40 0.04624
1106.50 0.04622
1106.60 0.04621
1106.70 0.0462
1106.80 0.04618
1106.90 0.04617
1107.00 0.04616
1107.10 0.04615
1107.20 0.04613
1107.30 0.04612
1107.40 0.0461
1107.50 0.04609
1107.60 0.04608
1107.70 0.04606
1107.80 0.04605
1107.90 0.04604
1108.00 0.04602
1108.10 0.04601
1108.20 0.046
1108.30 0.04598
1108.40 0.04597
1108.50 0.04596
1108.60 0.04594
1108.70 0.04593
1108.80 0.04592
1108.90 0.0459
1109.00 0.04589
1109.10 0.04587
1109.20 0.04586
1109.30 0.04585
1109.40 0.04583
1109.50 0.04582
1109.60 0.04581
1109.70 0.04579
1109.80 0.04578
1109.90 0.04577
1110.00 0.04575
1110.10 0.04574
1110.20 0.04572
1110.30 0.04571
1110.40 0.0457
1110.50 0.04568
1110.60 0.04567
1110.70 0.04565
1110.80 0.04564
1110.90 0.04563
1111.00 0.04561
1111.10 0.0456
1111.20 0.04559
1111.30 0.04557
1111.40 0.04556
1111.50 0.04554
1111.60 0.04553
1111.70 0.04552
1111.80 0.0455
1111.90 0.04549
1112.00 0.04548
1112.10 0.04546
1112.20 0.04545
1112.30 0.04543
1112.40 0.04542
1112.50 0.04541
1112.60 0.04539
1112.70 0.04538
1112.80 0.04536
1112.90 0.04535
1113.00 0.04534
1113.10 0.04532
1113.20 0.04531
1113.30 0.04529
1113.40 0.04528
1113.50 0.04527
1113.60 0.04525
1113.70 0.04524
1113.80 0.04522
1113.90 0.04521
1114.00 0.04519
1114.10 0.04518
1114.20 0.04517
1114.30 0.04515
1114.40 0.04514
1114.50 0.04512
1114.60 0.04511
1114.70 0.0451
1114.80 0.04508
1114.90 0.04507
1115.00 0.04505
1115.10 0.04504
1115.20 0.04502
1115.30 0.04501
1115.40 0.045
1115.50 0.04498
1115.60 0.04497
1115.70 0.04495
1115.80 0.04494
1115.90 0.04493
1116.00 0.04491
1116.10 0.0449
1116.20 0.04488
1116.30 0.04487
1116.40 0.04485
1116.50 0.04484
1116.60 0.04483
1116.70 0.04481
1116.80 0.0448
1116.90 0.04478
1117.00 0.04477
1117.10 0.04476
1117.20 0.04474
1117.30 0.04473
1117.40 0.04471
1117.50 0.0447
1117.60 0.04468
1117.70 0.04467
1117.80 0.04465
1117.90 0.04464
1118.00 0.04463
1118.10 0.04461
1118.20 0.0446
1118.30 0.04458
1118.40 0.04457
1118.50 0.04455
1118.60 0.04454
1118.70 0.04453
1118.80 0.04451
1118.90 0.0445
1119.00 0.04448
1119.10 0.04447
1119.20 0.04445
1119.30 0.04444
1119.40 0.04442
1119.50 0.04441
1119.60 0.0444
1119.70 0.04438
1119.80 0.04437
1119.90 0.04435
1120.00 0.04434
1120.10 0.04432
1120.20 0.04431
1120.30 0.0443
1120.40 0.04428
1120.50 0.04427
1120.60 0.04425
1120.70 0.04424
1120.80 0.04422
1120.90 0.04421
1121.00 0.0442
1121.10 0.04418
1121.20 0.04417
1121.30 0.04415
1121.40 0.04414
1121.50 0.04412
1121.60 0.04411
1121.70 0.0441
1121.80 0.04408
1121.90 0.04407
1122.00 0.04405
1122.10 0.04404
1122.20 0.04402
1122.30 0.04401
1122.40 0.04399
1122.50 0.04398
1122.60 0.04397
1122.70 0.04395
1122.80 0.04394
1122.90 0.04392
1123.00 0.04391
1123.10 0.04389
1123.20 0.04388
1123.30 0.04386
1123.40 0.04385
1123.50 0.04384
1123.60 0.04382
1123.70 0.04381
1123.80 0.04379
1123.90 0.04378
1124.00 0.04376
1124.10 0.04375
1124.20 0.04373
1124.30 0.04372
1124.40 0.04371
1124.50 0.04369
1124.60 0.04368
1124.70 0.04366
1124.80 0.04365
1124.90 0.04363
1125.00 0.04362
1125.10 0.0436
1125.20 0.04359
1125.30 0.04358
1125.40 0.04356
1125.50 0.04355
1125.60 0.04353
1125.70 0.04352
1125.80 0.0435
1125.90 0.04349
1126.00 0.04348
1126.10 0.04346
1126.20 0.04345
1126.30 0.04343
1126.40 0.04342
1126.50 0.0434
1126.60 0.04339
1126.70 0.04337
1126.80 0.04336
1126.90 0.04335
1127.00 0.04333
1127.10 0.04332
1127.20 0.0433
1127.30 0.04329
1127.40 0.04327
1127.50 0.04326
1127.60 0.04325
1127.70 0.04323
1127.80 0.04322
1127.90 0.0432
1128.00 0.04319
1128.10 0.04317
1128.20 0.04316
1128.30 0.04314
1128.40 0.04313
1128.50 0.04312
1128.60 0.0431
1128.70 0.04309
1128.80 0.04307
1128.90 0.04306
1129.00 0.04304
1129.10 0.04303
1129.20 0.04301
1129.30 0.043
1129.40 0.04299
1129.50 0.04297
1129.60 0.04296
1129.70 0.04294
1129.80 0.04293
1129.90 0.04291
1130.00 0.0429
1130.10 0.04289
1130.20 0.04287
1130.30 0.04286
1130.40 0.04284
1130.50 0.04283
1130.60 0.04281
1130.70 0.0428
1130.80 0.04279
1130.90 0.04277
1131.00 0.04276
1131.10 0.04274
1131.20 0.04273
1131.30 0.04271
1131.40 0.0427
1131.50 0.04269
1131.60 0.04267
1131.70 0.04266
1131.80 0.04264
1131.90 0.04263
1132.00 0.04261
1132.10 0.0426
1132.20 0.04259
1132.30 0.04257
1132.40 0.04256
1132.50 0.04254
1132.60 0.04253
1132.70 0.04251
1132.80 0.0425
1132.90 0.04249
1133.00 0.04247
1133.10 0.04246
1133.20 0.04244
1133.30 0.04243
1133.40 0.04241
1133.50 0.0424
1133.60 0.04239
1133.70 0.04237
1133.80 0.04236
1133.90 0.04234
1134.00 0.04233
1134.10 0.04231
1134.20 0.0423
1134.30 0.04229
1134.40 0.04227
1134.50 0.04226
1134.60 0.04224
1134.70 0.04223
1134.80 0.04221
1134.90 0.0422
1135.00 0.04219
1135.10 0.04217
1135.20 0.04216
1135.30 0.04214
1135.40 0.04213
1135.50 0.04212
1135.60 0.0421
1135.70 0.04209
1135.80 0.04207
1135.90 0.04206
1136.00 0.04204
1136.10 0.04203
1136.20 0.04202
1136.30 0.042
1136.40 0.04199
1136.50 0.04197
1136.60 0.04196
1136.70 0.04195
1136.80 0.04193
1136.90 0.04192
1137.00 0.0419
1137.10 0.04189
1137.20 0.04187
1137.30 0.04186
1137.40 0.04185
1137.50 0.04183
1137.60 0.04182
1137.70 0.0418
1137.80 0.04179
1137.90 0.04178
1138.00 0.04176
1138.10 0.04175
1138.20 0.04173
1138.30 0.04172
1138.40 0.04171
1138.50 0.04169
1138.60 0.04168
1138.70 0.04166
1138.80 0.04165
1138.90 0.04164
1139.00 0.04162
1139.10 0.04161
1139.20 0.04159
1139.30 0.04158
1139.40 0.04156
1139.50 0.04155
1139.60 0.04154
1139.70 0.04152
1139.80 0.04151
1139.90 0.04149
1140.00 0.04148
1140.10 0.04147
1140.20 0.04145
1140.30 0.04144
1140.40 0.04142
1140.50 0.04141
1140.60 0.0414
1140.70 0.04138
1140.80 0.04137
1140.90 0.04135
1141.00 0.04134
1141.10 0.04133
1141.20 0.04131
1141.30 0.0413
1141.40 0.04129
1141.50 0.04127
1141.60 0.04126
1141.70 0.04124
1141.80 0.04123
1141.90 0.04122
1142.00 0.0412
1142.10 0.04119
1142.20 0.04117
1142.30 0.04116
1142.40 0.04115
1142.50 0.04113
1142.60 0.04112
1142.70 0.0411
1142.80 0.04109
1142.90 0.04108
1143.00 0.04106
1143.10 0.04105
1143.20 0.04103
1143.30 0.04102
1143.40 0.04101
1143.50 0.04099
1143.60 0.04098
1143.70 0.04097
1143.80 0.04095
1143.90 0.04094
1144.00 0.04092
1144.10 0.04091
1144.20 0.0409
1144.30 0.04088
1144.40 0.04087
1144.50 0.04086
1144.60 0.04084
1144.70 0.04083
1144.80 0.04081
1144.90 0.0408
1145.00 0.04079
1145.10 0.04077
1145.20 0.04076
1145.30 0.04074
1145.40 0.04073
1145.50 0.04072
1145.60 0.0407
1145.70 0.04069
1145.80 0.04068
1145.90 0.04066
1146.00 0.04065
1146.10 0.04063
1146.20 0.04062
1146.30 0.04061
1146.40 0.04059
1146.50 0.04058
1146.60 0.04057
1146.70 0.04055
1146.80 0.04054
1146.90 0.04052
1147.00 0.04051
1147.10 0.0405
1147.20 0.04048
1147.30 0.04047
1147.40 0.04046
1147.50 0.04044
1147.60 0.04043
1147.70 0.04042
1147.80 0.0404
1147.90 0.04039
1148.00 0.04037
1148.10 0.04036
1148.20 0.04035
1148.30 0.04033
1148.40 0.04032
1148.50 0.04031
1148.60 0.04029
1148.70 0.04028
1148.80 0.04027
1148.90 0.04025
1149.00 0.04024
1149.10 0.04023
1149.20 0.04021
1149.30 0.0402
1149.40 0.04018
1149.50 0.04017
1149.60 0.04016
1149.70 0.04014
1149.80 0.04013
1149.90 0.04012
1150.00 0.0401
1150.10 0.04009
1150.20 0.04008
1150.30 0.04006
1150.40 0.04005
1150.50 0.04004
1150.60 0.04002
1150.70 0.04001
1150.80 0.03999
1150.90 0.03998
1151.00 0.03997
1151.10 0.03995
1151.20 0.03994
1151.30 0.03993
1151.40 0.03991
1151.50 0.0399
1151.60 0.03989
1151.70 0.03987
1151.80 0.03986
1151.90 0.03985
1152.00 0.03983
1152.10 0.03982
1152.20 0.03981
1152.30 0.03979
1152.40 0.03978
1152.50 0.03977
1152.60 0.03975
1152.70 0.03974
1152.80 0.03973
1152.90 0.03971
1153.00 0.0397
1153.10 0.03969
1153.20 0.03967
1153.30 0.03966
1153.40 0.03965
1153.50 0.03963
1153.60 0.03962
1153.70 0.03961
1153.80 0.03959
1153.90 0.03958
1154.00 0.03957
1154.10 0.03955
1154.20 0.03954
1154.30 0.03953
1154.40 0.03951
1154.50 0.0395
1154.60 0.03949
1154.70 0.03947
1154.80 0.03946
1154.90 0.03945
1155.00 0.03943
1155.10 0.03942
1155.20 0.03941
1155.30 0.03939
1155.40 0.03938
1155.50 0.03937
1155.60 0.03935
1155.70 0.03934
1155.80 0.03933
1155.90 0.03931
1156.00 0.0393
1156.10 0.03929
1156.20 0.03927
1156.30 0.03926
1156.40 0.03925
1156.50 0.03923
1156.60 0.03922
1156.70 0.03921
1156.80 0.03919
1156.90 0.03918
1157.00 0.03917
1157.10 0.03915
1157.20 0.03914
1157.30 0.03913
1157.40 0.03911
1157.50 0.0391
1157.60 0.03909
1157.70 0.03907
1157.80 0.03906
1157.90 0.03905
1158.00 0.03904
1158.10 0.03902
1158.20 0.03901
1158.30 0.039
1158.40 0.03898
1158.50 0.03897
1158.60 0.03896
1158.70 0.03894
1158.80 0.03893
1158.90 0.03892
1159.00 0.0389
1159.10 0.03889
1159.20 0.03888
1159.30 0.03887
1159.40 0.03885
1159.50 0.03884
1159.60 0.03883
1159.70 0.03881
1159.80 0.0388
1159.90 0.03879
1160.00 0.03877
1160.10 0.03876
1160.20 0.03875
1160.30 0.03873
1160.40 0.03872
1160.50 0.03871
1160.60 0.0387
1160.70 0.03868
1160.80 0.03867
1160.90 0.03866
1161.00 0.03864
1161.10 0.03863
1161.20 0.03862
1161.30 0.0386
1161.40 0.03859
1161.50 0.03858
1161.60 0.03857
1161.70 0.03855
1161.80 0.03854
1161.90 0.03853
1162.00 0.03851
1162.10 0.0385
1162.20 0.03849
1162.30 0.03848
1162.40 0.03846
1162.50 0.03845
1162.60 0.03844
1162.70 0.03842
1162.80 0.03841
1162.90 0.0384
1163.00 0.03838
1163.10 0.03837
1163.20 0.03836
1163.30 0.03835
1163.40 0.03833
1163.50 0.03832
1163.60 0.03831
1163.70 0.03829
1163.80 0.03828
1163.90 0.03827
1164.00 0.03826
1164.10 0.03824
1164.20 0.03823
1164.30 0.03822
1164.40 0.03821
1164.50 0.03819
1164.60 0.03818
1164.70 0.03817
1164.80 0.03815
1164.90 0.03814
1165.00 0.03813
1165.10 0.03812
1165.20 0.0381
1165.30 0.03809
1165.40 0.03808
1165.50 0.03806
1165.60 0.03805
1165.70 0.03804
1165.80 0.03803
1165.90 0.03801
1166.00 0.038
1166.10 0.03799
1166.20 0.03797
1166.30 0.03796
1166.40 0.03795
1166.50 0.03794
1166.60 0.03792
1166.70 0.03791
1166.80 0.0379
1166.90 0.03789
1167.00 0.03787
1167.10 0.03786
1167.20 0.03785
1167.30 0.03784
1167.40 0.03782
1167.50 0.03781
1167.60 0.0378
1167.70 0.03778
1167.80 0.03777
1167.90 0.03776
1168.00 0.03775
1168.10 0.03773
1168.20 0.03772
1168.30 0.03771
1168.40 0.0377
1168.50 0.03768
1168.60 0.03767
1168.70 0.03766
1168.80 0.03765
1168.90 0.03763
1169.00 0.03762
1169.10 0.03761
1169.20 0.0376
1169.30 0.03758
1169.40 0.03757
1169.50 0.03756
1169.60 0.03755
1169.70 0.03753
1169.80 0.03752
1169.90 0.03751
1170.00 0.0375
1170.10 0.03748
1170.20 0.03747
1170.30 0.03746
1170.40 0.03744
1170.50 0.03743
1170.60 0.03742
1170.70 0.03741
1170.80 0.03739
1170.90 0.03738
1171.00 0.03737
1171.10 0.03736
1171.20 0.03734
1171.30 0.03733
1171.40 0.03732
1171.50 0.03731
1171.60 0.03729
1171.70 0.03728
1171.80 0.03727
1171.90 0.03726
1172.00 0.03724
1172.10 0.03723
1172.20 0.03722
1172.30 0.03721
1172.40 0.0372
1172.50 0.03718
1172.60 0.03717
1172.70 0.03716
1172.80 0.03715
1172.90 0.03713
1173.00 0.03712
1173.10 0.03711
1173.20 0.0371
1173.30 0.03708
1173.40 0.03707
1173.50 0.03706
1173.60 0.03705
1173.70 0.03703
1173.80 0.03702
1173.90 0.03701
1174.00 0.037
1174.10 0.03699
1174.20 0.03697
1174.30 0.03696
1174.40 0.03695
1174.50 0.03694
1174.60 0.03692
1174.70 0.03691
1174.80 0.0369
1174.90 0.03689
1175.00 0.03687
1175.10 0.03686
1175.20 0.03685
1175.30 0.03684
1175.40 0.03683
1175.50 0.03681
1175.60 0.0368
1175.70 0.03679
1175.80 0.03678
1175.90 0.03676
1176.00 0.03675
1176.10 0.03674
1176.20 0.03673
1176.30 0.03671
1176.40 0.0367
1176.50 0.03669
1176.60 0.03668
1176.70 0.03667
1176.80 0.03665
1176.90 0.03664
1177.00 0.03663
1177.10 0.03662
1177.20 0.0366
1177.30 0.03659
1177.40 0.03658
1177.50 0.03657
1177.60 0.03656
1177.70 0.03654
1177.80 0.03653
1177.90 0.03652
1178.00 0.03651
1178.10 0.0365
1178.20 0.03648
1178.30 0.03647
1178.40 0.03646
1178.50 0.03645
1178.60 0.03643
1178.70 0.03642
1178.80 0.03641
1178.90 0.0364
1179.00 0.03639
1179.10 0.03637
1179.20 0.03636
1179.30 0.03635
1179.40 0.03634
1179.50 0.03633
1179.60 0.03631
1179.70 0.0363
1179.80 0.03629
1179.90 0.03628
1180.00 0.03627
1180.10 0.03625
1180.20 0.03624
1180.30 0.03623
1180.40 0.03622
1180.50 0.03621
1180.60 0.03619
1180.70 0.03618
1180.80 0.03617
1180.90 0.03616
1181.00 0.03615
1181.10 0.03613
1181.20 0.03612
1181.30 0.03611
1181.40 0.0361
1181.50 0.03609
1181.60 0.03607
1181.70 0.03606
1181.80 0.03605
1181.90 0.03604
1182.00 0.03603
1182.10 0.03601
1182.20 0.036
1182.30 0.03599
1182.40 0.03598
1182.50 0.03597
1182.60 0.03595
1182.70 0.03594
1182.80 0.03593
1182.90 0.03592
1183.00 0.03591
1183.10 0.03589
1183.20 0.03588
1183.30 0.03587
1183.40 0.03586
1183.50 0.03585
1183.60 0.03584
1183.70 0.03582
1183.80 0.03581
1183.90 0.0358
1184.00 0.03579
1184.10 0.03578
1184.20 0.03576
1184.30 0.03575
1184.40 0.03574
1184.50 0.03573
1184.60 0.03572
1184.70 0.0357
1184.80 0.03569
1184.90 0.03568
1185.00 0.03567
1185.10 0.03566
1185.20 0.03565
1185.30 0.03563
1185.40 0.03562
1185.50 0.03561
1185.60 0.0356
1185.70 0.03559
1185.80 0.03557
1185.90 0.03556
1186.00 0.03555
1186.10 0.03554
1186.20 0.03553
1186.30 0.03552
1186.40 0.0355
1186.50 0.03549
1186.60 0.03548
1186.70 0.03547
1186.80 0.03546
1186.90 0.03545
1187.00 0.03543
1187.10 0.03542
1187.20 0.03541
1187.30 0.0354
1187.40 0.03539
1187.50 0.03538
1187.60 0.03536
1187.70 0.03535
1187.80 0.03534
1187.90 0.03533
1188.00 0.03532
1188.10 0.03531
1188.20 0.03529
1188.30 0.03528
1188.40 0.03527
1188.50 0.03526
1188.60 0.03525
1188.70 0.03524
1188.80 0.03522
1188.90 0.03521
1189.00 0.0352
1189.10 0.03519
1189.20 0.03518
1189.30 0.03517
1189.40 0.03515
1189.50 0.03514
1189.60 0.03513
1189.70 0.03512
1189.80 0.03511
1189.90 0.0351
1190.00 0.03508
1190.10 0.03507
1190.20 0.03506
1190.30 0.03505
1190.40 0.03504
1190.50 0.03503
1190.60 0.03502
1190.70 0.035
1190.80 0.03499
1190.90 0.03498
1191.00 0.03497
1191.10 0.03496
1191.20 0.03495
1191.30 0.03493
1191.40 0.03492
1191.50 0.03491
1191.60 0.0349
1191.70 0.03489
1191.80 0.03488
1191.90 0.03487
1192.00 0.03485
1192.10 0.03484
1192.20 0.03483
1192.30 0.03482
1192.40 0.03481
1192.50 0.0348
1192.60 0.03478
1192.70 0.03477
1192.80 0.03476
1192.90 0.03475
1193.00 0.03474
1193.10 0.03473
1193.20 0.03472
1193.30 0.0347
1193.40 0.03469
1193.50 0.03468
1193.60 0.03467
1193.70 0.03466
1193.80 0.03465
1193.90 0.03464
1194.00 0.03463
1194.10 0.03461
1194.20 0.0346
1194.30 0.03459
1194.40 0.03458
1194.50 0.03457
1194.60 0.03456
1194.70 0.03455
1194.80 0.03453
1194.90 0.03452
1195.00 0.03451
1195.10 0.0345
1195.20 0.03449
1195.30 0.03448
1195.40 0.03447
1195.50 0.03445
1195.60 0.03444
1195.70 0.03443
1195.80 0.03442
1195.90 0.03441
1196.00 0.0344
1196.10 0.03439
1196.20 0.03438
1196.30 0.03436
1196.40 0.03435
1196.50 0.03434
1196.60 0.03433
1196.70 0.03432
1196.80 0.03431
1196.90 0.0343
1197.00 0.03428
1197.10 0.03427
1197.20 0.03426
1197.30 0.03425
1197.40 0.03424
1197.50 0.03423
1197.60 0.03422
1197.70 0.03421
1197.80 0.0342
1197.90 0.03418
1198.00 0.03417
1198.10 0.03416
1198.20 0.03415
1198.30 0.03414
1198.40 0.03413
1198.50 0.03412
1198.60 0.03411
1198.70 0.03409
1198.80 0.03408
1198.90 0.03407
1199.00 0.03406
1199.10 0.03405
1199.20 0.03404
1199.30 0.03403
1199.40 0.03402
1199.50 0.03401
1199.60 0.03399
1199.70 0.03398
1199.80 0.03397
1199.90 0.03396
1200.00 0
