# Version 2.1 - nm, norm@500 to 1, cut digits, bergeron_25000_75.dat_25000
# Wavelength(nm)  Flambda(ergs/cm^s/s/nm)
300.00 4.121
300.10 4.117
300.20 4.113
300.30 4.108
300.40 4.104
300.50 4.1
300.60 4.095
300.70 4.091
300.80 4.087
300.90 4.082
301.00 4.078
301.10 4.074
301.20 4.069
301.30 4.065
301.40 4.061
301.50 4.056
301.60 4.052
301.70 4.048
301.80 4.044
301.90 4.039
302.00 4.035
302.10 4.031
302.20 4.027
302.30 4.022
302.40 4.018
302.50 4.014
302.60 4.01
302.70 4.005
302.80 4.001
302.90 3.997
303.00 3.993
303.10 3.989
303.20 3.984
303.30 3.98
303.40 3.976
303.50 3.972
303.60 3.968
303.70 3.964
303.80 3.959
303.90 3.955
304.00 3.951
304.10 3.947
304.20 3.943
304.30 3.939
304.40 3.935
304.50 3.931
304.60 3.926
304.70 3.922
304.80 3.918
304.90 3.914
305.00 3.91
305.10 3.906
305.20 3.902
305.30 3.898
305.40 3.894
305.50 3.89
305.60 3.886
305.70 3.882
305.80 3.878
305.90 3.874
306.00 3.869
306.10 3.865
306.20 3.861
306.30 3.857
306.40 3.853
306.50 3.849
306.60 3.845
306.70 3.841
306.80 3.837
306.90 3.833
307.00 3.829
307.10 3.825
307.20 3.822
307.30 3.818
307.40 3.814
307.50 3.81
307.60 3.806
307.70 3.802
307.80 3.798
307.90 3.794
308.00 3.79
308.10 3.786
308.20 3.782
308.30 3.778
308.40 3.774
308.50 3.77
308.60 3.767
308.70 3.763
308.80 3.759
308.90 3.755
309.00 3.751
309.10 3.747
309.20 3.743
309.30 3.739
309.40 3.736
309.50 3.732
309.60 3.728
309.70 3.724
309.80 3.72
309.90 3.716
310.00 3.713
310.10 3.709
310.20 3.705
310.30 3.701
310.40 3.697
310.50 3.693
310.60 3.69
310.70 3.686
310.80 3.682
310.90 3.678
311.00 3.675
311.10 3.671
311.20 3.667
311.30 3.663
311.40 3.66
311.50 3.656
311.60 3.652
311.70 3.648
311.80 3.645
311.90 3.641
312.00 3.637
312.10 3.633
312.20 3.63
312.30 3.626
312.40 3.622
312.50 3.619
312.60 3.615
312.70 3.611
312.80 3.607
312.90 3.604
313.00 3.6
313.10 3.596
313.20 3.593
313.30 3.589
313.40 3.585
313.50 3.582
313.60 3.578
313.70 3.575
313.80 3.571
313.90 3.567
314.00 3.564
314.10 3.56
314.20 3.556
314.30 3.553
314.40 3.549
314.50 3.546
314.60 3.542
314.70 3.538
314.80 3.535
314.90 3.531
315.00 3.528
315.10 3.524
315.20 3.52
315.30 3.517
315.40 3.513
315.50 3.51
315.60 3.506
315.70 3.503
315.80 3.499
315.90 3.496
316.00 3.492
316.10 3.489
316.20 3.485
316.30 3.482
316.40 3.478
316.50 3.474
316.60 3.471
316.70 3.467
316.80 3.464
316.90 3.461
317.00 3.457
317.10 3.454
317.20 3.45
317.30 3.447
317.40 3.443
317.50 3.44
317.60 3.436
317.70 3.433
317.80 3.429
317.90 3.426
318.00 3.422
318.10 3.419
318.20 3.415
318.30 3.412
318.40 3.409
318.50 3.405
318.60 3.402
318.70 3.398
318.80 3.395
318.90 3.392
319.00 3.388
319.10 3.385
319.20 3.381
319.30 3.378
319.40 3.375
319.50 3.371
319.60 3.368
319.70 3.365
319.80 3.361
319.90 3.358
320.00 3.354
320.10 3.351
320.20 3.348
320.30 3.344
320.40 3.341
320.50 3.338
320.60 3.334
320.70 3.331
320.80 3.328
320.90 3.324
321.00 3.321
321.10 3.318
321.20 3.314
321.30 3.311
321.40 3.308
321.50 3.305
321.60 3.301
321.70 3.298
321.80 3.295
321.90 3.291
322.00 3.288
322.10 3.285
322.20 3.282
322.30 3.278
322.40 3.275
322.50 3.272
322.60 3.269
322.70 3.265
322.80 3.262
322.90 3.259
323.00 3.256
323.10 3.253
323.20 3.249
323.30 3.246
323.40 3.243
323.50 3.24
323.60 3.236
323.70 3.233
323.80 3.23
323.90 3.227
324.00 3.224
324.10 3.22
324.20 3.217
324.30 3.214
324.40 3.211
324.50 3.208
324.60 3.205
324.70 3.201
324.80 3.198
324.90 3.195
325.00 3.192
325.10 3.189
325.20 3.186
325.30 3.183
325.40 3.179
325.50 3.176
325.60 3.173
325.70 3.17
325.80 3.167
325.90 3.164
326.00 3.161
326.10 3.158
326.20 3.155
326.30 3.151
326.40 3.148
326.50 3.145
326.60 3.142
326.70 3.139
326.80 3.136
326.90 3.133
327.00 3.13
327.10 3.127
327.20 3.124
327.30 3.121
327.40 3.118
327.50 3.115
327.60 3.111
327.70 3.108
327.80 3.105
327.90 3.102
328.00 3.099
328.10 3.096
328.20 3.093
328.30 3.09
328.40 3.087
328.50 3.084
328.60 3.081
328.70 3.078
328.80 3.075
328.90 3.072
329.00 3.069
329.10 3.066
329.20 3.063
329.30 3.06
329.40 3.057
329.50 3.054
329.60 3.051
329.70 3.048
329.80 3.045
329.90 3.042
330.00 3.04
330.10 3.037
330.20 3.034
330.30 3.031
330.40 3.028
330.50 3.025
330.60 3.022
330.70 3.019
330.80 3.016
330.90 3.013
331.00 3.01
331.10 3.007
331.20 3.004
331.30 3.001
331.40 2.999
331.50 2.996
331.60 2.993
331.70 2.99
331.80 2.987
331.90 2.984
332.00 2.981
332.10 2.978
332.20 2.975
332.30 2.973
332.40 2.97
332.50 2.967
332.60 2.964
332.70 2.961
332.80 2.958
332.90 2.955
333.00 2.953
333.10 2.95
333.20 2.947
333.30 2.944
333.40 2.941
333.50 2.938
333.60 2.935
333.70 2.933
333.80 2.93
333.90 2.927
334.00 2.924
334.10 2.921
334.20 2.919
334.30 2.916
334.40 2.913
334.50 2.91
334.60 2.907
334.70 2.905
334.80 2.902
334.90 2.899
335.00 2.896
335.10 2.893
335.20 2.891
335.30 2.888
335.40 2.885
335.50 2.882
335.60 2.88
335.70 2.877
335.80 2.874
335.90 2.871
336.00 2.869
336.10 2.866
336.20 2.863
336.30 2.86
336.40 2.858
336.50 2.855
336.60 2.852
336.70 2.85
336.80 2.847
336.90 2.844
337.00 2.841
337.10 2.839
337.20 2.836
337.30 2.833
337.40 2.831
337.50 2.828
337.60 2.825
337.70 2.822
337.80 2.82
337.90 2.817
338.00 2.814
338.10 2.812
338.20 2.809
338.30 2.806
338.40 2.804
338.50 2.801
338.60 2.798
338.70 2.796
338.80 2.793
338.90 2.79
339.00 2.788
339.10 2.785
339.20 2.783
339.30 2.78
339.40 2.777
339.50 2.775
339.60 2.772
339.70 2.769
339.80 2.767
339.90 2.764
340.00 2.762
340.10 2.759
340.20 2.756
340.30 2.754
340.40 2.751
340.50 2.749
340.60 2.746
340.70 2.743
340.80 2.741
340.90 2.738
341.00 2.736
341.10 2.733
341.20 2.73
341.30 2.728
341.40 2.725
341.50 2.723
341.60 2.72
341.70 2.718
341.80 2.715
341.90 2.712
342.00 2.71
342.10 2.707
342.20 2.705
342.30 2.702
342.40 2.7
342.50 2.697
342.60 2.695
342.70 2.692
342.80 2.69
342.90 2.687
343.00 2.685
343.10 2.682
343.20 2.68
343.30 2.677
343.40 2.674
343.50 2.672
343.60 2.669
343.70 2.667
343.80 2.664
343.90 2.662
344.00 2.659
344.10 2.657
344.20 2.655
344.30 2.652
344.40 2.65
344.50 2.647
344.60 2.645
344.70 2.642
344.80 2.64
344.90 2.637
345.00 2.635
345.10 2.632
345.20 2.63
345.30 2.627
345.40 2.625
345.50 2.622
345.60 2.62
345.70 2.618
345.80 2.615
345.90 2.613
346.00 2.61
346.10 2.608
346.20 2.605
346.30 2.603
346.40 2.601
346.50 2.598
346.60 2.596
346.70 2.593
346.80 2.591
346.90 2.589
347.00 2.586
347.10 2.584
347.20 2.581
347.30 2.579
347.40 2.577
347.50 2.574
347.60 2.572
347.70 2.569
347.80 2.567
347.90 2.565
348.00 2.562
348.10 2.56
348.20 2.557
348.30 2.555
348.40 2.553
348.50 2.55
348.60 2.548
348.70 2.546
348.80 2.543
348.90 2.541
349.00 2.539
349.10 2.536
349.20 2.534
349.30 2.532
349.40 2.529
349.50 2.527
349.60 2.525
349.70 2.522
349.80 2.52
349.90 2.518
350.00 2.515
350.10 2.513
350.20 2.511
350.30 2.508
350.40 2.506
350.50 2.504
350.60 2.501
350.70 2.499
350.80 2.497
350.90 2.495
351.00 2.492
351.10 2.49
351.20 2.488
351.30 2.485
351.40 2.483
351.50 2.481
351.60 2.479
351.70 2.476
351.80 2.474
351.90 2.472
352.00 2.469
352.10 2.467
352.20 2.465
352.30 2.463
352.40 2.46
352.50 2.458
352.60 2.456
352.70 2.454
352.80 2.451
352.90 2.449
353.00 2.447
353.10 2.445
353.20 2.442
353.30 2.44
353.40 2.438
353.50 2.436
353.60 2.434
353.70 2.431
353.80 2.429
353.90 2.427
354.00 2.425
354.10 2.422
354.20 2.42
354.30 2.418
354.40 2.416
354.50 2.414
354.60 2.411
354.70 2.409
354.80 2.407
354.90 2.405
355.00 2.403
355.10 2.4
355.20 2.398
355.30 2.396
355.40 2.394
355.50 2.392
355.60 2.39
355.70 2.387
355.80 2.385
355.90 2.383
356.00 2.381
356.10 2.379
356.20 2.377
356.30 2.374
356.40 2.372
356.50 2.37
356.60 2.368
356.70 2.366
356.80 2.364
356.90 2.362
357.00 2.359
357.10 2.357
357.20 2.355
357.30 2.353
357.40 2.351
357.50 2.349
357.60 2.347
357.70 2.345
357.80 2.342
357.90 2.34
358.00 2.338
358.10 2.336
358.20 2.334
358.30 2.332
358.40 2.33
358.50 2.328
358.60 2.326
358.70 2.323
358.80 2.321
358.90 2.319
359.00 2.317
359.10 2.315
359.20 2.313
359.30 2.311
359.40 2.309
359.50 2.307
359.60 2.305
359.70 2.303
359.80 2.301
359.90 2.298
360.00 2.296
360.10 2.294
360.20 2.292
360.30 2.29
360.40 2.288
360.50 2.286
360.60 2.284
360.70 2.282
360.80 2.28
360.90 2.278
361.00 2.276
361.10 2.274
361.20 2.272
361.30 2.27
361.40 2.268
361.50 2.266
361.60 2.264
361.70 2.262
361.80 2.26
361.90 2.258
362.00 2.256
362.10 2.254
362.20 2.252
362.30 2.25
362.40 2.248
362.50 2.246
362.60 2.244
362.70 2.242
362.80 2.24
362.90 2.238
363.00 2.236
363.10 2.234
363.20 2.232
363.30 2.23
363.40 2.228
363.50 2.226
363.60 2.224
363.70 2.222
363.80 2.22
363.90 2.218
364.00 2.216
364.10 2.214
364.20 2.212
364.30 2.21
364.40 2.208
364.50 2.206
364.60 2.204
364.70 2.202
364.80 2.2
364.90 2.198
365.00 2.196
365.10 2.194
365.20 2.192
365.30 2.19
365.40 2.188
365.50 2.186
365.60 2.184
365.70 2.183
365.80 2.181
365.90 2.179
366.00 2.177
366.10 2.174
366.20 2.172
366.30 2.17
366.40 2.168
366.50 2.165
366.60 2.163
366.70 2.161
366.80 2.159
366.90 2.156
367.00 2.154
367.10 2.152
367.20 2.149
367.30 2.147
367.40 2.145
367.50 2.143
367.60 2.14
367.70 2.138
367.80 2.136
367.90 2.134
368.00 2.132
368.10 2.129
368.20 2.127
368.30 2.125
368.40 2.123
368.50 2.121
368.60 2.119
368.70 2.116
368.80 2.114
368.90 2.112
369.00 2.11
369.10 2.108
369.20 2.106
369.30 2.104
369.40 2.101
369.50 2.099
369.60 2.097
369.70 2.095
369.80 2.093
369.90 2.091
370.00 2.089
370.10 2.087
370.20 2.085
370.30 2.083
370.40 2.081
370.50 2.079
370.60 2.077
370.70 2.075
370.80 2.073
370.90 2.071
371.00 2.069
371.10 2.067
371.20 2.065
371.30 2.063
371.40 2.061
371.50 2.059
371.60 2.057
371.70 2.055
371.80 2.053
371.90 2.051
372.00 2.049
372.10 2.047
372.20 2.046
372.30 2.044
372.40 2.042
372.50 2.041
372.60 2.039
372.70 2.038
372.80 2.036
372.90 2.035
373.00 2.033
373.10 2.032
373.20 2.03
373.30 2.029
373.40 2.027
373.50 2.025
373.60 2.024
373.70 2.022
373.80 2.021
373.90 2.019
374.00 2.018
374.10 2.017
374.20 2.015
374.30 2.014
374.40 2.013
374.50 2.012
374.60 2.011
374.70 2.01
374.80 2.008
374.90 2.007
375.00 2.006
375.10 2.005
375.20 2.004
375.30 2.003
375.40 2.001
375.50 2
375.60 1.999
375.70 1.998
375.80 1.997
375.90 1.996
376.00 1.994
376.10 1.992
376.20 1.989
376.30 1.986
376.40 1.984
376.50 1.981
376.60 1.978
376.70 1.976
376.80 1.973
376.90 1.97
377.00 1.967
377.10 1.969
377.20 1.97
377.30 1.971
377.40 1.972
377.50 1.973
377.60 1.974
377.70 1.976
377.80 1.977
377.90 1.978
378.00 1.979
378.10 1.976
378.20 1.974
378.30 1.971
378.40 1.969
378.50 1.966
378.60 1.963
378.70 1.961
378.80 1.958
378.90 1.956
379.00 1.953
379.10 1.949
379.20 1.946
379.30 1.942
379.40 1.938
379.50 1.934
379.60 1.931
379.70 1.927
379.80 1.923
379.90 1.92
380.00 1.916
380.10 1.921
380.20 1.925
380.30 1.93
380.40 1.935
380.50 1.939
380.60 1.944
380.70 1.949
380.80 1.954
380.90 1.958
381.00 1.963
381.10 1.963
381.20 1.963
381.30 1.963
381.40 1.963
381.50 1.963
381.60 1.96
381.70 1.957
381.80 1.953
381.90 1.948
382.00 1.943
382.10 1.936
382.20 1.929
382.30 1.916
382.40 1.904
382.50 1.892
382.60 1.88
382.70 1.868
382.80 1.856
382.90 1.844
383.00 1.832
383.10 1.82
383.20 1.808
383.30 1.793
383.40 1.778
383.50 1.765
383.60 1.768
383.70 1.781
383.80 1.796
383.90 1.811
384.00 1.826
384.10 1.84
384.20 1.854
384.30 1.867
384.40 1.88
384.50 1.892
384.60 1.903
384.70 1.913
384.80 1.923
384.90 1.931
385.00 1.939
385.10 1.946
385.20 1.952
385.30 1.957
385.40 1.962
385.50 1.965
385.60 1.968
385.70 1.969
385.80 1.97
385.90 1.97
386.00 1.969
386.10 1.967
386.20 1.964
386.30 1.96
386.40 1.955
386.50 1.95
386.60 1.943
386.70 1.935
386.80 1.926
386.90 1.916
387.00 1.905
387.10 1.893
387.20 1.88
387.30 1.866
387.40 1.851
387.50 1.834
387.60 1.817
387.70 1.799
387.80 1.779
387.90 1.759
388.00 1.737
388.10 1.714
388.20 1.691
388.30 1.666
388.40 1.64
388.50 1.614
388.60 1.587
388.70 1.561
388.80 1.539
388.90 1.521
389.00 1.536
389.10 1.556
389.20 1.581
389.30 1.606
389.40 1.631
389.50 1.655
389.60 1.679
389.70 1.701
389.80 1.723
389.90 1.744
390.00 1.764
390.10 1.784
390.20 1.802
390.30 1.819
390.40 1.836
390.50 1.851
390.60 1.866
390.70 1.881
390.80 1.894
390.90 1.906
391.00 1.918
391.10 1.928
391.20 1.939
391.30 1.948
391.40 1.956
391.50 1.964
391.60 1.972
391.70 1.978
391.80 1.984
391.90 1.989
392.00 1.993
392.10 1.997
392.20 2
392.30 2.002
392.40 2.004
392.50 2.005
392.60 2.005
392.70 2.005
392.80 2.004
392.90 2.002
393.00 2
393.10 1.997
393.20 1.993
393.30 1.989
393.40 1.984
393.50 1.978
393.60 1.971
393.70 1.964
393.80 1.956
393.90 1.947
394.00 1.938
394.10 1.927
394.20 1.916
394.30 1.905
394.40 1.892
394.50 1.878
394.60 1.864
394.70 1.849
394.80 1.833
394.90 1.816
395.00 1.798
395.10 1.779
395.20 1.76
395.30 1.739
395.40 1.717
395.50 1.695
395.60 1.671
395.70 1.647
395.80 1.622
395.90 1.595
396.00 1.568
396.10 1.54
396.20 1.51
396.30 1.479
396.40 1.448
396.50 1.414
396.60 1.379
396.70 1.343
396.80 1.304
396.90 1.263
397.00 1.22
397.10 1.258
397.20 1.295
397.30 1.333
397.40 1.367
397.50 1.4
397.60 1.432
397.70 1.462
397.80 1.49
397.90 1.518
398.00 1.544
398.10 1.57
398.20 1.594
398.30 1.617
398.40 1.64
398.50 1.661
398.60 1.682
398.70 1.701
398.80 1.72
398.90 1.738
399.00 1.755
399.10 1.772
399.20 1.787
399.30 1.802
399.40 1.816
399.50 1.83
399.60 1.842
399.70 1.855
399.80 1.866
399.90 1.877
400.00 1.887
400.10 1.896
400.20 1.906
400.30 1.914
400.40 1.922
400.50 1.93
400.60 1.937
400.70 1.943
400.80 1.949
400.90 1.955
401.00 1.961
401.10 1.966
401.20 1.97
401.30 1.974
401.40 1.978
401.50 1.982
401.60 1.985
401.70 1.988
401.80 1.99
401.90 1.993
402.00 1.995
402.10 1.997
402.20 1.998
402.30 1.999
402.40 2
402.50 2.001
402.60 2.001
402.70 2.002
402.80 2.002
402.90 2.002
403.00 2.001
403.10 2
403.20 2
403.30 1.999
403.40 1.997
403.50 1.996
403.60 1.994
403.70 1.992
403.80 1.99
403.90 1.988
404.00 1.985
404.10 1.983
404.20 1.98
404.30 1.976
404.40 1.973
404.50 1.969
404.60 1.965
404.70 1.961
404.80 1.957
404.90 1.952
405.00 1.947
405.10 1.942
405.20 1.937
405.30 1.931
405.40 1.925
405.50 1.919
405.60 1.912
405.70 1.905
405.80 1.898
405.90 1.89
406.00 1.882
406.10 1.874
406.20 1.865
406.30 1.856
406.40 1.847
406.50 1.837
406.60 1.826
406.70 1.815
406.80 1.804
406.90 1.793
407.00 1.78
407.10 1.767
407.20 1.754
407.30 1.74
407.40 1.726
407.50 1.711
407.60 1.696
407.70 1.679
407.80 1.663
407.90 1.645
408.00 1.627
408.10 1.608
408.20 1.589
408.30 1.568
408.40 1.548
408.50 1.526
408.60 1.503
408.70 1.48
408.80 1.456
408.90 1.431
409.00 1.405
409.10 1.378
409.20 1.351
409.30 1.322
409.40 1.292
409.50 1.261
409.60 1.228
409.70 1.193
409.80 1.155
409.90 1.115
410.00 1.066
410.10 1.027
410.20 0.9957
410.30 1.043
410.40 1.089
410.50 1.133
410.60 1.169
410.70 1.204
410.80 1.236
410.90 1.265
411.00 1.294
411.10 1.321
411.20 1.347
411.30 1.372
411.40 1.396
411.50 1.419
411.60 1.441
411.70 1.462
411.80 1.482
411.90 1.502
412.00 1.52
412.10 1.538
412.20 1.555
412.30 1.572
412.40 1.587
412.50 1.602
412.60 1.617
412.70 1.63
412.80 1.643
412.90 1.656
413.00 1.667
413.10 1.679
413.20 1.689
413.30 1.699
413.40 1.709
413.50 1.718
413.60 1.727
413.70 1.735
413.80 1.743
413.90 1.75
414.00 1.757
414.10 1.764
414.20 1.77
414.30 1.776
414.40 1.782
414.50 1.787
414.60 1.792
414.70 1.797
414.80 1.801
414.90 1.805
415.00 1.809
415.10 1.813
415.20 1.816
415.30 1.819
415.40 1.822
415.50 1.825
415.60 1.828
415.70 1.83
415.80 1.832
415.90 1.834
416.00 1.836
416.10 1.838
416.20 1.839
416.30 1.841
416.40 1.842
416.50 1.843
416.60 1.844
416.70 1.845
416.80 1.846
416.90 1.847
417.00 1.847
417.10 1.848
417.20 1.848
417.30 1.849
417.40 1.849
417.50 1.849
417.60 1.849
417.70 1.849
417.80 1.849
417.90 1.849
418.00 1.849
418.10 1.849
418.20 1.848
418.30 1.848
418.40 1.848
418.50 1.847
418.60 1.847
418.70 1.846
418.80 1.846
418.90 1.845
419.00 1.844
419.10 1.844
419.20 1.843
419.30 1.842
419.40 1.841
419.50 1.84
419.60 1.839
419.70 1.839
419.80 1.838
419.90 1.837
420.00 1.836
420.10 1.835
420.20 1.834
420.30 1.832
420.40 1.831
420.50 1.83
420.60 1.829
420.70 1.828
420.80 1.827
420.90 1.825
421.00 1.824
421.10 1.823
421.20 1.821
421.30 1.82
421.40 1.819
421.50 1.817
421.60 1.816
421.70 1.815
421.80 1.813
421.90 1.812
422.00 1.81
422.10 1.809
422.20 1.807
422.30 1.806
422.40 1.804
422.50 1.802
422.60 1.801
422.70 1.799
422.80 1.798
422.90 1.796
423.00 1.794
423.10 1.793
423.20 1.791
423.30 1.789
423.40 1.787
423.50 1.786
423.60 1.784
423.70 1.782
423.80 1.78
423.90 1.778
424.00 1.776
424.10 1.774
424.20 1.773
424.30 1.771
424.40 1.769
424.50 1.767
424.60 1.765
424.70 1.762
424.80 1.76
424.90 1.758
425.00 1.756
425.10 1.754
425.20 1.752
425.30 1.749
425.40 1.747
425.50 1.745
425.60 1.742
425.70 1.74
425.80 1.738
425.90 1.735
426.00 1.733
426.10 1.73
426.20 1.727
426.30 1.725
426.40 1.722
426.50 1.719
426.60 1.717
426.70 1.714
426.80 1.711
426.90 1.708
427.00 1.705
427.10 1.701
427.20 1.698
427.30 1.695
427.40 1.691
427.50 1.688
427.60 1.684
427.70 1.681
427.80 1.677
427.90 1.673
428.00 1.669
428.10 1.665
428.20 1.661
428.30 1.656
428.40 1.652
428.50 1.647
428.60 1.642
428.70 1.637
428.80 1.632
428.90 1.627
429.00 1.621
429.10 1.616
429.20 1.61
429.30 1.603
429.40 1.597
429.50 1.591
429.60 1.584
429.70 1.577
429.80 1.569
429.90 1.562
430.00 1.554
430.10 1.546
430.20 1.537
430.30 1.529
430.40 1.52
430.50 1.51
430.60 1.501
430.70 1.491
430.80 1.48
430.90 1.47
431.00 1.458
431.10 1.447
431.20 1.435
431.30 1.423
431.40 1.41
431.50 1.397
431.60 1.383
431.70 1.369
431.80 1.355
431.90 1.339
432.00 1.324
432.10 1.308
432.20 1.291
432.30 1.273
432.40 1.255
432.50 1.236
432.60 1.217
432.70 1.197
432.80 1.176
432.90 1.155
433.00 1.133
433.10 1.109
433.20 1.085
433.30 1.06
433.40 1.033
433.50 1.005
433.60 0.9743
433.70 0.9388
433.80 0.8978
433.90 0.8512
434.00 0.7845
434.10 0.7854
434.20 0.8537
434.30 0.8982
434.40 0.9374
434.50 0.9712
434.60 0.9997
434.70 1.027
434.80 1.052
434.90 1.075
435.00 1.098
435.10 1.119
435.20 1.139
435.30 1.159
435.40 1.178
435.50 1.195
435.60 1.213
435.70 1.229
435.80 1.245
435.90 1.26
436.00 1.275
436.10 1.289
436.20 1.302
436.30 1.315
436.40 1.327
436.50 1.339
436.60 1.35
436.70 1.36
436.80 1.37
436.90 1.38
437.00 1.389
437.10 1.398
437.20 1.407
437.30 1.415
437.40 1.422
437.50 1.43
437.60 1.436
437.70 1.443
437.80 1.449
437.90 1.455
438.00 1.461
438.10 1.466
438.20 1.471
438.30 1.476
438.40 1.48
438.50 1.485
438.60 1.489
438.70 1.492
438.80 1.496
438.90 1.499
439.00 1.502
439.10 1.505
439.20 1.508
439.30 1.51
439.40 1.513
439.50 1.515
439.60 1.517
439.70 1.519
439.80 1.52
439.90 1.522
440.00 1.523
440.10 1.525
440.20 1.526
440.30 1.527
440.40 1.528
440.50 1.529
440.60 1.529
440.70 1.53
440.80 1.531
440.90 1.531
441.00 1.532
441.10 1.532
441.20 1.532
441.30 1.533
441.40 1.533
441.50 1.533
441.60 1.533
441.70 1.533
441.80 1.533
441.90 1.533
442.00 1.533
442.10 1.533
442.20 1.533
442.30 1.532
442.40 1.532
442.50 1.532
442.60 1.531
442.70 1.531
442.80 1.531
442.90 1.53
443.00 1.53
443.10 1.529
443.20 1.529
443.30 1.528
443.40 1.528
443.50 1.527
443.60 1.526
443.70 1.526
443.80 1.525
443.90 1.525
444.00 1.524
444.10 1.523
444.20 1.522
444.30 1.522
444.40 1.521
444.50 1.52
444.60 1.519
444.70 1.519
444.80 1.518
444.90 1.517
445.00 1.516
445.10 1.515
445.20 1.515
445.30 1.514
445.40 1.513
445.50 1.512
445.60 1.511
445.70 1.51
445.80 1.509
445.90 1.509
446.00 1.508
446.10 1.507
446.20 1.506
446.30 1.505
446.40 1.504
446.50 1.503
446.60 1.502
446.70 1.501
446.80 1.5
446.90 1.499
447.00 1.498
447.10 1.497
447.20 1.496
447.30 1.495
447.40 1.494
447.50 1.493
447.60 1.492
447.70 1.491
447.80 1.49
447.90 1.489
448.00 1.488
448.10 1.487
448.20 1.486
448.30 1.485
448.40 1.484
448.50 1.483
448.60 1.482
448.70 1.481
448.80 1.48
448.90 1.479
449.00 1.478
449.10 1.477
449.20 1.476
449.30 1.475
449.40 1.474
449.50 1.472
449.60 1.471
449.70 1.47
449.80 1.469
449.90 1.468
450.00 1.467
450.10 1.466
450.20 1.465
450.30 1.464
450.40 1.463
450.50 1.462
450.60 1.461
450.70 1.46
450.80 1.459
450.90 1.457
451.00 1.456
451.10 1.455
451.20 1.454
451.30 1.453
451.40 1.452
451.50 1.451
451.60 1.45
451.70 1.449
451.80 1.448
451.90 1.447
452.00 1.446
452.10 1.444
452.20 1.443
452.30 1.442
452.40 1.441
452.50 1.44
452.60 1.439
452.70 1.438
452.80 1.437
452.90 1.436
453.00 1.435
453.10 1.433
453.20 1.432
453.30 1.431
453.40 1.43
453.50 1.429
453.60 1.428
453.70 1.427
453.80 1.426
453.90 1.425
454.00 1.424
454.10 1.423
454.20 1.421
454.30 1.42
454.40 1.419
454.50 1.418
454.60 1.417
454.70 1.416
454.80 1.415
454.90 1.414
455.00 1.413
455.10 1.412
455.20 1.41
455.30 1.409
455.40 1.408
455.50 1.407
455.60 1.406
455.70 1.405
455.80 1.404
455.90 1.403
456.00 1.402
456.10 1.401
456.20 1.4
456.30 1.398
456.40 1.397
456.50 1.396
456.60 1.395
456.70 1.394
456.80 1.393
456.90 1.392
457.00 1.391
457.10 1.39
457.20 1.389
457.30 1.388
457.40 1.386
457.50 1.385
457.60 1.384
457.70 1.383
457.80 1.382
457.90 1.381
458.00 1.38
458.10 1.379
458.20 1.378
458.30 1.377
458.40 1.376
458.50 1.375
458.60 1.373
458.70 1.372
458.80 1.371
458.90 1.37
459.00 1.369
459.10 1.368
459.20 1.367
459.30 1.366
459.40 1.365
459.50 1.364
459.60 1.363
459.70 1.362
459.80 1.361
459.90 1.359
460.00 1.358
460.10 1.357
460.20 1.356
460.30 1.355
460.40 1.354
460.50 1.353
460.60 1.352
460.70 1.351
460.80 1.35
460.90 1.349
461.00 1.348
461.10 1.347
461.20 1.345
461.30 1.344
461.40 1.343
461.50 1.342
461.60 1.341
461.70 1.34
461.80 1.339
461.90 1.338
462.00 1.337
462.10 1.336
462.20 1.335
462.30 1.334
462.40 1.333
462.50 1.332
462.60 1.331
462.70 1.329
462.80 1.328
462.90 1.327
463.00 1.326
463.10 1.325
463.20 1.324
463.30 1.323
463.40 1.322
463.50 1.321
463.60 1.32
463.70 1.319
463.80 1.318
463.90 1.317
464.00 1.316
464.10 1.315
464.20 1.314
464.30 1.312
464.40 1.311
464.50 1.31
464.60 1.309
464.70 1.308
464.80 1.307
464.90 1.306
465.00 1.305
465.10 1.304
465.20 1.303
465.30 1.302
465.40 1.301
465.50 1.3
465.60 1.299
465.70 1.298
465.80 1.297
465.90 1.296
466.00 1.294
466.10 1.293
466.20 1.292
466.30 1.291
466.40 1.29
466.50 1.289
466.60 1.288
466.70 1.287
466.80 1.286
466.90 1.285
467.00 1.284
467.10 1.283
467.20 1.282
467.30 1.281
467.40 1.28
467.50 1.279
467.60 1.278
467.70 1.276
467.80 1.275
467.90 1.274
468.00 1.273
468.10 1.272
468.20 1.271
468.30 1.27
468.40 1.269
468.50 1.268
468.60 1.267
468.70 1.266
468.80 1.265
468.90 1.264
469.00 1.263
469.10 1.262
469.20 1.26
469.30 1.259
469.40 1.258
469.50 1.257
469.60 1.256
469.70 1.255
469.80 1.254
469.90 1.253
470.00 1.252
470.10 1.251
470.20 1.25
470.30 1.249
470.40 1.247
470.50 1.246
470.60 1.245
470.70 1.244
470.80 1.243
470.90 1.242
471.00 1.241
471.10 1.24
471.20 1.239
471.30 1.238
471.40 1.236
471.50 1.235
471.60 1.234
471.70 1.233
471.80 1.232
471.90 1.231
472.00 1.23
472.10 1.229
472.20 1.228
472.30 1.226
472.40 1.225
472.50 1.224
472.60 1.223
472.70 1.222
472.80 1.221
472.90 1.22
473.00 1.218
473.10 1.217
473.20 1.216
473.30 1.215
473.40 1.214
473.50 1.212
473.60 1.211
473.70 1.21
473.80 1.209
473.90 1.208
474.00 1.206
474.10 1.205
474.20 1.204
474.30 1.203
474.40 1.202
474.50 1.2
474.60 1.199
474.70 1.198
474.80 1.196
474.90 1.195
475.00 1.194
475.10 1.193
475.20 1.191
475.30 1.19
475.40 1.189
475.50 1.187
475.60 1.186
475.70 1.185
475.80 1.183
475.90 1.182
476.00 1.181
476.10 1.179
476.20 1.178
476.30 1.176
476.40 1.175
476.50 1.173
476.60 1.172
476.70 1.17
476.80 1.169
476.90 1.167
477.00 1.166
477.10 1.164
477.20 1.163
477.30 1.161
477.40 1.159
477.50 1.158
477.60 1.156
477.70 1.154
477.80 1.152
477.90 1.151
478.00 1.149
478.10 1.147
478.20 1.145
478.30 1.143
478.40 1.141
478.50 1.139
478.60 1.137
478.70 1.135
478.80 1.133
478.90 1.131
479.00 1.129
479.10 1.127
479.20 1.125
479.30 1.123
479.40 1.12
479.50 1.118
479.60 1.115
479.70 1.113
479.80 1.11
479.90 1.108
480.00 1.106
480.10 1.103
480.20 1.1
480.30 1.097
480.40 1.094
480.50 1.091
480.60 1.088
480.70 1.084
480.80 1.081
480.90 1.078
481.00 1.075
481.10 1.072
481.20 1.068
481.30 1.064
481.40 1.06
481.50 1.055
481.60 1.051
481.70 1.047
481.80 1.043
481.90 1.039
482.00 1.034
482.10 1.03
482.20 1.025
482.30 1.019
482.40 1.013
482.50 1.007
482.60 1.002
482.70 0.9959
482.80 0.9901
482.90 0.9844
483.00 0.9786
483.10 0.9728
483.20 0.9655
483.30 0.9574
483.40 0.9493
483.50 0.9412
483.60 0.9331
483.70 0.925
483.80 0.917
483.90 0.9089
484.00 0.9009
484.10 0.8928
484.20 0.8832
484.30 0.8728
484.40 0.8624
484.50 0.852
484.60 0.8417
484.70 0.8299
484.80 0.8175
484.90 0.805
485.00 0.7926
485.10 0.7802
485.20 0.7664
485.30 0.7519
485.40 0.7362
485.50 0.7199
485.60 0.7013
485.70 0.6817
485.80 0.6566
485.90 0.6289
486.00 0.5918
486.10 0.526
486.20 0.5542
486.30 0.6058
486.40 0.6361
486.50 0.6632
486.60 0.6846
486.70 0.7034
486.80 0.7198
486.90 0.7351
487.00 0.7491
487.10 0.7624
487.20 0.7744
487.30 0.7856
487.40 0.7969
487.50 0.8081
487.60 0.8194
487.70 0.8291
487.80 0.8381
487.90 0.8472
488.00 0.8562
488.10 0.8652
488.20 0.8726
488.30 0.8791
488.40 0.8857
488.50 0.8923
488.60 0.8988
488.70 0.9054
488.80 0.912
488.90 0.9185
489.00 0.9251
489.10 0.9316
489.20 0.9365
489.30 0.9406
489.40 0.9448
489.50 0.9489
489.60 0.953
489.70 0.9571
489.80 0.9612
489.90 0.9653
490.00 0.9695
490.10 0.9736
490.20 0.9765
490.30 0.979
490.40 0.9815
490.50 0.9839
490.60 0.9864
490.70 0.9889
490.80 0.9913
490.90 0.9938
491.00 0.9962
491.10 0.9987
491.20 1
491.30 1.002
491.40 1.003
491.50 1.005
491.60 1.006
491.70 1.007
491.80 1.009
491.90 1.01
492.00 1.011
492.10 1.013
492.20 1.014
492.30 1.014
492.40 1.015
492.50 1.016
492.60 1.016
492.70 1.017
492.80 1.018
492.90 1.018
493.00 1.019
493.10 1.02
493.20 1.02
493.30 1.02
493.40 1.021
493.50 1.021
493.60 1.021
493.70 1.021
493.80 1.021
493.90 1.022
494.00 1.022
494.10 1.022
494.20 1.022
494.30 1.022
494.40 1.022
494.50 1.022
494.60 1.022
494.70 1.022
494.80 1.022
494.90 1.022
495.00 1.022
495.10 1.022
495.20 1.021
495.30 1.021
495.40 1.021
495.50 1.021
495.60 1.02
495.70 1.02
495.80 1.02
495.90 1.02
496.00 1.019
496.10 1.019
496.20 1.019
496.30 1.018
496.40 1.018
496.50 1.018
496.60 1.017
496.70 1.017
496.80 1.016
496.90 1.016
497.00 1.016
497.10 1.015
497.20 1.015
497.30 1.014
497.40 1.014
497.50 1.013
497.60 1.013
497.70 1.012
497.80 1.012
497.90 1.011
498.00 1.011
498.10 1.01
498.20 1.01
498.30 1.009
498.40 1.009
498.50 1.008
498.60 1.008
498.70 1.007
498.80 1.007
498.90 1.006
499.00 1.006
499.10 1.005
499.20 1.005
499.30 1.004
499.40 1.003
499.50 1.003
499.60 1.002
499.70 1.002
499.80 1.001
499.90 1.001
500.00 1
500.10 0.9994
500.20 0.9988
500.30 0.9982
500.40 0.9976
500.50 0.997
500.60 0.9964
500.70 0.9958
500.80 0.9952
500.90 0.9946
501.00 0.994
501.10 0.9934
501.20 0.9928
501.30 0.9922
501.40 0.9915
501.50 0.9909
501.60 0.9903
501.70 0.9897
501.80 0.9891
501.90 0.9884
502.00 0.9878
502.10 0.9872
502.20 0.9866
502.30 0.9859
502.40 0.9853
502.50 0.9847
502.60 0.984
502.70 0.9834
502.80 0.9828
502.90 0.9821
503.00 0.9815
503.10 0.9809
503.20 0.9802
503.30 0.9796
503.40 0.9789
503.50 0.9783
503.60 0.9776
503.70 0.977
503.80 0.9763
503.90 0.9757
504.00 0.9751
504.10 0.9744
504.20 0.9738
504.30 0.9731
504.40 0.9725
504.50 0.9718
504.60 0.9712
504.70 0.9705
504.80 0.9699
504.90 0.9692
505.00 0.9686
505.10 0.9679
505.20 0.9673
505.30 0.9666
505.40 0.966
505.50 0.9653
505.60 0.9647
505.70 0.964
505.80 0.9634
505.90 0.9627
506.00 0.9621
506.10 0.9614
506.20 0.9608
506.30 0.9601
506.40 0.9595
506.50 0.9588
506.60 0.9581
506.70 0.9575
506.80 0.9568
506.90 0.9562
507.00 0.9555
507.10 0.9549
507.20 0.9542
507.30 0.9536
507.40 0.9529
507.50 0.9523
507.60 0.9516
507.70 0.951
507.80 0.9503
507.90 0.9497
508.00 0.949
508.10 0.9484
508.20 0.9477
508.30 0.9471
508.40 0.9464
508.50 0.9457
508.60 0.9451
508.70 0.9444
508.80 0.9438
508.90 0.9431
509.00 0.9425
509.10 0.9418
509.20 0.9412
509.30 0.9405
509.40 0.9399
509.50 0.9392
509.60 0.9386
509.70 0.9379
509.80 0.9373
509.90 0.9367
510.00 0.936
510.10 0.9354
510.20 0.9347
510.30 0.9341
510.40 0.9334
510.50 0.9328
510.60 0.9321
510.70 0.9315
510.80 0.9308
510.90 0.9302
511.00 0.9295
511.10 0.9289
511.20 0.9283
511.30 0.9276
511.40 0.927
511.50 0.9263
511.60 0.9257
511.70 0.925
511.80 0.9244
511.90 0.9237
512.00 0.9231
512.10 0.9225
512.20 0.9218
512.30 0.9212
512.40 0.9205
512.50 0.9199
512.60 0.9193
512.70 0.9186
512.80 0.918
512.90 0.9173
513.00 0.9167
513.10 0.9161
513.20 0.9154
513.30 0.9148
513.40 0.9142
513.50 0.9135
513.60 0.9129
513.70 0.9123
513.80 0.9116
513.90 0.911
514.00 0.9103
514.10 0.9097
514.20 0.9091
514.30 0.9084
514.40 0.9078
514.50 0.9072
514.60 0.9066
514.70 0.9059
514.80 0.9053
514.90 0.9047
515.00 0.904
515.10 0.9034
515.20 0.9028
515.30 0.9021
515.40 0.9015
515.50 0.9009
515.60 0.9003
515.70 0.8996
515.80 0.899
515.90 0.8984
516.00 0.8978
516.10 0.8971
516.20 0.8965
516.30 0.8959
516.40 0.8953
516.50 0.8946
516.60 0.894
516.70 0.8934
516.80 0.8928
516.90 0.8921
517.00 0.8915
517.10 0.8909
517.20 0.8903
517.30 0.8897
517.40 0.8891
517.50 0.8884
517.60 0.8878
517.70 0.8872
517.80 0.8866
517.90 0.886
518.00 0.8853
518.10 0.8847
518.20 0.8841
518.30 0.8835
518.40 0.8829
518.50 0.8823
518.60 0.8817
518.70 0.881
518.80 0.8804
518.90 0.8798
519.00 0.8792
519.10 0.8786
519.20 0.878
519.30 0.8774
519.40 0.8768
519.50 0.8762
519.60 0.8756
519.70 0.8749
519.80 0.8743
519.90 0.8737
520.00 0.8731
520.10 0.8725
520.20 0.8719
520.30 0.8713
520.40 0.8707
520.50 0.8701
520.60 0.8695
520.70 0.8689
520.80 0.8683
520.90 0.8677
521.00 0.8671
521.10 0.8665
521.20 0.8659
521.30 0.8653
521.40 0.8647
521.50 0.8641
521.60 0.8635
521.70 0.8629
521.80 0.8623
521.90 0.8617
522.00 0.8611
522.10 0.8605
522.20 0.8599
522.30 0.8593
522.40 0.8587
522.50 0.8581
522.60 0.8575
522.70 0.8569
522.80 0.8563
522.90 0.8557
523.00 0.8551
523.10 0.8545
523.20 0.854
523.30 0.8534
523.40 0.8528
523.50 0.8522
523.60 0.8516
523.70 0.851
523.80 0.8504
523.90 0.8498
524.00 0.8492
524.10 0.8487
524.20 0.8481
524.30 0.8475
524.40 0.8469
524.50 0.8463
524.60 0.8457
524.70 0.8451
524.80 0.8446
524.90 0.844
525.00 0.8434
525.10 0.8428
525.20 0.8422
525.30 0.8416
525.40 0.8411
525.50 0.8405
525.60 0.8399
525.70 0.8393
525.80 0.8387
525.90 0.8382
526.00 0.8376
526.10 0.837
526.20 0.8364
526.30 0.8359
526.40 0.8353
526.50 0.8347
526.60 0.8341
526.70 0.8336
526.80 0.833
526.90 0.8324
527.00 0.8318
527.10 0.8313
527.20 0.8307
527.30 0.8301
527.40 0.8295
527.50 0.829
527.60 0.8284
527.70 0.8278
527.80 0.8273
527.90 0.8267
528.00 0.8261
528.10 0.8256
528.20 0.825
528.30 0.8244
528.40 0.8239
528.50 0.8233
528.60 0.8227
528.70 0.8222
528.80 0.8216
528.90 0.821
529.00 0.8205
529.10 0.8199
529.20 0.8193
529.30 0.8188
529.40 0.8182
529.50 0.8177
529.60 0.8171
529.70 0.8165
529.80 0.816
529.90 0.8154
530.00 0.8149
530.10 0.8143
530.20 0.8137
530.30 0.8132
530.40 0.8126
530.50 0.8121
530.60 0.8115
530.70 0.811
530.80 0.8104
530.90 0.8098
531.00 0.8093
531.10 0.8087
531.20 0.8082
531.30 0.8076
531.40 0.8071
531.50 0.8065
531.60 0.806
531.70 0.8054
531.80 0.8049
531.90 0.8043
532.00 0.8038
532.10 0.8032
532.20 0.8027
532.30 0.8021
532.40 0.8016
532.50 0.801
532.60 0.8005
532.70 0.7999
532.80 0.7994
532.90 0.7988
533.00 0.7983
533.10 0.7977
533.20 0.7972
533.30 0.7967
533.40 0.7961
533.50 0.7956
533.60 0.795
533.70 0.7945
533.80 0.7939
533.90 0.7934
534.00 0.7929
534.10 0.7923
534.20 0.7918
534.30 0.7912
534.40 0.7907
534.50 0.7902
534.60 0.7896
534.70 0.7891
534.80 0.7886
534.90 0.788
535.00 0.7875
535.10 0.7869
535.20 0.7864
535.30 0.7859
535.40 0.7853
535.50 0.7848
535.60 0.7843
535.70 0.7837
535.80 0.7832
535.90 0.7827
536.00 0.7821
536.10 0.7816
536.20 0.7811
536.30 0.7805
536.40 0.78
536.50 0.7795
536.60 0.779
536.70 0.7784
536.80 0.7779
536.90 0.7774
537.00 0.7768
537.10 0.7763
537.20 0.7758
537.30 0.7753
537.40 0.7747
537.50 0.7742
537.60 0.7737
537.70 0.7732
537.80 0.7726
537.90 0.7721
538.00 0.7716
538.10 0.7711
538.20 0.7706
538.30 0.77
538.40 0.7695
538.50 0.769
538.60 0.7685
538.70 0.768
538.80 0.7674
538.90 0.7669
539.00 0.7664
539.10 0.7659
539.20 0.7654
539.30 0.7648
539.40 0.7643
539.50 0.7638
539.60 0.7633
539.70 0.7628
539.80 0.7623
539.90 0.7617
540.00 0.7612
540.10 0.7607
540.20 0.7602
540.30 0.7597
540.40 0.7592
540.50 0.7587
540.60 0.7582
540.70 0.7576
540.80 0.7571
540.90 0.7566
541.00 0.7561
541.10 0.7556
541.20 0.7551
541.30 0.7546
541.40 0.7541
541.50 0.7536
541.60 0.7531
541.70 0.7526
541.80 0.7521
541.90 0.7515
542.00 0.751
542.10 0.7505
542.20 0.75
542.30 0.7495
542.40 0.749
542.50 0.7485
542.60 0.748
542.70 0.7475
542.80 0.747
542.90 0.7465
543.00 0.746
543.10 0.7455
543.20 0.745
543.30 0.7445
543.40 0.744
543.50 0.7435
543.60 0.743
543.70 0.7425
543.80 0.742
543.90 0.7415
544.00 0.741
544.10 0.7405
544.20 0.74
544.30 0.7395
544.40 0.739
544.50 0.7385
544.60 0.738
544.70 0.7375
544.80 0.7371
544.90 0.7366
545.00 0.7361
545.10 0.7356
545.20 0.7351
545.30 0.7346
545.40 0.7341
545.50 0.7336
545.60 0.7331
545.70 0.7326
545.80 0.7321
545.90 0.7316
546.00 0.7312
546.10 0.7307
546.20 0.7302
546.30 0.7297
546.40 0.7292
546.50 0.7287
546.60 0.7282
546.70 0.7277
546.80 0.7273
546.90 0.7268
547.00 0.7263
547.10 0.7258
547.20 0.7253
547.30 0.7248
547.40 0.7244
547.50 0.7239
547.60 0.7234
547.70 0.7229
547.80 0.7224
547.90 0.7219
548.00 0.7215
548.10 0.721
548.20 0.7205
548.30 0.72
548.40 0.7195
548.50 0.7191
548.60 0.7186
548.70 0.7181
548.80 0.7176
548.90 0.7171
549.00 0.7167
549.10 0.7162
549.20 0.7157
549.30 0.7152
549.40 0.7148
549.50 0.7143
549.60 0.7138
549.70 0.7133
549.80 0.7129
549.90 0.7124
550.00 0.7119
550.10 0.7114
550.20 0.711
550.30 0.7105
550.40 0.71
550.50 0.7096
550.60 0.7091
550.70 0.7086
550.80 0.7082
550.90 0.7077
551.00 0.7072
551.10 0.7067
551.20 0.7063
551.30 0.7058
551.40 0.7053
551.50 0.7049
551.60 0.7044
551.70 0.7039
551.80 0.7035
551.90 0.703
552.00 0.7025
552.10 0.7021
552.20 0.7016
552.30 0.7011
552.40 0.7007
552.50 0.7002
552.60 0.6998
552.70 0.6993
552.80 0.6988
552.90 0.6984
553.00 0.6979
553.10 0.6974
553.20 0.697
553.30 0.6965
553.40 0.6961
553.50 0.6956
553.60 0.6952
553.70 0.6947
553.80 0.6942
553.90 0.6938
554.00 0.6933
554.10 0.6929
554.20 0.6924
554.30 0.6919
554.40 0.6915
554.50 0.691
554.60 0.6906
554.70 0.6901
554.80 0.6897
554.90 0.6892
555.00 0.6888
555.10 0.6883
555.20 0.6879
555.30 0.6874
555.40 0.6869
555.50 0.6865
555.60 0.686
555.70 0.6856
555.80 0.6851
555.90 0.6847
556.00 0.6842
556.10 0.6838
556.20 0.6833
556.30 0.6829
556.40 0.6824
556.50 0.682
556.60 0.6816
556.70 0.6811
556.80 0.6807
556.90 0.6802
557.00 0.6798
557.10 0.6793
557.20 0.6789
557.30 0.6784
557.40 0.678
557.50 0.6775
557.60 0.6771
557.70 0.6766
557.80 0.6762
557.90 0.6758
558.00 0.6753
558.10 0.6749
558.20 0.6744
558.30 0.674
558.40 0.6735
558.50 0.6731
558.60 0.6727
558.70 0.6722
558.80 0.6718
558.90 0.6713
559.00 0.6709
559.10 0.6705
559.20 0.67
559.30 0.6696
559.40 0.6692
559.50 0.6687
559.60 0.6683
559.70 0.6678
559.80 0.6674
559.90 0.667
560.00 0.6665
560.10 0.6661
560.20 0.6657
560.30 0.6652
560.40 0.6648
560.50 0.6644
560.60 0.6639
560.70 0.6635
560.80 0.6631
560.90 0.6626
561.00 0.6622
561.10 0.6618
561.20 0.6613
561.30 0.6609
561.40 0.6605
561.50 0.66
561.60 0.6596
561.70 0.6592
561.80 0.6588
561.90 0.6583
562.00 0.6579
562.10 0.6575
562.20 0.657
562.30 0.6566
562.40 0.6562
562.50 0.6558
562.60 0.6553
562.70 0.6549
562.80 0.6545
562.90 0.6541
563.00 0.6536
563.10 0.6532
563.20 0.6528
563.30 0.6524
563.40 0.6519
563.50 0.6515
563.60 0.6511
563.70 0.6507
563.80 0.6502
563.90 0.6498
564.00 0.6494
564.10 0.649
564.20 0.6486
564.30 0.6481
564.40 0.6477
564.50 0.6473
564.60 0.6469
564.70 0.6465
564.80 0.646
564.90 0.6456
565.00 0.6452
565.10 0.6448
565.20 0.6444
565.30 0.6439
565.40 0.6435
565.50 0.6431
565.60 0.6427
565.70 0.6423
565.80 0.6419
565.90 0.6414
566.00 0.641
566.10 0.6406
566.20 0.6402
566.30 0.6398
566.40 0.6394
566.50 0.639
566.60 0.6386
566.70 0.6381
566.80 0.6377
566.90 0.6373
567.00 0.6369
567.10 0.6365
567.20 0.6361
567.30 0.6357
567.40 0.6353
567.50 0.6349
567.60 0.6344
567.70 0.634
567.80 0.6336
567.90 0.6332
568.00 0.6328
568.10 0.6324
568.20 0.632
568.30 0.6316
568.40 0.6312
568.50 0.6308
568.60 0.6304
568.70 0.63
568.80 0.6296
568.90 0.6291
569.00 0.6287
569.10 0.6283
569.20 0.6279
569.30 0.6275
569.40 0.6271
569.50 0.6267
569.60 0.6263
569.70 0.6259
569.80 0.6255
569.90 0.6251
570.00 0.6247
570.10 0.6243
570.20 0.6239
570.30 0.6235
570.40 0.6231
570.50 0.6227
570.60 0.6223
570.70 0.6219
570.80 0.6215
570.90 0.6211
571.00 0.6207
571.10 0.6203
571.20 0.6199
571.30 0.6195
571.40 0.6191
571.50 0.6187
571.60 0.6183
571.70 0.6179
571.80 0.6175
571.90 0.6171
572.00 0.6167
572.10 0.6163
572.20 0.616
572.30 0.6156
572.40 0.6152
572.50 0.6148
572.60 0.6144
572.70 0.614
572.80 0.6136
572.90 0.6132
573.00 0.6128
573.10 0.6124
573.20 0.612
573.30 0.6116
573.40 0.6112
573.50 0.6109
573.60 0.6105
573.70 0.6101
573.80 0.6097
573.90 0.6093
574.00 0.6089
574.10 0.6085
574.20 0.6081
574.30 0.6077
574.40 0.6074
574.50 0.607
574.60 0.6066
574.70 0.6062
574.80 0.6058
574.90 0.6054
575.00 0.605
575.10 0.6046
575.20 0.6043
575.30 0.6039
575.40 0.6035
575.50 0.6031
575.60 0.6027
575.70 0.6023
575.80 0.602
575.90 0.6016
576.00 0.6012
576.10 0.6008
576.20 0.6004
576.30 0.6
576.40 0.5997
576.50 0.5993
576.60 0.5989
576.70 0.5985
576.80 0.5981
576.90 0.5978
577.00 0.5974
577.10 0.597
577.20 0.5966
577.30 0.5962
577.40 0.5959
577.50 0.5955
577.60 0.5951
577.70 0.5947
577.80 0.5943
577.90 0.594
578.00 0.5936
578.10 0.5932
578.20 0.5928
578.30 0.5925
578.40 0.5921
578.50 0.5917
578.60 0.5913
578.70 0.591
578.80 0.5906
578.90 0.5902
579.00 0.5898
579.10 0.5895
579.20 0.5891
579.30 0.5887
579.40 0.5884
579.50 0.588
579.60 0.5876
579.70 0.5872
579.80 0.5869
579.90 0.5865
580.00 0.5861
580.10 0.5857
580.20 0.5854
580.30 0.585
580.40 0.5846
580.50 0.5843
580.60 0.5839
580.70 0.5835
580.80 0.5832
580.90 0.5828
581.00 0.5824
581.10 0.5821
581.20 0.5817
581.30 0.5813
581.40 0.581
581.50 0.5806
581.60 0.5802
581.70 0.5799
581.80 0.5795
581.90 0.5791
582.00 0.5788
582.10 0.5784
582.20 0.578
582.30 0.5777
582.40 0.5773
582.50 0.5769
582.60 0.5766
582.70 0.5762
582.80 0.5759
582.90 0.5755
583.00 0.5751
583.10 0.5748
583.20 0.5744
583.30 0.574
583.40 0.5737
583.50 0.5733
583.60 0.573
583.70 0.5726
583.80 0.5722
583.90 0.5719
584.00 0.5715
584.10 0.5712
584.20 0.5708
584.30 0.5704
584.40 0.5701
584.50 0.5697
584.60 0.5694
584.70 0.569
584.80 0.5687
584.90 0.5683
585.00 0.5679
585.10 0.5676
585.20 0.5672
585.30 0.5669
585.40 0.5665
585.50 0.5662
585.60 0.5658
585.70 0.5655
585.80 0.5651
585.90 0.5647
586.00 0.5644
586.10 0.564
586.20 0.5637
586.30 0.5633
586.40 0.563
586.50 0.5626
586.60 0.5623
586.70 0.5619
586.80 0.5616
586.90 0.5612
587.00 0.5609
587.10 0.5605
587.20 0.5602
587.30 0.5598
587.40 0.5595
587.50 0.5591
587.60 0.5588
587.70 0.5584
587.80 0.5581
587.90 0.5577
588.00 0.5574
588.10 0.557
588.20 0.5567
588.30 0.5563
588.40 0.556
588.50 0.5556
588.60 0.5553
588.70 0.5549
588.80 0.5546
588.90 0.5543
589.00 0.5539
589.10 0.5536
589.20 0.5532
589.30 0.5529
589.40 0.5525
589.50 0.5522
589.60 0.5518
589.70 0.5515
589.80 0.5511
589.90 0.5508
590.00 0.5505
590.10 0.5501
590.20 0.5498
590.30 0.5494
590.40 0.5491
590.50 0.5488
590.60 0.5484
590.70 0.5481
590.80 0.5477
590.90 0.5474
591.00 0.547
591.10 0.5467
591.20 0.5464
591.30 0.546
591.40 0.5457
591.50 0.5454
591.60 0.545
591.70 0.5447
591.80 0.5443
591.90 0.544
592.00 0.5437
592.10 0.5433
592.20 0.543
592.30 0.5426
592.40 0.5423
592.50 0.542
592.60 0.5416
592.70 0.5413
592.80 0.541
592.90 0.5406
593.00 0.5403
593.10 0.54
593.20 0.5396
593.30 0.5393
593.40 0.539
593.50 0.5386
593.60 0.5383
593.70 0.538
593.80 0.5376
593.90 0.5373
594.00 0.537
594.10 0.5366
594.20 0.5363
594.30 0.536
594.40 0.5356
594.50 0.5353
594.60 0.535
594.70 0.5346
594.80 0.5343
594.90 0.534
595.00 0.5337
595.10 0.5333
595.20 0.533
595.30 0.5327
595.40 0.5323
595.50 0.532
595.60 0.5317
595.70 0.5313
595.80 0.531
595.90 0.5307
596.00 0.5304
596.10 0.53
596.20 0.5297
596.30 0.5294
596.40 0.5291
596.50 0.5287
596.60 0.5284
596.70 0.5281
596.80 0.5278
596.90 0.5274
597.00 0.5271
597.10 0.5268
597.20 0.5265
597.30 0.5261
597.40 0.5258
597.50 0.5255
597.60 0.5252
597.70 0.5248
597.80 0.5245
597.90 0.5242
598.00 0.5239
598.10 0.5235
598.20 0.5232
598.30 0.5229
598.40 0.5226
598.50 0.5223
598.60 0.5219
598.70 0.5216
598.80 0.5213
598.90 0.521
599.00 0.5207
599.10 0.5203
599.20 0.52
599.30 0.5197
599.40 0.5194
599.50 0.5191
599.60 0.5187
599.70 0.5184
599.80 0.5181
599.90 0.5178
600.00 0.5175
600.10 0.5171
600.20 0.5168
600.30 0.5165
600.40 0.5162
600.50 0.5159
600.60 0.5156
600.70 0.5152
600.80 0.5149
600.90 0.5146
601.00 0.5143
601.10 0.514
601.20 0.5137
601.30 0.5134
601.40 0.513
601.50 0.5127
601.60 0.5124
601.70 0.5121
601.80 0.5118
601.90 0.5115
602.00 0.5112
602.10 0.5109
602.20 0.5105
602.30 0.5102
602.40 0.5099
602.50 0.5096
602.60 0.5093
602.70 0.509
602.80 0.5087
602.90 0.5084
603.00 0.508
603.10 0.5077
603.20 0.5074
603.30 0.5071
603.40 0.5068
603.50 0.5065
603.60 0.5062
603.70 0.5059
603.80 0.5056
603.90 0.5053
604.00 0.505
604.10 0.5046
604.20 0.5043
604.30 0.504
604.40 0.5037
604.50 0.5034
604.60 0.5031
604.70 0.5028
604.80 0.5025
604.90 0.5022
605.00 0.5019
605.10 0.5016
605.20 0.5013
605.30 0.501
605.40 0.5007
605.50 0.5004
605.60 0.5001
605.70 0.4998
605.80 0.4994
605.90 0.4991
606.00 0.4988
606.10 0.4985
606.20 0.4982
606.30 0.4979
606.40 0.4976
606.50 0.4973
606.60 0.497
606.70 0.4967
606.80 0.4964
606.90 0.4961
607.00 0.4958
607.10 0.4955
607.20 0.4952
607.30 0.4949
607.40 0.4946
607.50 0.4943
607.60 0.494
607.70 0.4937
607.80 0.4934
607.90 0.4931
608.00 0.4928
608.10 0.4925
608.20 0.4922
608.30 0.4919
608.40 0.4916
608.50 0.4913
608.60 0.491
608.70 0.4907
608.80 0.4904
608.90 0.4901
609.00 0.4898
609.10 0.4895
609.20 0.4892
609.30 0.4889
609.40 0.4886
609.50 0.4884
609.60 0.4881
609.70 0.4878
609.80 0.4875
609.90 0.4872
610.00 0.4869
610.10 0.4866
610.20 0.4863
610.30 0.486
610.40 0.4857
610.50 0.4854
610.60 0.4851
610.70 0.4848
610.80 0.4845
610.90 0.4842
611.00 0.4839
611.10 0.4836
611.20 0.4834
611.30 0.4831
611.40 0.4828
611.50 0.4825
611.60 0.4822
611.70 0.4819
611.80 0.4816
611.90 0.4813
612.00 0.481
612.10 0.4807
612.20 0.4804
612.30 0.4802
612.40 0.4799
612.50 0.4796
612.60 0.4793
612.70 0.479
612.80 0.4787
612.90 0.4784
613.00 0.4781
613.10 0.4778
613.20 0.4776
613.30 0.4773
613.40 0.477
613.50 0.4767
613.60 0.4764
613.70 0.4761
613.80 0.4758
613.90 0.4755
614.00 0.4753
614.10 0.475
614.20 0.4747
614.30 0.4744
614.40 0.4741
614.50 0.4738
614.60 0.4735
614.70 0.4733
614.80 0.473
614.90 0.4727
615.00 0.4724
615.10 0.4721
615.20 0.4718
615.30 0.4716
615.40 0.4713
615.50 0.471
615.60 0.4707
615.70 0.4704
615.80 0.4701
615.90 0.4699
616.00 0.4696
616.10 0.4693
616.20 0.469
616.30 0.4687
616.40 0.4684
616.50 0.4682
616.60 0.4679
616.70 0.4676
616.80 0.4673
616.90 0.467
617.00 0.4668
617.10 0.4665
617.20 0.4662
617.30 0.4659
617.40 0.4656
617.50 0.4654
617.60 0.4651
617.70 0.4648
617.80 0.4645
617.90 0.4642
618.00 0.464
618.10 0.4637
618.20 0.4634
618.30 0.4631
618.40 0.4629
618.50 0.4626
618.60 0.4623
618.70 0.462
618.80 0.4617
618.90 0.4615
619.00 0.4612
619.10 0.4609
619.20 0.4606
619.30 0.4604
619.40 0.4601
619.50 0.4598
619.60 0.4595
619.70 0.4593
619.80 0.459
619.90 0.4587
620.00 0.4584
620.10 0.4582
620.20 0.4579
620.30 0.4576
620.40 0.4573
620.50 0.4571
620.60 0.4568
620.70 0.4565
620.80 0.4562
620.90 0.456
621.00 0.4557
621.10 0.4554
621.20 0.4551
621.30 0.4549
621.40 0.4546
621.50 0.4543
621.60 0.4541
621.70 0.4538
621.80 0.4535
621.90 0.4532
622.00 0.453
622.10 0.4527
622.20 0.4524
622.30 0.4522
622.40 0.4519
622.50 0.4516
622.60 0.4514
622.70 0.4511
622.80 0.4508
622.90 0.4505
623.00 0.4503
623.10 0.45
623.20 0.4497
623.30 0.4495
623.40 0.4492
623.50 0.4489
623.60 0.4487
623.70 0.4484
623.80 0.4481
623.90 0.4479
624.00 0.4476
624.10 0.4473
624.20 0.447
624.30 0.4468
624.40 0.4465
624.50 0.4462
624.60 0.446
624.70 0.4457
624.80 0.4454
624.90 0.4452
625.00 0.4449
625.10 0.4447
625.20 0.4444
625.30 0.4441
625.40 0.4439
625.50 0.4436
625.60 0.4433
625.70 0.4431
625.80 0.4428
625.90 0.4425
626.00 0.4423
626.10 0.442
626.20 0.4417
626.30 0.4415
626.40 0.4412
626.50 0.4409
626.60 0.4407
626.70 0.4404
626.80 0.4402
626.90 0.4399
627.00 0.4396
627.10 0.4394
627.20 0.4391
627.30 0.4388
627.40 0.4386
627.50 0.4383
627.60 0.438
627.70 0.4378
627.80 0.4375
627.90 0.4373
628.00 0.437
628.10 0.4367
628.20 0.4365
628.30 0.4362
628.40 0.436
628.50 0.4357
628.60 0.4354
628.70 0.4352
628.80 0.4349
628.90 0.4346
629.00 0.4344
629.10 0.4341
629.20 0.4339
629.30 0.4336
629.40 0.4333
629.50 0.4331
629.60 0.4328
629.70 0.4326
629.80 0.4323
629.90 0.432
630.00 0.4318
630.10 0.4315
630.20 0.4313
630.30 0.431
630.40 0.4308
630.50 0.4305
630.60 0.4302
630.70 0.43
630.80 0.4297
630.90 0.4295
631.00 0.4292
631.10 0.4289
631.20 0.4287
631.30 0.4284
631.40 0.4282
631.50 0.4279
631.60 0.4277
631.70 0.4274
631.80 0.4271
631.90 0.4269
632.00 0.4266
632.10 0.4264
632.20 0.4261
632.30 0.4258
632.40 0.4256
632.50 0.4253
632.60 0.4251
632.70 0.4248
632.80 0.4246
632.90 0.4243
633.00 0.424
633.10 0.4238
633.20 0.4235
633.30 0.4233
633.40 0.423
633.50 0.4228
633.60 0.4225
633.70 0.4222
633.80 0.422
633.90 0.4217
634.00 0.4215
634.10 0.4212
634.20 0.421
634.30 0.4207
634.40 0.4205
634.50 0.4202
634.60 0.4199
634.70 0.4197
634.80 0.4194
634.90 0.4192
635.00 0.4189
635.10 0.4187
635.20 0.4184
635.30 0.4181
635.40 0.4179
635.50 0.4176
635.60 0.4174
635.70 0.4171
635.80 0.4169
635.90 0.4166
636.00 0.4163
636.10 0.4161
636.20 0.4158
636.30 0.4156
636.40 0.4153
636.50 0.4151
636.60 0.4148
636.70 0.4145
636.80 0.4143
636.90 0.414
637.00 0.4138
637.10 0.4135
637.20 0.4133
637.30 0.413
637.40 0.4127
637.50 0.4125
637.60 0.4122
637.70 0.412
637.80 0.4117
637.90 0.4115
638.00 0.4112
638.10 0.4109
638.20 0.4107
638.30 0.4104
638.40 0.4102
638.50 0.4099
638.60 0.4096
638.70 0.4094
638.80 0.4091
638.90 0.4089
639.00 0.4086
639.10 0.4083
639.20 0.4081
639.30 0.4078
639.40 0.4075
639.50 0.4073
639.60 0.407
639.70 0.4068
639.80 0.4065
639.90 0.4062
640.00 0.406
640.10 0.4057
640.20 0.4054
640.30 0.4052
640.40 0.4049
640.50 0.4046
640.60 0.4044
640.70 0.4041
640.80 0.4038
640.90 0.4036
641.00 0.4033
641.10 0.403
641.20 0.4028
641.30 0.4025
641.40 0.4022
641.50 0.402
641.60 0.4017
641.70 0.4014
641.80 0.4011
641.90 0.4009
642.00 0.4006
642.10 0.4003
642.20 0.4
642.30 0.3998
642.40 0.3995
642.50 0.3992
642.60 0.3989
642.70 0.3986
642.80 0.3983
642.90 0.3981
643.00 0.3978
643.10 0.3975
643.20 0.3972
643.30 0.3969
643.40 0.3966
643.50 0.3963
643.60 0.396
643.70 0.3958
643.80 0.3955
643.90 0.3952
644.00 0.3949
644.10 0.3946
644.20 0.3943
644.30 0.394
644.40 0.3937
644.50 0.3934
644.60 0.3931
644.70 0.3927
644.80 0.3924
644.90 0.3921
645.00 0.3918
645.10 0.3915
645.20 0.3912
645.30 0.3909
645.40 0.3905
645.50 0.3902
645.60 0.3899
645.70 0.3895
645.80 0.3892
645.90 0.3889
646.00 0.3885
646.10 0.3882
646.20 0.3879
646.30 0.3875
646.40 0.3872
646.50 0.3868
646.60 0.3864
646.70 0.3861
646.80 0.3857
646.90 0.3853
647.00 0.385
647.10 0.3846
647.20 0.3842
647.30 0.3838
647.40 0.3834
647.50 0.383
647.60 0.3826
647.70 0.3822
647.80 0.3818
647.90 0.3813
648.00 0.3809
648.10 0.3805
648.20 0.3801
648.30 0.3797
648.40 0.3792
648.50 0.3787
648.60 0.3782
648.70 0.3777
648.80 0.3772
648.90 0.3767
649.00 0.3763
649.10 0.3758
649.20 0.3753
649.30 0.3748
649.40 0.3742
649.50 0.3736
649.60 0.373
649.70 0.3724
649.80 0.3718
649.90 0.3712
650.00 0.3706
650.10 0.37
650.20 0.3694
650.30 0.3688
650.40 0.368
650.50 0.3673
650.60 0.3665
650.70 0.3657
650.80 0.365
650.90 0.3642
651.00 0.3635
651.10 0.3627
651.20 0.362
651.30 0.3612
651.40 0.3601
651.50 0.3591
651.60 0.3581
651.70 0.3571
651.80 0.3561
651.90 0.3551
652.00 0.3541
652.10 0.3531
652.20 0.3521
652.30 0.351
652.40 0.3496
652.50 0.3482
652.60 0.3469
652.70 0.3455
652.80 0.3441
652.90 0.3427
653.00 0.3413
653.10 0.34
653.20 0.3386
653.30 0.3371
653.40 0.3351
653.50 0.3332
653.60 0.3312
653.70 0.3293
653.80 0.3273
653.90 0.3254
654.00 0.3234
654.10 0.3215
654.20 0.3195
654.30 0.3174
654.40 0.3149
654.50 0.3123
654.60 0.3097
654.70 0.3072
654.80 0.3045
654.90 0.3013
655.00 0.2981
655.10 0.2949
655.20 0.2917
655.30 0.2884
655.40 0.2846
655.50 0.2805
655.60 0.276
655.70 0.2712
655.80 0.2654
655.90 0.259
656.00 0.2504
656.10 0.2411
656.20 0.2219
656.30 0.1793
656.40 0.2311
656.50 0.2443
656.60 0.2528
656.70 0.2607
656.80 0.2662
656.90 0.2715
657.00 0.2757
657.10 0.2799
657.20 0.2834
657.30 0.2869
657.40 0.2897
657.50 0.2926
657.60 0.2954
657.70 0.2983
657.80 0.301
657.90 0.3032
658.00 0.3054
658.10 0.3076
658.20 0.3098
658.30 0.3119
658.40 0.3135
658.50 0.315
658.60 0.3166
658.70 0.3181
658.80 0.3197
658.90 0.3213
659.00 0.3228
659.10 0.3244
659.20 0.3259
659.30 0.3274
659.40 0.3284
659.50 0.3293
659.60 0.3303
659.70 0.3313
659.80 0.3322
659.90 0.3332
660.00 0.3342
660.10 0.3351
660.20 0.3361
660.30 0.337
660.40 0.3376
660.50 0.3381
660.60 0.3387
660.70 0.3393
660.80 0.3399
660.90 0.3404
661.00 0.341
661.10 0.3416
661.20 0.3422
661.30 0.3427
661.40 0.343
661.50 0.3433
661.60 0.3437
661.70 0.344
661.80 0.3443
661.90 0.3446
662.00 0.3449
662.10 0.3453
662.20 0.3456
662.30 0.3459
662.40 0.346
662.50 0.3462
662.60 0.3463
662.70 0.3465
662.80 0.3466
662.90 0.3468
663.00 0.347
663.10 0.3471
663.20 0.3473
663.30 0.3474
663.40 0.3475
663.50 0.3475
663.60 0.3476
663.70 0.3476
663.80 0.3477
663.90 0.3477
664.00 0.3478
664.10 0.3478
664.20 0.3479
664.30 0.3479
664.40 0.3479
664.50 0.3479
664.60 0.3478
664.70 0.3478
664.80 0.3478
664.90 0.3478
665.00 0.3478
665.10 0.3477
665.20 0.3477
665.30 0.3477
665.40 0.3476
665.50 0.3475
665.60 0.3475
665.70 0.3474
665.80 0.3473
665.90 0.3473
666.00 0.3472
666.10 0.3471
666.20 0.3471
666.30 0.347
666.40 0.3469
666.50 0.3468
666.60 0.3467
666.70 0.3466
666.80 0.3465
666.90 0.3464
667.00 0.3463
667.10 0.3462
667.20 0.3461
667.30 0.346
667.40 0.3459
667.50 0.3458
667.60 0.3456
667.70 0.3455
667.80 0.3454
667.90 0.3453
668.00 0.3452
668.10 0.345
668.20 0.3449
668.30 0.3448
668.40 0.3447
668.50 0.3445
668.60 0.3444
668.70 0.3443
668.80 0.3441
668.90 0.344
669.00 0.3438
669.10 0.3437
669.20 0.3436
669.30 0.3434
669.40 0.3433
669.50 0.3431
669.60 0.343
669.70 0.3428
669.80 0.3427
669.90 0.3425
670.00 0.3424
670.10 0.3423
670.20 0.3421
670.30 0.342
670.40 0.3418
670.50 0.3416
670.60 0.3415
670.70 0.3413
670.80 0.3412
670.90 0.341
671.00 0.3409
671.10 0.3407
671.20 0.3406
671.30 0.3404
671.40 0.3402
671.50 0.3401
671.60 0.3399
671.70 0.3398
671.80 0.3396
671.90 0.3394
672.00 0.3393
672.10 0.3391
672.20 0.339
672.30 0.3388
672.40 0.3386
672.50 0.3385
672.60 0.3383
672.70 0.3381
672.80 0.338
672.90 0.3378
673.00 0.3376
673.10 0.3375
673.20 0.3373
673.30 0.3372
673.40 0.337
673.50 0.3368
673.60 0.3367
673.70 0.3365
673.80 0.3363
673.90 0.3362
674.00 0.336
674.10 0.3358
674.20 0.3357
674.30 0.3355
674.40 0.3353
674.50 0.3351
674.60 0.335
674.70 0.3348
674.80 0.3346
674.90 0.3345
675.00 0.3343
675.10 0.3341
675.20 0.334
675.30 0.3338
675.40 0.3336
675.50 0.3335
675.60 0.3333
675.70 0.3331
675.80 0.3329
675.90 0.3328
676.00 0.3326
676.10 0.3324
676.20 0.3323
676.30 0.3321
676.40 0.3319
676.50 0.3317
676.60 0.3316
676.70 0.3314
676.80 0.3312
676.90 0.3311
677.00 0.3309
677.10 0.3307
677.20 0.3306
677.30 0.3304
677.40 0.3302
677.50 0.33
677.60 0.3299
677.70 0.3297
677.80 0.3295
677.90 0.3294
678.00 0.3292
678.10 0.329
678.20 0.3288
678.30 0.3287
678.40 0.3285
678.50 0.3283
678.60 0.3282
678.70 0.328
678.80 0.3278
678.90 0.3276
679.00 0.3275
679.10 0.3273
679.20 0.3271
679.30 0.327
679.40 0.3268
679.50 0.3266
679.60 0.3264
679.70 0.3263
679.80 0.3261
679.90 0.3259
680.00 0.3258
680.10 0.3256
680.20 0.3254
680.30 0.3252
680.40 0.3251
680.50 0.3249
680.60 0.3247
680.70 0.3246
680.80 0.3244
680.90 0.3242
681.00 0.324
681.10 0.3239
681.20 0.3237
681.30 0.3235
681.40 0.3234
681.50 0.3232
681.60 0.323
681.70 0.3228
681.80 0.3227
681.90 0.3225
682.00 0.3223
682.10 0.3222
682.20 0.322
682.30 0.3218
682.40 0.3217
682.50 0.3215
682.60 0.3213
682.70 0.3211
682.80 0.321
682.90 0.3208
683.00 0.3206
683.10 0.3205
683.20 0.3203
683.30 0.3201
683.40 0.32
683.50 0.3198
683.60 0.3196
683.70 0.3194
683.80 0.3193
683.90 0.3191
684.00 0.3189
684.10 0.3188
684.20 0.3186
684.30 0.3184
684.40 0.3183
684.50 0.3181
684.60 0.3179
684.70 0.3178
684.80 0.3176
684.90 0.3174
685.00 0.3172
685.10 0.3171
685.20 0.3169
685.30 0.3167
685.40 0.3166
685.50 0.3164
685.60 0.3162
685.70 0.3161
685.80 0.3159
685.90 0.3157
686.00 0.3156
686.10 0.3154
686.20 0.3152
686.30 0.3151
686.40 0.3149
686.50 0.3147
686.60 0.3146
686.70 0.3144
686.80 0.3142
686.90 0.3141
687.00 0.3139
687.10 0.3137
687.20 0.3136
687.30 0.3134
687.40 0.3132
687.50 0.3131
687.60 0.3129
687.70 0.3127
687.80 0.3126
687.90 0.3124
688.00 0.3122
688.10 0.3121
688.20 0.3119
688.30 0.3117
688.40 0.3116
688.50 0.3114
688.60 0.3112
688.70 0.3111
688.80 0.3109
688.90 0.3107
689.00 0.3106
689.10 0.3104
689.20 0.3102
689.30 0.3101
689.40 0.3099
689.50 0.3098
689.60 0.3096
689.70 0.3094
689.80 0.3093
689.90 0.3091
690.00 0.3089
690.10 0.3088
690.20 0.3086
690.30 0.3084
690.40 0.3083
690.50 0.3081
690.60 0.308
690.70 0.3078
690.80 0.3076
690.90 0.3075
691.00 0.3073
691.10 0.3071
691.20 0.307
691.30 0.3068
691.40 0.3066
691.50 0.3065
691.60 0.3063
691.70 0.3062
691.80 0.306
691.90 0.3058
692.00 0.3057
692.10 0.3055
692.20 0.3053
692.30 0.3052
692.40 0.305
692.50 0.3049
692.60 0.3047
692.70 0.3045
692.80 0.3044
692.90 0.3042
693.00 0.3041
693.10 0.3039
693.20 0.3037
693.30 0.3036
693.40 0.3034
693.50 0.3032
693.60 0.3031
693.70 0.3029
693.80 0.3028
693.90 0.3026
694.00 0.3024
694.10 0.3023
694.20 0.3021
694.30 0.302
694.40 0.3018
694.50 0.3016
694.60 0.3015
694.70 0.3013
694.80 0.3012
694.90 0.301
695.00 0.3008
695.10 0.3007
695.20 0.3005
695.30 0.3004
695.40 0.3002
695.50 0.3
695.60 0.2999
695.70 0.2997
695.80 0.2996
695.90 0.2994
696.00 0.2993
696.10 0.2991
696.20 0.2989
696.30 0.2988
696.40 0.2986
696.50 0.2985
696.60 0.2983
696.70 0.2981
696.80 0.298
696.90 0.2978
697.00 0.2977
697.10 0.2975
697.20 0.2974
697.30 0.2972
697.40 0.297
697.50 0.2969
697.60 0.2967
697.70 0.2966
697.80 0.2964
697.90 0.2963
698.00 0.2961
698.10 0.296
698.20 0.2958
698.30 0.2956
698.40 0.2955
698.50 0.2953
698.60 0.2952
698.70 0.295
698.80 0.2949
698.90 0.2947
699.00 0.2945
699.10 0.2944
699.20 0.2942
699.30 0.2941
699.40 0.2939
699.50 0.2938
699.60 0.2936
699.70 0.2935
699.80 0.2933
699.90 0.2931
700.00 0.293
700.10 0.2928
700.20 0.2927
700.30 0.2925
700.40 0.2924
700.50 0.2922
700.60 0.2921
700.70 0.2919
700.80 0.2918
700.90 0.2916
701.00 0.2915
701.10 0.2913
701.20 0.2911
701.30 0.291
701.40 0.2908
701.50 0.2907
701.60 0.2905
701.70 0.2904
701.80 0.2902
701.90 0.2901
702.00 0.2899
702.10 0.2898
702.20 0.2896
702.30 0.2895
702.40 0.2893
702.50 0.2892
702.60 0.289
702.70 0.2889
702.80 0.2887
702.90 0.2886
703.00 0.2884
703.10 0.2883
703.20 0.2881
703.30 0.288
703.40 0.2878
703.50 0.2876
703.60 0.2875
703.70 0.2873
703.80 0.2872
703.90 0.287
704.00 0.2869
704.10 0.2867
704.20 0.2866
704.30 0.2864
704.40 0.2863
704.50 0.2861
704.60 0.286
704.70 0.2858
704.80 0.2857
704.90 0.2855
705.00 0.2854
705.10 0.2852
705.20 0.2851
705.30 0.2849
705.40 0.2848
705.50 0.2846
705.60 0.2845
705.70 0.2843
705.80 0.2842
705.90 0.284
706.00 0.2839
706.10 0.2838
706.20 0.2836
706.30 0.2835
706.40 0.2833
706.50 0.2832
706.60 0.283
706.70 0.2829
706.80 0.2827
706.90 0.2826
707.00 0.2824
707.10 0.2823
707.20 0.2821
707.30 0.282
707.40 0.2818
707.50 0.2817
707.60 0.2815
707.70 0.2814
707.80 0.2812
707.90 0.2811
708.00 0.2809
708.10 0.2808
708.20 0.2807
708.30 0.2805
708.40 0.2804
708.50 0.2802
708.60 0.2801
708.70 0.2799
708.80 0.2798
708.90 0.2796
709.00 0.2795
709.10 0.2793
709.20 0.2792
709.30 0.279
709.40 0.2789
709.50 0.2787
709.60 0.2786
709.70 0.2785
709.80 0.2783
709.90 0.2782
710.00 0.278
710.10 0.2779
710.20 0.2777
710.30 0.2776
710.40 0.2774
710.50 0.2773
710.60 0.2772
710.70 0.277
710.80 0.2769
710.90 0.2767
711.00 0.2766
711.10 0.2764
711.20 0.2763
711.30 0.2761
711.40 0.276
711.50 0.2759
711.60 0.2757
711.70 0.2756
711.80 0.2754
711.90 0.2753
712.00 0.2751
712.10 0.275
712.20 0.2749
712.30 0.2747
712.40 0.2746
712.50 0.2744
712.60 0.2743
712.70 0.2741
712.80 0.274
712.90 0.2739
713.00 0.2737
713.10 0.2736
713.20 0.2734
713.30 0.2733
713.40 0.2732
713.50 0.273
713.60 0.2729
713.70 0.2727
713.80 0.2726
713.90 0.2724
714.00 0.2723
714.10 0.2722
714.20 0.272
714.30 0.2719
714.40 0.2717
714.50 0.2716
714.60 0.2715
714.70 0.2713
714.80 0.2712
714.90 0.271
715.00 0.2709
715.10 0.2707
715.20 0.2706
715.30 0.2705
715.40 0.2703
715.50 0.2702
715.60 0.27
715.70 0.2699
715.80 0.2698
715.90 0.2696
716.00 0.2695
716.10 0.2694
716.20 0.2692
716.30 0.2691
716.40 0.2689
716.50 0.2688
716.60 0.2687
716.70 0.2685
716.80 0.2684
716.90 0.2682
717.00 0.2681
717.10 0.268
717.20 0.2678
717.30 0.2677
717.40 0.2675
717.50 0.2674
717.60 0.2673
717.70 0.2671
717.80 0.267
717.90 0.2669
718.00 0.2667
718.10 0.2666
718.20 0.2664
718.30 0.2663
718.40 0.2662
718.50 0.266
718.60 0.2659
718.70 0.2658
718.80 0.2656
718.90 0.2655
719.00 0.2653
719.10 0.2652
719.20 0.2651
719.30 0.2649
719.40 0.2648
719.50 0.2647
719.60 0.2645
719.70 0.2644
719.80 0.2643
719.90 0.2641
720.00 0.264
720.10 0.2638
720.20 0.2637
720.30 0.2636
720.40 0.2634
720.50 0.2633
720.60 0.2632
720.70 0.263
720.80 0.2629
720.90 0.2628
721.00 0.2626
721.10 0.2625
721.20 0.2624
721.30 0.2622
721.40 0.2621
721.50 0.262
721.60 0.2618
721.70 0.2617
721.80 0.2616
721.90 0.2614
722.00 0.2613
722.10 0.2611
722.20 0.261
722.30 0.2609
722.40 0.2607
722.50 0.2606
722.60 0.2605
722.70 0.2603
722.80 0.2602
722.90 0.2601
723.00 0.2599
723.10 0.2598
723.20 0.2597
723.30 0.2595
723.40 0.2594
723.50 0.2593
723.60 0.2591
723.70 0.259
723.80 0.2589
723.90 0.2587
724.00 0.2586
724.10 0.2585
724.20 0.2583
724.30 0.2582
724.40 0.2581
724.50 0.2579
724.60 0.2578
724.70 0.2577
724.80 0.2576
724.90 0.2574
725.00 0.2573
725.10 0.2572
725.20 0.257
725.30 0.2569
725.40 0.2568
725.50 0.2566
725.60 0.2565
725.70 0.2564
725.80 0.2562
725.90 0.2561
726.00 0.256
726.10 0.2558
726.20 0.2557
726.30 0.2556
726.40 0.2555
726.50 0.2553
726.60 0.2552
726.70 0.2551
726.80 0.2549
726.90 0.2548
727.00 0.2547
727.10 0.2545
727.20 0.2544
727.30 0.2543
727.40 0.2542
727.50 0.254
727.60 0.2539
727.70 0.2538
727.80 0.2536
727.90 0.2535
728.00 0.2534
728.10 0.2533
728.20 0.2531
728.30 0.253
728.40 0.2529
728.50 0.2527
728.60 0.2526
728.70 0.2525
728.80 0.2523
728.90 0.2522
729.00 0.2521
729.10 0.252
729.20 0.2518
729.30 0.2517
729.40 0.2516
729.50 0.2514
729.60 0.2513
729.70 0.2512
729.80 0.2511
729.90 0.2509
730.00 0.2508
730.10 0.2507
730.20 0.2506
730.30 0.2504
730.40 0.2503
730.50 0.2502
730.60 0.25
730.70 0.2499
730.80 0.2498
730.90 0.2497
731.00 0.2495
731.10 0.2494
731.20 0.2493
731.30 0.2492
731.40 0.249
731.50 0.2489
731.60 0.2488
731.70 0.2487
731.80 0.2485
731.90 0.2484
732.00 0.2483
732.10 0.2482
732.20 0.248
732.30 0.2479
732.40 0.2478
732.50 0.2477
732.60 0.2475
732.70 0.2474
732.80 0.2473
732.90 0.2472
733.00 0.247
733.10 0.2469
733.20 0.2468
733.30 0.2467
733.40 0.2465
733.50 0.2464
733.60 0.2463
733.70 0.2462
733.80 0.246
733.90 0.2459
734.00 0.2458
734.10 0.2457
734.20 0.2455
734.30 0.2454
734.40 0.2453
734.50 0.2452
734.60 0.245
734.70 0.2449
734.80 0.2448
734.90 0.2447
735.00 0.2446
735.10 0.2444
735.20 0.2443
735.30 0.2442
735.40 0.2441
735.50 0.2439
735.60 0.2438
735.70 0.2437
735.80 0.2436
735.90 0.2434
736.00 0.2433
736.10 0.2432
736.20 0.2431
736.30 0.243
736.40 0.2428
736.50 0.2427
736.60 0.2426
736.70 0.2425
736.80 0.2423
736.90 0.2422
737.00 0.2421
737.10 0.242
737.20 0.2418
737.30 0.2417
737.40 0.2416
737.50 0.2415
737.60 0.2414
737.70 0.2412
737.80 0.2411
737.90 0.241
738.00 0.2409
738.10 0.2408
738.20 0.2406
738.30 0.2405
738.40 0.2404
738.50 0.2403
738.60 0.2401
738.70 0.24
738.80 0.2399
738.90 0.2398
739.00 0.2397
739.10 0.2395
739.20 0.2394
739.30 0.2393
739.40 0.2392
739.50 0.2391
739.60 0.2389
739.70 0.2388
739.80 0.2387
739.90 0.2386
740.00 0.2384
740.10 0.2383
740.20 0.2382
740.30 0.2381
740.40 0.238
740.50 0.2379
740.60 0.2377
740.70 0.2376
740.80 0.2375
740.90 0.2374
741.00 0.2373
741.10 0.2371
741.20 0.237
741.30 0.2369
741.40 0.2368
741.50 0.2367
741.60 0.2366
741.70 0.2364
741.80 0.2363
741.90 0.2362
742.00 0.2361
742.10 0.236
742.20 0.2358
742.30 0.2357
742.40 0.2356
742.50 0.2355
742.60 0.2354
742.70 0.2353
742.80 0.2351
742.90 0.235
743.00 0.2349
743.10 0.2348
743.20 0.2347
743.30 0.2346
743.40 0.2344
743.50 0.2343
743.60 0.2342
743.70 0.2341
743.80 0.234
743.90 0.2339
744.00 0.2337
744.10 0.2336
744.20 0.2335
744.30 0.2334
744.40 0.2333
744.50 0.2332
744.60 0.233
744.70 0.2329
744.80 0.2328
744.90 0.2327
745.00 0.2326
745.10 0.2325
745.20 0.2323
745.30 0.2322
745.40 0.2321
745.50 0.232
745.60 0.2319
745.70 0.2318
745.80 0.2316
745.90 0.2315
746.00 0.2314
746.10 0.2313
746.20 0.2312
746.30 0.2311
746.40 0.231
746.50 0.2308
746.60 0.2307
746.70 0.2306
746.80 0.2305
746.90 0.2304
747.00 0.2303
747.10 0.2302
747.20 0.23
747.30 0.2299
747.40 0.2298
747.50 0.2297
747.60 0.2296
747.70 0.2295
747.80 0.2293
747.90 0.2292
748.00 0.2291
748.10 0.229
748.20 0.2289
748.30 0.2288
748.40 0.2287
748.50 0.2285
748.60 0.2284
748.70 0.2283
748.80 0.2282
748.90 0.2281
749.00 0.228
749.10 0.2279
749.20 0.2277
749.30 0.2276
749.40 0.2275
749.50 0.2274
749.60 0.2273
749.70 0.2272
749.80 0.2271
749.90 0.227
750.00 0.2268
750.10 0.2267
750.20 0.2266
750.30 0.2265
750.40 0.2264
750.50 0.2263
750.60 0.2262
750.70 0.2261
750.80 0.2259
750.90 0.2258
751.00 0.2257
751.10 0.2256
751.20 0.2255
751.30 0.2254
751.40 0.2253
751.50 0.2252
751.60 0.2251
751.70 0.2249
751.80 0.2248
751.90 0.2247
752.00 0.2246
752.10 0.2245
752.20 0.2244
752.30 0.2243
752.40 0.2242
752.50 0.2241
752.60 0.224
752.70 0.2238
752.80 0.2237
752.90 0.2236
753.00 0.2235
753.10 0.2234
753.20 0.2233
753.30 0.2232
753.40 0.2231
753.50 0.223
753.60 0.2229
753.70 0.2227
753.80 0.2226
753.90 0.2225
754.00 0.2224
754.10 0.2223
754.20 0.2222
754.30 0.2221
754.40 0.222
754.50 0.2219
754.60 0.2218
754.70 0.2217
754.80 0.2215
754.90 0.2214
755.00 0.2213
755.10 0.2212
755.20 0.2211
755.30 0.221
755.40 0.2209
755.50 0.2208
755.60 0.2207
755.70 0.2206
755.80 0.2205
755.90 0.2203
756.00 0.2202
756.10 0.2201
756.20 0.22
756.30 0.2199
756.40 0.2198
756.50 0.2197
756.60 0.2196
756.70 0.2195
756.80 0.2194
756.90 0.2193
757.00 0.2192
757.10 0.219
757.20 0.2189
757.30 0.2188
757.40 0.2187
757.50 0.2186
757.60 0.2185
757.70 0.2184
757.80 0.2183
757.90 0.2182
758.00 0.2181
758.10 0.218
758.20 0.2179
758.30 0.2178
758.40 0.2176
758.50 0.2175
758.60 0.2174
758.70 0.2173
758.80 0.2172
758.90 0.2171
759.00 0.217
759.10 0.2169
759.20 0.2168
759.30 0.2167
759.40 0.2166
759.50 0.2165
759.60 0.2164
759.70 0.2163
759.80 0.2161
759.90 0.216
760.00 0.2159
760.10 0.2158
760.20 0.2157
760.30 0.2156
760.40 0.2155
760.50 0.2154
760.60 0.2153
760.70 0.2152
760.80 0.2151
760.90 0.215
761.00 0.2149
761.10 0.2148
761.20 0.2147
761.30 0.2146
761.40 0.2145
761.50 0.2144
761.60 0.2143
761.70 0.2142
761.80 0.2141
761.90 0.2139
762.00 0.2138
762.10 0.2137
762.20 0.2136
762.30 0.2135
762.40 0.2134
762.50 0.2133
762.60 0.2132
762.70 0.2131
762.80 0.213
762.90 0.2129
763.00 0.2128
763.10 0.2127
763.20 0.2126
763.30 0.2125
763.40 0.2124
763.50 0.2123
763.60 0.2122
763.70 0.2121
763.80 0.212
763.90 0.2119
764.00 0.2118
764.10 0.2117
764.20 0.2116
764.30 0.2115
764.40 0.2114
764.50 0.2113
764.60 0.2112
764.70 0.2111
764.80 0.2109
764.90 0.2108
765.00 0.2107
765.10 0.2106
765.20 0.2105
765.30 0.2104
765.40 0.2103
765.50 0.2102
765.60 0.2101
765.70 0.21
765.80 0.2099
765.90 0.2098
766.00 0.2097
766.10 0.2096
766.20 0.2095
766.30 0.2094
766.40 0.2093
766.50 0.2092
766.60 0.2091
766.70 0.209
766.80 0.2089
766.90 0.2088
767.00 0.2087
767.10 0.2086
767.20 0.2085
767.30 0.2084
767.40 0.2083
767.50 0.2082
767.60 0.2081
767.70 0.208
767.80 0.2079
767.90 0.2078
768.00 0.2077
768.10 0.2076
768.20 0.2075
768.30 0.2074
768.40 0.2073
768.50 0.2072
768.60 0.2071
768.70 0.207
768.80 0.2069
768.90 0.2068
769.00 0.2067
769.10 0.2066
769.20 0.2065
769.30 0.2064
769.40 0.2063
769.50 0.2062
769.60 0.2061
769.70 0.206
769.80 0.2059
769.90 0.2058
770.00 0.2057
770.10 0.2056
770.20 0.2055
770.30 0.2054
770.40 0.2053
770.50 0.2052
770.60 0.2051
770.70 0.205
770.80 0.2049
770.90 0.2048
771.00 0.2047
771.10 0.2046
771.20 0.2045
771.30 0.2044
771.40 0.2043
771.50 0.2042
771.60 0.2041
771.70 0.204
771.80 0.2039
771.90 0.2038
772.00 0.2037
772.10 0.2036
772.20 0.2035
772.30 0.2034
772.40 0.2033
772.50 0.2032
772.60 0.2031
772.70 0.203
772.80 0.2029
772.90 0.2028
773.00 0.2027
773.10 0.2026
773.20 0.2025
773.30 0.2024
773.40 0.2023
773.50 0.2022
773.60 0.2021
773.70 0.202
773.80 0.202
773.90 0.2019
774.00 0.2018
774.10 0.2017
774.20 0.2016
774.30 0.2015
774.40 0.2014
774.50 0.2013
774.60 0.2012
774.70 0.2011
774.80 0.201
774.90 0.2009
775.00 0.2008
775.10 0.2007
775.20 0.2006
775.30 0.2005
775.40 0.2004
775.50 0.2003
775.60 0.2002
775.70 0.2001
775.80 0.2
775.90 0.1999
776.00 0.1998
776.10 0.1997
776.20 0.1996
776.30 0.1995
776.40 0.1994
776.50 0.1993
776.60 0.1993
776.70 0.1992
776.80 0.1991
776.90 0.199
777.00 0.1989
777.10 0.1988
777.20 0.1987
777.30 0.1986
777.40 0.1985
777.50 0.1984
777.60 0.1983
777.70 0.1982
777.80 0.1981
777.90 0.198
778.00 0.1979
778.10 0.1978
778.20 0.1977
778.30 0.1976
778.40 0.1975
778.50 0.1974
778.60 0.1973
778.70 0.1972
778.80 0.1972
778.90 0.1971
779.00 0.197
779.10 0.1969
779.20 0.1968
779.30 0.1967
779.40 0.1966
779.50 0.1965
779.60 0.1964
779.70 0.1963
779.80 0.1962
779.90 0.1961
780.00 0.196
780.10 0.1959
780.20 0.1958
780.30 0.1957
780.40 0.1956
780.50 0.1956
780.60 0.1955
780.70 0.1954
780.80 0.1953
780.90 0.1952
781.00 0.1951
781.10 0.195
781.20 0.1949
781.30 0.1948
781.40 0.1947
781.50 0.1946
781.60 0.1945
781.70 0.1944
781.80 0.1944
781.90 0.1943
782.00 0.1942
782.10 0.1941
782.20 0.194
782.30 0.1939
782.40 0.1938
782.50 0.1937
782.60 0.1936
782.70 0.1935
782.80 0.1934
782.90 0.1933
783.00 0.1932
783.10 0.1932
783.20 0.1931
783.30 0.193
783.40 0.1929
783.50 0.1928
783.60 0.1927
783.70 0.1926
783.80 0.1925
783.90 0.1924
784.00 0.1923
784.10 0.1922
784.20 0.1921
784.30 0.1921
784.40 0.192
784.50 0.1919
784.60 0.1918
784.70 0.1917
784.80 0.1916
784.90 0.1915
785.00 0.1914
785.10 0.1913
785.20 0.1912
785.30 0.1911
785.40 0.1911
785.50 0.191
785.60 0.1909
785.70 0.1908
785.80 0.1907
785.90 0.1906
786.00 0.1905
786.10 0.1904
786.20 0.1903
786.30 0.1902
786.40 0.1902
786.50 0.1901
786.60 0.19
786.70 0.1899
786.80 0.1898
786.90 0.1897
787.00 0.1896
787.10 0.1895
787.20 0.1894
787.30 0.1893
787.40 0.1892
787.50 0.1892
787.60 0.1891
787.70 0.189
787.80 0.1889
787.90 0.1888
788.00 0.1887
788.10 0.1886
788.20 0.1885
788.30 0.1884
788.40 0.1884
788.50 0.1883
788.60 0.1882
788.70 0.1881
788.80 0.188
788.90 0.1879
789.00 0.1878
789.10 0.1877
789.20 0.1876
789.30 0.1875
789.40 0.1875
789.50 0.1874
789.60 0.1873
789.70 0.1872
789.80 0.1871
789.90 0.187
790.00 0.1869
790.10 0.1868
790.20 0.1867
790.30 0.1867
790.40 0.1866
790.50 0.1865
790.60 0.1864
790.70 0.1863
790.80 0.1862
790.90 0.1861
791.00 0.186
791.10 0.186
791.20 0.1859
791.30 0.1858
791.40 0.1857
791.50 0.1856
791.60 0.1855
791.70 0.1854
791.80 0.1854
791.90 0.1853
792.00 0.1852
792.10 0.1851
792.20 0.185
792.30 0.1849
792.40 0.1848
792.50 0.1847
792.60 0.1847
792.70 0.1846
792.80 0.1845
792.90 0.1844
793.00 0.1843
793.10 0.1842
793.20 0.1841
793.30 0.1841
793.40 0.184
793.50 0.1839
793.60 0.1838
793.70 0.1837
793.80 0.1836
793.90 0.1835
794.00 0.1834
794.10 0.1834
794.20 0.1833
794.30 0.1832
794.40 0.1831
794.50 0.183
794.60 0.1829
794.70 0.1828
794.80 0.1828
794.90 0.1827
795.00 0.1826
795.10 0.1825
795.20 0.1824
795.30 0.1823
795.40 0.1822
795.50 0.1822
795.60 0.1821
795.70 0.182
795.80 0.1819
795.90 0.1818
796.00 0.1817
796.10 0.1817
796.20 0.1816
796.30 0.1815
796.40 0.1814
796.50 0.1813
796.60 0.1812
796.70 0.1811
796.80 0.1811
796.90 0.181
797.00 0.1809
797.10 0.1808
797.20 0.1807
797.30 0.1806
797.40 0.1805
797.50 0.1805
797.60 0.1804
797.70 0.1803
797.80 0.1802
797.90 0.1801
798.00 0.18
798.10 0.18
798.20 0.1799
798.30 0.1798
798.40 0.1797
798.50 0.1796
798.60 0.1795
798.70 0.1794
798.80 0.1794
798.90 0.1793
799.00 0.1792
799.10 0.1791
799.20 0.179
799.30 0.1789
799.40 0.1789
799.50 0.1788
799.60 0.1787
799.70 0.1786
799.80 0.1785
799.90 0.1784
800.00 0.1784
800.10 0.1783
800.20 0.1782
800.30 0.1781
800.40 0.178
800.50 0.1779
800.60 0.1779
800.70 0.1778
800.80 0.1777
800.90 0.1776
801.00 0.1775
801.10 0.1774
801.20 0.1774
801.30 0.1773
801.40 0.1772
801.50 0.1771
801.60 0.177
801.70 0.177
801.80 0.1769
801.90 0.1768
802.00 0.1767
802.10 0.1766
802.20 0.1765
802.30 0.1765
802.40 0.1764
802.50 0.1763
802.60 0.1762
802.70 0.1761
802.80 0.1761
802.90 0.176
803.00 0.1759
803.10 0.1758
803.20 0.1757
803.30 0.1756
803.40 0.1756
803.50 0.1755
803.60 0.1754
803.70 0.1753
803.80 0.1752
803.90 0.1752
804.00 0.1751
804.10 0.175
804.20 0.1749
804.30 0.1748
804.40 0.1748
804.50 0.1747
804.60 0.1746
804.70 0.1745
804.80 0.1744
804.90 0.1743
805.00 0.1743
805.10 0.1742
805.20 0.1741
805.30 0.174
805.40 0.1739
805.50 0.1739
805.60 0.1738
805.70 0.1737
805.80 0.1736
805.90 0.1735
806.00 0.1735
806.10 0.1734
806.20 0.1733
806.30 0.1732
806.40 0.1731
806.50 0.1731
806.60 0.173
806.70 0.1729
806.80 0.1728
806.90 0.1727
807.00 0.1727
807.10 0.1726
807.20 0.1725
807.30 0.1724
807.40 0.1723
807.50 0.1723
807.60 0.1722
807.70 0.1721
807.80 0.172
807.90 0.1719
808.00 0.1719
808.10 0.1718
808.20 0.1717
808.30 0.1716
808.40 0.1715
808.50 0.1715
808.60 0.1714
808.70 0.1713
808.80 0.1712
808.90 0.1711
809.00 0.1711
809.10 0.171
809.20 0.1709
809.30 0.1708
809.40 0.1707
809.50 0.1707
809.60 0.1706
809.70 0.1705
809.80 0.1704
809.90 0.1703
810.00 0.1703
810.10 0.1702
810.20 0.1701
810.30 0.17
810.40 0.17
810.50 0.1699
810.60 0.1698
810.70 0.1697
810.80 0.1696
810.90 0.1696
811.00 0.1695
811.10 0.1694
811.20 0.1693
811.30 0.1693
811.40 0.1692
811.50 0.1691
811.60 0.169
811.70 0.1689
811.80 0.1689
811.90 0.1688
812.00 0.1687
812.10 0.1686
812.20 0.1686
812.30 0.1685
812.40 0.1684
812.50 0.1683
812.60 0.1683
812.70 0.1682
812.80 0.1681
812.90 0.168
813.00 0.1679
813.10 0.1679
813.20 0.1678
813.30 0.1677
813.40 0.1676
813.50 0.1676
813.60 0.1675
813.70 0.1674
813.80 0.1673
813.90 0.1673
814.00 0.1672
814.10 0.1671
814.20 0.167
814.30 0.1669
814.40 0.1669
814.50 0.1668
814.60 0.1667
814.70 0.1666
814.80 0.1666
814.90 0.1665
815.00 0.1664
815.10 0.1663
815.20 0.1663
815.30 0.1662
815.40 0.1661
815.50 0.166
815.60 0.166
815.70 0.1659
815.80 0.1658
815.90 0.1657
816.00 0.1657
816.10 0.1656
816.20 0.1655
816.30 0.1654
816.40 0.1653
816.50 0.1653
816.60 0.1652
816.70 0.1651
816.80 0.165
816.90 0.165
817.00 0.1649
817.10 0.1648
817.20 0.1647
817.30 0.1647
817.40 0.1646
817.50 0.1645
817.60 0.1644
817.70 0.1644
817.80 0.1643
817.90 0.1642
818.00 0.1641
818.10 0.1641
818.20 0.164
818.30 0.1639
818.40 0.1638
818.50 0.1638
818.60 0.1637
818.70 0.1636
818.80 0.1635
818.90 0.1635
819.00 0.1634
819.10 0.1633
819.20 0.1632
819.30 0.1632
819.40 0.1631
819.50 0.163
819.60 0.1629
819.70 0.1629
819.80 0.1628
819.90 0.1627
820.00 0.1626
820.10 0.1626
820.20 0.1625
820.30 0.1624
820.40 0.1623
820.50 0.1623
820.60 0.1622
820.70 0.1621
820.80 0.162
820.90 0.162
821.00 0.1619
821.10 0.1618
821.20 0.1618
821.30 0.1617
821.40 0.1616
821.50 0.1615
821.60 0.1615
821.70 0.1614
821.80 0.1613
821.90 0.1612
822.00 0.1612
822.10 0.1611
822.20 0.161
822.30 0.1609
822.40 0.1609
822.50 0.1608
822.60 0.1607
822.70 0.1607
822.80 0.1606
822.90 0.1605
823.00 0.1604
823.10 0.1604
823.20 0.1603
823.30 0.1602
823.40 0.1601
823.50 0.1601
823.60 0.16
823.70 0.1599
823.80 0.1599
823.90 0.1598
824.00 0.1597
824.10 0.1596
824.20 0.1596
824.30 0.1595
824.40 0.1594
824.50 0.1593
824.60 0.1593
824.70 0.1592
824.80 0.1591
824.90 0.1591
825.00 0.159
825.10 0.1589
825.20 0.1588
825.30 0.1588
825.40 0.1587
825.50 0.1586
825.60 0.1586
825.70 0.1585
825.80 0.1584
825.90 0.1583
826.00 0.1583
826.10 0.1582
826.20 0.1581
826.30 0.1581
826.40 0.158
826.50 0.1579
826.60 0.1578
826.70 0.1578
826.80 0.1577
826.90 0.1576
827.00 0.1575
827.10 0.1575
827.20 0.1574
827.30 0.1573
827.40 0.1573
827.50 0.1572
827.60 0.1571
827.70 0.1571
827.80 0.157
827.90 0.1569
828.00 0.1568
828.10 0.1568
828.20 0.1567
828.30 0.1566
828.40 0.1566
828.50 0.1565
828.60 0.1564
828.70 0.1563
828.80 0.1563
828.90 0.1562
829.00 0.1561
829.10 0.1561
829.20 0.156
829.30 0.1559
829.40 0.1558
829.50 0.1558
829.60 0.1557
829.70 0.1556
829.80 0.1556
829.90 0.1555
830.00 0.1554
830.10 0.1554
830.20 0.1553
830.30 0.1552
830.40 0.1551
830.50 0.1551
830.60 0.155
830.70 0.1549
830.80 0.1549
830.90 0.1548
831.00 0.1547
831.10 0.1546
831.20 0.1546
831.30 0.1545
831.40 0.1544
831.50 0.1544
831.60 0.1543
831.70 0.1542
831.80 0.1542
831.90 0.1541
832.00 0.154
832.10 0.1539
832.20 0.1539
832.30 0.1538
832.40 0.1537
832.50 0.1537
832.60 0.1536
832.70 0.1535
832.80 0.1534
832.90 0.1534
833.00 0.1533
833.10 0.1532
833.20 0.1532
833.30 0.1531
833.40 0.153
833.50 0.153
833.60 0.1529
833.70 0.1528
833.80 0.1527
833.90 0.1527
834.00 0.1526
834.10 0.1525
834.20 0.1525
834.30 0.1524
834.40 0.1523
834.50 0.1522
834.60 0.1522
834.70 0.1521
834.80 0.152
834.90 0.152
835.00 0.1519
835.10 0.1518
835.20 0.1517
835.30 0.1517
835.40 0.1516
835.50 0.1515
835.60 0.1515
835.70 0.1514
835.80 0.1513
835.90 0.1513
836.00 0.1512
836.10 0.1511
836.20 0.151
836.30 0.151
836.40 0.1509
836.50 0.1508
836.60 0.1508
836.70 0.1507
836.80 0.1506
836.90 0.1506
837.00 0.1505
837.10 0.1504
837.20 0.1504
837.30 0.1503
837.40 0.1502
837.50 0.1501
837.60 0.1501
837.70 0.15
837.80 0.1499
837.90 0.1499
838.00 0.1498
838.10 0.1497
838.20 0.1497
838.30 0.1496
838.40 0.1495
838.50 0.1495
838.60 0.1494
838.70 0.1493
838.80 0.1493
838.90 0.1492
839.00 0.1491
839.10 0.1491
839.20 0.149
839.30 0.1489
839.40 0.1489
839.50 0.1488
839.60 0.1487
839.70 0.1487
839.80 0.1486
839.90 0.1485
840.00 0.1485
840.10 0.1484
840.20 0.1483
840.30 0.1482
840.40 0.1482
840.50 0.1481
840.60 0.148
840.70 0.148
840.80 0.1479
840.90 0.1478
841.00 0.1478
841.10 0.1477
841.20 0.1476
841.30 0.1476
841.40 0.1475
841.50 0.1474
841.60 0.1474
841.70 0.1473
841.80 0.1472
841.90 0.1472
842.00 0.1471
842.10 0.147
842.20 0.147
842.30 0.1469
842.40 0.1468
842.50 0.1468
842.60 0.1467
842.70 0.1466
842.80 0.1466
842.90 0.1465
843.00 0.1464
843.10 0.1464
843.20 0.1463
843.30 0.1462
843.40 0.1462
843.50 0.1461
843.60 0.146
843.70 0.146
843.80 0.1459
843.90 0.1458
844.00 0.1458
844.10 0.1457
844.20 0.1457
844.30 0.1456
844.40 0.1455
844.50 0.1455
844.60 0.1454
844.70 0.1453
844.80 0.1453
844.90 0.1452
845.00 0.1451
845.10 0.1451
845.20 0.145
845.30 0.1449
845.40 0.1449
845.50 0.1448
845.60 0.1447
845.70 0.1447
845.80 0.1446
845.90 0.1445
846.00 0.1445
846.10 0.1444
846.20 0.1443
846.30 0.1443
846.40 0.1442
846.50 0.1441
846.60 0.1441
846.70 0.144
846.80 0.1439
846.90 0.1439
847.00 0.1438
847.10 0.1438
847.20 0.1437
847.30 0.1436
847.40 0.1436
847.50 0.1435
847.60 0.1434
847.70 0.1434
847.80 0.1433
847.90 0.1432
848.00 0.1432
848.10 0.1431
848.20 0.143
848.30 0.143
848.40 0.1429
848.50 0.1429
848.60 0.1428
848.70 0.1427
848.80 0.1427
848.90 0.1426
849.00 0.1425
849.10 0.1425
849.20 0.1424
849.30 0.1423
849.40 0.1423
849.50 0.1422
849.60 0.1422
849.70 0.1421
849.80 0.142
849.90 0.142
850.00 0.1419
850.10 0.1418
850.20 0.1418
850.30 0.1417
850.40 0.1416
850.50 0.1416
850.60 0.1415
850.70 0.1415
850.80 0.1414
850.90 0.1413
851.00 0.1413
851.10 0.1412
851.20 0.1411
851.30 0.1411
851.40 0.141
851.50 0.141
851.60 0.1409
851.70 0.1408
851.80 0.1408
851.90 0.1407
852.00 0.1406
852.10 0.1406
852.20 0.1405
852.30 0.1405
852.40 0.1404
852.50 0.1403
852.60 0.1403
852.70 0.1402
852.80 0.1401
852.90 0.1401
853.00 0.14
853.10 0.14
853.20 0.1399
853.30 0.1398
853.40 0.1398
853.50 0.1397
853.60 0.1397
853.70 0.1396
853.80 0.1395
853.90 0.1395
854.00 0.1394
854.10 0.1393
854.20 0.1393
854.30 0.1392
854.40 0.1392
854.50 0.1391
854.60 0.139
854.70 0.139
854.80 0.1389
854.90 0.1389
855.00 0.1388
855.10 0.1387
855.20 0.1387
855.30 0.1386
855.40 0.1385
855.50 0.1385
855.60 0.1384
855.70 0.1384
855.80 0.1383
855.90 0.1382
856.00 0.1382
856.10 0.1381
856.20 0.1381
856.30 0.138
856.40 0.1379
856.50 0.1379
856.60 0.1378
856.70 0.1378
856.80 0.1377
856.90 0.1376
857.00 0.1376
857.10 0.1375
857.20 0.1375
857.30 0.1374
857.40 0.1373
857.50 0.1373
857.60 0.1372
857.70 0.1372
857.80 0.1371
857.90 0.137
858.00 0.137
858.10 0.1369
858.20 0.1369
858.30 0.1368
858.40 0.1367
858.50 0.1367
858.60 0.1366
858.70 0.1366
858.80 0.1365
858.90 0.1365
859.00 0.1364
859.10 0.1363
859.20 0.1363
859.30 0.1362
859.40 0.1362
859.50 0.1361
859.60 0.136
859.70 0.136
859.80 0.1359
859.90 0.1359
860.00 0.1358
860.10 0.1357
860.20 0.1357
860.30 0.1356
860.40 0.1356
860.50 0.1355
860.60 0.1355
860.70 0.1354
860.80 0.1353
860.90 0.1353
861.00 0.1352
861.10 0.1352
861.20 0.1351
861.30 0.135
861.40 0.135
861.50 0.1349
861.60 0.1349
861.70 0.1348
861.80 0.1348
861.90 0.1347
862.00 0.1346
862.10 0.1346
862.20 0.1345
862.30 0.1345
862.40 0.1344
862.50 0.1344
862.60 0.1343
862.70 0.1342
862.80 0.1342
862.90 0.1341
863.00 0.1341
863.10 0.134
863.20 0.134
863.30 0.1339
863.40 0.1338
863.50 0.1338
863.60 0.1337
863.70 0.1337
863.80 0.1336
863.90 0.1335
864.00 0.1335
864.10 0.1334
864.20 0.1334
864.30 0.1333
864.40 0.1333
864.50 0.1332
864.60 0.1331
864.70 0.1331
864.80 0.133
864.90 0.133
865.00 0.1329
865.10 0.1329
865.20 0.1328
865.30 0.1327
865.40 0.1327
865.50 0.1326
865.60 0.1326
865.70 0.1325
865.80 0.1325
865.90 0.1324
866.00 0.1323
866.10 0.1323
866.20 0.1322
866.30 0.1322
866.40 0.1321
866.50 0.1321
866.60 0.132
866.70 0.1319
866.80 0.1319
866.90 0.1318
867.00 0.1318
867.10 0.1317
867.20 0.1317
867.30 0.1316
867.40 0.1316
867.50 0.1315
867.60 0.1315
867.70 0.1314
867.80 0.1313
867.90 0.1313
868.00 0.1312
868.10 0.1312
868.20 0.1311
868.30 0.1311
868.40 0.131
868.50 0.131
868.60 0.1309
868.70 0.1309
868.80 0.1308
868.90 0.1307
869.00 0.1307
869.10 0.1306
869.20 0.1306
869.30 0.1305
869.40 0.1305
869.50 0.1304
869.60 0.1304
869.70 0.1303
869.80 0.1303
869.90 0.1302
870.00 0.1301
870.10 0.1301
870.20 0.13
870.30 0.13
870.40 0.1299
870.50 0.1299
870.60 0.1298
870.70 0.1298
870.80 0.1297
870.90 0.1297
871.00 0.1296
871.10 0.1296
871.20 0.1295
871.30 0.1294
871.40 0.1294
871.50 0.1293
871.60 0.1293
871.70 0.1292
871.80 0.1292
871.90 0.1291
872.00 0.1291
872.10 0.129
872.20 0.129
872.30 0.1289
872.40 0.1289
872.50 0.1288
872.60 0.1288
872.70 0.1287
872.80 0.1286
872.90 0.1286
873.00 0.1285
873.10 0.1285
873.20 0.1284
873.30 0.1284
873.40 0.1283
873.50 0.1283
873.60 0.1282
873.70 0.1282
873.80 0.1281
873.90 0.1281
874.00 0.128
874.10 0.128
874.20 0.1279
874.30 0.1279
874.40 0.1278
874.50 0.1277
874.60 0.1277
874.70 0.1276
874.80 0.1276
874.90 0.1275
875.00 0.1275
875.10 0.1274
875.20 0.1274
875.30 0.1273
875.40 0.1273
875.50 0.1272
875.60 0.1272
875.70 0.1271
875.80 0.1271
875.90 0.127
876.00 0.127
876.10 0.1269
876.20 0.1269
876.30 0.1268
876.40 0.1268
876.50 0.1267
876.60 0.1266
876.70 0.1266
876.80 0.1265
876.90 0.1265
877.00 0.1264
877.10 0.1264
877.20 0.1263
877.30 0.1263
877.40 0.1262
877.50 0.1262
877.60 0.1261
877.70 0.1261
877.80 0.126
877.90 0.126
878.00 0.1259
878.10 0.1259
878.20 0.1258
878.30 0.1258
878.40 0.1257
878.50 0.1257
878.60 0.1256
878.70 0.1256
878.80 0.1255
878.90 0.1255
879.00 0.1254
879.10 0.1254
879.20 0.1253
879.30 0.1253
879.40 0.1252
879.50 0.1252
879.60 0.1251
879.70 0.1251
879.80 0.125
879.90 0.125
880.00 0.1249
880.10 0.1249
880.20 0.1248
880.30 0.1248
880.40 0.1247
880.50 0.1247
880.60 0.1246
880.70 0.1246
880.80 0.1245
880.90 0.1245
881.00 0.1244
881.10 0.1244
881.20 0.1243
881.30 0.1243
881.40 0.1242
881.50 0.1242
881.60 0.1241
881.70 0.1241
881.80 0.124
881.90 0.124
882.00 0.1239
882.10 0.1238
882.20 0.1238
882.30 0.1237
882.40 0.1237
882.50 0.1236
882.60 0.1236
882.70 0.1235
882.80 0.1235
882.90 0.1234
883.00 0.1234
883.10 0.1233
883.20 0.1232
883.30 0.1232
883.40 0.1231
883.50 0.1231
883.60 0.123
883.70 0.123
883.80 0.1229
883.90 0.1229
884.00 0.1228
884.10 0.1227
884.20 0.1227
884.30 0.1226
884.40 0.1226
884.50 0.1225
884.60 0.1225
884.70 0.1224
884.80 0.1224
884.90 0.1223
885.00 0.1223
885.10 0.1222
885.20 0.1221
885.30 0.1221
885.40 0.122
885.50 0.122
885.60 0.1219
885.70 0.1219
885.80 0.1218
885.90 0.1218
886.00 0.1217
886.10 0.1217
886.20 0.1216
886.30 0.1215
886.40 0.1215
886.50 0.1214
886.60 0.1214
886.70 0.1213
886.80 0.1213
886.90 0.1212
887.00 0.1212
887.10 0.1211
887.20 0.1211
887.30 0.121
887.40 0.121
887.50 0.121
887.60 0.1209
887.70 0.1209
887.80 0.1208
887.90 0.1208
888.00 0.1208
888.10 0.1207
888.20 0.1207
888.30 0.1206
888.40 0.1206
888.50 0.1206
888.60 0.1205
888.70 0.1205
888.80 0.1204
888.90 0.1204
889.00 0.1204
889.10 0.1203
889.20 0.1203
889.30 0.1202
889.40 0.1202
889.50 0.1202
889.60 0.1201
889.70 0.1201
889.80 0.12
889.90 0.12
890.00 0.12
890.10 0.1199
890.20 0.1199
890.30 0.1198
890.40 0.1198
890.50 0.1198
890.60 0.1197
890.70 0.1197
890.80 0.1197
890.90 0.1196
891.00 0.1196
891.10 0.1195
891.20 0.1195
891.30 0.1195
891.40 0.1194
891.50 0.1194
891.60 0.1193
891.70 0.1193
891.80 0.1193
891.90 0.1192
892.00 0.1192
892.10 0.1191
892.20 0.1191
892.30 0.119
892.40 0.119
892.50 0.1189
892.60 0.1188
892.70 0.1188
892.80 0.1187
892.90 0.1187
893.00 0.1186
893.10 0.1186
893.20 0.1185
893.30 0.1184
893.40 0.1184
893.50 0.1183
893.60 0.1183
893.70 0.1182
893.80 0.1182
893.90 0.1181
894.00 0.1181
894.10 0.118
894.20 0.1179
894.30 0.1179
894.40 0.1178
894.50 0.1178
894.60 0.1177
894.70 0.1177
894.80 0.1176
894.90 0.1176
895.00 0.1175
895.10 0.1174
895.20 0.1174
895.30 0.1173
895.40 0.1173
895.50 0.1172
895.60 0.1172
895.70 0.1171
895.80 0.1171
895.90 0.117
896.00 0.1169
896.10 0.1169
896.20 0.1168
896.30 0.1168
896.40 0.1167
896.50 0.1167
896.60 0.1166
896.70 0.1166
896.80 0.1165
896.90 0.1164
897.00 0.1164
897.10 0.1163
897.20 0.1163
897.30 0.1162
897.40 0.1161
897.50 0.1161
897.60 0.116
897.70 0.1159
897.80 0.1159
897.90 0.1158
898.00 0.1157
898.10 0.1157
898.20 0.1156
898.30 0.1155
898.40 0.1155
898.50 0.1154
898.60 0.1153
898.70 0.1153
898.80 0.1152
898.90 0.1151
899.00 0.1151
899.10 0.115
899.20 0.115
899.30 0.1149
899.40 0.1148
899.50 0.1148
899.60 0.1147
899.70 0.1146
899.80 0.1146
899.90 0.1145
900.00 0.1144
900.10 0.1144
900.20 0.1143
900.30 0.1142
900.40 0.1142
900.50 0.1141
900.60 0.114
900.70 0.114
900.80 0.1139
900.90 0.1138
901.00 0.1138
901.10 0.1137
901.20 0.1137
901.30 0.1136
901.40 0.1135
901.50 0.1135
901.60 0.1134
901.70 0.1133
901.80 0.1133
901.90 0.1132
902.00 0.1131
902.10 0.1131
902.20 0.1131
902.30 0.1131
902.40 0.1131
902.50 0.1131
902.60 0.113
902.70 0.113
902.80 0.113
902.90 0.113
903.00 0.113
903.10 0.113
903.20 0.1129
903.30 0.1129
903.40 0.1129
903.50 0.1129
903.60 0.1129
903.70 0.1128
903.80 0.1128
903.90 0.1128
904.00 0.1128
904.10 0.1128
904.20 0.1128
904.30 0.1127
904.40 0.1127
904.50 0.1127
904.60 0.1127
904.70 0.1127
904.80 0.1127
904.90 0.1126
905.00 0.1126
905.10 0.1126
905.20 0.1126
905.30 0.1126
905.40 0.1126
905.50 0.1125
905.60 0.1125
905.70 0.1125
905.80 0.1125
905.90 0.1125
906.00 0.1125
906.10 0.1124
906.20 0.1124
906.30 0.1124
906.40 0.1124
906.50 0.1124
906.60 0.1124
906.70 0.1123
906.80 0.1123
906.90 0.1123
907.00 0.1123
907.10 0.1123
907.20 0.1122
907.30 0.1122
907.40 0.1121
907.50 0.1121
907.60 0.1121
907.70 0.112
907.80 0.112
907.90 0.1119
908.00 0.1119
908.10 0.1119
908.20 0.1118
908.30 0.1118
908.40 0.1117
908.50 0.1117
908.60 0.1117
908.70 0.1116
908.80 0.1116
908.90 0.1116
909.00 0.1115
909.10 0.1115
909.20 0.1114
909.30 0.1114
909.40 0.1114
909.50 0.1113
909.60 0.1113
909.70 0.1113
909.80 0.1112
909.90 0.1112
910.00 0.1111
910.10 0.1111
910.20 0.1111
910.30 0.111
910.40 0.111
910.50 0.1109
910.60 0.1109
910.70 0.1109
910.80 0.1108
910.90 0.1108
911.00 0.1108
911.10 0.1107
911.20 0.1107
911.30 0.1106
911.40 0.1106
911.50 0.1106
911.60 0.1105
911.70 0.1105
911.80 0.1105
911.90 0.1104
912.00 0.1104
912.10 0.1103
912.20 0.1102
912.30 0.1102
912.40 0.1101
912.50 0.1101
912.60 0.11
912.70 0.1099
912.80 0.1099
912.90 0.1098
913.00 0.1097
913.10 0.1097
913.20 0.1096
913.30 0.1095
913.40 0.1095
913.50 0.1094
913.60 0.1093
913.70 0.1093
913.80 0.1092
913.90 0.1092
914.00 0.1091
914.10 0.109
914.20 0.109
914.30 0.1089
914.40 0.1088
914.50 0.1088
914.60 0.1087
914.70 0.1086
914.80 0.1086
914.90 0.1085
915.00 0.1084
915.10 0.1084
915.20 0.1083
915.30 0.1083
915.40 0.1082
915.50 0.1081
915.60 0.1081
915.70 0.108
915.80 0.1079
915.90 0.1079
916.00 0.1078
916.10 0.1077
916.20 0.1077
916.30 0.1076
916.40 0.1076
916.50 0.1075
916.60 0.1074
916.70 0.1074
916.80 0.1073
916.90 0.1072
917.00 0.1072
917.10 0.1071
917.20 0.107
917.30 0.1069
917.40 0.1068
917.50 0.1067
917.60 0.1066
917.70 0.1065
917.80 0.1064
917.90 0.1063
918.00 0.1062
918.10 0.1061
918.20 0.1061
918.30 0.106
918.40 0.1059
918.50 0.1058
918.60 0.1057
918.70 0.1056
918.80 0.1055
918.90 0.1054
919.00 0.1053
919.10 0.1052
919.20 0.1051
919.30 0.105
919.40 0.1049
919.50 0.1048
919.60 0.1047
919.70 0.1047
919.80 0.1046
919.90 0.1045
920.00 0.1044
920.10 0.1043
920.20 0.1042
920.30 0.1041
920.40 0.104
920.50 0.1039
920.60 0.1038
920.70 0.1037
920.80 0.1036
920.90 0.1035
921.00 0.1035
921.10 0.1034
921.20 0.1033
921.30 0.1032
921.40 0.1031
921.50 0.103
921.60 0.1029
921.70 0.1028
921.80 0.1027
921.90 0.1026
922.00 0.1025
922.10 0.1025
922.20 0.1025
922.30 0.1025
922.40 0.1025
922.50 0.1025
922.60 0.1025
922.70 0.1025
922.80 0.1025
922.90 0.1025
923.00 0.1025
923.10 0.1025
923.20 0.1025
923.30 0.1025
923.40 0.1025
923.50 0.1025
923.60 0.1025
923.70 0.1025
923.80 0.1025
923.90 0.1025
924.00 0.1025
924.10 0.1025
924.20 0.1025
924.30 0.1025
924.40 0.1025
924.50 0.1025
924.60 0.1025
924.70 0.1025
924.80 0.1025
924.90 0.1025
925.00 0.1025
925.10 0.1025
925.20 0.1025
925.30 0.1025
925.40 0.1025
925.50 0.1025
925.60 0.1025
925.70 0.1025
925.80 0.1025
925.90 0.1025
926.00 0.1025
926.10 0.1025
926.20 0.1025
926.30 0.1025
926.40 0.1025
926.50 0.1025
926.60 0.1025
926.70 0.1025
926.80 0.1025
926.90 0.1025
927.00 0.1025
927.10 0.1025
927.20 0.1025
927.30 0.1025
927.40 0.1025
927.50 0.1025
927.60 0.1025
927.70 0.1025
927.80 0.1025
927.90 0.1025
928.00 0.1025
928.10 0.1025
928.20 0.1025
928.30 0.1025
928.40 0.1025
928.50 0.1025
928.60 0.1025
928.70 0.1025
928.80 0.1025
928.90 0.1025
929.00 0.1025
929.10 0.1025
929.20 0.1025
929.30 0.1025
929.40 0.1024
929.50 0.1024
929.60 0.1024
929.70 0.1024
929.80 0.1024
929.90 0.1024
930.00 0.1024
930.10 0.1024
930.20 0.1024
930.30 0.1024
930.40 0.1024
930.50 0.1024
930.60 0.1024
930.70 0.1024
930.80 0.1024
930.90 0.1024
931.00 0.1024
931.10 0.1024
931.20 0.1024
931.30 0.1024
931.40 0.1024
931.50 0.1024
931.60 0.1024
931.70 0.1024
931.80 0.1024
931.90 0.1024
932.00 0.1024
932.10 0.1023
932.20 0.1023
932.30 0.1023
932.40 0.1023
932.50 0.1023
932.60 0.1022
932.70 0.1022
932.80 0.1022
932.90 0.1022
933.00 0.1021
933.10 0.1021
933.20 0.1021
933.30 0.1021
933.40 0.1021
933.50 0.102
933.60 0.102
933.70 0.102
933.80 0.102
933.90 0.1019
934.00 0.1019
934.10 0.1019
934.20 0.1019
934.30 0.1018
934.40 0.1018
934.50 0.1018
934.60 0.1018
934.70 0.1017
934.80 0.1017
934.90 0.1017
935.00 0.1016
935.10 0.1016
935.20 0.1016
935.30 0.1015
935.40 0.1015
935.50 0.1015
935.60 0.1014
935.70 0.1014
935.80 0.1014
935.90 0.1013
936.00 0.1013
936.10 0.1013
936.20 0.1012
936.30 0.1012
936.40 0.1012
936.50 0.1011
936.60 0.1011
936.70 0.1011
936.80 0.101
936.90 0.101
937.00 0.101
937.10 0.1009
937.20 0.1009
937.30 0.1009
937.40 0.1008
937.50 0.1008
937.60 0.1007
937.70 0.1007
937.80 0.1007
937.90 0.1006
938.00 0.1006
938.10 0.1005
938.20 0.1005
938.30 0.1005
938.40 0.1004
938.50 0.1004
938.60 0.1003
938.70 0.1003
938.80 0.1002
938.90 0.1002
939.00 0.1001
939.10 0.1001
939.20 0.1
939.30 0.09999
939.40 0.09994
939.50 0.0999
939.60 0.09985
939.70 0.09981
939.80 0.09976
939.90 0.09971
940.00 0.09967
940.10 0.09962
940.20 0.09958
940.30 0.09953
940.40 0.09948
940.50 0.09942
940.60 0.09937
940.70 0.09932
940.80 0.09926
940.90 0.09921
941.00 0.09916
941.10 0.0991
941.20 0.09905
941.30 0.099
941.40 0.09894
941.50 0.09889
941.60 0.09883
941.70 0.09878
941.80 0.09873
941.90 0.09867
942.00 0.09862
942.10 0.09856
942.20 0.09851
942.30 0.09845
942.40 0.09838
942.50 0.09832
942.60 0.09826
942.70 0.09819
942.80 0.09813
942.90 0.09807
943.00 0.098
943.10 0.09794
943.20 0.09788
943.30 0.09781
943.40 0.09775
943.50 0.09768
943.60 0.09762
943.70 0.09756
943.80 0.09749
943.90 0.09743
944.00 0.09737
944.10 0.0973
944.20 0.09724
944.30 0.09718
944.40 0.09711
944.50 0.09703
944.60 0.09696
944.70 0.09689
944.80 0.09682
944.90 0.09675
945.00 0.09668
945.10 0.0966
945.20 0.09653
945.30 0.09646
945.40 0.09638
945.50 0.0963
945.60 0.09622
945.70 0.09614
945.80 0.09606
945.90 0.09597
946.00 0.09589
946.10 0.09581
946.20 0.09573
946.30 0.09565
946.40 0.09557
946.50 0.09549
946.60 0.09541
946.70 0.09533
946.80 0.09525
946.90 0.09517
947.00 0.09509
947.10 0.095
947.20 0.09491
947.30 0.09482
947.40 0.09473
947.50 0.09463
947.60 0.09453
947.70 0.09443
947.80 0.09433
947.90 0.09423
948.00 0.09414
948.10 0.09404
948.20 0.09394
948.30 0.09384
948.40 0.09374
948.50 0.09365
948.60 0.09355
948.70 0.09345
948.80 0.09335
948.90 0.09326
949.00 0.09316
949.10 0.09306
949.20 0.09296
949.30 0.09287
949.40 0.09275
949.50 0.09263
949.60 0.09251
949.70 0.09239
949.80 0.09227
949.90 0.09216
950.00 0.09204
950.10 0.09192
950.20 0.0918
950.30 0.09168
950.40 0.09156
950.50 0.09145
950.60 0.09133
950.70 0.09121
950.80 0.09109
950.90 0.09098
951.00 0.09086
951.10 0.09074
951.20 0.09062
951.30 0.0905
951.40 0.09037
951.50 0.09024
951.60 0.0901
951.70 0.08997
951.80 0.08984
951.90 0.0897
952.00 0.08957
952.10 0.08942
952.20 0.08928
952.30 0.08914
952.40 0.089
952.50 0.08885
952.60 0.08871
952.70 0.08857
952.80 0.08842
952.90 0.08827
953.00 0.08812
953.10 0.08797
953.20 0.08782
953.30 0.08767
953.40 0.08752
953.50 0.08737
953.60 0.08721
953.70 0.08706
953.80 0.08691
953.90 0.08675
954.00 0.0866
954.10 0.08645
954.20 0.08631
954.30 0.08616
954.40 0.08603
954.50 0.08592
954.60 0.08589
954.70 0.08586
954.80 0.08593
954.90 0.08601
955.00 0.08608
955.10 0.08615
955.20 0.08624
955.30 0.08633
955.40 0.08642
955.50 0.08651
955.60 0.08659
955.70 0.08668
955.80 0.08677
955.90 0.08685
956.00 0.08693
956.10 0.08701
956.20 0.0871
956.30 0.08718
956.40 0.08726
956.50 0.08734
956.60 0.08742
956.70 0.0875
956.80 0.08758
956.90 0.08766
957.00 0.08774
957.10 0.08781
957.20 0.08788
957.30 0.08796
957.40 0.08801
957.50 0.08807
957.60 0.08812
957.70 0.08818
957.80 0.08823
957.90 0.08829
958.00 0.08835
958.10 0.0884
958.20 0.08846
958.30 0.08851
958.40 0.08857
958.50 0.08862
958.60 0.08868
958.70 0.08874
958.80 0.08879
958.90 0.08885
959.00 0.0889
959.10 0.08896
959.20 0.08901
959.30 0.08907
959.40 0.0891
959.50 0.08913
959.60 0.08917
959.70 0.0892
959.80 0.08923
959.90 0.08926
960.00 0.0893
960.10 0.08933
960.20 0.08936
960.30 0.08939
960.40 0.08943
960.50 0.08946
960.60 0.08949
960.70 0.08953
960.80 0.08956
960.90 0.08959
961.00 0.08962
961.10 0.08966
961.20 0.08969
961.30 0.08972
961.40 0.08974
961.50 0.08976
961.60 0.08978
961.70 0.0898
961.80 0.08982
961.90 0.08984
962.00 0.08986
962.10 0.08987
962.20 0.08988
962.30 0.0899
962.40 0.08991
962.50 0.08992
962.60 0.08993
962.70 0.08994
962.80 0.08996
962.90 0.08997
963.00 0.08998
963.10 0.08999
963.20 0.09
963.30 0.09002
963.40 0.09002
963.50 0.09002
963.60 0.09003
963.70 0.09003
963.80 0.09004
963.90 0.09004
964.00 0.09005
964.10 0.09005
964.20 0.09005
964.30 0.09006
964.40 0.09005
964.50 0.09005
964.60 0.09005
964.70 0.09004
964.80 0.09004
964.90 0.09003
965.00 0.09003
965.10 0.09003
965.20 0.09002
965.30 0.09002
965.40 0.09001
965.50 0.09001
965.60 0.09001
965.70 0.09
965.80 0.09
965.90 0.08999
966.00 0.08999
966.10 0.08999
966.20 0.08998
966.30 0.08998
966.40 0.08997
966.50 0.08996
966.60 0.08995
966.70 0.08994
966.80 0.08993
966.90 0.08992
967.00 0.08991
967.10 0.08989
967.20 0.08988
967.30 0.08987
967.40 0.08985
967.50 0.08984
967.60 0.08982
967.70 0.08981
967.80 0.0898
967.90 0.08978
968.00 0.08977
968.10 0.08975
968.20 0.08974
968.30 0.08973
968.40 0.08971
968.50 0.08969
968.60 0.08967
968.70 0.08965
968.80 0.08963
968.90 0.08961
969.00 0.0896
969.10 0.08958
969.20 0.08956
969.30 0.08954
969.40 0.08952
969.50 0.0895
969.60 0.08948
969.70 0.08946
969.80 0.08945
969.90 0.08943
970.00 0.08941
970.10 0.08939
970.20 0.08937
970.30 0.08935
970.40 0.08933
970.50 0.08931
970.60 0.08928
970.70 0.08926
970.80 0.08924
970.90 0.08921
971.00 0.08919
971.10 0.08917
971.20 0.08914
971.30 0.08912
971.40 0.0891
971.50 0.08907
971.60 0.08905
971.70 0.08903
971.80 0.08901
971.90 0.08898
972.00 0.08896
972.10 0.08893
972.20 0.08891
972.30 0.08888
972.40 0.08885
972.50 0.08883
972.60 0.0888
972.70 0.08877
972.80 0.08875
972.90 0.08872
973.00 0.08869
973.10 0.08867
973.20 0.08864
973.30 0.08861
973.40 0.08859
973.50 0.08856
973.60 0.08853
973.70 0.08851
973.80 0.08848
973.90 0.08845
974.00 0.08843
974.10 0.0884
974.20 0.08837
974.30 0.08835
974.40 0.08832
974.50 0.08829
974.60 0.08826
974.70 0.08823
974.80 0.0882
974.90 0.08817
975.00 0.08814
975.10 0.08811
975.20 0.08808
975.30 0.08805
975.40 0.08802
975.50 0.08799
975.60 0.08796
975.70 0.08793
975.80 0.0879
975.90 0.08787
976.00 0.08784
976.10 0.08781
976.20 0.08778
976.30 0.08775
976.40 0.08772
976.50 0.08769
976.60 0.08766
976.70 0.08763
976.80 0.0876
976.90 0.08757
977.00 0.08754
977.10 0.08751
977.20 0.08747
977.30 0.08744
977.40 0.08741
977.50 0.08737
977.60 0.08734
977.70 0.0873
977.80 0.08727
977.90 0.08724
978.00 0.0872
978.10 0.08717
978.20 0.08713
978.30 0.0871
978.40 0.08707
978.50 0.08703
978.60 0.087
978.70 0.08696
978.80 0.08693
978.90 0.0869
979.00 0.08686
979.10 0.08683
979.20 0.08679
979.30 0.08676
979.40 0.08673
979.50 0.08669
979.60 0.08666
979.70 0.08663
979.80 0.08659
979.90 0.08656
980.00 0.08652
980.10 0.08649
980.20 0.08646
980.30 0.08642
980.40 0.08639
980.50 0.08636
980.60 0.08632
980.70 0.08629
980.80 0.08625
980.90 0.08622
981.00 0.08619
981.10 0.08615
981.20 0.08612
981.30 0.08609
981.40 0.08605
981.50 0.08602
981.60 0.08599
981.70 0.08595
981.80 0.08592
981.90 0.08589
982.00 0.08585
982.10 0.08581
982.20 0.08578
982.30 0.08574
982.40 0.0857
982.50 0.08566
982.60 0.08563
982.70 0.08559
982.80 0.08555
982.90 0.08551
983.00 0.08547
983.10 0.08544
983.20 0.0854
983.30 0.08536
983.40 0.08532
983.50 0.08529
983.60 0.08525
983.70 0.08521
983.80 0.08517
983.90 0.08514
984.00 0.0851
984.10 0.08506
984.20 0.08502
984.30 0.08499
984.40 0.08495
984.50 0.08491
984.60 0.08487
984.70 0.08483
984.80 0.08479
984.90 0.08475
985.00 0.08471
985.10 0.08467
985.20 0.08463
985.30 0.08459
985.40 0.08454
985.50 0.0845
985.60 0.08446
985.70 0.08442
985.80 0.08438
985.90 0.08434
986.00 0.0843
986.10 0.08426
986.20 0.08422
986.30 0.08418
986.40 0.08414
986.50 0.08409
986.60 0.08405
986.70 0.08401
986.80 0.08397
986.90 0.08393
987.00 0.08389
987.10 0.08385
987.20 0.0838
987.30 0.08376
987.40 0.08371
987.50 0.08367
987.60 0.08362
987.70 0.08358
987.80 0.08353
987.90 0.08349
988.00 0.08345
988.10 0.0834
988.20 0.08336
988.30 0.08331
988.40 0.08327
988.50 0.08322
988.60 0.08318
988.70 0.08313
988.80 0.08308
988.90 0.08303
989.00 0.08298
989.10 0.08294
989.20 0.08289
989.30 0.08284
989.40 0.08279
989.50 0.08274
989.60 0.08269
989.70 0.08264
989.80 0.08259
989.90 0.08255
990.00 0.0825
990.10 0.08245
990.20 0.0824
990.30 0.08235
990.40 0.0823
990.50 0.08225
990.60 0.08221
990.70 0.08215
990.80 0.0821
990.90 0.08204
991.00 0.08199
991.10 0.08194
991.20 0.08188
991.30 0.08183
991.40 0.08177
991.50 0.08172
991.60 0.08167
991.70 0.08161
991.80 0.08156
991.90 0.0815
992.00 0.08145
992.10 0.08139
992.20 0.08133
992.30 0.08128
992.40 0.08122
992.50 0.08116
992.60 0.0811
992.70 0.08104
992.80 0.08098
992.90 0.08091
993.00 0.08085
993.10 0.08078
993.20 0.08072
993.30 0.08065
993.40 0.08059
993.50 0.08052
993.60 0.08046
993.70 0.0804
993.80 0.08033
993.90 0.08027
994.00 0.0802
994.10 0.08014
994.20 0.08007
994.30 0.08001
994.40 0.07995
994.50 0.07988
994.60 0.07982
994.70 0.07975
994.80 0.07967
994.90 0.0796
995.00 0.07953
995.10 0.07945
995.20 0.07938
995.30 0.07931
995.40 0.07923
995.50 0.07916
995.60 0.07909
995.70 0.07901
995.80 0.07892
995.90 0.07884
996.00 0.07876
996.10 0.07868
996.20 0.07859
996.30 0.07851
996.40 0.07843
996.50 0.07835
996.60 0.07826
996.70 0.07818
996.80 0.0781
996.90 0.07802
997.00 0.07793
997.10 0.07784
997.20 0.07775
997.30 0.07766
997.40 0.07757
997.50 0.07748
997.60 0.07738
997.70 0.07728
997.80 0.07717
997.90 0.07707
998.00 0.07696
998.10 0.07685
998.20 0.07675
998.30 0.07664
998.40 0.07653
998.50 0.07643
998.60 0.07632
998.70 0.07621
998.80 0.07611
998.90 0.076
999.00 0.07589
999.10 0.07579
999.20 0.07568
999.30 0.07557
999.40 0.07547
999.50 0.07536
999.60 0.07526
999.70 0.07513
999.80 0.07499
999.90 0.07485
1000.00 0.07471
1000.10 0.07458
1000.20 0.07444
1000.30 0.0743
1000.40 0.07417
1000.50 0.07403
1000.60 0.07389
1000.70 0.07375
1000.80 0.07362
1000.90 0.07348
1001.00 0.07334
1001.10 0.07321
1001.20 0.07307
1001.30 0.07293
1001.40 0.0728
1001.50 0.07266
1001.60 0.07253
1001.70 0.07237
1001.80 0.07221
1001.90 0.07205
1002.00 0.07189
1002.10 0.07171
1002.20 0.07153
1002.30 0.07135
1002.40 0.07117
1002.50 0.07099
1002.60 0.07081
1002.70 0.07063
1002.80 0.07045
1002.90 0.07027
1003.00 0.07009
1003.10 0.06991
1003.20 0.06971
1003.30 0.0695
1003.40 0.0693
1003.50 0.06909
1003.60 0.06888
1003.70 0.06868
1003.80 0.06847
1003.90 0.06826
1004.00 0.06805
1004.10 0.06784
1004.20 0.06763
1004.30 0.06743
1004.40 0.06724
1004.50 0.06706
1004.60 0.06693
1004.70 0.06686
1004.80 0.06687
1004.90 0.06687
1005.00 0.06686
1005.10 0.06687
1005.20 0.06689
1005.30 0.06691
1005.40 0.06693
1005.50 0.06705
1005.60 0.06721
1005.70 0.06736
1005.80 0.06752
1005.90 0.06768
1006.00 0.06784
1006.10 0.06799
1006.20 0.06815
1006.30 0.0683
1006.40 0.06845
1006.50 0.0686
1006.60 0.06875
1006.70 0.0689
1006.80 0.06905
1006.90 0.0692
1007.00 0.06935
1007.10 0.06947
1007.20 0.0696
1007.30 0.06973
1007.40 0.06985
1007.50 0.06998
1007.60 0.07011
1007.70 0.07021
1007.80 0.0703
1007.90 0.0704
1008.00 0.07049
1008.10 0.07059
1008.20 0.07068
1008.30 0.07077
1008.40 0.07087
1008.50 0.07096
1008.60 0.07106
1008.70 0.07115
1008.80 0.07124
1008.90 0.07134
1009.00 0.07143
1009.10 0.07152
1009.20 0.07162
1009.30 0.07171
1009.40 0.07181
1009.50 0.0719
1009.60 0.07199
1009.70 0.07206
1009.80 0.07212
1009.90 0.07217
1010.00 0.07223
1010.10 0.07229
1010.20 0.07234
1010.30 0.0724
1010.40 0.07246
1010.50 0.07251
1010.60 0.07257
1010.70 0.07263
1010.80 0.07269
1010.90 0.07274
1011.00 0.0728
1011.10 0.07286
1011.20 0.07291
1011.30 0.07297
1011.40 0.07303
1011.50 0.07308
1011.60 0.07314
1011.70 0.07318
1011.80 0.07322
1011.90 0.07327
1012.00 0.07331
1012.10 0.07334
1012.20 0.07337
1012.30 0.07339
1012.40 0.07342
1012.50 0.07345
1012.60 0.07348
1012.70 0.07351
1012.80 0.07354
1012.90 0.07357
1013.00 0.0736
1013.10 0.07363
1013.20 0.07366
1013.30 0.07369
1013.40 0.07372
1013.50 0.07375
1013.60 0.07378
1013.70 0.0738
1013.80 0.07382
1013.90 0.07384
1014.00 0.07385
1014.10 0.07387
1014.20 0.07389
1014.30 0.07391
1014.40 0.07392
1014.50 0.07394
1014.60 0.07396
1014.70 0.07397
1014.80 0.07398
1014.90 0.07398
1015.00 0.07399
1015.10 0.074
1015.20 0.07401
1015.30 0.07401
1015.40 0.07402
1015.50 0.07403
1015.60 0.07403
1015.70 0.07404
1015.80 0.07405
1015.90 0.07406
1016.00 0.07406
1016.10 0.07407
1016.20 0.07408
1016.30 0.07409
1016.40 0.07409
1016.50 0.0741
1016.60 0.07411
1016.70 0.07411
1016.80 0.07411
1016.90 0.07411
1017.00 0.07411
1017.10 0.07411
1017.20 0.0741
1017.30 0.0741
1017.40 0.0741
1017.50 0.07409
1017.60 0.07409
1017.70 0.07409
1017.80 0.07408
1017.90 0.07408
1018.00 0.07407
1018.10 0.07407
1018.20 0.07407
1018.30 0.07406
1018.40 0.07406
1018.50 0.07406
1018.60 0.07405
1018.70 0.07404
1018.80 0.07403
1018.90 0.07402
1019.00 0.07401
1019.10 0.074
1019.20 0.07399
1019.30 0.07398
1019.40 0.07397
1019.50 0.07396
1019.60 0.07395
1019.70 0.07394
1019.80 0.07393
1019.90 0.07392
1020.00 0.07391
1020.10 0.0739
1020.20 0.07389
1020.30 0.07388
1020.40 0.07387
1020.50 0.07386
1020.60 0.07385
1020.70 0.07384
1020.80 0.07383
1020.90 0.07381
1021.00 0.0738
1021.10 0.07379
1021.20 0.07377
1021.30 0.07376
1021.40 0.07374
1021.50 0.07373
1021.60 0.07371
1021.70 0.0737
1021.80 0.07369
1021.90 0.07367
1022.00 0.07366
1022.10 0.07364
1022.20 0.07362
1022.30 0.07361
1022.40 0.07359
1022.50 0.07357
1022.60 0.07355
1022.70 0.07354
1022.80 0.07352
1022.90 0.0735
1023.00 0.07348
1023.10 0.07346
1023.20 0.07345
1023.30 0.07343
1023.40 0.07341
1023.50 0.07339
1023.60 0.07338
1023.70 0.07336
1023.80 0.07334
1023.90 0.07332
1024.00 0.07331
1024.10 0.07329
1024.20 0.07327
1024.30 0.07325
1024.40 0.07324
1024.50 0.07322
1024.60 0.0732
1024.70 0.07318
1024.80 0.07316
1024.90 0.07314
1025.00 0.07312
1025.10 0.0731
1025.20 0.07308
1025.30 0.07306
1025.40 0.07304
1025.50 0.07302
1025.60 0.073
1025.70 0.07298
1025.80 0.07296
1025.90 0.07294
1026.00 0.07292
1026.10 0.0729
1026.20 0.07288
1026.30 0.07286
1026.40 0.07283
1026.50 0.07281
1026.60 0.07279
1026.70 0.07277
1026.80 0.07275
1026.90 0.07273
1027.00 0.07271
1027.10 0.07269
1027.20 0.07267
1027.30 0.07264
1027.40 0.07262
1027.50 0.0726
1027.60 0.07258
1027.70 0.07255
1027.80 0.07253
1027.90 0.07251
1028.00 0.07248
1028.10 0.07246
1028.20 0.07244
1028.30 0.07242
1028.40 0.07239
1028.50 0.07237
1028.60 0.07235
1028.70 0.07232
1028.80 0.0723
1028.90 0.07228
1029.00 0.07226
1029.10 0.07223
1029.20 0.07221
1029.30 0.07219
1029.40 0.07216
1029.50 0.07214
1029.60 0.07212
1029.70 0.0721
1029.80 0.07207
1029.90 0.07205
1030.00 0.07203
1030.10 0.07201
1030.20 0.07198
1030.30 0.07196
1030.40 0.07194
1030.50 0.07191
1030.60 0.07189
1030.70 0.07187
1030.80 0.07185
1030.90 0.07182
1031.00 0.0718
1031.10 0.07178
1031.20 0.07176
1031.30 0.07173
1031.40 0.07171
1031.50 0.07169
1031.60 0.07167
1031.70 0.07164
1031.80 0.07162
1031.90 0.0716
1032.00 0.07158
1032.10 0.07155
1032.20 0.07153
1032.30 0.0715
1032.40 0.07148
1032.50 0.07145
1032.60 0.07143
1032.70 0.07141
1032.80 0.07138
1032.90 0.07136
1033.00 0.07133
1033.10 0.07131
1033.20 0.07128
1033.30 0.07126
1033.40 0.07124
1033.50 0.07121
1033.60 0.07119
1033.70 0.07116
1033.80 0.07114
1033.90 0.07111
1034.00 0.07109
1034.10 0.07107
1034.20 0.07104
1034.30 0.07102
1034.40 0.07099
1034.50 0.07097
1034.60 0.07094
1034.70 0.07092
1034.80 0.0709
1034.90 0.07087
1035.00 0.07085
1035.10 0.07082
1035.20 0.0708
1035.30 0.07078
1035.40 0.07075
1035.50 0.07073
1035.60 0.0707
1035.70 0.07068
1035.80 0.07066
1035.90 0.07063
1036.00 0.07061
1036.10 0.07058
1036.20 0.07056
1036.30 0.07053
1036.40 0.07051
1036.50 0.07049
1036.60 0.07046
1036.70 0.07044
1036.80 0.07041
1036.90 0.07039
1037.00 0.07037
1037.10 0.07034
1037.20 0.07032
1037.30 0.07029
1037.40 0.07027
1037.50 0.07024
1037.60 0.07022
1037.70 0.07019
1037.80 0.07017
1037.90 0.07014
1038.00 0.07012
1038.10 0.07009
1038.20 0.07007
1038.30 0.07004
1038.40 0.07002
1038.50 0.07
1038.60 0.06997
1038.70 0.06995
1038.80 0.06992
1038.90 0.0699
1039.00 0.06987
1039.10 0.06985
1039.20 0.06982
1039.30 0.0698
1039.40 0.06977
1039.50 0.06975
1039.60 0.06972
1039.70 0.0697
1039.80 0.06967
1039.90 0.06965
1040.00 0.06963
1040.10 0.0696
1040.20 0.06958
1040.30 0.06955
1040.40 0.06953
1040.50 0.0695
1040.60 0.06948
1040.70 0.06945
1040.80 0.06943
1040.90 0.0694
1041.00 0.06938
1041.10 0.06936
1041.20 0.06933
1041.30 0.06931
1041.40 0.06928
1041.50 0.06926
1041.60 0.06923
1041.70 0.06921
1041.80 0.06918
1041.90 0.06916
1042.00 0.06913
1042.10 0.06911
1042.20 0.06909
1042.30 0.06906
1042.40 0.06904
1042.50 0.06901
1042.60 0.06899
1042.70 0.06896
1042.80 0.06894
1042.90 0.06891
1043.00 0.06889
1043.10 0.06886
1043.20 0.06884
1043.30 0.06881
1043.40 0.06879
1043.50 0.06876
1043.60 0.06874
1043.70 0.06871
1043.80 0.06869
1043.90 0.06866
1044.00 0.06864
1044.10 0.06861
1044.20 0.06859
1044.30 0.06856
1044.40 0.06854
1044.50 0.06852
1044.60 0.06849
1044.70 0.06847
1044.80 0.06844
1044.90 0.06842
1045.00 0.06839
1045.10 0.06837
1045.20 0.06834
1045.30 0.06832
1045.40 0.06829
1045.50 0.06827
1045.60 0.06824
1045.70 0.06822
1045.80 0.06819
1045.90 0.06817
1046.00 0.06815
1046.10 0.06812
1046.20 0.0681
1046.30 0.06807
1046.40 0.06805
1046.50 0.06802
1046.60 0.068
1046.70 0.06797
1046.80 0.06795
1046.90 0.06792
1047.00 0.0679
1047.10 0.06788
1047.20 0.06785
1047.30 0.06783
1047.40 0.0678
1047.50 0.06778
1047.60 0.06775
1047.70 0.06773
1047.80 0.0677
1047.90 0.06768
1048.00 0.06765
1048.10 0.06763
1048.20 0.0676
1048.30 0.06758
1048.40 0.06755
1048.50 0.06753
1048.60 0.0675
1048.70 0.06748
1048.80 0.06746
1048.90 0.06743
1049.00 0.06741
1049.10 0.06738
1049.20 0.06736
1049.30 0.06733
1049.40 0.06731
1049.50 0.06728
1049.60 0.06726
1049.70 0.06723
1049.80 0.06721
1049.90 0.06718
1050.00 0.06716
1050.10 0.06714
1050.20 0.06711
1050.30 0.06709
1050.40 0.06706
1050.50 0.06704
1050.60 0.06701
1050.70 0.06699
1050.80 0.06696
1050.90 0.06694
1051.00 0.06691
1051.10 0.06689
1051.20 0.06687
1051.30 0.06684
1051.40 0.06682
1051.50 0.06679
1051.60 0.06677
1051.70 0.06674
1051.80 0.06672
1051.90 0.06669
1052.00 0.06667
1052.10 0.06665
1052.20 0.06662
1052.30 0.0666
1052.40 0.06657
1052.50 0.06655
1052.60 0.06652
1052.70 0.0665
1052.80 0.06647
1052.90 0.06645
1053.00 0.06642
1053.10 0.0664
1053.20 0.06637
1053.30 0.06635
1053.40 0.06632
1053.50 0.0663
1053.60 0.06628
1053.70 0.06625
1053.80 0.06623
1053.90 0.0662
1054.00 0.06618
1054.10 0.06615
1054.20 0.06613
1054.30 0.0661
1054.40 0.06608
1054.50 0.06605
1054.60 0.06603
1054.70 0.06601
1054.80 0.06598
1054.90 0.06596
1055.00 0.06593
1055.10 0.06591
1055.20 0.06588
1055.30 0.06586
1055.40 0.06583
1055.50 0.06581
1055.60 0.06578
1055.70 0.06576
1055.80 0.06574
1055.90 0.06571
1056.00 0.06569
1056.10 0.06566
1056.20 0.06564
1056.30 0.06561
1056.40 0.06559
1056.50 0.06557
1056.60 0.06554
1056.70 0.06552
1056.80 0.06549
1056.90 0.06547
1057.00 0.06544
1057.10 0.06542
1057.20 0.06539
1057.30 0.06537
1057.40 0.06534
1057.50 0.06532
1057.60 0.06529
1057.70 0.06527
1057.80 0.06525
1057.90 0.06522
1058.00 0.0652
1058.10 0.06517
1058.20 0.06515
1058.30 0.06512
1058.40 0.0651
1058.50 0.06507
1058.60 0.06505
1058.70 0.06502
1058.80 0.065
1058.90 0.06497
1059.00 0.06495
1059.10 0.06492
1059.20 0.0649
1059.30 0.06488
1059.40 0.06485
1059.50 0.06483
1059.60 0.0648
1059.70 0.06478
1059.80 0.06475
1059.90 0.06473
1060.00 0.0647
1060.10 0.06468
1060.20 0.06465
1060.30 0.06463
1060.40 0.0646
1060.50 0.06458
1060.60 0.06456
1060.70 0.06453
1060.80 0.06451
1060.90 0.06448
1061.00 0.06446
1061.10 0.06443
1061.20 0.06441
1061.30 0.06438
1061.40 0.06436
1061.50 0.06434
1061.60 0.06431
1061.70 0.06429
1061.80 0.06426
1061.90 0.06424
1062.00 0.06421
1062.10 0.06419
1062.20 0.06416
1062.30 0.06414
1062.40 0.06411
1062.50 0.06409
1062.60 0.06406
1062.70 0.06404
1062.80 0.06401
1062.90 0.06399
1063.00 0.06396
1063.10 0.06394
1063.20 0.06391
1063.30 0.06389
1063.40 0.06386
1063.50 0.06383
1063.60 0.06381
1063.70 0.06378
1063.80 0.06376
1063.90 0.06373
1064.00 0.06371
1064.10 0.06368
1064.20 0.06366
1064.30 0.06363
1064.40 0.06361
1064.50 0.06358
1064.60 0.06356
1064.70 0.06353
1064.80 0.06351
1064.90 0.06348
1065.00 0.06346
1065.10 0.06343
1065.20 0.06341
1065.30 0.06338
1065.40 0.06336
1065.50 0.06333
1065.60 0.06331
1065.70 0.06328
1065.80 0.06326
1065.90 0.06323
1066.00 0.06321
1066.10 0.06318
1066.20 0.06316
1066.30 0.06313
1066.40 0.06311
1066.50 0.06308
1066.60 0.06306
1066.70 0.06303
1066.80 0.06301
1066.90 0.06298
1067.00 0.06296
1067.10 0.06293
1067.20 0.06291
1067.30 0.06288
1067.40 0.06285
1067.50 0.06283
1067.60 0.0628
1067.70 0.06277
1067.80 0.06275
1067.90 0.06272
1068.00 0.06269
1068.10 0.06267
1068.20 0.06264
1068.30 0.06261
1068.40 0.06259
1068.50 0.06256
1068.60 0.06253
1068.70 0.06251
1068.80 0.06248
1068.90 0.06245
1069.00 0.06243
1069.10 0.0624
1069.20 0.06237
1069.30 0.06235
1069.40 0.06232
1069.50 0.0623
1069.60 0.06227
1069.70 0.06224
1069.80 0.06222
1069.90 0.06219
1070.00 0.06216
1070.10 0.06214
1070.20 0.06211
1070.30 0.06208
1070.40 0.06206
1070.50 0.06203
1070.60 0.062
1070.70 0.06198
1070.80 0.06195
1070.90 0.06193
1071.00 0.0619
1071.10 0.06187
1071.20 0.06185
1071.30 0.06182
1071.40 0.06179
1071.50 0.06177
1071.60 0.06174
1071.70 0.06172
1071.80 0.06169
1071.90 0.06166
1072.00 0.06164
1072.10 0.06161
1072.20 0.06158
1072.30 0.06155
1072.40 0.06152
1072.50 0.0615
1072.60 0.06147
1072.70 0.06144
1072.80 0.06141
1072.90 0.06138
1073.00 0.06135
1073.10 0.06133
1073.20 0.0613
1073.30 0.06127
1073.40 0.06124
1073.50 0.06121
1073.60 0.06118
1073.70 0.06115
1073.80 0.06112
1073.90 0.06109
1074.00 0.06106
1074.10 0.06103
1074.20 0.061
1074.30 0.06097
1074.40 0.06094
1074.50 0.06091
1074.60 0.06088
1074.70 0.06084
1074.80 0.06081
1074.90 0.06078
1075.00 0.06075
1075.10 0.06072
1075.20 0.06069
1075.30 0.06066
1075.40 0.06063
1075.50 0.0606
1075.60 0.06057
1075.70 0.06054
1075.80 0.06051
1075.90 0.06048
1076.00 0.06045
1076.10 0.06042
1076.20 0.06039
1076.30 0.06036
1076.40 0.06033
1076.50 0.06029
1076.60 0.06026
1076.70 0.06023
1076.80 0.0602
1076.90 0.06017
1077.00 0.06014
1077.10 0.06011
1077.20 0.06008
1077.30 0.06004
1077.40 0.06001
1077.50 0.05997
1077.60 0.05994
1077.70 0.0599
1077.80 0.05987
1077.90 0.05983
1078.00 0.0598
1078.10 0.05976
1078.20 0.05972
1078.30 0.05969
1078.40 0.05965
1078.50 0.05962
1078.60 0.05958
1078.70 0.05955
1078.80 0.05951
1078.90 0.05947
1079.00 0.05944
1079.10 0.0594
1079.20 0.05937
1079.30 0.05933
1079.40 0.0593
1079.50 0.05926
1079.60 0.05922
1079.70 0.05918
1079.80 0.05914
1079.90 0.0591
1080.00 0.05905
1080.10 0.05901
1080.20 0.05897
1080.30 0.05893
1080.40 0.05889
1080.50 0.05885
1080.60 0.05881
1080.70 0.05877
1080.80 0.05873
1080.90 0.05869
1081.00 0.05865
1081.10 0.05861
1081.20 0.05856
1081.30 0.05852
1081.40 0.05848
1081.50 0.05844
1081.60 0.0584
1081.70 0.05835
1081.80 0.05831
1081.90 0.05826
1082.00 0.05822
1082.10 0.05817
1082.20 0.05812
1082.30 0.05807
1082.40 0.05802
1082.50 0.05797
1082.60 0.05792
1082.70 0.05787
1082.80 0.05782
1082.90 0.05777
1083.00 0.05772
1083.10 0.05767
1083.20 0.05762
1083.30 0.05757
1083.40 0.05752
1083.50 0.05747
1083.60 0.05742
1083.70 0.05736
1083.80 0.0573
1083.90 0.05725
1084.00 0.05719
1084.10 0.05714
1084.20 0.05708
1084.30 0.05702
1084.40 0.05697
1084.50 0.05691
1084.60 0.05684
1084.70 0.05678
1084.80 0.05671
1084.90 0.05664
1085.00 0.05658
1085.10 0.05651
1085.20 0.05644
1085.30 0.05638
1085.40 0.05631
1085.50 0.05624
1085.60 0.05618
1085.70 0.05611
1085.80 0.05605
1085.90 0.05598
1086.00 0.05591
1086.10 0.05585
1086.20 0.05578
1086.30 0.05572
1086.40 0.05565
1086.50 0.05558
1086.60 0.0555
1086.70 0.05543
1086.80 0.05535
1086.90 0.05527
1087.00 0.05519
1087.10 0.05511
1087.20 0.05502
1087.30 0.05493
1087.40 0.05484
1087.50 0.05475
1087.60 0.05467
1087.70 0.05458
1087.80 0.05449
1087.90 0.0544
1088.00 0.05431
1088.10 0.05423
1088.20 0.05414
1088.30 0.05405
1088.40 0.05396
1088.50 0.05387
1088.60 0.05375
1088.70 0.05364
1088.80 0.05353
1088.90 0.05341
1089.00 0.0533
1089.10 0.05319
1089.20 0.05307
1089.30 0.05296
1089.40 0.05285
1089.50 0.05273
1089.60 0.05262
1089.70 0.05251
1089.80 0.05239
1089.90 0.05228
1090.00 0.05217
1090.10 0.05206
1090.20 0.05194
1090.30 0.05183
1090.40 0.05172
1090.50 0.05159
1090.60 0.05144
1090.70 0.05129
1090.80 0.05113
1090.90 0.05098
1091.00 0.05083
1091.10 0.05068
1091.20 0.05052
1091.30 0.05037
1091.40 0.05022
1091.50 0.05007
1091.60 0.04991
1091.70 0.04976
1091.80 0.04961
1091.90 0.04946
1092.00 0.0493
1092.10 0.0491
1092.20 0.04891
1092.30 0.04871
1092.40 0.04852
1092.50 0.04832
1092.60 0.04813
1092.70 0.04793
1092.80 0.0477
1092.90 0.04748
1093.00 0.04726
1093.10 0.04703
1093.20 0.04679
1093.30 0.04655
1093.40 0.04629
1093.50 0.04601
1093.60 0.04568
1093.70 0.04543
1093.80 0.04528
1093.90 0.04526
1094.00 0.04555
1094.10 0.04583
1094.20 0.04611
1094.30 0.04637
1094.40 0.04657
1094.50 0.04677
1094.60 0.04696
1094.70 0.04716
1094.80 0.04736
1094.90 0.04756
1095.00 0.04774
1095.10 0.04788
1095.20 0.04803
1095.30 0.04817
1095.40 0.04831
1095.50 0.04845
1095.60 0.0486
1095.70 0.04874
1095.80 0.04888
1095.90 0.04902
1096.00 0.04916
1096.10 0.04931
1096.20 0.04945
1096.30 0.04959
1096.40 0.04973
1096.50 0.04986
1096.60 0.04997
1096.70 0.05007
1096.80 0.05018
1096.90 0.05029
1097.00 0.05039
1097.10 0.05048
1097.20 0.05056
1097.30 0.05064
1097.40 0.05073
1097.50 0.05081
1097.60 0.05089
1097.70 0.05097
1097.80 0.05106
1097.90 0.05114
1098.00 0.05122
1098.10 0.05131
1098.20 0.05139
1098.30 0.05147
1098.40 0.05156
1098.50 0.05163
1098.60 0.05168
1098.70 0.05174
1098.80 0.05179
1098.90 0.05185
1099.00 0.0519
1099.10 0.05196
1099.20 0.05201
1099.30 0.05207
1099.40 0.05212
1099.50 0.05217
1099.60 0.05223
1099.70 0.05228
1099.80 0.05234
1099.90 0.05239
1100.00 0.05245
1100.10 0.0525
1100.20 0.05255
1100.30 0.05261
1100.40 0.05266
1100.50 0.05271
1100.60 0.05274
1100.70 0.05278
1100.80 0.05281
1100.90 0.05285
1101.00 0.05288
1101.10 0.05291
1101.20 0.05295
1101.30 0.05298
1101.40 0.05301
1101.50 0.05305
1101.60 0.05308
1101.70 0.05312
1101.80 0.05315
1101.90 0.05318
1102.00 0.05322
1102.10 0.05324
1102.20 0.05327
1102.30 0.05329
1102.40 0.05332
1102.50 0.05334
1102.60 0.05336
1102.70 0.05338
1102.80 0.0534
1102.90 0.05342
1103.00 0.05344
1103.10 0.05345
1103.20 0.05347
1103.30 0.05349
1103.40 0.05351
1103.50 0.05353
1103.60 0.05354
1103.70 0.05355
1103.80 0.05356
1103.90 0.05357
1104.00 0.05358
1104.10 0.05359
1104.20 0.0536
1104.30 0.05361
1104.40 0.05362
1104.50 0.05363
1104.60 0.05364
1104.70 0.05365
1104.80 0.05366
1104.90 0.05367
1105.00 0.05368
1105.10 0.0537
1105.20 0.05371
1105.30 0.05372
1105.40 0.05373
1105.50 0.05373
1105.60 0.05374
1105.70 0.05374
1105.80 0.05374
1105.90 0.05374
1106.00 0.05375
1106.10 0.05375
1106.20 0.05375
1106.30 0.05375
1106.40 0.05376
1106.50 0.05376
1106.60 0.05376
1106.70 0.05376
1106.80 0.05377
1106.90 0.05377
1107.00 0.05377
1107.10 0.05377
1107.20 0.05377
1107.30 0.05377
1107.40 0.05377
1107.50 0.05376
1107.60 0.05376
1107.70 0.05376
1107.80 0.05375
1107.90 0.05375
1108.00 0.05374
1108.10 0.05374
1108.20 0.05373
1108.30 0.05373
1108.40 0.05373
1108.50 0.05372
1108.60 0.05372
1108.70 0.05371
1108.80 0.05371
1108.90 0.05371
1109.00 0.0537
1109.10 0.0537
1109.20 0.05369
1109.30 0.05369
1109.40 0.05368
1109.50 0.05368
1109.60 0.05367
1109.70 0.05366
1109.80 0.05365
1109.90 0.05364
1110.00 0.05363
1110.10 0.05363
1110.20 0.05362
1110.30 0.05361
1110.40 0.0536
1110.50 0.05359
1110.60 0.05358
1110.70 0.05357
1110.80 0.05357
1110.90 0.05356
1111.00 0.05355
1111.10 0.05354
1111.20 0.05353
1111.30 0.05352
1111.40 0.05351
1111.50 0.0535
1111.60 0.0535
1111.70 0.05349
1111.80 0.05348
1111.90 0.05347
1112.00 0.05346
1112.10 0.05345
1112.20 0.05344
1112.30 0.05343
1112.40 0.05342
1112.50 0.05341
1112.60 0.05339
1112.70 0.05338
1112.80 0.05337
1112.90 0.05336
1113.00 0.05335
1113.10 0.05334
1113.20 0.05333
1113.30 0.05332
1113.40 0.0533
1113.50 0.05329
1113.60 0.05328
1113.70 0.05327
1113.80 0.05325
1113.90 0.05324
1114.00 0.05323
1114.10 0.05321
1114.20 0.0532
1114.30 0.05319
1114.40 0.05317
1114.50 0.05316
1114.60 0.05315
1114.70 0.05313
1114.80 0.05312
1114.90 0.05311
1115.00 0.05309
1115.10 0.05308
1115.20 0.05307
1115.30 0.05305
1115.40 0.05304
1115.50 0.05303
1115.60 0.05301
1115.70 0.053
1115.80 0.05299
1115.90 0.05297
1116.00 0.05296
1116.10 0.05295
1116.20 0.05293
1116.30 0.05292
1116.40 0.05291
1116.50 0.05289
1116.60 0.05288
1116.70 0.05287
1116.80 0.05285
1116.90 0.05284
1117.00 0.05283
1117.10 0.05281
1117.20 0.0528
1117.30 0.05278
1117.40 0.05277
1117.50 0.05275
1117.60 0.05274
1117.70 0.05272
1117.80 0.0527
1117.90 0.05269
1118.00 0.05267
1118.10 0.05266
1118.20 0.05264
1118.30 0.05263
1118.40 0.05261
1118.50 0.0526
1118.60 0.05258
1118.70 0.05257
1118.80 0.05255
1118.90 0.05254
1119.00 0.05252
1119.10 0.05251
1119.20 0.05249
1119.30 0.05248
1119.40 0.05246
1119.50 0.05245
1119.60 0.05243
1119.70 0.05242
1119.80 0.0524
1119.90 0.05238
1120.00 0.05237
1120.10 0.05235
1120.20 0.05234
1120.30 0.05232
1120.40 0.05231
1120.50 0.05229
1120.60 0.05228
1120.70 0.05226
1120.80 0.05225
1120.90 0.05223
1121.00 0.05222
1121.10 0.0522
1121.20 0.05219
1121.30 0.05217
1121.40 0.05216
1121.50 0.05214
1121.60 0.05213
1121.70 0.05211
1121.80 0.0521
1121.90 0.05208
1122.00 0.05207
1122.10 0.05205
1122.20 0.05203
1122.30 0.05202
1122.40 0.052
1122.50 0.05199
1122.60 0.05197
1122.70 0.05195
1122.80 0.05194
1122.90 0.05192
1123.00 0.0519
1123.10 0.05189
1123.20 0.05187
1123.30 0.05186
1123.40 0.05184
1123.50 0.05182
1123.60 0.05181
1123.70 0.05179
1123.80 0.05178
1123.90 0.05176
1124.00 0.05174
1124.10 0.05173
1124.20 0.05171
1124.30 0.05169
1124.40 0.05168
1124.50 0.05166
1124.60 0.05165
1124.70 0.05163
1124.80 0.05161
1124.90 0.0516
1125.00 0.05158
1125.10 0.05157
1125.20 0.05155
1125.30 0.05153
1125.40 0.05152
1125.50 0.0515
1125.60 0.05149
1125.70 0.05147
1125.80 0.05145
1125.90 0.05144
1126.00 0.05142
1126.10 0.05141
1126.20 0.05139
1126.30 0.05137
1126.40 0.05136
1126.50 0.05134
1126.60 0.05132
1126.70 0.05131
1126.80 0.05129
1126.90 0.05128
1127.00 0.05126
1127.10 0.05124
1127.20 0.05123
1127.30 0.05121
1127.40 0.05119
1127.50 0.05118
1127.60 0.05116
1127.70 0.05115
1127.80 0.05113
1127.90 0.05111
1128.00 0.0511
1128.10 0.05108
1128.20 0.05106
1128.30 0.05105
1128.40 0.05103
1128.50 0.05101
1128.60 0.051
1128.70 0.05098
1128.80 0.05096
1128.90 0.05095
1129.00 0.05093
1129.10 0.05091
1129.20 0.0509
1129.30 0.05088
1129.40 0.05087
1129.50 0.05085
1129.60 0.05083
1129.70 0.05082
1129.80 0.0508
1129.90 0.05078
1130.00 0.05077
1130.10 0.05075
1130.20 0.05073
1130.30 0.05072
1130.40 0.0507
1130.50 0.05069
1130.60 0.05067
1130.70 0.05065
1130.80 0.05064
1130.90 0.05062
1131.00 0.0506
1131.10 0.05059
1131.20 0.05057
1131.30 0.05055
1131.40 0.05054
1131.50 0.05052
1131.60 0.05051
1131.70 0.05049
1131.80 0.05047
1131.90 0.05046
1132.00 0.05044
1132.10 0.05042
1132.20 0.05041
1132.30 0.05039
1132.40 0.05037
1132.50 0.05036
1132.60 0.05034
1132.70 0.05033
1132.80 0.05031
1132.90 0.05029
1133.00 0.05028
1133.10 0.05026
1133.20 0.05024
1133.30 0.05023
1133.40 0.05021
1133.50 0.05019
1133.60 0.05018
1133.70 0.05016
1133.80 0.05014
1133.90 0.05013
1134.00 0.05011
1134.10 0.05009
1134.20 0.05008
1134.30 0.05006
1134.40 0.05005
1134.50 0.05003
1134.60 0.05001
1134.70 0.05
1134.80 0.04998
1134.90 0.04996
1135.00 0.04995
1135.10 0.04993
1135.20 0.04991
1135.30 0.0499
1135.40 0.04988
1135.50 0.04987
1135.60 0.04985
1135.70 0.04983
1135.80 0.04982
1135.90 0.0498
1136.00 0.04978
1136.10 0.04977
1136.20 0.04975
1136.30 0.04974
1136.40 0.04972
1136.50 0.0497
1136.60 0.04969
1136.70 0.04967
1136.80 0.04965
1136.90 0.04964
1137.00 0.04962
1137.10 0.0496
1137.20 0.04959
1137.30 0.04957
1137.40 0.04956
1137.50 0.04954
1137.60 0.04952
1137.70 0.04951
1137.80 0.04949
1137.90 0.04947
1138.00 0.04946
1138.10 0.04944
1138.20 0.04943
1138.30 0.04941
1138.40 0.04939
1138.50 0.04938
1138.60 0.04936
1138.70 0.04934
1138.80 0.04933
1138.90 0.04931
1139.00 0.04929
1139.10 0.04928
1139.20 0.04926
1139.30 0.04925
1139.40 0.04923
1139.50 0.04921
1139.60 0.0492
1139.70 0.04918
1139.80 0.04916
1139.90 0.04915
1140.00 0.04913
1140.10 0.04912
1140.20 0.0491
1140.30 0.04908
1140.40 0.04907
1140.50 0.04905
1140.60 0.04904
1140.70 0.04902
1140.80 0.049
1140.90 0.04899
1141.00 0.04897
1141.10 0.04895
1141.20 0.04894
1141.30 0.04892
1141.40 0.04891
1141.50 0.04889
1141.60 0.04887
1141.70 0.04886
1141.80 0.04884
1141.90 0.04883
1142.00 0.04881
1142.10 0.04879
1142.20 0.04878
1142.30 0.04876
1142.40 0.04874
1142.50 0.04873
1142.60 0.04871
1142.70 0.0487
1142.80 0.04868
1142.90 0.04866
1143.00 0.04865
1143.10 0.04863
1143.20 0.04862
1143.30 0.0486
1143.40 0.04858
1143.50 0.04857
1143.60 0.04855
1143.70 0.04854
1143.80 0.04852
1143.90 0.0485
1144.00 0.04849
1144.10 0.04847
1144.20 0.04846
1144.30 0.04844
1144.40 0.04842
1144.50 0.04841
1144.60 0.04839
1144.70 0.04838
1144.80 0.04836
1144.90 0.04834
1145.00 0.04833
1145.10 0.04831
1145.20 0.0483
1145.30 0.04828
1145.40 0.04826
1145.50 0.04825
1145.60 0.04823
1145.70 0.04822
1145.80 0.0482
1145.90 0.04818
1146.00 0.04817
1146.10 0.04815
1146.20 0.04814
1146.30 0.04812
1146.40 0.0481
1146.50 0.04809
1146.60 0.04807
1146.70 0.04806
1146.80 0.04804
1146.90 0.04802
1147.00 0.04801
1147.10 0.04799
1147.20 0.04798
1147.30 0.04796
1147.40 0.04795
1147.50 0.04793
1147.60 0.04791
1147.70 0.0479
1147.80 0.04788
1147.90 0.04787
1148.00 0.04785
1148.10 0.04783
1148.20 0.04782
1148.30 0.0478
1148.40 0.04779
1148.50 0.04777
1148.60 0.04776
1148.70 0.04774
1148.80 0.04772
1148.90 0.04771
1149.00 0.04769
1149.10 0.04768
1149.20 0.04766
1149.30 0.04765
1149.40 0.04763
1149.50 0.04761
1149.60 0.0476
1149.70 0.04758
1149.80 0.04757
1149.90 0.04755
1150.00 0.04753
1150.10 0.04752
1150.20 0.0475
1150.30 0.04749
1150.40 0.04747
1150.50 0.04746
1150.60 0.04744
1150.70 0.04742
1150.80 0.04741
1150.90 0.04739
1151.00 0.04738
1151.10 0.04736
1151.20 0.04735
1151.30 0.04733
1151.40 0.04732
1151.50 0.0473
1151.60 0.04728
1151.70 0.04727
1151.80 0.04725
1151.90 0.04724
1152.00 0.04722
1152.10 0.04721
1152.20 0.04719
1152.30 0.04717
1152.40 0.04716
1152.50 0.04714
1152.60 0.04713
1152.70 0.04711
1152.80 0.0471
1152.90 0.04708
1153.00 0.04707
1153.10 0.04705
1153.20 0.04703
1153.30 0.04702
1153.40 0.047
1153.50 0.04699
1153.60 0.04697
1153.70 0.04696
1153.80 0.04694
1153.90 0.04693
1154.00 0.04691
1154.10 0.04689
1154.20 0.04688
1154.30 0.04686
1154.40 0.04685
1154.50 0.04683
1154.60 0.04682
1154.70 0.0468
1154.80 0.04679
1154.90 0.04677
1155.00 0.04676
1155.10 0.04674
1155.20 0.04672
1155.30 0.04671
1155.40 0.04669
1155.50 0.04668
1155.60 0.04666
1155.70 0.04665
1155.80 0.04663
1155.90 0.04662
1156.00 0.0466
1156.10 0.04659
1156.20 0.04657
1156.30 0.04656
1156.40 0.04654
1156.50 0.04652
1156.60 0.04651
1156.70 0.04649
1156.80 0.04648
1156.90 0.04646
1157.00 0.04645
1157.10 0.04643
1157.20 0.04642
1157.30 0.0464
1157.40 0.04639
1157.50 0.04637
1157.60 0.04636
1157.70 0.04634
1157.80 0.04633
1157.90 0.04631
1158.00 0.04629
1158.10 0.04628
1158.20 0.04626
1158.30 0.04625
1158.40 0.04623
1158.50 0.04622
1158.60 0.0462
1158.70 0.04619
1158.80 0.04617
1158.90 0.04616
1159.00 0.04614
1159.10 0.04613
1159.20 0.04611
1159.30 0.0461
1159.40 0.04608
1159.50 0.04607
1159.60 0.04605
1159.70 0.04604
1159.80 0.04602
1159.90 0.04601
1160.00 0.04599
1160.10 0.04598
1160.20 0.04596
1160.30 0.04595
1160.40 0.04593
1160.50 0.04591
1160.60 0.0459
1160.70 0.04588
1160.80 0.04587
1160.90 0.04585
1161.00 0.04584
1161.10 0.04582
1161.20 0.04581
1161.30 0.04579
1161.40 0.04578
1161.50 0.04576
1161.60 0.04575
1161.70 0.04573
1161.80 0.04572
1161.90 0.0457
1162.00 0.04569
1162.10 0.04567
1162.20 0.04566
1162.30 0.04564
1162.40 0.04563
1162.50 0.04561
1162.60 0.0456
1162.70 0.04558
1162.80 0.04557
1162.90 0.04555
1163.00 0.04554
1163.10 0.04552
1163.20 0.04551
1163.30 0.04549
1163.40 0.04548
1163.50 0.04546
1163.60 0.04545
1163.70 0.04543
1163.80 0.04542
1163.90 0.0454
1164.00 0.04539
1164.10 0.04537
1164.20 0.04536
1164.30 0.04534
1164.40 0.04533
1164.50 0.04531
1164.60 0.0453
1164.70 0.04528
1164.80 0.04527
1164.90 0.04525
1165.00 0.04524
1165.10 0.04522
1165.20 0.04521
1165.30 0.0452
1165.40 0.04518
1165.50 0.04517
1165.60 0.04515
1165.70 0.04514
1165.80 0.04512
1165.90 0.04511
1166.00 0.04509
1166.10 0.04508
1166.20 0.04506
1166.30 0.04505
1166.40 0.04503
1166.50 0.04502
1166.60 0.045
1166.70 0.04499
1166.80 0.04497
1166.90 0.04496
1167.00 0.04494
1167.10 0.04493
1167.20 0.04491
1167.30 0.0449
1167.40 0.04488
1167.50 0.04487
1167.60 0.04485
1167.70 0.04484
1167.80 0.04483
1167.90 0.04481
1168.00 0.0448
1168.10 0.04478
1168.20 0.04477
1168.30 0.04475
1168.40 0.04474
1168.50 0.04472
1168.60 0.04471
1168.70 0.04469
1168.80 0.04468
1168.90 0.04466
1169.00 0.04465
1169.10 0.04463
1169.20 0.04462
1169.30 0.04461
1169.40 0.04459
1169.50 0.04458
1169.60 0.04456
1169.70 0.04455
1169.80 0.04453
1169.90 0.04452
1170.00 0.0445
1170.10 0.04449
1170.20 0.04447
1170.30 0.04446
1170.40 0.04445
1170.50 0.04443
1170.60 0.04442
1170.70 0.0444
1170.80 0.04439
1170.90 0.04437
1171.00 0.04436
1171.10 0.04434
1171.20 0.04433
1171.30 0.04431
1171.40 0.0443
1171.50 0.04428
1171.60 0.04427
1171.70 0.04426
1171.80 0.04424
1171.90 0.04423
1172.00 0.04421
1172.10 0.0442
1172.20 0.04418
1172.30 0.04417
1172.40 0.04415
1172.50 0.04414
1172.60 0.04413
1172.70 0.04411
1172.80 0.0441
1172.90 0.04408
1173.00 0.04407
1173.10 0.04405
1173.20 0.04404
1173.30 0.04402
1173.40 0.04401
1173.50 0.044
1173.60 0.04398
1173.70 0.04397
1173.80 0.04395
1173.90 0.04394
1174.00 0.04392
1174.10 0.04391
1174.20 0.0439
1174.30 0.04388
1174.40 0.04387
1174.50 0.04385
1174.60 0.04384
1174.70 0.04382
1174.80 0.04381
1174.90 0.0438
1175.00 0.04378
1175.10 0.04377
1175.20 0.04375
1175.30 0.04374
1175.40 0.04372
1175.50 0.04371
1175.60 0.0437
1175.70 0.04368
1175.80 0.04367
1175.90 0.04365
1176.00 0.04364
1176.10 0.04362
1176.20 0.04361
1176.30 0.0436
1176.40 0.04358
1176.50 0.04357
1176.60 0.04355
1176.70 0.04354
1176.80 0.04352
1176.90 0.04351
1177.00 0.0435
1177.10 0.04348
1177.20 0.04347
1177.30 0.04345
1177.40 0.04344
1177.50 0.04342
1177.60 0.04341
1177.70 0.0434
1177.80 0.04338
1177.90 0.04337
1178.00 0.04335
1178.10 0.04334
1178.20 0.04333
1178.30 0.04331
1178.40 0.0433
1178.50 0.04328
1178.60 0.04327
1178.70 0.04326
1178.80 0.04324
1178.90 0.04323
1179.00 0.04321
1179.10 0.0432
1179.20 0.04319
1179.30 0.04317
1179.40 0.04316
1179.50 0.04314
1179.60 0.04313
1179.70 0.04311
1179.80 0.0431
1179.90 0.04309
1180.00 0.04307
1180.10 0.04306
1180.20 0.04304
1180.30 0.04303
1180.40 0.04302
1180.50 0.043
1180.60 0.04299
1180.70 0.04297
1180.80 0.04296
1180.90 0.04295
1181.00 0.04293
1181.10 0.04292
1181.20 0.0429
1181.30 0.04289
1181.40 0.04288
1181.50 0.04286
1181.60 0.04285
1181.70 0.04283
1181.80 0.04282
1181.90 0.04281
1182.00 0.04279
1182.10 0.04278
1182.20 0.04277
1182.30 0.04275
1182.40 0.04274
1182.50 0.04272
1182.60 0.04271
1182.70 0.0427
1182.80 0.04268
1182.90 0.04267
1183.00 0.04265
1183.10 0.04264
1183.20 0.04263
1183.30 0.04261
1183.40 0.0426
1183.50 0.04259
1183.60 0.04257
1183.70 0.04256
1183.80 0.04254
1183.90 0.04253
1184.00 0.04252
1184.10 0.0425
1184.20 0.04249
1184.30 0.04247
1184.40 0.04246
1184.50 0.04245
1184.60 0.04243
1184.70 0.04242
1184.80 0.04241
1184.90 0.04239
1185.00 0.04238
1185.10 0.04236
1185.20 0.04235
1185.30 0.04234
1185.40 0.04232
1185.50 0.04231
1185.60 0.0423
1185.70 0.04228
1185.80 0.04227
1185.90 0.04225
1186.00 0.04224
1186.10 0.04223
1186.20 0.04221
1186.30 0.0422
1186.40 0.04219
1186.50 0.04217
1186.60 0.04216
1186.70 0.04214
1186.80 0.04213
1186.90 0.04212
1187.00 0.0421
1187.10 0.04209
1187.20 0.04208
1187.30 0.04206
1187.40 0.04205
1187.50 0.04204
1187.60 0.04202
1187.70 0.04201
1187.80 0.04199
1187.90 0.04198
1188.00 0.04197
1188.10 0.04195
1188.20 0.04194
1188.30 0.04193
1188.40 0.04191
1188.50 0.0419
1188.60 0.04189
1188.70 0.04187
1188.80 0.04186
1188.90 0.04185
1189.00 0.04183
1189.10 0.04182
1189.20 0.04181
1189.30 0.04179
1189.40 0.04178
1189.50 0.04176
1189.60 0.04175
1189.70 0.04174
1189.80 0.04172
1189.90 0.04171
1190.00 0.0417
1190.10 0.04168
1190.20 0.04167
1190.30 0.04166
1190.40 0.04164
1190.50 0.04163
1190.60 0.04162
1190.70 0.0416
1190.80 0.04159
1190.90 0.04158
1191.00 0.04156
1191.10 0.04155
1191.20 0.04154
1191.30 0.04152
1191.40 0.04151
1191.50 0.04149
1191.60 0.04148
1191.70 0.04147
1191.80 0.04145
1191.90 0.04144
1192.00 0.04143
1192.10 0.04141
1192.20 0.0414
1192.30 0.04139
1192.40 0.04137
1192.50 0.04136
1192.60 0.04135
1192.70 0.04133
1192.80 0.04132
1192.90 0.04131
1193.00 0.04129
1193.10 0.04128
1193.20 0.04127
1193.30 0.04125
1193.40 0.04124
1193.50 0.04123
1193.60 0.04121
1193.70 0.0412
1193.80 0.04119
1193.90 0.04117
1194.00 0.04116
1194.10 0.04115
1194.20 0.04113
1194.30 0.04112
1194.40 0.04111
1194.50 0.0411
1194.60 0.04108
1194.70 0.04107
1194.80 0.04106
1194.90 0.04104
1195.00 0.04103
1195.10 0.04102
1195.20 0.041
1195.30 0.04099
1195.40 0.04098
1195.50 0.04096
1195.60 0.04095
1195.70 0.04094
1195.80 0.04092
1195.90 0.04091
1196.00 0.0409
1196.10 0.04088
1196.20 0.04087
1196.30 0.04086
1196.40 0.04084
1196.50 0.04083
1196.60 0.04082
1196.70 0.0408
1196.80 0.04079
1196.90 0.04078
1197.00 0.04076
1197.10 0.04075
1197.20 0.04074
1197.30 0.04073
1197.40 0.04071
1197.50 0.0407
1197.60 0.04069
1197.70 0.04067
1197.80 0.04066
1197.90 0.04065
1198.00 0.04063
1198.10 0.04062
1198.20 0.04061
1198.30 0.04059
1198.40 0.04058
1198.50 0.04057
1198.60 0.04056
1198.70 0.04054
1198.80 0.04053
1198.90 0.04052
1199.00 0.0405
1199.10 0.04049
1199.20 0.04048
1199.30 0.04046
1199.40 0.04045
1199.50 0.04044
1199.60 0.04043
1199.70 0.04041
1199.80 0.0404
1199.90 0.04039
1200.00 0
