# Version 2.1 - nm, norm@500 to 1, cut digits, bergeron_40000_90.dat_40000
# Wavelength(nm)  Flambda(ergs/cm^s/s/nm)
300.00 5.912
300.10 5.905
300.20 5.898
300.30 5.891
300.40 5.885
300.50 5.878
300.60 5.871
300.70 5.864
300.80 5.857
300.90 5.85
301.00 5.843
301.10 5.836
301.20 5.829
301.30 5.822
301.40 5.815
301.50 5.808
301.60 5.802
301.70 5.795
301.80 5.788
301.90 5.781
302.00 5.774
302.10 5.767
302.20 5.761
302.30 5.754
302.40 5.747
302.50 5.74
302.60 5.734
302.70 5.727
302.80 5.72
302.90 5.713
303.00 5.707
303.10 5.7
303.20 5.693
303.30 5.687
303.40 5.68
303.50 5.673
303.60 5.667
303.70 5.66
303.80 5.653
303.90 5.647
304.00 5.64
304.10 5.633
304.20 5.627
304.30 5.62
304.40 5.614
304.50 5.607
304.60 5.601
304.70 5.594
304.80 5.587
304.90 5.581
305.00 5.574
305.10 5.568
305.20 5.561
305.30 5.555
305.40 5.548
305.50 5.542
305.60 5.535
305.70 5.529
305.80 5.523
305.90 5.516
306.00 5.51
306.10 5.503
306.20 5.497
306.30 5.491
306.40 5.484
306.50 5.478
306.60 5.471
306.70 5.465
306.80 5.459
306.90 5.452
307.00 5.446
307.10 5.44
307.20 5.433
307.30 5.427
307.40 5.421
307.50 5.414
307.60 5.408
307.70 5.402
307.80 5.396
307.90 5.389
308.00 5.383
308.10 5.377
308.20 5.371
308.30 5.364
308.40 5.358
308.50 5.352
308.60 5.346
308.70 5.34
308.80 5.334
308.90 5.327
309.00 5.321
309.10 5.315
309.20 5.309
309.30 5.303
309.40 5.297
309.50 5.291
309.60 5.285
309.70 5.278
309.80 5.272
309.90 5.266
310.00 5.26
310.10 5.254
310.20 5.248
310.30 5.242
310.40 5.236
310.50 5.23
310.60 5.224
310.70 5.218
310.80 5.212
310.90 5.206
311.00 5.2
311.10 5.194
311.20 5.188
311.30 5.182
311.40 5.176
311.50 5.17
311.60 5.164
311.70 5.158
311.80 5.153
311.90 5.147
312.00 5.141
312.10 5.135
312.20 5.129
312.30 5.123
312.40 5.117
312.50 5.111
312.60 5.106
312.70 5.1
312.80 5.094
312.90 5.088
313.00 5.082
313.10 5.077
313.20 5.071
313.30 5.065
313.40 5.059
313.50 5.053
313.60 5.048
313.70 5.042
313.80 5.036
313.90 5.03
314.00 5.025
314.10 5.019
314.20 5.013
314.30 5.008
314.40 5.002
314.50 4.996
314.60 4.991
314.70 4.985
314.80 4.979
314.90 4.974
315.00 4.968
315.10 4.962
315.20 4.957
315.30 4.951
315.40 4.945
315.50 4.94
315.60 4.934
315.70 4.929
315.80 4.923
315.90 4.918
316.00 4.912
316.10 4.906
316.20 4.901
316.30 4.895
316.40 4.89
316.50 4.884
316.60 4.879
316.70 4.873
316.80 4.868
316.90 4.862
317.00 4.857
317.10 4.851
317.20 4.846
317.30 4.84
317.40 4.835
317.50 4.829
317.60 4.824
317.70 4.819
317.80 4.813
317.90 4.808
318.00 4.802
318.10 4.797
318.20 4.792
318.30 4.786
318.40 4.781
318.50 4.775
318.60 4.77
318.70 4.765
318.80 4.759
318.90 4.754
319.00 4.749
319.10 4.743
319.20 4.738
319.30 4.733
319.40 4.727
319.50 4.722
319.60 4.717
319.70 4.712
319.80 4.706
319.90 4.701
320.00 4.696
320.10 4.691
320.20 4.685
320.30 4.68
320.40 4.675
320.50 4.67
320.60 4.664
320.70 4.659
320.80 4.654
320.90 4.649
321.00 4.644
321.10 4.638
321.20 4.633
321.30 4.628
321.40 4.623
321.50 4.618
321.60 4.613
321.70 4.608
321.80 4.602
321.90 4.597
322.00 4.592
322.10 4.587
322.20 4.582
322.30 4.577
322.40 4.572
322.50 4.567
322.60 4.562
322.70 4.557
322.80 4.552
322.90 4.547
323.00 4.541
323.10 4.536
323.20 4.531
323.30 4.526
323.40 4.521
323.50 4.516
323.60 4.511
323.70 4.506
323.80 4.501
323.90 4.496
324.00 4.491
324.10 4.487
324.20 4.482
324.30 4.477
324.40 4.472
324.50 4.467
324.60 4.462
324.70 4.457
324.80 4.452
324.90 4.447
325.00 4.442
325.10 4.437
325.20 4.432
325.30 4.427
325.40 4.423
325.50 4.418
325.60 4.413
325.70 4.408
325.80 4.403
325.90 4.398
326.00 4.393
326.10 4.389
326.20 4.384
326.30 4.379
326.40 4.374
326.50 4.369
326.60 4.365
326.70 4.36
326.80 4.355
326.90 4.35
327.00 4.345
327.10 4.341
327.20 4.336
327.30 4.331
327.40 4.326
327.50 4.322
327.60 4.317
327.70 4.312
327.80 4.308
327.90 4.303
328.00 4.298
328.10 4.293
328.20 4.289
328.30 4.284
328.40 4.279
328.50 4.275
328.60 4.27
328.70 4.265
328.80 4.261
328.90 4.256
329.00 4.251
329.10 4.247
329.20 4.242
329.30 4.238
329.40 4.233
329.50 4.228
329.60 4.224
329.70 4.219
329.80 4.215
329.90 4.21
330.00 4.205
330.10 4.201
330.20 4.196
330.30 4.192
330.40 4.187
330.50 4.183
330.60 4.178
330.70 4.174
330.80 4.169
330.90 4.165
331.00 4.16
331.10 4.156
331.20 4.151
331.30 4.147
331.40 4.142
331.50 4.138
331.60 4.133
331.70 4.129
331.80 4.124
331.90 4.12
332.00 4.115
332.10 4.111
332.20 4.106
332.30 4.102
332.40 4.097
332.50 4.093
332.60 4.089
332.70 4.084
332.80 4.08
332.90 4.075
333.00 4.071
333.10 4.067
333.20 4.062
333.30 4.058
333.40 4.054
333.50 4.049
333.60 4.045
333.70 4.04
333.80 4.036
333.90 4.032
334.00 4.027
334.10 4.023
334.20 4.019
334.30 4.014
334.40 4.01
334.50 4.006
334.60 4.002
334.70 3.997
334.80 3.993
334.90 3.989
335.00 3.984
335.10 3.98
335.20 3.976
335.30 3.972
335.40 3.967
335.50 3.963
335.60 3.959
335.70 3.955
335.80 3.95
335.90 3.946
336.00 3.942
336.10 3.938
336.20 3.933
336.30 3.929
336.40 3.925
336.50 3.921
336.60 3.917
336.70 3.913
336.80 3.908
336.90 3.904
337.00 3.9
337.10 3.896
337.20 3.892
337.30 3.888
337.40 3.883
337.50 3.879
337.60 3.875
337.70 3.871
337.80 3.867
337.90 3.863
338.00 3.859
338.10 3.855
338.20 3.85
338.30 3.846
338.40 3.842
338.50 3.838
338.60 3.834
338.70 3.83
338.80 3.826
338.90 3.822
339.00 3.818
339.10 3.814
339.20 3.81
339.30 3.806
339.40 3.802
339.50 3.798
339.60 3.794
339.70 3.79
339.80 3.786
339.90 3.782
340.00 3.778
340.10 3.774
340.20 3.77
340.30 3.766
340.40 3.762
340.50 3.758
340.60 3.754
340.70 3.75
340.80 3.746
340.90 3.742
341.00 3.738
341.10 3.734
341.20 3.73
341.30 3.726
341.40 3.722
341.50 3.718
341.60 3.714
341.70 3.71
341.80 3.707
341.90 3.703
342.00 3.699
342.10 3.695
342.20 3.691
342.30 3.687
342.40 3.683
342.50 3.679
342.60 3.676
342.70 3.672
342.80 3.668
342.90 3.664
343.00 3.66
343.10 3.656
343.20 3.652
343.30 3.649
343.40 3.645
343.50 3.641
343.60 3.637
343.70 3.633
343.80 3.63
343.90 3.626
344.00 3.622
344.10 3.618
344.20 3.614
344.30 3.611
344.40 3.607
344.50 3.603
344.60 3.599
344.70 3.596
344.80 3.592
344.90 3.588
345.00 3.584
345.10 3.581
345.20 3.577
345.30 3.573
345.40 3.569
345.50 3.566
345.60 3.562
345.70 3.558
345.80 3.555
345.90 3.551
346.00 3.547
346.10 3.543
346.20 3.54
346.30 3.536
346.40 3.532
346.50 3.529
346.60 3.525
346.70 3.521
346.80 3.518
346.90 3.514
347.00 3.51
347.10 3.507
347.20 3.503
347.30 3.5
347.40 3.496
347.50 3.492
347.60 3.489
347.70 3.485
347.80 3.481
347.90 3.478
348.00 3.474
348.10 3.471
348.20 3.467
348.30 3.463
348.40 3.46
348.50 3.456
348.60 3.453
348.70 3.449
348.80 3.446
348.90 3.442
349.00 3.438
349.10 3.435
349.20 3.431
349.30 3.428
349.40 3.424
349.50 3.421
349.60 3.417
349.70 3.414
349.80 3.41
349.90 3.407
350.00 3.403
350.10 3.4
350.20 3.396
350.30 3.393
350.40 3.389
350.50 3.386
350.60 3.382
350.70 3.379
350.80 3.375
350.90 3.372
351.00 3.368
351.10 3.365
351.20 3.361
351.30 3.358
351.40 3.355
351.50 3.351
351.60 3.348
351.70 3.344
351.80 3.341
351.90 3.337
352.00 3.334
352.10 3.331
352.20 3.327
352.30 3.324
352.40 3.32
352.50 3.317
352.60 3.314
352.70 3.31
352.80 3.307
352.90 3.303
353.00 3.3
353.10 3.297
353.20 3.293
353.30 3.29
353.40 3.287
353.50 3.283
353.60 3.28
353.70 3.276
353.80 3.273
353.90 3.27
354.00 3.266
354.10 3.263
354.20 3.26
354.30 3.256
354.40 3.253
354.50 3.25
354.60 3.247
354.70 3.243
354.80 3.24
354.90 3.237
355.00 3.233
355.10 3.23
355.20 3.227
355.30 3.224
355.40 3.22
355.50 3.217
355.60 3.214
355.70 3.21
355.80 3.207
355.90 3.204
356.00 3.201
356.10 3.197
356.20 3.194
356.30 3.191
356.40 3.188
356.50 3.185
356.60 3.181
356.70 3.178
356.80 3.175
356.90 3.172
357.00 3.168
357.10 3.165
357.20 3.162
357.30 3.159
357.40 3.156
357.50 3.152
357.60 3.149
357.70 3.146
357.80 3.143
357.90 3.14
358.00 3.137
358.10 3.133
358.20 3.13
358.30 3.127
358.40 3.124
358.50 3.121
358.60 3.118
358.70 3.115
358.80 3.111
358.90 3.108
359.00 3.105
359.10 3.102
359.20 3.099
359.30 3.096
359.40 3.093
359.50 3.09
359.60 3.086
359.70 3.083
359.80 3.08
359.90 3.077
360.00 3.074
360.10 3.071
360.20 3.068
360.30 3.065
360.40 3.062
360.50 3.059
360.60 3.056
360.70 3.053
360.80 3.05
360.90 3.046
361.00 3.043
361.10 3.04
361.20 3.037
361.30 3.034
361.40 3.031
361.50 3.028
361.60 3.025
361.70 3.022
361.80 3.019
361.90 3.016
362.00 3.013
362.10 3.01
362.20 3.007
362.30 3.004
362.40 3.001
362.50 2.998
362.60 2.995
362.70 2.992
362.80 2.989
362.90 2.986
363.00 2.983
363.10 2.98
363.20 2.977
363.30 2.974
363.40 2.971
363.50 2.968
363.60 2.965
363.70 2.963
363.80 2.96
363.90 2.957
364.00 2.954
364.10 2.951
364.20 2.948
364.30 2.945
364.40 2.942
364.50 2.939
364.60 2.936
364.70 2.933
364.80 2.93
364.90 2.927
365.00 2.925
365.10 2.922
365.20 2.919
365.30 2.916
365.40 2.913
365.50 2.91
365.60 2.907
365.70 2.904
365.80 2.901
365.90 2.899
366.00 2.896
366.10 2.893
366.20 2.89
366.30 2.887
366.40 2.884
366.50 2.881
366.60 2.878
366.70 2.875
366.80 2.872
366.90 2.869
367.00 2.867
367.10 2.864
367.20 2.861
367.30 2.858
367.40 2.855
367.50 2.852
367.60 2.849
367.70 2.846
367.80 2.843
367.90 2.841
368.00 2.838
368.10 2.835
368.20 2.832
368.30 2.829
368.40 2.826
368.50 2.823
368.60 2.82
368.70 2.817
368.80 2.814
368.90 2.811
369.00 2.808
369.10 2.805
369.20 2.802
369.30 2.799
369.40 2.796
369.50 2.793
369.60 2.79
369.70 2.788
369.80 2.785
369.90 2.782
370.00 2.779
370.10 2.776
370.20 2.773
370.30 2.77
370.40 2.767
370.50 2.764
370.60 2.762
370.70 2.759
370.80 2.756
370.90 2.753
371.00 2.75
371.10 2.747
371.20 2.745
371.30 2.742
371.40 2.739
371.50 2.736
371.60 2.733
371.70 2.73
371.80 2.728
371.90 2.725
372.00 2.722
372.10 2.719
372.20 2.717
372.30 2.714
372.40 2.711
372.50 2.709
372.60 2.706
372.70 2.704
372.80 2.701
372.90 2.698
373.00 2.696
373.10 2.693
373.20 2.69
373.30 2.688
373.40 2.685
373.50 2.683
373.60 2.68
373.70 2.677
373.80 2.675
373.90 2.672
374.00 2.67
374.10 2.667
374.20 2.664
374.30 2.661
374.40 2.659
374.50 2.656
374.60 2.653
374.70 2.651
374.80 2.648
374.90 2.645
375.00 2.642
375.10 2.64
375.20 2.637
375.30 2.634
375.40 2.632
375.50 2.629
375.60 2.626
375.70 2.624
375.80 2.621
375.90 2.618
376.00 2.616
376.10 2.613
376.20 2.61
376.30 2.608
376.40 2.605
376.50 2.603
376.60 2.6
376.70 2.597
376.80 2.595
376.90 2.592
377.00 2.589
377.10 2.587
377.20 2.584
377.30 2.582
377.40 2.579
377.50 2.577
377.60 2.574
377.70 2.572
377.80 2.569
377.90 2.567
378.00 2.564
378.10 2.562
378.20 2.559
378.30 2.557
378.40 2.555
378.50 2.552
378.60 2.55
378.70 2.547
378.80 2.545
378.90 2.542
379.00 2.54
379.10 2.537
379.20 2.535
379.30 2.533
379.40 2.53
379.50 2.528
379.60 2.525
379.70 2.523
379.80 2.52
379.90 2.518
380.00 2.516
380.10 2.513
380.20 2.511
380.30 2.509
380.40 2.506
380.50 2.504
380.60 2.502
380.70 2.5
380.80 2.497
380.90 2.495
381.00 2.493
381.10 2.49
381.20 2.488
381.30 2.486
381.40 2.484
381.50 2.481
381.60 2.479
381.70 2.477
381.80 2.474
381.90 2.472
382.00 2.47
382.10 2.468
382.20 2.465
382.30 2.463
382.40 2.461
382.50 2.458
382.60 2.456
382.70 2.454
382.80 2.452
382.90 2.449
383.00 2.447
383.10 2.445
383.20 2.442
383.30 2.44
383.40 2.438
383.50 2.436
383.60 2.434
383.70 2.432
383.80 2.43
383.90 2.428
384.00 2.426
384.10 2.424
384.20 2.422
384.30 2.42
384.40 2.418
384.50 2.416
384.60 2.414
384.70 2.412
384.80 2.41
384.90 2.408
385.00 2.406
385.10 2.404
385.20 2.402
385.30 2.4
385.40 2.398
385.50 2.396
385.60 2.394
385.70 2.392
385.80 2.39
385.90 2.388
386.00 2.386
386.10 2.384
386.20 2.381
386.30 2.379
386.40 2.377
386.50 2.375
386.60 2.373
386.70 2.37
386.80 2.368
386.90 2.366
387.00 2.364
387.10 2.361
387.20 2.359
387.30 2.357
387.40 2.354
387.50 2.352
387.60 2.35
387.70 2.347
387.80 2.345
387.90 2.343
388.00 2.34
388.10 2.338
388.20 2.336
388.30 2.333
388.40 2.331
388.50 2.329
388.60 2.327
388.70 2.325
388.80 2.323
388.90 2.321
389.00 2.319
389.10 2.318
389.20 2.316
389.30 2.315
389.40 2.313
389.50 2.312
389.60 2.311
389.70 2.309
389.80 2.308
389.90 2.307
390.00 2.305
390.10 2.304
390.20 2.303
390.30 2.302
390.40 2.3
390.50 2.299
390.60 2.297
390.70 2.296
390.80 2.295
390.90 2.293
391.00 2.292
391.10 2.29
391.20 2.289
391.30 2.287
391.40 2.285
391.50 2.284
391.60 2.282
391.70 2.28
391.80 2.278
391.90 2.277
392.00 2.275
392.10 2.273
392.20 2.271
392.30 2.269
392.40 2.267
392.50 2.265
392.60 2.262
392.70 2.26
392.80 2.258
392.90 2.256
393.00 2.253
393.10 2.251
393.20 2.248
393.30 2.246
393.40 2.243
393.50 2.241
393.60 2.238
393.70 2.235
393.80 2.233
393.90 2.23
394.00 2.227
394.10 2.224
394.20 2.221
394.30 2.218
394.40 2.215
394.50 2.212
394.60 2.208
394.70 2.205
394.80 2.202
394.90 2.199
395.00 2.195
395.10 2.192
395.20 2.188
395.30 2.185
395.40 2.181
395.50 2.178
395.60 2.174
395.70 2.17
395.80 2.167
395.90 2.163
396.00 2.159
396.10 2.156
396.20 2.152
396.30 2.148
396.40 2.145
396.50 2.141
396.60 2.138
396.70 2.134
396.80 2.131
396.90 2.128
397.00 2.125
397.10 2.125
397.20 2.125
397.30 2.125
397.40 2.125
397.50 2.125
397.60 2.126
397.70 2.127
397.80 2.127
397.90 2.128
398.00 2.128
398.10 2.129
398.20 2.13
398.30 2.13
398.40 2.131
398.50 2.131
398.60 2.132
398.70 2.132
398.80 2.133
398.90 2.133
399.00 2.133
399.10 2.134
399.20 2.134
399.30 2.134
399.40 2.134
399.50 2.134
399.60 2.134
399.70 2.134
399.80 2.134
399.90 2.134
400.00 2.134
400.10 2.133
400.20 2.133
400.30 2.133
400.40 2.132
400.50 2.132
400.60 2.131
400.70 2.131
400.80 2.13
400.90 2.129
401.00 2.128
401.10 2.128
401.20 2.127
401.30 2.126
401.40 2.125
401.50 2.124
401.60 2.123
401.70 2.121
401.80 2.12
401.90 2.119
402.00 2.117
402.10 2.116
402.20 2.114
402.30 2.113
402.40 2.111
402.50 2.11
402.60 2.108
402.70 2.106
402.80 2.104
402.90 2.102
403.00 2.1
403.10 2.098
403.20 2.096
403.30 2.094
403.40 2.092
403.50 2.09
403.60 2.087
403.70 2.085
403.80 2.082
403.90 2.08
404.00 2.077
404.10 2.074
404.20 2.072
404.30 2.069
404.40 2.066
404.50 2.063
404.60 2.06
404.70 2.057
404.80 2.054
404.90 2.05
405.00 2.047
405.10 2.044
405.20 2.04
405.30 2.037
405.40 2.033
405.50 2.029
405.60 2.025
405.70 2.021
405.80 2.017
405.90 2.013
406.00 2.009
406.10 2.005
406.20 2.001
406.30 1.996
406.40 1.992
406.50 1.987
406.60 1.983
406.70 1.978
406.80 1.973
406.90 1.968
407.00 1.963
407.10 1.958
407.20 1.953
407.30 1.947
407.40 1.942
407.50 1.937
407.60 1.931
407.70 1.925
407.80 1.92
407.90 1.914
408.00 1.908
408.10 1.902
408.20 1.896
408.30 1.889
408.40 1.883
408.50 1.877
408.60 1.87
408.70 1.864
408.80 1.858
408.90 1.851
409.00 1.845
409.10 1.838
409.20 1.832
409.30 1.826
409.40 1.82
409.50 1.814
409.60 1.809
409.70 1.804
409.80 1.8
409.90 1.796
410.00 1.795
410.10 1.794
410.20 1.794
410.30 1.791
410.40 1.789
410.50 1.789
410.60 1.79
410.70 1.792
410.80 1.794
410.90 1.797
411.00 1.8
411.10 1.803
411.20 1.806
411.30 1.81
411.40 1.813
411.50 1.817
411.60 1.82
411.70 1.824
411.80 1.827
411.90 1.831
412.00 1.834
412.10 1.837
412.20 1.841
412.30 1.844
412.40 1.847
412.50 1.85
412.60 1.852
412.70 1.855
412.80 1.858
412.90 1.86
413.00 1.863
413.10 1.865
413.20 1.867
413.30 1.87
413.40 1.872
413.50 1.874
413.60 1.876
413.70 1.877
413.80 1.879
413.90 1.881
414.00 1.882
414.10 1.884
414.20 1.885
414.30 1.887
414.40 1.888
414.50 1.889
414.60 1.89
414.70 1.891
414.80 1.892
414.90 1.893
415.00 1.894
415.10 1.895
415.20 1.895
415.30 1.896
415.40 1.897
415.50 1.897
415.60 1.898
415.70 1.898
415.80 1.898
415.90 1.899
416.00 1.899
416.10 1.899
416.20 1.899
416.30 1.899
416.40 1.899
416.50 1.899
416.60 1.899
416.70 1.899
416.80 1.899
416.90 1.899
417.00 1.898
417.10 1.898
417.20 1.898
417.30 1.897
417.40 1.897
417.50 1.897
417.60 1.896
417.70 1.896
417.80 1.895
417.90 1.894
418.00 1.894
418.10 1.893
418.20 1.892
418.30 1.892
418.40 1.891
418.50 1.89
418.60 1.889
418.70 1.888
418.80 1.888
418.90 1.887
419.00 1.886
419.10 1.885
419.20 1.884
419.30 1.883
419.40 1.882
419.50 1.881
419.60 1.879
419.70 1.878
419.80 1.877
419.90 1.876
420.00 1.875
420.10 1.874
420.20 1.872
420.30 1.871
420.40 1.87
420.50 1.868
420.60 1.867
420.70 1.866
420.80 1.864
420.90 1.863
421.00 1.861
421.10 1.86
421.20 1.859
421.30 1.857
421.40 1.855
421.50 1.854
421.60 1.852
421.70 1.851
421.80 1.849
421.90 1.848
422.00 1.846
422.10 1.844
422.20 1.843
422.30 1.841
422.40 1.839
422.50 1.837
422.60 1.836
422.70 1.834
422.80 1.832
422.90 1.83
423.00 1.828
423.10 1.826
423.20 1.824
423.30 1.822
423.40 1.821
423.50 1.819
423.60 1.817
423.70 1.814
423.80 1.812
423.90 1.81
424.00 1.808
424.10 1.806
424.20 1.804
424.30 1.802
424.40 1.8
424.50 1.797
424.60 1.795
424.70 1.793
424.80 1.79
424.90 1.788
425.00 1.786
425.10 1.783
425.20 1.781
425.30 1.778
425.40 1.776
425.50 1.773
425.60 1.771
425.70 1.768
425.80 1.765
425.90 1.763
426.00 1.76
426.10 1.757
426.20 1.754
426.30 1.751
426.40 1.749
426.50 1.746
426.60 1.743
426.70 1.74
426.80 1.737
426.90 1.733
427.00 1.73
427.10 1.727
427.20 1.724
427.30 1.721
427.40 1.717
427.50 1.714
427.60 1.71
427.70 1.707
427.80 1.703
427.90 1.7
428.00 1.696
428.10 1.692
428.20 1.688
428.30 1.684
428.40 1.68
428.50 1.676
428.60 1.672
428.70 1.668
428.80 1.664
428.90 1.66
429.00 1.655
429.10 1.651
429.20 1.646
429.30 1.642
429.40 1.637
429.50 1.632
429.60 1.627
429.70 1.622
429.80 1.617
429.90 1.612
430.00 1.607
430.10 1.602
430.20 1.596
430.30 1.591
430.40 1.585
430.50 1.58
430.60 1.574
430.70 1.568
430.80 1.562
430.90 1.556
431.00 1.55
431.10 1.543
431.20 1.537
431.30 1.53
431.40 1.524
431.50 1.517
431.60 1.51
431.70 1.503
431.80 1.496
431.90 1.488
432.00 1.481
432.10 1.474
432.20 1.466
432.30 1.458
432.40 1.451
432.50 1.443
432.60 1.435
432.70 1.427
432.80 1.418
432.90 1.41
433.00 1.402
433.10 1.394
433.20 1.385
433.30 1.377
433.40 1.368
433.50 1.36
433.60 1.351
433.70 1.341
433.80 1.331
433.90 1.319
434.00 1.307
434.10 1.306
434.20 1.317
434.30 1.327
434.40 1.335
434.50 1.342
434.60 1.349
434.70 1.356
434.80 1.362
434.90 1.368
435.00 1.374
435.10 1.38
435.20 1.386
435.30 1.392
435.40 1.398
435.50 1.404
435.60 1.409
435.70 1.415
435.80 1.42
435.90 1.425
436.00 1.431
436.10 1.436
436.20 1.44
436.30 1.445
436.40 1.45
436.50 1.454
436.60 1.459
436.70 1.463
436.80 1.467
436.90 1.471
437.00 1.475
437.10 1.479
437.20 1.482
437.30 1.486
437.40 1.489
437.50 1.492
437.60 1.495
437.70 1.498
437.80 1.501
437.90 1.504
438.00 1.507
438.10 1.509
438.20 1.512
438.30 1.514
438.40 1.516
438.50 1.519
438.60 1.521
438.70 1.523
438.80 1.525
438.90 1.527
439.00 1.528
439.10 1.53
439.20 1.532
439.30 1.533
439.40 1.535
439.50 1.536
439.60 1.537
439.70 1.538
439.80 1.54
439.90 1.541
440.00 1.542
440.10 1.543
440.20 1.544
440.30 1.544
440.40 1.545
440.50 1.546
440.60 1.547
440.70 1.547
440.80 1.548
440.90 1.548
441.00 1.549
441.10 1.549
441.20 1.55
441.30 1.55
441.40 1.55
441.50 1.55
441.60 1.551
441.70 1.551
441.80 1.551
441.90 1.551
442.00 1.551
442.10 1.551
442.20 1.551
442.30 1.551
442.40 1.551
442.50 1.551
442.60 1.55
442.70 1.55
442.80 1.55
442.90 1.55
443.00 1.549
443.10 1.549
443.20 1.549
443.30 1.548
443.40 1.548
443.50 1.548
443.60 1.547
443.70 1.547
443.80 1.546
443.90 1.546
444.00 1.545
444.10 1.545
444.20 1.544
444.30 1.544
444.40 1.543
444.50 1.542
444.60 1.542
444.70 1.541
444.80 1.541
444.90 1.54
445.00 1.539
445.10 1.538
445.20 1.538
445.30 1.537
445.40 1.536
445.50 1.536
445.60 1.535
445.70 1.534
445.80 1.533
445.90 1.532
446.00 1.532
446.10 1.531
446.20 1.53
446.30 1.529
446.40 1.528
446.50 1.527
446.60 1.526
446.70 1.526
446.80 1.525
446.90 1.524
447.00 1.523
447.10 1.522
447.20 1.521
447.30 1.52
447.40 1.519
447.50 1.518
447.60 1.517
447.70 1.516
447.80 1.515
447.90 1.514
448.00 1.513
448.10 1.512
448.20 1.511
448.30 1.51
448.40 1.509
448.50 1.508
448.60 1.507
448.70 1.506
448.80 1.505
448.90 1.504
449.00 1.503
449.10 1.502
449.20 1.501
449.30 1.5
449.40 1.499
449.50 1.498
449.60 1.497
449.70 1.496
449.80 1.495
449.90 1.494
450.00 1.493
450.10 1.492
450.20 1.491
450.30 1.49
450.40 1.488
450.50 1.487
450.60 1.486
450.70 1.485
450.80 1.484
450.90 1.483
451.00 1.482
451.10 1.481
451.20 1.48
451.30 1.479
451.40 1.478
451.50 1.476
451.60 1.475
451.70 1.474
451.80 1.473
451.90 1.472
452.00 1.471
452.10 1.47
452.20 1.469
452.30 1.468
452.40 1.466
452.50 1.465
452.60 1.464
452.70 1.463
452.80 1.462
452.90 1.461
453.00 1.46
453.10 1.458
453.20 1.457
453.30 1.456
453.40 1.455
453.50 1.454
453.60 1.453
453.70 1.452
453.80 1.451
453.90 1.449
454.00 1.448
454.10 1.447
454.20 1.446
454.30 1.445
454.40 1.444
454.50 1.443
454.60 1.441
454.70 1.44
454.80 1.439
454.90 1.438
455.00 1.437
455.10 1.436
455.20 1.435
455.30 1.434
455.40 1.432
455.50 1.431
455.60 1.43
455.70 1.429
455.80 1.428
455.90 1.427
456.00 1.425
456.10 1.424
456.20 1.423
456.30 1.422
456.40 1.421
456.50 1.42
456.60 1.419
456.70 1.417
456.80 1.416
456.90 1.415
457.00 1.414
457.10 1.413
457.20 1.412
457.30 1.411
457.40 1.409
457.50 1.408
457.60 1.407
457.70 1.406
457.80 1.405
457.90 1.404
458.00 1.403
458.10 1.401
458.20 1.4
458.30 1.399
458.40 1.398
458.50 1.397
458.60 1.396
458.70 1.395
458.80 1.393
458.90 1.392
459.00 1.391
459.10 1.39
459.20 1.389
459.30 1.388
459.40 1.387
459.50 1.385
459.60 1.384
459.70 1.383
459.80 1.382
459.90 1.381
460.00 1.38
460.10 1.379
460.20 1.377
460.30 1.376
460.40 1.375
460.50 1.374
460.60 1.373
460.70 1.372
460.80 1.371
460.90 1.369
461.00 1.368
461.10 1.367
461.20 1.366
461.30 1.365
461.40 1.364
461.50 1.362
461.60 1.361
461.70 1.36
461.80 1.359
461.90 1.358
462.00 1.357
462.10 1.356
462.20 1.354
462.30 1.353
462.40 1.352
462.50 1.351
462.60 1.35
462.70 1.349
462.80 1.348
462.90 1.346
463.00 1.345
463.10 1.344
463.20 1.343
463.30 1.342
463.40 1.341
463.50 1.34
463.60 1.338
463.70 1.337
463.80 1.336
463.90 1.335
464.00 1.334
464.10 1.333
464.20 1.332
464.30 1.33
464.40 1.329
464.50 1.328
464.60 1.327
464.70 1.326
464.80 1.325
464.90 1.324
465.00 1.322
465.10 1.321
465.20 1.32
465.30 1.319
465.40 1.318
465.50 1.317
465.60 1.315
465.70 1.314
465.80 1.313
465.90 1.312
466.00 1.311
466.10 1.31
466.20 1.309
466.30 1.307
466.40 1.306
466.50 1.305
466.60 1.304
466.70 1.303
466.80 1.302
466.90 1.3
467.00 1.299
467.10 1.298
467.20 1.297
467.30 1.296
467.40 1.295
467.50 1.294
467.60 1.292
467.70 1.291
467.80 1.29
467.90 1.289
468.00 1.288
468.10 1.287
468.20 1.285
468.30 1.284
468.40 1.283
468.50 1.282
468.60 1.281
468.70 1.279
468.80 1.278
468.90 1.277
469.00 1.276
469.10 1.275
469.20 1.274
469.30 1.272
469.40 1.271
469.50 1.27
469.60 1.269
469.70 1.268
469.80 1.266
469.90 1.265
470.00 1.264
470.10 1.263
470.20 1.261
470.30 1.26
470.40 1.259
470.50 1.258
470.60 1.257
470.70 1.255
470.80 1.254
470.90 1.253
471.00 1.252
471.10 1.25
471.20 1.249
471.30 1.248
471.40 1.247
471.50 1.245
471.60 1.244
471.70 1.243
471.80 1.242
471.90 1.24
472.00 1.239
472.10 1.238
472.20 1.237
472.30 1.235
472.40 1.234
472.50 1.233
472.60 1.231
472.70 1.23
472.80 1.229
472.90 1.228
473.00 1.226
473.10 1.225
473.20 1.224
473.30 1.222
473.40 1.221
473.50 1.219
473.60 1.218
473.70 1.217
473.80 1.215
473.90 1.214
474.00 1.213
474.10 1.211
474.20 1.21
474.30 1.208
474.40 1.207
474.50 1.206
474.60 1.204
474.70 1.203
474.80 1.201
474.90 1.2
475.00 1.198
475.10 1.197
475.20 1.195
475.30 1.194
475.40 1.192
475.50 1.191
475.60 1.189
475.70 1.188
475.80 1.186
475.90 1.185
476.00 1.183
476.10 1.182
476.20 1.18
476.30 1.178
476.40 1.177
476.50 1.175
476.60 1.173
476.70 1.172
476.80 1.17
476.90 1.168
477.00 1.167
477.10 1.165
477.20 1.163
477.30 1.161
477.40 1.159
477.50 1.158
477.60 1.156
477.70 1.154
477.80 1.152
477.90 1.15
478.00 1.148
478.10 1.147
478.20 1.145
478.30 1.142
478.40 1.14
478.50 1.138
478.60 1.136
478.70 1.134
478.80 1.132
478.90 1.13
479.00 1.128
479.10 1.126
479.20 1.123
479.30 1.121
479.40 1.119
479.50 1.116
479.60 1.114
479.70 1.112
479.80 1.109
479.90 1.107
480.00 1.104
480.10 1.102
480.20 1.099
480.30 1.097
480.40 1.094
480.50 1.091
480.60 1.088
480.70 1.085
480.80 1.083
480.90 1.08
481.00 1.077
481.10 1.074
481.20 1.071
481.30 1.068
481.40 1.064
481.50 1.061
481.60 1.058
481.70 1.054
481.80 1.051
481.90 1.048
482.00 1.045
482.10 1.041
482.20 1.038
482.30 1.034
482.40 1.03
482.50 1.026
482.60 1.022
482.70 1.018
482.80 1.014
482.90 1.01
483.00 1.006
483.10 1.002
483.20 0.9971
483.30 0.9923
483.40 0.9875
483.50 0.9826
483.60 0.9778
483.70 0.973
483.80 0.9681
483.90 0.9633
484.00 0.9585
484.10 0.9537
484.20 0.9484
484.30 0.9428
484.40 0.9372
484.50 0.9316
484.60 0.926
484.70 0.9201
484.80 0.914
484.90 0.9078
485.00 0.9017
485.10 0.8956
485.20 0.8892
485.30 0.8827
485.40 0.8761
485.50 0.8695
485.60 0.8629
485.70 0.8563
485.80 0.8506
485.90 0.8453
486.00 0.8434
486.10 0.8569
486.20 0.8489
486.30 0.8411
486.40 0.8441
486.50 0.8481
486.60 0.853
486.70 0.8583
486.80 0.8637
486.90 0.869
487.00 0.8743
487.10 0.8794
487.20 0.8843
487.30 0.8891
487.40 0.8939
487.50 0.8987
487.60 0.9034
487.70 0.9078
487.80 0.9119
487.90 0.916
488.00 0.9202
488.10 0.9243
488.20 0.9278
488.30 0.9311
488.40 0.9344
488.50 0.9377
488.60 0.941
488.70 0.9443
488.80 0.9476
488.90 0.9509
489.00 0.9541
489.10 0.9574
489.20 0.9601
489.30 0.9624
489.40 0.9648
489.50 0.9671
489.60 0.9695
489.70 0.9718
489.80 0.9741
489.90 0.9765
490.00 0.9788
490.10 0.9812
490.20 0.983
490.30 0.9846
490.40 0.9862
490.50 0.9878
490.60 0.9894
490.70 0.991
490.80 0.9926
490.90 0.9942
491.00 0.9958
491.10 0.9974
491.20 0.9987
491.30 0.9997
491.40 1.001
491.50 1.002
491.60 1.003
491.70 1.004
491.80 1.005
491.90 1.006
492.00 1.007
492.10 1.008
492.20 1.009
492.30 1.009
492.40 1.01
492.50 1.011
492.60 1.011
492.70 1.012
492.80 1.012
492.90 1.013
493.00 1.014
493.10 1.014
493.20 1.015
493.30 1.015
493.40 1.015
493.50 1.015
493.60 1.016
493.70 1.016
493.80 1.016
493.90 1.016
494.00 1.017
494.10 1.017
494.20 1.017
494.30 1.017
494.40 1.017
494.50 1.017
494.60 1.017
494.70 1.017
494.80 1.017
494.90 1.017
495.00 1.017
495.10 1.017
495.20 1.017
495.30 1.017
495.40 1.017
495.50 1.017
495.60 1.017
495.70 1.017
495.80 1.016
495.90 1.016
496.00 1.016
496.10 1.016
496.20 1.016
496.30 1.015
496.40 1.015
496.50 1.015
496.60 1.015
496.70 1.014
496.80 1.014
496.90 1.014
497.00 1.013
497.10 1.013
497.20 1.013
497.30 1.012
497.40 1.012
497.50 1.012
497.60 1.011
497.70 1.011
497.80 1.01
497.90 1.01
498.00 1.01
498.10 1.009
498.20 1.009
498.30 1.008
498.40 1.008
498.50 1.007
498.60 1.007
498.70 1.006
498.80 1.006
498.90 1.006
499.00 1.005
499.10 1.005
499.20 1.004
499.30 1.004
499.40 1.003
499.50 1.003
499.60 1.002
499.70 1.002
499.80 1.001
499.90 1.001
500.00 1
500.10 0.9995
500.20 0.9989
500.30 0.9984
500.40 0.9978
500.50 0.9973
500.60 0.9967
500.70 0.9961
500.80 0.9956
500.90 0.995
501.00 0.9945
501.10 0.9939
501.20 0.9933
501.30 0.9927
501.40 0.9921
501.50 0.9915
501.60 0.991
501.70 0.9904
501.80 0.9898
501.90 0.9892
502.00 0.9886
502.10 0.988
502.20 0.9874
502.30 0.9868
502.40 0.9862
502.50 0.9856
502.60 0.9849
502.70 0.9843
502.80 0.9837
502.90 0.9831
503.00 0.9825
503.10 0.9819
503.20 0.9813
503.30 0.9806
503.40 0.98
503.50 0.9794
503.60 0.9787
503.70 0.9781
503.80 0.9775
503.90 0.9768
504.00 0.9762
504.10 0.9756
504.20 0.9749
504.30 0.9743
504.40 0.9737
504.50 0.973
504.60 0.9724
504.70 0.9717
504.80 0.9711
504.90 0.9704
505.00 0.9698
505.10 0.9692
505.20 0.9685
505.30 0.9679
505.40 0.9672
505.50 0.9666
505.60 0.9659
505.70 0.9653
505.80 0.9646
505.90 0.964
506.00 0.9633
506.10 0.9627
506.20 0.962
506.30 0.9614
506.40 0.9607
506.50 0.96
506.60 0.9594
506.70 0.9587
506.80 0.9581
506.90 0.9574
507.00 0.9568
507.10 0.9561
507.20 0.9555
507.30 0.9548
507.40 0.9541
507.50 0.9535
507.60 0.9528
507.70 0.9522
507.80 0.9515
507.90 0.9508
508.00 0.9502
508.10 0.9495
508.20 0.9489
508.30 0.9482
508.40 0.9475
508.50 0.9469
508.60 0.9462
508.70 0.9456
508.80 0.9449
508.90 0.9442
509.00 0.9436
509.10 0.9429
509.20 0.9423
509.30 0.9416
509.40 0.9409
509.50 0.9403
509.60 0.9396
509.70 0.939
509.80 0.9383
509.90 0.9376
510.00 0.937
510.10 0.9363
510.20 0.9357
510.30 0.935
510.40 0.9343
510.50 0.9337
510.60 0.933
510.70 0.9324
510.80 0.9317
510.90 0.931
511.00 0.9304
511.10 0.9297
511.20 0.9291
511.30 0.9284
511.40 0.9277
511.50 0.9271
511.60 0.9264
511.70 0.9258
511.80 0.9251
511.90 0.9244
512.00 0.9238
512.10 0.9231
512.20 0.9225
512.30 0.9218
512.40 0.9212
512.50 0.9205
512.60 0.9198
512.70 0.9192
512.80 0.9185
512.90 0.9179
513.00 0.9172
513.10 0.9166
513.20 0.9159
513.30 0.9153
513.40 0.9146
513.50 0.914
513.60 0.9133
513.70 0.9127
513.80 0.912
513.90 0.9113
514.00 0.9107
514.10 0.91
514.20 0.9094
514.30 0.9087
514.40 0.9081
514.50 0.9074
514.60 0.9068
514.70 0.9061
514.80 0.9055
514.90 0.9048
515.00 0.9042
515.10 0.9035
515.20 0.9029
515.30 0.9023
515.40 0.9016
515.50 0.901
515.60 0.9003
515.70 0.8997
515.80 0.899
515.90 0.8984
516.00 0.8977
516.10 0.8971
516.20 0.8964
516.30 0.8958
516.40 0.8952
516.50 0.8945
516.60 0.8939
516.70 0.8932
516.80 0.8926
516.90 0.8919
517.00 0.8913
517.10 0.8907
517.20 0.89
517.30 0.8894
517.40 0.8888
517.50 0.8881
517.60 0.8875
517.70 0.8868
517.80 0.8862
517.90 0.8856
518.00 0.8849
518.10 0.8843
518.20 0.8837
518.30 0.883
518.40 0.8824
518.50 0.8818
518.60 0.8811
518.70 0.8805
518.80 0.8799
518.90 0.8792
519.00 0.8786
519.10 0.878
519.20 0.8773
519.30 0.8767
519.40 0.8761
519.50 0.8754
519.60 0.8748
519.70 0.8742
519.80 0.8736
519.90 0.8729
520.00 0.8723
520.10 0.8717
520.20 0.871
520.30 0.8704
520.40 0.8698
520.50 0.8692
520.60 0.8685
520.70 0.8679
520.80 0.8673
520.90 0.8667
521.00 0.866
521.10 0.8654
521.20 0.8648
521.30 0.8642
521.40 0.8636
521.50 0.8629
521.60 0.8623
521.70 0.8617
521.80 0.8611
521.90 0.8605
522.00 0.8599
522.10 0.8592
522.20 0.8586
522.30 0.858
522.40 0.8574
522.50 0.8568
522.60 0.8562
522.70 0.8555
522.80 0.8549
522.90 0.8543
523.00 0.8537
523.10 0.8531
523.20 0.8525
523.30 0.8519
523.40 0.8513
523.50 0.8506
523.60 0.85
523.70 0.8494
523.80 0.8488
523.90 0.8482
524.00 0.8476
524.10 0.847
524.20 0.8464
524.30 0.8458
524.40 0.8452
524.50 0.8446
524.60 0.844
524.70 0.8434
524.80 0.8427
524.90 0.8421
525.00 0.8415
525.10 0.8409
525.20 0.8403
525.30 0.8397
525.40 0.8391
525.50 0.8385
525.60 0.8379
525.70 0.8373
525.80 0.8367
525.90 0.8361
526.00 0.8355
526.10 0.8349
526.20 0.8343
526.30 0.8337
526.40 0.8331
526.50 0.8326
526.60 0.832
526.70 0.8314
526.80 0.8308
526.90 0.8302
527.00 0.8296
527.10 0.829
527.20 0.8284
527.30 0.8278
527.40 0.8272
527.50 0.8266
527.60 0.826
527.70 0.8254
527.80 0.8248
527.90 0.8243
528.00 0.8237
528.10 0.8231
528.20 0.8225
528.30 0.8219
528.40 0.8213
528.50 0.8207
528.60 0.8202
528.70 0.8196
528.80 0.819
528.90 0.8184
529.00 0.8178
529.10 0.8172
529.20 0.8166
529.30 0.8161
529.40 0.8155
529.50 0.8149
529.60 0.8143
529.70 0.8137
529.80 0.8132
529.90 0.8126
530.00 0.812
530.10 0.8114
530.20 0.8108
530.30 0.8103
530.40 0.8097
530.50 0.8091
530.60 0.8085
530.70 0.808
530.80 0.8074
530.90 0.8068
531.00 0.8062
531.10 0.8057
531.20 0.8051
531.30 0.8045
531.40 0.804
531.50 0.8034
531.60 0.8028
531.70 0.8022
531.80 0.8017
531.90 0.8011
532.00 0.8005
532.10 0.8
532.20 0.7994
532.30 0.7988
532.40 0.7983
532.50 0.7977
532.60 0.7971
532.70 0.7966
532.80 0.796
532.90 0.7954
533.00 0.7949
533.10 0.7943
533.20 0.7937
533.30 0.7932
533.40 0.7926
533.50 0.7921
533.60 0.7915
533.70 0.7909
533.80 0.7904
533.90 0.7898
534.00 0.7892
534.10 0.7887
534.20 0.7881
534.30 0.7876
534.40 0.787
534.50 0.7865
534.60 0.7859
534.70 0.7853
534.80 0.7848
534.90 0.7842
535.00 0.7837
535.10 0.7831
535.20 0.7826
535.30 0.782
535.40 0.7815
535.50 0.7809
535.60 0.7804
535.70 0.7798
535.80 0.7793
535.90 0.7787
536.00 0.7782
536.10 0.7776
536.20 0.7771
536.30 0.7765
536.40 0.776
536.50 0.7754
536.60 0.7749
536.70 0.7743
536.80 0.7738
536.90 0.7732
537.00 0.7727
537.10 0.7721
537.20 0.7716
537.30 0.771
537.40 0.7705
537.50 0.77
537.60 0.7694
537.70 0.7689
537.80 0.7683
537.90 0.7678
538.00 0.7673
538.10 0.7667
538.20 0.7662
538.30 0.7656
538.40 0.7651
538.50 0.7646
538.60 0.764
538.70 0.7635
538.80 0.7629
538.90 0.7624
539.00 0.7619
539.10 0.7613
539.20 0.7608
539.30 0.7603
539.40 0.7597
539.50 0.7592
539.60 0.7587
539.70 0.7581
539.80 0.7576
539.90 0.7571
540.00 0.7565
540.10 0.756
540.20 0.7555
540.30 0.7549
540.40 0.7544
540.50 0.7539
540.60 0.7534
540.70 0.7528
540.80 0.7523
540.90 0.7518
541.00 0.7512
541.10 0.7507
541.20 0.7502
541.30 0.7497
541.40 0.7491
541.50 0.7486
541.60 0.7481
541.70 0.7476
541.80 0.747
541.90 0.7465
542.00 0.746
542.10 0.7455
542.20 0.745
542.30 0.7444
542.40 0.7439
542.50 0.7434
542.60 0.7429
542.70 0.7424
542.80 0.7418
542.90 0.7413
543.00 0.7408
543.10 0.7403
543.20 0.7398
543.30 0.7393
543.40 0.7387
543.50 0.7382
543.60 0.7377
543.70 0.7372
543.80 0.7367
543.90 0.7362
544.00 0.7356
544.10 0.7351
544.20 0.7346
544.30 0.7341
544.40 0.7336
544.50 0.7331
544.60 0.7326
544.70 0.7321
544.80 0.7316
544.90 0.731
545.00 0.7305
545.10 0.73
545.20 0.7295
545.30 0.729
545.40 0.7285
545.50 0.728
545.60 0.7275
545.70 0.727
545.80 0.7265
545.90 0.726
546.00 0.7255
546.10 0.725
546.20 0.7245
546.30 0.724
546.40 0.7235
546.50 0.723
546.60 0.7225
546.70 0.7219
546.80 0.7214
546.90 0.7209
547.00 0.7204
547.10 0.7199
547.20 0.7194
547.30 0.7189
547.40 0.7184
547.50 0.718
547.60 0.7175
547.70 0.717
547.80 0.7165
547.90 0.716
548.00 0.7155
548.10 0.715
548.20 0.7145
548.30 0.714
548.40 0.7135
548.50 0.713
548.60 0.7125
548.70 0.712
548.80 0.7115
548.90 0.711
549.00 0.7105
549.10 0.71
549.20 0.7095
549.30 0.7091
549.40 0.7086
549.50 0.7081
549.60 0.7076
549.70 0.7071
549.80 0.7066
549.90 0.7061
550.00 0.7056
550.10 0.7051
550.20 0.7047
550.30 0.7042
550.40 0.7037
550.50 0.7032
550.60 0.7027
550.70 0.7022
550.80 0.7017
550.90 0.7013
551.00 0.7008
551.10 0.7003
551.20 0.6998
551.30 0.6993
551.40 0.6988
551.50 0.6984
551.60 0.6979
551.70 0.6974
551.80 0.6969
551.90 0.6964
552.00 0.696
552.10 0.6955
552.20 0.695
552.30 0.6945
552.40 0.694
552.50 0.6936
552.60 0.6931
552.70 0.6926
552.80 0.6921
552.90 0.6917
553.00 0.6912
553.10 0.6907
553.20 0.6902
553.30 0.6898
553.40 0.6893
553.50 0.6888
553.60 0.6883
553.70 0.6879
553.80 0.6874
553.90 0.6869
554.00 0.6865
554.10 0.686
554.20 0.6855
554.30 0.685
554.40 0.6846
554.50 0.6841
554.60 0.6836
554.70 0.6832
554.80 0.6827
554.90 0.6822
555.00 0.6818
555.10 0.6813
555.20 0.6808
555.30 0.6804
555.40 0.6799
555.50 0.6794
555.60 0.679
555.70 0.6785
555.80 0.678
555.90 0.6776
556.00 0.6771
556.10 0.6766
556.20 0.6762
556.30 0.6757
556.40 0.6753
556.50 0.6748
556.60 0.6743
556.70 0.6739
556.80 0.6734
556.90 0.673
557.00 0.6725
557.10 0.672
557.20 0.6716
557.30 0.6711
557.40 0.6707
557.50 0.6702
557.60 0.6697
557.70 0.6693
557.80 0.6688
557.90 0.6684
558.00 0.6679
558.10 0.6675
558.20 0.667
558.30 0.6666
558.40 0.6661
558.50 0.6656
558.60 0.6652
558.70 0.6647
558.80 0.6643
558.90 0.6638
559.00 0.6634
559.10 0.6629
559.20 0.6625
559.30 0.662
559.40 0.6616
559.50 0.6611
559.60 0.6607
559.70 0.6602
559.80 0.6598
559.90 0.6593
560.00 0.6589
560.10 0.6584
560.20 0.658
560.30 0.6575
560.40 0.6571
560.50 0.6566
560.60 0.6562
560.70 0.6558
560.80 0.6553
560.90 0.6549
561.00 0.6544
561.10 0.654
561.20 0.6535
561.30 0.6531
561.40 0.6527
561.50 0.6522
561.60 0.6518
561.70 0.6513
561.80 0.6509
561.90 0.6504
562.00 0.65
562.10 0.6496
562.20 0.6491
562.30 0.6487
562.40 0.6482
562.50 0.6478
562.60 0.6474
562.70 0.6469
562.80 0.6465
562.90 0.6461
563.00 0.6456
563.10 0.6452
563.20 0.6447
563.30 0.6443
563.40 0.6439
563.50 0.6434
563.60 0.643
563.70 0.6426
563.80 0.6421
563.90 0.6417
564.00 0.6413
564.10 0.6408
564.20 0.6404
564.30 0.64
564.40 0.6395
564.50 0.6391
564.60 0.6387
564.70 0.6382
564.80 0.6378
564.90 0.6374
565.00 0.637
565.10 0.6365
565.20 0.6361
565.30 0.6357
565.40 0.6352
565.50 0.6348
565.60 0.6344
565.70 0.634
565.80 0.6335
565.90 0.6331
566.00 0.6327
566.10 0.6323
566.20 0.6318
566.30 0.6314
566.40 0.631
566.50 0.6306
566.60 0.6301
566.70 0.6297
566.80 0.6293
566.90 0.6289
567.00 0.6284
567.10 0.628
567.20 0.6276
567.30 0.6272
567.40 0.6267
567.50 0.6263
567.60 0.6259
567.70 0.6255
567.80 0.6251
567.90 0.6246
568.00 0.6242
568.10 0.6238
568.20 0.6234
568.30 0.623
568.40 0.6226
568.50 0.6221
568.60 0.6217
568.70 0.6213
568.80 0.6209
568.90 0.6205
569.00 0.6201
569.10 0.6196
569.20 0.6192
569.30 0.6188
569.40 0.6184
569.50 0.618
569.60 0.6176
569.70 0.6172
569.80 0.6167
569.90 0.6163
570.00 0.6159
570.10 0.6155
570.20 0.6151
570.30 0.6147
570.40 0.6143
570.50 0.6139
570.60 0.6135
570.70 0.613
570.80 0.6126
570.90 0.6122
571.00 0.6118
571.10 0.6114
571.20 0.611
571.30 0.6106
571.40 0.6102
571.50 0.6098
571.60 0.6094
571.70 0.609
571.80 0.6086
571.90 0.6082
572.00 0.6078
572.10 0.6073
572.20 0.6069
572.30 0.6065
572.40 0.6061
572.50 0.6057
572.60 0.6053
572.70 0.6049
572.80 0.6045
572.90 0.6041
573.00 0.6037
573.10 0.6033
573.20 0.6029
573.30 0.6025
573.40 0.6021
573.50 0.6017
573.60 0.6013
573.70 0.6009
573.80 0.6005
573.90 0.6001
574.00 0.5997
574.10 0.5993
574.20 0.5989
574.30 0.5985
574.40 0.5981
574.50 0.5977
574.60 0.5973
574.70 0.5969
574.80 0.5965
574.90 0.5961
575.00 0.5957
575.10 0.5954
575.20 0.595
575.30 0.5946
575.40 0.5942
575.50 0.5938
575.60 0.5934
575.70 0.593
575.80 0.5926
575.90 0.5922
576.00 0.5918
576.10 0.5914
576.20 0.591
576.30 0.5906
576.40 0.5902
576.50 0.5899
576.60 0.5895
576.70 0.5891
576.80 0.5887
576.90 0.5883
577.00 0.5879
577.10 0.5875
577.20 0.5871
577.30 0.5867
577.40 0.5864
577.50 0.586
577.60 0.5856
577.70 0.5852
577.80 0.5848
577.90 0.5844
578.00 0.584
578.10 0.5836
578.20 0.5833
578.30 0.5829
578.40 0.5825
578.50 0.5821
578.60 0.5817
578.70 0.5813
578.80 0.581
578.90 0.5806
579.00 0.5802
579.10 0.5798
579.20 0.5794
579.30 0.579
579.40 0.5787
579.50 0.5783
579.60 0.5779
579.70 0.5775
579.80 0.5771
579.90 0.5768
580.00 0.5764
580.10 0.576
580.20 0.5756
580.30 0.5752
580.40 0.5749
580.50 0.5745
580.60 0.5741
580.70 0.5737
580.80 0.5734
580.90 0.573
581.00 0.5726
581.10 0.5722
581.20 0.5719
581.30 0.5715
581.40 0.5711
581.50 0.5707
581.60 0.5704
581.70 0.57
581.80 0.5696
581.90 0.5692
582.00 0.5689
582.10 0.5685
582.20 0.5681
582.30 0.5677
582.40 0.5674
582.50 0.567
582.60 0.5666
582.70 0.5663
582.80 0.5659
582.90 0.5655
583.00 0.5651
583.10 0.5648
583.20 0.5644
583.30 0.564
583.40 0.5637
583.50 0.5633
583.60 0.5629
583.70 0.5626
583.80 0.5622
583.90 0.5618
584.00 0.5615
584.10 0.5611
584.20 0.5607
584.30 0.5604
584.40 0.56
584.50 0.5596
584.60 0.5593
584.70 0.5589
584.80 0.5585
584.90 0.5582
585.00 0.5578
585.10 0.5574
585.20 0.5571
585.30 0.5567
585.40 0.5563
585.50 0.556
585.60 0.5556
585.70 0.5553
585.80 0.5549
585.90 0.5545
586.00 0.5542
586.10 0.5538
586.20 0.5534
586.30 0.5531
586.40 0.5527
586.50 0.5524
586.60 0.552
586.70 0.5516
586.80 0.5513
586.90 0.5509
587.00 0.5506
587.10 0.5502
587.20 0.5499
587.30 0.5495
587.40 0.5491
587.50 0.5488
587.60 0.5484
587.70 0.5481
587.80 0.5477
587.90 0.5474
588.00 0.547
588.10 0.5466
588.20 0.5463
588.30 0.5459
588.40 0.5456
588.50 0.5452
588.60 0.5449
588.70 0.5445
588.80 0.5442
588.90 0.5438
589.00 0.5435
589.10 0.5431
589.20 0.5427
589.30 0.5424
589.40 0.542
589.50 0.5417
589.60 0.5413
589.70 0.541
589.80 0.5406
589.90 0.5403
590.00 0.5399
590.10 0.5396
590.20 0.5392
590.30 0.5389
590.40 0.5385
590.50 0.5382
590.60 0.5378
590.70 0.5375
590.80 0.5372
590.90 0.5368
591.00 0.5365
591.10 0.5361
591.20 0.5358
591.30 0.5354
591.40 0.5351
591.50 0.5347
591.60 0.5344
591.70 0.534
591.80 0.5337
591.90 0.5333
592.00 0.533
592.10 0.5327
592.20 0.5323
592.30 0.532
592.40 0.5316
592.50 0.5313
592.60 0.5309
592.70 0.5306
592.80 0.5303
592.90 0.5299
593.00 0.5296
593.10 0.5292
593.20 0.5289
593.30 0.5285
593.40 0.5282
593.50 0.5279
593.60 0.5275
593.70 0.5272
593.80 0.5268
593.90 0.5265
594.00 0.5262
594.10 0.5258
594.20 0.5255
594.30 0.5251
594.40 0.5248
594.50 0.5245
594.60 0.5241
594.70 0.5238
594.80 0.5235
594.90 0.5231
595.00 0.5228
595.10 0.5225
595.20 0.5221
595.30 0.5218
595.40 0.5214
595.50 0.5211
595.60 0.5208
595.70 0.5204
595.80 0.5201
595.90 0.5198
596.00 0.5194
596.10 0.5191
596.20 0.5188
596.30 0.5184
596.40 0.5181
596.50 0.5178
596.60 0.5174
596.70 0.5171
596.80 0.5168
596.90 0.5164
597.00 0.5161
597.10 0.5158
597.20 0.5155
597.30 0.5151
597.40 0.5148
597.50 0.5145
597.60 0.5141
597.70 0.5138
597.80 0.5135
597.90 0.5131
598.00 0.5128
598.10 0.5125
598.20 0.5122
598.30 0.5118
598.40 0.5115
598.50 0.5112
598.60 0.5109
598.70 0.5105
598.80 0.5102
598.90 0.5099
599.00 0.5095
599.10 0.5092
599.20 0.5089
599.30 0.5086
599.40 0.5082
599.50 0.5079
599.60 0.5076
599.70 0.5073
599.80 0.5069
599.90 0.5066
600.00 0.5063
600.10 0.506
600.20 0.5057
600.30 0.5053
600.40 0.505
600.50 0.5047
600.60 0.5044
600.70 0.504
600.80 0.5037
600.90 0.5034
601.00 0.5031
601.10 0.5028
601.20 0.5024
601.30 0.5021
601.40 0.5018
601.50 0.5015
601.60 0.5012
601.70 0.5008
601.80 0.5005
601.90 0.5002
602.00 0.4999
602.10 0.4996
602.20 0.4992
602.30 0.4989
602.40 0.4986
602.50 0.4983
602.60 0.498
602.70 0.4977
602.80 0.4973
602.90 0.497
603.00 0.4967
603.10 0.4964
603.20 0.4961
603.30 0.4958
603.40 0.4954
603.50 0.4951
603.60 0.4948
603.70 0.4945
603.80 0.4942
603.90 0.4939
604.00 0.4936
604.10 0.4932
604.20 0.4929
604.30 0.4926
604.40 0.4923
604.50 0.492
604.60 0.4917
604.70 0.4914
604.80 0.4911
604.90 0.4907
605.00 0.4904
605.10 0.4901
605.20 0.4898
605.30 0.4895
605.40 0.4892
605.50 0.4889
605.60 0.4886
605.70 0.4883
605.80 0.488
605.90 0.4876
606.00 0.4873
606.10 0.487
606.20 0.4867
606.30 0.4864
606.40 0.4861
606.50 0.4858
606.60 0.4855
606.70 0.4852
606.80 0.4849
606.90 0.4846
607.00 0.4843
607.10 0.4839
607.20 0.4836
607.30 0.4833
607.40 0.483
607.50 0.4827
607.60 0.4824
607.70 0.4821
607.80 0.4818
607.90 0.4815
608.00 0.4812
608.10 0.4809
608.20 0.4806
608.30 0.4803
608.40 0.48
608.50 0.4797
608.60 0.4794
608.70 0.4791
608.80 0.4788
608.90 0.4785
609.00 0.4782
609.10 0.4779
609.20 0.4776
609.30 0.4773
609.40 0.477
609.50 0.4767
609.60 0.4764
609.70 0.4761
609.80 0.4758
609.90 0.4755
610.00 0.4752
610.10 0.4749
610.20 0.4746
610.30 0.4743
610.40 0.474
610.50 0.4737
610.60 0.4734
610.70 0.4731
610.80 0.4728
610.90 0.4725
611.00 0.4722
611.10 0.4719
611.20 0.4716
611.30 0.4713
611.40 0.471
611.50 0.4707
611.60 0.4704
611.70 0.4701
611.80 0.4698
611.90 0.4695
612.00 0.4692
612.10 0.4689
612.20 0.4686
612.30 0.4683
612.40 0.468
612.50 0.4677
612.60 0.4674
612.70 0.4671
612.80 0.4669
612.90 0.4666
613.00 0.4663
613.10 0.466
613.20 0.4657
613.30 0.4654
613.40 0.4651
613.50 0.4648
613.60 0.4645
613.70 0.4642
613.80 0.4639
613.90 0.4636
614.00 0.4633
614.10 0.4631
614.20 0.4628
614.30 0.4625
614.40 0.4622
614.50 0.4619
614.60 0.4616
614.70 0.4613
614.80 0.461
614.90 0.4607
615.00 0.4604
615.10 0.4602
615.20 0.4599
615.30 0.4596
615.40 0.4593
615.50 0.459
615.60 0.4587
615.70 0.4584
615.80 0.4581
615.90 0.4578
616.00 0.4576
616.10 0.4573
616.20 0.457
616.30 0.4567
616.40 0.4564
616.50 0.4561
616.60 0.4558
616.70 0.4556
616.80 0.4553
616.90 0.455
617.00 0.4547
617.10 0.4544
617.20 0.4541
617.30 0.4538
617.40 0.4536
617.50 0.4533
617.60 0.453
617.70 0.4527
617.80 0.4524
617.90 0.4521
618.00 0.4519
618.10 0.4516
618.20 0.4513
618.30 0.451
618.40 0.4507
618.50 0.4504
618.60 0.4502
618.70 0.4499
618.80 0.4496
618.90 0.4493
619.00 0.449
619.10 0.4488
619.20 0.4485
619.30 0.4482
619.40 0.4479
619.50 0.4476
619.60 0.4473
619.70 0.4471
619.80 0.4468
619.90 0.4465
620.00 0.4462
620.10 0.446
620.20 0.4457
620.30 0.4454
620.40 0.4451
620.50 0.4448
620.60 0.4446
620.70 0.4443
620.80 0.444
620.90 0.4437
621.00 0.4434
621.10 0.4432
621.20 0.4429
621.30 0.4426
621.40 0.4423
621.50 0.4421
621.60 0.4418
621.70 0.4415
621.80 0.4412
621.90 0.441
622.00 0.4407
622.10 0.4404
622.20 0.4401
622.30 0.4398
622.40 0.4396
622.50 0.4393
622.60 0.439
622.70 0.4387
622.80 0.4385
622.90 0.4382
623.00 0.4379
623.10 0.4376
623.20 0.4374
623.30 0.4371
623.40 0.4368
623.50 0.4366
623.60 0.4363
623.70 0.436
623.80 0.4357
623.90 0.4355
624.00 0.4352
624.10 0.4349
624.20 0.4346
624.30 0.4344
624.40 0.4341
624.50 0.4338
624.60 0.4336
624.70 0.4333
624.80 0.433
624.90 0.4327
625.00 0.4325
625.10 0.4322
625.20 0.4319
625.30 0.4317
625.40 0.4314
625.50 0.4311
625.60 0.4308
625.70 0.4306
625.80 0.4303
625.90 0.43
626.00 0.4298
626.10 0.4295
626.20 0.4292
626.30 0.4289
626.40 0.4287
626.50 0.4284
626.60 0.4281
626.70 0.4279
626.80 0.4276
626.90 0.4273
627.00 0.4271
627.10 0.4268
627.20 0.4265
627.30 0.4263
627.40 0.426
627.50 0.4257
627.60 0.4255
627.70 0.4252
627.80 0.4249
627.90 0.4246
628.00 0.4244
628.10 0.4241
628.20 0.4238
628.30 0.4236
628.40 0.4233
628.50 0.423
628.60 0.4228
628.70 0.4225
628.80 0.4222
628.90 0.422
629.00 0.4217
629.10 0.4214
629.20 0.4212
629.30 0.4209
629.40 0.4206
629.50 0.4204
629.60 0.4201
629.70 0.4198
629.80 0.4196
629.90 0.4193
630.00 0.419
630.10 0.4188
630.20 0.4185
630.30 0.4183
630.40 0.418
630.50 0.4177
630.60 0.4175
630.70 0.4172
630.80 0.4169
630.90 0.4167
631.00 0.4164
631.10 0.4161
631.20 0.4159
631.30 0.4156
631.40 0.4153
631.50 0.4151
631.60 0.4148
631.70 0.4145
631.80 0.4143
631.90 0.414
632.00 0.4137
632.10 0.4135
632.20 0.4132
632.30 0.4129
632.40 0.4127
632.50 0.4124
632.60 0.4122
632.70 0.4119
632.80 0.4116
632.90 0.4114
633.00 0.4111
633.10 0.4108
633.20 0.4106
633.30 0.4103
633.40 0.41
633.50 0.4098
633.60 0.4095
633.70 0.4092
633.80 0.409
633.90 0.4087
634.00 0.4084
634.10 0.4082
634.20 0.4079
634.30 0.4077
634.40 0.4074
634.50 0.4071
634.60 0.4069
634.70 0.4066
634.80 0.4063
634.90 0.4061
635.00 0.4058
635.10 0.4055
635.20 0.4053
635.30 0.405
635.40 0.4047
635.50 0.4045
635.60 0.4042
635.70 0.4039
635.80 0.4037
635.90 0.4034
636.00 0.4031
636.10 0.4029
636.20 0.4026
636.30 0.4023
636.40 0.4021
636.50 0.4018
636.60 0.4015
636.70 0.4013
636.80 0.401
636.90 0.4007
637.00 0.4005
637.10 0.4002
637.20 0.3999
637.30 0.3997
637.40 0.3994
637.50 0.3991
637.60 0.3988
637.70 0.3986
637.80 0.3983
637.90 0.398
638.00 0.3978
638.10 0.3975
638.20 0.3972
638.30 0.3969
638.40 0.3967
638.50 0.3964
638.60 0.3961
638.70 0.3959
638.80 0.3956
638.90 0.3953
639.00 0.395
639.10 0.3948
639.20 0.3945
639.30 0.3942
639.40 0.3939
639.50 0.3937
639.60 0.3934
639.70 0.3931
639.80 0.3928
639.90 0.3925
640.00 0.3923
640.10 0.392
640.20 0.3917
640.30 0.3914
640.40 0.3911
640.50 0.3909
640.60 0.3906
640.70 0.3903
640.80 0.39
640.90 0.3897
641.00 0.3894
641.10 0.3892
641.20 0.3889
641.30 0.3886
641.40 0.3883
641.50 0.388
641.60 0.3877
641.70 0.3874
641.80 0.3871
641.90 0.3868
642.00 0.3865
642.10 0.3862
642.20 0.3859
642.30 0.3857
642.40 0.3853
642.50 0.385
642.60 0.3847
642.70 0.3844
642.80 0.3841
642.90 0.3838
643.00 0.3835
643.10 0.3832
643.20 0.3829
643.30 0.3826
643.40 0.3823
643.50 0.382
643.60 0.3817
643.70 0.3814
643.80 0.381
643.90 0.3807
644.00 0.3804
644.10 0.3801
644.20 0.3798
644.30 0.3794
644.40 0.3791
644.50 0.3788
644.60 0.3784
644.70 0.3781
644.80 0.3778
644.90 0.3774
645.00 0.3771
645.10 0.3768
645.20 0.3764
645.30 0.3761
645.40 0.3757
645.50 0.3754
645.60 0.375
645.70 0.3746
645.80 0.3743
645.90 0.3739
646.00 0.3736
646.10 0.3732
646.20 0.3729
646.30 0.3725
646.40 0.3721
646.50 0.3717
646.60 0.3713
646.70 0.3709
646.80 0.3705
646.90 0.3701
647.00 0.3697
647.10 0.3694
647.20 0.369
647.30 0.3686
647.40 0.3681
647.50 0.3677
647.60 0.3673
647.70 0.3668
647.80 0.3664
647.90 0.3659
648.00 0.3655
648.10 0.3651
648.20 0.3646
648.30 0.3642
648.40 0.3637
648.50 0.3632
648.60 0.3627
648.70 0.3622
648.80 0.3617
648.90 0.3613
649.00 0.3608
649.10 0.3603
649.20 0.3598
649.30 0.3593
649.40 0.3587
649.50 0.3581
649.60 0.3576
649.70 0.357
649.80 0.3564
649.90 0.3559
650.00 0.3553
650.10 0.3547
650.20 0.3542
650.30 0.3536
650.40 0.3529
650.50 0.3523
650.60 0.3516
650.70 0.3509
650.80 0.3502
650.90 0.3496
651.00 0.3489
651.10 0.3483
651.20 0.3476
651.30 0.3469
651.40 0.3461
651.50 0.3453
651.60 0.3445
651.70 0.3437
651.80 0.3429
651.90 0.3421
652.00 0.3413
652.10 0.3405
652.20 0.3397
652.30 0.3389
652.40 0.3379
652.50 0.3369
652.60 0.3359
652.70 0.335
652.80 0.334
652.90 0.333
653.00 0.3321
653.10 0.3311
653.20 0.3301
653.30 0.3291
653.40 0.3279
653.50 0.3267
653.60 0.3255
653.70 0.3243
653.80 0.3232
653.90 0.322
654.00 0.3208
654.10 0.3196
654.20 0.3184
654.30 0.3172
654.40 0.3158
654.50 0.3144
654.60 0.313
654.70 0.3116
654.80 0.3102
654.90 0.3087
655.00 0.3072
655.10 0.3057
655.20 0.3042
655.30 0.3026
655.40 0.301
655.50 0.2994
655.60 0.2977
655.70 0.2961
655.80 0.2944
655.90 0.2928
656.00 0.2914
656.10 0.29
656.20 0.292
656.30 0.3017
656.40 0.2898
656.50 0.2898
656.60 0.2909
656.70 0.2921
656.80 0.2934
656.90 0.2947
657.00 0.296
657.10 0.2973
657.20 0.2986
657.30 0.2999
657.40 0.301
657.50 0.3022
657.60 0.3034
657.70 0.3045
657.80 0.3057
657.90 0.3067
658.00 0.3077
658.10 0.3087
658.20 0.3098
658.30 0.3107
658.40 0.3115
658.50 0.3124
658.60 0.3132
658.70 0.314
658.80 0.3148
658.90 0.3156
659.00 0.3164
659.10 0.3172
659.20 0.318
659.30 0.3188
659.40 0.3193
659.50 0.3199
659.60 0.3205
659.70 0.3211
659.80 0.3216
659.90 0.3222
660.00 0.3228
660.10 0.3233
660.20 0.3239
660.30 0.3244
660.40 0.3248
660.50 0.3252
660.60 0.3256
660.70 0.326
660.80 0.3264
660.90 0.3268
661.00 0.3272
661.10 0.3276
661.20 0.3279
661.30 0.3283
661.40 0.3285
661.50 0.3288
661.60 0.329
661.70 0.3293
661.80 0.3295
661.90 0.3298
662.00 0.33
662.10 0.3303
662.20 0.3305
662.30 0.3307
662.40 0.3309
662.50 0.331
662.60 0.3312
662.70 0.3313
662.80 0.3314
662.90 0.3316
663.00 0.3317
663.10 0.3319
663.20 0.332
663.30 0.3321
663.40 0.3322
663.50 0.3322
663.60 0.3323
663.70 0.3324
663.80 0.3324
663.90 0.3325
664.00 0.3325
664.10 0.3326
664.20 0.3327
664.30 0.3327
664.40 0.3327
664.50 0.3327
664.60 0.3327
664.70 0.3327
664.80 0.3327
664.90 0.3327
665.00 0.3327
665.10 0.3327
665.20 0.3327
665.30 0.3327
665.40 0.3327
665.50 0.3327
665.60 0.3326
665.70 0.3326
665.80 0.3325
665.90 0.3325
666.00 0.3324
666.10 0.3324
666.20 0.3324
666.30 0.3323
666.40 0.3322
666.50 0.3322
666.60 0.3321
666.70 0.332
666.80 0.332
666.90 0.3319
667.00 0.3318
667.10 0.3317
667.20 0.3317
667.30 0.3316
667.40 0.3315
667.50 0.3314
667.60 0.3313
667.70 0.3312
667.80 0.3311
667.90 0.331
668.00 0.3309
668.10 0.3308
668.20 0.3307
668.30 0.3306
668.40 0.3305
668.50 0.3304
668.60 0.3303
668.70 0.3301
668.80 0.33
668.90 0.3299
669.00 0.3298
669.10 0.3297
669.20 0.3296
669.30 0.3294
669.40 0.3293
669.50 0.3292
669.60 0.3291
669.70 0.3289
669.80 0.3288
669.90 0.3287
670.00 0.3285
670.10 0.3284
670.20 0.3283
670.30 0.3281
670.40 0.328
670.50 0.3279
670.60 0.3277
670.70 0.3276
670.80 0.3275
670.90 0.3273
671.00 0.3272
671.10 0.327
671.20 0.3269
671.30 0.3268
671.40 0.3266
671.50 0.3265
671.60 0.3263
671.70 0.3262
671.80 0.326
671.90 0.3259
672.00 0.3257
672.10 0.3256
672.20 0.3254
672.30 0.3253
672.40 0.3251
672.50 0.325
672.60 0.3248
672.70 0.3247
672.80 0.3245
672.90 0.3244
673.00 0.3242
673.10 0.3241
673.20 0.3239
673.30 0.3238
673.40 0.3236
673.50 0.3234
673.60 0.3233
673.70 0.3231
673.80 0.323
673.90 0.3228
674.00 0.3227
674.10 0.3225
674.20 0.3223
674.30 0.3222
674.40 0.322
674.50 0.3219
674.60 0.3217
674.70 0.3215
674.80 0.3214
674.90 0.3212
675.00 0.3211
675.10 0.3209
675.20 0.3207
675.30 0.3206
675.40 0.3204
675.50 0.3202
675.60 0.3201
675.70 0.3199
675.80 0.3198
675.90 0.3196
676.00 0.3194
676.10 0.3193
676.20 0.3191
676.30 0.3189
676.40 0.3188
676.50 0.3186
676.60 0.3185
676.70 0.3183
676.80 0.3181
676.90 0.318
677.00 0.3178
677.10 0.3176
677.20 0.3175
677.30 0.3173
677.40 0.3171
677.50 0.317
677.60 0.3168
677.70 0.3166
677.80 0.3165
677.90 0.3163
678.00 0.3161
678.10 0.316
678.20 0.3158
678.30 0.3156
678.40 0.3155
678.50 0.3153
678.60 0.3151
678.70 0.315
678.80 0.3148
678.90 0.3146
679.00 0.3145
679.10 0.3143
679.20 0.3141
679.30 0.314
679.40 0.3138
679.50 0.3136
679.60 0.3135
679.70 0.3133
679.80 0.3131
679.90 0.313
680.00 0.3128
680.10 0.3126
680.20 0.3125
680.30 0.3123
680.40 0.3121
680.50 0.312
680.60 0.3118
680.70 0.3116
680.80 0.3115
680.90 0.3113
681.00 0.3111
681.10 0.311
681.20 0.3108
681.30 0.3106
681.40 0.3105
681.50 0.3103
681.60 0.3101
681.70 0.31
681.80 0.3098
681.90 0.3096
682.00 0.3095
682.10 0.3093
682.20 0.3091
682.30 0.309
682.40 0.3088
682.50 0.3086
682.60 0.3085
682.70 0.3083
682.80 0.3081
682.90 0.308
683.00 0.3078
683.10 0.3076
683.20 0.3075
683.30 0.3073
683.40 0.3071
683.50 0.307
683.60 0.3068
683.70 0.3066
683.80 0.3065
683.90 0.3063
684.00 0.3061
684.10 0.306
684.20 0.3058
684.30 0.3056
684.40 0.3055
684.50 0.3053
684.60 0.3051
684.70 0.305
684.80 0.3048
684.90 0.3046
685.00 0.3045
685.10 0.3043
685.20 0.3042
685.30 0.304
685.40 0.3038
685.50 0.3037
685.60 0.3035
685.70 0.3033
685.80 0.3032
685.90 0.303
686.00 0.3028
686.10 0.3027
686.20 0.3025
686.30 0.3023
686.40 0.3022
686.50 0.302
686.60 0.3018
686.70 0.3017
686.80 0.3015
686.90 0.3013
687.00 0.3012
687.10 0.301
687.20 0.3009
687.30 0.3007
687.40 0.3005
687.50 0.3004
687.60 0.3002
687.70 0.3
687.80 0.2999
687.90 0.2997
688.00 0.2995
688.10 0.2994
688.20 0.2992
688.30 0.2991
688.40 0.2989
688.50 0.2987
688.60 0.2986
688.70 0.2984
688.80 0.2982
688.90 0.2981
689.00 0.2979
689.10 0.2977
689.20 0.2976
689.30 0.2974
689.40 0.2973
689.50 0.2971
689.60 0.2969
689.70 0.2968
689.80 0.2966
689.90 0.2964
690.00 0.2963
690.10 0.2961
690.20 0.296
690.30 0.2958
690.40 0.2956
690.50 0.2955
690.60 0.2953
690.70 0.2952
690.80 0.295
690.90 0.2948
691.00 0.2947
691.10 0.2945
691.20 0.2943
691.30 0.2942
691.40 0.294
691.50 0.2939
691.60 0.2937
691.70 0.2935
691.80 0.2934
691.90 0.2932
692.00 0.2931
692.10 0.2929
692.20 0.2927
692.30 0.2926
692.40 0.2924
692.50 0.2923
692.60 0.2921
692.70 0.2919
692.80 0.2918
692.90 0.2916
693.00 0.2915
693.10 0.2913
693.20 0.2911
693.30 0.291
693.40 0.2908
693.50 0.2907
693.60 0.2905
693.70 0.2903
693.80 0.2902
693.90 0.29
694.00 0.2899
694.10 0.2897
694.20 0.2896
694.30 0.2894
694.40 0.2892
694.50 0.2891
694.60 0.2889
694.70 0.2888
694.80 0.2886
694.90 0.2884
695.00 0.2883
695.10 0.2881
695.20 0.288
695.30 0.2878
695.40 0.2877
695.50 0.2875
695.60 0.2873
695.70 0.2872
695.80 0.287
695.90 0.2869
696.00 0.2867
696.10 0.2866
696.20 0.2864
696.30 0.2862
696.40 0.2861
696.50 0.2859
696.60 0.2858
696.70 0.2856
696.80 0.2855
696.90 0.2853
697.00 0.2852
697.10 0.285
697.20 0.2848
697.30 0.2847
697.40 0.2845
697.50 0.2844
697.60 0.2842
697.70 0.2841
697.80 0.2839
697.90 0.2838
698.00 0.2836
698.10 0.2834
698.20 0.2833
698.30 0.2831
698.40 0.283
698.50 0.2828
698.60 0.2827
698.70 0.2825
698.80 0.2824
698.90 0.2822
699.00 0.2821
699.10 0.2819
699.20 0.2817
699.30 0.2816
699.40 0.2814
699.50 0.2813
699.60 0.2811
699.70 0.281
699.80 0.2808
699.90 0.2807
700.00 0.2805
700.10 0.2804
700.20 0.2802
700.30 0.2801
700.40 0.2799
700.50 0.2798
700.60 0.2796
700.70 0.2795
700.80 0.2793
700.90 0.2791
701.00 0.279
701.10 0.2788
701.20 0.2787
701.30 0.2785
701.40 0.2784
701.50 0.2782
701.60 0.2781
701.70 0.2779
701.80 0.2778
701.90 0.2776
702.00 0.2775
702.10 0.2773
702.20 0.2772
702.30 0.277
702.40 0.2769
702.50 0.2767
702.60 0.2766
702.70 0.2764
702.80 0.2763
702.90 0.2761
703.00 0.276
703.10 0.2758
703.20 0.2757
703.30 0.2755
703.40 0.2754
703.50 0.2752
703.60 0.2751
703.70 0.2749
703.80 0.2748
703.90 0.2746
704.00 0.2745
704.10 0.2743
704.20 0.2742
704.30 0.274
704.40 0.2739
704.50 0.2737
704.60 0.2736
704.70 0.2734
704.80 0.2733
704.90 0.2731
705.00 0.273
705.10 0.2728
705.20 0.2727
705.30 0.2725
705.40 0.2724
705.50 0.2723
705.60 0.2721
705.70 0.272
705.80 0.2718
705.90 0.2717
706.00 0.2715
706.10 0.2714
706.20 0.2712
706.30 0.2711
706.40 0.2709
706.50 0.2708
706.60 0.2706
706.70 0.2705
706.80 0.2703
706.90 0.2702
707.00 0.2701
707.10 0.2699
707.20 0.2698
707.30 0.2696
707.40 0.2695
707.50 0.2693
707.60 0.2692
707.70 0.269
707.80 0.2689
707.90 0.2687
708.00 0.2686
708.10 0.2684
708.20 0.2683
708.30 0.2682
708.40 0.268
708.50 0.2679
708.60 0.2677
708.70 0.2676
708.80 0.2674
708.90 0.2673
709.00 0.2671
709.10 0.267
709.20 0.2669
709.30 0.2667
709.40 0.2666
709.50 0.2664
709.60 0.2663
709.70 0.2661
709.80 0.266
709.90 0.2658
710.00 0.2657
710.10 0.2656
710.20 0.2654
710.30 0.2653
710.40 0.2651
710.50 0.265
710.60 0.2648
710.70 0.2647
710.80 0.2646
710.90 0.2644
711.00 0.2643
711.10 0.2641
711.20 0.264
711.30 0.2639
711.40 0.2637
711.50 0.2636
711.60 0.2634
711.70 0.2633
711.80 0.2631
711.90 0.263
712.00 0.2629
712.10 0.2627
712.20 0.2626
712.30 0.2624
712.40 0.2623
712.50 0.2622
712.60 0.262
712.70 0.2619
712.80 0.2617
712.90 0.2616
713.00 0.2614
713.10 0.2613
713.20 0.2612
713.30 0.261
713.40 0.2609
713.50 0.2607
713.60 0.2606
713.70 0.2605
713.80 0.2603
713.90 0.2602
714.00 0.26
714.10 0.2599
714.20 0.2598
714.30 0.2596
714.40 0.2595
714.50 0.2593
714.60 0.2592
714.70 0.2591
714.80 0.2589
714.90 0.2588
715.00 0.2586
715.10 0.2585
715.20 0.2584
715.30 0.2582
715.40 0.2581
715.50 0.258
715.60 0.2578
715.70 0.2577
715.80 0.2575
715.90 0.2574
716.00 0.2573
716.10 0.2571
716.20 0.257
716.30 0.2569
716.40 0.2567
716.50 0.2566
716.60 0.2564
716.70 0.2563
716.80 0.2562
716.90 0.256
717.00 0.2559
717.10 0.2558
717.20 0.2556
717.30 0.2555
717.40 0.2553
717.50 0.2552
717.60 0.2551
717.70 0.2549
717.80 0.2548
717.90 0.2547
718.00 0.2545
718.10 0.2544
718.20 0.2543
718.30 0.2541
718.40 0.254
718.50 0.2538
718.60 0.2537
718.70 0.2536
718.80 0.2534
718.90 0.2533
719.00 0.2532
719.10 0.253
719.20 0.2529
719.30 0.2528
719.40 0.2526
719.50 0.2525
719.60 0.2524
719.70 0.2522
719.80 0.2521
719.90 0.252
720.00 0.2518
720.10 0.2517
720.20 0.2516
720.30 0.2514
720.40 0.2513
720.50 0.2512
720.60 0.251
720.70 0.2509
720.80 0.2508
720.90 0.2506
721.00 0.2505
721.10 0.2504
721.20 0.2502
721.30 0.2501
721.40 0.25
721.50 0.2498
721.60 0.2497
721.70 0.2496
721.80 0.2494
721.90 0.2493
722.00 0.2492
722.10 0.249
722.20 0.2489
722.30 0.2488
722.40 0.2486
722.50 0.2485
722.60 0.2484
722.70 0.2482
722.80 0.2481
722.90 0.248
723.00 0.2478
723.10 0.2477
723.20 0.2476
723.30 0.2474
723.40 0.2473
723.50 0.2472
723.60 0.247
723.70 0.2469
723.80 0.2468
723.90 0.2467
724.00 0.2465
724.10 0.2464
724.20 0.2463
724.30 0.2461
724.40 0.246
724.50 0.2459
724.60 0.2457
724.70 0.2456
724.80 0.2455
724.90 0.2453
725.00 0.2452
725.10 0.2451
725.20 0.245
725.30 0.2448
725.40 0.2447
725.50 0.2446
725.60 0.2444
725.70 0.2443
725.80 0.2442
725.90 0.2441
726.00 0.2439
726.10 0.2438
726.20 0.2437
726.30 0.2435
726.40 0.2434
726.50 0.2433
726.60 0.2432
726.70 0.243
726.80 0.2429
726.90 0.2428
727.00 0.2426
727.10 0.2425
727.20 0.2424
727.30 0.2423
727.40 0.2421
727.50 0.242
727.60 0.2419
727.70 0.2417
727.80 0.2416
727.90 0.2415
728.00 0.2414
728.10 0.2412
728.20 0.2411
728.30 0.241
728.40 0.2408
728.50 0.2407
728.60 0.2406
728.70 0.2405
728.80 0.2403
728.90 0.2402
729.00 0.2401
729.10 0.24
729.20 0.2398
729.30 0.2397
729.40 0.2396
729.50 0.2395
729.60 0.2393
729.70 0.2392
729.80 0.2391
729.90 0.2389
730.00 0.2388
730.10 0.2387
730.20 0.2386
730.30 0.2384
730.40 0.2383
730.50 0.2382
730.60 0.2381
730.70 0.2379
730.80 0.2378
730.90 0.2377
731.00 0.2376
731.10 0.2375
731.20 0.2373
731.30 0.2372
731.40 0.2371
731.50 0.237
731.60 0.2368
731.70 0.2367
731.80 0.2366
731.90 0.2365
732.00 0.2363
732.10 0.2362
732.20 0.2361
732.30 0.236
732.40 0.2358
732.50 0.2357
732.60 0.2356
732.70 0.2355
732.80 0.2354
732.90 0.2352
733.00 0.2351
733.10 0.235
733.20 0.2349
733.30 0.2347
733.40 0.2346
733.50 0.2345
733.60 0.2344
733.70 0.2342
733.80 0.2341
733.90 0.234
734.00 0.2339
734.10 0.2338
734.20 0.2336
734.30 0.2335
734.40 0.2334
734.50 0.2333
734.60 0.2331
734.70 0.233
734.80 0.2329
734.90 0.2328
735.00 0.2327
735.10 0.2325
735.20 0.2324
735.30 0.2323
735.40 0.2322
735.50 0.2321
735.60 0.2319
735.70 0.2318
735.80 0.2317
735.90 0.2316
736.00 0.2314
736.10 0.2313
736.20 0.2312
736.30 0.2311
736.40 0.231
736.50 0.2308
736.60 0.2307
736.70 0.2306
736.80 0.2305
736.90 0.2304
737.00 0.2302
737.10 0.2301
737.20 0.23
737.30 0.2299
737.40 0.2298
737.50 0.2296
737.60 0.2295
737.70 0.2294
737.80 0.2293
737.90 0.2292
738.00 0.229
738.10 0.2289
738.20 0.2288
738.30 0.2287
738.40 0.2286
738.50 0.2284
738.60 0.2283
738.70 0.2282
738.80 0.2281
738.90 0.228
739.00 0.2278
739.10 0.2277
739.20 0.2276
739.30 0.2275
739.40 0.2274
739.50 0.2272
739.60 0.2271
739.70 0.227
739.80 0.2269
739.90 0.2268
740.00 0.2266
740.10 0.2265
740.20 0.2264
740.30 0.2263
740.40 0.2262
740.50 0.2261
740.60 0.2259
740.70 0.2258
740.80 0.2257
740.90 0.2256
741.00 0.2255
741.10 0.2254
741.20 0.2252
741.30 0.2251
741.40 0.225
741.50 0.2249
741.60 0.2248
741.70 0.2247
741.80 0.2245
741.90 0.2244
742.00 0.2243
742.10 0.2242
742.20 0.2241
742.30 0.224
742.40 0.2239
742.50 0.2237
742.60 0.2236
742.70 0.2235
742.80 0.2234
742.90 0.2233
743.00 0.2232
743.10 0.223
743.20 0.2229
743.30 0.2228
743.40 0.2227
743.50 0.2226
743.60 0.2225
743.70 0.2224
743.80 0.2222
743.90 0.2221
744.00 0.222
744.10 0.2219
744.20 0.2218
744.30 0.2217
744.40 0.2216
744.50 0.2214
744.60 0.2213
744.70 0.2212
744.80 0.2211
744.90 0.221
745.00 0.2209
745.10 0.2208
745.20 0.2206
745.30 0.2205
745.40 0.2204
745.50 0.2203
745.60 0.2202
745.70 0.2201
745.80 0.22
745.90 0.2198
746.00 0.2197
746.10 0.2196
746.20 0.2195
746.30 0.2194
746.40 0.2193
746.50 0.2192
746.60 0.2191
746.70 0.2189
746.80 0.2188
746.90 0.2187
747.00 0.2186
747.10 0.2185
747.20 0.2184
747.30 0.2183
747.40 0.2181
747.50 0.218
747.60 0.2179
747.70 0.2178
747.80 0.2177
747.90 0.2176
748.00 0.2175
748.10 0.2174
748.20 0.2172
748.30 0.2171
748.40 0.217
748.50 0.2169
748.60 0.2168
748.70 0.2167
748.80 0.2166
748.90 0.2165
749.00 0.2163
749.10 0.2162
749.20 0.2161
749.30 0.216
749.40 0.2159
749.50 0.2158
749.60 0.2157
749.70 0.2156
749.80 0.2155
749.90 0.2153
750.00 0.2152
750.10 0.2151
750.20 0.215
750.30 0.2149
750.40 0.2148
750.50 0.2147
750.60 0.2146
750.70 0.2145
750.80 0.2144
750.90 0.2142
751.00 0.2141
751.10 0.214
751.20 0.2139
751.30 0.2138
751.40 0.2137
751.50 0.2136
751.60 0.2135
751.70 0.2134
751.80 0.2133
751.90 0.2132
752.00 0.213
752.10 0.2129
752.20 0.2128
752.30 0.2127
752.40 0.2126
752.50 0.2125
752.60 0.2124
752.70 0.2123
752.80 0.2122
752.90 0.2121
753.00 0.212
753.10 0.2119
753.20 0.2118
753.30 0.2116
753.40 0.2115
753.50 0.2114
753.60 0.2113
753.70 0.2112
753.80 0.2111
753.90 0.211
754.00 0.2109
754.10 0.2108
754.20 0.2107
754.30 0.2106
754.40 0.2105
754.50 0.2104
754.60 0.2102
754.70 0.2101
754.80 0.21
754.90 0.2099
755.00 0.2098
755.10 0.2097
755.20 0.2096
755.30 0.2095
755.40 0.2094
755.50 0.2093
755.60 0.2092
755.70 0.2091
755.80 0.209
755.90 0.2089
756.00 0.2087
756.10 0.2086
756.20 0.2085
756.30 0.2084
756.40 0.2083
756.50 0.2082
756.60 0.2081
756.70 0.208
756.80 0.2079
756.90 0.2078
757.00 0.2077
757.10 0.2076
757.20 0.2075
757.30 0.2074
757.40 0.2073
757.50 0.2072
757.60 0.207
757.70 0.2069
757.80 0.2068
757.90 0.2067
758.00 0.2066
758.10 0.2065
758.20 0.2064
758.30 0.2063
758.40 0.2062
758.50 0.2061
758.60 0.206
758.70 0.2059
758.80 0.2058
758.90 0.2057
759.00 0.2056
759.10 0.2055
759.20 0.2054
759.30 0.2053
759.40 0.2052
759.50 0.205
759.60 0.2049
759.70 0.2048
759.80 0.2047
759.90 0.2046
760.00 0.2045
760.10 0.2044
760.20 0.2043
760.30 0.2042
760.40 0.2041
760.50 0.204
760.60 0.2039
760.70 0.2038
760.80 0.2037
760.90 0.2036
761.00 0.2035
761.10 0.2034
761.20 0.2033
761.30 0.2032
761.40 0.2031
761.50 0.203
761.60 0.2029
761.70 0.2028
761.80 0.2027
761.90 0.2026
762.00 0.2025
762.10 0.2024
762.20 0.2023
762.30 0.2022
762.40 0.2021
762.50 0.202
762.60 0.2019
762.70 0.2018
762.80 0.2017
762.90 0.2016
763.00 0.2015
763.10 0.2014
763.20 0.2013
763.30 0.2012
763.40 0.2011
763.50 0.201
763.60 0.2009
763.70 0.2008
763.80 0.2007
763.90 0.2006
764.00 0.2005
764.10 0.2003
764.20 0.2002
764.30 0.2001
764.40 0.2
764.50 0.1999
764.60 0.1998
764.70 0.1997
764.80 0.1996
764.90 0.1995
765.00 0.1994
765.10 0.1993
765.20 0.1992
765.30 0.1991
765.40 0.199
765.50 0.1989
765.60 0.1988
765.70 0.1987
765.80 0.1986
765.90 0.1985
766.00 0.1984
766.10 0.1983
766.20 0.1982
766.30 0.1981
766.40 0.198
766.50 0.1979
766.60 0.1978
766.70 0.1977
766.80 0.1976
766.90 0.1975
767.00 0.1974
767.10 0.1973
767.20 0.1972
767.30 0.1971
767.40 0.197
767.50 0.1969
767.60 0.1968
767.70 0.1967
767.80 0.1966
767.90 0.1965
768.00 0.1964
768.10 0.1964
768.20 0.1963
768.30 0.1962
768.40 0.1961
768.50 0.196
768.60 0.1959
768.70 0.1958
768.80 0.1957
768.90 0.1956
769.00 0.1955
769.10 0.1954
769.20 0.1953
769.30 0.1952
769.40 0.1951
769.50 0.195
769.60 0.1949
769.70 0.1948
769.80 0.1947
769.90 0.1946
770.00 0.1945
770.10 0.1944
770.20 0.1943
770.30 0.1942
770.40 0.1941
770.50 0.194
770.60 0.1939
770.70 0.1938
770.80 0.1937
770.90 0.1936
771.00 0.1935
771.10 0.1934
771.20 0.1933
771.30 0.1932
771.40 0.1931
771.50 0.193
771.60 0.1929
771.70 0.1928
771.80 0.1927
771.90 0.1926
772.00 0.1926
772.10 0.1925
772.20 0.1924
772.30 0.1923
772.40 0.1922
772.50 0.1921
772.60 0.192
772.70 0.1919
772.80 0.1918
772.90 0.1917
773.00 0.1916
773.10 0.1915
773.20 0.1914
773.30 0.1913
773.40 0.1912
773.50 0.1911
773.60 0.191
773.70 0.1909
773.80 0.1908
773.90 0.1907
774.00 0.1906
774.10 0.1906
774.20 0.1905
774.30 0.1904
774.40 0.1903
774.50 0.1902
774.60 0.1901
774.70 0.19
774.80 0.1899
774.90 0.1898
775.00 0.1897
775.10 0.1896
775.20 0.1895
775.30 0.1894
775.40 0.1893
775.50 0.1892
775.60 0.1891
775.70 0.189
775.80 0.1889
775.90 0.1889
776.00 0.1888
776.10 0.1887
776.20 0.1886
776.30 0.1885
776.40 0.1884
776.50 0.1883
776.60 0.1882
776.70 0.1881
776.80 0.188
776.90 0.1879
777.00 0.1878
777.10 0.1877
777.20 0.1876
777.30 0.1875
777.40 0.1874
777.50 0.1874
777.60 0.1873
777.70 0.1872
777.80 0.1871
777.90 0.187
778.00 0.1869
778.10 0.1868
778.20 0.1867
778.30 0.1866
778.40 0.1865
778.50 0.1864
778.60 0.1863
778.70 0.1862
778.80 0.1861
778.90 0.1861
779.00 0.186
779.10 0.1859
779.20 0.1858
779.30 0.1857
779.40 0.1856
779.50 0.1855
779.60 0.1854
779.70 0.1853
779.80 0.1852
779.90 0.1851
780.00 0.185
780.10 0.1849
780.20 0.1849
780.30 0.1848
780.40 0.1847
780.50 0.1846
780.60 0.1845
780.70 0.1844
780.80 0.1843
780.90 0.1842
781.00 0.1841
781.10 0.184
781.20 0.184
781.30 0.1839
781.40 0.1838
781.50 0.1837
781.60 0.1836
781.70 0.1835
781.80 0.1834
781.90 0.1833
782.00 0.1832
782.10 0.1831
782.20 0.183
782.30 0.183
782.40 0.1829
782.50 0.1828
782.60 0.1827
782.70 0.1826
782.80 0.1825
782.90 0.1824
783.00 0.1823
783.10 0.1822
783.20 0.1822
783.30 0.1821
783.40 0.182
783.50 0.1819
783.60 0.1818
783.70 0.1817
783.80 0.1816
783.90 0.1815
784.00 0.1814
784.10 0.1814
784.20 0.1813
784.30 0.1812
784.40 0.1811
784.50 0.181
784.60 0.1809
784.70 0.1808
784.80 0.1807
784.90 0.1806
785.00 0.1805
785.10 0.1805
785.20 0.1804
785.30 0.1803
785.40 0.1802
785.50 0.1801
785.60 0.18
785.70 0.1799
785.80 0.1798
785.90 0.1798
786.00 0.1797
786.10 0.1796
786.20 0.1795
786.30 0.1794
786.40 0.1793
786.50 0.1792
786.60 0.1791
786.70 0.179
786.80 0.179
786.90 0.1789
787.00 0.1788
787.10 0.1787
787.20 0.1786
787.30 0.1785
787.40 0.1784
787.50 0.1783
787.60 0.1783
787.70 0.1782
787.80 0.1781
787.90 0.178
788.00 0.1779
788.10 0.1778
788.20 0.1777
788.30 0.1776
788.40 0.1776
788.50 0.1775
788.60 0.1774
788.70 0.1773
788.80 0.1772
788.90 0.1771
789.00 0.177
789.10 0.1769
789.20 0.1769
789.30 0.1768
789.40 0.1767
789.50 0.1766
789.60 0.1765
789.70 0.1764
789.80 0.1763
789.90 0.1762
790.00 0.1762
790.10 0.1761
790.20 0.176
790.30 0.1759
790.40 0.1758
790.50 0.1757
790.60 0.1757
790.70 0.1756
790.80 0.1755
790.90 0.1754
791.00 0.1753
791.10 0.1752
791.20 0.1751
791.30 0.1751
791.40 0.175
791.50 0.1749
791.60 0.1748
791.70 0.1747
791.80 0.1746
791.90 0.1745
792.00 0.1745
792.10 0.1744
792.20 0.1743
792.30 0.1742
792.40 0.1741
792.50 0.174
792.60 0.174
792.70 0.1739
792.80 0.1738
792.90 0.1737
793.00 0.1736
793.10 0.1735
793.20 0.1735
793.30 0.1734
793.40 0.1733
793.50 0.1732
793.60 0.1731
793.70 0.173
793.80 0.1729
793.90 0.1729
794.00 0.1728
794.10 0.1727
794.20 0.1726
794.30 0.1725
794.40 0.1724
794.50 0.1724
794.60 0.1723
794.70 0.1722
794.80 0.1721
794.90 0.172
795.00 0.1719
795.10 0.1719
795.20 0.1718
795.30 0.1717
795.40 0.1716
795.50 0.1715
795.60 0.1714
795.70 0.1714
795.80 0.1713
795.90 0.1712
796.00 0.1711
796.10 0.171
796.20 0.1709
796.30 0.1709
796.40 0.1708
796.50 0.1707
796.60 0.1706
796.70 0.1705
796.80 0.1704
796.90 0.1704
797.00 0.1703
797.10 0.1702
797.20 0.1701
797.30 0.17
797.40 0.1699
797.50 0.1699
797.60 0.1698
797.70 0.1697
797.80 0.1696
797.90 0.1695
798.00 0.1695
798.10 0.1694
798.20 0.1693
798.30 0.1692
798.40 0.1691
798.50 0.169
798.60 0.169
798.70 0.1689
798.80 0.1688
798.90 0.1687
799.00 0.1686
799.10 0.1686
799.20 0.1685
799.30 0.1684
799.40 0.1683
799.50 0.1682
799.60 0.1681
799.70 0.1681
799.80 0.168
799.90 0.1679
800.00 0.1678
800.10 0.1677
800.20 0.1677
800.30 0.1676
800.40 0.1675
800.50 0.1674
800.60 0.1673
800.70 0.1673
800.80 0.1672
800.90 0.1671
801.00 0.167
801.10 0.1669
801.20 0.1669
801.30 0.1668
801.40 0.1667
801.50 0.1666
801.60 0.1665
801.70 0.1665
801.80 0.1664
801.90 0.1663
802.00 0.1662
802.10 0.1661
802.20 0.1661
802.30 0.166
802.40 0.1659
802.50 0.1658
802.60 0.1657
802.70 0.1657
802.80 0.1656
802.90 0.1655
803.00 0.1654
803.10 0.1653
803.20 0.1653
803.30 0.1652
803.40 0.1651
803.50 0.165
803.60 0.1649
803.70 0.1649
803.80 0.1648
803.90 0.1647
804.00 0.1646
804.10 0.1646
804.20 0.1645
804.30 0.1644
804.40 0.1643
804.50 0.1642
804.60 0.1642
804.70 0.1641
804.80 0.164
804.90 0.1639
805.00 0.1638
805.10 0.1638
805.20 0.1637
805.30 0.1636
805.40 0.1635
805.50 0.1634
805.60 0.1634
805.70 0.1633
805.80 0.1632
805.90 0.1631
806.00 0.1631
806.10 0.163
806.20 0.1629
806.30 0.1628
806.40 0.1627
806.50 0.1627
806.60 0.1626
806.70 0.1625
806.80 0.1624
806.90 0.1624
807.00 0.1623
807.10 0.1622
807.20 0.1621
807.30 0.162
807.40 0.162
807.50 0.1619
807.60 0.1618
807.70 0.1617
807.80 0.1617
807.90 0.1616
808.00 0.1615
808.10 0.1614
808.20 0.1613
808.30 0.1613
808.40 0.1612
808.50 0.1611
808.60 0.161
808.70 0.161
808.80 0.1609
808.90 0.1608
809.00 0.1607
809.10 0.1606
809.20 0.1606
809.30 0.1605
809.40 0.1604
809.50 0.1603
809.60 0.1603
809.70 0.1602
809.80 0.1601
809.90 0.16
810.00 0.16
810.10 0.1599
810.20 0.1598
810.30 0.1597
810.40 0.1597
810.50 0.1596
810.60 0.1595
810.70 0.1594
810.80 0.1594
810.90 0.1593
811.00 0.1592
811.10 0.1591
811.20 0.159
811.30 0.159
811.40 0.1589
811.50 0.1588
811.60 0.1587
811.70 0.1587
811.80 0.1586
811.90 0.1585
812.00 0.1584
812.10 0.1584
812.20 0.1583
812.30 0.1582
812.40 0.1581
812.50 0.1581
812.60 0.158
812.70 0.1579
812.80 0.1578
812.90 0.1578
813.00 0.1577
813.10 0.1576
813.20 0.1576
813.30 0.1575
813.40 0.1574
813.50 0.1573
813.60 0.1573
813.70 0.1572
813.80 0.1571
813.90 0.157
814.00 0.157
814.10 0.1569
814.20 0.1568
814.30 0.1567
814.40 0.1567
814.50 0.1566
814.60 0.1565
814.70 0.1564
814.80 0.1564
814.90 0.1563
815.00 0.1562
815.10 0.1561
815.20 0.1561
815.30 0.156
815.40 0.1559
815.50 0.1558
815.60 0.1558
815.70 0.1557
815.80 0.1556
815.90 0.1555
816.00 0.1555
816.10 0.1554
816.20 0.1553
816.30 0.1553
816.40 0.1552
816.50 0.1551
816.60 0.155
816.70 0.155
816.80 0.1549
816.90 0.1548
817.00 0.1547
817.10 0.1547
817.20 0.1546
817.30 0.1545
817.40 0.1544
817.50 0.1544
817.60 0.1543
817.70 0.1542
817.80 0.1542
817.90 0.1541
818.00 0.154
818.10 0.1539
818.20 0.1539
818.30 0.1538
818.40 0.1537
818.50 0.1536
818.60 0.1536
818.70 0.1535
818.80 0.1534
818.90 0.1534
819.00 0.1533
819.10 0.1532
819.20 0.1531
819.30 0.1531
819.40 0.153
819.50 0.1529
819.60 0.1528
819.70 0.1528
819.80 0.1527
819.90 0.1526
820.00 0.1526
820.10 0.1525
820.20 0.1524
820.30 0.1523
820.40 0.1523
820.50 0.1522
820.60 0.1521
820.70 0.152
820.80 0.152
820.90 0.1519
821.00 0.1518
821.10 0.1518
821.20 0.1517
821.30 0.1516
821.40 0.1515
821.50 0.1515
821.60 0.1514
821.70 0.1513
821.80 0.1513
821.90 0.1512
822.00 0.1511
822.10 0.1511
822.20 0.151
822.30 0.1509
822.40 0.1508
822.50 0.1508
822.60 0.1507
822.70 0.1506
822.80 0.1506
822.90 0.1505
823.00 0.1504
823.10 0.1503
823.20 0.1503
823.30 0.1502
823.40 0.1501
823.50 0.1501
823.60 0.15
823.70 0.1499
823.80 0.1499
823.90 0.1498
824.00 0.1497
824.10 0.1496
824.20 0.1496
824.30 0.1495
824.40 0.1494
824.50 0.1494
824.60 0.1493
824.70 0.1492
824.80 0.1492
824.90 0.1491
825.00 0.149
825.10 0.1489
825.20 0.1489
825.30 0.1488
825.40 0.1487
825.50 0.1487
825.60 0.1486
825.70 0.1485
825.80 0.1485
825.90 0.1484
826.00 0.1483
826.10 0.1482
826.20 0.1482
826.30 0.1481
826.40 0.148
826.50 0.148
826.60 0.1479
826.70 0.1478
826.80 0.1478
826.90 0.1477
827.00 0.1476
827.10 0.1476
827.20 0.1475
827.30 0.1474
827.40 0.1473
827.50 0.1473
827.60 0.1472
827.70 0.1471
827.80 0.1471
827.90 0.147
828.00 0.1469
828.10 0.1469
828.20 0.1468
828.30 0.1467
828.40 0.1467
828.50 0.1466
828.60 0.1465
828.70 0.1465
828.80 0.1464
828.90 0.1463
829.00 0.1463
829.10 0.1462
829.20 0.1461
829.30 0.146
829.40 0.146
829.50 0.1459
829.60 0.1458
829.70 0.1458
829.80 0.1457
829.90 0.1456
830.00 0.1456
830.10 0.1455
830.20 0.1454
830.30 0.1454
830.40 0.1453
830.50 0.1452
830.60 0.1452
830.70 0.1451
830.80 0.145
830.90 0.145
831.00 0.1449
831.10 0.1448
831.20 0.1448
831.30 0.1447
831.40 0.1446
831.50 0.1446
831.60 0.1445
831.70 0.1444
831.80 0.1444
831.90 0.1443
832.00 0.1442
832.10 0.1442
832.20 0.1441
832.30 0.144
832.40 0.144
832.50 0.1439
832.60 0.1438
832.70 0.1438
832.80 0.1437
832.90 0.1436
833.00 0.1436
833.10 0.1435
833.20 0.1434
833.30 0.1434
833.40 0.1433
833.50 0.1432
833.60 0.1432
833.70 0.1431
833.80 0.143
833.90 0.143
834.00 0.1429
834.10 0.1428
834.20 0.1428
834.30 0.1427
834.40 0.1426
834.50 0.1426
834.60 0.1425
834.70 0.1424
834.80 0.1424
834.90 0.1423
835.00 0.1422
835.10 0.1422
835.20 0.1421
835.30 0.142
835.40 0.142
835.50 0.1419
835.60 0.1418
835.70 0.1418
835.80 0.1417
835.90 0.1416
836.00 0.1416
836.10 0.1415
836.20 0.1414
836.30 0.1414
836.40 0.1413
836.50 0.1412
836.60 0.1412
836.70 0.1411
836.80 0.141
836.90 0.141
837.00 0.1409
837.10 0.1408
837.20 0.1408
837.30 0.1407
837.40 0.1406
837.50 0.1406
837.60 0.1405
837.70 0.1404
837.80 0.1404
837.90 0.1403
838.00 0.1403
838.10 0.1402
838.20 0.1401
838.30 0.1401
838.40 0.14
838.50 0.1399
838.60 0.1399
838.70 0.1398
838.80 0.1397
838.90 0.1397
839.00 0.1396
839.10 0.1395
839.20 0.1395
839.30 0.1394
839.40 0.1393
839.50 0.1393
839.60 0.1392
839.70 0.1392
839.80 0.1391
839.90 0.139
840.00 0.139
840.10 0.1389
840.20 0.1388
840.30 0.1388
840.40 0.1387
840.50 0.1386
840.60 0.1386
840.70 0.1385
840.80 0.1384
840.90 0.1384
841.00 0.1383
841.10 0.1383
841.20 0.1382
841.30 0.1381
841.40 0.1381
841.50 0.138
841.60 0.1379
841.70 0.1379
841.80 0.1378
841.90 0.1377
842.00 0.1377
842.10 0.1376
842.20 0.1376
842.30 0.1375
842.40 0.1374
842.50 0.1374
842.60 0.1373
842.70 0.1372
842.80 0.1372
842.90 0.1371
843.00 0.137
843.10 0.137
843.20 0.1369
843.30 0.1369
843.40 0.1368
843.50 0.1367
843.60 0.1367
843.70 0.1366
843.80 0.1365
843.90 0.1365
844.00 0.1364
844.10 0.1363
844.20 0.1363
844.30 0.1362
844.40 0.1362
844.50 0.1361
844.60 0.136
844.70 0.136
844.80 0.1359
844.90 0.1358
845.00 0.1358
845.10 0.1357
845.20 0.1357
845.30 0.1356
845.40 0.1355
845.50 0.1355
845.60 0.1354
845.70 0.1353
845.80 0.1353
845.90 0.1352
846.00 0.1352
846.10 0.1351
846.20 0.135
846.30 0.135
846.40 0.1349
846.50 0.1348
846.60 0.1348
846.70 0.1347
846.80 0.1347
846.90 0.1346
847.00 0.1345
847.10 0.1345
847.20 0.1344
847.30 0.1343
847.40 0.1343
847.50 0.1342
847.60 0.1342
847.70 0.1341
847.80 0.134
847.90 0.134
848.00 0.1339
848.10 0.1339
848.20 0.1338
848.30 0.1337
848.40 0.1337
848.50 0.1336
848.60 0.1335
848.70 0.1335
848.80 0.1334
848.90 0.1334
849.00 0.1333
849.10 0.1332
849.20 0.1332
849.30 0.1331
849.40 0.1331
849.50 0.133
849.60 0.1329
849.70 0.1329
849.80 0.1328
849.90 0.1328
850.00 0.1327
850.10 0.1326
850.20 0.1326
850.30 0.1325
850.40 0.1324
850.50 0.1324
850.60 0.1323
850.70 0.1323
850.80 0.1322
850.90 0.1321
851.00 0.1321
851.10 0.132
851.20 0.132
851.30 0.1319
851.40 0.1318
851.50 0.1318
851.60 0.1317
851.70 0.1317
851.80 0.1316
851.90 0.1315
852.00 0.1315
852.10 0.1314
852.20 0.1314
852.30 0.1313
852.40 0.1312
852.50 0.1312
852.60 0.1311
852.70 0.1311
852.80 0.131
852.90 0.1309
853.00 0.1309
853.10 0.1308
853.20 0.1308
853.30 0.1307
853.40 0.1306
853.50 0.1306
853.60 0.1305
853.70 0.1305
853.80 0.1304
853.90 0.1303
854.00 0.1303
854.10 0.1302
854.20 0.1302
854.30 0.1301
854.40 0.13
854.50 0.13
854.60 0.1299
854.70 0.1299
854.80 0.1298
854.90 0.1297
855.00 0.1297
855.10 0.1296
855.20 0.1296
855.30 0.1295
855.40 0.1295
855.50 0.1294
855.60 0.1293
855.70 0.1293
855.80 0.1292
855.90 0.1292
856.00 0.1291
856.10 0.129
856.20 0.129
856.30 0.1289
856.40 0.1289
856.50 0.1288
856.60 0.1287
856.70 0.1287
856.80 0.1286
856.90 0.1286
857.00 0.1285
857.10 0.1285
857.20 0.1284
857.30 0.1283
857.40 0.1283
857.50 0.1282
857.60 0.1282
857.70 0.1281
857.80 0.1281
857.90 0.128
858.00 0.1279
858.10 0.1279
858.20 0.1278
858.30 0.1278
858.40 0.1277
858.50 0.1277
858.60 0.1276
858.70 0.1275
858.80 0.1275
858.90 0.1274
859.00 0.1274
859.10 0.1273
859.20 0.1273
859.30 0.1272
859.40 0.1271
859.50 0.1271
859.60 0.127
859.70 0.127
859.80 0.1269
859.90 0.1269
860.00 0.1268
860.10 0.1267
860.20 0.1267
860.30 0.1266
860.40 0.1266
860.50 0.1265
860.60 0.1265
860.70 0.1264
860.80 0.1263
860.90 0.1263
861.00 0.1262
861.10 0.1262
861.20 0.1261
861.30 0.1261
861.40 0.126
861.50 0.126
861.60 0.1259
861.70 0.1258
861.80 0.1258
861.90 0.1257
862.00 0.1257
862.10 0.1256
862.20 0.1256
862.30 0.1255
862.40 0.1254
862.50 0.1254
862.60 0.1253
862.70 0.1253
862.80 0.1252
862.90 0.1252
863.00 0.1251
863.10 0.125
863.20 0.125
863.30 0.1249
863.40 0.1249
863.50 0.1248
863.60 0.1248
863.70 0.1247
863.80 0.1247
863.90 0.1246
864.00 0.1245
864.10 0.1245
864.20 0.1244
864.30 0.1244
864.40 0.1243
864.50 0.1243
864.60 0.1242
864.70 0.1241
864.80 0.1241
864.90 0.124
865.00 0.124
865.10 0.1239
865.20 0.1239
865.30 0.1238
865.40 0.1238
865.50 0.1237
865.60 0.1236
865.70 0.1236
865.80 0.1235
865.90 0.1235
866.00 0.1234
866.10 0.1234
866.20 0.1233
866.30 0.1233
866.40 0.1232
866.50 0.1231
866.60 0.1231
866.70 0.123
866.80 0.123
866.90 0.1229
867.00 0.1229
867.10 0.1228
867.20 0.1228
867.30 0.1227
867.40 0.1226
867.50 0.1226
867.60 0.1225
867.70 0.1225
867.80 0.1224
867.90 0.1224
868.00 0.1223
868.10 0.1223
868.20 0.1222
868.30 0.1221
868.40 0.1221
868.50 0.122
868.60 0.122
868.70 0.1219
868.80 0.1219
868.90 0.1218
869.00 0.1218
869.10 0.1217
869.20 0.1217
869.30 0.1216
869.40 0.1216
869.50 0.1215
869.60 0.1214
869.70 0.1214
869.80 0.1213
869.90 0.1213
870.00 0.1212
870.10 0.1212
870.20 0.1211
870.30 0.1211
870.40 0.121
870.50 0.121
870.60 0.1209
870.70 0.1208
870.80 0.1208
870.90 0.1207
871.00 0.1207
871.10 0.1206
871.20 0.1206
871.30 0.1205
871.40 0.1205
871.50 0.1204
871.60 0.1204
871.70 0.1203
871.80 0.1203
871.90 0.1202
872.00 0.1201
872.10 0.1201
872.20 0.12
872.30 0.12
872.40 0.1199
872.50 0.1199
872.60 0.1198
872.70 0.1198
872.80 0.1197
872.90 0.1197
873.00 0.1196
873.10 0.1196
873.20 0.1195
873.30 0.1195
873.40 0.1194
873.50 0.1193
873.60 0.1193
873.70 0.1192
873.80 0.1192
873.90 0.1191
874.00 0.1191
874.10 0.119
874.20 0.119
874.30 0.1189
874.40 0.1189
874.50 0.1188
874.60 0.1188
874.70 0.1187
874.80 0.1187
874.90 0.1186
875.00 0.1186
875.10 0.1185
875.20 0.1184
875.30 0.1184
875.40 0.1183
875.50 0.1183
875.60 0.1182
875.70 0.1182
875.80 0.1181
875.90 0.1181
876.00 0.118
876.10 0.118
876.20 0.1179
876.30 0.1179
876.40 0.1178
876.50 0.1178
876.60 0.1177
876.70 0.1177
876.80 0.1176
876.90 0.1176
877.00 0.1175
877.10 0.1174
877.20 0.1174
877.30 0.1173
877.40 0.1173
877.50 0.1172
877.60 0.1172
877.70 0.1171
877.80 0.1171
877.90 0.117
878.00 0.117
878.10 0.1169
878.20 0.1169
878.30 0.1168
878.40 0.1168
878.50 0.1167
878.60 0.1167
878.70 0.1166
878.80 0.1166
878.90 0.1165
879.00 0.1165
879.10 0.1164
879.20 0.1164
879.30 0.1163
879.40 0.1163
879.50 0.1162
879.60 0.1162
879.70 0.1161
879.80 0.1161
879.90 0.116
880.00 0.116
880.10 0.1159
880.20 0.1159
880.30 0.1158
880.40 0.1157
880.50 0.1157
880.60 0.1156
880.70 0.1156
880.80 0.1155
880.90 0.1155
881.00 0.1154
881.10 0.1154
881.20 0.1153
881.30 0.1153
881.40 0.1152
881.50 0.1152
881.60 0.1151
881.70 0.1151
881.80 0.115
881.90 0.115
882.00 0.1149
882.10 0.1149
882.20 0.1148
882.30 0.1148
882.40 0.1147
882.50 0.1147
882.60 0.1146
882.70 0.1146
882.80 0.1145
882.90 0.1145
883.00 0.1144
883.10 0.1144
883.20 0.1143
883.30 0.1143
883.40 0.1142
883.50 0.1142
883.60 0.1141
883.70 0.1141
883.80 0.114
883.90 0.114
884.00 0.1139
884.10 0.1139
884.20 0.1138
884.30 0.1138
884.40 0.1137
884.50 0.1137
884.60 0.1136
884.70 0.1136
884.80 0.1135
884.90 0.1135
885.00 0.1134
885.10 0.1134
885.20 0.1133
885.30 0.1133
885.40 0.1132
885.50 0.1132
885.60 0.1131
885.70 0.1131
885.80 0.113
885.90 0.113
886.00 0.1129
886.10 0.1129
886.20 0.1128
886.30 0.1128
886.40 0.1127
886.50 0.1127
886.60 0.1126
886.70 0.1126
886.80 0.1125
886.90 0.1125
887.00 0.1124
887.10 0.1124
887.20 0.1123
887.30 0.1123
887.40 0.1122
887.50 0.1122
887.60 0.1121
887.70 0.1121
887.80 0.112
887.90 0.112
888.00 0.112
888.10 0.1119
888.20 0.1119
888.30 0.1118
888.40 0.1118
888.50 0.1117
888.60 0.1117
888.70 0.1116
888.80 0.1116
888.90 0.1115
889.00 0.1115
889.10 0.1114
889.20 0.1114
889.30 0.1113
889.40 0.1113
889.50 0.1112
889.60 0.1112
889.70 0.1111
889.80 0.1111
889.90 0.111
890.00 0.111
890.10 0.1109
890.20 0.1109
890.30 0.1108
890.40 0.1108
890.50 0.1107
890.60 0.1107
890.70 0.1106
890.80 0.1106
890.90 0.1105
891.00 0.1105
891.10 0.1105
891.20 0.1104
891.30 0.1104
891.40 0.1103
891.50 0.1103
891.60 0.1102
891.70 0.1102
891.80 0.1101
891.90 0.1101
892.00 0.11
892.10 0.11
892.20 0.1099
892.30 0.1099
892.40 0.1098
892.50 0.1098
892.60 0.1097
892.70 0.1097
892.80 0.1096
892.90 0.1096
893.00 0.1095
893.10 0.1095
893.20 0.1094
893.30 0.1094
893.40 0.1094
893.50 0.1093
893.60 0.1093
893.70 0.1092
893.80 0.1092
893.90 0.1091
894.00 0.1091
894.10 0.109
894.20 0.109
894.30 0.1089
894.40 0.1089
894.50 0.1088
894.60 0.1088
894.70 0.1087
894.80 0.1087
894.90 0.1086
895.00 0.1086
895.10 0.1086
895.20 0.1085
895.30 0.1085
895.40 0.1084
895.50 0.1084
895.60 0.1083
895.70 0.1083
895.80 0.1082
895.90 0.1082
896.00 0.1081
896.10 0.1081
896.20 0.108
896.30 0.108
896.40 0.1079
896.50 0.1079
896.60 0.1079
896.70 0.1078
896.80 0.1078
896.90 0.1077
897.00 0.1077
897.10 0.1076
897.20 0.1076
897.30 0.1075
897.40 0.1075
897.50 0.1074
897.60 0.1074
897.70 0.1073
897.80 0.1073
897.90 0.1073
898.00 0.1072
898.10 0.1072
898.20 0.1071
898.30 0.1071
898.40 0.107
898.50 0.107
898.60 0.1069
898.70 0.1069
898.80 0.1068
898.90 0.1068
899.00 0.1067
899.10 0.1067
899.20 0.1067
899.30 0.1066
899.40 0.1066
899.50 0.1065
899.60 0.1065
899.70 0.1064
899.80 0.1064
899.90 0.1063
900.00 0.1063
900.10 0.1062
900.20 0.1062
900.30 0.1062
900.40 0.1061
900.50 0.1061
900.60 0.106
900.70 0.106
900.80 0.1059
900.90 0.1059
901.00 0.1058
901.10 0.1058
901.20 0.1057
901.30 0.1057
901.40 0.1057
901.50 0.1056
901.60 0.1056
901.70 0.1055
901.80 0.1055
901.90 0.1054
902.00 0.1054
902.10 0.1053
902.20 0.1053
902.30 0.1052
902.40 0.1052
902.50 0.1052
902.60 0.1051
902.70 0.1051
902.80 0.105
902.90 0.105
903.00 0.1049
903.10 0.1049
903.20 0.1048
903.30 0.1048
903.40 0.1048
903.50 0.1047
903.60 0.1047
903.70 0.1046
903.80 0.1046
903.90 0.1045
904.00 0.1045
904.10 0.1044
904.20 0.1044
904.30 0.1044
904.40 0.1043
904.50 0.1043
904.60 0.1042
904.70 0.1042
904.80 0.1041
904.90 0.1041
905.00 0.104
905.10 0.104
905.20 0.104
905.30 0.1039
905.40 0.1039
905.50 0.1038
905.60 0.1038
905.70 0.1037
905.80 0.1037
905.90 0.1036
906.00 0.1036
906.10 0.1036
906.20 0.1035
906.30 0.1035
906.40 0.1034
906.50 0.1034
906.60 0.1033
906.70 0.1033
906.80 0.1032
906.90 0.1032
907.00 0.1032
907.10 0.1031
907.20 0.1031
907.30 0.103
907.40 0.103
907.50 0.1029
907.60 0.1029
907.70 0.1029
907.80 0.1028
907.90 0.1028
908.00 0.1027
908.10 0.1027
908.20 0.1026
908.30 0.1026
908.40 0.1026
908.50 0.1025
908.60 0.1025
908.70 0.1024
908.80 0.1024
908.90 0.1023
909.00 0.1023
909.10 0.1022
909.20 0.1022
909.30 0.1022
909.40 0.1021
909.50 0.1021
909.60 0.102
909.70 0.102
909.80 0.1019
909.90 0.1019
910.00 0.1019
910.10 0.1018
910.20 0.1018
910.30 0.1017
910.40 0.1017
910.50 0.1016
910.60 0.1016
910.70 0.1016
910.80 0.1015
910.90 0.1015
911.00 0.1014
911.10 0.1014
911.20 0.1013
911.30 0.1013
911.40 0.1013
911.50 0.1012
911.60 0.1012
911.70 0.1011
911.80 0.1011
911.90 0.101
912.00 0.101
912.10 0.101
912.20 0.1009
912.30 0.1009
912.40 0.1008
912.50 0.1008
912.60 0.1007
912.70 0.1007
912.80 0.1007
912.90 0.1006
913.00 0.1006
913.10 0.1005
913.20 0.1005
913.30 0.1004
913.40 0.1004
913.50 0.1004
913.60 0.1003
913.70 0.1003
913.80 0.1002
913.90 0.1002
914.00 0.1002
914.10 0.1001
914.20 0.1001
914.30 0.1
914.40 0.09998
914.50 0.09994
914.60 0.0999
914.70 0.09986
914.80 0.09981
914.90 0.09977
915.00 0.09973
915.10 0.09969
915.20 0.09965
915.30 0.0996
915.40 0.09956
915.50 0.09952
915.60 0.09948
915.70 0.09943
915.80 0.09939
915.90 0.09935
916.00 0.09931
916.10 0.09927
916.20 0.09922
916.30 0.09918
916.40 0.09914
916.50 0.0991
916.60 0.09906
916.70 0.09902
916.80 0.09897
916.90 0.09893
917.00 0.09889
917.10 0.09885
917.20 0.09881
917.30 0.09877
917.40 0.09872
917.50 0.09868
917.60 0.09864
917.70 0.0986
917.80 0.09856
917.90 0.09852
918.00 0.09848
918.10 0.09844
918.20 0.09839
918.30 0.09835
918.40 0.09831
918.50 0.09827
918.60 0.09823
918.70 0.09819
918.80 0.09815
918.90 0.09811
919.00 0.09806
919.10 0.09802
919.20 0.09798
919.30 0.09794
919.40 0.0979
919.50 0.09786
919.60 0.09782
919.70 0.09778
919.80 0.09774
919.90 0.0977
920.00 0.09765
920.10 0.09761
920.20 0.09757
920.30 0.09753
920.40 0.09749
920.50 0.09745
920.60 0.09741
920.70 0.09737
920.80 0.09733
920.90 0.09729
921.00 0.09725
921.10 0.09721
921.20 0.09716
921.30 0.09712
921.40 0.09708
921.50 0.09704
921.60 0.097
921.70 0.09696
921.80 0.09692
921.90 0.09688
922.00 0.09684
922.10 0.0968
922.20 0.09676
922.30 0.09672
922.40 0.09668
922.50 0.09664
922.60 0.0966
922.70 0.09656
922.80 0.09652
922.90 0.09648
923.00 0.09644
923.10 0.0964
923.20 0.09636
923.30 0.09632
923.40 0.09628
923.50 0.09624
923.60 0.0962
923.70 0.09616
923.80 0.09612
923.90 0.09608
924.00 0.09605
924.10 0.09601
924.20 0.09597
924.30 0.09593
924.40 0.09589
924.50 0.09585
924.60 0.09581
924.70 0.09577
924.80 0.09573
924.90 0.09569
925.00 0.09565
925.10 0.09561
925.20 0.09557
925.30 0.09553
925.40 0.09549
925.50 0.09545
925.60 0.09541
925.70 0.09538
925.80 0.09534
925.90 0.0953
926.00 0.09526
926.10 0.09522
926.20 0.09518
926.30 0.09514
926.40 0.0951
926.50 0.09506
926.60 0.09502
926.70 0.09498
926.80 0.09494
926.90 0.0949
927.00 0.09487
927.10 0.09483
927.20 0.09479
927.30 0.09475
927.40 0.09471
927.50 0.09467
927.60 0.09463
927.70 0.0946
927.80 0.09456
927.90 0.09452
928.00 0.09448
928.10 0.09444
928.20 0.0944
928.30 0.09436
928.40 0.09433
928.50 0.09429
928.60 0.09425
928.70 0.09421
928.80 0.09417
928.90 0.09413
929.00 0.09409
929.10 0.09406
929.20 0.09402
929.30 0.09398
929.40 0.09394
929.50 0.0939
929.60 0.09386
929.70 0.09383
929.80 0.09379
929.90 0.09375
930.00 0.09371
930.10 0.09367
930.20 0.09364
930.30 0.0936
930.40 0.09356
930.50 0.09352
930.60 0.09348
930.70 0.09344
930.80 0.09341
930.90 0.09337
931.00 0.09333
931.10 0.09329
931.20 0.09325
931.30 0.09322
931.40 0.09318
931.50 0.09314
931.60 0.0931
931.70 0.09306
931.80 0.09303
931.90 0.09299
932.00 0.09295
932.10 0.09291
932.20 0.09287
932.30 0.09284
932.40 0.0928
932.50 0.09276
932.60 0.09272
932.70 0.09268
932.80 0.09265
932.90 0.09261
933.00 0.09257
933.10 0.09253
933.20 0.09249
933.30 0.09246
933.40 0.09242
933.50 0.09238
933.60 0.09234
933.70 0.0923
933.80 0.09227
933.90 0.09223
934.00 0.09219
934.10 0.09215
934.20 0.09212
934.30 0.09208
934.40 0.09204
934.50 0.092
934.60 0.09196
934.70 0.09193
934.80 0.09189
934.90 0.09185
935.00 0.09181
935.10 0.09177
935.20 0.09174
935.30 0.0917
935.40 0.09166
935.50 0.09162
935.60 0.09159
935.70 0.09155
935.80 0.09151
935.90 0.09147
936.00 0.09144
936.10 0.0914
936.20 0.09136
936.30 0.09132
936.40 0.09128
936.50 0.09125
936.60 0.09121
936.70 0.09117
936.80 0.09113
936.90 0.0911
937.00 0.09106
937.10 0.09102
937.20 0.09098
937.30 0.09095
937.40 0.09091
937.50 0.09087
937.60 0.09083
937.70 0.0908
937.80 0.09076
937.90 0.09072
938.00 0.09068
938.10 0.09065
938.20 0.09061
938.30 0.09057
938.40 0.09053
938.50 0.0905
938.60 0.09046
938.70 0.09042
938.80 0.09038
938.90 0.09034
939.00 0.09031
939.10 0.09027
939.20 0.09023
939.30 0.09019
939.40 0.09016
939.50 0.09012
939.60 0.09008
939.70 0.09004
939.80 0.09001
939.90 0.08997
940.00 0.08993
940.10 0.0899
940.20 0.08986
940.30 0.08982
940.40 0.08978
940.50 0.08975
940.60 0.08971
940.70 0.08967
940.80 0.08963
940.90 0.0896
941.00 0.08956
941.10 0.08952
941.20 0.08948
941.30 0.08945
941.40 0.08941
941.50 0.08937
941.60 0.08933
941.70 0.0893
941.80 0.08926
941.90 0.08922
942.00 0.08919
942.10 0.08915
942.20 0.08911
942.30 0.08907
942.40 0.08904
942.50 0.089
942.60 0.08896
942.70 0.08892
942.80 0.08889
942.90 0.08885
943.00 0.08881
943.10 0.08877
943.20 0.08874
943.30 0.0887
943.40 0.08866
943.50 0.08863
943.60 0.08859
943.70 0.08855
943.80 0.08851
943.90 0.08848
944.00 0.08844
944.10 0.0884
944.20 0.08837
944.30 0.08833
944.40 0.08829
944.50 0.08825
944.60 0.08822
944.70 0.08818
944.80 0.08814
944.90 0.08811
945.00 0.08807
945.10 0.08803
945.20 0.08799
945.30 0.08796
945.40 0.08792
945.50 0.08788
945.60 0.08785
945.70 0.08781
945.80 0.08777
945.90 0.08773
946.00 0.0877
946.10 0.08766
946.20 0.08762
946.30 0.08759
946.40 0.08755
946.50 0.08751
946.60 0.08748
946.70 0.08744
946.80 0.0874
946.90 0.08736
947.00 0.08733
947.10 0.08729
947.20 0.08725
947.30 0.08722
947.40 0.08718
947.50 0.08714
947.60 0.08711
947.70 0.08707
947.80 0.08703
947.90 0.087
948.00 0.08696
948.10 0.08692
948.20 0.08689
948.30 0.08685
948.40 0.08681
948.50 0.08678
948.60 0.08674
948.70 0.0867
948.80 0.08667
948.90 0.08663
949.00 0.08659
949.10 0.08656
949.20 0.08652
949.30 0.08648
949.40 0.08645
949.50 0.08641
949.60 0.08637
949.70 0.08634
949.80 0.0863
949.90 0.08626
950.00 0.08623
950.10 0.08619
950.20 0.08615
950.30 0.08612
950.40 0.08608
950.50 0.08605
950.60 0.08601
950.70 0.08597
950.80 0.08594
950.90 0.0859
951.00 0.08586
951.10 0.08583
951.20 0.08579
951.30 0.08576
951.40 0.08572
951.50 0.08568
951.60 0.08565
951.70 0.08561
951.80 0.08558
951.90 0.08554
952.00 0.0855
952.10 0.08547
952.20 0.08543
952.30 0.0854
952.40 0.08536
952.50 0.08533
952.60 0.08529
952.70 0.08526
952.80 0.08522
952.90 0.08519
953.00 0.08515
953.10 0.08512
953.20 0.08508
953.30 0.08505
953.40 0.08501
953.50 0.08498
953.60 0.08494
953.70 0.08491
953.80 0.08487
953.90 0.08484
954.00 0.0848
954.10 0.08477
954.20 0.08474
954.30 0.0847
954.40 0.08467
954.50 0.08464
954.60 0.0846
954.70 0.08457
954.80 0.08453
954.90 0.0845
955.00 0.08447
955.10 0.08443
955.20 0.0844
955.30 0.08437
955.40 0.08434
955.50 0.0843
955.60 0.08427
955.70 0.08424
955.80 0.0842
955.90 0.08417
956.00 0.08414
956.10 0.08411
956.20 0.08408
956.30 0.08404
956.40 0.08401
956.50 0.08398
956.60 0.08395
956.70 0.08392
956.80 0.08388
956.90 0.08385
957.00 0.08382
957.10 0.08379
957.20 0.08376
957.30 0.08373
957.40 0.0837
957.50 0.08366
957.60 0.08363
957.70 0.0836
957.80 0.08357
957.90 0.08354
958.00 0.08351
958.10 0.08348
958.20 0.08344
958.30 0.08341
958.40 0.08338
958.50 0.08335
958.60 0.08332
958.70 0.08329
958.80 0.08326
958.90 0.08323
959.00 0.0832
959.10 0.08316
959.20 0.08313
959.30 0.0831
959.40 0.08307
959.50 0.08304
959.60 0.08301
959.70 0.08298
959.80 0.08295
959.90 0.08292
960.00 0.08289
960.10 0.08286
960.20 0.08282
960.30 0.08279
960.40 0.08276
960.50 0.08273
960.60 0.0827
960.70 0.08267
960.80 0.08264
960.90 0.08261
961.00 0.08258
961.10 0.08255
961.20 0.08252
961.30 0.08249
961.40 0.08246
961.50 0.08242
961.60 0.08239
961.70 0.08236
961.80 0.08233
961.90 0.0823
962.00 0.08227
962.10 0.08224
962.20 0.08221
962.30 0.08218
962.40 0.08215
962.50 0.08212
962.60 0.08209
962.70 0.08206
962.80 0.08202
962.90 0.08199
963.00 0.08196
963.10 0.08193
963.20 0.0819
963.30 0.08187
963.40 0.08184
963.50 0.08181
963.60 0.08178
963.70 0.08175
963.80 0.08172
963.90 0.08169
964.00 0.08166
964.10 0.08163
964.20 0.0816
964.30 0.08156
964.40 0.08153
964.50 0.0815
964.60 0.08147
964.70 0.08144
964.80 0.08141
964.90 0.08138
965.00 0.08135
965.10 0.08132
965.20 0.08129
965.30 0.08126
965.40 0.08123
965.50 0.0812
965.60 0.08117
965.70 0.08114
965.80 0.0811
965.90 0.08107
966.00 0.08104
966.10 0.08101
966.20 0.08098
966.30 0.08095
966.40 0.08092
966.50 0.08089
966.60 0.08086
966.70 0.08083
966.80 0.0808
966.90 0.08077
967.00 0.08074
967.10 0.08071
967.20 0.08068
967.30 0.08064
967.40 0.08061
967.50 0.08058
967.60 0.08055
967.70 0.08052
967.80 0.08049
967.90 0.08046
968.00 0.08043
968.10 0.0804
968.20 0.08037
968.30 0.08034
968.40 0.08031
968.50 0.08028
968.60 0.08024
968.70 0.08021
968.80 0.08018
968.90 0.08015
969.00 0.08012
969.10 0.08009
969.20 0.08006
969.30 0.08003
969.40 0.08
969.50 0.07997
969.60 0.07994
969.70 0.07991
969.80 0.07988
969.90 0.07985
970.00 0.07981
970.10 0.07978
970.20 0.07975
970.30 0.07972
970.40 0.07969
970.50 0.07966
970.60 0.07963
970.70 0.0796
970.80 0.07957
970.90 0.07954
971.00 0.07951
971.10 0.07948
971.20 0.07944
971.30 0.07941
971.40 0.07938
971.50 0.07935
971.60 0.07932
971.70 0.07929
971.80 0.07926
971.90 0.07923
972.00 0.0792
972.10 0.07917
972.20 0.07914
972.30 0.0791
972.40 0.07907
972.50 0.07904
972.60 0.07901
972.70 0.07898
972.80 0.07895
972.90 0.07892
973.00 0.07889
973.10 0.07886
973.20 0.07883
973.30 0.0788
973.40 0.07876
973.50 0.07873
973.60 0.0787
973.70 0.07867
973.80 0.07864
973.90 0.07861
974.00 0.07858
974.10 0.07855
974.20 0.07852
974.30 0.07849
974.40 0.07846
974.50 0.07842
974.60 0.07839
974.70 0.07836
974.80 0.07833
974.90 0.0783
975.00 0.07827
975.10 0.07824
975.20 0.07821
975.30 0.07817
975.40 0.07814
975.50 0.07811
975.60 0.07808
975.70 0.07805
975.80 0.07802
975.90 0.07799
976.00 0.07796
976.10 0.07793
976.20 0.07789
976.30 0.07786
976.40 0.07783
976.50 0.0778
976.60 0.07777
976.70 0.07774
976.80 0.07771
976.90 0.07768
977.00 0.07765
977.10 0.07762
977.20 0.07758
977.30 0.07755
977.40 0.07752
977.50 0.07749
977.60 0.07746
977.70 0.07743
977.80 0.07739
977.90 0.07736
978.00 0.07733
978.10 0.0773
978.20 0.07727
978.30 0.07724
978.40 0.07721
978.50 0.07717
978.60 0.07714
978.70 0.07711
978.80 0.07708
978.90 0.07705
979.00 0.07702
979.10 0.07699
979.20 0.07695
979.30 0.07692
979.40 0.07689
979.50 0.07686
979.60 0.07683
979.70 0.0768
979.80 0.07677
979.90 0.07673
980.00 0.0767
980.10 0.07667
980.20 0.07664
980.30 0.07661
980.40 0.07658
980.50 0.07655
980.60 0.07652
980.70 0.07648
980.80 0.07645
980.90 0.07642
981.00 0.07639
981.10 0.07636
981.20 0.07633
981.30 0.0763
981.40 0.07627
981.50 0.07624
981.60 0.0762
981.70 0.07617
981.80 0.07614
981.90 0.07611
982.00 0.07608
982.10 0.07605
982.20 0.07602
982.30 0.07598
982.40 0.07595
982.50 0.07592
982.60 0.07589
982.70 0.07586
982.80 0.07583
982.90 0.07579
983.00 0.07576
983.10 0.07573
983.20 0.0757
983.30 0.07567
983.40 0.07564
983.50 0.0756
983.60 0.07557
983.70 0.07554
983.80 0.07551
983.90 0.07548
984.00 0.07545
984.10 0.07541
984.20 0.07538
984.30 0.07535
984.40 0.07532
984.50 0.07529
984.60 0.07526
984.70 0.07522
984.80 0.07519
984.90 0.07516
985.00 0.07513
985.10 0.0751
985.20 0.07506
985.30 0.07503
985.40 0.075
985.50 0.07497
985.60 0.07494
985.70 0.0749
985.80 0.07487
985.90 0.07484
986.00 0.07481
986.10 0.07478
986.20 0.07474
986.30 0.07471
986.40 0.07468
986.50 0.07465
986.60 0.07462
986.70 0.07458
986.80 0.07455
986.90 0.07452
987.00 0.07449
987.10 0.07446
987.20 0.07442
987.30 0.07439
987.40 0.07436
987.50 0.07433
987.60 0.0743
987.70 0.07426
987.80 0.07423
987.90 0.0742
988.00 0.07417
988.10 0.07413
988.20 0.0741
988.30 0.07407
988.40 0.07404
988.50 0.07401
988.60 0.07397
988.70 0.07394
988.80 0.07391
988.90 0.07388
989.00 0.07384
989.10 0.07381
989.20 0.07378
989.30 0.07375
989.40 0.07371
989.50 0.07368
989.60 0.07365
989.70 0.07362
989.80 0.07358
989.90 0.07355
990.00 0.07352
990.10 0.07349
990.20 0.07345
990.30 0.07342
990.40 0.07339
990.50 0.07336
990.60 0.07332
990.70 0.07329
990.80 0.07326
990.90 0.07323
991.00 0.07319
991.10 0.07316
991.20 0.07313
991.30 0.0731
991.40 0.07306
991.50 0.07303
991.60 0.073
991.70 0.07296
991.80 0.07293
991.90 0.0729
992.00 0.07287
992.10 0.07283
992.20 0.0728
992.30 0.07277
992.40 0.07274
992.50 0.0727
992.60 0.07267
992.70 0.07264
992.80 0.0726
992.90 0.07257
993.00 0.07254
993.10 0.0725
993.20 0.07247
993.30 0.07244
993.40 0.07241
993.50 0.07237
993.60 0.07234
993.70 0.07231
993.80 0.07227
993.90 0.07224
994.00 0.07221
994.10 0.07217
994.20 0.07214
994.30 0.07211
994.40 0.07208
994.50 0.07204
994.60 0.07201
994.70 0.07198
994.80 0.07194
994.90 0.07191
995.00 0.07188
995.10 0.07184
995.20 0.07181
995.30 0.07178
995.40 0.07174
995.50 0.07171
995.60 0.07168
995.70 0.07164
995.80 0.07161
995.90 0.07158
996.00 0.07154
996.10 0.07151
996.20 0.07148
996.30 0.07144
996.40 0.07141
996.50 0.07138
996.60 0.07134
996.70 0.07131
996.80 0.07128
996.90 0.07124
997.00 0.07121
997.10 0.07118
997.20 0.07114
997.30 0.07111
997.40 0.07108
997.50 0.07104
997.60 0.07101
997.70 0.07098
997.80 0.07094
997.90 0.07091
998.00 0.07088
998.10 0.07085
998.20 0.07081
998.30 0.07078
998.40 0.07075
998.50 0.07071
998.60 0.07068
998.70 0.07065
998.80 0.07061
998.90 0.07058
999.00 0.07055
999.10 0.07051
999.20 0.07048
999.30 0.07045
999.40 0.07041
999.50 0.07038
999.60 0.07035
999.70 0.07032
999.80 0.07028
999.90 0.07025
1000.00 0.07022
1000.10 0.07018
1000.20 0.07015
1000.30 0.07012
1000.40 0.07008
1000.50 0.07005
1000.60 0.07002
1000.70 0.06999
1000.80 0.06995
1000.90 0.06992
1001.00 0.06989
1001.10 0.06985
1001.20 0.06982
1001.30 0.06979
1001.40 0.06975
1001.50 0.06972
1001.60 0.06969
1001.70 0.06966
1001.80 0.06963
1001.90 0.0696
1002.00 0.06956
1002.10 0.06953
1002.20 0.06951
1002.30 0.06948
1002.40 0.06945
1002.50 0.06942
1002.60 0.06939
1002.70 0.06936
1002.80 0.06933
1002.90 0.0693
1003.00 0.06927
1003.10 0.06924
1003.20 0.06921
1003.30 0.06919
1003.40 0.06916
1003.50 0.06913
1003.60 0.06911
1003.70 0.06908
1003.80 0.06905
1003.90 0.06903
1004.00 0.069
1004.10 0.06898
1004.20 0.06896
1004.30 0.06893
1004.40 0.06891
1004.50 0.06889
1004.60 0.06887
1004.70 0.06884
1004.80 0.06882
1004.90 0.0688
1005.00 0.06877
1005.10 0.06874
1005.20 0.06871
1005.30 0.06868
1005.40 0.06865
1005.50 0.06863
1005.60 0.0686
1005.70 0.06857
1005.80 0.06854
1005.90 0.06851
1006.00 0.06849
1006.10 0.06846
1006.20 0.06843
1006.30 0.06841
1006.40 0.06838
1006.50 0.06836
1006.60 0.06833
1006.70 0.06831
1006.80 0.06828
1006.90 0.06826
1007.00 0.06824
1007.10 0.06821
1007.20 0.06819
1007.30 0.06817
1007.40 0.06815
1007.50 0.06812
1007.60 0.0681
1007.70 0.06808
1007.80 0.06806
1007.90 0.06804
1008.00 0.06802
1008.10 0.068
1008.20 0.06798
1008.30 0.06796
1008.40 0.06794
1008.50 0.06792
1008.60 0.06789
1008.70 0.06787
1008.80 0.06785
1008.90 0.06783
1009.00 0.06781
1009.10 0.06779
1009.20 0.06777
1009.30 0.06775
1009.40 0.06773
1009.50 0.06771
1009.60 0.06769
1009.70 0.06767
1009.80 0.06765
1009.90 0.06763
1010.00 0.06761
1010.10 0.06759
1010.20 0.06757
1010.30 0.06755
1010.40 0.06753
1010.50 0.06751
1010.60 0.06749
1010.70 0.06747
1010.80 0.06746
1010.90 0.06744
1011.00 0.06742
1011.10 0.0674
1011.20 0.06738
1011.30 0.06736
1011.40 0.06734
1011.50 0.06732
1011.60 0.0673
1011.70 0.06728
1011.80 0.06726
1011.90 0.06724
1012.00 0.06722
1012.10 0.0672
1012.20 0.06718
1012.30 0.06716
1012.40 0.06714
1012.50 0.06713
1012.60 0.06711
1012.70 0.06709
1012.80 0.06707
1012.90 0.06705
1013.00 0.06703
1013.10 0.06701
1013.20 0.06699
1013.30 0.06697
1013.40 0.06695
1013.50 0.06693
1013.60 0.06691
1013.70 0.06689
1013.80 0.06687
1013.90 0.06685
1014.00 0.06683
1014.10 0.06681
1014.20 0.06679
1014.30 0.06677
1014.40 0.06675
1014.50 0.06674
1014.60 0.06672
1014.70 0.0667
1014.80 0.06668
1014.90 0.06666
1015.00 0.06664
1015.10 0.06662
1015.20 0.0666
1015.30 0.06658
1015.40 0.06656
1015.50 0.06654
1015.60 0.06652
1015.70 0.0665
1015.80 0.06648
1015.90 0.06646
1016.00 0.06644
1016.10 0.06642
1016.20 0.0664
1016.30 0.06638
1016.40 0.06636
1016.50 0.06634
1016.60 0.06632
1016.70 0.0663
1016.80 0.06628
1016.90 0.06626
1017.00 0.06624
1017.10 0.06622
1017.20 0.0662
1017.30 0.06618
1017.40 0.06616
1017.50 0.06614
1017.60 0.06612
1017.70 0.06609
1017.80 0.06607
1017.90 0.06605
1018.00 0.06603
1018.10 0.06601
1018.20 0.06599
1018.30 0.06597
1018.40 0.06595
1018.50 0.06593
1018.60 0.06591
1018.70 0.06589
1018.80 0.06587
1018.90 0.06585
1019.00 0.06583
1019.10 0.06581
1019.20 0.06579
1019.30 0.06577
1019.40 0.06575
1019.50 0.06573
1019.60 0.0657
1019.70 0.06568
1019.80 0.06566
1019.90 0.06564
1020.00 0.06562
1020.10 0.0656
1020.20 0.06558
1020.30 0.06556
1020.40 0.06554
1020.50 0.06552
1020.60 0.0655
1020.70 0.06548
1020.80 0.06546
1020.90 0.06543
1021.00 0.06541
1021.10 0.06539
1021.20 0.06537
1021.30 0.06535
1021.40 0.06533
1021.50 0.06531
1021.60 0.06529
1021.70 0.06527
1021.80 0.06525
1021.90 0.06522
1022.00 0.0652
1022.10 0.06518
1022.20 0.06516
1022.30 0.06514
1022.40 0.06512
1022.50 0.0651
1022.60 0.06507
1022.70 0.06505
1022.80 0.06503
1022.90 0.06501
1023.00 0.06499
1023.10 0.06497
1023.20 0.06495
1023.30 0.06493
1023.40 0.0649
1023.50 0.06488
1023.60 0.06486
1023.70 0.06484
1023.80 0.06482
1023.90 0.0648
1024.00 0.06478
1024.10 0.06475
1024.20 0.06473
1024.30 0.06471
1024.40 0.06469
1024.50 0.06467
1024.60 0.06465
1024.70 0.06463
1024.80 0.0646
1024.90 0.06458
1025.00 0.06456
1025.10 0.06454
1025.20 0.06452
1025.30 0.0645
1025.40 0.06447
1025.50 0.06445
1025.60 0.06443
1025.70 0.06441
1025.80 0.06439
1025.90 0.06437
1026.00 0.06434
1026.10 0.06432
1026.20 0.0643
1026.30 0.06428
1026.40 0.06426
1026.50 0.06424
1026.60 0.06421
1026.70 0.06419
1026.80 0.06417
1026.90 0.06415
1027.00 0.06413
1027.10 0.06411
1027.20 0.06408
1027.30 0.06406
1027.40 0.06404
1027.50 0.06402
1027.60 0.06399
1027.70 0.06397
1027.80 0.06395
1027.90 0.06393
1028.00 0.06391
1028.10 0.06388
1028.20 0.06386
1028.30 0.06384
1028.40 0.06382
1028.50 0.0638
1028.60 0.06377
1028.70 0.06375
1028.80 0.06373
1028.90 0.06371
1029.00 0.06369
1029.10 0.06366
1029.20 0.06364
1029.30 0.06362
1029.40 0.0636
1029.50 0.06358
1029.60 0.06355
1029.70 0.06353
1029.80 0.06351
1029.90 0.06349
1030.00 0.06347
1030.10 0.06344
1030.20 0.06342
1030.30 0.0634
1030.40 0.06338
1030.50 0.06336
1030.60 0.06333
1030.70 0.06331
1030.80 0.06329
1030.90 0.06327
1031.00 0.06325
1031.10 0.06322
1031.20 0.0632
1031.30 0.06318
1031.40 0.06316
1031.50 0.06314
1031.60 0.06311
1031.70 0.06309
1031.80 0.06307
1031.90 0.06305
1032.00 0.06303
1032.10 0.063
1032.20 0.06298
1032.30 0.06296
1032.40 0.06294
1032.50 0.06291
1032.60 0.06289
1032.70 0.06287
1032.80 0.06285
1032.90 0.06283
1033.00 0.0628
1033.10 0.06278
1033.20 0.06276
1033.30 0.06274
1033.40 0.06271
1033.50 0.06269
1033.60 0.06267
1033.70 0.06265
1033.80 0.06262
1033.90 0.0626
1034.00 0.06258
1034.10 0.06256
1034.20 0.06254
1034.30 0.06251
1034.40 0.06249
1034.50 0.06247
1034.60 0.06245
1034.70 0.06242
1034.80 0.0624
1034.90 0.06238
1035.00 0.06236
1035.10 0.06233
1035.20 0.06231
1035.30 0.06229
1035.40 0.06227
1035.50 0.06225
1035.60 0.06222
1035.70 0.0622
1035.80 0.06218
1035.90 0.06216
1036.00 0.06214
1036.10 0.06211
1036.20 0.06209
1036.30 0.06207
1036.40 0.06205
1036.50 0.06202
1036.60 0.062
1036.70 0.06198
1036.80 0.06196
1036.90 0.06194
1037.00 0.06191
1037.10 0.06189
1037.20 0.06187
1037.30 0.06185
1037.40 0.06182
1037.50 0.0618
1037.60 0.06178
1037.70 0.06176
1037.80 0.06173
1037.90 0.06171
1038.00 0.06169
1038.10 0.06167
1038.20 0.06164
1038.30 0.06162
1038.40 0.0616
1038.50 0.06158
1038.60 0.06156
1038.70 0.06153
1038.80 0.06151
1038.90 0.06149
1039.00 0.06147
1039.10 0.06144
1039.20 0.06142
1039.30 0.0614
1039.40 0.06138
1039.50 0.06135
1039.60 0.06133
1039.70 0.06131
1039.80 0.06129
1039.90 0.06126
1040.00 0.06124
1040.10 0.06122
1040.20 0.0612
1040.30 0.06118
1040.40 0.06115
1040.50 0.06113
1040.60 0.06111
1040.70 0.06109
1040.80 0.06106
1040.90 0.06104
1041.00 0.06102
1041.10 0.061
1041.20 0.06098
1041.30 0.06095
1041.40 0.06093
1041.50 0.06091
1041.60 0.06089
1041.70 0.06086
1041.80 0.06084
1041.90 0.06082
1042.00 0.0608
1042.10 0.06078
1042.20 0.06075
1042.30 0.06073
1042.40 0.06071
1042.50 0.06069
1042.60 0.06066
1042.70 0.06064
1042.80 0.06062
1042.90 0.0606
1043.00 0.06057
1043.10 0.06055
1043.20 0.06053
1043.30 0.06051
1043.40 0.06048
1043.50 0.06046
1043.60 0.06044
1043.70 0.06042
1043.80 0.06039
1043.90 0.06037
1044.00 0.06035
1044.10 0.06033
1044.20 0.06031
1044.30 0.06028
1044.40 0.06026
1044.50 0.06024
1044.60 0.06022
1044.70 0.06019
1044.80 0.06017
1044.90 0.06015
1045.00 0.06013
1045.10 0.0601
1045.20 0.06008
1045.30 0.06006
1045.40 0.06004
1045.50 0.06002
1045.60 0.05999
1045.70 0.05997
1045.80 0.05995
1045.90 0.05993
1046.00 0.0599
1046.10 0.05988
1046.20 0.05986
1046.30 0.05984
1046.40 0.05982
1046.50 0.05979
1046.60 0.05977
1046.70 0.05975
1046.80 0.05973
1046.90 0.0597
1047.00 0.05968
1047.10 0.05966
1047.20 0.05964
1047.30 0.05962
1047.40 0.05959
1047.50 0.05957
1047.60 0.05955
1047.70 0.05953
1047.80 0.0595
1047.90 0.05948
1048.00 0.05946
1048.10 0.05944
1048.20 0.05941
1048.30 0.05939
1048.40 0.05937
1048.50 0.05935
1048.60 0.05932
1048.70 0.0593
1048.80 0.05928
1048.90 0.05926
1049.00 0.05924
1049.10 0.05921
1049.20 0.05919
1049.30 0.05917
1049.40 0.05915
1049.50 0.05912
1049.60 0.0591
1049.70 0.05908
1049.80 0.05906
1049.90 0.05904
1050.00 0.05901
1050.10 0.05899
1050.20 0.05897
1050.30 0.05895
1050.40 0.05892
1050.50 0.0589
1050.60 0.05888
1050.70 0.05886
1050.80 0.05884
1050.90 0.05881
1051.00 0.05879
1051.10 0.05877
1051.20 0.05875
1051.30 0.05872
1051.40 0.0587
1051.50 0.05868
1051.60 0.05866
1051.70 0.05864
1051.80 0.05861
1051.90 0.05859
1052.00 0.05857
1052.10 0.05855
1052.20 0.05853
1052.30 0.0585
1052.40 0.05848
1052.50 0.05846
1052.60 0.05844
1052.70 0.05841
1052.80 0.05839
1052.90 0.05837
1053.00 0.05835
1053.10 0.05832
1053.20 0.0583
1053.30 0.05828
1053.40 0.05826
1053.50 0.05823
1053.60 0.05821
1053.70 0.05819
1053.80 0.05817
1053.90 0.05815
1054.00 0.05812
1054.10 0.0581
1054.20 0.05808
1054.30 0.05806
1054.40 0.05803
1054.50 0.05801
1054.60 0.05799
1054.70 0.05797
1054.80 0.05794
1054.90 0.05792
1055.00 0.0579
1055.10 0.05788
1055.20 0.05786
1055.30 0.05783
1055.40 0.05781
1055.50 0.05779
1055.60 0.05777
1055.70 0.05774
1055.80 0.05772
1055.90 0.0577
1056.00 0.05768
1056.10 0.05766
1056.20 0.05763
1056.30 0.05761
1056.40 0.05759
1056.50 0.05757
1056.60 0.05755
1056.70 0.05752
1056.80 0.0575
1056.90 0.05748
1057.00 0.05746
1057.10 0.05743
1057.20 0.05741
1057.30 0.05739
1057.40 0.05737
1057.50 0.05734
1057.60 0.05732
1057.70 0.0573
1057.80 0.05728
1057.90 0.05725
1058.00 0.05723
1058.10 0.05721
1058.20 0.05719
1058.30 0.05716
1058.40 0.05714
1058.50 0.05712
1058.60 0.0571
1058.70 0.05708
1058.80 0.05705
1058.90 0.05703
1059.00 0.05701
1059.10 0.05699
1059.20 0.05696
1059.30 0.05694
1059.40 0.05692
1059.50 0.0569
1059.60 0.05687
1059.70 0.05685
1059.80 0.05683
1059.90 0.05681
1060.00 0.05678
1060.10 0.05676
1060.20 0.05674
1060.30 0.05672
1060.40 0.0567
1060.50 0.05667
1060.60 0.05665
1060.70 0.05663
1060.80 0.05661
1060.90 0.05658
1061.00 0.05656
1061.10 0.05654
1061.20 0.05652
1061.30 0.05649
1061.40 0.05647
1061.50 0.05645
1061.60 0.05643
1061.70 0.05641
1061.80 0.05638
1061.90 0.05636
1062.00 0.05634
1062.10 0.05632
1062.20 0.05629
1062.30 0.05627
1062.40 0.05625
1062.50 0.05623
1062.60 0.0562
1062.70 0.05618
1062.80 0.05616
1062.90 0.05613
1063.00 0.05611
1063.10 0.05609
1063.20 0.05607
1063.30 0.05604
1063.40 0.05602
1063.50 0.056
1063.60 0.05598
1063.70 0.05595
1063.80 0.05593
1063.90 0.05591
1064.00 0.05588
1064.10 0.05586
1064.20 0.05584
1064.30 0.05582
1064.40 0.05579
1064.50 0.05577
1064.60 0.05575
1064.70 0.05573
1064.80 0.0557
1064.90 0.05568
1065.00 0.05566
1065.10 0.05564
1065.20 0.05561
1065.30 0.05559
1065.40 0.05557
1065.50 0.05555
1065.60 0.05552
1065.70 0.0555
1065.80 0.05548
1065.90 0.05545
1066.00 0.05543
1066.10 0.05541
1066.20 0.05539
1066.30 0.05536
1066.40 0.05534
1066.50 0.05532
1066.60 0.0553
1066.70 0.05527
1066.80 0.05525
1066.90 0.05523
1067.00 0.05521
1067.10 0.05518
1067.20 0.05516
1067.30 0.05514
1067.40 0.05511
1067.50 0.05509
1067.60 0.05507
1067.70 0.05504
1067.80 0.05502
1067.90 0.055
1068.00 0.05497
1068.10 0.05495
1068.20 0.05493
1068.30 0.0549
1068.40 0.05488
1068.50 0.05486
1068.60 0.05483
1068.70 0.05481
1068.80 0.05479
1068.90 0.05476
1069.00 0.05474
1069.10 0.05472
1069.20 0.05469
1069.30 0.05467
1069.40 0.05465
1069.50 0.05462
1069.60 0.0546
1069.70 0.05458
1069.80 0.05455
1069.90 0.05453
1070.00 0.05451
1070.10 0.05448
1070.20 0.05446
1070.30 0.05444
1070.40 0.05441
1070.50 0.05439
1070.60 0.05437
1070.70 0.05435
1070.80 0.05432
1070.90 0.0543
1071.00 0.05428
1071.10 0.05425
1071.20 0.05423
1071.30 0.05421
1071.40 0.05418
1071.50 0.05416
1071.60 0.05414
1071.70 0.05411
1071.80 0.05409
1071.90 0.05407
1072.00 0.05404
1072.10 0.05402
1072.20 0.054
1072.30 0.05397
1072.40 0.05395
1072.50 0.05393
1072.60 0.0539
1072.70 0.05388
1072.80 0.05385
1072.90 0.05383
1073.00 0.05381
1073.10 0.05378
1073.20 0.05376
1073.30 0.05373
1073.40 0.05371
1073.50 0.05369
1073.60 0.05366
1073.70 0.05364
1073.80 0.05361
1073.90 0.05359
1074.00 0.05356
1074.10 0.05354
1074.20 0.05351
1074.30 0.05349
1074.40 0.05347
1074.50 0.05344
1074.60 0.05342
1074.70 0.05339
1074.80 0.05337
1074.90 0.05334
1075.00 0.05332
1075.10 0.05329
1075.20 0.05327
1075.30 0.05324
1075.40 0.05322
1075.50 0.0532
1075.60 0.05317
1075.70 0.05315
1075.80 0.05312
1075.90 0.0531
1076.00 0.05307
1076.10 0.05305
1076.20 0.05302
1076.30 0.053
1076.40 0.05298
1076.50 0.05295
1076.60 0.05293
1076.70 0.0529
1076.80 0.05288
1076.90 0.05285
1077.00 0.05283
1077.10 0.0528
1077.20 0.05278
1077.30 0.05275
1077.40 0.05273
1077.50 0.0527
1077.60 0.05268
1077.70 0.05265
1077.80 0.05263
1077.90 0.0526
1078.00 0.05258
1078.10 0.05255
1078.20 0.05253
1078.30 0.0525
1078.40 0.05247
1078.50 0.05245
1078.60 0.05242
1078.70 0.0524
1078.80 0.05237
1078.90 0.05235
1079.00 0.05232
1079.10 0.0523
1079.20 0.05227
1079.30 0.05224
1079.40 0.05222
1079.50 0.05219
1079.60 0.05217
1079.70 0.05214
1079.80 0.05211
1079.90 0.05209
1080.00 0.05206
1080.10 0.05204
1080.20 0.05201
1080.30 0.05198
1080.40 0.05196
1080.50 0.05193
1080.60 0.05191
1080.70 0.05188
1080.80 0.05185
1080.90 0.05183
1081.00 0.0518
1081.10 0.05177
1081.20 0.05175
1081.30 0.05172
1081.40 0.0517
1081.50 0.05167
1081.60 0.05164
1081.70 0.05162
1081.80 0.05159
1081.90 0.05156
1082.00 0.05154
1082.10 0.05151
1082.20 0.05148
1082.30 0.05145
1082.40 0.05143
1082.50 0.0514
1082.60 0.05137
1082.70 0.05135
1082.80 0.05132
1082.90 0.05129
1083.00 0.05126
1083.10 0.05124
1083.20 0.05121
1083.30 0.05118
1083.40 0.05116
1083.50 0.05113
1083.60 0.0511
1083.70 0.05107
1083.80 0.05105
1083.90 0.05102
1084.00 0.05099
1084.10 0.05096
1084.20 0.05094
1084.30 0.05091
1084.40 0.05088
1084.50 0.05085
1084.60 0.05082
1084.70 0.0508
1084.80 0.05077
1084.90 0.05074
1085.00 0.05071
1085.10 0.05068
1085.20 0.05066
1085.30 0.05063
1085.40 0.0506
1085.50 0.05057
1085.60 0.05054
1085.70 0.05051
1085.80 0.05049
1085.90 0.05046
1086.00 0.05043
1086.10 0.0504
1086.20 0.05037
1086.30 0.05035
1086.40 0.05032
1086.50 0.05029
1086.60 0.05026
1086.70 0.05023
1086.80 0.0502
1086.90 0.05017
1087.00 0.05015
1087.10 0.05012
1087.20 0.05009
1087.30 0.05006
1087.40 0.05003
1087.50 0.05
1087.60 0.04997
1087.70 0.04994
1087.80 0.04991
1087.90 0.04989
1088.00 0.04986
1088.10 0.04983
1088.20 0.0498
1088.30 0.04977
1088.40 0.04974
1088.50 0.04971
1088.60 0.04968
1088.70 0.04965
1088.80 0.04962
1088.90 0.04959
1089.00 0.04956
1089.10 0.04953
1089.20 0.0495
1089.30 0.04947
1089.40 0.04944
1089.50 0.04941
1089.60 0.04938
1089.70 0.04936
1089.80 0.04933
1089.90 0.0493
1090.00 0.04927
1090.10 0.04924
1090.20 0.04921
1090.30 0.04918
1090.40 0.04915
1090.50 0.04912
1090.60 0.04909
1090.70 0.04905
1090.80 0.04902
1090.90 0.04899
1091.00 0.04896
1091.10 0.04893
1091.20 0.0489
1091.30 0.04887
1091.40 0.04883
1091.50 0.0488
1091.60 0.04877
1091.70 0.04874
1091.80 0.04871
1091.90 0.04868
1092.00 0.04865
1092.10 0.04861
1092.20 0.04858
1092.30 0.04854
1092.40 0.04851
1092.50 0.04848
1092.60 0.04844
1092.70 0.04841
1092.80 0.04837
1092.90 0.04834
1093.00 0.0483
1093.10 0.04827
1093.20 0.04823
1093.30 0.0482
1093.40 0.04816
1093.50 0.04813
1093.60 0.0481
1093.70 0.04808
1093.80 0.04806
1093.90 0.04805
1094.00 0.04805
1094.10 0.04804
1094.20 0.04804
1094.30 0.04804
1094.40 0.04804
1094.50 0.04804
1094.60 0.04805
1094.70 0.04805
1094.80 0.04805
1094.90 0.04805
1095.00 0.04805
1095.10 0.04805
1095.20 0.04805
1095.30 0.04805
1095.40 0.04805
1095.50 0.04805
1095.60 0.04805
1095.70 0.04805
1095.80 0.04805
1095.90 0.04805
1096.00 0.04805
1096.10 0.04804
1096.20 0.04804
1096.30 0.04804
1096.40 0.04804
1096.50 0.04804
1096.60 0.04804
1096.70 0.04803
1096.80 0.04803
1096.90 0.04803
1097.00 0.04803
1097.10 0.04802
1097.20 0.04802
1097.30 0.04801
1097.40 0.04801
1097.50 0.048
1097.60 0.048
1097.70 0.048
1097.80 0.04799
1097.90 0.04799
1098.00 0.04798
1098.10 0.04798
1098.20 0.04797
1098.30 0.04797
1098.40 0.04797
1098.50 0.04796
1098.60 0.04796
1098.70 0.04795
1098.80 0.04794
1098.90 0.04794
1099.00 0.04793
1099.10 0.04793
1099.20 0.04792
1099.30 0.04792
1099.40 0.04791
1099.50 0.04791
1099.60 0.0479
1099.70 0.0479
1099.80 0.04789
1099.90 0.04789
1100.00 0.04788
1100.10 0.04787
1100.20 0.04787
1100.30 0.04786
1100.40 0.04786
1100.50 0.04785
1100.60 0.04785
1100.70 0.04784
1100.80 0.04783
1100.90 0.04783
1101.00 0.04782
1101.10 0.04781
1101.20 0.04781
1101.30 0.0478
1101.40 0.04779
1101.50 0.04779
1101.60 0.04778
1101.70 0.04778
1101.80 0.04777
1101.90 0.04776
1102.00 0.04776
1102.10 0.04775
1102.20 0.04774
1102.30 0.04774
1102.40 0.04773
1102.50 0.04772
1102.60 0.04771
1102.70 0.04771
1102.80 0.0477
1102.90 0.04769
1103.00 0.04769
1103.10 0.04768
1103.20 0.04767
1103.30 0.04766
1103.40 0.04766
1103.50 0.04765
1103.60 0.04764
1103.70 0.04763
1103.80 0.04762
1103.90 0.04762
1104.00 0.04761
1104.10 0.0476
1104.20 0.04759
1104.30 0.04758
1104.40 0.04758
1104.50 0.04757
1104.60 0.04756
1104.70 0.04755
1104.80 0.04754
1104.90 0.04753
1105.00 0.04753
1105.10 0.04752
1105.20 0.04751
1105.30 0.0475
1105.40 0.04749
1105.50 0.04749
1105.60 0.04748
1105.70 0.04747
1105.80 0.04746
1105.90 0.04745
1106.00 0.04744
1106.10 0.04743
1106.20 0.04742
1106.30 0.04741
1106.40 0.0474
1106.50 0.04739
1106.60 0.04739
1106.70 0.04738
1106.80 0.04737
1106.90 0.04736
1107.00 0.04735
1107.10 0.04734
1107.20 0.04733
1107.30 0.04732
1107.40 0.04731
1107.50 0.0473
1107.60 0.04729
1107.70 0.04728
1107.80 0.04727
1107.90 0.04726
1108.00 0.04725
1108.10 0.04724
1108.20 0.04723
1108.30 0.04722
1108.40 0.04721
1108.50 0.0472
1108.60 0.04719
1108.70 0.04718
1108.80 0.04717
1108.90 0.04716
1109.00 0.04715
1109.10 0.04714
1109.20 0.04713
1109.30 0.04712
1109.40 0.04711
1109.50 0.0471
1109.60 0.04709
1109.70 0.04708
1109.80 0.04706
1109.90 0.04705
1110.00 0.04704
1110.10 0.04703
1110.20 0.04702
1110.30 0.04701
1110.40 0.047
1110.50 0.04699
1110.60 0.04698
1110.70 0.04696
1110.80 0.04695
1110.90 0.04694
1111.00 0.04693
1111.10 0.04692
1111.20 0.04691
1111.30 0.0469
1111.40 0.04689
1111.50 0.04688
1111.60 0.04686
1111.70 0.04685
1111.80 0.04684
1111.90 0.04683
1112.00 0.04682
1112.10 0.04681
1112.20 0.0468
1112.30 0.04678
1112.40 0.04677
1112.50 0.04676
1112.60 0.04675
1112.70 0.04674
1112.80 0.04673
1112.90 0.04671
1113.00 0.0467
1113.10 0.04669
1113.20 0.04668
1113.30 0.04667
1113.40 0.04665
1113.50 0.04664
1113.60 0.04663
1113.70 0.04662
1113.80 0.0466
1113.90 0.04659
1114.00 0.04658
1114.10 0.04657
1114.20 0.04655
1114.30 0.04654
1114.40 0.04653
1114.50 0.04652
1114.60 0.0465
1114.70 0.04649
1114.80 0.04648
1114.90 0.04647
1115.00 0.04645
1115.10 0.04644
1115.20 0.04643
1115.30 0.04642
1115.40 0.0464
1115.50 0.04639
1115.60 0.04638
1115.70 0.04637
1115.80 0.04635
1115.90 0.04634
1116.00 0.04633
1116.10 0.04632
1116.20 0.0463
1116.30 0.04629
1116.40 0.04628
1116.50 0.04627
1116.60 0.04625
1116.70 0.04624
1116.80 0.04623
1116.90 0.04622
1117.00 0.0462
1117.10 0.04619
1117.20 0.04618
1117.30 0.04616
1117.40 0.04615
1117.50 0.04614
1117.60 0.04612
1117.70 0.04611
1117.80 0.0461
1117.90 0.04608
1118.00 0.04607
1118.10 0.04606
1118.20 0.04604
1118.30 0.04603
1118.40 0.04602
1118.50 0.046
1118.60 0.04599
1118.70 0.04598
1118.80 0.04596
1118.90 0.04595
1119.00 0.04594
1119.10 0.04592
1119.20 0.04591
1119.30 0.0459
1119.40 0.04588
1119.50 0.04587
1119.60 0.04586
1119.70 0.04584
1119.80 0.04583
1119.90 0.04581
1120.00 0.0458
1120.10 0.04579
1120.20 0.04577
1120.30 0.04576
1120.40 0.04575
1120.50 0.04573
1120.60 0.04572
1120.70 0.04571
1120.80 0.04569
1120.90 0.04568
1121.00 0.04567
1121.10 0.04565
1121.20 0.04564
1121.30 0.04563
1121.40 0.04561
1121.50 0.0456
1121.60 0.04559
1121.70 0.04558
1121.80 0.04556
1121.90 0.04555
1122.00 0.04554
1122.10 0.04552
1122.20 0.04551
1122.30 0.04549
1122.40 0.04548
1122.50 0.04546
1122.60 0.04545
1122.70 0.04544
1122.80 0.04542
1122.90 0.04541
1123.00 0.04539
1123.10 0.04538
1123.20 0.04537
1123.30 0.04535
1123.40 0.04534
1123.50 0.04532
1123.60 0.04531
1123.70 0.0453
1123.80 0.04528
1123.90 0.04527
1124.00 0.04525
1124.10 0.04524
1124.20 0.04523
1124.30 0.04521
1124.40 0.0452
1124.50 0.04518
1124.60 0.04517
1124.70 0.04516
1124.80 0.04514
1124.90 0.04513
1125.00 0.04511
1125.10 0.0451
1125.20 0.04509
1125.30 0.04507
1125.40 0.04506
1125.50 0.04505
1125.60 0.04503
1125.70 0.04502
1125.80 0.045
1125.90 0.04499
1126.00 0.04498
1126.10 0.04496
1126.20 0.04495
1126.30 0.04493
1126.40 0.04492
1126.50 0.04491
1126.60 0.04489
1126.70 0.04488
1126.80 0.04486
1126.90 0.04485
1127.00 0.04484
1127.10 0.04482
1127.20 0.04481
1127.30 0.04479
1127.40 0.04478
1127.50 0.04477
1127.60 0.04475
1127.70 0.04474
1127.80 0.04472
1127.90 0.04471
1128.00 0.04469
1128.10 0.04468
1128.20 0.04466
1128.30 0.04465
1128.40 0.04464
1128.50 0.04462
1128.60 0.04461
1128.70 0.04459
1128.80 0.04458
1128.90 0.04457
1129.00 0.04455
1129.10 0.04454
1129.20 0.04452
1129.30 0.04451
1129.40 0.04449
1129.50 0.04448
1129.60 0.04447
1129.70 0.04445
1129.80 0.04444
1129.90 0.04442
1130.00 0.04441
1130.10 0.04439
1130.20 0.04438
1130.30 0.04437
1130.40 0.04435
1130.50 0.04434
1130.60 0.04432
1130.70 0.04431
1130.80 0.0443
1130.90 0.04428
1131.00 0.04427
1131.10 0.04425
1131.20 0.04424
1131.30 0.04422
1131.40 0.04421
1131.50 0.0442
1131.60 0.04418
1131.70 0.04417
1131.80 0.04415
1131.90 0.04414
1132.00 0.04413
1132.10 0.04411
1132.20 0.0441
1132.30 0.04408
1132.40 0.04407
1132.50 0.04405
1132.60 0.04404
1132.70 0.04402
1132.80 0.04401
1132.90 0.044
1133.00 0.04398
1133.10 0.04397
1133.20 0.04395
1133.30 0.04394
1133.40 0.04392
1133.50 0.04391
1133.60 0.0439
1133.70 0.04388
1133.80 0.04387
1133.90 0.04385
1134.00 0.04384
1134.10 0.04382
1134.20 0.04381
1134.30 0.0438
1134.40 0.04378
1134.50 0.04377
1134.60 0.04375
1134.70 0.04374
1134.80 0.04372
1134.90 0.04371
1135.00 0.0437
1135.10 0.04368
1135.20 0.04367
1135.30 0.04365
1135.40 0.04364
1135.50 0.04362
1135.60 0.04361
1135.70 0.0436
1135.80 0.04358
1135.90 0.04357
1136.00 0.04355
1136.10 0.04354
1136.20 0.04352
1136.30 0.04351
1136.40 0.0435
1136.50 0.04348
1136.60 0.04347
1136.70 0.04345
1136.80 0.04344
1136.90 0.04342
1137.00 0.04341
1137.10 0.0434
1137.20 0.04338
1137.30 0.04337
1137.40 0.04335
1137.50 0.04334
1137.60 0.04332
1137.70 0.04331
1137.80 0.0433
1137.90 0.04328
1138.00 0.04327
1138.10 0.04325
1138.20 0.04324
1138.30 0.04322
1138.40 0.04321
1138.50 0.0432
1138.60 0.04318
1138.70 0.04317
1138.80 0.04315
1138.90 0.04314
1139.00 0.04312
1139.10 0.04311
1139.20 0.0431
1139.30 0.04308
1139.40 0.04307
1139.50 0.04305
1139.60 0.04304
1139.70 0.04302
1139.80 0.04301
1139.90 0.043
1140.00 0.04298
1140.10 0.04297
1140.20 0.04295
1140.30 0.04294
1140.40 0.04293
1140.50 0.04291
1140.60 0.0429
1140.70 0.04288
1140.80 0.04287
1140.90 0.04285
1141.00 0.04284
1141.10 0.04283
1141.20 0.04281
1141.30 0.0428
1141.40 0.04278
1141.50 0.04277
1141.60 0.04276
1141.70 0.04274
1141.80 0.04273
1141.90 0.04271
1142.00 0.0427
1142.10 0.04268
1142.20 0.04267
1142.30 0.04266
1142.40 0.04264
1142.50 0.04263
1142.60 0.04261
1142.70 0.0426
1142.80 0.04259
1142.90 0.04257
1143.00 0.04256
1143.10 0.04254
1143.20 0.04253
1143.30 0.04251
1143.40 0.0425
1143.50 0.04249
1143.60 0.04247
1143.70 0.04246
1143.80 0.04244
1143.90 0.04243
1144.00 0.04242
1144.10 0.0424
1144.20 0.04239
1144.30 0.04237
1144.40 0.04236
1144.50 0.04235
1144.60 0.04233
1144.70 0.04232
1144.80 0.0423
1144.90 0.04229
1145.00 0.04227
1145.10 0.04226
1145.20 0.04225
1145.30 0.04223
1145.40 0.04222
1145.50 0.0422
1145.60 0.04219
1145.70 0.04218
1145.80 0.04216
1145.90 0.04215
1146.00 0.04213
1146.10 0.04212
1146.20 0.04211
1146.30 0.04209
1146.40 0.04208
1146.50 0.04206
1146.60 0.04205
1146.70 0.04204
1146.80 0.04202
1146.90 0.04201
1147.00 0.04199
1147.10 0.04198
1147.20 0.04197
1147.30 0.04195
1147.40 0.04194
1147.50 0.04192
1147.60 0.04191
1147.70 0.0419
1147.80 0.04188
1147.90 0.04187
1148.00 0.04185
1148.10 0.04184
1148.20 0.04183
1148.30 0.04181
1148.40 0.0418
1148.50 0.04178
1148.60 0.04177
1148.70 0.04176
1148.80 0.04174
1148.90 0.04173
1149.00 0.04171
1149.10 0.0417
1149.20 0.04169
1149.30 0.04167
1149.40 0.04166
1149.50 0.04165
1149.60 0.04163
1149.70 0.04162
1149.80 0.0416
1149.90 0.04159
1150.00 0.04158
1150.10 0.04156
1150.20 0.04155
1150.30 0.04153
1150.40 0.04152
1150.50 0.04151
1150.60 0.04149
1150.70 0.04148
1150.80 0.04146
1150.90 0.04145
1151.00 0.04144
1151.10 0.04142
1151.20 0.04141
1151.30 0.0414
1151.40 0.04138
1151.50 0.04137
1151.60 0.04135
1151.70 0.04134
1151.80 0.04133
1151.90 0.04131
1152.00 0.0413
1152.10 0.04128
1152.20 0.04127
1152.30 0.04126
1152.40 0.04124
1152.50 0.04123
1152.60 0.04122
1152.70 0.0412
1152.80 0.04119
1152.90 0.04117
1153.00 0.04116
1153.10 0.04115
1153.20 0.04113
1153.30 0.04112
1153.40 0.04111
1153.50 0.04109
1153.60 0.04108
1153.70 0.04106
1153.80 0.04105
1153.90 0.04104
1154.00 0.04102
1154.10 0.04101
1154.20 0.041
1154.30 0.04098
1154.40 0.04097
1154.50 0.04096
1154.60 0.04094
1154.70 0.04093
1154.80 0.04091
1154.90 0.0409
1155.00 0.04089
1155.10 0.04087
1155.20 0.04086
1155.30 0.04085
1155.40 0.04083
1155.50 0.04082
1155.60 0.0408
1155.70 0.04079
1155.80 0.04078
1155.90 0.04076
1156.00 0.04075
1156.10 0.04074
1156.20 0.04072
1156.30 0.04071
1156.40 0.0407
1156.50 0.04068
1156.60 0.04067
1156.70 0.04065
1156.80 0.04064
1156.90 0.04063
1157.00 0.04061
1157.10 0.0406
1157.20 0.04059
1157.30 0.04057
1157.40 0.04056
1157.50 0.04055
1157.60 0.04053
1157.70 0.04052
1157.80 0.04051
1157.90 0.04049
1158.00 0.04048
1158.10 0.04047
1158.20 0.04045
1158.30 0.04044
1158.40 0.04042
1158.50 0.04041
1158.60 0.0404
1158.70 0.04038
1158.80 0.04037
1158.90 0.04036
1159.00 0.04034
1159.10 0.04033
1159.20 0.04032
1159.30 0.0403
1159.40 0.04029
1159.50 0.04028
1159.60 0.04026
1159.70 0.04025
1159.80 0.04024
1159.90 0.04022
1160.00 0.04021
1160.10 0.0402
1160.20 0.04018
1160.30 0.04017
1160.40 0.04015
1160.50 0.04014
1160.60 0.04013
1160.70 0.04011
1160.80 0.0401
1160.90 0.04009
1161.00 0.04007
1161.10 0.04006
1161.20 0.04005
1161.30 0.04003
1161.40 0.04002
1161.50 0.04001
1161.60 0.03999
1161.70 0.03998
1161.80 0.03997
1161.90 0.03995
1162.00 0.03994
1162.10 0.03993
1162.20 0.03991
1162.30 0.0399
1162.40 0.03989
1162.50 0.03987
1162.60 0.03986
1162.70 0.03985
1162.80 0.03983
1162.90 0.03982
1163.00 0.03981
1163.10 0.03979
1163.20 0.03978
1163.30 0.03977
1163.40 0.03975
1163.50 0.03974
1163.60 0.03973
1163.70 0.03971
1163.80 0.0397
1163.90 0.03969
1164.00 0.03967
1164.10 0.03966
1164.20 0.03965
1164.30 0.03964
1164.40 0.03962
1164.50 0.03961
1164.60 0.0396
1164.70 0.03958
1164.80 0.03957
1164.90 0.03956
1165.00 0.03954
1165.10 0.03953
1165.20 0.03952
1165.30 0.0395
1165.40 0.03949
1165.50 0.03948
1165.60 0.03946
1165.70 0.03945
1165.80 0.03944
1165.90 0.03942
1166.00 0.03941
1166.10 0.0394
1166.20 0.03938
1166.30 0.03937
1166.40 0.03936
1166.50 0.03934
1166.60 0.03933
1166.70 0.03932
1166.80 0.03931
1166.90 0.03929
1167.00 0.03928
1167.10 0.03927
1167.20 0.03925
1167.30 0.03924
1167.40 0.03923
1167.50 0.03921
1167.60 0.0392
1167.70 0.03919
1167.80 0.03917
1167.90 0.03916
1168.00 0.03915
1168.10 0.03914
1168.20 0.03912
1168.30 0.03911
1168.40 0.0391
1168.50 0.03908
1168.60 0.03907
1168.70 0.03906
1168.80 0.03904
1168.90 0.03903
1169.00 0.03902
1169.10 0.03901
1169.20 0.03899
1169.30 0.03898
1169.40 0.03897
1169.50 0.03895
1169.60 0.03894
1169.70 0.03893
1169.80 0.03891
1169.90 0.0389
1170.00 0.03889
1170.10 0.03888
1170.20 0.03886
1170.30 0.03885
1170.40 0.03884
1170.50 0.03882
1170.60 0.03881
1170.70 0.0388
1170.80 0.03878
1170.90 0.03877
1171.00 0.03876
1171.10 0.03875
1171.20 0.03873
1171.30 0.03872
1171.40 0.03871
1171.50 0.03869
1171.60 0.03868
1171.70 0.03867
1171.80 0.03866
1171.90 0.03864
1172.00 0.03863
1172.10 0.03862
1172.20 0.0386
1172.30 0.03859
1172.40 0.03858
1172.50 0.03857
1172.60 0.03855
1172.70 0.03854
1172.80 0.03853
1172.90 0.03851
1173.00 0.0385
1173.10 0.03849
1173.20 0.03848
1173.30 0.03846
1173.40 0.03845
1173.50 0.03844
1173.60 0.03842
1173.70 0.03841
1173.80 0.0384
1173.90 0.03839
1174.00 0.03837
1174.10 0.03836
1174.20 0.03835
1174.30 0.03834
1174.40 0.03832
1174.50 0.03831
1174.60 0.0383
1174.70 0.03828
1174.80 0.03827
1174.90 0.03826
1175.00 0.03825
1175.10 0.03823
1175.20 0.03822
1175.30 0.03821
1175.40 0.0382
1175.50 0.03818
1175.60 0.03817
1175.70 0.03816
1175.80 0.03814
1175.90 0.03813
1176.00 0.03812
1176.10 0.03811
1176.20 0.03809
1176.30 0.03808
1176.40 0.03807
1176.50 0.03806
1176.60 0.03804
1176.70 0.03803
1176.80 0.03802
1176.90 0.03801
1177.00 0.03799
1177.10 0.03798
1177.20 0.03797
1177.30 0.03795
1177.40 0.03794
1177.50 0.03793
1177.60 0.03792
1177.70 0.0379
1177.80 0.03789
1177.90 0.03788
1178.00 0.03787
1178.10 0.03785
1178.20 0.03784
1178.30 0.03783
1178.40 0.03782
1178.50 0.0378
1178.60 0.03779
1178.70 0.03778
1178.80 0.03777
1178.90 0.03775
1179.00 0.03774
1179.10 0.03773
1179.20 0.03772
1179.30 0.0377
1179.40 0.03769
1179.50 0.03768
1179.60 0.03767
1179.70 0.03765
1179.80 0.03764
1179.90 0.03763
1180.00 0.03762
1180.10 0.0376
1180.20 0.03759
1180.30 0.03758
1180.40 0.03757
1180.50 0.03755
1180.60 0.03754
1180.70 0.03753
1180.80 0.03752
1180.90 0.0375
1181.00 0.03749
1181.10 0.03748
1181.20 0.03747
1181.30 0.03745
1181.40 0.03744
1181.50 0.03743
1181.60 0.03742
1181.70 0.0374
1181.80 0.03739
1181.90 0.03738
1182.00 0.03737
1182.10 0.03736
1182.20 0.03734
1182.30 0.03733
1182.40 0.03732
1182.50 0.03731
1182.60 0.03729
1182.70 0.03728
1182.80 0.03727
1182.90 0.03726
1183.00 0.03724
1183.10 0.03723
1183.20 0.03722
1183.30 0.03721
1183.40 0.03719
1183.50 0.03718
1183.60 0.03717
1183.70 0.03716
1183.80 0.03715
1183.90 0.03713
1184.00 0.03712
1184.10 0.03711
1184.20 0.0371
1184.30 0.03708
1184.40 0.03707
1184.50 0.03706
1184.60 0.03705
1184.70 0.03704
1184.80 0.03702
1184.90 0.03701
1185.00 0.037
1185.10 0.03699
1185.20 0.03697
1185.30 0.03696
1185.40 0.03695
1185.50 0.03694
1185.60 0.03693
1185.70 0.03691
1185.80 0.0369
1185.90 0.03689
1186.00 0.03688
1186.10 0.03686
1186.20 0.03685
1186.30 0.03684
1186.40 0.03683
1186.50 0.03682
1186.60 0.0368
1186.70 0.03679
1186.80 0.03678
1186.90 0.03677
1187.00 0.03675
1187.10 0.03674
1187.20 0.03673
1187.30 0.03672
1187.40 0.03671
1187.50 0.03669
1187.60 0.03668
1187.70 0.03667
1187.80 0.03666
1187.90 0.03665
1188.00 0.03663
1188.10 0.03662
1188.20 0.03661
1188.30 0.0366
1188.40 0.03658
1188.50 0.03657
1188.60 0.03656
1188.70 0.03655
1188.80 0.03654
1188.90 0.03652
1189.00 0.03651
1189.10 0.0365
1189.20 0.03649
1189.30 0.03648
1189.40 0.03646
1189.50 0.03645
1189.60 0.03644
1189.70 0.03643
1189.80 0.03642
1189.90 0.0364
1190.00 0.03639
1190.10 0.03638
1190.20 0.03637
1190.30 0.03636
1190.40 0.03634
1190.50 0.03633
1190.60 0.03632
1190.70 0.03631
1190.80 0.0363
1190.90 0.03628
1191.00 0.03627
1191.10 0.03626
1191.20 0.03625
1191.30 0.03624
1191.40 0.03622
1191.50 0.03621
1191.60 0.0362
1191.70 0.03619
1191.80 0.03618
1191.90 0.03616
1192.00 0.03615
1192.10 0.03614
1192.20 0.03613
1192.30 0.03612
1192.40 0.0361
1192.50 0.03609
1192.60 0.03608
1192.70 0.03607
1192.80 0.03606
1192.90 0.03605
1193.00 0.03603
1193.10 0.03602
1193.20 0.03601
1193.30 0.036
1193.40 0.03599
1193.50 0.03597
1193.60 0.03596
1193.70 0.03595
1193.80 0.03594
1193.90 0.03593
1194.00 0.03591
1194.10 0.0359
1194.20 0.03589
1194.30 0.03588
1194.40 0.03587
1194.50 0.03586
1194.60 0.03584
1194.70 0.03583
1194.80 0.03582
1194.90 0.03581
1195.00 0.0358
1195.10 0.03578
1195.20 0.03577
1195.30 0.03576
1195.40 0.03575
1195.50 0.03574
1195.60 0.03573
1195.70 0.03571
1195.80 0.0357
1195.90 0.03569
1196.00 0.03568
1196.10 0.03567
1196.20 0.03566
1196.30 0.03564
1196.40 0.03563
1196.50 0.03562
1196.60 0.03561
1196.70 0.0356
1196.80 0.03558
1196.90 0.03557
1197.00 0.03556
1197.10 0.03555
1197.20 0.03554
1197.30 0.03553
1197.40 0.03551
1197.50 0.0355
1197.60 0.03549
1197.70 0.03548
1197.80 0.03547
1197.90 0.03546
1198.00 0.03544
1198.10 0.03543
1198.20 0.03542
1198.30 0.03541
1198.40 0.0354
1198.50 0.03539
1198.60 0.03537
1198.70 0.03536
1198.80 0.03535
1198.90 0.03534
1199.00 0.03533
1199.10 0.03532
1199.20 0.03531
1199.30 0.03529
1199.40 0.03528
1199.50 0.03527
1199.60 0.03526
1199.70 0.03525
1199.80 0.03524
1199.90 0.03522
1200.00 0
