# Version 2.1 - nm, norm@500 to 1, cut digits, bergeron_50000_75.dat_50000
# Wavelength(nm)  Flambda(ergs/cm^s/s/nm)
300.00 6.182
300.10 6.174
300.20 6.167
300.30 6.159
300.40 6.152
300.50 6.145
300.60 6.137
300.70 6.13
300.80 6.123
300.90 6.115
301.00 6.108
301.10 6.1
301.20 6.093
301.30 6.086
301.40 6.079
301.50 6.071
301.60 6.064
301.70 6.057
301.80 6.049
301.90 6.042
302.00 6.035
302.10 6.028
302.20 6.02
302.30 6.013
302.40 6.006
302.50 5.999
302.60 5.992
302.70 5.985
302.80 5.977
302.90 5.97
303.00 5.963
303.10 5.956
303.20 5.949
303.30 5.942
303.40 5.935
303.50 5.928
303.60 5.921
303.70 5.913
303.80 5.906
303.90 5.899
304.00 5.892
304.10 5.885
304.20 5.878
304.30 5.871
304.40 5.864
304.50 5.857
304.60 5.85
304.70 5.843
304.80 5.837
304.90 5.83
305.00 5.823
305.10 5.816
305.20 5.809
305.30 5.802
305.40 5.795
305.50 5.788
305.60 5.781
305.70 5.775
305.80 5.768
305.90 5.761
306.00 5.754
306.10 5.747
306.20 5.74
306.30 5.734
306.40 5.727
306.50 5.72
306.60 5.713
306.70 5.707
306.80 5.7
306.90 5.693
307.00 5.686
307.10 5.68
307.20 5.673
307.30 5.666
307.40 5.66
307.50 5.653
307.60 5.646
307.70 5.64
307.80 5.633
307.90 5.626
308.00 5.62
308.10 5.613
308.20 5.607
308.30 5.6
308.40 5.593
308.50 5.587
308.60 5.58
308.70 5.574
308.80 5.567
308.90 5.561
309.00 5.554
309.10 5.548
309.20 5.541
309.30 5.535
309.40 5.528
309.50 5.522
309.60 5.515
309.70 5.509
309.80 5.502
309.90 5.496
310.00 5.489
310.10 5.483
310.20 5.477
310.30 5.47
310.40 5.464
310.50 5.457
310.60 5.451
310.70 5.445
310.80 5.438
310.90 5.432
311.00 5.426
311.10 5.419
311.20 5.413
311.30 5.407
311.40 5.4
311.50 5.394
311.60 5.388
311.70 5.381
311.80 5.375
311.90 5.369
312.00 5.363
312.10 5.356
312.20 5.35
312.30 5.344
312.40 5.338
312.50 5.332
312.60 5.325
312.70 5.319
312.80 5.313
312.90 5.307
313.00 5.301
313.10 5.295
313.20 5.288
313.30 5.282
313.40 5.276
313.50 5.27
313.60 5.264
313.70 5.258
313.80 5.252
313.90 5.246
314.00 5.24
314.10 5.234
314.20 5.228
314.30 5.222
314.40 5.216
314.50 5.21
314.60 5.204
314.70 5.198
314.80 5.192
314.90 5.186
315.00 5.18
315.10 5.174
315.20 5.168
315.30 5.162
315.40 5.156
315.50 5.15
315.60 5.144
315.70 5.138
315.80 5.132
315.90 5.126
316.00 5.12
316.10 5.114
316.20 5.109
316.30 5.103
316.40 5.097
316.50 5.091
316.60 5.085
316.70 5.079
316.80 5.073
316.90 5.068
317.00 5.062
317.10 5.056
317.20 5.05
317.30 5.044
317.40 5.039
317.50 5.033
317.60 5.027
317.70 5.021
317.80 5.016
317.90 5.01
318.00 5.004
318.10 4.998
318.20 4.993
318.30 4.987
318.40 4.981
318.50 4.976
318.60 4.97
318.70 4.964
318.80 4.959
318.90 4.953
319.00 4.947
319.10 4.942
319.20 4.936
319.30 4.931
319.40 4.925
319.50 4.919
319.60 4.914
319.70 4.908
319.80 4.903
319.90 4.897
320.00 4.891
320.10 4.886
320.20 4.88
320.30 4.875
320.40 4.869
320.50 4.864
320.60 4.858
320.70 4.853
320.80 4.847
320.90 4.842
321.00 4.836
321.10 4.831
321.20 4.825
321.30 4.82
321.40 4.814
321.50 4.809
321.60 4.804
321.70 4.798
321.80 4.793
321.90 4.787
322.00 4.782
322.10 4.776
322.20 4.771
322.30 4.766
322.40 4.76
322.50 4.755
322.60 4.75
322.70 4.744
322.80 4.739
322.90 4.734
323.00 4.728
323.10 4.723
323.20 4.718
323.30 4.712
323.40 4.707
323.50 4.702
323.60 4.696
323.70 4.691
323.80 4.686
323.90 4.681
324.00 4.675
324.10 4.67
324.20 4.665
324.30 4.66
324.40 4.654
324.50 4.649
324.60 4.644
324.70 4.639
324.80 4.633
324.90 4.628
325.00 4.623
325.10 4.618
325.20 4.613
325.30 4.608
325.40 4.602
325.50 4.597
325.60 4.592
325.70 4.587
325.80 4.582
325.90 4.577
326.00 4.572
326.10 4.567
326.20 4.562
326.30 4.556
326.40 4.551
326.50 4.546
326.60 4.541
326.70 4.536
326.80 4.531
326.90 4.526
327.00 4.521
327.10 4.516
327.20 4.511
327.30 4.506
327.40 4.501
327.50 4.496
327.60 4.491
327.70 4.486
327.80 4.481
327.90 4.476
328.00 4.471
328.10 4.466
328.20 4.461
328.30 4.456
328.40 4.451
328.50 4.446
328.60 4.441
328.70 4.436
328.80 4.431
328.90 4.427
329.00 4.422
329.10 4.417
329.20 4.412
329.30 4.407
329.40 4.402
329.50 4.397
329.60 4.392
329.70 4.388
329.80 4.383
329.90 4.378
330.00 4.373
330.10 4.368
330.20 4.363
330.30 4.359
330.40 4.354
330.50 4.349
330.60 4.344
330.70 4.339
330.80 4.335
330.90 4.33
331.00 4.325
331.10 4.32
331.20 4.316
331.30 4.311
331.40 4.306
331.50 4.301
331.60 4.297
331.70 4.292
331.80 4.287
331.90 4.282
332.00 4.278
332.10 4.273
332.20 4.268
332.30 4.264
332.40 4.259
332.50 4.254
332.60 4.25
332.70 4.245
332.80 4.24
332.90 4.236
333.00 4.231
333.10 4.227
333.20 4.222
333.30 4.217
333.40 4.213
333.50 4.208
333.60 4.203
333.70 4.199
333.80 4.194
333.90 4.19
334.00 4.185
334.10 4.181
334.20 4.176
334.30 4.171
334.40 4.167
334.50 4.162
334.60 4.158
334.70 4.153
334.80 4.149
334.90 4.144
335.00 4.14
335.10 4.135
335.20 4.131
335.30 4.126
335.40 4.122
335.50 4.117
335.60 4.113
335.70 4.108
335.80 4.104
335.90 4.099
336.00 4.095
336.10 4.09
336.20 4.086
336.30 4.082
336.40 4.077
336.50 4.073
336.60 4.068
336.70 4.064
336.80 4.06
336.90 4.055
337.00 4.051
337.10 4.046
337.20 4.042
337.30 4.038
337.40 4.033
337.50 4.029
337.60 4.025
337.70 4.02
337.80 4.016
337.90 4.011
338.00 4.007
338.10 4.003
338.20 3.998
338.30 3.994
338.40 3.99
338.50 3.986
338.60 3.981
338.70 3.977
338.80 3.973
338.90 3.968
339.00 3.964
339.10 3.96
339.20 3.956
339.30 3.951
339.40 3.947
339.50 3.943
339.60 3.939
339.70 3.934
339.80 3.93
339.90 3.926
340.00 3.922
340.10 3.918
340.20 3.913
340.30 3.909
340.40 3.905
340.50 3.901
340.60 3.897
340.70 3.892
340.80 3.888
340.90 3.884
341.00 3.88
341.10 3.876
341.20 3.872
341.30 3.867
341.40 3.863
341.50 3.859
341.60 3.855
341.70 3.851
341.80 3.847
341.90 3.843
342.00 3.839
342.10 3.834
342.20 3.83
342.30 3.826
342.40 3.822
342.50 3.818
342.60 3.814
342.70 3.81
342.80 3.806
342.90 3.802
343.00 3.798
343.10 3.794
343.20 3.79
343.30 3.786
343.40 3.782
343.50 3.778
343.60 3.774
343.70 3.77
343.80 3.766
343.90 3.762
344.00 3.758
344.10 3.754
344.20 3.75
344.30 3.746
344.40 3.742
344.50 3.738
344.60 3.734
344.70 3.73
344.80 3.726
344.90 3.722
345.00 3.718
345.10 3.714
345.20 3.71
345.30 3.706
345.40 3.702
345.50 3.698
345.60 3.694
345.70 3.691
345.80 3.687
345.90 3.683
346.00 3.679
346.10 3.675
346.20 3.671
346.30 3.667
346.40 3.663
346.50 3.659
346.60 3.656
346.70 3.652
346.80 3.648
346.90 3.644
347.00 3.64
347.10 3.636
347.20 3.633
347.30 3.629
347.40 3.625
347.50 3.621
347.60 3.617
347.70 3.613
347.80 3.61
347.90 3.606
348.00 3.602
348.10 3.598
348.20 3.595
348.30 3.591
348.40 3.587
348.50 3.583
348.60 3.579
348.70 3.576
348.80 3.572
348.90 3.568
349.00 3.564
349.10 3.561
349.20 3.557
349.30 3.553
349.40 3.55
349.50 3.546
349.60 3.542
349.70 3.538
349.80 3.535
349.90 3.531
350.00 3.527
350.10 3.524
350.20 3.52
350.30 3.516
350.40 3.513
350.50 3.509
350.60 3.505
350.70 3.502
350.80 3.498
350.90 3.494
351.00 3.491
351.10 3.487
351.20 3.483
351.30 3.48
351.40 3.476
351.50 3.473
351.60 3.469
351.70 3.465
351.80 3.462
351.90 3.458
352.00 3.454
352.10 3.451
352.20 3.447
352.30 3.444
352.40 3.44
352.50 3.437
352.60 3.433
352.70 3.43
352.80 3.426
352.90 3.422
353.00 3.419
353.10 3.415
353.20 3.412
353.30 3.408
353.40 3.405
353.50 3.401
353.60 3.398
353.70 3.394
353.80 3.391
353.90 3.387
354.00 3.384
354.10 3.38
354.20 3.377
354.30 3.373
354.40 3.37
354.50 3.366
354.60 3.363
354.70 3.359
354.80 3.356
354.90 3.352
355.00 3.349
355.10 3.345
355.20 3.342
355.30 3.338
355.40 3.335
355.50 3.332
355.60 3.328
355.70 3.325
355.80 3.321
355.90 3.318
356.00 3.314
356.10 3.311
356.20 3.308
356.30 3.304
356.40 3.301
356.50 3.297
356.60 3.294
356.70 3.291
356.80 3.287
356.90 3.284
357.00 3.281
357.10 3.277
357.20 3.274
357.30 3.27
357.40 3.267
357.50 3.264
357.60 3.26
357.70 3.257
357.80 3.254
357.90 3.25
358.00 3.247
358.10 3.244
358.20 3.24
358.30 3.237
358.40 3.234
358.50 3.231
358.60 3.227
358.70 3.224
358.80 3.221
358.90 3.217
359.00 3.214
359.10 3.211
359.20 3.208
359.30 3.204
359.40 3.201
359.50 3.198
359.60 3.194
359.70 3.191
359.80 3.188
359.90 3.185
360.00 3.181
360.10 3.178
360.20 3.175
360.30 3.172
360.40 3.169
360.50 3.165
360.60 3.162
360.70 3.159
360.80 3.156
360.90 3.152
361.00 3.149
361.10 3.146
361.20 3.143
361.30 3.14
361.40 3.136
361.50 3.133
361.60 3.13
361.70 3.127
361.80 3.124
361.90 3.121
362.00 3.117
362.10 3.114
362.20 3.111
362.30 3.108
362.40 3.105
362.50 3.102
362.60 3.099
362.70 3.095
362.80 3.092
362.90 3.089
363.00 3.086
363.10 3.083
363.20 3.08
363.30 3.077
363.40 3.074
363.50 3.071
363.60 3.067
363.70 3.064
363.80 3.061
363.90 3.058
364.00 3.055
364.10 3.052
364.20 3.049
364.30 3.046
364.40 3.043
364.50 3.04
364.60 3.037
364.70 3.034
364.80 3.031
364.90 3.027
365.00 3.024
365.10 3.021
365.20 3.018
365.30 3.015
365.40 3.012
365.50 3.009
365.60 3.006
365.70 3.003
365.80 3
365.90 2.997
366.00 2.994
366.10 2.991
366.20 2.988
366.30 2.985
366.40 2.982
366.50 2.979
366.60 2.976
366.70 2.972
366.80 2.969
366.90 2.966
367.00 2.963
367.10 2.96
367.20 2.957
367.30 2.954
367.40 2.951
367.50 2.948
367.60 2.945
367.70 2.942
367.80 2.939
367.90 2.935
368.00 2.932
368.10 2.929
368.20 2.926
368.30 2.923
368.40 2.92
368.50 2.917
368.60 2.914
368.70 2.911
368.80 2.908
368.90 2.905
369.00 2.902
369.10 2.899
369.20 2.896
369.30 2.893
369.40 2.89
369.50 2.887
369.60 2.884
369.70 2.881
369.80 2.878
369.90 2.875
370.00 2.872
370.10 2.869
370.20 2.866
370.30 2.863
370.40 2.86
370.50 2.858
370.60 2.855
370.70 2.852
370.80 2.849
370.90 2.846
371.00 2.843
371.10 2.84
371.20 2.837
371.30 2.834
371.40 2.831
371.50 2.828
371.60 2.825
371.70 2.822
371.80 2.82
371.90 2.817
372.00 2.814
372.10 2.811
372.20 2.808
372.30 2.805
372.40 2.803
372.50 2.8
372.60 2.797
372.70 2.794
372.80 2.791
372.90 2.789
373.00 2.786
373.10 2.783
373.20 2.78
373.30 2.777
373.40 2.775
373.50 2.772
373.60 2.769
373.70 2.766
373.80 2.764
373.90 2.761
374.00 2.758
374.10 2.755
374.20 2.753
374.30 2.75
374.40 2.747
374.50 2.745
374.60 2.742
374.70 2.739
374.80 2.737
374.90 2.734
375.00 2.731
375.10 2.729
375.20 2.726
375.30 2.724
375.40 2.721
375.50 2.718
375.60 2.716
375.70 2.713
375.80 2.71
375.90 2.708
376.00 2.705
376.10 2.703
376.20 2.7
376.30 2.697
376.40 2.695
376.50 2.692
376.60 2.69
376.70 2.687
376.80 2.685
376.90 2.682
377.00 2.68
377.10 2.677
377.20 2.675
377.30 2.673
377.40 2.67
377.50 2.668
377.60 2.666
377.70 2.663
377.80 2.661
377.90 2.659
378.00 2.657
378.10 2.654
378.20 2.652
378.30 2.649
378.40 2.647
378.50 2.644
378.60 2.642
378.70 2.639
378.80 2.637
378.90 2.634
379.00 2.632
379.10 2.629
379.20 2.627
379.30 2.624
379.40 2.622
379.50 2.62
379.60 2.617
379.70 2.615
379.80 2.612
379.90 2.61
380.00 2.608
380.10 2.606
380.20 2.604
380.30 2.602
380.40 2.6
380.50 2.599
380.60 2.597
380.70 2.595
380.80 2.593
380.90 2.591
381.00 2.59
381.10 2.587
381.20 2.585
381.30 2.583
381.40 2.581
381.50 2.578
381.60 2.576
381.70 2.573
381.80 2.57
381.90 2.568
382.00 2.565
382.10 2.562
382.20 2.559
382.30 2.555
382.40 2.552
382.50 2.548
382.60 2.545
382.70 2.541
382.80 2.538
382.90 2.534
383.00 2.531
383.10 2.527
383.20 2.524
383.30 2.52
383.40 2.517
383.50 2.515
383.60 2.513
383.70 2.512
383.80 2.511
383.90 2.511
384.00 2.511
384.10 2.511
384.20 2.51
384.30 2.51
384.40 2.51
384.50 2.51
384.60 2.509
384.70 2.509
384.80 2.508
384.90 2.507
385.00 2.506
385.10 2.505
385.20 2.504
385.30 2.503
385.40 2.501
385.50 2.499
385.60 2.498
385.70 2.495
385.80 2.493
385.90 2.491
386.00 2.488
386.10 2.486
386.20 2.483
386.30 2.48
386.40 2.476
386.50 2.473
386.60 2.469
386.70 2.466
386.80 2.462
386.90 2.457
387.00 2.453
387.10 2.448
387.20 2.443
387.30 2.438
387.40 2.433
387.50 2.428
387.60 2.422
387.70 2.416
387.80 2.41
387.90 2.404
388.00 2.398
388.10 2.392
388.20 2.385
388.30 2.379
388.40 2.373
388.50 2.367
388.60 2.361
388.70 2.356
388.80 2.352
388.90 2.35
389.00 2.349
389.10 2.349
389.20 2.35
389.30 2.352
389.40 2.355
389.50 2.357
389.60 2.36
389.70 2.363
389.80 2.366
389.90 2.368
390.00 2.371
390.10 2.374
390.20 2.376
390.30 2.378
390.40 2.38
390.50 2.382
390.60 2.384
390.70 2.385
390.80 2.386
390.90 2.387
391.00 2.388
391.10 2.389
391.20 2.39
391.30 2.39
391.40 2.39
391.50 2.39
391.60 2.39
391.70 2.389
391.80 2.389
391.90 2.388
392.00 2.387
392.10 2.386
392.20 2.385
392.30 2.384
392.40 2.382
392.50 2.38
392.60 2.378
392.70 2.376
392.80 2.374
392.90 2.371
393.00 2.369
393.10 2.366
393.20 2.363
393.30 2.359
393.40 2.356
393.50 2.352
393.60 2.348
393.70 2.344
393.80 2.34
393.90 2.336
394.00 2.331
394.10 2.326
394.20 2.321
394.30 2.315
394.40 2.309
394.50 2.304
394.60 2.297
394.70 2.291
394.80 2.284
394.90 2.277
395.00 2.27
395.10 2.262
395.20 2.254
395.30 2.246
395.40 2.237
395.50 2.228
395.60 2.219
395.70 2.209
395.80 2.2
395.90 2.189
396.00 2.179
396.10 2.169
396.20 2.158
396.30 2.147
396.40 2.136
396.50 2.124
396.60 2.113
396.70 2.102
396.80 2.091
396.90 2.081
397.00 2.072
397.10 2.077
397.20 2.083
397.30 2.09
397.40 2.098
397.50 2.105
397.60 2.113
397.70 2.121
397.80 2.128
397.90 2.135
398.00 2.142
398.10 2.149
398.20 2.155
398.30 2.161
398.40 2.167
398.50 2.173
398.60 2.178
398.70 2.183
398.80 2.188
398.90 2.192
399.00 2.196
399.10 2.2
399.20 2.204
399.30 2.207
399.40 2.21
399.50 2.213
399.60 2.215
399.70 2.218
399.80 2.22
399.90 2.222
400.00 2.223
400.10 2.225
400.20 2.226
400.30 2.227
400.40 2.228
400.50 2.229
400.60 2.23
400.70 2.23
400.80 2.23
400.90 2.231
401.00 2.231
401.10 2.231
401.20 2.23
401.30 2.23
401.40 2.23
401.50 2.229
401.60 2.229
401.70 2.228
401.80 2.227
401.90 2.226
402.00 2.225
402.10 2.224
402.20 2.223
402.30 2.222
402.40 2.221
402.50 2.219
402.60 2.218
402.70 2.216
402.80 2.215
402.90 2.213
403.00 2.212
403.10 2.21
403.20 2.208
403.30 2.206
403.40 2.204
403.50 2.202
403.60 2.2
403.70 2.198
403.80 2.196
403.90 2.194
404.00 2.191
404.10 2.189
404.20 2.186
404.30 2.184
404.40 2.181
404.50 2.179
404.60 2.176
404.70 2.173
404.80 2.17
404.90 2.167
405.00 2.164
405.10 2.161
405.20 2.158
405.30 2.154
405.40 2.151
405.50 2.147
405.60 2.144
405.70 2.14
405.80 2.136
405.90 2.132
406.00 2.128
406.10 2.124
406.20 2.119
406.30 2.115
406.40 2.11
406.50 2.105
406.60 2.1
406.70 2.095
406.80 2.089
406.90 2.084
407.00 2.078
407.10 2.072
407.20 2.066
407.30 2.059
407.40 2.052
407.50 2.045
407.60 2.038
407.70 2.03
407.80 2.022
407.90 2.014
408.00 2.005
408.10 1.996
408.20 1.986
408.30 1.977
408.40 1.967
408.50 1.956
408.60 1.945
408.70 1.934
408.80 1.922
408.90 1.909
409.00 1.897
409.10 1.884
409.20 1.87
409.30 1.856
409.40 1.842
409.50 1.827
409.60 1.812
409.70 1.797
409.80 1.782
409.90 1.767
410.00 1.756
410.10 1.751
410.20 1.753
410.30 1.751
410.40 1.755
410.50 1.765
410.60 1.777
410.70 1.789
410.80 1.801
410.90 1.812
411.00 1.824
411.10 1.835
411.20 1.845
411.30 1.855
411.40 1.865
411.50 1.874
411.60 1.882
411.70 1.89
411.80 1.898
411.90 1.905
412.00 1.912
412.10 1.918
412.20 1.924
412.30 1.93
412.40 1.935
412.50 1.939
412.60 1.944
412.70 1.948
412.80 1.952
412.90 1.955
413.00 1.959
413.10 1.962
413.20 1.964
413.30 1.967
413.40 1.969
413.50 1.971
413.60 1.973
413.70 1.975
413.80 1.976
413.90 1.977
414.00 1.979
414.10 1.98
414.20 1.98
414.30 1.981
414.40 1.982
414.50 1.982
414.60 1.982
414.70 1.983
414.80 1.983
414.90 1.983
415.00 1.983
415.10 1.982
415.20 1.982
415.30 1.982
415.40 1.981
415.50 1.981
415.60 1.98
415.70 1.98
415.80 1.979
415.90 1.978
416.00 1.978
416.10 1.977
416.20 1.976
416.30 1.975
416.40 1.974
416.50 1.973
416.60 1.972
416.70 1.971
416.80 1.97
416.90 1.969
417.00 1.968
417.10 1.967
417.20 1.966
417.30 1.964
417.40 1.963
417.50 1.962
417.60 1.961
417.70 1.959
417.80 1.958
417.90 1.957
418.00 1.955
418.10 1.954
418.20 1.952
418.30 1.951
418.40 1.95
418.50 1.948
418.60 1.947
418.70 1.945
418.80 1.944
418.90 1.942
419.00 1.941
419.10 1.939
419.20 1.938
419.30 1.936
419.40 1.935
419.50 1.933
419.60 1.932
419.70 1.93
419.80 1.929
419.90 1.927
420.00 1.925
420.10 1.924
420.20 1.922
420.30 1.921
420.40 1.919
420.50 1.917
420.60 1.916
420.70 1.914
420.80 1.913
420.90 1.911
421.00 1.909
421.10 1.908
421.20 1.906
421.30 1.904
421.40 1.903
421.50 1.901
421.60 1.899
421.70 1.898
421.80 1.896
421.90 1.894
422.00 1.893
422.10 1.891
422.20 1.889
422.30 1.888
422.40 1.886
422.50 1.884
422.60 1.883
422.70 1.881
422.80 1.879
422.90 1.877
423.00 1.876
423.10 1.874
423.20 1.872
423.30 1.871
423.40 1.869
423.50 1.867
423.60 1.865
423.70 1.864
423.80 1.862
423.90 1.86
424.00 1.858
424.10 1.856
424.20 1.855
424.30 1.853
424.40 1.851
424.50 1.849
424.60 1.848
424.70 1.846
424.80 1.844
424.90 1.842
425.00 1.84
425.10 1.838
425.20 1.837
425.30 1.835
425.40 1.833
425.50 1.831
425.60 1.829
425.70 1.827
425.80 1.825
425.90 1.823
426.00 1.821
426.10 1.819
426.20 1.817
426.30 1.815
426.40 1.813
426.50 1.811
426.60 1.809
426.70 1.807
426.80 1.805
426.90 1.803
427.00 1.801
427.10 1.799
427.20 1.797
427.30 1.795
427.40 1.792
427.50 1.79
427.60 1.788
427.70 1.786
427.80 1.783
427.90 1.781
428.00 1.779
428.10 1.776
428.20 1.774
428.30 1.771
428.40 1.769
428.50 1.766
428.60 1.764
428.70 1.761
428.80 1.758
428.90 1.755
429.00 1.753
429.10 1.75
429.20 1.747
429.30 1.744
429.40 1.74
429.50 1.737
429.60 1.734
429.70 1.73
429.80 1.727
429.90 1.723
430.00 1.719
430.10 1.716
430.20 1.712
430.30 1.707
430.40 1.703
430.50 1.699
430.60 1.694
430.70 1.689
430.80 1.684
430.90 1.679
431.00 1.674
431.10 1.668
431.20 1.663
431.30 1.656
431.40 1.65
431.50 1.644
431.60 1.637
431.70 1.629
431.80 1.622
431.90 1.614
432.00 1.606
432.10 1.597
432.20 1.588
432.30 1.579
432.40 1.569
432.50 1.559
432.60 1.548
432.70 1.537
432.80 1.526
432.90 1.514
433.00 1.501
433.10 1.488
433.20 1.475
433.30 1.461
433.40 1.447
433.50 1.433
433.60 1.418
433.70 1.404
433.80 1.391
433.90 1.377
434.00 1.365
434.10 1.365
434.20 1.375
434.30 1.386
434.40 1.397
434.50 1.409
434.60 1.421
434.70 1.433
434.80 1.445
434.90 1.456
435.00 1.467
435.10 1.477
435.20 1.487
435.30 1.496
435.40 1.505
435.50 1.513
435.60 1.521
435.70 1.528
435.80 1.535
435.90 1.542
436.00 1.548
436.10 1.554
436.20 1.559
436.30 1.564
436.40 1.568
436.50 1.572
436.60 1.576
436.70 1.58
436.80 1.583
436.90 1.586
437.00 1.589
437.10 1.592
437.20 1.594
437.30 1.596
437.40 1.598
437.50 1.6
437.60 1.601
437.70 1.603
437.80 1.604
437.90 1.605
438.00 1.606
438.10 1.607
438.20 1.608
438.30 1.608
438.40 1.609
438.50 1.609
438.60 1.609
438.70 1.609
438.80 1.61
438.90 1.61
439.00 1.61
439.10 1.609
439.20 1.609
439.30 1.609
439.40 1.609
439.50 1.608
439.60 1.608
439.70 1.607
439.80 1.607
439.90 1.606
440.00 1.606
440.10 1.605
440.20 1.605
440.30 1.604
440.40 1.603
440.50 1.602
440.60 1.602
440.70 1.601
440.80 1.6
440.90 1.599
441.00 1.598
441.10 1.597
441.20 1.596
441.30 1.596
441.40 1.595
441.50 1.594
441.60 1.593
441.70 1.592
441.80 1.591
441.90 1.59
442.00 1.589
442.10 1.588
442.20 1.586
442.30 1.585
442.40 1.584
442.50 1.583
442.60 1.582
442.70 1.581
442.80 1.58
442.90 1.579
443.00 1.578
443.10 1.577
443.20 1.575
443.30 1.574
443.40 1.573
443.50 1.572
443.60 1.571
443.70 1.57
443.80 1.568
443.90 1.567
444.00 1.566
444.10 1.565
444.20 1.564
444.30 1.562
444.40 1.561
444.50 1.56
444.60 1.559
444.70 1.558
444.80 1.556
444.90 1.555
445.00 1.554
445.10 1.553
445.20 1.552
445.30 1.55
445.40 1.549
445.50 1.548
445.60 1.547
445.70 1.545
445.80 1.544
445.90 1.543
446.00 1.542
446.10 1.541
446.20 1.539
446.30 1.538
446.40 1.537
446.50 1.536
446.60 1.534
446.70 1.533
446.80 1.532
446.90 1.531
447.00 1.529
447.10 1.528
447.20 1.527
447.30 1.526
447.40 1.524
447.50 1.523
447.60 1.522
447.70 1.521
447.80 1.52
447.90 1.518
448.00 1.517
448.10 1.516
448.20 1.515
448.30 1.513
448.40 1.512
448.50 1.511
448.60 1.51
448.70 1.508
448.80 1.507
448.90 1.506
449.00 1.505
449.10 1.503
449.20 1.502
449.30 1.501
449.40 1.5
449.50 1.498
449.60 1.497
449.70 1.496
449.80 1.495
449.90 1.494
450.00 1.492
450.10 1.491
450.20 1.49
450.30 1.489
450.40 1.487
450.50 1.486
450.60 1.485
450.70 1.484
450.80 1.483
450.90 1.481
451.00 1.48
451.10 1.479
451.20 1.478
451.30 1.476
451.40 1.475
451.50 1.474
451.60 1.473
451.70 1.472
451.80 1.47
451.90 1.469
452.00 1.468
452.10 1.467
452.20 1.465
452.30 1.464
452.40 1.463
452.50 1.462
452.60 1.461
452.70 1.459
452.80 1.458
452.90 1.457
453.00 1.456
453.10 1.455
453.20 1.453
453.30 1.452
453.40 1.451
453.50 1.45
453.60 1.449
453.70 1.447
453.80 1.446
453.90 1.445
454.00 1.444
454.10 1.443
454.20 1.441
454.30 1.44
454.40 1.439
454.50 1.438
454.60 1.437
454.70 1.435
454.80 1.434
454.90 1.433
455.00 1.432
455.10 1.431
455.20 1.429
455.30 1.428
455.40 1.427
455.50 1.426
455.60 1.425
455.70 1.424
455.80 1.422
455.90 1.421
456.00 1.42
456.10 1.419
456.20 1.418
456.30 1.417
456.40 1.415
456.50 1.414
456.60 1.413
456.70 1.412
456.80 1.411
456.90 1.409
457.00 1.408
457.10 1.407
457.20 1.406
457.30 1.405
457.40 1.404
457.50 1.403
457.60 1.401
457.70 1.4
457.80 1.399
457.90 1.398
458.00 1.397
458.10 1.396
458.20 1.394
458.30 1.393
458.40 1.392
458.50 1.391
458.60 1.39
458.70 1.389
458.80 1.388
458.90 1.386
459.00 1.385
459.10 1.384
459.20 1.383
459.30 1.382
459.40 1.381
459.50 1.38
459.60 1.378
459.70 1.377
459.80 1.376
459.90 1.375
460.00 1.374
460.10 1.373
460.20 1.372
460.30 1.37
460.40 1.369
460.50 1.368
460.60 1.367
460.70 1.366
460.80 1.365
460.90 1.364
461.00 1.363
461.10 1.361
461.20 1.36
461.30 1.359
461.40 1.358
461.50 1.357
461.60 1.356
461.70 1.355
461.80 1.354
461.90 1.352
462.00 1.351
462.10 1.35
462.20 1.349
462.30 1.348
462.40 1.347
462.50 1.346
462.60 1.345
462.70 1.344
462.80 1.342
462.90 1.341
463.00 1.34
463.10 1.339
463.20 1.338
463.30 1.337
463.40 1.336
463.50 1.335
463.60 1.334
463.70 1.333
463.80 1.331
463.90 1.33
464.00 1.329
464.10 1.328
464.20 1.327
464.30 1.326
464.40 1.325
464.50 1.324
464.60 1.323
464.70 1.322
464.80 1.321
464.90 1.319
465.00 1.318
465.10 1.317
465.20 1.316
465.30 1.315
465.40 1.314
465.50 1.313
465.60 1.312
465.70 1.311
465.80 1.31
465.90 1.309
466.00 1.308
466.10 1.306
466.20 1.305
466.30 1.304
466.40 1.303
466.50 1.302
466.60 1.301
466.70 1.3
466.80 1.299
466.90 1.298
467.00 1.297
467.10 1.296
467.20 1.295
467.30 1.294
467.40 1.293
467.50 1.292
467.60 1.29
467.70 1.289
467.80 1.288
467.90 1.287
468.00 1.286
468.10 1.285
468.20 1.284
468.30 1.283
468.40 1.282
468.50 1.281
468.60 1.28
468.70 1.279
468.80 1.278
468.90 1.277
469.00 1.276
469.10 1.275
469.20 1.274
469.30 1.272
469.40 1.271
469.50 1.27
469.60 1.269
469.70 1.268
469.80 1.267
469.90 1.266
470.00 1.265
470.10 1.264
470.20 1.263
470.30 1.262
470.40 1.261
470.50 1.26
470.60 1.259
470.70 1.258
470.80 1.257
470.90 1.256
471.00 1.255
471.10 1.254
471.20 1.253
471.30 1.251
471.40 1.25
471.50 1.249
471.60 1.248
471.70 1.247
471.80 1.246
471.90 1.245
472.00 1.244
472.10 1.243
472.20 1.242
472.30 1.241
472.40 1.24
472.50 1.239
472.60 1.238
472.70 1.237
472.80 1.236
472.90 1.235
473.00 1.234
473.10 1.233
473.20 1.232
473.30 1.231
473.40 1.23
473.50 1.229
473.60 1.227
473.70 1.226
473.80 1.225
473.90 1.224
474.00 1.223
474.10 1.222
474.20 1.221
474.30 1.22
474.40 1.219
474.50 1.218
474.60 1.217
474.70 1.216
474.80 1.215
474.90 1.214
475.00 1.213
475.10 1.212
475.20 1.211
475.30 1.21
475.40 1.208
475.50 1.207
475.60 1.206
475.70 1.205
475.80 1.204
475.90 1.203
476.00 1.202
476.10 1.201
476.20 1.2
476.30 1.199
476.40 1.198
476.50 1.197
476.60 1.195
476.70 1.194
476.80 1.193
476.90 1.192
477.00 1.191
477.10 1.19
477.20 1.189
477.30 1.188
477.40 1.186
477.50 1.185
477.60 1.184
477.70 1.183
477.80 1.182
477.90 1.181
478.00 1.18
478.10 1.178
478.20 1.177
478.30 1.176
478.40 1.175
478.50 1.173
478.60 1.172
478.70 1.171
478.80 1.17
478.90 1.168
479.00 1.167
479.10 1.166
479.20 1.165
479.30 1.163
479.40 1.162
479.50 1.161
479.60 1.159
479.70 1.158
479.80 1.156
479.90 1.155
480.00 1.154
480.10 1.152
480.20 1.151
480.30 1.149
480.40 1.148
480.50 1.146
480.60 1.144
480.70 1.143
480.80 1.141
480.90 1.139
481.00 1.138
481.10 1.136
481.20 1.134
481.30 1.132
481.40 1.13
481.50 1.128
481.60 1.126
481.70 1.124
481.80 1.122
481.90 1.12
482.00 1.118
482.10 1.116
482.20 1.113
482.30 1.111
482.40 1.108
482.50 1.105
482.60 1.102
482.70 1.099
482.80 1.096
482.90 1.094
483.00 1.091
483.10 1.088
483.20 1.084
483.30 1.08
483.40 1.076
483.50 1.072
483.60 1.067
483.70 1.063
483.80 1.059
483.90 1.055
484.00 1.051
484.10 1.047
484.20 1.041
484.30 1.035
484.40 1.03
484.50 1.024
484.60 1.018
484.70 1.011
484.80 1.004
484.90 0.9971
485.00 0.99
485.10 0.9828
485.20 0.975
485.30 0.9668
485.40 0.9583
485.50 0.9497
485.60 0.9407
485.70 0.9316
485.80 0.9222
485.90 0.9125
486.00 0.9024
486.10 0.9025
486.20 0.8979
486.30 0.9037
486.40 0.9122
486.50 0.9205
486.60 0.9284
486.70 0.9361
486.80 0.9435
486.90 0.9507
487.00 0.9575
487.10 0.9641
487.20 0.97
487.30 0.9756
487.40 0.9812
487.50 0.9868
487.60 0.9924
487.70 0.9969
487.80 1.001
487.90 1.005
488.00 1.009
488.10 1.013
488.20 1.016
488.30 1.019
488.40 1.021
488.50 1.024
488.60 1.026
488.70 1.029
488.80 1.031
488.90 1.034
489.00 1.036
489.10 1.039
489.20 1.04
489.30 1.041
489.40 1.042
489.50 1.043
489.60 1.044
489.70 1.045
489.80 1.046
489.90 1.047
490.00 1.048
490.10 1.049
490.20 1.05
490.30 1.05
490.40 1.05
490.50 1.051
490.60 1.051
490.70 1.051
490.80 1.051
490.90 1.051
491.00 1.052
491.10 1.052
491.20 1.052
491.30 1.052
491.40 1.052
491.50 1.051
491.60 1.051
491.70 1.051
491.80 1.051
491.90 1.051
492.00 1.05
492.10 1.05
492.20 1.05
492.30 1.05
492.40 1.049
492.50 1.049
492.60 1.048
492.70 1.048
492.80 1.047
492.90 1.047
493.00 1.047
493.10 1.046
493.20 1.046
493.30 1.045
493.40 1.045
493.50 1.044
493.60 1.044
493.70 1.043
493.80 1.042
493.90 1.042
494.00 1.041
494.10 1.041
494.20 1.04
494.30 1.04
494.40 1.039
494.50 1.038
494.60 1.038
494.70 1.037
494.80 1.036
494.90 1.036
495.00 1.035
495.10 1.035
495.20 1.034
495.30 1.033
495.40 1.033
495.50 1.032
495.60 1.031
495.70 1.031
495.80 1.03
495.90 1.029
496.00 1.029
496.10 1.028
496.20 1.027
496.30 1.027
496.40 1.026
496.50 1.025
496.60 1.024
496.70 1.024
496.80 1.023
496.90 1.022
497.00 1.022
497.10 1.021
497.20 1.02
497.30 1.019
497.40 1.019
497.50 1.018
497.60 1.017
497.70 1.017
497.80 1.016
497.90 1.015
498.00 1.014
498.10 1.014
498.20 1.013
498.30 1.012
498.40 1.012
498.50 1.011
498.60 1.01
498.70 1.009
498.80 1.009
498.90 1.008
499.00 1.007
499.10 1.007
499.20 1.006
499.30 1.005
499.40 1.004
499.50 1.004
499.60 1.003
499.70 1.002
499.80 1.001
499.90 1.001
500.00 1
500.10 0.9993
500.20 0.9985
500.30 0.9978
500.40 0.9971
500.50 0.9964
500.60 0.9956
500.70 0.9949
500.80 0.9942
500.90 0.9934
501.00 0.9927
501.10 0.992
501.20 0.9913
501.30 0.9905
501.40 0.9898
501.50 0.9891
501.60 0.9883
501.70 0.9876
501.80 0.9869
501.90 0.9862
502.00 0.9854
502.10 0.9847
502.20 0.984
502.30 0.9833
502.40 0.9825
502.50 0.9818
502.60 0.9811
502.70 0.9804
502.80 0.9796
502.90 0.9789
503.00 0.9782
503.10 0.9775
503.20 0.9767
503.30 0.976
503.40 0.9753
503.50 0.9746
503.60 0.9738
503.70 0.9731
503.80 0.9724
503.90 0.9717
504.00 0.971
504.10 0.9702
504.20 0.9695
504.30 0.9688
504.40 0.9681
504.50 0.9674
504.60 0.9666
504.70 0.9659
504.80 0.9652
504.90 0.9645
505.00 0.9638
505.10 0.9631
505.20 0.9624
505.30 0.9616
505.40 0.9609
505.50 0.9602
505.60 0.9595
505.70 0.9588
505.80 0.9581
505.90 0.9574
506.00 0.9566
506.10 0.9559
506.20 0.9552
506.30 0.9545
506.40 0.9538
506.50 0.9531
506.60 0.9524
506.70 0.9517
506.80 0.951
506.90 0.9503
507.00 0.9496
507.10 0.9489
507.20 0.9482
507.30 0.9475
507.40 0.9468
507.50 0.946
507.60 0.9453
507.70 0.9446
507.80 0.9439
507.90 0.9432
508.00 0.9425
508.10 0.9418
508.20 0.9411
508.30 0.9404
508.40 0.9397
508.50 0.939
508.60 0.9383
508.70 0.9377
508.80 0.937
508.90 0.9363
509.00 0.9356
509.10 0.9349
509.20 0.9342
509.30 0.9335
509.40 0.9328
509.50 0.9321
509.60 0.9314
509.70 0.9307
509.80 0.93
509.90 0.9293
510.00 0.9286
510.10 0.928
510.20 0.9273
510.30 0.9266
510.40 0.9259
510.50 0.9252
510.60 0.9245
510.70 0.9238
510.80 0.9232
510.90 0.9225
511.00 0.9218
511.10 0.9211
511.20 0.9204
511.30 0.9197
511.40 0.9191
511.50 0.9184
511.60 0.9177
511.70 0.917
511.80 0.9163
511.90 0.9157
512.00 0.915
512.10 0.9143
512.20 0.9136
512.30 0.913
512.40 0.9123
512.50 0.9116
512.60 0.9109
512.70 0.9103
512.80 0.9096
512.90 0.9089
513.00 0.9082
513.10 0.9076
513.20 0.9069
513.30 0.9062
513.40 0.9056
513.50 0.9049
513.60 0.9042
513.70 0.9036
513.80 0.9029
513.90 0.9022
514.00 0.9016
514.10 0.9009
514.20 0.9002
514.30 0.8996
514.40 0.8989
514.50 0.8982
514.60 0.8976
514.70 0.8969
514.80 0.8962
514.90 0.8956
515.00 0.8949
515.10 0.8943
515.20 0.8936
515.30 0.893
515.40 0.8923
515.50 0.8916
515.60 0.891
515.70 0.8903
515.80 0.8897
515.90 0.889
516.00 0.8884
516.10 0.8877
516.20 0.8871
516.30 0.8864
516.40 0.8857
516.50 0.8851
516.60 0.8844
516.70 0.8838
516.80 0.8831
516.90 0.8825
517.00 0.8818
517.10 0.8812
517.20 0.8806
517.30 0.8799
517.40 0.8793
517.50 0.8786
517.60 0.878
517.70 0.8773
517.80 0.8767
517.90 0.876
518.00 0.8754
518.10 0.8748
518.20 0.8741
518.30 0.8735
518.40 0.8728
518.50 0.8722
518.60 0.8716
518.70 0.8709
518.80 0.8703
518.90 0.8696
519.00 0.869
519.10 0.8684
519.20 0.8677
519.30 0.8671
519.40 0.8665
519.50 0.8658
519.60 0.8652
519.70 0.8646
519.80 0.8639
519.90 0.8633
520.00 0.8627
520.10 0.862
520.20 0.8614
520.30 0.8608
520.40 0.8601
520.50 0.8595
520.60 0.8589
520.70 0.8583
520.80 0.8576
520.90 0.857
521.00 0.8564
521.10 0.8558
521.20 0.8551
521.30 0.8545
521.40 0.8539
521.50 0.8533
521.60 0.8526
521.70 0.852
521.80 0.8514
521.90 0.8508
522.00 0.8502
522.10 0.8495
522.20 0.8489
522.30 0.8483
522.40 0.8477
522.50 0.8471
522.60 0.8464
522.70 0.8458
522.80 0.8452
522.90 0.8446
523.00 0.844
523.10 0.8434
523.20 0.8428
523.30 0.8421
523.40 0.8415
523.50 0.8409
523.60 0.8403
523.70 0.8397
523.80 0.8391
523.90 0.8385
524.00 0.8379
524.10 0.8373
524.20 0.8367
524.30 0.836
524.40 0.8354
524.50 0.8348
524.60 0.8342
524.70 0.8336
524.80 0.833
524.90 0.8324
525.00 0.8318
525.10 0.8312
525.20 0.8306
525.30 0.83
525.40 0.8294
525.50 0.8288
525.60 0.8282
525.70 0.8276
525.80 0.827
525.90 0.8264
526.00 0.8258
526.10 0.8252
526.20 0.8246
526.30 0.824
526.40 0.8234
526.50 0.8228
526.60 0.8222
526.70 0.8216
526.80 0.821
526.90 0.8204
527.00 0.8198
527.10 0.8193
527.20 0.8187
527.30 0.8181
527.40 0.8175
527.50 0.8169
527.60 0.8163
527.70 0.8157
527.80 0.8151
527.90 0.8145
528.00 0.8139
528.10 0.8134
528.20 0.8128
528.30 0.8122
528.40 0.8116
528.50 0.811
528.60 0.8104
528.70 0.8099
528.80 0.8093
528.90 0.8087
529.00 0.8081
529.10 0.8075
529.20 0.8069
529.30 0.8064
529.40 0.8058
529.50 0.8052
529.60 0.8046
529.70 0.804
529.80 0.8035
529.90 0.8029
530.00 0.8023
530.10 0.8017
530.20 0.8012
530.30 0.8006
530.40 0.8
530.50 0.7994
530.60 0.7989
530.70 0.7983
530.80 0.7977
530.90 0.7971
531.00 0.7966
531.10 0.796
531.20 0.7954
531.30 0.7949
531.40 0.7943
531.50 0.7937
531.60 0.7931
531.70 0.7926
531.80 0.792
531.90 0.7914
532.00 0.7909
532.10 0.7903
532.20 0.7897
532.30 0.7892
532.40 0.7886
532.50 0.788
532.60 0.7875
532.70 0.7869
532.80 0.7864
532.90 0.7858
533.00 0.7852
533.10 0.7847
533.20 0.7841
533.30 0.7835
533.40 0.783
533.50 0.7824
533.60 0.7819
533.70 0.7813
533.80 0.7808
533.90 0.7802
534.00 0.7796
534.10 0.7791
534.20 0.7785
534.30 0.778
534.40 0.7774
534.50 0.7769
534.60 0.7763
534.70 0.7758
534.80 0.7752
534.90 0.7747
535.00 0.7741
535.10 0.7735
535.20 0.773
535.30 0.7724
535.40 0.7719
535.50 0.7713
535.60 0.7708
535.70 0.7702
535.80 0.7697
535.90 0.7692
536.00 0.7686
536.10 0.7681
536.20 0.7675
536.30 0.767
536.40 0.7664
536.50 0.7659
536.60 0.7653
536.70 0.7648
536.80 0.7642
536.90 0.7637
537.00 0.7632
537.10 0.7626
537.20 0.7621
537.30 0.7615
537.40 0.761
537.50 0.7605
537.60 0.7599
537.70 0.7594
537.80 0.7588
537.90 0.7583
538.00 0.7578
538.10 0.7572
538.20 0.7567
538.30 0.7562
538.40 0.7556
538.50 0.7551
538.60 0.7545
538.70 0.754
538.80 0.7535
538.90 0.7529
539.00 0.7524
539.10 0.7519
539.20 0.7513
539.30 0.7508
539.40 0.7503
539.50 0.7498
539.60 0.7492
539.70 0.7487
539.80 0.7482
539.90 0.7476
540.00 0.7471
540.10 0.7466
540.20 0.7461
540.30 0.7455
540.40 0.745
540.50 0.7445
540.60 0.744
540.70 0.7434
540.80 0.7429
540.90 0.7424
541.00 0.7419
541.10 0.7413
541.20 0.7408
541.30 0.7403
541.40 0.7398
541.50 0.7392
541.60 0.7387
541.70 0.7382
541.80 0.7377
541.90 0.7372
542.00 0.7366
542.10 0.7361
542.20 0.7356
542.30 0.7351
542.40 0.7346
542.50 0.7341
542.60 0.7335
542.70 0.733
542.80 0.7325
542.90 0.732
543.00 0.7315
543.10 0.731
543.20 0.7305
543.30 0.7299
543.40 0.7294
543.50 0.7289
543.60 0.7284
543.70 0.7279
543.80 0.7274
543.90 0.7269
544.00 0.7264
544.10 0.7259
544.20 0.7253
544.30 0.7248
544.40 0.7243
544.50 0.7238
544.60 0.7233
544.70 0.7228
544.80 0.7223
544.90 0.7218
545.00 0.7213
545.10 0.7208
545.20 0.7203
545.30 0.7198
545.40 0.7193
545.50 0.7188
545.60 0.7183
545.70 0.7178
545.80 0.7173
545.90 0.7168
546.00 0.7163
546.10 0.7158
546.20 0.7153
546.30 0.7148
546.40 0.7143
546.50 0.7138
546.60 0.7133
546.70 0.7128
546.80 0.7123
546.90 0.7118
547.00 0.7113
547.10 0.7108
547.20 0.7103
547.30 0.7098
547.40 0.7093
547.50 0.7088
547.60 0.7083
547.70 0.7078
547.80 0.7073
547.90 0.7068
548.00 0.7063
548.10 0.7058
548.20 0.7054
548.30 0.7049
548.40 0.7044
548.50 0.7039
548.60 0.7034
548.70 0.7029
548.80 0.7024
548.90 0.7019
549.00 0.7014
549.10 0.7009
549.20 0.7005
549.30 0.7
549.40 0.6995
549.50 0.699
549.60 0.6985
549.70 0.698
549.80 0.6975
549.90 0.6971
550.00 0.6966
550.10 0.6961
550.20 0.6956
550.30 0.6951
550.40 0.6946
550.50 0.6942
550.60 0.6937
550.70 0.6932
550.80 0.6927
550.90 0.6922
551.00 0.6918
551.10 0.6913
551.20 0.6908
551.30 0.6903
551.40 0.6898
551.50 0.6894
551.60 0.6889
551.70 0.6884
551.80 0.6879
551.90 0.6875
552.00 0.687
552.10 0.6865
552.20 0.686
552.30 0.6856
552.40 0.6851
552.50 0.6846
552.60 0.6841
552.70 0.6837
552.80 0.6832
552.90 0.6827
553.00 0.6823
553.10 0.6818
553.20 0.6813
553.30 0.6808
553.40 0.6804
553.50 0.6799
553.60 0.6794
553.70 0.679
553.80 0.6785
553.90 0.678
554.00 0.6776
554.10 0.6771
554.20 0.6766
554.30 0.6762
554.40 0.6757
554.50 0.6752
554.60 0.6748
554.70 0.6743
554.80 0.6738
554.90 0.6734
555.00 0.6729
555.10 0.6725
555.20 0.672
555.30 0.6715
555.40 0.6711
555.50 0.6706
555.60 0.6701
555.70 0.6697
555.80 0.6692
555.90 0.6688
556.00 0.6683
556.10 0.6678
556.20 0.6674
556.30 0.6669
556.40 0.6665
556.50 0.666
556.60 0.6656
556.70 0.6651
556.80 0.6646
556.90 0.6642
557.00 0.6637
557.10 0.6633
557.20 0.6628
557.30 0.6624
557.40 0.6619
557.50 0.6615
557.60 0.661
557.70 0.6606
557.80 0.6601
557.90 0.6596
558.00 0.6592
558.10 0.6587
558.20 0.6583
558.30 0.6578
558.40 0.6574
558.50 0.6569
558.60 0.6565
558.70 0.656
558.80 0.6556
558.90 0.6552
559.00 0.6547
559.10 0.6543
559.20 0.6538
559.30 0.6534
559.40 0.6529
559.50 0.6525
559.60 0.652
559.70 0.6516
559.80 0.6511
559.90 0.6507
560.00 0.6502
560.10 0.6498
560.20 0.6494
560.30 0.6489
560.40 0.6485
560.50 0.648
560.60 0.6476
560.70 0.6472
560.80 0.6467
560.90 0.6463
561.00 0.6458
561.10 0.6454
561.20 0.6449
561.30 0.6445
561.40 0.6441
561.50 0.6436
561.60 0.6432
561.70 0.6428
561.80 0.6423
561.90 0.6419
562.00 0.6414
562.10 0.641
562.20 0.6406
562.30 0.6401
562.40 0.6397
562.50 0.6393
562.60 0.6388
562.70 0.6384
562.80 0.638
562.90 0.6375
563.00 0.6371
563.10 0.6367
563.20 0.6362
563.30 0.6358
563.40 0.6354
563.50 0.6349
563.60 0.6345
563.70 0.6341
563.80 0.6337
563.90 0.6332
564.00 0.6328
564.10 0.6324
564.20 0.6319
564.30 0.6315
564.40 0.6311
564.50 0.6307
564.60 0.6302
564.70 0.6298
564.80 0.6294
564.90 0.629
565.00 0.6285
565.10 0.6281
565.20 0.6277
565.30 0.6273
565.40 0.6268
565.50 0.6264
565.60 0.626
565.70 0.6256
565.80 0.6251
565.90 0.6247
566.00 0.6243
566.10 0.6239
566.20 0.6234
566.30 0.623
566.40 0.6226
566.50 0.6222
566.60 0.6218
566.70 0.6213
566.80 0.6209
566.90 0.6205
567.00 0.6201
567.10 0.6197
567.20 0.6193
567.30 0.6188
567.40 0.6184
567.50 0.618
567.60 0.6176
567.70 0.6172
567.80 0.6168
567.90 0.6163
568.00 0.6159
568.10 0.6155
568.20 0.6151
568.30 0.6147
568.40 0.6143
568.50 0.6139
568.60 0.6134
568.70 0.613
568.80 0.6126
568.90 0.6122
569.00 0.6118
569.10 0.6114
569.20 0.611
569.30 0.6106
569.40 0.6102
569.50 0.6097
569.60 0.6093
569.70 0.6089
569.80 0.6085
569.90 0.6081
570.00 0.6077
570.10 0.6073
570.20 0.6069
570.30 0.6065
570.40 0.6061
570.50 0.6057
570.60 0.6053
570.70 0.6049
570.80 0.6045
570.90 0.6041
571.00 0.6036
571.10 0.6032
571.20 0.6028
571.30 0.6024
571.40 0.602
571.50 0.6016
571.60 0.6012
571.70 0.6008
571.80 0.6004
571.90 0.6
572.00 0.5996
572.10 0.5992
572.20 0.5988
572.30 0.5984
572.40 0.598
572.50 0.5976
572.60 0.5972
572.70 0.5968
572.80 0.5964
572.90 0.596
573.00 0.5956
573.10 0.5952
573.20 0.5948
573.30 0.5944
573.40 0.594
573.50 0.5936
573.60 0.5932
573.70 0.5929
573.80 0.5925
573.90 0.5921
574.00 0.5917
574.10 0.5913
574.20 0.5909
574.30 0.5905
574.40 0.5901
574.50 0.5897
574.60 0.5893
574.70 0.5889
574.80 0.5885
574.90 0.5881
575.00 0.5877
575.10 0.5874
575.20 0.587
575.30 0.5866
575.40 0.5862
575.50 0.5858
575.60 0.5854
575.70 0.585
575.80 0.5846
575.90 0.5842
576.00 0.5838
576.10 0.5835
576.20 0.5831
576.30 0.5827
576.40 0.5823
576.50 0.5819
576.60 0.5815
576.70 0.5811
576.80 0.5808
576.90 0.5804
577.00 0.58
577.10 0.5796
577.20 0.5792
577.30 0.5788
577.40 0.5785
577.50 0.5781
577.60 0.5777
577.70 0.5773
577.80 0.5769
577.90 0.5765
578.00 0.5762
578.10 0.5758
578.20 0.5754
578.30 0.575
578.40 0.5746
578.50 0.5743
578.60 0.5739
578.70 0.5735
578.80 0.5731
578.90 0.5727
579.00 0.5724
579.10 0.572
579.20 0.5716
579.30 0.5712
579.40 0.5708
579.50 0.5705
579.60 0.5701
579.70 0.5697
579.80 0.5693
579.90 0.569
580.00 0.5686
580.10 0.5682
580.20 0.5678
580.30 0.5675
580.40 0.5671
580.50 0.5667
580.60 0.5663
580.70 0.566
580.80 0.5656
580.90 0.5652
581.00 0.5649
581.10 0.5645
581.20 0.5641
581.30 0.5637
581.40 0.5634
581.50 0.563
581.60 0.5626
581.70 0.5623
581.80 0.5619
581.90 0.5615
582.00 0.5612
582.10 0.5608
582.20 0.5604
582.30 0.56
582.40 0.5597
582.50 0.5593
582.60 0.5589
582.70 0.5586
582.80 0.5582
582.90 0.5578
583.00 0.5575
583.10 0.5571
583.20 0.5567
583.30 0.5564
583.40 0.556
583.50 0.5556
583.60 0.5553
583.70 0.5549
583.80 0.5546
583.90 0.5542
584.00 0.5538
584.10 0.5535
584.20 0.5531
584.30 0.5527
584.40 0.5524
584.50 0.552
584.60 0.5517
584.70 0.5513
584.80 0.5509
584.90 0.5506
585.00 0.5502
585.10 0.5499
585.20 0.5495
585.30 0.5491
585.40 0.5488
585.50 0.5484
585.60 0.5481
585.70 0.5477
585.80 0.5473
585.90 0.547
586.00 0.5466
586.10 0.5463
586.20 0.5459
586.30 0.5456
586.40 0.5452
586.50 0.5448
586.60 0.5445
586.70 0.5441
586.80 0.5438
586.90 0.5434
587.00 0.5431
587.10 0.5427
587.20 0.5424
587.30 0.542
587.40 0.5417
587.50 0.5413
587.60 0.541
587.70 0.5406
587.80 0.5402
587.90 0.5399
588.00 0.5395
588.10 0.5392
588.20 0.5388
588.30 0.5385
588.40 0.5381
588.50 0.5378
588.60 0.5374
588.70 0.5371
588.80 0.5367
588.90 0.5364
589.00 0.536
589.10 0.5357
589.20 0.5353
589.30 0.535
589.40 0.5347
589.50 0.5343
589.60 0.534
589.70 0.5336
589.80 0.5333
589.90 0.5329
590.00 0.5326
590.10 0.5322
590.20 0.5319
590.30 0.5315
590.40 0.5312
590.50 0.5309
590.60 0.5305
590.70 0.5302
590.80 0.5298
590.90 0.5295
591.00 0.5291
591.10 0.5288
591.20 0.5284
591.30 0.5281
591.40 0.5278
591.50 0.5274
591.60 0.5271
591.70 0.5267
591.80 0.5264
591.90 0.5261
592.00 0.5257
592.10 0.5254
592.20 0.525
592.30 0.5247
592.40 0.5244
592.50 0.524
592.60 0.5237
592.70 0.5233
592.80 0.523
592.90 0.5227
593.00 0.5223
593.10 0.522
593.20 0.5217
593.30 0.5213
593.40 0.521
593.50 0.5206
593.60 0.5203
593.70 0.52
593.80 0.5196
593.90 0.5193
594.00 0.519
594.10 0.5186
594.20 0.5183
594.30 0.518
594.40 0.5176
594.50 0.5173
594.60 0.517
594.70 0.5166
594.80 0.5163
594.90 0.516
595.00 0.5156
595.10 0.5153
595.20 0.515
595.30 0.5146
595.40 0.5143
595.50 0.514
595.60 0.5136
595.70 0.5133
595.80 0.513
595.90 0.5127
596.00 0.5123
596.10 0.512
596.20 0.5117
596.30 0.5113
596.40 0.511
596.50 0.5107
596.60 0.5104
596.70 0.51
596.80 0.5097
596.90 0.5094
597.00 0.509
597.10 0.5087
597.20 0.5084
597.30 0.5081
597.40 0.5077
597.50 0.5074
597.60 0.5071
597.70 0.5068
597.80 0.5064
597.90 0.5061
598.00 0.5058
598.10 0.5055
598.20 0.5051
598.30 0.5048
598.40 0.5045
598.50 0.5042
598.60 0.5039
598.70 0.5035
598.80 0.5032
598.90 0.5029
599.00 0.5026
599.10 0.5022
599.20 0.5019
599.30 0.5016
599.40 0.5013
599.50 0.501
599.60 0.5006
599.70 0.5003
599.80 0.5
599.90 0.4997
600.00 0.4994
600.10 0.499
600.20 0.4987
600.30 0.4984
600.40 0.4981
600.50 0.4978
600.60 0.4975
600.70 0.4971
600.80 0.4968
600.90 0.4965
601.00 0.4962
601.10 0.4959
601.20 0.4956
601.30 0.4952
601.40 0.4949
601.50 0.4946
601.60 0.4943
601.70 0.494
601.80 0.4937
601.90 0.4934
602.00 0.493
602.10 0.4927
602.20 0.4924
602.30 0.4921
602.40 0.4918
602.50 0.4915
602.60 0.4912
602.70 0.4908
602.80 0.4905
602.90 0.4902
603.00 0.4899
603.10 0.4896
603.20 0.4893
603.30 0.489
603.40 0.4887
603.50 0.4884
603.60 0.488
603.70 0.4877
603.80 0.4874
603.90 0.4871
604.00 0.4868
604.10 0.4865
604.20 0.4862
604.30 0.4859
604.40 0.4856
604.50 0.4853
604.60 0.485
604.70 0.4846
604.80 0.4843
604.90 0.484
605.00 0.4837
605.10 0.4834
605.20 0.4831
605.30 0.4828
605.40 0.4825
605.50 0.4822
605.60 0.4819
605.70 0.4816
605.80 0.4813
605.90 0.481
606.00 0.4807
606.10 0.4804
606.20 0.4801
606.30 0.4798
606.40 0.4795
606.50 0.4792
606.60 0.4789
606.70 0.4786
606.80 0.4782
606.90 0.4779
607.00 0.4776
607.10 0.4773
607.20 0.477
607.30 0.4767
607.40 0.4764
607.50 0.4761
607.60 0.4758
607.70 0.4755
607.80 0.4752
607.90 0.4749
608.00 0.4746
608.10 0.4743
608.20 0.474
608.30 0.4737
608.40 0.4734
608.50 0.4731
608.60 0.4728
608.70 0.4726
608.80 0.4723
608.90 0.472
609.00 0.4717
609.10 0.4714
609.20 0.4711
609.30 0.4708
609.40 0.4705
609.50 0.4702
609.60 0.4699
609.70 0.4696
609.80 0.4693
609.90 0.469
610.00 0.4687
610.10 0.4684
610.20 0.4681
610.30 0.4678
610.40 0.4675
610.50 0.4672
610.60 0.4669
610.70 0.4666
610.80 0.4663
610.90 0.4661
611.00 0.4658
611.10 0.4655
611.20 0.4652
611.30 0.4649
611.40 0.4646
611.50 0.4643
611.60 0.464
611.70 0.4637
611.80 0.4634
611.90 0.4631
612.00 0.4628
612.10 0.4626
612.20 0.4623
612.30 0.462
612.40 0.4617
612.50 0.4614
612.60 0.4611
612.70 0.4608
612.80 0.4605
612.90 0.4602
613.00 0.46
613.10 0.4597
613.20 0.4594
613.30 0.4591
613.40 0.4588
613.50 0.4585
613.60 0.4582
613.70 0.4579
613.80 0.4577
613.90 0.4574
614.00 0.4571
614.10 0.4568
614.20 0.4565
614.30 0.4562
614.40 0.4559
614.50 0.4557
614.60 0.4554
614.70 0.4551
614.80 0.4548
614.90 0.4545
615.00 0.4542
615.10 0.454
615.20 0.4537
615.30 0.4534
615.40 0.4531
615.50 0.4528
615.60 0.4525
615.70 0.4523
615.80 0.452
615.90 0.4517
616.00 0.4514
616.10 0.4511
616.20 0.4509
616.30 0.4506
616.40 0.4503
616.50 0.45
616.60 0.4497
616.70 0.4495
616.80 0.4492
616.90 0.4489
617.00 0.4486
617.10 0.4483
617.20 0.4481
617.30 0.4478
617.40 0.4475
617.50 0.4472
617.60 0.4469
617.70 0.4467
617.80 0.4464
617.90 0.4461
618.00 0.4458
618.10 0.4456
618.20 0.4453
618.30 0.445
618.40 0.4447
618.50 0.4445
618.60 0.4442
618.70 0.4439
618.80 0.4436
618.90 0.4433
619.00 0.4431
619.10 0.4428
619.20 0.4425
619.30 0.4423
619.40 0.442
619.50 0.4417
619.60 0.4414
619.70 0.4412
619.80 0.4409
619.90 0.4406
620.00 0.4403
620.10 0.4401
620.20 0.4398
620.30 0.4395
620.40 0.4392
620.50 0.439
620.60 0.4387
620.70 0.4384
620.80 0.4382
620.90 0.4379
621.00 0.4376
621.10 0.4373
621.20 0.4371
621.30 0.4368
621.40 0.4365
621.50 0.4363
621.60 0.436
621.70 0.4357
621.80 0.4355
621.90 0.4352
622.00 0.4349
622.10 0.4346
622.20 0.4344
622.30 0.4341
622.40 0.4338
622.50 0.4336
622.60 0.4333
622.70 0.433
622.80 0.4328
622.90 0.4325
623.00 0.4322
623.10 0.432
623.20 0.4317
623.30 0.4314
623.40 0.4312
623.50 0.4309
623.60 0.4306
623.70 0.4304
623.80 0.4301
623.90 0.4298
624.00 0.4296
624.10 0.4293
624.20 0.4291
624.30 0.4288
624.40 0.4285
624.50 0.4283
624.60 0.428
624.70 0.4277
624.80 0.4275
624.90 0.4272
625.00 0.4269
625.10 0.4267
625.20 0.4264
625.30 0.4262
625.40 0.4259
625.50 0.4256
625.60 0.4254
625.70 0.4251
625.80 0.4248
625.90 0.4246
626.00 0.4243
626.10 0.4241
626.20 0.4238
626.30 0.4235
626.40 0.4233
626.50 0.423
626.60 0.4228
626.70 0.4225
626.80 0.4222
626.90 0.422
627.00 0.4217
627.10 0.4215
627.20 0.4212
627.30 0.4209
627.40 0.4207
627.50 0.4204
627.60 0.4202
627.70 0.4199
627.80 0.4197
627.90 0.4194
628.00 0.4191
628.10 0.4189
628.20 0.4186
628.30 0.4184
628.40 0.4181
628.50 0.4179
628.60 0.4176
628.70 0.4173
628.80 0.4171
628.90 0.4168
629.00 0.4166
629.10 0.4163
629.20 0.4161
629.30 0.4158
629.40 0.4156
629.50 0.4153
629.60 0.415
629.70 0.4148
629.80 0.4145
629.90 0.4143
630.00 0.414
630.10 0.4138
630.20 0.4135
630.30 0.4133
630.40 0.413
630.50 0.4128
630.60 0.4125
630.70 0.4123
630.80 0.412
630.90 0.4118
631.00 0.4115
631.10 0.4113
631.20 0.411
631.30 0.4108
631.40 0.4105
631.50 0.4102
631.60 0.41
631.70 0.4097
631.80 0.4095
631.90 0.4092
632.00 0.409
632.10 0.4087
632.20 0.4085
632.30 0.4082
632.40 0.408
632.50 0.4077
632.60 0.4075
632.70 0.4072
632.80 0.407
632.90 0.4067
633.00 0.4065
633.10 0.4063
633.20 0.406
633.30 0.4058
633.40 0.4055
633.50 0.4053
633.60 0.405
633.70 0.4048
633.80 0.4045
633.90 0.4043
634.00 0.404
634.10 0.4038
634.20 0.4035
634.30 0.4033
634.40 0.403
634.50 0.4028
634.60 0.4025
634.70 0.4023
634.80 0.4021
634.90 0.4018
635.00 0.4016
635.10 0.4013
635.20 0.4011
635.30 0.4008
635.40 0.4006
635.50 0.4003
635.60 0.4001
635.70 0.3998
635.80 0.3996
635.90 0.3994
636.00 0.3991
636.10 0.3989
636.20 0.3986
636.30 0.3984
636.40 0.3981
636.50 0.3979
636.60 0.3977
636.70 0.3974
636.80 0.3972
636.90 0.3969
637.00 0.3967
637.10 0.3964
637.20 0.3962
637.30 0.3959
637.40 0.3957
637.50 0.3955
637.60 0.3952
637.70 0.395
637.80 0.3947
637.90 0.3945
638.00 0.3943
638.10 0.394
638.20 0.3938
638.30 0.3935
638.40 0.3933
638.50 0.393
638.60 0.3928
638.70 0.3926
638.80 0.3923
638.90 0.3921
639.00 0.3918
639.10 0.3916
639.20 0.3914
639.30 0.3911
639.40 0.3909
639.50 0.3906
639.60 0.3904
639.70 0.3902
639.80 0.3899
639.90 0.3897
640.00 0.3894
640.10 0.3892
640.20 0.389
640.30 0.3887
640.40 0.3885
640.50 0.3882
640.60 0.388
640.70 0.3878
640.80 0.3875
640.90 0.3873
641.00 0.387
641.10 0.3868
641.20 0.3866
641.30 0.3863
641.40 0.3861
641.50 0.3858
641.60 0.3856
641.70 0.3854
641.80 0.3851
641.90 0.3849
642.00 0.3846
642.10 0.3844
642.20 0.3842
642.30 0.3839
642.40 0.3837
642.50 0.3834
642.60 0.3832
642.70 0.383
642.80 0.3827
642.90 0.3825
643.00 0.3822
643.10 0.382
643.20 0.3818
643.30 0.3815
643.40 0.3813
643.50 0.381
643.60 0.3808
643.70 0.3805
643.80 0.3803
643.90 0.3801
644.00 0.3798
644.10 0.3796
644.20 0.3793
644.30 0.3791
644.40 0.3789
644.50 0.3786
644.60 0.3784
644.70 0.3781
644.80 0.3779
644.90 0.3776
645.00 0.3774
645.10 0.3771
645.20 0.3769
645.30 0.3767
645.40 0.3764
645.50 0.3762
645.60 0.3759
645.70 0.3757
645.80 0.3754
645.90 0.3752
646.00 0.3749
646.10 0.3747
646.20 0.3744
646.30 0.3742
646.40 0.3739
646.50 0.3737
646.60 0.3734
646.70 0.3731
646.80 0.3729
646.90 0.3726
647.00 0.3724
647.10 0.3721
647.20 0.3719
647.30 0.3716
647.40 0.3713
647.50 0.3711
647.60 0.3708
647.70 0.3705
647.80 0.3703
647.90 0.37
648.00 0.3697
648.10 0.3695
648.20 0.3692
648.30 0.3689
648.40 0.3686
648.50 0.3684
648.60 0.3681
648.70 0.3678
648.80 0.3675
648.90 0.3672
649.00 0.3669
649.10 0.3666
649.20 0.3664
649.30 0.3661
649.40 0.3657
649.50 0.3654
649.60 0.3651
649.70 0.3648
649.80 0.3645
649.90 0.3641
650.00 0.3638
650.10 0.3635
650.20 0.3632
650.30 0.3629
650.40 0.3625
650.50 0.3621
650.60 0.3617
650.70 0.3614
650.80 0.361
650.90 0.3606
651.00 0.3603
651.10 0.3599
651.20 0.3595
651.30 0.3591
651.40 0.3586
651.50 0.3582
651.60 0.3577
651.70 0.3572
651.80 0.3568
651.90 0.3563
652.00 0.3558
652.10 0.3554
652.20 0.3549
652.30 0.3544
652.40 0.3537
652.50 0.3531
652.60 0.3524
652.70 0.3518
652.80 0.3511
652.90 0.3505
653.00 0.3498
653.10 0.3492
653.20 0.3485
653.30 0.3478
653.40 0.3468
653.50 0.3459
653.60 0.3449
653.70 0.3439
653.80 0.3429
653.90 0.342
654.00 0.341
654.10 0.34
654.20 0.3391
654.30 0.338
654.40 0.3366
654.50 0.3353
654.60 0.3339
654.70 0.3326
654.80 0.3311
654.90 0.3294
655.00 0.3277
655.10 0.326
655.20 0.3244
655.30 0.3226
655.40 0.3206
655.50 0.3186
655.60 0.3165
655.70 0.3143
655.80 0.3118
655.90 0.3092
656.00 0.3057
656.10 0.3019
656.20 0.2974
656.30 0.3065
656.40 0.2977
656.50 0.3027
656.60 0.3059
656.70 0.3088
656.80 0.3109
656.90 0.313
657.00 0.3147
657.10 0.3165
657.20 0.3181
657.30 0.3196
657.40 0.3209
657.50 0.3223
657.60 0.3236
657.70 0.3249
657.80 0.3261
657.90 0.3271
658.00 0.328
658.10 0.329
658.20 0.33
658.30 0.3308
658.40 0.3314
658.50 0.332
658.60 0.3325
658.70 0.3331
658.80 0.3336
658.90 0.3342
659.00 0.3348
659.10 0.3353
659.20 0.3359
659.30 0.3364
659.40 0.3366
659.50 0.3368
659.60 0.3371
659.70 0.3373
659.80 0.3375
659.90 0.3377
660.00 0.338
660.10 0.3382
660.20 0.3384
660.30 0.3386
660.40 0.3387
660.50 0.3387
660.60 0.3388
660.70 0.3388
660.80 0.3389
660.90 0.3389
661.00 0.3389
661.10 0.339
661.20 0.339
661.30 0.3391
661.40 0.339
661.50 0.339
661.60 0.3389
661.70 0.3389
661.80 0.3388
661.90 0.3388
662.00 0.3387
662.10 0.3387
662.20 0.3386
662.30 0.3386
662.40 0.3385
662.50 0.3383
662.60 0.3382
662.70 0.3381
662.80 0.338
662.90 0.3379
663.00 0.3378
663.10 0.3377
663.20 0.3376
663.30 0.3375
663.40 0.3374
663.50 0.3372
663.60 0.3371
663.70 0.337
663.80 0.3368
663.90 0.3367
664.00 0.3366
664.10 0.3364
664.20 0.3363
664.30 0.3362
664.40 0.336
664.50 0.3359
664.60 0.3357
664.70 0.3355
664.80 0.3354
664.90 0.3352
665.00 0.3351
665.10 0.3349
665.20 0.3348
665.30 0.3346
665.40 0.3345
665.50 0.3343
665.60 0.3341
665.70 0.334
665.80 0.3338
665.90 0.3336
666.00 0.3335
666.10 0.3333
666.20 0.3332
666.30 0.333
666.40 0.3328
666.50 0.3326
666.60 0.3325
666.70 0.3323
666.80 0.3321
666.90 0.332
667.00 0.3318
667.10 0.3316
667.20 0.3315
667.30 0.3313
667.40 0.3311
667.50 0.3309
667.60 0.3308
667.70 0.3306
667.80 0.3304
667.90 0.3302
668.00 0.3301
668.10 0.3299
668.20 0.3297
668.30 0.3295
668.40 0.3294
668.50 0.3292
668.60 0.329
668.70 0.3288
668.80 0.3286
668.90 0.3285
669.00 0.3283
669.10 0.3281
669.20 0.3279
669.30 0.3278
669.40 0.3276
669.50 0.3274
669.60 0.3272
669.70 0.327
669.80 0.3269
669.90 0.3267
670.00 0.3265
670.10 0.3263
670.20 0.3262
670.30 0.326
670.40 0.3258
670.50 0.3256
670.60 0.3254
670.70 0.3253
670.80 0.3251
670.90 0.3249
671.00 0.3247
671.10 0.3245
671.20 0.3244
671.30 0.3242
671.40 0.324
671.50 0.3238
671.60 0.3236
671.70 0.3235
671.80 0.3233
671.90 0.3231
672.00 0.3229
672.10 0.3227
672.20 0.3226
672.30 0.3224
672.40 0.3222
672.50 0.322
672.60 0.3218
672.70 0.3217
672.80 0.3215
672.90 0.3213
673.00 0.3211
673.10 0.321
673.20 0.3208
673.30 0.3206
673.40 0.3204
673.50 0.3202
673.60 0.3201
673.70 0.3199
673.80 0.3197
673.90 0.3195
674.00 0.3193
674.10 0.3192
674.20 0.319
674.30 0.3188
674.40 0.3186
674.50 0.3184
674.60 0.3183
674.70 0.3181
674.80 0.3179
674.90 0.3177
675.00 0.3176
675.10 0.3174
675.20 0.3172
675.30 0.317
675.40 0.3168
675.50 0.3167
675.60 0.3165
675.70 0.3163
675.80 0.3161
675.90 0.316
676.00 0.3158
676.10 0.3156
676.20 0.3154
676.30 0.3153
676.40 0.3151
676.50 0.3149
676.60 0.3147
676.70 0.3145
676.80 0.3144
676.90 0.3142
677.00 0.314
677.10 0.3138
677.20 0.3137
677.30 0.3135
677.40 0.3133
677.50 0.3131
677.60 0.313
677.70 0.3128
677.80 0.3126
677.90 0.3124
678.00 0.3123
678.10 0.3121
678.20 0.3119
678.30 0.3117
678.40 0.3116
678.50 0.3114
678.60 0.3112
678.70 0.311
678.80 0.3109
678.90 0.3107
679.00 0.3105
679.10 0.3103
679.20 0.3102
679.30 0.31
679.40 0.3098
679.50 0.3096
679.60 0.3095
679.70 0.3093
679.80 0.3091
679.90 0.3089
680.00 0.3088
680.10 0.3086
680.20 0.3084
680.30 0.3082
680.40 0.3081
680.50 0.3079
680.60 0.3077
680.70 0.3076
680.80 0.3074
680.90 0.3072
681.00 0.307
681.10 0.3069
681.20 0.3067
681.30 0.3065
681.40 0.3063
681.50 0.3062
681.60 0.306
681.70 0.3058
681.80 0.3057
681.90 0.3055
682.00 0.3053
682.10 0.3051
682.20 0.305
682.30 0.3048
682.40 0.3046
682.50 0.3045
682.60 0.3043
682.70 0.3041
682.80 0.304
682.90 0.3038
683.00 0.3036
683.10 0.3034
683.20 0.3033
683.30 0.3031
683.40 0.3029
683.50 0.3028
683.60 0.3026
683.70 0.3024
683.80 0.3023
683.90 0.3021
684.00 0.3019
684.10 0.3017
684.20 0.3016
684.30 0.3014
684.40 0.3012
684.50 0.3011
684.60 0.3009
684.70 0.3007
684.80 0.3006
684.90 0.3004
685.00 0.3002
685.10 0.3001
685.20 0.2999
685.30 0.2997
685.40 0.2996
685.50 0.2994
685.60 0.2992
685.70 0.2991
685.80 0.2989
685.90 0.2987
686.00 0.2986
686.10 0.2984
686.20 0.2982
686.30 0.2981
686.40 0.2979
686.50 0.2977
686.60 0.2976
686.70 0.2974
686.80 0.2972
686.90 0.2971
687.00 0.2969
687.10 0.2967
687.20 0.2966
687.30 0.2964
687.40 0.2962
687.50 0.2961
687.60 0.2959
687.70 0.2957
687.80 0.2956
687.90 0.2954
688.00 0.2952
688.10 0.2951
688.20 0.2949
688.30 0.2947
688.40 0.2946
688.50 0.2944
688.60 0.2943
688.70 0.2941
688.80 0.2939
688.90 0.2938
689.00 0.2936
689.10 0.2934
689.20 0.2933
689.30 0.2931
689.40 0.2929
689.50 0.2928
689.60 0.2926
689.70 0.2925
689.80 0.2923
689.90 0.2921
690.00 0.292
690.10 0.2918
690.20 0.2916
690.30 0.2915
690.40 0.2913
690.50 0.2912
690.60 0.291
690.70 0.2908
690.80 0.2907
690.90 0.2905
691.00 0.2904
691.10 0.2902
691.20 0.29
691.30 0.2899
691.40 0.2897
691.50 0.2896
691.60 0.2894
691.70 0.2892
691.80 0.2891
691.90 0.2889
692.00 0.2888
692.10 0.2886
692.20 0.2884
692.30 0.2883
692.40 0.2881
692.50 0.288
692.60 0.2878
692.70 0.2876
692.80 0.2875
692.90 0.2873
693.00 0.2872
693.10 0.287
693.20 0.2868
693.30 0.2867
693.40 0.2865
693.50 0.2864
693.60 0.2862
693.70 0.286
693.80 0.2859
693.90 0.2857
694.00 0.2856
694.10 0.2854
694.20 0.2852
694.30 0.2851
694.40 0.2849
694.50 0.2848
694.60 0.2846
694.70 0.2845
694.80 0.2843
694.90 0.2841
695.00 0.284
695.10 0.2838
695.20 0.2837
695.30 0.2835
695.40 0.2834
695.50 0.2832
695.60 0.283
695.70 0.2829
695.80 0.2827
695.90 0.2826
696.00 0.2824
696.10 0.2823
696.20 0.2821
696.30 0.282
696.40 0.2818
696.50 0.2816
696.60 0.2815
696.70 0.2813
696.80 0.2812
696.90 0.281
697.00 0.2809
697.10 0.2807
697.20 0.2806
697.30 0.2804
697.40 0.2802
697.50 0.2801
697.60 0.2799
697.70 0.2798
697.80 0.2796
697.90 0.2795
698.00 0.2793
698.10 0.2792
698.20 0.279
698.30 0.2789
698.40 0.2787
698.50 0.2786
698.60 0.2784
698.70 0.2782
698.80 0.2781
698.90 0.2779
699.00 0.2778
699.10 0.2776
699.20 0.2775
699.30 0.2773
699.40 0.2772
699.50 0.277
699.60 0.2769
699.70 0.2767
699.80 0.2766
699.90 0.2764
700.00 0.2763
700.10 0.2761
700.20 0.276
700.30 0.2758
700.40 0.2757
700.50 0.2755
700.60 0.2754
700.70 0.2752
700.80 0.2751
700.90 0.2749
701.00 0.2748
701.10 0.2746
701.20 0.2745
701.30 0.2743
701.40 0.2742
701.50 0.274
701.60 0.2739
701.70 0.2737
701.80 0.2736
701.90 0.2734
702.00 0.2733
702.10 0.2731
702.20 0.273
702.30 0.2728
702.40 0.2727
702.50 0.2725
702.60 0.2724
702.70 0.2722
702.80 0.2721
702.90 0.2719
703.00 0.2718
703.10 0.2716
703.20 0.2715
703.30 0.2713
703.40 0.2712
703.50 0.271
703.60 0.2709
703.70 0.2707
703.80 0.2706
703.90 0.2704
704.00 0.2703
704.10 0.2701
704.20 0.27
704.30 0.2698
704.40 0.2697
704.50 0.2695
704.60 0.2694
704.70 0.2692
704.80 0.2691
704.90 0.2689
705.00 0.2688
705.10 0.2686
705.20 0.2685
705.30 0.2684
705.40 0.2682
705.50 0.2681
705.60 0.2679
705.70 0.2678
705.80 0.2676
705.90 0.2675
706.00 0.2673
706.10 0.2672
706.20 0.267
706.30 0.2669
706.40 0.2668
706.50 0.2666
706.60 0.2665
706.70 0.2663
706.80 0.2662
706.90 0.266
707.00 0.2659
707.10 0.2657
707.20 0.2656
707.30 0.2655
707.40 0.2653
707.50 0.2652
707.60 0.265
707.70 0.2649
707.80 0.2647
707.90 0.2646
708.00 0.2644
708.10 0.2643
708.20 0.2642
708.30 0.264
708.40 0.2639
708.50 0.2637
708.60 0.2636
708.70 0.2634
708.80 0.2633
708.90 0.2632
709.00 0.263
709.10 0.2629
709.20 0.2627
709.30 0.2626
709.40 0.2624
709.50 0.2623
709.60 0.2622
709.70 0.262
709.80 0.2619
709.90 0.2617
710.00 0.2616
710.10 0.2614
710.20 0.2613
710.30 0.2612
710.40 0.261
710.50 0.2609
710.60 0.2607
710.70 0.2606
710.80 0.2605
710.90 0.2603
711.00 0.2602
711.10 0.26
711.20 0.2599
711.30 0.2598
711.40 0.2596
711.50 0.2595
711.60 0.2593
711.70 0.2592
711.80 0.2591
711.90 0.2589
712.00 0.2588
712.10 0.2586
712.20 0.2585
712.30 0.2584
712.40 0.2582
712.50 0.2581
712.60 0.2579
712.70 0.2578
712.80 0.2577
712.90 0.2575
713.00 0.2574
713.10 0.2572
713.20 0.2571
713.30 0.257
713.40 0.2568
713.50 0.2567
713.60 0.2565
713.70 0.2564
713.80 0.2563
713.90 0.2561
714.00 0.256
714.10 0.2559
714.20 0.2557
714.30 0.2556
714.40 0.2554
714.50 0.2553
714.60 0.2552
714.70 0.255
714.80 0.2549
714.90 0.2547
715.00 0.2546
715.10 0.2545
715.20 0.2543
715.30 0.2542
715.40 0.2541
715.50 0.2539
715.60 0.2538
715.70 0.2537
715.80 0.2535
715.90 0.2534
716.00 0.2532
716.10 0.2531
716.20 0.253
716.30 0.2528
716.40 0.2527
716.50 0.2526
716.60 0.2524
716.70 0.2523
716.80 0.2522
716.90 0.252
717.00 0.2519
717.10 0.2518
717.20 0.2516
717.30 0.2515
717.40 0.2514
717.50 0.2512
717.60 0.2511
717.70 0.2509
717.80 0.2508
717.90 0.2507
718.00 0.2505
718.10 0.2504
718.20 0.2503
718.30 0.2501
718.40 0.25
718.50 0.2499
718.60 0.2497
718.70 0.2496
718.80 0.2495
718.90 0.2493
719.00 0.2492
719.10 0.2491
719.20 0.2489
719.30 0.2488
719.40 0.2487
719.50 0.2485
719.60 0.2484
719.70 0.2483
719.80 0.2481
719.90 0.248
720.00 0.2479
720.10 0.2477
720.20 0.2476
720.30 0.2475
720.40 0.2473
720.50 0.2472
720.60 0.2471
720.70 0.2469
720.80 0.2468
720.90 0.2467
721.00 0.2465
721.10 0.2464
721.20 0.2463
721.30 0.2462
721.40 0.246
721.50 0.2459
721.60 0.2458
721.70 0.2456
721.80 0.2455
721.90 0.2454
722.00 0.2452
722.10 0.2451
722.20 0.245
722.30 0.2448
722.40 0.2447
722.50 0.2446
722.60 0.2445
722.70 0.2443
722.80 0.2442
722.90 0.2441
723.00 0.2439
723.10 0.2438
723.20 0.2437
723.30 0.2435
723.40 0.2434
723.50 0.2433
723.60 0.2432
723.70 0.243
723.80 0.2429
723.90 0.2428
724.00 0.2426
724.10 0.2425
724.20 0.2424
724.30 0.2422
724.40 0.2421
724.50 0.242
724.60 0.2419
724.70 0.2417
724.80 0.2416
724.90 0.2415
725.00 0.2413
725.10 0.2412
725.20 0.2411
725.30 0.241
725.40 0.2408
725.50 0.2407
725.60 0.2406
725.70 0.2405
725.80 0.2403
725.90 0.2402
726.00 0.2401
726.10 0.2399
726.20 0.2398
726.30 0.2397
726.40 0.2396
726.50 0.2394
726.60 0.2393
726.70 0.2392
726.80 0.2391
726.90 0.2389
727.00 0.2388
727.10 0.2387
727.20 0.2386
727.30 0.2384
727.40 0.2383
727.50 0.2382
727.60 0.238
727.70 0.2379
727.80 0.2378
727.90 0.2377
728.00 0.2375
728.10 0.2374
728.20 0.2373
728.30 0.2372
728.40 0.237
728.50 0.2369
728.60 0.2368
728.70 0.2367
728.80 0.2365
728.90 0.2364
729.00 0.2363
729.10 0.2362
729.20 0.236
729.30 0.2359
729.40 0.2358
729.50 0.2357
729.60 0.2355
729.70 0.2354
729.80 0.2353
729.90 0.2352
730.00 0.235
730.10 0.2349
730.20 0.2348
730.30 0.2347
730.40 0.2345
730.50 0.2344
730.60 0.2343
730.70 0.2342
730.80 0.2341
730.90 0.2339
731.00 0.2338
731.10 0.2337
731.20 0.2336
731.30 0.2334
731.40 0.2333
731.50 0.2332
731.60 0.2331
731.70 0.233
731.80 0.2328
731.90 0.2327
732.00 0.2326
732.10 0.2325
732.20 0.2323
732.30 0.2322
732.40 0.2321
732.50 0.232
732.60 0.2319
732.70 0.2317
732.80 0.2316
732.90 0.2315
733.00 0.2314
733.10 0.2313
733.20 0.2311
733.30 0.231
733.40 0.2309
733.50 0.2308
733.60 0.2306
733.70 0.2305
733.80 0.2304
733.90 0.2303
734.00 0.2302
734.10 0.23
734.20 0.2299
734.30 0.2298
734.40 0.2297
734.50 0.2296
734.60 0.2294
734.70 0.2293
734.80 0.2292
734.90 0.2291
735.00 0.229
735.10 0.2288
735.20 0.2287
735.30 0.2286
735.40 0.2285
735.50 0.2284
735.60 0.2282
735.70 0.2281
735.80 0.228
735.90 0.2279
736.00 0.2278
736.10 0.2276
736.20 0.2275
736.30 0.2274
736.40 0.2273
736.50 0.2272
736.60 0.227
736.70 0.2269
736.80 0.2268
736.90 0.2267
737.00 0.2266
737.10 0.2265
737.20 0.2263
737.30 0.2262
737.40 0.2261
737.50 0.226
737.60 0.2259
737.70 0.2257
737.80 0.2256
737.90 0.2255
738.00 0.2254
738.10 0.2253
738.20 0.2251
738.30 0.225
738.40 0.2249
738.50 0.2248
738.60 0.2247
738.70 0.2246
738.80 0.2244
738.90 0.2243
739.00 0.2242
739.10 0.2241
739.20 0.224
739.30 0.2239
739.40 0.2237
739.50 0.2236
739.60 0.2235
739.70 0.2234
739.80 0.2233
739.90 0.2231
740.00 0.223
740.10 0.2229
740.20 0.2228
740.30 0.2227
740.40 0.2226
740.50 0.2225
740.60 0.2223
740.70 0.2222
740.80 0.2221
740.90 0.222
741.00 0.2219
741.10 0.2218
741.20 0.2217
741.30 0.2215
741.40 0.2214
741.50 0.2213
741.60 0.2212
741.70 0.2211
741.80 0.221
741.90 0.2208
742.00 0.2207
742.10 0.2206
742.20 0.2205
742.30 0.2204
742.40 0.2203
742.50 0.2202
742.60 0.2201
742.70 0.2199
742.80 0.2198
742.90 0.2197
743.00 0.2196
743.10 0.2195
743.20 0.2194
743.30 0.2193
743.40 0.2191
743.50 0.219
743.60 0.2189
743.70 0.2188
743.80 0.2187
743.90 0.2186
744.00 0.2185
744.10 0.2184
744.20 0.2182
744.30 0.2181
744.40 0.218
744.50 0.2179
744.60 0.2178
744.70 0.2177
744.80 0.2176
744.90 0.2174
745.00 0.2173
745.10 0.2172
745.20 0.2171
745.30 0.217
745.40 0.2169
745.50 0.2168
745.60 0.2167
745.70 0.2166
745.80 0.2164
745.90 0.2163
746.00 0.2162
746.10 0.2161
746.20 0.216
746.30 0.2159
746.40 0.2158
746.50 0.2157
746.60 0.2155
746.70 0.2154
746.80 0.2153
746.90 0.2152
747.00 0.2151
747.10 0.215
747.20 0.2149
747.30 0.2148
747.40 0.2147
747.50 0.2145
747.60 0.2144
747.70 0.2143
747.80 0.2142
747.90 0.2141
748.00 0.214
748.10 0.2139
748.20 0.2138
748.30 0.2137
748.40 0.2135
748.50 0.2134
748.60 0.2133
748.70 0.2132
748.80 0.2131
748.90 0.213
749.00 0.2129
749.10 0.2128
749.20 0.2127
749.30 0.2125
749.40 0.2124
749.50 0.2123
749.60 0.2122
749.70 0.2121
749.80 0.212
749.90 0.2119
750.00 0.2118
750.10 0.2117
750.20 0.2116
750.30 0.2115
750.40 0.2113
750.50 0.2112
750.60 0.2111
750.70 0.211
750.80 0.2109
750.90 0.2108
751.00 0.2107
751.10 0.2106
751.20 0.2105
751.30 0.2104
751.40 0.2103
751.50 0.2102
751.60 0.2101
751.70 0.2099
751.80 0.2098
751.90 0.2097
752.00 0.2096
752.10 0.2095
752.20 0.2094
752.30 0.2093
752.40 0.2092
752.50 0.2091
752.60 0.209
752.70 0.2089
752.80 0.2088
752.90 0.2087
753.00 0.2086
753.10 0.2085
753.20 0.2083
753.30 0.2082
753.40 0.2081
753.50 0.208
753.60 0.2079
753.70 0.2078
753.80 0.2077
753.90 0.2076
754.00 0.2075
754.10 0.2074
754.20 0.2073
754.30 0.2072
754.40 0.2071
754.50 0.207
754.60 0.2069
754.70 0.2068
754.80 0.2067
754.90 0.2065
755.00 0.2064
755.10 0.2063
755.20 0.2062
755.30 0.2061
755.40 0.206
755.50 0.2059
755.60 0.2058
755.70 0.2057
755.80 0.2056
755.90 0.2055
756.00 0.2054
756.10 0.2053
756.20 0.2052
756.30 0.2051
756.40 0.205
756.50 0.2049
756.60 0.2048
756.70 0.2047
756.80 0.2045
756.90 0.2044
757.00 0.2043
757.10 0.2042
757.20 0.2041
757.30 0.204
757.40 0.2039
757.50 0.2038
757.60 0.2037
757.70 0.2036
757.80 0.2035
757.90 0.2034
758.00 0.2033
758.10 0.2032
758.20 0.2031
758.30 0.203
758.40 0.2029
758.50 0.2028
758.60 0.2027
758.70 0.2026
758.80 0.2025
758.90 0.2024
759.00 0.2023
759.10 0.2022
759.20 0.2021
759.30 0.2019
759.40 0.2018
759.50 0.2017
759.60 0.2016
759.70 0.2015
759.80 0.2014
759.90 0.2013
760.00 0.2012
760.10 0.2011
760.20 0.201
760.30 0.2009
760.40 0.2008
760.50 0.2007
760.60 0.2006
760.70 0.2005
760.80 0.2004
760.90 0.2003
761.00 0.2002
761.10 0.2001
761.20 0.2
761.30 0.1999
761.40 0.1998
761.50 0.1997
761.60 0.1996
761.70 0.1995
761.80 0.1994
761.90 0.1993
762.00 0.1992
762.10 0.1991
762.20 0.199
762.30 0.1989
762.40 0.1988
762.50 0.1987
762.60 0.1986
762.70 0.1985
762.80 0.1984
762.90 0.1983
763.00 0.1982
763.10 0.1981
763.20 0.198
763.30 0.1979
763.40 0.1978
763.50 0.1977
763.60 0.1976
763.70 0.1975
763.80 0.1974
763.90 0.1973
764.00 0.1972
764.10 0.1971
764.20 0.197
764.30 0.1969
764.40 0.1968
764.50 0.1967
764.60 0.1966
764.70 0.1965
764.80 0.1964
764.90 0.1963
765.00 0.1962
765.10 0.1961
765.20 0.196
765.30 0.1959
765.40 0.1958
765.50 0.1957
765.60 0.1956
765.70 0.1955
765.80 0.1954
765.90 0.1953
766.00 0.1952
766.10 0.1951
766.20 0.195
766.30 0.1949
766.40 0.1948
766.50 0.1947
766.60 0.1946
766.70 0.1945
766.80 0.1944
766.90 0.1943
767.00 0.1942
767.10 0.1942
767.20 0.1941
767.30 0.194
767.40 0.1939
767.50 0.1938
767.60 0.1937
767.70 0.1936
767.80 0.1935
767.90 0.1934
768.00 0.1933
768.10 0.1932
768.20 0.1931
768.30 0.193
768.40 0.1929
768.50 0.1928
768.60 0.1927
768.70 0.1926
768.80 0.1925
768.90 0.1924
769.00 0.1923
769.10 0.1922
769.20 0.1921
769.30 0.192
769.40 0.1919
769.50 0.1918
769.60 0.1917
769.70 0.1916
769.80 0.1915
769.90 0.1914
770.00 0.1913
770.10 0.1912
770.20 0.1911
770.30 0.191
770.40 0.1909
770.50 0.1909
770.60 0.1908
770.70 0.1907
770.80 0.1906
770.90 0.1905
771.00 0.1904
771.10 0.1903
771.20 0.1902
771.30 0.1901
771.40 0.19
771.50 0.1899
771.60 0.1898
771.70 0.1897
771.80 0.1896
771.90 0.1895
772.00 0.1894
772.10 0.1893
772.20 0.1892
772.30 0.1891
772.40 0.1891
772.50 0.189
772.60 0.1889
772.70 0.1888
772.80 0.1887
772.90 0.1886
773.00 0.1885
773.10 0.1884
773.20 0.1883
773.30 0.1882
773.40 0.1881
773.50 0.188
773.60 0.1879
773.70 0.1878
773.80 0.1877
773.90 0.1876
774.00 0.1876
774.10 0.1875
774.20 0.1874
774.30 0.1873
774.40 0.1872
774.50 0.1871
774.60 0.187
774.70 0.1869
774.80 0.1868
774.90 0.1867
775.00 0.1866
775.10 0.1865
775.20 0.1864
775.30 0.1863
775.40 0.1863
775.50 0.1862
775.60 0.1861
775.70 0.186
775.80 0.1859
775.90 0.1858
776.00 0.1857
776.10 0.1856
776.20 0.1855
776.30 0.1854
776.40 0.1853
776.50 0.1852
776.60 0.1851
776.70 0.185
776.80 0.185
776.90 0.1849
777.00 0.1848
777.10 0.1847
777.20 0.1846
777.30 0.1845
777.40 0.1844
777.50 0.1843
777.60 0.1842
777.70 0.1841
777.80 0.184
777.90 0.1839
778.00 0.1839
778.10 0.1838
778.20 0.1837
778.30 0.1836
778.40 0.1835
778.50 0.1834
778.60 0.1833
778.70 0.1832
778.80 0.1831
778.90 0.183
779.00 0.1829
779.10 0.1828
779.20 0.1828
779.30 0.1827
779.40 0.1826
779.50 0.1825
779.60 0.1824
779.70 0.1823
779.80 0.1822
779.90 0.1821
780.00 0.182
780.10 0.1819
780.20 0.1818
780.30 0.1818
780.40 0.1817
780.50 0.1816
780.60 0.1815
780.70 0.1814
780.80 0.1813
780.90 0.1812
781.00 0.1811
781.10 0.181
781.20 0.181
781.30 0.1809
781.40 0.1808
781.50 0.1807
781.60 0.1806
781.70 0.1805
781.80 0.1804
781.90 0.1803
782.00 0.1802
782.10 0.1802
782.20 0.1801
782.30 0.18
782.40 0.1799
782.50 0.1798
782.60 0.1797
782.70 0.1796
782.80 0.1795
782.90 0.1795
783.00 0.1794
783.10 0.1793
783.20 0.1792
783.30 0.1791
783.40 0.179
783.50 0.1789
783.60 0.1788
783.70 0.1787
783.80 0.1787
783.90 0.1786
784.00 0.1785
784.10 0.1784
784.20 0.1783
784.30 0.1782
784.40 0.1781
784.50 0.178
784.60 0.178
784.70 0.1779
784.80 0.1778
784.90 0.1777
785.00 0.1776
785.10 0.1775
785.20 0.1774
785.30 0.1773
785.40 0.1773
785.50 0.1772
785.60 0.1771
785.70 0.177
785.80 0.1769
785.90 0.1768
786.00 0.1767
786.10 0.1767
786.20 0.1766
786.30 0.1765
786.40 0.1764
786.50 0.1763
786.60 0.1762
786.70 0.1761
786.80 0.176
786.90 0.176
787.00 0.1759
787.10 0.1758
787.20 0.1757
787.30 0.1756
787.40 0.1755
787.50 0.1754
787.60 0.1754
787.70 0.1753
787.80 0.1752
787.90 0.1751
788.00 0.175
788.10 0.1749
788.20 0.1748
788.30 0.1747
788.40 0.1747
788.50 0.1746
788.60 0.1745
788.70 0.1744
788.80 0.1743
788.90 0.1742
789.00 0.1741
789.10 0.1741
789.20 0.174
789.30 0.1739
789.40 0.1738
789.50 0.1737
789.60 0.1736
789.70 0.1735
789.80 0.1735
789.90 0.1734
790.00 0.1733
790.10 0.1732
790.20 0.1731
790.30 0.173
790.40 0.173
790.50 0.1729
790.60 0.1728
790.70 0.1727
790.80 0.1726
790.90 0.1725
791.00 0.1724
791.10 0.1724
791.20 0.1723
791.30 0.1722
791.40 0.1721
791.50 0.172
791.60 0.1719
791.70 0.1719
791.80 0.1718
791.90 0.1717
792.00 0.1716
792.10 0.1715
792.20 0.1714
792.30 0.1714
792.40 0.1713
792.50 0.1712
792.60 0.1711
792.70 0.171
792.80 0.171
792.90 0.1709
793.00 0.1708
793.10 0.1707
793.20 0.1706
793.30 0.1705
793.40 0.1705
793.50 0.1704
793.60 0.1703
793.70 0.1702
793.80 0.1701
793.90 0.17
794.00 0.17
794.10 0.1699
794.20 0.1698
794.30 0.1697
794.40 0.1696
794.50 0.1695
794.60 0.1695
794.70 0.1694
794.80 0.1693
794.90 0.1692
795.00 0.1691
795.10 0.1691
795.20 0.169
795.30 0.1689
795.40 0.1688
795.50 0.1687
795.60 0.1686
795.70 0.1686
795.80 0.1685
795.90 0.1684
796.00 0.1683
796.10 0.1682
796.20 0.1681
796.30 0.1681
796.40 0.168
796.50 0.1679
796.60 0.1678
796.70 0.1677
796.80 0.1677
796.90 0.1676
797.00 0.1675
797.10 0.1674
797.20 0.1673
797.30 0.1673
797.40 0.1672
797.50 0.1671
797.60 0.167
797.70 0.1669
797.80 0.1668
797.90 0.1668
798.00 0.1667
798.10 0.1666
798.20 0.1665
798.30 0.1664
798.40 0.1664
798.50 0.1663
798.60 0.1662
798.70 0.1661
798.80 0.166
798.90 0.166
799.00 0.1659
799.10 0.1658
799.20 0.1657
799.30 0.1656
799.40 0.1656
799.50 0.1655
799.60 0.1654
799.70 0.1653
799.80 0.1652
799.90 0.1651
800.00 0.1651
800.10 0.165
800.20 0.1649
800.30 0.1648
800.40 0.1648
800.50 0.1647
800.60 0.1646
800.70 0.1645
800.80 0.1644
800.90 0.1644
801.00 0.1643
801.10 0.1642
801.20 0.1641
801.30 0.164
801.40 0.164
801.50 0.1639
801.60 0.1638
801.70 0.1637
801.80 0.1637
801.90 0.1636
802.00 0.1635
802.10 0.1634
802.20 0.1633
802.30 0.1633
802.40 0.1632
802.50 0.1631
802.60 0.163
802.70 0.1629
802.80 0.1629
802.90 0.1628
803.00 0.1627
803.10 0.1626
803.20 0.1626
803.30 0.1625
803.40 0.1624
803.50 0.1623
803.60 0.1622
803.70 0.1622
803.80 0.1621
803.90 0.162
804.00 0.1619
804.10 0.1619
804.20 0.1618
804.30 0.1617
804.40 0.1616
804.50 0.1615
804.60 0.1615
804.70 0.1614
804.80 0.1613
804.90 0.1612
805.00 0.1612
805.10 0.1611
805.20 0.161
805.30 0.1609
805.40 0.1608
805.50 0.1608
805.60 0.1607
805.70 0.1606
805.80 0.1605
805.90 0.1605
806.00 0.1604
806.10 0.1603
806.20 0.1602
806.30 0.1602
806.40 0.1601
806.50 0.16
806.60 0.1599
806.70 0.1598
806.80 0.1598
806.90 0.1597
807.00 0.1596
807.10 0.1595
807.20 0.1595
807.30 0.1594
807.40 0.1593
807.50 0.1592
807.60 0.1592
807.70 0.1591
807.80 0.159
807.90 0.1589
808.00 0.1589
808.10 0.1588
808.20 0.1587
808.30 0.1586
808.40 0.1585
808.50 0.1585
808.60 0.1584
808.70 0.1583
808.80 0.1582
808.90 0.1582
809.00 0.1581
809.10 0.158
809.20 0.1579
809.30 0.1579
809.40 0.1578
809.50 0.1577
809.60 0.1576
809.70 0.1576
809.80 0.1575
809.90 0.1574
810.00 0.1573
810.10 0.1573
810.20 0.1572
810.30 0.1571
810.40 0.157
810.50 0.157
810.60 0.1569
810.70 0.1568
810.80 0.1567
810.90 0.1567
811.00 0.1566
811.10 0.1565
811.20 0.1564
811.30 0.1564
811.40 0.1563
811.50 0.1562
811.60 0.1561
811.70 0.1561
811.80 0.156
811.90 0.1559
812.00 0.1558
812.10 0.1558
812.20 0.1557
812.30 0.1556
812.40 0.1556
812.50 0.1555
812.60 0.1554
812.70 0.1553
812.80 0.1553
812.90 0.1552
813.00 0.1551
813.10 0.155
813.20 0.155
813.30 0.1549
813.40 0.1548
813.50 0.1547
813.60 0.1547
813.70 0.1546
813.80 0.1545
813.90 0.1545
814.00 0.1544
814.10 0.1543
814.20 0.1542
814.30 0.1542
814.40 0.1541
814.50 0.154
814.60 0.1539
814.70 0.1539
814.80 0.1538
814.90 0.1537
815.00 0.1536
815.10 0.1536
815.20 0.1535
815.30 0.1534
815.40 0.1534
815.50 0.1533
815.60 0.1532
815.70 0.1531
815.80 0.1531
815.90 0.153
816.00 0.1529
816.10 0.1528
816.20 0.1528
816.30 0.1527
816.40 0.1526
816.50 0.1526
816.60 0.1525
816.70 0.1524
816.80 0.1523
816.90 0.1523
817.00 0.1522
817.10 0.1521
817.20 0.1521
817.30 0.152
817.40 0.1519
817.50 0.1518
817.60 0.1518
817.70 0.1517
817.80 0.1516
817.90 0.1515
818.00 0.1515
818.10 0.1514
818.20 0.1513
818.30 0.1513
818.40 0.1512
818.50 0.1511
818.60 0.151
818.70 0.151
818.80 0.1509
818.90 0.1508
819.00 0.1508
819.10 0.1507
819.20 0.1506
819.30 0.1505
819.40 0.1505
819.50 0.1504
819.60 0.1503
819.70 0.1503
819.80 0.1502
819.90 0.1501
820.00 0.15
820.10 0.15
820.20 0.1499
820.30 0.1498
820.40 0.1498
820.50 0.1497
820.60 0.1496
820.70 0.1495
820.80 0.1495
820.90 0.1494
821.00 0.1493
821.10 0.1493
821.20 0.1492
821.30 0.1491
821.40 0.1491
821.50 0.149
821.60 0.1489
821.70 0.1488
821.80 0.1488
821.90 0.1487
822.00 0.1486
822.10 0.1486
822.20 0.1485
822.30 0.1484
822.40 0.1484
822.50 0.1483
822.60 0.1482
822.70 0.1481
822.80 0.1481
822.90 0.148
823.00 0.1479
823.10 0.1479
823.20 0.1478
823.30 0.1477
823.40 0.1477
823.50 0.1476
823.60 0.1475
823.70 0.1475
823.80 0.1474
823.90 0.1473
824.00 0.1472
824.10 0.1472
824.20 0.1471
824.30 0.147
824.40 0.147
824.50 0.1469
824.60 0.1468
824.70 0.1468
824.80 0.1467
824.90 0.1466
825.00 0.1466
825.10 0.1465
825.20 0.1464
825.30 0.1464
825.40 0.1463
825.50 0.1462
825.60 0.1461
825.70 0.1461
825.80 0.146
825.90 0.1459
826.00 0.1459
826.10 0.1458
826.20 0.1457
826.30 0.1457
826.40 0.1456
826.50 0.1455
826.60 0.1455
826.70 0.1454
826.80 0.1453
826.90 0.1453
827.00 0.1452
827.10 0.1451
827.20 0.1451
827.30 0.145
827.40 0.1449
827.50 0.1449
827.60 0.1448
827.70 0.1447
827.80 0.1446
827.90 0.1446
828.00 0.1445
828.10 0.1444
828.20 0.1444
828.30 0.1443
828.40 0.1442
828.50 0.1442
828.60 0.1441
828.70 0.144
828.80 0.144
828.90 0.1439
829.00 0.1438
829.10 0.1438
829.20 0.1437
829.30 0.1436
829.40 0.1436
829.50 0.1435
829.60 0.1434
829.70 0.1434
829.80 0.1433
829.90 0.1432
830.00 0.1432
830.10 0.1431
830.20 0.143
830.30 0.143
830.40 0.1429
830.50 0.1428
830.60 0.1428
830.70 0.1427
830.80 0.1426
830.90 0.1426
831.00 0.1425
831.10 0.1424
831.20 0.1424
831.30 0.1423
831.40 0.1422
831.50 0.1422
831.60 0.1421
831.70 0.142
831.80 0.142
831.90 0.1419
832.00 0.1418
832.10 0.1418
832.20 0.1417
832.30 0.1416
832.40 0.1416
832.50 0.1415
832.60 0.1414
832.70 0.1414
832.80 0.1413
832.90 0.1412
833.00 0.1412
833.10 0.1411
833.20 0.141
833.30 0.141
833.40 0.1409
833.50 0.1409
833.60 0.1408
833.70 0.1407
833.80 0.1407
833.90 0.1406
834.00 0.1405
834.10 0.1405
834.20 0.1404
834.30 0.1403
834.40 0.1403
834.50 0.1402
834.60 0.1401
834.70 0.1401
834.80 0.14
834.90 0.1399
835.00 0.1399
835.10 0.1398
835.20 0.1397
835.30 0.1397
835.40 0.1396
835.50 0.1395
835.60 0.1395
835.70 0.1394
835.80 0.1393
835.90 0.1393
836.00 0.1392
836.10 0.1392
836.20 0.1391
836.30 0.139
836.40 0.139
836.50 0.1389
836.60 0.1388
836.70 0.1388
836.80 0.1387
836.90 0.1386
837.00 0.1386
837.10 0.1385
837.20 0.1384
837.30 0.1384
837.40 0.1383
837.50 0.1382
837.60 0.1382
837.70 0.1381
837.80 0.1381
837.90 0.138
838.00 0.1379
838.10 0.1379
838.20 0.1378
838.30 0.1377
838.40 0.1377
838.50 0.1376
838.60 0.1375
838.70 0.1375
838.80 0.1374
838.90 0.1374
839.00 0.1373
839.10 0.1372
839.20 0.1372
839.30 0.1371
839.40 0.137
839.50 0.137
839.60 0.1369
839.70 0.1368
839.80 0.1368
839.90 0.1367
840.00 0.1367
840.10 0.1366
840.20 0.1365
840.30 0.1365
840.40 0.1364
840.50 0.1363
840.60 0.1363
840.70 0.1362
840.80 0.1362
840.90 0.1361
841.00 0.136
841.10 0.136
841.20 0.1359
841.30 0.1358
841.40 0.1358
841.50 0.1357
841.60 0.1357
841.70 0.1356
841.80 0.1355
841.90 0.1355
842.00 0.1354
842.10 0.1353
842.20 0.1353
842.30 0.1352
842.40 0.1352
842.50 0.1351
842.60 0.135
842.70 0.135
842.80 0.1349
842.90 0.1348
843.00 0.1348
843.10 0.1347
843.20 0.1347
843.30 0.1346
843.40 0.1345
843.50 0.1345
843.60 0.1344
843.70 0.1343
843.80 0.1343
843.90 0.1342
844.00 0.1342
844.10 0.1341
844.20 0.134
844.30 0.134
844.40 0.1339
844.50 0.1339
844.60 0.1338
844.70 0.1337
844.80 0.1337
844.90 0.1336
845.00 0.1335
845.10 0.1335
845.20 0.1334
845.30 0.1334
845.40 0.1333
845.50 0.1332
845.60 0.1332
845.70 0.1331
845.80 0.1331
845.90 0.133
846.00 0.1329
846.10 0.1329
846.20 0.1328
846.30 0.1327
846.40 0.1327
846.50 0.1326
846.60 0.1326
846.70 0.1325
846.80 0.1324
846.90 0.1324
847.00 0.1323
847.10 0.1323
847.20 0.1322
847.30 0.1321
847.40 0.1321
847.50 0.132
847.60 0.132
847.70 0.1319
847.80 0.1318
847.90 0.1318
848.00 0.1317
848.10 0.1317
848.20 0.1316
848.30 0.1315
848.40 0.1315
848.50 0.1314
848.60 0.1314
848.70 0.1313
848.80 0.1312
848.90 0.1312
849.00 0.1311
849.10 0.1311
849.20 0.131
849.30 0.1309
849.40 0.1309
849.50 0.1308
849.60 0.1308
849.70 0.1307
849.80 0.1306
849.90 0.1306
850.00 0.1305
850.10 0.1305
850.20 0.1304
850.30 0.1303
850.40 0.1303
850.50 0.1302
850.60 0.1302
850.70 0.1301
850.80 0.13
850.90 0.13
851.00 0.1299
851.10 0.1299
851.20 0.1298
851.30 0.1297
851.40 0.1297
851.50 0.1296
851.60 0.1296
851.70 0.1295
851.80 0.1294
851.90 0.1294
852.00 0.1293
852.10 0.1293
852.20 0.1292
852.30 0.1292
852.40 0.1291
852.50 0.129
852.60 0.129
852.70 0.1289
852.80 0.1289
852.90 0.1288
853.00 0.1287
853.10 0.1287
853.20 0.1286
853.30 0.1286
853.40 0.1285
853.50 0.1284
853.60 0.1284
853.70 0.1283
853.80 0.1283
853.90 0.1282
854.00 0.1282
854.10 0.1281
854.20 0.128
854.30 0.128
854.40 0.1279
854.50 0.1279
854.60 0.1278
854.70 0.1277
854.80 0.1277
854.90 0.1276
855.00 0.1276
855.10 0.1275
855.20 0.1275
855.30 0.1274
855.40 0.1273
855.50 0.1273
855.60 0.1272
855.70 0.1272
855.80 0.1271
855.90 0.1271
856.00 0.127
856.10 0.1269
856.20 0.1269
856.30 0.1268
856.40 0.1268
856.50 0.1267
856.60 0.1267
856.70 0.1266
856.80 0.1265
856.90 0.1265
857.00 0.1264
857.10 0.1264
857.20 0.1263
857.30 0.1262
857.40 0.1262
857.50 0.1261
857.60 0.1261
857.70 0.126
857.80 0.126
857.90 0.1259
858.00 0.1259
858.10 0.1258
858.20 0.1257
858.30 0.1257
858.40 0.1256
858.50 0.1256
858.60 0.1255
858.70 0.1255
858.80 0.1254
858.90 0.1253
859.00 0.1253
859.10 0.1252
859.20 0.1252
859.30 0.1251
859.40 0.1251
859.50 0.125
859.60 0.1249
859.70 0.1249
859.80 0.1248
859.90 0.1248
860.00 0.1247
860.10 0.1247
860.20 0.1246
860.30 0.1246
860.40 0.1245
860.50 0.1244
860.60 0.1244
860.70 0.1243
860.80 0.1243
860.90 0.1242
861.00 0.1242
861.10 0.1241
861.20 0.124
861.30 0.124
861.40 0.1239
861.50 0.1239
861.60 0.1238
861.70 0.1238
861.80 0.1237
861.90 0.1237
862.00 0.1236
862.10 0.1235
862.20 0.1235
862.30 0.1234
862.40 0.1234
862.50 0.1233
862.60 0.1233
862.70 0.1232
862.80 0.1232
862.90 0.1231
863.00 0.1231
863.10 0.123
863.20 0.1229
863.30 0.1229
863.40 0.1228
863.50 0.1228
863.60 0.1227
863.70 0.1227
863.80 0.1226
863.90 0.1226
864.00 0.1225
864.10 0.1224
864.20 0.1224
864.30 0.1223
864.40 0.1223
864.50 0.1222
864.60 0.1222
864.70 0.1221
864.80 0.1221
864.90 0.122
865.00 0.122
865.10 0.1219
865.20 0.1218
865.30 0.1218
865.40 0.1217
865.50 0.1217
865.60 0.1216
865.70 0.1216
865.80 0.1215
865.90 0.1215
866.00 0.1214
866.10 0.1214
866.20 0.1213
866.30 0.1212
866.40 0.1212
866.50 0.1211
866.60 0.1211
866.70 0.121
866.80 0.121
866.90 0.1209
867.00 0.1209
867.10 0.1208
867.20 0.1208
867.30 0.1207
867.40 0.1207
867.50 0.1206
867.60 0.1205
867.70 0.1205
867.80 0.1204
867.90 0.1204
868.00 0.1203
868.10 0.1203
868.20 0.1202
868.30 0.1202
868.40 0.1201
868.50 0.1201
868.60 0.12
868.70 0.12
868.80 0.1199
868.90 0.1198
869.00 0.1198
869.10 0.1197
869.20 0.1197
869.30 0.1196
869.40 0.1196
869.50 0.1195
869.60 0.1195
869.70 0.1194
869.80 0.1194
869.90 0.1193
870.00 0.1193
870.10 0.1192
870.20 0.1192
870.30 0.1191
870.40 0.1191
870.50 0.119
870.60 0.1189
870.70 0.1189
870.80 0.1188
870.90 0.1188
871.00 0.1187
871.10 0.1187
871.20 0.1186
871.30 0.1186
871.40 0.1185
871.50 0.1185
871.60 0.1184
871.70 0.1184
871.80 0.1183
871.90 0.1183
872.00 0.1182
872.10 0.1182
872.20 0.1181
872.30 0.1181
872.40 0.118
872.50 0.1179
872.60 0.1179
872.70 0.1178
872.80 0.1178
872.90 0.1177
873.00 0.1177
873.10 0.1176
873.20 0.1176
873.30 0.1175
873.40 0.1175
873.50 0.1174
873.60 0.1174
873.70 0.1173
873.80 0.1173
873.90 0.1172
874.00 0.1172
874.10 0.1171
874.20 0.1171
874.30 0.117
874.40 0.117
874.50 0.1169
874.60 0.1169
874.70 0.1168
874.80 0.1168
874.90 0.1167
875.00 0.1167
875.10 0.1166
875.20 0.1166
875.30 0.1165
875.40 0.1165
875.50 0.1164
875.60 0.1163
875.70 0.1163
875.80 0.1162
875.90 0.1162
876.00 0.1161
876.10 0.1161
876.20 0.116
876.30 0.116
876.40 0.1159
876.50 0.1159
876.60 0.1158
876.70 0.1158
876.80 0.1157
876.90 0.1157
877.00 0.1156
877.10 0.1156
877.20 0.1155
877.30 0.1155
877.40 0.1154
877.50 0.1154
877.60 0.1153
877.70 0.1153
877.80 0.1152
877.90 0.1152
878.00 0.1151
878.10 0.1151
878.20 0.115
878.30 0.115
878.40 0.1149
878.50 0.1149
878.60 0.1148
878.70 0.1148
878.80 0.1147
878.90 0.1147
879.00 0.1146
879.10 0.1146
879.20 0.1145
879.30 0.1145
879.40 0.1144
879.50 0.1144
879.60 0.1143
879.70 0.1143
879.80 0.1142
879.90 0.1142
880.00 0.1141
880.10 0.1141
880.20 0.114
880.30 0.114
880.40 0.1139
880.50 0.1139
880.60 0.1138
880.70 0.1138
880.80 0.1137
880.90 0.1137
881.00 0.1136
881.10 0.1136
881.20 0.1135
881.30 0.1135
881.40 0.1134
881.50 0.1134
881.60 0.1133
881.70 0.1133
881.80 0.1132
881.90 0.1132
882.00 0.1131
882.10 0.1131
882.20 0.113
882.30 0.113
882.40 0.1129
882.50 0.1129
882.60 0.1128
882.70 0.1128
882.80 0.1127
882.90 0.1127
883.00 0.1126
883.10 0.1126
883.20 0.1125
883.30 0.1125
883.40 0.1124
883.50 0.1124
883.60 0.1123
883.70 0.1123
883.80 0.1122
883.90 0.1122
884.00 0.1122
884.10 0.1121
884.20 0.1121
884.30 0.112
884.40 0.112
884.50 0.1119
884.60 0.1119
884.70 0.1118
884.80 0.1118
884.90 0.1117
885.00 0.1117
885.10 0.1116
885.20 0.1116
885.30 0.1115
885.40 0.1115
885.50 0.1114
885.60 0.1114
885.70 0.1113
885.80 0.1113
885.90 0.1112
886.00 0.1112
886.10 0.1111
886.20 0.1111
886.30 0.111
886.40 0.111
886.50 0.1109
886.60 0.1109
886.70 0.1108
886.80 0.1108
886.90 0.1108
887.00 0.1107
887.10 0.1107
887.20 0.1106
887.30 0.1106
887.40 0.1105
887.50 0.1105
887.60 0.1104
887.70 0.1104
887.80 0.1103
887.90 0.1103
888.00 0.1102
888.10 0.1102
888.20 0.1101
888.30 0.1101
888.40 0.11
888.50 0.11
888.60 0.1099
888.70 0.1099
888.80 0.1098
888.90 0.1098
889.00 0.1098
889.10 0.1097
889.20 0.1097
889.30 0.1096
889.40 0.1096
889.50 0.1095
889.60 0.1095
889.70 0.1094
889.80 0.1094
889.90 0.1093
890.00 0.1093
890.10 0.1092
890.20 0.1092
890.30 0.1091
890.40 0.1091
890.50 0.109
890.60 0.109
890.70 0.1089
890.80 0.1089
890.90 0.1089
891.00 0.1088
891.10 0.1088
891.20 0.1087
891.30 0.1087
891.40 0.1086
891.50 0.1086
891.60 0.1085
891.70 0.1085
891.80 0.1084
891.90 0.1084
892.00 0.1083
892.10 0.1083
892.20 0.1082
892.30 0.1082
892.40 0.1081
892.50 0.1081
892.60 0.1081
892.70 0.108
892.80 0.108
892.90 0.1079
893.00 0.1079
893.10 0.1078
893.20 0.1078
893.30 0.1077
893.40 0.1077
893.50 0.1076
893.60 0.1076
893.70 0.1075
893.80 0.1075
893.90 0.1074
894.00 0.1074
894.10 0.1074
894.20 0.1073
894.30 0.1073
894.40 0.1072
894.50 0.1072
894.60 0.1071
894.70 0.1071
894.80 0.107
894.90 0.107
895.00 0.1069
895.10 0.1069
895.20 0.1068
895.30 0.1068
895.40 0.1067
895.50 0.1067
895.60 0.1067
895.70 0.1066
895.80 0.1066
895.90 0.1065
896.00 0.1065
896.10 0.1064
896.20 0.1064
896.30 0.1063
896.40 0.1063
896.50 0.1062
896.60 0.1062
896.70 0.1061
896.80 0.1061
896.90 0.1061
897.00 0.106
897.10 0.106
897.20 0.1059
897.30 0.1059
897.40 0.1058
897.50 0.1058
897.60 0.1057
897.70 0.1057
897.80 0.1056
897.90 0.1056
898.00 0.1056
898.10 0.1055
898.20 0.1055
898.30 0.1054
898.40 0.1054
898.50 0.1053
898.60 0.1053
898.70 0.1052
898.80 0.1052
898.90 0.1051
899.00 0.1051
899.10 0.1051
899.20 0.105
899.30 0.105
899.40 0.1049
899.50 0.1049
899.60 0.1048
899.70 0.1048
899.80 0.1047
899.90 0.1047
900.00 0.1046
900.10 0.1046
900.20 0.1046
900.30 0.1045
900.40 0.1045
900.50 0.1044
900.60 0.1044
900.70 0.1043
900.80 0.1043
900.90 0.1042
901.00 0.1042
901.10 0.1042
901.20 0.1041
901.30 0.1041
901.40 0.104
901.50 0.104
901.60 0.1039
901.70 0.1039
901.80 0.1038
901.90 0.1038
902.00 0.1038
902.10 0.1037
902.20 0.1037
902.30 0.1036
902.40 0.1036
902.50 0.1035
902.60 0.1035
902.70 0.1035
902.80 0.1034
902.90 0.1034
903.00 0.1033
903.10 0.1033
903.20 0.1032
903.30 0.1032
903.40 0.1032
903.50 0.1031
903.60 0.1031
903.70 0.103
903.80 0.103
903.90 0.1029
904.00 0.1029
904.10 0.1029
904.20 0.1028
904.30 0.1028
904.40 0.1027
904.50 0.1027
904.60 0.1026
904.70 0.1026
904.80 0.1026
904.90 0.1025
905.00 0.1025
905.10 0.1024
905.20 0.1024
905.30 0.1023
905.40 0.1023
905.50 0.1023
905.60 0.1022
905.70 0.1022
905.80 0.1021
905.90 0.1021
906.00 0.102
906.10 0.102
906.20 0.102
906.30 0.1019
906.40 0.1019
906.50 0.1018
906.60 0.1018
906.70 0.1018
906.80 0.1017
906.90 0.1017
907.00 0.1016
907.10 0.1016
907.20 0.1015
907.30 0.1015
907.40 0.1015
907.50 0.1014
907.60 0.1014
907.70 0.1013
907.80 0.1013
907.90 0.1012
908.00 0.1012
908.10 0.1012
908.20 0.1011
908.30 0.1011
908.40 0.101
908.50 0.101
908.60 0.1009
908.70 0.1009
908.80 0.1009
908.90 0.1008
909.00 0.1008
909.10 0.1007
909.20 0.1007
909.30 0.1006
909.40 0.1006
909.50 0.1006
909.60 0.1005
909.70 0.1005
909.80 0.1004
909.90 0.1004
910.00 0.1004
910.10 0.1003
910.20 0.1003
910.30 0.1002
910.40 0.1002
910.50 0.1001
910.60 0.1001
910.70 0.1001
910.80 0.1
910.90 0.09997
911.00 0.09993
911.10 0.09989
911.20 0.09984
911.30 0.0998
911.40 0.09976
911.50 0.09972
911.60 0.09967
911.70 0.09963
911.80 0.09959
911.90 0.09955
912.00 0.09951
912.10 0.09946
912.20 0.09942
912.30 0.09937
912.40 0.09933
912.50 0.09929
912.60 0.09924
912.70 0.0992
912.80 0.09915
912.90 0.09911
913.00 0.09907
913.10 0.09902
913.20 0.09898
913.30 0.09893
913.40 0.09889
913.50 0.09885
913.60 0.0988
913.70 0.09876
913.80 0.09871
913.90 0.09867
914.00 0.09863
914.10 0.09858
914.20 0.09854
914.30 0.09849
914.40 0.09845
914.50 0.09841
914.60 0.09836
914.70 0.09832
914.80 0.09828
914.90 0.09823
915.00 0.09819
915.10 0.09814
915.20 0.0981
915.30 0.09806
915.40 0.09801
915.50 0.09797
915.60 0.09793
915.70 0.09788
915.80 0.09784
915.90 0.0978
916.00 0.09775
916.10 0.09771
916.20 0.09766
916.30 0.09762
916.40 0.09758
916.50 0.09753
916.60 0.09749
916.70 0.09745
916.80 0.0974
916.90 0.09736
917.00 0.09732
917.10 0.09727
917.20 0.09723
917.30 0.09719
917.40 0.09714
917.50 0.0971
917.60 0.09706
917.70 0.09701
917.80 0.09697
917.90 0.09692
918.00 0.09688
918.10 0.09684
918.20 0.09679
918.30 0.09675
918.40 0.09671
918.50 0.09666
918.60 0.09662
918.70 0.09658
918.80 0.09653
918.90 0.09649
919.00 0.09645
919.10 0.0964
919.20 0.09636
919.30 0.09632
919.40 0.09627
919.50 0.09623
919.60 0.09619
919.70 0.09614
919.80 0.0961
919.90 0.09606
920.00 0.09601
920.10 0.09597
920.20 0.09593
920.30 0.09588
920.40 0.09584
920.50 0.0958
920.60 0.09575
920.70 0.09571
920.80 0.09567
920.90 0.09562
921.00 0.09558
921.10 0.09554
921.20 0.0955
921.30 0.09545
921.40 0.09541
921.50 0.09537
921.60 0.09532
921.70 0.09528
921.80 0.09524
921.90 0.09519
922.00 0.09515
922.10 0.09511
922.20 0.09508
922.30 0.09504
922.40 0.095
922.50 0.09497
922.60 0.09493
922.70 0.09489
922.80 0.09486
922.90 0.09482
923.00 0.09478
923.10 0.09475
923.20 0.09471
923.30 0.09467
923.40 0.09464
923.50 0.0946
923.60 0.09456
923.70 0.09452
923.80 0.09449
923.90 0.09445
924.00 0.09441
924.10 0.09438
924.20 0.09434
924.30 0.0943
924.40 0.09427
924.50 0.09423
924.60 0.09419
924.70 0.09416
924.80 0.09412
924.90 0.09408
925.00 0.09405
925.10 0.09401
925.20 0.09398
925.30 0.09394
925.40 0.0939
925.50 0.09387
925.60 0.09383
925.70 0.09379
925.80 0.09376
925.90 0.09372
926.00 0.09368
926.10 0.09365
926.20 0.09361
926.30 0.09357
926.40 0.09354
926.50 0.0935
926.60 0.09346
926.70 0.09343
926.80 0.09339
926.90 0.09336
927.00 0.09332
927.10 0.09328
927.20 0.09325
927.30 0.09322
927.40 0.09318
927.50 0.09315
927.60 0.09311
927.70 0.09308
927.80 0.09304
927.90 0.09301
928.00 0.09297
928.10 0.09294
928.20 0.0929
928.30 0.09287
928.40 0.09284
928.50 0.0928
928.60 0.09277
928.70 0.09273
928.80 0.0927
928.90 0.09266
929.00 0.09263
929.10 0.0926
929.20 0.09256
929.30 0.09253
929.40 0.09249
929.50 0.09246
929.60 0.09242
929.70 0.09239
929.80 0.09235
929.90 0.09232
930.00 0.09229
930.10 0.09225
930.20 0.09222
930.30 0.09218
930.40 0.09215
930.50 0.09212
930.60 0.09208
930.70 0.09205
930.80 0.09201
930.90 0.09198
931.00 0.09194
931.10 0.09191
931.20 0.09188
931.30 0.09184
931.40 0.09181
931.50 0.09177
931.60 0.09174
931.70 0.09171
931.80 0.09167
931.90 0.09164
932.00 0.0916
932.10 0.09157
932.20 0.09153
932.30 0.0915
932.40 0.09146
932.50 0.09143
932.60 0.09139
932.70 0.09135
932.80 0.09132
932.90 0.09128
933.00 0.09125
933.10 0.09121
933.20 0.09118
933.30 0.09114
933.40 0.09111
933.50 0.09107
933.60 0.09103
933.70 0.091
933.80 0.09096
933.90 0.09093
934.00 0.09089
934.10 0.09086
934.20 0.09082
934.30 0.09079
934.40 0.09075
934.50 0.09071
934.60 0.09068
934.70 0.09064
934.80 0.0906
934.90 0.09057
935.00 0.09053
935.10 0.09049
935.20 0.09046
935.30 0.09042
935.40 0.09038
935.50 0.09035
935.60 0.09031
935.70 0.09027
935.80 0.09024
935.90 0.0902
936.00 0.09016
936.10 0.09013
936.20 0.09009
936.30 0.09005
936.40 0.09002
936.50 0.08998
936.60 0.08994
936.70 0.08991
936.80 0.08987
936.90 0.08984
937.00 0.0898
937.10 0.08976
937.20 0.08972
937.30 0.08969
937.40 0.08965
937.50 0.08961
937.60 0.08957
937.70 0.08954
937.80 0.0895
937.90 0.08946
938.00 0.08943
938.10 0.08939
938.20 0.08935
938.30 0.08931
938.40 0.08928
938.50 0.08924
938.60 0.0892
938.70 0.08916
938.80 0.08912
938.90 0.08908
939.00 0.08905
939.10 0.08901
939.20 0.08897
939.30 0.08893
939.40 0.08889
939.50 0.08886
939.60 0.08882
939.70 0.08878
939.80 0.08874
939.90 0.0887
940.00 0.08867
940.10 0.08863
940.20 0.08859
940.30 0.08855
940.40 0.08851
940.50 0.08847
940.60 0.08844
940.70 0.0884
940.80 0.08836
940.90 0.08832
941.00 0.08828
941.10 0.08824
941.20 0.0882
941.30 0.08816
941.40 0.08812
941.50 0.08809
941.60 0.08805
941.70 0.08801
941.80 0.08797
941.90 0.08793
942.00 0.08789
942.10 0.08785
942.20 0.08781
942.30 0.08777
942.40 0.08773
942.50 0.08769
942.60 0.08765
942.70 0.08761
942.80 0.08757
942.90 0.08753
943.00 0.08749
943.10 0.08745
943.20 0.08741
943.30 0.08737
943.40 0.08733
943.50 0.08729
943.60 0.08725
943.70 0.08721
943.80 0.08717
943.90 0.08713
944.00 0.08709
944.10 0.08705
944.20 0.08701
944.30 0.08697
944.40 0.08693
944.50 0.08689
944.60 0.08685
944.70 0.08681
944.80 0.08677
944.90 0.08672
945.00 0.08668
945.10 0.08664
945.20 0.0866
945.30 0.08656
945.40 0.08652
945.50 0.08648
945.60 0.08643
945.70 0.08639
945.80 0.08635
945.90 0.08631
946.00 0.08627
946.10 0.08622
946.20 0.08618
946.30 0.08614
946.40 0.0861
946.50 0.08606
946.60 0.08601
946.70 0.08597
946.80 0.08593
946.90 0.08589
947.00 0.08585
947.10 0.0858
947.20 0.08576
947.30 0.08572
947.40 0.08568
947.50 0.08563
947.60 0.08559
947.70 0.08554
947.80 0.0855
947.90 0.08546
948.00 0.08541
948.10 0.08537
948.20 0.08533
948.30 0.08528
948.40 0.08524
948.50 0.0852
948.60 0.08515
948.70 0.08511
948.80 0.08507
948.90 0.08502
949.00 0.08498
949.10 0.08494
949.20 0.08489
949.30 0.08485
949.40 0.08481
949.50 0.08476
949.60 0.08472
949.70 0.08467
949.80 0.08463
949.90 0.08458
950.00 0.08454
950.10 0.0845
950.20 0.08445
950.30 0.08441
950.40 0.08436
950.50 0.08432
950.60 0.08428
950.70 0.08423
950.80 0.08419
950.90 0.08414
951.00 0.0841
951.10 0.08405
951.20 0.08401
951.30 0.08397
951.40 0.08392
951.50 0.08388
951.60 0.08383
951.70 0.08379
951.80 0.08375
951.90 0.0837
952.00 0.08366
952.10 0.08362
952.20 0.08357
952.30 0.08353
952.40 0.08349
952.50 0.08345
952.60 0.0834
952.70 0.08336
952.80 0.08332
952.90 0.08328
953.00 0.08324
953.10 0.0832
953.20 0.08316
953.30 0.08312
953.40 0.08308
953.50 0.08303
953.60 0.083
953.70 0.08296
953.80 0.08292
953.90 0.08289
954.00 0.08285
954.10 0.08282
954.20 0.08279
954.30 0.08275
954.40 0.08272
954.50 0.0827
954.60 0.08266
954.70 0.08263
954.80 0.0826
954.90 0.08256
955.00 0.08252
955.10 0.08249
955.20 0.08246
955.30 0.08243
955.40 0.0824
955.50 0.08237
955.60 0.08234
955.70 0.08231
955.80 0.08228
955.90 0.08226
956.00 0.08223
956.10 0.08221
956.20 0.08218
956.30 0.08216
956.40 0.08214
956.50 0.08211
956.60 0.08209
956.70 0.08206
956.80 0.08204
956.90 0.08201
957.00 0.08199
957.10 0.08197
957.20 0.08194
957.30 0.08192
957.40 0.0819
957.50 0.08188
957.60 0.08185
957.70 0.08183
957.80 0.08181
957.90 0.08179
958.00 0.08176
958.10 0.08174
958.20 0.08172
958.30 0.0817
958.40 0.08167
958.50 0.08165
958.60 0.08163
958.70 0.08161
958.80 0.08158
958.90 0.08156
959.00 0.08154
959.10 0.08152
959.20 0.08149
959.30 0.08147
959.40 0.08145
959.50 0.08142
959.60 0.0814
959.70 0.08138
959.80 0.08135
959.90 0.08133
960.00 0.08131
960.10 0.08128
960.20 0.08126
960.30 0.08124
960.40 0.08121
960.50 0.08119
960.60 0.08117
960.70 0.08115
960.80 0.08112
960.90 0.0811
961.00 0.08108
961.10 0.08105
961.20 0.08103
961.30 0.08101
961.40 0.08098
961.50 0.08096
961.60 0.08093
961.70 0.08091
961.80 0.08088
961.90 0.08086
962.00 0.08084
962.10 0.08081
962.20 0.08079
962.30 0.08076
962.40 0.08074
962.50 0.08071
962.60 0.08069
962.70 0.08066
962.80 0.08064
962.90 0.08061
963.00 0.08059
963.10 0.08056
963.20 0.08054
963.30 0.08051
963.40 0.08049
963.50 0.08046
963.60 0.08043
963.70 0.08041
963.80 0.08038
963.90 0.08036
964.00 0.08033
964.10 0.0803
964.20 0.08028
964.30 0.08025
964.40 0.08023
964.50 0.0802
964.60 0.08017
964.70 0.08015
964.80 0.08012
964.90 0.08009
965.00 0.08006
965.10 0.08004
965.20 0.08001
965.30 0.07998
965.40 0.07996
965.50 0.07993
965.60 0.0799
965.70 0.07988
965.80 0.07985
965.90 0.07982
966.00 0.0798
966.10 0.07977
966.20 0.07974
966.30 0.07972
966.40 0.07969
966.50 0.07966
966.60 0.07963
966.70 0.07961
966.80 0.07958
966.90 0.07955
967.00 0.07952
967.10 0.0795
967.20 0.07947
967.30 0.07944
967.40 0.07941
967.50 0.07938
967.60 0.07936
967.70 0.07933
967.80 0.0793
967.90 0.07927
968.00 0.07924
968.10 0.07922
968.20 0.07919
968.30 0.07916
968.40 0.07913
968.50 0.0791
968.60 0.07907
968.70 0.07905
968.80 0.07902
968.90 0.07899
969.00 0.07896
969.10 0.07893
969.20 0.0789
969.30 0.07887
969.40 0.07884
969.50 0.07882
969.60 0.07879
969.70 0.07876
969.80 0.07873
969.90 0.0787
970.00 0.07867
970.10 0.07864
970.20 0.07862
970.30 0.07859
970.40 0.07856
970.50 0.07853
970.60 0.0785
970.70 0.07847
970.80 0.07844
970.90 0.07841
971.00 0.07838
971.10 0.07835
971.20 0.07832
971.30 0.0783
971.40 0.07827
971.50 0.07824
971.60 0.07821
971.70 0.07818
971.80 0.07815
971.90 0.07812
972.00 0.07809
972.10 0.07806
972.20 0.07803
972.30 0.078
972.40 0.07797
972.50 0.07794
972.60 0.07791
972.70 0.07788
972.80 0.07785
972.90 0.07783
973.00 0.0778
973.10 0.07777
973.20 0.07774
973.30 0.07771
973.40 0.07768
973.50 0.07765
973.60 0.07762
973.70 0.07759
973.80 0.07756
973.90 0.07753
974.00 0.0775
974.10 0.07747
974.20 0.07744
974.30 0.07741
974.40 0.07738
974.50 0.07735
974.60 0.07732
974.70 0.07729
974.80 0.07726
974.90 0.07723
975.00 0.0772
975.10 0.07717
975.20 0.07714
975.30 0.07711
975.40 0.07708
975.50 0.07705
975.60 0.07702
975.70 0.07699
975.80 0.07696
975.90 0.07693
976.00 0.0769
976.10 0.07687
976.20 0.07684
976.30 0.07681
976.40 0.07678
976.50 0.07675
976.60 0.07673
976.70 0.0767
976.80 0.07667
976.90 0.07664
977.00 0.07661
977.10 0.07658
977.20 0.07655
977.30 0.07651
977.40 0.07648
977.50 0.07645
977.60 0.07642
977.70 0.07639
977.80 0.07636
977.90 0.07633
978.00 0.0763
978.10 0.07627
978.20 0.07624
978.30 0.07621
978.40 0.07618
978.50 0.07615
978.60 0.07612
978.70 0.07609
978.80 0.07606
978.90 0.07603
979.00 0.076
979.10 0.07597
979.20 0.07594
979.30 0.07591
979.40 0.07588
979.50 0.07585
979.60 0.07582
979.70 0.07579
979.80 0.07576
979.90 0.07573
980.00 0.0757
980.10 0.07567
980.20 0.07564
980.30 0.07561
980.40 0.07558
980.50 0.07555
980.60 0.07552
980.70 0.07549
980.80 0.07546
980.90 0.07542
981.00 0.07539
981.10 0.07536
981.20 0.07533
981.30 0.0753
981.40 0.07527
981.50 0.07524
981.60 0.07521
981.70 0.07518
981.80 0.07515
981.90 0.07512
982.00 0.07509
982.10 0.07506
982.20 0.07503
982.30 0.075
982.40 0.07497
982.50 0.07494
982.60 0.07491
982.70 0.07488
982.80 0.07485
982.90 0.07482
983.00 0.07479
983.10 0.07476
983.20 0.07473
983.30 0.0747
983.40 0.07467
983.50 0.07463
983.60 0.0746
983.70 0.07457
983.80 0.07454
983.90 0.07451
984.00 0.07448
984.10 0.07445
984.20 0.07442
984.30 0.07439
984.40 0.07436
984.50 0.07433
984.60 0.0743
984.70 0.07427
984.80 0.07424
984.90 0.07421
985.00 0.07417
985.10 0.07414
985.20 0.07411
985.30 0.07408
985.40 0.07405
985.50 0.07402
985.60 0.07399
985.70 0.07396
985.80 0.07393
985.90 0.07389
986.00 0.07386
986.10 0.07383
986.20 0.0738
986.30 0.07377
986.40 0.07374
986.50 0.07371
986.60 0.07368
986.70 0.07365
986.80 0.07362
986.90 0.07358
987.00 0.07355
987.10 0.07352
987.20 0.07349
987.30 0.07346
987.40 0.07343
987.50 0.07339
987.60 0.07336
987.70 0.07333
987.80 0.0733
987.90 0.07327
988.00 0.07324
988.10 0.07321
988.20 0.07317
988.30 0.07314
988.40 0.07311
988.50 0.07308
988.60 0.07305
988.70 0.07302
988.80 0.07298
988.90 0.07295
989.00 0.07292
989.10 0.07289
989.20 0.07285
989.30 0.07282
989.40 0.07279
989.50 0.07276
989.60 0.07272
989.70 0.07269
989.80 0.07266
989.90 0.07263
990.00 0.0726
990.10 0.07256
990.20 0.07253
990.30 0.0725
990.40 0.07247
990.50 0.07243
990.60 0.0724
990.70 0.07237
990.80 0.07234
990.90 0.0723
991.00 0.07227
991.10 0.07224
991.20 0.0722
991.30 0.07217
991.40 0.07214
991.50 0.0721
991.60 0.07207
991.70 0.07204
991.80 0.072
991.90 0.07197
992.00 0.07194
992.10 0.0719
992.20 0.07187
992.30 0.07184
992.40 0.0718
992.50 0.07177
992.60 0.07173
992.70 0.0717
992.80 0.07166
992.90 0.07163
993.00 0.07159
993.10 0.07156
993.20 0.07152
993.30 0.07149
993.40 0.07145
993.50 0.07142
993.60 0.07138
993.70 0.07135
993.80 0.07131
993.90 0.07128
994.00 0.07124
994.10 0.07121
994.20 0.07117
994.30 0.07114
994.40 0.0711
994.50 0.07107
994.60 0.07103
994.70 0.07099
994.80 0.07096
994.90 0.07092
995.00 0.07088
995.10 0.07085
995.20 0.07081
995.30 0.07077
995.40 0.07074
995.50 0.0707
995.60 0.07066
995.70 0.07063
995.80 0.07059
995.90 0.07055
996.00 0.07051
996.10 0.07047
996.20 0.07043
996.30 0.0704
996.40 0.07036
996.50 0.07032
996.60 0.07028
996.70 0.07024
996.80 0.0702
996.90 0.07017
997.00 0.07013
997.10 0.07009
997.20 0.07005
997.30 0.07001
997.40 0.06997
997.50 0.06993
997.60 0.06989
997.70 0.06985
997.80 0.0698
997.90 0.06976
998.00 0.06972
998.10 0.06968
998.20 0.06963
998.30 0.06959
998.40 0.06955
998.50 0.06951
998.60 0.06946
998.70 0.06942
998.80 0.06938
998.90 0.06934
999.00 0.06929
999.10 0.06925
999.20 0.06921
999.30 0.06917
999.40 0.06913
999.50 0.06908
999.60 0.06904
999.70 0.069
999.80 0.06895
999.90 0.0689
1000.00 0.06886
1000.10 0.06881
1000.20 0.06876
1000.30 0.06872
1000.40 0.06867
1000.50 0.06862
1000.60 0.06858
1000.70 0.06853
1000.80 0.06848
1000.90 0.06844
1001.00 0.06839
1001.10 0.06834
1001.20 0.0683
1001.30 0.06825
1001.40 0.0682
1001.50 0.06816
1001.60 0.06811
1001.70 0.06806
1001.80 0.06802
1001.90 0.06797
1002.00 0.06792
1002.10 0.06788
1002.20 0.06783
1002.30 0.06779
1002.40 0.06774
1002.50 0.0677
1002.60 0.06765
1002.70 0.06761
1002.80 0.06756
1002.90 0.06751
1003.00 0.06747
1003.10 0.06742
1003.20 0.06738
1003.30 0.06735
1003.40 0.06731
1003.50 0.06727
1003.60 0.06723
1003.70 0.06719
1003.80 0.06716
1003.90 0.06713
1004.00 0.06711
1004.10 0.06708
1004.20 0.06706
1004.30 0.06705
1004.40 0.06704
1004.50 0.06704
1004.60 0.06705
1004.70 0.06706
1004.80 0.06707
1004.90 0.06705
1005.00 0.06702
1005.10 0.06698
1005.20 0.06692
1005.30 0.06686
1005.40 0.0668
1005.50 0.06676
1005.60 0.06673
1005.70 0.0667
1005.80 0.06667
1005.90 0.06664
1006.00 0.06661
1006.10 0.06658
1006.20 0.06656
1006.30 0.06655
1006.40 0.06654
1006.50 0.06653
1006.60 0.06652
1006.70 0.06651
1006.80 0.0665
1006.90 0.06649
1007.00 0.06647
1007.10 0.06647
1007.20 0.06646
1007.30 0.06646
1007.40 0.06645
1007.50 0.06645
1007.60 0.06644
1007.70 0.06644
1007.80 0.06643
1007.90 0.06642
1008.00 0.06642
1008.10 0.06641
1008.20 0.06641
1008.30 0.0664
1008.40 0.0664
1008.50 0.06639
1008.60 0.06638
1008.70 0.06638
1008.80 0.06637
1008.90 0.06637
1009.00 0.06636
1009.10 0.06636
1009.20 0.06635
1009.30 0.06634
1009.40 0.06634
1009.50 0.06633
1009.60 0.06633
1009.70 0.06632
1009.80 0.06631
1009.90 0.0663
1010.00 0.06629
1010.10 0.06628
1010.20 0.06627
1010.30 0.06626
1010.40 0.06625
1010.50 0.06624
1010.60 0.06623
1010.70 0.06623
1010.80 0.06622
1010.90 0.06621
1011.00 0.0662
1011.10 0.06619
1011.20 0.06618
1011.30 0.06617
1011.40 0.06616
1011.50 0.06615
1011.60 0.06614
1011.70 0.06613
1011.80 0.06612
1011.90 0.06611
1012.00 0.06609
1012.10 0.06608
1012.20 0.06607
1012.30 0.06605
1012.40 0.06604
1012.50 0.06602
1012.60 0.06601
1012.70 0.066
1012.80 0.06598
1012.90 0.06597
1013.00 0.06596
1013.10 0.06594
1013.20 0.06593
1013.30 0.06591
1013.40 0.0659
1013.50 0.06589
1013.60 0.06587
1013.70 0.06586
1013.80 0.06584
1013.90 0.06583
1014.00 0.06581
1014.10 0.06579
1014.20 0.06578
1014.30 0.06576
1014.40 0.06575
1014.50 0.06573
1014.60 0.06571
1014.70 0.0657
1014.80 0.06568
1014.90 0.06566
1015.00 0.06564
1015.10 0.06563
1015.20 0.06561
1015.30 0.06559
1015.40 0.06557
1015.50 0.06555
1015.60 0.06554
1015.70 0.06552
1015.80 0.0655
1015.90 0.06548
1016.00 0.06547
1016.10 0.06545
1016.20 0.06543
1016.30 0.06541
1016.40 0.06539
1016.50 0.06538
1016.60 0.06536
1016.70 0.06534
1016.80 0.06532
1016.90 0.0653
1017.00 0.06528
1017.10 0.06526
1017.20 0.06524
1017.30 0.06522
1017.40 0.0652
1017.50 0.06518
1017.60 0.06516
1017.70 0.06514
1017.80 0.06512
1017.90 0.0651
1018.00 0.06508
1018.10 0.06507
1018.20 0.06505
1018.30 0.06503
1018.40 0.06501
1018.50 0.06499
1018.60 0.06497
1018.70 0.06495
1018.80 0.06492
1018.90 0.0649
1019.00 0.06488
1019.10 0.06486
1019.20 0.06484
1019.30 0.06482
1019.40 0.0648
1019.50 0.06478
1019.60 0.06476
1019.70 0.06474
1019.80 0.06471
1019.90 0.06469
1020.00 0.06467
1020.10 0.06465
1020.20 0.06463
1020.30 0.06461
1020.40 0.06459
1020.50 0.06457
1020.60 0.06455
1020.70 0.06453
1020.80 0.0645
1020.90 0.06448
1021.00 0.06446
1021.10 0.06444
1021.20 0.06442
1021.30 0.0644
1021.40 0.06437
1021.50 0.06435
1021.60 0.06433
1021.70 0.06431
1021.80 0.06429
1021.90 0.06427
1022.00 0.06424
1022.10 0.06422
1022.20 0.0642
1022.30 0.06418
1022.40 0.06415
1022.50 0.06413
1022.60 0.06411
1022.70 0.06409
1022.80 0.06406
1022.90 0.06404
1023.00 0.06402
1023.10 0.064
1023.20 0.06398
1023.30 0.06395
1023.40 0.06393
1023.50 0.06391
1023.60 0.06389
1023.70 0.06386
1023.80 0.06384
1023.90 0.06382
1024.00 0.0638
1024.10 0.06378
1024.20 0.06375
1024.30 0.06373
1024.40 0.06371
1024.50 0.06369
1024.60 0.06367
1024.70 0.06364
1024.80 0.06362
1024.90 0.0636
1025.00 0.06357
1025.10 0.06355
1025.20 0.06353
1025.30 0.06351
1025.40 0.06348
1025.50 0.06346
1025.60 0.06344
1025.70 0.06342
1025.80 0.06339
1025.90 0.06337
1026.00 0.06335
1026.10 0.06333
1026.20 0.0633
1026.30 0.06328
1026.40 0.06326
1026.50 0.06323
1026.60 0.06321
1026.70 0.06319
1026.80 0.06317
1026.90 0.06314
1027.00 0.06312
1027.10 0.0631
1027.20 0.06308
1027.30 0.06305
1027.40 0.06303
1027.50 0.06301
1027.60 0.06298
1027.70 0.06296
1027.80 0.06294
1027.90 0.06292
1028.00 0.06289
1028.10 0.06287
1028.20 0.06285
1028.30 0.06282
1028.40 0.0628
1028.50 0.06278
1028.60 0.06275
1028.70 0.06273
1028.80 0.06271
1028.90 0.06269
1029.00 0.06266
1029.10 0.06264
1029.20 0.06262
1029.30 0.0626
1029.40 0.06257
1029.50 0.06255
1029.60 0.06253
1029.70 0.0625
1029.80 0.06248
1029.90 0.06246
1030.00 0.06244
1030.10 0.06241
1030.20 0.06239
1030.30 0.06237
1030.40 0.06234
1030.50 0.06232
1030.60 0.0623
1030.70 0.06228
1030.80 0.06225
1030.90 0.06223
1031.00 0.06221
1031.10 0.06219
1031.20 0.06216
1031.30 0.06214
1031.40 0.06212
1031.50 0.06209
1031.60 0.06207
1031.70 0.06205
1031.80 0.06203
1031.90 0.062
1032.00 0.06198
1032.10 0.06196
1032.20 0.06194
1032.30 0.06191
1032.40 0.06189
1032.50 0.06187
1032.60 0.06184
1032.70 0.06182
1032.80 0.0618
1032.90 0.06178
1033.00 0.06175
1033.10 0.06173
1033.20 0.06171
1033.30 0.06168
1033.40 0.06166
1033.50 0.06164
1033.60 0.06162
1033.70 0.06159
1033.80 0.06157
1033.90 0.06155
1034.00 0.06153
1034.10 0.0615
1034.20 0.06148
1034.30 0.06146
1034.40 0.06143
1034.50 0.06141
1034.60 0.06139
1034.70 0.06137
1034.80 0.06134
1034.90 0.06132
1035.00 0.0613
1035.10 0.06128
1035.20 0.06125
1035.30 0.06123
1035.40 0.06121
1035.50 0.06119
1035.60 0.06116
1035.70 0.06114
1035.80 0.06112
1035.90 0.0611
1036.00 0.06107
1036.10 0.06105
1036.20 0.06103
1036.30 0.06101
1036.40 0.06098
1036.50 0.06096
1036.60 0.06094
1036.70 0.06091
1036.80 0.06089
1036.90 0.06087
1037.00 0.06085
1037.10 0.06082
1037.20 0.0608
1037.30 0.06078
1037.40 0.06076
1037.50 0.06073
1037.60 0.06071
1037.70 0.06069
1037.80 0.06067
1037.90 0.06064
1038.00 0.06062
1038.10 0.0606
1038.20 0.06058
1038.30 0.06055
1038.40 0.06053
1038.50 0.06051
1038.60 0.06049
1038.70 0.06046
1038.80 0.06044
1038.90 0.06042
1039.00 0.0604
1039.10 0.06037
1039.20 0.06035
1039.30 0.06033
1039.40 0.06031
1039.50 0.06029
1039.60 0.06026
1039.70 0.06024
1039.80 0.06022
1039.90 0.0602
1040.00 0.06017
1040.10 0.06015
1040.20 0.06013
1040.30 0.06011
1040.40 0.06008
1040.50 0.06006
1040.60 0.06004
1040.70 0.06002
1040.80 0.05999
1040.90 0.05997
1041.00 0.05995
1041.10 0.05993
1041.20 0.05991
1041.30 0.05988
1041.40 0.05986
1041.50 0.05984
1041.60 0.05982
1041.70 0.05979
1041.80 0.05977
1041.90 0.05975
1042.00 0.05973
1042.10 0.05971
1042.20 0.05968
1042.30 0.05966
1042.40 0.05964
1042.50 0.05962
1042.60 0.05959
1042.70 0.05957
1042.80 0.05955
1042.90 0.05953
1043.00 0.05951
1043.10 0.05948
1043.20 0.05946
1043.30 0.05944
1043.40 0.05942
1043.50 0.0594
1043.60 0.05937
1043.70 0.05935
1043.80 0.05933
1043.90 0.05931
1044.00 0.05929
1044.10 0.05926
1044.20 0.05924
1044.30 0.05922
1044.40 0.0592
1044.50 0.05918
1044.60 0.05915
1044.70 0.05913
1044.80 0.05911
1044.90 0.05909
1045.00 0.05907
1045.10 0.05904
1045.20 0.05902
1045.30 0.059
1045.40 0.05898
1045.50 0.05896
1045.60 0.05893
1045.70 0.05891
1045.80 0.05889
1045.90 0.05887
1046.00 0.05885
1046.10 0.05882
1046.20 0.0588
1046.30 0.05878
1046.40 0.05876
1046.50 0.05874
1046.60 0.05872
1046.70 0.05869
1046.80 0.05867
1046.90 0.05865
1047.00 0.05863
1047.10 0.05861
1047.20 0.05858
1047.30 0.05856
1047.40 0.05854
1047.50 0.05852
1047.60 0.0585
1047.70 0.05848
1047.80 0.05845
1047.90 0.05843
1048.00 0.05841
1048.10 0.05839
1048.20 0.05837
1048.30 0.05835
1048.40 0.05832
1048.50 0.0583
1048.60 0.05828
1048.70 0.05826
1048.80 0.05824
1048.90 0.05822
1049.00 0.05819
1049.10 0.05817
1049.20 0.05815
1049.30 0.05813
1049.40 0.05811
1049.50 0.05809
1049.60 0.05806
1049.70 0.05804
1049.80 0.05802
1049.90 0.058
1050.00 0.05798
1050.10 0.05796
1050.20 0.05794
1050.30 0.05791
1050.40 0.05789
1050.50 0.05787
1050.60 0.05785
1050.70 0.05783
1050.80 0.05781
1050.90 0.05778
1051.00 0.05776
1051.10 0.05774
1051.20 0.05772
1051.30 0.0577
1051.40 0.05768
1051.50 0.05766
1051.60 0.05763
1051.70 0.05761
1051.80 0.05759
1051.90 0.05757
1052.00 0.05755
1052.10 0.05753
1052.20 0.05751
1052.30 0.05748
1052.40 0.05746
1052.50 0.05744
1052.60 0.05742
1052.70 0.0574
1052.80 0.05738
1052.90 0.05736
1053.00 0.05734
1053.10 0.05731
1053.20 0.05729
1053.30 0.05727
1053.40 0.05725
1053.50 0.05723
1053.60 0.05721
1053.70 0.05719
1053.80 0.05717
1053.90 0.05714
1054.00 0.05712
1054.10 0.0571
1054.20 0.05708
1054.30 0.05706
1054.40 0.05704
1054.50 0.05702
1054.60 0.057
1054.70 0.05697
1054.80 0.05695
1054.90 0.05693
1055.00 0.05691
1055.10 0.05689
1055.20 0.05687
1055.30 0.05685
1055.40 0.05683
1055.50 0.05681
1055.60 0.05678
1055.70 0.05676
1055.80 0.05674
1055.90 0.05672
1056.00 0.0567
1056.10 0.05668
1056.20 0.05666
1056.30 0.05664
1056.40 0.05662
1056.50 0.05659
1056.60 0.05657
1056.70 0.05655
1056.80 0.05653
1056.90 0.05651
1057.00 0.05649
1057.10 0.05647
1057.20 0.05645
1057.30 0.05643
1057.40 0.05641
1057.50 0.05638
1057.60 0.05636
1057.70 0.05634
1057.80 0.05632
1057.90 0.0563
1058.00 0.05628
1058.10 0.05626
1058.20 0.05624
1058.30 0.05622
1058.40 0.0562
1058.50 0.05617
1058.60 0.05615
1058.70 0.05613
1058.80 0.05611
1058.90 0.05609
1059.00 0.05607
1059.10 0.05605
1059.20 0.05603
1059.30 0.05601
1059.40 0.05599
1059.50 0.05597
1059.60 0.05595
1059.70 0.05592
1059.80 0.0559
1059.90 0.05588
1060.00 0.05586
1060.10 0.05584
1060.20 0.05582
1060.30 0.0558
1060.40 0.05578
1060.50 0.05576
1060.60 0.05574
1060.70 0.05572
1060.80 0.0557
1060.90 0.05568
1061.00 0.05565
1061.10 0.05563
1061.20 0.05561
1061.30 0.05559
1061.40 0.05557
1061.50 0.05555
1061.60 0.05553
1061.70 0.05551
1061.80 0.05549
1061.90 0.05547
1062.00 0.05545
1062.10 0.05543
1062.20 0.05541
1062.30 0.05539
1062.40 0.05536
1062.50 0.05534
1062.60 0.05532
1062.70 0.0553
1062.80 0.05528
1062.90 0.05526
1063.00 0.05524
1063.10 0.05522
1063.20 0.0552
1063.30 0.05518
1063.40 0.05516
1063.50 0.05514
1063.60 0.05512
1063.70 0.0551
1063.80 0.05507
1063.90 0.05505
1064.00 0.05503
1064.10 0.05501
1064.20 0.05499
1064.30 0.05497
1064.40 0.05495
1064.50 0.05493
1064.60 0.05491
1064.70 0.05489
1064.80 0.05487
1064.90 0.05485
1065.00 0.05483
1065.10 0.05481
1065.20 0.05479
1065.30 0.05477
1065.40 0.05475
1065.50 0.05472
1065.60 0.0547
1065.70 0.05468
1065.80 0.05466
1065.90 0.05464
1066.00 0.05462
1066.10 0.0546
1066.20 0.05458
1066.30 0.05456
1066.40 0.05454
1066.50 0.05452
1066.60 0.0545
1066.70 0.05448
1066.80 0.05446
1066.90 0.05444
1067.00 0.05442
1067.10 0.0544
1067.20 0.05438
1067.30 0.05436
1067.40 0.05433
1067.50 0.05431
1067.60 0.05429
1067.70 0.05427
1067.80 0.05425
1067.90 0.05423
1068.00 0.05421
1068.10 0.05419
1068.20 0.05417
1068.30 0.05415
1068.40 0.05413
1068.50 0.05411
1068.60 0.05409
1068.70 0.05407
1068.80 0.05405
1068.90 0.05403
1069.00 0.054
1069.10 0.05398
1069.20 0.05396
1069.30 0.05394
1069.40 0.05392
1069.50 0.0539
1069.60 0.05388
1069.70 0.05386
1069.80 0.05384
1069.90 0.05382
1070.00 0.0538
1070.10 0.05378
1070.20 0.05376
1070.30 0.05374
1070.40 0.05372
1070.50 0.0537
1070.60 0.05368
1070.70 0.05366
1070.80 0.05364
1070.90 0.05361
1071.00 0.05359
1071.10 0.05357
1071.20 0.05355
1071.30 0.05353
1071.40 0.05351
1071.50 0.05349
1071.60 0.05347
1071.70 0.05345
1071.80 0.05343
1071.90 0.05341
1072.00 0.05339
1072.10 0.05337
1072.20 0.05335
1072.30 0.05333
1072.40 0.05331
1072.50 0.05329
1072.60 0.05327
1072.70 0.05324
1072.80 0.05322
1072.90 0.0532
1073.00 0.05318
1073.10 0.05316
1073.20 0.05314
1073.30 0.05312
1073.40 0.0531
1073.50 0.05308
1073.60 0.05306
1073.70 0.05304
1073.80 0.05302
1073.90 0.05299
1074.00 0.05297
1074.10 0.05295
1074.20 0.05293
1074.30 0.05291
1074.40 0.05289
1074.50 0.05287
1074.60 0.05285
1074.70 0.05282
1074.80 0.0528
1074.90 0.05278
1075.00 0.05276
1075.10 0.05274
1075.20 0.05272
1075.30 0.0527
1075.40 0.05268
1075.50 0.05266
1075.60 0.05263
1075.70 0.05261
1075.80 0.05259
1075.90 0.05257
1076.00 0.05255
1076.10 0.05253
1076.20 0.05251
1076.30 0.05249
1076.40 0.05247
1076.50 0.05244
1076.60 0.05242
1076.70 0.0524
1076.80 0.05238
1076.90 0.05236
1077.00 0.05234
1077.10 0.05232
1077.20 0.0523
1077.30 0.05227
1077.40 0.05225
1077.50 0.05223
1077.60 0.05221
1077.70 0.05219
1077.80 0.05216
1077.90 0.05214
1078.00 0.05212
1078.10 0.0521
1078.20 0.05208
1078.30 0.05205
1078.40 0.05203
1078.50 0.05201
1078.60 0.05199
1078.70 0.05196
1078.80 0.05194
1078.90 0.05192
1079.00 0.0519
1079.10 0.05188
1079.20 0.05185
1079.30 0.05183
1079.40 0.05181
1079.50 0.05179
1079.60 0.05176
1079.70 0.05174
1079.80 0.05172
1079.90 0.05169
1080.00 0.05167
1080.10 0.05165
1080.20 0.05162
1080.30 0.0516
1080.40 0.05158
1080.50 0.05155
1080.60 0.05153
1080.70 0.05151
1080.80 0.05148
1080.90 0.05146
1081.00 0.05144
1081.10 0.05141
1081.20 0.05139
1081.30 0.05137
1081.40 0.05134
1081.50 0.05132
1081.60 0.0513
1081.70 0.05127
1081.80 0.05125
1081.90 0.05122
1082.00 0.0512
1082.10 0.05117
1082.20 0.05115
1082.30 0.05112
1082.40 0.0511
1082.50 0.05107
1082.60 0.05105
1082.70 0.05102
1082.80 0.051
1082.90 0.05097
1083.00 0.05094
1083.10 0.05092
1083.20 0.05089
1083.30 0.05087
1083.40 0.05084
1083.50 0.05082
1083.60 0.05079
1083.70 0.05076
1083.80 0.05074
1083.90 0.05071
1084.00 0.05068
1084.10 0.05065
1084.20 0.05063
1084.30 0.0506
1084.40 0.05057
1084.50 0.05055
1084.60 0.05052
1084.70 0.05049
1084.80 0.05046
1084.90 0.05043
1085.00 0.0504
1085.10 0.05037
1085.20 0.05034
1085.30 0.05031
1085.40 0.05028
1085.50 0.05025
1085.60 0.05022
1085.70 0.05019
1085.80 0.05016
1085.90 0.05013
1086.00 0.0501
1086.10 0.05007
1086.20 0.05004
1086.30 0.05001
1086.40 0.04998
1086.50 0.04995
1086.60 0.04992
1086.70 0.04989
1086.80 0.04986
1086.90 0.04982
1087.00 0.04979
1087.10 0.04976
1087.20 0.04972
1087.30 0.04969
1087.40 0.04965
1087.50 0.04962
1087.60 0.04958
1087.70 0.04955
1087.80 0.04951
1087.90 0.04948
1088.00 0.04944
1088.10 0.04941
1088.20 0.04938
1088.30 0.04934
1088.40 0.04931
1088.50 0.04927
1088.60 0.04923
1088.70 0.04919
1088.80 0.04915
1088.90 0.04912
1089.00 0.04908
1089.10 0.04904
1089.20 0.049
1089.30 0.04896
1089.40 0.04892
1089.50 0.04888
1089.60 0.04885
1089.70 0.04881
1089.80 0.04877
1089.90 0.04873
1090.00 0.04869
1090.10 0.04865
1090.20 0.04861
1090.30 0.04858
1090.40 0.04854
1090.50 0.0485
1090.60 0.04846
1090.70 0.04842
1090.80 0.04838
1090.90 0.04834
1091.00 0.04831
1091.10 0.04827
1091.20 0.04823
1091.30 0.04819
1091.40 0.04815
1091.50 0.04811
1091.60 0.04807
1091.70 0.04804
1091.80 0.048
1091.90 0.04796
1092.00 0.04792
1092.10 0.04789
1092.20 0.04786
1092.30 0.04783
1092.40 0.04779
1092.50 0.04776
1092.60 0.04773
1092.70 0.0477
1092.80 0.04768
1092.90 0.04765
1093.00 0.04763
1093.10 0.04761
1093.20 0.04759
1093.30 0.04757
1093.40 0.04755
1093.50 0.04754
1093.60 0.04755
1093.70 0.04757
1093.80 0.04758
1093.90 0.04758
1094.00 0.04753
1094.10 0.04748
1094.20 0.04744
1094.30 0.0474
1094.40 0.04739
1094.50 0.04738
1094.60 0.04737
1094.70 0.04736
1094.80 0.04735
1094.90 0.04734
1095.00 0.04733
1095.10 0.04733
1095.20 0.04734
1095.30 0.04734
1095.40 0.04734
1095.50 0.04734
1095.60 0.04734
1095.70 0.04735
1095.80 0.04735
1095.90 0.04735
1096.00 0.04735
1096.10 0.04735
1096.20 0.04735
1096.30 0.04736
1096.40 0.04736
1096.50 0.04736
1096.60 0.04737
1096.70 0.04737
1096.80 0.04738
1096.90 0.04738
1097.00 0.04739
1097.10 0.04739
1097.20 0.0474
1097.30 0.0474
1097.40 0.04741
1097.50 0.04741
1097.60 0.04742
1097.70 0.04742
1097.80 0.04743
1097.90 0.04743
1098.00 0.04744
1098.10 0.04744
1098.20 0.04745
1098.30 0.04745
1098.40 0.04746
1098.50 0.04746
1098.60 0.04746
1098.70 0.04746
1098.80 0.04746
1098.90 0.04746
1099.00 0.04746
1099.10 0.04746
1099.20 0.04747
1099.30 0.04747
1099.40 0.04747
1099.50 0.04747
1099.60 0.04747
1099.70 0.04747
1099.80 0.04747
1099.90 0.04747
1100.00 0.04747
1100.10 0.04747
1100.20 0.04747
1100.30 0.04747
1100.40 0.04747
1100.50 0.04747
1100.60 0.04747
1100.70 0.04746
1100.80 0.04746
1100.90 0.04746
1101.00 0.04745
1101.10 0.04745
1101.20 0.04745
1101.30 0.04744
1101.40 0.04744
1101.50 0.04743
1101.60 0.04743
1101.70 0.04743
1101.80 0.04742
1101.90 0.04742
1102.00 0.04741
1102.10 0.04741
1102.20 0.0474
1102.30 0.0474
1102.40 0.04739
1102.50 0.04738
1102.60 0.04738
1102.70 0.04737
1102.80 0.04736
1102.90 0.04735
1103.00 0.04735
1103.10 0.04734
1103.20 0.04733
1103.30 0.04732
1103.40 0.04732
1103.50 0.04731
1103.60 0.0473
1103.70 0.04729
1103.80 0.04728
1103.90 0.04727
1104.00 0.04726
1104.10 0.04725
1104.20 0.04724
1104.30 0.04723
1104.40 0.04722
1104.50 0.04721
1104.60 0.0472
1104.70 0.04719
1104.80 0.04718
1104.90 0.04717
1105.00 0.04716
1105.10 0.04715
1105.20 0.04714
1105.30 0.04713
1105.40 0.04712
1105.50 0.04711
1105.60 0.0471
1105.70 0.04709
1105.80 0.04708
1105.90 0.04707
1106.00 0.04706
1106.10 0.04704
1106.20 0.04703
1106.30 0.04702
1106.40 0.04701
1106.50 0.047
1106.60 0.04699
1106.70 0.04697
1106.80 0.04696
1106.90 0.04695
1107.00 0.04694
1107.10 0.04693
1107.20 0.04691
1107.30 0.0469
1107.40 0.04689
1107.50 0.04688
1107.60 0.04686
1107.70 0.04685
1107.80 0.04684
1107.90 0.04682
1108.00 0.04681
1108.10 0.0468
1108.20 0.04678
1108.30 0.04677
1108.40 0.04676
1108.50 0.04675
1108.60 0.04673
1108.70 0.04672
1108.80 0.04671
1108.90 0.04669
1109.00 0.04668
1109.10 0.04667
1109.20 0.04665
1109.30 0.04664
1109.40 0.04663
1109.50 0.04661
1109.60 0.0466
1109.70 0.04658
1109.80 0.04657
1109.90 0.04656
1110.00 0.04654
1110.10 0.04653
1110.20 0.04651
1110.30 0.0465
1110.40 0.04649
1110.50 0.04647
1110.60 0.04646
1110.70 0.04644
1110.80 0.04643
1110.90 0.04642
1111.00 0.0464
1111.10 0.04639
1111.20 0.04637
1111.30 0.04636
1111.40 0.04634
1111.50 0.04633
1111.60 0.04632
1111.70 0.0463
1111.80 0.04629
1111.90 0.04627
1112.00 0.04626
1112.10 0.04625
1112.20 0.04623
1112.30 0.04622
1112.40 0.0462
1112.50 0.04619
1112.60 0.04617
1112.70 0.04616
1112.80 0.04614
1112.90 0.04613
1113.00 0.04611
1113.10 0.0461
1113.20 0.04608
1113.30 0.04607
1113.40 0.04606
1113.50 0.04604
1113.60 0.04603
1113.70 0.04601
1113.80 0.046
1113.90 0.04598
1114.00 0.04597
1114.10 0.04595
1114.20 0.04594
1114.30 0.04592
1114.40 0.04591
1114.50 0.04589
1114.60 0.04588
1114.70 0.04586
1114.80 0.04585
1114.90 0.04583
1115.00 0.04582
1115.10 0.0458
1115.20 0.04579
1115.30 0.04577
1115.40 0.04576
1115.50 0.04574
1115.60 0.04573
1115.70 0.04571
1115.80 0.0457
1115.90 0.04568
1116.00 0.04567
1116.10 0.04565
1116.20 0.04564
1116.30 0.04562
1116.40 0.04561
1116.50 0.04559
1116.60 0.04558
1116.70 0.04556
1116.80 0.04555
1116.90 0.04553
1117.00 0.04552
1117.10 0.0455
1117.20 0.04549
1117.30 0.04547
1117.40 0.04546
1117.50 0.04544
1117.60 0.04543
1117.70 0.04541
1117.80 0.0454
1117.90 0.04538
1118.00 0.04537
1118.10 0.04535
1118.20 0.04533
1118.30 0.04532
1118.40 0.0453
1118.50 0.04529
1118.60 0.04527
1118.70 0.04526
1118.80 0.04524
1118.90 0.04523
1119.00 0.04521
1119.10 0.0452
1119.20 0.04518
1119.30 0.04517
1119.40 0.04515
1119.50 0.04514
1119.60 0.04512
1119.70 0.04511
1119.80 0.04509
1119.90 0.04508
1120.00 0.04506
1120.10 0.04505
1120.20 0.04503
1120.30 0.04502
1120.40 0.045
1120.50 0.04499
1120.60 0.04497
1120.70 0.04496
1120.80 0.04494
1120.90 0.04493
1121.00 0.04491
1121.10 0.0449
1121.20 0.04488
1121.30 0.04487
1121.40 0.04485
1121.50 0.04484
1121.60 0.04482
1121.70 0.04481
1121.80 0.04479
1121.90 0.04478
1122.00 0.04476
1122.10 0.04475
1122.20 0.04473
1122.30 0.04471
1122.40 0.0447
1122.50 0.04468
1122.60 0.04467
1122.70 0.04465
1122.80 0.04464
1122.90 0.04462
1123.00 0.04461
1123.10 0.04459
1123.20 0.04458
1123.30 0.04456
1123.40 0.04455
1123.50 0.04453
1123.60 0.04452
1123.70 0.0445
1123.80 0.04449
1123.90 0.04447
1124.00 0.04446
1124.10 0.04444
1124.20 0.04443
1124.30 0.04441
1124.40 0.0444
1124.50 0.04438
1124.60 0.04437
1124.70 0.04435
1124.80 0.04434
1124.90 0.04432
1125.00 0.04431
1125.10 0.04429
1125.20 0.04428
1125.30 0.04426
1125.40 0.04425
1125.50 0.04423
1125.60 0.04422
1125.70 0.0442
1125.80 0.04419
1125.90 0.04417
1126.00 0.04416
1126.10 0.04414
1126.20 0.04413
1126.30 0.04411
1126.40 0.0441
1126.50 0.04408
1126.60 0.04407
1126.70 0.04405
1126.80 0.04404
1126.90 0.04402
1127.00 0.04401
1127.10 0.04399
1127.20 0.04398
1127.30 0.04396
1127.40 0.04395
1127.50 0.04393
1127.60 0.04392
1127.70 0.0439
1127.80 0.04389
1127.90 0.04387
1128.00 0.04386
1128.10 0.04384
1128.20 0.04383
1128.30 0.04381
1128.40 0.0438
1128.50 0.04378
1128.60 0.04377
1128.70 0.04375
1128.80 0.04374
1128.90 0.04372
1129.00 0.04371
1129.10 0.04369
1129.20 0.04368
1129.30 0.04366
1129.40 0.04365
1129.50 0.04363
1129.60 0.04362
1129.70 0.0436
1129.80 0.04359
1129.90 0.04357
1130.00 0.04356
1130.10 0.04354
1130.20 0.04353
1130.30 0.04351
1130.40 0.0435
1130.50 0.04348
1130.60 0.04347
1130.70 0.04345
1130.80 0.04344
1130.90 0.04342
1131.00 0.04341
1131.10 0.04339
1131.20 0.04338
1131.30 0.04336
1131.40 0.04335
1131.50 0.04333
1131.60 0.04332
1131.70 0.04331
1131.80 0.04329
1131.90 0.04328
1132.00 0.04326
1132.10 0.04325
1132.20 0.04323
1132.30 0.04322
1132.40 0.0432
1132.50 0.04319
1132.60 0.04317
1132.70 0.04316
1132.80 0.04314
1132.90 0.04313
1133.00 0.04311
1133.10 0.0431
1133.20 0.04308
1133.30 0.04307
1133.40 0.04305
1133.50 0.04304
1133.60 0.04303
1133.70 0.04301
1133.80 0.043
1133.90 0.04298
1134.00 0.04297
1134.10 0.04295
1134.20 0.04294
1134.30 0.04292
1134.40 0.04291
1134.50 0.04289
1134.60 0.04288
1134.70 0.04286
1134.80 0.04285
1134.90 0.04283
1135.00 0.04282
1135.10 0.04281
1135.20 0.04279
1135.30 0.04278
1135.40 0.04276
1135.50 0.04275
1135.60 0.04273
1135.70 0.04272
1135.80 0.0427
1135.90 0.04269
1136.00 0.04267
1136.10 0.04266
1136.20 0.04265
1136.30 0.04263
1136.40 0.04262
1136.50 0.0426
1136.60 0.04259
1136.70 0.04257
1136.80 0.04256
1136.90 0.04254
1137.00 0.04253
1137.10 0.04251
1137.20 0.0425
1137.30 0.04249
1137.40 0.04247
1137.50 0.04246
1137.60 0.04244
1137.70 0.04243
1137.80 0.04241
1137.90 0.0424
1138.00 0.04238
1138.10 0.04237
1138.20 0.04236
1138.30 0.04234
1138.40 0.04233
1138.50 0.04231
1138.60 0.0423
1138.70 0.04228
1138.80 0.04227
1138.90 0.04225
1139.00 0.04224
1139.10 0.04223
1139.20 0.04221
1139.30 0.0422
1139.40 0.04218
1139.50 0.04217
1139.60 0.04215
1139.70 0.04214
1139.80 0.04212
1139.90 0.04211
1140.00 0.0421
1140.10 0.04208
1140.20 0.04207
1140.30 0.04205
1140.40 0.04204
1140.50 0.04202
1140.60 0.04201
1140.70 0.042
1140.80 0.04198
1140.90 0.04197
1141.00 0.04195
1141.10 0.04194
1141.20 0.04192
1141.30 0.04191
1141.40 0.0419
1141.50 0.04188
1141.60 0.04187
1141.70 0.04185
1141.80 0.04184
1141.90 0.04182
1142.00 0.04181
1142.10 0.0418
1142.20 0.04178
1142.30 0.04177
1142.40 0.04175
1142.50 0.04174
1142.60 0.04172
1142.70 0.04171
1142.80 0.0417
1142.90 0.04168
1143.00 0.04167
1143.10 0.04165
1143.20 0.04164
1143.30 0.04163
1143.40 0.04161
1143.50 0.0416
1143.60 0.04158
1143.70 0.04157
1143.80 0.04156
1143.90 0.04154
1144.00 0.04153
1144.10 0.04151
1144.20 0.0415
1144.30 0.04148
1144.40 0.04147
1144.50 0.04146
1144.60 0.04144
1144.70 0.04143
1144.80 0.04141
1144.90 0.0414
1145.00 0.04139
1145.10 0.04137
1145.20 0.04136
1145.30 0.04134
1145.40 0.04133
1145.50 0.04132
1145.60 0.0413
1145.70 0.04129
1145.80 0.04127
1145.90 0.04126
1146.00 0.04125
1146.10 0.04123
1146.20 0.04122
1146.30 0.0412
1146.40 0.04119
1146.50 0.04118
1146.60 0.04116
1146.70 0.04115
1146.80 0.04113
1146.90 0.04112
1147.00 0.04111
1147.10 0.04109
1147.20 0.04108
1147.30 0.04106
1147.40 0.04105
1147.50 0.04104
1147.60 0.04102
1147.70 0.04101
1147.80 0.04099
1147.90 0.04098
1148.00 0.04097
1148.10 0.04095
1148.20 0.04094
1148.30 0.04092
1148.40 0.04091
1148.50 0.0409
1148.60 0.04088
1148.70 0.04087
1148.80 0.04086
1148.90 0.04084
1149.00 0.04083
1149.10 0.04081
1149.20 0.0408
1149.30 0.04079
1149.40 0.04077
1149.50 0.04076
1149.60 0.04075
1149.70 0.04073
1149.80 0.04072
1149.90 0.0407
1150.00 0.04069
1150.10 0.04068
1150.20 0.04066
1150.30 0.04065
1150.40 0.04063
1150.50 0.04062
1150.60 0.04061
1150.70 0.04059
1150.80 0.04058
1150.90 0.04057
1151.00 0.04055
1151.10 0.04054
1151.20 0.04052
1151.30 0.04051
1151.40 0.0405
1151.50 0.04048
1151.60 0.04047
1151.70 0.04046
1151.80 0.04044
1151.90 0.04043
1152.00 0.04042
1152.10 0.0404
1152.20 0.04039
1152.30 0.04037
1152.40 0.04036
1152.50 0.04035
1152.60 0.04033
1152.70 0.04032
1152.80 0.04031
1152.90 0.04029
1153.00 0.04028
1153.10 0.04027
1153.20 0.04025
1153.30 0.04024
1153.40 0.04022
1153.50 0.04021
1153.60 0.0402
1153.70 0.04018
1153.80 0.04017
1153.90 0.04016
1154.00 0.04014
1154.10 0.04013
1154.20 0.04012
1154.30 0.0401
1154.40 0.04009
1154.50 0.04008
1154.60 0.04006
1154.70 0.04005
1154.80 0.04003
1154.90 0.04002
1155.00 0.04001
1155.10 0.03999
1155.20 0.03998
1155.30 0.03997
1155.40 0.03995
1155.50 0.03994
1155.60 0.03993
1155.70 0.03991
1155.80 0.0399
1155.90 0.03989
1156.00 0.03987
1156.10 0.03986
1156.20 0.03985
1156.30 0.03983
1156.40 0.03982
1156.50 0.03981
1156.60 0.03979
1156.70 0.03978
1156.80 0.03977
1156.90 0.03975
1157.00 0.03974
1157.10 0.03973
1157.20 0.03971
1157.30 0.0397
1157.40 0.03969
1157.50 0.03967
1157.60 0.03966
1157.70 0.03965
1157.80 0.03963
1157.90 0.03962
1158.00 0.03961
1158.10 0.03959
1158.20 0.03958
1158.30 0.03957
1158.40 0.03955
1158.50 0.03954
1158.60 0.03953
1158.70 0.03951
1158.80 0.0395
1158.90 0.03949
1159.00 0.03947
1159.10 0.03946
1159.20 0.03945
1159.30 0.03943
1159.40 0.03942
1159.50 0.03941
1159.60 0.03939
1159.70 0.03938
1159.80 0.03937
1159.90 0.03935
1160.00 0.03934
1160.10 0.03933
1160.20 0.03931
1160.30 0.0393
1160.40 0.03929
1160.50 0.03927
1160.60 0.03926
1160.70 0.03925
1160.80 0.03923
1160.90 0.03922
1161.00 0.03921
1161.10 0.03919
1161.20 0.03918
1161.30 0.03917
1161.40 0.03915
1161.50 0.03914
1161.60 0.03913
1161.70 0.03912
1161.80 0.0391
1161.90 0.03909
1162.00 0.03908
1162.10 0.03906
1162.20 0.03905
1162.30 0.03904
1162.40 0.03902
1162.50 0.03901
1162.60 0.039
1162.70 0.03898
1162.80 0.03897
1162.90 0.03896
1163.00 0.03895
1163.10 0.03893
1163.20 0.03892
1163.30 0.03891
1163.40 0.03889
1163.50 0.03888
1163.60 0.03887
1163.70 0.03885
1163.80 0.03884
1163.90 0.03883
1164.00 0.03881
1164.10 0.0388
1164.20 0.03879
1164.30 0.03878
1164.40 0.03876
1164.50 0.03875
1164.60 0.03874
1164.70 0.03872
1164.80 0.03871
1164.90 0.0387
1165.00 0.03868
1165.10 0.03867
1165.20 0.03866
1165.30 0.03865
1165.40 0.03863
1165.50 0.03862
1165.60 0.03861
1165.70 0.03859
1165.80 0.03858
1165.90 0.03857
1166.00 0.03856
1166.10 0.03854
1166.20 0.03853
1166.30 0.03852
1166.40 0.0385
1166.50 0.03849
1166.60 0.03848
1166.70 0.03847
1166.80 0.03845
1166.90 0.03844
1167.00 0.03843
1167.10 0.03841
1167.20 0.0384
1167.30 0.03839
1167.40 0.03838
1167.50 0.03836
1167.60 0.03835
1167.70 0.03834
1167.80 0.03832
1167.90 0.03831
1168.00 0.0383
1168.10 0.03829
1168.20 0.03827
1168.30 0.03826
1168.40 0.03825
1168.50 0.03823
1168.60 0.03822
1168.70 0.03821
1168.80 0.0382
1168.90 0.03818
1169.00 0.03817
1169.10 0.03816
1169.20 0.03815
1169.30 0.03813
1169.40 0.03812
1169.50 0.03811
1169.60 0.03809
1169.70 0.03808
1169.80 0.03807
1169.90 0.03806
1170.00 0.03804
1170.10 0.03803
1170.20 0.03802
1170.30 0.03801
1170.40 0.03799
1170.50 0.03798
1170.60 0.03797
1170.70 0.03796
1170.80 0.03794
1170.90 0.03793
1171.00 0.03792
1171.10 0.0379
1171.20 0.03789
1171.30 0.03788
1171.40 0.03787
1171.50 0.03785
1171.60 0.03784
1171.70 0.03783
1171.80 0.03782
1171.90 0.0378
1172.00 0.03779
1172.10 0.03778
1172.20 0.03777
1172.30 0.03775
1172.40 0.03774
1172.50 0.03773
1172.60 0.03772
1172.70 0.0377
1172.80 0.03769
1172.90 0.03768
1173.00 0.03767
1173.10 0.03765
1173.20 0.03764
1173.30 0.03763
1173.40 0.03762
1173.50 0.0376
1173.60 0.03759
1173.70 0.03758
1173.80 0.03757
1173.90 0.03755
1174.00 0.03754
1174.10 0.03753
1174.20 0.03752
1174.30 0.0375
1174.40 0.03749
1174.50 0.03748
1174.60 0.03747
1174.70 0.03745
1174.80 0.03744
1174.90 0.03743
1175.00 0.03742
1175.10 0.0374
1175.20 0.03739
1175.30 0.03738
1175.40 0.03737
1175.50 0.03735
1175.60 0.03734
1175.70 0.03733
1175.80 0.03732
1175.90 0.0373
1176.00 0.03729
1176.10 0.03728
1176.20 0.03727
1176.30 0.03725
1176.40 0.03724
1176.50 0.03723
1176.60 0.03722
1176.70 0.03721
1176.80 0.03719
1176.90 0.03718
1177.00 0.03717
1177.10 0.03716
1177.20 0.03714
1177.30 0.03713
1177.40 0.03712
1177.50 0.03711
1177.60 0.03709
1177.70 0.03708
1177.80 0.03707
1177.90 0.03706
1178.00 0.03705
1178.10 0.03703
1178.20 0.03702
1178.30 0.03701
1178.40 0.037
1178.50 0.03698
1178.60 0.03697
1178.70 0.03696
1178.80 0.03695
1178.90 0.03693
1179.00 0.03692
1179.10 0.03691
1179.20 0.0369
1179.30 0.03689
1179.40 0.03687
1179.50 0.03686
1179.60 0.03685
1179.70 0.03684
1179.80 0.03683
1179.90 0.03681
1180.00 0.0368
1180.10 0.03679
1180.20 0.03678
1180.30 0.03676
1180.40 0.03675
1180.50 0.03674
1180.60 0.03673
1180.70 0.03672
1180.80 0.0367
1180.90 0.03669
1181.00 0.03668
1181.10 0.03667
1181.20 0.03665
1181.30 0.03664
1181.40 0.03663
1181.50 0.03662
1181.60 0.03661
1181.70 0.03659
1181.80 0.03658
1181.90 0.03657
1182.00 0.03656
1182.10 0.03655
1182.20 0.03653
1182.30 0.03652
1182.40 0.03651
1182.50 0.0365
1182.60 0.03649
1182.70 0.03647
1182.80 0.03646
1182.90 0.03645
1183.00 0.03644
1183.10 0.03643
1183.20 0.03641
1183.30 0.0364
1183.40 0.03639
1183.50 0.03638
1183.60 0.03637
1183.70 0.03635
1183.80 0.03634
1183.90 0.03633
1184.00 0.03632
1184.10 0.03631
1184.20 0.03629
1184.30 0.03628
1184.40 0.03627
1184.50 0.03626
1184.60 0.03625
1184.70 0.03623
1184.80 0.03622
1184.90 0.03621
1185.00 0.0362
1185.10 0.03619
1185.20 0.03617
1185.30 0.03616
1185.40 0.03615
1185.50 0.03614
1185.60 0.03613
1185.70 0.03611
1185.80 0.0361
1185.90 0.03609
1186.00 0.03608
1186.10 0.03607
1186.20 0.03605
1186.30 0.03604
1186.40 0.03603
1186.50 0.03602
1186.60 0.03601
1186.70 0.036
1186.80 0.03598
1186.90 0.03597
1187.00 0.03596
1187.10 0.03595
1187.20 0.03594
1187.30 0.03592
1187.40 0.03591
1187.50 0.0359
1187.60 0.03589
1187.70 0.03588
1187.80 0.03587
1187.90 0.03585
1188.00 0.03584
1188.10 0.03583
1188.20 0.03582
1188.30 0.03581
1188.40 0.0358
1188.50 0.03578
1188.60 0.03577
1188.70 0.03576
1188.80 0.03575
1188.90 0.03574
1189.00 0.03572
1189.10 0.03571
1189.20 0.0357
1189.30 0.03569
1189.40 0.03568
1189.50 0.03567
1189.60 0.03565
1189.70 0.03564
1189.80 0.03563
1189.90 0.03562
1190.00 0.03561
1190.10 0.0356
1190.20 0.03558
1190.30 0.03557
1190.40 0.03556
1190.50 0.03555
1190.60 0.03554
1190.70 0.03553
1190.80 0.03551
1190.90 0.0355
1191.00 0.03549
1191.10 0.03548
1191.20 0.03547
1191.30 0.03546
1191.40 0.03544
1191.50 0.03543
1191.60 0.03542
1191.70 0.03541
1191.80 0.0354
1191.90 0.03539
1192.00 0.03537
1192.10 0.03536
1192.20 0.03535
1192.30 0.03534
1192.40 0.03533
1192.50 0.03532
1192.60 0.0353
1192.70 0.03529
1192.80 0.03528
1192.90 0.03527
1193.00 0.03526
1193.10 0.03525
1193.20 0.03524
1193.30 0.03522
1193.40 0.03521
1193.50 0.0352
1193.60 0.03519
1193.70 0.03518
1193.80 0.03517
1193.90 0.03516
1194.00 0.03514
1194.10 0.03513
1194.20 0.03512
1194.30 0.03511
1194.40 0.0351
1194.50 0.03509
1194.60 0.03507
1194.70 0.03506
1194.80 0.03505
1194.90 0.03504
1195.00 0.03503
1195.10 0.03502
1195.20 0.03501
1195.30 0.03499
1195.40 0.03498
1195.50 0.03497
1195.60 0.03496
1195.70 0.03495
1195.80 0.03494
1195.90 0.03493
1196.00 0.03491
1196.10 0.0349
1196.20 0.03489
1196.30 0.03488
1196.40 0.03487
1196.50 0.03486
1196.60 0.03485
1196.70 0.03483
1196.80 0.03482
1196.90 0.03481
1197.00 0.0348
1197.10 0.03479
1197.20 0.03478
1197.30 0.03477
1197.40 0.03476
1197.50 0.03474
1197.60 0.03473
1197.70 0.03472
1197.80 0.03471
1197.90 0.0347
1198.00 0.03469
1198.10 0.03468
1198.20 0.03466
1198.30 0.03465
1198.40 0.03464
1198.50 0.03463
1198.60 0.03462
1198.70 0.03461
1198.80 0.0346
1198.90 0.03459
1199.00 0.03457
1199.10 0.03456
1199.20 0.03455
1199.30 0.03454
1199.40 0.03453
1199.50 0.03452
1199.60 0.03451
1199.70 0.0345
1199.80 0.03448
1199.90 0.03447
1200.00 0
