# Version 2.1 - nm, norm@500 to 1, cut digits, bergeron_2750_65.dat_2750
# Wavelength(nm)  Flambda(ergs/cm^s/s/nm)
300.00 0.04171
300.10 0.04185
300.20 0.042
300.30 0.04214
300.40 0.04229
300.50 0.04243
300.60 0.04258
300.70 0.04272
300.80 0.04286
300.90 0.04301
301.00 0.04315
301.10 0.0433
301.20 0.04344
301.30 0.04358
301.40 0.04373
301.50 0.04387
301.60 0.04401
301.70 0.04415
301.80 0.0443
301.90 0.04444
302.00 0.04458
302.10 0.04473
302.20 0.04488
302.30 0.04503
302.40 0.04519
302.50 0.04534
302.60 0.04549
302.70 0.04564
302.80 0.04579
302.90 0.04594
303.00 0.04609
303.10 0.04624
303.20 0.04639
303.30 0.04654
303.40 0.04669
303.50 0.04684
303.60 0.04699
303.70 0.04714
303.80 0.04729
303.90 0.04744
304.00 0.04759
304.10 0.04775
304.20 0.04791
304.30 0.04806
304.40 0.04822
304.50 0.04838
304.60 0.04854
304.70 0.0487
304.80 0.04886
304.90 0.04901
305.00 0.04917
305.10 0.04933
305.20 0.04949
305.30 0.04964
305.40 0.0498
305.50 0.04996
305.60 0.05011
305.70 0.05027
305.80 0.05043
305.90 0.05058
306.00 0.05074
306.10 0.05091
306.20 0.05107
306.30 0.05124
306.40 0.0514
306.50 0.05157
306.60 0.05173
306.70 0.0519
306.80 0.05206
306.90 0.05223
307.00 0.05239
307.10 0.05256
307.20 0.05272
307.30 0.05289
307.40 0.05305
307.50 0.05321
307.60 0.05338
307.70 0.05354
307.80 0.0537
307.90 0.05387
308.00 0.05404
308.10 0.05421
308.20 0.05438
308.30 0.05455
308.40 0.05472
308.50 0.0549
308.60 0.05507
308.70 0.05524
308.80 0.05541
308.90 0.05559
309.00 0.05576
309.10 0.05593
309.20 0.0561
309.30 0.05627
309.40 0.05644
309.50 0.05662
309.60 0.05679
309.70 0.05696
309.80 0.05713
309.90 0.0573
310.00 0.05747
310.10 0.05765
310.20 0.05783
310.30 0.05801
310.40 0.05819
310.50 0.05837
310.60 0.05856
310.70 0.05874
310.80 0.05892
310.90 0.0591
311.00 0.05928
311.10 0.05946
311.20 0.05964
311.30 0.05981
311.40 0.05999
311.50 0.06017
311.60 0.06035
311.70 0.06053
311.80 0.06071
311.90 0.06089
312.00 0.06106
312.10 0.06124
312.20 0.06142
312.30 0.06161
312.40 0.0618
312.50 0.06198
312.60 0.06217
312.70 0.06236
312.80 0.06255
312.90 0.06274
313.00 0.06292
313.10 0.06311
313.20 0.0633
313.30 0.06349
313.40 0.06367
313.50 0.06386
313.60 0.06404
313.70 0.06423
313.80 0.06442
313.90 0.0646
314.00 0.06479
314.10 0.06498
314.20 0.06518
314.30 0.06538
314.40 0.06557
314.50 0.06577
314.60 0.06596
314.70 0.06616
314.80 0.06635
314.90 0.06655
315.00 0.06674
315.10 0.06694
315.20 0.06713
315.30 0.06733
315.40 0.06752
315.50 0.06771
315.60 0.06791
315.70 0.0681
315.80 0.06829
315.90 0.06849
316.00 0.06868
316.10 0.06888
316.20 0.06908
316.30 0.06929
316.40 0.06949
316.50 0.0697
316.60 0.0699
316.70 0.0701
316.80 0.0703
316.90 0.07051
317.00 0.07071
317.10 0.07091
317.20 0.07111
317.30 0.07131
317.40 0.07152
317.50 0.07172
317.60 0.07192
317.70 0.07212
317.80 0.07232
317.90 0.07252
318.00 0.07273
318.10 0.07293
318.20 0.07314
318.30 0.07335
318.40 0.07357
318.50 0.07378
318.60 0.07399
318.70 0.0742
318.80 0.07441
318.90 0.07462
319.00 0.07483
319.10 0.07504
319.20 0.07525
319.30 0.07546
319.40 0.07567
319.50 0.07588
319.60 0.07608
319.70 0.07629
319.80 0.0765
319.90 0.07671
320.00 0.07693
320.10 0.07714
320.20 0.07736
320.30 0.07758
320.40 0.0778
320.50 0.07802
320.60 0.07823
320.70 0.07845
320.80 0.07867
320.90 0.07889
321.00 0.07911
321.10 0.07933
321.20 0.07954
321.30 0.07976
321.40 0.07998
321.50 0.08019
321.60 0.08041
321.70 0.08063
321.80 0.08084
321.90 0.08106
322.00 0.08128
322.10 0.0815
322.20 0.08173
322.30 0.08196
322.40 0.08219
322.50 0.08241
322.60 0.08264
322.70 0.08287
322.80 0.08309
322.90 0.08332
323.00 0.08355
323.10 0.08377
323.20 0.084
323.30 0.08422
323.40 0.08445
323.50 0.08467
323.60 0.0849
323.70 0.08512
323.80 0.08535
323.90 0.08557
324.00 0.08579
324.10 0.08603
324.20 0.08626
324.30 0.0865
324.40 0.08674
324.50 0.08697
324.60 0.08721
324.70 0.08744
324.80 0.08768
324.90 0.08791
325.00 0.08815
325.10 0.08838
325.20 0.08861
325.30 0.08885
325.40 0.08908
325.50 0.08931
325.60 0.08954
325.70 0.08978
325.80 0.09001
325.90 0.09024
326.00 0.09048
326.10 0.09071
326.20 0.09096
326.30 0.0912
326.40 0.09145
326.50 0.09169
326.60 0.09194
326.70 0.09218
326.80 0.09242
326.90 0.09266
327.00 0.09291
327.10 0.09315
327.20 0.09339
327.30 0.09363
327.40 0.09387
327.50 0.09411
327.60 0.09435
327.70 0.09459
327.80 0.09483
327.90 0.09508
328.00 0.09532
328.10 0.09557
328.20 0.09582
328.30 0.09607
328.40 0.09632
328.50 0.09658
328.60 0.09683
328.70 0.09708
328.80 0.09733
328.90 0.09758
329.00 0.09783
329.10 0.09808
329.20 0.09833
329.30 0.09858
329.40 0.09883
329.50 0.09908
329.60 0.09933
329.70 0.09958
329.80 0.09982
329.90 0.1001
330.00 0.1003
330.10 0.1006
330.20 0.1008
330.30 0.1011
330.40 0.1014
330.50 0.1016
330.60 0.1019
330.70 0.1021
330.80 0.1024
330.90 0.1027
331.00 0.1029
331.10 0.1032
331.20 0.1034
331.30 0.1037
331.40 0.104
331.50 0.1042
331.60 0.1045
331.70 0.1047
331.80 0.105
331.90 0.1052
332.00 0.1055
332.10 0.1058
332.20 0.106
332.30 0.1063
332.40 0.1066
332.50 0.1068
332.60 0.1071
332.70 0.1074
332.80 0.1076
332.90 0.1079
333.00 0.1082
333.10 0.1084
333.20 0.1087
333.30 0.109
333.40 0.1092
333.50 0.1095
333.60 0.1098
333.70 0.11
333.80 0.1103
333.90 0.1106
334.00 0.1108
334.10 0.1111
334.20 0.1114
334.30 0.1117
334.40 0.1119
334.50 0.1122
334.60 0.1125
334.70 0.1128
334.80 0.1131
334.90 0.1133
335.00 0.1136
335.10 0.1139
335.20 0.1142
335.30 0.1144
335.40 0.1147
335.50 0.115
335.60 0.1152
335.70 0.1155
335.80 0.1158
335.90 0.1161
336.00 0.1163
336.10 0.1166
336.20 0.1169
336.30 0.1172
336.40 0.1175
336.50 0.1178
336.60 0.1181
336.70 0.1183
336.80 0.1186
336.90 0.1189
337.00 0.1192
337.10 0.1195
337.20 0.1198
337.30 0.12
337.40 0.1203
337.50 0.1206
337.60 0.1209
337.70 0.1212
337.80 0.1215
337.90 0.1217
338.00 0.122
338.10 0.1223
338.20 0.1226
338.30 0.1229
338.40 0.1232
338.50 0.1235
338.60 0.1238
338.70 0.1241
338.80 0.1244
338.90 0.1247
339.00 0.125
339.10 0.1252
339.20 0.1255
339.30 0.1258
339.40 0.1261
339.50 0.1264
339.60 0.1267
339.70 0.127
339.80 0.1273
339.90 0.1276
340.00 0.1279
340.10 0.1282
340.20 0.1285
340.30 0.1288
340.40 0.1291
340.50 0.1294
340.60 0.1297
340.70 0.13
340.80 0.1303
340.90 0.1306
341.00 0.1309
341.10 0.1312
341.20 0.1315
341.30 0.1318
341.40 0.1321
341.50 0.1324
341.60 0.1327
341.70 0.133
341.80 0.1333
341.90 0.1336
342.00 0.1339
342.10 0.1342
342.20 0.1345
342.30 0.1348
342.40 0.1351
342.50 0.1354
342.60 0.1357
342.70 0.1361
342.80 0.1364
342.90 0.1367
343.00 0.137
343.10 0.1373
343.20 0.1376
343.30 0.1379
343.40 0.1382
343.50 0.1385
343.60 0.1388
343.70 0.1391
343.80 0.1394
343.90 0.1397
344.00 0.1401
344.10 0.1404
344.20 0.1407
344.30 0.141
344.40 0.1413
344.50 0.1417
344.60 0.142
344.70 0.1423
344.80 0.1426
344.90 0.1429
345.00 0.1432
345.10 0.1436
345.20 0.1439
345.30 0.1442
345.40 0.1445
345.50 0.1448
345.60 0.1451
345.70 0.1455
345.80 0.1458
345.90 0.1461
346.00 0.1464
346.10 0.1467
346.20 0.1471
346.30 0.1474
346.40 0.1477
346.50 0.148
346.60 0.1484
346.70 0.1487
346.80 0.149
346.90 0.1494
347.00 0.1497
347.10 0.15
347.20 0.1503
347.30 0.1507
347.40 0.151
347.50 0.1513
347.60 0.1516
347.70 0.152
347.80 0.1523
347.90 0.1526
348.00 0.1529
348.10 0.1533
348.20 0.1536
348.30 0.1539
348.40 0.1543
348.50 0.1546
348.60 0.1549
348.70 0.1553
348.80 0.1556
348.90 0.156
349.00 0.1563
349.10 0.1566
349.20 0.157
349.30 0.1573
349.40 0.1576
349.50 0.158
349.60 0.1583
349.70 0.1586
349.80 0.159
349.90 0.1593
350.00 0.1596
350.10 0.16
350.20 0.1603
350.30 0.1607
350.40 0.161
350.50 0.1613
350.60 0.1617
350.70 0.162
350.80 0.1624
350.90 0.1627
351.00 0.1631
351.10 0.1634
351.20 0.1638
351.30 0.1641
351.40 0.1644
351.50 0.1648
351.60 0.1651
351.70 0.1655
351.80 0.1658
351.90 0.1661
352.00 0.1665
352.10 0.1668
352.20 0.1672
352.30 0.1675
352.40 0.1679
352.50 0.1682
352.60 0.1686
352.70 0.169
352.80 0.1693
352.90 0.1697
353.00 0.17
353.10 0.1704
353.20 0.1707
353.30 0.1711
353.40 0.1714
353.50 0.1718
353.60 0.1721
353.70 0.1725
353.80 0.1728
353.90 0.1732
354.00 0.1735
354.10 0.1739
354.20 0.1742
354.30 0.1746
354.40 0.175
354.50 0.1753
354.60 0.1757
354.70 0.176
354.80 0.1764
354.90 0.1768
355.00 0.1771
355.10 0.1775
355.20 0.1778
355.30 0.1782
355.40 0.1786
355.50 0.1789
355.60 0.1793
355.70 0.1796
355.80 0.18
355.90 0.1803
356.00 0.1807
356.10 0.1811
356.20 0.1814
356.30 0.1818
356.40 0.1822
356.50 0.1826
356.60 0.1829
356.70 0.1833
356.80 0.1837
356.90 0.184
357.00 0.1844
357.10 0.1848
357.20 0.1851
357.30 0.1855
357.40 0.1859
357.50 0.1862
357.60 0.1866
357.70 0.187
357.80 0.1873
357.90 0.1877
358.00 0.1881
358.10 0.1884
358.20 0.1888
358.30 0.1892
358.40 0.1896
358.50 0.19
358.60 0.1903
358.70 0.1907
358.80 0.1911
358.90 0.1915
359.00 0.1918
359.10 0.1922
359.20 0.1926
359.30 0.193
359.40 0.1933
359.50 0.1937
359.60 0.1941
359.70 0.1945
359.80 0.1948
359.90 0.1952
360.00 0.1956
360.10 0.196
360.20 0.1964
360.30 0.1968
360.40 0.1971
360.50 0.1975
360.60 0.1979
360.70 0.1983
360.80 0.1987
360.90 0.1991
361.00 0.1995
361.10 0.1998
361.20 0.2002
361.30 0.2006
361.40 0.201
361.50 0.2014
361.60 0.2018
361.70 0.2021
361.80 0.2025
361.90 0.2029
362.00 0.2033
362.10 0.2037
362.20 0.2041
362.30 0.2045
362.40 0.2049
362.50 0.2052
362.60 0.2056
362.70 0.206
362.80 0.2064
362.90 0.2068
363.00 0.2072
363.10 0.2076
363.20 0.208
363.30 0.2084
363.40 0.2088
363.50 0.2092
363.60 0.2096
363.70 0.21
363.80 0.2104
363.90 0.2108
364.00 0.2112
364.10 0.2116
364.20 0.212
364.30 0.2123
364.40 0.2127
364.50 0.2131
364.60 0.2135
364.70 0.2139
364.80 0.2144
364.90 0.2148
365.00 0.2152
365.10 0.2156
365.20 0.216
365.30 0.2164
365.40 0.2168
365.50 0.2172
365.60 0.2176
365.70 0.218
365.80 0.2184
365.90 0.2188
366.00 0.2192
366.10 0.2196
366.20 0.22
366.30 0.2204
366.40 0.2208
366.50 0.2212
366.60 0.2216
366.70 0.2221
366.80 0.2225
366.90 0.2229
367.00 0.2233
367.10 0.2237
367.20 0.2241
367.30 0.2245
367.40 0.2249
367.50 0.2253
367.60 0.2257
367.70 0.2261
367.80 0.2265
367.90 0.227
368.00 0.2274
368.10 0.2278
368.20 0.2282
368.30 0.2286
368.40 0.229
368.50 0.2295
368.60 0.2299
368.70 0.2303
368.80 0.2307
368.90 0.2311
369.00 0.2316
369.10 0.232
369.20 0.2324
369.30 0.2328
369.40 0.2332
369.50 0.2336
369.60 0.234
369.70 0.2345
369.80 0.2349
369.90 0.2353
370.00 0.2357
370.10 0.2361
370.20 0.2366
370.30 0.237
370.40 0.2374
370.50 0.2378
370.60 0.2383
370.70 0.2387
370.80 0.2391
370.90 0.2396
371.00 0.24
371.10 0.2404
371.20 0.2408
371.30 0.2412
371.40 0.2417
371.50 0.2421
371.60 0.2425
371.70 0.2429
371.80 0.2434
371.90 0.2438
372.00 0.2442
372.10 0.2446
372.20 0.2451
372.30 0.2455
372.40 0.246
372.50 0.2464
372.60 0.2468
372.70 0.2473
372.80 0.2477
372.90 0.2481
373.00 0.2486
373.10 0.249
373.20 0.2494
373.30 0.2499
373.40 0.2503
373.50 0.2507
373.60 0.2512
373.70 0.2516
373.80 0.252
373.90 0.2524
374.00 0.2529
374.10 0.2533
374.20 0.2538
374.30 0.2542
374.40 0.2546
374.50 0.2551
374.60 0.2555
374.70 0.256
374.80 0.2564
374.90 0.2569
375.00 0.2573
375.10 0.2577
375.20 0.2582
375.30 0.2586
375.40 0.2591
375.50 0.2595
375.60 0.2599
375.70 0.2604
375.80 0.2608
375.90 0.2612
376.00 0.2617
376.10 0.2621
376.20 0.2626
376.30 0.263
376.40 0.2635
376.50 0.2639
376.60 0.2644
376.70 0.2648
376.80 0.2653
376.90 0.2657
377.00 0.2662
377.10 0.2666
377.20 0.2671
377.30 0.2675
377.40 0.268
377.50 0.2684
377.60 0.2689
377.70 0.2693
377.80 0.2698
377.90 0.2702
378.00 0.2707
378.10 0.2711
378.20 0.2716
378.30 0.272
378.40 0.2725
378.50 0.2729
378.60 0.2734
378.70 0.2738
378.80 0.2743
378.90 0.2748
379.00 0.2752
379.10 0.2757
379.20 0.2761
379.30 0.2766
379.40 0.277
379.50 0.2775
379.60 0.278
379.70 0.2784
379.80 0.2789
379.90 0.2793
380.00 0.2798
380.10 0.2802
380.20 0.2807
380.30 0.2812
380.40 0.2816
380.50 0.2821
380.60 0.2826
380.70 0.283
380.80 0.2835
380.90 0.2839
381.00 0.2844
381.10 0.2849
381.20 0.2853
381.30 0.2858
381.40 0.2863
381.50 0.2867
381.60 0.2872
381.70 0.2877
381.80 0.2881
381.90 0.2886
382.00 0.2891
382.10 0.2895
382.20 0.29
382.30 0.2905
382.40 0.2909
382.50 0.2914
382.60 0.2919
382.70 0.2923
382.80 0.2928
382.90 0.2933
383.00 0.2938
383.10 0.2942
383.20 0.2947
383.30 0.2952
383.40 0.2956
383.50 0.2961
383.60 0.2966
383.70 0.2971
383.80 0.2975
383.90 0.298
384.00 0.2985
384.10 0.299
384.20 0.2994
384.30 0.2999
384.40 0.3004
384.50 0.3009
384.60 0.3013
384.70 0.3018
384.80 0.3023
384.90 0.3028
385.00 0.3032
385.10 0.3037
385.20 0.3042
385.30 0.3047
385.40 0.3052
385.50 0.3056
385.60 0.3061
385.70 0.3066
385.80 0.3071
385.90 0.3076
386.00 0.308
386.10 0.3085
386.20 0.309
386.30 0.3095
386.40 0.31
386.50 0.3105
386.60 0.3109
386.70 0.3114
386.80 0.3119
386.90 0.3124
387.00 0.3129
387.10 0.3134
387.20 0.3139
387.30 0.3143
387.40 0.3148
387.50 0.3153
387.60 0.3158
387.70 0.3163
387.80 0.3168
387.90 0.3173
388.00 0.3178
388.10 0.3182
388.20 0.3187
388.30 0.3192
388.40 0.3197
388.50 0.3202
388.60 0.3207
388.70 0.3212
388.80 0.3217
388.90 0.3222
389.00 0.3227
389.10 0.3232
389.20 0.3237
389.30 0.3241
389.40 0.3246
389.50 0.3251
389.60 0.3256
389.70 0.3261
389.80 0.3266
389.90 0.3271
390.00 0.3276
390.10 0.3281
390.20 0.3286
390.30 0.3291
390.40 0.3296
390.50 0.3301
390.60 0.3306
390.70 0.3311
390.80 0.3316
390.90 0.3321
391.00 0.3326
391.10 0.3331
391.20 0.3336
391.30 0.3341
391.40 0.3346
391.50 0.3351
391.60 0.3356
391.70 0.3361
391.80 0.3366
391.90 0.3371
392.00 0.3376
392.10 0.3381
392.20 0.3386
392.30 0.3391
392.40 0.3396
392.50 0.3401
392.60 0.3406
392.70 0.3411
392.80 0.3416
392.90 0.3421
393.00 0.3426
393.10 0.3431
393.20 0.3437
393.30 0.3442
393.40 0.3447
393.50 0.3452
393.60 0.3457
393.70 0.3462
393.80 0.3467
393.90 0.3472
394.00 0.3477
394.10 0.3482
394.20 0.3487
394.30 0.3493
394.40 0.3498
394.50 0.3503
394.60 0.3508
394.70 0.3513
394.80 0.3518
394.90 0.3523
395.00 0.3528
395.10 0.3533
395.20 0.3539
395.30 0.3544
395.40 0.3549
395.50 0.3554
395.60 0.3559
395.70 0.3564
395.80 0.357
395.90 0.3575
396.00 0.358
396.10 0.3585
396.20 0.359
396.30 0.3595
396.40 0.3601
396.50 0.3606
396.60 0.3611
396.70 0.3616
396.80 0.3621
396.90 0.3626
397.00 0.3632
397.10 0.3637
397.20 0.3642
397.30 0.3647
397.40 0.3652
397.50 0.3658
397.60 0.3663
397.70 0.3668
397.80 0.3673
397.90 0.3678
398.00 0.3684
398.10 0.3689
398.20 0.3694
398.30 0.3699
398.40 0.3705
398.50 0.371
398.60 0.3715
398.70 0.372
398.80 0.3726
398.90 0.3731
399.00 0.3736
399.10 0.3741
399.20 0.3747
399.30 0.3752
399.40 0.3757
399.50 0.3763
399.60 0.3768
399.70 0.3773
399.80 0.3778
399.90 0.3784
400.00 0.3789
400.10 0.3794
400.20 0.38
400.30 0.3805
400.40 0.381
400.50 0.3815
400.60 0.3821
400.70 0.3826
400.80 0.3831
400.90 0.3837
401.00 0.3842
401.10 0.3847
401.20 0.3853
401.30 0.3858
401.40 0.3863
401.50 0.3869
401.60 0.3874
401.70 0.3879
401.80 0.3885
401.90 0.389
402.00 0.3895
402.10 0.3901
402.20 0.3906
402.30 0.3911
402.40 0.3917
402.50 0.3922
402.60 0.3927
402.70 0.3933
402.80 0.3938
402.90 0.3944
403.00 0.3949
403.10 0.3954
403.20 0.396
403.30 0.3965
403.40 0.3971
403.50 0.3976
403.60 0.3981
403.70 0.3987
403.80 0.3992
403.90 0.3998
404.00 0.4003
404.10 0.4008
404.20 0.4014
404.30 0.4019
404.40 0.4025
404.50 0.403
404.60 0.4035
404.70 0.4041
404.80 0.4046
404.90 0.4052
405.00 0.4057
405.10 0.4063
405.20 0.4068
405.30 0.4074
405.40 0.4079
405.50 0.4085
405.60 0.409
405.70 0.4095
405.80 0.4101
405.90 0.4106
406.00 0.4112
406.10 0.4117
406.20 0.4123
406.30 0.4128
406.40 0.4134
406.50 0.4139
406.60 0.4145
406.70 0.415
406.80 0.4156
406.90 0.4161
407.00 0.4167
407.10 0.4172
407.20 0.4178
407.30 0.4183
407.40 0.4189
407.50 0.4194
407.60 0.42
407.70 0.4205
407.80 0.4211
407.90 0.4216
408.00 0.4222
408.10 0.4227
408.20 0.4233
408.30 0.4238
408.40 0.4244
408.50 0.4249
408.60 0.4255
408.70 0.4261
408.80 0.4266
408.90 0.4272
409.00 0.4277
409.10 0.4283
409.20 0.4288
409.30 0.4294
409.40 0.43
409.50 0.4305
409.60 0.4311
409.70 0.4316
409.80 0.4322
409.90 0.4327
410.00 0.4333
410.10 0.4339
410.20 0.4344
410.30 0.435
410.40 0.4355
410.50 0.4361
410.60 0.4367
410.70 0.4372
410.80 0.4378
410.90 0.4383
411.00 0.4389
411.10 0.4395
411.20 0.44
411.30 0.4406
411.40 0.4411
411.50 0.4417
411.60 0.4423
411.70 0.4428
411.80 0.4434
411.90 0.444
412.00 0.4445
412.10 0.4451
412.20 0.4457
412.30 0.4462
412.40 0.4468
412.50 0.4473
412.60 0.4479
412.70 0.4485
412.80 0.449
412.90 0.4496
413.00 0.4502
413.10 0.4507
413.20 0.4513
413.30 0.4519
413.40 0.4524
413.50 0.453
413.60 0.4536
413.70 0.4542
413.80 0.4547
413.90 0.4553
414.00 0.4559
414.10 0.4564
414.20 0.457
414.30 0.4576
414.40 0.4581
414.50 0.4587
414.60 0.4593
414.70 0.4599
414.80 0.4604
414.90 0.461
415.00 0.4616
415.10 0.4621
415.20 0.4627
415.30 0.4633
415.40 0.4639
415.50 0.4644
415.60 0.465
415.70 0.4656
415.80 0.4661
415.90 0.4667
416.00 0.4673
416.10 0.4679
416.20 0.4684
416.30 0.469
416.40 0.4696
416.50 0.4702
416.60 0.4707
416.70 0.4713
416.80 0.4719
416.90 0.4725
417.00 0.473
417.10 0.4736
417.20 0.4742
417.30 0.4748
417.40 0.4754
417.50 0.4759
417.60 0.4765
417.70 0.4771
417.80 0.4777
417.90 0.4783
418.00 0.4788
418.10 0.4794
418.20 0.48
418.30 0.4806
418.40 0.4812
418.50 0.4817
418.60 0.4823
418.70 0.4829
418.80 0.4835
418.90 0.4841
419.00 0.4846
419.10 0.4852
419.20 0.4858
419.30 0.4864
419.40 0.487
419.50 0.4876
419.60 0.4881
419.70 0.4887
419.80 0.4893
419.90 0.4899
420.00 0.4905
420.10 0.4911
420.20 0.4916
420.30 0.4922
420.40 0.4928
420.50 0.4934
420.60 0.494
420.70 0.4946
420.80 0.4952
420.90 0.4957
421.00 0.4963
421.10 0.4969
421.20 0.4975
421.30 0.4981
421.40 0.4987
421.50 0.4993
421.60 0.4998
421.70 0.5004
421.80 0.501
421.90 0.5016
422.00 0.5022
422.10 0.5028
422.20 0.5034
422.30 0.504
422.40 0.5046
422.50 0.5052
422.60 0.5057
422.70 0.5063
422.80 0.5069
422.90 0.5075
423.00 0.5081
423.10 0.5087
423.20 0.5093
423.30 0.5099
423.40 0.5105
423.50 0.5111
423.60 0.5117
423.70 0.5123
423.80 0.5128
423.90 0.5134
424.00 0.514
424.10 0.5146
424.20 0.5152
424.30 0.5158
424.40 0.5164
424.50 0.517
424.60 0.5176
424.70 0.5182
424.80 0.5188
424.90 0.5194
425.00 0.52
425.10 0.5206
425.20 0.5212
425.30 0.5218
425.40 0.5224
425.50 0.523
425.60 0.5236
425.70 0.5241
425.80 0.5247
425.90 0.5253
426.00 0.5259
426.10 0.5265
426.20 0.5271
426.30 0.5277
426.40 0.5283
426.50 0.5289
426.60 0.5295
426.70 0.5301
426.80 0.5307
426.90 0.5313
427.00 0.5319
427.10 0.5325
427.20 0.5331
427.30 0.5337
427.40 0.5343
427.50 0.5349
427.60 0.5355
427.70 0.5361
427.80 0.5367
427.90 0.5373
428.00 0.5379
428.10 0.5385
428.20 0.5391
428.30 0.5397
428.40 0.5404
428.50 0.541
428.60 0.5416
428.70 0.5422
428.80 0.5428
428.90 0.5434
429.00 0.544
429.10 0.5446
429.20 0.5452
429.30 0.5458
429.40 0.5464
429.50 0.547
429.60 0.5476
429.70 0.5482
429.80 0.5488
429.90 0.5494
430.00 0.55
430.10 0.5506
430.20 0.5512
430.30 0.5518
430.40 0.5524
430.50 0.5531
430.60 0.5537
430.70 0.5543
430.80 0.5549
430.90 0.5555
431.00 0.5561
431.10 0.5567
431.20 0.5573
431.30 0.5579
431.40 0.5585
431.50 0.5591
431.60 0.5597
431.70 0.5604
431.80 0.561
431.90 0.5616
432.00 0.5622
432.10 0.5628
432.20 0.5634
432.30 0.564
432.40 0.5646
432.50 0.5652
432.60 0.5658
432.70 0.5665
432.80 0.5671
432.90 0.5677
433.00 0.5683
433.10 0.5689
433.20 0.5695
433.30 0.5701
433.40 0.5707
433.50 0.5714
433.60 0.572
433.70 0.5726
433.80 0.5732
433.90 0.5738
434.00 0.5744
434.10 0.575
434.20 0.5756
434.30 0.5763
434.40 0.5769
434.50 0.5775
434.60 0.5781
434.70 0.5787
434.80 0.5793
434.90 0.5799
435.00 0.5806
435.10 0.5812
435.20 0.5818
435.30 0.5824
435.40 0.583
435.50 0.5836
435.60 0.5843
435.70 0.5849
435.80 0.5855
435.90 0.5861
436.00 0.5867
436.10 0.5873
436.20 0.588
436.30 0.5886
436.40 0.5892
436.50 0.5898
436.60 0.5904
436.70 0.5911
436.80 0.5917
436.90 0.5923
437.00 0.5929
437.10 0.5935
437.20 0.5941
437.30 0.5948
437.40 0.5954
437.50 0.596
437.60 0.5966
437.70 0.5972
437.80 0.5979
437.90 0.5985
438.00 0.5991
438.10 0.5997
438.20 0.6003
438.30 0.601
438.40 0.6016
438.50 0.6022
438.60 0.6028
438.70 0.6035
438.80 0.6041
438.90 0.6047
439.00 0.6053
439.10 0.6059
439.20 0.6066
439.30 0.6072
439.40 0.6078
439.50 0.6084
439.60 0.609
439.70 0.6097
439.80 0.6103
439.90 0.6109
440.00 0.6115
440.10 0.6122
440.20 0.6128
440.30 0.6134
440.40 0.614
440.50 0.6147
440.60 0.6153
440.70 0.6159
440.80 0.6165
440.90 0.6172
441.00 0.6178
441.10 0.6184
441.20 0.6191
441.30 0.6197
441.40 0.6203
441.50 0.6209
441.60 0.6216
441.70 0.6222
441.80 0.6228
441.90 0.6234
442.00 0.6241
442.10 0.6247
442.20 0.6253
442.30 0.6259
442.40 0.6265
442.50 0.6272
442.60 0.6278
442.70 0.6284
442.80 0.6291
442.90 0.6297
443.00 0.6303
443.10 0.631
443.20 0.6316
443.30 0.6322
443.40 0.6329
443.50 0.6335
443.60 0.6341
443.70 0.6348
443.80 0.6354
443.90 0.636
444.00 0.6366
444.10 0.6373
444.20 0.6379
444.30 0.6385
444.40 0.6391
444.50 0.6398
444.60 0.6404
444.70 0.6411
444.80 0.6417
444.90 0.6423
445.00 0.6429
445.10 0.6435
445.20 0.6442
445.30 0.6448
445.40 0.6455
445.50 0.6461
445.60 0.6467
445.70 0.6474
445.80 0.648
445.90 0.6486
446.00 0.6492
446.10 0.6499
446.20 0.6505
446.30 0.6511
446.40 0.6518
446.50 0.6524
446.60 0.653
446.70 0.6537
446.80 0.6543
446.90 0.6549
447.00 0.6556
447.10 0.6562
447.20 0.6568
447.30 0.6575
447.40 0.6581
447.50 0.6587
447.60 0.6594
447.70 0.66
447.80 0.6606
447.90 0.6613
448.00 0.6619
448.10 0.6626
448.20 0.6632
448.30 0.6638
448.40 0.6645
448.50 0.6651
448.60 0.6658
448.70 0.6664
448.80 0.667
448.90 0.6677
449.00 0.6683
449.10 0.6689
449.20 0.6696
449.30 0.6702
449.40 0.6708
449.50 0.6715
449.60 0.6721
449.70 0.6727
449.80 0.6734
449.90 0.674
450.00 0.6747
450.10 0.6753
450.20 0.6759
450.30 0.6766
450.40 0.6772
450.50 0.6778
450.60 0.6785
450.70 0.6791
450.80 0.6798
450.90 0.6804
451.00 0.681
451.10 0.6817
451.20 0.6823
451.30 0.6829
451.40 0.6836
451.50 0.6842
451.60 0.6849
451.70 0.6855
451.80 0.6861
451.90 0.6868
452.00 0.6874
452.10 0.688
452.20 0.6887
452.30 0.6893
452.40 0.69
452.50 0.6906
452.60 0.6913
452.70 0.6919
452.80 0.6926
452.90 0.6932
453.00 0.6938
453.10 0.6945
453.20 0.6951
453.30 0.6958
453.40 0.6964
453.50 0.6971
453.60 0.6977
453.70 0.6983
453.80 0.699
453.90 0.6996
454.00 0.7003
454.10 0.7009
454.20 0.7016
454.30 0.7022
454.40 0.7028
454.50 0.7035
454.60 0.7041
454.70 0.7048
454.80 0.7054
454.90 0.7061
455.00 0.7067
455.10 0.7073
455.20 0.708
455.30 0.7086
455.40 0.7093
455.50 0.7099
455.60 0.7105
455.70 0.7112
455.80 0.7118
455.90 0.7125
456.00 0.7131
456.10 0.7137
456.20 0.7144
456.30 0.715
456.40 0.7157
456.50 0.7163
456.60 0.717
456.70 0.7176
456.80 0.7183
456.90 0.7189
457.00 0.7195
457.10 0.7202
457.20 0.7208
457.30 0.7215
457.40 0.7221
457.50 0.7228
457.60 0.7234
457.70 0.7241
457.80 0.7247
457.90 0.7254
458.00 0.726
458.10 0.7267
458.20 0.7273
458.30 0.7279
458.40 0.7286
458.50 0.7292
458.60 0.7299
458.70 0.7305
458.80 0.7312
458.90 0.7318
459.00 0.7325
459.10 0.7331
459.20 0.7337
459.30 0.7344
459.40 0.735
459.50 0.7357
459.60 0.7363
459.70 0.737
459.80 0.7376
459.90 0.7383
460.00 0.7389
460.10 0.7396
460.20 0.7402
460.30 0.7409
460.40 0.7415
460.50 0.7421
460.60 0.7428
460.70 0.7434
460.80 0.7441
460.90 0.7447
461.00 0.7454
461.10 0.746
461.20 0.7467
461.30 0.7473
461.40 0.748
461.50 0.7486
461.60 0.7493
461.70 0.7499
461.80 0.7506
461.90 0.7512
462.00 0.7519
462.10 0.7525
462.20 0.7532
462.30 0.7538
462.40 0.7545
462.50 0.7551
462.60 0.7558
462.70 0.7564
462.80 0.7571
462.90 0.7577
463.00 0.7584
463.10 0.759
463.20 0.7597
463.30 0.7603
463.40 0.761
463.50 0.7616
463.60 0.7623
463.70 0.7629
463.80 0.7636
463.90 0.7642
464.00 0.7649
464.10 0.7655
464.20 0.7662
464.30 0.7668
464.40 0.7675
464.50 0.7681
464.60 0.7688
464.70 0.7694
464.80 0.7701
464.90 0.7707
465.00 0.7714
465.10 0.772
465.20 0.7727
465.30 0.7733
465.40 0.774
465.50 0.7746
465.60 0.7753
465.70 0.7759
465.80 0.7766
465.90 0.7772
466.00 0.7779
466.10 0.7785
466.20 0.7792
466.30 0.7798
466.40 0.7805
466.50 0.7811
466.60 0.7818
466.70 0.7824
466.80 0.7831
466.90 0.7837
467.00 0.7844
467.10 0.785
467.20 0.7857
467.30 0.7863
467.40 0.787
467.50 0.7877
467.60 0.7883
467.70 0.789
467.80 0.7896
467.90 0.7903
468.00 0.7909
468.10 0.7916
468.20 0.7922
468.30 0.7929
468.40 0.7935
468.50 0.7942
468.60 0.7948
468.70 0.7955
468.80 0.7961
468.90 0.7968
469.00 0.7974
469.10 0.7981
469.20 0.7987
469.30 0.7994
469.40 0.8
469.50 0.8007
469.60 0.8013
469.70 0.802
469.80 0.8027
469.90 0.8033
470.00 0.804
470.10 0.8046
470.20 0.8053
470.30 0.8059
470.40 0.8066
470.50 0.8072
470.60 0.8079
470.70 0.8085
470.80 0.8092
470.90 0.8098
471.00 0.8105
471.10 0.8111
471.20 0.8118
471.30 0.8124
471.40 0.8131
471.50 0.8138
471.60 0.8144
471.70 0.8151
471.80 0.8157
471.90 0.8164
472.00 0.817
472.10 0.8177
472.20 0.8183
472.30 0.819
472.40 0.8197
472.50 0.8203
472.60 0.821
472.70 0.8216
472.80 0.8223
472.90 0.8229
473.00 0.8236
473.10 0.8242
473.20 0.8249
473.30 0.8256
473.40 0.8262
473.50 0.8269
473.60 0.8275
473.70 0.8282
473.80 0.8288
473.90 0.8295
474.00 0.8301
474.10 0.8308
474.20 0.8314
474.30 0.8321
474.40 0.8327
474.50 0.8334
474.60 0.8341
474.70 0.8347
474.80 0.8354
474.90 0.836
475.00 0.8367
475.10 0.8373
475.20 0.838
475.30 0.8386
475.40 0.8393
475.50 0.8399
475.60 0.8406
475.70 0.8412
475.80 0.8419
475.90 0.8425
476.00 0.8432
476.10 0.8438
476.20 0.8445
476.30 0.8452
476.40 0.8458
476.50 0.8465
476.60 0.8471
476.70 0.8478
476.80 0.8484
476.90 0.8491
477.00 0.8497
477.10 0.8504
477.20 0.8511
477.30 0.8517
477.40 0.8524
477.50 0.853
477.60 0.8537
477.70 0.8543
477.80 0.855
477.90 0.8557
478.00 0.8563
478.10 0.857
478.20 0.8576
478.30 0.8583
478.40 0.8589
478.50 0.8596
478.60 0.8602
478.70 0.8609
478.80 0.8615
478.90 0.8622
479.00 0.8628
479.10 0.8635
479.20 0.8642
479.30 0.8648
479.40 0.8655
479.50 0.8661
479.60 0.8668
479.70 0.8674
479.80 0.8681
479.90 0.8687
480.00 0.8694
480.10 0.8701
480.20 0.8707
480.30 0.8714
480.40 0.872
480.50 0.8727
480.60 0.8733
480.70 0.874
480.80 0.8746
480.90 0.8753
481.00 0.8759
481.10 0.8766
481.20 0.8773
481.30 0.8779
481.40 0.8786
481.50 0.8792
481.60 0.8799
481.70 0.8805
481.80 0.8812
481.90 0.8819
482.00 0.8825
482.10 0.8832
482.20 0.8838
482.30 0.8845
482.40 0.8851
482.50 0.8858
482.60 0.8864
482.70 0.8871
482.80 0.8878
482.90 0.8884
483.00 0.8891
483.10 0.8897
483.20 0.8904
483.30 0.891
483.40 0.8917
483.50 0.8923
483.60 0.893
483.70 0.8936
483.80 0.8943
483.90 0.8949
484.00 0.8956
484.10 0.8962
484.20 0.8969
484.30 0.8976
484.40 0.8982
484.50 0.8989
484.60 0.8995
484.70 0.9002
484.80 0.9008
484.90 0.9015
485.00 0.9021
485.10 0.9028
485.20 0.9034
485.30 0.9041
485.40 0.9048
485.50 0.9054
485.60 0.9061
485.70 0.9067
485.80 0.9074
485.90 0.908
486.00 0.9087
486.10 0.9093
486.20 0.91
486.30 0.9106
486.40 0.9113
486.50 0.912
486.60 0.9126
486.70 0.9133
486.80 0.9139
486.90 0.9146
487.00 0.9152
487.10 0.9159
487.20 0.9165
487.30 0.9172
487.40 0.9178
487.50 0.9185
487.60 0.9191
487.70 0.9198
487.80 0.9205
487.90 0.9211
488.00 0.9218
488.10 0.9224
488.20 0.9231
488.30 0.9237
488.40 0.9244
488.50 0.925
488.60 0.9257
488.70 0.9263
488.80 0.927
488.90 0.9277
489.00 0.9283
489.10 0.929
489.20 0.9296
489.30 0.9303
489.40 0.9309
489.50 0.9316
489.60 0.9322
489.70 0.9329
489.80 0.9336
489.90 0.9342
490.00 0.9349
490.10 0.9355
490.20 0.9362
490.30 0.9368
490.40 0.9375
490.50 0.9381
490.60 0.9388
490.70 0.9394
490.80 0.9401
490.90 0.9407
491.00 0.9414
491.10 0.942
491.20 0.9427
491.30 0.9433
491.40 0.944
491.50 0.9446
491.60 0.9453
491.70 0.946
491.80 0.9466
491.90 0.9473
492.00 0.9479
492.10 0.9486
492.20 0.9492
492.30 0.9499
492.40 0.9505
492.50 0.9512
492.60 0.9518
492.70 0.9525
492.80 0.9531
492.90 0.9538
493.00 0.9544
493.10 0.9551
493.20 0.9557
493.30 0.9564
493.40 0.957
493.50 0.9577
493.60 0.9583
493.70 0.959
493.80 0.9596
493.90 0.9603
494.00 0.9609
494.10 0.9616
494.20 0.9623
494.30 0.9629
494.40 0.9636
494.50 0.9642
494.60 0.9649
494.70 0.9655
494.80 0.9662
494.90 0.9668
495.00 0.9675
495.10 0.9681
495.20 0.9688
495.30 0.9694
495.40 0.9701
495.50 0.9707
495.60 0.9714
495.70 0.972
495.80 0.9727
495.90 0.9733
496.00 0.974
496.10 0.9746
496.20 0.9753
496.30 0.9759
496.40 0.9766
496.50 0.9772
496.60 0.9779
496.70 0.9786
496.80 0.9792
496.90 0.9799
497.00 0.9805
497.10 0.9812
497.20 0.9818
497.30 0.9825
497.40 0.9831
497.50 0.9838
497.60 0.9844
497.70 0.9851
497.80 0.9857
497.90 0.9864
498.00 0.987
498.10 0.9877
498.20 0.9883
498.30 0.989
498.40 0.9896
498.50 0.9903
498.60 0.9909
498.70 0.9915
498.80 0.9922
498.90 0.9928
499.00 0.9935
499.10 0.9941
499.20 0.9948
499.30 0.9954
499.40 0.9961
499.50 0.9967
499.60 0.9974
499.70 0.998
499.80 0.9987
499.90 0.9993
500.00 1
500.10 1.001
500.20 1.001
500.30 1.002
500.40 1.003
500.50 1.003
500.60 1.004
500.70 1.005
500.80 1.005
500.90 1.006
501.00 1.006
501.10 1.007
501.20 1.008
501.30 1.008
501.40 1.009
501.50 1.01
501.60 1.01
501.70 1.011
501.80 1.012
501.90 1.012
502.00 1.013
502.10 1.014
502.20 1.014
502.30 1.015
502.40 1.016
502.50 1.016
502.60 1.017
502.70 1.017
502.80 1.018
502.90 1.019
503.00 1.019
503.10 1.02
503.20 1.021
503.30 1.021
503.40 1.022
503.50 1.023
503.60 1.023
503.70 1.024
503.80 1.025
503.90 1.025
504.00 1.026
504.10 1.027
504.20 1.027
504.30 1.028
504.40 1.028
504.50 1.029
504.60 1.03
504.70 1.03
504.80 1.031
504.90 1.032
505.00 1.032
505.10 1.033
505.20 1.034
505.30 1.034
505.40 1.035
505.50 1.036
505.60 1.036
505.70 1.037
505.80 1.037
505.90 1.038
506.00 1.039
506.10 1.039
506.20 1.04
506.30 1.041
506.40 1.041
506.50 1.042
506.60 1.043
506.70 1.043
506.80 1.044
506.90 1.045
507.00 1.045
507.10 1.046
507.20 1.047
507.30 1.047
507.40 1.048
507.50 1.048
507.60 1.049
507.70 1.05
507.80 1.05
507.90 1.051
508.00 1.052
508.10 1.052
508.20 1.053
508.30 1.054
508.40 1.054
508.50 1.055
508.60 1.056
508.70 1.056
508.80 1.057
508.90 1.057
509.00 1.058
509.10 1.059
509.20 1.059
509.30 1.06
509.40 1.061
509.50 1.061
509.60 1.062
509.70 1.063
509.80 1.063
509.90 1.064
510.00 1.064
510.10 1.065
510.20 1.066
510.30 1.066
510.40 1.067
510.50 1.068
510.60 1.068
510.70 1.069
510.80 1.07
510.90 1.07
511.00 1.071
511.10 1.072
511.20 1.072
511.30 1.073
511.40 1.073
511.50 1.074
511.60 1.075
511.70 1.075
511.80 1.076
511.90 1.077
512.00 1.077
512.10 1.078
512.20 1.079
512.30 1.079
512.40 1.08
512.50 1.08
512.60 1.081
512.70 1.082
512.80 1.082
512.90 1.083
513.00 1.084
513.10 1.084
513.20 1.085
513.30 1.086
513.40 1.086
513.50 1.087
513.60 1.087
513.70 1.088
513.80 1.089
513.90 1.089
514.00 1.09
514.10 1.091
514.20 1.091
514.30 1.092
514.40 1.093
514.50 1.093
514.60 1.094
514.70 1.094
514.80 1.095
514.90 1.096
515.00 1.096
515.10 1.097
515.20 1.098
515.30 1.098
515.40 1.099
515.50 1.1
515.60 1.1
515.70 1.101
515.80 1.101
515.90 1.102
516.00 1.103
516.10 1.103
516.20 1.104
516.30 1.105
516.40 1.105
516.50 1.106
516.60 1.107
516.70 1.107
516.80 1.108
516.90 1.108
517.00 1.109
517.10 1.11
517.20 1.11
517.30 1.111
517.40 1.112
517.50 1.112
517.60 1.113
517.70 1.114
517.80 1.114
517.90 1.115
518.00 1.115
518.10 1.116
518.20 1.117
518.30 1.117
518.40 1.118
518.50 1.119
518.60 1.119
518.70 1.12
518.80 1.12
518.90 1.121
519.00 1.122
519.10 1.122
519.20 1.123
519.30 1.124
519.40 1.124
519.50 1.125
519.60 1.126
519.70 1.126
519.80 1.127
519.90 1.127
520.00 1.128
520.10 1.129
520.20 1.129
520.30 1.13
520.40 1.131
520.50 1.131
520.60 1.132
520.70 1.132
520.80 1.133
520.90 1.134
521.00 1.134
521.10 1.135
521.20 1.136
521.30 1.136
521.40 1.137
521.50 1.137
521.60 1.138
521.70 1.139
521.80 1.139
521.90 1.14
522.00 1.141
522.10 1.141
522.20 1.142
522.30 1.143
522.40 1.143
522.50 1.144
522.60 1.144
522.70 1.145
522.80 1.146
522.90 1.146
523.00 1.147
523.10 1.147
523.20 1.148
523.30 1.149
523.40 1.149
523.50 1.15
523.60 1.151
523.70 1.151
523.80 1.152
523.90 1.153
524.00 1.153
524.10 1.154
524.20 1.154
524.30 1.155
524.40 1.156
524.50 1.156
524.60 1.157
524.70 1.158
524.80 1.158
524.90 1.159
525.00 1.159
525.10 1.16
525.20 1.161
525.30 1.161
525.40 1.162
525.50 1.162
525.60 1.163
525.70 1.164
525.80 1.164
525.90 1.165
526.00 1.166
526.10 1.166
526.20 1.167
526.30 1.167
526.40 1.168
526.50 1.169
526.60 1.169
526.70 1.17
526.80 1.171
526.90 1.171
527.00 1.172
527.10 1.172
527.20 1.173
527.30 1.174
527.40 1.174
527.50 1.175
527.60 1.176
527.70 1.176
527.80 1.177
527.90 1.177
528.00 1.178
528.10 1.179
528.20 1.179
528.30 1.18
528.40 1.181
528.50 1.181
528.60 1.182
528.70 1.182
528.80 1.183
528.90 1.184
529.00 1.184
529.10 1.185
529.20 1.185
529.30 1.186
529.40 1.187
529.50 1.187
529.60 1.188
529.70 1.189
529.80 1.189
529.90 1.19
530.00 1.19
530.10 1.191
530.20 1.192
530.30 1.192
530.40 1.193
530.50 1.193
530.60 1.194
530.70 1.195
530.80 1.195
530.90 1.196
531.00 1.197
531.10 1.197
531.20 1.198
531.30 1.198
531.40 1.199
531.50 1.2
531.60 1.2
531.70 1.201
531.80 1.201
531.90 1.202
532.00 1.203
532.10 1.203
532.20 1.204
532.30 1.205
532.40 1.205
532.50 1.206
532.60 1.206
532.70 1.207
532.80 1.208
532.90 1.208
533.00 1.209
533.10 1.209
533.20 1.21
533.30 1.211
533.40 1.211
533.50 1.212
533.60 1.212
533.70 1.213
533.80 1.214
533.90 1.214
534.00 1.215
534.10 1.216
534.20 1.216
534.30 1.217
534.40 1.217
534.50 1.218
534.60 1.219
534.70 1.219
534.80 1.22
534.90 1.22
535.00 1.221
535.10 1.222
535.20 1.222
535.30 1.223
535.40 1.223
535.50 1.224
535.60 1.225
535.70 1.225
535.80 1.226
535.90 1.226
536.00 1.227
536.10 1.228
536.20 1.228
536.30 1.229
536.40 1.23
536.50 1.23
536.60 1.231
536.70 1.231
536.80 1.232
536.90 1.233
537.00 1.233
537.10 1.234
537.20 1.234
537.30 1.235
537.40 1.236
537.50 1.236
537.60 1.237
537.70 1.237
537.80 1.238
537.90 1.239
538.00 1.239
538.10 1.24
538.20 1.24
538.30 1.241
538.40 1.242
538.50 1.242
538.60 1.243
538.70 1.243
538.80 1.244
538.90 1.245
539.00 1.245
539.10 1.246
539.20 1.246
539.30 1.247
539.40 1.248
539.50 1.248
539.60 1.249
539.70 1.249
539.80 1.25
539.90 1.251
540.00 1.251
540.10 1.252
540.20 1.252
540.30 1.253
540.40 1.254
540.50 1.254
540.60 1.255
540.70 1.255
540.80 1.256
540.90 1.257
541.00 1.257
541.10 1.258
541.20 1.258
541.30 1.259
541.40 1.26
541.50 1.26
541.60 1.261
541.70 1.261
541.80 1.262
541.90 1.263
542.00 1.263
542.10 1.264
542.20 1.264
542.30 1.265
542.40 1.266
542.50 1.266
542.60 1.267
542.70 1.267
542.80 1.268
542.90 1.269
543.00 1.269
543.10 1.27
543.20 1.27
543.30 1.271
543.40 1.272
543.50 1.272
543.60 1.273
543.70 1.273
543.80 1.274
543.90 1.275
544.00 1.275
544.10 1.276
544.20 1.276
544.30 1.277
544.40 1.278
544.50 1.278
544.60 1.279
544.70 1.279
544.80 1.28
544.90 1.28
545.00 1.281
545.10 1.282
545.20 1.282
545.30 1.283
545.40 1.283
545.50 1.284
545.60 1.285
545.70 1.285
545.80 1.286
545.90 1.286
546.00 1.287
546.10 1.288
546.20 1.288
546.30 1.289
546.40 1.289
546.50 1.29
546.60 1.291
546.70 1.291
546.80 1.292
546.90 1.292
547.00 1.293
547.10 1.293
547.20 1.294
547.30 1.295
547.40 1.295
547.50 1.296
547.60 1.296
547.70 1.297
547.80 1.298
547.90 1.298
548.00 1.299
548.10 1.299
548.20 1.3
548.30 1.3
548.40 1.301
548.50 1.302
548.60 1.302
548.70 1.303
548.80 1.303
548.90 1.304
549.00 1.305
549.10 1.305
549.20 1.306
549.30 1.306
549.40 1.307
549.50 1.308
549.60 1.308
549.70 1.309
549.80 1.309
549.90 1.31
550.00 1.31
550.10 1.311
550.20 1.312
550.30 1.312
550.40 1.313
550.50 1.313
550.60 1.314
550.70 1.314
550.80 1.315
550.90 1.316
551.00 1.316
551.10 1.317
551.20 1.317
551.30 1.318
551.40 1.319
551.50 1.319
551.60 1.32
551.70 1.32
551.80 1.321
551.90 1.321
552.00 1.322
552.10 1.323
552.20 1.323
552.30 1.324
552.40 1.324
552.50 1.325
552.60 1.325
552.70 1.326
552.80 1.327
552.90 1.327
553.00 1.328
553.10 1.328
553.20 1.329
553.30 1.33
553.40 1.33
553.50 1.331
553.60 1.331
553.70 1.332
553.80 1.332
553.90 1.333
554.00 1.334
554.10 1.334
554.20 1.335
554.30 1.335
554.40 1.336
554.50 1.336
554.60 1.337
554.70 1.338
554.80 1.338
554.90 1.339
555.00 1.339
555.10 1.34
555.20 1.34
555.30 1.341
555.40 1.342
555.50 1.342
555.60 1.343
555.70 1.343
555.80 1.344
555.90 1.344
556.00 1.345
556.10 1.346
556.20 1.346
556.30 1.347
556.40 1.347
556.50 1.348
556.60 1.348
556.70 1.349
556.80 1.35
556.90 1.35
557.00 1.351
557.10 1.351
557.20 1.352
557.30 1.352
557.40 1.353
557.50 1.354
557.60 1.354
557.70 1.355
557.80 1.355
557.90 1.356
558.00 1.356
558.10 1.357
558.20 1.358
558.30 1.358
558.40 1.359
558.50 1.359
558.60 1.36
558.70 1.36
558.80 1.361
558.90 1.361
559.00 1.362
559.10 1.363
559.20 1.363
559.30 1.364
559.40 1.364
559.50 1.365
559.60 1.365
559.70 1.366
559.80 1.367
559.90 1.367
560.00 1.368
560.10 1.368
560.20 1.369
560.30 1.369
560.40 1.37
560.50 1.37
560.60 1.371
560.70 1.372
560.80 1.372
560.90 1.373
561.00 1.373
561.10 1.374
561.20 1.374
561.30 1.375
561.40 1.375
561.50 1.376
561.60 1.377
561.70 1.377
561.80 1.378
561.90 1.378
562.00 1.379
562.10 1.379
562.20 1.38
562.30 1.381
562.40 1.381
562.50 1.382
562.60 1.382
562.70 1.383
562.80 1.383
562.90 1.384
563.00 1.384
563.10 1.385
563.20 1.386
563.30 1.386
563.40 1.387
563.50 1.387
563.60 1.388
563.70 1.388
563.80 1.389
563.90 1.389
564.00 1.39
564.10 1.391
564.20 1.391
564.30 1.392
564.40 1.392
564.50 1.393
564.60 1.393
564.70 1.394
564.80 1.394
564.90 1.395
565.00 1.395
565.10 1.396
565.20 1.397
565.30 1.397
565.40 1.398
565.50 1.398
565.60 1.399
565.70 1.399
565.80 1.4
565.90 1.4
566.00 1.401
566.10 1.402
566.20 1.402
566.30 1.403
566.40 1.403
566.50 1.404
566.60 1.404
566.70 1.405
566.80 1.405
566.90 1.406
567.00 1.406
567.10 1.407
567.20 1.408
567.30 1.408
567.40 1.409
567.50 1.409
567.60 1.41
567.70 1.41
567.80 1.411
567.90 1.411
568.00 1.412
568.10 1.412
568.20 1.413
568.30 1.414
568.40 1.414
568.50 1.415
568.60 1.415
568.70 1.416
568.80 1.416
568.90 1.417
569.00 1.417
569.10 1.418
569.20 1.418
569.30 1.419
569.40 1.42
569.50 1.42
569.60 1.421
569.70 1.421
569.80 1.422
569.90 1.422
570.00 1.423
570.10 1.423
570.20 1.424
570.30 1.424
570.40 1.425
570.50 1.425
570.60 1.426
570.70 1.427
570.80 1.427
570.90 1.428
571.00 1.428
571.10 1.429
571.20 1.429
571.30 1.43
571.40 1.43
571.50 1.431
571.60 1.431
571.70 1.432
571.80 1.432
571.90 1.433
572.00 1.433
572.10 1.434
572.20 1.435
572.30 1.435
572.40 1.436
572.50 1.436
572.60 1.437
572.70 1.437
572.80 1.438
572.90 1.438
573.00 1.439
573.10 1.439
573.20 1.44
573.30 1.44
573.40 1.441
573.50 1.441
573.60 1.442
573.70 1.443
573.80 1.443
573.90 1.444
574.00 1.444
574.10 1.445
574.20 1.445
574.30 1.446
574.40 1.446
574.50 1.447
574.60 1.447
574.70 1.448
574.80 1.448
574.90 1.449
575.00 1.449
575.10 1.45
575.20 1.45
575.30 1.451
575.40 1.452
575.50 1.452
575.60 1.453
575.70 1.453
575.80 1.454
575.90 1.454
576.00 1.455
576.10 1.455
576.20 1.456
576.30 1.456
576.40 1.457
576.50 1.457
576.60 1.458
576.70 1.458
576.80 1.459
576.90 1.459
577.00 1.46
577.10 1.46
577.20 1.461
577.30 1.461
577.40 1.462
577.50 1.463
577.60 1.463
577.70 1.464
577.80 1.464
577.90 1.465
578.00 1.465
578.10 1.466
578.20 1.466
578.30 1.467
578.40 1.467
578.50 1.468
578.60 1.468
578.70 1.469
578.80 1.469
578.90 1.47
579.00 1.47
579.10 1.471
579.20 1.471
579.30 1.472
579.40 1.472
579.50 1.473
579.60 1.473
579.70 1.474
579.80 1.474
579.90 1.475
580.00 1.475
580.10 1.476
580.20 1.477
580.30 1.477
580.40 1.478
580.50 1.478
580.60 1.479
580.70 1.479
580.80 1.48
580.90 1.48
581.00 1.481
581.10 1.481
581.20 1.482
581.30 1.482
581.40 1.483
581.50 1.483
581.60 1.484
581.70 1.484
581.80 1.485
581.90 1.485
582.00 1.486
582.10 1.486
582.20 1.487
582.30 1.487
582.40 1.488
582.50 1.488
582.60 1.489
582.70 1.489
582.80 1.49
582.90 1.49
583.00 1.491
583.10 1.491
583.20 1.492
583.30 1.492
583.40 1.493
583.50 1.493
583.60 1.494
583.70 1.494
583.80 1.495
583.90 1.495
584.00 1.496
584.10 1.496
584.20 1.497
584.30 1.497
584.40 1.498
584.50 1.498
584.60 1.499
584.70 1.499
584.80 1.5
584.90 1.5
585.00 1.501
585.10 1.501
585.20 1.502
585.30 1.502
585.40 1.503
585.50 1.503
585.60 1.504
585.70 1.504
585.80 1.505
585.90 1.505
586.00 1.506
586.10 1.506
586.20 1.507
586.30 1.507
586.40 1.508
586.50 1.508
586.60 1.509
586.70 1.509
586.80 1.51
586.90 1.51
587.00 1.511
587.10 1.511
587.20 1.512
587.30 1.512
587.40 1.513
587.50 1.513
587.60 1.514
587.70 1.514
587.80 1.515
587.90 1.515
588.00 1.516
588.10 1.516
588.20 1.517
588.30 1.517
588.40 1.518
588.50 1.518
588.60 1.519
588.70 1.519
588.80 1.52
588.90 1.52
589.00 1.521
589.10 1.521
589.20 1.522
589.30 1.522
589.40 1.523
589.50 1.523
589.60 1.524
589.70 1.524
589.80 1.525
589.90 1.525
590.00 1.526
590.10 1.526
590.20 1.527
590.30 1.527
590.40 1.528
590.50 1.528
590.60 1.529
590.70 1.529
590.80 1.53
590.90 1.53
591.00 1.531
591.10 1.531
591.20 1.532
591.30 1.532
591.40 1.533
591.50 1.533
591.60 1.533
591.70 1.534
591.80 1.534
591.90 1.535
592.00 1.535
592.10 1.536
592.20 1.536
592.30 1.537
592.40 1.537
592.50 1.538
592.60 1.538
592.70 1.539
592.80 1.539
592.90 1.54
593.00 1.54
593.10 1.541
593.20 1.541
593.30 1.542
593.40 1.542
593.50 1.543
593.60 1.543
593.70 1.544
593.80 1.544
593.90 1.545
594.00 1.545
594.10 1.545
594.20 1.546
594.30 1.546
594.40 1.547
594.50 1.547
594.60 1.548
594.70 1.548
594.80 1.549
594.90 1.549
595.00 1.55
595.10 1.55
595.20 1.551
595.30 1.551
595.40 1.552
595.50 1.552
595.60 1.553
595.70 1.553
595.80 1.554
595.90 1.554
596.00 1.554
596.10 1.555
596.20 1.555
596.30 1.556
596.40 1.556
596.50 1.557
596.60 1.557
596.70 1.558
596.80 1.558
596.90 1.559
597.00 1.559
597.10 1.56
597.20 1.56
597.30 1.561
597.40 1.561
597.50 1.562
597.60 1.562
597.70 1.562
597.80 1.563
597.90 1.563
598.00 1.564
598.10 1.564
598.20 1.565
598.30 1.565
598.40 1.566
598.50 1.566
598.60 1.567
598.70 1.567
598.80 1.568
598.90 1.568
599.00 1.568
599.10 1.569
599.20 1.569
599.30 1.57
599.40 1.57
599.50 1.571
599.60 1.571
599.70 1.572
599.80 1.572
599.90 1.573
600.00 1.573
600.10 1.574
600.20 1.574
600.30 1.574
600.40 1.575
600.50 1.575
600.60 1.576
600.70 1.576
600.80 1.577
600.90 1.577
601.00 1.578
601.10 1.578
601.20 1.579
601.30 1.579
601.40 1.58
601.50 1.58
601.60 1.58
601.70 1.581
601.80 1.581
601.90 1.582
602.00 1.582
602.10 1.583
602.20 1.583
602.30 1.584
602.40 1.584
602.50 1.585
602.60 1.585
602.70 1.585
602.80 1.586
602.90 1.586
603.00 1.587
603.10 1.587
603.20 1.588
603.30 1.588
603.40 1.589
603.50 1.589
603.60 1.589
603.70 1.59
603.80 1.59
603.90 1.591
604.00 1.591
604.10 1.592
604.20 1.592
604.30 1.593
604.40 1.593
604.50 1.593
604.60 1.594
604.70 1.594
604.80 1.595
604.90 1.595
605.00 1.596
605.10 1.596
605.20 1.597
605.30 1.597
605.40 1.597
605.50 1.598
605.60 1.598
605.70 1.599
605.80 1.599
605.90 1.6
606.00 1.6
606.10 1.601
606.20 1.601
606.30 1.601
606.40 1.602
606.50 1.602
606.60 1.603
606.70 1.603
606.80 1.604
606.90 1.604
607.00 1.605
607.10 1.605
607.20 1.605
607.30 1.606
607.40 1.606
607.50 1.607
607.60 1.607
607.70 1.608
607.80 1.608
607.90 1.608
608.00 1.609
608.10 1.609
608.20 1.61
608.30 1.61
608.40 1.611
608.50 1.611
608.60 1.612
608.70 1.612
608.80 1.612
608.90 1.613
609.00 1.613
609.10 1.614
609.20 1.614
609.30 1.615
609.40 1.615
609.50 1.615
609.60 1.616
609.70 1.616
609.80 1.617
609.90 1.617
610.00 1.618
610.10 1.618
610.20 1.618
610.30 1.619
610.40 1.619
610.50 1.62
610.60 1.62
610.70 1.621
610.80 1.621
610.90 1.621
611.00 1.622
611.10 1.622
611.20 1.623
611.30 1.623
611.40 1.623
611.50 1.624
611.60 1.624
611.70 1.625
611.80 1.625
611.90 1.626
612.00 1.626
612.10 1.626
612.20 1.627
612.30 1.627
612.40 1.628
612.50 1.628
612.60 1.629
612.70 1.629
612.80 1.629
612.90 1.63
613.00 1.63
613.10 1.631
613.20 1.631
613.30 1.631
613.40 1.632
613.50 1.632
613.60 1.633
613.70 1.633
613.80 1.634
613.90 1.634
614.00 1.634
614.10 1.635
614.20 1.635
614.30 1.636
614.40 1.636
614.50 1.636
614.60 1.637
614.70 1.637
614.80 1.638
614.90 1.638
615.00 1.639
615.10 1.639
615.20 1.639
615.30 1.64
615.40 1.64
615.50 1.641
615.60 1.641
615.70 1.641
615.80 1.642
615.90 1.642
616.00 1.643
616.10 1.643
616.20 1.643
616.30 1.644
616.40 1.644
616.50 1.645
616.60 1.645
616.70 1.645
616.80 1.646
616.90 1.646
617.00 1.647
617.10 1.647
617.20 1.647
617.30 1.648
617.40 1.648
617.50 1.649
617.60 1.649
617.70 1.649
617.80 1.65
617.90 1.65
618.00 1.651
618.10 1.651
618.20 1.651
618.30 1.652
618.40 1.652
618.50 1.653
618.60 1.653
618.70 1.653
618.80 1.654
618.90 1.654
619.00 1.655
619.10 1.655
619.20 1.655
619.30 1.656
619.40 1.656
619.50 1.657
619.60 1.657
619.70 1.657
619.80 1.658
619.90 1.658
620.00 1.659
620.10 1.659
620.20 1.659
620.30 1.66
620.40 1.66
620.50 1.661
620.60 1.661
620.70 1.661
620.80 1.662
620.90 1.662
621.00 1.663
621.10 1.663
621.20 1.663
621.30 1.664
621.40 1.664
621.50 1.664
621.60 1.665
621.70 1.665
621.80 1.666
621.90 1.666
622.00 1.666
622.10 1.667
622.20 1.667
622.30 1.668
622.40 1.668
622.50 1.668
622.60 1.669
622.70 1.669
622.80 1.669
622.90 1.67
623.00 1.67
623.10 1.671
623.20 1.671
623.30 1.671
623.40 1.672
623.50 1.672
623.60 1.673
623.70 1.673
623.80 1.673
623.90 1.674
624.00 1.674
624.10 1.674
624.20 1.675
624.30 1.675
624.40 1.676
624.50 1.676
624.60 1.676
624.70 1.677
624.80 1.677
624.90 1.677
625.00 1.678
625.10 1.678
625.20 1.679
625.30 1.679
625.40 1.679
625.50 1.68
625.60 1.68
625.70 1.68
625.80 1.681
625.90 1.681
626.00 1.682
626.10 1.682
626.20 1.682
626.30 1.683
626.40 1.683
626.50 1.683
626.60 1.684
626.70 1.684
626.80 1.684
626.90 1.685
627.00 1.685
627.10 1.686
627.20 1.686
627.30 1.686
627.40 1.687
627.50 1.687
627.60 1.687
627.70 1.688
627.80 1.688
627.90 1.688
628.00 1.689
628.10 1.689
628.20 1.69
628.30 1.69
628.40 1.69
628.50 1.691
628.60 1.691
628.70 1.691
628.80 1.692
628.90 1.692
629.00 1.692
629.10 1.693
629.20 1.693
629.30 1.694
629.40 1.694
629.50 1.694
629.60 1.695
629.70 1.695
629.80 1.695
629.90 1.696
630.00 1.696
630.10 1.696
630.20 1.697
630.30 1.697
630.40 1.697
630.50 1.698
630.60 1.698
630.70 1.698
630.80 1.699
630.90 1.699
631.00 1.7
631.10 1.7
631.20 1.7
631.30 1.701
631.40 1.701
631.50 1.701
631.60 1.702
631.70 1.702
631.80 1.702
631.90 1.703
632.00 1.703
632.10 1.703
632.20 1.704
632.30 1.704
632.40 1.704
632.50 1.705
632.60 1.705
632.70 1.705
632.80 1.706
632.90 1.706
633.00 1.706
633.10 1.707
633.20 1.707
633.30 1.707
633.40 1.708
633.50 1.708
633.60 1.708
633.70 1.709
633.80 1.709
633.90 1.709
634.00 1.71
634.10 1.71
634.20 1.711
634.30 1.711
634.40 1.711
634.50 1.712
634.60 1.712
634.70 1.712
634.80 1.713
634.90 1.713
635.00 1.713
635.10 1.714
635.20 1.714
635.30 1.714
635.40 1.715
635.50 1.715
635.60 1.715
635.70 1.715
635.80 1.716
635.90 1.716
636.00 1.716
636.10 1.717
636.20 1.717
636.30 1.717
636.40 1.718
636.50 1.718
636.60 1.718
636.70 1.719
636.80 1.719
636.90 1.719
637.00 1.72
637.10 1.72
637.20 1.72
637.30 1.721
637.40 1.721
637.50 1.721
637.60 1.722
637.70 1.722
637.80 1.722
637.90 1.723
638.00 1.723
638.10 1.723
638.20 1.724
638.30 1.724
638.40 1.724
638.50 1.725
638.60 1.725
638.70 1.725
638.80 1.725
638.90 1.726
639.00 1.726
639.10 1.726
639.20 1.727
639.30 1.727
639.40 1.727
639.50 1.728
639.60 1.728
639.70 1.728
639.80 1.729
639.90 1.729
640.00 1.729
640.10 1.73
640.20 1.73
640.30 1.73
640.40 1.73
640.50 1.731
640.60 1.731
640.70 1.731
640.80 1.732
640.90 1.732
641.00 1.732
641.10 1.733
641.20 1.733
641.30 1.733
641.40 1.734
641.50 1.734
641.60 1.734
641.70 1.734
641.80 1.735
641.90 1.735
642.00 1.735
642.10 1.736
642.20 1.736
642.30 1.736
642.40 1.737
642.50 1.737
642.60 1.737
642.70 1.737
642.80 1.738
642.90 1.738
643.00 1.738
643.10 1.739
643.20 1.739
643.30 1.739
643.40 1.739
643.50 1.74
643.60 1.74
643.70 1.74
643.80 1.741
643.90 1.741
644.00 1.741
644.10 1.741
644.20 1.742
644.30 1.742
644.40 1.742
644.50 1.743
644.60 1.743
644.70 1.743
644.80 1.743
644.90 1.744
645.00 1.744
645.10 1.744
645.20 1.745
645.30 1.745
645.40 1.745
645.50 1.745
645.60 1.746
645.70 1.746
645.80 1.746
645.90 1.747
646.00 1.747
646.10 1.747
646.20 1.747
646.30 1.748
646.40 1.748
646.50 1.748
646.60 1.748
646.70 1.749
646.80 1.749
646.90 1.749
647.00 1.75
647.10 1.75
647.20 1.75
647.30 1.75
647.40 1.751
647.50 1.751
647.60 1.751
647.70 1.751
647.80 1.752
647.90 1.752
648.00 1.752
648.10 1.753
648.20 1.753
648.30 1.753
648.40 1.753
648.50 1.754
648.60 1.754
648.70 1.754
648.80 1.754
648.90 1.755
649.00 1.755
649.10 1.755
649.20 1.755
649.30 1.756
649.40 1.756
649.50 1.756
649.60 1.756
649.70 1.757
649.80 1.757
649.90 1.757
650.00 1.757
650.10 1.758
650.20 1.758
650.30 1.758
650.40 1.759
650.50 1.759
650.60 1.759
650.70 1.759
650.80 1.76
650.90 1.76
651.00 1.76
651.10 1.76
651.20 1.761
651.30 1.761
651.40 1.761
651.50 1.761
651.60 1.762
651.70 1.762
651.80 1.762
651.90 1.762
652.00 1.762
652.10 1.763
652.20 1.763
652.30 1.763
652.40 1.763
652.50 1.764
652.60 1.764
652.70 1.764
652.80 1.764
652.90 1.765
653.00 1.765
653.10 1.765
653.20 1.765
653.30 1.766
653.40 1.766
653.50 1.766
653.60 1.766
653.70 1.767
653.80 1.767
653.90 1.767
654.00 1.767
654.10 1.767
654.20 1.768
654.30 1.768
654.40 1.768
654.50 1.768
654.60 1.769
654.70 1.769
654.80 1.769
654.90 1.769
655.00 1.77
655.10 1.77
655.20 1.77
655.30 1.77
655.40 1.77
655.50 1.771
655.60 1.771
655.70 1.771
655.80 1.771
655.90 1.771
656.00 1.772
656.10 1.772
656.20 1.772
656.30 1.772
656.40 1.773
656.50 1.773
656.60 1.773
656.70 1.773
656.80 1.773
656.90 1.774
657.00 1.774
657.10 1.774
657.20 1.774
657.30 1.774
657.40 1.775
657.50 1.775
657.60 1.775
657.70 1.775
657.80 1.776
657.90 1.776
658.00 1.776
658.10 1.776
658.20 1.776
658.30 1.777
658.40 1.777
658.50 1.777
658.60 1.777
658.70 1.777
658.80 1.778
658.90 1.778
659.00 1.778
659.10 1.778
659.20 1.778
659.30 1.779
659.40 1.779
659.50 1.779
659.60 1.779
659.70 1.779
659.80 1.779
659.90 1.78
660.00 1.78
660.10 1.78
660.20 1.78
660.30 1.78
660.40 1.781
660.50 1.781
660.60 1.781
660.70 1.781
660.80 1.781
660.90 1.782
661.00 1.782
661.10 1.782
661.20 1.782
661.30 1.782
661.40 1.782
661.50 1.783
661.60 1.783
661.70 1.783
661.80 1.783
661.90 1.783
662.00 1.784
662.10 1.784
662.20 1.784
662.30 1.784
662.40 1.784
662.50 1.784
662.60 1.785
662.70 1.785
662.80 1.785
662.90 1.785
663.00 1.785
663.10 1.785
663.20 1.786
663.30 1.786
663.40 1.786
663.50 1.786
663.60 1.786
663.70 1.786
663.80 1.787
663.90 1.787
664.00 1.787
664.10 1.787
664.20 1.787
664.30 1.787
664.40 1.788
664.50 1.788
664.60 1.788
664.70 1.788
664.80 1.788
664.90 1.788
665.00 1.788
665.10 1.789
665.20 1.789
665.30 1.789
665.40 1.789
665.50 1.789
665.60 1.789
665.70 1.789
665.80 1.79
665.90 1.79
666.00 1.79
666.10 1.79
666.20 1.79
666.30 1.79
666.40 1.79
666.50 1.791
666.60 1.791
666.70 1.791
666.80 1.791
666.90 1.791
667.00 1.791
667.10 1.791
667.20 1.792
667.30 1.792
667.40 1.792
667.50 1.792
667.60 1.792
667.70 1.792
667.80 1.792
667.90 1.792
668.00 1.793
668.10 1.793
668.20 1.793
668.30 1.793
668.40 1.793
668.50 1.793
668.60 1.793
668.70 1.793
668.80 1.794
668.90 1.794
669.00 1.794
669.10 1.794
669.20 1.794
669.30 1.794
669.40 1.794
669.50 1.794
669.60 1.794
669.70 1.795
669.80 1.795
669.90 1.795
670.00 1.795
670.10 1.795
670.20 1.795
670.30 1.795
670.40 1.795
670.50 1.795
670.60 1.796
670.70 1.796
670.80 1.796
670.90 1.796
671.00 1.796
671.10 1.796
671.20 1.796
671.30 1.796
671.40 1.796
671.50 1.796
671.60 1.797
671.70 1.797
671.80 1.797
671.90 1.797
672.00 1.797
672.10 1.797
672.20 1.797
672.30 1.797
672.40 1.797
672.50 1.797
672.60 1.797
672.70 1.797
672.80 1.798
672.90 1.798
673.00 1.798
673.10 1.798
673.20 1.798
673.30 1.798
673.40 1.798
673.50 1.798
673.60 1.798
673.70 1.798
673.80 1.798
673.90 1.798
674.00 1.798
674.10 1.799
674.20 1.799
674.30 1.799
674.40 1.799
674.50 1.799
674.60 1.799
674.70 1.799
674.80 1.799
674.90 1.799
675.00 1.799
675.10 1.799
675.20 1.799
675.30 1.799
675.40 1.799
675.50 1.799
675.60 1.799
675.70 1.799
675.80 1.8
675.90 1.8
676.00 1.8
676.10 1.8
676.20 1.8
676.30 1.8
676.40 1.8
676.50 1.8
676.60 1.8
676.70 1.8
676.80 1.8
676.90 1.8
677.00 1.8
677.10 1.8
677.20 1.8
677.30 1.8
677.40 1.8
677.50 1.8
677.60 1.8
677.70 1.8
677.80 1.8
677.90 1.8
678.00 1.8
678.10 1.8
678.20 1.8
678.30 1.8
678.40 1.8
678.50 1.8
678.60 1.8
678.70 1.8
678.80 1.8
678.90 1.8
679.00 1.801
679.10 1.801
679.20 1.801
679.30 1.801
679.40 1.801
679.50 1.801
679.60 1.801
679.70 1.801
679.80 1.801
679.90 1.801
680.00 1.801
680.10 1.801
680.20 1.801
680.30 1.801
680.40 1.801
680.50 1.801
680.60 1.801
680.70 1.801
680.80 1.801
680.90 1.801
681.00 1.801
681.10 1.8
681.20 1.8
681.30 1.8
681.40 1.8
681.50 1.8
681.60 1.8
681.70 1.8
681.80 1.8
681.90 1.8
682.00 1.8
682.10 1.8
682.20 1.8
682.30 1.8
682.40 1.8
682.50 1.8
682.60 1.8
682.70 1.8
682.80 1.8
682.90 1.8
683.00 1.8
683.10 1.8
683.20 1.8
683.30 1.8
683.40 1.8
683.50 1.8
683.60 1.8
683.70 1.8
683.80 1.8
683.90 1.8
684.00 1.8
684.10 1.799
684.20 1.799
684.30 1.799
684.40 1.799
684.50 1.799
684.60 1.799
684.70 1.799
684.80 1.799
684.90 1.799
685.00 1.799
685.10 1.799
685.20 1.799
685.30 1.799
685.40 1.799
685.50 1.799
685.60 1.799
685.70 1.798
685.80 1.798
685.90 1.798
686.00 1.798
686.10 1.798
686.20 1.798
686.30 1.798
686.40 1.798
686.50 1.798
686.60 1.798
686.70 1.798
686.80 1.798
686.90 1.797
687.00 1.797
687.10 1.797
687.20 1.797
687.30 1.797
687.40 1.797
687.50 1.797
687.60 1.797
687.70 1.797
687.80 1.797
687.90 1.796
688.00 1.796
688.10 1.796
688.20 1.796
688.30 1.796
688.40 1.796
688.50 1.796
688.60 1.796
688.70 1.796
688.80 1.795
688.90 1.795
689.00 1.795
689.10 1.795
689.20 1.795
689.30 1.795
689.40 1.795
689.50 1.794
689.60 1.794
689.70 1.794
689.80 1.794
689.90 1.794
690.00 1.794
690.10 1.793
690.20 1.793
690.30 1.793
690.40 1.793
690.50 1.793
690.60 1.793
690.70 1.792
690.80 1.792
690.90 1.792
691.00 1.792
691.10 1.792
691.20 1.791
691.30 1.791
691.40 1.791
691.50 1.791
691.60 1.791
691.70 1.791
691.80 1.79
691.90 1.79
692.00 1.79
692.10 1.79
692.20 1.79
692.30 1.79
692.40 1.789
692.50 1.789
692.60 1.789
692.70 1.789
692.80 1.789
692.90 1.788
693.00 1.788
693.10 1.788
693.20 1.788
693.30 1.788
693.40 1.788
693.50 1.787
693.60 1.787
693.70 1.787
693.80 1.787
693.90 1.787
694.00 1.787
694.10 1.786
694.20 1.786
694.30 1.786
694.40 1.786
694.50 1.786
694.60 1.786
694.70 1.785
694.80 1.785
694.90 1.785
695.00 1.785
695.10 1.785
695.20 1.784
695.30 1.784
695.40 1.784
695.50 1.784
695.60 1.783
695.70 1.783
695.80 1.783
695.90 1.782
696.00 1.782
696.10 1.782
696.20 1.782
696.30 1.781
696.40 1.781
696.50 1.781
696.60 1.781
696.70 1.78
696.80 1.78
696.90 1.78
697.00 1.78
697.10 1.779
697.20 1.779
697.30 1.779
697.40 1.779
697.50 1.778
697.60 1.778
697.70 1.778
697.80 1.777
697.90 1.777
698.00 1.777
698.10 1.777
698.20 1.776
698.30 1.776
698.40 1.776
698.50 1.776
698.60 1.775
698.70 1.775
698.80 1.775
698.90 1.775
699.00 1.774
699.10 1.774
699.20 1.774
699.30 1.774
699.40 1.773
699.50 1.773
699.60 1.773
699.70 1.773
699.80 1.772
699.90 1.772
700.00 1.772
700.10 1.771
700.20 1.771
700.30 1.771
700.40 1.77
700.50 1.77
700.60 1.77
700.70 1.769
700.80 1.769
700.90 1.769
701.00 1.768
701.10 1.768
701.20 1.768
701.30 1.767
701.40 1.767
701.50 1.767
701.60 1.766
701.70 1.766
701.80 1.765
701.90 1.765
702.00 1.765
702.10 1.764
702.20 1.764
702.30 1.764
702.40 1.763
702.50 1.763
702.60 1.763
702.70 1.762
702.80 1.762
702.90 1.762
703.00 1.761
703.10 1.761
703.20 1.761
703.30 1.76
703.40 1.76
703.50 1.76
703.60 1.759
703.70 1.759
703.80 1.759
703.90 1.758
704.00 1.758
704.10 1.758
704.20 1.757
704.30 1.757
704.40 1.756
704.50 1.756
704.60 1.756
704.70 1.755
704.80 1.755
704.90 1.755
705.00 1.754
705.10 1.754
705.20 1.754
705.30 1.753
705.40 1.753
705.50 1.752
705.60 1.752
705.70 1.751
705.80 1.751
705.90 1.751
706.00 1.75
706.10 1.75
706.20 1.749
706.30 1.749
706.40 1.748
706.50 1.748
706.60 1.748
706.70 1.747
706.80 1.747
706.90 1.746
707.00 1.746
707.10 1.745
707.20 1.745
707.30 1.745
707.40 1.744
707.50 1.744
707.60 1.743
707.70 1.743
707.80 1.742
707.90 1.742
708.00 1.742
708.10 1.741
708.20 1.741
708.30 1.74
708.40 1.74
708.50 1.739
708.60 1.739
708.70 1.739
708.80 1.738
708.90 1.738
709.00 1.737
709.10 1.737
709.20 1.736
709.30 1.736
709.40 1.736
709.50 1.735
709.60 1.735
709.70 1.734
709.80 1.734
709.90 1.733
710.00 1.733
710.10 1.733
710.20 1.732
710.30 1.732
710.40 1.731
710.50 1.731
710.60 1.73
710.70 1.73
710.80 1.729
710.90 1.729
711.00 1.728
711.10 1.728
711.20 1.727
711.30 1.727
711.40 1.726
711.50 1.726
711.60 1.725
711.70 1.725
711.80 1.724
711.90 1.724
712.00 1.723
712.10 1.723
712.20 1.722
712.30 1.722
712.40 1.721
712.50 1.721
712.60 1.72
712.70 1.72
712.80 1.719
712.90 1.719
713.00 1.718
713.10 1.718
713.20 1.717
713.30 1.717
713.40 1.716
713.50 1.716
713.60 1.715
713.70 1.715
713.80 1.714
713.90 1.714
714.00 1.713
714.10 1.713
714.20 1.712
714.30 1.712
714.40 1.711
714.50 1.711
714.60 1.71
714.70 1.71
714.80 1.709
714.90 1.709
715.00 1.708
715.10 1.708
715.20 1.707
715.30 1.706
715.40 1.706
715.50 1.705
715.60 1.705
715.70 1.704
715.80 1.704
715.90 1.703
716.00 1.702
716.10 1.702
716.20 1.701
716.30 1.701
716.40 1.7
716.50 1.7
716.60 1.699
716.70 1.698
716.80 1.698
716.90 1.697
717.00 1.697
717.10 1.696
717.20 1.696
717.30 1.695
717.40 1.695
717.50 1.694
717.60 1.693
717.70 1.693
717.80 1.692
717.90 1.692
718.00 1.691
718.10 1.691
718.20 1.69
718.30 1.69
718.40 1.689
718.50 1.688
718.60 1.688
718.70 1.687
718.80 1.687
718.90 1.686
719.00 1.686
719.10 1.685
719.20 1.685
719.30 1.684
719.40 1.683
719.50 1.683
719.60 1.682
719.70 1.682
719.80 1.681
719.90 1.681
720.00 1.68
720.10 1.679
720.20 1.679
720.30 1.678
720.40 1.678
720.50 1.677
720.60 1.676
720.70 1.676
720.80 1.675
720.90 1.675
721.00 1.674
721.10 1.673
721.20 1.673
721.30 1.672
721.40 1.672
721.50 1.671
721.60 1.671
721.70 1.67
721.80 1.669
721.90 1.669
722.00 1.668
722.10 1.668
722.20 1.667
722.30 1.666
722.40 1.666
722.50 1.665
722.60 1.665
722.70 1.664
722.80 1.663
722.90 1.663
723.00 1.662
723.10 1.662
723.20 1.661
723.30 1.66
723.40 1.66
723.50 1.659
723.60 1.659
723.70 1.658
723.80 1.658
723.90 1.657
724.00 1.656
724.10 1.656
724.20 1.655
724.30 1.655
724.40 1.654
724.50 1.653
724.60 1.653
724.70 1.652
724.80 1.652
724.90 1.651
725.00 1.65
725.10 1.65
725.20 1.649
725.30 1.649
725.40 1.648
725.50 1.647
725.60 1.647
725.70 1.646
725.80 1.646
725.90 1.645
726.00 1.644
726.10 1.644
726.20 1.643
726.30 1.643
726.40 1.642
726.50 1.641
726.60 1.641
726.70 1.64
726.80 1.64
726.90 1.639
727.00 1.638
727.10 1.638
727.20 1.637
727.30 1.637
727.40 1.636
727.50 1.635
727.60 1.635
727.70 1.634
727.80 1.634
727.90 1.633
728.00 1.632
728.10 1.632
728.20 1.631
728.30 1.631
728.40 1.63
728.50 1.629
728.60 1.629
728.70 1.628
728.80 1.628
728.90 1.627
729.00 1.626
729.10 1.626
729.20 1.625
729.30 1.625
729.40 1.624
729.50 1.623
729.60 1.623
729.70 1.622
729.80 1.622
729.90 1.621
730.00 1.621
730.10 1.62
730.20 1.619
730.30 1.619
730.40 1.618
730.50 1.618
730.60 1.617
730.70 1.617
730.80 1.616
730.90 1.616
731.00 1.615
731.10 1.614
731.20 1.614
731.30 1.613
731.40 1.613
731.50 1.612
731.60 1.612
731.70 1.611
731.80 1.611
731.90 1.61
732.00 1.609
732.10 1.609
732.20 1.608
732.30 1.608
732.40 1.607
732.50 1.607
732.60 1.606
732.70 1.606
732.80 1.605
732.90 1.605
733.00 1.604
733.10 1.603
733.20 1.603
733.30 1.602
733.40 1.602
733.50 1.601
733.60 1.601
733.70 1.6
733.80 1.6
733.90 1.599
734.00 1.599
734.10 1.598
734.20 1.597
734.30 1.597
734.40 1.596
734.50 1.596
734.60 1.595
734.70 1.595
734.80 1.594
734.90 1.594
735.00 1.593
735.10 1.593
735.20 1.592
735.30 1.592
735.40 1.591
735.50 1.59
735.60 1.59
735.70 1.589
735.80 1.589
735.90 1.588
736.00 1.588
736.10 1.587
736.20 1.587
736.30 1.586
736.40 1.586
736.50 1.585
736.60 1.585
736.70 1.584
736.80 1.583
736.90 1.583
737.00 1.582
737.10 1.582
737.20 1.581
737.30 1.581
737.40 1.58
737.50 1.58
737.60 1.579
737.70 1.579
737.80 1.578
737.90 1.578
738.00 1.577
738.10 1.577
738.20 1.576
738.30 1.575
738.40 1.575
738.50 1.574
738.60 1.574
738.70 1.573
738.80 1.573
738.90 1.572
739.00 1.572
739.10 1.571
739.20 1.571
739.30 1.57
739.40 1.57
739.50 1.569
739.60 1.569
739.70 1.568
739.80 1.567
739.90 1.567
740.00 1.566
740.10 1.566
740.20 1.566
740.30 1.565
740.40 1.565
740.50 1.564
740.60 1.564
740.70 1.563
740.80 1.563
740.90 1.563
741.00 1.562
741.10 1.562
741.20 1.561
741.30 1.561
741.40 1.56
741.50 1.56
741.60 1.56
741.70 1.559
741.80 1.559
741.90 1.558
742.00 1.558
742.10 1.557
742.20 1.557
742.30 1.557
742.40 1.556
742.50 1.556
742.60 1.555
742.70 1.555
742.80 1.555
742.90 1.554
743.00 1.554
743.10 1.553
743.20 1.553
743.30 1.552
743.40 1.552
743.50 1.552
743.60 1.551
743.70 1.551
743.80 1.55
743.90 1.55
744.00 1.549
744.10 1.549
744.20 1.549
744.30 1.548
744.40 1.548
744.50 1.547
744.60 1.547
744.70 1.547
744.80 1.546
744.90 1.546
745.00 1.545
745.10 1.545
745.20 1.544
745.30 1.544
745.40 1.544
745.50 1.543
745.60 1.543
745.70 1.542
745.80 1.542
745.90 1.542
746.00 1.541
746.10 1.541
746.20 1.54
746.30 1.54
746.40 1.539
746.50 1.539
746.60 1.539
746.70 1.538
746.80 1.538
746.90 1.537
747.00 1.537
747.10 1.537
747.20 1.536
747.30 1.536
747.40 1.535
747.50 1.535
747.60 1.534
747.70 1.534
747.80 1.534
747.90 1.533
748.00 1.533
748.10 1.532
748.20 1.532
748.30 1.532
748.40 1.531
748.50 1.531
748.60 1.53
748.70 1.53
748.80 1.53
748.90 1.529
749.00 1.529
749.10 1.528
749.20 1.528
749.30 1.527
749.40 1.527
749.50 1.527
749.60 1.526
749.70 1.526
749.80 1.525
749.90 1.525
750.00 1.525
750.10 1.524
750.20 1.524
750.30 1.524
750.40 1.523
750.50 1.523
750.60 1.523
750.70 1.522
750.80 1.522
750.90 1.522
751.00 1.521
751.10 1.521
751.20 1.521
751.30 1.52
751.40 1.52
751.50 1.52
751.60 1.519
751.70 1.519
751.80 1.519
751.90 1.518
752.00 1.518
752.10 1.518
752.20 1.517
752.30 1.517
752.40 1.517
752.50 1.516
752.60 1.516
752.70 1.516
752.80 1.515
752.90 1.515
753.00 1.515
753.10 1.514
753.20 1.514
753.30 1.514
753.40 1.513
753.50 1.513
753.60 1.513
753.70 1.512
753.80 1.512
753.90 1.512
754.00 1.511
754.10 1.511
754.20 1.511
754.30 1.51
754.40 1.51
754.50 1.51
754.60 1.509
754.70 1.509
754.80 1.509
754.90 1.508
755.00 1.508
755.10 1.508
755.20 1.508
755.30 1.507
755.40 1.507
755.50 1.507
755.60 1.506
755.70 1.506
755.80 1.506
755.90 1.505
756.00 1.505
756.10 1.505
756.20 1.504
756.30 1.504
756.40 1.504
756.50 1.503
756.60 1.503
756.70 1.503
756.80 1.502
756.90 1.502
757.00 1.502
757.10 1.501
757.20 1.501
757.30 1.501
757.40 1.5
757.50 1.5
757.60 1.5
757.70 1.499
757.80 1.499
757.90 1.499
758.00 1.498
758.10 1.498
758.20 1.498
758.30 1.498
758.40 1.497
758.50 1.497
758.60 1.497
758.70 1.496
758.80 1.496
758.90 1.496
759.00 1.495
759.10 1.495
759.20 1.495
759.30 1.494
759.40 1.494
759.50 1.494
759.60 1.493
759.70 1.493
759.80 1.493
759.90 1.492
760.00 1.492
760.10 1.492
760.20 1.492
760.30 1.491
760.40 1.491
760.50 1.491
760.60 1.49
760.70 1.49
760.80 1.49
760.90 1.49
761.00 1.489
761.10 1.489
761.20 1.489
761.30 1.489
761.40 1.488
761.50 1.488
761.60 1.488
761.70 1.488
761.80 1.487
761.90 1.487
762.00 1.487
762.10 1.486
762.20 1.486
762.30 1.486
762.40 1.486
762.50 1.485
762.60 1.485
762.70 1.485
762.80 1.485
762.90 1.484
763.00 1.484
763.10 1.484
763.20 1.484
763.30 1.483
763.40 1.483
763.50 1.483
763.60 1.482
763.70 1.482
763.80 1.482
763.90 1.482
764.00 1.481
764.10 1.481
764.20 1.481
764.30 1.481
764.40 1.48
764.50 1.48
764.60 1.48
764.70 1.48
764.80 1.479
764.90 1.479
765.00 1.479
765.10 1.479
765.20 1.478
765.30 1.478
765.40 1.478
765.50 1.477
765.60 1.477
765.70 1.477
765.80 1.477
765.90 1.476
766.00 1.476
766.10 1.476
766.20 1.476
766.30 1.475
766.40 1.475
766.50 1.475
766.60 1.475
766.70 1.474
766.80 1.474
766.90 1.474
767.00 1.474
767.10 1.473
767.20 1.473
767.30 1.473
767.40 1.472
767.50 1.472
767.60 1.472
767.70 1.472
767.80 1.471
767.90 1.471
768.00 1.471
768.10 1.471
768.20 1.47
768.30 1.47
768.40 1.47
768.50 1.47
768.60 1.469
768.70 1.469
768.80 1.469
768.90 1.469
769.00 1.468
769.10 1.468
769.20 1.468
769.30 1.468
769.40 1.467
769.50 1.467
769.60 1.467
769.70 1.466
769.80 1.466
769.90 1.466
770.00 1.466
770.10 1.466
770.20 1.465
770.30 1.465
770.40 1.465
770.50 1.465
770.60 1.465
770.70 1.464
770.80 1.464
770.90 1.464
771.00 1.464
771.10 1.464
771.20 1.464
771.30 1.463
771.40 1.463
771.50 1.463
771.60 1.463
771.70 1.463
771.80 1.463
771.90 1.462
772.00 1.462
772.10 1.462
772.20 1.462
772.30 1.462
772.40 1.462
772.50 1.461
772.60 1.461
772.70 1.461
772.80 1.461
772.90 1.461
773.00 1.461
773.10 1.46
773.20 1.46
773.30 1.46
773.40 1.46
773.50 1.46
773.60 1.459
773.70 1.459
773.80 1.459
773.90 1.459
774.00 1.459
774.10 1.459
774.20 1.458
774.30 1.458
774.40 1.458
774.50 1.458
774.60 1.458
774.70 1.458
774.80 1.457
774.90 1.457
775.00 1.457
775.10 1.457
775.20 1.457
775.30 1.457
775.40 1.456
775.50 1.456
775.60 1.456
775.70 1.456
775.80 1.456
775.90 1.456
776.00 1.455
776.10 1.455
776.20 1.455
776.30 1.455
776.40 1.455
776.50 1.455
776.60 1.454
776.70 1.454
776.80 1.454
776.90 1.454
777.00 1.454
777.10 1.453
777.20 1.453
777.30 1.453
777.40 1.453
777.50 1.453
777.60 1.453
777.70 1.452
777.80 1.452
777.90 1.452
778.00 1.452
778.10 1.452
778.20 1.452
778.30 1.451
778.40 1.451
778.50 1.451
778.60 1.451
778.70 1.451
778.80 1.451
778.90 1.45
779.00 1.45
779.10 1.45
779.20 1.45
779.30 1.45
779.40 1.45
779.50 1.449
779.60 1.449
779.70 1.449
779.80 1.449
779.90 1.449
780.00 1.449
780.10 1.449
780.20 1.448
780.30 1.448
780.40 1.448
780.50 1.448
780.60 1.448
780.70 1.448
780.80 1.448
780.90 1.448
781.00 1.448
781.10 1.448
781.20 1.448
781.30 1.448
781.40 1.448
781.50 1.448
781.60 1.448
781.70 1.448
781.80 1.448
781.90 1.447
782.00 1.447
782.10 1.447
782.20 1.447
782.30 1.447
782.40 1.447
782.50 1.447
782.60 1.447
782.70 1.447
782.80 1.447
782.90 1.447
783.00 1.447
783.10 1.447
783.20 1.447
783.30 1.447
783.40 1.447
783.50 1.447
783.60 1.446
783.70 1.446
783.80 1.446
783.90 1.446
784.00 1.446
784.10 1.446
784.20 1.446
784.30 1.446
784.40 1.446
784.50 1.446
784.60 1.446
784.70 1.446
784.80 1.446
784.90 1.446
785.00 1.446
785.10 1.446
785.20 1.446
785.30 1.445
785.40 1.445
785.50 1.445
785.60 1.445
785.70 1.445
785.80 1.445
785.90 1.445
786.00 1.445
786.10 1.445
786.20 1.445
786.30 1.445
786.40 1.445
786.50 1.445
786.60 1.445
786.70 1.445
786.80 1.445
786.90 1.445
787.00 1.445
787.10 1.444
787.20 1.444
787.30 1.444
787.40 1.444
787.50 1.444
787.60 1.444
787.70 1.444
787.80 1.444
787.90 1.444
788.00 1.444
788.10 1.444
788.20 1.444
788.30 1.444
788.40 1.444
788.50 1.444
788.60 1.444
788.70 1.443
788.80 1.443
788.90 1.443
789.00 1.443
789.10 1.443
789.20 1.443
789.30 1.443
789.40 1.443
789.50 1.443
789.60 1.443
789.70 1.443
789.80 1.443
789.90 1.443
790.00 1.443
790.10 1.443
790.20 1.443
790.30 1.443
790.40 1.443
790.50 1.443
790.60 1.443
790.70 1.443
790.80 1.443
790.90 1.443
791.00 1.442
791.10 1.442
791.20 1.442
791.30 1.442
791.40 1.442
791.50 1.442
791.60 1.442
791.70 1.442
791.80 1.442
791.90 1.442
792.00 1.442
792.10 1.442
792.20 1.442
792.30 1.442
792.40 1.442
792.50 1.442
792.60 1.442
792.70 1.442
792.80 1.442
792.90 1.442
793.00 1.442
793.10 1.442
793.20 1.442
793.30 1.442
793.40 1.442
793.50 1.442
793.60 1.442
793.70 1.442
793.80 1.442
793.90 1.442
794.00 1.442
794.10 1.442
794.20 1.442
794.30 1.442
794.40 1.442
794.50 1.442
794.60 1.442
794.70 1.442
794.80 1.442
794.90 1.442
795.00 1.442
795.10 1.442
795.20 1.441
795.30 1.441
795.40 1.441
795.50 1.441
795.60 1.441
795.70 1.441
795.80 1.441
795.90 1.441
796.00 1.441
796.10 1.441
796.20 1.441
796.30 1.441
796.40 1.441
796.50 1.441
796.60 1.441
796.70 1.441
796.80 1.441
796.90 1.441
797.00 1.441
797.10 1.441
797.20 1.441
797.30 1.441
797.40 1.441
797.50 1.441
797.60 1.441
797.70 1.441
797.80 1.441
797.90 1.441
798.00 1.441
798.10 1.441
798.20 1.441
798.30 1.441
798.40 1.441
798.50 1.441
798.60 1.441
798.70 1.441
798.80 1.441
798.90 1.441
799.00 1.441
799.10 1.44
799.20 1.44
799.30 1.44
799.40 1.44
799.50 1.44
799.60 1.44
799.70 1.44
799.80 1.44
799.90 1.44
800.00 1.44
800.10 1.44
800.20 1.44
800.30 1.44
800.40 1.44
800.50 1.44
800.60 1.44
800.70 1.44
800.80 1.439
800.90 1.439
801.00 1.439
801.10 1.439
801.20 1.439
801.30 1.439
801.40 1.439
801.50 1.439
801.60 1.439
801.70 1.439
801.80 1.438
801.90 1.438
802.00 1.438
802.10 1.438
802.20 1.438
802.30 1.438
802.40 1.438
802.50 1.438
802.60 1.438
802.70 1.438
802.80 1.437
802.90 1.437
803.00 1.437
803.10 1.437
803.20 1.437
803.30 1.437
803.40 1.437
803.50 1.437
803.60 1.437
803.70 1.437
803.80 1.437
803.90 1.436
804.00 1.436
804.10 1.436
804.20 1.436
804.30 1.436
804.40 1.436
804.50 1.436
804.60 1.436
804.70 1.436
804.80 1.436
804.90 1.435
805.00 1.435
805.10 1.435
805.20 1.435
805.30 1.435
805.40 1.435
805.50 1.435
805.60 1.435
805.70 1.435
805.80 1.435
805.90 1.434
806.00 1.434
806.10 1.434
806.20 1.434
806.30 1.434
806.40 1.434
806.50 1.434
806.60 1.434
806.70 1.434
806.80 1.434
806.90 1.433
807.00 1.433
807.10 1.433
807.20 1.433
807.30 1.433
807.40 1.433
807.50 1.433
807.60 1.433
807.70 1.433
807.80 1.433
807.90 1.432
808.00 1.432
808.10 1.432
808.20 1.432
808.30 1.432
808.40 1.432
808.50 1.432
808.60 1.432
808.70 1.432
808.80 1.432
808.90 1.432
809.00 1.431
809.10 1.431
809.20 1.431
809.30 1.431
809.40 1.431
809.50 1.431
809.60 1.431
809.70 1.431
809.80 1.431
809.90 1.431
810.00 1.43
810.10 1.43
810.20 1.43
810.30 1.43
810.40 1.43
810.50 1.429
810.60 1.429
810.70 1.429
810.80 1.429
810.90 1.429
811.00 1.428
811.10 1.428
811.20 1.428
811.30 1.428
811.40 1.428
811.50 1.427
811.60 1.427
811.70 1.427
811.80 1.427
811.90 1.427
812.00 1.426
812.10 1.426
812.20 1.426
812.30 1.426
812.40 1.426
812.50 1.425
812.60 1.425
812.70 1.425
812.80 1.425
812.90 1.425
813.00 1.424
813.10 1.424
813.20 1.424
813.30 1.424
813.40 1.424
813.50 1.424
813.60 1.423
813.70 1.423
813.80 1.423
813.90 1.423
814.00 1.423
814.10 1.422
814.20 1.422
814.30 1.422
814.40 1.422
814.50 1.422
814.60 1.421
814.70 1.421
814.80 1.421
814.90 1.421
815.00 1.421
815.10 1.42
815.20 1.42
815.30 1.42
815.40 1.42
815.50 1.42
815.60 1.419
815.70 1.419
815.80 1.419
815.90 1.419
816.00 1.419
816.10 1.418
816.20 1.418
816.30 1.418
816.40 1.418
816.50 1.418
816.60 1.417
816.70 1.417
816.80 1.417
816.90 1.417
817.00 1.417
817.10 1.416
817.20 1.416
817.30 1.416
817.40 1.416
817.50 1.416
817.60 1.415
817.70 1.415
817.80 1.415
817.90 1.415
818.00 1.415
818.10 1.415
818.20 1.414
818.30 1.414
818.40 1.414
818.50 1.414
818.60 1.414
818.70 1.413
818.80 1.413
818.90 1.413
819.00 1.413
819.10 1.413
819.20 1.412
819.30 1.412
819.40 1.412
819.50 1.412
819.60 1.412
819.70 1.411
819.80 1.411
819.90 1.411
820.00 1.411
820.10 1.411
820.20 1.41
820.30 1.41
820.40 1.41
820.50 1.41
820.60 1.409
820.70 1.409
820.80 1.409
820.90 1.409
821.00 1.408
821.10 1.408
821.20 1.408
821.30 1.408
821.40 1.408
821.50 1.407
821.60 1.407
821.70 1.407
821.80 1.407
821.90 1.406
822.00 1.406
822.10 1.406
822.20 1.406
822.30 1.405
822.40 1.405
822.50 1.405
822.60 1.405
822.70 1.404
822.80 1.404
822.90 1.404
823.00 1.404
823.10 1.403
823.20 1.403
823.30 1.403
823.40 1.403
823.50 1.402
823.60 1.402
823.70 1.402
823.80 1.402
823.90 1.401
824.00 1.401
824.10 1.401
824.20 1.4
824.30 1.4
824.40 1.4
824.50 1.4
824.60 1.399
824.70 1.399
824.80 1.399
824.90 1.399
825.00 1.398
825.10 1.398
825.20 1.398
825.30 1.398
825.40 1.397
825.50 1.397
825.60 1.397
825.70 1.397
825.80 1.396
825.90 1.396
826.00 1.396
826.10 1.396
826.20 1.395
826.30 1.395
826.40 1.395
826.50 1.395
826.60 1.394
826.70 1.394
826.80 1.394
826.90 1.394
827.00 1.393
827.10 1.393
827.20 1.393
827.30 1.393
827.40 1.392
827.50 1.392
827.60 1.392
827.70 1.391
827.80 1.391
827.90 1.391
828.00 1.391
828.10 1.39
828.20 1.39
828.30 1.39
828.40 1.389
828.50 1.389
828.60 1.389
828.70 1.389
828.80 1.388
828.90 1.388
829.00 1.388
829.10 1.388
829.20 1.387
829.30 1.387
829.40 1.387
829.50 1.386
829.60 1.386
829.70 1.386
829.80 1.386
829.90 1.385
830.00 1.385
830.10 1.385
830.20 1.385
830.30 1.384
830.40 1.384
830.50 1.384
830.60 1.383
830.70 1.383
830.80 1.383
830.90 1.383
831.00 1.382
831.10 1.382
831.20 1.382
831.30 1.382
831.40 1.381
831.50 1.381
831.60 1.381
831.70 1.38
831.80 1.38
831.90 1.38
832.00 1.38
832.10 1.379
832.20 1.379
832.30 1.379
832.40 1.379
832.50 1.378
832.60 1.378
832.70 1.378
832.80 1.377
832.90 1.377
833.00 1.377
833.10 1.377
833.20 1.376
833.30 1.376
833.40 1.376
833.50 1.375
833.60 1.375
833.70 1.375
833.80 1.375
833.90 1.374
834.00 1.374
834.10 1.374
834.20 1.373
834.30 1.373
834.40 1.373
834.50 1.373
834.60 1.372
834.70 1.372
834.80 1.372
834.90 1.371
835.00 1.371
835.10 1.371
835.20 1.371
835.30 1.37
835.40 1.37
835.50 1.37
835.60 1.369
835.70 1.369
835.80 1.369
835.90 1.369
836.00 1.368
836.10 1.368
836.20 1.368
836.30 1.367
836.40 1.367
836.50 1.367
836.60 1.367
836.70 1.366
836.80 1.366
836.90 1.366
837.00 1.365
837.10 1.365
837.20 1.365
837.30 1.365
837.40 1.364
837.50 1.364
837.60 1.364
837.70 1.363
837.80 1.363
837.90 1.363
838.00 1.362
838.10 1.362
838.20 1.362
838.30 1.362
838.40 1.361
838.50 1.361
838.60 1.361
838.70 1.36
838.80 1.36
838.90 1.36
839.00 1.359
839.10 1.359
839.20 1.359
839.30 1.359
839.40 1.358
839.50 1.358
839.60 1.358
839.70 1.357
839.80 1.357
839.90 1.357
840.00 1.356
840.10 1.356
840.20 1.356
840.30 1.356
840.40 1.355
840.50 1.355
840.60 1.355
840.70 1.354
840.80 1.354
840.90 1.354
841.00 1.354
841.10 1.353
841.20 1.353
841.30 1.353
841.40 1.352
841.50 1.352
841.60 1.352
841.70 1.351
841.80 1.351
841.90 1.351
842.00 1.351
842.10 1.35
842.20 1.35
842.30 1.35
842.40 1.349
842.50 1.349
842.60 1.349
842.70 1.348
842.80 1.348
842.90 1.348
843.00 1.348
843.10 1.347
843.20 1.347
843.30 1.347
843.40 1.346
843.50 1.346
843.60 1.346
843.70 1.345
843.80 1.345
843.90 1.345
844.00 1.344
844.10 1.344
844.20 1.344
844.30 1.344
844.40 1.343
844.50 1.343
844.60 1.343
844.70 1.342
844.80 1.342
844.90 1.342
845.00 1.341
845.10 1.341
845.20 1.341
845.30 1.34
845.40 1.34
845.50 1.34
845.60 1.34
845.70 1.339
845.80 1.339
845.90 1.339
846.00 1.338
846.10 1.338
846.20 1.338
846.30 1.337
846.40 1.337
846.50 1.337
846.60 1.336
846.70 1.336
846.80 1.336
846.90 1.336
847.00 1.335
847.10 1.335
847.20 1.335
847.30 1.334
847.40 1.334
847.50 1.334
847.60 1.333
847.70 1.333
847.80 1.333
847.90 1.332
848.00 1.332
848.10 1.332
848.20 1.331
848.30 1.331
848.40 1.331
848.50 1.33
848.60 1.33
848.70 1.33
848.80 1.33
848.90 1.329
849.00 1.329
849.10 1.329
849.20 1.328
849.30 1.328
849.40 1.328
849.50 1.327
849.60 1.327
849.70 1.327
849.80 1.326
849.90 1.326
850.00 1.326
850.10 1.325
850.20 1.325
850.30 1.325
850.40 1.324
850.50 1.324
850.60 1.324
850.70 1.324
850.80 1.323
850.90 1.323
851.00 1.323
851.10 1.322
851.20 1.322
851.30 1.322
851.40 1.321
851.50 1.321
851.60 1.321
851.70 1.32
851.80 1.32
851.90 1.32
852.00 1.319
852.10 1.319
852.20 1.319
852.30 1.318
852.40 1.318
852.50 1.318
852.60 1.317
852.70 1.317
852.80 1.317
852.90 1.316
853.00 1.316
853.10 1.316
853.20 1.315
853.30 1.315
853.40 1.315
853.50 1.314
853.60 1.314
853.70 1.314
853.80 1.313
853.90 1.313
854.00 1.313
854.10 1.312
854.20 1.312
854.30 1.312
854.40 1.311
854.50 1.311
854.60 1.311
854.70 1.31
854.80 1.31
854.90 1.31
855.00 1.309
855.10 1.309
855.20 1.309
855.30 1.308
855.40 1.308
855.50 1.308
855.60 1.307
855.70 1.307
855.80 1.307
855.90 1.306
856.00 1.306
856.10 1.306
856.20 1.305
856.30 1.305
856.40 1.305
856.50 1.304
856.60 1.304
856.70 1.304
856.80 1.303
856.90 1.303
857.00 1.303
857.10 1.302
857.20 1.302
857.30 1.302
857.40 1.301
857.50 1.301
857.60 1.301
857.70 1.3
857.80 1.3
857.90 1.3
858.00 1.299
858.10 1.299
858.20 1.299
858.30 1.298
858.40 1.298
858.50 1.297
858.60 1.297
858.70 1.297
858.80 1.296
858.90 1.296
859.00 1.296
859.10 1.295
859.20 1.295
859.30 1.295
859.40 1.294
859.50 1.294
859.60 1.294
859.70 1.293
859.80 1.293
859.90 1.293
860.00 1.292
860.10 1.292
860.20 1.292
860.30 1.291
860.40 1.291
860.50 1.291
860.60 1.29
860.70 1.29
860.80 1.289
860.90 1.289
861.00 1.289
861.10 1.288
861.20 1.288
861.30 1.288
861.40 1.287
861.50 1.287
861.60 1.287
861.70 1.286
861.80 1.286
861.90 1.286
862.00 1.285
862.10 1.285
862.20 1.285
862.30 1.284
862.40 1.284
862.50 1.283
862.60 1.283
862.70 1.283
862.80 1.282
862.90 1.282
863.00 1.282
863.10 1.281
863.20 1.281
863.30 1.281
863.40 1.28
863.50 1.28
863.60 1.279
863.70 1.279
863.80 1.279
863.90 1.278
864.00 1.278
864.10 1.278
864.20 1.277
864.30 1.277
864.40 1.276
864.50 1.276
864.60 1.276
864.70 1.275
864.80 1.275
864.90 1.275
865.00 1.274
865.10 1.274
865.20 1.274
865.30 1.273
865.40 1.273
865.50 1.272
865.60 1.272
865.70 1.272
865.80 1.271
865.90 1.271
866.00 1.271
866.10 1.27
866.20 1.27
866.30 1.27
866.40 1.269
866.50 1.269
866.60 1.268
866.70 1.268
866.80 1.268
866.90 1.267
867.00 1.267
867.10 1.267
867.20 1.266
867.30 1.266
867.40 1.265
867.50 1.265
867.60 1.265
867.70 1.264
867.80 1.264
867.90 1.263
868.00 1.263
868.10 1.263
868.20 1.262
868.30 1.262
868.40 1.261
868.50 1.261
868.60 1.261
868.70 1.26
868.80 1.26
868.90 1.259
869.00 1.259
869.10 1.259
869.20 1.258
869.30 1.258
869.40 1.257
869.50 1.257
869.60 1.257
869.70 1.256
869.80 1.256
869.90 1.256
870.00 1.255
870.10 1.255
870.20 1.254
870.30 1.254
870.40 1.254
870.50 1.253
870.60 1.253
870.70 1.252
870.80 1.252
870.90 1.252
871.00 1.251
871.10 1.251
871.20 1.25
871.30 1.25
871.40 1.25
871.50 1.249
871.60 1.249
871.70 1.248
871.80 1.248
871.90 1.248
872.00 1.247
872.10 1.247
872.20 1.246
872.30 1.246
872.40 1.246
872.50 1.245
872.60 1.245
872.70 1.244
872.80 1.244
872.90 1.243
873.00 1.243
873.10 1.243
873.20 1.242
873.30 1.242
873.40 1.241
873.50 1.241
873.60 1.241
873.70 1.24
873.80 1.24
873.90 1.239
874.00 1.239
874.10 1.238
874.20 1.238
874.30 1.238
874.40 1.237
874.50 1.237
874.60 1.236
874.70 1.236
874.80 1.235
874.90 1.235
875.00 1.235
875.10 1.234
875.20 1.234
875.30 1.233
875.40 1.233
875.50 1.233
875.60 1.232
875.70 1.232
875.80 1.231
875.90 1.231
876.00 1.23
876.10 1.23
876.20 1.23
876.30 1.229
876.40 1.229
876.50 1.228
876.60 1.228
876.70 1.228
876.80 1.227
876.90 1.227
877.00 1.226
877.10 1.226
877.20 1.225
877.30 1.225
877.40 1.224
877.50 1.224
877.60 1.224
877.70 1.223
877.80 1.223
877.90 1.222
878.00 1.222
878.10 1.221
878.20 1.221
878.30 1.22
878.40 1.22
878.50 1.219
878.60 1.219
878.70 1.218
878.80 1.218
878.90 1.218
879.00 1.217
879.10 1.217
879.20 1.216
879.30 1.216
879.40 1.215
879.50 1.215
879.60 1.214
879.70 1.214
879.80 1.213
879.90 1.213
880.00 1.213
880.10 1.212
880.20 1.212
880.30 1.211
880.40 1.211
880.50 1.21
880.60 1.21
880.70 1.209
880.80 1.209
880.90 1.209
881.00 1.208
881.10 1.208
881.20 1.207
881.30 1.207
881.40 1.206
881.50 1.206
881.60 1.205
881.70 1.205
881.80 1.204
881.90 1.204
882.00 1.204
882.10 1.203
882.20 1.203
882.30 1.202
882.40 1.202
882.50 1.201
882.60 1.201
882.70 1.2
882.80 1.2
882.90 1.199
883.00 1.199
883.10 1.198
883.20 1.198
883.30 1.197
883.40 1.197
883.50 1.196
883.60 1.196
883.70 1.195
883.80 1.195
883.90 1.194
884.00 1.194
884.10 1.193
884.20 1.193
884.30 1.192
884.40 1.192
884.50 1.191
884.60 1.191
884.70 1.19
884.80 1.19
884.90 1.189
885.00 1.189
885.10 1.188
885.20 1.188
885.30 1.187
885.40 1.187
885.50 1.186
885.60 1.186
885.70 1.185
885.80 1.185
885.90 1.184
886.00 1.184
886.10 1.183
886.20 1.183
886.30 1.182
886.40 1.182
886.50 1.182
886.60 1.181
886.70 1.181
886.80 1.18
886.90 1.18
887.00 1.179
887.10 1.179
887.20 1.178
887.30 1.177
887.40 1.177
887.50 1.176
887.60 1.176
887.70 1.175
887.80 1.175
887.90 1.174
888.00 1.174
888.10 1.173
888.20 1.173
888.30 1.172
888.40 1.172
888.50 1.171
888.60 1.171
888.70 1.17
888.80 1.17
888.90 1.169
889.00 1.169
889.10 1.168
889.20 1.168
889.30 1.167
889.40 1.166
889.50 1.166
889.60 1.165
889.70 1.165
889.80 1.164
889.90 1.164
890.00 1.163
890.10 1.163
890.20 1.162
890.30 1.162
890.40 1.161
890.50 1.161
890.60 1.16
890.70 1.16
890.80 1.159
890.90 1.159
891.00 1.158
891.10 1.158
891.20 1.157
891.30 1.157
891.40 1.156
891.50 1.156
891.60 1.155
891.70 1.155
891.80 1.154
891.90 1.153
892.00 1.153
892.10 1.152
892.20 1.152
892.30 1.151
892.40 1.151
892.50 1.15
892.60 1.15
892.70 1.149
892.80 1.149
892.90 1.148
893.00 1.147
893.10 1.147
893.20 1.146
893.30 1.146
893.40 1.145
893.50 1.145
893.60 1.144
893.70 1.144
893.80 1.143
893.90 1.142
894.00 1.142
894.10 1.141
894.20 1.141
894.30 1.14
894.40 1.14
894.50 1.139
894.60 1.139
894.70 1.138
894.80 1.137
894.90 1.137
895.00 1.136
895.10 1.136
895.20 1.135
895.30 1.135
895.40 1.134
895.50 1.134
895.60 1.133
895.70 1.133
895.80 1.132
895.90 1.131
896.00 1.131
896.10 1.13
896.20 1.13
896.30 1.129
896.40 1.129
896.50 1.128
896.60 1.128
896.70 1.127
896.80 1.127
896.90 1.126
897.00 1.125
897.10 1.125
897.20 1.124
897.30 1.124
897.40 1.123
897.50 1.122
897.60 1.122
897.70 1.121
897.80 1.121
897.90 1.12
898.00 1.12
898.10 1.119
898.20 1.118
898.30 1.118
898.40 1.117
898.50 1.117
898.60 1.116
898.70 1.115
898.80 1.115
898.90 1.114
899.00 1.114
899.10 1.113
899.20 1.112
899.30 1.112
899.40 1.111
899.50 1.111
899.60 1.11
899.70 1.109
899.80 1.109
899.90 1.108
900.00 1.108
900.10 1.107
900.20 1.107
900.30 1.106
900.40 1.105
900.50 1.105
900.60 1.104
900.70 1.104
900.80 1.103
900.90 1.102
901.00 1.102
901.10 1.101
901.20 1.101
901.30 1.1
901.40 1.1
901.50 1.099
901.60 1.098
901.70 1.098
901.80 1.097
901.90 1.097
902.00 1.096
902.10 1.095
902.20 1.095
902.30 1.094
902.40 1.093
902.50 1.093
902.60 1.092
902.70 1.092
902.80 1.091
902.90 1.09
903.00 1.09
903.10 1.089
903.20 1.088
903.30 1.088
903.40 1.087
903.50 1.087
903.60 1.086
903.70 1.085
903.80 1.085
903.90 1.084
904.00 1.083
904.10 1.083
904.20 1.082
904.30 1.082
904.40 1.081
904.50 1.08
904.60 1.08
904.70 1.079
904.80 1.078
904.90 1.078
905.00 1.077
905.10 1.077
905.20 1.076
905.30 1.075
905.40 1.075
905.50 1.074
905.60 1.073
905.70 1.073
905.80 1.072
905.90 1.072
906.00 1.071
906.10 1.07
906.20 1.07
906.30 1.069
906.40 1.068
906.50 1.068
906.60 1.067
906.70 1.067
906.80 1.066
906.90 1.065
907.00 1.065
907.10 1.064
907.20 1.063
907.30 1.063
907.40 1.062
907.50 1.062
907.60 1.061
907.70 1.06
907.80 1.06
907.90 1.059
908.00 1.058
908.10 1.058
908.20 1.057
908.30 1.056
908.40 1.056
908.50 1.055
908.60 1.054
908.70 1.054
908.80 1.053
908.90 1.053
909.00 1.052
909.10 1.051
909.20 1.051
909.30 1.05
909.40 1.049
909.50 1.049
909.60 1.048
909.70 1.047
909.80 1.047
909.90 1.046
910.00 1.046
910.10 1.045
910.20 1.044
910.30 1.044
910.40 1.043
910.50 1.042
910.60 1.042
910.70 1.041
910.80 1.04
910.90 1.04
911.00 1.039
911.10 1.039
911.20 1.038
911.30 1.037
911.40 1.037
911.50 1.036
911.60 1.035
911.70 1.035
911.80 1.034
911.90 1.033
912.00 1.033
912.10 1.032
912.20 1.031
912.30 1.031
912.40 1.03
912.50 1.029
912.60 1.029
912.70 1.028
912.80 1.027
912.90 1.027
913.00 1.026
913.10 1.025
913.20 1.025
913.30 1.024
913.40 1.024
913.50 1.023
913.60 1.022
913.70 1.022
913.80 1.021
913.90 1.02
914.00 1.02
914.10 1.019
914.20 1.018
914.30 1.018
914.40 1.017
914.50 1.016
914.60 1.016
914.70 1.015
914.80 1.014
914.90 1.014
915.00 1.013
915.10 1.012
915.20 1.012
915.30 1.011
915.40 1.01
915.50 1.01
915.60 1.009
915.70 1.008
915.80 1.008
915.90 1.007
916.00 1.006
916.10 1.006
916.20 1.005
916.30 1.004
916.40 1.004
916.50 1.003
916.60 1.002
916.70 1.002
916.80 1.001
916.90 1.001
917.00 0.9999
917.10 0.9992
917.20 0.9985
917.30 0.9978
917.40 0.9971
917.50 0.9965
917.60 0.9958
917.70 0.9951
917.80 0.9944
917.90 0.9937
918.00 0.9931
918.10 0.9924
918.20 0.9917
918.30 0.991
918.40 0.9903
918.50 0.9897
918.60 0.989
918.70 0.9883
918.80 0.9876
918.90 0.9869
919.00 0.9863
919.10 0.9856
919.20 0.9849
919.30 0.9842
919.40 0.9836
919.50 0.9829
919.60 0.9822
919.70 0.9815
919.80 0.9808
919.90 0.9802
920.00 0.9795
920.10 0.9788
920.20 0.9781
920.30 0.9775
920.40 0.9768
920.50 0.9761
920.60 0.9754
920.70 0.9748
920.80 0.9741
920.90 0.9734
921.00 0.9728
921.10 0.9721
921.20 0.9714
921.30 0.9707
921.40 0.9701
921.50 0.9694
921.60 0.9687
921.70 0.9681
921.80 0.9674
921.90 0.9667
922.00 0.966
922.10 0.9653
922.20 0.9647
922.30 0.964
922.40 0.9633
922.50 0.9626
922.60 0.9619
922.70 0.9612
922.80 0.9605
922.90 0.9598
923.00 0.9591
923.10 0.9584
923.20 0.9577
923.30 0.957
923.40 0.9564
923.50 0.9557
923.60 0.955
923.70 0.9543
923.80 0.9536
923.90 0.9529
924.00 0.9522
924.10 0.9515
924.20 0.9508
924.30 0.9502
924.40 0.9495
924.50 0.9488
924.60 0.9481
924.70 0.9474
924.80 0.9467
924.90 0.946
925.00 0.9453
925.10 0.9447
925.20 0.944
925.30 0.9433
925.40 0.9426
925.50 0.9419
925.60 0.9412
925.70 0.9406
925.80 0.9399
925.90 0.9392
926.00 0.9385
926.10 0.9378
926.20 0.9371
926.30 0.9365
926.40 0.9358
926.50 0.9351
926.60 0.9344
926.70 0.9337
926.80 0.933
926.90 0.9324
927.00 0.9317
927.10 0.931
927.20 0.9303
927.30 0.9296
927.40 0.9289
927.50 0.9282
927.60 0.9275
927.70 0.9268
927.80 0.9261
927.90 0.9254
928.00 0.9247
928.10 0.924
928.20 0.9233
928.30 0.9226
928.40 0.9219
928.50 0.9212
928.60 0.9205
928.70 0.9198
928.80 0.9191
928.90 0.9184
929.00 0.9177
929.10 0.917
929.20 0.9163
929.30 0.9156
929.40 0.9149
929.50 0.9142
929.60 0.9135
929.70 0.9128
929.80 0.9121
929.90 0.9114
930.00 0.9107
930.10 0.91
930.20 0.9093
930.30 0.9086
930.40 0.9079
930.50 0.9072
930.60 0.9065
930.70 0.9058
930.80 0.9051
930.90 0.9044
931.00 0.9038
931.10 0.9031
931.20 0.9024
931.30 0.9017
931.40 0.901
931.50 0.9003
931.60 0.8996
931.70 0.8989
931.80 0.8982
931.90 0.8975
932.00 0.8968
932.10 0.8961
932.20 0.8954
932.30 0.8947
932.40 0.894
932.50 0.8933
932.60 0.8926
932.70 0.8919
932.80 0.8912
932.90 0.8905
933.00 0.8898
933.10 0.8891
933.20 0.8884
933.30 0.8877
933.40 0.8871
933.50 0.8864
933.60 0.8857
933.70 0.885
933.80 0.8843
933.90 0.8836
934.00 0.8829
934.10 0.8822
934.20 0.8815
934.30 0.8808
934.40 0.8801
934.50 0.8794
934.60 0.8787
934.70 0.878
934.80 0.8773
934.90 0.8766
935.00 0.8759
935.10 0.8752
935.20 0.8745
935.30 0.8738
935.40 0.8731
935.50 0.8724
935.60 0.8717
935.70 0.871
935.80 0.8703
935.90 0.8696
936.00 0.8689
936.10 0.8682
936.20 0.8675
936.30 0.8668
936.40 0.8661
936.50 0.8654
936.60 0.8647
936.70 0.864
936.80 0.8633
936.90 0.8626
937.00 0.8619
937.10 0.8612
937.20 0.8605
937.30 0.8598
937.40 0.8591
937.50 0.8584
937.60 0.8577
937.70 0.857
937.80 0.8563
937.90 0.8556
938.00 0.8549
938.10 0.8542
938.20 0.8536
938.30 0.8529
938.40 0.8521
938.50 0.8514
938.60 0.8507
938.70 0.85
938.80 0.8493
938.90 0.8486
939.00 0.8479
939.10 0.8472
939.20 0.8465
939.30 0.8458
939.40 0.8451
939.50 0.8444
939.60 0.8437
939.70 0.843
939.80 0.8423
939.90 0.8416
940.00 0.8409
940.10 0.8402
940.20 0.8395
940.30 0.8388
940.40 0.8381
940.50 0.8374
940.60 0.8367
940.70 0.836
940.80 0.8353
940.90 0.8346
941.00 0.8339
941.10 0.8332
941.20 0.8325
941.30 0.8318
941.40 0.8311
941.50 0.8304
941.60 0.8297
941.70 0.829
941.80 0.8284
941.90 0.8277
942.00 0.827
942.10 0.8263
942.20 0.8256
942.30 0.8249
942.40 0.8242
942.50 0.8235
942.60 0.8228
942.70 0.8221
942.80 0.8214
942.90 0.8207
943.00 0.82
943.10 0.8193
943.20 0.8186
943.30 0.8179
943.40 0.8173
943.50 0.8166
943.60 0.8159
943.70 0.8152
943.80 0.8145
943.90 0.8138
944.00 0.8131
944.10 0.8124
944.20 0.8117
944.30 0.811
944.40 0.8104
944.50 0.8097
944.60 0.809
944.70 0.8083
944.80 0.8076
944.90 0.8069
945.00 0.8062
945.10 0.8055
945.20 0.8048
945.30 0.8042
945.40 0.8035
945.50 0.8028
945.60 0.8021
945.70 0.8014
945.80 0.8007
945.90 0.8
946.00 0.7993
946.10 0.7987
946.20 0.798
946.30 0.7973
946.40 0.7966
946.50 0.7959
946.60 0.7952
946.70 0.7945
946.80 0.7939
946.90 0.7932
947.00 0.7925
947.10 0.7918
947.20 0.7911
947.30 0.7904
947.40 0.7897
947.50 0.789
947.60 0.7884
947.70 0.7877
947.80 0.787
947.90 0.7863
948.00 0.7856
948.10 0.7849
948.20 0.7842
948.30 0.7835
948.40 0.7828
948.50 0.7821
948.60 0.7815
948.70 0.7808
948.80 0.7801
948.90 0.7794
949.00 0.7787
949.10 0.778
949.20 0.7773
949.30 0.7767
949.40 0.776
949.50 0.7753
949.60 0.7746
949.70 0.7739
949.80 0.7733
949.90 0.7726
950.00 0.7719
950.10 0.7712
950.20 0.7706
950.30 0.7699
950.40 0.7692
950.50 0.7685
950.60 0.7678
950.70 0.7672
950.80 0.7665
950.90 0.7658
951.00 0.7651
951.10 0.7645
951.20 0.7638
951.30 0.7631
951.40 0.7625
951.50 0.7618
951.60 0.7611
951.70 0.7604
951.80 0.7598
951.90 0.7591
952.00 0.7584
952.10 0.7578
952.20 0.7571
952.30 0.7564
952.40 0.7557
952.50 0.7551
952.60 0.7544
952.70 0.7537
952.80 0.7531
952.90 0.7524
953.00 0.7517
953.10 0.7511
953.20 0.7504
953.30 0.7497
953.40 0.7491
953.50 0.7484
953.60 0.7477
953.70 0.7471
953.80 0.7464
953.90 0.7457
954.00 0.7451
954.10 0.7444
954.20 0.7437
954.30 0.7431
954.40 0.7424
954.50 0.7417
954.60 0.7411
954.70 0.7404
954.80 0.7398
954.90 0.7391
955.00 0.7384
955.10 0.7378
955.20 0.7371
955.30 0.7365
955.40 0.7358
955.50 0.7351
955.60 0.7345
955.70 0.7338
955.80 0.7332
955.90 0.7325
956.00 0.7318
956.10 0.7311
956.20 0.7304
956.30 0.7298
956.40 0.7291
956.50 0.7284
956.60 0.7278
956.70 0.7271
956.80 0.7264
956.90 0.7257
957.00 0.7251
957.10 0.7244
957.20 0.7238
957.30 0.7231
957.40 0.7224
957.50 0.7218
957.60 0.7211
957.70 0.7205
957.80 0.7198
957.90 0.7192
958.00 0.7185
958.10 0.7179
958.20 0.7172
958.30 0.7166
958.40 0.7159
958.50 0.7153
958.60 0.7147
958.70 0.714
958.80 0.7134
958.90 0.7127
959.00 0.7121
959.10 0.7114
959.20 0.7108
959.30 0.7101
959.40 0.7095
959.50 0.7088
959.60 0.7082
959.70 0.7076
959.80 0.7069
959.90 0.7063
960.00 0.7056
960.10 0.705
960.20 0.7044
960.30 0.7037
960.40 0.7031
960.50 0.7024
960.60 0.7018
960.70 0.7012
960.80 0.7005
960.90 0.6999
961.00 0.6992
961.10 0.6986
961.20 0.698
961.30 0.6973
961.40 0.6967
961.50 0.6961
961.60 0.6954
961.70 0.6948
961.80 0.6942
961.90 0.6935
962.00 0.6929
962.10 0.6923
962.20 0.6917
962.30 0.691
962.40 0.6904
962.50 0.6898
962.60 0.6891
962.70 0.6885
962.80 0.6879
962.90 0.6873
963.00 0.6866
963.10 0.686
963.20 0.6854
963.30 0.6847
963.40 0.6841
963.50 0.6835
963.60 0.6829
963.70 0.6823
963.80 0.6816
963.90 0.681
964.00 0.6804
964.10 0.6798
964.20 0.6792
964.30 0.6785
964.40 0.6779
964.50 0.6773
964.60 0.6766
964.70 0.676
964.80 0.6754
964.90 0.6748
965.00 0.6741
965.10 0.6735
965.20 0.6729
965.30 0.6723
965.40 0.6716
965.50 0.671
965.60 0.6704
965.70 0.6698
965.80 0.6691
965.90 0.6685
966.00 0.6679
966.10 0.6673
966.20 0.6666
966.30 0.666
966.40 0.6654
966.50 0.6648
966.60 0.6642
966.70 0.6636
966.80 0.663
966.90 0.6624
967.00 0.6618
967.10 0.6612
967.20 0.6606
967.30 0.6599
967.40 0.6593
967.50 0.6587
967.60 0.6581
967.70 0.6575
967.80 0.6569
967.90 0.6563
968.00 0.6557
968.10 0.6551
968.20 0.6545
968.30 0.6539
968.40 0.6533
968.50 0.6527
968.60 0.6522
968.70 0.6516
968.80 0.651
968.90 0.6504
969.00 0.6498
969.10 0.6492
969.20 0.6486
969.30 0.648
969.40 0.6474
969.50 0.6468
969.60 0.6462
969.70 0.6457
969.80 0.6451
969.90 0.6445
970.00 0.6439
970.10 0.6433
970.20 0.6427
970.30 0.6421
970.40 0.6415
970.50 0.641
970.60 0.6404
970.70 0.6398
970.80 0.6392
970.90 0.6386
971.00 0.6381
971.10 0.6375
971.20 0.6369
971.30 0.6363
971.40 0.6357
971.50 0.6352
971.60 0.6346
971.70 0.634
971.80 0.6334
971.90 0.6328
972.00 0.6323
972.10 0.6317
972.20 0.6311
972.30 0.6305
972.40 0.63
972.50 0.6294
972.60 0.6288
972.70 0.6283
972.80 0.6277
972.90 0.6271
973.00 0.6266
973.10 0.626
973.20 0.6254
973.30 0.6249
973.40 0.6243
973.50 0.6237
973.60 0.6232
973.70 0.6226
973.80 0.622
973.90 0.6215
974.00 0.6209
974.10 0.6203
974.20 0.6198
974.30 0.6192
974.40 0.6186
974.50 0.6181
974.60 0.6175
974.70 0.617
974.80 0.6164
974.90 0.6158
975.00 0.6153
975.10 0.6147
975.20 0.6142
975.30 0.6136
975.40 0.6131
975.50 0.6125
975.60 0.6119
975.70 0.6114
975.80 0.6108
975.90 0.6103
976.00 0.6097
976.10 0.6092
976.20 0.6086
976.30 0.6081
976.40 0.6075
976.50 0.6069
976.60 0.6064
976.70 0.6058
976.80 0.6053
976.90 0.6047
977.00 0.6042
977.10 0.6036
977.20 0.6031
977.30 0.6026
977.40 0.602
977.50 0.6015
977.60 0.601
977.70 0.6005
977.80 0.5999
977.90 0.5994
978.00 0.5989
978.10 0.5983
978.20 0.5978
978.30 0.5973
978.40 0.5967
978.50 0.5962
978.60 0.5957
978.70 0.5952
978.80 0.5946
978.90 0.5941
979.00 0.5936
979.10 0.593
979.20 0.5925
979.30 0.592
979.40 0.5915
979.50 0.5909
979.60 0.5904
979.70 0.5899
979.80 0.5894
979.90 0.5888
980.00 0.5883
980.10 0.5878
980.20 0.5873
980.30 0.5867
980.40 0.5862
980.50 0.5857
980.60 0.5852
980.70 0.5846
980.80 0.5841
980.90 0.5836
981.00 0.5831
981.10 0.5825
981.20 0.582
981.30 0.5815
981.40 0.581
981.50 0.5804
981.60 0.5799
981.70 0.5794
981.80 0.5789
981.90 0.5783
982.00 0.5778
982.10 0.5773
982.20 0.5768
982.30 0.5763
982.40 0.5758
982.50 0.5753
982.60 0.5748
982.70 0.5743
982.80 0.5738
982.90 0.5733
983.00 0.5728
983.10 0.5723
983.20 0.5718
983.30 0.5713
983.40 0.5708
983.50 0.5703
983.60 0.5698
983.70 0.5693
983.80 0.5688
983.90 0.5683
984.00 0.5677
984.10 0.5672
984.20 0.5667
984.30 0.5662
984.40 0.5657
984.50 0.5652
984.60 0.5647
984.70 0.5643
984.80 0.5638
984.90 0.5633
985.00 0.5629
985.10 0.5624
985.20 0.5619
985.30 0.5614
985.40 0.561
985.50 0.5605
985.60 0.56
985.70 0.5596
985.80 0.5591
985.90 0.5586
986.00 0.5582
986.10 0.5577
986.20 0.5572
986.30 0.5568
986.40 0.5563
986.50 0.5558
986.60 0.5554
986.70 0.5549
986.80 0.5544
986.90 0.554
987.00 0.5535
987.10 0.553
987.20 0.5525
987.30 0.552
987.40 0.5515
987.50 0.5511
987.60 0.5506
987.70 0.5501
987.80 0.5496
987.90 0.5491
988.00 0.5486
988.10 0.5481
988.20 0.5476
988.30 0.5472
988.40 0.5467
988.50 0.5462
988.60 0.5457
988.70 0.5452
988.80 0.5447
988.90 0.5442
989.00 0.5437
989.10 0.5433
989.20 0.5428
989.30 0.5423
989.40 0.5418
989.50 0.5413
989.60 0.5408
989.70 0.5403
989.80 0.5399
989.90 0.5394
990.00 0.5389
990.10 0.5384
990.20 0.5379
990.30 0.5374
990.40 0.537
990.50 0.5365
990.60 0.536
990.70 0.5355
990.80 0.535
990.90 0.5345
991.00 0.534
991.10 0.5336
991.20 0.5331
991.30 0.5326
991.40 0.5321
991.50 0.5316
991.60 0.5312
991.70 0.5307
991.80 0.5302
991.90 0.5297
992.00 0.5292
992.10 0.5287
992.20 0.5283
992.30 0.5278
992.40 0.5273
992.50 0.5268
992.60 0.5263
992.70 0.5258
992.80 0.5254
992.90 0.5249
993.00 0.5244
993.10 0.5239
993.20 0.5234
993.30 0.523
993.40 0.5225
993.50 0.522
993.60 0.5215
993.70 0.521
993.80 0.5206
993.90 0.5201
994.00 0.5196
994.10 0.5191
994.20 0.5187
994.30 0.5182
994.40 0.5177
994.50 0.5172
994.60 0.5167
994.70 0.5162
994.80 0.5156
994.90 0.515
995.00 0.5144
995.10 0.5139
995.20 0.5133
995.30 0.5127
995.40 0.5121
995.50 0.5116
995.60 0.511
995.70 0.5105
995.80 0.51
995.90 0.5096
996.00 0.5091
996.10 0.5086
996.20 0.5082
996.30 0.5077
996.40 0.5072
996.50 0.5068
996.60 0.5063
996.70 0.5058
996.80 0.5054
996.90 0.5049
997.00 0.5045
997.10 0.504
997.20 0.5035
997.30 0.5031
997.40 0.5026
997.50 0.5022
997.60 0.5017
997.70 0.5013
997.80 0.5008
997.90 0.5004
998.00 0.5
998.10 0.4995
998.20 0.4991
998.30 0.4986
998.40 0.4982
998.50 0.4977
998.60 0.4973
998.70 0.4969
998.80 0.4964
998.90 0.496
999.00 0.4955
999.10 0.4951
999.20 0.4947
999.30 0.4942
999.40 0.4938
999.50 0.4933
999.60 0.4929
999.70 0.4925
999.80 0.492
999.90 0.4916
1000.00 0.4912
1000.10 0.4908
1000.20 0.4903
1000.30 0.4899
1000.40 0.4895
1000.50 0.4891
1000.60 0.4886
1000.70 0.4882
1000.80 0.4878
1000.90 0.4874
1001.00 0.487
1001.10 0.4865
1001.20 0.4861
1001.30 0.4857
1001.40 0.4853
1001.50 0.4848
1001.60 0.4844
1001.70 0.484
1001.80 0.4836
1001.90 0.4832
1002.00 0.4828
1002.10 0.4824
1002.20 0.482
1002.30 0.4815
1002.40 0.4811
1002.50 0.4807
1002.60 0.4803
1002.70 0.4799
1002.80 0.4795
1002.90 0.4791
1003.00 0.4787
1003.10 0.4783
1003.20 0.4779
1003.30 0.4775
1003.40 0.4771
1003.50 0.4767
1003.60 0.4763
1003.70 0.4759
1003.80 0.4755
1003.90 0.4751
1004.00 0.4747
1004.10 0.4743
1004.20 0.474
1004.30 0.4736
1004.40 0.4732
1004.50 0.4728
1004.60 0.4724
1004.70 0.472
1004.80 0.4716
1004.90 0.4711
1005.00 0.4706
1005.10 0.4702
1005.20 0.4698
1005.30 0.4694
1005.40 0.4691
1005.50 0.4687
1005.60 0.4683
1005.70 0.4679
1005.80 0.4676
1005.90 0.4672
1006.00 0.4668
1006.10 0.4664
1006.20 0.4661
1006.30 0.4657
1006.40 0.4653
1006.50 0.4649
1006.60 0.4646
1006.70 0.4642
1006.80 0.4638
1006.90 0.4635
1007.00 0.4631
1007.10 0.4627
1007.20 0.4624
1007.30 0.462
1007.40 0.4617
1007.50 0.4613
1007.60 0.4609
1007.70 0.4606
1007.80 0.4602
1007.90 0.4599
1008.00 0.4595
1008.10 0.4592
1008.20 0.4589
1008.30 0.4585
1008.40 0.4582
1008.50 0.4578
1008.60 0.4575
1008.70 0.4571
1008.80 0.4568
1008.90 0.4564
1009.00 0.4561
1009.10 0.4557
1009.20 0.4554
1009.30 0.455
1009.40 0.4547
1009.50 0.4543
1009.60 0.454
1009.70 0.4537
1009.80 0.4533
1009.90 0.453
1010.00 0.4527
1010.10 0.4524
1010.20 0.452
1010.30 0.4517
1010.40 0.4514
1010.50 0.451
1010.60 0.4507
1010.70 0.4504
1010.80 0.4501
1010.90 0.4497
1011.00 0.4494
1011.10 0.4491
1011.20 0.4488
1011.30 0.4484
1011.40 0.4481
1011.50 0.4478
1011.60 0.4475
1011.70 0.4471
1011.80 0.4468
1011.90 0.4465
1012.00 0.4462
1012.10 0.4459
1012.20 0.4456
1012.30 0.4453
1012.40 0.445
1012.50 0.4446
1012.60 0.4443
1012.70 0.444
1012.80 0.4437
1012.90 0.4434
1013.00 0.4431
1013.10 0.4428
1013.20 0.4425
1013.30 0.4422
1013.40 0.4419
1013.50 0.4416
1013.60 0.4413
1013.70 0.441
1013.80 0.4407
1013.90 0.4404
1014.00 0.4401
1014.10 0.4398
1014.20 0.4395
1014.30 0.4392
1014.40 0.4389
1014.50 0.4386
1014.60 0.4383
1014.70 0.4381
1014.80 0.4378
1014.90 0.4376
1015.00 0.4373
1015.10 0.437
1015.20 0.4368
1015.30 0.4365
1015.40 0.4363
1015.50 0.436
1015.60 0.4358
1015.70 0.4355
1015.80 0.4353
1015.90 0.435
1016.00 0.4348
1016.10 0.4345
1016.20 0.4343
1016.30 0.434
1016.40 0.4337
1016.50 0.4335
1016.60 0.4332
1016.70 0.433
1016.80 0.4327
1016.90 0.4324
1017.00 0.4321
1017.10 0.4319
1017.20 0.4316
1017.30 0.4313
1017.40 0.431
1017.50 0.4308
1017.60 0.4305
1017.70 0.4302
1017.80 0.43
1017.90 0.4297
1018.00 0.4294
1018.10 0.4291
1018.20 0.4289
1018.30 0.4286
1018.40 0.4283
1018.50 0.428
1018.60 0.4278
1018.70 0.4275
1018.80 0.4272
1018.90 0.427
1019.00 0.4267
1019.10 0.4264
1019.20 0.4262
1019.30 0.4259
1019.40 0.4256
1019.50 0.4254
1019.60 0.4251
1019.70 0.4248
1019.80 0.4246
1019.90 0.4243
1020.00 0.4241
1020.10 0.4238
1020.20 0.4235
1020.30 0.4233
1020.40 0.423
1020.50 0.4227
1020.60 0.4225
1020.70 0.4222
1020.80 0.422
1020.90 0.4217
1021.00 0.4214
1021.10 0.4212
1021.20 0.4209
1021.30 0.4207
1021.40 0.4204
1021.50 0.4201
1021.60 0.4199
1021.70 0.4196
1021.80 0.4194
1021.90 0.4191
1022.00 0.4189
1022.10 0.4186
1022.20 0.4184
1022.30 0.4181
1022.40 0.4179
1022.50 0.4176
1022.60 0.4174
1022.70 0.4171
1022.80 0.4169
1022.90 0.4166
1023.00 0.4164
1023.10 0.4161
1023.20 0.4159
1023.30 0.4156
1023.40 0.4154
1023.50 0.4151
1023.60 0.4149
1023.70 0.4146
1023.80 0.4144
1023.90 0.4141
1024.00 0.4139
1024.10 0.4136
1024.20 0.4134
1024.30 0.4131
1024.40 0.4129
1024.50 0.4126
1024.60 0.4124
1024.70 0.4121
1024.80 0.4119
1024.90 0.4117
1025.00 0.4114
1025.10 0.4112
1025.20 0.4109
1025.30 0.4107
1025.40 0.4104
1025.50 0.4102
1025.60 0.41
1025.70 0.4097
1025.80 0.4095
1025.90 0.4092
1026.00 0.409
1026.10 0.4087
1026.20 0.4085
1026.30 0.4083
1026.40 0.408
1026.50 0.4078
1026.60 0.4075
1026.70 0.4073
1026.80 0.4071
1026.90 0.4068
1027.00 0.4066
1027.10 0.4064
1027.20 0.4061
1027.30 0.4059
1027.40 0.4057
1027.50 0.4055
1027.60 0.4052
1027.70 0.405
1027.80 0.4048
1027.90 0.4046
1028.00 0.4043
1028.10 0.4041
1028.20 0.4039
1028.30 0.4037
1028.40 0.4034
1028.50 0.4032
1028.60 0.403
1028.70 0.4028
1028.80 0.4025
1028.90 0.4023
1029.00 0.4021
1029.10 0.4019
1029.20 0.4016
1029.30 0.4014
1029.40 0.4012
1029.50 0.401
1029.60 0.4007
1029.70 0.4005
1029.80 0.4003
1029.90 0.4001
1030.00 0.3999
1030.10 0.3996
1030.20 0.3994
1030.30 0.3992
1030.40 0.399
1030.50 0.3987
1030.60 0.3985
1030.70 0.3983
1030.80 0.3981
1030.90 0.3979
1031.00 0.3976
1031.10 0.3974
1031.20 0.3972
1031.30 0.397
1031.40 0.3967
1031.50 0.3965
1031.60 0.3963
1031.70 0.3961
1031.80 0.3959
1031.90 0.3956
1032.00 0.3954
1032.10 0.3952
1032.20 0.395
1032.30 0.3948
1032.40 0.3946
1032.50 0.3944
1032.60 0.3942
1032.70 0.394
1032.80 0.3938
1032.90 0.3936
1033.00 0.3934
1033.10 0.3931
1033.20 0.3929
1033.30 0.3927
1033.40 0.3925
1033.50 0.3923
1033.60 0.3921
1033.70 0.3919
1033.80 0.3917
1033.90 0.3915
1034.00 0.3913
1034.10 0.3911
1034.20 0.3909
1034.30 0.3907
1034.40 0.3905
1034.50 0.3903
1034.60 0.3901
1034.70 0.3899
1034.80 0.3897
1034.90 0.3895
1035.00 0.3893
1035.10 0.3891
1035.20 0.3889
1035.30 0.3886
1035.40 0.3884
1035.50 0.3882
1035.60 0.388
1035.70 0.3878
1035.80 0.3876
1035.90 0.3874
1036.00 0.3872
1036.10 0.387
1036.20 0.3868
1036.30 0.3866
1036.40 0.3864
1036.50 0.3862
1036.60 0.386
1036.70 0.3858
1036.80 0.3856
1036.90 0.3854
1037.00 0.3852
1037.10 0.385
1037.20 0.3848
1037.30 0.3846
1037.40 0.3845
1037.50 0.3843
1037.60 0.3841
1037.70 0.3839
1037.80 0.3837
1037.90 0.3835
1038.00 0.3834
1038.10 0.3832
1038.20 0.383
1038.30 0.3828
1038.40 0.3826
1038.50 0.3824
1038.60 0.3823
1038.70 0.3821
1038.80 0.3819
1038.90 0.3817
1039.00 0.3815
1039.10 0.3814
1039.20 0.3812
1039.30 0.381
1039.40 0.3808
1039.50 0.3806
1039.60 0.3804
1039.70 0.3803
1039.80 0.3801
1039.90 0.3799
1040.00 0.3797
1040.10 0.3795
1040.20 0.3794
1040.30 0.3792
1040.40 0.379
1040.50 0.3788
1040.60 0.3786
1040.70 0.3784
1040.80 0.3783
1040.90 0.3781
1041.00 0.3779
1041.10 0.3777
1041.20 0.3775
1041.30 0.3774
1041.40 0.3772
1041.50 0.377
1041.60 0.3768
1041.70 0.3766
1041.80 0.3765
1041.90 0.3763
1042.00 0.3761
1042.10 0.3759
1042.20 0.3758
1042.30 0.3756
1042.40 0.3754
1042.50 0.3753
1042.60 0.3751
1042.70 0.375
1042.80 0.3748
1042.90 0.3746
1043.00 0.3745
1043.10 0.3743
1043.20 0.3741
1043.30 0.374
1043.40 0.3738
1043.50 0.3737
1043.60 0.3735
1043.70 0.3733
1043.80 0.3732
1043.90 0.373
1044.00 0.3728
1044.10 0.3727
1044.20 0.3725
1044.30 0.3724
1044.40 0.3722
1044.50 0.372
1044.60 0.3719
1044.70 0.3717
1044.80 0.3715
1044.90 0.3714
1045.00 0.3712
1045.10 0.3711
1045.20 0.3709
1045.30 0.3707
1045.40 0.3706
1045.50 0.3704
1045.60 0.3703
1045.70 0.3701
1045.80 0.3699
1045.90 0.3698
1046.00 0.3696
1046.10 0.3695
1046.20 0.3693
1046.30 0.3691
1046.40 0.369
1046.50 0.3688
1046.60 0.3686
1046.70 0.3685
1046.80 0.3683
1046.90 0.3682
1047.00 0.368
1047.10 0.3679
1047.20 0.3677
1047.30 0.3676
1047.40 0.3674
1047.50 0.3673
1047.60 0.3671
1047.70 0.367
1047.80 0.3669
1047.90 0.3667
1048.00 0.3666
1048.10 0.3664
1048.20 0.3663
1048.30 0.3661
1048.40 0.366
1048.50 0.3659
1048.60 0.3657
1048.70 0.3656
1048.80 0.3654
1048.90 0.3653
1049.00 0.3651
1049.10 0.365
1049.20 0.3649
1049.30 0.3647
1049.40 0.3646
1049.50 0.3644
1049.60 0.3643
1049.70 0.3641
1049.80 0.364
1049.90 0.3639
1050.00 0.3637
1050.10 0.3636
1050.20 0.3634
1050.30 0.3633
1050.40 0.3631
1050.50 0.363
1050.60 0.3629
1050.70 0.3627
1050.80 0.3626
1050.90 0.3624
1051.00 0.3623
1051.10 0.3621
1051.20 0.362
1051.30 0.3619
1051.40 0.3617
1051.50 0.3616
1051.60 0.3614
1051.70 0.3613
1051.80 0.3612
1051.90 0.361
1052.00 0.3609
1052.10 0.3607
1052.20 0.3606
1052.30 0.3605
1052.40 0.3604
1052.50 0.3602
1052.60 0.3601
1052.70 0.36
1052.80 0.3599
1052.90 0.3598
1053.00 0.3596
1053.10 0.3595
1053.20 0.3594
1053.30 0.3593
1053.40 0.3591
1053.50 0.359
1053.60 0.3589
1053.70 0.3588
1053.80 0.3586
1053.90 0.3585
1054.00 0.3584
1054.10 0.3583
1054.20 0.3581
1054.30 0.358
1054.40 0.3579
1054.50 0.3578
1054.60 0.3577
1054.70 0.3575
1054.80 0.3574
1054.90 0.3573
1055.00 0.3572
1055.10 0.357
1055.20 0.3569
1055.30 0.3568
1055.40 0.3567
1055.50 0.3565
1055.60 0.3564
1055.70 0.3563
1055.80 0.3562
1055.90 0.3561
1056.00 0.3559
1056.10 0.3558
1056.20 0.3557
1056.30 0.3556
1056.40 0.3554
1056.50 0.3553
1056.60 0.3552
1056.70 0.3551
1056.80 0.355
1056.90 0.3548
1057.00 0.3547
1057.10 0.3546
1057.20 0.3545
1057.30 0.3544
1057.40 0.3543
1057.50 0.3542
1057.60 0.3541
1057.70 0.354
1057.80 0.3539
1057.90 0.3538
1058.00 0.3537
1058.10 0.3536
1058.20 0.3534
1058.30 0.3533
1058.40 0.3532
1058.50 0.3531
1058.60 0.353
1058.70 0.3529
1058.80 0.3528
1058.90 0.3527
1059.00 0.3526
1059.10 0.3525
1059.20 0.3524
1059.30 0.3523
1059.40 0.3522
1059.50 0.3521
1059.60 0.352
1059.70 0.3519
1059.80 0.3518
1059.90 0.3517
1060.00 0.3516
1060.10 0.3515
1060.20 0.3513
1060.30 0.3512
1060.40 0.3511
1060.50 0.351
1060.60 0.3509
1060.70 0.3508
1060.80 0.3507
1060.90 0.3506
1061.00 0.3505
1061.10 0.3504
1061.20 0.3503
1061.30 0.3502
1061.40 0.3501
1061.50 0.35
1061.60 0.3499
1061.70 0.3498
1061.80 0.3497
1061.90 0.3496
1062.00 0.3495
1062.10 0.3494
1062.20 0.3493
1062.30 0.3492
1062.40 0.3491
1062.50 0.349
1062.60 0.3489
1062.70 0.3488
1062.80 0.3488
1062.90 0.3487
1063.00 0.3486
1063.10 0.3485
1063.20 0.3484
1063.30 0.3483
1063.40 0.3482
1063.50 0.3481
1063.60 0.348
1063.70 0.348
1063.80 0.3479
1063.90 0.3478
1064.00 0.3477
1064.10 0.3476
1064.20 0.3475
1064.30 0.3474
1064.40 0.3473
1064.50 0.3472
1064.60 0.3472
1064.70 0.3471
1064.80 0.347
1064.90 0.3469
1065.00 0.3468
1065.10 0.3467
1065.20 0.3466
1065.30 0.3465
1065.40 0.3464
1065.50 0.3464
1065.60 0.3463
1065.70 0.3462
1065.80 0.3461
1065.90 0.346
1066.00 0.3459
1066.10 0.3458
1066.20 0.3457
1066.30 0.3457
1066.40 0.3456
1066.50 0.3455
1066.60 0.3454
1066.70 0.3453
1066.80 0.3452
1066.90 0.3451
1067.00 0.345
1067.10 0.345
1067.20 0.3449
1067.30 0.3448
1067.40 0.3447
1067.50 0.3447
1067.60 0.3446
1067.70 0.3445
1067.80 0.3445
1067.90 0.3444
1068.00 0.3443
1068.10 0.3442
1068.20 0.3442
1068.30 0.3441
1068.40 0.344
1068.50 0.3439
1068.60 0.3439
1068.70 0.3438
1068.80 0.3437
1068.90 0.3437
1069.00 0.3436
1069.10 0.3435
1069.20 0.3434
1069.30 0.3434
1069.40 0.3433
1069.50 0.3432
1069.60 0.3432
1069.70 0.3431
1069.80 0.343
1069.90 0.3429
1070.00 0.3429
1070.10 0.3428
1070.20 0.3427
1070.30 0.3426
1070.40 0.3426
1070.50 0.3425
1070.60 0.3424
1070.70 0.3424
1070.80 0.3423
1070.90 0.3422
1071.00 0.3421
1071.10 0.3421
1071.20 0.342
1071.30 0.3419
1071.40 0.3419
1071.50 0.3418
1071.60 0.3417
1071.70 0.3416
1071.80 0.3416
1071.90 0.3415
1072.00 0.3414
1072.10 0.3414
1072.20 0.3413
1072.30 0.3412
1072.40 0.3412
1072.50 0.3411
1072.60 0.341
1072.70 0.341
1072.80 0.3409
1072.90 0.3408
1073.00 0.3408
1073.10 0.3407
1073.20 0.3407
1073.30 0.3406
1073.40 0.3405
1073.50 0.3405
1073.60 0.3404
1073.70 0.3403
1073.80 0.3403
1073.90 0.3402
1074.00 0.3402
1074.10 0.3401
1074.20 0.3401
1074.30 0.34
1074.40 0.3399
1074.50 0.3399
1074.60 0.3398
1074.70 0.3398
1074.80 0.3397
1074.90 0.3397
1075.00 0.3396
1075.10 0.3395
1075.20 0.3395
1075.30 0.3394
1075.40 0.3394
1075.50 0.3393
1075.60 0.3393
1075.70 0.3392
1075.80 0.3391
1075.90 0.3391
1076.00 0.339
1076.10 0.339
1076.20 0.3389
1076.30 0.3389
1076.40 0.3388
1076.50 0.3388
1076.60 0.3387
1076.70 0.3386
1076.80 0.3386
1076.90 0.3385
1077.00 0.3385
1077.10 0.3384
1077.20 0.3384
1077.30 0.3383
1077.40 0.3383
1077.50 0.3382
1077.60 0.3382
1077.70 0.3381
1077.80 0.3381
1077.90 0.338
1078.00 0.338
1078.10 0.3379
1078.20 0.3379
1078.30 0.3378
1078.40 0.3378
1078.50 0.3377
1078.60 0.3377
1078.70 0.3376
1078.80 0.3376
1078.90 0.3375
1079.00 0.3375
1079.10 0.3374
1079.20 0.3374
1079.30 0.3373
1079.40 0.3373
1079.50 0.3372
1079.60 0.3372
1079.70 0.3372
1079.80 0.3371
1079.90 0.3371
1080.00 0.337
1080.10 0.337
1080.20 0.337
1080.30 0.3369
1080.40 0.3369
1080.50 0.3368
1080.60 0.3368
1080.70 0.3368
1080.80 0.3367
1080.90 0.3367
1081.00 0.3366
1081.10 0.3366
1081.20 0.3366
1081.30 0.3365
1081.40 0.3365
1081.50 0.3364
1081.60 0.3364
1081.70 0.3364
1081.80 0.3363
1081.90 0.3363
1082.00 0.3362
1082.10 0.3362
1082.20 0.3362
1082.30 0.3361
1082.40 0.3361
1082.50 0.336
1082.60 0.336
1082.70 0.336
1082.80 0.3359
1082.90 0.3359
1083.00 0.3359
1083.10 0.3358
1083.20 0.3358
1083.30 0.3357
1083.40 0.3357
1083.50 0.3357
1083.60 0.3356
1083.70 0.3356
1083.80 0.3356
1083.90 0.3355
1084.00 0.3355
1084.10 0.3355
1084.20 0.3354
1084.30 0.3354
1084.40 0.3353
1084.50 0.3353
1084.60 0.3353
1084.70 0.3353
1084.80 0.3352
1084.90 0.3352
1085.00 0.3352
1085.10 0.3351
1085.20 0.3351
1085.30 0.3351
1085.40 0.335
1085.50 0.335
1085.60 0.335
1085.70 0.3349
1085.80 0.3349
1085.90 0.3349
1086.00 0.3348
1086.10 0.3348
1086.20 0.3348
1086.30 0.3347
1086.40 0.3347
1086.50 0.3347
1086.60 0.3347
1086.70 0.3346
1086.80 0.3346
1086.90 0.3346
1087.00 0.3345
1087.10 0.3345
1087.20 0.3345
1087.30 0.3345
1087.40 0.3344
1087.50 0.3344
1087.60 0.3344
1087.70 0.3344
1087.80 0.3343
1087.90 0.3343
1088.00 0.3343
1088.10 0.3342
1088.20 0.3342
1088.30 0.3342
1088.40 0.3342
1088.50 0.3341
1088.60 0.3341
1088.70 0.3341
1088.80 0.3341
1088.90 0.334
1089.00 0.334
1089.10 0.334
1089.20 0.334
1089.30 0.3339
1089.40 0.3339
1089.50 0.3339
1089.60 0.3339
1089.70 0.3339
1089.80 0.3338
1089.90 0.3338
1090.00 0.3338
1090.10 0.3338
1090.20 0.3337
1090.30 0.3337
1090.40 0.3337
1090.50 0.3337
1090.60 0.3337
1090.70 0.3336
1090.80 0.3336
1090.90 0.3336
1091.00 0.3336
1091.10 0.3336
1091.20 0.3335
1091.30 0.3335
1091.40 0.3335
1091.50 0.3335
1091.60 0.3335
1091.70 0.3334
1091.80 0.3334
1091.90 0.3334
1092.00 0.3334
1092.10 0.3334
1092.20 0.3334
1092.30 0.3333
1092.40 0.3333
1092.50 0.3333
1092.60 0.3333
1092.70 0.3333
1092.80 0.3333
1092.90 0.3333
1093.00 0.3333
1093.10 0.3333
1093.20 0.3333
1093.30 0.3333
1093.40 0.3333
1093.50 0.3333
1093.60 0.3332
1093.70 0.3332
1093.80 0.3332
1093.90 0.3332
1094.00 0.3332
1094.10 0.3332
1094.20 0.3332
1094.30 0.3331
1094.40 0.3331
1094.50 0.3331
1094.60 0.3331
1094.70 0.3331
1094.80 0.3331
1094.90 0.3331
1095.00 0.3331
1095.10 0.333
1095.20 0.333
1095.30 0.333
1095.40 0.333
1095.50 0.333
1095.60 0.333
1095.70 0.333
1095.80 0.333
1095.90 0.3329
1096.00 0.3329
1096.10 0.3329
1096.20 0.3329
1096.30 0.3329
1096.40 0.3329
1096.50 0.3329
1096.60 0.3329
1096.70 0.3329
1096.80 0.3328
1096.90 0.3328
1097.00 0.3328
1097.10 0.3328
1097.20 0.3328
1097.30 0.3328
1097.40 0.3328
1097.50 0.3328
1097.60 0.3328
1097.70 0.3328
1097.80 0.3328
1097.90 0.3327
1098.00 0.3327
1098.10 0.3327
1098.20 0.3327
1098.30 0.3327
1098.40 0.3327
1098.50 0.3327
1098.60 0.3327
1098.70 0.3327
1098.80 0.3327
1098.90 0.3327
1099.00 0.3327
1099.10 0.3327
1099.20 0.3326
1099.30 0.3326
1099.40 0.3326
1099.50 0.3326
1099.60 0.3326
1099.70 0.3326
1099.80 0.3326
1099.90 0.3326
1100.00 0.3326
1100.10 0.3326
1100.20 0.3326
1100.30 0.3326
1100.40 0.3326
1100.50 0.3326
1100.60 0.3326
1100.70 0.3326
1100.80 0.3325
1100.90 0.3325
1101.00 0.3325
1101.10 0.3325
1101.20 0.3325
1101.30 0.3325
1101.40 0.3325
1101.50 0.3325
1101.60 0.3325
1101.70 0.3325
1101.80 0.3325
1101.90 0.3325
1102.00 0.3325
1102.10 0.3325
1102.20 0.3325
1102.30 0.3325
1102.40 0.3325
1102.50 0.3325
1102.60 0.3325
1102.70 0.3325
1102.80 0.3325
1102.90 0.3325
1103.00 0.3325
1103.10 0.3325
1103.20 0.3325
1103.30 0.3325
1103.40 0.3325
1103.50 0.3325
1103.60 0.3325
1103.70 0.3325
1103.80 0.3325
1103.90 0.3325
1104.00 0.3325
1104.10 0.3325
1104.20 0.3325
1104.30 0.3325
1104.40 0.3325
1104.50 0.3325
1104.60 0.3325
1104.70 0.3325
1104.80 0.3325
1104.90 0.3325
1105.00 0.3325
1105.10 0.3325
1105.20 0.3325
1105.30 0.3325
1105.40 0.3325
1105.50 0.3325
1105.60 0.3325
1105.70 0.3325
1105.80 0.3326
1105.90 0.3326
1106.00 0.3326
1106.10 0.3326
1106.20 0.3326
1106.30 0.3326
1106.40 0.3326
1106.50 0.3326
1106.60 0.3326
1106.70 0.3326
1106.80 0.3326
1106.90 0.3326
1107.00 0.3326
1107.10 0.3326
1107.20 0.3326
1107.30 0.3326
1107.40 0.3326
1107.50 0.3326
1107.60 0.3326
1107.70 0.3326
1107.80 0.3326
1107.90 0.3326
1108.00 0.3326
1108.10 0.3326
1108.20 0.3326
1108.30 0.3326
1108.40 0.3326
1108.50 0.3326
1108.60 0.3326
1108.70 0.3326
1108.80 0.3326
1108.90 0.3326
1109.00 0.3326
1109.10 0.3327
1109.20 0.3327
1109.30 0.3327
1109.40 0.3327
1109.50 0.3327
1109.60 0.3327
1109.70 0.3327
1109.80 0.3327
1109.90 0.3327
1110.00 0.3327
1110.10 0.3327
1110.20 0.3327
1110.30 0.3327
1110.40 0.3327
1110.50 0.3327
1110.60 0.3327
1110.70 0.3327
1110.80 0.3328
1110.90 0.3328
1111.00 0.3328
1111.10 0.3328
1111.20 0.3328
1111.30 0.3328
1111.40 0.3328
1111.50 0.3328
1111.60 0.3328
1111.70 0.3328
1111.80 0.3328
1111.90 0.3328
1112.00 0.3328
1112.10 0.3328
1112.20 0.3328
1112.30 0.3328
1112.40 0.3329
1112.50 0.3329
1112.60 0.3329
1112.70 0.3329
1112.80 0.3329
1112.90 0.3329
1113.00 0.3329
1113.10 0.3329
1113.20 0.3329
1113.30 0.3329
1113.40 0.3329
1113.50 0.3329
1113.60 0.3329
1113.70 0.333
1113.80 0.333
1113.90 0.333
1114.00 0.333
1114.10 0.333
1114.20 0.333
1114.30 0.333
1114.40 0.333
1114.50 0.333
1114.60 0.333
1114.70 0.3331
1114.80 0.3331
1114.90 0.3331
1115.00 0.3331
1115.10 0.3331
1115.20 0.3331
1115.30 0.3331
1115.40 0.3331
1115.50 0.3331
1115.60 0.3331
1115.70 0.3332
1115.80 0.3332
1115.90 0.3332
1116.00 0.3332
1116.10 0.3332
1116.20 0.3332
1116.30 0.3332
1116.40 0.3332
1116.50 0.3332
1116.60 0.3332
1116.70 0.3333
1116.80 0.3333
1116.90 0.3333
1117.00 0.3333
1117.10 0.3333
1117.20 0.3333
1117.30 0.3333
1117.40 0.3333
1117.50 0.3334
1117.60 0.3334
1117.70 0.3334
1117.80 0.3334
1117.90 0.3334
1118.00 0.3334
1118.10 0.3334
1118.20 0.3335
1118.30 0.3335
1118.40 0.3335
1118.50 0.3335
1118.60 0.3335
1118.70 0.3335
1118.80 0.3335
1118.90 0.3336
1119.00 0.3336
1119.10 0.3336
1119.20 0.3336
1119.30 0.3336
1119.40 0.3336
1119.50 0.3336
1119.60 0.3337
1119.70 0.3337
1119.80 0.3337
1119.90 0.3337
1120.00 0.3337
1120.10 0.3337
1120.20 0.3337
1120.30 0.3338
1120.40 0.3338
1120.50 0.3338
1120.60 0.3338
1120.70 0.3338
1120.80 0.3338
1120.90 0.3338
1121.00 0.3339
1121.10 0.3339
1121.20 0.3339
1121.30 0.3339
1121.40 0.3339
1121.50 0.3339
1121.60 0.3339
1121.70 0.3339
1121.80 0.334
1121.90 0.334
1122.00 0.334
1122.10 0.334
1122.20 0.334
1122.30 0.334
1122.40 0.334
1122.50 0.3341
1122.60 0.3341
1122.70 0.3341
1122.80 0.3341
1122.90 0.3341
1123.00 0.3341
1123.10 0.3341
1123.20 0.3342
1123.30 0.3342
1123.40 0.3342
1123.50 0.3342
1123.60 0.3342
1123.70 0.3342
1123.80 0.3342
1123.90 0.3343
1124.00 0.3343
1124.10 0.3343
1124.20 0.3343
1124.30 0.3343
1124.40 0.3343
1124.50 0.3343
1124.60 0.3343
1124.70 0.3344
1124.80 0.3344
1124.90 0.3344
1125.00 0.3344
1125.10 0.3344
1125.20 0.3344
1125.30 0.3344
1125.40 0.3345
1125.50 0.3345
1125.60 0.3345
1125.70 0.3345
1125.80 0.3345
1125.90 0.3345
1126.00 0.3345
1126.10 0.3346
1126.20 0.3346
1126.30 0.3346
1126.40 0.3346
1126.50 0.3346
1126.60 0.3346
1126.70 0.3346
1126.80 0.3346
1126.90 0.3347
1127.00 0.3347
1127.10 0.3347
1127.20 0.3347
1127.30 0.3347
1127.40 0.3347
1127.50 0.3348
1127.60 0.3348
1127.70 0.3348
1127.80 0.3348
1127.90 0.3348
1128.00 0.3349
1128.10 0.3349
1128.20 0.3349
1128.30 0.3349
1128.40 0.3349
1128.50 0.3349
1128.60 0.335
1128.70 0.335
1128.80 0.335
1128.90 0.335
1129.00 0.335
1129.10 0.3351
1129.20 0.3351
1129.30 0.3351
1129.40 0.3351
1129.50 0.3351
1129.60 0.3351
1129.70 0.3352
1129.80 0.3352
1129.90 0.3352
1130.00 0.3352
1130.10 0.3352
1130.20 0.3353
1130.30 0.3353
1130.40 0.3353
1130.50 0.3353
1130.60 0.3353
1130.70 0.3353
1130.80 0.3354
1130.90 0.3354
1131.00 0.3354
1131.10 0.3354
1131.20 0.3354
1131.30 0.3354
1131.40 0.3355
1131.50 0.3355
1131.60 0.3355
1131.70 0.3355
1131.80 0.3355
1131.90 0.3356
1132.00 0.3356
1132.10 0.3356
1132.20 0.3356
1132.30 0.3356
1132.40 0.3356
1132.50 0.3356
1132.60 0.3356
1132.70 0.3357
1132.80 0.3357
1132.90 0.3357
1133.00 0.3357
1133.10 0.3357
1133.20 0.3357
1133.30 0.3357
1133.40 0.3357
1133.50 0.3358
1133.60 0.3358
1133.70 0.3358
1133.80 0.3358
1133.90 0.3358
1134.00 0.3358
1134.10 0.3358
1134.20 0.3358
1134.30 0.3359
1134.40 0.3359
1134.50 0.3359
1134.60 0.3359
1134.70 0.3359
1134.80 0.3359
1134.90 0.3359
1135.00 0.3359
1135.10 0.336
1135.20 0.336
1135.30 0.336
1135.40 0.336
1135.50 0.336
1135.60 0.336
1135.70 0.336
1135.80 0.336
1135.90 0.3361
1136.00 0.3361
1136.10 0.3361
1136.20 0.3361
1136.30 0.3361
1136.40 0.3361
1136.50 0.3361
1136.60 0.3361
1136.70 0.3362
1136.80 0.3362
1136.90 0.3362
1137.00 0.3362
1137.10 0.3362
1137.20 0.3362
1137.30 0.3362
1137.40 0.3362
1137.50 0.3362
1137.60 0.3362
1137.70 0.3363
1137.80 0.3363
1137.90 0.3363
1138.00 0.3363
1138.10 0.3363
1138.20 0.3363
1138.30 0.3363
1138.40 0.3363
1138.50 0.3363
1138.60 0.3363
1138.70 0.3363
1138.80 0.3364
1138.90 0.3364
1139.00 0.3364
1139.10 0.3364
1139.20 0.3364
1139.30 0.3364
1139.40 0.3364
1139.50 0.3364
1139.60 0.3364
1139.70 0.3364
1139.80 0.3365
1139.90 0.3365
1140.00 0.3365
1140.10 0.3365
1140.20 0.3365
1140.30 0.3365
1140.40 0.3365
1140.50 0.3365
1140.60 0.3365
1140.70 0.3365
1140.80 0.3365
1140.90 0.3366
1141.00 0.3366
1141.10 0.3366
1141.20 0.3366
1141.30 0.3366
1141.40 0.3366
1141.50 0.3366
1141.60 0.3366
1141.70 0.3366
1141.80 0.3366
1141.90 0.3366
1142.00 0.3367
1142.10 0.3367
1142.20 0.3367
1142.30 0.3367
1142.40 0.3367
1142.50 0.3367
1142.60 0.3367
1142.70 0.3367
1142.80 0.3367
1142.90 0.3367
1143.00 0.3367
1143.10 0.3368
1143.20 0.3368
1143.30 0.3368
1143.40 0.3368
1143.50 0.3368
1143.60 0.3368
1143.70 0.3368
1143.80 0.3368
1143.90 0.3368
1144.00 0.3368
1144.10 0.3368
1144.20 0.3369
1144.30 0.3369
1144.40 0.3369
1144.50 0.3369
1144.60 0.3369
1144.70 0.3369
1144.80 0.3369
1144.90 0.3369
1145.00 0.3369
1145.10 0.3369
1145.20 0.3369
1145.30 0.3369
1145.40 0.337
1145.50 0.337
1145.60 0.337
1145.70 0.337
1145.80 0.337
1145.90 0.337
1146.00 0.337
1146.10 0.337
1146.20 0.337
1146.30 0.337
1146.40 0.337
1146.50 0.337
1146.60 0.3371
1146.70 0.3371
1146.80 0.3371
1146.90 0.3371
1147.00 0.3371
1147.10 0.3371
1147.20 0.3371
1147.30 0.3371
1147.40 0.3371
1147.50 0.3371
1147.60 0.3371
1147.70 0.3371
1147.80 0.3371
1147.90 0.3371
1148.00 0.3371
1148.10 0.3371
1148.20 0.3371
1148.30 0.3371
1148.40 0.3371
1148.50 0.3371
1148.60 0.3371
1148.70 0.3371
1148.80 0.3371
1148.90 0.3371
1149.00 0.3371
1149.10 0.3371
1149.20 0.3371
1149.30 0.3371
1149.40 0.3371
1149.50 0.3371
1149.60 0.3371
1149.70 0.3371
1149.80 0.3371
1149.90 0.3371
1150.00 0.3371
1150.10 0.3371
1150.20 0.3371
1150.30 0.3371
1150.40 0.3371
1150.50 0.3371
1150.60 0.3371
1150.70 0.337
1150.80 0.337
1150.90 0.337
1151.00 0.337
1151.10 0.337
1151.20 0.337
1151.30 0.337
1151.40 0.337
1151.50 0.337
1151.60 0.337
1151.70 0.337
1151.80 0.337
1151.90 0.337
1152.00 0.337
1152.10 0.337
1152.20 0.337
1152.30 0.337
1152.40 0.337
1152.50 0.337
1152.60 0.337
1152.70 0.337
1152.80 0.337
1152.90 0.337
1153.00 0.337
1153.10 0.337
1153.20 0.337
1153.30 0.337
1153.40 0.337
1153.50 0.337
1153.60 0.337
1153.70 0.337
1153.80 0.337
1153.90 0.3369
1154.00 0.3369
1154.10 0.3369
1154.20 0.3369
1154.30 0.3369
1154.40 0.3369
1154.50 0.3369
1154.60 0.3369
1154.70 0.3369
1154.80 0.3369
1154.90 0.3369
1155.00 0.3369
1155.10 0.3369
1155.20 0.3369
1155.30 0.3369
1155.40 0.3369
1155.50 0.3369
1155.60 0.3369
1155.70 0.3369
1155.80 0.3369
1155.90 0.3369
1156.00 0.3369
1156.10 0.3368
1156.20 0.3368
1156.30 0.3368
1156.40 0.3368
1156.50 0.3368
1156.60 0.3368
1156.70 0.3368
1156.80 0.3368
1156.90 0.3368
1157.00 0.3368
1157.10 0.3368
1157.20 0.3368
1157.30 0.3368
1157.40 0.3367
1157.50 0.3367
1157.60 0.3367
1157.70 0.3367
1157.80 0.3367
1157.90 0.3367
1158.00 0.3367
1158.10 0.3366
1158.20 0.3366
1158.30 0.3366
1158.40 0.3366
1158.50 0.3366
1158.60 0.3366
1158.70 0.3366
1158.80 0.3365
1158.90 0.3365
1159.00 0.3365
1159.10 0.3365
1159.20 0.3365
1159.30 0.3365
1159.40 0.3365
1159.50 0.3364
1159.60 0.3364
1159.70 0.3364
1159.80 0.3364
1159.90 0.3364
1160.00 0.3364
1160.10 0.3363
1160.20 0.3363
1160.30 0.3363
1160.40 0.3363
1160.50 0.3363
1160.60 0.3363
1160.70 0.3363
1160.80 0.3362
1160.90 0.3362
1161.00 0.3362
1161.10 0.3362
1161.20 0.3362
1161.30 0.3362
1161.40 0.3362
1161.50 0.3361
1161.60 0.3361
1161.70 0.3361
1161.80 0.3361
1161.90 0.3361
1162.00 0.3361
1162.10 0.336
1162.20 0.336
1162.30 0.336
1162.40 0.336
1162.50 0.3359
1162.60 0.3359
1162.70 0.3359
1162.80 0.3359
1162.90 0.3358
1163.00 0.3358
1163.10 0.3358
1163.20 0.3358
1163.30 0.3358
1163.40 0.3357
1163.50 0.3357
1163.60 0.3357
1163.70 0.3357
1163.80 0.3356
1163.90 0.3356
1164.00 0.3356
1164.10 0.3356
1164.20 0.3355
1164.30 0.3355
1164.40 0.3355
1164.50 0.3355
1164.60 0.3354
1164.70 0.3354
1164.80 0.3354
1164.90 0.3354
1165.00 0.3354
1165.10 0.3353
1165.20 0.3353
1165.30 0.3353
1165.40 0.3353
1165.50 0.3352
1165.60 0.3352
1165.70 0.3352
1165.80 0.3352
1165.90 0.3351
1166.00 0.3351
1166.10 0.3351
1166.20 0.3351
1166.30 0.335
1166.40 0.335
1166.50 0.335
1166.60 0.335
1166.70 0.335
1166.80 0.3349
1166.90 0.3349
1167.00 0.3349
1167.10 0.3349
1167.20 0.3348
1167.30 0.3348
1167.40 0.3348
1167.50 0.3347
1167.60 0.3347
1167.70 0.3347
1167.80 0.3346
1167.90 0.3346
1168.00 0.3346
1168.10 0.3345
1168.20 0.3345
1168.30 0.3345
1168.40 0.3344
1168.50 0.3344
1168.60 0.3344
1168.70 0.3344
1168.80 0.3343
1168.90 0.3343
1169.00 0.3343
1169.10 0.3342
1169.20 0.3342
1169.30 0.3342
1169.40 0.3341
1169.50 0.3341
1169.60 0.3341
1169.70 0.334
1169.80 0.334
1169.90 0.334
1170.00 0.334
1170.10 0.3339
1170.20 0.3339
1170.30 0.3339
1170.40 0.3338
1170.50 0.3338
1170.60 0.3338
1170.70 0.3337
1170.80 0.3337
1170.90 0.3337
1171.00 0.3336
1171.10 0.3336
1171.20 0.3336
1171.30 0.3335
1171.40 0.3335
1171.50 0.3335
1171.60 0.3335
1171.70 0.3334
1171.80 0.3334
1171.90 0.3334
1172.00 0.3333
1172.10 0.3333
1172.20 0.3333
1172.30 0.3332
1172.40 0.3332
1172.50 0.3331
1172.60 0.3331
1172.70 0.3331
1172.80 0.333
1172.90 0.333
1173.00 0.3329
1173.10 0.3329
1173.20 0.3329
1173.30 0.3328
1173.40 0.3328
1173.50 0.3327
1173.60 0.3327
1173.70 0.3327
1173.80 0.3326
1173.90 0.3326
1174.00 0.3325
1174.10 0.3325
1174.20 0.3325
1174.30 0.3324
1174.40 0.3324
1174.50 0.3323
1174.60 0.3323
1174.70 0.3323
1174.80 0.3322
1174.90 0.3322
1175.00 0.3321
1175.10 0.3321
1175.20 0.3321
1175.30 0.332
1175.40 0.332
1175.50 0.3319
1175.60 0.3319
1175.70 0.3319
1175.80 0.3318
1175.90 0.3318
1176.00 0.3317
1176.10 0.3317
1176.20 0.3317
1176.30 0.3316
1176.40 0.3316
1176.50 0.3315
1176.60 0.3315
1176.70 0.3315
1176.80 0.3314
1176.90 0.3314
1177.00 0.3313
1177.10 0.3313
1177.20 0.3312
1177.30 0.3312
1177.40 0.3311
1177.50 0.3311
1177.60 0.331
1177.70 0.331
1177.80 0.331
1177.90 0.3309
1178.00 0.3309
1178.10 0.3308
1178.20 0.3308
1178.30 0.3307
1178.40 0.3307
1178.50 0.3306
1178.60 0.3306
1178.70 0.3305
1178.80 0.3305
1178.90 0.3304
1179.00 0.3304
1179.10 0.3303
1179.20 0.3303
1179.30 0.3302
1179.40 0.3302
1179.50 0.3301
1179.60 0.3301
1179.70 0.33
1179.80 0.33
1179.90 0.33
1180.00 0.3299
1180.10 0.3299
1180.20 0.3298
1180.30 0.3298
1180.40 0.3297
1180.50 0.3297
1180.60 0.3296
1180.70 0.3296
1180.80 0.3295
1180.90 0.3295
1181.00 0.3294
1181.10 0.3294
1181.20 0.3293
1181.30 0.3293
1181.40 0.3292
1181.50 0.3292
1181.60 0.3291
1181.70 0.3291
1181.80 0.3291
1181.90 0.329
1182.00 0.329
1182.10 0.3289
1182.20 0.3288
1182.30 0.3288
1182.40 0.3287
1182.50 0.3287
1182.60 0.3286
1182.70 0.3286
1182.80 0.3285
1182.90 0.3284
1183.00 0.3284
1183.10 0.3283
1183.20 0.3283
1183.30 0.3282
1183.40 0.3281
1183.50 0.3281
1183.60 0.328
1183.70 0.328
1183.80 0.3279
1183.90 0.3279
1184.00 0.3278
1184.10 0.3277
1184.20 0.3277
1184.30 0.3276
1184.40 0.3276
1184.50 0.3275
1184.60 0.3275
1184.70 0.3274
1184.80 0.3273
1184.90 0.3273
1185.00 0.3272
1185.10 0.3272
1185.20 0.3271
1185.30 0.327
1185.40 0.327
1185.50 0.3269
1185.60 0.3269
1185.70 0.3268
1185.80 0.3268
1185.90 0.3267
1186.00 0.3266
1186.10 0.3266
1186.20 0.3265
1186.30 0.3265
1186.40 0.3264
1186.50 0.3264
1186.60 0.3263
1186.70 0.3262
1186.80 0.3262
1186.90 0.3261
1187.00 0.3261
1187.10 0.326
1187.20 0.326
1187.30 0.3259
1187.40 0.3258
1187.50 0.3258
1187.60 0.3257
1187.70 0.3257
1187.80 0.3256
1187.90 0.3255
1188.00 0.3255
1188.10 0.3254
1188.20 0.3254
1188.30 0.3253
1188.40 0.3253
1188.50 0.3252
1188.60 0.3251
1188.70 0.3251
1188.80 0.325
1188.90 0.325
1189.00 0.3249
1189.10 0.3248
1189.20 0.3248
1189.30 0.3247
1189.40 0.3247
1189.50 0.3246
1189.60 0.3246
1189.70 0.3245
1189.80 0.3244
1189.90 0.3244
1190.00 0.3243
1190.10 0.3243
1190.20 0.3242
1190.30 0.3241
1190.40 0.3241
1190.50 0.324
1190.60 0.324
1190.70 0.3239
1190.80 0.3239
1190.90 0.3238
1191.00 0.3237
1191.10 0.3237
1191.20 0.3236
1191.30 0.3236
1191.40 0.3235
1191.50 0.3235
1191.60 0.3234
1191.70 0.3233
1191.80 0.3233
1191.90 0.3232
1192.00 0.3232
1192.10 0.3231
1192.20 0.323
1192.30 0.323
1192.40 0.3229
1192.50 0.3229
1192.60 0.3228
1192.70 0.3227
1192.80 0.3227
1192.90 0.3226
1193.00 0.3225
1193.10 0.3225
1193.20 0.3224
1193.30 0.3224
1193.40 0.3223
1193.50 0.3222
1193.60 0.3222
1193.70 0.3221
1193.80 0.3221
1193.90 0.322
1194.00 0.3219
1194.10 0.3219
1194.20 0.3218
1194.30 0.3217
1194.40 0.3217
1194.50 0.3216
1194.60 0.3216
1194.70 0.3215
1194.80 0.3214
1194.90 0.3214
1195.00 0.3213
1195.10 0.3213
1195.20 0.3212
1195.30 0.3211
1195.40 0.3211
1195.50 0.321
1195.60 0.3209
1195.70 0.3209
1195.80 0.3208
1195.90 0.3208
1196.00 0.3207
1196.10 0.3206
1196.20 0.3206
1196.30 0.3205
1196.40 0.3205
1196.50 0.3204
1196.60 0.3203
1196.70 0.3203
1196.80 0.3202
1196.90 0.3202
1197.00 0.3201
1197.10 0.32
1197.20 0.32
1197.30 0.3199
1197.40 0.3198
1197.50 0.3198
1197.60 0.3197
1197.70 0.3196
1197.80 0.3195
1197.90 0.3195
1198.00 0.3194
1198.10 0.3193
1198.20 0.3193
1198.30 0.3192
1198.40 0.3191
1198.50 0.3191
1198.60 0.319
1198.70 0.3189
1198.80 0.3189
1198.90 0.3188
1199.00 0.3187
1199.10 0.3187
1199.20 0.3186
1199.30 0.3185
1199.40 0.3185
1199.50 0.3184
1199.60 0.3183
1199.70 0.3182
1199.80 0.3182
1199.90 0.3181
1200.00 0
