# Version 2.1 - nm, norm@500 to 1, cut digits, bergeron_3250_75.dat_3250
# Wavelength(nm)  Flambda(ergs/cm^s/s/nm)
300.00 0.09983
300.10 0.1001
300.20 0.1003
300.30 0.1006
300.40 0.1008
300.50 0.1011
300.60 0.1013
300.70 0.1016
300.80 0.1018
300.90 0.1021
301.00 0.1023
301.10 0.1025
301.20 0.1028
301.30 0.103
301.40 0.1033
301.50 0.1035
301.60 0.1038
301.70 0.104
301.80 0.1043
301.90 0.1045
302.00 0.1047
302.10 0.105
302.20 0.1053
302.30 0.1055
302.40 0.1058
302.50 0.106
302.60 0.1063
302.70 0.1065
302.80 0.1068
302.90 0.107
303.00 0.1073
303.10 0.1075
303.20 0.1078
303.30 0.108
303.40 0.1083
303.50 0.1085
303.60 0.1088
303.70 0.109
303.80 0.1093
303.90 0.1095
304.00 0.1098
304.10 0.1101
304.20 0.1103
304.30 0.1106
304.40 0.1108
304.50 0.1111
304.60 0.1114
304.70 0.1116
304.80 0.1119
304.90 0.1122
305.00 0.1124
305.10 0.1127
305.20 0.1129
305.30 0.1132
305.40 0.1135
305.50 0.1137
305.60 0.114
305.70 0.1142
305.80 0.1145
305.90 0.1147
306.00 0.115
306.10 0.1153
306.20 0.1155
306.30 0.1158
306.40 0.1161
306.50 0.1163
306.60 0.1166
306.70 0.1169
306.80 0.1172
306.90 0.1174
307.00 0.1177
307.10 0.118
307.20 0.1182
307.30 0.1185
307.40 0.1188
307.50 0.119
307.60 0.1193
307.70 0.1196
307.80 0.1198
307.90 0.1201
308.00 0.1204
308.10 0.1206
308.20 0.1209
308.30 0.1212
308.40 0.1215
308.50 0.1217
308.60 0.122
308.70 0.1223
308.80 0.1226
308.90 0.1228
309.00 0.1231
309.10 0.1234
309.20 0.1236
309.30 0.1239
309.40 0.1242
309.50 0.1245
309.60 0.1247
309.70 0.125
309.80 0.1253
309.90 0.1256
310.00 0.1258
310.10 0.1261
310.20 0.1264
310.30 0.1267
310.40 0.127
310.50 0.1272
310.60 0.1275
310.70 0.1278
310.80 0.1281
310.90 0.1284
311.00 0.1287
311.10 0.1289
311.20 0.1292
311.30 0.1295
311.40 0.1298
311.50 0.1301
311.60 0.1303
311.70 0.1306
311.80 0.1309
311.90 0.1312
312.00 0.1315
312.10 0.1317
312.20 0.132
312.30 0.1323
312.40 0.1326
312.50 0.1329
312.60 0.1332
312.70 0.1335
312.80 0.1338
312.90 0.1341
313.00 0.1343
313.10 0.1346
313.20 0.1349
313.30 0.1352
313.40 0.1355
313.50 0.1358
313.60 0.1361
313.70 0.1364
313.80 0.1366
313.90 0.1369
314.00 0.1372
314.10 0.1375
314.20 0.1378
314.30 0.1381
314.40 0.1384
314.50 0.1387
314.60 0.139
314.70 0.1393
314.80 0.1396
314.90 0.1399
315.00 0.1402
315.10 0.1405
315.20 0.1408
315.30 0.1411
315.40 0.1414
315.50 0.1417
315.60 0.1419
315.70 0.1422
315.80 0.1425
315.90 0.1428
316.00 0.1431
316.10 0.1434
316.20 0.1437
316.30 0.144
316.40 0.1443
316.50 0.1446
316.60 0.1449
316.70 0.1453
316.80 0.1456
316.90 0.1459
317.00 0.1462
317.10 0.1465
317.20 0.1468
317.30 0.1471
317.40 0.1474
317.50 0.1477
317.60 0.148
317.70 0.1483
317.80 0.1486
317.90 0.1489
318.00 0.1492
318.10 0.1495
318.20 0.1498
318.30 0.1501
318.40 0.1504
318.50 0.1507
318.60 0.151
318.70 0.1513
318.80 0.1517
318.90 0.152
319.00 0.1523
319.10 0.1526
319.20 0.1529
319.30 0.1532
319.40 0.1535
319.50 0.1538
319.60 0.1541
319.70 0.1544
319.80 0.1547
319.90 0.155
320.00 0.1554
320.10 0.1557
320.20 0.156
320.30 0.1563
320.40 0.1566
320.50 0.1569
320.60 0.1573
320.70 0.1576
320.80 0.1579
320.90 0.1582
321.00 0.1585
321.10 0.1588
321.20 0.1592
321.30 0.1595
321.40 0.1598
321.50 0.1601
321.60 0.1604
321.70 0.1607
321.80 0.161
321.90 0.1614
322.00 0.1617
322.10 0.162
322.20 0.1623
322.30 0.1626
322.40 0.163
322.50 0.1633
322.60 0.1636
322.70 0.1639
322.80 0.1643
322.90 0.1646
323.00 0.1649
323.10 0.1652
323.20 0.1656
323.30 0.1659
323.40 0.1662
323.50 0.1665
323.60 0.1668
323.70 0.1672
323.80 0.1675
323.90 0.1678
324.00 0.1681
324.10 0.1685
324.20 0.1688
324.30 0.1691
324.40 0.1695
324.50 0.1698
324.60 0.1701
324.70 0.1704
324.80 0.1708
324.90 0.1711
325.00 0.1714
325.10 0.1718
325.20 0.1721
325.30 0.1724
325.40 0.1728
325.50 0.1731
325.60 0.1734
325.70 0.1737
325.80 0.1741
325.90 0.1744
326.00 0.1747
326.10 0.175
326.20 0.1754
326.30 0.1757
326.40 0.1761
326.50 0.1764
326.60 0.1767
326.70 0.1771
326.80 0.1774
326.90 0.1778
327.00 0.1781
327.10 0.1784
327.20 0.1788
327.30 0.1791
327.40 0.1794
327.50 0.1798
327.60 0.1801
327.70 0.1804
327.80 0.1808
327.90 0.1811
328.00 0.1814
328.10 0.1818
328.20 0.1821
328.30 0.1825
328.40 0.1828
328.50 0.1832
328.60 0.1835
328.70 0.1839
328.80 0.1842
328.90 0.1845
329.00 0.1849
329.10 0.1852
329.20 0.1856
329.30 0.1859
329.40 0.1863
329.50 0.1866
329.60 0.1869
329.70 0.1873
329.80 0.1876
329.90 0.188
330.00 0.1883
330.10 0.1886
330.20 0.189
330.30 0.1893
330.40 0.1897
330.50 0.1901
330.60 0.1904
330.70 0.1908
330.80 0.1911
330.90 0.1915
331.00 0.1918
331.10 0.1922
331.20 0.1925
331.30 0.1929
331.40 0.1932
331.50 0.1935
331.60 0.1939
331.70 0.1942
331.80 0.1946
331.90 0.1949
332.00 0.1953
332.10 0.1956
332.20 0.196
332.30 0.1964
332.40 0.1967
332.50 0.1971
332.60 0.1974
332.70 0.1978
332.80 0.1981
332.90 0.1985
333.00 0.1989
333.10 0.1992
333.20 0.1996
333.30 0.1999
333.40 0.2003
333.50 0.2006
333.60 0.201
333.70 0.2013
333.80 0.2017
333.90 0.202
334.00 0.2024
334.10 0.2028
334.20 0.2031
334.30 0.2035
334.40 0.2039
334.50 0.2042
334.60 0.2046
334.70 0.205
334.80 0.2053
334.90 0.2057
335.00 0.206
335.10 0.2064
335.20 0.2068
335.30 0.2071
335.40 0.2075
335.50 0.2078
335.60 0.2082
335.70 0.2086
335.80 0.2089
335.90 0.2093
336.00 0.2096
336.10 0.21
336.20 0.2104
336.30 0.2108
336.40 0.2111
336.50 0.2115
336.60 0.2119
336.70 0.2122
336.80 0.2126
336.90 0.213
337.00 0.2133
337.10 0.2137
337.20 0.2141
337.30 0.2144
337.40 0.2148
337.50 0.2152
337.60 0.2155
337.70 0.2159
337.80 0.2163
337.90 0.2166
338.00 0.217
338.10 0.2174
338.20 0.2178
338.30 0.2181
338.40 0.2185
338.50 0.2189
338.60 0.2193
338.70 0.2197
338.80 0.22
338.90 0.2204
339.00 0.2208
339.10 0.2212
339.20 0.2215
339.30 0.2219
339.40 0.2223
339.50 0.2226
339.60 0.223
339.70 0.2234
339.80 0.2238
339.90 0.2241
340.00 0.2245
340.10 0.2249
340.20 0.2253
340.30 0.2257
340.40 0.226
340.50 0.2264
340.60 0.2268
340.70 0.2272
340.80 0.2276
340.90 0.2279
341.00 0.2283
341.10 0.2287
341.20 0.2291
341.30 0.2295
341.40 0.2299
341.50 0.2302
341.60 0.2306
341.70 0.231
341.80 0.2314
341.90 0.2317
342.00 0.2321
342.10 0.2325
342.20 0.2329
342.30 0.2333
342.40 0.2337
342.50 0.2341
342.60 0.2345
342.70 0.2348
342.80 0.2352
342.90 0.2356
343.00 0.236
343.10 0.2364
343.20 0.2368
343.30 0.2372
343.40 0.2376
343.50 0.2379
343.60 0.2383
343.70 0.2387
343.80 0.2391
343.90 0.2395
344.00 0.2399
344.10 0.2402
344.20 0.2406
344.30 0.241
344.40 0.2414
344.50 0.2418
344.60 0.2422
344.70 0.2426
344.80 0.243
344.90 0.2434
345.00 0.2438
345.10 0.2442
345.20 0.2446
345.30 0.245
345.40 0.2454
345.50 0.2458
345.60 0.2461
345.70 0.2465
345.80 0.2469
345.90 0.2473
346.00 0.2477
346.10 0.2481
346.20 0.2485
346.30 0.2489
346.40 0.2493
346.50 0.2497
346.60 0.2501
346.70 0.2505
346.80 0.2509
346.90 0.2513
347.00 0.2517
347.10 0.2521
347.20 0.2525
347.30 0.2529
347.40 0.2533
347.50 0.2537
347.60 0.2541
347.70 0.2545
347.80 0.2549
347.90 0.2553
348.00 0.2557
348.10 0.2561
348.20 0.2565
348.30 0.2569
348.40 0.2573
348.50 0.2577
348.60 0.2581
348.70 0.2585
348.80 0.2589
348.90 0.2593
349.00 0.2597
349.10 0.2601
349.20 0.2605
349.30 0.2609
349.40 0.2613
349.50 0.2617
349.60 0.2622
349.70 0.2626
349.80 0.263
349.90 0.2634
350.00 0.2638
350.10 0.2642
350.20 0.2646
350.30 0.265
350.40 0.2654
350.50 0.2658
350.60 0.2662
350.70 0.2666
350.80 0.2671
350.90 0.2675
351.00 0.2679
351.10 0.2683
351.20 0.2687
351.30 0.2691
351.40 0.2695
351.50 0.2699
351.60 0.2703
351.70 0.2707
351.80 0.2711
351.90 0.2715
352.00 0.2719
352.10 0.2724
352.20 0.2728
352.30 0.2732
352.40 0.2736
352.50 0.274
352.60 0.2745
352.70 0.2749
352.80 0.2753
352.90 0.2757
353.00 0.2761
353.10 0.2765
353.20 0.277
353.30 0.2774
353.40 0.2778
353.50 0.2782
353.60 0.2786
353.70 0.279
353.80 0.2794
353.90 0.2798
354.00 0.2802
354.10 0.2807
354.20 0.2811
354.30 0.2815
354.40 0.2819
354.50 0.2824
354.60 0.2828
354.70 0.2832
354.80 0.2836
354.90 0.2841
355.00 0.2845
355.10 0.2849
355.20 0.2853
355.30 0.2857
355.40 0.2862
355.50 0.2866
355.60 0.287
355.70 0.2874
355.80 0.2878
355.90 0.2882
356.00 0.2887
356.10 0.2891
356.20 0.2895
356.30 0.2899
356.40 0.2904
356.50 0.2908
356.60 0.2912
356.70 0.2917
356.80 0.2921
356.90 0.2925
357.00 0.2929
357.10 0.2934
357.20 0.2938
357.30 0.2942
357.40 0.2946
357.50 0.2951
357.60 0.2955
357.70 0.2959
357.80 0.2963
357.90 0.2967
358.00 0.2972
358.10 0.2976
358.20 0.298
358.30 0.2985
358.40 0.2989
358.50 0.2993
358.60 0.2998
358.70 0.3002
358.80 0.3006
358.90 0.3011
359.00 0.3015
359.10 0.3019
359.20 0.3024
359.30 0.3028
359.40 0.3032
359.50 0.3036
359.60 0.3041
359.70 0.3045
359.80 0.3049
359.90 0.3054
360.00 0.3058
360.10 0.3062
360.20 0.3067
360.30 0.3071
360.40 0.3075
360.50 0.308
360.60 0.3084
360.70 0.3089
360.80 0.3093
360.90 0.3097
361.00 0.3102
361.10 0.3106
361.20 0.311
361.30 0.3115
361.40 0.3119
361.50 0.3123
361.60 0.3128
361.70 0.3132
361.80 0.3136
361.90 0.3141
362.00 0.3145
362.10 0.3149
362.20 0.3154
362.30 0.3158
362.40 0.3163
362.50 0.3167
362.60 0.3171
362.70 0.3176
362.80 0.318
362.90 0.3184
363.00 0.3189
363.10 0.3193
363.20 0.3198
363.30 0.3202
363.40 0.3207
363.50 0.3211
363.60 0.3216
363.70 0.322
363.80 0.3224
363.90 0.3229
364.00 0.3233
364.10 0.3238
364.20 0.3242
364.30 0.3246
364.40 0.3251
364.50 0.3255
364.60 0.326
364.70 0.3264
364.80 0.3269
364.90 0.3273
365.00 0.3278
365.10 0.3282
365.20 0.3287
365.30 0.3291
365.40 0.3295
365.50 0.33
365.60 0.3304
365.70 0.3309
365.80 0.3313
365.90 0.3318
366.00 0.3322
366.10 0.3327
366.20 0.3331
366.30 0.3336
366.40 0.334
366.50 0.3345
366.60 0.3349
366.70 0.3354
366.80 0.3358
366.90 0.3363
367.00 0.3367
367.10 0.3372
367.20 0.3376
367.30 0.3381
367.40 0.3385
367.50 0.339
367.60 0.3394
367.70 0.3399
367.80 0.3403
367.90 0.3408
368.00 0.3412
368.10 0.3417
368.20 0.3421
368.30 0.3426
368.40 0.343
368.50 0.3435
368.60 0.3439
368.70 0.3444
368.80 0.3449
368.90 0.3453
369.00 0.3458
369.10 0.3462
369.20 0.3467
369.30 0.3471
369.40 0.3476
369.50 0.348
369.60 0.3485
369.70 0.3489
369.80 0.3494
369.90 0.3498
370.00 0.3503
370.10 0.3507
370.20 0.3512
370.30 0.3517
370.40 0.3521
370.50 0.3526
370.60 0.3531
370.70 0.3535
370.80 0.354
370.90 0.3544
371.00 0.3549
371.10 0.3554
371.20 0.3558
371.30 0.3563
371.40 0.3567
371.50 0.3572
371.60 0.3576
371.70 0.3581
371.80 0.3585
371.90 0.359
372.00 0.3595
372.10 0.3599
372.20 0.3604
372.30 0.3609
372.40 0.3613
372.50 0.3618
372.60 0.3623
372.70 0.3627
372.80 0.3632
372.90 0.3636
373.00 0.3641
373.10 0.3646
373.20 0.365
373.30 0.3655
373.40 0.366
373.50 0.3664
373.60 0.3669
373.70 0.3673
373.80 0.3678
373.90 0.3682
374.00 0.3687
374.10 0.3692
374.20 0.3696
374.30 0.3701
374.40 0.3706
374.50 0.3711
374.60 0.3715
374.70 0.372
374.80 0.3725
374.90 0.3729
375.00 0.3734
375.10 0.3739
375.20 0.3743
375.30 0.3748
375.40 0.3753
375.50 0.3757
375.60 0.3762
375.70 0.3766
375.80 0.3771
375.90 0.3776
376.00 0.378
376.10 0.3785
376.20 0.379
376.30 0.3794
376.40 0.3799
376.50 0.3804
376.60 0.3809
376.70 0.3813
376.80 0.3818
376.90 0.3823
377.00 0.3827
377.10 0.3832
377.20 0.3837
377.30 0.3841
377.40 0.3846
377.50 0.3851
377.60 0.3856
377.70 0.386
377.80 0.3865
377.90 0.387
378.00 0.3874
378.10 0.3879
378.20 0.3884
378.30 0.3889
378.40 0.3893
378.50 0.3898
378.60 0.3903
378.70 0.3908
378.80 0.3912
378.90 0.3917
379.00 0.3922
379.10 0.3927
379.20 0.3931
379.30 0.3936
379.40 0.3941
379.50 0.3946
379.60 0.395
379.70 0.3955
379.80 0.396
379.90 0.3965
380.00 0.3969
380.10 0.3974
380.20 0.3979
380.30 0.3984
380.40 0.3988
380.50 0.3993
380.60 0.3998
380.70 0.4003
380.80 0.4007
380.90 0.4012
381.00 0.4017
381.10 0.4022
381.20 0.4027
381.30 0.4031
381.40 0.4036
381.50 0.4041
381.60 0.4046
381.70 0.405
381.80 0.4055
381.90 0.406
382.00 0.4065
382.10 0.407
382.20 0.4074
382.30 0.4079
382.40 0.4084
382.50 0.4089
382.60 0.4094
382.70 0.4098
382.80 0.4103
382.90 0.4108
383.00 0.4113
383.10 0.4118
383.20 0.4122
383.30 0.4127
383.40 0.4132
383.50 0.4137
383.60 0.4142
383.70 0.4146
383.80 0.4152
383.90 0.4156
384.00 0.4161
384.10 0.4166
384.20 0.4171
384.30 0.4175
384.40 0.418
384.50 0.4185
384.60 0.419
384.70 0.4195
384.80 0.42
384.90 0.4205
385.00 0.4209
385.10 0.4214
385.20 0.4219
385.30 0.4224
385.40 0.4229
385.50 0.4234
385.60 0.4239
385.70 0.4243
385.80 0.4248
385.90 0.4253
386.00 0.4258
386.10 0.4263
386.20 0.4268
386.30 0.4273
386.40 0.4277
386.50 0.4282
386.60 0.4287
386.70 0.4292
386.80 0.4297
386.90 0.4302
387.00 0.4307
387.10 0.4311
387.20 0.4316
387.30 0.4321
387.40 0.4326
387.50 0.4331
387.60 0.4336
387.70 0.4341
387.80 0.4346
387.90 0.4351
388.00 0.4356
388.10 0.436
388.20 0.4365
388.30 0.437
388.40 0.4375
388.50 0.438
388.60 0.4385
388.70 0.439
388.80 0.4395
388.90 0.44
389.00 0.4404
389.10 0.4409
389.20 0.4414
389.30 0.4419
389.40 0.4424
389.50 0.4429
389.60 0.4434
389.70 0.4439
389.80 0.4444
389.90 0.4449
390.00 0.4454
390.10 0.4458
390.20 0.4463
390.30 0.4468
390.40 0.4473
390.50 0.4478
390.60 0.4483
390.70 0.4488
390.80 0.4493
390.90 0.4498
391.00 0.4503
391.10 0.4508
391.20 0.4513
391.30 0.4518
391.40 0.4523
391.50 0.4528
391.60 0.4532
391.70 0.4537
391.80 0.4542
391.90 0.4547
392.00 0.4552
392.10 0.4557
392.20 0.4562
392.30 0.4567
392.40 0.4572
392.50 0.4577
392.60 0.4582
392.70 0.4587
392.80 0.4592
392.90 0.4597
393.00 0.4602
393.10 0.4607
393.20 0.4612
393.30 0.4617
393.40 0.4622
393.50 0.4627
393.60 0.4632
393.70 0.4636
393.80 0.4642
393.90 0.4647
394.00 0.4652
394.10 0.4656
394.20 0.4661
394.30 0.4667
394.40 0.4671
394.50 0.4676
394.60 0.4681
394.70 0.4686
394.80 0.4691
394.90 0.4696
395.00 0.4701
395.10 0.4706
395.20 0.4711
395.30 0.4716
395.40 0.4721
395.50 0.4726
395.60 0.4731
395.70 0.4736
395.80 0.4741
395.90 0.4746
396.00 0.4751
396.10 0.4756
396.20 0.4761
396.30 0.4766
396.40 0.4771
396.50 0.4776
396.60 0.4781
396.70 0.4786
396.80 0.4791
396.90 0.4796
397.00 0.4801
397.10 0.4806
397.20 0.4811
397.30 0.4817
397.40 0.4821
397.50 0.4826
397.60 0.4831
397.70 0.4836
397.80 0.4841
397.90 0.4847
398.00 0.4851
398.10 0.4857
398.20 0.4862
398.30 0.4867
398.40 0.4872
398.50 0.4877
398.60 0.4882
398.70 0.4887
398.80 0.4892
398.90 0.4897
399.00 0.4902
399.10 0.4907
399.20 0.4912
399.30 0.4917
399.40 0.4922
399.50 0.4927
399.60 0.4932
399.70 0.4937
399.80 0.4942
399.90 0.4947
400.00 0.4952
400.10 0.4957
400.20 0.4962
400.30 0.4967
400.40 0.4972
400.50 0.4977
400.60 0.4983
400.70 0.4988
400.80 0.4993
400.90 0.4998
401.00 0.5003
401.10 0.5008
401.20 0.5013
401.30 0.5018
401.40 0.5023
401.50 0.5028
401.60 0.5033
401.70 0.5038
401.80 0.5043
401.90 0.5048
402.00 0.5053
402.10 0.5058
402.20 0.5063
402.30 0.5068
402.40 0.5074
402.50 0.5079
402.60 0.5084
402.70 0.5089
402.80 0.5094
402.90 0.5099
403.00 0.5104
403.10 0.5109
403.20 0.5114
403.30 0.5119
403.40 0.5124
403.50 0.5129
403.60 0.5134
403.70 0.514
403.80 0.5145
403.90 0.515
404.00 0.5155
404.10 0.516
404.20 0.5165
404.30 0.517
404.40 0.5175
404.50 0.518
404.60 0.5185
404.70 0.5191
404.80 0.5196
404.90 0.5201
405.00 0.5206
405.10 0.5211
405.20 0.5216
405.30 0.5221
405.40 0.5226
405.50 0.5231
405.60 0.5236
405.70 0.5241
405.80 0.5247
405.90 0.5252
406.00 0.5257
406.10 0.5262
406.20 0.5267
406.30 0.5272
406.40 0.5277
406.50 0.5282
406.60 0.5287
406.70 0.5293
406.80 0.5298
406.90 0.5303
407.00 0.5308
407.10 0.5313
407.20 0.5318
407.30 0.5323
407.40 0.5328
407.50 0.5333
407.60 0.5339
407.70 0.5344
407.80 0.5349
407.90 0.5354
408.00 0.5359
408.10 0.5364
408.20 0.5369
408.30 0.5374
408.40 0.5379
408.50 0.5385
408.60 0.539
408.70 0.5395
408.80 0.54
408.90 0.5405
409.00 0.541
409.10 0.5415
409.20 0.542
409.30 0.5425
409.40 0.5431
409.50 0.5436
409.60 0.5441
409.70 0.5446
409.80 0.5451
409.90 0.5457
410.00 0.5462
410.10 0.5467
410.20 0.5472
410.30 0.5477
410.40 0.5482
410.50 0.5487
410.60 0.5492
410.70 0.5497
410.80 0.5503
410.90 0.5508
411.00 0.5513
411.10 0.5518
411.20 0.5523
411.30 0.5528
411.40 0.5534
411.50 0.5539
411.60 0.5544
411.70 0.5549
411.80 0.5554
411.90 0.5559
412.00 0.5564
412.10 0.5569
412.20 0.5575
412.30 0.558
412.40 0.5585
412.50 0.559
412.60 0.5595
412.70 0.5601
412.80 0.5606
412.90 0.5611
413.00 0.5616
413.10 0.5621
413.20 0.5626
413.30 0.5631
413.40 0.5636
413.50 0.5642
413.60 0.5647
413.70 0.5652
413.80 0.5657
413.90 0.5662
414.00 0.5668
414.10 0.5673
414.20 0.5678
414.30 0.5683
414.40 0.5688
414.50 0.5693
414.60 0.5698
414.70 0.5704
414.80 0.5709
414.90 0.5714
415.00 0.5719
415.10 0.5724
415.20 0.573
415.30 0.5735
415.40 0.574
415.50 0.5745
415.60 0.575
415.70 0.5755
415.80 0.576
415.90 0.5766
416.00 0.5771
416.10 0.5776
416.20 0.5781
416.30 0.5786
416.40 0.5791
416.50 0.5797
416.60 0.5802
416.70 0.5807
416.80 0.5812
416.90 0.5817
417.00 0.5823
417.10 0.5828
417.20 0.5833
417.30 0.5838
417.40 0.5843
417.50 0.5848
417.60 0.5854
417.70 0.5859
417.80 0.5864
417.90 0.5869
418.00 0.5874
418.10 0.588
418.20 0.5885
418.30 0.589
418.40 0.5895
418.50 0.59
418.60 0.5906
418.70 0.5911
418.80 0.5916
418.90 0.5921
419.00 0.5926
419.10 0.5932
419.20 0.5937
419.30 0.5942
419.40 0.5947
419.50 0.5952
419.60 0.5957
419.70 0.5962
419.80 0.5968
419.90 0.5973
420.00 0.5978
420.10 0.5983
420.20 0.5988
420.30 0.5994
420.40 0.5999
420.50 0.6004
420.60 0.6009
420.70 0.6014
420.80 0.602
420.90 0.6025
421.00 0.603
421.10 0.6035
421.20 0.604
421.30 0.6046
421.40 0.6051
421.50 0.6056
421.60 0.6061
421.70 0.6066
421.80 0.6072
421.90 0.6077
422.00 0.6082
422.10 0.6087
422.20 0.6092
422.30 0.6097
422.40 0.6103
422.50 0.6108
422.60 0.6113
422.70 0.6118
422.80 0.6123
422.90 0.6129
423.00 0.6134
423.10 0.6139
423.20 0.6144
423.30 0.6149
423.40 0.6155
423.50 0.616
423.60 0.6165
423.70 0.617
423.80 0.6175
423.90 0.6181
424.00 0.6186
424.10 0.6191
424.20 0.6196
424.30 0.6201
424.40 0.6207
424.50 0.6212
424.60 0.6217
424.70 0.6222
424.80 0.6228
424.90 0.6233
425.00 0.6238
425.10 0.6243
425.20 0.6248
425.30 0.6254
425.40 0.6259
425.50 0.6264
425.60 0.6269
425.70 0.6274
425.80 0.628
425.90 0.6285
426.00 0.629
426.10 0.6295
426.20 0.63
426.30 0.6306
426.40 0.6311
426.50 0.6316
426.60 0.6321
426.70 0.6326
426.80 0.6332
426.90 0.6337
427.00 0.6342
427.10 0.6347
427.20 0.6352
427.30 0.6358
427.40 0.6363
427.50 0.6368
427.60 0.6373
427.70 0.6378
427.80 0.6384
427.90 0.6389
428.00 0.6394
428.10 0.6399
428.20 0.6405
428.30 0.641
428.40 0.6415
428.50 0.642
428.60 0.6425
428.70 0.6431
428.80 0.6436
428.90 0.6441
429.00 0.6446
429.10 0.6451
429.20 0.6457
429.30 0.6462
429.40 0.6467
429.50 0.6472
429.60 0.6477
429.70 0.6483
429.80 0.6488
429.90 0.6493
430.00 0.6498
430.10 0.6504
430.20 0.6509
430.30 0.6514
430.40 0.6519
430.50 0.6525
430.60 0.653
430.70 0.6535
430.80 0.654
430.90 0.6545
431.00 0.6551
431.10 0.6556
431.20 0.6561
431.30 0.6566
431.40 0.6571
431.50 0.6577
431.60 0.6582
431.70 0.6587
431.80 0.6592
431.90 0.6597
432.00 0.6603
432.10 0.6608
432.20 0.6613
432.30 0.6618
432.40 0.6623
432.50 0.6629
432.60 0.6634
432.70 0.6639
432.80 0.6644
432.90 0.6649
433.00 0.6655
433.10 0.666
433.20 0.6665
433.30 0.667
433.40 0.6676
433.50 0.6681
433.60 0.6686
433.70 0.6691
433.80 0.6696
433.90 0.6702
434.00 0.6707
434.10 0.6712
434.20 0.6717
434.30 0.6722
434.40 0.6728
434.50 0.6733
434.60 0.6738
434.70 0.6743
434.80 0.6748
434.90 0.6754
435.00 0.6759
435.10 0.6764
435.20 0.6769
435.30 0.6775
435.40 0.678
435.50 0.6785
435.60 0.679
435.70 0.6795
435.80 0.6801
435.90 0.6806
436.00 0.6811
436.10 0.6816
436.20 0.6821
436.30 0.6827
436.40 0.6832
436.50 0.6837
436.60 0.6842
436.70 0.6847
436.80 0.6853
436.90 0.6858
437.00 0.6863
437.10 0.6868
437.20 0.6873
437.30 0.6879
437.40 0.6884
437.50 0.6889
437.60 0.6894
437.70 0.69
437.80 0.6905
437.90 0.691
438.00 0.6915
438.10 0.692
438.20 0.6926
438.30 0.6931
438.40 0.6936
438.50 0.6941
438.60 0.6946
438.70 0.6952
438.80 0.6957
438.90 0.6962
439.00 0.6967
439.10 0.6972
439.20 0.6977
439.30 0.6983
439.40 0.6988
439.50 0.6993
439.60 0.6998
439.70 0.7003
439.80 0.7009
439.90 0.7014
440.00 0.7019
440.10 0.7024
440.20 0.703
440.30 0.7035
440.40 0.704
440.50 0.7045
440.60 0.705
440.70 0.7055
440.80 0.7061
440.90 0.7066
441.00 0.7071
441.10 0.7076
441.20 0.7081
441.30 0.7087
441.40 0.7092
441.50 0.7097
441.60 0.7102
441.70 0.7108
441.80 0.7113
441.90 0.7118
442.00 0.7123
442.10 0.7128
442.20 0.7133
442.30 0.7139
442.40 0.7144
442.50 0.7149
442.60 0.7154
442.70 0.716
442.80 0.7165
442.90 0.717
443.00 0.7175
443.10 0.718
443.20 0.7185
443.30 0.7191
443.40 0.7196
443.50 0.7201
443.60 0.7206
443.70 0.7211
443.80 0.7217
443.90 0.7222
444.00 0.7227
444.10 0.7232
444.20 0.7237
444.30 0.7243
444.40 0.7248
444.50 0.7253
444.60 0.7258
444.70 0.7263
444.80 0.7268
444.90 0.7274
445.00 0.7279
445.10 0.7284
445.20 0.7289
445.30 0.7294
445.40 0.7299
445.50 0.7305
445.60 0.731
445.70 0.7315
445.80 0.732
445.90 0.7326
446.00 0.7331
446.10 0.7336
446.20 0.7341
446.30 0.7346
446.40 0.7351
446.50 0.7357
446.60 0.7362
446.70 0.7367
446.80 0.7372
446.90 0.7377
447.00 0.7382
447.10 0.7388
447.20 0.7393
447.30 0.7398
447.40 0.7403
447.50 0.7408
447.60 0.7413
447.70 0.7419
447.80 0.7424
447.90 0.7429
448.00 0.7434
448.10 0.7439
448.20 0.7445
448.30 0.745
448.40 0.7455
448.50 0.746
448.60 0.7465
448.70 0.747
448.80 0.7476
448.90 0.7481
449.00 0.7486
449.10 0.7491
449.20 0.7496
449.30 0.7501
449.40 0.7506
449.50 0.7512
449.60 0.7517
449.70 0.7522
449.80 0.7527
449.90 0.7532
450.00 0.7538
450.10 0.7543
450.20 0.7548
450.30 0.7553
450.40 0.7558
450.50 0.7563
450.60 0.7569
450.70 0.7574
450.80 0.7579
450.90 0.7584
451.00 0.7589
451.10 0.7594
451.20 0.7599
451.30 0.7604
451.40 0.761
451.50 0.7615
451.60 0.762
451.70 0.7625
451.80 0.763
451.90 0.7635
452.00 0.7641
452.10 0.7646
452.20 0.7651
452.30 0.7656
452.40 0.7661
452.50 0.7666
452.60 0.7671
452.70 0.7677
452.80 0.7682
452.90 0.7687
453.00 0.7692
453.10 0.7697
453.20 0.7702
453.30 0.7708
453.40 0.7713
453.50 0.7718
453.60 0.7723
453.70 0.7728
453.80 0.7733
453.90 0.7738
454.00 0.7743
454.10 0.7749
454.20 0.7754
454.30 0.7759
454.40 0.7764
454.50 0.7769
454.60 0.7774
454.70 0.7779
454.80 0.7785
454.90 0.779
455.00 0.7795
455.10 0.78
455.20 0.7805
455.30 0.781
455.40 0.7815
455.50 0.782
455.60 0.7826
455.70 0.7831
455.80 0.7836
455.90 0.7841
456.00 0.7846
456.10 0.7851
456.20 0.7856
456.30 0.7862
456.40 0.7867
456.50 0.7872
456.60 0.7877
456.70 0.7882
456.80 0.7887
456.90 0.7892
457.00 0.7897
457.10 0.7903
457.20 0.7908
457.30 0.7913
457.40 0.7918
457.50 0.7923
457.60 0.7928
457.70 0.7933
457.80 0.7938
457.90 0.7943
458.00 0.7948
458.10 0.7954
458.20 0.7959
458.30 0.7964
458.40 0.7969
458.50 0.7974
458.60 0.7979
458.70 0.7984
458.80 0.7989
458.90 0.7994
459.00 0.7999
459.10 0.8004
459.20 0.801
459.30 0.8015
459.40 0.802
459.50 0.8025
459.60 0.803
459.70 0.8035
459.80 0.804
459.90 0.8045
460.00 0.805
460.10 0.8055
460.20 0.8061
460.30 0.8066
460.40 0.8071
460.50 0.8076
460.60 0.8081
460.70 0.8086
460.80 0.8091
460.90 0.8096
461.00 0.8101
461.10 0.8106
461.20 0.8112
461.30 0.8117
461.40 0.8122
461.50 0.8127
461.60 0.8132
461.70 0.8137
461.80 0.8142
461.90 0.8147
462.00 0.8152
462.10 0.8157
462.20 0.8162
462.30 0.8167
462.40 0.8172
462.50 0.8178
462.60 0.8183
462.70 0.8188
462.80 0.8193
462.90 0.8198
463.00 0.8203
463.10 0.8208
463.20 0.8213
463.30 0.8218
463.40 0.8223
463.50 0.8228
463.60 0.8233
463.70 0.8238
463.80 0.8243
463.90 0.8248
464.00 0.8253
464.10 0.8258
464.20 0.8264
464.30 0.8269
464.40 0.8274
464.50 0.8279
464.60 0.8284
464.70 0.8289
464.80 0.8294
464.90 0.8299
465.00 0.8304
465.10 0.8309
465.20 0.8314
465.30 0.8319
465.40 0.8324
465.50 0.8329
465.60 0.8334
465.70 0.8339
465.80 0.8344
465.90 0.835
466.00 0.8355
466.10 0.836
466.20 0.8365
466.30 0.837
466.40 0.8375
466.50 0.838
466.60 0.8385
466.70 0.839
466.80 0.8395
466.90 0.84
467.00 0.8405
467.10 0.841
467.20 0.8415
467.30 0.842
467.40 0.8425
467.50 0.843
467.60 0.8435
467.70 0.844
467.80 0.8445
467.90 0.845
468.00 0.8455
468.10 0.846
468.20 0.8465
468.30 0.847
468.40 0.8475
468.50 0.848
468.60 0.8485
468.70 0.849
468.80 0.8495
468.90 0.85
469.00 0.8505
469.10 0.851
469.20 0.8515
469.30 0.852
469.40 0.8525
469.50 0.853
469.60 0.8535
469.70 0.854
469.80 0.8545
469.90 0.855
470.00 0.8555
470.10 0.856
470.20 0.8565
470.30 0.857
470.40 0.8575
470.50 0.858
470.60 0.8585
470.70 0.859
470.80 0.8595
470.90 0.86
471.00 0.8605
471.10 0.861
471.20 0.8615
471.30 0.862
471.40 0.8625
471.50 0.863
471.60 0.8635
471.70 0.864
471.80 0.8645
471.90 0.865
472.00 0.8655
472.10 0.866
472.20 0.8665
472.30 0.867
472.40 0.8675
472.50 0.868
472.60 0.8685
472.70 0.869
472.80 0.8695
472.90 0.87
473.00 0.8705
473.10 0.871
473.20 0.8715
473.30 0.872
473.40 0.8725
473.50 0.873
473.60 0.8735
473.70 0.874
473.80 0.8745
473.90 0.875
474.00 0.8755
474.10 0.8759
474.20 0.8764
474.30 0.8769
474.40 0.8774
474.50 0.8779
474.60 0.8784
474.70 0.8789
474.80 0.8794
474.90 0.8799
475.00 0.8804
475.10 0.8809
475.20 0.8814
475.30 0.8819
475.40 0.8824
475.50 0.8829
475.60 0.8834
475.70 0.8839
475.80 0.8844
475.90 0.8849
476.00 0.8854
476.10 0.8859
476.20 0.8863
476.30 0.8868
476.40 0.8873
476.50 0.8878
476.60 0.8883
476.70 0.8888
476.80 0.8893
476.90 0.8898
477.00 0.8903
477.10 0.8908
477.20 0.8913
477.30 0.8918
477.40 0.8922
477.50 0.8927
477.60 0.8932
477.70 0.8937
477.80 0.8942
477.90 0.8947
478.00 0.8952
478.10 0.8957
478.20 0.8962
478.30 0.8967
478.40 0.8972
478.50 0.8977
478.60 0.8981
478.70 0.8986
478.80 0.8991
478.90 0.8996
479.00 0.9001
479.10 0.9006
479.20 0.9011
479.30 0.9016
479.40 0.9021
479.50 0.9025
479.60 0.903
479.70 0.9035
479.80 0.904
479.90 0.9045
480.00 0.905
480.10 0.9055
480.20 0.906
480.30 0.9065
480.40 0.907
480.50 0.9074
480.60 0.9079
480.70 0.9084
480.80 0.9089
480.90 0.9094
481.00 0.9099
481.10 0.9104
481.20 0.9109
481.30 0.9113
481.40 0.9118
481.50 0.9123
481.60 0.9128
481.70 0.9133
481.80 0.9138
481.90 0.9143
482.00 0.9147
482.10 0.9152
482.20 0.9157
482.30 0.9162
482.40 0.9167
482.50 0.9172
482.60 0.9177
482.70 0.9181
482.80 0.9186
482.90 0.9191
483.00 0.9196
483.10 0.9201
483.20 0.9206
483.30 0.9211
483.40 0.9215
483.50 0.922
483.60 0.9225
483.70 0.923
483.80 0.9235
483.90 0.924
484.00 0.9244
484.10 0.9249
484.20 0.9254
484.30 0.9259
484.40 0.9264
484.50 0.9269
484.60 0.9274
484.70 0.9278
484.80 0.9283
484.90 0.9288
485.00 0.9293
485.10 0.9297
485.20 0.9302
485.30 0.9307
485.40 0.9312
485.50 0.9317
485.60 0.9322
485.70 0.9327
485.80 0.9331
485.90 0.9336
486.00 0.9341
486.10 0.9346
486.20 0.935
486.30 0.9355
486.40 0.936
486.50 0.9365
486.60 0.937
486.70 0.9374
486.80 0.9379
486.90 0.9384
487.00 0.9389
487.10 0.9394
487.20 0.9398
487.30 0.9403
487.40 0.9408
487.50 0.9413
487.60 0.9418
487.70 0.9422
487.80 0.9427
487.90 0.9432
488.00 0.9437
488.10 0.9442
488.20 0.9446
488.30 0.9451
488.40 0.9456
488.50 0.9461
488.60 0.9465
488.70 0.947
488.80 0.9475
488.90 0.948
489.00 0.9484
489.10 0.9489
489.20 0.9494
489.30 0.9499
489.40 0.9504
489.50 0.9508
489.60 0.9513
489.70 0.9518
489.80 0.9523
489.90 0.9527
490.00 0.9532
490.10 0.9537
490.20 0.9542
490.30 0.9546
490.40 0.9551
490.50 0.9556
490.60 0.9561
490.70 0.9565
490.80 0.957
490.90 0.9575
491.00 0.958
491.10 0.9584
491.20 0.9589
491.30 0.9594
491.40 0.9599
491.50 0.9603
491.60 0.9608
491.70 0.9613
491.80 0.9618
491.90 0.9622
492.00 0.9627
492.10 0.9632
492.20 0.9636
492.30 0.9641
492.40 0.9646
492.50 0.9651
492.60 0.9655
492.70 0.966
492.80 0.9665
492.90 0.9669
493.00 0.9674
493.10 0.9679
493.20 0.9683
493.30 0.9688
493.40 0.9693
493.50 0.9698
493.60 0.9702
493.70 0.9707
493.80 0.9712
493.90 0.9716
494.00 0.9721
494.10 0.9726
494.20 0.973
494.30 0.9735
494.40 0.974
494.50 0.9745
494.60 0.9749
494.70 0.9754
494.80 0.9759
494.90 0.9763
495.00 0.9768
495.10 0.9773
495.20 0.9777
495.30 0.9782
495.40 0.9787
495.50 0.9791
495.60 0.9796
495.70 0.9801
495.80 0.9805
495.90 0.981
496.00 0.9815
496.10 0.9819
496.20 0.9824
496.30 0.9829
496.40 0.9833
496.50 0.9838
496.60 0.9843
496.70 0.9847
496.80 0.9852
496.90 0.9857
497.00 0.9861
497.10 0.9866
497.20 0.987
497.30 0.9875
497.40 0.988
497.50 0.9884
497.60 0.9889
497.70 0.9894
497.80 0.9898
497.90 0.9903
498.00 0.9908
498.10 0.9912
498.20 0.9917
498.30 0.9922
498.40 0.9926
498.50 0.9931
498.60 0.9935
498.70 0.994
498.80 0.9945
498.90 0.9949
499.00 0.9954
499.10 0.9959
499.20 0.9963
499.30 0.9968
499.40 0.9972
499.50 0.9977
499.60 0.9982
499.70 0.9986
499.80 0.9991
499.90 0.9995
500.00 1
500.10 1
500.20 1.001
500.30 1.001
500.40 1.002
500.50 1.002
500.60 1.003
500.70 1.003
500.80 1.004
500.90 1.004
501.00 1.005
501.10 1.005
501.20 1.006
501.30 1.006
501.40 1.006
501.50 1.007
501.60 1.007
501.70 1.008
501.80 1.008
501.90 1.009
502.00 1.009
502.10 1.01
502.20 1.01
502.30 1.011
502.40 1.011
502.50 1.011
502.60 1.012
502.70 1.012
502.80 1.013
502.90 1.013
503.00 1.014
503.10 1.014
503.20 1.015
503.30 1.015
503.40 1.016
503.50 1.016
503.60 1.016
503.70 1.017
503.80 1.017
503.90 1.018
504.00 1.018
504.10 1.019
504.20 1.019
504.30 1.02
504.40 1.02
504.50 1.021
504.60 1.021
504.70 1.021
504.80 1.022
504.90 1.022
505.00 1.023
505.10 1.023
505.20 1.024
505.30 1.024
505.40 1.025
505.50 1.025
505.60 1.026
505.70 1.026
505.80 1.026
505.90 1.027
506.00 1.027
506.10 1.028
506.20 1.028
506.30 1.029
506.40 1.029
506.50 1.03
506.60 1.03
506.70 1.03
506.80 1.031
506.90 1.031
507.00 1.032
507.10 1.032
507.20 1.033
507.30 1.033
507.40 1.034
507.50 1.034
507.60 1.034
507.70 1.035
507.80 1.035
507.90 1.036
508.00 1.036
508.10 1.037
508.20 1.037
508.30 1.038
508.40 1.038
508.50 1.039
508.60 1.039
508.70 1.039
508.80 1.04
508.90 1.04
509.00 1.041
509.10 1.041
509.20 1.042
509.30 1.042
509.40 1.043
509.50 1.043
509.60 1.043
509.70 1.044
509.80 1.044
509.90 1.045
510.00 1.045
510.10 1.046
510.20 1.046
510.30 1.047
510.40 1.047
510.50 1.047
510.60 1.048
510.70 1.048
510.80 1.049
510.90 1.049
511.00 1.05
511.10 1.05
511.20 1.05
511.30 1.051
511.40 1.051
511.50 1.052
511.60 1.052
511.70 1.053
511.80 1.053
511.90 1.054
512.00 1.054
512.10 1.054
512.20 1.055
512.30 1.055
512.40 1.056
512.50 1.056
512.60 1.057
512.70 1.057
512.80 1.058
512.90 1.058
513.00 1.058
513.10 1.059
513.20 1.059
513.30 1.06
513.40 1.06
513.50 1.061
513.60 1.061
513.70 1.061
513.80 1.062
513.90 1.062
514.00 1.063
514.10 1.063
514.20 1.064
514.30 1.064
514.40 1.065
514.50 1.065
514.60 1.065
514.70 1.066
514.80 1.066
514.90 1.067
515.00 1.067
515.10 1.068
515.20 1.068
515.30 1.068
515.40 1.069
515.50 1.069
515.60 1.07
515.70 1.07
515.80 1.071
515.90 1.071
516.00 1.071
516.10 1.072
516.20 1.072
516.30 1.073
516.40 1.073
516.50 1.074
516.60 1.074
516.70 1.075
516.80 1.075
516.90 1.075
517.00 1.076
517.10 1.076
517.20 1.077
517.30 1.077
517.40 1.078
517.50 1.078
517.60 1.078
517.70 1.079
517.80 1.079
517.90 1.08
518.00 1.08
518.10 1.081
518.20 1.081
518.30 1.081
518.40 1.082
518.50 1.082
518.60 1.083
518.70 1.083
518.80 1.084
518.90 1.084
519.00 1.084
519.10 1.085
519.20 1.085
519.30 1.086
519.40 1.086
519.50 1.087
519.60 1.087
519.70 1.087
519.80 1.088
519.90 1.088
520.00 1.089
520.10 1.089
520.20 1.089
520.30 1.09
520.40 1.09
520.50 1.091
520.60 1.091
520.70 1.092
520.80 1.092
520.90 1.092
521.00 1.093
521.10 1.093
521.20 1.094
521.30 1.094
521.40 1.095
521.50 1.095
521.60 1.095
521.70 1.096
521.80 1.096
521.90 1.097
522.00 1.097
522.10 1.098
522.20 1.098
522.30 1.098
522.40 1.099
522.50 1.099
522.60 1.1
522.70 1.1
522.80 1.1
522.90 1.101
523.00 1.101
523.10 1.102
523.20 1.102
523.30 1.103
523.40 1.103
523.50 1.103
523.60 1.104
523.70 1.104
523.80 1.105
523.90 1.105
524.00 1.106
524.10 1.106
524.20 1.106
524.30 1.107
524.40 1.107
524.50 1.108
524.60 1.108
524.70 1.108
524.80 1.109
524.90 1.109
525.00 1.11
525.10 1.11
525.20 1.111
525.30 1.111
525.40 1.111
525.50 1.112
525.60 1.112
525.70 1.113
525.80 1.113
525.90 1.113
526.00 1.114
526.10 1.114
526.20 1.115
526.30 1.115
526.40 1.115
526.50 1.116
526.60 1.116
526.70 1.117
526.80 1.117
526.90 1.118
527.00 1.118
527.10 1.118
527.20 1.119
527.30 1.119
527.40 1.12
527.50 1.12
527.60 1.12
527.70 1.121
527.80 1.121
527.90 1.122
528.00 1.122
528.10 1.122
528.20 1.123
528.30 1.123
528.40 1.124
528.50 1.124
528.60 1.125
528.70 1.125
528.80 1.125
528.90 1.126
529.00 1.126
529.10 1.127
529.20 1.127
529.30 1.127
529.40 1.128
529.50 1.128
529.60 1.129
529.70 1.129
529.80 1.129
529.90 1.13
530.00 1.13
530.10 1.131
530.20 1.131
530.30 1.131
530.40 1.132
530.50 1.132
530.60 1.133
530.70 1.133
530.80 1.133
530.90 1.134
531.00 1.134
531.10 1.135
531.20 1.135
531.30 1.136
531.40 1.136
531.50 1.136
531.60 1.137
531.70 1.137
531.80 1.138
531.90 1.138
532.00 1.138
532.10 1.139
532.20 1.139
532.30 1.14
532.40 1.14
532.50 1.14
532.60 1.141
532.70 1.141
532.80 1.142
532.90 1.142
533.00 1.142
533.10 1.143
533.20 1.143
533.30 1.144
533.40 1.144
533.50 1.144
533.60 1.145
533.70 1.145
533.80 1.146
533.90 1.146
534.00 1.146
534.10 1.147
534.20 1.147
534.30 1.148
534.40 1.148
534.50 1.148
534.60 1.149
534.70 1.149
534.80 1.15
534.90 1.15
535.00 1.15
535.10 1.151
535.20 1.151
535.30 1.152
535.40 1.152
535.50 1.152
535.60 1.153
535.70 1.153
535.80 1.153
535.90 1.154
536.00 1.154
536.10 1.155
536.20 1.155
536.30 1.155
536.40 1.156
536.50 1.156
536.60 1.157
536.70 1.157
536.80 1.157
536.90 1.158
537.00 1.158
537.10 1.159
537.20 1.159
537.30 1.159
537.40 1.16
537.50 1.16
537.60 1.161
537.70 1.161
537.80 1.161
537.90 1.162
538.00 1.162
538.10 1.163
538.20 1.163
538.30 1.163
538.40 1.164
538.50 1.164
538.60 1.164
538.70 1.165
538.80 1.165
538.90 1.166
539.00 1.166
539.10 1.166
539.20 1.167
539.30 1.167
539.40 1.168
539.50 1.168
539.60 1.168
539.70 1.169
539.80 1.169
539.90 1.17
540.00 1.17
540.10 1.17
540.20 1.171
540.30 1.171
540.40 1.171
540.50 1.172
540.60 1.172
540.70 1.173
540.80 1.173
540.90 1.173
541.00 1.174
541.10 1.174
541.20 1.175
541.30 1.175
541.40 1.175
541.50 1.176
541.60 1.176
541.70 1.176
541.80 1.177
541.90 1.177
542.00 1.178
542.10 1.178
542.20 1.178
542.30 1.179
542.40 1.179
542.50 1.18
542.60 1.18
542.70 1.18
542.80 1.181
542.90 1.181
543.00 1.181
543.10 1.182
543.20 1.182
543.30 1.183
543.40 1.183
543.50 1.183
543.60 1.184
543.70 1.184
543.80 1.184
543.90 1.185
544.00 1.185
544.10 1.186
544.20 1.186
544.30 1.186
544.40 1.187
544.50 1.187
544.60 1.187
544.70 1.188
544.80 1.188
544.90 1.189
545.00 1.189
545.10 1.189
545.20 1.19
545.30 1.19
545.40 1.19
545.50 1.191
545.60 1.191
545.70 1.192
545.80 1.192
545.90 1.192
546.00 1.193
546.10 1.193
546.20 1.193
546.30 1.194
546.40 1.194
546.50 1.195
546.60 1.195
546.70 1.195
546.80 1.196
546.90 1.196
547.00 1.196
547.10 1.197
547.20 1.197
547.30 1.198
547.40 1.198
547.50 1.198
547.60 1.199
547.70 1.199
547.80 1.199
547.90 1.2
548.00 1.2
548.10 1.201
548.20 1.201
548.30 1.201
548.40 1.202
548.50 1.202
548.60 1.202
548.70 1.203
548.80 1.203
548.90 1.203
549.00 1.204
549.10 1.204
549.20 1.205
549.30 1.205
549.40 1.205
549.50 1.206
549.60 1.206
549.70 1.206
549.80 1.207
549.90 1.207
550.00 1.208
550.10 1.208
550.20 1.208
550.30 1.209
550.40 1.209
550.50 1.209
550.60 1.21
550.70 1.21
550.80 1.21
550.90 1.211
551.00 1.211
551.10 1.212
551.20 1.212
551.30 1.212
551.40 1.213
551.50 1.213
551.60 1.213
551.70 1.214
551.80 1.214
551.90 1.214
552.00 1.215
552.10 1.215
552.20 1.216
552.30 1.216
552.40 1.216
552.50 1.217
552.60 1.217
552.70 1.217
552.80 1.218
552.90 1.218
553.00 1.218
553.10 1.219
553.20 1.219
553.30 1.219
553.40 1.22
553.50 1.22
553.60 1.221
553.70 1.221
553.80 1.221
553.90 1.222
554.00 1.222
554.10 1.222
554.20 1.223
554.30 1.223
554.40 1.223
554.50 1.224
554.60 1.224
554.70 1.224
554.80 1.225
554.90 1.225
555.00 1.226
555.10 1.226
555.20 1.226
555.30 1.227
555.40 1.227
555.50 1.227
555.60 1.228
555.70 1.228
555.80 1.228
555.90 1.229
556.00 1.229
556.10 1.229
556.20 1.23
556.30 1.23
556.40 1.231
556.50 1.231
556.60 1.231
556.70 1.232
556.80 1.232
556.90 1.232
557.00 1.233
557.10 1.233
557.20 1.233
557.30 1.234
557.40 1.234
557.50 1.234
557.60 1.235
557.70 1.235
557.80 1.235
557.90 1.236
558.00 1.236
558.10 1.236
558.20 1.237
558.30 1.237
558.40 1.238
558.50 1.238
558.60 1.238
558.70 1.239
558.80 1.239
558.90 1.239
559.00 1.24
559.10 1.24
559.20 1.24
559.30 1.241
559.40 1.241
559.50 1.241
559.60 1.242
559.70 1.242
559.80 1.242
559.90 1.243
560.00 1.243
560.10 1.243
560.20 1.244
560.30 1.244
560.40 1.244
560.50 1.245
560.60 1.245
560.70 1.245
560.80 1.246
560.90 1.246
561.00 1.246
561.10 1.247
561.20 1.247
561.30 1.248
561.40 1.248
561.50 1.248
561.60 1.249
561.70 1.249
561.80 1.249
561.90 1.25
562.00 1.25
562.10 1.25
562.20 1.251
562.30 1.251
562.40 1.251
562.50 1.252
562.60 1.252
562.70 1.252
562.80 1.253
562.90 1.253
563.00 1.253
563.10 1.254
563.20 1.254
563.30 1.254
563.40 1.255
563.50 1.255
563.60 1.255
563.70 1.256
563.80 1.256
563.90 1.256
564.00 1.257
564.10 1.257
564.20 1.257
564.30 1.258
564.40 1.258
564.50 1.258
564.60 1.259
564.70 1.259
564.80 1.259
564.90 1.26
565.00 1.26
565.10 1.26
565.20 1.261
565.30 1.261
565.40 1.261
565.50 1.262
565.60 1.262
565.70 1.262
565.80 1.263
565.90 1.263
566.00 1.263
566.10 1.264
566.20 1.264
566.30 1.264
566.40 1.265
566.50 1.265
566.60 1.265
566.70 1.266
566.80 1.266
566.90 1.266
567.00 1.267
567.10 1.267
567.20 1.267
567.30 1.268
567.40 1.268
567.50 1.268
567.60 1.269
567.70 1.269
567.80 1.269
567.90 1.27
568.00 1.27
568.10 1.27
568.20 1.271
568.30 1.271
568.40 1.271
568.50 1.272
568.60 1.272
568.70 1.272
568.80 1.273
568.90 1.273
569.00 1.273
569.10 1.274
569.20 1.274
569.30 1.274
569.40 1.274
569.50 1.275
569.60 1.275
569.70 1.275
569.80 1.276
569.90 1.276
570.00 1.276
570.10 1.277
570.20 1.277
570.30 1.277
570.40 1.278
570.50 1.278
570.60 1.278
570.70 1.279
570.80 1.279
570.90 1.279
571.00 1.28
571.10 1.28
571.20 1.28
571.30 1.281
571.40 1.281
571.50 1.281
571.60 1.282
571.70 1.282
571.80 1.282
571.90 1.283
572.00 1.283
572.10 1.283
572.20 1.283
572.30 1.284
572.40 1.284
572.50 1.284
572.60 1.285
572.70 1.285
572.80 1.285
572.90 1.286
573.00 1.286
573.10 1.286
573.20 1.287
573.30 1.287
573.40 1.287
573.50 1.288
573.60 1.288
573.70 1.288
573.80 1.289
573.90 1.289
574.00 1.289
574.10 1.289
574.20 1.29
574.30 1.29
574.40 1.29
574.50 1.291
574.60 1.291
574.70 1.291
574.80 1.292
574.90 1.292
575.00 1.292
575.10 1.293
575.20 1.293
575.30 1.293
575.40 1.294
575.50 1.294
575.60 1.294
575.70 1.294
575.80 1.295
575.90 1.295
576.00 1.295
576.10 1.296
576.20 1.296
576.30 1.296
576.40 1.297
576.50 1.297
576.60 1.297
576.70 1.298
576.80 1.298
576.90 1.298
577.00 1.298
577.10 1.299
577.20 1.299
577.30 1.299
577.40 1.3
577.50 1.3
577.60 1.3
577.70 1.301
577.80 1.301
577.90 1.301
578.00 1.302
578.10 1.302
578.20 1.302
578.30 1.302
578.40 1.303
578.50 1.303
578.60 1.303
578.70 1.304
578.80 1.304
578.90 1.304
579.00 1.305
579.10 1.305
579.20 1.305
579.30 1.305
579.40 1.306
579.50 1.306
579.60 1.306
579.70 1.307
579.80 1.307
579.90 1.307
580.00 1.308
580.10 1.308
580.20 1.308
580.30 1.309
580.40 1.309
580.50 1.309
580.60 1.309
580.70 1.31
580.80 1.31
580.90 1.31
581.00 1.311
581.10 1.311
581.20 1.311
581.30 1.312
581.40 1.312
581.50 1.312
581.60 1.312
581.70 1.313
581.80 1.313
581.90 1.313
582.00 1.314
582.10 1.314
582.20 1.314
582.30 1.314
582.40 1.315
582.50 1.315
582.60 1.315
582.70 1.316
582.80 1.316
582.90 1.316
583.00 1.317
583.10 1.317
583.20 1.317
583.30 1.317
583.40 1.318
583.50 1.318
583.60 1.318
583.70 1.319
583.80 1.319
583.90 1.319
584.00 1.319
584.10 1.32
584.20 1.32
584.30 1.32
584.40 1.321
584.50 1.321
584.60 1.321
584.70 1.321
584.80 1.322
584.90 1.322
585.00 1.322
585.10 1.323
585.20 1.323
585.30 1.323
585.40 1.324
585.50 1.324
585.60 1.324
585.70 1.324
585.80 1.325
585.90 1.325
586.00 1.325
586.10 1.326
586.20 1.326
586.30 1.326
586.40 1.326
586.50 1.327
586.60 1.327
586.70 1.327
586.80 1.328
586.90 1.328
587.00 1.328
587.10 1.328
587.20 1.329
587.30 1.329
587.40 1.329
587.50 1.33
587.60 1.33
587.70 1.33
587.80 1.33
587.90 1.331
588.00 1.331
588.10 1.331
588.20 1.331
588.30 1.332
588.40 1.332
588.50 1.332
588.60 1.333
588.70 1.333
588.80 1.333
588.90 1.333
589.00 1.334
589.10 1.334
589.20 1.334
589.30 1.335
589.40 1.335
589.50 1.335
589.60 1.335
589.70 1.336
589.80 1.336
589.90 1.336
590.00 1.337
590.10 1.337
590.20 1.337
590.30 1.337
590.40 1.338
590.50 1.338
590.60 1.338
590.70 1.338
590.80 1.339
590.90 1.339
591.00 1.339
591.10 1.34
591.20 1.34
591.30 1.34
591.40 1.34
591.50 1.341
591.60 1.341
591.70 1.341
591.80 1.342
591.90 1.342
592.00 1.342
592.10 1.342
592.20 1.343
592.30 1.343
592.40 1.343
592.50 1.343
592.60 1.344
592.70 1.344
592.80 1.344
592.90 1.345
593.00 1.345
593.10 1.345
593.20 1.345
593.30 1.346
593.40 1.346
593.50 1.346
593.60 1.346
593.70 1.347
593.80 1.347
593.90 1.347
594.00 1.347
594.10 1.348
594.20 1.348
594.30 1.348
594.40 1.349
594.50 1.349
594.60 1.349
594.70 1.349
594.80 1.35
594.90 1.35
595.00 1.35
595.10 1.35
595.20 1.351
595.30 1.351
595.40 1.351
595.50 1.352
595.60 1.352
595.70 1.352
595.80 1.352
595.90 1.353
596.00 1.353
596.10 1.353
596.20 1.353
596.30 1.354
596.40 1.354
596.50 1.354
596.60 1.354
596.70 1.355
596.80 1.355
596.90 1.355
597.00 1.355
597.10 1.356
597.20 1.356
597.30 1.356
597.40 1.357
597.50 1.357
597.60 1.357
597.70 1.357
597.80 1.358
597.90 1.358
598.00 1.358
598.10 1.358
598.20 1.359
598.30 1.359
598.40 1.359
598.50 1.359
598.60 1.36
598.70 1.36
598.80 1.36
598.90 1.36
599.00 1.361
599.10 1.361
599.20 1.361
599.30 1.361
599.40 1.362
599.50 1.362
599.60 1.362
599.70 1.362
599.80 1.363
599.90 1.363
600.00 1.363
600.10 1.363
600.20 1.364
600.30 1.364
600.40 1.364
600.50 1.365
600.60 1.365
600.70 1.365
600.80 1.365
600.90 1.366
601.00 1.366
601.10 1.366
601.20 1.366
601.30 1.367
601.40 1.367
601.50 1.367
601.60 1.367
601.70 1.368
601.80 1.368
601.90 1.368
602.00 1.368
602.10 1.369
602.20 1.369
602.30 1.369
602.40 1.369
602.50 1.37
602.60 1.37
602.70 1.37
602.80 1.37
602.90 1.371
603.00 1.371
603.10 1.371
603.20 1.371
603.30 1.372
603.40 1.372
603.50 1.372
603.60 1.372
603.70 1.373
603.80 1.373
603.90 1.373
604.00 1.373
604.10 1.374
604.20 1.374
604.30 1.374
604.40 1.374
604.50 1.375
604.60 1.375
604.70 1.375
604.80 1.375
604.90 1.375
605.00 1.376
605.10 1.376
605.20 1.376
605.30 1.376
605.40 1.377
605.50 1.377
605.60 1.377
605.70 1.377
605.80 1.378
605.90 1.378
606.00 1.378
606.10 1.378
606.20 1.379
606.30 1.379
606.40 1.379
606.50 1.379
606.60 1.38
606.70 1.38
606.80 1.38
606.90 1.38
607.00 1.381
607.10 1.381
607.20 1.381
607.30 1.381
607.40 1.382
607.50 1.382
607.60 1.382
607.70 1.382
607.80 1.382
607.90 1.383
608.00 1.383
608.10 1.383
608.20 1.383
608.30 1.384
608.40 1.384
608.50 1.384
608.60 1.384
608.70 1.385
608.80 1.385
608.90 1.385
609.00 1.385
609.10 1.386
609.20 1.386
609.30 1.386
609.40 1.386
609.50 1.386
609.60 1.387
609.70 1.387
609.80 1.387
609.90 1.387
610.00 1.388
610.10 1.388
610.20 1.388
610.30 1.388
610.40 1.389
610.50 1.389
610.60 1.389
610.70 1.389
610.80 1.389
610.90 1.39
611.00 1.39
611.10 1.39
611.20 1.39
611.30 1.391
611.40 1.391
611.50 1.391
611.60 1.391
611.70 1.392
611.80 1.392
611.90 1.392
612.00 1.392
612.10 1.392
612.20 1.393
612.30 1.393
612.40 1.393
612.50 1.393
612.60 1.394
612.70 1.394
612.80 1.394
612.90 1.394
613.00 1.395
613.10 1.395
613.20 1.395
613.30 1.395
613.40 1.395
613.50 1.396
613.60 1.396
613.70 1.396
613.80 1.396
613.90 1.397
614.00 1.397
614.10 1.397
614.20 1.397
614.30 1.397
614.40 1.398
614.50 1.398
614.60 1.398
614.70 1.398
614.80 1.399
614.90 1.399
615.00 1.399
615.10 1.399
615.20 1.399
615.30 1.4
615.40 1.4
615.50 1.4
615.60 1.4
615.70 1.401
615.80 1.401
615.90 1.401
616.00 1.401
616.10 1.401
616.20 1.402
616.30 1.402
616.40 1.402
616.50 1.402
616.60 1.402
616.70 1.403
616.80 1.403
616.90 1.403
617.00 1.403
617.10 1.404
617.20 1.404
617.30 1.404
617.40 1.404
617.50 1.404
617.60 1.405
617.70 1.405
617.80 1.405
617.90 1.405
618.00 1.405
618.10 1.406
618.20 1.406
618.30 1.406
618.40 1.406
618.50 1.407
618.60 1.407
618.70 1.407
618.80 1.407
618.90 1.407
619.00 1.408
619.10 1.408
619.20 1.408
619.30 1.408
619.40 1.408
619.50 1.409
619.60 1.409
619.70 1.409
619.80 1.409
619.90 1.41
620.00 1.41
620.10 1.41
620.20 1.41
620.30 1.41
620.40 1.411
620.50 1.411
620.60 1.411
620.70 1.411
620.80 1.411
620.90 1.412
621.00 1.412
621.10 1.412
621.20 1.412
621.30 1.412
621.40 1.413
621.50 1.413
621.60 1.413
621.70 1.413
621.80 1.413
621.90 1.414
622.00 1.414
622.10 1.414
622.20 1.414
622.30 1.414
622.40 1.415
622.50 1.415
622.60 1.415
622.70 1.415
622.80 1.415
622.90 1.416
623.00 1.416
623.10 1.416
623.20 1.416
623.30 1.416
623.40 1.417
623.50 1.417
623.60 1.417
623.70 1.417
623.80 1.417
623.90 1.418
624.00 1.418
624.10 1.418
624.20 1.418
624.30 1.418
624.40 1.419
624.50 1.419
624.60 1.419
624.70 1.419
624.80 1.419
624.90 1.42
625.00 1.42
625.10 1.42
625.20 1.42
625.30 1.42
625.40 1.421
625.50 1.421
625.60 1.421
625.70 1.421
625.80 1.421
625.90 1.422
626.00 1.422
626.10 1.422
626.20 1.422
626.30 1.422
626.40 1.423
626.50 1.423
626.60 1.423
626.70 1.423
626.80 1.423
626.90 1.424
627.00 1.424
627.10 1.424
627.20 1.424
627.30 1.424
627.40 1.425
627.50 1.425
627.60 1.425
627.70 1.425
627.80 1.425
627.90 1.425
628.00 1.426
628.10 1.426
628.20 1.426
628.30 1.426
628.40 1.426
628.50 1.427
628.60 1.427
628.70 1.427
628.80 1.427
628.90 1.427
629.00 1.428
629.10 1.428
629.20 1.428
629.30 1.428
629.40 1.428
629.50 1.428
629.60 1.429
629.70 1.429
629.80 1.429
629.90 1.429
630.00 1.429
630.10 1.43
630.20 1.43
630.30 1.43
630.40 1.43
630.50 1.43
630.60 1.43
630.70 1.431
630.80 1.431
630.90 1.431
631.00 1.431
631.10 1.431
631.20 1.432
631.30 1.432
631.40 1.432
631.50 1.432
631.60 1.432
631.70 1.432
631.80 1.433
631.90 1.433
632.00 1.433
632.10 1.433
632.20 1.433
632.30 1.434
632.40 1.434
632.50 1.434
632.60 1.434
632.70 1.434
632.80 1.434
632.90 1.435
633.00 1.435
633.10 1.435
633.20 1.435
633.30 1.435
633.40 1.436
633.50 1.436
633.60 1.436
633.70 1.436
633.80 1.436
633.90 1.436
634.00 1.437
634.10 1.437
634.20 1.437
634.30 1.437
634.40 1.437
634.50 1.437
634.60 1.438
634.70 1.438
634.80 1.438
634.90 1.438
635.00 1.438
635.10 1.438
635.20 1.439
635.30 1.439
635.40 1.439
635.50 1.439
635.60 1.439
635.70 1.44
635.80 1.44
635.90 1.44
636.00 1.44
636.10 1.44
636.20 1.44
636.30 1.441
636.40 1.441
636.50 1.441
636.60 1.441
636.70 1.441
636.80 1.441
636.90 1.442
637.00 1.442
637.10 1.442
637.20 1.442
637.30 1.442
637.40 1.442
637.50 1.443
637.60 1.443
637.70 1.443
637.80 1.443
637.90 1.443
638.00 1.443
638.10 1.444
638.20 1.444
638.30 1.444
638.40 1.444
638.50 1.444
638.60 1.444
638.70 1.445
638.80 1.445
638.90 1.445
639.00 1.445
639.10 1.445
639.20 1.445
639.30 1.445
639.40 1.446
639.50 1.446
639.60 1.446
639.70 1.446
639.80 1.446
639.90 1.446
640.00 1.447
640.10 1.447
640.20 1.447
640.30 1.447
640.40 1.447
640.50 1.447
640.60 1.448
640.70 1.448
640.80 1.448
640.90 1.448
641.00 1.448
641.10 1.448
641.20 1.448
641.30 1.449
641.40 1.449
641.50 1.449
641.60 1.449
641.70 1.449
641.80 1.449
641.90 1.45
642.00 1.45
642.10 1.45
642.20 1.45
642.30 1.45
642.40 1.45
642.50 1.451
642.60 1.451
642.70 1.451
642.80 1.451
642.90 1.451
643.00 1.451
643.10 1.451
643.20 1.452
643.30 1.452
643.40 1.452
643.50 1.452
643.60 1.452
643.70 1.452
643.80 1.452
643.90 1.453
644.00 1.453
644.10 1.453
644.20 1.453
644.30 1.453
644.40 1.453
644.50 1.454
644.60 1.454
644.70 1.454
644.80 1.454
644.90 1.454
645.00 1.454
645.10 1.454
645.20 1.455
645.30 1.455
645.40 1.455
645.50 1.455
645.60 1.455
645.70 1.455
645.80 1.455
645.90 1.456
646.00 1.456
646.10 1.456
646.20 1.456
646.30 1.456
646.40 1.456
646.50 1.456
646.60 1.457
646.70 1.457
646.80 1.457
646.90 1.457
647.00 1.457
647.10 1.457
647.20 1.457
647.30 1.457
647.40 1.458
647.50 1.458
647.60 1.458
647.70 1.458
647.80 1.458
647.90 1.458
648.00 1.458
648.10 1.459
648.20 1.459
648.30 1.459
648.40 1.459
648.50 1.459
648.60 1.459
648.70 1.459
648.80 1.46
648.90 1.46
649.00 1.46
649.10 1.46
649.20 1.46
649.30 1.46
649.40 1.46
649.50 1.461
649.60 1.461
649.70 1.461
649.80 1.461
649.90 1.461
650.00 1.461
650.10 1.461
650.20 1.461
650.30 1.462
650.40 1.462
650.50 1.462
650.60 1.462
650.70 1.462
650.80 1.462
650.90 1.462
651.00 1.463
651.10 1.463
651.20 1.463
651.30 1.463
651.40 1.463
651.50 1.463
651.60 1.463
651.70 1.463
651.80 1.464
651.90 1.464
652.00 1.464
652.10 1.464
652.20 1.464
652.30 1.464
652.40 1.464
652.50 1.464
652.60 1.465
652.70 1.465
652.80 1.465
652.90 1.465
653.00 1.465
653.10 1.465
653.20 1.465
653.30 1.465
653.40 1.466
653.50 1.466
653.60 1.466
653.70 1.466
653.80 1.466
653.90 1.466
654.00 1.466
654.10 1.466
654.20 1.466
654.30 1.467
654.40 1.467
654.50 1.467
654.60 1.467
654.70 1.467
654.80 1.467
654.90 1.467
655.00 1.468
655.10 1.468
655.20 1.468
655.30 1.468
655.40 1.468
655.50 1.468
655.60 1.468
655.70 1.468
655.80 1.468
655.90 1.469
656.00 1.469
656.10 1.469
656.20 1.469
656.30 1.469
656.40 1.469
656.50 1.469
656.60 1.469
656.70 1.469
656.80 1.47
656.90 1.47
657.00 1.47
657.10 1.47
657.20 1.47
657.30 1.47
657.40 1.47
657.50 1.47
657.60 1.47
657.70 1.471
657.80 1.471
657.90 1.471
658.00 1.471
658.10 1.471
658.20 1.471
658.30 1.471
658.40 1.471
658.50 1.471
658.60 1.472
658.70 1.472
658.80 1.472
658.90 1.472
659.00 1.472
659.10 1.472
659.20 1.472
659.30 1.472
659.40 1.472
659.50 1.472
659.60 1.473
659.70 1.473
659.80 1.473
659.90 1.473
660.00 1.473
660.10 1.473
660.20 1.473
660.30 1.473
660.40 1.473
660.50 1.474
660.60 1.474
660.70 1.474
660.80 1.474
660.90 1.474
661.00 1.474
661.10 1.474
661.20 1.474
661.30 1.474
661.40 1.474
661.50 1.474
661.60 1.475
661.70 1.475
661.80 1.475
661.90 1.475
662.00 1.475
662.10 1.475
662.20 1.475
662.30 1.475
662.40 1.475
662.50 1.475
662.60 1.476
662.70 1.476
662.80 1.476
662.90 1.476
663.00 1.476
663.10 1.476
663.20 1.476
663.30 1.476
663.40 1.476
663.50 1.476
663.60 1.476
663.70 1.477
663.80 1.477
663.90 1.477
664.00 1.477
664.10 1.477
664.20 1.477
664.30 1.477
664.40 1.477
664.50 1.477
664.60 1.477
664.70 1.477
664.80 1.478
664.90 1.478
665.00 1.478
665.10 1.478
665.20 1.478
665.30 1.478
665.40 1.478
665.50 1.478
665.60 1.478
665.70 1.478
665.80 1.478
665.90 1.479
666.00 1.479
666.10 1.479
666.20 1.479
666.30 1.479
666.40 1.479
666.50 1.479
666.60 1.479
666.70 1.479
666.80 1.479
666.90 1.479
667.00 1.479
667.10 1.479
667.20 1.48
667.30 1.48
667.40 1.48
667.50 1.48
667.60 1.48
667.70 1.48
667.80 1.48
667.90 1.48
668.00 1.48
668.10 1.48
668.20 1.48
668.30 1.48
668.40 1.481
668.50 1.481
668.60 1.481
668.70 1.481
668.80 1.481
668.90 1.481
669.00 1.481
669.10 1.481
669.20 1.481
669.30 1.481
669.40 1.481
669.50 1.481
669.60 1.481
669.70 1.481
669.80 1.482
669.90 1.482
670.00 1.482
670.10 1.482
670.20 1.482
670.30 1.482
670.40 1.482
670.50 1.482
670.60 1.482
670.70 1.482
670.80 1.482
670.90 1.482
671.00 1.482
671.10 1.482
671.20 1.482
671.30 1.483
671.40 1.483
671.50 1.483
671.60 1.483
671.70 1.483
671.80 1.483
671.90 1.483
672.00 1.483
672.10 1.483
672.20 1.483
672.30 1.483
672.40 1.483
672.50 1.483
672.60 1.483
672.70 1.483
672.80 1.484
672.90 1.484
673.00 1.484
673.10 1.484
673.20 1.484
673.30 1.484
673.40 1.484
673.50 1.484
673.60 1.484
673.70 1.484
673.80 1.484
673.90 1.484
674.00 1.484
674.10 1.484
674.20 1.484
674.30 1.484
674.40 1.484
674.50 1.484
674.60 1.484
674.70 1.485
674.80 1.485
674.90 1.485
675.00 1.485
675.10 1.485
675.20 1.485
675.30 1.485
675.40 1.485
675.50 1.485
675.60 1.485
675.70 1.485
675.80 1.485
675.90 1.485
676.00 1.485
676.10 1.485
676.20 1.485
676.30 1.485
676.40 1.485
676.50 1.485
676.60 1.485
676.70 1.486
676.80 1.486
676.90 1.486
677.00 1.486
677.10 1.486
677.20 1.486
677.30 1.486
677.40 1.486
677.50 1.486
677.60 1.486
677.70 1.486
677.80 1.486
677.90 1.486
678.00 1.486
678.10 1.486
678.20 1.486
678.30 1.486
678.40 1.486
678.50 1.486
678.60 1.486
678.70 1.486
678.80 1.486
678.90 1.486
679.00 1.486
679.10 1.486
679.20 1.486
679.30 1.486
679.40 1.486
679.50 1.487
679.60 1.487
679.70 1.487
679.80 1.487
679.90 1.487
680.00 1.487
680.10 1.487
680.20 1.487
680.30 1.487
680.40 1.487
680.50 1.487
680.60 1.487
680.70 1.487
680.80 1.487
680.90 1.487
681.00 1.487
681.10 1.487
681.20 1.487
681.30 1.487
681.40 1.487
681.50 1.487
681.60 1.487
681.70 1.487
681.80 1.487
681.90 1.487
682.00 1.487
682.10 1.487
682.20 1.487
682.30 1.487
682.40 1.487
682.50 1.487
682.60 1.487
682.70 1.487
682.80 1.487
682.90 1.487
683.00 1.487
683.10 1.487
683.20 1.488
683.30 1.488
683.40 1.488
683.50 1.488
683.60 1.488
683.70 1.488
683.80 1.488
683.90 1.488
684.00 1.488
684.10 1.488
684.20 1.488
684.30 1.488
684.40 1.488
684.50 1.488
684.60 1.488
684.70 1.488
684.80 1.488
684.90 1.488
685.00 1.488
685.10 1.488
685.20 1.488
685.30 1.488
685.40 1.488
685.50 1.488
685.60 1.488
685.70 1.488
685.80 1.488
685.90 1.488
686.00 1.488
686.10 1.488
686.20 1.488
686.30 1.488
686.40 1.488
686.50 1.488
686.60 1.488
686.70 1.488
686.80 1.488
686.90 1.488
687.00 1.488
687.10 1.488
687.20 1.488
687.30 1.488
687.40 1.488
687.50 1.488
687.60 1.488
687.70 1.488
687.80 1.488
687.90 1.488
688.00 1.488
688.10 1.488
688.20 1.488
688.30 1.488
688.40 1.488
688.50 1.488
688.60 1.488
688.70 1.488
688.80 1.488
688.90 1.488
689.00 1.488
689.10 1.488
689.20 1.487
689.30 1.487
689.40 1.487
689.50 1.487
689.60 1.487
689.70 1.487
689.80 1.487
689.90 1.487
690.00 1.487
690.10 1.487
690.20 1.487
690.30 1.487
690.40 1.487
690.50 1.487
690.60 1.487
690.70 1.487
690.80 1.487
690.90 1.487
691.00 1.487
691.10 1.487
691.20 1.487
691.30 1.487
691.40 1.487
691.50 1.487
691.60 1.487
691.70 1.487
691.80 1.487
691.90 1.487
692.00 1.487
692.10 1.487
692.20 1.487
692.30 1.487
692.40 1.487
692.50 1.487
692.60 1.487
692.70 1.487
692.80 1.487
692.90 1.487
693.00 1.486
693.10 1.486
693.20 1.486
693.30 1.486
693.40 1.486
693.50 1.486
693.60 1.486
693.70 1.486
693.80 1.486
693.90 1.486
694.00 1.486
694.10 1.486
694.20 1.486
694.30 1.486
694.40 1.486
694.50 1.486
694.60 1.486
694.70 1.486
694.80 1.486
694.90 1.486
695.00 1.486
695.10 1.486
695.20 1.486
695.30 1.486
695.40 1.486
695.50 1.486
695.60 1.486
695.70 1.486
695.80 1.485
695.90 1.485
696.00 1.485
696.10 1.485
696.20 1.485
696.30 1.485
696.40 1.485
696.50 1.485
696.60 1.485
696.70 1.485
696.80 1.485
696.90 1.485
697.00 1.485
697.10 1.485
697.20 1.485
697.30 1.485
697.40 1.485
697.50 1.484
697.60 1.484
697.70 1.484
697.80 1.484
697.90 1.484
698.00 1.484
698.10 1.484
698.20 1.484
698.30 1.484
698.40 1.484
698.50 1.484
698.60 1.484
698.70 1.484
698.80 1.484
698.90 1.484
699.00 1.484
699.10 1.484
699.20 1.483
699.30 1.483
699.40 1.483
699.50 1.483
699.60 1.483
699.70 1.483
699.80 1.483
699.90 1.483
700.00 1.483
700.10 1.483
700.20 1.483
700.30 1.483
700.40 1.483
700.50 1.483
700.60 1.482
700.70 1.482
700.80 1.482
700.90 1.482
701.00 1.482
701.10 1.482
701.20 1.482
701.30 1.482
701.40 1.482
701.50 1.482
701.60 1.482
701.70 1.482
701.80 1.481
701.90 1.481
702.00 1.481
702.10 1.481
702.20 1.481
702.30 1.481
702.40 1.481
702.50 1.481
702.60 1.481
702.70 1.481
702.80 1.481
702.90 1.481
703.00 1.48
703.10 1.48
703.20 1.48
703.30 1.48
703.40 1.48
703.50 1.48
703.60 1.48
703.70 1.48
703.80 1.48
703.90 1.48
704.00 1.48
704.10 1.48
704.20 1.479
704.30 1.479
704.40 1.479
704.50 1.479
704.60 1.479
704.70 1.479
704.80 1.479
704.90 1.479
705.00 1.479
705.10 1.479
705.20 1.479
705.30 1.478
705.40 1.478
705.50 1.478
705.60 1.478
705.70 1.478
705.80 1.478
705.90 1.478
706.00 1.478
706.10 1.477
706.20 1.477
706.30 1.477
706.40 1.477
706.50 1.477
706.60 1.477
706.70 1.477
706.80 1.477
706.90 1.477
707.00 1.476
707.10 1.476
707.20 1.476
707.30 1.476
707.40 1.476
707.50 1.476
707.60 1.476
707.70 1.476
707.80 1.476
707.90 1.475
708.00 1.475
708.10 1.475
708.20 1.475
708.30 1.475
708.40 1.475
708.50 1.475
708.60 1.475
708.70 1.475
708.80 1.474
708.90 1.474
709.00 1.474
709.10 1.474
709.20 1.474
709.30 1.474
709.40 1.474
709.50 1.474
709.60 1.473
709.70 1.473
709.80 1.473
709.90 1.473
710.00 1.473
710.10 1.473
710.20 1.473
710.30 1.473
710.40 1.472
710.50 1.472
710.60 1.472
710.70 1.472
710.80 1.472
710.90 1.472
711.00 1.472
711.10 1.472
711.20 1.471
711.30 1.471
711.40 1.471
711.50 1.471
711.60 1.471
711.70 1.471
711.80 1.471
711.90 1.47
712.00 1.47
712.10 1.47
712.20 1.47
712.30 1.47
712.40 1.47
712.50 1.47
712.60 1.469
712.70 1.469
712.80 1.469
712.90 1.469
713.00 1.469
713.10 1.469
713.20 1.469
713.30 1.469
713.40 1.468
713.50 1.468
713.60 1.468
713.70 1.468
713.80 1.468
713.90 1.468
714.00 1.468
714.10 1.467
714.20 1.467
714.30 1.467
714.40 1.467
714.50 1.467
714.60 1.467
714.70 1.467
714.80 1.466
714.90 1.466
715.00 1.466
715.10 1.466
715.20 1.466
715.30 1.466
715.40 1.466
715.50 1.465
715.60 1.465
715.70 1.465
715.80 1.465
715.90 1.465
716.00 1.465
716.10 1.464
716.20 1.464
716.30 1.464
716.40 1.464
716.50 1.464
716.60 1.464
716.70 1.463
716.80 1.463
716.90 1.463
717.00 1.463
717.10 1.463
717.20 1.463
717.30 1.462
717.40 1.462
717.50 1.462
717.60 1.462
717.70 1.462
717.80 1.462
717.90 1.461
718.00 1.461
718.10 1.461
718.20 1.461
718.30 1.461
718.40 1.461
718.50 1.46
718.60 1.46
718.70 1.46
718.80 1.46
718.90 1.46
719.00 1.46
719.10 1.459
719.20 1.459
719.30 1.459
719.40 1.459
719.50 1.459
719.60 1.459
719.70 1.458
719.80 1.458
719.90 1.458
720.00 1.458
720.10 1.458
720.20 1.458
720.30 1.457
720.40 1.457
720.50 1.457
720.60 1.457
720.70 1.457
720.80 1.457
720.90 1.456
721.00 1.456
721.10 1.456
721.20 1.456
721.30 1.456
721.40 1.455
721.50 1.455
721.60 1.455
721.70 1.455
721.80 1.455
721.90 1.455
722.00 1.454
722.10 1.454
722.20 1.454
722.30 1.454
722.40 1.454
722.50 1.453
722.60 1.453
722.70 1.453
722.80 1.453
722.90 1.453
723.00 1.453
723.10 1.452
723.20 1.452
723.30 1.452
723.40 1.452
723.50 1.452
723.60 1.452
723.70 1.451
723.80 1.451
723.90 1.451
724.00 1.451
724.10 1.451
724.20 1.45
724.30 1.45
724.40 1.45
724.50 1.45
724.60 1.45
724.70 1.45
724.80 1.449
724.90 1.449
725.00 1.449
725.10 1.449
725.20 1.449
725.30 1.448
725.40 1.448
725.50 1.448
725.60 1.448
725.70 1.448
725.80 1.448
725.90 1.447
726.00 1.447
726.10 1.447
726.20 1.447
726.30 1.447
726.40 1.446
726.50 1.446
726.60 1.446
726.70 1.446
726.80 1.446
726.90 1.445
727.00 1.445
727.10 1.445
727.20 1.445
727.30 1.445
727.40 1.445
727.50 1.444
727.60 1.444
727.70 1.444
727.80 1.444
727.90 1.444
728.00 1.443
728.10 1.443
728.20 1.443
728.30 1.443
728.40 1.443
728.50 1.442
728.60 1.442
728.70 1.442
728.80 1.442
728.90 1.442
729.00 1.442
729.10 1.441
729.20 1.441
729.30 1.441
729.40 1.441
729.50 1.441
729.60 1.44
729.70 1.44
729.80 1.44
729.90 1.44
730.00 1.44
730.10 1.439
730.20 1.439
730.30 1.439
730.40 1.439
730.50 1.439
730.60 1.439
730.70 1.438
730.80 1.438
730.90 1.438
731.00 1.438
731.10 1.438
731.20 1.437
731.30 1.437
731.40 1.437
731.50 1.437
731.60 1.437
731.70 1.437
731.80 1.436
731.90 1.436
732.00 1.436
732.10 1.436
732.20 1.436
732.30 1.435
732.40 1.435
732.50 1.435
732.60 1.435
732.70 1.435
732.80 1.434
732.90 1.434
733.00 1.434
733.10 1.434
733.20 1.434
733.30 1.434
733.40 1.433
733.50 1.433
733.60 1.433
733.70 1.433
733.80 1.433
733.90 1.432
734.00 1.432
734.10 1.432
734.20 1.432
734.30 1.432
734.40 1.432
734.50 1.431
734.60 1.431
734.70 1.431
734.80 1.431
734.90 1.431
735.00 1.43
735.10 1.43
735.20 1.43
735.30 1.43
735.40 1.43
735.50 1.43
735.60 1.429
735.70 1.429
735.80 1.429
735.90 1.429
736.00 1.429
736.10 1.428
736.20 1.428
736.30 1.428
736.40 1.428
736.50 1.428
736.60 1.428
736.70 1.427
736.80 1.427
736.90 1.427
737.00 1.427
737.10 1.427
737.20 1.426
737.30 1.426
737.40 1.426
737.50 1.426
737.60 1.426
737.70 1.426
737.80 1.425
737.90 1.425
738.00 1.425
738.10 1.425
738.20 1.425
738.30 1.424
738.40 1.424
738.50 1.424
738.60 1.424
738.70 1.424
738.80 1.424
738.90 1.423
739.00 1.423
739.10 1.423
739.20 1.423
739.30 1.423
739.40 1.422
739.50 1.422
739.60 1.422
739.70 1.422
739.80 1.422
739.90 1.422
740.00 1.421
740.10 1.421
740.20 1.421
740.30 1.421
740.40 1.421
740.50 1.421
740.60 1.42
740.70 1.42
740.80 1.42
740.90 1.42
741.00 1.42
741.10 1.42
741.20 1.419
741.30 1.419
741.40 1.419
741.50 1.419
741.60 1.419
741.70 1.419
741.80 1.418
741.90 1.418
742.00 1.418
742.10 1.418
742.20 1.418
742.30 1.418
742.40 1.417
742.50 1.417
742.60 1.417
742.70 1.417
742.80 1.417
742.90 1.417
743.00 1.416
743.10 1.416
743.20 1.416
743.30 1.416
743.40 1.416
743.50 1.416
743.60 1.415
743.70 1.415
743.80 1.415
743.90 1.415
744.00 1.415
744.10 1.415
744.20 1.415
744.30 1.414
744.40 1.414
744.50 1.414
744.60 1.414
744.70 1.414
744.80 1.414
744.90 1.413
745.00 1.413
745.10 1.413
745.20 1.413
745.30 1.413
745.40 1.413
745.50 1.412
745.60 1.412
745.70 1.412
745.80 1.412
745.90 1.412
746.00 1.412
746.10 1.411
746.20 1.411
746.30 1.411
746.40 1.411
746.50 1.411
746.60 1.411
746.70 1.41
746.80 1.41
746.90 1.41
747.00 1.41
747.10 1.41
747.20 1.41
747.30 1.409
747.40 1.409
747.50 1.409
747.60 1.409
747.70 1.409
747.80 1.409
747.90 1.409
748.00 1.408
748.10 1.408
748.20 1.408
748.30 1.408
748.40 1.408
748.50 1.408
748.60 1.407
748.70 1.407
748.80 1.407
748.90 1.407
749.00 1.407
749.10 1.407
749.20 1.406
749.30 1.406
749.40 1.406
749.50 1.406
749.60 1.406
749.70 1.406
749.80 1.405
749.90 1.405
750.00 1.405
750.10 1.405
750.20 1.405
750.30 1.405
750.40 1.405
750.50 1.404
750.60 1.404
750.70 1.404
750.80 1.404
750.90 1.404
751.00 1.404
751.10 1.404
751.20 1.403
751.30 1.403
751.40 1.403
751.50 1.403
751.60 1.403
751.70 1.403
751.80 1.403
751.90 1.402
752.00 1.402
752.10 1.402
752.20 1.402
752.30 1.402
752.40 1.402
752.50 1.402
752.60 1.401
752.70 1.401
752.80 1.401
752.90 1.401
753.00 1.401
753.10 1.401
753.20 1.401
753.30 1.4
753.40 1.4
753.50 1.4
753.60 1.4
753.70 1.4
753.80 1.4
753.90 1.399
754.00 1.399
754.10 1.399
754.20 1.399
754.30 1.399
754.40 1.399
754.50 1.399
754.60 1.398
754.70 1.398
754.80 1.398
754.90 1.398
755.00 1.398
755.10 1.398
755.20 1.398
755.30 1.397
755.40 1.397
755.50 1.397
755.60 1.397
755.70 1.397
755.80 1.397
755.90 1.397
756.00 1.396
756.10 1.396
756.20 1.396
756.30 1.396
756.40 1.396
756.50 1.396
756.60 1.396
756.70 1.395
756.80 1.395
756.90 1.395
757.00 1.395
757.10 1.395
757.20 1.395
757.30 1.395
757.40 1.394
757.50 1.394
757.60 1.394
757.70 1.394
757.80 1.394
757.90 1.394
758.00 1.394
758.10 1.393
758.20 1.393
758.30 1.393
758.40 1.393
758.50 1.393
758.60 1.393
758.70 1.393
758.80 1.392
758.90 1.392
759.00 1.392
759.10 1.392
759.20 1.392
759.30 1.392
759.40 1.392
759.50 1.391
759.60 1.391
759.70 1.391
759.80 1.391
759.90 1.391
760.00 1.391
760.10 1.391
760.20 1.39
760.30 1.39
760.40 1.39
760.50 1.39
760.60 1.39
760.70 1.39
760.80 1.39
760.90 1.39
761.00 1.389
761.10 1.389
761.20 1.389
761.30 1.389
761.40 1.389
761.50 1.389
761.60 1.389
761.70 1.388
761.80 1.388
761.90 1.388
762.00 1.388
762.10 1.388
762.20 1.388
762.30 1.388
762.40 1.388
762.50 1.387
762.60 1.387
762.70 1.387
762.80 1.387
762.90 1.387
763.00 1.387
763.10 1.387
763.20 1.386
763.30 1.386
763.40 1.386
763.50 1.386
763.60 1.386
763.70 1.386
763.80 1.386
763.90 1.386
764.00 1.385
764.10 1.385
764.20 1.385
764.30 1.385
764.40 1.385
764.50 1.385
764.60 1.385
764.70 1.384
764.80 1.384
764.90 1.384
765.00 1.384
765.10 1.384
765.20 1.384
765.30 1.384
765.40 1.384
765.50 1.383
765.60 1.383
765.70 1.383
765.80 1.383
765.90 1.383
766.00 1.383
766.10 1.383
766.20 1.383
766.30 1.382
766.40 1.382
766.50 1.382
766.60 1.382
766.70 1.382
766.80 1.382
766.90 1.382
767.00 1.381
767.10 1.381
767.20 1.381
767.30 1.381
767.40 1.381
767.50 1.381
767.60 1.381
767.70 1.381
767.80 1.38
767.90 1.38
768.00 1.38
768.10 1.38
768.20 1.38
768.30 1.38
768.40 1.38
768.50 1.379
768.60 1.379
768.70 1.379
768.80 1.379
768.90 1.379
769.00 1.379
769.10 1.379
769.20 1.379
769.30 1.378
769.40 1.378
769.50 1.378
769.60 1.378
769.70 1.378
769.80 1.378
769.90 1.378
770.00 1.378
770.10 1.377
770.20 1.377
770.30 1.377
770.40 1.377
770.50 1.377
770.60 1.377
770.70 1.377
770.80 1.377
770.90 1.376
771.00 1.376
771.10 1.376
771.20 1.376
771.30 1.376
771.40 1.376
771.50 1.376
771.60 1.376
771.70 1.376
771.80 1.375
771.90 1.375
772.00 1.375
772.10 1.375
772.20 1.375
772.30 1.375
772.40 1.375
772.50 1.375
772.60 1.375
772.70 1.374
772.80 1.374
772.90 1.374
773.00 1.374
773.10 1.374
773.20 1.374
773.30 1.374
773.40 1.374
773.50 1.374
773.60 1.373
773.70 1.373
773.80 1.373
773.90 1.373
774.00 1.373
774.10 1.373
774.20 1.373
774.30 1.373
774.40 1.373
774.50 1.372
774.60 1.372
774.70 1.372
774.80 1.372
774.90 1.372
775.00 1.372
775.10 1.372
775.20 1.372
775.30 1.372
775.40 1.371
775.50 1.371
775.60 1.371
775.70 1.371
775.80 1.371
775.90 1.371
776.00 1.371
776.10 1.371
776.20 1.371
776.30 1.37
776.40 1.37
776.50 1.37
776.60 1.37
776.70 1.37
776.80 1.37
776.90 1.37
777.00 1.37
777.10 1.37
777.20 1.369
777.30 1.369
777.40 1.369
777.50 1.369
777.60 1.369
777.70 1.369
777.80 1.369
777.90 1.369
778.00 1.369
778.10 1.368
778.20 1.368
778.30 1.368
778.40 1.368
778.50 1.368
778.60 1.368
778.70 1.368
778.80 1.368
778.90 1.367
779.00 1.367
779.10 1.367
779.20 1.367
779.30 1.367
779.40 1.367
779.50 1.367
779.60 1.367
779.70 1.367
779.80 1.366
779.90 1.366
780.00 1.366
780.10 1.366
780.20 1.366
780.30 1.366
780.40 1.366
780.50 1.366
780.60 1.366
780.70 1.366
780.80 1.366
780.90 1.365
781.00 1.365
781.10 1.365
781.20 1.365
781.30 1.365
781.40 1.365
781.50 1.365
781.60 1.365
781.70 1.365
781.80 1.365
781.90 1.365
782.00 1.365
782.10 1.364
782.20 1.364
782.30 1.364
782.40 1.364
782.50 1.364
782.60 1.364
782.70 1.364
782.80 1.364
782.90 1.364
783.00 1.364
783.10 1.364
783.20 1.364
783.30 1.363
783.40 1.363
783.50 1.363
783.60 1.363
783.70 1.363
783.80 1.363
783.90 1.363
784.00 1.363
784.10 1.363
784.20 1.363
784.30 1.363
784.40 1.362
784.50 1.362
784.60 1.362
784.70 1.362
784.80 1.362
784.90 1.362
785.00 1.362
785.10 1.362
785.20 1.362
785.30 1.362
785.40 1.362
785.50 1.362
785.60 1.361
785.70 1.361
785.80 1.361
785.90 1.361
786.00 1.361
786.10 1.361
786.20 1.361
786.30 1.361
786.40 1.361
786.50 1.361
786.60 1.361
786.70 1.361
786.80 1.36
786.90 1.36
787.00 1.36
787.10 1.36
787.20 1.36
787.30 1.36
787.40 1.36
787.50 1.36
787.60 1.36
787.70 1.36
787.80 1.36
787.90 1.359
788.00 1.359
788.10 1.359
788.20 1.359
788.30 1.359
788.40 1.359
788.50 1.359
788.60 1.359
788.70 1.359
788.80 1.359
788.90 1.359
789.00 1.359
789.10 1.358
789.20 1.358
789.30 1.358
789.40 1.358
789.50 1.358
789.60 1.358
789.70 1.358
789.80 1.358
789.90 1.358
790.00 1.358
790.10 1.358
790.20 1.358
790.30 1.357
790.40 1.357
790.50 1.357
790.60 1.357
790.70 1.357
790.80 1.357
790.90 1.357
791.00 1.357
791.10 1.357
791.20 1.357
791.30 1.357
791.40 1.356
791.50 1.356
791.60 1.356
791.70 1.356
791.80 1.356
791.90 1.356
792.00 1.356
792.10 1.356
792.20 1.356
792.30 1.356
792.40 1.356
792.50 1.356
792.60 1.355
792.70 1.355
792.80 1.355
792.90 1.355
793.00 1.355
793.10 1.355
793.20 1.355
793.30 1.355
793.40 1.355
793.50 1.355
793.60 1.355
793.70 1.355
793.80 1.354
793.90 1.354
794.00 1.354
794.10 1.354
794.20 1.354
794.30 1.354
794.40 1.354
794.50 1.354
794.60 1.354
794.70 1.354
794.80 1.354
794.90 1.354
795.00 1.353
795.10 1.353
795.20 1.353
795.30 1.353
795.40 1.353
795.50 1.353
795.60 1.353
795.70 1.353
795.80 1.353
795.90 1.353
796.00 1.353
796.10 1.352
796.20 1.352
796.30 1.352
796.40 1.352
796.50 1.352
796.60 1.352
796.70 1.352
796.80 1.352
796.90 1.352
797.00 1.352
797.10 1.352
797.20 1.352
797.30 1.351
797.40 1.351
797.50 1.351
797.60 1.351
797.70 1.351
797.80 1.351
797.90 1.351
798.00 1.351
798.10 1.351
798.20 1.351
798.30 1.351
798.40 1.351
798.50 1.35
798.60 1.35
798.70 1.35
798.80 1.35
798.90 1.35
799.00 1.35
799.10 1.35
799.20 1.35
799.30 1.35
799.40 1.35
799.50 1.35
799.60 1.35
799.70 1.349
799.80 1.349
799.90 1.349
800.00 1.349
800.10 1.349
800.20 1.349
800.30 1.349
800.40 1.349
800.50 1.349
800.60 1.348
800.70 1.348
800.80 1.348
800.90 1.348
801.00 1.348
801.10 1.348
801.20 1.348
801.30 1.348
801.40 1.348
801.50 1.347
801.60 1.347
801.70 1.347
801.80 1.347
801.90 1.347
802.00 1.347
802.10 1.347
802.20 1.347
802.30 1.346
802.40 1.346
802.50 1.346
802.60 1.346
802.70 1.346
802.80 1.346
802.90 1.346
803.00 1.346
803.10 1.346
803.20 1.345
803.30 1.345
803.40 1.345
803.50 1.345
803.60 1.345
803.70 1.345
803.80 1.345
803.90 1.345
804.00 1.345
804.10 1.344
804.20 1.344
804.30 1.344
804.40 1.344
804.50 1.344
804.60 1.344
804.70 1.344
804.80 1.344
804.90 1.343
805.00 1.343
805.10 1.343
805.20 1.343
805.30 1.343
805.40 1.343
805.50 1.343
805.60 1.343
805.70 1.343
805.80 1.342
805.90 1.342
806.00 1.342
806.10 1.342
806.20 1.342
806.30 1.342
806.40 1.342
806.50 1.342
806.60 1.341
806.70 1.341
806.80 1.341
806.90 1.341
807.00 1.341
807.10 1.341
807.20 1.341
807.30 1.341
807.40 1.341
807.50 1.34
807.60 1.34
807.70 1.34
807.80 1.34
807.90 1.34
808.00 1.34
808.10 1.34
808.20 1.34
808.30 1.34
808.40 1.339
808.50 1.339
808.60 1.339
808.70 1.339
808.80 1.339
808.90 1.339
809.00 1.339
809.10 1.339
809.20 1.338
809.30 1.338
809.40 1.338
809.50 1.338
809.60 1.338
809.70 1.338
809.80 1.338
809.90 1.338
810.00 1.338
810.10 1.337
810.20 1.337
810.30 1.337
810.40 1.337
810.50 1.337
810.60 1.337
810.70 1.336
810.80 1.336
810.90 1.336
811.00 1.336
811.10 1.336
811.20 1.336
811.30 1.336
811.40 1.335
811.50 1.335
811.60 1.335
811.70 1.335
811.80 1.335
811.90 1.335
812.00 1.334
812.10 1.334
812.20 1.334
812.30 1.334
812.40 1.334
812.50 1.334
812.60 1.333
812.70 1.333
812.80 1.333
812.90 1.333
813.00 1.333
813.10 1.333
813.20 1.333
813.30 1.332
813.40 1.332
813.50 1.332
813.60 1.332
813.70 1.332
813.80 1.332
813.90 1.331
814.00 1.331
814.10 1.331
814.20 1.331
814.30 1.331
814.40 1.331
814.50 1.331
814.60 1.33
814.70 1.33
814.80 1.33
814.90 1.33
815.00 1.33
815.10 1.33
815.20 1.329
815.30 1.329
815.40 1.329
815.50 1.329
815.60 1.329
815.70 1.329
815.80 1.328
815.90 1.328
816.00 1.328
816.10 1.328
816.20 1.328
816.30 1.328
816.40 1.328
816.50 1.327
816.60 1.327
816.70 1.327
816.80 1.327
816.90 1.327
817.00 1.327
817.10 1.326
817.20 1.326
817.30 1.326
817.40 1.326
817.50 1.326
817.60 1.326
817.70 1.326
817.80 1.325
817.90 1.325
818.00 1.325
818.10 1.325
818.20 1.325
818.30 1.325
818.40 1.324
818.50 1.324
818.60 1.324
818.70 1.324
818.80 1.324
818.90 1.324
819.00 1.324
819.10 1.323
819.20 1.323
819.30 1.323
819.40 1.323
819.50 1.323
819.60 1.323
819.70 1.322
819.80 1.322
819.90 1.322
820.00 1.322
820.10 1.322
820.20 1.322
820.30 1.321
820.40 1.321
820.50 1.321
820.60 1.321
820.70 1.321
820.80 1.321
820.90 1.32
821.00 1.32
821.10 1.32
821.20 1.32
821.30 1.32
821.40 1.32
821.50 1.319
821.60 1.319
821.70 1.319
821.80 1.319
821.90 1.319
822.00 1.318
822.10 1.318
822.20 1.318
822.30 1.318
822.40 1.318
822.50 1.318
822.60 1.317
822.70 1.317
822.80 1.317
822.90 1.317
823.00 1.317
823.10 1.316
823.20 1.316
823.30 1.316
823.40 1.316
823.50 1.316
823.60 1.316
823.70 1.315
823.80 1.315
823.90 1.315
824.00 1.315
824.10 1.315
824.20 1.314
824.30 1.314
824.40 1.314
824.50 1.314
824.60 1.314
824.70 1.314
824.80 1.313
824.90 1.313
825.00 1.313
825.10 1.313
825.20 1.313
825.30 1.312
825.40 1.312
825.50 1.312
825.60 1.312
825.70 1.312
825.80 1.311
825.90 1.311
826.00 1.311
826.10 1.311
826.20 1.311
826.30 1.311
826.40 1.31
826.50 1.31
826.60 1.31
826.70 1.31
826.80 1.31
826.90 1.309
827.00 1.309
827.10 1.309
827.20 1.309
827.30 1.309
827.40 1.308
827.50 1.308
827.60 1.308
827.70 1.308
827.80 1.308
827.90 1.308
828.00 1.307
828.10 1.307
828.20 1.307
828.30 1.307
828.40 1.307
828.50 1.306
828.60 1.306
828.70 1.306
828.80 1.306
828.90 1.306
829.00 1.305
829.10 1.305
829.20 1.305
829.30 1.305
829.40 1.305
829.50 1.304
829.60 1.304
829.70 1.304
829.80 1.304
829.90 1.304
830.00 1.303
830.10 1.303
830.20 1.303
830.30 1.303
830.40 1.303
830.50 1.302
830.60 1.302
830.70 1.302
830.80 1.302
830.90 1.302
831.00 1.301
831.10 1.301
831.20 1.301
831.30 1.301
831.40 1.301
831.50 1.3
831.60 1.3
831.70 1.3
831.80 1.3
831.90 1.3
832.00 1.3
832.10 1.299
832.20 1.299
832.30 1.299
832.40 1.299
832.50 1.298
832.60 1.298
832.70 1.298
832.80 1.298
832.90 1.298
833.00 1.297
833.10 1.297
833.20 1.297
833.30 1.297
833.40 1.297
833.50 1.296
833.60 1.296
833.70 1.296
833.80 1.296
833.90 1.296
834.00 1.295
834.10 1.295
834.20 1.295
834.30 1.295
834.40 1.294
834.50 1.294
834.60 1.294
834.70 1.294
834.80 1.294
834.90 1.293
835.00 1.293
835.10 1.293
835.20 1.293
835.30 1.293
835.40 1.292
835.50 1.292
835.60 1.292
835.70 1.292
835.80 1.292
835.90 1.291
836.00 1.291
836.10 1.291
836.20 1.291
836.30 1.291
836.40 1.29
836.50 1.29
836.60 1.29
836.70 1.29
836.80 1.29
836.90 1.289
837.00 1.289
837.10 1.289
837.20 1.289
837.30 1.288
837.40 1.288
837.50 1.288
837.60 1.288
837.70 1.288
837.80 1.287
837.90 1.287
838.00 1.287
838.10 1.287
838.20 1.286
838.30 1.286
838.40 1.286
838.50 1.286
838.60 1.286
838.70 1.285
838.80 1.285
838.90 1.285
839.00 1.285
839.10 1.285
839.20 1.284
839.30 1.284
839.40 1.284
839.50 1.284
839.60 1.283
839.70 1.283
839.80 1.283
839.90 1.283
840.00 1.283
840.10 1.282
840.20 1.282
840.30 1.282
840.40 1.282
840.50 1.281
840.60 1.281
840.70 1.281
840.80 1.281
840.90 1.281
841.00 1.28
841.10 1.28
841.20 1.28
841.30 1.28
841.40 1.28
841.50 1.279
841.60 1.279
841.70 1.279
841.80 1.279
841.90 1.278
842.00 1.278
842.10 1.278
842.20 1.278
842.30 1.278
842.40 1.277
842.50 1.277
842.60 1.277
842.70 1.277
842.80 1.276
842.90 1.276
843.00 1.276
843.10 1.276
843.20 1.276
843.30 1.275
843.40 1.275
843.50 1.275
843.60 1.275
843.70 1.274
843.80 1.274
843.90 1.274
844.00 1.274
844.10 1.273
844.20 1.273
844.30 1.273
844.40 1.273
844.50 1.273
844.60 1.272
844.70 1.272
844.80 1.272
844.90 1.272
845.00 1.271
845.10 1.271
845.20 1.271
845.30 1.271
845.40 1.271
845.50 1.27
845.60 1.27
845.70 1.27
845.80 1.27
845.90 1.269
846.00 1.269
846.10 1.269
846.20 1.269
846.30 1.268
846.40 1.268
846.50 1.268
846.60 1.268
846.70 1.268
846.80 1.267
846.90 1.267
847.00 1.267
847.10 1.267
847.20 1.266
847.30 1.266
847.40 1.266
847.50 1.266
847.60 1.265
847.70 1.265
847.80 1.265
847.90 1.265
848.00 1.265
848.10 1.264
848.20 1.264
848.30 1.264
848.40 1.264
848.50 1.263
848.60 1.263
848.70 1.263
848.80 1.263
848.90 1.262
849.00 1.262
849.10 1.262
849.20 1.262
849.30 1.261
849.40 1.261
849.50 1.261
849.60 1.261
849.70 1.261
849.80 1.26
849.90 1.26
850.00 1.26
850.10 1.26
850.20 1.259
850.30 1.259
850.40 1.259
850.50 1.259
850.60 1.258
850.70 1.258
850.80 1.258
850.90 1.258
851.00 1.257
851.10 1.257
851.20 1.257
851.30 1.257
851.40 1.257
851.50 1.256
851.60 1.256
851.70 1.256
851.80 1.256
851.90 1.255
852.00 1.255
852.10 1.255
852.20 1.255
852.30 1.254
852.40 1.254
852.50 1.254
852.60 1.254
852.70 1.253
852.80 1.253
852.90 1.253
853.00 1.253
853.10 1.252
853.20 1.252
853.30 1.252
853.40 1.252
853.50 1.251
853.60 1.251
853.70 1.251
853.80 1.251
853.90 1.25
854.00 1.25
854.10 1.25
854.20 1.25
854.30 1.25
854.40 1.249
854.50 1.249
854.60 1.249
854.70 1.249
854.80 1.248
854.90 1.248
855.00 1.248
855.10 1.248
855.20 1.247
855.30 1.247
855.40 1.247
855.50 1.247
855.60 1.246
855.70 1.246
855.80 1.246
855.90 1.246
856.00 1.245
856.10 1.245
856.20 1.245
856.30 1.245
856.40 1.244
856.50 1.244
856.60 1.244
856.70 1.244
856.80 1.243
856.90 1.243
857.00 1.243
857.10 1.243
857.20 1.242
857.30 1.242
857.40 1.242
857.50 1.242
857.60 1.241
857.70 1.241
857.80 1.241
857.90 1.241
858.00 1.24
858.10 1.24
858.20 1.24
858.30 1.24
858.40 1.239
858.50 1.239
858.60 1.239
858.70 1.239
858.80 1.238
858.90 1.238
859.00 1.238
859.10 1.238
859.20 1.237
859.30 1.237
859.40 1.237
859.50 1.237
859.60 1.236
859.70 1.236
859.80 1.236
859.90 1.236
860.00 1.235
860.10 1.235
860.20 1.235
860.30 1.234
860.40 1.234
860.50 1.234
860.60 1.234
860.70 1.233
860.80 1.233
860.90 1.233
861.00 1.233
861.10 1.232
861.20 1.232
861.30 1.232
861.40 1.232
861.50 1.231
861.60 1.231
861.70 1.231
861.80 1.231
861.90 1.23
862.00 1.23
862.10 1.23
862.20 1.23
862.30 1.229
862.40 1.229
862.50 1.229
862.60 1.229
862.70 1.228
862.80 1.228
862.90 1.228
863.00 1.228
863.10 1.227
863.20 1.227
863.30 1.227
863.40 1.226
863.50 1.226
863.60 1.226
863.70 1.226
863.80 1.225
863.90 1.225
864.00 1.225
864.10 1.225
864.20 1.224
864.30 1.224
864.40 1.224
864.50 1.224
864.60 1.223
864.70 1.223
864.80 1.223
864.90 1.222
865.00 1.222
865.10 1.222
865.20 1.222
865.30 1.221
865.40 1.221
865.50 1.221
865.60 1.221
865.70 1.22
865.80 1.22
865.90 1.22
866.00 1.22
866.10 1.219
866.20 1.219
866.30 1.219
866.40 1.218
866.50 1.218
866.60 1.218
866.70 1.218
866.80 1.217
866.90 1.217
867.00 1.217
867.10 1.217
867.20 1.216
867.30 1.216
867.40 1.216
867.50 1.215
867.60 1.215
867.70 1.215
867.80 1.215
867.90 1.214
868.00 1.214
868.10 1.214
868.20 1.214
868.30 1.213
868.40 1.213
868.50 1.213
868.60 1.212
868.70 1.212
868.80 1.212
868.90 1.212
869.00 1.211
869.10 1.211
869.20 1.211
869.30 1.21
869.40 1.21
869.50 1.21
869.60 1.21
869.70 1.209
869.80 1.209
869.90 1.209
870.00 1.208
870.10 1.208
870.20 1.208
870.30 1.208
870.40 1.207
870.50 1.207
870.60 1.207
870.70 1.206
870.80 1.206
870.90 1.206
871.00 1.206
871.10 1.205
871.20 1.205
871.30 1.205
871.40 1.205
871.50 1.204
871.60 1.204
871.70 1.204
871.80 1.203
871.90 1.203
872.00 1.203
872.10 1.203
872.20 1.202
872.30 1.202
872.40 1.202
872.50 1.201
872.60 1.201
872.70 1.201
872.80 1.2
872.90 1.2
873.00 1.2
873.10 1.2
873.20 1.199
873.30 1.199
873.40 1.199
873.50 1.198
873.60 1.198
873.70 1.198
873.80 1.197
873.90 1.197
874.00 1.197
874.10 1.197
874.20 1.196
874.30 1.196
874.40 1.196
874.50 1.195
874.60 1.195
874.70 1.195
874.80 1.194
874.90 1.194
875.00 1.194
875.10 1.194
875.20 1.193
875.30 1.193
875.40 1.193
875.50 1.192
875.60 1.192
875.70 1.192
875.80 1.192
875.90 1.191
876.00 1.191
876.10 1.191
876.20 1.19
876.30 1.19
876.40 1.19
876.50 1.189
876.60 1.189
876.70 1.189
876.80 1.189
876.90 1.188
877.00 1.188
877.10 1.188
877.20 1.187
877.30 1.187
877.40 1.187
877.50 1.186
877.60 1.186
877.70 1.186
877.80 1.185
877.90 1.185
878.00 1.185
878.10 1.184
878.20 1.184
878.30 1.184
878.40 1.184
878.50 1.183
878.60 1.183
878.70 1.183
878.80 1.182
878.90 1.182
879.00 1.182
879.10 1.181
879.20 1.181
879.30 1.181
879.40 1.18
879.50 1.18
879.60 1.18
879.70 1.179
879.80 1.179
879.90 1.179
880.00 1.178
880.10 1.178
880.20 1.178
880.30 1.178
880.40 1.177
880.50 1.177
880.60 1.177
880.70 1.176
880.80 1.176
880.90 1.176
881.00 1.175
881.10 1.175
881.20 1.175
881.30 1.174
881.40 1.174
881.50 1.174
881.60 1.173
881.70 1.173
881.80 1.173
881.90 1.172
882.00 1.172
882.10 1.172
882.20 1.171
882.30 1.171
882.40 1.171
882.50 1.17
882.60 1.17
882.70 1.17
882.80 1.169
882.90 1.169
883.00 1.169
883.10 1.168
883.20 1.168
883.30 1.168
883.40 1.167
883.50 1.167
883.60 1.167
883.70 1.166
883.80 1.166
883.90 1.166
884.00 1.165
884.10 1.165
884.20 1.165
884.30 1.164
884.40 1.164
884.50 1.164
884.60 1.163
884.70 1.163
884.80 1.163
884.90 1.162
885.00 1.162
885.10 1.162
885.20 1.161
885.30 1.161
885.40 1.161
885.50 1.16
885.60 1.16
885.70 1.16
885.80 1.159
885.90 1.159
886.00 1.159
886.10 1.158
886.20 1.158
886.30 1.158
886.40 1.157
886.50 1.157
886.60 1.157
886.70 1.156
886.80 1.156
886.90 1.156
887.00 1.155
887.10 1.155
887.20 1.154
887.30 1.154
887.40 1.154
887.50 1.153
887.60 1.153
887.70 1.153
887.80 1.152
887.90 1.152
888.00 1.152
888.10 1.151
888.20 1.151
888.30 1.15
888.40 1.15
888.50 1.15
888.60 1.149
888.70 1.149
888.80 1.149
888.90 1.148
889.00 1.148
889.10 1.148
889.20 1.147
889.30 1.147
889.40 1.146
889.50 1.146
889.60 1.146
889.70 1.145
889.80 1.145
889.90 1.145
890.00 1.144
890.10 1.144
890.20 1.144
890.30 1.143
890.40 1.143
890.50 1.142
890.60 1.142
890.70 1.142
890.80 1.141
890.90 1.141
891.00 1.141
891.10 1.14
891.20 1.14
891.30 1.14
891.40 1.139
891.50 1.139
891.60 1.139
891.70 1.138
891.80 1.138
891.90 1.137
892.00 1.137
892.10 1.137
892.20 1.136
892.30 1.136
892.40 1.136
892.50 1.135
892.60 1.135
892.70 1.135
892.80 1.134
892.90 1.134
893.00 1.134
893.10 1.133
893.20 1.133
893.30 1.132
893.40 1.132
893.50 1.132
893.60 1.131
893.70 1.131
893.80 1.131
893.90 1.13
894.00 1.13
894.10 1.13
894.20 1.129
894.30 1.129
894.40 1.129
894.50 1.128
894.60 1.128
894.70 1.128
894.80 1.127
894.90 1.127
895.00 1.126
895.10 1.126
895.20 1.126
895.30 1.125
895.40 1.125
895.50 1.125
895.60 1.124
895.70 1.124
895.80 1.124
895.90 1.123
896.00 1.123
896.10 1.123
896.20 1.122
896.30 1.122
896.40 1.122
896.50 1.121
896.60 1.121
896.70 1.12
896.80 1.12
896.90 1.12
897.00 1.119
897.10 1.119
897.20 1.119
897.30 1.118
897.40 1.118
897.50 1.117
897.60 1.117
897.70 1.117
897.80 1.116
897.90 1.116
898.00 1.115
898.10 1.115
898.20 1.114
898.30 1.114
898.40 1.114
898.50 1.113
898.60 1.113
898.70 1.112
898.80 1.112
898.90 1.112
899.00 1.111
899.10 1.111
899.20 1.11
899.30 1.11
899.40 1.109
899.50 1.109
899.60 1.109
899.70 1.108
899.80 1.108
899.90 1.107
900.00 1.107
900.10 1.107
900.20 1.106
900.30 1.106
900.40 1.105
900.50 1.105
900.60 1.105
900.70 1.104
900.80 1.104
900.90 1.103
901.00 1.103
901.10 1.102
901.20 1.102
901.30 1.102
901.40 1.101
901.50 1.101
901.60 1.1
901.70 1.1
901.80 1.1
901.90 1.099
902.00 1.099
902.10 1.098
902.20 1.098
902.30 1.097
902.40 1.097
902.50 1.096
902.60 1.096
902.70 1.095
902.80 1.095
902.90 1.094
903.00 1.094
903.10 1.093
903.20 1.093
903.30 1.092
903.40 1.092
903.50 1.091
903.60 1.091
903.70 1.09
903.80 1.09
903.90 1.089
904.00 1.089
904.10 1.088
904.20 1.088
904.30 1.087
904.40 1.087
904.50 1.086
904.60 1.086
904.70 1.085
904.80 1.085
904.90 1.084
905.00 1.084
905.10 1.083
905.20 1.083
905.30 1.082
905.40 1.082
905.50 1.081
905.60 1.081
905.70 1.08
905.80 1.08
905.90 1.079
906.00 1.079
906.10 1.078
906.20 1.078
906.30 1.077
906.40 1.077
906.50 1.076
906.60 1.076
906.70 1.075
906.80 1.075
906.90 1.074
907.00 1.074
907.10 1.073
907.20 1.073
907.30 1.072
907.40 1.072
907.50 1.071
907.60 1.071
907.70 1.07
907.80 1.07
907.90 1.069
908.00 1.069
908.10 1.068
908.20 1.068
908.30 1.068
908.40 1.067
908.50 1.067
908.60 1.066
908.70 1.066
908.80 1.065
908.90 1.065
909.00 1.064
909.10 1.064
909.20 1.063
909.30 1.063
909.40 1.062
909.50 1.062
909.60 1.061
909.70 1.061
909.80 1.061
909.90 1.06
910.00 1.06
910.10 1.059
910.20 1.059
910.30 1.058
910.40 1.058
910.50 1.057
910.60 1.057
910.70 1.056
910.80 1.056
910.90 1.055
911.00 1.055
911.10 1.054
911.20 1.054
911.30 1.054
911.40 1.053
911.50 1.053
911.60 1.052
911.70 1.052
911.80 1.051
911.90 1.051
912.00 1.05
912.10 1.05
912.20 1.049
912.30 1.049
912.40 1.049
912.50 1.048
912.60 1.048
912.70 1.047
912.80 1.047
912.90 1.046
913.00 1.046
913.10 1.045
913.20 1.045
913.30 1.045
913.40 1.044
913.50 1.044
913.60 1.043
913.70 1.043
913.80 1.042
913.90 1.042
914.00 1.041
914.10 1.041
914.20 1.041
914.30 1.04
914.40 1.04
914.50 1.039
914.60 1.039
914.70 1.038
914.80 1.038
914.90 1.037
915.00 1.037
915.10 1.037
915.20 1.036
915.30 1.036
915.40 1.035
915.50 1.035
915.60 1.034
915.70 1.034
915.80 1.033
915.90 1.033
916.00 1.033
916.10 1.032
916.20 1.032
916.30 1.031
916.40 1.031
916.50 1.03
916.60 1.03
916.70 1.03
916.80 1.029
916.90 1.029
917.00 1.028
917.10 1.028
917.20 1.027
917.30 1.027
917.40 1.026
917.50 1.026
917.60 1.025
917.70 1.025
917.80 1.024
917.90 1.024
918.00 1.023
918.10 1.023
918.20 1.022
918.30 1.022
918.40 1.021
918.50 1.021
918.60 1.02
918.70 1.02
918.80 1.02
918.90 1.019
919.00 1.019
919.10 1.018
919.20 1.018
919.30 1.017
919.40 1.017
919.50 1.016
919.60 1.016
919.70 1.015
919.80 1.015
919.90 1.014
920.00 1.014
920.10 1.013
920.20 1.013
920.30 1.012
920.40 1.012
920.50 1.011
920.60 1.011
920.70 1.01
920.80 1.01
920.90 1.009
921.00 1.009
921.10 1.009
921.20 1.008
921.30 1.008
921.40 1.007
921.50 1.007
921.60 1.006
921.70 1.006
921.80 1.005
921.90 1.005
922.00 1.004
922.10 1.004
922.20 1.003
922.30 1.003
922.40 1.002
922.50 1.002
922.60 1.001
922.70 1.001
922.80 1
922.90 0.9998
923.00 0.9993
923.10 0.9988
923.20 0.9983
923.30 0.9978
923.40 0.9973
923.50 0.9968
923.60 0.9963
923.70 0.9958
923.80 0.9953
923.90 0.9948
924.00 0.9944
924.10 0.9939
924.20 0.9934
924.30 0.9929
924.40 0.9924
924.50 0.9919
924.60 0.9914
924.70 0.9909
924.80 0.9904
924.90 0.9899
925.00 0.9894
925.10 0.9889
925.20 0.9884
925.30 0.988
925.40 0.9875
925.50 0.987
925.60 0.9865
925.70 0.986
925.80 0.9855
925.90 0.985
926.00 0.9845
926.10 0.984
926.20 0.9835
926.30 0.9831
926.40 0.9826
926.50 0.9821
926.60 0.9816
926.70 0.9811
926.80 0.9806
926.90 0.9801
927.00 0.9796
927.10 0.9791
927.20 0.9786
927.30 0.9781
927.40 0.9776
927.50 0.9771
927.60 0.9766
927.70 0.9761
927.80 0.9756
927.90 0.9751
928.00 0.9746
928.10 0.9741
928.20 0.9736
928.30 0.973
928.40 0.9725
928.50 0.972
928.60 0.9715
928.70 0.971
928.80 0.9705
928.90 0.97
929.00 0.9695
929.10 0.969
929.20 0.9685
929.30 0.968
929.40 0.9675
929.50 0.967
929.60 0.9665
929.70 0.966
929.80 0.9655
929.90 0.965
930.00 0.9645
930.10 0.964
930.20 0.9635
930.30 0.963
930.40 0.9625
930.50 0.962
930.60 0.9615
930.70 0.961
930.80 0.9605
930.90 0.96
931.00 0.9595
931.10 0.959
931.20 0.9585
931.30 0.958
931.40 0.9575
931.50 0.957
931.60 0.9565
931.70 0.956
931.80 0.9555
931.90 0.955
932.00 0.9545
932.10 0.9539
932.20 0.9534
932.30 0.9529
932.40 0.9524
932.50 0.9519
932.60 0.9514
932.70 0.9509
932.80 0.9503
932.90 0.9498
933.00 0.9493
933.10 0.9488
933.20 0.9483
933.30 0.9478
933.40 0.9473
933.50 0.9467
933.60 0.9462
933.70 0.9457
933.80 0.9452
933.90 0.9447
934.00 0.9442
934.10 0.9437
934.20 0.9432
934.30 0.9427
934.40 0.9421
934.50 0.9416
934.60 0.9411
934.70 0.9406
934.80 0.9401
934.90 0.9395
935.00 0.939
935.10 0.9385
935.20 0.938
935.30 0.9375
935.40 0.937
935.50 0.9364
935.60 0.9359
935.70 0.9354
935.80 0.9349
935.90 0.9344
936.00 0.9339
936.10 0.9333
936.20 0.9328
936.30 0.9323
936.40 0.9318
936.50 0.9313
936.60 0.9308
936.70 0.9303
936.80 0.9297
936.90 0.9292
937.00 0.9287
937.10 0.9282
937.20 0.9277
937.30 0.9272
937.40 0.9266
937.50 0.9261
937.60 0.9256
937.70 0.9251
937.80 0.9246
937.90 0.924
938.00 0.9235
938.10 0.923
938.20 0.9225
938.30 0.922
938.40 0.9214
938.50 0.9209
938.60 0.9204
938.70 0.9198
938.80 0.9193
938.90 0.9188
939.00 0.9183
939.10 0.9177
939.20 0.9172
939.30 0.9167
939.40 0.9161
939.50 0.9156
939.60 0.9151
939.70 0.9145
939.80 0.914
939.90 0.9135
940.00 0.913
940.10 0.9124
940.20 0.9119
940.30 0.9114
940.40 0.9109
940.50 0.9103
940.60 0.9098
940.70 0.9093
940.80 0.9087
940.90 0.9082
941.00 0.9077
941.10 0.9072
941.20 0.9066
941.30 0.9061
941.40 0.9056
941.50 0.9051
941.60 0.9046
941.70 0.904
941.80 0.9035
941.90 0.903
942.00 0.9025
942.10 0.9019
942.20 0.9014
942.30 0.9009
942.40 0.9003
942.50 0.8998
942.60 0.8993
942.70 0.8988
942.80 0.8982
942.90 0.8977
943.00 0.8972
943.10 0.8967
943.20 0.8961
943.30 0.8956
943.40 0.8951
943.50 0.8946
943.60 0.894
943.70 0.8935
943.80 0.893
943.90 0.8925
944.00 0.8919
944.10 0.8914
944.20 0.8909
944.30 0.8904
944.40 0.8898
944.50 0.8893
944.60 0.8888
944.70 0.8883
944.80 0.8877
944.90 0.8872
945.00 0.8867
945.10 0.8862
945.20 0.8856
945.30 0.8851
945.40 0.8846
945.50 0.884
945.60 0.8835
945.70 0.883
945.80 0.8825
945.90 0.8819
946.00 0.8814
946.10 0.8809
946.20 0.8803
946.30 0.8798
946.40 0.8793
946.50 0.8787
946.60 0.8782
946.70 0.8777
946.80 0.8772
946.90 0.8766
947.00 0.8761
947.10 0.8756
947.20 0.875
947.30 0.8745
947.40 0.874
947.50 0.8735
947.60 0.8729
947.70 0.8724
947.80 0.8718
947.90 0.8713
948.00 0.8708
948.10 0.8702
948.20 0.8697
948.30 0.8692
948.40 0.8686
948.50 0.8681
948.60 0.8676
948.70 0.867
948.80 0.8665
948.90 0.866
949.00 0.8654
949.10 0.8649
949.20 0.8644
949.30 0.8638
949.40 0.8633
949.50 0.8628
949.60 0.8622
949.70 0.8617
949.80 0.8612
949.90 0.8607
950.00 0.8601
950.10 0.8596
950.20 0.8591
950.30 0.8585
950.40 0.858
950.50 0.8575
950.60 0.857
950.70 0.8564
950.80 0.8559
950.90 0.8554
951.00 0.8549
951.10 0.8543
951.20 0.8538
951.30 0.8533
951.40 0.8528
951.50 0.8522
951.60 0.8517
951.70 0.8512
951.80 0.8507
951.90 0.8502
952.00 0.8496
952.10 0.8491
952.20 0.8486
952.30 0.848
952.40 0.8475
952.50 0.847
952.60 0.8465
952.70 0.8459
952.80 0.8454
952.90 0.8449
953.00 0.8444
953.10 0.8438
953.20 0.8433
953.30 0.8428
953.40 0.8423
953.50 0.8417
953.60 0.8412
953.70 0.8407
953.80 0.8402
953.90 0.8396
954.00 0.8391
954.10 0.8386
954.20 0.838
954.30 0.8375
954.40 0.837
954.50 0.8365
954.60 0.836
954.70 0.8354
954.80 0.8349
954.90 0.8344
955.00 0.8338
955.10 0.8333
955.20 0.8328
955.30 0.8322
955.40 0.8317
955.50 0.8312
955.60 0.8307
955.70 0.8302
955.80 0.8296
955.90 0.8291
956.00 0.8286
956.10 0.828
956.20 0.8275
956.30 0.827
956.40 0.8264
956.50 0.8259
956.60 0.8254
956.70 0.8248
956.80 0.8243
956.90 0.8237
957.00 0.8232
957.10 0.8227
957.20 0.8222
957.30 0.8216
957.40 0.8211
957.50 0.8206
957.60 0.8201
957.70 0.8196
957.80 0.819
957.90 0.8185
958.00 0.818
958.10 0.8175
958.20 0.817
958.30 0.8165
958.40 0.8159
958.50 0.8154
958.60 0.8149
958.70 0.8144
958.80 0.8139
958.90 0.8133
959.00 0.8128
959.10 0.8123
959.20 0.8118
959.30 0.8113
959.40 0.8108
959.50 0.8102
959.60 0.8097
959.70 0.8092
959.80 0.8087
959.90 0.8082
960.00 0.8077
960.10 0.8071
960.20 0.8066
960.30 0.8061
960.40 0.8056
960.50 0.8051
960.60 0.8045
960.70 0.804
960.80 0.8035
960.90 0.803
961.00 0.8025
961.10 0.802
961.20 0.8014
961.30 0.8009
961.40 0.8004
961.50 0.7999
961.60 0.7994
961.70 0.7989
961.80 0.7983
961.90 0.7978
962.00 0.7973
962.10 0.7968
962.20 0.7963
962.30 0.7958
962.40 0.7953
962.50 0.7947
962.60 0.7942
962.70 0.7937
962.80 0.7932
962.90 0.7927
963.00 0.7922
963.10 0.7917
963.20 0.7912
963.30 0.7907
963.40 0.7902
963.50 0.7896
963.60 0.7891
963.70 0.7886
963.80 0.7881
963.90 0.7876
964.00 0.7871
964.10 0.7866
964.20 0.786
964.30 0.7855
964.40 0.785
964.50 0.7845
964.60 0.784
964.70 0.7835
964.80 0.783
964.90 0.7825
965.00 0.7819
965.10 0.7814
965.20 0.7809
965.30 0.7804
965.40 0.7799
965.50 0.7794
965.60 0.7789
965.70 0.7784
965.80 0.7779
965.90 0.7773
966.00 0.7768
966.10 0.7763
966.20 0.7758
966.30 0.7753
966.40 0.7748
966.50 0.7743
966.60 0.7738
966.70 0.7733
966.80 0.7728
966.90 0.7723
967.00 0.7717
967.10 0.7712
967.20 0.7707
967.30 0.7702
967.40 0.7697
967.50 0.7692
967.60 0.7687
967.70 0.7682
967.80 0.7677
967.90 0.7672
968.00 0.7667
968.10 0.7662
968.20 0.7657
968.30 0.7652
968.40 0.7647
968.50 0.7642
968.60 0.7638
968.70 0.7633
968.80 0.7628
968.90 0.7623
969.00 0.7618
969.10 0.7613
969.20 0.7608
969.30 0.7603
969.40 0.7598
969.50 0.7593
969.60 0.7588
969.70 0.7583
969.80 0.7578
969.90 0.7573
970.00 0.7568
970.10 0.7564
970.20 0.7559
970.30 0.7554
970.40 0.7549
970.50 0.7544
970.60 0.7539
970.70 0.7534
970.80 0.7529
970.90 0.7524
971.00 0.7519
971.10 0.7514
971.20 0.751
971.30 0.7505
971.40 0.75
971.50 0.7495
971.60 0.749
971.70 0.7485
971.80 0.748
971.90 0.7475
972.00 0.7471
972.10 0.7466
972.20 0.7461
972.30 0.7456
972.40 0.7451
972.50 0.7446
972.60 0.7442
972.70 0.7437
972.80 0.7432
972.90 0.7427
973.00 0.7422
973.10 0.7417
973.20 0.7413
973.30 0.7408
973.40 0.7403
973.50 0.7398
973.60 0.7393
973.70 0.7389
973.80 0.7384
973.90 0.7379
974.00 0.7374
974.10 0.7369
974.20 0.7365
974.30 0.736
974.40 0.7355
974.50 0.735
974.60 0.7345
974.70 0.7341
974.80 0.7336
974.90 0.7331
975.00 0.7326
975.10 0.7322
975.20 0.7317
975.30 0.7312
975.40 0.7307
975.50 0.7303
975.60 0.7298
975.70 0.7293
975.80 0.7288
975.90 0.7284
976.00 0.7279
976.10 0.7274
976.20 0.7269
976.30 0.7265
976.40 0.726
976.50 0.7255
976.60 0.725
976.70 0.7246
976.80 0.7241
976.90 0.7236
977.00 0.7231
977.10 0.7227
977.20 0.7222
977.30 0.7218
977.40 0.7213
977.50 0.7208
977.60 0.7204
977.70 0.7199
977.80 0.7194
977.90 0.719
978.00 0.7185
978.10 0.7181
978.20 0.7176
978.30 0.7171
978.40 0.7167
978.50 0.7162
978.60 0.7157
978.70 0.7153
978.80 0.7148
978.90 0.7144
979.00 0.7139
979.10 0.7134
979.20 0.713
979.30 0.7125
979.40 0.7121
979.50 0.7116
979.60 0.7112
979.70 0.7107
979.80 0.7102
979.90 0.7098
980.00 0.7093
980.10 0.7089
980.20 0.7084
980.30 0.7079
980.40 0.7075
980.50 0.707
980.60 0.7066
980.70 0.7061
980.80 0.7057
980.90 0.7052
981.00 0.7047
981.10 0.7043
981.20 0.7038
981.30 0.7034
981.40 0.7029
981.50 0.7025
981.60 0.702
981.70 0.7015
981.80 0.7011
981.90 0.7006
982.00 0.7002
982.10 0.6997
982.20 0.6993
982.30 0.6988
982.40 0.6984
982.50 0.698
982.60 0.6975
982.70 0.6971
982.80 0.6966
982.90 0.6962
983.00 0.6957
983.10 0.6953
983.20 0.6949
983.30 0.6944
983.40 0.694
983.50 0.6935
983.60 0.6931
983.70 0.6926
983.80 0.6922
983.90 0.6918
984.00 0.6913
984.10 0.6909
984.20 0.6904
984.30 0.69
984.40 0.6896
984.50 0.6891
984.60 0.6887
984.70 0.6882
984.80 0.6878
984.90 0.6874
985.00 0.687
985.10 0.6866
985.20 0.6861
985.30 0.6857
985.40 0.6853
985.50 0.6849
985.60 0.6845
985.70 0.6841
985.80 0.6836
985.90 0.6832
986.00 0.6828
986.10 0.6824
986.20 0.682
986.30 0.6816
986.40 0.6811
986.50 0.6807
986.60 0.6803
986.70 0.6799
986.80 0.6795
986.90 0.6791
987.00 0.6786
987.10 0.6782
987.20 0.6778
987.30 0.6773
987.40 0.6769
987.50 0.6765
987.60 0.676
987.70 0.6756
987.80 0.6752
987.90 0.6747
988.00 0.6743
988.10 0.6739
988.20 0.6734
988.30 0.673
988.40 0.6726
988.50 0.6721
988.60 0.6717
988.70 0.6713
988.80 0.6708
988.90 0.6704
989.00 0.67
989.10 0.6695
989.20 0.6691
989.30 0.6687
989.40 0.6682
989.50 0.6678
989.60 0.6674
989.70 0.6669
989.80 0.6665
989.90 0.6661
990.00 0.6656
990.10 0.6652
990.20 0.6648
990.30 0.6643
990.40 0.6639
990.50 0.6635
990.60 0.663
990.70 0.6626
990.80 0.6622
990.90 0.6618
991.00 0.6613
991.10 0.6609
991.20 0.6605
991.30 0.66
991.40 0.6596
991.50 0.6592
991.60 0.6588
991.70 0.6583
991.80 0.6579
991.90 0.6575
992.00 0.6571
992.10 0.6566
992.20 0.6562
992.30 0.6557
992.40 0.6553
992.50 0.6549
992.60 0.6544
992.70 0.654
992.80 0.6536
992.90 0.6531
993.00 0.6527
993.10 0.6523
993.20 0.6519
993.30 0.6514
993.40 0.651
993.50 0.6506
993.60 0.6501
993.70 0.6497
993.80 0.6493
993.90 0.6488
994.00 0.6484
994.10 0.648
994.20 0.6476
994.30 0.6471
994.40 0.6467
994.50 0.6463
994.60 0.6458
994.70 0.6454
994.80 0.6449
994.90 0.6444
995.00 0.6439
995.10 0.6434
995.20 0.6429
995.30 0.6424
995.40 0.6419
995.50 0.6414
995.60 0.6409
995.70 0.6404
995.80 0.64
995.90 0.6396
996.00 0.6392
996.10 0.6387
996.20 0.6383
996.30 0.6379
996.40 0.6375
996.50 0.6371
996.60 0.6366
996.70 0.6362
996.80 0.6358
996.90 0.6354
997.00 0.635
997.10 0.6346
997.20 0.6342
997.30 0.6337
997.40 0.6333
997.50 0.6329
997.60 0.6325
997.70 0.6321
997.80 0.6317
997.90 0.6313
998.00 0.6309
998.10 0.6305
998.20 0.6301
998.30 0.6297
998.40 0.6293
998.50 0.6289
998.60 0.6285
998.70 0.6281
998.80 0.6277
998.90 0.6273
999.00 0.6269
999.10 0.6265
999.20 0.6261
999.30 0.6256
999.40 0.6252
999.50 0.6248
999.60 0.6244
999.70 0.624
999.80 0.6237
999.90 0.6233
1000.00 0.6229
1000.10 0.6225
1000.20 0.6221
1000.30 0.6217
1000.40 0.6213
1000.50 0.6209
1000.60 0.6205
1000.70 0.6201
1000.80 0.6197
1000.90 0.6193
1001.00 0.6189
1001.10 0.6186
1001.20 0.6182
1001.30 0.6178
1001.40 0.6174
1001.50 0.617
1001.60 0.6166
1001.70 0.6162
1001.80 0.6158
1001.90 0.6155
1002.00 0.6151
1002.10 0.6147
1002.20 0.6143
1002.30 0.614
1002.40 0.6136
1002.50 0.6132
1002.60 0.6128
1002.70 0.6124
1002.80 0.6121
1002.90 0.6117
1003.00 0.6113
1003.10 0.6109
1003.20 0.6105
1003.30 0.6102
1003.40 0.6098
1003.50 0.6094
1003.60 0.609
1003.70 0.6087
1003.80 0.6083
1003.90 0.6079
1004.00 0.6076
1004.10 0.6072
1004.20 0.6068
1004.30 0.6065
1004.40 0.6061
1004.50 0.6057
1004.60 0.6054
1004.70 0.605
1004.80 0.6046
1004.90 0.6042
1005.00 0.6037
1005.10 0.6034
1005.20 0.603
1005.30 0.6026
1005.40 0.6023
1005.50 0.6019
1005.60 0.6016
1005.70 0.6012
1005.80 0.6009
1005.90 0.6005
1006.00 0.6001
1006.10 0.5998
1006.20 0.5994
1006.30 0.5991
1006.40 0.5987
1006.50 0.5984
1006.60 0.598
1006.70 0.5977
1006.80 0.5973
1006.90 0.597
1007.00 0.5966
1007.10 0.5963
1007.20 0.5959
1007.30 0.5956
1007.40 0.5952
1007.50 0.5949
1007.60 0.5946
1007.70 0.5942
1007.80 0.5939
1007.90 0.5935
1008.00 0.5932
1008.10 0.5929
1008.20 0.5925
1008.30 0.5922
1008.40 0.5919
1008.50 0.5915
1008.60 0.5912
1008.70 0.5909
1008.80 0.5905
1008.90 0.5902
1009.00 0.5899
1009.10 0.5895
1009.20 0.5892
1009.30 0.5888
1009.40 0.5885
1009.50 0.5882
1009.60 0.5878
1009.70 0.5875
1009.80 0.5872
1009.90 0.5869
1010.00 0.5866
1010.10 0.5862
1010.20 0.5859
1010.30 0.5856
1010.40 0.5853
1010.50 0.585
1010.60 0.5846
1010.70 0.5843
1010.80 0.584
1010.90 0.5837
1011.00 0.5834
1011.10 0.583
1011.20 0.5827
1011.30 0.5824
1011.40 0.5821
1011.50 0.5818
1011.60 0.5815
1011.70 0.5811
1011.80 0.5808
1011.90 0.5805
1012.00 0.5802
1012.10 0.5799
1012.20 0.5796
1012.30 0.5793
1012.40 0.579
1012.50 0.5787
1012.60 0.5784
1012.70 0.5781
1012.80 0.5778
1012.90 0.5775
1013.00 0.5772
1013.10 0.5769
1013.20 0.5766
1013.30 0.5763
1013.40 0.576
1013.50 0.5757
1013.60 0.5754
1013.70 0.5751
1013.80 0.5748
1013.90 0.5745
1014.00 0.5742
1014.10 0.5739
1014.20 0.5736
1014.30 0.5733
1014.40 0.573
1014.50 0.5727
1014.60 0.5724
1014.70 0.5721
1014.80 0.5719
1014.90 0.5716
1015.00 0.5714
1015.10 0.5711
1015.20 0.5708
1015.30 0.5706
1015.40 0.5703
1015.50 0.57
1015.60 0.5698
1015.70 0.5695
1015.80 0.5693
1015.90 0.569
1016.00 0.5687
1016.10 0.5685
1016.20 0.5682
1016.30 0.568
1016.40 0.5677
1016.50 0.5674
1016.60 0.5672
1016.70 0.5669
1016.80 0.5666
1016.90 0.5663
1017.00 0.5661
1017.10 0.5658
1017.20 0.5655
1017.30 0.5652
1017.40 0.5649
1017.50 0.5647
1017.60 0.5644
1017.70 0.5641
1017.80 0.5638
1017.90 0.5636
1018.00 0.5633
1018.10 0.563
1018.20 0.5627
1018.30 0.5625
1018.40 0.5622
1018.50 0.5619
1018.60 0.5616
1018.70 0.5614
1018.80 0.5611
1018.90 0.5608
1019.00 0.5606
1019.10 0.5603
1019.20 0.56
1019.30 0.5598
1019.40 0.5595
1019.50 0.5592
1019.60 0.5589
1019.70 0.5587
1019.80 0.5584
1019.90 0.5581
1020.00 0.5579
1020.10 0.5576
1020.20 0.5573
1020.30 0.5571
1020.40 0.5568
1020.50 0.5565
1020.60 0.5563
1020.70 0.556
1020.80 0.5557
1020.90 0.5555
1021.00 0.5552
1021.10 0.5549
1021.20 0.5547
1021.30 0.5544
1021.40 0.5541
1021.50 0.5539
1021.60 0.5536
1021.70 0.5534
1021.80 0.5531
1021.90 0.5528
1022.00 0.5526
1022.10 0.5523
1022.20 0.5521
1022.30 0.5518
1022.40 0.5515
1022.50 0.5513
1022.60 0.551
1022.70 0.5508
1022.80 0.5505
1022.90 0.5503
1023.00 0.55
1023.10 0.5497
1023.20 0.5495
1023.30 0.5492
1023.40 0.549
1023.50 0.5487
1023.60 0.5485
1023.70 0.5482
1023.80 0.548
1023.90 0.5477
1024.00 0.5474
1024.10 0.5472
1024.20 0.5469
1024.30 0.5467
1024.40 0.5464
1024.50 0.5462
1024.60 0.5459
1024.70 0.5457
1024.80 0.5454
1024.90 0.5452
1025.00 0.5449
1025.10 0.5447
1025.20 0.5444
1025.30 0.5442
1025.40 0.5439
1025.50 0.5437
1025.60 0.5434
1025.70 0.5432
1025.80 0.5429
1025.90 0.5427
1026.00 0.5424
1026.10 0.5422
1026.20 0.5419
1026.30 0.5417
1026.40 0.5414
1026.50 0.5412
1026.60 0.5409
1026.70 0.5407
1026.80 0.5404
1026.90 0.5402
1027.00 0.5399
1027.10 0.5397
1027.20 0.5395
1027.30 0.5392
1027.40 0.539
1027.50 0.5388
1027.60 0.5385
1027.70 0.5383
1027.80 0.5381
1027.90 0.5378
1028.00 0.5376
1028.10 0.5374
1028.20 0.5371
1028.30 0.5369
1028.40 0.5367
1028.50 0.5364
1028.60 0.5362
1028.70 0.536
1028.80 0.5357
1028.90 0.5355
1029.00 0.5353
1029.10 0.535
1029.20 0.5348
1029.30 0.5346
1029.40 0.5343
1029.50 0.5341
1029.60 0.5339
1029.70 0.5336
1029.80 0.5334
1029.90 0.5332
1030.00 0.5329
1030.10 0.5327
1030.20 0.5325
1030.30 0.5322
1030.40 0.532
1030.50 0.5318
1030.60 0.5315
1030.70 0.5313
1030.80 0.5311
1030.90 0.5308
1031.00 0.5306
1031.10 0.5304
1031.20 0.5302
1031.30 0.5299
1031.40 0.5297
1031.50 0.5295
1031.60 0.5292
1031.70 0.529
1031.80 0.5288
1031.90 0.5285
1032.00 0.5283
1032.10 0.5281
1032.20 0.5279
1032.30 0.5277
1032.40 0.5274
1032.50 0.5272
1032.60 0.527
1032.70 0.5268
1032.80 0.5266
1032.90 0.5264
1033.00 0.5261
1033.10 0.5259
1033.20 0.5257
1033.30 0.5255
1033.40 0.5253
1033.50 0.5251
1033.60 0.5249
1033.70 0.5246
1033.80 0.5244
1033.90 0.5242
1034.00 0.524
1034.10 0.5238
1034.20 0.5236
1034.30 0.5233
1034.40 0.5231
1034.50 0.5229
1034.60 0.5227
1034.70 0.5225
1034.80 0.5223
1034.90 0.5221
1035.00 0.5218
1035.10 0.5216
1035.20 0.5214
1035.30 0.5212
1035.40 0.521
1035.50 0.5208
1035.60 0.5206
1035.70 0.5203
1035.80 0.5201
1035.90 0.5199
1036.00 0.5197
1036.10 0.5195
1036.20 0.5193
1036.30 0.5191
1036.40 0.5189
1036.50 0.5186
1036.60 0.5184
1036.70 0.5182
1036.80 0.518
1036.90 0.5178
1037.00 0.5176
1037.10 0.5174
1037.20 0.5172
1037.30 0.517
1037.40 0.5168
1037.50 0.5166
1037.60 0.5164
1037.70 0.5162
1037.80 0.516
1037.90 0.5158
1038.00 0.5156
1038.10 0.5154
1038.20 0.5152
1038.30 0.515
1038.40 0.5148
1038.50 0.5146
1038.60 0.5144
1038.70 0.5142
1038.80 0.514
1038.90 0.5138
1039.00 0.5136
1039.10 0.5135
1039.20 0.5133
1039.30 0.5131
1039.40 0.5129
1039.50 0.5127
1039.60 0.5125
1039.70 0.5123
1039.80 0.5121
1039.90 0.5119
1040.00 0.5117
1040.10 0.5115
1040.20 0.5113
1040.30 0.5111
1040.40 0.5109
1040.50 0.5107
1040.60 0.5105
1040.70 0.5103
1040.80 0.5101
1040.90 0.5099
1041.00 0.5097
1041.10 0.5096
1041.20 0.5094
1041.30 0.5092
1041.40 0.509
1041.50 0.5088
1041.60 0.5086
1041.70 0.5084
1041.80 0.5082
1041.90 0.508
1042.00 0.5078
1042.10 0.5076
1042.20 0.5075
1042.30 0.5073
1042.40 0.5071
1042.50 0.5069
1042.60 0.5067
1042.70 0.5066
1042.80 0.5064
1042.90 0.5062
1043.00 0.506
1043.10 0.5058
1043.20 0.5057
1043.30 0.5055
1043.40 0.5053
1043.50 0.5051
1043.60 0.505
1043.70 0.5048
1043.80 0.5046
1043.90 0.5044
1044.00 0.5042
1044.10 0.5041
1044.20 0.5039
1044.30 0.5037
1044.40 0.5035
1044.50 0.5034
1044.60 0.5032
1044.70 0.503
1044.80 0.5028
1044.90 0.5027
1045.00 0.5025
1045.10 0.5023
1045.20 0.5021
1045.30 0.5019
1045.40 0.5018
1045.50 0.5016
1045.60 0.5014
1045.70 0.5012
1045.80 0.5011
1045.90 0.5009
1046.00 0.5007
1046.10 0.5005
1046.20 0.5004
1046.30 0.5002
1046.40 0.5
1046.50 0.4998
1046.60 0.4997
1046.70 0.4995
1046.80 0.4993
1046.90 0.4991
1047.00 0.499
1047.10 0.4988
1047.20 0.4986
1047.30 0.4985
1047.40 0.4983
1047.50 0.4981
1047.60 0.498
1047.70 0.4978
1047.80 0.4977
1047.90 0.4975
1048.00 0.4973
1048.10 0.4972
1048.20 0.497
1048.30 0.4969
1048.40 0.4967
1048.50 0.4965
1048.60 0.4964
1048.70 0.4962
1048.80 0.4961
1048.90 0.4959
1049.00 0.4957
1049.10 0.4956
1049.20 0.4954
1049.30 0.4953
1049.40 0.4951
1049.50 0.4949
1049.60 0.4948
1049.70 0.4946
1049.80 0.4945
1049.90 0.4943
1050.00 0.4941
1050.10 0.494
1050.20 0.4938
1050.30 0.4937
1050.40 0.4935
1050.50 0.4933
1050.60 0.4932
1050.70 0.493
1050.80 0.4929
1050.90 0.4927
1051.00 0.4925
1051.10 0.4924
1051.20 0.4922
1051.30 0.4921
1051.40 0.4919
1051.50 0.4918
1051.60 0.4916
1051.70 0.4914
1051.80 0.4913
1051.90 0.4911
1052.00 0.491
1052.10 0.4908
1052.20 0.4907
1052.30 0.4905
1052.40 0.4904
1052.50 0.4902
1052.60 0.4901
1052.70 0.49
1052.80 0.4898
1052.90 0.4897
1053.00 0.4895
1053.10 0.4894
1053.20 0.4892
1053.30 0.4891
1053.40 0.489
1053.50 0.4888
1053.60 0.4887
1053.70 0.4885
1053.80 0.4884
1053.90 0.4882
1054.00 0.4881
1054.10 0.488
1054.20 0.4878
1054.30 0.4877
1054.40 0.4875
1054.50 0.4874
1054.60 0.4872
1054.70 0.4871
1054.80 0.487
1054.90 0.4868
1055.00 0.4867
1055.10 0.4865
1055.20 0.4864
1055.30 0.4862
1055.40 0.4861
1055.50 0.486
1055.60 0.4858
1055.70 0.4857
1055.80 0.4855
1055.90 0.4854
1056.00 0.4852
1056.10 0.4851
1056.20 0.485
1056.30 0.4848
1056.40 0.4847
1056.50 0.4845
1056.60 0.4844
1056.70 0.4843
1056.80 0.4841
1056.90 0.484
1057.00 0.4838
1057.10 0.4837
1057.20 0.4836
1057.30 0.4834
1057.40 0.4833
1057.50 0.4832
1057.60 0.4831
1057.70 0.4829
1057.80 0.4828
1057.90 0.4827
1058.00 0.4826
1058.10 0.4824
1058.20 0.4823
1058.30 0.4822
1058.40 0.4821
1058.50 0.4819
1058.60 0.4818
1058.70 0.4817
1058.80 0.4815
1058.90 0.4814
1059.00 0.4813
1059.10 0.4812
1059.20 0.481
1059.30 0.4809
1059.40 0.4808
1059.50 0.4807
1059.60 0.4805
1059.70 0.4804
1059.80 0.4803
1059.90 0.4802
1060.00 0.48
1060.10 0.4799
1060.20 0.4798
1060.30 0.4797
1060.40 0.4795
1060.50 0.4794
1060.60 0.4793
1060.70 0.4792
1060.80 0.479
1060.90 0.4789
1061.00 0.4788
1061.10 0.4787
1061.20 0.4785
1061.30 0.4784
1061.40 0.4783
1061.50 0.4781
1061.60 0.478
1061.70 0.4779
1061.80 0.4778
1061.90 0.4776
1062.00 0.4775
1062.10 0.4774
1062.20 0.4773
1062.30 0.4772
1062.40 0.4771
1062.50 0.477
1062.60 0.4768
1062.70 0.4767
1062.80 0.4766
1062.90 0.4765
1063.00 0.4764
1063.10 0.4763
1063.20 0.4762
1063.30 0.4761
1063.40 0.476
1063.50 0.4758
1063.60 0.4757
1063.70 0.4756
1063.80 0.4755
1063.90 0.4754
1064.00 0.4753
1064.10 0.4752
1064.20 0.4751
1064.30 0.4749
1064.40 0.4748
1064.50 0.4747
1064.60 0.4746
1064.70 0.4745
1064.80 0.4744
1064.90 0.4743
1065.00 0.4742
1065.10 0.4741
1065.20 0.4739
1065.30 0.4738
1065.40 0.4737
1065.50 0.4736
1065.60 0.4735
1065.70 0.4734
1065.80 0.4733
1065.90 0.4732
1066.00 0.4731
1066.10 0.4729
1066.20 0.4728
1066.30 0.4727
1066.40 0.4726
1066.50 0.4725
1066.60 0.4724
1066.70 0.4723
1066.80 0.4722
1066.90 0.4721
1067.00 0.4719
1067.10 0.4719
1067.20 0.4718
1067.30 0.4717
1067.40 0.4716
1067.50 0.4715
1067.60 0.4714
1067.70 0.4713
1067.80 0.4712
1067.90 0.4711
1068.00 0.471
1068.10 0.4709
1068.20 0.4708
1068.30 0.4707
1068.40 0.4706
1068.50 0.4705
1068.60 0.4704
1068.70 0.4703
1068.80 0.4702
1068.90 0.4701
1069.00 0.47
1069.10 0.4699
1069.20 0.4698
1069.30 0.4697
1069.40 0.4696
1069.50 0.4695
1069.60 0.4694
1069.70 0.4693
1069.80 0.4693
1069.90 0.4692
1070.00 0.4691
1070.10 0.469
1070.20 0.4689
1070.30 0.4688
1070.40 0.4687
1070.50 0.4686
1070.60 0.4685
1070.70 0.4684
1070.80 0.4683
1070.90 0.4682
1071.00 0.4681
1071.10 0.468
1071.20 0.4679
1071.30 0.4678
1071.40 0.4677
1071.50 0.4676
1071.60 0.4675
1071.70 0.4674
1071.80 0.4673
1071.90 0.4672
1072.00 0.4672
1072.10 0.4671
1072.20 0.467
1072.30 0.4669
1072.40 0.4668
1072.50 0.4667
1072.60 0.4666
1072.70 0.4665
1072.80 0.4664
1072.90 0.4663
1073.00 0.4662
1073.10 0.4662
1073.20 0.4661
1073.30 0.466
1073.40 0.4659
1073.50 0.4658
1073.60 0.4657
1073.70 0.4656
1073.80 0.4655
1073.90 0.4655
1074.00 0.4654
1074.10 0.4653
1074.20 0.4652
1074.30 0.4651
1074.40 0.465
1074.50 0.4649
1074.60 0.4649
1074.70 0.4648
1074.80 0.4647
1074.90 0.4646
1075.00 0.4645
1075.10 0.4644
1075.20 0.4643
1075.30 0.4643
1075.40 0.4642
1075.50 0.4641
1075.60 0.464
1075.70 0.4639
1075.80 0.4638
1075.90 0.4638
1076.00 0.4637
1076.10 0.4636
1076.20 0.4635
1076.30 0.4634
1076.40 0.4633
1076.50 0.4632
1076.60 0.4632
1076.70 0.4631
1076.80 0.463
1076.90 0.4629
1077.00 0.4628
1077.10 0.4627
1077.20 0.4627
1077.30 0.4626
1077.40 0.4625
1077.50 0.4624
1077.60 0.4623
1077.70 0.4623
1077.80 0.4622
1077.90 0.4621
1078.00 0.462
1078.10 0.4619
1078.20 0.4619
1078.30 0.4618
1078.40 0.4617
1078.50 0.4616
1078.60 0.4616
1078.70 0.4615
1078.80 0.4614
1078.90 0.4613
1079.00 0.4612
1079.10 0.4612
1079.20 0.4611
1079.30 0.461
1079.40 0.4609
1079.50 0.4609
1079.60 0.4608
1079.70 0.4607
1079.80 0.4606
1079.90 0.4606
1080.00 0.4605
1080.10 0.4604
1080.20 0.4604
1080.30 0.4603
1080.40 0.4602
1080.50 0.4601
1080.60 0.4601
1080.70 0.46
1080.80 0.4599
1080.90 0.4599
1081.00 0.4598
1081.10 0.4597
1081.20 0.4596
1081.30 0.4596
1081.40 0.4595
1081.50 0.4594
1081.60 0.4593
1081.70 0.4593
1081.80 0.4592
1081.90 0.4591
1082.00 0.4591
1082.10 0.459
1082.20 0.4589
1082.30 0.4588
1082.40 0.4588
1082.50 0.4587
1082.60 0.4586
1082.70 0.4586
1082.80 0.4585
1082.90 0.4584
1083.00 0.4584
1083.10 0.4583
1083.20 0.4582
1083.30 0.4581
1083.40 0.4581
1083.50 0.458
1083.60 0.4579
1083.70 0.4579
1083.80 0.4578
1083.90 0.4577
1084.00 0.4577
1084.10 0.4576
1084.20 0.4575
1084.30 0.4575
1084.40 0.4574
1084.50 0.4573
1084.60 0.4573
1084.70 0.4572
1084.80 0.4571
1084.90 0.4571
1085.00 0.457
1085.10 0.4569
1085.20 0.4569
1085.30 0.4568
1085.40 0.4567
1085.50 0.4567
1085.60 0.4566
1085.70 0.4565
1085.80 0.4565
1085.90 0.4564
1086.00 0.4563
1086.10 0.4563
1086.20 0.4562
1086.30 0.4561
1086.40 0.4561
1086.50 0.456
1086.60 0.456
1086.70 0.4559
1086.80 0.4558
1086.90 0.4558
1087.00 0.4557
1087.10 0.4556
1087.20 0.4556
1087.30 0.4555
1087.40 0.4555
1087.50 0.4554
1087.60 0.4553
1087.70 0.4553
1087.80 0.4552
1087.90 0.4551
1088.00 0.4551
1088.10 0.455
1088.20 0.455
1088.30 0.4549
1088.40 0.4548
1088.50 0.4548
1088.60 0.4547
1088.70 0.4547
1088.80 0.4546
1088.90 0.4545
1089.00 0.4545
1089.10 0.4544
1089.20 0.4544
1089.30 0.4543
1089.40 0.4542
1089.50 0.4542
1089.60 0.4541
1089.70 0.4541
1089.80 0.454
1089.90 0.4539
1090.00 0.4539
1090.10 0.4538
1090.20 0.4538
1090.30 0.4537
1090.40 0.4536
1090.50 0.4536
1090.60 0.4535
1090.70 0.4535
1090.80 0.4534
1090.90 0.4534
1091.00 0.4533
1091.10 0.4532
1091.20 0.4532
1091.30 0.4531
1091.40 0.4531
1091.50 0.453
1091.60 0.453
1091.70 0.4529
1091.80 0.4528
1091.90 0.4528
1092.00 0.4527
1092.10 0.4527
1092.20 0.4526
1092.30 0.4526
1092.40 0.4525
1092.50 0.4525
1092.60 0.4524
1092.70 0.4524
1092.80 0.4523
1092.90 0.4523
1093.00 0.4523
1093.10 0.4522
1093.20 0.4522
1093.30 0.4521
1093.40 0.4521
1093.50 0.452
1093.60 0.452
1093.70 0.4519
1093.80 0.4519
1093.90 0.4518
1094.00 0.4517
1094.10 0.4517
1094.20 0.4516
1094.30 0.4516
1094.40 0.4515
1094.50 0.4515
1094.60 0.4514
1094.70 0.4514
1094.80 0.4513
1094.90 0.4513
1095.00 0.4512
1095.10 0.4512
1095.20 0.4511
1095.30 0.4511
1095.40 0.451
1095.50 0.451
1095.60 0.4509
1095.70 0.4509
1095.80 0.4508
1095.90 0.4508
1096.00 0.4507
1096.10 0.4507
1096.20 0.4506
1096.30 0.4506
1096.40 0.4505
1096.50 0.4505
1096.60 0.4504
1096.70 0.4504
1096.80 0.4503
1096.90 0.4503
1097.00 0.4502
1097.10 0.4502
1097.20 0.4501
1097.30 0.4501
1097.40 0.45
1097.50 0.45
1097.60 0.4499
1097.70 0.4499
1097.80 0.4498
1097.90 0.4498
1098.00 0.4497
1098.10 0.4497
1098.20 0.4496
1098.30 0.4496
1098.40 0.4495
1098.50 0.4495
1098.60 0.4494
1098.70 0.4494
1098.80 0.4493
1098.90 0.4493
1099.00 0.4492
1099.10 0.4492
1099.20 0.4491
1099.30 0.4491
1099.40 0.449
1099.50 0.449
1099.60 0.4489
1099.70 0.4489
1099.80 0.4488
1099.90 0.4488
1100.00 0.4488
1100.10 0.4487
1100.20 0.4487
1100.30 0.4486
1100.40 0.4486
1100.50 0.4485
1100.60 0.4485
1100.70 0.4484
1100.80 0.4484
1100.90 0.4483
1101.00 0.4483
1101.10 0.4482
1101.20 0.4482
1101.30 0.4482
1101.40 0.4481
1101.50 0.4481
1101.60 0.448
1101.70 0.448
1101.80 0.4479
1101.90 0.4479
1102.00 0.4478
1102.10 0.4478
1102.20 0.4477
1102.30 0.4477
1102.40 0.4477
1102.50 0.4476
1102.60 0.4476
1102.70 0.4475
1102.80 0.4475
1102.90 0.4474
1103.00 0.4474
1103.10 0.4473
1103.20 0.4473
1103.30 0.4473
1103.40 0.4472
1103.50 0.4472
1103.60 0.4471
1103.70 0.4471
1103.80 0.447
1103.90 0.447
1104.00 0.447
1104.10 0.4469
1104.20 0.4469
1104.30 0.4468
1104.40 0.4468
1104.50 0.4468
1104.60 0.4467
1104.70 0.4467
1104.80 0.4466
1104.90 0.4466
1105.00 0.4466
1105.10 0.4465
1105.20 0.4465
1105.30 0.4464
1105.40 0.4464
1105.50 0.4464
1105.60 0.4463
1105.70 0.4463
1105.80 0.4462
1105.90 0.4462
1106.00 0.4462
1106.10 0.4461
1106.20 0.4461
1106.30 0.446
1106.40 0.446
1106.50 0.446
1106.60 0.4459
1106.70 0.4459
1106.80 0.4458
1106.90 0.4458
1107.00 0.4457
1107.10 0.4457
1107.20 0.4457
1107.30 0.4456
1107.40 0.4456
1107.50 0.4455
1107.60 0.4455
1107.70 0.4455
1107.80 0.4454
1107.90 0.4454
1108.00 0.4453
1108.10 0.4453
1108.20 0.4453
1108.30 0.4452
1108.40 0.4452
1108.50 0.4451
1108.60 0.4451
1108.70 0.4451
1108.80 0.445
1108.90 0.445
1109.00 0.4449
1109.10 0.4449
1109.20 0.4449
1109.30 0.4448
1109.40 0.4448
1109.50 0.4447
1109.60 0.4447
1109.70 0.4447
1109.80 0.4446
1109.90 0.4446
1110.00 0.4445
1110.10 0.4445
1110.20 0.4445
1110.30 0.4444
1110.40 0.4444
1110.50 0.4443
1110.60 0.4443
1110.70 0.4443
1110.80 0.4442
1110.90 0.4442
1111.00 0.4441
1111.10 0.4441
1111.20 0.4441
1111.30 0.444
1111.40 0.444
1111.50 0.4439
1111.60 0.4439
1111.70 0.4439
1111.80 0.4438
1111.90 0.4438
1112.00 0.4437
1112.10 0.4437
1112.20 0.4437
1112.30 0.4436
1112.40 0.4436
1112.50 0.4436
1112.60 0.4435
1112.70 0.4435
1112.80 0.4434
1112.90 0.4434
1113.00 0.4434
1113.10 0.4433
1113.20 0.4433
1113.30 0.4433
1113.40 0.4432
1113.50 0.4432
1113.60 0.4431
1113.70 0.4431
1113.80 0.4431
1113.90 0.443
1114.00 0.443
1114.10 0.443
1114.20 0.4429
1114.30 0.4429
1114.40 0.4428
1114.50 0.4428
1114.60 0.4428
1114.70 0.4427
1114.80 0.4427
1114.90 0.4427
1115.00 0.4426
1115.10 0.4426
1115.20 0.4426
1115.30 0.4425
1115.40 0.4425
1115.50 0.4424
1115.60 0.4424
1115.70 0.4424
1115.80 0.4423
1115.90 0.4423
1116.00 0.4423
1116.10 0.4422
1116.20 0.4422
1116.30 0.4421
1116.40 0.4421
1116.50 0.4421
1116.60 0.442
1116.70 0.442
1116.80 0.442
1116.90 0.4419
1117.00 0.4419
1117.10 0.4419
1117.20 0.4418
1117.30 0.4418
1117.40 0.4418
1117.50 0.4417
1117.60 0.4417
1117.70 0.4417
1117.80 0.4416
1117.90 0.4416
1118.00 0.4416
1118.10 0.4415
1118.20 0.4415
1118.30 0.4414
1118.40 0.4414
1118.50 0.4414
1118.60 0.4413
1118.70 0.4413
1118.80 0.4413
1118.90 0.4412
1119.00 0.4412
1119.10 0.4412
1119.20 0.4411
1119.30 0.4411
1119.40 0.4411
1119.50 0.441
1119.60 0.441
1119.70 0.441
1119.80 0.4409
1119.90 0.4409
1120.00 0.4409
1120.10 0.4408
1120.20 0.4408
1120.30 0.4408
1120.40 0.4407
1120.50 0.4407
1120.60 0.4407
1120.70 0.4406
1120.80 0.4406
1120.90 0.4406
1121.00 0.4405
1121.10 0.4405
1121.20 0.4405
1121.30 0.4404
1121.40 0.4404
1121.50 0.4404
1121.60 0.4403
1121.70 0.4403
1121.80 0.4403
1121.90 0.4402
1122.00 0.4402
1122.10 0.4402
1122.20 0.4401
1122.30 0.4401
1122.40 0.44
1122.50 0.44
1122.60 0.44
1122.70 0.4399
1122.80 0.4399
1122.90 0.4399
1123.00 0.4398
1123.10 0.4398
1123.20 0.4398
1123.30 0.4397
1123.40 0.4397
1123.50 0.4397
1123.60 0.4396
1123.70 0.4396
1123.80 0.4396
1123.90 0.4395
1124.00 0.4395
1124.10 0.4394
1124.20 0.4394
1124.30 0.4394
1124.40 0.4393
1124.50 0.4393
1124.60 0.4393
1124.70 0.4392
1124.80 0.4392
1124.90 0.4392
1125.00 0.4391
1125.10 0.4391
1125.20 0.4391
1125.30 0.439
1125.40 0.439
1125.50 0.4389
1125.60 0.4389
1125.70 0.4389
1125.80 0.4388
1125.90 0.4388
1126.00 0.4388
1126.10 0.4387
1126.20 0.4387
1126.30 0.4387
1126.40 0.4386
1126.50 0.4386
1126.60 0.4386
1126.70 0.4385
1126.80 0.4385
1126.90 0.4385
1127.00 0.4384
1127.10 0.4384
1127.20 0.4384
1127.30 0.4383
1127.40 0.4383
1127.50 0.4383
1127.60 0.4382
1127.70 0.4382
1127.80 0.4382
1127.90 0.4381
1128.00 0.4381
1128.10 0.4381
1128.20 0.438
1128.30 0.438
1128.40 0.438
1128.50 0.4379
1128.60 0.4379
1128.70 0.4379
1128.80 0.4378
1128.90 0.4378
1129.00 0.4378
1129.10 0.4377
1129.20 0.4377
1129.30 0.4377
1129.40 0.4376
1129.50 0.4376
1129.60 0.4376
1129.70 0.4375
1129.80 0.4375
1129.90 0.4375
1130.00 0.4374
1130.10 0.4374
1130.20 0.4374
1130.30 0.4373
1130.40 0.4373
1130.50 0.4373
1130.60 0.4372
1130.70 0.4372
1130.80 0.4372
1130.90 0.4371
1131.00 0.4371
1131.10 0.4371
1131.20 0.437
1131.30 0.437
1131.40 0.437
1131.50 0.4369
1131.60 0.4369
1131.70 0.4369
1131.80 0.4368
1131.90 0.4368
1132.00 0.4368
1132.10 0.4367
1132.20 0.4367
1132.30 0.4367
1132.40 0.4366
1132.50 0.4366
1132.60 0.4365
1132.70 0.4365
1132.80 0.4365
1132.90 0.4364
1133.00 0.4364
1133.10 0.4364
1133.20 0.4363
1133.30 0.4363
1133.40 0.4362
1133.50 0.4362
1133.60 0.4362
1133.70 0.4361
1133.80 0.4361
1133.90 0.4361
1134.00 0.436
1134.10 0.436
1134.20 0.4359
1134.30 0.4359
1134.40 0.4359
1134.50 0.4358
1134.60 0.4358
1134.70 0.4357
1134.80 0.4357
1134.90 0.4357
1135.00 0.4356
1135.10 0.4356
1135.20 0.4356
1135.30 0.4355
1135.40 0.4355
1135.50 0.4354
1135.60 0.4354
1135.70 0.4354
1135.80 0.4353
1135.90 0.4353
1136.00 0.4353
1136.10 0.4352
1136.20 0.4352
1136.30 0.4351
1136.40 0.4351
1136.50 0.4351
1136.60 0.435
1136.70 0.435
1136.80 0.435
1136.90 0.4349
1137.00 0.4349
1137.10 0.4348
1137.20 0.4348
1137.30 0.4348
1137.40 0.4347
1137.50 0.4347
1137.60 0.4346
1137.70 0.4346
1137.80 0.4345
1137.90 0.4345
1138.00 0.4345
1138.10 0.4344
1138.20 0.4344
1138.30 0.4343
1138.40 0.4343
1138.50 0.4343
1138.60 0.4342
1138.70 0.4342
1138.80 0.4341
1138.90 0.4341
1139.00 0.4341
1139.10 0.434
1139.20 0.434
1139.30 0.4339
1139.40 0.4339
1139.50 0.4338
1139.60 0.4338
1139.70 0.4338
1139.80 0.4337
1139.90 0.4337
1140.00 0.4336
1140.10 0.4336
1140.20 0.4336
1140.30 0.4335
1140.40 0.4335
1140.50 0.4334
1140.60 0.4334
1140.70 0.4334
1140.80 0.4333
1140.90 0.4333
1141.00 0.4332
1141.10 0.4332
1141.20 0.4332
1141.30 0.4331
1141.40 0.4331
1141.50 0.433
1141.60 0.433
1141.70 0.4329
1141.80 0.4329
1141.90 0.4329
1142.00 0.4328
1142.10 0.4328
1142.20 0.4327
1142.30 0.4327
1142.40 0.4327
1142.50 0.4326
1142.60 0.4326
1142.70 0.4325
1142.80 0.4325
1142.90 0.4324
1143.00 0.4324
1143.10 0.4324
1143.20 0.4323
1143.30 0.4323
1143.40 0.4322
1143.50 0.4322
1143.60 0.4321
1143.70 0.4321
1143.80 0.4321
1143.90 0.432
1144.00 0.432
1144.10 0.4319
1144.20 0.4319
1144.30 0.4318
1144.40 0.4318
1144.50 0.4318
1144.60 0.4317
1144.70 0.4317
1144.80 0.4316
1144.90 0.4316
1145.00 0.4315
1145.10 0.4315
1145.20 0.4315
1145.30 0.4314
1145.40 0.4314
1145.50 0.4313
1145.60 0.4313
1145.70 0.4312
1145.80 0.4312
1145.90 0.4312
1146.00 0.4311
1146.10 0.4311
1146.20 0.431
1146.30 0.431
1146.40 0.4309
1146.50 0.4309
1146.60 0.4309
1146.70 0.4308
1146.80 0.4308
1146.90 0.4307
1147.00 0.4307
1147.10 0.4306
1147.20 0.4306
1147.30 0.4305
1147.40 0.4305
1147.50 0.4304
1147.60 0.4304
1147.70 0.4303
1147.80 0.4303
1147.90 0.4302
1148.00 0.4302
1148.10 0.4301
1148.20 0.4301
1148.30 0.4301
1148.40 0.43
1148.50 0.43
1148.60 0.4299
1148.70 0.4299
1148.80 0.4298
1148.90 0.4298
1149.00 0.4297
1149.10 0.4297
1149.20 0.4296
1149.30 0.4296
1149.40 0.4295
1149.50 0.4295
1149.60 0.4294
1149.70 0.4294
1149.80 0.4293
1149.90 0.4293
1150.00 0.4292
1150.10 0.4292
1150.20 0.4291
1150.30 0.4291
1150.40 0.429
1150.50 0.429
1150.60 0.4289
1150.70 0.4289
1150.80 0.4288
1150.90 0.4288
1151.00 0.4287
1151.10 0.4287
1151.20 0.4286
1151.30 0.4286
1151.40 0.4285
1151.50 0.4285
1151.60 0.4284
1151.70 0.4284
1151.80 0.4283
1151.90 0.4283
1152.00 0.4282
1152.10 0.4282
1152.20 0.4281
1152.30 0.4281
1152.40 0.428
1152.50 0.428
1152.60 0.4279
1152.70 0.4279
1152.80 0.4278
1152.90 0.4278
1153.00 0.4277
1153.10 0.4277
1153.20 0.4276
1153.30 0.4276
1153.40 0.4275
1153.50 0.4275
1153.60 0.4274
1153.70 0.4274
1153.80 0.4273
1153.90 0.4273
1154.00 0.4272
1154.10 0.4272
1154.20 0.4271
1154.30 0.4271
1154.40 0.427
1154.50 0.427
1154.60 0.4269
1154.70 0.4269
1154.80 0.4268
1154.90 0.4268
1155.00 0.4267
1155.10 0.4267
1155.20 0.4266
1155.30 0.4266
1155.40 0.4265
1155.50 0.4265
1155.60 0.4264
1155.70 0.4264
1155.80 0.4263
1155.90 0.4263
1156.00 0.4262
1156.10 0.4262
1156.20 0.4261
1156.30 0.4261
1156.40 0.426
1156.50 0.4259
1156.60 0.4259
1156.70 0.4258
1156.80 0.4258
1156.90 0.4257
1157.00 0.4257
1157.10 0.4256
1157.20 0.4256
1157.30 0.4255
1157.40 0.4255
1157.50 0.4254
1157.60 0.4253
1157.70 0.4253
1157.80 0.4252
1157.90 0.4252
1158.00 0.4251
1158.10 0.4251
1158.20 0.425
1158.30 0.4249
1158.40 0.4249
1158.50 0.4248
1158.60 0.4248
1158.70 0.4247
1158.80 0.4246
1158.90 0.4246
1159.00 0.4245
1159.10 0.4245
1159.20 0.4244
1159.30 0.4244
1159.40 0.4243
1159.50 0.4242
1159.60 0.4242
1159.70 0.4241
1159.80 0.4241
1159.90 0.424
1160.00 0.4239
1160.10 0.4239
1160.20 0.4238
1160.30 0.4238
1160.40 0.4237
1160.50 0.4237
1160.60 0.4236
1160.70 0.4235
1160.80 0.4235
1160.90 0.4234
1161.00 0.4234
1161.10 0.4233
1161.20 0.4232
1161.30 0.4232
1161.40 0.4231
1161.50 0.4231
1161.60 0.423
1161.70 0.423
1161.80 0.4229
1161.90 0.4228
1162.00 0.4228
1162.10 0.4227
1162.20 0.4227
1162.30 0.4226
1162.40 0.4225
1162.50 0.4225
1162.60 0.4224
1162.70 0.4223
1162.80 0.4223
1162.90 0.4222
1163.00 0.4221
1163.10 0.4221
1163.20 0.422
1163.30 0.422
1163.40 0.4219
1163.50 0.4218
1163.60 0.4218
1163.70 0.4217
1163.80 0.4216
1163.90 0.4216
1164.00 0.4215
1164.10 0.4214
1164.20 0.4214
1164.30 0.4213
1164.40 0.4213
1164.50 0.4212
1164.60 0.4211
1164.70 0.4211
1164.80 0.421
1164.90 0.4209
1165.00 0.4209
1165.10 0.4208
1165.20 0.4207
1165.30 0.4207
1165.40 0.4206
1165.50 0.4205
1165.60 0.4205
1165.70 0.4204
1165.80 0.4204
1165.90 0.4203
1166.00 0.4202
1166.10 0.4202
1166.20 0.4201
1166.30 0.42
1166.40 0.42
1166.50 0.4199
1166.60 0.4199
1166.70 0.4198
1166.80 0.4197
1166.90 0.4197
1167.00 0.4196
1167.10 0.4195
1167.20 0.4195
1167.30 0.4194
1167.40 0.4193
1167.50 0.4192
1167.60 0.4192
1167.70 0.4191
1167.80 0.419
1167.90 0.419
1168.00 0.4189
1168.10 0.4188
1168.20 0.4188
1168.30 0.4187
1168.40 0.4186
1168.50 0.4186
1168.60 0.4185
1168.70 0.4184
1168.80 0.4183
1168.90 0.4183
1169.00 0.4182
1169.10 0.4181
1169.20 0.4181
1169.30 0.418
1169.40 0.4179
1169.50 0.4179
1169.60 0.4178
1169.70 0.4177
1169.80 0.4177
1169.90 0.4176
1170.00 0.4175
1170.10 0.4174
1170.20 0.4174
1170.30 0.4173
1170.40 0.4172
1170.50 0.4172
1170.60 0.4171
1170.70 0.417
1170.80 0.417
1170.90 0.4169
1171.00 0.4168
1171.10 0.4168
1171.20 0.4167
1171.30 0.4166
1171.40 0.4165
1171.50 0.4165
1171.60 0.4164
1171.70 0.4163
1171.80 0.4163
1171.90 0.4162
1172.00 0.4161
1172.10 0.4161
1172.20 0.416
1172.30 0.4159
1172.40 0.4158
1172.50 0.4158
1172.60 0.4157
1172.70 0.4156
1172.80 0.4155
1172.90 0.4155
1173.00 0.4154
1173.10 0.4153
1173.20 0.4152
1173.30 0.4152
1173.40 0.4151
1173.50 0.415
1173.60 0.4149
1173.70 0.4149
1173.80 0.4148
1173.90 0.4147
1174.00 0.4147
1174.10 0.4146
1174.20 0.4145
1174.30 0.4144
1174.40 0.4144
1174.50 0.4143
1174.60 0.4142
1174.70 0.4141
1174.80 0.4141
1174.90 0.414
1175.00 0.4139
1175.10 0.4138
1175.20 0.4138
1175.30 0.4137
1175.40 0.4136
1175.50 0.4135
1175.60 0.4135
1175.70 0.4134
1175.80 0.4133
1175.90 0.4133
1176.00 0.4132
1176.10 0.4131
1176.20 0.413
1176.30 0.413
1176.40 0.4129
1176.50 0.4128
1176.60 0.4127
1176.70 0.4127
1176.80 0.4126
1176.90 0.4125
1177.00 0.4124
1177.10 0.4124
1177.20 0.4123
1177.30 0.4122
1177.40 0.4121
1177.50 0.4121
1177.60 0.412
1177.70 0.4119
1177.80 0.4118
1177.90 0.4117
1178.00 0.4117
1178.10 0.4116
1178.20 0.4115
1178.30 0.4114
1178.40 0.4113
1178.50 0.4113
1178.60 0.4112
1178.70 0.4111
1178.80 0.411
1178.90 0.411
1179.00 0.4109
1179.10 0.4108
1179.20 0.4107
1179.30 0.4106
1179.40 0.4106
1179.50 0.4105
1179.60 0.4104
1179.70 0.4103
1179.80 0.4103
1179.90 0.4102
1180.00 0.4101
1180.10 0.41
1180.20 0.4099
1180.30 0.4099
1180.40 0.4098
1180.50 0.4097
1180.60 0.4096
1180.70 0.4096
1180.80 0.4095
1180.90 0.4094
1181.00 0.4093
1181.10 0.4092
1181.20 0.4092
1181.30 0.4091
1181.40 0.409
1181.50 0.4089
1181.60 0.4089
1181.70 0.4088
1181.80 0.4087
1181.90 0.4086
1182.00 0.4085
1182.10 0.4085
1182.20 0.4084
1182.30 0.4083
1182.40 0.4082
1182.50 0.4081
1182.60 0.408
1182.70 0.408
1182.80 0.4079
1182.90 0.4078
1183.00 0.4077
1183.10 0.4076
1183.20 0.4075
1183.30 0.4075
1183.40 0.4074
1183.50 0.4073
1183.60 0.4072
1183.70 0.4071
1183.80 0.407
1183.90 0.407
1184.00 0.4069
1184.10 0.4068
1184.20 0.4067
1184.30 0.4066
1184.40 0.4065
1184.50 0.4065
1184.60 0.4064
1184.70 0.4063
1184.80 0.4062
1184.90 0.4061
1185.00 0.406
1185.10 0.406
1185.20 0.4059
1185.30 0.4058
1185.40 0.4057
1185.50 0.4056
1185.60 0.4055
1185.70 0.4055
1185.80 0.4054
1185.90 0.4053
1186.00 0.4052
1186.10 0.4051
1186.20 0.405
1186.30 0.405
1186.40 0.4049
1186.50 0.4048
1186.60 0.4047
1186.70 0.4046
1186.80 0.4045
1186.90 0.4045
1187.00 0.4044
1187.10 0.4043
1187.20 0.4042
1187.30 0.4041
1187.40 0.404
1187.50 0.404
1187.60 0.4039
1187.70 0.4038
1187.80 0.4037
1187.90 0.4036
1188.00 0.4035
1188.10 0.4034
1188.20 0.4034
1188.30 0.4033
1188.40 0.4032
1188.50 0.4031
1188.60 0.403
1188.70 0.4029
1188.80 0.4029
1188.90 0.4028
1189.00 0.4027
1189.10 0.4026
1189.20 0.4025
1189.30 0.4024
1189.40 0.4023
1189.50 0.4023
1189.60 0.4022
1189.70 0.4021
1189.80 0.402
1189.90 0.4019
1190.00 0.4018
1190.10 0.4018
1190.20 0.4017
1190.30 0.4016
1190.40 0.4015
1190.50 0.4014
1190.60 0.4013
1190.70 0.4013
1190.80 0.4012
1190.90 0.4011
1191.00 0.401
1191.10 0.4009
1191.20 0.4008
1191.30 0.4008
1191.40 0.4007
1191.50 0.4006
1191.60 0.4005
1191.70 0.4004
1191.80 0.4003
1191.90 0.4003
1192.00 0.4002
1192.10 0.4001
1192.20 0.4
1192.30 0.3999
1192.40 0.3998
1192.50 0.3997
1192.60 0.3996
1192.70 0.3996
1192.80 0.3995
1192.90 0.3994
1193.00 0.3993
1193.10 0.3992
1193.20 0.3991
1193.30 0.399
1193.40 0.399
1193.50 0.3989
1193.60 0.3988
1193.70 0.3987
1193.80 0.3986
1193.90 0.3985
1194.00 0.3984
1194.10 0.3984
1194.20 0.3983
1194.30 0.3982
1194.40 0.3981
1194.50 0.398
1194.60 0.3979
1194.70 0.3978
1194.80 0.3977
1194.90 0.3977
1195.00 0.3976
1195.10 0.3975
1195.20 0.3974
1195.30 0.3973
1195.40 0.3972
1195.50 0.3971
1195.60 0.3971
1195.70 0.397
1195.80 0.3969
1195.90 0.3968
1196.00 0.3967
1196.10 0.3966
1196.20 0.3965
1196.30 0.3965
1196.40 0.3964
1196.50 0.3963
1196.60 0.3962
1196.70 0.3961
1196.80 0.396
1196.90 0.3959
1197.00 0.3959
1197.10 0.3958
1197.20 0.3957
1197.30 0.3956
1197.40 0.3955
1197.50 0.3954
1197.60 0.3953
1197.70 0.3952
1197.80 0.3951
1197.90 0.395
1198.00 0.395
1198.10 0.3949
1198.20 0.3948
1198.30 0.3947
1198.40 0.3946
1198.50 0.3945
1198.60 0.3944
1198.70 0.3943
1198.80 0.3942
1198.90 0.3941
1199.00 0.3941
1199.10 0.394
1199.20 0.3939
1199.30 0.3938
1199.40 0.3937
1199.50 0.3936
1199.60 0.3935
1199.70 0.3934
1199.80 0.3933
1199.90 0.3932
1200.00 0
