# Version 2.1 - nm, norm@500 to 1, cut digits, bergeron_4000_95.dat_4000
# Wavelength(nm)  Flambda(ergs/cm^s/s/nm)
300.00 0.2292
300.10 0.2296
300.20 0.23
300.30 0.2303
300.40 0.2307
300.50 0.2311
300.60 0.2315
300.70 0.2319
300.80 0.2322
300.90 0.2326
301.00 0.233
301.10 0.2333
301.20 0.2337
301.30 0.2341
301.40 0.2345
301.50 0.2348
301.60 0.2352
301.70 0.2356
301.80 0.2359
301.90 0.2363
302.00 0.2367
302.10 0.2371
302.20 0.2374
302.30 0.2378
302.40 0.2382
302.50 0.2386
302.60 0.239
302.70 0.2394
302.80 0.2397
302.90 0.2401
303.00 0.2405
303.10 0.2409
303.20 0.2412
303.30 0.2416
303.40 0.242
303.50 0.2424
303.60 0.2427
303.70 0.2431
303.80 0.2435
303.90 0.2439
304.00 0.2442
304.10 0.2446
304.20 0.245
304.30 0.2454
304.40 0.2458
304.50 0.2462
304.60 0.2466
304.70 0.2469
304.80 0.2473
304.90 0.2477
305.00 0.2481
305.10 0.2485
305.20 0.2489
305.30 0.2492
305.40 0.2496
305.50 0.25
305.60 0.2504
305.70 0.2508
305.80 0.2511
305.90 0.2515
306.00 0.2519
306.10 0.2523
306.20 0.2527
306.30 0.2531
306.40 0.2535
306.50 0.2538
306.60 0.2542
306.70 0.2546
306.80 0.255
306.90 0.2554
307.00 0.2558
307.10 0.2562
307.20 0.2566
307.30 0.257
307.40 0.2573
307.50 0.2577
307.60 0.2581
307.70 0.2585
307.80 0.2589
307.90 0.2593
308.00 0.2597
308.10 0.26
308.20 0.2604
308.30 0.2608
308.40 0.2612
308.50 0.2616
308.60 0.262
308.70 0.2624
308.80 0.2628
308.90 0.2632
309.00 0.2636
309.10 0.264
309.20 0.2644
309.30 0.2648
309.40 0.2651
309.50 0.2655
309.60 0.2659
309.70 0.2663
309.80 0.2667
309.90 0.2671
310.00 0.2675
310.10 0.2679
310.20 0.2683
310.30 0.2687
310.40 0.2691
310.50 0.2695
310.60 0.2699
310.70 0.2703
310.80 0.2707
310.90 0.2711
311.00 0.2715
311.10 0.2719
311.20 0.2723
311.30 0.2727
311.40 0.2731
311.50 0.2734
311.60 0.2738
311.70 0.2742
311.80 0.2746
311.90 0.275
312.00 0.2754
312.10 0.2758
312.20 0.2762
312.30 0.2766
312.40 0.277
312.50 0.2774
312.60 0.2778
312.70 0.2782
312.80 0.2786
312.90 0.279
313.00 0.2794
313.10 0.2798
313.20 0.2802
313.30 0.2806
313.40 0.281
313.50 0.2814
313.60 0.2818
313.70 0.2822
313.80 0.2826
313.90 0.283
314.00 0.2834
314.10 0.2838
314.20 0.2842
314.30 0.2846
314.40 0.285
314.50 0.2854
314.60 0.2858
314.70 0.2862
314.80 0.2866
314.90 0.287
315.00 0.2874
315.10 0.2878
315.20 0.2882
315.30 0.2886
315.40 0.289
315.50 0.2894
315.60 0.2898
315.70 0.2902
315.80 0.2906
315.90 0.2911
316.00 0.2915
316.10 0.2919
316.20 0.2923
316.30 0.2927
316.40 0.2931
316.50 0.2935
316.60 0.2939
316.70 0.2943
316.80 0.2947
316.90 0.2952
317.00 0.2956
317.10 0.296
317.20 0.2964
317.30 0.2968
317.40 0.2972
317.50 0.2976
317.60 0.298
317.70 0.2984
317.80 0.2988
317.90 0.2992
318.00 0.2996
318.10 0.3
318.20 0.3004
318.30 0.3009
318.40 0.3013
318.50 0.3017
318.60 0.3021
318.70 0.3025
318.80 0.3029
318.90 0.3033
319.00 0.3037
319.10 0.3042
319.20 0.3046
319.30 0.305
319.40 0.3054
319.50 0.3058
319.60 0.3062
319.70 0.3066
319.80 0.307
319.90 0.3074
320.00 0.3078
320.10 0.3082
320.20 0.3087
320.30 0.3091
320.40 0.3095
320.50 0.3099
320.60 0.3103
320.70 0.3107
320.80 0.3112
320.90 0.3116
321.00 0.312
321.10 0.3124
321.20 0.3128
321.30 0.3132
321.40 0.3137
321.50 0.3141
321.60 0.3145
321.70 0.3149
321.80 0.3153
321.90 0.3157
322.00 0.3161
322.10 0.3165
322.20 0.317
322.30 0.3174
322.40 0.3178
322.50 0.3182
322.60 0.3186
322.70 0.3191
322.80 0.3195
322.90 0.3199
323.00 0.3203
323.10 0.3207
323.20 0.3211
323.30 0.3216
323.40 0.322
323.50 0.3224
323.60 0.3228
323.70 0.3232
323.80 0.3236
323.90 0.324
324.00 0.3245
324.10 0.3249
324.20 0.3253
324.30 0.3257
324.40 0.3262
324.50 0.3266
324.60 0.327
324.70 0.3274
324.80 0.3279
324.90 0.3283
325.00 0.3287
325.10 0.3291
325.20 0.3295
325.30 0.33
325.40 0.3304
325.50 0.3308
325.60 0.3312
325.70 0.3316
325.80 0.332
325.90 0.3325
326.00 0.3329
326.10 0.3333
326.20 0.3337
326.30 0.3342
326.40 0.3346
326.50 0.335
326.60 0.3354
326.70 0.3359
326.80 0.3363
326.90 0.3367
327.00 0.3371
327.10 0.3376
327.20 0.338
327.30 0.3384
327.40 0.3388
327.50 0.3393
327.60 0.3397
327.70 0.3401
327.80 0.3405
327.90 0.3409
328.00 0.3414
328.10 0.3418
328.20 0.3422
328.30 0.3426
328.40 0.3431
328.50 0.3435
328.60 0.3439
328.70 0.3444
328.80 0.3448
328.90 0.3452
329.00 0.3456
329.10 0.3461
329.20 0.3465
329.30 0.3469
329.40 0.3473
329.50 0.3478
329.60 0.3482
329.70 0.3486
329.80 0.349
329.90 0.3494
330.00 0.3499
330.10 0.3503
330.20 0.3507
330.30 0.3512
330.40 0.3516
330.50 0.352
330.60 0.3525
330.70 0.3529
330.80 0.3533
330.90 0.3538
331.00 0.3542
331.10 0.3546
331.20 0.355
331.30 0.3555
331.40 0.3559
331.50 0.3563
331.60 0.3567
331.70 0.3572
331.80 0.3576
331.90 0.358
332.00 0.3584
332.10 0.3589
332.20 0.3593
332.30 0.3598
332.40 0.3602
332.50 0.3606
332.60 0.3611
332.70 0.3615
332.80 0.3619
332.90 0.3624
333.00 0.3628
333.10 0.3632
333.20 0.3636
333.30 0.3641
333.40 0.3645
333.50 0.3649
333.60 0.3654
333.70 0.3658
333.80 0.3662
333.90 0.3666
334.00 0.3671
334.10 0.3675
334.20 0.3679
334.30 0.3684
334.40 0.3688
334.50 0.3693
334.60 0.3697
334.70 0.3701
334.80 0.3706
334.90 0.371
335.00 0.3714
335.10 0.3719
335.20 0.3723
335.30 0.3727
335.40 0.3732
335.50 0.3736
335.60 0.374
335.70 0.3745
335.80 0.3749
335.90 0.3753
336.00 0.3757
336.10 0.3762
336.20 0.3766
336.30 0.3771
336.40 0.3775
336.50 0.3779
336.60 0.3784
336.70 0.3788
336.80 0.3793
336.90 0.3797
337.00 0.3801
337.10 0.3806
337.20 0.381
337.30 0.3814
337.40 0.3819
337.50 0.3823
337.60 0.3827
337.70 0.3832
337.80 0.3836
337.90 0.384
338.00 0.3845
338.10 0.3849
338.20 0.3853
338.30 0.3858
338.40 0.3862
338.50 0.3867
338.60 0.3871
338.70 0.3875
338.80 0.388
338.90 0.3884
339.00 0.3889
339.10 0.3893
339.20 0.3897
339.30 0.3902
339.40 0.3906
339.50 0.391
339.60 0.3915
339.70 0.3919
339.80 0.3923
339.90 0.3928
340.00 0.3932
340.10 0.3937
340.20 0.3941
340.30 0.3945
340.40 0.395
340.50 0.3954
340.60 0.3959
340.70 0.3963
340.80 0.3968
340.90 0.3972
341.00 0.3976
341.10 0.3981
341.20 0.3985
341.30 0.3989
341.40 0.3994
341.50 0.3998
341.60 0.4003
341.70 0.4007
341.80 0.4011
341.90 0.4016
342.00 0.402
342.10 0.4024
342.20 0.4029
342.30 0.4033
342.40 0.4038
342.50 0.4042
342.60 0.4047
342.70 0.4051
342.80 0.4056
342.90 0.406
343.00 0.4064
343.10 0.4069
343.20 0.4073
343.30 0.4078
343.40 0.4082
343.50 0.4086
343.60 0.4091
343.70 0.4095
343.80 0.41
343.90 0.4104
344.00 0.4108
344.10 0.4113
344.20 0.4117
344.30 0.4122
344.40 0.4126
344.50 0.4131
344.60 0.4135
344.70 0.4139
344.80 0.4144
344.90 0.4148
345.00 0.4153
345.10 0.4157
345.20 0.4162
345.30 0.4166
345.40 0.417
345.50 0.4175
345.60 0.4179
345.70 0.4184
345.80 0.4188
345.90 0.4192
346.00 0.4197
346.10 0.4201
346.20 0.4206
346.30 0.421
346.40 0.4215
346.50 0.4219
346.60 0.4224
346.70 0.4228
346.80 0.4232
346.90 0.4237
347.00 0.4241
347.10 0.4246
347.20 0.425
347.30 0.4255
347.40 0.4259
347.50 0.4263
347.60 0.4268
347.70 0.4272
347.80 0.4277
347.90 0.4281
348.00 0.4285
348.10 0.429
348.20 0.4294
348.30 0.4299
348.40 0.4303
348.50 0.4308
348.60 0.4312
348.70 0.4317
348.80 0.4321
348.90 0.4326
349.00 0.433
349.10 0.4335
349.20 0.4339
349.30 0.4343
349.40 0.4348
349.50 0.4352
349.60 0.4357
349.70 0.4361
349.80 0.4366
349.90 0.437
350.00 0.4374
350.10 0.4379
350.20 0.4383
350.30 0.4388
350.40 0.4392
350.50 0.4397
350.60 0.4401
350.70 0.4406
350.80 0.441
350.90 0.4415
351.00 0.4419
351.10 0.4424
351.20 0.4428
351.30 0.4433
351.40 0.4437
351.50 0.4441
351.60 0.4446
351.70 0.445
351.80 0.4455
351.90 0.4459
352.00 0.4464
352.10 0.4468
352.20 0.4473
352.30 0.4477
352.40 0.4482
352.50 0.4486
352.60 0.4491
352.70 0.4495
352.80 0.45
352.90 0.4504
353.00 0.4508
353.10 0.4513
353.20 0.4517
353.30 0.4522
353.40 0.4526
353.50 0.4531
353.60 0.4535
353.70 0.454
353.80 0.4544
353.90 0.4548
354.00 0.4553
354.10 0.4557
354.20 0.4562
354.30 0.4566
354.40 0.4571
354.50 0.4575
354.60 0.458
354.70 0.4584
354.80 0.4589
354.90 0.4593
355.00 0.4598
355.10 0.4602
355.20 0.4607
355.30 0.4611
355.40 0.4616
355.50 0.462
355.60 0.4625
355.70 0.4629
355.80 0.4633
355.90 0.4638
356.00 0.4642
356.10 0.4647
356.20 0.4651
356.30 0.4656
356.40 0.466
356.50 0.4665
356.60 0.4669
356.70 0.4674
356.80 0.4678
356.90 0.4683
357.00 0.4687
357.10 0.4692
357.20 0.4696
357.30 0.4701
357.40 0.4705
357.50 0.471
357.60 0.4714
357.70 0.4719
357.80 0.4723
357.90 0.4727
358.00 0.4732
358.10 0.4736
358.20 0.4741
358.30 0.4745
358.40 0.475
358.50 0.4754
358.60 0.4759
358.70 0.4763
358.80 0.4768
358.90 0.4772
359.00 0.4777
359.10 0.4781
359.20 0.4786
359.30 0.479
359.40 0.4795
359.50 0.4799
359.60 0.4804
359.70 0.4808
359.80 0.4813
359.90 0.4817
360.00 0.4822
360.10 0.4826
360.20 0.4831
360.30 0.4835
360.40 0.484
360.50 0.4844
360.60 0.4849
360.70 0.4853
360.80 0.4858
360.90 0.4862
361.00 0.4867
361.10 0.4871
361.20 0.4876
361.30 0.488
361.40 0.4884
361.50 0.4889
361.60 0.4893
361.70 0.4898
361.80 0.4902
361.90 0.4907
362.00 0.4911
362.10 0.4916
362.20 0.492
362.30 0.4925
362.40 0.4929
362.50 0.4934
362.60 0.4938
362.70 0.4943
362.80 0.4947
362.90 0.4952
363.00 0.4956
363.10 0.4961
363.20 0.4965
363.30 0.497
363.40 0.4974
363.50 0.4979
363.60 0.4983
363.70 0.4988
363.80 0.4992
363.90 0.4996
364.00 0.5001
364.10 0.5005
364.20 0.501
364.30 0.5014
364.40 0.5019
364.50 0.5023
364.60 0.5028
364.70 0.5032
364.80 0.5037
364.90 0.5041
365.00 0.5046
365.10 0.505
365.20 0.5055
365.30 0.5059
365.40 0.5064
365.50 0.5068
365.60 0.5073
365.70 0.5077
365.80 0.5082
365.90 0.5086
366.00 0.509
366.10 0.5095
366.20 0.51
366.30 0.5104
366.40 0.5109
366.50 0.5113
366.60 0.5118
366.70 0.5122
366.80 0.5127
366.90 0.5131
367.00 0.5136
367.10 0.514
367.20 0.5145
367.30 0.5149
367.40 0.5153
367.50 0.5158
367.60 0.5162
367.70 0.5167
367.80 0.5171
367.90 0.5176
368.00 0.518
368.10 0.5185
368.20 0.5189
368.30 0.5194
368.40 0.5198
368.50 0.5203
368.60 0.5207
368.70 0.5212
368.80 0.5216
368.90 0.5221
369.00 0.5225
369.10 0.523
369.20 0.5234
369.30 0.5239
369.40 0.5243
369.50 0.5248
369.60 0.5252
369.70 0.5256
369.80 0.5261
369.90 0.5265
370.00 0.527
370.10 0.5274
370.20 0.5279
370.30 0.5283
370.40 0.5288
370.50 0.5292
370.60 0.5297
370.70 0.5301
370.80 0.5306
370.90 0.531
371.00 0.5315
371.10 0.5319
371.20 0.5324
371.30 0.5328
371.40 0.5333
371.50 0.5337
371.60 0.5341
371.70 0.5346
371.80 0.535
371.90 0.5355
372.00 0.5359
372.10 0.5364
372.20 0.5368
372.30 0.5373
372.40 0.5377
372.50 0.5382
372.60 0.5386
372.70 0.5391
372.80 0.5395
372.90 0.54
373.00 0.5404
373.10 0.5409
373.20 0.5413
373.30 0.5418
373.40 0.5422
373.50 0.5426
373.60 0.5431
373.70 0.5435
373.80 0.544
373.90 0.5444
374.00 0.5449
374.10 0.5453
374.20 0.5458
374.30 0.5462
374.40 0.5467
374.50 0.5471
374.60 0.5476
374.70 0.548
374.80 0.5485
374.90 0.5489
375.00 0.5493
375.10 0.5498
375.20 0.5502
375.30 0.5507
375.40 0.5511
375.50 0.5516
375.60 0.552
375.70 0.5525
375.80 0.5529
375.90 0.5533
376.00 0.5538
376.10 0.5542
376.20 0.5547
376.30 0.5551
376.40 0.5556
376.50 0.556
376.60 0.5565
376.70 0.5569
376.80 0.5574
376.90 0.5578
377.00 0.5582
377.10 0.5587
377.20 0.5591
377.30 0.5596
377.40 0.56
377.50 0.5605
377.60 0.5609
377.70 0.5614
377.80 0.5618
377.90 0.5622
378.00 0.5627
378.10 0.5631
378.20 0.5636
378.30 0.564
378.40 0.5645
378.50 0.5649
378.60 0.5654
378.70 0.5658
378.80 0.5662
378.90 0.5667
379.00 0.5671
379.10 0.5676
379.20 0.568
379.30 0.5685
379.40 0.5689
379.50 0.5693
379.60 0.5698
379.70 0.5702
379.80 0.5707
379.90 0.5711
380.00 0.5716
380.10 0.572
380.20 0.5724
380.30 0.5729
380.40 0.5733
380.50 0.5738
380.60 0.5742
380.70 0.5747
380.80 0.5751
380.90 0.5756
381.00 0.576
381.10 0.5764
381.20 0.5769
381.30 0.5773
381.40 0.5778
381.50 0.5782
381.60 0.5787
381.70 0.5791
381.80 0.5795
381.90 0.58
382.00 0.5804
382.10 0.5809
382.20 0.5813
382.30 0.5818
382.40 0.5822
382.50 0.5826
382.60 0.5831
382.70 0.5835
382.80 0.584
382.90 0.5844
383.00 0.5848
383.10 0.5853
383.20 0.5857
383.30 0.5862
383.40 0.5866
383.50 0.587
383.60 0.5875
383.70 0.5879
383.80 0.5884
383.90 0.5888
384.00 0.5893
384.10 0.5897
384.20 0.5901
384.30 0.5906
384.40 0.591
384.50 0.5914
384.60 0.5919
384.70 0.5923
384.80 0.5928
384.90 0.5932
385.00 0.5937
385.10 0.5941
385.20 0.5945
385.30 0.595
385.40 0.5954
385.50 0.5959
385.60 0.5963
385.70 0.5967
385.80 0.5972
385.90 0.5976
386.00 0.5981
386.10 0.5985
386.20 0.5989
386.30 0.5994
386.40 0.5998
386.50 0.6002
386.60 0.6007
386.70 0.6011
386.80 0.6016
386.90 0.602
387.00 0.6024
387.10 0.6029
387.20 0.6033
387.30 0.6038
387.40 0.6042
387.50 0.6046
387.60 0.6051
387.70 0.6055
387.80 0.6059
387.90 0.6064
388.00 0.6068
388.10 0.6073
388.20 0.6077
388.30 0.6081
388.40 0.6086
388.50 0.609
388.60 0.6095
388.70 0.6099
388.80 0.6103
388.90 0.6108
389.00 0.6112
389.10 0.6116
389.20 0.6121
389.30 0.6125
389.40 0.613
389.50 0.6134
389.60 0.6138
389.70 0.6143
389.80 0.6147
389.90 0.6151
390.00 0.6156
390.10 0.616
390.20 0.6164
390.30 0.6169
390.40 0.6173
390.50 0.6178
390.60 0.6182
390.70 0.6186
390.80 0.619
390.90 0.6195
391.00 0.6199
391.10 0.6204
391.20 0.6208
391.30 0.6212
391.40 0.6217
391.50 0.6221
391.60 0.6225
391.70 0.623
391.80 0.6234
391.90 0.6238
392.00 0.6243
392.10 0.6247
392.20 0.6251
392.30 0.6256
392.40 0.626
392.50 0.6264
392.60 0.6269
392.70 0.6273
392.80 0.6277
392.90 0.6282
393.00 0.6286
393.10 0.629
393.20 0.6295
393.30 0.6299
393.40 0.6303
393.50 0.6308
393.60 0.6312
393.70 0.6316
393.80 0.6321
393.90 0.6325
394.00 0.6329
394.10 0.6334
394.20 0.6338
394.30 0.6342
394.40 0.6347
394.50 0.6351
394.60 0.6355
394.70 0.636
394.80 0.6364
394.90 0.6368
395.00 0.6373
395.10 0.6377
395.20 0.6381
395.30 0.6385
395.40 0.639
395.50 0.6394
395.60 0.6398
395.70 0.6403
395.80 0.6407
395.90 0.6411
396.00 0.6416
396.10 0.642
396.20 0.6424
396.30 0.6429
396.40 0.6433
396.50 0.6437
396.60 0.6441
396.70 0.6446
396.80 0.645
396.90 0.6454
397.00 0.6459
397.10 0.6463
397.20 0.6467
397.30 0.6472
397.40 0.6476
397.50 0.648
397.60 0.6484
397.70 0.6489
397.80 0.6493
397.90 0.6497
398.00 0.6501
398.10 0.6506
398.20 0.651
398.30 0.6514
398.40 0.6519
398.50 0.6523
398.60 0.6527
398.70 0.6531
398.80 0.6536
398.90 0.654
399.00 0.6544
399.10 0.6549
399.20 0.6553
399.30 0.6557
399.40 0.6561
399.50 0.6566
399.60 0.657
399.70 0.6574
399.80 0.6578
399.90 0.6583
400.00 0.6587
400.10 0.6591
400.20 0.6595
400.30 0.66
400.40 0.6604
400.50 0.6608
400.60 0.6613
400.70 0.6617
400.80 0.6621
400.90 0.6625
401.00 0.663
401.10 0.6634
401.20 0.6638
401.30 0.6642
401.40 0.6647
401.50 0.6651
401.60 0.6655
401.70 0.6659
401.80 0.6663
401.90 0.6668
402.00 0.6672
402.10 0.6676
402.20 0.668
402.30 0.6685
402.40 0.6689
402.50 0.6693
402.60 0.6697
402.70 0.6702
402.80 0.6706
402.90 0.671
403.00 0.6714
403.10 0.6718
403.20 0.6723
403.30 0.6727
403.40 0.6731
403.50 0.6735
403.60 0.674
403.70 0.6744
403.80 0.6748
403.90 0.6752
404.00 0.6756
404.10 0.6761
404.20 0.6765
404.30 0.6769
404.40 0.6773
404.50 0.6777
404.60 0.6782
404.70 0.6786
404.80 0.679
404.90 0.6794
405.00 0.6798
405.10 0.6803
405.20 0.6807
405.30 0.6811
405.40 0.6815
405.50 0.6819
405.60 0.6824
405.70 0.6828
405.80 0.6832
405.90 0.6836
406.00 0.684
406.10 0.6845
406.20 0.6849
406.30 0.6853
406.40 0.6857
406.50 0.6861
406.60 0.6866
406.70 0.687
406.80 0.6874
406.90 0.6878
407.00 0.6882
407.10 0.6886
407.20 0.6891
407.30 0.6895
407.40 0.6899
407.50 0.6903
407.60 0.6907
407.70 0.6911
407.80 0.6916
407.90 0.692
408.00 0.6924
408.10 0.6928
408.20 0.6932
408.30 0.6936
408.40 0.6941
408.50 0.6945
408.60 0.6949
408.70 0.6953
408.80 0.6957
408.90 0.6961
409.00 0.6965
409.10 0.697
409.20 0.6974
409.30 0.6978
409.40 0.6982
409.50 0.6986
409.60 0.699
409.70 0.6994
409.80 0.6999
409.90 0.7003
410.00 0.7007
410.10 0.7011
410.20 0.7015
410.30 0.7019
410.40 0.7023
410.50 0.7028
410.60 0.7032
410.70 0.7036
410.80 0.704
410.90 0.7044
411.00 0.7048
411.10 0.7052
411.20 0.7056
411.30 0.7061
411.40 0.7065
411.50 0.7069
411.60 0.7073
411.70 0.7077
411.80 0.7081
411.90 0.7085
412.00 0.7089
412.10 0.7093
412.20 0.7098
412.30 0.7102
412.40 0.7106
412.50 0.711
412.60 0.7114
412.70 0.7118
412.80 0.7122
412.90 0.7126
413.00 0.713
413.10 0.7134
413.20 0.7138
413.30 0.7143
413.40 0.7147
413.50 0.7151
413.60 0.7155
413.70 0.7159
413.80 0.7163
413.90 0.7167
414.00 0.7171
414.10 0.7175
414.20 0.7179
414.30 0.7183
414.40 0.7187
414.50 0.7192
414.60 0.7196
414.70 0.72
414.80 0.7204
414.90 0.7208
415.00 0.7212
415.10 0.7216
415.20 0.722
415.30 0.7224
415.40 0.7228
415.50 0.7232
415.60 0.7236
415.70 0.724
415.80 0.7244
415.90 0.7248
416.00 0.7252
416.10 0.7256
416.20 0.7261
416.30 0.7265
416.40 0.7269
416.50 0.7273
416.60 0.7277
416.70 0.7281
416.80 0.7285
416.90 0.7289
417.00 0.7293
417.10 0.7297
417.20 0.7301
417.30 0.7305
417.40 0.7309
417.50 0.7313
417.60 0.7317
417.70 0.7321
417.80 0.7325
417.90 0.7329
418.00 0.7333
418.10 0.7337
418.20 0.7341
418.30 0.7345
418.40 0.7349
418.50 0.7353
418.60 0.7357
418.70 0.7361
418.80 0.7365
418.90 0.7369
419.00 0.7373
419.10 0.7377
419.20 0.7381
419.30 0.7385
419.40 0.7389
419.50 0.7393
419.60 0.7397
419.70 0.7401
419.80 0.7405
419.90 0.7409
420.00 0.7413
420.10 0.7417
420.20 0.7421
420.30 0.7425
420.40 0.7429
420.50 0.7433
420.60 0.7437
420.70 0.7441
420.80 0.7445
420.90 0.7449
421.00 0.7453
421.10 0.7457
421.20 0.7461
421.30 0.7465
421.40 0.7469
421.50 0.7473
421.60 0.7477
421.70 0.7481
421.80 0.7485
421.90 0.7489
422.00 0.7493
422.10 0.7497
422.20 0.7501
422.30 0.7504
422.40 0.7508
422.50 0.7512
422.60 0.7516
422.70 0.752
422.80 0.7524
422.90 0.7528
423.00 0.7532
423.10 0.7536
423.20 0.754
423.30 0.7544
423.40 0.7548
423.50 0.7552
423.60 0.7556
423.70 0.756
423.80 0.7564
423.90 0.7568
424.00 0.7571
424.10 0.7575
424.20 0.7579
424.30 0.7583
424.40 0.7587
424.50 0.7591
424.60 0.7595
424.70 0.7599
424.80 0.7603
424.90 0.7607
425.00 0.7611
425.10 0.7614
425.20 0.7618
425.30 0.7622
425.40 0.7626
425.50 0.763
425.60 0.7634
425.70 0.7638
425.80 0.7642
425.90 0.7646
426.00 0.765
426.10 0.7653
426.20 0.7657
426.30 0.7661
426.40 0.7665
426.50 0.7669
426.60 0.7673
426.70 0.7677
426.80 0.7681
426.90 0.7685
427.00 0.7688
427.10 0.7692
427.20 0.7696
427.30 0.77
427.40 0.7704
427.50 0.7708
427.60 0.7712
427.70 0.7715
427.80 0.7719
427.90 0.7723
428.00 0.7727
428.10 0.7731
428.20 0.7735
428.30 0.7739
428.40 0.7742
428.50 0.7746
428.60 0.775
428.70 0.7754
428.80 0.7758
428.90 0.7762
429.00 0.7766
429.10 0.7769
429.20 0.7773
429.30 0.7777
429.40 0.7781
429.50 0.7785
429.60 0.7789
429.70 0.7792
429.80 0.7796
429.90 0.78
430.00 0.7804
430.10 0.7808
430.20 0.7811
430.30 0.7815
430.40 0.7819
430.50 0.7823
430.60 0.7827
430.70 0.7831
430.80 0.7834
430.90 0.7838
431.00 0.7842
431.10 0.7846
431.20 0.785
431.30 0.7853
431.40 0.7857
431.50 0.7861
431.60 0.7865
431.70 0.7869
431.80 0.7872
431.90 0.7876
432.00 0.788
432.10 0.7884
432.20 0.7888
432.30 0.7891
432.40 0.7895
432.50 0.7899
432.60 0.7903
432.70 0.7906
432.80 0.791
432.90 0.7914
433.00 0.7918
433.10 0.7922
433.20 0.7925
433.30 0.7929
433.40 0.7933
433.50 0.7937
433.60 0.794
433.70 0.7944
433.80 0.7948
433.90 0.7952
434.00 0.7955
434.10 0.7959
434.20 0.7963
434.30 0.7967
434.40 0.797
434.50 0.7974
434.60 0.7978
434.70 0.7982
434.80 0.7985
434.90 0.7989
435.00 0.7993
435.10 0.7997
435.20 0.8
435.30 0.8004
435.40 0.8008
435.50 0.8012
435.60 0.8015
435.70 0.8019
435.80 0.8023
435.90 0.8026
436.00 0.803
436.10 0.8034
436.20 0.8038
436.30 0.8041
436.40 0.8045
436.50 0.8049
436.60 0.8052
436.70 0.8056
436.80 0.806
436.90 0.8063
437.00 0.8067
437.10 0.8071
437.20 0.8074
437.30 0.8078
437.40 0.8082
437.50 0.8086
437.60 0.8089
437.70 0.8093
437.80 0.8097
437.90 0.81
438.00 0.8104
438.10 0.8108
438.20 0.8111
438.30 0.8115
438.40 0.8119
438.50 0.8122
438.60 0.8126
438.70 0.813
438.80 0.8133
438.90 0.8137
439.00 0.8141
439.10 0.8144
439.20 0.8148
439.30 0.8152
439.40 0.8155
439.50 0.8159
439.60 0.8163
439.70 0.8166
439.80 0.817
439.90 0.8174
440.00 0.8177
440.10 0.8181
440.20 0.8185
440.30 0.8188
440.40 0.8192
440.50 0.8196
440.60 0.8199
440.70 0.8203
440.80 0.8206
440.90 0.821
441.00 0.8214
441.10 0.8217
441.20 0.8221
441.30 0.8224
441.40 0.8228
441.50 0.8232
441.60 0.8235
441.70 0.8239
441.80 0.8243
441.90 0.8246
442.00 0.825
442.10 0.8253
442.20 0.8257
442.30 0.8261
442.40 0.8264
442.50 0.8268
442.60 0.8271
442.70 0.8275
442.80 0.8279
442.90 0.8282
443.00 0.8286
443.10 0.8289
443.20 0.8293
443.30 0.8296
443.40 0.83
443.50 0.8304
443.60 0.8307
443.70 0.8311
443.80 0.8314
443.90 0.8318
444.00 0.8322
444.10 0.8325
444.20 0.8329
444.30 0.8332
444.40 0.8336
444.50 0.8339
444.60 0.8343
444.70 0.8346
444.80 0.835
444.90 0.8354
445.00 0.8357
445.10 0.8361
445.20 0.8364
445.30 0.8368
445.40 0.8371
445.50 0.8375
445.60 0.8378
445.70 0.8382
445.80 0.8385
445.90 0.8389
446.00 0.8392
446.10 0.8396
446.20 0.84
446.30 0.8403
446.40 0.8407
446.50 0.841
446.60 0.8414
446.70 0.8417
446.80 0.8421
446.90 0.8424
447.00 0.8428
447.10 0.8431
447.20 0.8435
447.30 0.8438
447.40 0.8442
447.50 0.8445
447.60 0.8449
447.70 0.8452
447.80 0.8456
447.90 0.8459
448.00 0.8463
448.10 0.8466
448.20 0.847
448.30 0.8473
448.40 0.8477
448.50 0.848
448.60 0.8484
448.70 0.8487
448.80 0.8491
448.90 0.8494
449.00 0.8498
449.10 0.8501
449.20 0.8505
449.30 0.8508
449.40 0.8511
449.50 0.8515
449.60 0.8518
449.70 0.8522
449.80 0.8525
449.90 0.8529
450.00 0.8532
450.10 0.8536
450.20 0.8539
450.30 0.8543
450.40 0.8546
450.50 0.8549
450.60 0.8553
450.70 0.8556
450.80 0.856
450.90 0.8563
451.00 0.8567
451.10 0.857
451.20 0.8573
451.30 0.8577
451.40 0.858
451.50 0.8584
451.60 0.8587
451.70 0.8591
451.80 0.8594
451.90 0.8597
452.00 0.8601
452.10 0.8604
452.20 0.8608
452.30 0.8611
452.40 0.8614
452.50 0.8618
452.60 0.8621
452.70 0.8625
452.80 0.8628
452.90 0.8631
453.00 0.8635
453.10 0.8638
453.20 0.8642
453.30 0.8645
453.40 0.8648
453.50 0.8652
453.60 0.8655
453.70 0.8659
453.80 0.8662
453.90 0.8665
454.00 0.8669
454.10 0.8672
454.20 0.8675
454.30 0.8679
454.40 0.8682
454.50 0.8686
454.60 0.8689
454.70 0.8692
454.80 0.8696
454.90 0.8699
455.00 0.8702
455.10 0.8706
455.20 0.8709
455.30 0.8712
455.40 0.8716
455.50 0.8719
455.60 0.8722
455.70 0.8726
455.80 0.8729
455.90 0.8732
456.00 0.8736
456.10 0.8739
456.20 0.8742
456.30 0.8746
456.40 0.8749
456.50 0.8752
456.60 0.8756
456.70 0.8759
456.80 0.8762
456.90 0.8766
457.00 0.8769
457.10 0.8772
457.20 0.8776
457.30 0.8779
457.40 0.8782
457.50 0.8785
457.60 0.8789
457.70 0.8792
457.80 0.8795
457.90 0.8799
458.00 0.8802
458.10 0.8805
458.20 0.8809
458.30 0.8812
458.40 0.8815
458.50 0.8818
458.60 0.8822
458.70 0.8825
458.80 0.8828
458.90 0.8832
459.00 0.8835
459.10 0.8838
459.20 0.8841
459.30 0.8845
459.40 0.8848
459.50 0.8851
459.60 0.8854
459.70 0.8858
459.80 0.8861
459.90 0.8864
460.00 0.8867
460.10 0.8871
460.20 0.8874
460.30 0.8877
460.40 0.888
460.50 0.8884
460.60 0.8887
460.70 0.889
460.80 0.8893
460.90 0.8897
461.00 0.89
461.10 0.8903
461.20 0.8906
461.30 0.891
461.40 0.8913
461.50 0.8916
461.60 0.8919
461.70 0.8922
461.80 0.8926
461.90 0.8929
462.00 0.8932
462.10 0.8935
462.20 0.8939
462.30 0.8942
462.40 0.8945
462.50 0.8948
462.60 0.8951
462.70 0.8955
462.80 0.8958
462.90 0.8961
463.00 0.8964
463.10 0.8967
463.20 0.897
463.30 0.8974
463.40 0.8977
463.50 0.898
463.60 0.8983
463.70 0.8986
463.80 0.899
463.90 0.8993
464.00 0.8996
464.10 0.8999
464.20 0.9002
464.30 0.9005
464.40 0.9009
464.50 0.9012
464.60 0.9015
464.70 0.9018
464.80 0.9021
464.90 0.9024
465.00 0.9027
465.10 0.9031
465.20 0.9034
465.30 0.9037
465.40 0.904
465.50 0.9043
465.60 0.9046
465.70 0.9049
465.80 0.9053
465.90 0.9056
466.00 0.9059
466.10 0.9062
466.20 0.9065
466.30 0.9068
466.40 0.9071
466.50 0.9074
466.60 0.9078
466.70 0.9081
466.80 0.9084
466.90 0.9087
467.00 0.909
467.10 0.9093
467.20 0.9096
467.30 0.9099
467.40 0.9102
467.50 0.9105
467.60 0.9109
467.70 0.9112
467.80 0.9115
467.90 0.9118
468.00 0.9121
468.10 0.9124
468.20 0.9127
468.30 0.913
468.40 0.9133
468.50 0.9136
468.60 0.9139
468.70 0.9143
468.80 0.9146
468.90 0.9149
469.00 0.9152
469.10 0.9155
469.20 0.9158
469.30 0.9161
469.40 0.9164
469.50 0.9167
469.60 0.917
469.70 0.9173
469.80 0.9176
469.90 0.9179
470.00 0.9182
470.10 0.9185
470.20 0.9188
470.30 0.9191
470.40 0.9194
470.50 0.9197
470.60 0.9201
470.70 0.9204
470.80 0.9207
470.90 0.921
471.00 0.9213
471.10 0.9216
471.20 0.9219
471.30 0.9222
471.40 0.9225
471.50 0.9228
471.60 0.9231
471.70 0.9234
471.80 0.9237
471.90 0.924
472.00 0.9243
472.10 0.9246
472.20 0.9249
472.30 0.9252
472.40 0.9255
472.50 0.9258
472.60 0.9261
472.70 0.9264
472.80 0.9267
472.90 0.927
473.00 0.9273
473.10 0.9276
473.20 0.9279
473.30 0.9282
473.40 0.9285
473.50 0.9288
473.60 0.9291
473.70 0.9293
473.80 0.9296
473.90 0.9299
474.00 0.9302
474.10 0.9305
474.20 0.9308
474.30 0.9311
474.40 0.9314
474.50 0.9317
474.60 0.932
474.70 0.9323
474.80 0.9326
474.90 0.9329
475.00 0.9332
475.10 0.9335
475.20 0.9338
475.30 0.9341
475.40 0.9344
475.50 0.9347
475.60 0.9349
475.70 0.9352
475.80 0.9355
475.90 0.9358
476.00 0.9361
476.10 0.9364
476.20 0.9367
476.30 0.937
476.40 0.9373
476.50 0.9376
476.60 0.9379
476.70 0.9382
476.80 0.9384
476.90 0.9387
477.00 0.939
477.10 0.9393
477.20 0.9396
477.30 0.9399
477.40 0.9402
477.50 0.9405
477.60 0.9408
477.70 0.941
477.80 0.9413
477.90 0.9416
478.00 0.9419
478.10 0.9422
478.20 0.9425
478.30 0.9428
478.40 0.9431
478.50 0.9433
478.60 0.9436
478.70 0.9439
478.80 0.9442
478.90 0.9445
479.00 0.9448
479.10 0.9451
479.20 0.9454
479.30 0.9456
479.40 0.9459
479.50 0.9462
479.60 0.9465
479.70 0.9468
479.80 0.9471
479.90 0.9473
480.00 0.9476
480.10 0.9479
480.20 0.9482
480.30 0.9485
480.40 0.9488
480.50 0.949
480.60 0.9493
480.70 0.9496
480.80 0.9499
480.90 0.9502
481.00 0.9504
481.10 0.9507
481.20 0.951
481.30 0.9513
481.40 0.9516
481.50 0.9518
481.60 0.9521
481.70 0.9524
481.80 0.9527
481.90 0.953
482.00 0.9532
482.10 0.9535
482.20 0.9538
482.30 0.9541
482.40 0.9544
482.50 0.9546
482.60 0.9549
482.70 0.9552
482.80 0.9555
482.90 0.9558
483.00 0.956
483.10 0.9563
483.20 0.9566
483.30 0.9569
483.40 0.9571
483.50 0.9574
483.60 0.9577
483.70 0.958
483.80 0.9582
483.90 0.9585
484.00 0.9588
484.10 0.9591
484.20 0.9593
484.30 0.9596
484.40 0.9599
484.50 0.9602
484.60 0.9604
484.70 0.9607
484.80 0.961
484.90 0.9612
485.00 0.9615
485.10 0.9618
485.20 0.9621
485.30 0.9623
485.40 0.9626
485.50 0.9629
485.60 0.9632
485.70 0.9634
485.80 0.9637
485.90 0.964
486.00 0.9642
486.10 0.9645
486.20 0.9648
486.30 0.9651
486.40 0.9653
486.50 0.9656
486.60 0.9659
486.70 0.9661
486.80 0.9664
486.90 0.9666
487.00 0.9669
487.10 0.9672
487.20 0.9674
487.30 0.9677
487.40 0.968
487.50 0.9683
487.60 0.9685
487.70 0.9688
487.80 0.9691
487.90 0.9693
488.00 0.9696
488.10 0.9699
488.20 0.9701
488.30 0.9704
488.40 0.9707
488.50 0.971
488.60 0.9712
488.70 0.9715
488.80 0.9718
488.90 0.972
489.00 0.9723
489.10 0.9726
489.20 0.9728
489.30 0.9731
489.40 0.9733
489.50 0.9736
489.60 0.9739
489.70 0.9741
489.80 0.9744
489.90 0.9747
490.00 0.9749
490.10 0.9752
490.20 0.9755
490.30 0.9757
490.40 0.976
490.50 0.9762
490.60 0.9765
490.70 0.9767
490.80 0.977
490.90 0.9772
491.00 0.9775
491.10 0.9777
491.20 0.978
491.30 0.9782
491.40 0.9785
491.50 0.9788
491.60 0.979
491.70 0.9793
491.80 0.9795
491.90 0.9798
492.00 0.9801
492.10 0.9803
492.20 0.9806
492.30 0.9808
492.40 0.9811
492.50 0.9814
492.60 0.9816
492.70 0.9819
492.80 0.9822
492.90 0.9824
493.00 0.9827
493.10 0.9829
493.20 0.9832
493.30 0.9835
493.40 0.9837
493.50 0.984
493.60 0.9842
493.70 0.9845
493.80 0.9847
493.90 0.985
494.00 0.9852
494.10 0.9855
494.20 0.9857
494.30 0.986
494.40 0.9862
494.50 0.9865
494.60 0.9867
494.70 0.987
494.80 0.9872
494.90 0.9875
495.00 0.9877
495.10 0.988
495.20 0.9882
495.30 0.9885
495.40 0.9887
495.50 0.989
495.60 0.9892
495.70 0.9895
495.80 0.9897
495.90 0.99
496.00 0.9902
496.10 0.9904
496.20 0.9907
496.30 0.991
496.40 0.9912
496.50 0.9915
496.60 0.9917
496.70 0.992
496.80 0.9922
496.90 0.9925
497.00 0.9927
497.10 0.993
497.20 0.9932
497.30 0.9935
497.40 0.9937
497.50 0.994
497.60 0.9942
497.70 0.9944
497.80 0.9947
497.90 0.9949
498.00 0.9952
498.10 0.9954
498.20 0.9956
498.30 0.9959
498.40 0.9961
498.50 0.9964
498.60 0.9966
498.70 0.9969
498.80 0.9971
498.90 0.9974
499.00 0.9976
499.10 0.9979
499.20 0.9981
499.30 0.9983
499.40 0.9986
499.50 0.9988
499.60 0.9991
499.70 0.9993
499.80 0.9995
499.90 0.9998
500.00 1
500.10 1
500.20 1
500.30 1.001
500.40 1.001
500.50 1.001
500.60 1.001
500.70 1.002
500.80 1.002
500.90 1.002
501.00 1.002
501.10 1.003
501.20 1.003
501.30 1.003
501.40 1.003
501.50 1.004
501.60 1.004
501.70 1.004
501.80 1.004
501.90 1.005
502.00 1.005
502.10 1.005
502.20 1.005
502.30 1.005
502.40 1.006
502.50 1.006
502.60 1.006
502.70 1.006
502.80 1.007
502.90 1.007
503.00 1.007
503.10 1.007
503.20 1.008
503.30 1.008
503.40 1.008
503.50 1.008
503.60 1.009
503.70 1.009
503.80 1.009
503.90 1.009
504.00 1.009
504.10 1.01
504.20 1.01
504.30 1.01
504.40 1.01
504.50 1.011
504.60 1.011
504.70 1.011
504.80 1.011
504.90 1.012
505.00 1.012
505.10 1.012
505.20 1.012
505.30 1.012
505.40 1.013
505.50 1.013
505.60 1.013
505.70 1.013
505.80 1.014
505.90 1.014
506.00 1.014
506.10 1.014
506.20 1.015
506.30 1.015
506.40 1.015
506.50 1.015
506.60 1.015
506.70 1.016
506.80 1.016
506.90 1.016
507.00 1.016
507.10 1.017
507.20 1.017
507.30 1.017
507.40 1.017
507.50 1.017
507.60 1.018
507.70 1.018
507.80 1.018
507.90 1.018
508.00 1.019
508.10 1.019
508.20 1.019
508.30 1.019
508.40 1.019
508.50 1.02
508.60 1.02
508.70 1.02
508.80 1.02
508.90 1.021
509.00 1.021
509.10 1.021
509.20 1.021
509.30 1.021
509.40 1.022
509.50 1.022
509.60 1.022
509.70 1.022
509.80 1.023
509.90 1.023
510.00 1.023
510.10 1.023
510.20 1.023
510.30 1.024
510.40 1.024
510.50 1.024
510.60 1.024
510.70 1.025
510.80 1.025
510.90 1.025
511.00 1.025
511.10 1.025
511.20 1.026
511.30 1.026
511.40 1.026
511.50 1.026
511.60 1.027
511.70 1.027
511.80 1.027
511.90 1.027
512.00 1.027
512.10 1.028
512.20 1.028
512.30 1.028
512.40 1.028
512.50 1.028
512.60 1.029
512.70 1.029
512.80 1.029
512.90 1.029
513.00 1.029
513.10 1.03
513.20 1.03
513.30 1.03
513.40 1.03
513.50 1.031
513.60 1.031
513.70 1.031
513.80 1.031
513.90 1.031
514.00 1.032
514.10 1.032
514.20 1.032
514.30 1.032
514.40 1.032
514.50 1.033
514.60 1.033
514.70 1.033
514.80 1.033
514.90 1.033
515.00 1.034
515.10 1.034
515.20 1.034
515.30 1.034
515.40 1.035
515.50 1.035
515.60 1.035
515.70 1.035
515.80 1.035
515.90 1.036
516.00 1.036
516.10 1.036
516.20 1.036
516.30 1.036
516.40 1.037
516.50 1.037
516.60 1.037
516.70 1.037
516.80 1.037
516.90 1.038
517.00 1.038
517.10 1.038
517.20 1.038
517.30 1.038
517.40 1.039
517.50 1.039
517.60 1.039
517.70 1.039
517.80 1.039
517.90 1.04
518.00 1.04
518.10 1.04
518.20 1.04
518.30 1.04
518.40 1.041
518.50 1.041
518.60 1.041
518.70 1.041
518.80 1.042
518.90 1.042
519.00 1.042
519.10 1.042
519.20 1.042
519.30 1.043
519.40 1.043
519.50 1.043
519.60 1.043
519.70 1.043
519.80 1.043
519.90 1.044
520.00 1.044
520.10 1.044
520.20 1.044
520.30 1.044
520.40 1.045
520.50 1.045
520.60 1.045
520.70 1.045
520.80 1.045
520.90 1.046
521.00 1.046
521.10 1.046
521.20 1.046
521.30 1.046
521.40 1.047
521.50 1.047
521.60 1.047
521.70 1.047
521.80 1.047
521.90 1.048
522.00 1.048
522.10 1.048
522.20 1.048
522.30 1.048
522.40 1.049
522.50 1.049
522.60 1.049
522.70 1.049
522.80 1.049
522.90 1.05
523.00 1.05
523.10 1.05
523.20 1.05
523.30 1.05
523.40 1.051
523.50 1.051
523.60 1.051
523.70 1.051
523.80 1.051
523.90 1.051
524.00 1.052
524.10 1.052
524.20 1.052
524.30 1.052
524.40 1.052
524.50 1.053
524.60 1.053
524.70 1.053
524.80 1.053
524.90 1.053
525.00 1.054
525.10 1.054
525.20 1.054
525.30 1.054
525.40 1.054
525.50 1.054
525.60 1.055
525.70 1.055
525.80 1.055
525.90 1.055
526.00 1.055
526.10 1.056
526.20 1.056
526.30 1.056
526.40 1.056
526.50 1.056
526.60 1.057
526.70 1.057
526.80 1.057
526.90 1.057
527.00 1.057
527.10 1.057
527.20 1.058
527.30 1.058
527.40 1.058
527.50 1.058
527.60 1.058
527.70 1.059
527.80 1.059
527.90 1.059
528.00 1.059
528.10 1.059
528.20 1.059
528.30 1.06
528.40 1.06
528.50 1.06
528.60 1.06
528.70 1.06
528.80 1.06
528.90 1.061
529.00 1.061
529.10 1.061
529.20 1.061
529.30 1.061
529.40 1.062
529.50 1.062
529.60 1.062
529.70 1.062
529.80 1.062
529.90 1.062
530.00 1.063
530.10 1.063
530.20 1.063
530.30 1.063
530.40 1.063
530.50 1.064
530.60 1.064
530.70 1.064
530.80 1.064
530.90 1.064
531.00 1.064
531.10 1.065
531.20 1.065
531.30 1.065
531.40 1.065
531.50 1.065
531.60 1.065
531.70 1.066
531.80 1.066
531.90 1.066
532.00 1.066
532.10 1.066
532.20 1.066
532.30 1.067
532.40 1.067
532.50 1.067
532.60 1.067
532.70 1.067
532.80 1.068
532.90 1.068
533.00 1.068
533.10 1.068
533.20 1.068
533.30 1.068
533.40 1.069
533.50 1.069
533.60 1.069
533.70 1.069
533.80 1.069
533.90 1.069
534.00 1.07
534.10 1.07
534.20 1.07
534.30 1.07
534.40 1.07
534.50 1.07
534.60 1.071
534.70 1.071
534.80 1.071
534.90 1.071
535.00 1.071
535.10 1.071
535.20 1.072
535.30 1.072
535.40 1.072
535.50 1.072
535.60 1.072
535.70 1.072
535.80 1.073
535.90 1.073
536.00 1.073
536.10 1.073
536.20 1.073
536.30 1.073
536.40 1.074
536.50 1.074
536.60 1.074
536.70 1.074
536.80 1.074
536.90 1.074
537.00 1.075
537.10 1.075
537.20 1.075
537.30 1.075
537.40 1.075
537.50 1.075
537.60 1.076
537.70 1.076
537.80 1.076
537.90 1.076
538.00 1.076
538.10 1.076
538.20 1.077
538.30 1.077
538.40 1.077
538.50 1.077
538.60 1.077
538.70 1.077
538.80 1.078
538.90 1.078
539.00 1.078
539.10 1.078
539.20 1.078
539.30 1.078
539.40 1.078
539.50 1.079
539.60 1.079
539.70 1.079
539.80 1.079
539.90 1.079
540.00 1.079
540.10 1.08
540.20 1.08
540.30 1.08
540.40 1.08
540.50 1.08
540.60 1.08
540.70 1.081
540.80 1.081
540.90 1.081
541.00 1.081
541.10 1.081
541.20 1.081
541.30 1.081
541.40 1.082
541.50 1.082
541.60 1.082
541.70 1.082
541.80 1.082
541.90 1.082
542.00 1.083
542.10 1.083
542.20 1.083
542.30 1.083
542.40 1.083
542.50 1.083
542.60 1.083
542.70 1.084
542.80 1.084
542.90 1.084
543.00 1.084
543.10 1.084
543.20 1.084
543.30 1.085
543.40 1.085
543.50 1.085
543.60 1.085
543.70 1.085
543.80 1.085
543.90 1.085
544.00 1.086
544.10 1.086
544.20 1.086
544.30 1.086
544.40 1.086
544.50 1.086
544.60 1.086
544.70 1.087
544.80 1.087
544.90 1.087
545.00 1.087
545.10 1.087
545.20 1.087
545.30 1.087
545.40 1.088
545.50 1.088
545.60 1.088
545.70 1.088
545.80 1.088
545.90 1.088
546.00 1.089
546.10 1.089
546.20 1.089
546.30 1.089
546.40 1.089
546.50 1.089
546.60 1.089
546.70 1.09
546.80 1.09
546.90 1.09
547.00 1.09
547.10 1.09
547.20 1.09
547.30 1.09
547.40 1.091
547.50 1.091
547.60 1.091
547.70 1.091
547.80 1.091
547.90 1.091
548.00 1.091
548.10 1.092
548.20 1.092
548.30 1.092
548.40 1.092
548.50 1.092
548.60 1.092
548.70 1.092
548.80 1.093
548.90 1.093
549.00 1.093
549.10 1.093
549.20 1.093
549.30 1.093
549.40 1.093
549.50 1.093
549.60 1.094
549.70 1.094
549.80 1.094
549.90 1.094
550.00 1.094
550.10 1.094
550.20 1.094
550.30 1.095
550.40 1.095
550.50 1.095
550.60 1.095
550.70 1.095
550.80 1.095
550.90 1.095
551.00 1.096
551.10 1.096
551.20 1.096
551.30 1.096
551.40 1.096
551.50 1.096
551.60 1.096
551.70 1.096
551.80 1.097
551.90 1.097
552.00 1.097
552.10 1.097
552.20 1.097
552.30 1.097
552.40 1.097
552.50 1.098
552.60 1.098
552.70 1.098
552.80 1.098
552.90 1.098
553.00 1.098
553.10 1.098
553.20 1.098
553.30 1.099
553.40 1.099
553.50 1.099
553.60 1.099
553.70 1.099
553.80 1.099
553.90 1.099
554.00 1.1
554.10 1.1
554.20 1.1
554.30 1.1
554.40 1.1
554.50 1.1
554.60 1.1
554.70 1.1
554.80 1.101
554.90 1.101
555.00 1.101
555.10 1.101
555.20 1.101
555.30 1.101
555.40 1.101
555.50 1.101
555.60 1.102
555.70 1.102
555.80 1.102
555.90 1.102
556.00 1.102
556.10 1.102
556.20 1.102
556.30 1.102
556.40 1.103
556.50 1.103
556.60 1.103
556.70 1.103
556.80 1.103
556.90 1.103
557.00 1.103
557.10 1.103
557.20 1.104
557.30 1.104
557.40 1.104
557.50 1.104
557.60 1.104
557.70 1.104
557.80 1.104
557.90 1.104
558.00 1.105
558.10 1.105
558.20 1.105
558.30 1.105
558.40 1.105
558.50 1.105
558.60 1.105
558.70 1.105
558.80 1.106
558.90 1.106
559.00 1.106
559.10 1.106
559.20 1.106
559.30 1.106
559.40 1.106
559.50 1.106
559.60 1.106
559.70 1.107
559.80 1.107
559.90 1.107
560.00 1.107
560.10 1.107
560.20 1.107
560.30 1.107
560.40 1.107
560.50 1.108
560.60 1.108
560.70 1.108
560.80 1.108
560.90 1.108
561.00 1.108
561.10 1.108
561.20 1.108
561.30 1.108
561.40 1.109
561.50 1.109
561.60 1.109
561.70 1.109
561.80 1.109
561.90 1.109
562.00 1.109
562.10 1.109
562.20 1.11
562.30 1.11
562.40 1.11
562.50 1.11
562.60 1.11
562.70 1.11
562.80 1.11
562.90 1.11
563.00 1.11
563.10 1.111
563.20 1.111
563.30 1.111
563.40 1.111
563.50 1.111
563.60 1.111
563.70 1.111
563.80 1.111
563.90 1.111
564.00 1.112
564.10 1.112
564.20 1.112
564.30 1.112
564.40 1.112
564.50 1.112
564.60 1.112
564.70 1.112
564.80 1.112
564.90 1.113
565.00 1.113
565.10 1.113
565.20 1.113
565.30 1.113
565.40 1.113
565.50 1.113
565.60 1.113
565.70 1.113
565.80 1.114
565.90 1.114
566.00 1.114
566.10 1.114
566.20 1.114
566.30 1.114
566.40 1.114
566.50 1.114
566.60 1.114
566.70 1.115
566.80 1.115
566.90 1.115
567.00 1.115
567.10 1.115
567.20 1.115
567.30 1.115
567.40 1.115
567.50 1.115
567.60 1.115
567.70 1.116
567.80 1.116
567.90 1.116
568.00 1.116
568.10 1.116
568.20 1.116
568.30 1.116
568.40 1.116
568.50 1.116
568.60 1.116
568.70 1.117
568.80 1.117
568.90 1.117
569.00 1.117
569.10 1.117
569.20 1.117
569.30 1.117
569.40 1.117
569.50 1.117
569.60 1.118
569.70 1.118
569.80 1.118
569.90 1.118
570.00 1.118
570.10 1.118
570.20 1.118
570.30 1.118
570.40 1.118
570.50 1.118
570.60 1.119
570.70 1.119
570.80 1.119
570.90 1.119
571.00 1.119
571.10 1.119
571.20 1.119
571.30 1.119
571.40 1.119
571.50 1.119
571.60 1.12
571.70 1.12
571.80 1.12
571.90 1.12
572.00 1.12
572.10 1.12
572.20 1.12
572.30 1.12
572.40 1.12
572.50 1.12
572.60 1.12
572.70 1.121
572.80 1.121
572.90 1.121
573.00 1.121
573.10 1.121
573.20 1.121
573.30 1.121
573.40 1.121
573.50 1.121
573.60 1.121
573.70 1.121
573.80 1.122
573.90 1.122
574.00 1.122
574.10 1.122
574.20 1.122
574.30 1.122
574.40 1.122
574.50 1.122
574.60 1.122
574.70 1.122
574.80 1.123
574.90 1.123
575.00 1.123
575.10 1.123
575.20 1.123
575.30 1.123
575.40 1.123
575.50 1.123
575.60 1.123
575.70 1.123
575.80 1.123
575.90 1.124
576.00 1.124
576.10 1.124
576.20 1.124
576.30 1.124
576.40 1.124
576.50 1.124
576.60 1.124
576.70 1.124
576.80 1.124
576.90 1.124
577.00 1.124
577.10 1.125
577.20 1.125
577.30 1.125
577.40 1.125
577.50 1.125
577.60 1.125
577.70 1.125
577.80 1.125
577.90 1.125
578.00 1.125
578.10 1.125
578.20 1.126
578.30 1.126
578.40 1.126
578.50 1.126
578.60 1.126
578.70 1.126
578.80 1.126
578.90 1.126
579.00 1.126
579.10 1.126
579.20 1.126
579.30 1.126
579.40 1.127
579.50 1.127
579.60 1.127
579.70 1.127
579.80 1.127
579.90 1.127
580.00 1.127
580.10 1.127
580.20 1.127
580.30 1.127
580.40 1.127
580.50 1.127
580.60 1.128
580.70 1.128
580.80 1.128
580.90 1.128
581.00 1.128
581.10 1.128
581.20 1.128
581.30 1.128
581.40 1.128
581.50 1.128
581.60 1.128
581.70 1.128
581.80 1.129
581.90 1.129
582.00 1.129
582.10 1.129
582.20 1.129
582.30 1.129
582.40 1.129
582.50 1.129
582.60 1.129
582.70 1.129
582.80 1.129
582.90 1.129
583.00 1.129
583.10 1.13
583.20 1.13
583.30 1.13
583.40 1.13
583.50 1.13
583.60 1.13
583.70 1.13
583.80 1.13
583.90 1.13
584.00 1.13
584.10 1.13
584.20 1.13
584.30 1.13
584.40 1.131
584.50 1.131
584.60 1.131
584.70 1.131
584.80 1.131
584.90 1.131
585.00 1.131
585.10 1.131
585.20 1.131
585.30 1.131
585.40 1.131
585.50 1.131
585.60 1.131
585.70 1.131
585.80 1.132
585.90 1.132
586.00 1.132
586.10 1.132
586.20 1.132
586.30 1.132
586.40 1.132
586.50 1.132
586.60 1.132
586.70 1.132
586.80 1.132
586.90 1.132
587.00 1.132
587.10 1.132
587.20 1.133
587.30 1.133
587.40 1.133
587.50 1.133
587.60 1.133
587.70 1.133
587.80 1.133
587.90 1.133
588.00 1.133
588.10 1.133
588.20 1.133
588.30 1.133
588.40 1.133
588.50 1.133
588.60 1.134
588.70 1.134
588.80 1.134
588.90 1.134
589.00 1.134
589.10 1.134
589.20 1.134
589.30 1.134
589.40 1.134
589.50 1.134
589.60 1.134
589.70 1.134
589.80 1.134
589.90 1.134
590.00 1.134
590.10 1.135
590.20 1.135
590.30 1.135
590.40 1.135
590.50 1.135
590.60 1.135
590.70 1.135
590.80 1.135
590.90 1.135
591.00 1.135
591.10 1.135
591.20 1.135
591.30 1.135
591.40 1.135
591.50 1.135
591.60 1.135
591.70 1.136
591.80 1.136
591.90 1.136
592.00 1.136
592.10 1.136
592.20 1.136
592.30 1.136
592.40 1.136
592.50 1.136
592.60 1.136
592.70 1.136
592.80 1.136
592.90 1.136
593.00 1.136
593.10 1.136
593.20 1.136
593.30 1.137
593.40 1.137
593.50 1.137
593.60 1.137
593.70 1.137
593.80 1.137
593.90 1.137
594.00 1.137
594.10 1.137
594.20 1.137
594.30 1.137
594.40 1.137
594.50 1.137
594.60 1.137
594.70 1.137
594.80 1.137
594.90 1.137
595.00 1.138
595.10 1.138
595.20 1.138
595.30 1.138
595.40 1.138
595.50 1.138
595.60 1.138
595.70 1.138
595.80 1.138
595.90 1.138
596.00 1.138
596.10 1.138
596.20 1.138
596.30 1.138
596.40 1.138
596.50 1.138
596.60 1.138
596.70 1.138
596.80 1.139
596.90 1.139
597.00 1.139
597.10 1.139
597.20 1.139
597.30 1.139
597.40 1.139
597.50 1.139
597.60 1.139
597.70 1.139
597.80 1.139
597.90 1.139
598.00 1.139
598.10 1.139
598.20 1.139
598.30 1.139
598.40 1.139
598.50 1.139
598.60 1.139
598.70 1.14
598.80 1.14
598.90 1.14
599.00 1.14
599.10 1.14
599.20 1.14
599.30 1.14
599.40 1.14
599.50 1.14
599.60 1.14
599.70 1.14
599.80 1.14
599.90 1.14
600.00 1.14
600.10 1.14
600.20 1.14
600.30 1.14
600.40 1.14
600.50 1.14
600.60 1.14
600.70 1.141
600.80 1.141
600.90 1.141
601.00 1.141
601.10 1.141
601.20 1.141
601.30 1.141
601.40 1.141
601.50 1.141
601.60 1.141
601.70 1.141
601.80 1.141
601.90 1.141
602.00 1.141
602.10 1.141
602.20 1.141
602.30 1.141
602.40 1.141
602.50 1.141
602.60 1.141
602.70 1.141
602.80 1.141
602.90 1.142
603.00 1.142
603.10 1.142
603.20 1.142
603.30 1.142
603.40 1.142
603.50 1.142
603.60 1.142
603.70 1.142
603.80 1.142
603.90 1.142
604.00 1.142
604.10 1.142
604.20 1.142
604.30 1.142
604.40 1.142
604.50 1.142
604.60 1.142
604.70 1.142
604.80 1.142
604.90 1.142
605.00 1.142
605.10 1.142
605.20 1.142
605.30 1.143
605.40 1.143
605.50 1.143
605.60 1.143
605.70 1.143
605.80 1.143
605.90 1.143
606.00 1.143
606.10 1.143
606.20 1.143
606.30 1.143
606.40 1.143
606.50 1.143
606.60 1.143
606.70 1.143
606.80 1.143
606.90 1.143
607.00 1.143
607.10 1.143
607.20 1.143
607.30 1.143
607.40 1.143
607.50 1.143
607.60 1.143
607.70 1.143
607.80 1.144
607.90 1.144
608.00 1.144
608.10 1.144
608.20 1.144
608.30 1.144
608.40 1.144
608.50 1.144
608.60 1.144
608.70 1.144
608.80 1.144
608.90 1.144
609.00 1.144
609.10 1.144
609.20 1.144
609.30 1.144
609.40 1.144
609.50 1.144
609.60 1.144
609.70 1.144
609.80 1.144
609.90 1.144
610.00 1.144
610.10 1.144
610.20 1.144
610.30 1.144
610.40 1.144
610.50 1.144
610.60 1.144
610.70 1.145
610.80 1.145
610.90 1.145
611.00 1.145
611.10 1.145
611.20 1.145
611.30 1.145
611.40 1.145
611.50 1.145
611.60 1.145
611.70 1.145
611.80 1.145
611.90 1.145
612.00 1.145
612.10 1.145
612.20 1.145
612.30 1.145
612.40 1.145
612.50 1.145
612.60 1.145
612.70 1.145
612.80 1.145
612.90 1.145
613.00 1.145
613.10 1.145
613.20 1.145
613.30 1.145
613.40 1.145
613.50 1.145
613.60 1.145
613.70 1.145
613.80 1.145
613.90 1.145
614.00 1.145
614.10 1.146
614.20 1.146
614.30 1.146
614.40 1.146
614.50 1.146
614.60 1.146
614.70 1.146
614.80 1.146
614.90 1.146
615.00 1.146
615.10 1.146
615.20 1.146
615.30 1.146
615.40 1.146
615.50 1.146
615.60 1.146
615.70 1.146
615.80 1.146
615.90 1.146
616.00 1.146
616.10 1.146
616.20 1.146
616.30 1.146
616.40 1.146
616.50 1.146
616.60 1.146
616.70 1.146
616.80 1.146
616.90 1.146
617.00 1.146
617.10 1.146
617.20 1.146
617.30 1.146
617.40 1.146
617.50 1.146
617.60 1.146
617.70 1.146
617.80 1.146
617.90 1.146
618.00 1.146
618.10 1.146
618.20 1.147
618.30 1.147
618.40 1.147
618.50 1.147
618.60 1.147
618.70 1.147
618.80 1.147
618.90 1.147
619.00 1.147
619.10 1.147
619.20 1.147
619.30 1.147
619.40 1.147
619.50 1.147
619.60 1.147
619.70 1.147
619.80 1.147
619.90 1.147
620.00 1.147
620.10 1.147
620.20 1.147
620.30 1.147
620.40 1.147
620.50 1.147
620.60 1.147
620.70 1.147
620.80 1.147
620.90 1.147
621.00 1.147
621.10 1.147
621.20 1.147
621.30 1.147
621.40 1.147
621.50 1.147
621.60 1.147
621.70 1.147
621.80 1.147
621.90 1.147
622.00 1.147
622.10 1.147
622.20 1.147
622.30 1.147
622.40 1.147
622.50 1.147
622.60 1.147
622.70 1.147
622.80 1.147
622.90 1.147
623.00 1.147
623.10 1.147
623.20 1.147
623.30 1.147
623.40 1.147
623.50 1.147
623.60 1.147
623.70 1.147
623.80 1.147
623.90 1.147
624.00 1.147
624.10 1.147
624.20 1.147
624.30 1.148
624.40 1.148
624.50 1.148
624.60 1.148
624.70 1.148
624.80 1.148
624.90 1.148
625.00 1.148
625.10 1.148
625.20 1.148
625.30 1.148
625.40 1.148
625.50 1.148
625.60 1.148
625.70 1.148
625.80 1.148
625.90 1.148
626.00 1.148
626.10 1.148
626.20 1.148
626.30 1.148
626.40 1.148
626.50 1.148
626.60 1.148
626.70 1.148
626.80 1.148
626.90 1.148
627.00 1.148
627.10 1.148
627.20 1.148
627.30 1.148
627.40 1.148
627.50 1.148
627.60 1.148
627.70 1.148
627.80 1.148
627.90 1.148
628.00 1.148
628.10 1.148
628.20 1.148
628.30 1.148
628.40 1.148
628.50 1.148
628.60 1.148
628.70 1.148
628.80 1.148
628.90 1.148
629.00 1.148
629.10 1.148
629.20 1.148
629.30 1.148
629.40 1.148
629.50 1.148
629.60 1.148
629.70 1.148
629.80 1.148
629.90 1.148
630.00 1.148
630.10 1.148
630.20 1.148
630.30 1.148
630.40 1.148
630.50 1.148
630.60 1.148
630.70 1.148
630.80 1.148
630.90 1.148
631.00 1.148
631.10 1.148
631.20 1.148
631.30 1.148
631.40 1.148
631.50 1.148
631.60 1.148
631.70 1.148
631.80 1.148
631.90 1.148
632.00 1.148
632.10 1.148
632.20 1.148
632.30 1.148
632.40 1.148
632.50 1.148
632.60 1.148
632.70 1.148
632.80 1.148
632.90 1.148
633.00 1.148
633.10 1.148
633.20 1.148
633.30 1.148
633.40 1.148
633.50 1.148
633.60 1.148
633.70 1.148
633.80 1.148
633.90 1.148
634.00 1.148
634.10 1.148
634.20 1.148
634.30 1.148
634.40 1.148
634.50 1.148
634.60 1.148
634.70 1.148
634.80 1.148
634.90 1.148
635.00 1.148
635.10 1.148
635.20 1.148
635.30 1.148
635.40 1.148
635.50 1.148
635.60 1.148
635.70 1.148
635.80 1.148
635.90 1.148
636.00 1.148
636.10 1.148
636.20 1.148
636.30 1.148
636.40 1.148
636.50 1.148
636.60 1.148
636.70 1.148
636.80 1.148
636.90 1.148
637.00 1.148
637.10 1.148
637.20 1.148
637.30 1.148
637.40 1.148
637.50 1.148
637.60 1.148
637.70 1.148
637.80 1.148
637.90 1.148
638.00 1.148
638.10 1.148
638.20 1.148
638.30 1.148
638.40 1.148
638.50 1.148
638.60 1.148
638.70 1.148
638.80 1.148
638.90 1.148
639.00 1.148
639.10 1.148
639.20 1.148
639.30 1.148
639.40 1.148
639.50 1.148
639.60 1.148
639.70 1.148
639.80 1.148
639.90 1.148
640.00 1.148
640.10 1.148
640.20 1.148
640.30 1.148
640.40 1.148
640.50 1.148
640.60 1.148
640.70 1.148
640.80 1.148
640.90 1.148
641.00 1.148
641.10 1.148
641.20 1.147
641.30 1.147
641.40 1.147
641.50 1.147
641.60 1.147
641.70 1.147
641.80 1.147
641.90 1.147
642.00 1.147
642.10 1.147
642.20 1.147
642.30 1.147
642.40 1.147
642.50 1.147
642.60 1.147
642.70 1.147
642.80 1.147
642.90 1.147
643.00 1.147
643.10 1.147
643.20 1.147
643.30 1.147
643.40 1.147
643.50 1.147
643.60 1.147
643.70 1.147
643.80 1.147
643.90 1.147
644.00 1.147
644.10 1.147
644.20 1.147
644.30 1.147
644.40 1.147
644.50 1.147
644.60 1.147
644.70 1.147
644.80 1.147
644.90 1.147
645.00 1.147
645.10 1.147
645.20 1.147
645.30 1.147
645.40 1.147
645.50 1.147
645.60 1.147
645.70 1.147
645.80 1.147
645.90 1.147
646.00 1.147
646.10 1.147
646.20 1.147
646.30 1.147
646.40 1.147
646.50 1.147
646.60 1.147
646.70 1.147
646.80 1.147
646.90 1.147
647.00 1.147
647.10 1.147
647.20 1.147
647.30 1.146
647.40 1.146
647.50 1.146
647.60 1.146
647.70 1.146
647.80 1.146
647.90 1.146
648.00 1.146
648.10 1.146
648.20 1.146
648.30 1.146
648.40 1.146
648.50 1.146
648.60 1.146
648.70 1.146
648.80 1.146
648.90 1.146
649.00 1.146
649.10 1.146
649.20 1.146
649.30 1.146
649.40 1.146
649.50 1.146
649.60 1.146
649.70 1.146
649.80 1.146
649.90 1.146
650.00 1.146
650.10 1.146
650.20 1.146
650.30 1.146
650.40 1.146
650.50 1.146
650.60 1.146
650.70 1.146
650.80 1.146
650.90 1.146
651.00 1.146
651.10 1.146
651.20 1.146
651.30 1.146
651.40 1.146
651.50 1.145
651.60 1.145
651.70 1.145
651.80 1.145
651.90 1.145
652.00 1.145
652.10 1.145
652.20 1.145
652.30 1.145
652.40 1.145
652.50 1.145
652.60 1.145
652.70 1.145
652.80 1.145
652.90 1.145
653.00 1.145
653.10 1.145
653.20 1.145
653.30 1.145
653.40 1.145
653.50 1.145
653.60 1.145
653.70 1.145
653.80 1.145
653.90 1.145
654.00 1.145
654.10 1.145
654.20 1.145
654.30 1.145
654.40 1.145
654.50 1.145
654.60 1.145
654.70 1.145
654.80 1.145
654.90 1.145
655.00 1.144
655.10 1.144
655.20 1.144
655.30 1.144
655.40 1.144
655.50 1.144
655.60 1.144
655.70 1.144
655.80 1.144
655.90 1.144
656.00 1.144
656.10 1.144
656.20 1.144
656.30 1.144
656.40 1.144
656.50 1.144
656.60 1.144
656.70 1.144
656.80 1.144
656.90 1.144
657.00 1.144
657.10 1.144
657.20 1.144
657.30 1.144
657.40 1.144
657.50 1.144
657.60 1.144
657.70 1.144
657.80 1.144
657.90 1.144
658.00 1.143
658.10 1.143
658.20 1.143
658.30 1.143
658.40 1.143
658.50 1.143
658.60 1.143
658.70 1.143
658.80 1.143
658.90 1.143
659.00 1.143
659.10 1.143
659.20 1.143
659.30 1.143
659.40 1.143
659.50 1.143
659.60 1.143
659.70 1.143
659.80 1.143
659.90 1.143
660.00 1.143
660.10 1.143
660.20 1.143
660.30 1.143
660.40 1.143
660.50 1.143
660.60 1.142
660.70 1.142
660.80 1.142
660.90 1.142
661.00 1.142
661.10 1.142
661.20 1.142
661.30 1.142
661.40 1.142
661.50 1.142
661.60 1.142
661.70 1.142
661.80 1.142
661.90 1.142
662.00 1.142
662.10 1.142
662.20 1.142
662.30 1.142
662.40 1.142
662.50 1.142
662.60 1.142
662.70 1.142
662.80 1.142
662.90 1.142
663.00 1.142
663.10 1.142
663.20 1.141
663.30 1.141
663.40 1.141
663.50 1.141
663.60 1.141
663.70 1.141
663.80 1.141
663.90 1.141
664.00 1.141
664.10 1.141
664.20 1.141
664.30 1.141
664.40 1.141
664.50 1.141
664.60 1.141
664.70 1.141
664.80 1.141
664.90 1.141
665.00 1.141
665.10 1.141
665.20 1.141
665.30 1.141
665.40 1.14
665.50 1.14
665.60 1.14
665.70 1.14
665.80 1.14
665.90 1.14
666.00 1.14
666.10 1.14
666.20 1.14
666.30 1.14
666.40 1.14
666.50 1.14
666.60 1.14
666.70 1.14
666.80 1.14
666.90 1.14
667.00 1.14
667.10 1.14
667.20 1.14
667.30 1.14
667.40 1.14
667.50 1.14
667.60 1.139
667.70 1.139
667.80 1.139
667.90 1.139
668.00 1.139
668.10 1.139
668.20 1.139
668.30 1.139
668.40 1.139
668.50 1.139
668.60 1.139
668.70 1.139
668.80 1.139
668.90 1.139
669.00 1.139
669.10 1.139
669.20 1.139
669.30 1.139
669.40 1.139
669.50 1.139
669.60 1.138
669.70 1.138
669.80 1.138
669.90 1.138
670.00 1.138
670.10 1.138
670.20 1.138
670.30 1.138
670.40 1.138
670.50 1.138
670.60 1.138
670.70 1.138
670.80 1.138
670.90 1.138
671.00 1.138
671.10 1.138
671.20 1.138
671.30 1.138
671.40 1.138
671.50 1.137
671.60 1.137
671.70 1.137
671.80 1.137
671.90 1.137
672.00 1.137
672.10 1.137
672.20 1.137
672.30 1.137
672.40 1.137
672.50 1.137
672.60 1.137
672.70 1.137
672.80 1.137
672.90 1.137
673.00 1.137
673.10 1.137
673.20 1.136
673.30 1.136
673.40 1.136
673.50 1.136
673.60 1.136
673.70 1.136
673.80 1.136
673.90 1.136
674.00 1.136
674.10 1.136
674.20 1.136
674.30 1.136
674.40 1.136
674.50 1.136
674.60 1.136
674.70 1.136
674.80 1.136
674.90 1.136
675.00 1.135
675.10 1.135
675.20 1.135
675.30 1.135
675.40 1.135
675.50 1.135
675.60 1.135
675.70 1.135
675.80 1.135
675.90 1.135
676.00 1.135
676.10 1.135
676.20 1.135
676.30 1.135
676.40 1.135
676.50 1.135
676.60 1.135
676.70 1.134
676.80 1.134
676.90 1.134
677.00 1.134
677.10 1.134
677.20 1.134
677.30 1.134
677.40 1.134
677.50 1.134
677.60 1.134
677.70 1.134
677.80 1.134
677.90 1.134
678.00 1.134
678.10 1.134
678.20 1.134
678.30 1.133
678.40 1.133
678.50 1.133
678.60 1.133
678.70 1.133
678.80 1.133
678.90 1.133
679.00 1.133
679.10 1.133
679.20 1.133
679.30 1.133
679.40 1.133
679.50 1.133
679.60 1.133
679.70 1.133
679.80 1.132
679.90 1.132
680.00 1.132
680.10 1.132
680.20 1.132
680.30 1.132
680.40 1.132
680.50 1.132
680.60 1.132
680.70 1.132
680.80 1.132
680.90 1.132
681.00 1.132
681.10 1.132
681.20 1.132
681.30 1.131
681.40 1.131
681.50 1.131
681.60 1.131
681.70 1.131
681.80 1.131
681.90 1.131
682.00 1.131
682.10 1.131
682.20 1.131
682.30 1.131
682.40 1.131
682.50 1.131
682.60 1.131
682.70 1.13
682.80 1.13
682.90 1.13
683.00 1.13
683.10 1.13
683.20 1.13
683.30 1.13
683.40 1.13
683.50 1.13
683.60 1.13
683.70 1.13
683.80 1.13
683.90 1.13
684.00 1.13
684.10 1.129
684.20 1.129
684.30 1.129
684.40 1.129
684.50 1.129
684.60 1.129
684.70 1.129
684.80 1.129
684.90 1.129
685.00 1.129
685.10 1.129
685.20 1.129
685.30 1.129
685.40 1.129
685.50 1.128
685.60 1.128
685.70 1.128
685.80 1.128
685.90 1.128
686.00 1.128
686.10 1.128
686.20 1.128
686.30 1.128
686.40 1.128
686.50 1.128
686.60 1.128
686.70 1.128
686.80 1.127
686.90 1.127
687.00 1.127
687.10 1.127
687.20 1.127
687.30 1.127
687.40 1.127
687.50 1.127
687.60 1.127
687.70 1.127
687.80 1.127
687.90 1.127
688.00 1.127
688.10 1.126
688.20 1.126
688.30 1.126
688.40 1.126
688.50 1.126
688.60 1.126
688.70 1.126
688.80 1.126
688.90 1.126
689.00 1.126
689.10 1.126
689.20 1.126
689.30 1.126
689.40 1.125
689.50 1.125
689.60 1.125
689.70 1.125
689.80 1.125
689.90 1.125
690.00 1.125
690.10 1.125
690.20 1.125
690.30 1.125
690.40 1.125
690.50 1.124
690.60 1.124
690.70 1.124
690.80 1.124
690.90 1.124
691.00 1.124
691.10 1.124
691.20 1.124
691.30 1.124
691.40 1.124
691.50 1.124
691.60 1.124
691.70 1.123
691.80 1.123
691.90 1.123
692.00 1.123
692.10 1.123
692.20 1.123
692.30 1.123
692.40 1.123
692.50 1.123
692.60 1.123
692.70 1.123
692.80 1.123
692.90 1.122
693.00 1.122
693.10 1.122
693.20 1.122
693.30 1.122
693.40 1.122
693.50 1.122
693.60 1.122
693.70 1.122
693.80 1.122
693.90 1.122
694.00 1.122
694.10 1.121
694.20 1.121
694.30 1.121
694.40 1.121
694.50 1.121
694.60 1.121
694.70 1.121
694.80 1.121
694.90 1.121
695.00 1.121
695.10 1.121
695.20 1.12
695.30 1.12
695.40 1.12
695.50 1.12
695.60 1.12
695.70 1.12
695.80 1.12
695.90 1.12
696.00 1.12
696.10 1.12
696.20 1.12
696.30 1.119
696.40 1.119
696.50 1.119
696.60 1.119
696.70 1.119
696.80 1.119
696.90 1.119
697.00 1.119
697.10 1.119
697.20 1.119
697.30 1.119
697.40 1.118
697.50 1.118
697.60 1.118
697.70 1.118
697.80 1.118
697.90 1.118
698.00 1.118
698.10 1.118
698.20 1.118
698.30 1.118
698.40 1.117
698.50 1.117
698.60 1.117
698.70 1.117
698.80 1.117
698.90 1.117
699.00 1.117
699.10 1.117
699.20 1.117
699.30 1.117
699.40 1.117
699.50 1.116
699.60 1.116
699.70 1.116
699.80 1.116
699.90 1.116
700.00 1.116
700.10 1.116
700.20 1.116
700.30 1.116
700.40 1.116
700.50 1.115
700.60 1.115
700.70 1.115
700.80 1.115
700.90 1.115
701.00 1.115
701.10 1.115
701.20 1.115
701.30 1.115
701.40 1.115
701.50 1.114
701.60 1.114
701.70 1.114
701.80 1.114
701.90 1.114
702.00 1.114
702.10 1.114
702.20 1.114
702.30 1.114
702.40 1.114
702.50 1.113
702.60 1.113
702.70 1.113
702.80 1.113
702.90 1.113
703.00 1.113
703.10 1.113
703.20 1.113
703.30 1.113
703.40 1.113
703.50 1.112
703.60 1.112
703.70 1.112
703.80 1.112
703.90 1.112
704.00 1.112
704.10 1.112
704.20 1.112
704.30 1.112
704.40 1.112
704.50 1.111
704.60 1.111
704.70 1.111
704.80 1.111
704.90 1.111
705.00 1.111
705.10 1.111
705.20 1.111
705.30 1.111
705.40 1.11
705.50 1.11
705.60 1.11
705.70 1.11
705.80 1.11
705.90 1.11
706.00 1.11
706.10 1.11
706.20 1.11
706.30 1.109
706.40 1.109
706.50 1.109
706.60 1.109
706.70 1.109
706.80 1.109
706.90 1.109
707.00 1.109
707.10 1.109
707.20 1.108
707.30 1.108
707.40 1.108
707.50 1.108
707.60 1.108
707.70 1.108
707.80 1.108
707.90 1.108
708.00 1.108
708.10 1.108
708.20 1.107
708.30 1.107
708.40 1.107
708.50 1.107
708.60 1.107
708.70 1.107
708.80 1.107
708.90 1.107
709.00 1.107
709.10 1.106
709.20 1.106
709.30 1.106
709.40 1.106
709.50 1.106
709.60 1.106
709.70 1.106
709.80 1.106
709.90 1.106
710.00 1.105
710.10 1.105
710.20 1.105
710.30 1.105
710.40 1.105
710.50 1.105
710.60 1.105
710.70 1.105
710.80 1.105
710.90 1.104
711.00 1.104
711.10 1.104
711.20 1.104
711.30 1.104
711.40 1.104
711.50 1.104
711.60 1.104
711.70 1.104
711.80 1.103
711.90 1.103
712.00 1.103
712.10 1.103
712.20 1.103
712.30 1.103
712.40 1.103
712.50 1.103
712.60 1.102
712.70 1.102
712.80 1.102
712.90 1.102
713.00 1.102
713.10 1.102
713.20 1.102
713.30 1.102
713.40 1.102
713.50 1.101
713.60 1.101
713.70 1.101
713.80 1.101
713.90 1.101
714.00 1.101
714.10 1.101
714.20 1.101
714.30 1.101
714.40 1.1
714.50 1.1
714.60 1.1
714.70 1.1
714.80 1.1
714.90 1.1
715.00 1.1
715.10 1.1
715.20 1.099
715.30 1.099
715.40 1.099
715.50 1.099
715.60 1.099
715.70 1.099
715.80 1.099
715.90 1.099
716.00 1.099
716.10 1.098
716.20 1.098
716.30 1.098
716.40 1.098
716.50 1.098
716.60 1.098
716.70 1.098
716.80 1.098
716.90 1.097
717.00 1.097
717.10 1.097
717.20 1.097
717.30 1.097
717.40 1.097
717.50 1.097
717.60 1.097
717.70 1.096
717.80 1.096
717.90 1.096
718.00 1.096
718.10 1.096
718.20 1.096
718.30 1.096
718.40 1.096
718.50 1.095
718.60 1.095
718.70 1.095
718.80 1.095
718.90 1.095
719.00 1.095
719.10 1.095
719.20 1.095
719.30 1.094
719.40 1.094
719.50 1.094
719.60 1.094
719.70 1.094
719.80 1.094
719.90 1.094
720.00 1.094
720.10 1.094
720.20 1.093
720.30 1.093
720.40 1.093
720.50 1.093
720.60 1.093
720.70 1.093
720.80 1.093
720.90 1.093
721.00 1.092
721.10 1.092
721.20 1.092
721.30 1.092
721.40 1.092
721.50 1.092
721.60 1.092
721.70 1.091
721.80 1.091
721.90 1.091
722.00 1.091
722.10 1.091
722.20 1.091
722.30 1.091
722.40 1.091
722.50 1.09
722.60 1.09
722.70 1.09
722.80 1.09
722.90 1.09
723.00 1.09
723.10 1.09
723.20 1.09
723.30 1.089
723.40 1.089
723.50 1.089
723.60 1.089
723.70 1.089
723.80 1.089
723.90 1.089
724.00 1.089
724.10 1.088
724.20 1.088
724.30 1.088
724.40 1.088
724.50 1.088
724.60 1.088
724.70 1.088
724.80 1.088
724.90 1.087
725.00 1.087
725.10 1.087
725.20 1.087
725.30 1.087
725.40 1.087
725.50 1.087
725.60 1.087
725.70 1.086
725.80 1.086
725.90 1.086
726.00 1.086
726.10 1.086
726.20 1.086
726.30 1.086
726.40 1.086
726.50 1.085
726.60 1.085
726.70 1.085
726.80 1.085
726.90 1.085
727.00 1.085
727.10 1.085
727.20 1.084
727.30 1.084
727.40 1.084
727.50 1.084
727.60 1.084
727.70 1.084
727.80 1.084
727.90 1.084
728.00 1.083
728.10 1.083
728.20 1.083
728.30 1.083
728.40 1.083
728.50 1.083
728.60 1.083
728.70 1.083
728.80 1.082
728.90 1.082
729.00 1.082
729.10 1.082
729.20 1.082
729.30 1.082
729.40 1.082
729.50 1.082
729.60 1.081
729.70 1.081
729.80 1.081
729.90 1.081
730.00 1.081
730.10 1.081
730.20 1.081
730.30 1.08
730.40 1.08
730.50 1.08
730.60 1.08
730.70 1.08
730.80 1.08
730.90 1.08
731.00 1.08
731.10 1.079
731.20 1.079
731.30 1.079
731.40 1.079
731.50 1.079
731.60 1.079
731.70 1.079
731.80 1.078
731.90 1.078
732.00 1.078
732.10 1.078
732.20 1.078
732.30 1.078
732.40 1.078
732.50 1.078
732.60 1.077
732.70 1.077
732.80 1.077
732.90 1.077
733.00 1.077
733.10 1.077
733.20 1.077
733.30 1.077
733.40 1.076
733.50 1.076
733.60 1.076
733.70 1.076
733.80 1.076
733.90 1.076
734.00 1.076
734.10 1.075
734.20 1.075
734.30 1.075
734.40 1.075
734.50 1.075
734.60 1.075
734.70 1.075
734.80 1.075
734.90 1.074
735.00 1.074
735.10 1.074
735.20 1.074
735.30 1.074
735.40 1.074
735.50 1.074
735.60 1.073
735.70 1.073
735.80 1.073
735.90 1.073
736.00 1.073
736.10 1.073
736.20 1.073
736.30 1.073
736.40 1.072
736.50 1.072
736.60 1.072
736.70 1.072
736.80 1.072
736.90 1.072
737.00 1.072
737.10 1.072
737.20 1.071
737.30 1.071
737.40 1.071
737.50 1.071
737.60 1.071
737.70 1.071
737.80 1.071
737.90 1.07
738.00 1.07
738.10 1.07
738.20 1.07
738.30 1.07
738.40 1.07
738.50 1.07
738.60 1.07
738.70 1.069
738.80 1.069
738.90 1.069
739.00 1.069
739.10 1.069
739.20 1.069
739.30 1.069
739.40 1.069
739.50 1.068
739.60 1.068
739.70 1.068
739.80 1.068
739.90 1.068
740.00 1.068
740.10 1.068
740.20 1.067
740.30 1.067
740.40 1.067
740.50 1.067
740.60 1.067
740.70 1.067
740.80 1.067
740.90 1.067
741.00 1.066
741.10 1.066
741.20 1.066
741.30 1.066
741.40 1.066
741.50 1.066
741.60 1.066
741.70 1.066
741.80 1.065
741.90 1.065
742.00 1.065
742.10 1.065
742.20 1.065
742.30 1.065
742.40 1.065
742.50 1.064
742.60 1.064
742.70 1.064
742.80 1.064
742.90 1.064
743.00 1.064
743.10 1.064
743.20 1.064
743.30 1.063
743.40 1.063
743.50 1.063
743.60 1.063
743.70 1.063
743.80 1.063
743.90 1.063
744.00 1.063
744.10 1.062
744.20 1.062
744.30 1.062
744.40 1.062
744.50 1.062
744.60 1.062
744.70 1.062
744.80 1.061
744.90 1.061
745.00 1.061
745.10 1.061
745.20 1.061
745.30 1.061
745.40 1.061
745.50 1.061
745.60 1.06
745.70 1.06
745.80 1.06
745.90 1.06
746.00 1.06
746.10 1.06
746.20 1.06
746.30 1.06
746.40 1.059
746.50 1.059
746.60 1.059
746.70 1.059
746.80 1.059
746.90 1.059
747.00 1.059
747.10 1.058
747.20 1.058
747.30 1.058
747.40 1.058
747.50 1.058
747.60 1.058
747.70 1.058
747.80 1.058
747.90 1.057
748.00 1.057
748.10 1.057
748.20 1.057
748.30 1.057
748.40 1.057
748.50 1.057
748.60 1.057
748.70 1.056
748.80 1.056
748.90 1.056
749.00 1.056
749.10 1.056
749.20 1.056
749.30 1.056
749.40 1.056
749.50 1.055
749.60 1.055
749.70 1.055
749.80 1.055
749.90 1.055
750.00 1.055
750.10 1.055
750.20 1.054
750.30 1.054
750.40 1.054
750.50 1.054
750.60 1.054
750.70 1.054
750.80 1.054
750.90 1.054
751.00 1.053
751.10 1.053
751.20 1.053
751.30 1.053
751.40 1.053
751.50 1.053
751.60 1.053
751.70 1.053
751.80 1.052
751.90 1.052
752.00 1.052
752.10 1.052
752.20 1.052
752.30 1.052
752.40 1.052
752.50 1.051
752.60 1.051
752.70 1.051
752.80 1.051
752.90 1.051
753.00 1.051
753.10 1.051
753.20 1.051
753.30 1.05
753.40 1.05
753.50 1.05
753.60 1.05
753.70 1.05
753.80 1.05
753.90 1.05
754.00 1.05
754.10 1.049
754.20 1.049
754.30 1.049
754.40 1.049
754.50 1.049
754.60 1.049
754.70 1.049
754.80 1.049
754.90 1.048
755.00 1.048
755.10 1.048
755.20 1.048
755.30 1.048
755.40 1.048
755.50 1.048
755.60 1.047
755.70 1.047
755.80 1.047
755.90 1.047
756.00 1.047
756.10 1.047
756.20 1.047
756.30 1.047
756.40 1.046
756.50 1.046
756.60 1.046
756.70 1.046
756.80 1.046
756.90 1.046
757.00 1.046
757.10 1.046
757.20 1.045
757.30 1.045
757.40 1.045
757.50 1.045
757.60 1.045
757.70 1.045
757.80 1.045
757.90 1.045
758.00 1.044
758.10 1.044
758.20 1.044
758.30 1.044
758.40 1.044
758.50 1.044
758.60 1.044
758.70 1.043
758.80 1.043
758.90 1.043
759.00 1.043
759.10 1.043
759.20 1.043
759.30 1.043
759.40 1.043
759.50 1.042
759.60 1.042
759.70 1.042
759.80 1.042
759.90 1.042
760.00 1.042
760.10 1.042
760.20 1.042
760.30 1.041
760.40 1.041
760.50 1.041
760.60 1.041
760.70 1.041
760.80 1.041
760.90 1.041
761.00 1.041
761.10 1.04
761.20 1.04
761.30 1.04
761.40 1.04
761.50 1.04
761.60 1.04
761.70 1.04
761.80 1.039
761.90 1.039
762.00 1.039
762.10 1.039
762.20 1.039
762.30 1.039
762.40 1.039
762.50 1.039
762.60 1.038
762.70 1.038
762.80 1.038
762.90 1.038
763.00 1.038
763.10 1.038
763.20 1.038
763.30 1.038
763.40 1.037
763.50 1.037
763.60 1.037
763.70 1.037
763.80 1.037
763.90 1.037
764.00 1.037
764.10 1.036
764.20 1.036
764.30 1.036
764.40 1.036
764.50 1.036
764.60 1.036
764.70 1.036
764.80 1.036
764.90 1.035
765.00 1.035
765.10 1.035
765.20 1.035
765.30 1.035
765.40 1.035
765.50 1.035
765.60 1.035
765.70 1.034
765.80 1.034
765.90 1.034
766.00 1.034
766.10 1.034
766.20 1.034
766.30 1.034
766.40 1.034
766.50 1.033
766.60 1.033
766.70 1.033
766.80 1.033
766.90 1.033
767.00 1.033
767.10 1.033
767.20 1.032
767.30 1.032
767.40 1.032
767.50 1.032
767.60 1.032
767.70 1.032
767.80 1.032
767.90 1.032
768.00 1.031
768.10 1.031
768.20 1.031
768.30 1.031
768.40 1.031
768.50 1.031
768.60 1.031
768.70 1.031
768.80 1.03
768.90 1.03
769.00 1.03
769.10 1.03
769.20 1.03
769.30 1.03
769.40 1.03
769.50 1.03
769.60 1.029
769.70 1.029
769.80 1.029
769.90 1.029
770.00 1.029
770.10 1.029
770.20 1.029
770.30 1.029
770.40 1.028
770.50 1.028
770.60 1.028
770.70 1.028
770.80 1.028
770.90 1.028
771.00 1.028
771.10 1.027
771.20 1.027
771.30 1.027
771.40 1.027
771.50 1.027
771.60 1.027
771.70 1.027
771.80 1.027
771.90 1.026
772.00 1.026
772.10 1.026
772.20 1.026
772.30 1.026
772.40 1.026
772.50 1.026
772.60 1.026
772.70 1.025
772.80 1.025
772.90 1.025
773.00 1.025
773.10 1.025
773.20 1.025
773.30 1.025
773.40 1.025
773.50 1.024
773.60 1.024
773.70 1.024
773.80 1.024
773.90 1.024
774.00 1.024
774.10 1.024
774.20 1.023
774.30 1.023
774.40 1.023
774.50 1.023
774.60 1.023
774.70 1.023
774.80 1.023
774.90 1.023
775.00 1.022
775.10 1.022
775.20 1.022
775.30 1.022
775.40 1.022
775.50 1.022
775.60 1.022
775.70 1.022
775.80 1.021
775.90 1.021
776.00 1.021
776.10 1.021
776.20 1.021
776.30 1.021
776.40 1.021
776.50 1.021
776.60 1.02
776.70 1.02
776.80 1.02
776.90 1.02
777.00 1.02
777.10 1.02
777.20 1.02
777.30 1.02
777.40 1.019
777.50 1.019
777.60 1.019
777.70 1.019
777.80 1.019
777.90 1.019
778.00 1.019
778.10 1.019
778.20 1.018
778.30 1.018
778.40 1.018
778.50 1.018
778.60 1.018
778.70 1.018
778.80 1.018
778.90 1.017
779.00 1.017
779.10 1.017
779.20 1.017
779.30 1.017
779.40 1.017
779.50 1.017
779.60 1.017
779.70 1.016
779.80 1.016
779.90 1.016
780.00 1.016
780.10 1.016
780.20 1.016
780.30 1.016
780.40 1.016
780.50 1.015
780.60 1.015
780.70 1.015
780.80 1.015
780.90 1.015
781.00 1.015
781.10 1.015
781.20 1.015
781.30 1.014
781.40 1.014
781.50 1.014
781.60 1.014
781.70 1.014
781.80 1.014
781.90 1.014
782.00 1.014
782.10 1.013
782.20 1.013
782.30 1.013
782.40 1.013
782.50 1.013
782.60 1.013
782.70 1.013
782.80 1.013
782.90 1.012
783.00 1.012
783.10 1.012
783.20 1.012
783.30 1.012
783.40 1.012
783.50 1.012
783.60 1.012
783.70 1.011
783.80 1.011
783.90 1.011
784.00 1.011
784.10 1.011
784.20 1.011
784.30 1.011
784.40 1.01
784.50 1.01
784.60 1.01
784.70 1.01
784.80 1.01
784.90 1.01
785.00 1.01
785.10 1.01
785.20 1.009
785.30 1.009
785.40 1.009
785.50 1.009
785.60 1.009
785.70 1.009
785.80 1.009
785.90 1.009
786.00 1.008
786.10 1.008
786.20 1.008
786.30 1.008
786.40 1.008
786.50 1.008
786.60 1.008
786.70 1.008
786.80 1.007
786.90 1.007
787.00 1.007
787.10 1.007
787.20 1.007
787.30 1.007
787.40 1.007
787.50 1.007
787.60 1.006
787.70 1.006
787.80 1.006
787.90 1.006
788.00 1.006
788.10 1.006
788.20 1.006
788.30 1.006
788.40 1.005
788.50 1.005
788.60 1.005
788.70 1.005
788.80 1.005
788.90 1.005
789.00 1.005
789.10 1.005
789.20 1.004
789.30 1.004
789.40 1.004
789.50 1.004
789.60 1.004
789.70 1.004
789.80 1.004
789.90 1.004
790.00 1.003
790.10 1.003
790.20 1.003
790.30 1.003
790.40 1.003
790.50 1.003
790.60 1.003
790.70 1.003
790.80 1.002
790.90 1.002
791.00 1.002
791.10 1.002
791.20 1.002
791.30 1.002
791.40 1.002
791.50 1.001
791.60 1.001
791.70 1.001
791.80 1.001
791.90 1.001
792.00 1.001
792.10 1.001
792.20 1.001
792.30 1
792.40 1
792.50 1
792.60 1
792.70 0.9999
792.80 0.9998
792.90 0.9997
793.00 0.9995
793.10 0.9994
793.20 0.9993
793.30 0.9991
793.40 0.999
793.50 0.9989
793.60 0.9988
793.70 0.9986
793.80 0.9985
793.90 0.9984
794.00 0.9982
794.10 0.9981
794.20 0.998
794.30 0.9979
794.40 0.9977
794.50 0.9976
794.60 0.9975
794.70 0.9973
794.80 0.9972
794.90 0.9971
795.00 0.997
795.10 0.9968
795.20 0.9967
795.30 0.9966
795.40 0.9964
795.50 0.9963
795.60 0.9962
795.70 0.9961
795.80 0.9959
795.90 0.9958
796.00 0.9957
796.10 0.9955
796.20 0.9954
796.30 0.9953
796.40 0.9952
796.50 0.995
796.60 0.9949
796.70 0.9948
796.80 0.9946
796.90 0.9945
797.00 0.9944
797.10 0.9943
797.20 0.9941
797.30 0.994
797.40 0.9939
797.50 0.9937
797.60 0.9936
797.70 0.9935
797.80 0.9934
797.90 0.9932
798.00 0.9931
798.10 0.993
798.20 0.9928
798.30 0.9927
798.40 0.9926
798.50 0.9925
798.60 0.9923
798.70 0.9922
798.80 0.9921
798.90 0.992
799.00 0.9918
799.10 0.9917
799.20 0.9916
799.30 0.9914
799.40 0.9913
799.50 0.9912
799.60 0.9911
799.70 0.9909
799.80 0.9908
799.90 0.9907
800.00 0.9906
800.10 0.9904
800.20 0.9903
800.30 0.9901
800.40 0.99
800.50 0.9899
800.60 0.9897
800.70 0.9896
800.80 0.9894
800.90 0.9893
801.00 0.9892
801.10 0.989
801.20 0.9889
801.30 0.9888
801.40 0.9886
801.50 0.9885
801.60 0.9883
801.70 0.9882
801.80 0.9881
801.90 0.9879
802.00 0.9878
802.10 0.9876
802.20 0.9875
802.30 0.9874
802.40 0.9872
802.50 0.9871
802.60 0.987
802.70 0.9868
802.80 0.9867
802.90 0.9865
803.00 0.9864
803.10 0.9863
803.20 0.9861
803.30 0.986
803.40 0.9859
803.50 0.9857
803.60 0.9856
803.70 0.9854
803.80 0.9853
803.90 0.9852
804.00 0.985
804.10 0.9849
804.20 0.9848
804.30 0.9846
804.40 0.9845
804.50 0.9843
804.60 0.9842
804.70 0.9841
804.80 0.9839
804.90 0.9838
805.00 0.9837
805.10 0.9835
805.20 0.9834
805.30 0.9832
805.40 0.9831
805.50 0.983
805.60 0.9828
805.70 0.9827
805.80 0.9826
805.90 0.9824
806.00 0.9823
806.10 0.9822
806.20 0.982
806.30 0.9819
806.40 0.9817
806.50 0.9816
806.60 0.9815
806.70 0.9813
806.80 0.9812
806.90 0.9811
807.00 0.9809
807.10 0.9808
807.20 0.9807
807.30 0.9805
807.40 0.9804
807.50 0.9802
807.60 0.9801
807.70 0.98
807.80 0.9798
807.90 0.9797
808.00 0.9796
808.10 0.9794
808.20 0.9793
808.30 0.9792
808.40 0.979
808.50 0.9789
808.60 0.9788
808.70 0.9786
808.80 0.9785
808.90 0.9783
809.00 0.9782
809.10 0.9781
809.20 0.9779
809.30 0.9778
809.40 0.9777
809.50 0.9775
809.60 0.9774
809.70 0.9773
809.80 0.9771
809.90 0.977
810.00 0.9769
810.10 0.9767
810.20 0.9766
810.30 0.9764
810.40 0.9763
810.50 0.9761
810.60 0.976
810.70 0.9758
810.80 0.9757
810.90 0.9755
811.00 0.9754
811.10 0.9752
811.20 0.9751
811.30 0.9749
811.40 0.9748
811.50 0.9746
811.60 0.9745
811.70 0.9743
811.80 0.9742
811.90 0.974
812.00 0.9739
812.10 0.9737
812.20 0.9736
812.30 0.9735
812.40 0.9733
812.50 0.9732
812.60 0.973
812.70 0.9729
812.80 0.9727
812.90 0.9726
813.00 0.9724
813.10 0.9723
813.20 0.9721
813.30 0.972
813.40 0.9718
813.50 0.9717
813.60 0.9715
813.70 0.9714
813.80 0.9712
813.90 0.9711
814.00 0.971
814.10 0.9708
814.20 0.9707
814.30 0.9705
814.40 0.9704
814.50 0.9702
814.60 0.9701
814.70 0.9699
814.80 0.9698
814.90 0.9696
815.00 0.9695
815.10 0.9693
815.20 0.9692
815.30 0.9691
815.40 0.9689
815.50 0.9688
815.60 0.9686
815.70 0.9685
815.80 0.9683
815.90 0.9682
816.00 0.968
816.10 0.9679
816.20 0.9677
816.30 0.9676
816.40 0.9674
816.50 0.9673
816.60 0.9672
816.70 0.967
816.80 0.9669
816.90 0.9667
817.00 0.9666
817.10 0.9664
817.20 0.9663
817.30 0.9661
817.40 0.966
817.50 0.9658
817.60 0.9657
817.70 0.9656
817.80 0.9654
817.90 0.9653
818.00 0.9651
818.10 0.965
818.20 0.9648
818.30 0.9647
818.40 0.9645
818.50 0.9644
818.60 0.9643
818.70 0.9641
818.80 0.964
818.90 0.9638
819.00 0.9637
819.10 0.9635
819.20 0.9634
819.30 0.9632
819.40 0.9631
819.50 0.963
819.60 0.9628
819.70 0.9627
819.80 0.9625
819.90 0.9624
820.00 0.9622
820.10 0.9621
820.20 0.962
820.30 0.9618
820.40 0.9616
820.50 0.9615
820.60 0.9613
820.70 0.9612
820.80 0.961
820.90 0.9609
821.00 0.9607
821.10 0.9606
821.20 0.9604
821.30 0.9603
821.40 0.9601
821.50 0.96
821.60 0.9598
821.70 0.9597
821.80 0.9595
821.90 0.9594
822.00 0.9592
822.10 0.9591
822.20 0.9589
822.30 0.9587
822.40 0.9586
822.50 0.9584
822.60 0.9583
822.70 0.9581
822.80 0.958
822.90 0.9578
823.00 0.9577
823.10 0.9575
823.20 0.9574
823.30 0.9572
823.40 0.957
823.50 0.9569
823.60 0.9567
823.70 0.9566
823.80 0.9564
823.90 0.9563
824.00 0.9561
824.10 0.956
824.20 0.9558
824.30 0.9557
824.40 0.9555
824.50 0.9553
824.60 0.9552
824.70 0.955
824.80 0.9549
824.90 0.9547
825.00 0.9546
825.10 0.9544
825.20 0.9543
825.30 0.9541
825.40 0.954
825.50 0.9538
825.60 0.9536
825.70 0.9535
825.80 0.9533
825.90 0.9532
826.00 0.953
826.10 0.9529
826.20 0.9527
826.30 0.9526
826.40 0.9524
826.50 0.9523
826.60 0.9521
826.70 0.952
826.80 0.9518
826.90 0.9517
827.00 0.9515
827.10 0.9513
827.20 0.9512
827.30 0.951
827.40 0.9509
827.50 0.9507
827.60 0.9505
827.70 0.9504
827.80 0.9502
827.90 0.9501
828.00 0.9499
828.10 0.9498
828.20 0.9496
828.30 0.9494
828.40 0.9493
828.50 0.9491
828.60 0.949
828.70 0.9488
828.80 0.9487
828.90 0.9485
829.00 0.9483
829.10 0.9482
829.20 0.948
829.30 0.9479
829.40 0.9477
829.50 0.9476
829.60 0.9474
829.70 0.9472
829.80 0.9471
829.90 0.9469
830.00 0.9468
830.10 0.9466
830.20 0.9465
830.30 0.9463
830.40 0.9461
830.50 0.946
830.60 0.9458
830.70 0.9457
830.80 0.9455
830.90 0.9454
831.00 0.9452
831.10 0.945
831.20 0.9449
831.30 0.9447
831.40 0.9446
831.50 0.9444
831.60 0.9443
831.70 0.9441
831.80 0.9439
831.90 0.9438
832.00 0.9436
832.10 0.9435
832.20 0.9433
832.30 0.9431
832.40 0.943
832.50 0.9428
832.60 0.9427
832.70 0.9425
832.80 0.9423
832.90 0.9422
833.00 0.942
833.10 0.9418
833.20 0.9417
833.30 0.9415
833.40 0.9414
833.50 0.9412
833.60 0.941
833.70 0.9409
833.80 0.9407
833.90 0.9406
834.00 0.9404
834.10 0.9402
834.20 0.9401
834.30 0.9399
834.40 0.9397
834.50 0.9396
834.60 0.9394
834.70 0.9393
834.80 0.9391
834.90 0.9389
835.00 0.9388
835.10 0.9386
835.20 0.9385
835.30 0.9383
835.40 0.9381
835.50 0.938
835.60 0.9378
835.70 0.9377
835.80 0.9375
835.90 0.9373
836.00 0.9372
836.10 0.937
836.20 0.9368
836.30 0.9367
836.40 0.9365
836.50 0.9364
836.60 0.9362
836.70 0.936
836.80 0.9359
836.90 0.9357
837.00 0.9356
837.10 0.9354
837.20 0.9352
837.30 0.9351
837.40 0.9349
837.50 0.9347
837.60 0.9346
837.70 0.9344
837.80 0.9342
837.90 0.9341
838.00 0.9339
838.10 0.9338
838.20 0.9336
838.30 0.9334
838.40 0.9333
838.50 0.9331
838.60 0.9329
838.70 0.9328
838.80 0.9326
838.90 0.9324
839.00 0.9323
839.10 0.9321
839.20 0.932
839.30 0.9318
839.40 0.9316
839.50 0.9315
839.60 0.9313
839.70 0.9311
839.80 0.931
839.90 0.9308
840.00 0.9306
840.10 0.9305
840.20 0.9303
840.30 0.9302
840.40 0.93
840.50 0.9298
840.60 0.9297
840.70 0.9295
840.80 0.9293
840.90 0.9292
841.00 0.929
841.10 0.9289
841.20 0.9287
841.30 0.9285
841.40 0.9284
841.50 0.9282
841.60 0.928
841.70 0.9279
841.80 0.9277
841.90 0.9276
842.00 0.9274
842.10 0.9272
842.20 0.9271
842.30 0.9269
842.40 0.9267
842.50 0.9266
842.60 0.9264
842.70 0.9262
842.80 0.926
842.90 0.9259
843.00 0.9257
843.10 0.9255
843.20 0.9254
843.30 0.9252
843.40 0.925
843.50 0.9249
843.60 0.9247
843.70 0.9245
843.80 0.9244
843.90 0.9242
844.00 0.924
844.10 0.9239
844.20 0.9237
844.30 0.9235
844.40 0.9234
844.50 0.9232
844.60 0.923
844.70 0.9229
844.80 0.9227
844.90 0.9225
845.00 0.9223
845.10 0.9222
845.20 0.922
845.30 0.9218
845.40 0.9217
845.50 0.9215
845.60 0.9213
845.70 0.9212
845.80 0.921
845.90 0.9208
846.00 0.9207
846.10 0.9205
846.20 0.9203
846.30 0.9202
846.40 0.92
846.50 0.9198
846.60 0.9197
846.70 0.9195
846.80 0.9193
846.90 0.9192
847.00 0.919
847.10 0.9188
847.20 0.9187
847.30 0.9185
847.40 0.9183
847.50 0.9182
847.60 0.918
847.70 0.9178
847.80 0.9176
847.90 0.9175
848.00 0.9173
848.10 0.9171
848.20 0.917
848.30 0.9168
848.40 0.9166
848.50 0.9165
848.60 0.9163
848.70 0.9161
848.80 0.916
848.90 0.9158
849.00 0.9156
849.10 0.9154
849.20 0.9153
849.30 0.9151
849.40 0.9149
849.50 0.9148
849.60 0.9146
849.70 0.9144
849.80 0.9143
849.90 0.9141
850.00 0.9139
850.10 0.9138
850.20 0.9136
850.30 0.9134
850.40 0.9133
850.50 0.9131
850.60 0.9129
850.70 0.9127
850.80 0.9126
850.90 0.9124
851.00 0.9122
851.10 0.9121
851.20 0.9119
851.30 0.9117
851.40 0.9116
851.50 0.9114
851.60 0.9112
851.70 0.9111
851.80 0.9109
851.90 0.9107
852.00 0.9106
852.10 0.9104
852.20 0.9102
852.30 0.91
852.40 0.9099
852.50 0.9097
852.60 0.9095
852.70 0.9093
852.80 0.9092
852.90 0.909
853.00 0.9088
853.10 0.9087
853.20 0.9085
853.30 0.9083
853.40 0.9081
853.50 0.908
853.60 0.9078
853.70 0.9076
853.80 0.9074
853.90 0.9073
854.00 0.9071
854.10 0.9069
854.20 0.9067
854.30 0.9066
854.40 0.9064
854.50 0.9062
854.60 0.9061
854.70 0.9059
854.80 0.9057
854.90 0.9055
855.00 0.9054
855.10 0.9052
855.20 0.905
855.30 0.9048
855.40 0.9047
855.50 0.9045
855.60 0.9043
855.70 0.9042
855.80 0.904
855.90 0.9038
856.00 0.9036
856.10 0.9035
856.20 0.9033
856.30 0.9031
856.40 0.9029
856.50 0.9028
856.60 0.9026
856.70 0.9024
856.80 0.9023
856.90 0.9021
857.00 0.9019
857.10 0.9017
857.20 0.9016
857.30 0.9014
857.40 0.9012
857.50 0.901
857.60 0.9009
857.70 0.9007
857.80 0.9005
857.90 0.9003
858.00 0.9001
858.10 0.9
858.20 0.8998
858.30 0.8996
858.40 0.8994
858.50 0.8993
858.60 0.8991
858.70 0.8989
858.80 0.8987
858.90 0.8986
859.00 0.8984
859.10 0.8982
859.20 0.898
859.30 0.8979
859.40 0.8977
859.50 0.8975
859.60 0.8973
859.70 0.8972
859.80 0.897
859.90 0.8968
860.00 0.8966
860.10 0.8965
860.20 0.8963
860.30 0.8961
860.40 0.8959
860.50 0.8958
860.60 0.8956
860.70 0.8954
860.80 0.8952
860.90 0.8951
861.00 0.8949
861.10 0.8947
861.20 0.8945
861.30 0.8944
861.40 0.8942
861.50 0.894
861.60 0.8938
861.70 0.8937
861.80 0.8935
861.90 0.8933
862.00 0.8931
862.10 0.893
862.20 0.8928
862.30 0.8926
862.40 0.8924
862.50 0.8922
862.60 0.8921
862.70 0.8919
862.80 0.8917
862.90 0.8915
863.00 0.8913
863.10 0.8912
863.20 0.891
863.30 0.8908
863.40 0.8906
863.50 0.8904
863.60 0.8903
863.70 0.8901
863.80 0.8899
863.90 0.8897
864.00 0.8895
864.10 0.8894
864.20 0.8892
864.30 0.889
864.40 0.8888
864.50 0.8886
864.60 0.8885
864.70 0.8883
864.80 0.8881
864.90 0.8879
865.00 0.8877
865.10 0.8876
865.20 0.8874
865.30 0.8872
865.40 0.887
865.50 0.8869
865.60 0.8867
865.70 0.8865
865.80 0.8863
865.90 0.8861
866.00 0.886
866.10 0.8858
866.20 0.8856
866.30 0.8854
866.40 0.8853
866.50 0.8851
866.60 0.8849
866.70 0.8847
866.80 0.8845
866.90 0.8844
867.00 0.8842
867.10 0.884
867.20 0.8838
867.30 0.8836
867.40 0.8834
867.50 0.8833
867.60 0.8831
867.70 0.8829
867.80 0.8827
867.90 0.8825
868.00 0.8823
868.10 0.8822
868.20 0.882
868.30 0.8818
868.40 0.8816
868.50 0.8814
868.60 0.8812
868.70 0.8811
868.80 0.8809
868.90 0.8807
869.00 0.8805
869.10 0.8803
869.20 0.8801
869.30 0.88
869.40 0.8798
869.50 0.8796
869.60 0.8794
869.70 0.8792
869.80 0.879
869.90 0.8789
870.00 0.8787
870.10 0.8785
870.20 0.8783
870.30 0.8781
870.40 0.8779
870.50 0.8778
870.60 0.8776
870.70 0.8774
870.80 0.8772
870.90 0.877
871.00 0.8769
871.10 0.8767
871.20 0.8765
871.30 0.8763
871.40 0.8761
871.50 0.8759
871.60 0.8758
871.70 0.8756
871.80 0.8754
871.90 0.8752
872.00 0.875
872.10 0.8748
872.20 0.8747
872.30 0.8745
872.40 0.8743
872.50 0.8741
872.60 0.8739
872.70 0.8737
872.80 0.8735
872.90 0.8733
873.00 0.8731
873.10 0.873
873.20 0.8728
873.30 0.8726
873.40 0.8724
873.50 0.8722
873.60 0.872
873.70 0.8718
873.80 0.8716
873.90 0.8715
874.00 0.8713
874.10 0.8711
874.20 0.8709
874.30 0.8707
874.40 0.8705
874.50 0.8703
874.60 0.8701
874.70 0.87
874.80 0.8698
874.90 0.8696
875.00 0.8694
875.10 0.8692
875.20 0.869
875.30 0.8688
875.40 0.8686
875.50 0.8685
875.60 0.8683
875.70 0.8681
875.80 0.8679
875.90 0.8677
876.00 0.8675
876.10 0.8673
876.20 0.8672
876.30 0.867
876.40 0.8668
876.50 0.8666
876.60 0.8664
876.70 0.8662
876.80 0.866
876.90 0.8659
877.00 0.8657
877.10 0.8655
877.20 0.8653
877.30 0.8651
877.40 0.8649
877.50 0.8647
877.60 0.8645
877.70 0.8643
877.80 0.8641
877.90 0.8639
878.00 0.8637
878.10 0.8635
878.20 0.8634
878.30 0.8632
878.40 0.863
878.50 0.8628
878.60 0.8626
878.70 0.8624
878.80 0.8622
878.90 0.862
879.00 0.8618
879.10 0.8616
879.20 0.8614
879.30 0.8612
879.40 0.8611
879.50 0.8609
879.60 0.8607
879.70 0.8605
879.80 0.8603
879.90 0.8601
880.00 0.8599
880.10 0.8597
880.20 0.8595
880.30 0.8593
880.40 0.8591
880.50 0.8589
880.60 0.8588
880.70 0.8586
880.80 0.8584
880.90 0.8582
881.00 0.858
881.10 0.8578
881.20 0.8576
881.30 0.8574
881.40 0.8572
881.50 0.857
881.60 0.8568
881.70 0.8567
881.80 0.8565
881.90 0.8563
882.00 0.8561
882.10 0.8559
882.20 0.8557
882.30 0.8555
882.40 0.8553
882.50 0.8551
882.60 0.8549
882.70 0.8547
882.80 0.8545
882.90 0.8543
883.00 0.8541
883.10 0.8539
883.20 0.8537
883.30 0.8535
883.40 0.8533
883.50 0.8531
883.60 0.8529
883.70 0.8527
883.80 0.8525
883.90 0.8523
884.00 0.8521
884.10 0.8519
884.20 0.8517
884.30 0.8515
884.40 0.8513
884.50 0.8511
884.60 0.8509
884.70 0.8507
884.80 0.8505
884.90 0.8503
885.00 0.8501
885.10 0.8499
885.20 0.8497
885.30 0.8495
885.40 0.8493
885.50 0.8491
885.60 0.8489
885.70 0.8487
885.80 0.8485
885.90 0.8483
886.00 0.8481
886.10 0.8479
886.20 0.8477
886.30 0.8475
886.40 0.8473
886.50 0.8471
886.60 0.8469
886.70 0.8467
886.80 0.8465
886.90 0.8463
887.00 0.8461
887.10 0.8459
887.20 0.8457
887.30 0.8455
887.40 0.8453
887.50 0.8451
887.60 0.8449
887.70 0.8447
887.80 0.8445
887.90 0.8443
888.00 0.8441
888.10 0.8439
888.20 0.8437
888.30 0.8434
888.40 0.8432
888.50 0.843
888.60 0.8428
888.70 0.8426
888.80 0.8424
888.90 0.8422
889.00 0.842
889.10 0.8418
889.20 0.8416
889.30 0.8414
889.40 0.8412
889.50 0.841
889.60 0.8408
889.70 0.8406
889.80 0.8403
889.90 0.8401
890.00 0.8399
890.10 0.8397
890.20 0.8395
890.30 0.8393
890.40 0.8391
890.50 0.8389
890.60 0.8387
890.70 0.8385
890.80 0.8383
890.90 0.8381
891.00 0.8379
891.10 0.8377
891.20 0.8375
891.30 0.8373
891.40 0.8371
891.50 0.8369
891.60 0.8367
891.70 0.8364
891.80 0.8362
891.90 0.836
892.00 0.8358
892.10 0.8356
892.20 0.8355
892.30 0.8353
892.40 0.8351
892.50 0.8349
892.60 0.8347
892.70 0.8345
892.80 0.8343
892.90 0.8341
893.00 0.8339
893.10 0.8338
893.20 0.8336
893.30 0.8334
893.40 0.8332
893.50 0.833
893.60 0.8328
893.70 0.8326
893.80 0.8324
893.90 0.8322
894.00 0.8321
894.10 0.8319
894.20 0.8317
894.30 0.8315
894.40 0.8313
894.50 0.8311
894.60 0.8309
894.70 0.8307
894.80 0.8305
894.90 0.8304
895.00 0.8302
895.10 0.83
895.20 0.8298
895.30 0.8296
895.40 0.8294
895.50 0.8292
895.60 0.829
895.70 0.8289
895.80 0.8287
895.90 0.8285
896.00 0.8283
896.10 0.8281
896.20 0.8279
896.30 0.8277
896.40 0.8275
896.50 0.8274
896.60 0.8272
896.70 0.827
896.80 0.8268
896.90 0.8266
897.00 0.8264
897.10 0.8262
897.20 0.826
897.30 0.8257
897.40 0.8255
897.50 0.8253
897.60 0.8251
897.70 0.8248
897.80 0.8246
897.90 0.8244
898.00 0.8242
898.10 0.8239
898.20 0.8237
898.30 0.8235
898.40 0.8232
898.50 0.823
898.60 0.8228
898.70 0.8226
898.80 0.8223
898.90 0.8221
899.00 0.8219
899.10 0.8217
899.20 0.8214
899.30 0.8212
899.40 0.821
899.50 0.8208
899.60 0.8205
899.70 0.8203
899.80 0.8201
899.90 0.8199
900.00 0.8196
900.10 0.8194
900.20 0.8192
900.30 0.819
900.40 0.8187
900.50 0.8185
900.60 0.8183
900.70 0.8181
900.80 0.8178
900.90 0.8176
901.00 0.8174
901.10 0.8172
901.20 0.8169
901.30 0.8167
901.40 0.8165
901.50 0.8163
901.60 0.816
901.70 0.8158
901.80 0.8156
901.90 0.8154
902.00 0.8151
902.10 0.8148
902.20 0.8146
902.30 0.8143
902.40 0.814
902.50 0.8137
902.60 0.8134
902.70 0.8131
902.80 0.8128
902.90 0.8125
903.00 0.8122
903.10 0.8119
903.20 0.8116
903.30 0.8113
903.40 0.811
903.50 0.8107
903.60 0.8104
903.70 0.8101
903.80 0.8098
903.90 0.8095
904.00 0.8092
904.10 0.8089
904.20 0.8086
904.30 0.8084
904.40 0.8081
904.50 0.8078
904.60 0.8075
904.70 0.8072
904.80 0.8069
904.90 0.8066
905.00 0.8063
905.10 0.806
905.20 0.8057
905.30 0.8054
905.40 0.8051
905.50 0.8048
905.60 0.8045
905.70 0.8042
905.80 0.804
905.90 0.8037
906.00 0.8034
906.10 0.8031
906.20 0.8028
906.30 0.8025
906.40 0.8022
906.50 0.8019
906.60 0.8016
906.70 0.8013
906.80 0.801
906.90 0.8007
907.00 0.8004
907.10 0.8002
907.20 0.7999
907.30 0.7997
907.40 0.7994
907.50 0.7992
907.60 0.7989
907.70 0.7987
907.80 0.7984
907.90 0.7981
908.00 0.7979
908.10 0.7976
908.20 0.7974
908.30 0.7971
908.40 0.7969
908.50 0.7966
908.60 0.7964
908.70 0.7961
908.80 0.7959
908.90 0.7956
909.00 0.7953
909.10 0.7951
909.20 0.7948
909.30 0.7946
909.40 0.7943
909.50 0.7941
909.60 0.7938
909.70 0.7936
909.80 0.7933
909.90 0.7931
910.00 0.7928
910.10 0.7926
910.20 0.7923
910.30 0.7921
910.40 0.7918
910.50 0.7915
910.60 0.7913
910.70 0.791
910.80 0.7908
910.90 0.7905
911.00 0.7903
911.10 0.79
911.20 0.7898
911.30 0.7895
911.40 0.7893
911.50 0.789
911.60 0.7888
911.70 0.7885
911.80 0.7883
911.90 0.788
912.00 0.7878
912.10 0.7875
912.20 0.7873
912.30 0.7871
912.40 0.7869
912.50 0.7867
912.60 0.7864
912.70 0.7862
912.80 0.786
912.90 0.7858
913.00 0.7856
913.10 0.7853
913.20 0.7851
913.30 0.7849
913.40 0.7847
913.50 0.7845
913.60 0.7842
913.70 0.784
913.80 0.7838
913.90 0.7836
914.00 0.7834
914.10 0.7831
914.20 0.7829
914.30 0.7827
914.40 0.7825
914.50 0.7823
914.60 0.7821
914.70 0.7818
914.80 0.7816
914.90 0.7814
915.00 0.7812
915.10 0.781
915.20 0.7807
915.30 0.7805
915.40 0.7803
915.50 0.7801
915.60 0.7799
915.70 0.7797
915.80 0.7794
915.90 0.7792
916.00 0.779
916.10 0.7788
916.20 0.7786
916.30 0.7783
916.40 0.7781
916.50 0.7779
916.60 0.7777
916.70 0.7775
916.80 0.7773
916.90 0.777
917.00 0.7768
917.10 0.7766
917.20 0.7763
917.30 0.7761
917.40 0.7758
917.50 0.7756
917.60 0.7754
917.70 0.7751
917.80 0.7749
917.90 0.7746
918.00 0.7744
918.10 0.7741
918.20 0.7739
918.30 0.7736
918.40 0.7734
918.50 0.7732
918.60 0.7729
918.70 0.7727
918.80 0.7724
918.90 0.7722
919.00 0.7719
919.10 0.7717
919.20 0.7714
919.30 0.7712
919.40 0.771
919.50 0.7707
919.60 0.7705
919.70 0.7702
919.80 0.77
919.90 0.7697
920.00 0.7695
920.10 0.7693
920.20 0.769
920.30 0.7688
920.40 0.7685
920.50 0.7683
920.60 0.768
920.70 0.7678
920.80 0.7676
920.90 0.7673
921.00 0.7671
921.10 0.7668
921.20 0.7666
921.30 0.7664
921.40 0.7661
921.50 0.7659
921.60 0.7656
921.70 0.7654
921.80 0.7651
921.90 0.7649
922.00 0.7647
922.10 0.7644
922.20 0.7642
922.30 0.7639
922.40 0.7637
922.50 0.7634
922.60 0.7632
922.70 0.7629
922.80 0.7627
922.90 0.7624
923.00 0.7622
923.10 0.7619
923.20 0.7617
923.30 0.7614
923.40 0.7612
923.50 0.7609
923.60 0.7607
923.70 0.7604
923.80 0.7602
923.90 0.7599
924.00 0.7597
924.10 0.7595
924.20 0.7592
924.30 0.759
924.40 0.7587
924.50 0.7585
924.60 0.7582
924.70 0.758
924.80 0.7577
924.90 0.7575
925.00 0.7572
925.10 0.757
925.20 0.7567
925.30 0.7565
925.40 0.7562
925.50 0.756
925.60 0.7558
925.70 0.7555
925.80 0.7553
925.90 0.755
926.00 0.7548
926.10 0.7545
926.20 0.7543
926.30 0.754
926.40 0.7538
926.50 0.7535
926.60 0.7533
926.70 0.7531
926.80 0.7528
926.90 0.7526
927.00 0.7523
927.10 0.7521
927.20 0.7518
927.30 0.7516
927.40 0.7513
927.50 0.7511
927.60 0.7508
927.70 0.7506
927.80 0.7503
927.90 0.7501
928.00 0.7498
928.10 0.7495
928.20 0.7493
928.30 0.749
928.40 0.7488
928.50 0.7485
928.60 0.7483
928.70 0.748
928.80 0.7478
928.90 0.7475
929.00 0.7473
929.10 0.747
929.20 0.7468
929.30 0.7465
929.40 0.7463
929.50 0.746
929.60 0.7458
929.70 0.7455
929.80 0.7453
929.90 0.745
930.00 0.7448
930.10 0.7445
930.20 0.7443
930.30 0.744
930.40 0.7438
930.50 0.7435
930.60 0.7433
930.70 0.743
930.80 0.7428
930.90 0.7425
931.00 0.7423
931.10 0.742
931.20 0.7418
931.30 0.7415
931.40 0.7413
931.50 0.741
931.60 0.7408
931.70 0.7406
931.80 0.7403
931.90 0.7401
932.00 0.7398
932.10 0.7396
932.20 0.7393
932.30 0.739
932.40 0.7388
932.50 0.7385
932.60 0.7383
932.70 0.738
932.80 0.7378
932.90 0.7375
933.00 0.7373
933.10 0.737
933.20 0.7368
933.30 0.7365
933.40 0.7363
933.50 0.736
933.60 0.7358
933.70 0.7355
933.80 0.7352
933.90 0.735
934.00 0.7347
934.10 0.7345
934.20 0.7342
934.30 0.734
934.40 0.7337
934.50 0.7335
934.60 0.7332
934.70 0.733
934.80 0.7327
934.90 0.7324
935.00 0.7322
935.10 0.7319
935.20 0.7317
935.30 0.7314
935.40 0.7312
935.50 0.7309
935.60 0.7306
935.70 0.7304
935.80 0.7301
935.90 0.7299
936.00 0.7296
936.10 0.7294
936.20 0.7291
936.30 0.7288
936.40 0.7286
936.50 0.7283
936.60 0.7281
936.70 0.7278
936.80 0.7276
936.90 0.7273
937.00 0.7271
937.10 0.7268
937.20 0.7265
937.30 0.7263
937.40 0.726
937.50 0.7258
937.60 0.7255
937.70 0.7252
937.80 0.725
937.90 0.7247
938.00 0.7245
938.10 0.7242
938.20 0.724
938.30 0.7237
938.40 0.7234
938.50 0.7232
938.60 0.7229
938.70 0.7226
938.80 0.7224
938.90 0.7221
939.00 0.7219
939.10 0.7216
939.20 0.7213
939.30 0.7211
939.40 0.7208
939.50 0.7206
939.60 0.7203
939.70 0.72
939.80 0.7198
939.90 0.7195
940.00 0.7192
940.10 0.719
940.20 0.7187
940.30 0.7185
940.40 0.7182
940.50 0.7179
940.60 0.7177
940.70 0.7174
940.80 0.7172
940.90 0.7169
941.00 0.7166
941.10 0.7164
941.20 0.7161
941.30 0.7159
941.40 0.7156
941.50 0.7153
941.60 0.7151
941.70 0.7148
941.80 0.7146
941.90 0.7143
942.00 0.714
942.10 0.7138
942.20 0.7135
942.30 0.7132
942.40 0.713
942.50 0.7127
942.60 0.7125
942.70 0.7122
942.80 0.7119
942.90 0.7117
943.00 0.7114
943.10 0.7111
943.20 0.7109
943.30 0.7106
943.40 0.7104
943.50 0.7101
943.60 0.7098
943.70 0.7096
943.80 0.7093
943.90 0.709
944.00 0.7088
944.10 0.7085
944.20 0.7083
944.30 0.708
944.40 0.7077
944.50 0.7075
944.60 0.7072
944.70 0.7069
944.80 0.7067
944.90 0.7064
945.00 0.7061
945.10 0.7059
945.20 0.7056
945.30 0.7054
945.40 0.7051
945.50 0.7048
945.60 0.7046
945.70 0.7043
945.80 0.704
945.90 0.7038
946.00 0.7035
946.10 0.7032
946.20 0.703
946.30 0.7027
946.40 0.7025
946.50 0.7022
946.60 0.7019
946.70 0.7017
946.80 0.7014
946.90 0.7011
947.00 0.7009
947.10 0.7006
947.20 0.7003
947.30 0.7001
947.40 0.6998
947.50 0.6995
947.60 0.6993
947.70 0.699
947.80 0.6987
947.90 0.6985
948.00 0.6982
948.10 0.6979
948.20 0.6977
948.30 0.6974
948.40 0.6971
948.50 0.6969
948.60 0.6966
948.70 0.6963
948.80 0.6961
948.90 0.6958
949.00 0.6955
949.10 0.6953
949.20 0.695
949.30 0.6947
949.40 0.6945
949.50 0.6942
949.60 0.6939
949.70 0.6937
949.80 0.6934
949.90 0.6931
950.00 0.6929
950.10 0.6926
950.20 0.6923
950.30 0.6921
950.40 0.6918
950.50 0.6915
950.60 0.6913
950.70 0.691
950.80 0.6907
950.90 0.6905
951.00 0.6902
951.10 0.6899
951.20 0.6897
951.30 0.6894
951.40 0.6892
951.50 0.6889
951.60 0.6886
951.70 0.6884
951.80 0.6881
951.90 0.6878
952.00 0.6876
952.10 0.6873
952.20 0.687
952.30 0.6868
952.40 0.6865
952.50 0.6862
952.60 0.686
952.70 0.6857
952.80 0.6854
952.90 0.6852
953.00 0.6849
953.10 0.6846
953.20 0.6844
953.30 0.6841
953.40 0.6838
953.50 0.6836
953.60 0.6833
953.70 0.683
953.80 0.6828
953.90 0.6825
954.00 0.6822
954.10 0.682
954.20 0.6817
954.30 0.6814
954.40 0.6812
954.50 0.6809
954.60 0.6806
954.70 0.6804
954.80 0.6801
954.90 0.6798
955.00 0.6796
955.10 0.6793
955.20 0.679
955.30 0.6788
955.40 0.6785
955.50 0.6782
955.60 0.678
955.70 0.6777
955.80 0.6774
955.90 0.6772
956.00 0.6769
956.10 0.6766
956.20 0.6764
956.30 0.6761
956.40 0.6758
956.50 0.6755
956.60 0.6753
956.70 0.675
956.80 0.6747
956.90 0.6745
957.00 0.6742
957.10 0.6739
957.20 0.6737
957.30 0.6734
957.40 0.6731
957.50 0.6728
957.60 0.6726
957.70 0.6723
957.80 0.672
957.90 0.6718
958.00 0.6715
958.10 0.6712
958.20 0.671
958.30 0.6707
958.40 0.6704
958.50 0.6702
958.60 0.6699
958.70 0.6696
958.80 0.6694
958.90 0.6691
959.00 0.6688
959.10 0.6686
959.20 0.6683
959.30 0.668
959.40 0.6678
959.50 0.6675
959.60 0.6672
959.70 0.667
959.80 0.6667
959.90 0.6664
960.00 0.6662
960.10 0.6659
960.20 0.6656
960.30 0.6654
960.40 0.6651
960.50 0.6648
960.60 0.6646
960.70 0.6643
960.80 0.664
960.90 0.6638
961.00 0.6635
961.10 0.6632
961.20 0.663
961.30 0.6627
961.40 0.6624
961.50 0.6622
961.60 0.6619
961.70 0.6617
961.80 0.6614
961.90 0.6611
962.00 0.6609
962.10 0.6606
962.20 0.6603
962.30 0.6601
962.40 0.6598
962.50 0.6595
962.60 0.6593
962.70 0.659
962.80 0.6587
962.90 0.6585
963.00 0.6582
963.10 0.6579
963.20 0.6577
963.30 0.6574
963.40 0.6571
963.50 0.6569
963.60 0.6566
963.70 0.6563
963.80 0.6561
963.90 0.6558
964.00 0.6555
964.10 0.6553
964.20 0.655
964.30 0.6547
964.40 0.6545
964.50 0.6542
964.60 0.6539
964.70 0.6537
964.80 0.6534
964.90 0.6531
965.00 0.6529
965.10 0.6526
965.20 0.6523
965.30 0.6521
965.40 0.6518
965.50 0.6515
965.60 0.6513
965.70 0.651
965.80 0.6507
965.90 0.6505
966.00 0.6502
966.10 0.6499
966.20 0.6497
966.30 0.6494
966.40 0.6491
966.50 0.6489
966.60 0.6486
966.70 0.6483
966.80 0.6481
966.90 0.6478
967.00 0.6475
967.10 0.6473
967.20 0.647
967.30 0.6468
967.40 0.6465
967.50 0.6462
967.60 0.646
967.70 0.6457
967.80 0.6454
967.90 0.6452
968.00 0.6449
968.10 0.6446
968.20 0.6444
968.30 0.6441
968.40 0.6439
968.50 0.6436
968.60 0.6433
968.70 0.6431
968.80 0.6428
968.90 0.6425
969.00 0.6423
969.10 0.642
969.20 0.6417
969.30 0.6415
969.40 0.6412
969.50 0.641
969.60 0.6407
969.70 0.6404
969.80 0.6402
969.90 0.6399
970.00 0.6396
970.10 0.6394
970.20 0.6391
970.30 0.6389
970.40 0.6386
970.50 0.6383
970.60 0.6381
970.70 0.6378
970.80 0.6375
970.90 0.6373
971.00 0.637
971.10 0.6368
971.20 0.6365
971.30 0.6362
971.40 0.636
971.50 0.6357
971.60 0.6354
971.70 0.6352
971.80 0.6349
971.90 0.6347
972.00 0.6344
972.10 0.6341
972.20 0.6339
972.30 0.6336
972.40 0.6334
972.50 0.6331
972.60 0.6328
972.70 0.6326
972.80 0.6323
972.90 0.6321
973.00 0.6318
973.10 0.6315
973.20 0.6313
973.30 0.631
973.40 0.6308
973.50 0.6305
973.60 0.6302
973.70 0.63
973.80 0.6297
973.90 0.6295
974.00 0.6292
974.10 0.6289
974.20 0.6287
974.30 0.6284
974.40 0.6282
974.50 0.6279
974.60 0.6276
974.70 0.6274
974.80 0.6271
974.90 0.6269
975.00 0.6266
975.10 0.6263
975.20 0.6261
975.30 0.6258
975.40 0.6256
975.50 0.6253
975.60 0.625
975.70 0.6248
975.80 0.6245
975.90 0.6243
976.00 0.624
976.10 0.6238
976.20 0.6235
976.30 0.6232
976.40 0.623
976.50 0.6227
976.60 0.6225
976.70 0.6222
976.80 0.622
976.90 0.6217
977.00 0.6214
977.10 0.6212
977.20 0.6209
977.30 0.6207
977.40 0.6204
977.50 0.6202
977.60 0.6199
977.70 0.6196
977.80 0.6194
977.90 0.6191
978.00 0.6189
978.10 0.6186
978.20 0.6184
978.30 0.6181
978.40 0.6179
978.50 0.6176
978.60 0.6174
978.70 0.6171
978.80 0.6168
978.90 0.6166
979.00 0.6163
979.10 0.6161
979.20 0.6158
979.30 0.6156
979.40 0.6153
979.50 0.6151
979.60 0.6148
979.70 0.6146
979.80 0.6143
979.90 0.6141
980.00 0.6138
980.10 0.6135
980.20 0.6133
980.30 0.613
980.40 0.6128
980.50 0.6125
980.60 0.6123
980.70 0.612
980.80 0.6118
980.90 0.6115
981.00 0.6113
981.10 0.611
981.20 0.6108
981.30 0.6105
981.40 0.6103
981.50 0.61
981.60 0.6098
981.70 0.6095
981.80 0.6093
981.90 0.609
982.00 0.6088
982.10 0.6085
982.20 0.6082
982.30 0.608
982.40 0.6077
982.50 0.6075
982.60 0.6072
982.70 0.607
982.80 0.6068
982.90 0.6065
983.00 0.6063
983.10 0.606
983.20 0.6058
983.30 0.6055
983.40 0.6053
983.50 0.605
983.60 0.6048
983.70 0.6045
983.80 0.6043
983.90 0.604
984.00 0.6038
984.10 0.6035
984.20 0.6033
984.30 0.603
984.40 0.6028
984.50 0.6025
984.60 0.6023
984.70 0.602
984.80 0.6018
984.90 0.6015
985.00 0.6013
985.10 0.601
985.20 0.6008
985.30 0.6005
985.40 0.6003
985.50 0.6001
985.60 0.5998
985.70 0.5996
985.80 0.5993
985.90 0.5991
986.00 0.5988
986.10 0.5986
986.20 0.5983
986.30 0.5981
986.40 0.5979
986.50 0.5976
986.60 0.5974
986.70 0.5971
986.80 0.5969
986.90 0.5966
987.00 0.5964
987.10 0.5961
987.20 0.5959
987.30 0.5956
987.40 0.5954
987.50 0.5952
987.60 0.5949
987.70 0.5947
987.80 0.5944
987.90 0.5942
988.00 0.5939
988.10 0.5937
988.20 0.5934
988.30 0.5932
988.40 0.593
988.50 0.5927
988.60 0.5925
988.70 0.5922
988.80 0.592
988.90 0.5917
989.00 0.5915
989.10 0.5913
989.20 0.591
989.30 0.5908
989.40 0.5905
989.50 0.5903
989.60 0.59
989.70 0.5898
989.80 0.5896
989.90 0.5893
990.00 0.5891
990.10 0.5888
990.20 0.5886
990.30 0.5883
990.40 0.5881
990.50 0.5879
990.60 0.5876
990.70 0.5874
990.80 0.5871
990.90 0.5869
991.00 0.5867
991.10 0.5864
991.20 0.5862
991.30 0.5859
991.40 0.5857
991.50 0.5855
991.60 0.5852
991.70 0.585
991.80 0.5847
991.90 0.5845
992.00 0.5843
992.10 0.584
992.20 0.5838
992.30 0.5835
992.40 0.5833
992.50 0.5831
992.60 0.5828
992.70 0.5826
992.80 0.5823
992.90 0.5821
993.00 0.5819
993.10 0.5816
993.20 0.5814
993.30 0.5811
993.40 0.5809
993.50 0.5807
993.60 0.5804
993.70 0.5802
993.80 0.5799
993.90 0.5797
994.00 0.5795
994.10 0.5792
994.20 0.579
994.30 0.5787
994.40 0.5785
994.50 0.5783
994.60 0.578
994.70 0.5778
994.80 0.5775
994.90 0.5773
995.00 0.577
995.10 0.5768
995.20 0.5765
995.30 0.5763
995.40 0.576
995.50 0.5758
995.60 0.5755
995.70 0.5753
995.80 0.5751
995.90 0.5748
996.00 0.5746
996.10 0.5744
996.20 0.5741
996.30 0.5739
996.40 0.5737
996.50 0.5734
996.60 0.5732
996.70 0.573
996.80 0.5727
996.90 0.5725
997.00 0.5723
997.10 0.572
997.20 0.5718
997.30 0.5716
997.40 0.5713
997.50 0.5711
997.60 0.5709
997.70 0.5706
997.80 0.5704
997.90 0.5702
998.00 0.5699
998.10 0.5697
998.20 0.5695
998.30 0.5692
998.40 0.569
998.50 0.5688
998.60 0.5685
998.70 0.5683
998.80 0.5681
998.90 0.5679
999.00 0.5676
999.10 0.5674
999.20 0.5672
999.30 0.5669
999.40 0.5667
999.50 0.5665
999.60 0.5662
999.70 0.566
999.80 0.5658
999.90 0.5656
1000.00 0.5653
1000.10 0.5651
1000.20 0.5649
1000.30 0.5647
1000.40 0.5644
1000.50 0.5642
1000.60 0.564
1000.70 0.5638
1000.80 0.5635
1000.90 0.5633
1001.00 0.5631
1001.10 0.5628
1001.20 0.5626
1001.30 0.5624
1001.40 0.5622
1001.50 0.5619
1001.60 0.5617
1001.70 0.5615
1001.80 0.5613
1001.90 0.561
1002.00 0.5608
1002.10 0.5606
1002.20 0.5604
1002.30 0.5602
1002.40 0.5599
1002.50 0.5597
1002.60 0.5595
1002.70 0.5593
1002.80 0.559
1002.90 0.5588
1003.00 0.5586
1003.10 0.5584
1003.20 0.5582
1003.30 0.5579
1003.40 0.5577
1003.50 0.5575
1003.60 0.5573
1003.70 0.5571
1003.80 0.5568
1003.90 0.5566
1004.00 0.5564
1004.10 0.5562
1004.20 0.5559
1004.30 0.5557
1004.40 0.5555
1004.50 0.5553
1004.60 0.5551
1004.70 0.5548
1004.80 0.5546
1004.90 0.5544
1005.00 0.5542
1005.10 0.554
1005.20 0.5538
1005.30 0.5536
1005.40 0.5533
1005.50 0.5531
1005.60 0.5529
1005.70 0.5527
1005.80 0.5525
1005.90 0.5522
1006.00 0.552
1006.10 0.5518
1006.20 0.5516
1006.30 0.5514
1006.40 0.5512
1006.50 0.5509
1006.60 0.5507
1006.70 0.5505
1006.80 0.5503
1006.90 0.5501
1007.00 0.5499
1007.10 0.5497
1007.20 0.5494
1007.30 0.5492
1007.40 0.549
1007.50 0.5488
1007.60 0.5486
1007.70 0.5484
1007.80 0.5482
1007.90 0.548
1008.00 0.5478
1008.10 0.5475
1008.20 0.5473
1008.30 0.5471
1008.40 0.5469
1008.50 0.5467
1008.60 0.5465
1008.70 0.5463
1008.80 0.5461
1008.90 0.5459
1009.00 0.5457
1009.10 0.5454
1009.20 0.5452
1009.30 0.545
1009.40 0.5448
1009.50 0.5446
1009.60 0.5444
1009.70 0.5442
1009.80 0.544
1009.90 0.5438
1010.00 0.5436
1010.10 0.5434
1010.20 0.5432
1010.30 0.543
1010.40 0.5427
1010.50 0.5425
1010.60 0.5423
1010.70 0.5421
1010.80 0.5419
1010.90 0.5417
1011.00 0.5415
1011.10 0.5413
1011.20 0.5411
1011.30 0.5409
1011.40 0.5407
1011.50 0.5405
1011.60 0.5403
1011.70 0.5401
1011.80 0.5399
1011.90 0.5397
1012.00 0.5394
1012.10 0.5392
1012.20 0.539
1012.30 0.5388
1012.40 0.5386
1012.50 0.5384
1012.60 0.5382
1012.70 0.538
1012.80 0.5378
1012.90 0.5376
1013.00 0.5374
1013.10 0.5372
1013.20 0.537
1013.30 0.5368
1013.40 0.5366
1013.50 0.5364
1013.60 0.5362
1013.70 0.536
1013.80 0.5358
1013.90 0.5356
1014.00 0.5354
1014.10 0.5352
1014.20 0.535
1014.30 0.5348
1014.40 0.5346
1014.50 0.5344
1014.60 0.5342
1014.70 0.534
1014.80 0.5339
1014.90 0.5337
1015.00 0.5335
1015.10 0.5333
1015.20 0.5331
1015.30 0.5329
1015.40 0.5327
1015.50 0.5325
1015.60 0.5323
1015.70 0.5321
1015.80 0.5319
1015.90 0.5317
1016.00 0.5315
1016.10 0.5313
1016.20 0.5312
1016.30 0.531
1016.40 0.5308
1016.50 0.5306
1016.60 0.5304
1016.70 0.5302
1016.80 0.53
1016.90 0.5298
1017.00 0.5296
1017.10 0.5294
1017.20 0.5292
1017.30 0.529
1017.40 0.5289
1017.50 0.5287
1017.60 0.5285
1017.70 0.5283
1017.80 0.5281
1017.90 0.5279
1018.00 0.5277
1018.10 0.5275
1018.20 0.5273
1018.30 0.5271
1018.40 0.5269
1018.50 0.5267
1018.60 0.5266
1018.70 0.5264
1018.80 0.5262
1018.90 0.526
1019.00 0.5258
1019.10 0.5256
1019.20 0.5254
1019.30 0.5252
1019.40 0.525
1019.50 0.5249
1019.60 0.5247
1019.70 0.5245
1019.80 0.5243
1019.90 0.5241
1020.00 0.5239
1020.10 0.5237
1020.20 0.5235
1020.30 0.5233
1020.40 0.5232
1020.50 0.523
1020.60 0.5228
1020.70 0.5226
1020.80 0.5224
1020.90 0.5222
1021.00 0.522
1021.10 0.5218
1021.20 0.5217
1021.30 0.5215
1021.40 0.5213
1021.50 0.5211
1021.60 0.5209
1021.70 0.5207
1021.80 0.5205
1021.90 0.5204
1022.00 0.5202
1022.10 0.52
1022.20 0.5198
1022.30 0.5196
1022.40 0.5194
1022.50 0.5193
1022.60 0.5191
1022.70 0.5189
1022.80 0.5187
1022.90 0.5185
1023.00 0.5183
1023.10 0.5182
1023.20 0.518
1023.30 0.5178
1023.40 0.5176
1023.50 0.5174
1023.60 0.5173
1023.70 0.5171
1023.80 0.5169
1023.90 0.5167
1024.00 0.5165
1024.10 0.5163
1024.20 0.5162
1024.30 0.516
1024.40 0.5158
1024.50 0.5156
1024.60 0.5154
1024.70 0.5153
1024.80 0.5151
1024.90 0.5149
1025.00 0.5147
1025.10 0.5145
1025.20 0.5144
1025.30 0.5142
1025.40 0.514
1025.50 0.5138
1025.60 0.5136
1025.70 0.5135
1025.80 0.5133
1025.90 0.5131
1026.00 0.5129
1026.10 0.5127
1026.20 0.5126
1026.30 0.5124
1026.40 0.5122
1026.50 0.512
1026.60 0.5118
1026.70 0.5117
1026.80 0.5115
1026.90 0.5113
1027.00 0.5111
1027.10 0.5109
1027.20 0.5108
1027.30 0.5106
1027.40 0.5104
1027.50 0.5103
1027.60 0.5101
1027.70 0.5099
1027.80 0.5097
1027.90 0.5096
1028.00 0.5094
1028.10 0.5092
1028.20 0.509
1028.30 0.5089
1028.40 0.5087
1028.50 0.5085
1028.60 0.5084
1028.70 0.5082
1028.80 0.508
1028.90 0.5078
1029.00 0.5077
1029.10 0.5075
1029.20 0.5073
1029.30 0.5072
1029.40 0.507
1029.50 0.5068
1029.60 0.5066
1029.70 0.5065
1029.80 0.5063
1029.90 0.5061
1030.00 0.506
1030.10 0.5058
1030.20 0.5056
1030.30 0.5054
1030.40 0.5053
1030.50 0.5051
1030.60 0.5049
1030.70 0.5048
1030.80 0.5046
1030.90 0.5044
1031.00 0.5042
1031.10 0.5041
1031.20 0.5039
1031.30 0.5037
1031.40 0.5036
1031.50 0.5034
1031.60 0.5032
1031.70 0.5031
1031.80 0.5029
1031.90 0.5027
1032.00 0.5025
1032.10 0.5024
1032.20 0.5022
1032.30 0.502
1032.40 0.5019
1032.50 0.5017
1032.60 0.5016
1032.70 0.5014
1032.80 0.5012
1032.90 0.5011
1033.00 0.5009
1033.10 0.5007
1033.20 0.5006
1033.30 0.5004
1033.40 0.5003
1033.50 0.5001
1033.60 0.4999
1033.70 0.4998
1033.80 0.4996
1033.90 0.4994
1034.00 0.4993
1034.10 0.4991
1034.20 0.4989
1034.30 0.4988
1034.40 0.4986
1034.50 0.4985
1034.60 0.4983
1034.70 0.4981
1034.80 0.498
1034.90 0.4978
1035.00 0.4977
1035.10 0.4975
1035.20 0.4973
1035.30 0.4972
1035.40 0.497
1035.50 0.4968
1035.60 0.4967
1035.70 0.4965
1035.80 0.4964
1035.90 0.4962
1036.00 0.496
1036.10 0.4959
1036.20 0.4957
1036.30 0.4955
1036.40 0.4954
1036.50 0.4952
1036.60 0.4951
1036.70 0.4949
1036.80 0.4947
1036.90 0.4946
1037.00 0.4944
1037.10 0.4943
1037.20 0.4941
1037.30 0.494
1037.40 0.4938
1037.50 0.4936
1037.60 0.4935
1037.70 0.4933
1037.80 0.4932
1037.90 0.493
1038.00 0.4929
1038.10 0.4927
1038.20 0.4926
1038.30 0.4924
1038.40 0.4923
1038.50 0.4921
1038.60 0.492
1038.70 0.4918
1038.80 0.4917
1038.90 0.4915
1039.00 0.4913
1039.10 0.4912
1039.20 0.491
1039.30 0.4909
1039.40 0.4907
1039.50 0.4906
1039.60 0.4904
1039.70 0.4903
1039.80 0.4901
1039.90 0.49
1040.00 0.4898
1040.10 0.4897
1040.20 0.4895
1040.30 0.4894
1040.40 0.4892
1040.50 0.4891
1040.60 0.4889
1040.70 0.4888
1040.80 0.4886
1040.90 0.4884
1041.00 0.4883
1041.10 0.4881
1041.20 0.488
1041.30 0.4878
1041.40 0.4877
1041.50 0.4875
1041.60 0.4874
1041.70 0.4872
1041.80 0.4871
1041.90 0.4869
1042.00 0.4868
1042.10 0.4866
1042.20 0.4865
1042.30 0.4863
1042.40 0.4862
1042.50 0.4861
1042.60 0.4859
1042.70 0.4858
1042.80 0.4856
1042.90 0.4855
1043.00 0.4853
1043.10 0.4852
1043.20 0.485
1043.30 0.4849
1043.40 0.4848
1043.50 0.4846
1043.60 0.4845
1043.70 0.4843
1043.80 0.4842
1043.90 0.484
1044.00 0.4839
1044.10 0.4837
1044.20 0.4836
1044.30 0.4835
1044.40 0.4833
1044.50 0.4832
1044.60 0.483
1044.70 0.4829
1044.80 0.4827
1044.90 0.4826
1045.00 0.4824
1045.10 0.4823
1045.20 0.4822
1045.30 0.482
1045.40 0.4819
1045.50 0.4817
1045.60 0.4816
1045.70 0.4814
1045.80 0.4813
1045.90 0.4812
1046.00 0.481
1046.10 0.4809
1046.20 0.4807
1046.30 0.4806
1046.40 0.4804
1046.50 0.4803
1046.60 0.4801
1046.70 0.48
1046.80 0.4799
1046.90 0.4797
1047.00 0.4796
1047.10 0.4794
1047.20 0.4793
1047.30 0.4792
1047.40 0.479
1047.50 0.4789
1047.60 0.4788
1047.70 0.4786
1047.80 0.4785
1047.90 0.4783
1048.00 0.4782
1048.10 0.4781
1048.20 0.4779
1048.30 0.4778
1048.40 0.4777
1048.50 0.4775
1048.60 0.4774
1048.70 0.4773
1048.80 0.4771
1048.90 0.477
1049.00 0.4769
1049.10 0.4767
1049.20 0.4766
1049.30 0.4764
1049.40 0.4763
1049.50 0.4762
1049.60 0.476
1049.70 0.4759
1049.80 0.4758
1049.90 0.4756
1050.00 0.4755
1050.10 0.4754
1050.20 0.4752
1050.30 0.4751
1050.40 0.475
1050.50 0.4748
1050.60 0.4747
1050.70 0.4745
1050.80 0.4744
1050.90 0.4743
1051.00 0.4741
1051.10 0.474
1051.20 0.4739
1051.30 0.4737
1051.40 0.4736
1051.50 0.4735
1051.60 0.4733
1051.70 0.4732
1051.80 0.4731
1051.90 0.4729
1052.00 0.4728
1052.10 0.4727
1052.20 0.4725
1052.30 0.4724
1052.40 0.4723
1052.50 0.4722
1052.60 0.472
1052.70 0.4719
1052.80 0.4718
1052.90 0.4716
1053.00 0.4715
1053.10 0.4714
1053.20 0.4713
1053.30 0.4711
1053.40 0.471
1053.50 0.4709
1053.60 0.4708
1053.70 0.4706
1053.80 0.4705
1053.90 0.4704
1054.00 0.4703
1054.10 0.4701
1054.20 0.47
1054.30 0.4699
1054.40 0.4697
1054.50 0.4696
1054.60 0.4695
1054.70 0.4694
1054.80 0.4692
1054.90 0.4691
1055.00 0.469
1055.10 0.4689
1055.20 0.4687
1055.30 0.4686
1055.40 0.4685
1055.50 0.4684
1055.60 0.4682
1055.70 0.4681
1055.80 0.468
1055.90 0.4678
1056.00 0.4677
1056.10 0.4676
1056.20 0.4675
1056.30 0.4673
1056.40 0.4672
1056.50 0.4671
1056.60 0.467
1056.70 0.4668
1056.80 0.4667
1056.90 0.4666
1057.00 0.4665
1057.10 0.4663
1057.20 0.4662
1057.30 0.4661
1057.40 0.466
1057.50 0.4659
1057.60 0.4657
1057.70 0.4656
1057.80 0.4655
1057.90 0.4654
1058.00 0.4653
1058.10 0.4652
1058.20 0.465
1058.30 0.4649
1058.40 0.4648
1058.50 0.4647
1058.60 0.4646
1058.70 0.4644
1058.80 0.4643
1058.90 0.4642
1059.00 0.4641
1059.10 0.464
1059.20 0.4638
1059.30 0.4637
1059.40 0.4636
1059.50 0.4635
1059.60 0.4634
1059.70 0.4633
1059.80 0.4631
1059.90 0.463
1060.00 0.4629
1060.10 0.4628
1060.20 0.4627
1060.30 0.4625
1060.40 0.4624
1060.50 0.4623
1060.60 0.4622
1060.70 0.4621
1060.80 0.462
1060.90 0.4618
1061.00 0.4617
1061.10 0.4616
1061.20 0.4615
1061.30 0.4614
1061.40 0.4612
1061.50 0.4611
1061.60 0.461
1061.70 0.4609
1061.80 0.4608
1061.90 0.4607
1062.00 0.4605
1062.10 0.4604
1062.20 0.4603
1062.30 0.4602
1062.40 0.4601
1062.50 0.46
1062.60 0.4599
1062.70 0.4598
1062.80 0.4596
1062.90 0.4595
1063.00 0.4594
1063.10 0.4593
1063.20 0.4592
1063.30 0.4591
1063.40 0.459
1063.50 0.4589
1063.60 0.4587
1063.70 0.4586
1063.80 0.4585
1063.90 0.4584
1064.00 0.4583
1064.10 0.4582
1064.20 0.4581
1064.30 0.458
1064.40 0.4579
1064.50 0.4577
1064.60 0.4576
1064.70 0.4575
1064.80 0.4574
1064.90 0.4573
1065.00 0.4572
1065.10 0.4571
1065.20 0.457
1065.30 0.4569
1065.40 0.4567
1065.50 0.4566
1065.60 0.4565
1065.70 0.4564
1065.80 0.4563
1065.90 0.4562
1066.00 0.4561
1066.10 0.456
1066.20 0.4559
1066.30 0.4557
1066.40 0.4556
1066.50 0.4555
1066.60 0.4554
1066.70 0.4553
1066.80 0.4552
1066.90 0.4551
1067.00 0.455
1067.10 0.4549
1067.20 0.4548
1067.30 0.4547
1067.40 0.4546
1067.50 0.4545
1067.60 0.4544
1067.70 0.4543
1067.80 0.4542
1067.90 0.454
1068.00 0.4539
1068.10 0.4538
1068.20 0.4537
1068.30 0.4536
1068.40 0.4535
1068.50 0.4534
1068.60 0.4533
1068.70 0.4532
1068.80 0.4531
1068.90 0.453
1069.00 0.4529
1069.10 0.4528
1069.20 0.4527
1069.30 0.4526
1069.40 0.4525
1069.50 0.4524
1069.60 0.4523
1069.70 0.4522
1069.80 0.4521
1069.90 0.452
1070.00 0.4519
1070.10 0.4518
1070.20 0.4517
1070.30 0.4516
1070.40 0.4515
1070.50 0.4514
1070.60 0.4513
1070.70 0.4512
1070.80 0.4511
1070.90 0.451
1071.00 0.4509
1071.10 0.4508
1071.20 0.4507
1071.30 0.4506
1071.40 0.4505
1071.50 0.4504
1071.60 0.4503
1071.70 0.4502
1071.80 0.4501
1071.90 0.45
1072.00 0.4499
1072.10 0.4498
1072.20 0.4496
1072.30 0.4495
1072.40 0.4494
1072.50 0.4493
1072.60 0.4492
1072.70 0.4491
1072.80 0.449
1072.90 0.4489
1073.00 0.4488
1073.10 0.4487
1073.20 0.4486
1073.30 0.4485
1073.40 0.4484
1073.50 0.4483
1073.60 0.4482
1073.70 0.4481
1073.80 0.448
1073.90 0.4479
1074.00 0.4478
1074.10 0.4477
1074.20 0.4477
1074.30 0.4476
1074.40 0.4475
1074.50 0.4474
1074.60 0.4473
1074.70 0.4472
1074.80 0.4471
1074.90 0.447
1075.00 0.4469
1075.10 0.4468
1075.20 0.4467
1075.30 0.4466
1075.40 0.4465
1075.50 0.4464
1075.60 0.4463
1075.70 0.4462
1075.80 0.4461
1075.90 0.446
1076.00 0.4459
1076.10 0.4458
1076.20 0.4457
1076.30 0.4456
1076.40 0.4455
1076.50 0.4454
1076.60 0.4453
1076.70 0.4452
1076.80 0.4451
1076.90 0.445
1077.00 0.4449
1077.10 0.4448
1077.20 0.4447
1077.30 0.4446
1077.40 0.4445
1077.50 0.4444
1077.60 0.4444
1077.70 0.4443
1077.80 0.4442
1077.90 0.4441
1078.00 0.444
1078.10 0.4439
1078.20 0.4438
1078.30 0.4437
1078.40 0.4436
1078.50 0.4435
1078.60 0.4434
1078.70 0.4433
1078.80 0.4432
1078.90 0.4431
1079.00 0.443
1079.10 0.4429
1079.20 0.4429
1079.30 0.4428
1079.40 0.4427
1079.50 0.4426
1079.60 0.4425
1079.70 0.4424
1079.80 0.4423
1079.90 0.4422
1080.00 0.4421
1080.10 0.442
1080.20 0.4419
1080.30 0.4418
1080.40 0.4417
1080.50 0.4417
1080.60 0.4416
1080.70 0.4415
1080.80 0.4414
1080.90 0.4413
1081.00 0.4412
1081.10 0.4411
1081.20 0.441
1081.30 0.4409
1081.40 0.4408
1081.50 0.4407
1081.60 0.4406
1081.70 0.4406
1081.80 0.4405
1081.90 0.4404
1082.00 0.4403
1082.10 0.4402
1082.20 0.4401
1082.30 0.44
1082.40 0.4399
1082.50 0.4398
1082.60 0.4397
1082.70 0.4396
1082.80 0.4396
1082.90 0.4395
1083.00 0.4394
1083.10 0.4393
1083.20 0.4392
1083.30 0.4391
1083.40 0.439
1083.50 0.4389
1083.60 0.4388
1083.70 0.4387
1083.80 0.4387
1083.90 0.4386
1084.00 0.4385
1084.10 0.4384
1084.20 0.4383
1084.30 0.4382
1084.40 0.4381
1084.50 0.438
1084.60 0.4379
1084.70 0.4379
1084.80 0.4378
1084.90 0.4377
1085.00 0.4376
1085.10 0.4375
1085.20 0.4374
1085.30 0.4373
1085.40 0.4372
1085.50 0.4372
1085.60 0.4371
1085.70 0.437
1085.80 0.4369
1085.90 0.4368
1086.00 0.4367
1086.10 0.4366
1086.20 0.4365
1086.30 0.4364
1086.40 0.4364
1086.50 0.4363
1086.60 0.4362
1086.70 0.4361
1086.80 0.436
1086.90 0.4359
1087.00 0.4358
1087.10 0.4357
1087.20 0.4357
1087.30 0.4356
1087.40 0.4355
1087.50 0.4354
1087.60 0.4353
1087.70 0.4352
1087.80 0.4351
1087.90 0.4351
1088.00 0.435
1088.10 0.4349
1088.20 0.4348
1088.30 0.4347
1088.40 0.4346
1088.50 0.4345
1088.60 0.4345
1088.70 0.4344
1088.80 0.4343
1088.90 0.4342
1089.00 0.4341
1089.10 0.434
1089.20 0.4339
1089.30 0.4339
1089.40 0.4338
1089.50 0.4337
1089.60 0.4336
1089.70 0.4335
1089.80 0.4334
1089.90 0.4334
1090.00 0.4333
1090.10 0.4332
1090.20 0.4331
1090.30 0.433
1090.40 0.4329
1090.50 0.4328
1090.60 0.4328
1090.70 0.4327
1090.80 0.4326
1090.90 0.4325
1091.00 0.4324
1091.10 0.4323
1091.20 0.4323
1091.30 0.4322
1091.40 0.4321
1091.50 0.432
1091.60 0.4319
1091.70 0.4318
1091.80 0.4318
1091.90 0.4317
1092.00 0.4316
1092.10 0.4315
1092.20 0.4314
1092.30 0.4313
1092.40 0.4313
1092.50 0.4312
1092.60 0.4311
1092.70 0.431
1092.80 0.4309
1092.90 0.4309
1093.00 0.4308
1093.10 0.4307
1093.20 0.4306
1093.30 0.4306
1093.40 0.4305
1093.50 0.4304
1093.60 0.4303
1093.70 0.4302
1093.80 0.4302
1093.90 0.4301
1094.00 0.43
1094.10 0.4299
1094.20 0.4298
1094.30 0.4297
1094.40 0.4297
1094.50 0.4296
1094.60 0.4295
1094.70 0.4294
1094.80 0.4293
1094.90 0.4292
1095.00 0.4292
1095.10 0.4291
1095.20 0.429
1095.30 0.4289
1095.40 0.4288
1095.50 0.4288
1095.60 0.4287
1095.70 0.4286
1095.80 0.4285
1095.90 0.4284
1096.00 0.4284
1096.10 0.4283
1096.20 0.4282
1096.30 0.4281
1096.40 0.428
1096.50 0.428
1096.60 0.4279
1096.70 0.4278
1096.80 0.4277
1096.90 0.4276
1097.00 0.4275
1097.10 0.4275
1097.20 0.4274
1097.30 0.4273
1097.40 0.4272
1097.50 0.4271
1097.60 0.4271
1097.70 0.427
1097.80 0.4269
1097.90 0.4268
1098.00 0.4267
1098.10 0.4267
1098.20 0.4266
1098.30 0.4265
1098.40 0.4264
1098.50 0.4263
1098.60 0.4263
1098.70 0.4262
1098.80 0.4261
1098.90 0.426
1099.00 0.4259
1099.10 0.4259
1099.20 0.4258
1099.30 0.4257
1099.40 0.4256
1099.50 0.4255
1099.60 0.4255
1099.70 0.4254
1099.80 0.4253
1099.90 0.4252
1100.00 0.4252
1100.10 0.4251
1100.20 0.425
1100.30 0.4249
1100.40 0.4248
1100.50 0.4248
1100.60 0.4247
1100.70 0.4246
1100.80 0.4245
1100.90 0.4244
1101.00 0.4244
1101.10 0.4243
1101.20 0.4242
1101.30 0.4241
1101.40 0.424
1101.50 0.424
1101.60 0.4239
1101.70 0.4238
1101.80 0.4237
1101.90 0.4236
1102.00 0.4236
1102.10 0.4235
1102.20 0.4234
1102.30 0.4233
1102.40 0.4233
1102.50 0.4232
1102.60 0.4231
1102.70 0.423
1102.80 0.4229
1102.90 0.4229
1103.00 0.4228
1103.10 0.4227
1103.20 0.4226
1103.30 0.4226
1103.40 0.4225
1103.50 0.4224
1103.60 0.4223
1103.70 0.4222
1103.80 0.4222
1103.90 0.4221
1104.00 0.422
1104.10 0.4219
1104.20 0.4219
1104.30 0.4218
1104.40 0.4217
1104.50 0.4216
1104.60 0.4215
1104.70 0.4215
1104.80 0.4214
1104.90 0.4213
1105.00 0.4212
1105.10 0.4212
1105.20 0.4211
1105.30 0.421
1105.40 0.4209
1105.50 0.4208
1105.60 0.4208
1105.70 0.4207
1105.80 0.4206
1105.90 0.4205
1106.00 0.4205
1106.10 0.4204
1106.20 0.4203
1106.30 0.4202
1106.40 0.4202
1106.50 0.4201
1106.60 0.42
1106.70 0.4199
1106.80 0.4198
1106.90 0.4198
1107.00 0.4197
1107.10 0.4196
1107.20 0.4195
1107.30 0.4195
1107.40 0.4194
1107.50 0.4193
1107.60 0.4192
1107.70 0.4192
1107.80 0.4191
1107.90 0.419
1108.00 0.4189
1108.10 0.4189
1108.20 0.4188
1108.30 0.4187
1108.40 0.4186
1108.50 0.4185
1108.60 0.4185
1108.70 0.4184
1108.80 0.4183
1108.90 0.4182
1109.00 0.4182
1109.10 0.4181
1109.20 0.418
1109.30 0.4179
1109.40 0.4179
1109.50 0.4178
1109.60 0.4177
1109.70 0.4176
1109.80 0.4176
1109.90 0.4175
1110.00 0.4174
1110.10 0.4173
1110.20 0.4173
1110.30 0.4172
1110.40 0.4171
1110.50 0.417
1110.60 0.4169
1110.70 0.4169
1110.80 0.4168
1110.90 0.4167
1111.00 0.4166
1111.10 0.4166
1111.20 0.4165
1111.30 0.4164
1111.40 0.4163
1111.50 0.4163
1111.60 0.4162
1111.70 0.4161
1111.80 0.416
1111.90 0.416
1112.00 0.4159
1112.10 0.4158
1112.20 0.4157
1112.30 0.4157
1112.40 0.4156
1112.50 0.4155
1112.60 0.4154
1112.70 0.4154
1112.80 0.4153
1112.90 0.4152
1113.00 0.4151
1113.10 0.4151
1113.20 0.415
1113.30 0.4149
1113.40 0.4148
1113.50 0.4148
1113.60 0.4147
1113.70 0.4146
1113.80 0.4145
1113.90 0.4145
1114.00 0.4144
1114.10 0.4143
1114.20 0.4142
1114.30 0.4142
1114.40 0.4141
1114.50 0.414
1114.60 0.414
1114.70 0.4139
1114.80 0.4138
1114.90 0.4137
1115.00 0.4137
1115.10 0.4136
1115.20 0.4135
1115.30 0.4134
1115.40 0.4134
1115.50 0.4133
1115.60 0.4132
1115.70 0.4131
1115.80 0.4131
1115.90 0.413
1116.00 0.4129
1116.10 0.4128
1116.20 0.4128
1116.30 0.4127
1116.40 0.4126
1116.50 0.4125
1116.60 0.4125
1116.70 0.4124
1116.80 0.4123
1116.90 0.4122
1117.00 0.4122
1117.10 0.4121
1117.20 0.412
1117.30 0.412
1117.40 0.4119
1117.50 0.4118
1117.60 0.4117
1117.70 0.4117
1117.80 0.4116
1117.90 0.4115
1118.00 0.4114
1118.10 0.4114
1118.20 0.4113
1118.30 0.4112
1118.40 0.4112
1118.50 0.4111
1118.60 0.411
1118.70 0.4109
1118.80 0.4109
1118.90 0.4108
1119.00 0.4107
1119.10 0.4107
1119.20 0.4106
1119.30 0.4105
1119.40 0.4104
1119.50 0.4104
1119.60 0.4103
1119.70 0.4102
1119.80 0.4101
1119.90 0.4101
1120.00 0.41
1120.10 0.4099
1120.20 0.4099
1120.30 0.4098
1120.40 0.4097
1120.50 0.4096
1120.60 0.4096
1120.70 0.4095
1120.80 0.4094
1120.90 0.4094
1121.00 0.4093
1121.10 0.4092
1121.20 0.4091
1121.30 0.4091
1121.40 0.409
1121.50 0.4089
1121.60 0.4088
1121.70 0.4088
1121.80 0.4087
1121.90 0.4086
1122.00 0.4086
1122.10 0.4085
1122.20 0.4084
1122.30 0.4083
1122.40 0.4083
1122.50 0.4082
1122.60 0.4081
1122.70 0.4081
1122.80 0.408
1122.90 0.4079
1123.00 0.4078
1123.10 0.4078
1123.20 0.4077
1123.30 0.4076
1123.40 0.4075
1123.50 0.4075
1123.60 0.4074
1123.70 0.4073
1123.80 0.4073
1123.90 0.4072
1124.00 0.4071
1124.10 0.407
1124.20 0.407
1124.30 0.4069
1124.40 0.4068
1124.50 0.4067
1124.60 0.4067
1124.70 0.4066
1124.80 0.4065
1124.90 0.4065
1125.00 0.4064
1125.10 0.4063
1125.20 0.4062
1125.30 0.4062
1125.40 0.4061
1125.50 0.406
1125.60 0.406
1125.70 0.4059
1125.80 0.4058
1125.90 0.4057
1126.00 0.4057
1126.10 0.4056
1126.20 0.4055
1126.30 0.4054
1126.40 0.4054
1126.50 0.4053
1126.60 0.4052
1126.70 0.4052
1126.80 0.4051
1126.90 0.405
1127.00 0.4049
1127.10 0.4049
1127.20 0.4048
1127.30 0.4047
1127.40 0.4047
1127.50 0.4046
1127.60 0.4045
1127.70 0.4044
1127.80 0.4044
1127.90 0.4043
1128.00 0.4042
1128.10 0.4042
1128.20 0.4041
1128.30 0.404
1128.40 0.404
1128.50 0.4039
1128.60 0.4038
1128.70 0.4037
1128.80 0.4037
1128.90 0.4036
1129.00 0.4035
1129.10 0.4035
1129.20 0.4034
1129.30 0.4033
1129.40 0.4032
1129.50 0.4032
1129.60 0.4031
1129.70 0.403
1129.80 0.403
1129.90 0.4029
1130.00 0.4028
1130.10 0.4027
1130.20 0.4027
1130.30 0.4026
1130.40 0.4025
1130.50 0.4025
1130.60 0.4024
1130.70 0.4023
1130.80 0.4023
1130.90 0.4022
1131.00 0.4021
1131.10 0.402
1131.20 0.402
1131.30 0.4019
1131.40 0.4018
1131.50 0.4018
1131.60 0.4017
1131.70 0.4016
1131.80 0.4016
1131.90 0.4015
1132.00 0.4014
1132.10 0.4013
1132.20 0.4013
1132.30 0.4012
1132.40 0.4011
1132.50 0.401
1132.60 0.401
1132.70 0.4009
1132.80 0.4008
1132.90 0.4008
1133.00 0.4007
1133.10 0.4006
1133.20 0.4005
1133.30 0.4005
1133.40 0.4004
1133.50 0.4003
1133.60 0.4002
1133.70 0.4002
1133.80 0.4001
1133.90 0.4
1134.00 0.4
1134.10 0.3999
1134.20 0.3998
1134.30 0.3997
1134.40 0.3997
1134.50 0.3996
1134.60 0.3995
1134.70 0.3994
1134.80 0.3994
1134.90 0.3993
1135.00 0.3992
1135.10 0.3992
1135.20 0.3991
1135.30 0.399
1135.40 0.3989
1135.50 0.3989
1135.60 0.3988
1135.70 0.3987
1135.80 0.3986
1135.90 0.3986
1136.00 0.3985
1136.10 0.3984
1136.20 0.3984
1136.30 0.3983
1136.40 0.3982
1136.50 0.3981
1136.60 0.3981
1136.70 0.398
1136.80 0.3979
1136.90 0.3979
1137.00 0.3978
1137.10 0.3977
1137.20 0.3976
1137.30 0.3976
1137.40 0.3975
1137.50 0.3974
1137.60 0.3973
1137.70 0.3973
1137.80 0.3972
1137.90 0.3971
1138.00 0.397
1138.10 0.397
1138.20 0.3969
1138.30 0.3968
1138.40 0.3968
1138.50 0.3967
1138.60 0.3966
1138.70 0.3965
1138.80 0.3965
1138.90 0.3964
1139.00 0.3963
1139.10 0.3962
1139.20 0.3962
1139.30 0.3961
1139.40 0.396
1139.50 0.396
1139.60 0.3959
1139.70 0.3958
1139.80 0.3957
1139.90 0.3957
1140.00 0.3956
1140.10 0.3955
1140.20 0.3954
1140.30 0.3954
1140.40 0.3953
1140.50 0.3952
1140.60 0.3952
1140.70 0.3951
1140.80 0.395
1140.90 0.3949
1141.00 0.3949
1141.10 0.3948
1141.20 0.3947
1141.30 0.3946
1141.40 0.3946
1141.50 0.3945
1141.60 0.3944
1141.70 0.3944
1141.80 0.3943
1141.90 0.3942
1142.00 0.3941
1142.10 0.3941
1142.20 0.394
1142.30 0.3939
1142.40 0.3938
1142.50 0.3938
1142.60 0.3937
1142.70 0.3936
1142.80 0.3935
1142.90 0.3935
1143.00 0.3934
1143.10 0.3933
1143.20 0.3933
1143.30 0.3932
1143.40 0.3931
1143.50 0.393
1143.60 0.393
1143.70 0.3929
1143.80 0.3928
1143.90 0.3927
1144.00 0.3927
1144.10 0.3926
1144.20 0.3925
1144.30 0.3924
1144.40 0.3924
1144.50 0.3923
1144.60 0.3922
1144.70 0.3922
1144.80 0.3921
1144.90 0.392
1145.00 0.3919
1145.10 0.3919
1145.20 0.3918
1145.30 0.3917
1145.40 0.3916
1145.50 0.3916
1145.60 0.3915
1145.70 0.3914
1145.80 0.3914
1145.90 0.3913
1146.00 0.3912
1146.10 0.3911
1146.20 0.3911
1146.30 0.391
1146.40 0.3909
1146.50 0.3908
1146.60 0.3908
1146.70 0.3907
1146.80 0.3906
1146.90 0.3906
1147.00 0.3905
1147.10 0.3904
1147.20 0.3903
1147.30 0.3903
1147.40 0.3902
1147.50 0.3901
1147.60 0.39
1147.70 0.39
1147.80 0.3899
1147.90 0.3898
1148.00 0.3897
1148.10 0.3897
1148.20 0.3896
1148.30 0.3895
1148.40 0.3894
1148.50 0.3894
1148.60 0.3893
1148.70 0.3892
1148.80 0.3891
1148.90 0.3891
1149.00 0.389
1149.10 0.3889
1149.20 0.3888
1149.30 0.3888
1149.40 0.3887
1149.50 0.3886
1149.60 0.3885
1149.70 0.3885
1149.80 0.3884
1149.90 0.3883
1150.00 0.3882
1150.10 0.3882
1150.20 0.3881
1150.30 0.388
1150.40 0.3879
1150.50 0.3879
1150.60 0.3878
1150.70 0.3877
1150.80 0.3876
1150.90 0.3876
1151.00 0.3875
1151.10 0.3874
1151.20 0.3873
1151.30 0.3873
1151.40 0.3872
1151.50 0.3871
1151.60 0.387
1151.70 0.387
1151.80 0.3869
1151.90 0.3868
1152.00 0.3867
1152.10 0.3867
1152.20 0.3866
1152.30 0.3865
1152.40 0.3864
1152.50 0.3864
1152.60 0.3863
1152.70 0.3862
1152.80 0.3861
1152.90 0.3861
1153.00 0.386
1153.10 0.3859
1153.20 0.3858
1153.30 0.3858
1153.40 0.3857
1153.50 0.3856
1153.60 0.3855
1153.70 0.3855
1153.80 0.3854
1153.90 0.3853
1154.00 0.3852
1154.10 0.3852
1154.20 0.3851
1154.30 0.385
1154.40 0.3849
1154.50 0.3849
1154.60 0.3848
1154.70 0.3847
1154.80 0.3846
1154.90 0.3846
1155.00 0.3845
1155.10 0.3844
1155.20 0.3843
1155.30 0.3843
1155.40 0.3842
1155.50 0.3841
1155.60 0.384
1155.70 0.384
1155.80 0.3839
1155.90 0.3838
1156.00 0.3837
1156.10 0.3837
1156.20 0.3836
1156.30 0.3835
1156.40 0.3834
1156.50 0.3834
1156.60 0.3833
1156.70 0.3832
1156.80 0.3831
1156.90 0.3831
1157.00 0.383
1157.10 0.3829
1157.20 0.3828
1157.30 0.3827
1157.40 0.3827
1157.50 0.3826
1157.60 0.3825
1157.70 0.3824
1157.80 0.3824
1157.90 0.3823
1158.00 0.3822
1158.10 0.3821
1158.20 0.382
1158.30 0.382
1158.40 0.3819
1158.50 0.3818
1158.60 0.3817
1158.70 0.3817
1158.80 0.3816
1158.90 0.3815
1159.00 0.3814
1159.10 0.3813
1159.20 0.3813
1159.30 0.3812
1159.40 0.3811
1159.50 0.381
1159.60 0.381
1159.70 0.3809
1159.80 0.3808
1159.90 0.3807
1160.00 0.3806
1160.10 0.3806
1160.20 0.3805
1160.30 0.3804
1160.40 0.3803
1160.50 0.3803
1160.60 0.3802
1160.70 0.3801
1160.80 0.38
1160.90 0.38
1161.00 0.3799
1161.10 0.3798
1161.20 0.3797
1161.30 0.3796
1161.40 0.3796
1161.50 0.3795
1161.60 0.3794
1161.70 0.3793
1161.80 0.3793
1161.90 0.3792
1162.00 0.3791
1162.10 0.379
1162.20 0.3789
1162.30 0.3789
1162.40 0.3788
1162.50 0.3787
1162.60 0.3786
1162.70 0.3785
1162.80 0.3785
1162.90 0.3784
1163.00 0.3783
1163.10 0.3782
1163.20 0.3782
1163.30 0.3781
1163.40 0.378
1163.50 0.3779
1163.60 0.3778
1163.70 0.3778
1163.80 0.3777
1163.90 0.3776
1164.00 0.3775
1164.10 0.3774
1164.20 0.3774
1164.30 0.3773
1164.40 0.3772
1164.50 0.3771
1164.60 0.377
1164.70 0.377
1164.80 0.3769
1164.90 0.3768
1165.00 0.3767
1165.10 0.3767
1165.20 0.3766
1165.30 0.3765
1165.40 0.3764
1165.50 0.3763
1165.60 0.3763
1165.70 0.3762
1165.80 0.3761
1165.90 0.376
1166.00 0.3759
1166.10 0.3759
1166.20 0.3758
1166.30 0.3757
1166.40 0.3756
1166.50 0.3756
1166.60 0.3755
1166.70 0.3754
1166.80 0.3753
1166.90 0.3752
1167.00 0.3752
1167.10 0.3751
1167.20 0.375
1167.30 0.3749
1167.40 0.3748
1167.50 0.3748
1167.60 0.3747
1167.70 0.3746
1167.80 0.3745
1167.90 0.3744
1168.00 0.3744
1168.10 0.3743
1168.20 0.3742
1168.30 0.3741
1168.40 0.374
1168.50 0.374
1168.60 0.3739
1168.70 0.3738
1168.80 0.3737
1168.90 0.3736
1169.00 0.3736
1169.10 0.3735
1169.20 0.3734
1169.30 0.3733
1169.40 0.3732
1169.50 0.3732
1169.60 0.3731
1169.70 0.373
1169.80 0.3729
1169.90 0.3728
1170.00 0.3728
1170.10 0.3727
1170.20 0.3726
1170.30 0.3725
1170.40 0.3724
1170.50 0.3724
1170.60 0.3723
1170.70 0.3722
1170.80 0.3721
1170.90 0.372
1171.00 0.372
1171.10 0.3719
1171.20 0.3718
1171.30 0.3717
1171.40 0.3716
1171.50 0.3716
1171.60 0.3715
1171.70 0.3714
1171.80 0.3713
1171.90 0.3712
1172.00 0.3712
1172.10 0.3711
1172.20 0.371
1172.30 0.3709
1172.40 0.3708
1172.50 0.3708
1172.60 0.3707
1172.70 0.3706
1172.80 0.3705
1172.90 0.3704
1173.00 0.3703
1173.10 0.3703
1173.20 0.3702
1173.30 0.3701
1173.40 0.37
1173.50 0.3699
1173.60 0.3698
1173.70 0.3698
1173.80 0.3697
1173.90 0.3696
1174.00 0.3695
1174.10 0.3694
1174.20 0.3694
1174.30 0.3693
1174.40 0.3692
1174.50 0.3691
1174.60 0.369
1174.70 0.369
1174.80 0.3689
1174.90 0.3688
1175.00 0.3687
1175.10 0.3686
1175.20 0.3685
1175.30 0.3685
1175.40 0.3684
1175.50 0.3683
1175.60 0.3682
1175.70 0.3681
1175.80 0.3681
1175.90 0.368
1176.00 0.3679
1176.10 0.3678
1176.20 0.3677
1176.30 0.3676
1176.40 0.3676
1176.50 0.3675
1176.60 0.3674
1176.70 0.3673
1176.80 0.3672
1176.90 0.3672
1177.00 0.3671
1177.10 0.367
1177.20 0.3669
1177.30 0.3668
1177.40 0.3667
1177.50 0.3667
1177.60 0.3666
1177.70 0.3665
1177.80 0.3664
1177.90 0.3663
1178.00 0.3662
1178.10 0.3662
1178.20 0.3661
1178.30 0.366
1178.40 0.3659
1178.50 0.3658
1178.60 0.3658
1178.70 0.3657
1178.80 0.3656
1178.90 0.3655
1179.00 0.3654
1179.10 0.3653
1179.20 0.3653
1179.30 0.3652
1179.40 0.3651
1179.50 0.365
1179.60 0.3649
1179.70 0.3648
1179.80 0.3648
1179.90 0.3647
1180.00 0.3646
1180.10 0.3645
1180.20 0.3644
1180.30 0.3643
1180.40 0.3643
1180.50 0.3642
1180.60 0.3641
1180.70 0.364
1180.80 0.3639
1180.90 0.3638
1181.00 0.3638
1181.10 0.3637
1181.20 0.3636
1181.30 0.3635
1181.40 0.3634
1181.50 0.3634
1181.60 0.3633
1181.70 0.3632
1181.80 0.3631
1181.90 0.363
1182.00 0.3629
1182.10 0.3629
1182.20 0.3628
1182.30 0.3627
1182.40 0.3626
1182.50 0.3625
1182.60 0.3624
1182.70 0.3624
1182.80 0.3623
1182.90 0.3622
1183.00 0.3621
1183.10 0.362
1183.20 0.3619
1183.30 0.3618
1183.40 0.3618
1183.50 0.3617
1183.60 0.3616
1183.70 0.3615
1183.80 0.3614
1183.90 0.3613
1184.00 0.3613
1184.10 0.3612
1184.20 0.3611
1184.30 0.361
1184.40 0.3609
1184.50 0.3608
1184.60 0.3608
1184.70 0.3607
1184.80 0.3606
1184.90 0.3605
1185.00 0.3604
1185.10 0.3603
1185.20 0.3603
1185.30 0.3602
1185.40 0.3601
1185.50 0.36
1185.60 0.3599
1185.70 0.3598
1185.80 0.3598
1185.90 0.3597
1186.00 0.3596
1186.10 0.3595
1186.20 0.3594
1186.30 0.3593
1186.40 0.3592
1186.50 0.3592
1186.60 0.3591
1186.70 0.359
1186.80 0.3589
1186.90 0.3588
1187.00 0.3587
1187.10 0.3587
1187.20 0.3586
1187.30 0.3585
1187.40 0.3584
1187.50 0.3583
1187.60 0.3582
1187.70 0.3582
1187.80 0.3581
1187.90 0.358
1188.00 0.3579
1188.10 0.3578
1188.20 0.3577
1188.30 0.3577
1188.40 0.3576
1188.50 0.3575
1188.60 0.3574
1188.70 0.3573
1188.80 0.3572
1188.90 0.3571
1189.00 0.3571
1189.10 0.357
1189.20 0.3569
1189.30 0.3568
1189.40 0.3567
1189.50 0.3566
1189.60 0.3566
1189.70 0.3565
1189.80 0.3564
1189.90 0.3563
1190.00 0.3562
1190.10 0.3561
1190.20 0.3561
1190.30 0.356
1190.40 0.3559
1190.50 0.3558
1190.60 0.3557
1190.70 0.3556
1190.80 0.3556
1190.90 0.3555
1191.00 0.3554
1191.10 0.3553
1191.20 0.3552
1191.30 0.3551
1191.40 0.3551
1191.50 0.355
1191.60 0.3549
1191.70 0.3548
1191.80 0.3547
1191.90 0.3546
1192.00 0.3545
1192.10 0.3545
1192.20 0.3544
1192.30 0.3543
1192.40 0.3542
1192.50 0.3541
1192.60 0.354
1192.70 0.354
1192.80 0.3539
1192.90 0.3538
1193.00 0.3537
1193.10 0.3536
1193.20 0.3535
1193.30 0.3534
1193.40 0.3534
1193.50 0.3533
1193.60 0.3532
1193.70 0.3531
1193.80 0.353
1193.90 0.3529
1194.00 0.3529
1194.10 0.3528
1194.20 0.3527
1194.30 0.3526
1194.40 0.3525
1194.50 0.3524
1194.60 0.3523
1194.70 0.3523
1194.80 0.3522
1194.90 0.3521
1195.00 0.352
1195.10 0.3519
1195.20 0.3518
1195.30 0.3518
1195.40 0.3517
1195.50 0.3516
1195.60 0.3515
1195.70 0.3514
1195.80 0.3513
1195.90 0.3513
1196.00 0.3512
1196.10 0.3511
1196.20 0.351
1196.30 0.3509
1196.40 0.3508
1196.50 0.3507
1196.60 0.3507
1196.70 0.3506
1196.80 0.3505
1196.90 0.3504
1197.00 0.3503
1197.10 0.3502
1197.20 0.3502
1197.30 0.3501
1197.40 0.35
1197.50 0.3499
1197.60 0.3498
1197.70 0.3497
1197.80 0.3496
1197.90 0.3496
1198.00 0.3495
1198.10 0.3494
1198.20 0.3493
1198.30 0.3492
1198.40 0.3491
1198.50 0.349
1198.60 0.349
1198.70 0.3489
1198.80 0.3488
1198.90 0.3487
1199.00 0.3486
1199.10 0.3485
1199.20 0.3484
1199.30 0.3484
1199.40 0.3483
1199.50 0.3482
1199.60 0.3481
1199.70 0.348
1199.80 0.3479
1199.90 0.3479
1200.00 0
