# Version 2.1 - nm, norm@500 to 1, cut digits, bergeron_50000_90.dat_50000
# Wavelength(nm)  Flambda(ergs/cm^s/s/nm)
300.00 6.238
300.10 6.231
300.20 6.223
300.30 6.216
300.40 6.208
300.50 6.201
300.60 6.193
300.70 6.186
300.80 6.178
300.90 6.171
301.00 6.163
301.10 6.156
301.20 6.149
301.30 6.141
301.40 6.134
301.50 6.126
301.60 6.119
301.70 6.112
301.80 6.104
301.90 6.097
302.00 6.09
302.10 6.082
302.20 6.075
302.30 6.068
302.40 6.06
302.50 6.053
302.60 6.046
302.70 6.039
302.80 6.031
302.90 6.024
303.00 6.017
303.10 6.01
303.20 6.003
303.30 5.995
303.40 5.988
303.50 5.981
303.60 5.974
303.70 5.967
303.80 5.96
303.90 5.952
304.00 5.945
304.10 5.938
304.20 5.931
304.30 5.924
304.40 5.917
304.50 5.91
304.60 5.903
304.70 5.896
304.80 5.889
304.90 5.882
305.00 5.875
305.10 5.868
305.20 5.861
305.30 5.854
305.40 5.847
305.50 5.84
305.60 5.833
305.70 5.826
305.80 5.819
305.90 5.812
306.00 5.805
306.10 5.799
306.20 5.792
306.30 5.785
306.40 5.778
306.50 5.771
306.60 5.764
306.70 5.757
306.80 5.751
306.90 5.744
307.00 5.737
307.10 5.73
307.20 5.723
307.30 5.717
307.40 5.71
307.50 5.703
307.60 5.696
307.70 5.69
307.80 5.683
307.90 5.676
308.00 5.67
308.10 5.663
308.20 5.656
308.30 5.65
308.40 5.643
308.50 5.636
308.60 5.63
308.70 5.623
308.80 5.616
308.90 5.61
309.00 5.603
309.10 5.597
309.20 5.59
309.30 5.583
309.40 5.577
309.50 5.57
309.60 5.564
309.70 5.557
309.80 5.551
309.90 5.544
310.00 5.538
310.10 5.531
310.20 5.525
310.30 5.518
310.40 5.512
310.50 5.505
310.60 5.499
310.70 5.492
310.80 5.486
310.90 5.48
311.00 5.473
311.10 5.467
311.20 5.46
311.30 5.454
311.40 5.448
311.50 5.441
311.60 5.435
311.70 5.429
311.80 5.422
311.90 5.416
312.00 5.41
312.10 5.403
312.20 5.397
312.30 5.391
312.40 5.384
312.50 5.378
312.60 5.372
312.70 5.366
312.80 5.359
312.90 5.353
313.00 5.347
313.10 5.341
313.20 5.335
313.30 5.328
313.40 5.322
313.50 5.316
313.60 5.31
313.70 5.304
313.80 5.298
313.90 5.291
314.00 5.285
314.10 5.279
314.20 5.273
314.30 5.267
314.40 5.261
314.50 5.255
314.60 5.249
314.70 5.243
314.80 5.236
314.90 5.23
315.00 5.224
315.10 5.218
315.20 5.212
315.30 5.206
315.40 5.2
315.50 5.194
315.60 5.188
315.70 5.182
315.80 5.176
315.90 5.17
316.00 5.164
316.10 5.158
316.20 5.153
316.30 5.147
316.40 5.141
316.50 5.135
316.60 5.129
316.70 5.123
316.80 5.117
316.90 5.111
317.00 5.105
317.10 5.099
317.20 5.094
317.30 5.088
317.40 5.082
317.50 5.076
317.60 5.07
317.70 5.064
317.80 5.059
317.90 5.053
318.00 5.047
318.10 5.041
318.20 5.035
318.30 5.03
318.40 5.024
318.50 5.018
318.60 5.012
318.70 5.007
318.80 5.001
318.90 4.995
319.00 4.99
319.10 4.984
319.20 4.978
319.30 4.973
319.40 4.967
319.50 4.961
319.60 4.956
319.70 4.95
319.80 4.944
319.90 4.939
320.00 4.933
320.10 4.927
320.20 4.922
320.30 4.916
320.40 4.911
320.50 4.905
320.60 4.899
320.70 4.894
320.80 4.888
320.90 4.883
321.00 4.877
321.10 4.872
321.20 4.866
321.30 4.861
321.40 4.855
321.50 4.85
321.60 4.844
321.70 4.839
321.80 4.833
321.90 4.828
322.00 4.822
322.10 4.817
322.20 4.811
322.30 4.806
322.40 4.8
322.50 4.795
322.60 4.79
322.70 4.784
322.80 4.779
322.90 4.773
323.00 4.768
323.10 4.763
323.20 4.757
323.30 4.752
323.40 4.746
323.50 4.741
323.60 4.736
323.70 4.73
323.80 4.725
323.90 4.72
324.00 4.714
324.10 4.709
324.20 4.704
324.30 4.699
324.40 4.693
324.50 4.688
324.60 4.683
324.70 4.677
324.80 4.672
324.90 4.667
325.00 4.662
325.10 4.657
325.20 4.651
325.30 4.646
325.40 4.641
325.50 4.636
325.60 4.63
325.70 4.625
325.80 4.62
325.90 4.615
326.00 4.61
326.10 4.605
326.20 4.599
326.30 4.594
326.40 4.589
326.50 4.584
326.60 4.579
326.70 4.574
326.80 4.569
326.90 4.564
327.00 4.558
327.10 4.553
327.20 4.548
327.30 4.543
327.40 4.538
327.50 4.533
327.60 4.528
327.70 4.523
327.80 4.518
327.90 4.513
328.00 4.508
328.10 4.503
328.20 4.498
328.30 4.493
328.40 4.488
328.50 4.483
328.60 4.478
328.70 4.473
328.80 4.468
328.90 4.463
329.00 4.458
329.10 4.453
329.20 4.448
329.30 4.443
329.40 4.438
329.50 4.433
329.60 4.429
329.70 4.424
329.80 4.419
329.90 4.414
330.00 4.409
330.10 4.404
330.20 4.399
330.30 4.394
330.40 4.39
330.50 4.385
330.60 4.38
330.70 4.375
330.80 4.37
330.90 4.365
331.00 4.361
331.10 4.356
331.20 4.351
331.30 4.346
331.40 4.341
331.50 4.337
331.60 4.332
331.70 4.327
331.80 4.322
331.90 4.317
332.00 4.313
332.10 4.308
332.20 4.303
332.30 4.298
332.40 4.294
332.50 4.289
332.60 4.284
332.70 4.28
332.80 4.275
332.90 4.27
333.00 4.266
333.10 4.261
333.20 4.256
333.30 4.252
333.40 4.247
333.50 4.242
333.60 4.238
333.70 4.233
333.80 4.228
333.90 4.224
334.00 4.219
334.10 4.214
334.20 4.21
334.30 4.205
334.40 4.201
334.50 4.196
334.60 4.191
334.70 4.187
334.80 4.182
334.90 4.178
335.00 4.173
335.10 4.169
335.20 4.164
335.30 4.16
335.40 4.155
335.50 4.15
335.60 4.146
335.70 4.141
335.80 4.137
335.90 4.132
336.00 4.128
336.10 4.123
336.20 4.119
336.30 4.114
336.40 4.11
336.50 4.105
336.60 4.101
336.70 4.097
336.80 4.092
336.90 4.088
337.00 4.083
337.10 4.079
337.20 4.074
337.30 4.07
337.40 4.066
337.50 4.061
337.60 4.057
337.70 4.052
337.80 4.048
337.90 4.044
338.00 4.039
338.10 4.035
338.20 4.03
338.30 4.026
338.40 4.022
338.50 4.017
338.60 4.013
338.70 4.009
338.80 4.004
338.90 4
339.00 3.996
339.10 3.991
339.20 3.987
339.30 3.983
339.40 3.979
339.50 3.974
339.60 3.97
339.70 3.966
339.80 3.961
339.90 3.957
340.00 3.953
340.10 3.949
340.20 3.944
340.30 3.94
340.40 3.936
340.50 3.932
340.60 3.927
340.70 3.923
340.80 3.919
340.90 3.915
341.00 3.911
341.10 3.906
341.20 3.902
341.30 3.898
341.40 3.894
341.50 3.89
341.60 3.886
341.70 3.881
341.80 3.877
341.90 3.873
342.00 3.869
342.10 3.865
342.20 3.861
342.30 3.856
342.40 3.852
342.50 3.848
342.60 3.844
342.70 3.84
342.80 3.836
342.90 3.832
343.00 3.828
343.10 3.824
343.20 3.82
343.30 3.816
343.40 3.811
343.50 3.807
343.60 3.803
343.70 3.799
343.80 3.795
343.90 3.791
344.00 3.787
344.10 3.783
344.20 3.779
344.30 3.775
344.40 3.771
344.50 3.767
344.60 3.763
344.70 3.759
344.80 3.755
344.90 3.751
345.00 3.747
345.10 3.743
345.20 3.739
345.30 3.735
345.40 3.731
345.50 3.727
345.60 3.723
345.70 3.719
345.80 3.715
345.90 3.711
346.00 3.707
346.10 3.704
346.20 3.7
346.30 3.696
346.40 3.692
346.50 3.688
346.60 3.684
346.70 3.68
346.80 3.676
346.90 3.672
347.00 3.669
347.10 3.665
347.20 3.661
347.30 3.657
347.40 3.653
347.50 3.649
347.60 3.645
347.70 3.641
347.80 3.638
347.90 3.634
348.00 3.63
348.10 3.626
348.20 3.622
348.30 3.619
348.40 3.615
348.50 3.611
348.60 3.607
348.70 3.603
348.80 3.6
348.90 3.596
349.00 3.592
349.10 3.588
349.20 3.584
349.30 3.581
349.40 3.577
349.50 3.573
349.60 3.569
349.70 3.566
349.80 3.562
349.90 3.558
350.00 3.554
350.10 3.551
350.20 3.547
350.30 3.543
350.40 3.54
350.50 3.536
350.60 3.532
350.70 3.529
350.80 3.525
350.90 3.521
351.00 3.517
351.10 3.514
351.20 3.51
351.30 3.506
351.40 3.503
351.50 3.499
351.60 3.495
351.70 3.492
351.80 3.488
351.90 3.485
352.00 3.481
352.10 3.477
352.20 3.474
352.30 3.47
352.40 3.466
352.50 3.463
352.60 3.459
352.70 3.456
352.80 3.452
352.90 3.448
353.00 3.445
353.10 3.441
353.20 3.438
353.30 3.434
353.40 3.431
353.50 3.427
353.60 3.423
353.70 3.42
353.80 3.416
353.90 3.413
354.00 3.409
354.10 3.406
354.20 3.402
354.30 3.399
354.40 3.395
354.50 3.392
354.60 3.388
354.70 3.385
354.80 3.381
354.90 3.378
355.00 3.374
355.10 3.371
355.20 3.367
355.30 3.364
355.40 3.36
355.50 3.357
355.60 3.353
355.70 3.35
355.80 3.346
355.90 3.343
356.00 3.339
356.10 3.336
356.20 3.333
356.30 3.329
356.40 3.326
356.50 3.322
356.60 3.319
356.70 3.315
356.80 3.312
356.90 3.309
357.00 3.305
357.10 3.302
357.20 3.298
357.30 3.295
357.40 3.292
357.50 3.288
357.60 3.285
357.70 3.282
357.80 3.278
357.90 3.275
358.00 3.271
358.10 3.268
358.20 3.265
358.30 3.261
358.40 3.258
358.50 3.255
358.60 3.251
358.70 3.248
358.80 3.245
358.90 3.241
359.00 3.238
359.10 3.235
359.20 3.231
359.30 3.228
359.40 3.225
359.50 3.222
359.60 3.218
359.70 3.215
359.80 3.212
359.90 3.208
360.00 3.205
360.10 3.202
360.20 3.199
360.30 3.195
360.40 3.192
360.50 3.189
360.60 3.186
360.70 3.182
360.80 3.179
360.90 3.176
361.00 3.173
361.10 3.169
361.20 3.166
361.30 3.163
361.40 3.16
361.50 3.157
361.60 3.153
361.70 3.15
361.80 3.147
361.90 3.144
362.00 3.141
362.10 3.137
362.20 3.134
362.30 3.131
362.40 3.128
362.50 3.125
362.60 3.121
362.70 3.118
362.80 3.115
362.90 3.112
363.00 3.109
363.10 3.106
363.20 3.103
363.30 3.099
363.40 3.096
363.50 3.093
363.60 3.09
363.70 3.087
363.80 3.084
363.90 3.081
364.00 3.078
364.10 3.074
364.20 3.071
364.30 3.068
364.40 3.065
364.50 3.062
364.60 3.059
364.70 3.056
364.80 3.053
364.90 3.05
365.00 3.047
365.10 3.044
365.20 3.041
365.30 3.037
365.40 3.034
365.50 3.031
365.60 3.028
365.70 3.025
365.80 3.022
365.90 3.019
366.00 3.016
366.10 3.013
366.20 3.01
366.30 3.007
366.40 3.004
366.50 3.001
366.60 2.998
366.70 2.995
366.80 2.992
366.90 2.989
367.00 2.986
367.10 2.982
367.20 2.979
367.30 2.976
367.40 2.973
367.50 2.97
367.60 2.967
367.70 2.964
367.80 2.961
367.90 2.958
368.00 2.955
368.10 2.952
368.20 2.949
368.30 2.946
368.40 2.943
368.50 2.94
368.60 2.937
368.70 2.934
368.80 2.931
368.90 2.927
369.00 2.924
369.10 2.921
369.20 2.918
369.30 2.915
369.40 2.912
369.50 2.909
369.60 2.906
369.70 2.903
369.80 2.9
369.90 2.897
370.00 2.894
370.10 2.891
370.20 2.888
370.30 2.885
370.40 2.882
370.50 2.879
370.60 2.876
370.70 2.873
370.80 2.87
370.90 2.867
371.00 2.864
371.10 2.861
371.20 2.858
371.30 2.855
371.40 2.852
371.50 2.849
371.60 2.846
371.70 2.843
371.80 2.84
371.90 2.838
372.00 2.835
372.10 2.832
372.20 2.829
372.30 2.826
372.40 2.823
372.50 2.821
372.60 2.818
372.70 2.815
372.80 2.812
372.90 2.81
373.00 2.807
373.10 2.804
373.20 2.801
373.30 2.799
373.40 2.796
373.50 2.793
373.60 2.79
373.70 2.788
373.80 2.785
373.90 2.782
374.00 2.779
374.10 2.776
374.20 2.774
374.30 2.771
374.40 2.768
374.50 2.765
374.60 2.762
374.70 2.759
374.80 2.757
374.90 2.754
375.00 2.751
375.10 2.748
375.20 2.745
375.30 2.742
375.40 2.74
375.50 2.737
375.60 2.734
375.70 2.731
375.80 2.728
375.90 2.726
376.00 2.723
376.10 2.72
376.20 2.717
376.30 2.715
376.40 2.712
376.50 2.709
376.60 2.706
376.70 2.704
376.80 2.701
376.90 2.698
377.00 2.695
377.10 2.693
377.20 2.69
377.30 2.687
377.40 2.685
377.50 2.682
377.60 2.679
377.70 2.677
377.80 2.674
377.90 2.671
378.00 2.669
378.10 2.666
378.20 2.664
378.30 2.661
378.40 2.658
378.50 2.656
378.60 2.653
378.70 2.65
378.80 2.648
378.90 2.645
379.00 2.643
379.10 2.64
379.20 2.637
379.30 2.635
379.40 2.632
379.50 2.63
379.60 2.627
379.70 2.625
379.80 2.622
379.90 2.619
380.00 2.617
380.10 2.614
380.20 2.612
380.30 2.609
380.40 2.607
380.50 2.604
380.60 2.602
380.70 2.599
380.80 2.597
380.90 2.594
381.00 2.592
381.10 2.59
381.20 2.587
381.30 2.585
381.40 2.582
381.50 2.58
381.60 2.577
381.70 2.575
381.80 2.572
381.90 2.57
382.00 2.567
382.10 2.565
382.20 2.563
382.30 2.56
382.40 2.558
382.50 2.555
382.60 2.553
382.70 2.55
382.80 2.548
382.90 2.546
383.00 2.543
383.10 2.541
383.20 2.538
383.30 2.536
383.40 2.534
383.50 2.531
383.60 2.529
383.70 2.527
383.80 2.525
383.90 2.522
384.00 2.52
384.10 2.518
384.20 2.516
384.30 2.513
384.40 2.511
384.50 2.509
384.60 2.507
384.70 2.504
384.80 2.502
384.90 2.5
385.00 2.498
385.10 2.496
385.20 2.493
385.30 2.491
385.40 2.489
385.50 2.487
385.60 2.484
385.70 2.482
385.80 2.48
385.90 2.478
386.00 2.475
386.10 2.473
386.20 2.471
386.30 2.469
386.40 2.466
386.50 2.464
386.60 2.462
386.70 2.459
386.80 2.457
386.90 2.455
387.00 2.452
387.10 2.45
387.20 2.448
387.30 2.445
387.40 2.443
387.50 2.441
387.60 2.438
387.70 2.436
387.80 2.434
387.90 2.431
388.00 2.429
388.10 2.427
388.20 2.424
388.30 2.422
388.40 2.42
388.50 2.418
388.60 2.416
388.70 2.413
388.80 2.411
388.90 2.409
389.00 2.407
389.10 2.405
389.20 2.403
389.30 2.402
389.40 2.4
389.50 2.398
389.60 2.396
389.70 2.394
389.80 2.393
389.90 2.391
390.00 2.389
390.10 2.387
390.20 2.385
390.30 2.384
390.40 2.382
390.50 2.38
390.60 2.378
390.70 2.377
390.80 2.375
390.90 2.373
391.00 2.371
391.10 2.369
391.20 2.367
391.30 2.365
391.40 2.363
391.50 2.361
391.60 2.359
391.70 2.357
391.80 2.355
391.90 2.353
392.00 2.351
392.10 2.349
392.20 2.347
392.30 2.345
392.40 2.343
392.50 2.341
392.60 2.338
392.70 2.336
392.80 2.334
392.90 2.331
393.00 2.329
393.10 2.327
393.20 2.324
393.30 2.322
393.40 2.32
393.50 2.317
393.60 2.315
393.70 2.312
393.80 2.309
393.90 2.307
394.00 2.304
394.10 2.302
394.20 2.299
394.30 2.296
394.40 2.294
394.50 2.291
394.60 2.288
394.70 2.285
394.80 2.282
394.90 2.28
395.00 2.277
395.10 2.274
395.20 2.271
395.30 2.268
395.40 2.265
395.50 2.262
395.60 2.259
395.70 2.256
395.80 2.253
395.90 2.25
396.00 2.247
396.10 2.244
396.20 2.241
396.30 2.238
396.40 2.235
396.50 2.232
396.60 2.23
396.70 2.227
396.80 2.224
396.90 2.222
397.00 2.219
397.10 2.218
397.20 2.217
397.30 2.216
397.40 2.216
397.50 2.215
397.60 2.214
397.70 2.214
397.80 2.213
397.90 2.213
398.00 2.212
398.10 2.212
398.20 2.211
398.30 2.211
398.40 2.21
398.50 2.209
398.60 2.209
398.70 2.208
398.80 2.208
398.90 2.207
399.00 2.206
399.10 2.206
399.20 2.205
399.30 2.204
399.40 2.204
399.50 2.203
399.60 2.202
399.70 2.201
399.80 2.2
399.90 2.199
400.00 2.198
400.10 2.197
400.20 2.196
400.30 2.195
400.40 2.194
400.50 2.193
400.60 2.192
400.70 2.191
400.80 2.189
400.90 2.188
401.00 2.187
401.10 2.186
401.20 2.184
401.30 2.183
401.40 2.181
401.50 2.18
401.60 2.178
401.70 2.177
401.80 2.175
401.90 2.173
402.00 2.172
402.10 2.17
402.20 2.168
402.30 2.167
402.40 2.165
402.50 2.163
402.60 2.161
402.70 2.159
402.80 2.157
402.90 2.155
403.00 2.153
403.10 2.151
403.20 2.149
403.30 2.146
403.40 2.144
403.50 2.142
403.60 2.139
403.70 2.137
403.80 2.135
403.90 2.132
404.00 2.13
404.10 2.127
404.20 2.124
404.30 2.122
404.40 2.119
404.50 2.116
404.60 2.114
404.70 2.111
404.80 2.108
404.90 2.105
405.00 2.102
405.10 2.099
405.20 2.096
405.30 2.093
405.40 2.09
405.50 2.086
405.60 2.083
405.70 2.08
405.80 2.076
405.90 2.073
406.00 2.069
406.10 2.066
406.20 2.062
406.30 2.058
406.40 2.055
406.50 2.051
406.60 2.047
406.70 2.043
406.80 2.039
406.90 2.035
407.00 2.031
407.10 2.027
407.20 2.023
407.30 2.018
407.40 2.014
407.50 2.01
407.60 2.005
407.70 2.001
407.80 1.996
407.90 1.992
408.00 1.987
408.10 1.983
408.20 1.978
408.30 1.973
408.40 1.968
408.50 1.964
408.60 1.959
408.70 1.954
408.80 1.949
408.90 1.944
409.00 1.94
409.10 1.935
409.20 1.93
409.30 1.926
409.40 1.922
409.50 1.918
409.60 1.914
409.70 1.91
409.80 1.908
409.90 1.905
410.00 1.904
410.10 1.903
410.20 1.903
410.30 1.9
410.40 1.898
410.50 1.896
410.60 1.896
410.70 1.896
410.80 1.896
410.90 1.897
411.00 1.898
411.10 1.9
411.20 1.901
411.30 1.903
411.40 1.904
411.50 1.906
411.60 1.907
411.70 1.909
411.80 1.911
411.90 1.912
412.00 1.914
412.10 1.915
412.20 1.917
412.30 1.918
412.40 1.92
412.50 1.921
412.60 1.922
412.70 1.924
412.80 1.925
412.90 1.926
413.00 1.927
413.10 1.928
413.20 1.929
413.30 1.93
413.40 1.931
413.50 1.932
413.60 1.932
413.70 1.933
413.80 1.934
413.90 1.934
414.00 1.935
414.10 1.935
414.20 1.936
414.30 1.936
414.40 1.937
414.50 1.937
414.60 1.937
414.70 1.937
414.80 1.938
414.90 1.938
415.00 1.938
415.10 1.938
415.20 1.938
415.30 1.938
415.40 1.937
415.50 1.937
415.60 1.937
415.70 1.937
415.80 1.937
415.90 1.936
416.00 1.936
416.10 1.935
416.20 1.935
416.30 1.935
416.40 1.934
416.50 1.934
416.60 1.933
416.70 1.932
416.80 1.932
416.90 1.931
417.00 1.93
417.10 1.93
417.20 1.929
417.30 1.928
417.40 1.927
417.50 1.926
417.60 1.926
417.70 1.925
417.80 1.924
417.90 1.923
418.00 1.922
418.10 1.921
418.20 1.92
418.30 1.919
418.40 1.918
418.50 1.917
418.60 1.916
418.70 1.915
418.80 1.913
418.90 1.912
419.00 1.911
419.10 1.91
419.20 1.909
419.30 1.907
419.40 1.906
419.50 1.905
419.60 1.904
419.70 1.902
419.80 1.901
419.90 1.9
420.00 1.898
420.10 1.897
420.20 1.895
420.30 1.894
420.40 1.893
420.50 1.891
420.60 1.89
420.70 1.888
420.80 1.887
420.90 1.885
421.00 1.884
421.10 1.882
421.20 1.88
421.30 1.879
421.40 1.877
421.50 1.876
421.60 1.874
421.70 1.872
421.80 1.871
421.90 1.869
422.00 1.867
422.10 1.866
422.20 1.864
422.30 1.862
422.40 1.86
422.50 1.859
422.60 1.857
422.70 1.855
422.80 1.853
422.90 1.851
423.00 1.849
423.10 1.848
423.20 1.846
423.30 1.844
423.40 1.842
423.50 1.84
423.60 1.838
423.70 1.836
423.80 1.834
423.90 1.832
424.00 1.83
424.10 1.828
424.20 1.826
424.30 1.824
424.40 1.822
424.50 1.819
424.60 1.817
424.70 1.815
424.80 1.813
424.90 1.811
425.00 1.808
425.10 1.806
425.20 1.804
425.30 1.802
425.40 1.799
425.50 1.797
425.60 1.794
425.70 1.792
425.80 1.79
425.90 1.787
426.00 1.785
426.10 1.782
426.20 1.78
426.30 1.777
426.40 1.774
426.50 1.772
426.60 1.769
426.70 1.766
426.80 1.764
426.90 1.761
427.00 1.758
427.10 1.755
427.20 1.752
427.30 1.749
427.40 1.746
427.50 1.743
427.60 1.74
427.70 1.737
427.80 1.734
427.90 1.731
428.00 1.728
428.10 1.724
428.20 1.721
428.30 1.718
428.40 1.714
428.50 1.711
428.60 1.707
428.70 1.704
428.80 1.7
428.90 1.696
429.00 1.693
429.10 1.689
429.20 1.685
429.30 1.681
429.40 1.677
429.50 1.673
429.60 1.669
429.70 1.665
429.80 1.661
429.90 1.656
430.00 1.652
430.10 1.647
430.20 1.643
430.30 1.638
430.40 1.634
430.50 1.629
430.60 1.624
430.70 1.619
430.80 1.614
430.90 1.609
431.00 1.604
431.10 1.599
431.20 1.594
431.30 1.589
431.40 1.583
431.50 1.578
431.60 1.572
431.70 1.566
431.80 1.561
431.90 1.555
432.00 1.549
432.10 1.543
432.20 1.537
432.30 1.531
432.40 1.525
432.50 1.519
432.60 1.513
432.70 1.507
432.80 1.5
432.90 1.494
433.00 1.488
433.10 1.482
433.20 1.475
433.30 1.469
433.40 1.462
433.50 1.456
433.60 1.449
433.70 1.441
433.80 1.433
433.90 1.424
434.00 1.416
434.10 1.415
434.20 1.422
434.30 1.428
434.40 1.434
434.50 1.439
434.60 1.444
434.70 1.448
434.80 1.452
434.90 1.456
435.00 1.46
435.10 1.464
435.20 1.468
435.30 1.472
435.40 1.475
435.50 1.479
435.60 1.483
435.70 1.486
435.80 1.49
435.90 1.493
436.00 1.497
436.10 1.5
436.20 1.503
436.30 1.506
436.40 1.509
436.50 1.512
436.60 1.515
436.70 1.518
436.80 1.521
436.90 1.523
437.00 1.526
437.10 1.528
437.20 1.531
437.30 1.533
437.40 1.535
437.50 1.537
437.60 1.539
437.70 1.541
437.80 1.543
437.90 1.545
438.00 1.547
438.10 1.548
438.20 1.55
438.30 1.551
438.40 1.553
438.50 1.554
438.60 1.555
438.70 1.556
438.80 1.558
438.90 1.559
439.00 1.56
439.10 1.561
439.20 1.561
439.30 1.562
439.40 1.563
439.50 1.564
439.60 1.564
439.70 1.565
439.80 1.565
439.90 1.566
440.00 1.566
440.10 1.567
440.20 1.567
440.30 1.567
440.40 1.568
440.50 1.568
440.60 1.568
440.70 1.568
440.80 1.568
440.90 1.568
441.00 1.568
441.10 1.568
441.20 1.568
441.30 1.568
441.40 1.568
441.50 1.568
441.60 1.568
441.70 1.568
441.80 1.567
441.90 1.567
442.00 1.567
442.10 1.566
442.20 1.566
442.30 1.566
442.40 1.565
442.50 1.565
442.60 1.564
442.70 1.564
442.80 1.563
442.90 1.563
443.00 1.562
443.10 1.562
443.20 1.561
443.30 1.56
443.40 1.56
443.50 1.559
443.60 1.559
443.70 1.558
443.80 1.557
443.90 1.556
444.00 1.556
444.10 1.555
444.20 1.554
444.30 1.553
444.40 1.553
444.50 1.552
444.60 1.551
444.70 1.55
444.80 1.549
444.90 1.549
445.00 1.548
445.10 1.547
445.20 1.546
445.30 1.545
445.40 1.544
445.50 1.543
445.60 1.542
445.70 1.541
445.80 1.541
445.90 1.54
446.00 1.539
446.10 1.538
446.20 1.537
446.30 1.536
446.40 1.535
446.50 1.534
446.60 1.533
446.70 1.532
446.80 1.531
446.90 1.53
447.00 1.529
447.10 1.528
447.20 1.527
447.30 1.526
447.40 1.525
447.50 1.524
447.60 1.523
447.70 1.522
447.80 1.52
447.90 1.519
448.00 1.518
448.10 1.517
448.20 1.516
448.30 1.515
448.40 1.514
448.50 1.513
448.60 1.512
448.70 1.511
448.80 1.51
448.90 1.509
449.00 1.507
449.10 1.506
449.20 1.505
449.30 1.504
449.40 1.503
449.50 1.502
449.60 1.501
449.70 1.5
449.80 1.499
449.90 1.497
450.00 1.496
450.10 1.495
450.20 1.494
450.30 1.493
450.40 1.492
450.50 1.491
450.60 1.49
450.70 1.488
450.80 1.487
450.90 1.486
451.00 1.485
451.10 1.484
451.20 1.483
451.30 1.482
451.40 1.48
451.50 1.479
451.60 1.478
451.70 1.477
451.80 1.476
451.90 1.475
452.00 1.473
452.10 1.472
452.20 1.471
452.30 1.47
452.40 1.469
452.50 1.468
452.60 1.466
452.70 1.465
452.80 1.464
452.90 1.463
453.00 1.462
453.10 1.461
453.20 1.46
453.30 1.458
453.40 1.457
453.50 1.456
453.60 1.455
453.70 1.454
453.80 1.453
453.90 1.451
454.00 1.45
454.10 1.449
454.20 1.448
454.30 1.447
454.40 1.446
454.50 1.444
454.60 1.443
454.70 1.442
454.80 1.441
454.90 1.44
455.00 1.439
455.10 1.437
455.20 1.436
455.30 1.435
455.40 1.434
455.50 1.433
455.60 1.432
455.70 1.43
455.80 1.429
455.90 1.428
456.00 1.427
456.10 1.426
456.20 1.425
456.30 1.423
456.40 1.422
456.50 1.421
456.60 1.42
456.70 1.419
456.80 1.418
456.90 1.416
457.00 1.415
457.10 1.414
457.20 1.413
457.30 1.412
457.40 1.411
457.50 1.41
457.60 1.408
457.70 1.407
457.80 1.406
457.90 1.405
458.00 1.404
458.10 1.403
458.20 1.401
458.30 1.4
458.40 1.399
458.50 1.398
458.60 1.397
458.70 1.396
458.80 1.394
458.90 1.393
459.00 1.392
459.10 1.391
459.20 1.39
459.30 1.389
459.40 1.388
459.50 1.386
459.60 1.385
459.70 1.384
459.80 1.383
459.90 1.382
460.00 1.381
460.10 1.379
460.20 1.378
460.30 1.377
460.40 1.376
460.50 1.375
460.60 1.374
460.70 1.373
460.80 1.371
460.90 1.37
461.00 1.369
461.10 1.368
461.20 1.367
461.30 1.366
461.40 1.365
461.50 1.363
461.60 1.362
461.70 1.361
461.80 1.36
461.90 1.359
462.00 1.358
462.10 1.357
462.20 1.355
462.30 1.354
462.40 1.353
462.50 1.352
462.60 1.351
462.70 1.35
462.80 1.348
462.90 1.347
463.00 1.346
463.10 1.345
463.20 1.344
463.30 1.343
463.40 1.342
463.50 1.341
463.60 1.339
463.70 1.338
463.80 1.337
463.90 1.336
464.00 1.335
464.10 1.334
464.20 1.333
464.30 1.331
464.40 1.33
464.50 1.329
464.60 1.328
464.70 1.327
464.80 1.326
464.90 1.325
465.00 1.323
465.10 1.322
465.20 1.321
465.30 1.32
465.40 1.319
465.50 1.318
465.60 1.317
465.70 1.315
465.80 1.314
465.90 1.313
466.00 1.312
466.10 1.311
466.20 1.31
466.30 1.309
466.40 1.307
466.50 1.306
466.60 1.305
466.70 1.304
466.80 1.303
466.90 1.302
467.00 1.301
467.10 1.299
467.20 1.298
467.30 1.297
467.40 1.296
467.50 1.295
467.60 1.294
467.70 1.293
467.80 1.291
467.90 1.29
468.00 1.289
468.10 1.288
468.20 1.287
468.30 1.286
468.40 1.285
468.50 1.283
468.60 1.282
468.70 1.281
468.80 1.28
468.90 1.279
469.00 1.278
469.10 1.277
469.20 1.275
469.30 1.274
469.40 1.273
469.50 1.272
469.60 1.271
469.70 1.27
469.80 1.268
469.90 1.267
470.00 1.266
470.10 1.265
470.20 1.264
470.30 1.263
470.40 1.261
470.50 1.26
470.60 1.259
470.70 1.258
470.80 1.257
470.90 1.255
471.00 1.254
471.10 1.253
471.20 1.252
471.30 1.251
471.40 1.25
471.50 1.248
471.60 1.247
471.70 1.246
471.80 1.245
471.90 1.243
472.00 1.242
472.10 1.241
472.20 1.24
472.30 1.239
472.40 1.237
472.50 1.236
472.60 1.235
472.70 1.234
472.80 1.232
472.90 1.231
473.00 1.23
473.10 1.229
473.20 1.228
473.30 1.226
473.40 1.225
473.50 1.224
473.60 1.222
473.70 1.221
473.80 1.22
473.90 1.219
474.00 1.217
474.10 1.216
474.20 1.215
474.30 1.213
474.40 1.212
474.50 1.211
474.60 1.209
474.70 1.208
474.80 1.207
474.90 1.205
475.00 1.204
475.10 1.203
475.20 1.201
475.30 1.2
475.40 1.198
475.50 1.197
475.60 1.196
475.70 1.194
475.80 1.193
475.90 1.191
476.00 1.19
476.10 1.189
476.20 1.187
476.30 1.186
476.40 1.184
476.50 1.183
476.60 1.181
476.70 1.18
476.80 1.178
476.90 1.176
477.00 1.175
477.10 1.173
477.20 1.172
477.30 1.17
477.40 1.169
477.50 1.167
477.60 1.165
477.70 1.164
477.80 1.162
477.90 1.16
478.00 1.159
478.10 1.157
478.20 1.155
478.30 1.153
478.40 1.151
478.50 1.15
478.60 1.148
478.70 1.146
478.80 1.144
478.90 1.142
479.00 1.14
479.10 1.139
479.20 1.137
479.30 1.134
479.40 1.132
479.50 1.13
479.60 1.128
479.70 1.126
479.80 1.124
479.90 1.122
480.00 1.12
480.10 1.118
480.20 1.115
480.30 1.113
480.40 1.111
480.50 1.108
480.60 1.106
480.70 1.103
480.80 1.101
480.90 1.099
481.00 1.096
481.10 1.094
481.20 1.091
481.30 1.088
481.40 1.085
481.50 1.083
481.60 1.08
481.70 1.077
481.80 1.074
481.90 1.071
482.00 1.068
482.10 1.066
482.20 1.062
482.30 1.059
482.40 1.056
482.50 1.052
482.60 1.049
482.70 1.046
482.80 1.042
482.90 1.039
483.00 1.036
483.10 1.032
483.20 1.028
483.30 1.024
483.40 1.02
483.50 1.016
483.60 1.012
483.70 1.008
483.80 1.004
483.90 1
484.00 0.9963
484.10 0.9924
484.20 0.988
484.30 0.9835
484.40 0.979
484.50 0.9745
484.60 0.9699
484.70 0.9652
484.80 0.9604
484.90 0.9556
485.00 0.9508
485.10 0.946
485.20 0.9411
485.30 0.9361
485.40 0.9312
485.50 0.9264
485.60 0.9218
485.70 0.9174
485.80 0.9143
485.90 0.912
486.00 0.9138
486.10 0.9268
486.20 0.9206
486.30 0.9098
486.40 0.9094
486.50 0.9103
486.60 0.9127
486.70 0.9158
486.80 0.9192
486.90 0.9226
487.00 0.9261
487.10 0.9297
487.20 0.9331
487.30 0.9365
487.40 0.9398
487.50 0.9432
487.60 0.9466
487.70 0.9497
487.80 0.9527
487.90 0.9557
488.00 0.9587
488.10 0.9617
488.20 0.9643
488.30 0.9667
488.40 0.9691
488.50 0.9715
488.60 0.974
488.70 0.9764
488.80 0.9788
488.90 0.9812
489.00 0.9836
489.10 0.986
489.20 0.9879
489.30 0.9896
489.40 0.9913
489.50 0.993
489.60 0.9947
489.70 0.9964
489.80 0.998
489.90 0.9997
490.00 1.001
490.10 1.003
490.20 1.004
490.30 1.005
490.40 1.007
490.50 1.008
490.60 1.009
490.70 1.01
490.80 1.011
490.90 1.012
491.00 1.013
491.10 1.014
491.20 1.015
491.30 1.016
491.40 1.016
491.50 1.017
491.60 1.018
491.70 1.018
491.80 1.019
491.90 1.02
492.00 1.02
492.10 1.021
492.20 1.021
492.30 1.022
492.40 1.022
492.50 1.022
492.60 1.022
492.70 1.023
492.80 1.023
492.90 1.023
493.00 1.024
493.10 1.024
493.20 1.024
493.30 1.024
493.40 1.024
493.50 1.024
493.60 1.024
493.70 1.024
493.80 1.024
493.90 1.024
494.00 1.024
494.10 1.024
494.20 1.024
494.30 1.024
494.40 1.024
494.50 1.024
494.60 1.023
494.70 1.023
494.80 1.023
494.90 1.023
495.00 1.023
495.10 1.023
495.20 1.022
495.30 1.022
495.40 1.022
495.50 1.021
495.60 1.021
495.70 1.021
495.80 1.021
495.90 1.02
496.00 1.02
496.10 1.02
496.20 1.019
496.30 1.019
496.40 1.018
496.50 1.018
496.60 1.018
496.70 1.017
496.80 1.017
496.90 1.016
497.00 1.016
497.10 1.016
497.20 1.015
497.30 1.015
497.40 1.014
497.50 1.014
497.60 1.013
497.70 1.013
497.80 1.012
497.90 1.012
498.00 1.011
498.10 1.011
498.20 1.01
498.30 1.01
498.40 1.009
498.50 1.009
498.60 1.008
498.70 1.007
498.80 1.007
498.90 1.006
499.00 1.006
499.10 1.005
499.20 1.005
499.30 1.004
499.40 1.004
499.50 1.003
499.60 1.002
499.70 1.002
499.80 1.001
499.90 1.001
500.00 1
500.10 0.9994
500.20 0.9988
500.30 0.9982
500.40 0.9976
500.50 0.997
500.60 0.9963
500.70 0.9957
500.80 0.9951
500.90 0.9945
501.00 0.9939
501.10 0.9933
501.20 0.9926
501.30 0.992
501.40 0.9914
501.50 0.9907
501.60 0.9901
501.70 0.9895
501.80 0.9888
501.90 0.9882
502.00 0.9876
502.10 0.9869
502.20 0.9863
502.30 0.9856
502.40 0.985
502.50 0.9843
502.60 0.9837
502.70 0.983
502.80 0.9824
502.90 0.9817
503.00 0.9811
503.10 0.9804
503.20 0.9797
503.30 0.9791
503.40 0.9784
503.50 0.9778
503.60 0.9771
503.70 0.9764
503.80 0.9758
503.90 0.9751
504.00 0.9745
504.10 0.9738
504.20 0.9731
504.30 0.9725
504.40 0.9718
504.50 0.9711
504.60 0.9704
504.70 0.9698
504.80 0.9691
504.90 0.9684
505.00 0.9678
505.10 0.9671
505.20 0.9664
505.30 0.9658
505.40 0.9651
505.50 0.9644
505.60 0.9637
505.70 0.9631
505.80 0.9624
505.90 0.9617
506.00 0.961
506.10 0.9604
506.20 0.9597
506.30 0.959
506.40 0.9583
506.50 0.9577
506.60 0.957
506.70 0.9563
506.80 0.9556
506.90 0.955
507.00 0.9543
507.10 0.9536
507.20 0.9529
507.30 0.9523
507.40 0.9516
507.50 0.9509
507.60 0.9502
507.70 0.9495
507.80 0.9489
507.90 0.9482
508.00 0.9475
508.10 0.9468
508.20 0.9462
508.30 0.9455
508.40 0.9448
508.50 0.9441
508.60 0.9435
508.70 0.9428
508.80 0.9421
508.90 0.9414
509.00 0.9408
509.10 0.9401
509.20 0.9394
509.30 0.9387
509.40 0.9381
509.50 0.9374
509.60 0.9367
509.70 0.936
509.80 0.9354
509.90 0.9347
510.00 0.934
510.10 0.9334
510.20 0.9327
510.30 0.932
510.40 0.9313
510.50 0.9307
510.60 0.93
510.70 0.9293
510.80 0.9286
510.90 0.928
511.00 0.9273
511.10 0.9266
511.20 0.926
511.30 0.9253
511.40 0.9246
511.50 0.924
511.60 0.9233
511.70 0.9226
511.80 0.922
511.90 0.9213
512.00 0.9206
512.10 0.92
512.20 0.9193
512.30 0.9186
512.40 0.918
512.50 0.9173
512.60 0.9166
512.70 0.916
512.80 0.9153
512.90 0.9146
513.00 0.914
513.10 0.9133
513.20 0.9126
513.30 0.912
513.40 0.9113
513.50 0.9107
513.60 0.91
513.70 0.9093
513.80 0.9087
513.90 0.908
514.00 0.9073
514.10 0.9067
514.20 0.906
514.30 0.9054
514.40 0.9047
514.50 0.9041
514.60 0.9034
514.70 0.9027
514.80 0.9021
514.90 0.9014
515.00 0.9008
515.10 0.9001
515.20 0.8995
515.30 0.8988
515.40 0.8982
515.50 0.8975
515.60 0.8969
515.70 0.8962
515.80 0.8955
515.90 0.8949
516.00 0.8942
516.10 0.8936
516.20 0.8929
516.30 0.8923
516.40 0.8916
516.50 0.891
516.60 0.8903
516.70 0.8897
516.80 0.8891
516.90 0.8884
517.00 0.8878
517.10 0.8871
517.20 0.8865
517.30 0.8858
517.40 0.8852
517.50 0.8845
517.60 0.8839
517.70 0.8832
517.80 0.8826
517.90 0.882
518.00 0.8813
518.10 0.8807
518.20 0.88
518.30 0.8794
518.40 0.8788
518.50 0.8781
518.60 0.8775
518.70 0.8768
518.80 0.8762
518.90 0.8756
519.00 0.8749
519.10 0.8743
519.20 0.8737
519.30 0.873
519.40 0.8724
519.50 0.8718
519.60 0.8711
519.70 0.8705
519.80 0.8699
519.90 0.8692
520.00 0.8686
520.10 0.868
520.20 0.8673
520.30 0.8667
520.40 0.8661
520.50 0.8654
520.60 0.8648
520.70 0.8642
520.80 0.8636
520.90 0.8629
521.00 0.8623
521.10 0.8617
521.20 0.8611
521.30 0.8604
521.40 0.8598
521.50 0.8592
521.60 0.8586
521.70 0.8579
521.80 0.8573
521.90 0.8567
522.00 0.8561
522.10 0.8554
522.20 0.8548
522.30 0.8542
522.40 0.8536
522.50 0.853
522.60 0.8524
522.70 0.8517
522.80 0.8511
522.90 0.8505
523.00 0.8499
523.10 0.8493
523.20 0.8487
523.30 0.848
523.40 0.8474
523.50 0.8468
523.60 0.8462
523.70 0.8456
523.80 0.845
523.90 0.8444
524.00 0.8437
524.10 0.8431
524.20 0.8425
524.30 0.8419
524.40 0.8413
524.50 0.8407
524.60 0.8401
524.70 0.8395
524.80 0.8389
524.90 0.8383
525.00 0.8377
525.10 0.8371
525.20 0.8364
525.30 0.8358
525.40 0.8352
525.50 0.8346
525.60 0.834
525.70 0.8334
525.80 0.8328
525.90 0.8322
526.00 0.8316
526.10 0.831
526.20 0.8304
526.30 0.8298
526.40 0.8292
526.50 0.8286
526.60 0.828
526.70 0.8274
526.80 0.8268
526.90 0.8262
527.00 0.8256
527.10 0.825
527.20 0.8245
527.30 0.8239
527.40 0.8233
527.50 0.8227
527.60 0.8221
527.70 0.8215
527.80 0.8209
527.90 0.8203
528.00 0.8197
528.10 0.8191
528.20 0.8185
528.30 0.8179
528.40 0.8174
528.50 0.8168
528.60 0.8162
528.70 0.8156
528.80 0.815
528.90 0.8144
529.00 0.8138
529.10 0.8132
529.20 0.8127
529.30 0.8121
529.40 0.8115
529.50 0.8109
529.60 0.8103
529.70 0.8097
529.80 0.8092
529.90 0.8086
530.00 0.808
530.10 0.8074
530.20 0.8068
530.30 0.8063
530.40 0.8057
530.50 0.8051
530.60 0.8045
530.70 0.8039
530.80 0.8034
530.90 0.8028
531.00 0.8022
531.10 0.8016
531.20 0.8011
531.30 0.8005
531.40 0.7999
531.50 0.7993
531.60 0.7988
531.70 0.7982
531.80 0.7976
531.90 0.7971
532.00 0.7965
532.10 0.7959
532.20 0.7953
532.30 0.7948
532.40 0.7942
532.50 0.7936
532.60 0.7931
532.70 0.7925
532.80 0.7919
532.90 0.7914
533.00 0.7908
533.10 0.7902
533.20 0.7897
533.30 0.7891
533.40 0.7885
533.50 0.788
533.60 0.7874
533.70 0.7869
533.80 0.7863
533.90 0.7857
534.00 0.7852
534.10 0.7846
534.20 0.7841
534.30 0.7835
534.40 0.7829
534.50 0.7824
534.60 0.7818
534.70 0.7813
534.80 0.7807
534.90 0.7801
535.00 0.7796
535.10 0.779
535.20 0.7785
535.30 0.7779
535.40 0.7774
535.50 0.7768
535.60 0.7763
535.70 0.7757
535.80 0.7752
535.90 0.7746
536.00 0.7741
536.10 0.7735
536.20 0.773
536.30 0.7724
536.40 0.7719
536.50 0.7713
536.60 0.7708
536.70 0.7702
536.80 0.7697
536.90 0.7691
537.00 0.7686
537.10 0.768
537.20 0.7675
537.30 0.7669
537.40 0.7664
537.50 0.7658
537.60 0.7653
537.70 0.7648
537.80 0.7642
537.90 0.7637
538.00 0.7631
538.10 0.7626
538.20 0.762
538.30 0.7615
538.40 0.761
538.50 0.7604
538.60 0.7599
538.70 0.7593
538.80 0.7588
538.90 0.7583
539.00 0.7577
539.10 0.7572
539.20 0.7567
539.30 0.7561
539.40 0.7556
539.50 0.7551
539.60 0.7545
539.70 0.754
539.80 0.7535
539.90 0.7529
540.00 0.7524
540.10 0.7519
540.20 0.7513
540.30 0.7508
540.40 0.7503
540.50 0.7497
540.60 0.7492
540.70 0.7487
540.80 0.7481
540.90 0.7476
541.00 0.7471
541.10 0.7466
541.20 0.746
541.30 0.7455
541.40 0.745
541.50 0.7445
541.60 0.7439
541.70 0.7434
541.80 0.7429
541.90 0.7424
542.00 0.7418
542.10 0.7413
542.20 0.7408
542.30 0.7403
542.40 0.7397
542.50 0.7392
542.60 0.7387
542.70 0.7382
542.80 0.7377
542.90 0.7371
543.00 0.7366
543.10 0.7361
543.20 0.7356
543.30 0.7351
543.40 0.7346
543.50 0.734
543.60 0.7335
543.70 0.733
543.80 0.7325
543.90 0.732
544.00 0.7315
544.10 0.731
544.20 0.7304
544.30 0.7299
544.40 0.7294
544.50 0.7289
544.60 0.7284
544.70 0.7279
544.80 0.7274
544.90 0.7269
545.00 0.7263
545.10 0.7258
545.20 0.7253
545.30 0.7248
545.40 0.7243
545.50 0.7238
545.60 0.7233
545.70 0.7228
545.80 0.7223
545.90 0.7218
546.00 0.7213
546.10 0.7208
546.20 0.7203
546.30 0.7198
546.40 0.7193
546.50 0.7188
546.60 0.7182
546.70 0.7177
546.80 0.7172
546.90 0.7167
547.00 0.7162
547.10 0.7157
547.20 0.7152
547.30 0.7147
547.40 0.7142
547.50 0.7137
547.60 0.7132
547.70 0.7127
547.80 0.7122
547.90 0.7118
548.00 0.7113
548.10 0.7108
548.20 0.7103
548.30 0.7098
548.40 0.7093
548.50 0.7088
548.60 0.7083
548.70 0.7078
548.80 0.7073
548.90 0.7068
549.00 0.7063
549.10 0.7058
549.20 0.7053
549.30 0.7048
549.40 0.7043
549.50 0.7039
549.60 0.7034
549.70 0.7029
549.80 0.7024
549.90 0.7019
550.00 0.7014
550.10 0.7009
550.20 0.7004
550.30 0.6999
550.40 0.6995
550.50 0.699
550.60 0.6985
550.70 0.698
550.80 0.6975
550.90 0.697
551.00 0.6966
551.10 0.6961
551.20 0.6956
551.30 0.6951
551.40 0.6946
551.50 0.6941
551.60 0.6937
551.70 0.6932
551.80 0.6927
551.90 0.6922
552.00 0.6917
552.10 0.6913
552.20 0.6908
552.30 0.6903
552.40 0.6898
552.50 0.6893
552.60 0.6889
552.70 0.6884
552.80 0.6879
552.90 0.6874
553.00 0.687
553.10 0.6865
553.20 0.686
553.30 0.6855
553.40 0.6851
553.50 0.6846
553.60 0.6841
553.70 0.6836
553.80 0.6832
553.90 0.6827
554.00 0.6822
554.10 0.6817
554.20 0.6813
554.30 0.6808
554.40 0.6803
554.50 0.6799
554.60 0.6794
554.70 0.6789
554.80 0.6785
554.90 0.678
555.00 0.6775
555.10 0.6771
555.20 0.6766
555.30 0.6761
555.40 0.6757
555.50 0.6752
555.60 0.6747
555.70 0.6743
555.80 0.6738
555.90 0.6733
556.00 0.6729
556.10 0.6724
556.20 0.6719
556.30 0.6715
556.40 0.671
556.50 0.6706
556.60 0.6701
556.70 0.6696
556.80 0.6692
556.90 0.6687
557.00 0.6683
557.10 0.6678
557.20 0.6673
557.30 0.6669
557.40 0.6664
557.50 0.666
557.60 0.6655
557.70 0.6651
557.80 0.6646
557.90 0.6641
558.00 0.6637
558.10 0.6632
558.20 0.6628
558.30 0.6623
558.40 0.6619
558.50 0.6614
558.60 0.661
558.70 0.6605
558.80 0.66
558.90 0.6596
559.00 0.6591
559.10 0.6587
559.20 0.6582
559.30 0.6578
559.40 0.6573
559.50 0.6569
559.60 0.6564
559.70 0.656
559.80 0.6555
559.90 0.6551
560.00 0.6546
560.10 0.6542
560.20 0.6538
560.30 0.6533
560.40 0.6529
560.50 0.6524
560.60 0.652
560.70 0.6515
560.80 0.6511
560.90 0.6506
561.00 0.6502
561.10 0.6497
561.20 0.6493
561.30 0.6489
561.40 0.6484
561.50 0.648
561.60 0.6475
561.70 0.6471
561.80 0.6466
561.90 0.6462
562.00 0.6458
562.10 0.6453
562.20 0.6449
562.30 0.6444
562.40 0.644
562.50 0.6436
562.60 0.6431
562.70 0.6427
562.80 0.6423
562.90 0.6418
563.00 0.6414
563.10 0.6409
563.20 0.6405
563.30 0.6401
563.40 0.6396
563.50 0.6392
563.60 0.6388
563.70 0.6383
563.80 0.6379
563.90 0.6375
564.00 0.637
564.10 0.6366
564.20 0.6362
564.30 0.6357
564.40 0.6353
564.50 0.6349
564.60 0.6344
564.70 0.634
564.80 0.6336
564.90 0.6331
565.00 0.6327
565.10 0.6323
565.20 0.6319
565.30 0.6314
565.40 0.631
565.50 0.6306
565.60 0.6302
565.70 0.6297
565.80 0.6293
565.90 0.6289
566.00 0.6284
566.10 0.628
566.20 0.6276
566.30 0.6272
566.40 0.6267
566.50 0.6263
566.60 0.6259
566.70 0.6255
566.80 0.6251
566.90 0.6246
567.00 0.6242
567.10 0.6238
567.20 0.6234
567.30 0.6229
567.40 0.6225
567.50 0.6221
567.60 0.6217
567.70 0.6213
567.80 0.6208
567.90 0.6204
568.00 0.62
568.10 0.6196
568.20 0.6192
568.30 0.6187
568.40 0.6183
568.50 0.6179
568.60 0.6175
568.70 0.6171
568.80 0.6167
568.90 0.6162
569.00 0.6158
569.10 0.6154
569.20 0.615
569.30 0.6146
569.40 0.6142
569.50 0.6138
569.60 0.6133
569.70 0.6129
569.80 0.6125
569.90 0.6121
570.00 0.6117
570.10 0.6113
570.20 0.6109
570.30 0.6105
570.40 0.6101
570.50 0.6096
570.60 0.6092
570.70 0.6088
570.80 0.6084
570.90 0.608
571.00 0.6076
571.10 0.6072
571.20 0.6068
571.30 0.6064
571.40 0.606
571.50 0.6056
571.60 0.6052
571.70 0.6048
571.80 0.6043
571.90 0.6039
572.00 0.6035
572.10 0.6031
572.20 0.6027
572.30 0.6023
572.40 0.6019
572.50 0.6015
572.60 0.6011
572.70 0.6007
572.80 0.6003
572.90 0.5999
573.00 0.5995
573.10 0.5991
573.20 0.5987
573.30 0.5983
573.40 0.5979
573.50 0.5975
573.60 0.5971
573.70 0.5967
573.80 0.5963
573.90 0.5959
574.00 0.5955
574.10 0.5951
574.20 0.5947
574.30 0.5943
574.40 0.5939
574.50 0.5935
574.60 0.5931
574.70 0.5927
574.80 0.5923
574.90 0.5919
575.00 0.5915
575.10 0.5911
575.20 0.5908
575.30 0.5904
575.40 0.59
575.50 0.5896
575.60 0.5892
575.70 0.5888
575.80 0.5884
575.90 0.588
576.00 0.5876
576.10 0.5872
576.20 0.5868
576.30 0.5864
576.40 0.586
576.50 0.5857
576.60 0.5853
576.70 0.5849
576.80 0.5845
576.90 0.5841
577.00 0.5837
577.10 0.5833
577.20 0.5829
577.30 0.5825
577.40 0.5822
577.50 0.5818
577.60 0.5814
577.70 0.581
577.80 0.5806
577.90 0.5802
578.00 0.5798
578.10 0.5795
578.20 0.5791
578.30 0.5787
578.40 0.5783
578.50 0.5779
578.60 0.5775
578.70 0.5772
578.80 0.5768
578.90 0.5764
579.00 0.576
579.10 0.5756
579.20 0.5752
579.30 0.5749
579.40 0.5745
579.50 0.5741
579.60 0.5737
579.70 0.5733
579.80 0.573
579.90 0.5726
580.00 0.5722
580.10 0.5718
580.20 0.5714
580.30 0.5711
580.40 0.5707
580.50 0.5703
580.60 0.5699
580.70 0.5696
580.80 0.5692
580.90 0.5688
581.00 0.5684
581.10 0.5681
581.20 0.5677
581.30 0.5673
581.40 0.5669
581.50 0.5666
581.60 0.5662
581.70 0.5658
581.80 0.5654
581.90 0.5651
582.00 0.5647
582.10 0.5643
582.20 0.5639
582.30 0.5636
582.40 0.5632
582.50 0.5628
582.60 0.5625
582.70 0.5621
582.80 0.5617
582.90 0.5613
583.00 0.561
583.10 0.5606
583.20 0.5602
583.30 0.5599
583.40 0.5595
583.50 0.5591
583.60 0.5588
583.70 0.5584
583.80 0.558
583.90 0.5577
584.00 0.5573
584.10 0.5569
584.20 0.5566
584.30 0.5562
584.40 0.5558
584.50 0.5555
584.60 0.5551
584.70 0.5547
584.80 0.5544
584.90 0.554
585.00 0.5536
585.10 0.5533
585.20 0.5529
585.30 0.5526
585.40 0.5522
585.50 0.5518
585.60 0.5515
585.70 0.5511
585.80 0.5507
585.90 0.5504
586.00 0.55
586.10 0.5497
586.20 0.5493
586.30 0.5489
586.40 0.5486
586.50 0.5482
586.60 0.5479
586.70 0.5475
586.80 0.5472
586.90 0.5468
587.00 0.5464
587.10 0.5461
587.20 0.5457
587.30 0.5454
587.40 0.545
587.50 0.5447
587.60 0.5443
587.70 0.5439
587.80 0.5436
587.90 0.5432
588.00 0.5429
588.10 0.5425
588.20 0.5422
588.30 0.5418
588.40 0.5415
588.50 0.5411
588.60 0.5407
588.70 0.5404
588.80 0.54
588.90 0.5397
589.00 0.5393
589.10 0.539
589.20 0.5386
589.30 0.5383
589.40 0.5379
589.50 0.5376
589.60 0.5372
589.70 0.5369
589.80 0.5365
589.90 0.5362
590.00 0.5358
590.10 0.5355
590.20 0.5351
590.30 0.5348
590.40 0.5344
590.50 0.5341
590.60 0.5337
590.70 0.5334
590.80 0.533
590.90 0.5327
591.00 0.5324
591.10 0.532
591.20 0.5317
591.30 0.5313
591.40 0.531
591.50 0.5306
591.60 0.5303
591.70 0.5299
591.80 0.5296
591.90 0.5292
592.00 0.5289
592.10 0.5286
592.20 0.5282
592.30 0.5279
592.40 0.5275
592.50 0.5272
592.60 0.5268
592.70 0.5265
592.80 0.5262
592.90 0.5258
593.00 0.5255
593.10 0.5251
593.20 0.5248
593.30 0.5245
593.40 0.5241
593.50 0.5238
593.60 0.5234
593.70 0.5231
593.80 0.5228
593.90 0.5224
594.00 0.5221
594.10 0.5217
594.20 0.5214
594.30 0.5211
594.40 0.5207
594.50 0.5204
594.60 0.5201
594.70 0.5197
594.80 0.5194
594.90 0.5191
595.00 0.5187
595.10 0.5184
595.20 0.518
595.30 0.5177
595.40 0.5174
595.50 0.517
595.60 0.5167
595.70 0.5164
595.80 0.516
595.90 0.5157
596.00 0.5154
596.10 0.515
596.20 0.5147
596.30 0.5144
596.40 0.5141
596.50 0.5137
596.60 0.5134
596.70 0.5131
596.80 0.5127
596.90 0.5124
597.00 0.5121
597.10 0.5117
597.20 0.5114
597.30 0.5111
597.40 0.5107
597.50 0.5104
597.60 0.5101
597.70 0.5098
597.80 0.5094
597.90 0.5091
598.00 0.5088
598.10 0.5084
598.20 0.5081
598.30 0.5078
598.40 0.5075
598.50 0.5071
598.60 0.5068
598.70 0.5065
598.80 0.5062
598.90 0.5058
599.00 0.5055
599.10 0.5052
599.20 0.5049
599.30 0.5045
599.40 0.5042
599.50 0.5039
599.60 0.5036
599.70 0.5032
599.80 0.5029
599.90 0.5026
600.00 0.5023
600.10 0.502
600.20 0.5016
600.30 0.5013
600.40 0.501
600.50 0.5007
600.60 0.5003
600.70 0.5
600.80 0.4997
600.90 0.4994
601.00 0.4991
601.10 0.4987
601.20 0.4984
601.30 0.4981
601.40 0.4978
601.50 0.4975
601.60 0.4972
601.70 0.4968
601.80 0.4965
601.90 0.4962
602.00 0.4959
602.10 0.4956
602.20 0.4952
602.30 0.4949
602.40 0.4946
602.50 0.4943
602.60 0.494
602.70 0.4937
602.80 0.4933
602.90 0.493
603.00 0.4927
603.10 0.4924
603.20 0.4921
603.30 0.4918
603.40 0.4915
603.50 0.4911
603.60 0.4908
603.70 0.4905
603.80 0.4902
603.90 0.4899
604.00 0.4896
604.10 0.4893
604.20 0.489
604.30 0.4886
604.40 0.4883
604.50 0.488
604.60 0.4877
604.70 0.4874
604.80 0.4871
604.90 0.4868
605.00 0.4865
605.10 0.4862
605.20 0.4858
605.30 0.4855
605.40 0.4852
605.50 0.4849
605.60 0.4846
605.70 0.4843
605.80 0.484
605.90 0.4837
606.00 0.4834
606.10 0.4831
606.20 0.4828
606.30 0.4825
606.40 0.4822
606.50 0.4818
606.60 0.4815
606.70 0.4812
606.80 0.4809
606.90 0.4806
607.00 0.4803
607.10 0.48
607.20 0.4797
607.30 0.4794
607.40 0.4791
607.50 0.4788
607.60 0.4785
607.70 0.4782
607.80 0.4779
607.90 0.4776
608.00 0.4773
608.10 0.477
608.20 0.4767
608.30 0.4764
608.40 0.4761
608.50 0.4758
608.60 0.4755
608.70 0.4752
608.80 0.4749
608.90 0.4746
609.00 0.4743
609.10 0.474
609.20 0.4737
609.30 0.4734
609.40 0.4731
609.50 0.4728
609.60 0.4725
609.70 0.4722
609.80 0.4719
609.90 0.4716
610.00 0.4713
610.10 0.471
610.20 0.4707
610.30 0.4704
610.40 0.4701
610.50 0.4698
610.60 0.4695
610.70 0.4692
610.80 0.4689
610.90 0.4686
611.00 0.4683
611.10 0.468
611.20 0.4677
611.30 0.4674
611.40 0.4671
611.50 0.4668
611.60 0.4665
611.70 0.4662
611.80 0.4659
611.90 0.4656
612.00 0.4653
612.10 0.465
612.20 0.4647
612.30 0.4645
612.40 0.4642
612.50 0.4639
612.60 0.4636
612.70 0.4633
612.80 0.463
612.90 0.4627
613.00 0.4624
613.10 0.4621
613.20 0.4618
613.30 0.4615
613.40 0.4612
613.50 0.461
613.60 0.4607
613.70 0.4604
613.80 0.4601
613.90 0.4598
614.00 0.4595
614.10 0.4592
614.20 0.4589
614.30 0.4586
614.40 0.4583
614.50 0.4581
614.60 0.4578
614.70 0.4575
614.80 0.4572
614.90 0.4569
615.00 0.4566
615.10 0.4563
615.20 0.456
615.30 0.4558
615.40 0.4555
615.50 0.4552
615.60 0.4549
615.70 0.4546
615.80 0.4543
615.90 0.454
616.00 0.4538
616.10 0.4535
616.20 0.4532
616.30 0.4529
616.40 0.4526
616.50 0.4523
616.60 0.452
616.70 0.4518
616.80 0.4515
616.90 0.4512
617.00 0.4509
617.10 0.4506
617.20 0.4503
617.30 0.4501
617.40 0.4498
617.50 0.4495
617.60 0.4492
617.70 0.4489
617.80 0.4486
617.90 0.4484
618.00 0.4481
618.10 0.4478
618.20 0.4475
618.30 0.4472
618.40 0.447
618.50 0.4467
618.60 0.4464
618.70 0.4461
618.80 0.4458
618.90 0.4456
619.00 0.4453
619.10 0.445
619.20 0.4447
619.30 0.4444
619.40 0.4442
619.50 0.4439
619.60 0.4436
619.70 0.4433
619.80 0.443
619.90 0.4428
620.00 0.4425
620.10 0.4422
620.20 0.4419
620.30 0.4417
620.40 0.4414
620.50 0.4411
620.60 0.4408
620.70 0.4406
620.80 0.4403
620.90 0.44
621.00 0.4397
621.10 0.4395
621.20 0.4392
621.30 0.4389
621.40 0.4386
621.50 0.4384
621.60 0.4381
621.70 0.4378
621.80 0.4375
621.90 0.4373
622.00 0.437
622.10 0.4367
622.20 0.4364
622.30 0.4362
622.40 0.4359
622.50 0.4356
622.60 0.4353
622.70 0.4351
622.80 0.4348
622.90 0.4345
623.00 0.4343
623.10 0.434
623.20 0.4337
623.30 0.4334
623.40 0.4332
623.50 0.4329
623.60 0.4326
623.70 0.4324
623.80 0.4321
623.90 0.4318
624.00 0.4315
624.10 0.4313
624.20 0.431
624.30 0.4307
624.40 0.4305
624.50 0.4302
624.60 0.4299
624.70 0.4297
624.80 0.4294
624.90 0.4291
625.00 0.4288
625.10 0.4286
625.20 0.4283
625.30 0.428
625.40 0.4278
625.50 0.4275
625.60 0.4272
625.70 0.427
625.80 0.4267
625.90 0.4264
626.00 0.4262
626.10 0.4259
626.20 0.4256
626.30 0.4254
626.40 0.4251
626.50 0.4248
626.60 0.4246
626.70 0.4243
626.80 0.424
626.90 0.4238
627.00 0.4235
627.10 0.4232
627.20 0.423
627.30 0.4227
627.40 0.4224
627.50 0.4222
627.60 0.4219
627.70 0.4216
627.80 0.4214
627.90 0.4211
628.00 0.4209
628.10 0.4206
628.20 0.4203
628.30 0.4201
628.40 0.4198
628.50 0.4195
628.60 0.4193
628.70 0.419
628.80 0.4187
628.90 0.4185
629.00 0.4182
629.10 0.418
629.20 0.4177
629.30 0.4174
629.40 0.4172
629.50 0.4169
629.60 0.4166
629.70 0.4164
629.80 0.4161
629.90 0.4159
630.00 0.4156
630.10 0.4153
630.20 0.4151
630.30 0.4148
630.40 0.4145
630.50 0.4143
630.60 0.414
630.70 0.4138
630.80 0.4135
630.90 0.4132
631.00 0.413
631.10 0.4127
631.20 0.4125
631.30 0.4122
631.40 0.4119
631.50 0.4117
631.60 0.4114
631.70 0.4112
631.80 0.4109
631.90 0.4106
632.00 0.4104
632.10 0.4101
632.20 0.4099
632.30 0.4096
632.40 0.4093
632.50 0.4091
632.60 0.4088
632.70 0.4086
632.80 0.4083
632.90 0.408
633.00 0.4078
633.10 0.4075
633.20 0.4073
633.30 0.407
633.40 0.4067
633.50 0.4065
633.60 0.4062
633.70 0.406
633.80 0.4057
633.90 0.4054
634.00 0.4052
634.10 0.4049
634.20 0.4047
634.30 0.4044
634.40 0.4042
634.50 0.4039
634.60 0.4036
634.70 0.4034
634.80 0.4031
634.90 0.4029
635.00 0.4026
635.10 0.4023
635.20 0.4021
635.30 0.4018
635.40 0.4016
635.50 0.4013
635.60 0.401
635.70 0.4008
635.80 0.4005
635.90 0.4003
636.00 0.4
636.10 0.3998
636.20 0.3995
636.30 0.3992
636.40 0.399
636.50 0.3987
636.60 0.3985
636.70 0.3982
636.80 0.3979
636.90 0.3977
637.00 0.3974
637.10 0.3972
637.20 0.3969
637.30 0.3966
637.40 0.3964
637.50 0.3961
637.60 0.3959
637.70 0.3956
637.80 0.3953
637.90 0.3951
638.00 0.3948
638.10 0.3945
638.20 0.3943
638.30 0.394
638.40 0.3938
638.50 0.3935
638.60 0.3932
638.70 0.393
638.80 0.3927
638.90 0.3924
639.00 0.3922
639.10 0.3919
639.20 0.3917
639.30 0.3914
639.40 0.3911
639.50 0.3909
639.60 0.3906
639.70 0.3903
639.80 0.3901
639.90 0.3898
640.00 0.3895
640.10 0.3893
640.20 0.389
640.30 0.3887
640.40 0.3885
640.50 0.3882
640.60 0.3879
640.70 0.3877
640.80 0.3874
640.90 0.3871
641.00 0.3869
641.10 0.3866
641.20 0.3863
641.30 0.386
641.40 0.3858
641.50 0.3855
641.60 0.3852
641.70 0.3849
641.80 0.3847
641.90 0.3844
642.00 0.3841
642.10 0.3838
642.20 0.3836
642.30 0.3833
642.40 0.383
642.50 0.3827
642.60 0.3824
642.70 0.3822
642.80 0.3819
642.90 0.3816
643.00 0.3813
643.10 0.381
643.20 0.3807
643.30 0.3805
643.40 0.3802
643.50 0.3799
643.60 0.3796
643.70 0.3793
643.80 0.379
643.90 0.3787
644.00 0.3784
644.10 0.3781
644.20 0.3778
644.30 0.3775
644.40 0.3772
644.50 0.3769
644.60 0.3766
644.70 0.3763
644.80 0.376
644.90 0.3757
645.00 0.3754
645.10 0.3751
645.20 0.3748
645.30 0.3745
645.40 0.3742
645.50 0.3738
645.60 0.3735
645.70 0.3732
645.80 0.3729
645.90 0.3725
646.00 0.3722
646.10 0.3719
646.20 0.3716
646.30 0.3712
646.40 0.3709
646.50 0.3705
646.60 0.3702
646.70 0.3698
646.80 0.3695
646.90 0.3691
647.00 0.3688
647.10 0.3684
647.20 0.3681
647.30 0.3677
647.40 0.3674
647.50 0.367
647.60 0.3666
647.70 0.3662
647.80 0.3658
647.90 0.3655
648.00 0.3651
648.10 0.3647
648.20 0.3643
648.30 0.3639
648.40 0.3635
648.50 0.3631
648.60 0.3627
648.70 0.3622
648.80 0.3618
648.90 0.3614
649.00 0.361
649.10 0.3605
649.20 0.3601
649.30 0.3597
649.40 0.3592
649.50 0.3587
649.60 0.3582
649.70 0.3577
649.80 0.3572
649.90 0.3568
650.00 0.3563
650.10 0.3558
650.20 0.3553
650.30 0.3548
650.40 0.3542
650.50 0.3537
650.60 0.3531
650.70 0.3525
650.80 0.352
650.90 0.3514
651.00 0.3509
651.10 0.3503
651.20 0.3497
651.30 0.3491
651.40 0.3485
651.50 0.3478
651.60 0.3471
651.70 0.3465
651.80 0.3458
651.90 0.3451
652.00 0.3445
652.10 0.3438
652.20 0.3431
652.30 0.3424
652.40 0.3416
652.50 0.3408
652.60 0.34
652.70 0.3392
652.80 0.3384
652.90 0.3376
653.00 0.3368
653.10 0.336
653.20 0.3352
653.30 0.3344
653.40 0.3334
653.50 0.3325
653.60 0.3315
653.70 0.3305
653.80 0.3296
653.90 0.3286
654.00 0.3276
654.10 0.3267
654.20 0.3257
654.30 0.3247
654.40 0.3236
654.50 0.3225
654.60 0.3214
654.70 0.3204
654.80 0.3192
654.90 0.3181
655.00 0.3169
655.10 0.3158
655.20 0.3146
655.30 0.3134
655.40 0.3123
655.50 0.3111
655.60 0.3099
655.70 0.3088
655.80 0.3078
655.90 0.3068
656.00 0.3064
656.10 0.3063
656.20 0.3124
656.30 0.3249
656.40 0.3081
656.50 0.3055
656.60 0.3055
656.70 0.3057
656.80 0.3064
656.90 0.3071
657.00 0.3079
657.10 0.3087
657.20 0.3095
657.30 0.3103
657.40 0.3111
657.50 0.3119
657.60 0.3127
657.70 0.3135
657.80 0.3143
657.90 0.315
658.00 0.3157
658.10 0.3165
658.20 0.3172
658.30 0.3179
658.40 0.3185
658.50 0.319
658.60 0.3196
658.70 0.3202
658.80 0.3208
658.90 0.3213
659.00 0.3219
659.10 0.3225
659.20 0.3231
659.30 0.3236
659.40 0.324
659.50 0.3244
659.60 0.3248
659.70 0.3252
659.80 0.3256
659.90 0.326
660.00 0.3264
660.10 0.3268
660.20 0.3272
660.30 0.3276
660.40 0.3278
660.50 0.3281
660.60 0.3283
660.70 0.3286
660.80 0.3288
660.90 0.3291
661.00 0.3294
661.10 0.3296
661.20 0.3299
661.30 0.3301
661.40 0.3302
661.50 0.3304
661.60 0.3305
661.70 0.3307
661.80 0.3308
661.90 0.331
662.00 0.3311
662.10 0.3312
662.20 0.3314
662.30 0.3315
662.40 0.3316
662.50 0.3316
662.60 0.3317
662.70 0.3318
662.80 0.3318
662.90 0.3319
663.00 0.3319
663.10 0.332
663.20 0.3321
663.30 0.3321
663.40 0.3321
663.50 0.3321
663.60 0.3321
663.70 0.3321
663.80 0.3321
663.90 0.3321
664.00 0.3321
664.10 0.3321
664.20 0.3321
664.30 0.3321
664.40 0.332
664.50 0.332
664.60 0.3319
664.70 0.3319
664.80 0.3318
664.90 0.3318
665.00 0.3317
665.10 0.3317
665.20 0.3316
665.30 0.3316
665.40 0.3315
665.50 0.3314
665.60 0.3314
665.70 0.3313
665.80 0.3312
665.90 0.3311
666.00 0.331
666.10 0.3309
666.20 0.3309
666.30 0.3308
666.40 0.3307
666.50 0.3306
666.60 0.3305
666.70 0.3304
666.80 0.3303
666.90 0.3302
667.00 0.33
667.10 0.3299
667.20 0.3298
667.30 0.3297
667.40 0.3296
667.50 0.3295
667.60 0.3294
667.70 0.3292
667.80 0.3291
667.90 0.329
668.00 0.3289
668.10 0.3287
668.20 0.3286
668.30 0.3285
668.40 0.3284
668.50 0.3282
668.60 0.3281
668.70 0.328
668.80 0.3278
668.90 0.3277
669.00 0.3275
669.10 0.3274
669.20 0.3273
669.30 0.3271
669.40 0.327
669.50 0.3268
669.60 0.3267
669.70 0.3266
669.80 0.3264
669.90 0.3263
670.00 0.3261
670.10 0.326
670.20 0.3258
670.30 0.3257
670.40 0.3255
670.50 0.3254
670.60 0.3252
670.70 0.3251
670.80 0.3249
670.90 0.3248
671.00 0.3246
671.10 0.3245
671.20 0.3243
671.30 0.3242
671.40 0.324
671.50 0.3238
671.60 0.3237
671.70 0.3235
671.80 0.3234
671.90 0.3232
672.00 0.3231
672.10 0.3229
672.20 0.3227
672.30 0.3226
672.40 0.3224
672.50 0.3223
672.60 0.3221
672.70 0.3219
672.80 0.3218
672.90 0.3216
673.00 0.3214
673.10 0.3213
673.20 0.3211
673.30 0.321
673.40 0.3208
673.50 0.3206
673.60 0.3205
673.70 0.3203
673.80 0.3201
673.90 0.32
674.00 0.3198
674.10 0.3197
674.20 0.3195
674.30 0.3193
674.40 0.3192
674.50 0.319
674.60 0.3188
674.70 0.3187
674.80 0.3185
674.90 0.3183
675.00 0.3182
675.10 0.318
675.20 0.3178
675.30 0.3177
675.40 0.3175
675.50 0.3173
675.60 0.3172
675.70 0.317
675.80 0.3168
675.90 0.3167
676.00 0.3165
676.10 0.3163
676.20 0.3162
676.30 0.316
676.40 0.3158
676.50 0.3156
676.60 0.3155
676.70 0.3153
676.80 0.3151
676.90 0.315
677.00 0.3148
677.10 0.3146
677.20 0.3145
677.30 0.3143
677.40 0.3141
677.50 0.314
677.60 0.3138
677.70 0.3136
677.80 0.3135
677.90 0.3133
678.00 0.3131
678.10 0.3129
678.20 0.3128
678.30 0.3126
678.40 0.3124
678.50 0.3123
678.60 0.3121
678.70 0.3119
678.80 0.3118
678.90 0.3116
679.00 0.3114
679.10 0.3113
679.20 0.3111
679.30 0.3109
679.40 0.3108
679.50 0.3106
679.60 0.3104
679.70 0.3102
679.80 0.3101
679.90 0.3099
680.00 0.3097
680.10 0.3096
680.20 0.3094
680.30 0.3092
680.40 0.3091
680.50 0.3089
680.60 0.3087
680.70 0.3086
680.80 0.3084
680.90 0.3082
681.00 0.3081
681.10 0.3079
681.20 0.3077
681.30 0.3075
681.40 0.3074
681.50 0.3072
681.60 0.307
681.70 0.3069
681.80 0.3067
681.90 0.3065
682.00 0.3064
682.10 0.3062
682.20 0.306
682.30 0.3059
682.40 0.3057
682.50 0.3055
682.60 0.3054
682.70 0.3052
682.80 0.305
682.90 0.3049
683.00 0.3047
683.10 0.3045
683.20 0.3044
683.30 0.3042
683.40 0.304
683.50 0.3039
683.60 0.3037
683.70 0.3035
683.80 0.3034
683.90 0.3032
684.00 0.303
684.10 0.3029
684.20 0.3027
684.30 0.3025
684.40 0.3023
684.50 0.3022
684.60 0.302
684.70 0.3019
684.80 0.3017
684.90 0.3015
685.00 0.3014
685.10 0.3012
685.20 0.301
685.30 0.3009
685.40 0.3007
685.50 0.3005
685.60 0.3004
685.70 0.3002
685.80 0.3
685.90 0.2999
686.00 0.2997
686.10 0.2995
686.20 0.2994
686.30 0.2992
686.40 0.299
686.50 0.2989
686.60 0.2987
686.70 0.2985
686.80 0.2984
686.90 0.2982
687.00 0.298
687.10 0.2979
687.20 0.2977
687.30 0.2975
687.40 0.2974
687.50 0.2972
687.60 0.2971
687.70 0.2969
687.80 0.2967
687.90 0.2966
688.00 0.2964
688.10 0.2962
688.20 0.2961
688.30 0.2959
688.40 0.2957
688.50 0.2956
688.60 0.2954
688.70 0.2953
688.80 0.2951
688.90 0.2949
689.00 0.2948
689.10 0.2946
689.20 0.2944
689.30 0.2943
689.40 0.2941
689.50 0.294
689.60 0.2938
689.70 0.2936
689.80 0.2935
689.90 0.2933
690.00 0.2931
690.10 0.293
690.20 0.2928
690.30 0.2927
690.40 0.2925
690.50 0.2923
690.60 0.2922
690.70 0.292
690.80 0.2919
690.90 0.2917
691.00 0.2915
691.10 0.2914
691.20 0.2912
691.30 0.291
691.40 0.2909
691.50 0.2907
691.60 0.2906
691.70 0.2904
691.80 0.2902
691.90 0.2901
692.00 0.2899
692.10 0.2898
692.20 0.2896
692.30 0.2894
692.40 0.2893
692.50 0.2891
692.60 0.289
692.70 0.2888
692.80 0.2886
692.90 0.2885
693.00 0.2883
693.10 0.2882
693.20 0.288
693.30 0.2879
693.40 0.2877
693.50 0.2875
693.60 0.2874
693.70 0.2872
693.80 0.2871
693.90 0.2869
694.00 0.2867
694.10 0.2866
694.20 0.2864
694.30 0.2863
694.40 0.2861
694.50 0.2859
694.60 0.2858
694.70 0.2856
694.80 0.2855
694.90 0.2853
695.00 0.2852
695.10 0.285
695.20 0.2848
695.30 0.2847
695.40 0.2845
695.50 0.2844
695.60 0.2842
695.70 0.2841
695.80 0.2839
695.90 0.2838
696.00 0.2836
696.10 0.2834
696.20 0.2833
696.30 0.2831
696.40 0.283
696.50 0.2828
696.60 0.2827
696.70 0.2825
696.80 0.2824
696.90 0.2822
697.00 0.282
697.10 0.2819
697.20 0.2817
697.30 0.2816
697.40 0.2814
697.50 0.2813
697.60 0.2811
697.70 0.281
697.80 0.2808
697.90 0.2806
698.00 0.2805
698.10 0.2803
698.20 0.2802
698.30 0.28
698.40 0.2799
698.50 0.2797
698.60 0.2796
698.70 0.2794
698.80 0.2793
698.90 0.2791
699.00 0.279
699.10 0.2788
699.20 0.2786
699.30 0.2785
699.40 0.2783
699.50 0.2782
699.60 0.278
699.70 0.2779
699.80 0.2777
699.90 0.2776
700.00 0.2774
700.10 0.2773
700.20 0.2771
700.30 0.277
700.40 0.2768
700.50 0.2767
700.60 0.2765
700.70 0.2764
700.80 0.2762
700.90 0.2761
701.00 0.2759
701.10 0.2758
701.20 0.2756
701.30 0.2755
701.40 0.2753
701.50 0.2752
701.60 0.275
701.70 0.2749
701.80 0.2747
701.90 0.2746
702.00 0.2744
702.10 0.2743
702.20 0.2741
702.30 0.274
702.40 0.2738
702.50 0.2737
702.60 0.2735
702.70 0.2734
702.80 0.2732
702.90 0.2731
703.00 0.2729
703.10 0.2728
703.20 0.2726
703.30 0.2725
703.40 0.2723
703.50 0.2722
703.60 0.272
703.70 0.2719
703.80 0.2717
703.90 0.2716
704.00 0.2714
704.10 0.2713
704.20 0.2711
704.30 0.271
704.40 0.2708
704.50 0.2707
704.60 0.2705
704.70 0.2704
704.80 0.2702
704.90 0.2701
705.00 0.2699
705.10 0.2698
705.20 0.2696
705.30 0.2695
705.40 0.2693
705.50 0.2692
705.60 0.2691
705.70 0.2689
705.80 0.2688
705.90 0.2686
706.00 0.2685
706.10 0.2683
706.20 0.2682
706.30 0.268
706.40 0.2679
706.50 0.2677
706.60 0.2676
706.70 0.2674
706.80 0.2673
706.90 0.2672
707.00 0.267
707.10 0.2669
707.20 0.2667
707.30 0.2666
707.40 0.2664
707.50 0.2663
707.60 0.2661
707.70 0.266
707.80 0.2658
707.90 0.2657
708.00 0.2656
708.10 0.2654
708.20 0.2653
708.30 0.2651
708.40 0.265
708.50 0.2648
708.60 0.2647
708.70 0.2645
708.80 0.2644
708.90 0.2643
709.00 0.2641
709.10 0.264
709.20 0.2638
709.30 0.2637
709.40 0.2635
709.50 0.2634
709.60 0.2633
709.70 0.2631
709.80 0.263
709.90 0.2628
710.00 0.2627
710.10 0.2625
710.20 0.2624
710.30 0.2623
710.40 0.2621
710.50 0.262
710.60 0.2618
710.70 0.2617
710.80 0.2615
710.90 0.2614
711.00 0.2613
711.10 0.2611
711.20 0.261
711.30 0.2608
711.40 0.2607
711.50 0.2606
711.60 0.2604
711.70 0.2603
711.80 0.2601
711.90 0.26
712.00 0.2599
712.10 0.2597
712.20 0.2596
712.30 0.2594
712.40 0.2593
712.50 0.2592
712.60 0.259
712.70 0.2589
712.80 0.2587
712.90 0.2586
713.00 0.2585
713.10 0.2583
713.20 0.2582
713.30 0.258
713.40 0.2579
713.50 0.2578
713.60 0.2576
713.70 0.2575
713.80 0.2573
713.90 0.2572
714.00 0.2571
714.10 0.2569
714.20 0.2568
714.30 0.2566
714.40 0.2565
714.50 0.2564
714.60 0.2562
714.70 0.2561
714.80 0.2559
714.90 0.2558
715.00 0.2557
715.10 0.2555
715.20 0.2554
715.30 0.2553
715.40 0.2551
715.50 0.255
715.60 0.2548
715.70 0.2547
715.80 0.2546
715.90 0.2544
716.00 0.2543
716.10 0.2542
716.20 0.254
716.30 0.2539
716.40 0.2538
716.50 0.2536
716.60 0.2535
716.70 0.2533
716.80 0.2532
716.90 0.2531
717.00 0.2529
717.10 0.2528
717.20 0.2527
717.30 0.2525
717.40 0.2524
717.50 0.2523
717.60 0.2521
717.70 0.252
717.80 0.2519
717.90 0.2517
718.00 0.2516
718.10 0.2514
718.20 0.2513
718.30 0.2512
718.40 0.251
718.50 0.2509
718.60 0.2508
718.70 0.2506
718.80 0.2505
718.90 0.2504
719.00 0.2502
719.10 0.2501
719.20 0.25
719.30 0.2498
719.40 0.2497
719.50 0.2496
719.60 0.2494
719.70 0.2493
719.80 0.2492
719.90 0.249
720.00 0.2489
720.10 0.2488
720.20 0.2486
720.30 0.2485
720.40 0.2484
720.50 0.2482
720.60 0.2481
720.70 0.248
720.80 0.2478
720.90 0.2477
721.00 0.2476
721.10 0.2474
721.20 0.2473
721.30 0.2472
721.40 0.247
721.50 0.2469
721.60 0.2468
721.70 0.2466
721.80 0.2465
721.90 0.2464
722.00 0.2462
722.10 0.2461
722.20 0.246
722.30 0.2459
722.40 0.2457
722.50 0.2456
722.60 0.2455
722.70 0.2453
722.80 0.2452
722.90 0.2451
723.00 0.2449
723.10 0.2448
723.20 0.2447
723.30 0.2445
723.40 0.2444
723.50 0.2443
723.60 0.2441
723.70 0.244
723.80 0.2439
723.90 0.2438
724.00 0.2436
724.10 0.2435
724.20 0.2434
724.30 0.2432
724.40 0.2431
724.50 0.243
724.60 0.2428
724.70 0.2427
724.80 0.2426
724.90 0.2425
725.00 0.2423
725.10 0.2422
725.20 0.2421
725.30 0.2419
725.40 0.2418
725.50 0.2417
725.60 0.2416
725.70 0.2414
725.80 0.2413
725.90 0.2412
726.00 0.241
726.10 0.2409
726.20 0.2408
726.30 0.2407
726.40 0.2405
726.50 0.2404
726.60 0.2403
726.70 0.2402
726.80 0.24
726.90 0.2399
727.00 0.2398
727.10 0.2396
727.20 0.2395
727.30 0.2394
727.40 0.2393
727.50 0.2391
727.60 0.239
727.70 0.2389
727.80 0.2388
727.90 0.2386
728.00 0.2385
728.10 0.2384
728.20 0.2382
728.30 0.2381
728.40 0.238
728.50 0.2379
728.60 0.2377
728.70 0.2376
728.80 0.2375
728.90 0.2374
729.00 0.2372
729.10 0.2371
729.20 0.237
729.30 0.2369
729.40 0.2367
729.50 0.2366
729.60 0.2365
729.70 0.2364
729.80 0.2362
729.90 0.2361
730.00 0.236
730.10 0.2359
730.20 0.2357
730.30 0.2356
730.40 0.2355
730.50 0.2354
730.60 0.2352
730.70 0.2351
730.80 0.235
730.90 0.2349
731.00 0.2347
731.10 0.2346
731.20 0.2345
731.30 0.2344
731.40 0.2343
731.50 0.2341
731.60 0.234
731.70 0.2339
731.80 0.2338
731.90 0.2336
732.00 0.2335
732.10 0.2334
732.20 0.2333
732.30 0.2331
732.40 0.233
732.50 0.2329
732.60 0.2328
732.70 0.2327
732.80 0.2325
732.90 0.2324
733.00 0.2323
733.10 0.2322
733.20 0.2321
733.30 0.2319
733.40 0.2318
733.50 0.2317
733.60 0.2316
733.70 0.2314
733.80 0.2313
733.90 0.2312
734.00 0.2311
734.10 0.231
734.20 0.2308
734.30 0.2307
734.40 0.2306
734.50 0.2305
734.60 0.2303
734.70 0.2302
734.80 0.2301
734.90 0.23
735.00 0.2299
735.10 0.2297
735.20 0.2296
735.30 0.2295
735.40 0.2294
735.50 0.2293
735.60 0.2291
735.70 0.229
735.80 0.2289
735.90 0.2288
736.00 0.2287
736.10 0.2285
736.20 0.2284
736.30 0.2283
736.40 0.2282
736.50 0.2281
736.60 0.2279
736.70 0.2278
736.80 0.2277
736.90 0.2276
737.00 0.2275
737.10 0.2273
737.20 0.2272
737.30 0.2271
737.40 0.227
737.50 0.2269
737.60 0.2267
737.70 0.2266
737.80 0.2265
737.90 0.2264
738.00 0.2263
738.10 0.2261
738.20 0.226
738.30 0.2259
738.40 0.2258
738.50 0.2257
738.60 0.2256
738.70 0.2254
738.80 0.2253
738.90 0.2252
739.00 0.2251
739.10 0.225
739.20 0.2248
739.30 0.2247
739.40 0.2246
739.50 0.2245
739.60 0.2244
739.70 0.2242
739.80 0.2241
739.90 0.224
740.00 0.2239
740.10 0.2238
740.20 0.2237
740.30 0.2235
740.40 0.2234
740.50 0.2233
740.60 0.2232
740.70 0.2231
740.80 0.223
740.90 0.2229
741.00 0.2227
741.10 0.2226
741.20 0.2225
741.30 0.2224
741.40 0.2223
741.50 0.2222
741.60 0.222
741.70 0.2219
741.80 0.2218
741.90 0.2217
742.00 0.2216
742.10 0.2215
742.20 0.2214
742.30 0.2212
742.40 0.2211
742.50 0.221
742.60 0.2209
742.70 0.2208
742.80 0.2207
742.90 0.2206
743.00 0.2204
743.10 0.2203
743.20 0.2202
743.30 0.2201
743.40 0.22
743.50 0.2199
743.60 0.2198
743.70 0.2196
743.80 0.2195
743.90 0.2194
744.00 0.2193
744.10 0.2192
744.20 0.2191
744.30 0.219
744.40 0.2188
744.50 0.2187
744.60 0.2186
744.70 0.2185
744.80 0.2184
744.90 0.2183
745.00 0.2182
745.10 0.2181
745.20 0.2179
745.30 0.2178
745.40 0.2177
745.50 0.2176
745.60 0.2175
745.70 0.2174
745.80 0.2173
745.90 0.2171
746.00 0.217
746.10 0.2169
746.20 0.2168
746.30 0.2167
746.40 0.2166
746.50 0.2165
746.60 0.2164
746.70 0.2162
746.80 0.2161
746.90 0.216
747.00 0.2159
747.10 0.2158
747.20 0.2157
747.30 0.2156
747.40 0.2155
747.50 0.2154
747.60 0.2152
747.70 0.2151
747.80 0.215
747.90 0.2149
748.00 0.2148
748.10 0.2147
748.20 0.2146
748.30 0.2145
748.40 0.2143
748.50 0.2142
748.60 0.2141
748.70 0.214
748.80 0.2139
748.90 0.2138
749.00 0.2137
749.10 0.2136
749.20 0.2135
749.30 0.2133
749.40 0.2132
749.50 0.2131
749.60 0.213
749.70 0.2129
749.80 0.2128
749.90 0.2127
750.00 0.2126
750.10 0.2125
750.20 0.2124
750.30 0.2122
750.40 0.2121
750.50 0.212
750.60 0.2119
750.70 0.2118
750.80 0.2117
750.90 0.2116
751.00 0.2115
751.10 0.2114
751.20 0.2113
751.30 0.2112
751.40 0.2111
751.50 0.2109
751.60 0.2108
751.70 0.2107
751.80 0.2106
751.90 0.2105
752.00 0.2104
752.10 0.2103
752.20 0.2102
752.30 0.2101
752.40 0.21
752.50 0.2099
752.60 0.2098
752.70 0.2097
752.80 0.2095
752.90 0.2094
753.00 0.2093
753.10 0.2092
753.20 0.2091
753.30 0.209
753.40 0.2089
753.50 0.2088
753.60 0.2087
753.70 0.2086
753.80 0.2085
753.90 0.2084
754.00 0.2083
754.10 0.2082
754.20 0.2081
754.30 0.2079
754.40 0.2078
754.50 0.2077
754.60 0.2076
754.70 0.2075
754.80 0.2074
754.90 0.2073
755.00 0.2072
755.10 0.2071
755.20 0.207
755.30 0.2069
755.40 0.2068
755.50 0.2067
755.60 0.2066
755.70 0.2065
755.80 0.2064
755.90 0.2062
756.00 0.2061
756.10 0.206
756.20 0.2059
756.30 0.2058
756.40 0.2057
756.50 0.2056
756.60 0.2055
756.70 0.2054
756.80 0.2053
756.90 0.2052
757.00 0.2051
757.10 0.205
757.20 0.2049
757.30 0.2048
757.40 0.2047
757.50 0.2046
757.60 0.2045
757.70 0.2044
757.80 0.2042
757.90 0.2041
758.00 0.204
758.10 0.2039
758.20 0.2038
758.30 0.2037
758.40 0.2036
758.50 0.2035
758.60 0.2034
758.70 0.2033
758.80 0.2032
758.90 0.2031
759.00 0.203
759.10 0.2029
759.20 0.2028
759.30 0.2027
759.40 0.2026
759.50 0.2025
759.60 0.2024
759.70 0.2023
759.80 0.2022
759.90 0.2021
760.00 0.202
760.10 0.2019
760.20 0.2018
760.30 0.2016
760.40 0.2015
760.50 0.2014
760.60 0.2013
760.70 0.2012
760.80 0.2011
760.90 0.201
761.00 0.2009
761.10 0.2008
761.20 0.2007
761.30 0.2006
761.40 0.2005
761.50 0.2004
761.60 0.2003
761.70 0.2002
761.80 0.2001
761.90 0.2
762.00 0.1999
762.10 0.1998
762.20 0.1997
762.30 0.1996
762.40 0.1995
762.50 0.1994
762.60 0.1993
762.70 0.1992
762.80 0.1991
762.90 0.199
763.00 0.1989
763.10 0.1988
763.20 0.1987
763.30 0.1986
763.40 0.1985
763.50 0.1984
763.60 0.1983
763.70 0.1982
763.80 0.1981
763.90 0.198
764.00 0.1979
764.10 0.1978
764.20 0.1977
764.30 0.1976
764.40 0.1975
764.50 0.1974
764.60 0.1973
764.70 0.1972
764.80 0.1971
764.90 0.197
765.00 0.1969
765.10 0.1968
765.20 0.1967
765.30 0.1966
765.40 0.1965
765.50 0.1964
765.60 0.1963
765.70 0.1962
765.80 0.1961
765.90 0.196
766.00 0.1959
766.10 0.1958
766.20 0.1957
766.30 0.1956
766.40 0.1955
766.50 0.1954
766.60 0.1953
766.70 0.1952
766.80 0.1951
766.90 0.195
767.00 0.1949
767.10 0.1948
767.20 0.1947
767.30 0.1946
767.40 0.1945
767.50 0.1944
767.60 0.1943
767.70 0.1942
767.80 0.1941
767.90 0.194
768.00 0.1939
768.10 0.1938
768.20 0.1938
768.30 0.1937
768.40 0.1936
768.50 0.1935
768.60 0.1934
768.70 0.1933
768.80 0.1932
768.90 0.1931
769.00 0.193
769.10 0.1929
769.20 0.1928
769.30 0.1927
769.40 0.1926
769.50 0.1925
769.60 0.1924
769.70 0.1923
769.80 0.1922
769.90 0.1921
770.00 0.192
770.10 0.1919
770.20 0.1918
770.30 0.1917
770.40 0.1916
770.50 0.1915
770.60 0.1914
770.70 0.1913
770.80 0.1912
770.90 0.1911
771.00 0.191
771.10 0.1909
771.20 0.1908
771.30 0.1908
771.40 0.1907
771.50 0.1906
771.60 0.1905
771.70 0.1904
771.80 0.1903
771.90 0.1902
772.00 0.1901
772.10 0.19
772.20 0.1899
772.30 0.1898
772.40 0.1897
772.50 0.1896
772.60 0.1895
772.70 0.1894
772.80 0.1893
772.90 0.1892
773.00 0.1891
773.10 0.189
773.20 0.189
773.30 0.1889
773.40 0.1888
773.50 0.1887
773.60 0.1886
773.70 0.1885
773.80 0.1884
773.90 0.1883
774.00 0.1882
774.10 0.1881
774.20 0.188
774.30 0.1879
774.40 0.1878
774.50 0.1877
774.60 0.1876
774.70 0.1875
774.80 0.1874
774.90 0.1874
775.00 0.1873
775.10 0.1872
775.20 0.1871
775.30 0.187
775.40 0.1869
775.50 0.1868
775.60 0.1867
775.70 0.1866
775.80 0.1865
775.90 0.1864
776.00 0.1863
776.10 0.1862
776.20 0.1861
776.30 0.186
776.40 0.186
776.50 0.1859
776.60 0.1858
776.70 0.1857
776.80 0.1856
776.90 0.1855
777.00 0.1854
777.10 0.1853
777.20 0.1852
777.30 0.1851
777.40 0.185
777.50 0.1849
777.60 0.1848
777.70 0.1848
777.80 0.1847
777.90 0.1846
778.00 0.1845
778.10 0.1844
778.20 0.1843
778.30 0.1842
778.40 0.1841
778.50 0.184
778.60 0.1839
778.70 0.1838
778.80 0.1837
778.90 0.1836
779.00 0.1836
779.10 0.1835
779.20 0.1834
779.30 0.1833
779.40 0.1832
779.50 0.1831
779.60 0.183
779.70 0.1829
779.80 0.1828
779.90 0.1827
780.00 0.1826
780.10 0.1825
780.20 0.1825
780.30 0.1824
780.40 0.1823
780.50 0.1822
780.60 0.1821
780.70 0.182
780.80 0.1819
780.90 0.1818
781.00 0.1817
781.10 0.1816
781.20 0.1816
781.30 0.1815
781.40 0.1814
781.50 0.1813
781.60 0.1812
781.70 0.1811
781.80 0.181
781.90 0.1809
782.00 0.1808
782.10 0.1808
782.20 0.1807
782.30 0.1806
782.40 0.1805
782.50 0.1804
782.60 0.1803
782.70 0.1802
782.80 0.1801
782.90 0.18
783.00 0.18
783.10 0.1799
783.20 0.1798
783.30 0.1797
783.40 0.1796
783.50 0.1795
783.60 0.1794
783.70 0.1793
783.80 0.1792
783.90 0.1792
784.00 0.1791
784.10 0.179
784.20 0.1789
784.30 0.1788
784.40 0.1787
784.50 0.1786
784.60 0.1785
784.70 0.1785
784.80 0.1784
784.90 0.1783
785.00 0.1782
785.10 0.1781
785.20 0.178
785.30 0.1779
785.40 0.1778
785.50 0.1778
785.60 0.1777
785.70 0.1776
785.80 0.1775
785.90 0.1774
786.00 0.1773
786.10 0.1772
786.20 0.1771
786.30 0.1771
786.40 0.177
786.50 0.1769
786.60 0.1768
786.70 0.1767
786.80 0.1766
786.90 0.1765
787.00 0.1764
787.10 0.1764
787.20 0.1763
787.30 0.1762
787.40 0.1761
787.50 0.176
787.60 0.1759
787.70 0.1758
787.80 0.1757
787.90 0.1757
788.00 0.1756
788.10 0.1755
788.20 0.1754
788.30 0.1753
788.40 0.1752
788.50 0.1751
788.60 0.1751
788.70 0.175
788.80 0.1749
788.90 0.1748
789.00 0.1747
789.10 0.1746
789.20 0.1745
789.30 0.1744
789.40 0.1744
789.50 0.1743
789.60 0.1742
789.70 0.1741
789.80 0.174
789.90 0.1739
790.00 0.1738
790.10 0.1738
790.20 0.1737
790.30 0.1736
790.40 0.1735
790.50 0.1734
790.60 0.1733
790.70 0.1733
790.80 0.1732
790.90 0.1731
791.00 0.173
791.10 0.1729
791.20 0.1728
791.30 0.1727
791.40 0.1727
791.50 0.1726
791.60 0.1725
791.70 0.1724
791.80 0.1723
791.90 0.1722
792.00 0.1722
792.10 0.1721
792.20 0.172
792.30 0.1719
792.40 0.1718
792.50 0.1717
792.60 0.1717
792.70 0.1716
792.80 0.1715
792.90 0.1714
793.00 0.1713
793.10 0.1712
793.20 0.1712
793.30 0.1711
793.40 0.171
793.50 0.1709
793.60 0.1708
793.70 0.1707
793.80 0.1707
793.90 0.1706
794.00 0.1705
794.10 0.1704
794.20 0.1703
794.30 0.1702
794.40 0.1702
794.50 0.1701
794.60 0.17
794.70 0.1699
794.80 0.1698
794.90 0.1697
795.00 0.1697
795.10 0.1696
795.20 0.1695
795.30 0.1694
795.40 0.1693
795.50 0.1692
795.60 0.1692
795.70 0.1691
795.80 0.169
795.90 0.1689
796.00 0.1688
796.10 0.1688
796.20 0.1687
796.30 0.1686
796.40 0.1685
796.50 0.1684
796.60 0.1683
796.70 0.1683
796.80 0.1682
796.90 0.1681
797.00 0.168
797.10 0.1679
797.20 0.1679
797.30 0.1678
797.40 0.1677
797.50 0.1676
797.60 0.1675
797.70 0.1674
797.80 0.1674
797.90 0.1673
798.00 0.1672
798.10 0.1671
798.20 0.167
798.30 0.167
798.40 0.1669
798.50 0.1668
798.60 0.1667
798.70 0.1666
798.80 0.1665
798.90 0.1665
799.00 0.1664
799.10 0.1663
799.20 0.1662
799.30 0.1661
799.40 0.1661
799.50 0.166
799.60 0.1659
799.70 0.1658
799.80 0.1657
799.90 0.1657
800.00 0.1656
800.10 0.1655
800.20 0.1654
800.30 0.1653
800.40 0.1653
800.50 0.1652
800.60 0.1651
800.70 0.165
800.80 0.1649
800.90 0.1649
801.00 0.1648
801.10 0.1647
801.20 0.1646
801.30 0.1645
801.40 0.1645
801.50 0.1644
801.60 0.1643
801.70 0.1642
801.80 0.1641
801.90 0.1641
802.00 0.164
802.10 0.1639
802.20 0.1638
802.30 0.1638
802.40 0.1637
802.50 0.1636
802.60 0.1635
802.70 0.1634
802.80 0.1634
802.90 0.1633
803.00 0.1632
803.10 0.1631
803.20 0.163
803.30 0.163
803.40 0.1629
803.50 0.1628
803.60 0.1627
803.70 0.1627
803.80 0.1626
803.90 0.1625
804.00 0.1624
804.10 0.1623
804.20 0.1623
804.30 0.1622
804.40 0.1621
804.50 0.162
804.60 0.162
804.70 0.1619
804.80 0.1618
804.90 0.1617
805.00 0.1616
805.10 0.1616
805.20 0.1615
805.30 0.1614
805.40 0.1613
805.50 0.1613
805.60 0.1612
805.70 0.1611
805.80 0.161
805.90 0.1609
806.00 0.1609
806.10 0.1608
806.20 0.1607
806.30 0.1606
806.40 0.1606
806.50 0.1605
806.60 0.1604
806.70 0.1603
806.80 0.1602
806.90 0.1602
807.00 0.1601
807.10 0.16
807.20 0.1599
807.30 0.1599
807.40 0.1598
807.50 0.1597
807.60 0.1596
807.70 0.1596
807.80 0.1595
807.90 0.1594
808.00 0.1593
808.10 0.1592
808.20 0.1592
808.30 0.1591
808.40 0.159
808.50 0.1589
808.60 0.1589
808.70 0.1588
808.80 0.1587
808.90 0.1586
809.00 0.1586
809.10 0.1585
809.20 0.1584
809.30 0.1583
809.40 0.1582
809.50 0.1582
809.60 0.1581
809.70 0.158
809.80 0.1579
809.90 0.1579
810.00 0.1578
810.10 0.1577
810.20 0.1576
810.30 0.1576
810.40 0.1575
810.50 0.1574
810.60 0.1573
810.70 0.1573
810.80 0.1572
810.90 0.1571
811.00 0.157
811.10 0.157
811.20 0.1569
811.30 0.1568
811.40 0.1567
811.50 0.1567
811.60 0.1566
811.70 0.1565
811.80 0.1564
811.90 0.1564
812.00 0.1563
812.10 0.1562
812.20 0.1562
812.30 0.1561
812.40 0.156
812.50 0.1559
812.60 0.1559
812.70 0.1558
812.80 0.1557
812.90 0.1556
813.00 0.1556
813.10 0.1555
813.20 0.1554
813.30 0.1553
813.40 0.1553
813.50 0.1552
813.60 0.1551
813.70 0.155
813.80 0.155
813.90 0.1549
814.00 0.1548
814.10 0.1547
814.20 0.1547
814.30 0.1546
814.40 0.1545
814.50 0.1545
814.60 0.1544
814.70 0.1543
814.80 0.1542
814.90 0.1542
815.00 0.1541
815.10 0.154
815.20 0.1539
815.30 0.1539
815.40 0.1538
815.50 0.1537
815.60 0.1536
815.70 0.1536
815.80 0.1535
815.90 0.1534
816.00 0.1534
816.10 0.1533
816.20 0.1532
816.30 0.1531
816.40 0.1531
816.50 0.153
816.60 0.1529
816.70 0.1528
816.80 0.1528
816.90 0.1527
817.00 0.1526
817.10 0.1526
817.20 0.1525
817.30 0.1524
817.40 0.1523
817.50 0.1523
817.60 0.1522
817.70 0.1521
817.80 0.152
817.90 0.152
818.00 0.1519
818.10 0.1518
818.20 0.1518
818.30 0.1517
818.40 0.1516
818.50 0.1515
818.60 0.1515
818.70 0.1514
818.80 0.1513
818.90 0.1513
819.00 0.1512
819.10 0.1511
819.20 0.151
819.30 0.151
819.40 0.1509
819.50 0.1508
819.60 0.1507
819.70 0.1507
819.80 0.1506
819.90 0.1505
820.00 0.1505
820.10 0.1504
820.20 0.1503
820.30 0.1502
820.40 0.1502
820.50 0.1501
820.60 0.15
820.70 0.15
820.80 0.1499
820.90 0.1498
821.00 0.1498
821.10 0.1497
821.20 0.1496
821.30 0.1495
821.40 0.1495
821.50 0.1494
821.60 0.1493
821.70 0.1493
821.80 0.1492
821.90 0.1491
822.00 0.149
822.10 0.149
822.20 0.1489
822.30 0.1488
822.40 0.1488
822.50 0.1487
822.60 0.1486
822.70 0.1486
822.80 0.1485
822.90 0.1484
823.00 0.1483
823.10 0.1483
823.20 0.1482
823.30 0.1481
823.40 0.1481
823.50 0.148
823.60 0.1479
823.70 0.1479
823.80 0.1478
823.90 0.1477
824.00 0.1477
824.10 0.1476
824.20 0.1475
824.30 0.1474
824.40 0.1474
824.50 0.1473
824.60 0.1472
824.70 0.1472
824.80 0.1471
824.90 0.147
825.00 0.147
825.10 0.1469
825.20 0.1468
825.30 0.1468
825.40 0.1467
825.50 0.1466
825.60 0.1465
825.70 0.1465
825.80 0.1464
825.90 0.1463
826.00 0.1463
826.10 0.1462
826.20 0.1461
826.30 0.1461
826.40 0.146
826.50 0.1459
826.60 0.1459
826.70 0.1458
826.80 0.1457
826.90 0.1456
827.00 0.1456
827.10 0.1455
827.20 0.1454
827.30 0.1454
827.40 0.1453
827.50 0.1452
827.60 0.1452
827.70 0.1451
827.80 0.145
827.90 0.145
828.00 0.1449
828.10 0.1448
828.20 0.1448
828.30 0.1447
828.40 0.1446
828.50 0.1446
828.60 0.1445
828.70 0.1444
828.80 0.1444
828.90 0.1443
829.00 0.1442
829.10 0.1442
829.20 0.1441
829.30 0.144
829.40 0.144
829.50 0.1439
829.60 0.1438
829.70 0.1438
829.80 0.1437
829.90 0.1436
830.00 0.1436
830.10 0.1435
830.20 0.1434
830.30 0.1434
830.40 0.1433
830.50 0.1432
830.60 0.1432
830.70 0.1431
830.80 0.143
830.90 0.1429
831.00 0.1429
831.10 0.1428
831.20 0.1427
831.30 0.1427
831.40 0.1426
831.50 0.1425
831.60 0.1425
831.70 0.1424
831.80 0.1423
831.90 0.1423
832.00 0.1422
832.10 0.1421
832.20 0.1421
832.30 0.142
832.40 0.142
832.50 0.1419
832.60 0.1418
832.70 0.1418
832.80 0.1417
832.90 0.1416
833.00 0.1416
833.10 0.1415
833.20 0.1414
833.30 0.1414
833.40 0.1413
833.50 0.1412
833.60 0.1412
833.70 0.1411
833.80 0.141
833.90 0.141
834.00 0.1409
834.10 0.1408
834.20 0.1408
834.30 0.1407
834.40 0.1406
834.50 0.1406
834.60 0.1405
834.70 0.1404
834.80 0.1404
834.90 0.1403
835.00 0.1402
835.10 0.1402
835.20 0.1401
835.30 0.14
835.40 0.14
835.50 0.1399
835.60 0.1398
835.70 0.1398
835.80 0.1397
835.90 0.1397
836.00 0.1396
836.10 0.1395
836.20 0.1395
836.30 0.1394
836.40 0.1393
836.50 0.1393
836.60 0.1392
836.70 0.1391
836.80 0.1391
836.90 0.139
837.00 0.1389
837.10 0.1389
837.20 0.1388
837.30 0.1387
837.40 0.1387
837.50 0.1386
837.60 0.1386
837.70 0.1385
837.80 0.1384
837.90 0.1384
838.00 0.1383
838.10 0.1382
838.20 0.1382
838.30 0.1381
838.40 0.138
838.50 0.138
838.60 0.1379
838.70 0.1378
838.80 0.1378
838.90 0.1377
839.00 0.1377
839.10 0.1376
839.20 0.1375
839.30 0.1375
839.40 0.1374
839.50 0.1373
839.60 0.1373
839.70 0.1372
839.80 0.1371
839.90 0.1371
840.00 0.137
840.10 0.137
840.20 0.1369
840.30 0.1368
840.40 0.1368
840.50 0.1367
840.60 0.1366
840.70 0.1366
840.80 0.1365
840.90 0.1364
841.00 0.1364
841.10 0.1363
841.20 0.1363
841.30 0.1362
841.40 0.1361
841.50 0.1361
841.60 0.136
841.70 0.1359
841.80 0.1359
841.90 0.1358
842.00 0.1358
842.10 0.1357
842.20 0.1356
842.30 0.1356
842.40 0.1355
842.50 0.1354
842.60 0.1354
842.70 0.1353
842.80 0.1353
842.90 0.1352
843.00 0.1351
843.10 0.1351
843.20 0.135
843.30 0.1349
843.40 0.1349
843.50 0.1348
843.60 0.1348
843.70 0.1347
843.80 0.1346
843.90 0.1346
844.00 0.1345
844.10 0.1344
844.20 0.1344
844.30 0.1343
844.40 0.1343
844.50 0.1342
844.60 0.1341
844.70 0.1341
844.80 0.134
844.90 0.1339
845.00 0.1339
845.10 0.1338
845.20 0.1338
845.30 0.1337
845.40 0.1336
845.50 0.1336
845.60 0.1335
845.70 0.1335
845.80 0.1334
845.90 0.1333
846.00 0.1333
846.10 0.1332
846.20 0.1331
846.30 0.1331
846.40 0.133
846.50 0.133
846.60 0.1329
846.70 0.1328
846.80 0.1328
846.90 0.1327
847.00 0.1327
847.10 0.1326
847.20 0.1325
847.30 0.1325
847.40 0.1324
847.50 0.1323
847.60 0.1323
847.70 0.1322
847.80 0.1322
847.90 0.1321
848.00 0.132
848.10 0.132
848.20 0.1319
848.30 0.1319
848.40 0.1318
848.50 0.1317
848.60 0.1317
848.70 0.1316
848.80 0.1316
848.90 0.1315
849.00 0.1314
849.10 0.1314
849.20 0.1313
849.30 0.1313
849.40 0.1312
849.50 0.1311
849.60 0.1311
849.70 0.131
849.80 0.131
849.90 0.1309
850.00 0.1308
850.10 0.1308
850.20 0.1307
850.30 0.1307
850.40 0.1306
850.50 0.1305
850.60 0.1305
850.70 0.1304
850.80 0.1304
850.90 0.1303
851.00 0.1302
851.10 0.1302
851.20 0.1301
851.30 0.1301
851.40 0.13
851.50 0.1299
851.60 0.1299
851.70 0.1298
851.80 0.1298
851.90 0.1297
852.00 0.1296
852.10 0.1296
852.20 0.1295
852.30 0.1295
852.40 0.1294
852.50 0.1293
852.60 0.1293
852.70 0.1292
852.80 0.1292
852.90 0.1291
853.00 0.129
853.10 0.129
853.20 0.1289
853.30 0.1289
853.40 0.1288
853.50 0.1288
853.60 0.1287
853.70 0.1286
853.80 0.1286
853.90 0.1285
854.00 0.1285
854.10 0.1284
854.20 0.1283
854.30 0.1283
854.40 0.1282
854.50 0.1282
854.60 0.1281
854.70 0.128
854.80 0.128
854.90 0.1279
855.00 0.1279
855.10 0.1278
855.20 0.1278
855.30 0.1277
855.40 0.1276
855.50 0.1276
855.60 0.1275
855.70 0.1275
855.80 0.1274
855.90 0.1273
856.00 0.1273
856.10 0.1272
856.20 0.1272
856.30 0.1271
856.40 0.1271
856.50 0.127
856.60 0.1269
856.70 0.1269
856.80 0.1268
856.90 0.1268
857.00 0.1267
857.10 0.1267
857.20 0.1266
857.30 0.1265
857.40 0.1265
857.50 0.1264
857.60 0.1264
857.70 0.1263
857.80 0.1263
857.90 0.1262
858.00 0.1261
858.10 0.1261
858.20 0.126
858.30 0.126
858.40 0.1259
858.50 0.1259
858.60 0.1258
858.70 0.1257
858.80 0.1257
858.90 0.1256
859.00 0.1256
859.10 0.1255
859.20 0.1255
859.30 0.1254
859.40 0.1254
859.50 0.1253
859.60 0.1252
859.70 0.1252
859.80 0.1251
859.90 0.1251
860.00 0.125
860.10 0.125
860.20 0.1249
860.30 0.1248
860.40 0.1248
860.50 0.1247
860.60 0.1247
860.70 0.1246
860.80 0.1246
860.90 0.1245
861.00 0.1245
861.10 0.1244
861.20 0.1243
861.30 0.1243
861.40 0.1242
861.50 0.1242
861.60 0.1241
861.70 0.1241
861.80 0.124
861.90 0.124
862.00 0.1239
862.10 0.1238
862.20 0.1238
862.30 0.1237
862.40 0.1237
862.50 0.1236
862.60 0.1236
862.70 0.1235
862.80 0.1234
862.90 0.1234
863.00 0.1233
863.10 0.1233
863.20 0.1232
863.30 0.1232
863.40 0.1231
863.50 0.1231
863.60 0.123
863.70 0.1229
863.80 0.1229
863.90 0.1228
864.00 0.1228
864.10 0.1227
864.20 0.1227
864.30 0.1226
864.40 0.1226
864.50 0.1225
864.60 0.1224
864.70 0.1224
864.80 0.1223
864.90 0.1223
865.00 0.1222
865.10 0.1222
865.20 0.1221
865.30 0.1221
865.40 0.122
865.50 0.1219
865.60 0.1219
865.70 0.1218
865.80 0.1218
865.90 0.1217
866.00 0.1217
866.10 0.1216
866.20 0.1216
866.30 0.1215
866.40 0.1215
866.50 0.1214
866.60 0.1213
866.70 0.1213
866.80 0.1212
866.90 0.1212
867.00 0.1211
867.10 0.1211
867.20 0.121
867.30 0.121
867.40 0.1209
867.50 0.1209
867.60 0.1208
867.70 0.1207
867.80 0.1207
867.90 0.1206
868.00 0.1206
868.10 0.1205
868.20 0.1205
868.30 0.1204
868.40 0.1204
868.50 0.1203
868.60 0.1203
868.70 0.1202
868.80 0.1202
868.90 0.1201
869.00 0.12
869.10 0.12
869.20 0.1199
869.30 0.1199
869.40 0.1198
869.50 0.1198
869.60 0.1197
869.70 0.1197
869.80 0.1196
869.90 0.1196
870.00 0.1195
870.10 0.1195
870.20 0.1194
870.30 0.1193
870.40 0.1193
870.50 0.1192
870.60 0.1192
870.70 0.1191
870.80 0.1191
870.90 0.119
871.00 0.119
871.10 0.1189
871.20 0.1189
871.30 0.1188
871.40 0.1188
871.50 0.1187
871.60 0.1187
871.70 0.1186
871.80 0.1185
871.90 0.1185
872.00 0.1184
872.10 0.1184
872.20 0.1183
872.30 0.1183
872.40 0.1182
872.50 0.1182
872.60 0.1181
872.70 0.1181
872.80 0.118
872.90 0.118
873.00 0.1179
873.10 0.1179
873.20 0.1178
873.30 0.1178
873.40 0.1177
873.50 0.1177
873.60 0.1176
873.70 0.1175
873.80 0.1175
873.90 0.1174
874.00 0.1174
874.10 0.1173
874.20 0.1173
874.30 0.1172
874.40 0.1172
874.50 0.1171
874.60 0.1171
874.70 0.117
874.80 0.117
874.90 0.1169
875.00 0.1169
875.10 0.1168
875.20 0.1168
875.30 0.1167
875.40 0.1167
875.50 0.1166
875.60 0.1166
875.70 0.1165
875.80 0.1164
875.90 0.1164
876.00 0.1163
876.10 0.1163
876.20 0.1162
876.30 0.1162
876.40 0.1161
876.50 0.1161
876.60 0.116
876.70 0.116
876.80 0.1159
876.90 0.1159
877.00 0.1158
877.10 0.1158
877.20 0.1157
877.30 0.1157
877.40 0.1156
877.50 0.1156
877.60 0.1155
877.70 0.1155
877.80 0.1154
877.90 0.1154
878.00 0.1153
878.10 0.1153
878.20 0.1152
878.30 0.1152
878.40 0.1151
878.50 0.1151
878.60 0.115
878.70 0.115
878.80 0.1149
878.90 0.1149
879.00 0.1148
879.10 0.1148
879.20 0.1147
879.30 0.1147
879.40 0.1146
879.50 0.1146
879.60 0.1145
879.70 0.1145
879.80 0.1144
879.90 0.1144
880.00 0.1143
880.10 0.1142
880.20 0.1142
880.30 0.1141
880.40 0.1141
880.50 0.114
880.60 0.114
880.70 0.1139
880.80 0.1139
880.90 0.1138
881.00 0.1138
881.10 0.1137
881.20 0.1137
881.30 0.1136
881.40 0.1136
881.50 0.1135
881.60 0.1135
881.70 0.1134
881.80 0.1134
881.90 0.1133
882.00 0.1133
882.10 0.1132
882.20 0.1132
882.30 0.1131
882.40 0.1131
882.50 0.113
882.60 0.113
882.70 0.1129
882.80 0.1129
882.90 0.1128
883.00 0.1128
883.10 0.1127
883.20 0.1127
883.30 0.1126
883.40 0.1126
883.50 0.1125
883.60 0.1125
883.70 0.1124
883.80 0.1124
883.90 0.1123
884.00 0.1123
884.10 0.1123
884.20 0.1122
884.30 0.1122
884.40 0.1121
884.50 0.1121
884.60 0.112
884.70 0.112
884.80 0.1119
884.90 0.1119
885.00 0.1118
885.10 0.1118
885.20 0.1117
885.30 0.1117
885.40 0.1116
885.50 0.1116
885.60 0.1115
885.70 0.1115
885.80 0.1114
885.90 0.1114
886.00 0.1113
886.10 0.1113
886.20 0.1112
886.30 0.1112
886.40 0.1111
886.50 0.1111
886.60 0.111
886.70 0.111
886.80 0.1109
886.90 0.1109
887.00 0.1108
887.10 0.1108
887.20 0.1107
887.30 0.1107
887.40 0.1106
887.50 0.1106
887.60 0.1105
887.70 0.1105
887.80 0.1104
887.90 0.1104
888.00 0.1103
888.10 0.1103
888.20 0.1102
888.30 0.1102
888.40 0.1101
888.50 0.1101
888.60 0.1101
888.70 0.11
888.80 0.11
888.90 0.1099
889.00 0.1099
889.10 0.1098
889.20 0.1098
889.30 0.1097
889.40 0.1097
889.50 0.1096
889.60 0.1096
889.70 0.1095
889.80 0.1095
889.90 0.1094
890.00 0.1094
890.10 0.1093
890.20 0.1093
890.30 0.1092
890.40 0.1092
890.50 0.1091
890.60 0.1091
890.70 0.109
890.80 0.109
890.90 0.109
891.00 0.1089
891.10 0.1089
891.20 0.1088
891.30 0.1088
891.40 0.1087
891.50 0.1087
891.60 0.1086
891.70 0.1086
891.80 0.1085
891.90 0.1085
892.00 0.1084
892.10 0.1084
892.20 0.1083
892.30 0.1083
892.40 0.1082
892.50 0.1082
892.60 0.1081
892.70 0.1081
892.80 0.1081
892.90 0.108
893.00 0.108
893.10 0.1079
893.20 0.1079
893.30 0.1078
893.40 0.1078
893.50 0.1077
893.60 0.1077
893.70 0.1076
893.80 0.1076
893.90 0.1075
894.00 0.1075
894.10 0.1074
894.20 0.1074
894.30 0.1074
894.40 0.1073
894.50 0.1073
894.60 0.1072
894.70 0.1072
894.80 0.1071
894.90 0.1071
895.00 0.107
895.10 0.107
895.20 0.1069
895.30 0.1069
895.40 0.1068
895.50 0.1068
895.60 0.1067
895.70 0.1067
895.80 0.1067
895.90 0.1066
896.00 0.1066
896.10 0.1065
896.20 0.1065
896.30 0.1064
896.40 0.1064
896.50 0.1063
896.60 0.1063
896.70 0.1062
896.80 0.1062
896.90 0.1061
897.00 0.1061
897.10 0.1061
897.20 0.106
897.30 0.106
897.40 0.1059
897.50 0.1059
897.60 0.1058
897.70 0.1058
897.80 0.1057
897.90 0.1057
898.00 0.1056
898.10 0.1056
898.20 0.1056
898.30 0.1055
898.40 0.1055
898.50 0.1054
898.60 0.1054
898.70 0.1053
898.80 0.1053
898.90 0.1052
899.00 0.1052
899.10 0.1051
899.20 0.1051
899.30 0.1051
899.40 0.105
899.50 0.105
899.60 0.1049
899.70 0.1049
899.80 0.1048
899.90 0.1048
900.00 0.1047
900.10 0.1047
900.20 0.1046
900.30 0.1046
900.40 0.1046
900.50 0.1045
900.60 0.1045
900.70 0.1044
900.80 0.1044
900.90 0.1043
901.00 0.1043
901.10 0.1042
901.20 0.1042
901.30 0.1042
901.40 0.1041
901.50 0.1041
901.60 0.104
901.70 0.104
901.80 0.1039
901.90 0.1039
902.00 0.1038
902.10 0.1038
902.20 0.1037
902.30 0.1037
902.40 0.1037
902.50 0.1036
902.60 0.1036
902.70 0.1035
902.80 0.1035
902.90 0.1034
903.00 0.1034
903.10 0.1033
903.20 0.1033
903.30 0.1033
903.40 0.1032
903.50 0.1032
903.60 0.1031
903.70 0.1031
903.80 0.103
903.90 0.103
904.00 0.103
904.10 0.1029
904.20 0.1029
904.30 0.1028
904.40 0.1028
904.50 0.1027
904.60 0.1027
904.70 0.1026
904.80 0.1026
904.90 0.1026
905.00 0.1025
905.10 0.1025
905.20 0.1024
905.30 0.1024
905.40 0.1023
905.50 0.1023
905.60 0.1022
905.70 0.1022
905.80 0.1022
905.90 0.1021
906.00 0.1021
906.10 0.102
906.20 0.102
906.30 0.1019
906.40 0.1019
906.50 0.1019
906.60 0.1018
906.70 0.1018
906.80 0.1017
906.90 0.1017
907.00 0.1016
907.10 0.1016
907.20 0.1015
907.30 0.1015
907.40 0.1015
907.50 0.1014
907.60 0.1014
907.70 0.1013
907.80 0.1013
907.90 0.1012
908.00 0.1012
908.10 0.1012
908.20 0.1011
908.30 0.1011
908.40 0.101
908.50 0.101
908.60 0.1009
908.70 0.1009
908.80 0.1009
908.90 0.1008
909.00 0.1008
909.10 0.1007
909.20 0.1007
909.30 0.1006
909.40 0.1006
909.50 0.1006
909.60 0.1005
909.70 0.1005
909.80 0.1004
909.90 0.1004
910.00 0.1003
910.10 0.1003
910.20 0.1003
910.30 0.1002
910.40 0.1002
910.50 0.1001
910.60 0.1001
910.70 0.1
910.80 0.1
910.90 0.09996
911.00 0.09992
911.10 0.09988
911.20 0.09983
911.30 0.09979
911.40 0.09975
911.50 0.09971
911.60 0.09966
911.70 0.09962
911.80 0.09958
911.90 0.09954
912.00 0.09949
912.10 0.09945
912.20 0.09941
912.30 0.09937
912.40 0.09933
912.50 0.09928
912.60 0.09924
912.70 0.0992
912.80 0.09916
912.90 0.09912
913.00 0.09907
913.10 0.09903
913.20 0.09899
913.30 0.09895
913.40 0.09891
913.50 0.09886
913.60 0.09882
913.70 0.09878
913.80 0.09874
913.90 0.0987
914.00 0.09866
914.10 0.09861
914.20 0.09857
914.30 0.09853
914.40 0.09849
914.50 0.09845
914.60 0.0984
914.70 0.09836
914.80 0.09832
914.90 0.09828
915.00 0.09824
915.10 0.0982
915.20 0.09815
915.30 0.09811
915.40 0.09807
915.50 0.09803
915.60 0.09799
915.70 0.09795
915.80 0.09791
915.90 0.09786
916.00 0.09782
916.10 0.09778
916.20 0.09774
916.30 0.0977
916.40 0.09766
916.50 0.09762
916.60 0.09757
916.70 0.09753
916.80 0.09749
916.90 0.09745
917.00 0.09741
917.10 0.09737
917.20 0.09733
917.30 0.09729
917.40 0.09724
917.50 0.0972
917.60 0.09716
917.70 0.09712
917.80 0.09708
917.90 0.09704
918.00 0.097
918.10 0.09696
918.20 0.09692
918.30 0.09688
918.40 0.09684
918.50 0.0968
918.60 0.09676
918.70 0.09672
918.80 0.09668
918.90 0.09663
919.00 0.09659
919.10 0.09655
919.20 0.09651
919.30 0.09647
919.40 0.09643
919.50 0.09639
919.60 0.09635
919.70 0.09631
919.80 0.09627
919.90 0.09623
920.00 0.09619
920.10 0.09615
920.20 0.09611
920.30 0.09607
920.40 0.09603
920.50 0.09599
920.60 0.09595
920.70 0.09591
920.80 0.09587
920.90 0.09583
921.00 0.09579
921.10 0.09575
921.20 0.09571
921.30 0.09566
921.40 0.09562
921.50 0.09558
921.60 0.09554
921.70 0.0955
921.80 0.09546
921.90 0.09542
922.00 0.09538
922.10 0.09534
922.20 0.0953
922.30 0.09526
922.40 0.09522
922.50 0.09519
922.60 0.09515
922.70 0.09511
922.80 0.09507
922.90 0.09503
923.00 0.09499
923.10 0.09495
923.20 0.09491
923.30 0.09487
923.40 0.09483
923.50 0.09479
923.60 0.09475
923.70 0.09471
923.80 0.09467
923.90 0.09463
924.00 0.09459
924.10 0.09455
924.20 0.09451
924.30 0.09447
924.40 0.09443
924.50 0.09439
924.60 0.09436
924.70 0.09432
924.80 0.09428
924.90 0.09424
925.00 0.0942
925.10 0.09416
925.20 0.09412
925.30 0.09408
925.40 0.09404
925.50 0.094
925.60 0.09396
925.70 0.09392
925.80 0.09388
925.90 0.09384
926.00 0.09381
926.10 0.09377
926.20 0.09373
926.30 0.09369
926.40 0.09365
926.50 0.09361
926.60 0.09357
926.70 0.09353
926.80 0.09349
926.90 0.09345
927.00 0.09341
927.10 0.09338
927.20 0.09334
927.30 0.0933
927.40 0.09326
927.50 0.09322
927.60 0.09318
927.70 0.09314
927.80 0.09311
927.90 0.09307
928.00 0.09303
928.10 0.09299
928.20 0.09295
928.30 0.09291
928.40 0.09287
928.50 0.09284
928.60 0.0928
928.70 0.09276
928.80 0.09272
928.90 0.09268
929.00 0.09264
929.10 0.09261
929.20 0.09257
929.30 0.09253
929.40 0.09249
929.50 0.09245
929.60 0.09241
929.70 0.09238
929.80 0.09234
929.90 0.0923
930.00 0.09226
930.10 0.09222
930.20 0.09219
930.30 0.09215
930.40 0.09211
930.50 0.09207
930.60 0.09203
930.70 0.09199
930.80 0.09196
930.90 0.09192
931.00 0.09188
931.10 0.09184
931.20 0.0918
931.30 0.09177
931.40 0.09173
931.50 0.09169
931.60 0.09165
931.70 0.09161
931.80 0.09158
931.90 0.09154
932.00 0.0915
932.10 0.09146
932.20 0.09142
932.30 0.09139
932.40 0.09135
932.50 0.09131
932.60 0.09127
932.70 0.09124
932.80 0.0912
932.90 0.09116
933.00 0.09112
933.10 0.09109
933.20 0.09105
933.30 0.09101
933.40 0.09097
933.50 0.09093
933.60 0.0909
933.70 0.09086
933.80 0.09082
933.90 0.09078
934.00 0.09075
934.10 0.09071
934.20 0.09067
934.30 0.09063
934.40 0.0906
934.50 0.09056
934.60 0.09052
934.70 0.09048
934.80 0.09045
934.90 0.09041
935.00 0.09037
935.10 0.09033
935.20 0.0903
935.30 0.09026
935.40 0.09022
935.50 0.09018
935.60 0.09015
935.70 0.09011
935.80 0.09007
935.90 0.09004
936.00 0.09
936.10 0.08996
936.20 0.08992
936.30 0.08989
936.40 0.08985
936.50 0.08981
936.60 0.08977
936.70 0.08974
936.80 0.0897
936.90 0.08966
937.00 0.08963
937.10 0.08959
937.20 0.08955
937.30 0.08951
937.40 0.08948
937.50 0.08944
937.60 0.0894
937.70 0.08937
937.80 0.08933
937.90 0.08929
938.00 0.08926
938.10 0.08922
938.20 0.08918
938.30 0.08914
938.40 0.08911
938.50 0.08907
938.60 0.08903
938.70 0.089
938.80 0.08896
938.90 0.08892
939.00 0.08889
939.10 0.08885
939.20 0.08881
939.30 0.08878
939.40 0.08874
939.50 0.0887
939.60 0.08867
939.70 0.08863
939.80 0.08859
939.90 0.08855
940.00 0.08852
940.10 0.08848
940.20 0.08844
940.30 0.08841
940.40 0.08837
940.50 0.08833
940.60 0.0883
940.70 0.08826
940.80 0.08822
940.90 0.08819
941.00 0.08815
941.10 0.08811
941.20 0.08808
941.30 0.08804
941.40 0.08801
941.50 0.08797
941.60 0.08793
941.70 0.0879
941.80 0.08786
941.90 0.08782
942.00 0.08779
942.10 0.08775
942.20 0.08771
942.30 0.08768
942.40 0.08764
942.50 0.0876
942.60 0.08757
942.70 0.08753
942.80 0.08749
942.90 0.08746
943.00 0.08742
943.10 0.08739
943.20 0.08735
943.30 0.08731
943.40 0.08728
943.50 0.08724
943.60 0.0872
943.70 0.08717
943.80 0.08713
943.90 0.0871
944.00 0.08706
944.10 0.08702
944.20 0.08699
944.30 0.08695
944.40 0.08691
944.50 0.08688
944.60 0.08684
944.70 0.08681
944.80 0.08677
944.90 0.08673
945.00 0.0867
945.10 0.08666
945.20 0.08663
945.30 0.08659
945.40 0.08655
945.50 0.08652
945.60 0.08648
945.70 0.08645
945.80 0.08641
945.90 0.08637
946.00 0.08634
946.10 0.0863
946.20 0.08627
946.30 0.08623
946.40 0.08619
946.50 0.08616
946.60 0.08612
946.70 0.08609
946.80 0.08605
946.90 0.08602
947.00 0.08598
947.10 0.08594
947.20 0.08591
947.30 0.08587
947.40 0.08584
947.50 0.0858
947.60 0.08577
947.70 0.08573
947.80 0.08569
947.90 0.08566
948.00 0.08562
948.10 0.08559
948.20 0.08555
948.30 0.08552
948.40 0.08548
948.50 0.08545
948.60 0.08541
948.70 0.08537
948.80 0.08534
948.90 0.0853
949.00 0.08527
949.10 0.08523
949.20 0.0852
949.30 0.08516
949.40 0.08513
949.50 0.08509
949.60 0.08506
949.70 0.08502
949.80 0.08499
949.90 0.08495
950.00 0.08492
950.10 0.08488
950.20 0.08485
950.30 0.08481
950.40 0.08478
950.50 0.08474
950.60 0.08471
950.70 0.08467
950.80 0.08464
950.90 0.0846
951.00 0.08457
951.10 0.08453
951.20 0.0845
951.30 0.08446
951.40 0.08443
951.50 0.08439
951.60 0.08436
951.70 0.08432
951.80 0.08429
951.90 0.08425
952.00 0.08422
952.10 0.08418
952.20 0.08415
952.30 0.08412
952.40 0.08408
952.50 0.08405
952.60 0.08401
952.70 0.08398
952.80 0.08394
952.90 0.08391
953.00 0.08388
953.10 0.08384
953.20 0.08381
953.30 0.08377
953.40 0.08374
953.50 0.08371
953.60 0.08367
953.70 0.08364
953.80 0.08361
953.90 0.08357
954.00 0.08354
954.10 0.0835
954.20 0.08347
954.30 0.08344
954.40 0.08341
954.50 0.08337
954.60 0.08334
954.70 0.08331
954.80 0.08327
954.90 0.08324
955.00 0.0832
955.10 0.08317
955.20 0.08314
955.30 0.0831
955.40 0.08307
955.50 0.08304
955.60 0.083
955.70 0.08297
955.80 0.08294
955.90 0.0829
956.00 0.08287
956.10 0.08284
956.20 0.0828
956.30 0.08277
956.40 0.08274
956.50 0.08271
956.60 0.08267
956.70 0.08264
956.80 0.08261
956.90 0.08258
957.00 0.08254
957.10 0.08251
957.20 0.08248
957.30 0.08244
957.40 0.08241
957.50 0.08238
957.60 0.08235
957.70 0.08232
957.80 0.08228
957.90 0.08225
958.00 0.08222
958.10 0.08219
958.20 0.08215
958.30 0.08212
958.40 0.08209
958.50 0.08206
958.60 0.08203
958.70 0.08199
958.80 0.08196
958.90 0.08193
959.00 0.0819
959.10 0.08187
959.20 0.08183
959.30 0.0818
959.40 0.08177
959.50 0.08174
959.60 0.08171
959.70 0.08167
959.80 0.08164
959.90 0.08161
960.00 0.08158
960.10 0.08155
960.20 0.08151
960.30 0.08148
960.40 0.08145
960.50 0.08142
960.60 0.08139
960.70 0.08136
960.80 0.08132
960.90 0.08129
961.00 0.08126
961.10 0.08123
961.20 0.0812
961.30 0.08117
961.40 0.08113
961.50 0.0811
961.60 0.08107
961.70 0.08104
961.80 0.08101
961.90 0.08098
962.00 0.08095
962.10 0.08091
962.20 0.08088
962.30 0.08085
962.40 0.08082
962.50 0.08079
962.60 0.08076
962.70 0.08072
962.80 0.08069
962.90 0.08066
963.00 0.08063
963.10 0.0806
963.20 0.08057
963.30 0.08054
963.40 0.0805
963.50 0.08047
963.60 0.08044
963.70 0.08041
963.80 0.08038
963.90 0.08035
964.00 0.08032
964.10 0.08029
964.20 0.08025
964.30 0.08022
964.40 0.08019
964.50 0.08016
964.60 0.08013
964.70 0.0801
964.80 0.08007
964.90 0.08004
965.00 0.08
965.10 0.07997
965.20 0.07994
965.30 0.07991
965.40 0.07988
965.50 0.07985
965.60 0.07982
965.70 0.07979
965.80 0.07975
965.90 0.07972
966.00 0.07969
966.10 0.07966
966.20 0.07963
966.30 0.0796
966.40 0.07957
966.50 0.07954
966.60 0.07951
966.70 0.07947
966.80 0.07944
966.90 0.07941
967.00 0.07938
967.10 0.07935
967.20 0.07932
967.30 0.07929
967.40 0.07926
967.50 0.07923
967.60 0.07919
967.70 0.07916
967.80 0.07913
967.90 0.0791
968.00 0.07907
968.10 0.07904
968.20 0.07901
968.30 0.07898
968.40 0.07895
968.50 0.07892
968.60 0.07888
968.70 0.07885
968.80 0.07882
968.90 0.07879
969.00 0.07876
969.10 0.07873
969.20 0.0787
969.30 0.07867
969.40 0.07864
969.50 0.07861
969.60 0.07857
969.70 0.07854
969.80 0.07851
969.90 0.07848
970.00 0.07845
970.10 0.07842
970.20 0.07839
970.30 0.07836
970.40 0.07833
970.50 0.0783
970.60 0.07827
970.70 0.07823
970.80 0.0782
970.90 0.07817
971.00 0.07814
971.10 0.07811
971.20 0.07808
971.30 0.07805
971.40 0.07802
971.50 0.07799
971.60 0.07796
971.70 0.07793
971.80 0.0779
971.90 0.07786
972.00 0.07783
972.10 0.0778
972.20 0.07777
972.30 0.07774
972.40 0.07771
972.50 0.07768
972.60 0.07765
972.70 0.07762
972.80 0.07759
972.90 0.07756
973.00 0.07753
973.10 0.07749
973.20 0.07746
973.30 0.07743
973.40 0.0774
973.50 0.07737
973.60 0.07734
973.70 0.07731
973.80 0.07728
973.90 0.07725
974.00 0.07722
974.10 0.07719
974.20 0.07716
974.30 0.07713
974.40 0.0771
974.50 0.07706
974.60 0.07703
974.70 0.077
974.80 0.07697
974.90 0.07694
975.00 0.07691
975.10 0.07688
975.20 0.07685
975.30 0.07682
975.40 0.07679
975.50 0.07676
975.60 0.07673
975.70 0.0767
975.80 0.07667
975.90 0.07663
976.00 0.0766
976.10 0.07657
976.20 0.07654
976.30 0.07651
976.40 0.07648
976.50 0.07645
976.60 0.07642
976.70 0.07639
976.80 0.07636
976.90 0.07633
977.00 0.0763
977.10 0.07627
977.20 0.07624
977.30 0.07621
977.40 0.07618
977.50 0.07614
977.60 0.07611
977.70 0.07608
977.80 0.07605
977.90 0.07602
978.00 0.07599
978.10 0.07596
978.20 0.07593
978.30 0.0759
978.40 0.07587
978.50 0.07584
978.60 0.07581
978.70 0.07578
978.80 0.07574
978.90 0.07571
979.00 0.07568
979.10 0.07565
979.20 0.07562
979.30 0.07559
979.40 0.07556
979.50 0.07553
979.60 0.0755
979.70 0.07547
979.80 0.07544
979.90 0.07541
980.00 0.07538
980.10 0.07535
980.20 0.07532
980.30 0.07529
980.40 0.07526
980.50 0.07523
980.60 0.0752
980.70 0.07516
980.80 0.07513
980.90 0.0751
981.00 0.07507
981.10 0.07504
981.20 0.07501
981.30 0.07498
981.40 0.07495
981.50 0.07492
981.60 0.07489
981.70 0.07486
981.80 0.07483
981.90 0.0748
982.00 0.07477
982.10 0.07474
982.20 0.07471
982.30 0.07468
982.40 0.07465
982.50 0.07462
982.60 0.07459
982.70 0.07456
982.80 0.07453
982.90 0.07449
983.00 0.07446
983.10 0.07443
983.20 0.0744
983.30 0.07437
983.40 0.07434
983.50 0.07431
983.60 0.07428
983.70 0.07425
983.80 0.07422
983.90 0.07419
984.00 0.07416
984.10 0.07413
984.20 0.0741
984.30 0.07407
984.40 0.07404
984.50 0.07401
984.60 0.07398
984.70 0.07395
984.80 0.07392
984.90 0.07388
985.00 0.07385
985.10 0.07382
985.20 0.07379
985.30 0.07376
985.40 0.07373
985.50 0.0737
985.60 0.07367
985.70 0.07364
985.80 0.07361
985.90 0.07358
986.00 0.07355
986.10 0.07352
986.20 0.07349
986.30 0.07346
986.40 0.07343
986.50 0.0734
986.60 0.07337
986.70 0.07334
986.80 0.07331
986.90 0.07328
987.00 0.07324
987.10 0.07321
987.20 0.07318
987.30 0.07315
987.40 0.07312
987.50 0.07309
987.60 0.07306
987.70 0.07303
987.80 0.073
987.90 0.07297
988.00 0.07294
988.10 0.07291
988.20 0.07288
988.30 0.07285
988.40 0.07282
988.50 0.07279
988.60 0.07276
988.70 0.07273
988.80 0.0727
988.90 0.07267
989.00 0.07263
989.10 0.0726
989.20 0.07257
989.30 0.07254
989.40 0.07251
989.50 0.07248
989.60 0.07245
989.70 0.07242
989.80 0.07239
989.90 0.07236
990.00 0.07233
990.10 0.0723
990.20 0.07227
990.30 0.07224
990.40 0.07221
990.50 0.07218
990.60 0.07215
990.70 0.07212
990.80 0.07209
990.90 0.07206
991.00 0.07202
991.10 0.07199
991.20 0.07196
991.30 0.07193
991.40 0.0719
991.50 0.07187
991.60 0.07184
991.70 0.07181
991.80 0.07178
991.90 0.07175
992.00 0.07172
992.10 0.07169
992.20 0.07166
992.30 0.07163
992.40 0.0716
992.50 0.07157
992.60 0.07154
992.70 0.07151
992.80 0.07148
992.90 0.07144
993.00 0.07141
993.10 0.07138
993.20 0.07135
993.30 0.07132
993.40 0.07129
993.50 0.07126
993.60 0.07123
993.70 0.0712
993.80 0.07117
993.90 0.07114
994.00 0.07111
994.10 0.07108
994.20 0.07105
994.30 0.07102
994.40 0.07099
994.50 0.07096
994.60 0.07093
994.70 0.0709
994.80 0.07087
994.90 0.07084
995.00 0.0708
995.10 0.07077
995.20 0.07074
995.30 0.07071
995.40 0.07068
995.50 0.07065
995.60 0.07062
995.70 0.07059
995.80 0.07056
995.90 0.07053
996.00 0.0705
996.10 0.07047
996.20 0.07044
996.30 0.07041
996.40 0.07038
996.50 0.07035
996.60 0.07032
996.70 0.07029
996.80 0.07026
996.90 0.07023
997.00 0.0702
997.10 0.07017
997.20 0.07014
997.30 0.07011
997.40 0.07008
997.50 0.07005
997.60 0.07002
997.70 0.06999
997.80 0.06996
997.90 0.06993
998.00 0.0699
998.10 0.06987
998.20 0.06984
998.30 0.06981
998.40 0.06978
998.50 0.06975
998.60 0.06972
998.70 0.06969
998.80 0.06966
998.90 0.06963
999.00 0.0696
999.10 0.06957
999.20 0.06954
999.30 0.06951
999.40 0.06948
999.50 0.06945
999.60 0.06942
999.70 0.06939
999.80 0.06936
999.90 0.06933
1000.00 0.0693
1000.10 0.06927
1000.20 0.06923
1000.30 0.0692
1000.40 0.06917
1000.50 0.06914
1000.60 0.06911
1000.70 0.06908
1000.80 0.06905
1000.90 0.06902
1001.00 0.06899
1001.10 0.06896
1001.20 0.06893
1001.30 0.0689
1001.40 0.06887
1001.50 0.06884
1001.60 0.06881
1001.70 0.06878
1001.80 0.06875
1001.90 0.06873
1002.00 0.0687
1002.10 0.06867
1002.20 0.06864
1002.30 0.06862
1002.40 0.06859
1002.50 0.06856
1002.60 0.06854
1002.70 0.06851
1002.80 0.06848
1002.90 0.06845
1003.00 0.06843
1003.10 0.0684
1003.20 0.06838
1003.30 0.06835
1003.40 0.06832
1003.50 0.0683
1003.60 0.06827
1003.70 0.06825
1003.80 0.06822
1003.90 0.0682
1004.00 0.06818
1004.10 0.06815
1004.20 0.06813
1004.30 0.0681
1004.40 0.06808
1004.50 0.06806
1004.60 0.06803
1004.70 0.06801
1004.80 0.06799
1004.90 0.06796
1005.00 0.06793
1005.10 0.06791
1005.20 0.06788
1005.30 0.06785
1005.40 0.06782
1005.50 0.0678
1005.60 0.06777
1005.70 0.06774
1005.80 0.06771
1005.90 0.06768
1006.00 0.06766
1006.10 0.06763
1006.20 0.0676
1006.30 0.06757
1006.40 0.06755
1006.50 0.06752
1006.60 0.0675
1006.70 0.06747
1006.80 0.06744
1006.90 0.06742
1007.00 0.06739
1007.10 0.06737
1007.20 0.06734
1007.30 0.06732
1007.40 0.06729
1007.50 0.06727
1007.60 0.06724
1007.70 0.06722
1007.80 0.0672
1007.90 0.06717
1008.00 0.06715
1008.10 0.06713
1008.20 0.0671
1008.30 0.06708
1008.40 0.06706
1008.50 0.06703
1008.60 0.06701
1008.70 0.06699
1008.80 0.06696
1008.90 0.06694
1009.00 0.06692
1009.10 0.06689
1009.20 0.06687
1009.30 0.06685
1009.40 0.06682
1009.50 0.0668
1009.60 0.06678
1009.70 0.06675
1009.80 0.06673
1009.90 0.06671
1010.00 0.06669
1010.10 0.06666
1010.20 0.06664
1010.30 0.06662
1010.40 0.0666
1010.50 0.06657
1010.60 0.06655
1010.70 0.06653
1010.80 0.06651
1010.90 0.06648
1011.00 0.06646
1011.10 0.06644
1011.20 0.06642
1011.30 0.0664
1011.40 0.06637
1011.50 0.06635
1011.60 0.06633
1011.70 0.06631
1011.80 0.06628
1011.90 0.06626
1012.00 0.06624
1012.10 0.06622
1012.20 0.0662
1012.30 0.06617
1012.40 0.06615
1012.50 0.06613
1012.60 0.06611
1012.70 0.06609
1012.80 0.06606
1012.90 0.06604
1013.00 0.06602
1013.10 0.066
1013.20 0.06598
1013.30 0.06595
1013.40 0.06593
1013.50 0.06591
1013.60 0.06589
1013.70 0.06587
1013.80 0.06584
1013.90 0.06582
1014.00 0.0658
1014.10 0.06578
1014.20 0.06576
1014.30 0.06573
1014.40 0.06571
1014.50 0.06569
1014.60 0.06567
1014.70 0.06565
1014.80 0.06562
1014.90 0.0656
1015.00 0.06558
1015.10 0.06556
1015.20 0.06554
1015.30 0.06551
1015.40 0.06549
1015.50 0.06547
1015.60 0.06545
1015.70 0.06543
1015.80 0.0654
1015.90 0.06538
1016.00 0.06536
1016.10 0.06534
1016.20 0.06532
1016.30 0.06529
1016.40 0.06527
1016.50 0.06525
1016.60 0.06523
1016.70 0.06521
1016.80 0.06518
1016.90 0.06516
1017.00 0.06514
1017.10 0.06512
1017.20 0.0651
1017.30 0.06507
1017.40 0.06505
1017.50 0.06503
1017.60 0.06501
1017.70 0.06498
1017.80 0.06496
1017.90 0.06494
1018.00 0.06492
1018.10 0.0649
1018.20 0.06487
1018.30 0.06485
1018.40 0.06483
1018.50 0.06481
1018.60 0.06479
1018.70 0.06476
1018.80 0.06474
1018.90 0.06472
1019.00 0.0647
1019.10 0.06467
1019.20 0.06465
1019.30 0.06463
1019.40 0.06461
1019.50 0.06459
1019.60 0.06456
1019.70 0.06454
1019.80 0.06452
1019.90 0.0645
1020.00 0.06447
1020.10 0.06445
1020.20 0.06443
1020.30 0.06441
1020.40 0.06439
1020.50 0.06436
1020.60 0.06434
1020.70 0.06432
1020.80 0.0643
1020.90 0.06428
1021.00 0.06425
1021.10 0.06423
1021.20 0.06421
1021.30 0.06419
1021.40 0.06416
1021.50 0.06414
1021.60 0.06412
1021.70 0.0641
1021.80 0.06407
1021.90 0.06405
1022.00 0.06403
1022.10 0.06401
1022.20 0.06399
1022.30 0.06396
1022.40 0.06394
1022.50 0.06392
1022.60 0.0639
1022.70 0.06387
1022.80 0.06385
1022.90 0.06383
1023.00 0.06381
1023.10 0.06378
1023.20 0.06376
1023.30 0.06374
1023.40 0.06372
1023.50 0.06369
1023.60 0.06367
1023.70 0.06365
1023.80 0.06363
1023.90 0.06361
1024.00 0.06358
1024.10 0.06356
1024.20 0.06354
1024.30 0.06352
1024.40 0.06349
1024.50 0.06347
1024.60 0.06345
1024.70 0.06343
1024.80 0.0634
1024.90 0.06338
1025.00 0.06336
1025.10 0.06334
1025.20 0.06331
1025.30 0.06329
1025.40 0.06327
1025.50 0.06325
1025.60 0.06323
1025.70 0.0632
1025.80 0.06318
1025.90 0.06316
1026.00 0.06314
1026.10 0.06311
1026.20 0.06309
1026.30 0.06307
1026.40 0.06305
1026.50 0.06302
1026.60 0.063
1026.70 0.06298
1026.80 0.06296
1026.90 0.06293
1027.00 0.06291
1027.10 0.06289
1027.20 0.06287
1027.30 0.06284
1027.40 0.06282
1027.50 0.0628
1027.60 0.06278
1027.70 0.06275
1027.80 0.06273
1027.90 0.06271
1028.00 0.06269
1028.10 0.06266
1028.20 0.06264
1028.30 0.06262
1028.40 0.0626
1028.50 0.06257
1028.60 0.06255
1028.70 0.06253
1028.80 0.06251
1028.90 0.06248
1029.00 0.06246
1029.10 0.06244
1029.20 0.06242
1029.30 0.06239
1029.40 0.06237
1029.50 0.06235
1029.60 0.06233
1029.70 0.06231
1029.80 0.06228
1029.90 0.06226
1030.00 0.06224
1030.10 0.06222
1030.20 0.06219
1030.30 0.06217
1030.40 0.06215
1030.50 0.06213
1030.60 0.0621
1030.70 0.06208
1030.80 0.06206
1030.90 0.06204
1031.00 0.06201
1031.10 0.06199
1031.20 0.06197
1031.30 0.06195
1031.40 0.06193
1031.50 0.0619
1031.60 0.06188
1031.70 0.06186
1031.80 0.06184
1031.90 0.06181
1032.00 0.06179
1032.10 0.06177
1032.20 0.06175
1032.30 0.06172
1032.40 0.0617
1032.50 0.06168
1032.60 0.06166
1032.70 0.06163
1032.80 0.06161
1032.90 0.06159
1033.00 0.06157
1033.10 0.06154
1033.20 0.06152
1033.30 0.0615
1033.40 0.06148
1033.50 0.06146
1033.60 0.06143
1033.70 0.06141
1033.80 0.06139
1033.90 0.06137
1034.00 0.06134
1034.10 0.06132
1034.20 0.0613
1034.30 0.06128
1034.40 0.06125
1034.50 0.06123
1034.60 0.06121
1034.70 0.06119
1034.80 0.06116
1034.90 0.06114
1035.00 0.06112
1035.10 0.0611
1035.20 0.06108
1035.30 0.06105
1035.40 0.06103
1035.50 0.06101
1035.60 0.06099
1035.70 0.06096
1035.80 0.06094
1035.90 0.06092
1036.00 0.0609
1036.10 0.06088
1036.20 0.06085
1036.30 0.06083
1036.40 0.06081
1036.50 0.06079
1036.60 0.06076
1036.70 0.06074
1036.80 0.06072
1036.90 0.0607
1037.00 0.06068
1037.10 0.06065
1037.20 0.06063
1037.30 0.06061
1037.40 0.06059
1037.50 0.06056
1037.60 0.06054
1037.70 0.06052
1037.80 0.0605
1037.90 0.06047
1038.00 0.06045
1038.10 0.06043
1038.20 0.06041
1038.30 0.06039
1038.40 0.06036
1038.50 0.06034
1038.60 0.06032
1038.70 0.0603
1038.80 0.06027
1038.90 0.06025
1039.00 0.06023
1039.10 0.06021
1039.20 0.06019
1039.30 0.06016
1039.40 0.06014
1039.50 0.06012
1039.60 0.0601
1039.70 0.06007
1039.80 0.06005
1039.90 0.06003
1040.00 0.06001
1040.10 0.05999
1040.20 0.05996
1040.30 0.05994
1040.40 0.05992
1040.50 0.0599
1040.60 0.05988
1040.70 0.05985
1040.80 0.05983
1040.90 0.05981
1041.00 0.05979
1041.10 0.05977
1041.20 0.05974
1041.30 0.05972
1041.40 0.0597
1041.50 0.05968
1041.60 0.05966
1041.70 0.05963
1041.80 0.05961
1041.90 0.05959
1042.00 0.05957
1042.10 0.05955
1042.20 0.05952
1042.30 0.0595
1042.40 0.05948
1042.50 0.05946
1042.60 0.05943
1042.70 0.05941
1042.80 0.05939
1042.90 0.05937
1043.00 0.05935
1043.10 0.05932
1043.20 0.0593
1043.30 0.05928
1043.40 0.05926
1043.50 0.05924
1043.60 0.05921
1043.70 0.05919
1043.80 0.05917
1043.90 0.05915
1044.00 0.05913
1044.10 0.0591
1044.20 0.05908
1044.30 0.05906
1044.40 0.05904
1044.50 0.05902
1044.60 0.05899
1044.70 0.05897
1044.80 0.05895
1044.90 0.05893
1045.00 0.05891
1045.10 0.05888
1045.20 0.05886
1045.30 0.05884
1045.40 0.05882
1045.50 0.0588
1045.60 0.05877
1045.70 0.05875
1045.80 0.05873
1045.90 0.05871
1046.00 0.05869
1046.10 0.05867
1046.20 0.05864
1046.30 0.05862
1046.40 0.0586
1046.50 0.05858
1046.60 0.05856
1046.70 0.05853
1046.80 0.05851
1046.90 0.05849
1047.00 0.05847
1047.10 0.05845
1047.20 0.05843
1047.30 0.0584
1047.40 0.05838
1047.50 0.05836
1047.60 0.05834
1047.70 0.05832
1047.80 0.05829
1047.90 0.05827
1048.00 0.05825
1048.10 0.05823
1048.20 0.05821
1048.30 0.05818
1048.40 0.05816
1048.50 0.05814
1048.60 0.05812
1048.70 0.0581
1048.80 0.05808
1048.90 0.05805
1049.00 0.05803
1049.10 0.05801
1049.20 0.05799
1049.30 0.05797
1049.40 0.05794
1049.50 0.05792
1049.60 0.0579
1049.70 0.05788
1049.80 0.05786
1049.90 0.05784
1050.00 0.05781
1050.10 0.05779
1050.20 0.05777
1050.30 0.05775
1050.40 0.05773
1050.50 0.05771
1050.60 0.05768
1050.70 0.05766
1050.80 0.05764
1050.90 0.05762
1051.00 0.0576
1051.10 0.05758
1051.20 0.05755
1051.30 0.05753
1051.40 0.05751
1051.50 0.05749
1051.60 0.05747
1051.70 0.05745
1051.80 0.05742
1051.90 0.0574
1052.00 0.05738
1052.10 0.05736
1052.20 0.05734
1052.30 0.05732
1052.40 0.05729
1052.50 0.05727
1052.60 0.05725
1052.70 0.05723
1052.80 0.05721
1052.90 0.05719
1053.00 0.05716
1053.10 0.05714
1053.20 0.05712
1053.30 0.0571
1053.40 0.05708
1053.50 0.05706
1053.60 0.05703
1053.70 0.05701
1053.80 0.05699
1053.90 0.05697
1054.00 0.05695
1054.10 0.05693
1054.20 0.0569
1054.30 0.05688
1054.40 0.05686
1054.50 0.05684
1054.60 0.05682
1054.70 0.0568
1054.80 0.05677
1054.90 0.05675
1055.00 0.05673
1055.10 0.05671
1055.20 0.05669
1055.30 0.05667
1055.40 0.05665
1055.50 0.05662
1055.60 0.0566
1055.70 0.05658
1055.80 0.05656
1055.90 0.05654
1056.00 0.05652
1056.10 0.05649
1056.20 0.05647
1056.30 0.05645
1056.40 0.05643
1056.50 0.05641
1056.60 0.05639
1056.70 0.05637
1056.80 0.05634
1056.90 0.05632
1057.00 0.0563
1057.10 0.05628
1057.20 0.05626
1057.30 0.05624
1057.40 0.05622
1057.50 0.05619
1057.60 0.05617
1057.70 0.05615
1057.80 0.05613
1057.90 0.05611
1058.00 0.05609
1058.10 0.05606
1058.20 0.05604
1058.30 0.05602
1058.40 0.056
1058.50 0.05598
1058.60 0.05596
1058.70 0.05594
1058.80 0.05591
1058.90 0.05589
1059.00 0.05587
1059.10 0.05585
1059.20 0.05583
1059.30 0.05581
1059.40 0.05578
1059.50 0.05576
1059.60 0.05574
1059.70 0.05572
1059.80 0.0557
1059.90 0.05568
1060.00 0.05566
1060.10 0.05563
1060.20 0.05561
1060.30 0.05559
1060.40 0.05557
1060.50 0.05555
1060.60 0.05553
1060.70 0.05551
1060.80 0.05548
1060.90 0.05546
1061.00 0.05544
1061.10 0.05542
1061.20 0.0554
1061.30 0.05538
1061.40 0.05536
1061.50 0.05533
1061.60 0.05531
1061.70 0.05529
1061.80 0.05527
1061.90 0.05525
1062.00 0.05523
1062.10 0.05521
1062.20 0.05519
1062.30 0.05516
1062.40 0.05514
1062.50 0.05512
1062.60 0.0551
1062.70 0.05508
1062.80 0.05506
1062.90 0.05503
1063.00 0.05501
1063.10 0.05499
1063.20 0.05497
1063.30 0.05495
1063.40 0.05493
1063.50 0.0549
1063.60 0.05488
1063.70 0.05486
1063.80 0.05484
1063.90 0.05482
1064.00 0.0548
1064.10 0.05477
1064.20 0.05475
1064.30 0.05473
1064.40 0.05471
1064.50 0.05469
1064.60 0.05467
1064.70 0.05465
1064.80 0.05462
1064.90 0.0546
1065.00 0.05458
1065.10 0.05456
1065.20 0.05454
1065.30 0.05452
1065.40 0.0545
1065.50 0.05447
1065.60 0.05445
1065.70 0.05443
1065.80 0.05441
1065.90 0.05439
1066.00 0.05437
1066.10 0.05435
1066.20 0.05432
1066.30 0.0543
1066.40 0.05428
1066.50 0.05426
1066.60 0.05424
1066.70 0.05422
1066.80 0.0542
1066.90 0.05418
1067.00 0.05415
1067.10 0.05413
1067.20 0.05411
1067.30 0.05409
1067.40 0.05407
1067.50 0.05404
1067.60 0.05402
1067.70 0.054
1067.80 0.05398
1067.90 0.05396
1068.00 0.05394
1068.10 0.05391
1068.20 0.05389
1068.30 0.05387
1068.40 0.05385
1068.50 0.05383
1068.60 0.0538
1068.70 0.05378
1068.80 0.05376
1068.90 0.05374
1069.00 0.05372
1069.10 0.0537
1069.20 0.05367
1069.30 0.05365
1069.40 0.05363
1069.50 0.05361
1069.60 0.05359
1069.70 0.05357
1069.80 0.05354
1069.90 0.05352
1070.00 0.0535
1070.10 0.05348
1070.20 0.05346
1070.30 0.05344
1070.40 0.05341
1070.50 0.05339
1070.60 0.05337
1070.70 0.05335
1070.80 0.05333
1070.90 0.05331
1071.00 0.05328
1071.10 0.05326
1071.20 0.05324
1071.30 0.05322
1071.40 0.0532
1071.50 0.05318
1071.60 0.05316
1071.70 0.05313
1071.80 0.05311
1071.90 0.05309
1072.00 0.05307
1072.10 0.05305
1072.20 0.05303
1072.30 0.053
1072.40 0.05298
1072.50 0.05296
1072.60 0.05294
1072.70 0.05292
1072.80 0.05289
1072.90 0.05287
1073.00 0.05285
1073.10 0.05283
1073.20 0.05281
1073.30 0.05278
1073.40 0.05276
1073.50 0.05274
1073.60 0.05272
1073.70 0.0527
1073.80 0.05267
1073.90 0.05265
1074.00 0.05263
1074.10 0.05261
1074.20 0.05258
1074.30 0.05256
1074.40 0.05254
1074.50 0.05252
1074.60 0.0525
1074.70 0.05247
1074.80 0.05245
1074.90 0.05243
1075.00 0.05241
1075.10 0.05238
1075.20 0.05236
1075.30 0.05234
1075.40 0.05232
1075.50 0.05229
1075.60 0.05227
1075.70 0.05225
1075.80 0.05223
1075.90 0.05221
1076.00 0.05218
1076.10 0.05216
1076.20 0.05214
1076.30 0.05212
1076.40 0.0521
1076.50 0.05207
1076.60 0.05205
1076.70 0.05203
1076.80 0.05201
1076.90 0.05198
1077.00 0.05196
1077.10 0.05194
1077.20 0.05192
1077.30 0.0519
1077.40 0.05187
1077.50 0.05185
1077.60 0.05183
1077.70 0.05181
1077.80 0.05178
1077.90 0.05176
1078.00 0.05174
1078.10 0.05171
1078.20 0.05169
1078.30 0.05167
1078.40 0.05165
1078.50 0.05162
1078.60 0.0516
1078.70 0.05158
1078.80 0.05156
1078.90 0.05153
1079.00 0.05151
1079.10 0.05149
1079.20 0.05147
1079.30 0.05144
1079.40 0.05142
1079.50 0.0514
1079.60 0.05137
1079.70 0.05135
1079.80 0.05133
1079.90 0.05131
1080.00 0.05128
1080.10 0.05126
1080.20 0.05124
1080.30 0.05121
1080.40 0.05119
1080.50 0.05117
1080.60 0.05114
1080.70 0.05112
1080.80 0.0511
1080.90 0.05108
1081.00 0.05105
1081.10 0.05103
1081.20 0.05101
1081.30 0.05098
1081.40 0.05096
1081.50 0.05094
1081.60 0.05091
1081.70 0.05089
1081.80 0.05087
1081.90 0.05085
1082.00 0.05082
1082.10 0.0508
1082.20 0.05078
1082.30 0.05075
1082.40 0.05073
1082.50 0.05071
1082.60 0.05068
1082.70 0.05066
1082.80 0.05064
1082.90 0.05061
1083.00 0.05059
1083.10 0.05057
1083.20 0.05054
1083.30 0.05052
1083.40 0.0505
1083.50 0.05047
1083.60 0.05045
1083.70 0.05043
1083.80 0.0504
1083.90 0.05038
1084.00 0.05035
1084.10 0.05033
1084.20 0.05031
1084.30 0.05028
1084.40 0.05026
1084.50 0.05024
1084.60 0.05021
1084.70 0.05019
1084.80 0.05017
1084.90 0.05014
1085.00 0.05012
1085.10 0.05009
1085.20 0.05007
1085.30 0.05005
1085.40 0.05002
1085.50 0.05
1085.60 0.04998
1085.70 0.04995
1085.80 0.04993
1085.90 0.04991
1086.00 0.04988
1086.10 0.04986
1086.20 0.04983
1086.30 0.04981
1086.40 0.04979
1086.50 0.04976
1086.60 0.04974
1086.70 0.04972
1086.80 0.04969
1086.90 0.04967
1087.00 0.04964
1087.10 0.04962
1087.20 0.0496
1087.30 0.04957
1087.40 0.04955
1087.50 0.04953
1087.60 0.0495
1087.70 0.04948
1087.80 0.04945
1087.90 0.04943
1088.00 0.04941
1088.10 0.04938
1088.20 0.04936
1088.30 0.04933
1088.40 0.04931
1088.50 0.04929
1088.60 0.04926
1088.70 0.04924
1088.80 0.04921
1088.90 0.04919
1089.00 0.04917
1089.10 0.04914
1089.20 0.04912
1089.30 0.04909
1089.40 0.04907
1089.50 0.04905
1089.60 0.04902
1089.70 0.049
1089.80 0.04897
1089.90 0.04895
1090.00 0.04893
1090.10 0.0489
1090.20 0.04888
1090.30 0.04885
1090.40 0.04883
1090.50 0.04881
1090.60 0.04878
1090.70 0.04876
1090.80 0.04873
1090.90 0.04871
1091.00 0.04868
1091.10 0.04866
1091.20 0.04863
1091.30 0.04861
1091.40 0.04858
1091.50 0.04856
1091.60 0.04853
1091.70 0.04851
1091.80 0.04848
1091.90 0.04846
1092.00 0.04843
1092.10 0.04841
1092.20 0.04838
1092.30 0.04836
1092.40 0.04833
1092.50 0.04831
1092.60 0.04828
1092.70 0.04826
1092.80 0.04823
1092.90 0.0482
1093.00 0.04818
1093.10 0.04815
1093.20 0.04813
1093.30 0.0481
1093.40 0.04808
1093.50 0.04806
1093.60 0.04804
1093.70 0.04803
1093.80 0.04801
1093.90 0.048
1094.00 0.04799
1094.10 0.04797
1094.20 0.04796
1094.30 0.04795
1094.40 0.04794
1094.50 0.04793
1094.60 0.04792
1094.70 0.04791
1094.80 0.0479
1094.90 0.0479
1095.00 0.04789
1095.10 0.04788
1095.20 0.04787
1095.30 0.04786
1095.40 0.04785
1095.50 0.04785
1095.60 0.04784
1095.70 0.04783
1095.80 0.04782
1095.90 0.04781
1096.00 0.0478
1096.10 0.04779
1096.20 0.04778
1096.30 0.04778
1096.40 0.04777
1096.50 0.04776
1096.60 0.04775
1096.70 0.04774
1096.80 0.04773
1096.90 0.04772
1097.00 0.04771
1097.10 0.0477
1097.20 0.04769
1097.30 0.04768
1097.40 0.04767
1097.50 0.04766
1097.60 0.04765
1097.70 0.04764
1097.80 0.04763
1097.90 0.04762
1098.00 0.04761
1098.10 0.0476
1098.20 0.04759
1098.30 0.04758
1098.40 0.04757
1098.50 0.04756
1098.60 0.04755
1098.70 0.04754
1098.80 0.04753
1098.90 0.04752
1099.00 0.04751
1099.10 0.0475
1099.20 0.04749
1099.30 0.04748
1099.40 0.04747
1099.50 0.04746
1099.60 0.04745
1099.70 0.04744
1099.80 0.04743
1099.90 0.04742
1100.00 0.04741
1100.10 0.0474
1100.20 0.04738
1100.30 0.04737
1100.40 0.04736
1100.50 0.04735
1100.60 0.04734
1100.70 0.04733
1100.80 0.04732
1100.90 0.04731
1101.00 0.0473
1101.10 0.04729
1101.20 0.04728
1101.30 0.04727
1101.40 0.04726
1101.50 0.04725
1101.60 0.04724
1101.70 0.04722
1101.80 0.04721
1101.90 0.0472
1102.00 0.04719
1102.10 0.04718
1102.20 0.04717
1102.30 0.04716
1102.40 0.04715
1102.50 0.04714
1102.60 0.04713
1102.70 0.04711
1102.80 0.0471
1102.90 0.04709
1103.00 0.04708
1103.10 0.04707
1103.20 0.04706
1103.30 0.04705
1103.40 0.04704
1103.50 0.04703
1103.60 0.04701
1103.70 0.047
1103.80 0.04699
1103.90 0.04698
1104.00 0.04697
1104.10 0.04696
1104.20 0.04694
1104.30 0.04693
1104.40 0.04692
1104.50 0.04691
1104.60 0.0469
1104.70 0.04689
1104.80 0.04688
1104.90 0.04686
1105.00 0.04685
1105.10 0.04684
1105.20 0.04683
1105.30 0.04682
1105.40 0.04681
1105.50 0.0468
1105.60 0.04678
1105.70 0.04677
1105.80 0.04676
1105.90 0.04675
1106.00 0.04674
1106.10 0.04672
1106.20 0.04671
1106.30 0.0467
1106.40 0.04669
1106.50 0.04668
1106.60 0.04666
1106.70 0.04665
1106.80 0.04664
1106.90 0.04663
1107.00 0.04662
1107.10 0.0466
1107.20 0.04659
1107.30 0.04658
1107.40 0.04657
1107.50 0.04656
1107.60 0.04654
1107.70 0.04653
1107.80 0.04652
1107.90 0.04651
1108.00 0.04649
1108.10 0.04648
1108.20 0.04647
1108.30 0.04646
1108.40 0.04644
1108.50 0.04643
1108.60 0.04642
1108.70 0.04641
1108.80 0.04639
1108.90 0.04638
1109.00 0.04637
1109.10 0.04636
1109.20 0.04634
1109.30 0.04633
1109.40 0.04632
1109.50 0.04631
1109.60 0.04629
1109.70 0.04628
1109.80 0.04627
1109.90 0.04625
1110.00 0.04624
1110.10 0.04623
1110.20 0.04622
1110.30 0.0462
1110.40 0.04619
1110.50 0.04618
1110.60 0.04616
1110.70 0.04615
1110.80 0.04614
1110.90 0.04612
1111.00 0.04611
1111.10 0.0461
1111.20 0.04609
1111.30 0.04607
1111.40 0.04606
1111.50 0.04605
1111.60 0.04603
1111.70 0.04602
1111.80 0.04601
1111.90 0.046
1112.00 0.04598
1112.10 0.04597
1112.20 0.04596
1112.30 0.04594
1112.40 0.04593
1112.50 0.04592
1112.60 0.0459
1112.70 0.04589
1112.80 0.04588
1112.90 0.04586
1113.00 0.04585
1113.10 0.04584
1113.20 0.04582
1113.30 0.04581
1113.40 0.0458
1113.50 0.04578
1113.60 0.04577
1113.70 0.04576
1113.80 0.04574
1113.90 0.04573
1114.00 0.04571
1114.10 0.0457
1114.20 0.04569
1114.30 0.04567
1114.40 0.04566
1114.50 0.04565
1114.60 0.04563
1114.70 0.04562
1114.80 0.04561
1114.90 0.04559
1115.00 0.04558
1115.10 0.04556
1115.20 0.04555
1115.30 0.04554
1115.40 0.04552
1115.50 0.04551
1115.60 0.0455
1115.70 0.04548
1115.80 0.04547
1115.90 0.04546
1116.00 0.04544
1116.10 0.04543
1116.20 0.04541
1116.30 0.0454
1116.40 0.04539
1116.50 0.04537
1116.60 0.04536
1116.70 0.04535
1116.80 0.04533
1116.90 0.04532
1117.00 0.04531
1117.10 0.04529
1117.20 0.04528
1117.30 0.04526
1117.40 0.04525
1117.50 0.04524
1117.60 0.04522
1117.70 0.04521
1117.80 0.04519
1117.90 0.04518
1118.00 0.04517
1118.10 0.04515
1118.20 0.04514
1118.30 0.04512
1118.40 0.04511
1118.50 0.04509
1118.60 0.04508
1118.70 0.04507
1118.80 0.04505
1118.90 0.04504
1119.00 0.04502
1119.10 0.04501
1119.20 0.045
1119.30 0.04498
1119.40 0.04497
1119.50 0.04495
1119.60 0.04494
1119.70 0.04493
1119.80 0.04491
1119.90 0.0449
1120.00 0.04488
1120.10 0.04487
1120.20 0.04486
1120.30 0.04484
1120.40 0.04483
1120.50 0.04481
1120.60 0.0448
1120.70 0.04479
1120.80 0.04477
1120.90 0.04476
1121.00 0.04474
1121.10 0.04473
1121.20 0.04472
1121.30 0.0447
1121.40 0.04469
1121.50 0.04467
1121.60 0.04466
1121.70 0.04465
1121.80 0.04463
1121.90 0.04462
1122.00 0.0446
1122.10 0.04459
1122.20 0.04458
1122.30 0.04456
1122.40 0.04455
1122.50 0.04453
1122.60 0.04452
1122.70 0.0445
1122.80 0.04449
1122.90 0.04448
1123.00 0.04446
1123.10 0.04445
1123.20 0.04443
1123.30 0.04442
1123.40 0.0444
1123.50 0.04439
1123.60 0.04437
1123.70 0.04436
1123.80 0.04435
1123.90 0.04433
1124.00 0.04432
1124.10 0.0443
1124.20 0.04429
1124.30 0.04427
1124.40 0.04426
1124.50 0.04425
1124.60 0.04423
1124.70 0.04422
1124.80 0.0442
1124.90 0.04419
1125.00 0.04417
1125.10 0.04416
1125.20 0.04415
1125.30 0.04413
1125.40 0.04412
1125.50 0.0441
1125.60 0.04409
1125.70 0.04407
1125.80 0.04406
1125.90 0.04405
1126.00 0.04403
1126.10 0.04402
1126.20 0.044
1126.30 0.04399
1126.40 0.04398
1126.50 0.04396
1126.60 0.04395
1126.70 0.04393
1126.80 0.04392
1126.90 0.0439
1127.00 0.04389
1127.10 0.04388
1127.20 0.04386
1127.30 0.04385
1127.40 0.04383
1127.50 0.04382
1127.60 0.0438
1127.70 0.04379
1127.80 0.04378
1127.90 0.04376
1128.00 0.04375
1128.10 0.04373
1128.20 0.04372
1128.30 0.0437
1128.40 0.04369
1128.50 0.04367
1128.60 0.04366
1128.70 0.04365
1128.80 0.04363
1128.90 0.04362
1129.00 0.0436
1129.10 0.04359
1129.20 0.04357
1129.30 0.04356
1129.40 0.04355
1129.50 0.04353
1129.60 0.04352
1129.70 0.0435
1129.80 0.04349
1129.90 0.04347
1130.00 0.04346
1130.10 0.04344
1130.20 0.04343
1130.30 0.04342
1130.40 0.0434
1130.50 0.04339
1130.60 0.04337
1130.70 0.04336
1130.80 0.04335
1130.90 0.04333
1131.00 0.04332
1131.10 0.0433
1131.20 0.04329
1131.30 0.04327
1131.40 0.04326
1131.50 0.04325
1131.60 0.04323
1131.70 0.04322
1131.80 0.0432
1131.90 0.04319
1132.00 0.04317
1132.10 0.04316
1132.20 0.04315
1132.30 0.04313
1132.40 0.04312
1132.50 0.0431
1132.60 0.04309
1132.70 0.04307
1132.80 0.04306
1132.90 0.04304
1133.00 0.04303
1133.10 0.04302
1133.20 0.043
1133.30 0.04299
1133.40 0.04297
1133.50 0.04296
1133.60 0.04294
1133.70 0.04293
1133.80 0.04292
1133.90 0.0429
1134.00 0.04289
1134.10 0.04287
1134.20 0.04286
1134.30 0.04284
1134.40 0.04283
1134.50 0.04282
1134.60 0.0428
1134.70 0.04279
1134.80 0.04277
1134.90 0.04276
1135.00 0.04275
1135.10 0.04273
1135.20 0.04272
1135.30 0.0427
1135.40 0.04269
1135.50 0.04267
1135.60 0.04266
1135.70 0.04265
1135.80 0.04263
1135.90 0.04262
1136.00 0.0426
1136.10 0.04259
1136.20 0.04257
1136.30 0.04256
1136.40 0.04255
1136.50 0.04253
1136.60 0.04252
1136.70 0.0425
1136.80 0.04249
1136.90 0.04248
1137.00 0.04246
1137.10 0.04245
1137.20 0.04243
1137.30 0.04242
1137.40 0.0424
1137.50 0.04239
1137.60 0.04238
1137.70 0.04236
1137.80 0.04235
1137.90 0.04233
1138.00 0.04232
1138.10 0.04231
1138.20 0.04229
1138.30 0.04228
1138.40 0.04226
1138.50 0.04225
1138.60 0.04223
1138.70 0.04222
1138.80 0.04221
1138.90 0.04219
1139.00 0.04218
1139.10 0.04216
1139.20 0.04215
1139.30 0.04214
1139.40 0.04212
1139.50 0.04211
1139.60 0.04209
1139.70 0.04208
1139.80 0.04206
1139.90 0.04205
1140.00 0.04204
1140.10 0.04202
1140.20 0.04201
1140.30 0.04199
1140.40 0.04198
1140.50 0.04197
1140.60 0.04195
1140.70 0.04194
1140.80 0.04192
1140.90 0.04191
1141.00 0.0419
1141.10 0.04188
1141.20 0.04187
1141.30 0.04185
1141.40 0.04184
1141.50 0.04183
1141.60 0.04181
1141.70 0.0418
1141.80 0.04178
1141.90 0.04177
1142.00 0.04176
1142.10 0.04174
1142.20 0.04173
1142.30 0.04171
1142.40 0.0417
1142.50 0.04169
1142.60 0.04167
1142.70 0.04166
1142.80 0.04164
1142.90 0.04163
1143.00 0.04162
1143.10 0.0416
1143.20 0.04159
1143.30 0.04157
1143.40 0.04156
1143.50 0.04155
1143.60 0.04153
1143.70 0.04152
1143.80 0.0415
1143.90 0.04149
1144.00 0.04148
1144.10 0.04146
1144.20 0.04145
1144.30 0.04143
1144.40 0.04142
1144.50 0.04141
1144.60 0.04139
1144.70 0.04138
1144.80 0.04136
1144.90 0.04135
1145.00 0.04134
1145.10 0.04132
1145.20 0.04131
1145.30 0.0413
1145.40 0.04128
1145.50 0.04127
1145.60 0.04125
1145.70 0.04124
1145.80 0.04123
1145.90 0.04121
1146.00 0.0412
1146.10 0.04118
1146.20 0.04117
1146.30 0.04116
1146.40 0.04114
1146.50 0.04113
1146.60 0.04112
1146.70 0.0411
1146.80 0.04109
1146.90 0.04107
1147.00 0.04106
1147.10 0.04105
1147.20 0.04103
1147.30 0.04102
1147.40 0.041
1147.50 0.04099
1147.60 0.04098
1147.70 0.04096
1147.80 0.04095
1147.90 0.04094
1148.00 0.04092
1148.10 0.04091
1148.20 0.04089
1148.30 0.04088
1148.40 0.04087
1148.50 0.04085
1148.60 0.04084
1148.70 0.04083
1148.80 0.04081
1148.90 0.0408
1149.00 0.04078
1149.10 0.04077
1149.20 0.04076
1149.30 0.04074
1149.40 0.04073
1149.50 0.04072
1149.60 0.0407
1149.70 0.04069
1149.80 0.04068
1149.90 0.04066
1150.00 0.04065
1150.10 0.04063
1150.20 0.04062
1150.30 0.04061
1150.40 0.04059
1150.50 0.04058
1150.60 0.04057
1150.70 0.04055
1150.80 0.04054
1150.90 0.04052
1151.00 0.04051
1151.10 0.0405
1151.20 0.04048
1151.30 0.04047
1151.40 0.04046
1151.50 0.04044
1151.60 0.04043
1151.70 0.04042
1151.80 0.0404
1151.90 0.04039
1152.00 0.04038
1152.10 0.04036
1152.20 0.04035
1152.30 0.04033
1152.40 0.04032
1152.50 0.04031
1152.60 0.04029
1152.70 0.04028
1152.80 0.04027
1152.90 0.04025
1153.00 0.04024
1153.10 0.04023
1153.20 0.04021
1153.30 0.0402
1153.40 0.04019
1153.50 0.04017
1153.60 0.04016
1153.70 0.04015
1153.80 0.04013
1153.90 0.04012
1154.00 0.0401
1154.10 0.04009
1154.20 0.04008
1154.30 0.04006
1154.40 0.04005
1154.50 0.04004
1154.60 0.04002
1154.70 0.04001
1154.80 0.04
1154.90 0.03998
1155.00 0.03997
1155.10 0.03996
1155.20 0.03994
1155.30 0.03993
1155.40 0.03992
1155.50 0.0399
1155.60 0.03989
1155.70 0.03988
1155.80 0.03986
1155.90 0.03985
1156.00 0.03984
1156.10 0.03982
1156.20 0.03981
1156.30 0.0398
1156.40 0.03978
1156.50 0.03977
1156.60 0.03976
1156.70 0.03974
1156.80 0.03973
1156.90 0.03972
1157.00 0.0397
1157.10 0.03969
1157.20 0.03968
1157.30 0.03966
1157.40 0.03965
1157.50 0.03964
1157.60 0.03962
1157.70 0.03961
1157.80 0.0396
1157.90 0.03958
1158.00 0.03957
1158.10 0.03956
1158.20 0.03954
1158.30 0.03953
1158.40 0.03952
1158.50 0.0395
1158.60 0.03949
1158.70 0.03948
1158.80 0.03946
1158.90 0.03945
1159.00 0.03944
1159.10 0.03942
1159.20 0.03941
1159.30 0.0394
1159.40 0.03938
1159.50 0.03937
1159.60 0.03936
1159.70 0.03934
1159.80 0.03933
1159.90 0.03932
1160.00 0.0393
1160.10 0.03929
1160.20 0.03928
1160.30 0.03927
1160.40 0.03925
1160.50 0.03924
1160.60 0.03923
1160.70 0.03921
1160.80 0.0392
1160.90 0.03919
1161.00 0.03917
1161.10 0.03916
1161.20 0.03915
1161.30 0.03913
1161.40 0.03912
1161.50 0.03911
1161.60 0.03909
1161.70 0.03908
1161.80 0.03907
1161.90 0.03905
1162.00 0.03904
1162.10 0.03903
1162.20 0.03902
1162.30 0.039
1162.40 0.03899
1162.50 0.03898
1162.60 0.03896
1162.70 0.03895
1162.80 0.03894
1162.90 0.03892
1163.00 0.03891
1163.10 0.0389
1163.20 0.03889
1163.30 0.03887
1163.40 0.03886
1163.50 0.03885
1163.60 0.03883
1163.70 0.03882
1163.80 0.03881
1163.90 0.03879
1164.00 0.03878
1164.10 0.03877
1164.20 0.03876
1164.30 0.03874
1164.40 0.03873
1164.50 0.03872
1164.60 0.0387
1164.70 0.03869
1164.80 0.03868
1164.90 0.03866
1165.00 0.03865
1165.10 0.03864
1165.20 0.03863
1165.30 0.03861
1165.40 0.0386
1165.50 0.03859
1165.60 0.03857
1165.70 0.03856
1165.80 0.03855
1165.90 0.03854
1166.00 0.03852
1166.10 0.03851
1166.20 0.0385
1166.30 0.03848
1166.40 0.03847
1166.50 0.03846
1166.60 0.03844
1166.70 0.03843
1166.80 0.03842
1166.90 0.03841
1167.00 0.03839
1167.10 0.03838
1167.20 0.03837
1167.30 0.03835
1167.40 0.03834
1167.50 0.03833
1167.60 0.03832
1167.70 0.0383
1167.80 0.03829
1167.90 0.03828
1168.00 0.03827
1168.10 0.03825
1168.20 0.03824
1168.30 0.03823
1168.40 0.03821
1168.50 0.0382
1168.60 0.03819
1168.70 0.03818
1168.80 0.03816
1168.90 0.03815
1169.00 0.03814
1169.10 0.03812
1169.20 0.03811
1169.30 0.0381
1169.40 0.03809
1169.50 0.03807
1169.60 0.03806
1169.70 0.03805
1169.80 0.03804
1169.90 0.03802
1170.00 0.03801
1170.10 0.038
1170.20 0.03799
1170.30 0.03797
1170.40 0.03796
1170.50 0.03795
1170.60 0.03793
1170.70 0.03792
1170.80 0.03791
1170.90 0.0379
1171.00 0.03788
1171.10 0.03787
1171.20 0.03786
1171.30 0.03785
1171.40 0.03783
1171.50 0.03782
1171.60 0.03781
1171.70 0.0378
1171.80 0.03778
1171.90 0.03777
1172.00 0.03776
1172.10 0.03774
1172.20 0.03773
1172.30 0.03772
1172.40 0.03771
1172.50 0.03769
1172.60 0.03768
1172.70 0.03767
1172.80 0.03766
1172.90 0.03764
1173.00 0.03763
1173.10 0.03762
1173.20 0.03761
1173.30 0.03759
1173.40 0.03758
1173.50 0.03757
1173.60 0.03756
1173.70 0.03754
1173.80 0.03753
1173.90 0.03752
1174.00 0.03751
1174.10 0.03749
1174.20 0.03748
1174.30 0.03747
1174.40 0.03746
1174.50 0.03744
1174.60 0.03743
1174.70 0.03742
1174.80 0.03741
1174.90 0.03739
1175.00 0.03738
1175.10 0.03737
1175.20 0.03736
1175.30 0.03734
1175.40 0.03733
1175.50 0.03732
1175.60 0.03731
1175.70 0.03729
1175.80 0.03728
1175.90 0.03727
1176.00 0.03726
1176.10 0.03724
1176.20 0.03723
1176.30 0.03722
1176.40 0.03721
1176.50 0.0372
1176.60 0.03718
1176.70 0.03717
1176.80 0.03716
1176.90 0.03715
1177.00 0.03713
1177.10 0.03712
1177.20 0.03711
1177.30 0.0371
1177.40 0.03708
1177.50 0.03707
1177.60 0.03706
1177.70 0.03705
1177.80 0.03703
1177.90 0.03702
1178.00 0.03701
1178.10 0.037
1178.20 0.03699
1178.30 0.03697
1178.40 0.03696
1178.50 0.03695
1178.60 0.03694
1178.70 0.03692
1178.80 0.03691
1178.90 0.0369
1179.00 0.03689
1179.10 0.03688
1179.20 0.03686
1179.30 0.03685
1179.40 0.03684
1179.50 0.03683
1179.60 0.03681
1179.70 0.0368
1179.80 0.03679
1179.90 0.03678
1180.00 0.03677
1180.10 0.03675
1180.20 0.03674
1180.30 0.03673
1180.40 0.03672
1180.50 0.0367
1180.60 0.03669
1180.70 0.03668
1180.80 0.03667
1180.90 0.03666
1181.00 0.03664
1181.10 0.03663
1181.20 0.03662
1181.30 0.03661
1181.40 0.03659
1181.50 0.03658
1181.60 0.03657
1181.70 0.03656
1181.80 0.03655
1181.90 0.03653
1182.00 0.03652
1182.10 0.03651
1182.20 0.0365
1182.30 0.03649
1182.40 0.03647
1182.50 0.03646
1182.60 0.03645
1182.70 0.03644
1182.80 0.03643
1182.90 0.03641
1183.00 0.0364
1183.10 0.03639
1183.20 0.03638
1183.30 0.03637
1183.40 0.03635
1183.50 0.03634
1183.60 0.03633
1183.70 0.03632
1183.80 0.03631
1183.90 0.03629
1184.00 0.03628
1184.10 0.03627
1184.20 0.03626
1184.30 0.03625
1184.40 0.03623
1184.50 0.03622
1184.60 0.03621
1184.70 0.0362
1184.80 0.03619
1184.90 0.03617
1185.00 0.03616
1185.10 0.03615
1185.20 0.03614
1185.30 0.03613
1185.40 0.03611
1185.50 0.0361
1185.60 0.03609
1185.70 0.03608
1185.80 0.03607
1185.90 0.03605
1186.00 0.03604
1186.10 0.03603
1186.20 0.03602
1186.30 0.03601
1186.40 0.03599
1186.50 0.03598
1186.60 0.03597
1186.70 0.03596
1186.80 0.03595
1186.90 0.03593
1187.00 0.03592
1187.10 0.03591
1187.20 0.0359
1187.30 0.03589
1187.40 0.03587
1187.50 0.03586
1187.60 0.03585
1187.70 0.03584
1187.80 0.03583
1187.90 0.03582
1188.00 0.0358
1188.10 0.03579
1188.20 0.03578
1188.30 0.03577
1188.40 0.03576
1188.50 0.03574
1188.60 0.03573
1188.70 0.03572
1188.80 0.03571
1188.90 0.0357
1189.00 0.03569
1189.10 0.03567
1189.20 0.03566
1189.30 0.03565
1189.40 0.03564
1189.50 0.03563
1189.60 0.03562
1189.70 0.0356
1189.80 0.03559
1189.90 0.03558
1190.00 0.03557
1190.10 0.03556
1190.20 0.03554
1190.30 0.03553
1190.40 0.03552
1190.50 0.03551
1190.60 0.0355
1190.70 0.03549
1190.80 0.03547
1190.90 0.03546
1191.00 0.03545
1191.10 0.03544
1191.20 0.03543
1191.30 0.03542
1191.40 0.0354
1191.50 0.03539
1191.60 0.03538
1191.70 0.03537
1191.80 0.03536
1191.90 0.03535
1192.00 0.03533
1192.10 0.03532
1192.20 0.03531
1192.30 0.0353
1192.40 0.03529
1192.50 0.03528
1192.60 0.03526
1192.70 0.03525
1192.80 0.03524
1192.90 0.03523
1193.00 0.03522
1193.10 0.03521
1193.20 0.0352
1193.30 0.03518
1193.40 0.03517
1193.50 0.03516
1193.60 0.03515
1193.70 0.03514
1193.80 0.03513
1193.90 0.03511
1194.00 0.0351
1194.10 0.03509
1194.20 0.03508
1194.30 0.03507
1194.40 0.03506
1194.50 0.03504
1194.60 0.03503
1194.70 0.03502
1194.80 0.03501
1194.90 0.035
1195.00 0.03499
1195.10 0.03498
1195.20 0.03496
1195.30 0.03495
1195.40 0.03494
1195.50 0.03493
1195.60 0.03492
1195.70 0.03491
1195.80 0.0349
1195.90 0.03488
1196.00 0.03487
1196.10 0.03486
1196.20 0.03485
1196.30 0.03484
1196.40 0.03483
1196.50 0.03481
1196.60 0.0348
1196.70 0.03479
1196.80 0.03478
1196.90 0.03477
1197.00 0.03476
1197.10 0.03475
1197.20 0.03473
1197.30 0.03472
1197.40 0.03471
1197.50 0.0347
1197.60 0.03469
1197.70 0.03468
1197.80 0.03467
1197.90 0.03466
1198.00 0.03464
1198.10 0.03463
1198.20 0.03462
1198.30 0.03461
1198.40 0.0346
1198.50 0.03459
1198.60 0.03458
1198.70 0.03456
1198.80 0.03455
1198.90 0.03454
1199.00 0.03453
1199.10 0.03452
1199.20 0.03451
1199.30 0.0345
1199.40 0.03448
1199.50 0.03447
1199.60 0.03446
1199.70 0.03445
1199.80 0.03444
1199.90 0.03443
1200.00 0
