# Version 2.1 - nm, norm@500 to 1, cut digits, bergeron_7000_75.dat_7000
# Wavelength(nm)  Flambda(ergs/cm^s/s/nm)
300.00 1.08
300.10 1.08
300.20 1.08
300.30 1.081
300.40 1.081
300.50 1.081
300.60 1.082
300.70 1.082
300.80 1.082
300.90 1.082
301.00 1.083
301.10 1.083
301.20 1.083
301.30 1.084
301.40 1.084
301.50 1.084
301.60 1.084
301.70 1.085
301.80 1.085
301.90 1.085
302.00 1.085
302.10 1.086
302.20 1.086
302.30 1.086
302.40 1.087
302.50 1.087
302.60 1.087
302.70 1.087
302.80 1.088
302.90 1.088
303.00 1.088
303.10 1.088
303.20 1.089
303.30 1.089
303.40 1.089
303.50 1.089
303.60 1.09
303.70 1.09
303.80 1.09
303.90 1.09
304.00 1.091
304.10 1.091
304.20 1.091
304.30 1.092
304.40 1.092
304.50 1.092
304.60 1.092
304.70 1.093
304.80 1.093
304.90 1.093
305.00 1.093
305.10 1.094
305.20 1.094
305.30 1.094
305.40 1.094
305.50 1.095
305.60 1.095
305.70 1.095
305.80 1.095
305.90 1.096
306.00 1.096
306.10 1.096
306.20 1.096
306.30 1.097
306.40 1.097
306.50 1.097
306.60 1.097
306.70 1.098
306.80 1.098
306.90 1.098
307.00 1.098
307.10 1.099
307.20 1.099
307.30 1.099
307.40 1.099
307.50 1.1
307.60 1.1
307.70 1.1
307.80 1.1
307.90 1.1
308.00 1.101
308.10 1.101
308.20 1.101
308.30 1.101
308.40 1.102
308.50 1.102
308.60 1.102
308.70 1.102
308.80 1.103
308.90 1.103
309.00 1.103
309.10 1.103
309.20 1.104
309.30 1.104
309.40 1.104
309.50 1.104
309.60 1.104
309.70 1.105
309.80 1.105
309.90 1.105
310.00 1.105
310.10 1.106
310.20 1.106
310.30 1.106
310.40 1.106
310.50 1.106
310.60 1.107
310.70 1.107
310.80 1.107
310.90 1.107
311.00 1.108
311.10 1.108
311.20 1.108
311.30 1.108
311.40 1.108
311.50 1.109
311.60 1.109
311.70 1.109
311.80 1.109
311.90 1.11
312.00 1.11
312.10 1.11
312.20 1.11
312.30 1.11
312.40 1.111
312.50 1.111
312.60 1.111
312.70 1.111
312.80 1.111
312.90 1.112
313.00 1.112
313.10 1.112
313.20 1.112
313.30 1.112
313.40 1.113
313.50 1.113
313.60 1.113
313.70 1.113
313.80 1.113
313.90 1.114
314.00 1.114
314.10 1.114
314.20 1.114
314.30 1.115
314.40 1.115
314.50 1.115
314.60 1.115
314.70 1.115
314.80 1.116
314.90 1.116
315.00 1.116
315.10 1.116
315.20 1.116
315.30 1.117
315.40 1.117
315.50 1.117
315.60 1.117
315.70 1.117
315.80 1.117
315.90 1.118
316.00 1.118
316.10 1.118
316.20 1.118
316.30 1.118
316.40 1.119
316.50 1.119
316.60 1.119
316.70 1.119
316.80 1.119
316.90 1.12
317.00 1.12
317.10 1.12
317.20 1.12
317.30 1.12
317.40 1.12
317.50 1.121
317.60 1.121
317.70 1.121
317.80 1.121
317.90 1.121
318.00 1.122
318.10 1.122
318.20 1.122
318.30 1.122
318.40 1.122
318.50 1.122
318.60 1.123
318.70 1.123
318.80 1.123
318.90 1.123
319.00 1.123
319.10 1.124
319.20 1.124
319.30 1.124
319.40 1.124
319.50 1.124
319.60 1.124
319.70 1.125
319.80 1.125
319.90 1.125
320.00 1.125
320.10 1.125
320.20 1.125
320.30 1.126
320.40 1.126
320.50 1.126
320.60 1.126
320.70 1.126
320.80 1.126
320.90 1.127
321.00 1.127
321.10 1.127
321.20 1.127
321.30 1.127
321.40 1.127
321.50 1.128
321.60 1.128
321.70 1.128
321.80 1.128
321.90 1.128
322.00 1.128
322.10 1.129
322.20 1.129
322.30 1.129
322.40 1.129
322.50 1.129
322.60 1.129
322.70 1.13
322.80 1.13
322.90 1.13
323.00 1.13
323.10 1.13
323.20 1.13
323.30 1.13
323.40 1.131
323.50 1.131
323.60 1.131
323.70 1.131
323.80 1.131
323.90 1.131
324.00 1.131
324.10 1.132
324.20 1.132
324.30 1.132
324.40 1.132
324.50 1.132
324.60 1.132
324.70 1.133
324.80 1.133
324.90 1.133
325.00 1.133
325.10 1.133
325.20 1.133
325.30 1.133
325.40 1.134
325.50 1.134
325.60 1.134
325.70 1.134
325.80 1.134
325.90 1.134
326.00 1.134
326.10 1.135
326.20 1.135
326.30 1.135
326.40 1.135
326.50 1.135
326.60 1.135
326.70 1.135
326.80 1.135
326.90 1.136
327.00 1.136
327.10 1.136
327.20 1.136
327.30 1.136
327.40 1.136
327.50 1.136
327.60 1.137
327.70 1.137
327.80 1.137
327.90 1.137
328.00 1.137
328.10 1.137
328.20 1.137
328.30 1.137
328.40 1.138
328.50 1.138
328.60 1.138
328.70 1.138
328.80 1.138
328.90 1.138
329.00 1.138
329.10 1.138
329.20 1.139
329.30 1.139
329.40 1.139
329.50 1.139
329.60 1.139
329.70 1.139
329.80 1.139
329.90 1.139
330.00 1.14
330.10 1.14
330.20 1.14
330.30 1.14
330.40 1.14
330.50 1.14
330.60 1.14
330.70 1.14
330.80 1.14
330.90 1.141
331.00 1.141
331.10 1.141
331.20 1.141
331.30 1.141
331.40 1.141
331.50 1.141
331.60 1.141
331.70 1.141
331.80 1.142
331.90 1.142
332.00 1.142
332.10 1.142
332.20 1.142
332.30 1.142
332.40 1.142
332.50 1.142
332.60 1.142
332.70 1.143
332.80 1.143
332.90 1.143
333.00 1.143
333.10 1.143
333.20 1.143
333.30 1.143
333.40 1.143
333.50 1.143
333.60 1.144
333.70 1.144
333.80 1.144
333.90 1.144
334.00 1.144
334.10 1.144
334.20 1.144
334.30 1.144
334.40 1.144
334.50 1.144
334.60 1.145
334.70 1.145
334.80 1.145
334.90 1.145
335.00 1.145
335.10 1.145
335.20 1.145
335.30 1.145
335.40 1.145
335.50 1.145
335.60 1.145
335.70 1.146
335.80 1.146
335.90 1.146
336.00 1.146
336.10 1.146
336.20 1.146
336.30 1.146
336.40 1.146
336.50 1.146
336.60 1.146
336.70 1.146
336.80 1.147
336.90 1.147
337.00 1.147
337.10 1.147
337.20 1.147
337.30 1.147
337.40 1.147
337.50 1.147
337.60 1.147
337.70 1.147
337.80 1.147
337.90 1.147
338.00 1.148
338.10 1.148
338.20 1.148
338.30 1.148
338.40 1.148
338.50 1.148
338.60 1.148
338.70 1.148
338.80 1.148
338.90 1.148
339.00 1.148
339.10 1.148
339.20 1.149
339.30 1.149
339.40 1.149
339.50 1.149
339.60 1.149
339.70 1.149
339.80 1.149
339.90 1.149
340.00 1.149
340.10 1.149
340.20 1.149
340.30 1.149
340.40 1.149
340.50 1.149
340.60 1.15
340.70 1.15
340.80 1.15
340.90 1.15
341.00 1.15
341.10 1.15
341.20 1.15
341.30 1.15
341.40 1.15
341.50 1.15
341.60 1.15
341.70 1.15
341.80 1.15
341.90 1.15
342.00 1.15
342.10 1.151
342.20 1.151
342.30 1.151
342.40 1.151
342.50 1.151
342.60 1.151
342.70 1.151
342.80 1.151
342.90 1.151
343.00 1.151
343.10 1.151
343.20 1.151
343.30 1.151
343.40 1.151
343.50 1.151
343.60 1.151
343.70 1.151
343.80 1.152
343.90 1.152
344.00 1.152
344.10 1.152
344.20 1.152
344.30 1.152
344.40 1.152
344.50 1.152
344.60 1.152
344.70 1.152
344.80 1.152
344.90 1.152
345.00 1.152
345.10 1.152
345.20 1.152
345.30 1.152
345.40 1.152
345.50 1.152
345.60 1.152
345.70 1.153
345.80 1.153
345.90 1.153
346.00 1.153
346.10 1.153
346.20 1.153
346.30 1.153
346.40 1.153
346.50 1.153
346.60 1.153
346.70 1.153
346.80 1.153
346.90 1.153
347.00 1.153
347.10 1.153
347.20 1.153
347.30 1.153
347.40 1.153
347.50 1.153
347.60 1.153
347.70 1.153
347.80 1.153
347.90 1.153
348.00 1.154
348.10 1.154
348.20 1.154
348.30 1.154
348.40 1.154
348.50 1.154
348.60 1.154
348.70 1.154
348.80 1.154
348.90 1.154
349.00 1.154
349.10 1.154
349.20 1.154
349.30 1.154
349.40 1.154
349.50 1.154
349.60 1.154
349.70 1.154
349.80 1.154
349.90 1.154
350.00 1.154
350.10 1.154
350.20 1.154
350.30 1.154
350.40 1.154
350.50 1.154
350.60 1.154
350.70 1.154
350.80 1.154
350.90 1.154
351.00 1.154
351.10 1.155
351.20 1.155
351.30 1.155
351.40 1.155
351.50 1.155
351.60 1.155
351.70 1.155
351.80 1.155
351.90 1.155
352.00 1.155
352.10 1.155
352.20 1.155
352.30 1.155
352.40 1.155
352.50 1.155
352.60 1.155
352.70 1.155
352.80 1.155
352.90 1.155
353.00 1.155
353.10 1.155
353.20 1.155
353.30 1.155
353.40 1.155
353.50 1.155
353.60 1.155
353.70 1.155
353.80 1.155
353.90 1.155
354.00 1.155
354.10 1.155
354.20 1.155
354.30 1.155
354.40 1.155
354.50 1.155
354.60 1.155
354.70 1.155
354.80 1.155
354.90 1.155
355.00 1.155
355.10 1.155
355.20 1.155
355.30 1.155
355.40 1.155
355.50 1.155
355.60 1.155
355.70 1.155
355.80 1.155
355.90 1.155
356.00 1.155
356.10 1.155
356.20 1.155
356.30 1.155
356.40 1.155
356.50 1.155
356.60 1.155
356.70 1.155
356.80 1.155
356.90 1.155
357.00 1.155
357.10 1.155
357.20 1.155
357.30 1.155
357.40 1.155
357.50 1.155
357.60 1.155
357.70 1.155
357.80 1.155
357.90 1.155
358.00 1.155
358.10 1.155
358.20 1.155
358.30 1.155
358.40 1.155
358.50 1.155
358.60 1.155
358.70 1.155
358.80 1.155
358.90 1.155
359.00 1.155
359.10 1.155
359.20 1.155
359.30 1.155
359.40 1.155
359.50 1.155
359.60 1.155
359.70 1.155
359.80 1.155
359.90 1.155
360.00 1.155
360.10 1.155
360.20 1.155
360.30 1.155
360.40 1.155
360.50 1.155
360.60 1.155
360.70 1.155
360.80 1.155
360.90 1.155
361.00 1.155
361.10 1.155
361.20 1.155
361.30 1.155
361.40 1.155
361.50 1.155
361.60 1.155
361.70 1.155
361.80 1.155
361.90 1.155
362.00 1.155
362.10 1.155
362.20 1.155
362.30 1.155
362.40 1.155
362.50 1.155
362.60 1.155
362.70 1.155
362.80 1.155
362.90 1.155
363.00 1.155
363.10 1.155
363.20 1.155
363.30 1.155
363.40 1.155
363.50 1.155
363.60 1.155
363.70 1.155
363.80 1.155
363.90 1.155
364.00 1.155
364.10 1.155
364.20 1.155
364.30 1.155
364.40 1.155
364.50 1.155
364.60 1.154
364.70 1.154
364.80 1.154
364.90 1.154
365.00 1.154
365.10 1.154
365.20 1.154
365.30 1.154
365.40 1.154
365.50 1.154
365.60 1.154
365.70 1.154
365.80 1.154
365.90 1.154
366.00 1.154
366.10 1.154
366.20 1.154
366.30 1.154
366.40 1.154
366.50 1.154
366.60 1.154
366.70 1.154
366.80 1.154
366.90 1.154
367.00 1.154
367.10 1.154
367.20 1.154
367.30 1.154
367.40 1.154
367.50 1.154
367.60 1.154
367.70 1.153
367.80 1.153
367.90 1.153
368.00 1.153
368.10 1.153
368.20 1.153
368.30 1.153
368.40 1.153
368.50 1.153
368.60 1.153
368.70 1.153
368.80 1.153
368.90 1.153
369.00 1.153
369.10 1.153
369.20 1.153
369.30 1.153
369.40 1.153
369.50 1.153
369.60 1.153
369.70 1.153
369.80 1.153
369.90 1.153
370.00 1.153
370.10 1.153
370.20 1.153
370.30 1.153
370.40 1.153
370.50 1.153
370.60 1.153
370.70 1.153
370.80 1.153
370.90 1.153
371.00 1.153
371.10 1.153
371.20 1.153
371.30 1.153
371.40 1.153
371.50 1.153
371.60 1.154
371.70 1.154
371.80 1.154
371.90 1.154
372.00 1.154
372.10 1.154
372.20 1.154
372.30 1.155
372.40 1.155
372.50 1.155
372.60 1.155
372.70 1.156
372.80 1.156
372.90 1.156
373.00 1.156
373.10 1.157
373.20 1.157
373.30 1.157
373.40 1.157
373.50 1.158
373.60 1.158
373.70 1.158
373.80 1.158
373.90 1.159
374.00 1.159
374.10 1.159
374.20 1.16
374.30 1.16
374.40 1.161
374.50 1.161
374.60 1.162
374.70 1.162
374.80 1.162
374.90 1.163
375.00 1.163
375.10 1.164
375.20 1.164
375.30 1.165
375.40 1.165
375.50 1.165
375.60 1.166
375.70 1.166
375.80 1.167
375.90 1.167
376.00 1.168
376.10 1.168
376.20 1.168
376.30 1.169
376.40 1.169
376.50 1.169
376.60 1.17
376.70 1.17
376.80 1.171
376.90 1.171
377.00 1.171
377.10 1.171
377.20 1.171
377.30 1.172
377.40 1.172
377.50 1.172
377.60 1.172
377.70 1.172
377.80 1.172
377.90 1.172
378.00 1.172
378.10 1.171
378.20 1.169
378.30 1.168
378.40 1.167
378.50 1.165
378.60 1.164
378.70 1.163
378.80 1.161
378.90 1.16
379.00 1.159
379.10 1.155
379.20 1.152
379.30 1.149
379.40 1.146
379.50 1.142
379.60 1.139
379.70 1.136
379.80 1.132
379.90 1.129
380.00 1.126
380.10 1.13
380.20 1.135
380.30 1.14
380.40 1.144
380.50 1.149
380.60 1.154
380.70 1.158
380.80 1.163
380.90 1.168
381.00 1.172
381.10 1.173
381.20 1.174
381.30 1.175
381.40 1.176
381.50 1.177
381.60 1.177
381.70 1.177
381.80 1.176
381.90 1.176
382.00 1.175
382.10 1.174
382.20 1.172
382.30 1.165
382.40 1.159
382.50 1.153
382.60 1.146
382.70 1.14
382.80 1.133
382.90 1.127
383.00 1.12
383.10 1.114
383.20 1.108
383.30 1.09
383.40 1.063
383.50 1.004
383.60 1.022
383.70 1.07
383.80 1.095
383.90 1.112
384.00 1.125
384.10 1.136
384.20 1.145
384.30 1.152
384.40 1.159
384.50 1.164
384.60 1.168
384.70 1.172
384.80 1.175
384.90 1.177
385.00 1.18
385.10 1.181
385.20 1.183
385.30 1.184
385.40 1.185
385.50 1.186
385.60 1.186
385.70 1.187
385.80 1.187
385.90 1.187
386.00 1.188
386.10 1.188
386.20 1.188
386.30 1.188
386.40 1.187
386.50 1.187
386.60 1.187
386.70 1.186
386.80 1.186
386.90 1.185
387.00 1.184
387.10 1.183
387.20 1.181
387.30 1.179
387.40 1.177
387.50 1.175
387.60 1.171
387.70 1.168
387.80 1.163
387.90 1.157
388.00 1.15
388.10 1.141
388.20 1.13
388.30 1.116
388.40 1.098
388.50 1.076
388.60 1.051
388.70 1.011
388.80 0.9364
388.90 0.8289
389.00 0.9327
389.10 1.006
389.20 1.048
389.30 1.074
389.40 1.097
389.50 1.115
389.60 1.129
389.70 1.14
389.80 1.15
389.90 1.157
390.00 1.163
390.10 1.168
390.20 1.172
390.30 1.175
390.40 1.178
390.50 1.18
390.60 1.182
390.70 1.184
390.80 1.185
390.90 1.187
391.00 1.188
391.10 1.188
391.20 1.189
391.30 1.19
391.40 1.191
391.50 1.191
391.60 1.191
391.70 1.192
391.80 1.192
391.90 1.192
392.00 1.193
392.10 1.193
392.20 1.193
392.30 1.193
392.40 1.193
392.50 1.193
392.60 1.193
392.70 1.193
392.80 1.193
392.90 1.193
393.00 1.193
393.10 1.193
393.20 1.193
393.30 1.193
393.40 1.193
393.50 1.192
393.60 1.192
393.70 1.192
393.80 1.191
393.90 1.191
394.00 1.191
394.10 1.19
394.20 1.19
394.30 1.189
394.40 1.188
394.50 1.188
394.60 1.187
394.70 1.186
394.80 1.185
394.90 1.183
395.00 1.182
395.10 1.18
395.20 1.178
395.30 1.176
395.40 1.174
395.50 1.171
395.60 1.167
395.70 1.163
395.80 1.158
395.90 1.152
396.00 1.145
396.10 1.136
396.20 1.124
396.30 1.108
396.40 1.091
396.50 1.064
396.60 1.032
396.70 0.9933
396.80 0.9304
396.90 0.8129
397.00 0.6409
397.10 0.8045
397.20 0.9198
397.30 0.9867
397.40 1.027
397.50 1.06
397.60 1.087
397.70 1.106
397.80 1.121
397.90 1.134
398.00 1.143
398.10 1.15
398.20 1.156
398.30 1.161
398.40 1.165
398.50 1.169
398.60 1.171
398.70 1.174
398.80 1.176
398.90 1.178
399.00 1.179
399.10 1.181
399.20 1.182
399.30 1.183
399.40 1.184
399.50 1.184
399.60 1.185
399.70 1.186
399.80 1.186
399.90 1.187
400.00 1.187
400.10 1.187
400.20 1.188
400.30 1.188
400.40 1.188
400.50 1.188
400.60 1.189
400.70 1.189
400.80 1.189
400.90 1.189
401.00 1.189
401.10 1.189
401.20 1.189
401.30 1.189
401.40 1.189
401.50 1.189
401.60 1.189
401.70 1.189
401.80 1.189
401.90 1.189
402.00 1.189
402.10 1.189
402.20 1.189
402.30 1.189
402.40 1.189
402.50 1.189
402.60 1.189
402.70 1.189
402.80 1.189
402.90 1.189
403.00 1.188
403.10 1.188
403.20 1.188
403.30 1.188
403.40 1.188
403.50 1.188
403.60 1.188
403.70 1.188
403.80 1.187
403.90 1.187
404.00 1.187
404.10 1.187
404.20 1.187
404.30 1.187
404.40 1.187
404.50 1.186
404.60 1.186
404.70 1.186
404.80 1.186
404.90 1.186
405.00 1.185
405.10 1.185
405.20 1.185
405.30 1.185
405.40 1.185
405.50 1.184
405.60 1.184
405.70 1.184
405.80 1.184
405.90 1.183
406.00 1.183
406.10 1.183
406.20 1.182
406.30 1.182
406.40 1.181
406.50 1.181
406.60 1.181
406.70 1.18
406.80 1.18
406.90 1.179
407.00 1.179
407.10 1.178
407.20 1.177
407.30 1.177
407.40 1.176
407.50 1.175
407.60 1.174
407.70 1.173
407.80 1.172
407.90 1.17
408.00 1.169
408.10 1.167
408.20 1.165
408.30 1.163
408.40 1.16
408.50 1.157
408.60 1.154
408.70 1.15
408.80 1.146
408.90 1.141
409.00 1.135
409.10 1.127
409.20 1.117
409.30 1.107
409.40 1.091
409.50 1.072
409.60 1.049
409.70 1.014
409.80 0.9693
409.90 0.9144
410.00 0.814
410.10 0.6847
410.20 0.5266
410.30 0.7305
410.40 0.8711
410.50 0.9485
410.60 0.9948
410.70 1.033
410.80 1.062
410.90 1.082
411.00 1.098
411.10 1.111
411.20 1.121
411.30 1.129
411.40 1.136
411.50 1.141
411.60 1.145
411.70 1.149
411.80 1.152
411.90 1.155
412.00 1.157
412.10 1.159
412.20 1.161
412.30 1.163
412.40 1.164
412.50 1.165
412.60 1.166
412.70 1.167
412.80 1.168
412.90 1.168
413.00 1.169
413.10 1.169
413.20 1.17
413.30 1.17
413.40 1.17
413.50 1.171
413.60 1.171
413.70 1.171
413.80 1.171
413.90 1.171
414.00 1.172
414.10 1.172
414.20 1.172
414.30 1.172
414.40 1.172
414.50 1.172
414.60 1.172
414.70 1.172
414.80 1.172
414.90 1.172
415.00 1.172
415.10 1.172
415.20 1.172
415.30 1.172
415.40 1.172
415.50 1.172
415.60 1.172
415.70 1.172
415.80 1.171
415.90 1.171
416.00 1.171
416.10 1.171
416.20 1.171
416.30 1.171
416.40 1.171
416.50 1.171
416.60 1.171
416.70 1.171
416.80 1.17
416.90 1.17
417.00 1.17
417.10 1.17
417.20 1.17
417.30 1.17
417.40 1.17
417.50 1.17
417.60 1.17
417.70 1.169
417.80 1.169
417.90 1.169
418.00 1.169
418.10 1.169
418.20 1.169
418.30 1.169
418.40 1.168
418.50 1.168
418.60 1.168
418.70 1.168
418.80 1.168
418.90 1.168
419.00 1.168
419.10 1.167
419.20 1.167
419.30 1.167
419.40 1.167
419.50 1.167
419.60 1.167
419.70 1.167
419.80 1.166
419.90 1.166
420.00 1.166
420.10 1.166
420.20 1.166
420.30 1.166
420.40 1.165
420.50 1.165
420.60 1.165
420.70 1.165
420.80 1.165
420.90 1.165
421.00 1.164
421.10 1.164
421.20 1.164
421.30 1.164
421.40 1.164
421.50 1.164
421.60 1.164
421.70 1.163
421.80 1.163
421.90 1.163
422.00 1.163
422.10 1.163
422.20 1.162
422.30 1.162
422.40 1.162
422.50 1.162
422.60 1.162
422.70 1.162
422.80 1.161
422.90 1.161
423.00 1.161
423.10 1.161
423.20 1.161
423.30 1.161
423.40 1.16
423.50 1.16
423.60 1.16
423.70 1.16
423.80 1.16
423.90 1.16
424.00 1.159
424.10 1.159
424.20 1.159
424.30 1.159
424.40 1.159
424.50 1.158
424.60 1.158
424.70 1.158
424.80 1.158
424.90 1.158
425.00 1.158
425.10 1.157
425.20 1.157
425.30 1.157
425.40 1.157
425.50 1.157
425.60 1.156
425.70 1.156
425.80 1.156
425.90 1.156
426.00 1.156
426.10 1.156
426.20 1.155
426.30 1.155
426.40 1.155
426.50 1.155
426.60 1.155
426.70 1.154
426.80 1.154
426.90 1.154
427.00 1.154
427.10 1.153
427.20 1.153
427.30 1.153
427.40 1.153
427.50 1.153
427.60 1.152
427.70 1.152
427.80 1.152
427.90 1.152
428.00 1.151
428.10 1.151
428.20 1.151
428.30 1.151
428.40 1.15
428.50 1.15
428.60 1.15
428.70 1.149
428.80 1.149
428.90 1.149
429.00 1.148
429.10 1.148
429.20 1.148
429.30 1.147
429.40 1.147
429.50 1.147
429.60 1.146
429.70 1.146
429.80 1.146
429.90 1.145
430.00 1.145
430.10 1.144
430.20 1.144
430.30 1.143
430.40 1.143
430.50 1.142
430.60 1.142
430.70 1.141
430.80 1.14
430.90 1.14
431.00 1.139
431.10 1.138
431.20 1.137
431.30 1.137
431.40 1.136
431.50 1.135
431.60 1.133
431.70 1.132
431.80 1.131
431.90 1.129
432.00 1.127
432.10 1.125
432.20 1.122
432.30 1.12
432.40 1.116
432.50 1.112
432.60 1.108
432.70 1.102
432.80 1.095
432.90 1.088
433.00 1.079
433.10 1.068
433.20 1.055
433.30 1.04
433.40 1.018
433.50 0.9903
433.60 0.9564
433.70 0.9009
433.80 0.8224
433.90 0.7209
434.00 0.4881
434.10 0.4921
434.20 0.7326
434.30 0.83
434.40 0.9055
434.50 0.9591
434.60 0.9919
434.70 1.019
434.80 1.04
434.90 1.054
435.00 1.066
435.10 1.077
435.20 1.085
435.30 1.092
435.40 1.099
435.50 1.103
435.60 1.108
435.70 1.111
435.80 1.114
435.90 1.116
436.00 1.119
436.10 1.12
436.20 1.122
436.30 1.123
436.40 1.124
436.50 1.125
436.60 1.126
436.70 1.126
436.80 1.127
436.90 1.127
437.00 1.128
437.10 1.128
437.20 1.129
437.30 1.129
437.40 1.129
437.50 1.129
437.60 1.129
437.70 1.13
437.80 1.13
437.90 1.13
438.00 1.13
438.10 1.13
438.20 1.13
438.30 1.13
438.40 1.13
438.50 1.13
438.60 1.13
438.70 1.13
438.80 1.13
438.90 1.13
439.00 1.13
439.10 1.13
439.20 1.13
439.30 1.13
439.40 1.13
439.50 1.13
439.60 1.13
439.70 1.129
439.80 1.129
439.90 1.129
440.00 1.129
440.10 1.129
440.20 1.129
440.30 1.129
440.40 1.129
440.50 1.129
440.60 1.128
440.70 1.128
440.80 1.128
440.90 1.128
441.00 1.128
441.10 1.128
441.20 1.127
441.30 1.127
441.40 1.127
441.50 1.127
441.60 1.127
441.70 1.127
441.80 1.126
441.90 1.126
442.00 1.126
442.10 1.126
442.20 1.126
442.30 1.126
442.40 1.125
442.50 1.125
442.60 1.125
442.70 1.125
442.80 1.125
442.90 1.124
443.00 1.124
443.10 1.124
443.20 1.124
443.30 1.124
443.40 1.124
443.50 1.123
443.60 1.123
443.70 1.123
443.80 1.123
443.90 1.123
444.00 1.122
444.10 1.122
444.20 1.122
444.30 1.122
444.40 1.122
444.50 1.121
444.60 1.121
444.70 1.121
444.80 1.121
444.90 1.121
445.00 1.121
445.10 1.12
445.20 1.12
445.30 1.12
445.40 1.12
445.50 1.12
445.60 1.119
445.70 1.119
445.80 1.119
445.90 1.119
446.00 1.119
446.10 1.118
446.20 1.118
446.30 1.118
446.40 1.118
446.50 1.118
446.60 1.117
446.70 1.117
446.80 1.117
446.90 1.117
447.00 1.117
447.10 1.116
447.20 1.116
447.30 1.116
447.40 1.116
447.50 1.116
447.60 1.115
447.70 1.115
447.80 1.115
447.90 1.115
448.00 1.115
448.10 1.114
448.20 1.114
448.30 1.114
448.40 1.114
448.50 1.114
448.60 1.113
448.70 1.113
448.80 1.113
448.90 1.113
449.00 1.113
449.10 1.112
449.20 1.112
449.30 1.112
449.40 1.112
449.50 1.112
449.60 1.111
449.70 1.111
449.80 1.111
449.90 1.111
450.00 1.111
450.10 1.11
450.20 1.11
450.30 1.11
450.40 1.11
450.50 1.11
450.60 1.109
450.70 1.109
450.80 1.109
450.90 1.109
451.00 1.108
451.10 1.108
451.20 1.108
451.30 1.108
451.40 1.108
451.50 1.107
451.60 1.107
451.70 1.107
451.80 1.107
451.90 1.107
452.00 1.106
452.10 1.106
452.20 1.106
452.30 1.106
452.40 1.106
452.50 1.105
452.60 1.105
452.70 1.105
452.80 1.105
452.90 1.105
453.00 1.104
453.10 1.104
453.20 1.104
453.30 1.104
453.40 1.104
453.50 1.103
453.60 1.103
453.70 1.103
453.80 1.103
453.90 1.102
454.00 1.102
454.10 1.102
454.20 1.102
454.30 1.102
454.40 1.101
454.50 1.101
454.60 1.101
454.70 1.101
454.80 1.101
454.90 1.1
455.00 1.1
455.10 1.1
455.20 1.1
455.30 1.1
455.40 1.099
455.50 1.099
455.60 1.099
455.70 1.099
455.80 1.099
455.90 1.098
456.00 1.098
456.10 1.098
456.20 1.098
456.30 1.097
456.40 1.097
456.50 1.097
456.60 1.097
456.70 1.097
456.80 1.096
456.90 1.096
457.00 1.096
457.10 1.096
457.20 1.096
457.30 1.095
457.40 1.095
457.50 1.095
457.60 1.095
457.70 1.094
457.80 1.094
457.90 1.094
458.00 1.094
458.10 1.094
458.20 1.093
458.30 1.093
458.40 1.093
458.50 1.093
458.60 1.093
458.70 1.092
458.80 1.092
458.90 1.092
459.00 1.092
459.10 1.092
459.20 1.091
459.30 1.091
459.40 1.091
459.50 1.091
459.60 1.09
459.70 1.09
459.80 1.09
459.90 1.09
460.00 1.09
460.10 1.089
460.20 1.089
460.30 1.089
460.40 1.089
460.50 1.089
460.60 1.088
460.70 1.088
460.80 1.088
460.90 1.088
461.00 1.087
461.10 1.087
461.20 1.087
461.30 1.087
461.40 1.087
461.50 1.086
461.60 1.086
461.70 1.086
461.80 1.086
461.90 1.086
462.00 1.085
462.10 1.085
462.20 1.085
462.30 1.085
462.40 1.085
462.50 1.084
462.60 1.084
462.70 1.084
462.80 1.084
462.90 1.083
463.00 1.083
463.10 1.083
463.20 1.083
463.30 1.083
463.40 1.082
463.50 1.082
463.60 1.082
463.70 1.082
463.80 1.081
463.90 1.081
464.00 1.081
464.10 1.081
464.20 1.081
464.30 1.08
464.40 1.08
464.50 1.08
464.60 1.08
464.70 1.08
464.80 1.079
464.90 1.079
465.00 1.079
465.10 1.079
465.20 1.078
465.30 1.078
465.40 1.078
465.50 1.078
465.60 1.078
465.70 1.077
465.80 1.077
465.90 1.077
466.00 1.077
466.10 1.076
466.20 1.076
466.30 1.076
466.40 1.076
466.50 1.076
466.60 1.075
466.70 1.075
466.80 1.075
466.90 1.075
467.00 1.075
467.10 1.074
467.20 1.074
467.30 1.074
467.40 1.074
467.50 1.073
467.60 1.073
467.70 1.073
467.80 1.073
467.90 1.073
468.00 1.072
468.10 1.072
468.20 1.072
468.30 1.072
468.40 1.071
468.50 1.071
468.60 1.071
468.70 1.071
468.80 1.071
468.90 1.07
469.00 1.07
469.10 1.07
469.20 1.07
469.30 1.069
469.40 1.069
469.50 1.069
469.60 1.069
469.70 1.069
469.80 1.068
469.90 1.068
470.00 1.068
470.10 1.068
470.20 1.067
470.30 1.067
470.40 1.067
470.50 1.067
470.60 1.067
470.70 1.066
470.80 1.066
470.90 1.066
471.00 1.066
471.10 1.065
471.20 1.065
471.30 1.065
471.40 1.065
471.50 1.065
471.60 1.064
471.70 1.064
471.80 1.064
471.90 1.064
472.00 1.063
472.10 1.063
472.20 1.063
472.30 1.063
472.40 1.063
472.50 1.062
472.60 1.062
472.70 1.062
472.80 1.062
472.90 1.061
473.00 1.061
473.10 1.061
473.20 1.061
473.30 1.06
473.40 1.06
473.50 1.06
473.60 1.06
473.70 1.06
473.80 1.059
473.90 1.059
474.00 1.059
474.10 1.059
474.20 1.058
474.30 1.058
474.40 1.058
474.50 1.058
474.60 1.058
474.70 1.057
474.80 1.057
474.90 1.057
475.00 1.057
475.10 1.056
475.20 1.056
475.30 1.056
475.40 1.056
475.50 1.055
475.60 1.055
475.70 1.055
475.80 1.055
475.90 1.055
476.00 1.054
476.10 1.054
476.20 1.054
476.30 1.054
476.40 1.053
476.50 1.053
476.60 1.053
476.70 1.053
476.80 1.052
476.90 1.052
477.00 1.052
477.10 1.052
477.20 1.051
477.30 1.051
477.40 1.051
477.50 1.051
477.60 1.051
477.70 1.05
477.80 1.05
477.90 1.05
478.00 1.05
478.10 1.049
478.20 1.049
478.30 1.049
478.40 1.049
478.50 1.048
478.60 1.048
478.70 1.048
478.80 1.047
478.90 1.047
479.00 1.047
479.10 1.047
479.20 1.046
479.30 1.046
479.40 1.046
479.50 1.046
479.60 1.045
479.70 1.045
479.80 1.045
479.90 1.044
480.00 1.044
480.10 1.044
480.20 1.043
480.30 1.043
480.40 1.043
480.50 1.042
480.60 1.042
480.70 1.041
480.80 1.041
480.90 1.04
481.00 1.04
481.10 1.04
481.20 1.039
481.30 1.039
481.40 1.038
481.50 1.038
481.60 1.037
481.70 1.037
481.80 1.036
481.90 1.036
482.00 1.035
482.10 1.035
482.20 1.034
482.30 1.033
482.40 1.032
482.50 1.032
482.60 1.031
482.70 1.03
482.80 1.029
482.90 1.028
483.00 1.028
483.10 1.027
483.20 1.026
483.30 1.024
483.40 1.022
483.50 1.021
483.60 1.019
483.70 1.017
483.80 1.016
483.90 1.014
484.00 1.012
484.10 1.011
484.20 1.008
484.30 1.004
484.40 1
484.50 0.9968
484.60 0.9932
484.70 0.987
484.80 0.9796
484.90 0.9722
485.00 0.9648
485.10 0.9575
485.20 0.9461
485.30 0.9329
485.40 0.9149
485.50 0.8946
485.60 0.865
485.70 0.831
485.80 0.7739
485.90 0.7061
486.00 0.5971
486.10 0.3917
486.20 0.4712
486.30 0.6446
486.40 0.7275
486.50 0.7964
486.60 0.8414
486.70 0.8753
486.80 0.8996
486.90 0.9194
487.00 0.9345
487.10 0.9473
487.20 0.9561
487.30 0.9631
487.40 0.97
487.50 0.977
487.60 0.9839
487.70 0.9883
487.80 0.9914
487.90 0.9946
488.00 0.9977
488.10 1.001
488.20 1.003
488.30 1.004
488.40 1.005
488.50 1.006
488.60 1.007
488.70 1.009
488.80 1.01
488.90 1.011
489.00 1.012
489.10 1.013
489.20 1.014
489.30 1.014
489.40 1.014
489.50 1.015
489.60 1.015
489.70 1.015
489.80 1.016
489.90 1.016
490.00 1.016
490.10 1.017
490.20 1.017
490.30 1.017
490.40 1.017
490.50 1.017
490.60 1.017
490.70 1.017
490.80 1.017
490.90 1.017
491.00 1.017
491.10 1.017
491.20 1.017
491.30 1.017
491.40 1.017
491.50 1.017
491.60 1.017
491.70 1.017
491.80 1.017
491.90 1.017
492.00 1.017
492.10 1.017
492.20 1.016
492.30 1.016
492.40 1.016
492.50 1.016
492.60 1.016
492.70 1.016
492.80 1.016
492.90 1.015
493.00 1.015
493.10 1.015
493.20 1.015
493.30 1.015
493.40 1.014
493.50 1.014
493.60 1.014
493.70 1.014
493.80 1.014
493.90 1.013
494.00 1.013
494.10 1.013
494.20 1.013
494.30 1.013
494.40 1.012
494.50 1.012
494.60 1.012
494.70 1.012
494.80 1.012
494.90 1.011
495.00 1.011
495.10 1.011
495.20 1.011
495.30 1.01
495.40 1.01
495.50 1.01
495.60 1.01
495.70 1.01
495.80 1.009
495.90 1.009
496.00 1.009
496.10 1.009
496.20 1.008
496.30 1.008
496.40 1.008
496.50 1.008
496.60 1.008
496.70 1.007
496.80 1.007
496.90 1.007
497.00 1.007
497.10 1.007
497.20 1.006
497.30 1.006
497.40 1.006
497.50 1.006
497.60 1.005
497.70 1.005
497.80 1.005
497.90 1.005
498.00 1.004
498.10 1.004
498.20 1.004
498.30 1.004
498.40 1.004
498.50 1.003
498.60 1.003
498.70 1.003
498.80 1.003
498.90 1.002
499.00 1.002
499.10 1.002
499.20 1.002
499.30 1.002
499.40 1.001
499.50 1.001
499.60 1.001
499.70 1.001
499.80 1
499.90 1
500.00 1
500.10 0.9998
500.20 0.9995
500.30 0.9993
500.40 0.9991
500.50 0.9989
500.60 0.9986
500.70 0.9984
500.80 0.9982
500.90 0.9979
501.00 0.9977
501.10 0.9975
501.20 0.9972
501.30 0.997
501.40 0.9968
501.50 0.9966
501.60 0.9963
501.70 0.9961
501.80 0.9959
501.90 0.9956
502.00 0.9954
502.10 0.9952
502.20 0.9949
502.30 0.9947
502.40 0.9945
502.50 0.9943
502.60 0.994
502.70 0.9938
502.80 0.9936
502.90 0.9933
503.00 0.9931
503.10 0.9929
503.20 0.9927
503.30 0.9924
503.40 0.9922
503.50 0.992
503.60 0.9917
503.70 0.9915
503.80 0.9913
503.90 0.9911
504.00 0.9908
504.10 0.9906
504.20 0.9904
504.30 0.9901
504.40 0.9899
504.50 0.9897
504.60 0.9894
504.70 0.9892
504.80 0.989
504.90 0.9887
505.00 0.9885
505.10 0.9883
505.20 0.988
505.30 0.9878
505.40 0.9876
505.50 0.9874
505.60 0.9871
505.70 0.9869
505.80 0.9867
505.90 0.9865
506.00 0.9862
506.10 0.986
506.20 0.9858
506.30 0.9855
506.40 0.9853
506.50 0.9851
506.60 0.9848
506.70 0.9846
506.80 0.9844
506.90 0.9841
507.00 0.9839
507.10 0.9837
507.20 0.9834
507.30 0.9832
507.40 0.983
507.50 0.9828
507.60 0.9825
507.70 0.9823
507.80 0.9821
507.90 0.9818
508.00 0.9816
508.10 0.9814
508.20 0.9811
508.30 0.9809
508.40 0.9807
508.50 0.9804
508.60 0.9802
508.70 0.98
508.80 0.9798
508.90 0.9795
509.00 0.9793
509.10 0.9791
509.20 0.9788
509.30 0.9786
509.40 0.9784
509.50 0.9781
509.60 0.9779
509.70 0.9777
509.80 0.9775
509.90 0.9772
510.00 0.977
510.10 0.9768
510.20 0.9765
510.30 0.9763
510.40 0.9761
510.50 0.9758
510.60 0.9756
510.70 0.9754
510.80 0.9751
510.90 0.9749
511.00 0.9746
511.10 0.9744
511.20 0.9742
511.30 0.974
511.40 0.9737
511.50 0.9735
511.60 0.9733
511.70 0.973
511.80 0.9728
511.90 0.9726
512.00 0.9724
512.10 0.9721
512.20 0.9719
512.30 0.9717
512.40 0.9714
512.50 0.9712
512.60 0.971
512.70 0.9707
512.80 0.9705
512.90 0.9703
513.00 0.97
513.10 0.9698
513.20 0.9696
513.30 0.9693
513.40 0.9691
513.50 0.9689
513.60 0.9686
513.70 0.9684
513.80 0.9682
513.90 0.9679
514.00 0.9677
514.10 0.9675
514.20 0.9672
514.30 0.967
514.40 0.9668
514.50 0.9665
514.60 0.9663
514.70 0.9661
514.80 0.9659
514.90 0.9656
515.00 0.9654
515.10 0.9652
515.20 0.9649
515.30 0.9647
515.40 0.9645
515.50 0.9642
515.60 0.964
515.70 0.9638
515.80 0.9635
515.90 0.9633
516.00 0.9631
516.10 0.9629
516.20 0.9626
516.30 0.9624
516.40 0.9622
516.50 0.9619
516.60 0.9617
516.70 0.9615
516.80 0.9612
516.90 0.961
517.00 0.9608
517.10 0.9606
517.20 0.9603
517.30 0.9601
517.40 0.9599
517.50 0.9596
517.60 0.9594
517.70 0.9591
517.80 0.9589
517.90 0.9587
518.00 0.9584
518.10 0.9582
518.20 0.958
518.30 0.9577
518.40 0.9575
518.50 0.9573
518.60 0.9571
518.70 0.9568
518.80 0.9566
518.90 0.9564
519.00 0.9562
519.10 0.9559
519.20 0.9557
519.30 0.9555
519.40 0.9552
519.50 0.955
519.60 0.9548
519.70 0.9545
519.80 0.9543
519.90 0.9541
520.00 0.9538
520.10 0.9536
520.20 0.9534
520.30 0.9531
520.40 0.9529
520.50 0.9527
520.60 0.9524
520.70 0.9522
520.80 0.952
520.90 0.9517
521.00 0.9515
521.10 0.9513
521.20 0.951
521.30 0.9508
521.40 0.9506
521.50 0.9503
521.60 0.9501
521.70 0.9499
521.80 0.9496
521.90 0.9494
522.00 0.9492
522.10 0.949
522.20 0.9487
522.30 0.9485
522.40 0.9483
522.50 0.948
522.60 0.9478
522.70 0.9476
522.80 0.9473
522.90 0.9471
523.00 0.9469
523.10 0.9466
523.20 0.9464
523.30 0.9462
523.40 0.946
523.50 0.9457
523.60 0.9455
523.70 0.9453
523.80 0.945
523.90 0.9448
524.00 0.9446
524.10 0.9443
524.20 0.9441
524.30 0.9439
524.40 0.9436
524.50 0.9434
524.60 0.9432
524.70 0.9429
524.80 0.9427
524.90 0.9425
525.00 0.9422
525.10 0.942
525.20 0.9418
525.30 0.9415
525.40 0.9413
525.50 0.9411
525.60 0.9409
525.70 0.9406
525.80 0.9404
525.90 0.9402
526.00 0.9399
526.10 0.9397
526.20 0.9395
526.30 0.9393
526.40 0.939
526.50 0.9388
526.60 0.9386
526.70 0.9383
526.80 0.9381
526.90 0.9379
527.00 0.9376
527.10 0.9374
527.20 0.9372
527.30 0.9369
527.40 0.9367
527.50 0.9365
527.60 0.9362
527.70 0.936
527.80 0.9358
527.90 0.9355
528.00 0.9353
528.10 0.9351
528.20 0.9348
528.30 0.9346
528.40 0.9344
528.50 0.9341
528.60 0.9339
528.70 0.9337
528.80 0.9334
528.90 0.9332
529.00 0.933
529.10 0.9327
529.20 0.9325
529.30 0.9323
529.40 0.9321
529.50 0.9318
529.60 0.9316
529.70 0.9314
529.80 0.9311
529.90 0.9309
530.00 0.9307
530.10 0.9304
530.20 0.9302
530.30 0.93
530.40 0.9298
530.50 0.9295
530.60 0.9293
530.70 0.9291
530.80 0.9288
530.90 0.9286
531.00 0.9284
531.10 0.9282
531.20 0.9279
531.30 0.9277
531.40 0.9275
531.50 0.9272
531.60 0.927
531.70 0.9268
531.80 0.9266
531.90 0.9263
532.00 0.9261
532.10 0.9259
532.20 0.9256
532.30 0.9254
532.40 0.9252
532.50 0.9249
532.60 0.9247
532.70 0.9245
532.80 0.9242
532.90 0.924
533.00 0.9238
533.10 0.9235
533.20 0.9233
533.30 0.9231
533.40 0.9229
533.50 0.9226
533.60 0.9224
533.70 0.9222
533.80 0.922
533.90 0.9217
534.00 0.9215
534.10 0.9213
534.20 0.921
534.30 0.9208
534.40 0.9206
534.50 0.9203
534.60 0.9201
534.70 0.9199
534.80 0.9197
534.90 0.9194
535.00 0.9192
535.10 0.919
535.20 0.9187
535.30 0.9185
535.40 0.9183
535.50 0.918
535.60 0.9178
535.70 0.9176
535.80 0.9173
535.90 0.9171
536.00 0.9169
536.10 0.9166
536.20 0.9164
536.30 0.9162
536.40 0.916
536.50 0.9157
536.60 0.9155
536.70 0.9153
536.80 0.915
536.90 0.9148
537.00 0.9146
537.10 0.9144
537.20 0.9141
537.30 0.9139
537.40 0.9137
537.50 0.9134
537.60 0.9132
537.70 0.913
537.80 0.9127
537.90 0.9125
538.00 0.9123
538.10 0.9121
538.20 0.9118
538.30 0.9116
538.40 0.9114
538.50 0.9112
538.60 0.9109
538.70 0.9107
538.80 0.9105
538.90 0.9102
539.00 0.91
539.10 0.9098
539.20 0.9096
539.30 0.9093
539.40 0.9091
539.50 0.9089
539.60 0.9086
539.70 0.9084
539.80 0.9082
539.90 0.9079
540.00 0.9077
540.10 0.9075
540.20 0.9072
540.30 0.907
540.40 0.9068
540.50 0.9065
540.60 0.9063
540.70 0.9061
540.80 0.9059
540.90 0.9056
541.00 0.9054
541.10 0.9052
541.20 0.905
541.30 0.9047
541.40 0.9045
541.50 0.9043
541.60 0.904
541.70 0.9038
541.80 0.9036
541.90 0.9034
542.00 0.9031
542.10 0.9029
542.20 0.9027
542.30 0.9024
542.40 0.9022
542.50 0.902
542.60 0.9017
542.70 0.9015
542.80 0.9013
542.90 0.901
543.00 0.9008
543.10 0.9006
543.20 0.9004
543.30 0.9001
543.40 0.8999
543.50 0.8997
543.60 0.8994
543.70 0.8992
543.80 0.899
543.90 0.8988
544.00 0.8985
544.10 0.8983
544.20 0.8981
544.30 0.8978
544.40 0.8976
544.50 0.8974
544.60 0.8972
544.70 0.8969
544.80 0.8967
544.90 0.8965
545.00 0.8962
545.10 0.896
545.20 0.8958
545.30 0.8956
545.40 0.8953
545.50 0.8951
545.60 0.8949
545.70 0.8947
545.80 0.8944
545.90 0.8942
546.00 0.894
546.10 0.8937
546.20 0.8935
546.30 0.8933
546.40 0.8931
546.50 0.8928
546.60 0.8926
546.70 0.8924
546.80 0.8922
546.90 0.8919
547.00 0.8917
547.10 0.8915
547.20 0.8913
547.30 0.891
547.40 0.8908
547.50 0.8906
547.60 0.8903
547.70 0.8901
547.80 0.8899
547.90 0.8896
548.00 0.8894
548.10 0.8892
548.20 0.8889
548.30 0.8887
548.40 0.8885
548.50 0.8883
548.60 0.8881
548.70 0.8878
548.80 0.8876
548.90 0.8874
549.00 0.8872
549.10 0.8869
549.20 0.8867
549.30 0.8865
549.40 0.8862
549.50 0.886
549.60 0.8858
549.70 0.8856
549.80 0.8853
549.90 0.8851
550.00 0.8849
550.10 0.8846
550.20 0.8844
550.30 0.8842
550.40 0.884
550.50 0.8837
550.60 0.8835
550.70 0.8833
550.80 0.883
550.90 0.8828
551.00 0.8826
551.10 0.8824
551.20 0.8821
551.30 0.8819
551.40 0.8817
551.50 0.8814
551.60 0.8812
551.70 0.881
551.80 0.8808
551.90 0.8805
552.00 0.8803
552.10 0.8801
552.20 0.8799
552.30 0.8796
552.40 0.8794
552.50 0.8792
552.60 0.879
552.70 0.8787
552.80 0.8785
552.90 0.8783
553.00 0.8781
553.10 0.8778
553.20 0.8776
553.30 0.8774
553.40 0.8771
553.50 0.8769
553.60 0.8767
553.70 0.8765
553.80 0.8762
553.90 0.876
554.00 0.8758
554.10 0.8756
554.20 0.8753
554.30 0.8751
554.40 0.8749
554.50 0.8747
554.60 0.8745
554.70 0.8742
554.80 0.874
554.90 0.8738
555.00 0.8736
555.10 0.8733
555.20 0.8731
555.30 0.8729
555.40 0.8727
555.50 0.8724
555.60 0.8722
555.70 0.872
555.80 0.8718
555.90 0.8715
556.00 0.8713
556.10 0.8711
556.20 0.8709
556.30 0.8706
556.40 0.8704
556.50 0.8702
556.60 0.87
556.70 0.8697
556.80 0.8695
556.90 0.8693
557.00 0.869
557.10 0.8688
557.20 0.8686
557.30 0.8684
557.40 0.8681
557.50 0.8679
557.60 0.8677
557.70 0.8675
557.80 0.8672
557.90 0.867
558.00 0.8668
558.10 0.8665
558.20 0.8663
558.30 0.8661
558.40 0.8659
558.50 0.8657
558.60 0.8654
558.70 0.8652
558.80 0.865
558.90 0.8648
559.00 0.8646
559.10 0.8643
559.20 0.8641
559.30 0.8639
559.40 0.8637
559.50 0.8634
559.60 0.8632
559.70 0.863
559.80 0.8628
559.90 0.8625
560.00 0.8623
560.10 0.8621
560.20 0.8619
560.30 0.8616
560.40 0.8614
560.50 0.8612
560.60 0.861
560.70 0.8608
560.80 0.8605
560.90 0.8603
561.00 0.8601
561.10 0.8599
561.20 0.8596
561.30 0.8594
561.40 0.8592
561.50 0.859
561.60 0.8587
561.70 0.8585
561.80 0.8583
561.90 0.8581
562.00 0.8578
562.10 0.8576
562.20 0.8574
562.30 0.8572
562.40 0.8569
562.50 0.8567
562.60 0.8565
562.70 0.8563
562.80 0.856
562.90 0.8558
563.00 0.8556
563.10 0.8553
563.20 0.8551
563.30 0.8549
563.40 0.8547
563.50 0.8545
563.60 0.8542
563.70 0.854
563.80 0.8538
563.90 0.8536
564.00 0.8533
564.10 0.8531
564.20 0.8529
564.30 0.8527
564.40 0.8525
564.50 0.8522
564.60 0.852
564.70 0.8518
564.80 0.8515
564.90 0.8513
565.00 0.8511
565.10 0.8509
565.20 0.8506
565.30 0.8504
565.40 0.8502
565.50 0.85
565.60 0.8498
565.70 0.8496
565.80 0.8493
565.90 0.8491
566.00 0.8489
566.10 0.8487
566.20 0.8485
566.30 0.8482
566.40 0.848
566.50 0.8478
566.60 0.8476
566.70 0.8473
566.80 0.8471
566.90 0.8469
567.00 0.8467
567.10 0.8464
567.20 0.8462
567.30 0.846
567.40 0.8458
567.50 0.8455
567.60 0.8453
567.70 0.8451
567.80 0.8449
567.90 0.8447
568.00 0.8444
568.10 0.8442
568.20 0.844
568.30 0.8438
568.40 0.8435
568.50 0.8433
568.60 0.8431
568.70 0.8429
568.80 0.8426
568.90 0.8424
569.00 0.8422
569.10 0.842
569.20 0.8418
569.30 0.8415
569.40 0.8413
569.50 0.8411
569.60 0.8409
569.70 0.8407
569.80 0.8404
569.90 0.8402
570.00 0.84
570.10 0.8398
570.20 0.8396
570.30 0.8393
570.40 0.8391
570.50 0.8389
570.60 0.8387
570.70 0.8385
570.80 0.8382
570.90 0.838
571.00 0.8378
571.10 0.8376
571.20 0.8374
571.30 0.8371
571.40 0.8369
571.50 0.8367
571.60 0.8365
571.70 0.8363
571.80 0.836
571.90 0.8358
572.00 0.8356
572.10 0.8354
572.20 0.8352
572.30 0.8349
572.40 0.8347
572.50 0.8345
572.60 0.8343
572.70 0.834
572.80 0.8338
572.90 0.8336
573.00 0.8334
573.10 0.8331
573.20 0.8329
573.30 0.8327
573.40 0.8325
573.50 0.8323
573.60 0.8321
573.70 0.8318
573.80 0.8316
573.90 0.8314
574.00 0.8312
574.10 0.831
574.20 0.8308
574.30 0.8305
574.40 0.8303
574.50 0.8301
574.60 0.8299
574.70 0.8296
574.80 0.8294
574.90 0.8292
575.00 0.829
575.10 0.8288
575.20 0.8285
575.30 0.8283
575.40 0.8281
575.50 0.8279
575.60 0.8277
575.70 0.8275
575.80 0.8272
575.90 0.827
576.00 0.8268
576.10 0.8266
576.20 0.8264
576.30 0.8262
576.40 0.8259
576.50 0.8257
576.60 0.8255
576.70 0.8253
576.80 0.8251
576.90 0.8248
577.00 0.8246
577.10 0.8244
577.20 0.8242
577.30 0.824
577.40 0.8237
577.50 0.8235
577.60 0.8233
577.70 0.8231
577.80 0.8229
577.90 0.8227
578.00 0.8224
578.10 0.8222
578.20 0.822
578.30 0.8218
578.40 0.8216
578.50 0.8213
578.60 0.8211
578.70 0.8209
578.80 0.8207
578.90 0.8205
579.00 0.8203
579.10 0.82
579.20 0.8198
579.30 0.8196
579.40 0.8194
579.50 0.8191
579.60 0.8189
579.70 0.8187
579.80 0.8185
579.90 0.8183
580.00 0.818
580.10 0.8178
580.20 0.8176
580.30 0.8174
580.40 0.8172
580.50 0.8169
580.60 0.8167
580.70 0.8165
580.80 0.8163
580.90 0.8161
581.00 0.8159
581.10 0.8156
581.20 0.8154
581.30 0.8152
581.40 0.815
581.50 0.8148
581.60 0.8146
581.70 0.8144
581.80 0.8141
581.90 0.8139
582.00 0.8137
582.10 0.8135
582.20 0.8133
582.30 0.8131
582.40 0.8128
582.50 0.8126
582.60 0.8124
582.70 0.8122
582.80 0.812
582.90 0.8117
583.00 0.8115
583.10 0.8113
583.20 0.8111
583.30 0.8109
583.40 0.8107
583.50 0.8104
583.60 0.8102
583.70 0.81
583.80 0.8098
583.90 0.8096
584.00 0.8094
584.10 0.8092
584.20 0.809
584.30 0.8087
584.40 0.8085
584.50 0.8083
584.60 0.8081
584.70 0.8079
584.80 0.8076
584.90 0.8074
585.00 0.8072
585.10 0.807
585.20 0.8068
585.30 0.8066
585.40 0.8063
585.50 0.8061
585.60 0.8059
585.70 0.8057
585.80 0.8055
585.90 0.8053
586.00 0.805
586.10 0.8048
586.20 0.8046
586.30 0.8044
586.40 0.8042
586.50 0.804
586.60 0.8038
586.70 0.8035
586.80 0.8033
586.90 0.8031
587.00 0.8029
587.10 0.8027
587.20 0.8025
587.30 0.8022
587.40 0.802
587.50 0.8018
587.60 0.8016
587.70 0.8014
587.80 0.8012
587.90 0.801
588.00 0.8007
588.10 0.8005
588.20 0.8003
588.30 0.8001
588.40 0.7999
588.50 0.7997
588.60 0.7995
588.70 0.7992
588.80 0.799
588.90 0.7988
589.00 0.7986
589.10 0.7984
589.20 0.7982
589.30 0.798
589.40 0.7977
589.50 0.7975
589.60 0.7973
589.70 0.7971
589.80 0.7969
589.90 0.7967
590.00 0.7965
590.10 0.7963
590.20 0.796
590.30 0.7958
590.40 0.7956
590.50 0.7954
590.60 0.7952
590.70 0.795
590.80 0.7947
590.90 0.7945
591.00 0.7943
591.10 0.7941
591.20 0.7939
591.30 0.7937
591.40 0.7935
591.50 0.7932
591.60 0.793
591.70 0.7928
591.80 0.7926
591.90 0.7924
592.00 0.7922
592.10 0.792
592.20 0.7918
592.30 0.7915
592.40 0.7913
592.50 0.7911
592.60 0.7909
592.70 0.7907
592.80 0.7905
592.90 0.7903
593.00 0.79
593.10 0.7898
593.20 0.7896
593.30 0.7894
593.40 0.7892
593.50 0.789
593.60 0.7888
593.70 0.7886
593.80 0.7884
593.90 0.7882
594.00 0.7879
594.10 0.7877
594.20 0.7875
594.30 0.7873
594.40 0.7871
594.50 0.7869
594.60 0.7867
594.70 0.7865
594.80 0.7862
594.90 0.786
595.00 0.7858
595.10 0.7856
595.20 0.7854
595.30 0.7852
595.40 0.785
595.50 0.7847
595.60 0.7845
595.70 0.7843
595.80 0.7841
595.90 0.7839
596.00 0.7837
596.10 0.7835
596.20 0.7833
596.30 0.7831
596.40 0.7828
596.50 0.7826
596.60 0.7824
596.70 0.7822
596.80 0.782
596.90 0.7818
597.00 0.7816
597.10 0.7814
597.20 0.7811
597.30 0.7809
597.40 0.7807
597.50 0.7805
597.60 0.7803
597.70 0.7801
597.80 0.7799
597.90 0.7797
598.00 0.7795
598.10 0.7793
598.20 0.779
598.30 0.7788
598.40 0.7786
598.50 0.7784
598.60 0.7782
598.70 0.778
598.80 0.7778
598.90 0.7776
599.00 0.7774
599.10 0.7772
599.20 0.7769
599.30 0.7767
599.40 0.7765
599.50 0.7763
599.60 0.7761
599.70 0.7759
599.80 0.7757
599.90 0.7755
600.00 0.7753
600.10 0.7751
600.20 0.7749
600.30 0.7746
600.40 0.7744
600.50 0.7742
600.60 0.774
600.70 0.7738
600.80 0.7736
600.90 0.7734
601.00 0.7732
601.10 0.7729
601.20 0.7727
601.30 0.7725
601.40 0.7723
601.50 0.7721
601.60 0.7719
601.70 0.7717
601.80 0.7715
601.90 0.7713
602.00 0.7711
602.10 0.7709
602.20 0.7707
602.30 0.7704
602.40 0.7702
602.50 0.77
602.60 0.7698
602.70 0.7696
602.80 0.7694
602.90 0.7692
603.00 0.769
603.10 0.7688
603.20 0.7685
603.30 0.7683
603.40 0.7681
603.50 0.7679
603.60 0.7677
603.70 0.7675
603.80 0.7673
603.90 0.7671
604.00 0.7669
604.10 0.7667
604.20 0.7664
604.30 0.7662
604.40 0.766
604.50 0.7658
604.60 0.7656
604.70 0.7654
604.80 0.7652
604.90 0.765
605.00 0.7648
605.10 0.7646
605.20 0.7644
605.30 0.7642
605.40 0.764
605.50 0.7638
605.60 0.7636
605.70 0.7634
605.80 0.7632
605.90 0.7629
606.00 0.7627
606.10 0.7625
606.20 0.7623
606.30 0.7621
606.40 0.7619
606.50 0.7617
606.60 0.7615
606.70 0.7613
606.80 0.7611
606.90 0.7609
607.00 0.7607
607.10 0.7605
607.20 0.7603
607.30 0.76
607.40 0.7598
607.50 0.7596
607.60 0.7594
607.70 0.7592
607.80 0.759
607.90 0.7588
608.00 0.7586
608.10 0.7584
608.20 0.7582
608.30 0.758
608.40 0.7578
608.50 0.7576
608.60 0.7574
608.70 0.7572
608.80 0.757
608.90 0.7567
609.00 0.7565
609.10 0.7563
609.20 0.7561
609.30 0.7559
609.40 0.7557
609.50 0.7555
609.60 0.7553
609.70 0.7551
609.80 0.7549
609.90 0.7547
610.00 0.7544
610.10 0.7542
610.20 0.754
610.30 0.7538
610.40 0.7536
610.50 0.7534
610.60 0.7532
610.70 0.753
610.80 0.7528
610.90 0.7526
611.00 0.7524
611.10 0.7522
611.20 0.752
611.30 0.7518
611.40 0.7516
611.50 0.7514
611.60 0.7512
611.70 0.751
611.80 0.7508
611.90 0.7506
612.00 0.7504
612.10 0.7502
612.20 0.75
612.30 0.7498
612.40 0.7496
612.50 0.7493
612.60 0.7491
612.70 0.7489
612.80 0.7487
612.90 0.7485
613.00 0.7483
613.10 0.7481
613.20 0.7479
613.30 0.7477
613.40 0.7475
613.50 0.7473
613.60 0.7471
613.70 0.7469
613.80 0.7467
613.90 0.7465
614.00 0.7463
614.10 0.7461
614.20 0.7459
614.30 0.7457
614.40 0.7455
614.50 0.7453
614.60 0.7451
614.70 0.7449
614.80 0.7447
614.90 0.7445
615.00 0.7442
615.10 0.744
615.20 0.7438
615.30 0.7436
615.40 0.7434
615.50 0.7432
615.60 0.743
615.70 0.7428
615.80 0.7426
615.90 0.7424
616.00 0.7422
616.10 0.742
616.20 0.7418
616.30 0.7416
616.40 0.7414
616.50 0.7412
616.60 0.741
616.70 0.7408
616.80 0.7406
616.90 0.7404
617.00 0.7402
617.10 0.74
617.20 0.7398
617.30 0.7396
617.40 0.7394
617.50 0.7392
617.60 0.739
617.70 0.7387
617.80 0.7385
617.90 0.7383
618.00 0.7381
618.10 0.7379
618.20 0.7377
618.30 0.7375
618.40 0.7373
618.50 0.7371
618.60 0.7369
618.70 0.7367
618.80 0.7365
618.90 0.7363
619.00 0.7361
619.10 0.7359
619.20 0.7357
619.30 0.7355
619.40 0.7353
619.50 0.7351
619.60 0.7349
619.70 0.7347
619.80 0.7345
619.90 0.7343
620.00 0.7341
620.10 0.7339
620.20 0.7337
620.30 0.7335
620.40 0.7333
620.50 0.7331
620.60 0.7329
620.70 0.7327
620.80 0.7325
620.90 0.7323
621.00 0.7321
621.10 0.7319
621.20 0.7317
621.30 0.7315
621.40 0.7313
621.50 0.7311
621.60 0.7309
621.70 0.7307
621.80 0.7305
621.90 0.7303
622.00 0.7301
622.10 0.7299
622.20 0.7297
622.30 0.7295
622.40 0.7293
622.50 0.7291
622.60 0.7289
622.70 0.7287
622.80 0.7285
622.90 0.7283
623.00 0.7281
623.10 0.7279
623.20 0.7277
623.30 0.7275
623.40 0.7273
623.50 0.7271
623.60 0.7269
623.70 0.7267
623.80 0.7265
623.90 0.7263
624.00 0.7261
624.10 0.7259
624.20 0.7257
624.30 0.7255
624.40 0.7253
624.50 0.7251
624.60 0.7249
624.70 0.7247
624.80 0.7245
624.90 0.7243
625.00 0.7241
625.10 0.7239
625.20 0.7237
625.30 0.7235
625.40 0.7233
625.50 0.7231
625.60 0.7229
625.70 0.7227
625.80 0.7225
625.90 0.7223
626.00 0.7221
626.10 0.7219
626.20 0.7217
626.30 0.7215
626.40 0.7213
626.50 0.7211
626.60 0.7209
626.70 0.7207
626.80 0.7205
626.90 0.7203
627.00 0.7201
627.10 0.7199
627.20 0.7197
627.30 0.7195
627.40 0.7193
627.50 0.7191
627.60 0.7189
627.70 0.7187
627.80 0.7185
627.90 0.7183
628.00 0.7181
628.10 0.7179
628.20 0.7177
628.30 0.7175
628.40 0.7173
628.50 0.7171
628.60 0.7169
628.70 0.7167
628.80 0.7166
628.90 0.7164
629.00 0.7162
629.10 0.716
629.20 0.7158
629.30 0.7156
629.40 0.7154
629.50 0.7152
629.60 0.715
629.70 0.7148
629.80 0.7146
629.90 0.7144
630.00 0.7142
630.10 0.714
630.20 0.7138
630.30 0.7136
630.40 0.7134
630.50 0.7132
630.60 0.713
630.70 0.7128
630.80 0.7126
630.90 0.7124
631.00 0.7122
631.10 0.712
631.20 0.7118
631.30 0.7116
631.40 0.7115
631.50 0.7113
631.60 0.7111
631.70 0.7109
631.80 0.7107
631.90 0.7105
632.00 0.7103
632.10 0.7101
632.20 0.7099
632.30 0.7097
632.40 0.7095
632.50 0.7093
632.60 0.7091
632.70 0.7089
632.80 0.7087
632.90 0.7085
633.00 0.7083
633.10 0.7081
633.20 0.7079
633.30 0.7077
633.40 0.7075
633.50 0.7073
633.60 0.7071
633.70 0.7069
633.80 0.7067
633.90 0.7066
634.00 0.7064
634.10 0.7062
634.20 0.706
634.30 0.7058
634.40 0.7056
634.50 0.7054
634.60 0.7052
634.70 0.705
634.80 0.7048
634.90 0.7046
635.00 0.7044
635.10 0.7042
635.20 0.704
635.30 0.7038
635.40 0.7036
635.50 0.7034
635.60 0.7032
635.70 0.703
635.80 0.7028
635.90 0.7026
636.00 0.7024
636.10 0.7022
636.20 0.702
636.30 0.7018
636.40 0.7017
636.50 0.7015
636.60 0.7013
636.70 0.7011
636.80 0.7009
636.90 0.7007
637.00 0.7005
637.10 0.7003
637.20 0.7001
637.30 0.6999
637.40 0.6997
637.50 0.6995
637.60 0.6994
637.70 0.6992
637.80 0.699
637.90 0.6988
638.00 0.6986
638.10 0.6984
638.20 0.6982
638.30 0.698
638.40 0.6978
638.50 0.6976
638.60 0.6974
638.70 0.6972
638.80 0.697
638.90 0.6968
639.00 0.6966
639.10 0.6964
639.20 0.6963
639.30 0.6961
639.40 0.6959
639.50 0.6957
639.60 0.6955
639.70 0.6953
639.80 0.6951
639.90 0.6949
640.00 0.6947
640.10 0.6945
640.20 0.6943
640.30 0.6941
640.40 0.6939
640.50 0.6937
640.60 0.6935
640.70 0.6933
640.80 0.6931
640.90 0.6929
641.00 0.6927
641.10 0.6925
641.20 0.6924
641.30 0.6922
641.40 0.692
641.50 0.6918
641.60 0.6916
641.70 0.6914
641.80 0.6912
641.90 0.691
642.00 0.6908
642.10 0.6906
642.20 0.6904
642.30 0.6903
642.40 0.6901
642.50 0.6899
642.60 0.6897
642.70 0.6895
642.80 0.6893
642.90 0.6891
643.00 0.6889
643.10 0.6887
643.20 0.6885
643.30 0.6883
643.40 0.6881
643.50 0.6879
643.60 0.6877
643.70 0.6875
643.80 0.6873
643.90 0.6871
644.00 0.6869
644.10 0.6867
644.20 0.6866
644.30 0.6864
644.40 0.6862
644.50 0.686
644.60 0.6858
644.70 0.6856
644.80 0.6854
644.90 0.6852
645.00 0.685
645.10 0.6848
645.20 0.6846
645.30 0.6844
645.40 0.6842
645.50 0.684
645.60 0.6838
645.70 0.6836
645.80 0.6834
645.90 0.6832
646.00 0.683
646.10 0.6828
646.20 0.6826
646.30 0.6824
646.40 0.6822
646.50 0.6819
646.60 0.6817
646.70 0.6815
646.80 0.6812
646.90 0.681
647.00 0.6808
647.10 0.6805
647.20 0.6803
647.30 0.68
647.40 0.6797
647.50 0.6794
647.60 0.679
647.70 0.6787
647.80 0.6783
647.90 0.678
648.00 0.6777
648.10 0.6773
648.20 0.677
648.30 0.6766
648.40 0.6763
648.50 0.6759
648.60 0.6756
648.70 0.6752
648.80 0.6749
648.90 0.6745
649.00 0.6741
649.10 0.6738
649.20 0.6734
649.30 0.6731
649.40 0.6726
649.50 0.6722
649.60 0.6718
649.70 0.6713
649.80 0.6709
649.90 0.6705
650.00 0.67
650.10 0.6696
650.20 0.6692
650.30 0.6687
650.40 0.6682
650.50 0.6678
650.60 0.6673
650.70 0.6668
650.80 0.6663
650.90 0.6659
651.00 0.6654
651.10 0.6649
651.20 0.6644
651.30 0.6639
651.40 0.6633
651.50 0.6626
651.60 0.6619
651.70 0.6613
651.80 0.6606
651.90 0.66
652.00 0.6593
652.10 0.6586
652.20 0.658
652.30 0.6572
652.40 0.6561
652.50 0.6551
652.60 0.654
652.70 0.6529
652.80 0.6518
652.90 0.6507
653.00 0.6496
653.10 0.6485
653.20 0.6474
653.30 0.6461
653.40 0.644
653.50 0.6419
653.60 0.6397
653.70 0.6376
653.80 0.6355
653.90 0.6333
654.00 0.6312
654.10 0.6291
654.20 0.627
654.30 0.6245
654.40 0.6204
654.50 0.6164
654.60 0.6124
654.70 0.6083
654.80 0.6037
654.90 0.5965
655.00 0.5893
655.10 0.5821
655.20 0.5749
655.30 0.5669
655.40 0.5554
655.50 0.5429
655.60 0.5268
655.70 0.5092
655.80 0.4854
655.90 0.4593
656.00 0.4236
656.10 0.387
656.20 0.3459
656.30 0.3224
656.40 0.3619
656.50 0.4012
656.60 0.4367
656.70 0.4698
656.80 0.4934
656.90 0.5154
657.00 0.5312
657.10 0.5461
657.20 0.5573
657.30 0.5676
657.40 0.5745
657.50 0.5813
657.60 0.5882
657.70 0.595
657.80 0.6012
657.90 0.6049
658.00 0.6085
658.10 0.6122
658.20 0.6159
658.30 0.6192
658.40 0.6209
658.50 0.6227
658.60 0.6244
658.70 0.6262
658.80 0.6279
658.90 0.6297
659.00 0.6314
659.10 0.6331
659.20 0.6349
659.30 0.6364
659.40 0.6371
659.50 0.6378
659.60 0.6385
659.70 0.6393
659.80 0.64
659.90 0.6407
660.00 0.6414
660.10 0.6421
660.20 0.6428
660.30 0.6434
660.40 0.6437
660.50 0.644
660.60 0.6443
660.70 0.6446
660.80 0.6448
660.90 0.6451
661.00 0.6454
661.10 0.6457
661.20 0.646
661.30 0.6462
661.40 0.6463
661.50 0.6464
661.60 0.6465
661.70 0.6466
661.80 0.6467
661.90 0.6468
662.00 0.6469
662.10 0.647
662.20 0.647
662.30 0.6471
662.40 0.6472
662.50 0.6472
662.60 0.6473
662.70 0.6474
662.80 0.6474
662.90 0.6475
663.00 0.6475
663.10 0.6476
663.20 0.6476
663.30 0.6477
663.40 0.6477
663.50 0.6476
663.60 0.6476
663.70 0.6476
663.80 0.6476
663.90 0.6475
664.00 0.6475
664.10 0.6475
664.20 0.6475
664.30 0.6475
664.40 0.6474
664.50 0.6474
664.60 0.6473
664.70 0.6473
664.80 0.6472
664.90 0.6472
665.00 0.6471
665.10 0.6471
665.20 0.647
665.30 0.647
665.40 0.6468
665.50 0.6467
665.60 0.6466
665.70 0.6464
665.80 0.6463
665.90 0.6461
666.00 0.646
666.10 0.6459
666.20 0.6457
666.30 0.6456
666.40 0.6454
666.50 0.6452
666.60 0.6451
666.70 0.6449
666.80 0.6447
666.90 0.6446
667.00 0.6444
667.10 0.6442
667.20 0.644
667.30 0.6439
667.40 0.6437
667.50 0.6435
667.60 0.6433
667.70 0.6432
667.80 0.643
667.90 0.6428
668.00 0.6426
668.10 0.6425
668.20 0.6423
668.30 0.6421
668.40 0.6419
668.50 0.6418
668.60 0.6416
668.70 0.6414
668.80 0.6412
668.90 0.6411
669.00 0.6409
669.10 0.6407
669.20 0.6405
669.30 0.6403
669.40 0.6402
669.50 0.64
669.60 0.6398
669.70 0.6396
669.80 0.6395
669.90 0.6393
670.00 0.6391
670.10 0.639
670.20 0.6388
670.30 0.6386
670.40 0.6384
670.50 0.6383
670.60 0.6381
670.70 0.6379
670.80 0.6377
670.90 0.6375
671.00 0.6374
671.10 0.6372
671.20 0.637
671.30 0.6368
671.40 0.6367
671.50 0.6365
671.60 0.6363
671.70 0.6361
671.80 0.636
671.90 0.6358
672.00 0.6356
672.10 0.6354
672.20 0.6353
672.30 0.6351
672.40 0.6349
672.50 0.6347
672.60 0.6346
672.70 0.6344
672.80 0.6342
672.90 0.634
673.00 0.6339
673.10 0.6337
673.20 0.6335
673.30 0.6333
673.40 0.6332
673.50 0.633
673.60 0.6328
673.70 0.6326
673.80 0.6325
673.90 0.6323
674.00 0.6321
674.10 0.6319
674.20 0.6318
674.30 0.6316
674.40 0.6314
674.50 0.6312
674.60 0.6311
674.70 0.6309
674.80 0.6307
674.90 0.6305
675.00 0.6304
675.10 0.6302
675.20 0.63
675.30 0.6298
675.40 0.6297
675.50 0.6295
675.60 0.6293
675.70 0.6292
675.80 0.629
675.90 0.6288
676.00 0.6286
676.10 0.6285
676.20 0.6283
676.30 0.6281
676.40 0.6279
676.50 0.6278
676.60 0.6276
676.70 0.6274
676.80 0.6272
676.90 0.6271
677.00 0.6269
677.10 0.6267
677.20 0.6265
677.30 0.6264
677.40 0.6262
677.50 0.626
677.60 0.6258
677.70 0.6256
677.80 0.6255
677.90 0.6253
678.00 0.6251
678.10 0.6249
678.20 0.6248
678.30 0.6246
678.40 0.6244
678.50 0.6243
678.60 0.6241
678.70 0.6239
678.80 0.6237
678.90 0.6236
679.00 0.6234
679.10 0.6232
679.20 0.6231
679.30 0.6229
679.40 0.6227
679.50 0.6225
679.60 0.6224
679.70 0.6222
679.80 0.622
679.90 0.6218
680.00 0.6217
680.10 0.6215
680.20 0.6213
680.30 0.6211
680.40 0.621
680.50 0.6208
680.60 0.6206
680.70 0.6204
680.80 0.6203
680.90 0.6201
681.00 0.6199
681.10 0.6198
681.20 0.6196
681.30 0.6194
681.40 0.6192
681.50 0.6191
681.60 0.6189
681.70 0.6187
681.80 0.6186
681.90 0.6184
682.00 0.6182
682.10 0.6181
682.20 0.6179
682.30 0.6177
682.40 0.6175
682.50 0.6174
682.60 0.6172
682.70 0.617
682.80 0.6169
682.90 0.6167
683.00 0.6165
683.10 0.6163
683.20 0.6162
683.30 0.616
683.40 0.6158
683.50 0.6157
683.60 0.6155
683.70 0.6153
683.80 0.6151
683.90 0.615
684.00 0.6148
684.10 0.6146
684.20 0.6145
684.30 0.6143
684.40 0.6141
684.50 0.6139
684.60 0.6138
684.70 0.6136
684.80 0.6134
684.90 0.6133
685.00 0.6131
685.10 0.6129
685.20 0.6128
685.30 0.6126
685.40 0.6124
685.50 0.6122
685.60 0.6121
685.70 0.6119
685.80 0.6117
685.90 0.6115
686.00 0.6114
686.10 0.6112
686.20 0.611
686.30 0.6108
686.40 0.6107
686.50 0.6105
686.60 0.6103
686.70 0.6102
686.80 0.61
686.90 0.6098
687.00 0.6097
687.10 0.6095
687.20 0.6093
687.30 0.6091
687.40 0.609
687.50 0.6088
687.60 0.6086
687.70 0.6085
687.80 0.6083
687.90 0.6081
688.00 0.608
688.10 0.6078
688.20 0.6076
688.30 0.6075
688.40 0.6073
688.50 0.6071
688.60 0.607
688.70 0.6068
688.80 0.6066
688.90 0.6065
689.00 0.6063
689.10 0.6061
689.20 0.606
689.30 0.6058
689.40 0.6056
689.50 0.6054
689.60 0.6053
689.70 0.6051
689.80 0.6049
689.90 0.6048
690.00 0.6046
690.10 0.6044
690.20 0.6043
690.30 0.6041
690.40 0.6039
690.50 0.6038
690.60 0.6036
690.70 0.6034
690.80 0.6032
690.90 0.6031
691.00 0.6029
691.10 0.6027
691.20 0.6026
691.30 0.6024
691.40 0.6022
691.50 0.6021
691.60 0.6019
691.70 0.6017
691.80 0.6016
691.90 0.6014
692.00 0.6012
692.10 0.6011
692.20 0.6009
692.30 0.6007
692.40 0.6006
692.50 0.6004
692.60 0.6002
692.70 0.6001
692.80 0.5999
692.90 0.5997
693.00 0.5996
693.10 0.5994
693.20 0.5992
693.30 0.5991
693.40 0.5989
693.50 0.5987
693.60 0.5985
693.70 0.5984
693.80 0.5982
693.90 0.598
694.00 0.5979
694.10 0.5977
694.20 0.5976
694.30 0.5974
694.40 0.5972
694.50 0.5971
694.60 0.5969
694.70 0.5967
694.80 0.5966
694.90 0.5964
695.00 0.5962
695.10 0.5961
695.20 0.5959
695.30 0.5957
695.40 0.5956
695.50 0.5954
695.60 0.5952
695.70 0.5951
695.80 0.5949
695.90 0.5947
696.00 0.5946
696.10 0.5944
696.20 0.5942
696.30 0.5941
696.40 0.5939
696.50 0.5937
696.60 0.5936
696.70 0.5934
696.80 0.5932
696.90 0.5931
697.00 0.5929
697.10 0.5927
697.20 0.5926
697.30 0.5924
697.40 0.5922
697.50 0.5921
697.60 0.5919
697.70 0.5918
697.80 0.5916
697.90 0.5914
698.00 0.5913
698.10 0.5911
698.20 0.5909
698.30 0.5908
698.40 0.5906
698.50 0.5904
698.60 0.5903
698.70 0.5901
698.80 0.5899
698.90 0.5898
699.00 0.5896
699.10 0.5895
699.20 0.5893
699.30 0.5891
699.40 0.589
699.50 0.5888
699.60 0.5886
699.70 0.5885
699.80 0.5883
699.90 0.5881
700.00 0.588
700.10 0.5878
700.20 0.5877
700.30 0.5875
700.40 0.5873
700.50 0.5872
700.60 0.587
700.70 0.5868
700.80 0.5867
700.90 0.5865
701.00 0.5863
701.10 0.5862
701.20 0.586
701.30 0.5858
701.40 0.5857
701.50 0.5855
701.60 0.5854
701.70 0.5852
701.80 0.585
701.90 0.5849
702.00 0.5847
702.10 0.5845
702.20 0.5844
702.30 0.5842
702.40 0.584
702.50 0.5839
702.60 0.5837
702.70 0.5836
702.80 0.5834
702.90 0.5832
703.00 0.5831
703.10 0.5829
703.20 0.5827
703.30 0.5826
703.40 0.5824
703.50 0.5823
703.60 0.5821
703.70 0.5819
703.80 0.5818
703.90 0.5816
704.00 0.5814
704.10 0.5813
704.20 0.5811
704.30 0.581
704.40 0.5808
704.50 0.5806
704.60 0.5805
704.70 0.5803
704.80 0.5802
704.90 0.58
705.00 0.5798
705.10 0.5797
705.20 0.5795
705.30 0.5793
705.40 0.5792
705.50 0.579
705.60 0.5789
705.70 0.5787
705.80 0.5785
705.90 0.5784
706.00 0.5782
706.10 0.5781
706.20 0.5779
706.30 0.5777
706.40 0.5776
706.50 0.5774
706.60 0.5772
706.70 0.5771
706.80 0.5769
706.90 0.5768
707.00 0.5766
707.10 0.5764
707.20 0.5763
707.30 0.5761
707.40 0.576
707.50 0.5758
707.60 0.5756
707.70 0.5755
707.80 0.5753
707.90 0.5752
708.00 0.575
708.10 0.5748
708.20 0.5747
708.30 0.5745
708.40 0.5744
708.50 0.5742
708.60 0.574
708.70 0.5739
708.80 0.5737
708.90 0.5736
709.00 0.5734
709.10 0.5732
709.20 0.5731
709.30 0.5729
709.40 0.5728
709.50 0.5726
709.60 0.5724
709.70 0.5723
709.80 0.5721
709.90 0.572
710.00 0.5718
710.10 0.5717
710.20 0.5715
710.30 0.5713
710.40 0.5712
710.50 0.571
710.60 0.5709
710.70 0.5707
710.80 0.5705
710.90 0.5704
711.00 0.5702
711.10 0.5701
711.20 0.5699
711.30 0.5697
711.40 0.5696
711.50 0.5694
711.60 0.5693
711.70 0.5691
711.80 0.5689
711.90 0.5688
712.00 0.5686
712.10 0.5685
712.20 0.5683
712.30 0.5681
712.40 0.568
712.50 0.5678
712.60 0.5677
712.70 0.5675
712.80 0.5674
712.90 0.5672
713.00 0.567
713.10 0.5669
713.20 0.5667
713.30 0.5666
713.40 0.5664
713.50 0.5662
713.60 0.5661
713.70 0.5659
713.80 0.5658
713.90 0.5656
714.00 0.5655
714.10 0.5653
714.20 0.5651
714.30 0.565
714.40 0.5648
714.50 0.5647
714.60 0.5645
714.70 0.5644
714.80 0.5642
714.90 0.564
715.00 0.5639
715.10 0.5637
715.20 0.5636
715.30 0.5634
715.40 0.5633
715.50 0.5631
715.60 0.5629
715.70 0.5628
715.80 0.5626
715.90 0.5625
716.00 0.5623
716.10 0.5622
716.20 0.562
716.30 0.5618
716.40 0.5617
716.50 0.5615
716.60 0.5614
716.70 0.5612
716.80 0.5611
716.90 0.5609
717.00 0.5607
717.10 0.5606
717.20 0.5604
717.30 0.5603
717.40 0.5601
717.50 0.56
717.60 0.5598
717.70 0.5596
717.80 0.5595
717.90 0.5593
718.00 0.5592
718.10 0.559
718.20 0.5589
718.30 0.5587
718.40 0.5586
718.50 0.5584
718.60 0.5582
718.70 0.5581
718.80 0.5579
718.90 0.5578
719.00 0.5576
719.10 0.5575
719.20 0.5573
719.30 0.5572
719.40 0.557
719.50 0.5569
719.60 0.5567
719.70 0.5565
719.80 0.5564
719.90 0.5562
720.00 0.5561
720.10 0.5559
720.20 0.5558
720.30 0.5556
720.40 0.5555
720.50 0.5553
720.60 0.5551
720.70 0.555
720.80 0.5548
720.90 0.5547
721.00 0.5545
721.10 0.5544
721.20 0.5542
721.30 0.5541
721.40 0.5539
721.50 0.5538
721.60 0.5536
721.70 0.5534
721.80 0.5533
721.90 0.5531
722.00 0.553
722.10 0.5528
722.20 0.5527
722.30 0.5525
722.40 0.5524
722.50 0.5522
722.60 0.5521
722.70 0.5519
722.80 0.5518
722.90 0.5516
723.00 0.5515
723.10 0.5513
723.20 0.5511
723.30 0.551
723.40 0.5508
723.50 0.5507
723.60 0.5505
723.70 0.5504
723.80 0.5502
723.90 0.5501
724.00 0.5499
724.10 0.5498
724.20 0.5496
724.30 0.5495
724.40 0.5493
724.50 0.5492
724.60 0.549
724.70 0.5489
724.80 0.5487
724.90 0.5485
725.00 0.5484
725.10 0.5482
725.20 0.5481
725.30 0.5479
725.40 0.5478
725.50 0.5476
725.60 0.5475
725.70 0.5473
725.80 0.5472
725.90 0.547
726.00 0.5469
726.10 0.5467
726.20 0.5466
726.30 0.5464
726.40 0.5463
726.50 0.5461
726.60 0.5459
726.70 0.5458
726.80 0.5456
726.90 0.5455
727.00 0.5453
727.10 0.5452
727.20 0.545
727.30 0.5449
727.40 0.5447
727.50 0.5446
727.60 0.5444
727.70 0.5443
727.80 0.5441
727.90 0.544
728.00 0.5438
728.10 0.5437
728.20 0.5435
728.30 0.5434
728.40 0.5432
728.50 0.5431
728.60 0.5429
728.70 0.5428
728.80 0.5426
728.90 0.5425
729.00 0.5423
729.10 0.5422
729.20 0.542
729.30 0.5419
729.40 0.5417
729.50 0.5416
729.60 0.5414
729.70 0.5412
729.80 0.5411
729.90 0.5409
730.00 0.5408
730.10 0.5406
730.20 0.5405
730.30 0.5403
730.40 0.5402
730.50 0.54
730.60 0.5399
730.70 0.5397
730.80 0.5396
730.90 0.5394
731.00 0.5393
731.10 0.5391
731.20 0.539
731.30 0.5388
731.40 0.5387
731.50 0.5385
731.60 0.5384
731.70 0.5382
731.80 0.5381
731.90 0.5379
732.00 0.5378
732.10 0.5376
732.20 0.5375
732.30 0.5373
732.40 0.5372
732.50 0.537
732.60 0.5369
732.70 0.5367
732.80 0.5366
732.90 0.5364
733.00 0.5363
733.10 0.5361
733.20 0.536
733.30 0.5358
733.40 0.5357
733.50 0.5355
733.60 0.5354
733.70 0.5352
733.80 0.5351
733.90 0.5349
734.00 0.5348
734.10 0.5347
734.20 0.5345
734.30 0.5344
734.40 0.5342
734.50 0.5341
734.60 0.5339
734.70 0.5338
734.80 0.5336
734.90 0.5335
735.00 0.5333
735.10 0.5332
735.20 0.533
735.30 0.5329
735.40 0.5327
735.50 0.5326
735.60 0.5324
735.70 0.5323
735.80 0.5321
735.90 0.532
736.00 0.5318
736.10 0.5317
736.20 0.5315
736.30 0.5314
736.40 0.5312
736.50 0.5311
736.60 0.531
736.70 0.5308
736.80 0.5307
736.90 0.5305
737.00 0.5304
737.10 0.5302
737.20 0.5301
737.30 0.5299
737.40 0.5298
737.50 0.5296
737.60 0.5295
737.70 0.5293
737.80 0.5292
737.90 0.529
738.00 0.5289
738.10 0.5288
738.20 0.5286
738.30 0.5285
738.40 0.5283
738.50 0.5282
738.60 0.528
738.70 0.5279
738.80 0.5277
738.90 0.5276
739.00 0.5274
739.10 0.5273
739.20 0.5271
739.30 0.527
739.40 0.5269
739.50 0.5267
739.60 0.5266
739.70 0.5264
739.80 0.5263
739.90 0.5261
740.00 0.526
740.10 0.5258
740.20 0.5257
740.30 0.5255
740.40 0.5254
740.50 0.5253
740.60 0.5251
740.70 0.525
740.80 0.5248
740.90 0.5247
741.00 0.5245
741.10 0.5244
741.20 0.5242
741.30 0.5241
741.40 0.5239
741.50 0.5238
741.60 0.5236
741.70 0.5235
741.80 0.5234
741.90 0.5232
742.00 0.5231
742.10 0.5229
742.20 0.5228
742.30 0.5226
742.40 0.5225
742.50 0.5223
742.60 0.5222
742.70 0.522
742.80 0.5219
742.90 0.5218
743.00 0.5216
743.10 0.5215
743.20 0.5213
743.30 0.5212
743.40 0.521
743.50 0.5209
743.60 0.5207
743.70 0.5206
743.80 0.5204
743.90 0.5203
744.00 0.5202
744.10 0.52
744.20 0.5199
744.30 0.5197
744.40 0.5196
744.50 0.5194
744.60 0.5193
744.70 0.5191
744.80 0.519
744.90 0.5189
745.00 0.5187
745.10 0.5186
745.20 0.5184
745.30 0.5183
745.40 0.5181
745.50 0.518
745.60 0.5179
745.70 0.5177
745.80 0.5176
745.90 0.5174
746.00 0.5173
746.10 0.5171
746.20 0.517
746.30 0.5168
746.40 0.5167
746.50 0.5166
746.60 0.5164
746.70 0.5163
746.80 0.5161
746.90 0.516
747.00 0.5158
747.10 0.5157
747.20 0.5156
747.30 0.5154
747.40 0.5153
747.50 0.5151
747.60 0.515
747.70 0.5148
747.80 0.5147
747.90 0.5146
748.00 0.5144
748.10 0.5143
748.20 0.5141
748.30 0.514
748.40 0.5139
748.50 0.5137
748.60 0.5136
748.70 0.5134
748.80 0.5133
748.90 0.5131
749.00 0.513
749.10 0.5129
749.20 0.5127
749.30 0.5126
749.40 0.5124
749.50 0.5123
749.60 0.5122
749.70 0.512
749.80 0.5119
749.90 0.5117
750.00 0.5116
750.10 0.5114
750.20 0.5113
750.30 0.5112
750.40 0.511
750.50 0.5109
750.60 0.5107
750.70 0.5106
750.80 0.5104
750.90 0.5103
751.00 0.5102
751.10 0.51
751.20 0.5099
751.30 0.5097
751.40 0.5096
751.50 0.5095
751.60 0.5093
751.70 0.5092
751.80 0.509
751.90 0.5089
752.00 0.5087
752.10 0.5086
752.20 0.5085
752.30 0.5083
752.40 0.5082
752.50 0.508
752.60 0.5079
752.70 0.5078
752.80 0.5076
752.90 0.5075
753.00 0.5073
753.10 0.5072
753.20 0.507
753.30 0.5069
753.40 0.5068
753.50 0.5066
753.60 0.5065
753.70 0.5063
753.80 0.5062
753.90 0.5061
754.00 0.5059
754.10 0.5058
754.20 0.5056
754.30 0.5055
754.40 0.5054
754.50 0.5052
754.60 0.5051
754.70 0.5049
754.80 0.5048
754.90 0.5047
755.00 0.5045
755.10 0.5044
755.20 0.5042
755.30 0.5041
755.40 0.504
755.50 0.5038
755.60 0.5037
755.70 0.5035
755.80 0.5034
755.90 0.5033
756.00 0.5031
756.10 0.503
756.20 0.5028
756.30 0.5027
756.40 0.5026
756.50 0.5024
756.60 0.5023
756.70 0.5021
756.80 0.502
756.90 0.5019
757.00 0.5017
757.10 0.5016
757.20 0.5015
757.30 0.5013
757.40 0.5012
757.50 0.501
757.60 0.5009
757.70 0.5008
757.80 0.5006
757.90 0.5005
758.00 0.5003
758.10 0.5002
758.20 0.5001
758.30 0.4999
758.40 0.4998
758.50 0.4997
758.60 0.4995
758.70 0.4994
758.80 0.4992
758.90 0.4991
759.00 0.499
759.10 0.4988
759.20 0.4987
759.30 0.4986
759.40 0.4984
759.50 0.4983
759.60 0.4981
759.70 0.498
759.80 0.4979
759.90 0.4977
760.00 0.4976
760.10 0.4975
760.20 0.4973
760.30 0.4972
760.40 0.497
760.50 0.4969
760.60 0.4968
760.70 0.4966
760.80 0.4965
760.90 0.4963
761.00 0.4962
761.10 0.4961
761.20 0.4959
761.30 0.4958
761.40 0.4957
761.50 0.4955
761.60 0.4954
761.70 0.4952
761.80 0.4951
761.90 0.495
762.00 0.4948
762.10 0.4947
762.20 0.4946
762.30 0.4944
762.40 0.4943
762.50 0.4942
762.60 0.494
762.70 0.4939
762.80 0.4937
762.90 0.4936
763.00 0.4935
763.10 0.4933
763.20 0.4932
763.30 0.4931
763.40 0.4929
763.50 0.4928
763.60 0.4927
763.70 0.4925
763.80 0.4924
763.90 0.4922
764.00 0.4921
764.10 0.492
764.20 0.4918
764.30 0.4917
764.40 0.4916
764.50 0.4914
764.60 0.4913
764.70 0.4912
764.80 0.491
764.90 0.4909
765.00 0.4907
765.10 0.4906
765.20 0.4905
765.30 0.4903
765.40 0.4902
765.50 0.4901
765.60 0.4899
765.70 0.4898
765.80 0.4897
765.90 0.4895
766.00 0.4894
766.10 0.4893
766.20 0.4891
766.30 0.489
766.40 0.4889
766.50 0.4887
766.60 0.4886
766.70 0.4885
766.80 0.4883
766.90 0.4882
767.00 0.488
767.10 0.4879
767.20 0.4878
767.30 0.4876
767.40 0.4875
767.50 0.4874
767.60 0.4872
767.70 0.4871
767.80 0.487
767.90 0.4868
768.00 0.4867
768.10 0.4866
768.20 0.4864
768.30 0.4863
768.40 0.4862
768.50 0.486
768.60 0.4859
768.70 0.4858
768.80 0.4856
768.90 0.4855
769.00 0.4854
769.10 0.4852
769.20 0.4851
769.30 0.485
769.40 0.4848
769.50 0.4847
769.60 0.4846
769.70 0.4844
769.80 0.4843
769.90 0.4842
770.00 0.484
770.10 0.4839
770.20 0.4838
770.30 0.4836
770.40 0.4835
770.50 0.4834
770.60 0.4832
770.70 0.4831
770.80 0.483
770.90 0.4828
771.00 0.4827
771.10 0.4826
771.20 0.4824
771.30 0.4823
771.40 0.4822
771.50 0.482
771.60 0.4819
771.70 0.4818
771.80 0.4816
771.90 0.4815
772.00 0.4814
772.10 0.4812
772.20 0.4811
772.30 0.481
772.40 0.4808
772.50 0.4807
772.60 0.4806
772.70 0.4804
772.80 0.4803
772.90 0.4802
773.00 0.48
773.10 0.4799
773.20 0.4798
773.30 0.4796
773.40 0.4795
773.50 0.4794
773.60 0.4792
773.70 0.4791
773.80 0.479
773.90 0.4788
774.00 0.4787
774.10 0.4786
774.20 0.4785
774.30 0.4783
774.40 0.4782
774.50 0.4781
774.60 0.4779
774.70 0.4778
774.80 0.4777
774.90 0.4775
775.00 0.4774
775.10 0.4773
775.20 0.4771
775.30 0.477
775.40 0.4769
775.50 0.4767
775.60 0.4766
775.70 0.4765
775.80 0.4763
775.90 0.4762
776.00 0.4761
776.10 0.476
776.20 0.4758
776.30 0.4757
776.40 0.4756
776.50 0.4754
776.60 0.4753
776.70 0.4752
776.80 0.475
776.90 0.4749
777.00 0.4748
777.10 0.4746
777.20 0.4745
777.30 0.4744
777.40 0.4743
777.50 0.4741
777.60 0.474
777.70 0.4739
777.80 0.4737
777.90 0.4736
778.00 0.4735
778.10 0.4733
778.20 0.4732
778.30 0.4731
778.40 0.473
778.50 0.4728
778.60 0.4727
778.70 0.4726
778.80 0.4724
778.90 0.4723
779.00 0.4722
779.10 0.472
779.20 0.4719
779.30 0.4718
779.40 0.4717
779.50 0.4715
779.60 0.4714
779.70 0.4713
779.80 0.4711
779.90 0.471
780.00 0.4709
780.10 0.4708
780.20 0.4706
780.30 0.4705
780.40 0.4704
780.50 0.4702
780.60 0.4701
780.70 0.47
780.80 0.4698
780.90 0.4697
781.00 0.4696
781.10 0.4695
781.20 0.4693
781.30 0.4692
781.40 0.4691
781.50 0.4689
781.60 0.4688
781.70 0.4687
781.80 0.4685
781.90 0.4684
782.00 0.4683
782.10 0.4682
782.20 0.468
782.30 0.4679
782.40 0.4678
782.50 0.4676
782.60 0.4675
782.70 0.4674
782.80 0.4673
782.90 0.4671
783.00 0.467
783.10 0.4669
783.20 0.4667
783.30 0.4666
783.40 0.4665
783.50 0.4664
783.60 0.4662
783.70 0.4661
783.80 0.466
783.90 0.4658
784.00 0.4657
784.10 0.4656
784.20 0.4655
784.30 0.4653
784.40 0.4652
784.50 0.4651
784.60 0.4649
784.70 0.4648
784.80 0.4647
784.90 0.4646
785.00 0.4644
785.10 0.4643
785.20 0.4642
785.30 0.464
785.40 0.4639
785.50 0.4638
785.60 0.4637
785.70 0.4635
785.80 0.4634
785.90 0.4633
786.00 0.4632
786.10 0.463
786.20 0.4629
786.30 0.4628
786.40 0.4626
786.50 0.4625
786.60 0.4624
786.70 0.4623
786.80 0.4621
786.90 0.462
787.00 0.4619
787.10 0.4618
787.20 0.4616
787.30 0.4615
787.40 0.4614
787.50 0.4613
787.60 0.4611
787.70 0.461
787.80 0.4609
787.90 0.4607
788.00 0.4606
788.10 0.4605
788.20 0.4604
788.30 0.4602
788.40 0.4601
788.50 0.46
788.60 0.4599
788.70 0.4597
788.80 0.4596
788.90 0.4595
789.00 0.4594
789.10 0.4592
789.20 0.4591
789.30 0.459
789.40 0.4589
789.50 0.4587
789.60 0.4586
789.70 0.4585
789.80 0.4584
789.90 0.4582
790.00 0.4581
790.10 0.458
790.20 0.4579
790.30 0.4577
790.40 0.4576
790.50 0.4575
790.60 0.4573
790.70 0.4572
790.80 0.4571
790.90 0.457
791.00 0.4568
791.10 0.4567
791.20 0.4566
791.30 0.4565
791.40 0.4563
791.50 0.4562
791.60 0.4561
791.70 0.456
791.80 0.4558
791.90 0.4557
792.00 0.4556
792.10 0.4555
792.20 0.4553
792.30 0.4552
792.40 0.4551
792.50 0.455
792.60 0.4548
792.70 0.4547
792.80 0.4546
792.90 0.4545
793.00 0.4543
793.10 0.4542
793.20 0.4541
793.30 0.454
793.40 0.4538
793.50 0.4537
793.60 0.4536
793.70 0.4535
793.80 0.4533
793.90 0.4532
794.00 0.4531
794.10 0.453
794.20 0.4528
794.30 0.4527
794.40 0.4526
794.50 0.4525
794.60 0.4523
794.70 0.4522
794.80 0.4521
794.90 0.452
795.00 0.4519
795.10 0.4517
795.20 0.4516
795.30 0.4515
795.40 0.4514
795.50 0.4512
795.60 0.4511
795.70 0.451
795.80 0.4509
795.90 0.4507
796.00 0.4506
796.10 0.4505
796.20 0.4504
796.30 0.4502
796.40 0.4501
796.50 0.45
796.60 0.4499
796.70 0.4498
796.80 0.4496
796.90 0.4495
797.00 0.4494
797.10 0.4493
797.20 0.4491
797.30 0.449
797.40 0.4489
797.50 0.4488
797.60 0.4487
797.70 0.4485
797.80 0.4484
797.90 0.4483
798.00 0.4482
798.10 0.448
798.20 0.4479
798.30 0.4478
798.40 0.4477
798.50 0.4475
798.60 0.4474
798.70 0.4473
798.80 0.4472
798.90 0.4471
799.00 0.4469
799.10 0.4468
799.20 0.4467
799.30 0.4466
799.40 0.4465
799.50 0.4463
799.60 0.4462
799.70 0.4461
799.80 0.446
799.90 0.4458
800.00 0.4457
800.10 0.4456
800.20 0.4455
800.30 0.4454
800.40 0.4452
800.50 0.4451
800.60 0.445
800.70 0.4449
800.80 0.4447
800.90 0.4446
801.00 0.4445
801.10 0.4444
801.20 0.4443
801.30 0.4441
801.40 0.444
801.50 0.4439
801.60 0.4438
801.70 0.4436
801.80 0.4435
801.90 0.4434
802.00 0.4433
802.10 0.4432
802.20 0.443
802.30 0.4429
802.40 0.4428
802.50 0.4427
802.60 0.4426
802.70 0.4424
802.80 0.4423
802.90 0.4422
803.00 0.4421
803.10 0.442
803.20 0.4418
803.30 0.4417
803.40 0.4416
803.50 0.4415
803.60 0.4413
803.70 0.4412
803.80 0.4411
803.90 0.441
804.00 0.4409
804.10 0.4407
804.20 0.4406
804.30 0.4405
804.40 0.4404
804.50 0.4403
804.60 0.4401
804.70 0.44
804.80 0.4399
804.90 0.4398
805.00 0.4397
805.10 0.4395
805.20 0.4394
805.30 0.4393
805.40 0.4392
805.50 0.4391
805.60 0.4389
805.70 0.4388
805.80 0.4387
805.90 0.4386
806.00 0.4385
806.10 0.4383
806.20 0.4382
806.30 0.4381
806.40 0.438
806.50 0.4379
806.60 0.4377
806.70 0.4376
806.80 0.4375
806.90 0.4374
807.00 0.4373
807.10 0.4371
807.20 0.437
807.30 0.4369
807.40 0.4368
807.50 0.4367
807.60 0.4366
807.70 0.4364
807.80 0.4363
807.90 0.4362
808.00 0.4361
808.10 0.436
808.20 0.4358
808.30 0.4357
808.40 0.4356
808.50 0.4355
808.60 0.4354
808.70 0.4352
808.80 0.4351
808.90 0.435
809.00 0.4349
809.10 0.4348
809.20 0.4347
809.30 0.4345
809.40 0.4344
809.50 0.4343
809.60 0.4342
809.70 0.4341
809.80 0.434
809.90 0.4338
810.00 0.4337
810.10 0.4336
810.20 0.4335
810.30 0.4334
810.40 0.4332
810.50 0.4331
810.60 0.433
810.70 0.4329
810.80 0.4328
810.90 0.4326
811.00 0.4325
811.10 0.4324
811.20 0.4323
811.30 0.4322
811.40 0.4321
811.50 0.4319
811.60 0.4318
811.70 0.4317
811.80 0.4316
811.90 0.4315
812.00 0.4314
812.10 0.4312
812.20 0.4311
812.30 0.431
812.40 0.4309
812.50 0.4308
812.60 0.4306
812.70 0.4305
812.80 0.4304
812.90 0.4303
813.00 0.4302
813.10 0.4301
813.20 0.4299
813.30 0.4298
813.40 0.4297
813.50 0.4296
813.60 0.4295
813.70 0.4294
813.80 0.4292
813.90 0.4291
814.00 0.429
814.10 0.4289
814.20 0.4288
814.30 0.4287
814.40 0.4285
814.50 0.4284
814.60 0.4283
814.70 0.4282
814.80 0.4281
814.90 0.428
815.00 0.4278
815.10 0.4277
815.20 0.4276
815.30 0.4275
815.40 0.4274
815.50 0.4273
815.60 0.4271
815.70 0.427
815.80 0.4269
815.90 0.4268
816.00 0.4267
816.10 0.4266
816.20 0.4264
816.30 0.4263
816.40 0.4262
816.50 0.4261
816.60 0.426
816.70 0.4259
816.80 0.4258
816.90 0.4256
817.00 0.4255
817.10 0.4254
817.20 0.4253
817.30 0.4252
817.40 0.4251
817.50 0.4249
817.60 0.4248
817.70 0.4247
817.80 0.4246
817.90 0.4245
818.00 0.4244
818.10 0.4243
818.20 0.4241
818.30 0.424
818.40 0.4239
818.50 0.4238
818.60 0.4237
818.70 0.4236
818.80 0.4235
818.90 0.4233
819.00 0.4232
819.10 0.4231
819.20 0.423
819.30 0.4229
819.40 0.4228
819.50 0.4226
819.60 0.4225
819.70 0.4224
819.80 0.4223
819.90 0.4222
820.00 0.4221
820.10 0.422
820.20 0.4219
820.30 0.4217
820.40 0.4216
820.50 0.4215
820.60 0.4214
820.70 0.4213
820.80 0.4212
820.90 0.4211
821.00 0.4209
821.10 0.4208
821.20 0.4207
821.30 0.4206
821.40 0.4205
821.50 0.4204
821.60 0.4203
821.70 0.4201
821.80 0.42
821.90 0.4199
822.00 0.4198
822.10 0.4197
822.20 0.4196
822.30 0.4195
822.40 0.4194
822.50 0.4192
822.60 0.4191
822.70 0.419
822.80 0.4189
822.90 0.4188
823.00 0.4187
823.10 0.4186
823.20 0.4184
823.30 0.4183
823.40 0.4182
823.50 0.4181
823.60 0.418
823.70 0.4179
823.80 0.4178
823.90 0.4176
824.00 0.4175
824.10 0.4174
824.20 0.4173
824.30 0.4172
824.40 0.4171
824.50 0.417
824.60 0.4169
824.70 0.4167
824.80 0.4166
824.90 0.4165
825.00 0.4164
825.10 0.4163
825.20 0.4162
825.30 0.4161
825.40 0.416
825.50 0.4158
825.60 0.4157
825.70 0.4156
825.80 0.4155
825.90 0.4154
826.00 0.4153
826.10 0.4152
826.20 0.4151
826.30 0.4149
826.40 0.4148
826.50 0.4147
826.60 0.4146
826.70 0.4145
826.80 0.4144
826.90 0.4143
827.00 0.4142
827.10 0.414
827.20 0.4139
827.30 0.4138
827.40 0.4137
827.50 0.4136
827.60 0.4135
827.70 0.4134
827.80 0.4133
827.90 0.4131
828.00 0.413
828.10 0.4129
828.20 0.4128
828.30 0.4127
828.40 0.4126
828.50 0.4125
828.60 0.4124
828.70 0.4123
828.80 0.4121
828.90 0.412
829.00 0.4119
829.10 0.4118
829.20 0.4117
829.30 0.4116
829.40 0.4115
829.50 0.4114
829.60 0.4113
829.70 0.4111
829.80 0.411
829.90 0.4109
830.00 0.4108
830.10 0.4107
830.20 0.4106
830.30 0.4105
830.40 0.4104
830.50 0.4102
830.60 0.4101
830.70 0.41
830.80 0.4099
830.90 0.4098
831.00 0.4097
831.10 0.4096
831.20 0.4095
831.30 0.4094
831.40 0.4093
831.50 0.4091
831.60 0.409
831.70 0.4089
831.80 0.4088
831.90 0.4087
832.00 0.4086
832.10 0.4085
832.20 0.4084
832.30 0.4083
832.40 0.4081
832.50 0.408
832.60 0.4079
832.70 0.4078
832.80 0.4077
832.90 0.4076
833.00 0.4075
833.10 0.4074
833.20 0.4073
833.30 0.4071
833.40 0.407
833.50 0.4069
833.60 0.4068
833.70 0.4067
833.80 0.4066
833.90 0.4065
834.00 0.4064
834.10 0.4063
834.20 0.4062
834.30 0.406
834.40 0.4059
834.50 0.4058
834.60 0.4057
834.70 0.4056
834.80 0.4055
834.90 0.4054
835.00 0.4053
835.10 0.4052
835.20 0.4051
835.30 0.4049
835.40 0.4048
835.50 0.4047
835.60 0.4046
835.70 0.4045
835.80 0.4044
835.90 0.4043
836.00 0.4042
836.10 0.4041
836.20 0.404
836.30 0.4039
836.40 0.4037
836.50 0.4036
836.60 0.4035
836.70 0.4034
836.80 0.4033
836.90 0.4032
837.00 0.4031
837.10 0.403
837.20 0.4029
837.30 0.4028
837.40 0.4027
837.50 0.4025
837.60 0.4024
837.70 0.4023
837.80 0.4022
837.90 0.4021
838.00 0.402
838.10 0.4019
838.20 0.4018
838.30 0.4017
838.40 0.4016
838.50 0.4015
838.60 0.4014
838.70 0.4012
838.80 0.4011
838.90 0.401
839.00 0.4009
839.10 0.4008
839.20 0.4007
839.30 0.4006
839.40 0.4005
839.50 0.4004
839.60 0.4003
839.70 0.4002
839.80 0.4001
839.90 0.4
840.00 0.3998
840.10 0.3997
840.20 0.3996
840.30 0.3995
840.40 0.3994
840.50 0.3993
840.60 0.3992
840.70 0.3991
840.80 0.399
840.90 0.3989
841.00 0.3988
841.10 0.3987
841.20 0.3986
841.30 0.3984
841.40 0.3983
841.50 0.3982
841.60 0.3981
841.70 0.398
841.80 0.3979
841.90 0.3978
842.00 0.3977
842.10 0.3976
842.20 0.3975
842.30 0.3974
842.40 0.3973
842.50 0.3972
842.60 0.397
842.70 0.3969
842.80 0.3968
842.90 0.3967
843.00 0.3966
843.10 0.3965
843.20 0.3964
843.30 0.3963
843.40 0.3962
843.50 0.3961
843.60 0.396
843.70 0.3959
843.80 0.3957
843.90 0.3956
844.00 0.3955
844.10 0.3954
844.20 0.3953
844.30 0.3952
844.40 0.3951
844.50 0.395
844.60 0.3949
844.70 0.3948
844.80 0.3947
844.90 0.3946
845.00 0.3945
845.10 0.3943
845.20 0.3942
845.30 0.3941
845.40 0.394
845.50 0.3939
845.60 0.3938
845.70 0.3937
845.80 0.3936
845.90 0.3935
846.00 0.3934
846.10 0.3933
846.20 0.3932
846.30 0.3931
846.40 0.393
846.50 0.3928
846.60 0.3927
846.70 0.3926
846.80 0.3925
846.90 0.3924
847.00 0.3923
847.10 0.3922
847.20 0.3921
847.30 0.392
847.40 0.3919
847.50 0.3918
847.60 0.3917
847.70 0.3916
847.80 0.3915
847.90 0.3914
848.00 0.3913
848.10 0.3912
848.20 0.3911
848.30 0.391
848.40 0.3909
848.50 0.3908
848.60 0.3907
848.70 0.3906
848.80 0.3905
848.90 0.3904
849.00 0.3902
849.10 0.3901
849.20 0.39
849.30 0.3899
849.40 0.3898
849.50 0.3897
849.60 0.3896
849.70 0.3895
849.80 0.3894
849.90 0.3893
850.00 0.3892
850.10 0.3891
850.20 0.389
850.30 0.3889
850.40 0.3888
850.50 0.3887
850.60 0.3886
850.70 0.3885
850.80 0.3884
850.90 0.3883
851.00 0.3882
851.10 0.3881
851.20 0.388
851.30 0.3879
851.40 0.3878
851.50 0.3877
851.60 0.3876
851.70 0.3875
851.80 0.3874
851.90 0.3873
852.00 0.3872
852.10 0.3871
852.20 0.387
852.30 0.3869
852.40 0.3868
852.50 0.3867
852.60 0.3865
852.70 0.3864
852.80 0.3863
852.90 0.3862
853.00 0.3861
853.10 0.386
853.20 0.3859
853.30 0.3858
853.40 0.3857
853.50 0.3856
853.60 0.3855
853.70 0.3854
853.80 0.3853
853.90 0.3852
854.00 0.3851
854.10 0.385
854.20 0.3849
854.30 0.3848
854.40 0.3847
854.50 0.3846
854.60 0.3845
854.70 0.3844
854.80 0.3843
854.90 0.3842
855.00 0.3841
855.10 0.384
855.20 0.3839
855.30 0.3838
855.40 0.3837
855.50 0.3836
855.60 0.3834
855.70 0.3833
855.80 0.3832
855.90 0.3831
856.00 0.383
856.10 0.3829
856.20 0.3828
856.30 0.3827
856.40 0.3826
856.50 0.3825
856.60 0.3824
856.70 0.3823
856.80 0.3822
856.90 0.3821
857.00 0.382
857.10 0.3819
857.20 0.3818
857.30 0.3817
857.40 0.3816
857.50 0.3815
857.60 0.3814
857.70 0.3813
857.80 0.3812
857.90 0.3811
858.00 0.381
858.10 0.3809
858.20 0.3808
858.30 0.3807
858.40 0.3806
858.50 0.3805
858.60 0.3804
858.70 0.3803
858.80 0.3802
858.90 0.3801
859.00 0.38
859.10 0.3799
859.20 0.3798
859.30 0.3797
859.40 0.3796
859.50 0.3795
859.60 0.3794
859.70 0.3793
859.80 0.3792
859.90 0.3791
860.00 0.379
860.10 0.3789
860.20 0.3788
860.30 0.3787
860.40 0.3786
860.50 0.3785
860.60 0.3784
860.70 0.3783
860.80 0.3782
860.90 0.3781
861.00 0.378
861.10 0.3779
861.20 0.3778
861.30 0.3777
861.40 0.3776
861.50 0.3775
861.60 0.3774
861.70 0.3773
861.80 0.3772
861.90 0.3771
862.00 0.377
862.10 0.3769
862.20 0.3768
862.30 0.3767
862.40 0.3766
862.50 0.3765
862.60 0.3764
862.70 0.3763
862.80 0.3762
862.90 0.3761
863.00 0.3759
863.10 0.3758
863.20 0.3757
863.30 0.3756
863.40 0.3755
863.50 0.3754
863.60 0.3753
863.70 0.3752
863.80 0.3751
863.90 0.375
864.00 0.3749
864.10 0.3748
864.20 0.3747
864.30 0.3746
864.40 0.3745
864.50 0.3744
864.60 0.3743
864.70 0.3742
864.80 0.3741
864.90 0.374
865.00 0.3739
865.10 0.3738
865.20 0.3737
865.30 0.3736
865.40 0.3735
865.50 0.3734
865.60 0.3733
865.70 0.3732
865.80 0.3731
865.90 0.373
866.00 0.3729
866.10 0.3728
866.20 0.3727
866.30 0.3726
866.40 0.3725
866.50 0.3724
866.60 0.3723
866.70 0.3722
866.80 0.3721
866.90 0.372
867.00 0.3719
867.10 0.3718
867.20 0.3717
867.30 0.3716
867.40 0.3715
867.50 0.3714
867.60 0.3713
867.70 0.3712
867.80 0.3711
867.90 0.371
868.00 0.3709
868.10 0.3708
868.20 0.3707
868.30 0.3706
868.40 0.3705
868.50 0.3704
868.60 0.3704
868.70 0.3703
868.80 0.3702
868.90 0.3701
869.00 0.37
869.10 0.3699
869.20 0.3698
869.30 0.3697
869.40 0.3696
869.50 0.3695
869.60 0.3694
869.70 0.3693
869.80 0.3692
869.90 0.3691
870.00 0.369
870.10 0.3689
870.20 0.3688
870.30 0.3687
870.40 0.3686
870.50 0.3685
870.60 0.3684
870.70 0.3683
870.80 0.3682
870.90 0.3682
871.00 0.3681
871.10 0.368
871.20 0.3679
871.30 0.3678
871.40 0.3677
871.50 0.3676
871.60 0.3675
871.70 0.3674
871.80 0.3673
871.90 0.3672
872.00 0.3671
872.10 0.367
872.20 0.3669
872.30 0.3668
872.40 0.3667
872.50 0.3666
872.60 0.3665
872.70 0.3664
872.80 0.3663
872.90 0.3662
873.00 0.3661
873.10 0.366
873.20 0.3659
873.30 0.3658
873.40 0.3657
873.50 0.3656
873.60 0.3655
873.70 0.3654
873.80 0.3653
873.90 0.3652
874.00 0.3651
874.10 0.365
874.20 0.365
874.30 0.3649
874.40 0.3648
874.50 0.3647
874.60 0.3646
874.70 0.3645
874.80 0.3644
874.90 0.3643
875.00 0.3642
875.10 0.3641
875.20 0.364
875.30 0.3639
875.40 0.3638
875.50 0.3637
875.60 0.3636
875.70 0.3635
875.80 0.3634
875.90 0.3633
876.00 0.3632
876.10 0.3631
876.20 0.363
876.30 0.3629
876.40 0.3628
876.50 0.3627
876.60 0.3626
876.70 0.3625
876.80 0.3624
876.90 0.3623
877.00 0.3622
877.10 0.3621
877.20 0.362
877.30 0.3619
877.40 0.3619
877.50 0.3618
877.60 0.3617
877.70 0.3616
877.80 0.3615
877.90 0.3614
878.00 0.3613
878.10 0.3612
878.20 0.3611
878.30 0.361
878.40 0.3609
878.50 0.3608
878.60 0.3607
878.70 0.3606
878.80 0.3605
878.90 0.3604
879.00 0.3604
879.10 0.3603
879.20 0.3602
879.30 0.3601
879.40 0.36
879.50 0.3599
879.60 0.3598
879.70 0.3597
879.80 0.3596
879.90 0.3595
880.00 0.3594
880.10 0.3593
880.20 0.3592
880.30 0.3591
880.40 0.3591
880.50 0.359
880.60 0.3589
880.70 0.3588
880.80 0.3587
880.90 0.3586
881.00 0.3585
881.10 0.3584
881.20 0.3583
881.30 0.3582
881.40 0.3581
881.50 0.358
881.60 0.3579
881.70 0.3578
881.80 0.3578
881.90 0.3577
882.00 0.3576
882.10 0.3575
882.20 0.3574
882.30 0.3572
882.40 0.3571
882.50 0.357
882.60 0.3569
882.70 0.3568
882.80 0.3567
882.90 0.3566
883.00 0.3565
883.10 0.3564
883.20 0.3563
883.30 0.3562
883.40 0.3561
883.50 0.3559
883.60 0.3558
883.70 0.3557
883.80 0.3556
883.90 0.3555
884.00 0.3554
884.10 0.3553
884.20 0.3552
884.30 0.3551
884.40 0.355
884.50 0.3549
884.60 0.3548
884.70 0.3547
884.80 0.3545
884.90 0.3544
885.00 0.3543
885.10 0.3542
885.20 0.3541
885.30 0.354
885.40 0.3539
885.50 0.3538
885.60 0.3537
885.70 0.3536
885.80 0.3535
885.90 0.3534
886.00 0.3533
886.10 0.3532
886.20 0.3531
886.30 0.3529
886.40 0.3528
886.50 0.3527
886.60 0.3526
886.70 0.3525
886.80 0.3524
886.90 0.3523
887.00 0.3522
887.10 0.3521
887.20 0.352
887.30 0.352
887.40 0.3519
887.50 0.3518
887.60 0.3517
887.70 0.3517
887.80 0.3516
887.90 0.3515
888.00 0.3514
888.10 0.3513
888.20 0.3513
888.30 0.3512
888.40 0.3511
888.50 0.351
888.60 0.351
888.70 0.3509
888.80 0.3508
888.90 0.3507
889.00 0.3507
889.10 0.3506
889.20 0.3505
889.30 0.3504
889.40 0.3503
889.50 0.3503
889.60 0.3502
889.70 0.3501
889.80 0.35
889.90 0.35
890.00 0.3499
890.10 0.3498
890.20 0.3497
890.30 0.3497
890.40 0.3496
890.50 0.3495
890.60 0.3494
890.70 0.3494
890.80 0.3493
890.90 0.3492
891.00 0.3491
891.10 0.349
891.20 0.349
891.30 0.3489
891.40 0.3488
891.50 0.3487
891.60 0.3487
891.70 0.3486
891.80 0.3485
891.90 0.3484
892.00 0.3484
892.10 0.3483
892.20 0.3482
892.30 0.3481
892.40 0.348
892.50 0.3479
892.60 0.3478
892.70 0.3477
892.80 0.3476
892.90 0.3475
893.00 0.3474
893.10 0.3473
893.20 0.3472
893.30 0.3471
893.40 0.3471
893.50 0.347
893.60 0.3469
893.70 0.3468
893.80 0.3467
893.90 0.3466
894.00 0.3465
894.10 0.3464
894.20 0.3463
894.30 0.3462
894.40 0.3461
894.50 0.346
894.60 0.3459
894.70 0.3458
894.80 0.3457
894.90 0.3457
895.00 0.3456
895.10 0.3455
895.20 0.3454
895.30 0.3453
895.40 0.3452
895.50 0.3451
895.60 0.345
895.70 0.3449
895.80 0.3448
895.90 0.3447
896.00 0.3446
896.10 0.3445
896.20 0.3445
896.30 0.3444
896.40 0.3443
896.50 0.3442
896.60 0.3441
896.70 0.344
896.80 0.3439
896.90 0.3438
897.00 0.3437
897.10 0.3436
897.20 0.3435
897.30 0.3433
897.40 0.3432
897.50 0.3431
897.60 0.343
897.70 0.3428
897.80 0.3427
897.90 0.3426
898.00 0.3425
898.10 0.3424
898.20 0.3422
898.30 0.3421
898.40 0.342
898.50 0.3419
898.60 0.3417
898.70 0.3416
898.80 0.3415
898.90 0.3414
899.00 0.3412
899.10 0.3411
899.20 0.341
899.30 0.3409
899.40 0.3408
899.50 0.3406
899.60 0.3405
899.70 0.3404
899.80 0.3403
899.90 0.3401
900.00 0.34
900.10 0.3399
900.20 0.3398
900.30 0.3396
900.40 0.3395
900.50 0.3394
900.60 0.3393
900.70 0.3392
900.80 0.339
900.90 0.3389
901.00 0.3388
901.10 0.3387
901.20 0.3385
901.30 0.3384
901.40 0.3383
901.50 0.3382
901.60 0.3381
901.70 0.3379
901.80 0.3378
901.90 0.3377
902.00 0.3376
902.10 0.3375
902.20 0.3375
902.30 0.3374
902.40 0.3374
902.50 0.3373
902.60 0.3373
902.70 0.3372
902.80 0.3371
902.90 0.3371
903.00 0.337
903.10 0.337
903.20 0.3369
903.30 0.3369
903.40 0.3368
903.50 0.3368
903.60 0.3367
903.70 0.3367
903.80 0.3366
903.90 0.3366
904.00 0.3365
904.10 0.3364
904.20 0.3364
904.30 0.3363
904.40 0.3363
904.50 0.3362
904.60 0.3362
904.70 0.3361
904.80 0.3361
904.90 0.336
905.00 0.336
905.10 0.3359
905.20 0.3359
905.30 0.3358
905.40 0.3358
905.50 0.3357
905.60 0.3357
905.70 0.3356
905.80 0.3355
905.90 0.3355
906.00 0.3354
906.10 0.3354
906.20 0.3353
906.30 0.3353
906.40 0.3352
906.50 0.3352
906.60 0.3351
906.70 0.3351
906.80 0.335
906.90 0.335
907.00 0.3349
907.10 0.3348
907.20 0.3347
907.30 0.3347
907.40 0.3346
907.50 0.3345
907.60 0.3344
907.70 0.3343
907.80 0.3342
907.90 0.3341
908.00 0.3341
908.10 0.334
908.20 0.3339
908.30 0.3338
908.40 0.3337
908.50 0.3336
908.60 0.3336
908.70 0.3335
908.80 0.3334
908.90 0.3333
909.00 0.3332
909.10 0.3331
909.20 0.333
909.30 0.333
909.40 0.3329
909.50 0.3328
909.60 0.3327
909.70 0.3326
909.80 0.3325
909.90 0.3325
910.00 0.3324
910.10 0.3323
910.20 0.3322
910.30 0.3321
910.40 0.332
910.50 0.332
910.60 0.3319
910.70 0.3318
910.80 0.3317
910.90 0.3316
911.00 0.3315
911.10 0.3314
911.20 0.3314
911.30 0.3313
911.40 0.3312
911.50 0.3311
911.60 0.331
911.70 0.3309
911.80 0.3309
911.90 0.3308
912.00 0.3307
912.10 0.3306
912.20 0.3305
912.30 0.3304
912.40 0.3303
912.50 0.3302
912.60 0.3302
912.70 0.3301
912.80 0.33
912.90 0.3299
913.00 0.3298
913.10 0.3297
913.20 0.3296
913.30 0.3295
913.40 0.3294
913.50 0.3293
913.60 0.3293
913.70 0.3292
913.80 0.3291
913.90 0.329
914.00 0.3289
914.10 0.3288
914.20 0.3287
914.30 0.3286
914.40 0.3285
914.50 0.3284
914.60 0.3284
914.70 0.3283
914.80 0.3282
914.90 0.3281
915.00 0.328
915.10 0.3279
915.20 0.3278
915.30 0.3277
915.40 0.3276
915.50 0.3275
915.60 0.3275
915.70 0.3274
915.80 0.3273
915.90 0.3272
916.00 0.3271
916.10 0.327
916.20 0.3269
916.30 0.3268
916.40 0.3267
916.50 0.3267
916.60 0.3266
916.70 0.3265
916.80 0.3264
916.90 0.3263
917.00 0.3262
917.10 0.3261
917.20 0.3259
917.30 0.3257
917.40 0.3256
917.50 0.3254
917.60 0.3253
917.70 0.3251
917.80 0.3249
917.90 0.3248
918.00 0.3246
918.10 0.3245
918.20 0.3243
918.30 0.3241
918.40 0.324
918.50 0.3238
918.60 0.3237
918.70 0.3235
918.80 0.3233
918.90 0.3232
919.00 0.323
919.10 0.3229
919.20 0.3227
919.30 0.3225
919.40 0.3224
919.50 0.3222
919.60 0.3221
919.70 0.3219
919.80 0.3217
919.90 0.3216
920.00 0.3214
920.10 0.3213
920.20 0.3211
920.30 0.321
920.40 0.3208
920.50 0.3206
920.60 0.3205
920.70 0.3203
920.80 0.3202
920.90 0.32
921.00 0.3198
921.10 0.3197
921.20 0.3195
921.30 0.3194
921.40 0.3192
921.50 0.3191
921.60 0.3189
921.70 0.3187
921.80 0.3186
921.90 0.3184
922.00 0.3183
922.10 0.3183
922.20 0.3182
922.30 0.3182
922.40 0.3182
922.50 0.3182
922.60 0.3182
922.70 0.3182
922.80 0.3182
922.90 0.3182
923.00 0.3182
923.10 0.3181
923.20 0.3181
923.30 0.3181
923.40 0.3181
923.50 0.3181
923.60 0.3181
923.70 0.3181
923.80 0.3181
923.90 0.318
924.00 0.318
924.10 0.318
924.20 0.318
924.30 0.318
924.40 0.318
924.50 0.318
924.60 0.318
924.70 0.3179
924.80 0.3179
924.90 0.3179
925.00 0.3179
925.10 0.3179
925.20 0.3179
925.30 0.3179
925.40 0.3179
925.50 0.3179
925.60 0.3178
925.70 0.3178
925.80 0.3178
925.90 0.3178
926.00 0.3178
926.10 0.3178
926.20 0.3178
926.30 0.3178
926.40 0.3177
926.50 0.3177
926.60 0.3177
926.70 0.3177
926.80 0.3177
926.90 0.3177
927.00 0.3177
927.10 0.3176
927.20 0.3175
927.30 0.3175
927.40 0.3174
927.50 0.3173
927.60 0.3172
927.70 0.3172
927.80 0.3171
927.90 0.317
928.00 0.3169
928.10 0.3169
928.20 0.3168
928.30 0.3167
928.40 0.3167
928.50 0.3166
928.60 0.3165
928.70 0.3164
928.80 0.3164
928.90 0.3163
929.00 0.3162
929.10 0.3161
929.20 0.3161
929.30 0.316
929.40 0.3159
929.50 0.3159
929.60 0.3158
929.70 0.3157
929.80 0.3156
929.90 0.3156
930.00 0.3155
930.10 0.3154
930.20 0.3153
930.30 0.3153
930.40 0.3152
930.50 0.3151
930.60 0.3151
930.70 0.315
930.80 0.3149
930.90 0.3148
931.00 0.3148
931.10 0.3147
931.20 0.3146
931.30 0.3145
931.40 0.3145
931.50 0.3144
931.60 0.3143
931.70 0.3143
931.80 0.3142
931.90 0.3141
932.00 0.314
932.10 0.314
932.20 0.3139
932.30 0.3138
932.40 0.3137
932.50 0.3136
932.60 0.3136
932.70 0.3135
932.80 0.3134
932.90 0.3133
933.00 0.3132
933.10 0.3132
933.20 0.3131
933.30 0.313
933.40 0.3129
933.50 0.3129
933.60 0.3128
933.70 0.3127
933.80 0.3126
933.90 0.3125
934.00 0.3125
934.10 0.3124
934.20 0.3123
934.30 0.3122
934.40 0.3121
934.50 0.3121
934.60 0.312
934.70 0.3119
934.80 0.3118
934.90 0.3117
935.00 0.3117
935.10 0.3116
935.20 0.3115
935.30 0.3114
935.40 0.3113
935.50 0.3113
935.60 0.3112
935.70 0.3111
935.80 0.311
935.90 0.311
936.00 0.3109
936.10 0.3108
936.20 0.3107
936.30 0.3106
936.40 0.3106
936.50 0.3105
936.60 0.3104
936.70 0.3103
936.80 0.3102
936.90 0.3102
937.00 0.3101
937.10 0.31
937.20 0.3099
937.30 0.3098
937.40 0.3098
937.50 0.3097
937.60 0.3096
937.70 0.3095
937.80 0.3095
937.90 0.3094
938.00 0.3093
938.10 0.3092
938.20 0.3091
938.30 0.3091
938.40 0.309
938.50 0.3089
938.60 0.3088
938.70 0.3087
938.80 0.3087
938.90 0.3086
939.00 0.3085
939.10 0.3084
939.20 0.3084
939.30 0.3083
939.40 0.3082
939.50 0.3081
939.60 0.308
939.70 0.308
939.80 0.3079
939.90 0.3078
940.00 0.3077
940.10 0.3076
940.20 0.3076
940.30 0.3075
940.40 0.3074
940.50 0.3073
940.60 0.3072
940.70 0.3072
940.80 0.3071
940.90 0.307
941.00 0.3069
941.10 0.3068
941.20 0.3068
941.30 0.3067
941.40 0.3066
941.50 0.3065
941.60 0.3064
941.70 0.3064
941.80 0.3063
941.90 0.3062
942.00 0.3061
942.10 0.306
942.20 0.306
942.30 0.3059
942.40 0.3058
942.50 0.3057
942.60 0.3056
942.70 0.3056
942.80 0.3055
942.90 0.3054
943.00 0.3053
943.10 0.3052
943.20 0.3052
943.30 0.3051
943.40 0.305
943.50 0.3049
943.60 0.3048
943.70 0.3048
943.80 0.3047
943.90 0.3046
944.00 0.3045
944.10 0.3045
944.20 0.3044
944.30 0.3043
944.40 0.3042
944.50 0.3041
944.60 0.3041
944.70 0.304
944.80 0.3039
944.90 0.3038
945.00 0.3037
945.10 0.3037
945.20 0.3036
945.30 0.3035
945.40 0.3034
945.50 0.3033
945.60 0.3032
945.70 0.3032
945.80 0.3031
945.90 0.303
946.00 0.3029
946.10 0.3028
946.20 0.3028
946.30 0.3027
946.40 0.3026
946.50 0.3025
946.60 0.3024
946.70 0.3023
946.80 0.3023
946.90 0.3022
947.00 0.3021
947.10 0.302
947.20 0.3019
947.30 0.3018
947.40 0.3017
947.50 0.3017
947.60 0.3016
947.70 0.3015
947.80 0.3014
947.90 0.3013
948.00 0.3012
948.10 0.3011
948.20 0.301
948.30 0.3009
948.40 0.3008
948.50 0.3007
948.60 0.3006
948.70 0.3006
948.80 0.3005
948.90 0.3004
949.00 0.3003
949.10 0.3002
949.20 0.3001
949.30 0.3
949.40 0.2999
949.50 0.2998
949.60 0.2996
949.70 0.2995
949.80 0.2994
949.90 0.2993
950.00 0.2992
950.10 0.299
950.20 0.2989
950.30 0.2988
950.40 0.2987
950.50 0.2986
950.60 0.2984
950.70 0.2983
950.80 0.2982
950.90 0.2981
951.00 0.298
951.10 0.2978
951.20 0.2977
951.30 0.2976
951.40 0.2974
951.50 0.2972
951.60 0.2971
951.70 0.2969
951.80 0.2967
951.90 0.2965
952.00 0.2963
952.10 0.2961
952.20 0.2958
952.30 0.2956
952.40 0.2953
952.50 0.2951
952.60 0.2949
952.70 0.2946
952.80 0.2944
952.90 0.294
953.00 0.2936
953.10 0.2932
953.20 0.2929
953.30 0.2925
953.40 0.2921
953.50 0.2917
953.60 0.2912
953.70 0.2906
953.80 0.29
953.90 0.2894
954.00 0.2885
954.10 0.2876
954.20 0.2867
954.30 0.2873
954.40 0.2866
954.50 0.2873
954.60 0.2881
954.70 0.2888
954.80 0.2893
954.90 0.2897
955.00 0.2901
955.10 0.2906
955.20 0.2908
955.30 0.291
955.40 0.2912
955.50 0.2915
955.60 0.2917
955.70 0.2919
955.80 0.2921
955.90 0.2922
956.00 0.2923
956.10 0.2923
956.20 0.2924
956.30 0.2925
956.40 0.2926
956.50 0.2927
956.60 0.2927
956.70 0.2928
956.80 0.2929
956.90 0.293
957.00 0.293
957.10 0.2931
957.20 0.2931
957.30 0.2931
957.40 0.2931
957.50 0.293
957.60 0.293
957.70 0.293
957.80 0.2929
957.90 0.2929
958.00 0.2929
958.10 0.2928
958.20 0.2928
958.30 0.2928
958.40 0.2928
958.50 0.2927
958.60 0.2927
958.70 0.2927
958.80 0.2926
958.90 0.2926
959.00 0.2926
959.10 0.2925
959.20 0.2925
959.30 0.2925
959.40 0.2924
959.50 0.2924
959.60 0.2923
959.70 0.2922
959.80 0.2922
959.90 0.2921
960.00 0.2921
960.10 0.292
960.20 0.2919
960.30 0.2919
960.40 0.2918
960.50 0.2918
960.60 0.2917
960.70 0.2916
960.80 0.2916
960.90 0.2915
961.00 0.2915
961.10 0.2914
961.20 0.2913
961.30 0.2913
961.40 0.2912
961.50 0.2912
961.60 0.2911
961.70 0.291
961.80 0.291
961.90 0.2909
962.00 0.2908
962.10 0.2907
962.20 0.2907
962.30 0.2906
962.40 0.2905
962.50 0.2905
962.60 0.2904
962.70 0.2903
962.80 0.2903
962.90 0.2902
963.00 0.2901
963.10 0.2901
963.20 0.29
963.30 0.2899
963.40 0.2899
963.50 0.2898
963.60 0.2897
963.70 0.2896
963.80 0.2896
963.90 0.2895
964.00 0.2894
964.10 0.2894
964.20 0.2893
964.30 0.2892
964.40 0.2891
964.50 0.2891
964.60 0.289
964.70 0.2889
964.80 0.2889
964.90 0.2888
965.00 0.2887
965.10 0.2886
965.20 0.2886
965.30 0.2885
965.40 0.2884
965.50 0.2884
965.60 0.2883
965.70 0.2882
965.80 0.2882
965.90 0.2881
966.00 0.288
966.10 0.2879
966.20 0.2879
966.30 0.2878
966.40 0.2877
966.50 0.2877
966.60 0.2876
966.70 0.2875
966.80 0.2874
966.90 0.2874
967.00 0.2873
967.10 0.2872
967.20 0.2872
967.30 0.2871
967.40 0.287
967.50 0.2869
967.60 0.2869
967.70 0.2868
967.80 0.2867
967.90 0.2866
968.00 0.2866
968.10 0.2865
968.20 0.2864
968.30 0.2864
968.40 0.2863
968.50 0.2862
968.60 0.2861
968.70 0.2861
968.80 0.286
968.90 0.2859
969.00 0.2859
969.10 0.2858
969.20 0.2857
969.30 0.2856
969.40 0.2856
969.50 0.2855
969.60 0.2854
969.70 0.2854
969.80 0.2853
969.90 0.2852
970.00 0.2851
970.10 0.2851
970.20 0.285
970.30 0.2849
970.40 0.2849
970.50 0.2848
970.60 0.2847
970.70 0.2846
970.80 0.2846
970.90 0.2845
971.00 0.2844
971.10 0.2844
971.20 0.2843
971.30 0.2842
971.40 0.2841
971.50 0.2841
971.60 0.284
971.70 0.2839
971.80 0.2839
971.90 0.2838
972.00 0.2837
972.10 0.2836
972.20 0.2836
972.30 0.2835
972.40 0.2834
972.50 0.2834
972.60 0.2833
972.70 0.2832
972.80 0.2831
972.90 0.2831
973.00 0.283
973.10 0.2829
973.20 0.2829
973.30 0.2828
973.40 0.2827
973.50 0.2827
973.60 0.2826
973.70 0.2825
973.80 0.2824
973.90 0.2824
974.00 0.2823
974.10 0.2822
974.20 0.2822
974.30 0.2821
974.40 0.282
974.50 0.2819
974.60 0.2819
974.70 0.2818
974.80 0.2817
974.90 0.2817
975.00 0.2816
975.10 0.2815
975.20 0.2815
975.30 0.2814
975.40 0.2813
975.50 0.2812
975.60 0.2812
975.70 0.2811
975.80 0.281
975.90 0.281
976.00 0.2809
976.10 0.2808
976.20 0.2807
976.30 0.2807
976.40 0.2806
976.50 0.2805
976.60 0.2805
976.70 0.2804
976.80 0.2803
976.90 0.2803
977.00 0.2802
977.10 0.2801
977.20 0.28
977.30 0.28
977.40 0.2799
977.50 0.2798
977.60 0.2798
977.70 0.2797
977.80 0.2796
977.90 0.2796
978.00 0.2795
978.10 0.2794
978.20 0.2793
978.30 0.2793
978.40 0.2792
978.50 0.2791
978.60 0.2791
978.70 0.279
978.80 0.2789
978.90 0.2789
979.00 0.2788
979.10 0.2787
979.20 0.2786
979.30 0.2786
979.40 0.2785
979.50 0.2784
979.60 0.2784
979.70 0.2783
979.80 0.2782
979.90 0.2782
980.00 0.2781
980.10 0.278
980.20 0.2779
980.30 0.2779
980.40 0.2778
980.50 0.2777
980.60 0.2777
980.70 0.2776
980.80 0.2775
980.90 0.2775
981.00 0.2774
981.10 0.2773
981.20 0.2773
981.30 0.2772
981.40 0.2771
981.50 0.277
981.60 0.277
981.70 0.2769
981.80 0.2768
981.90 0.2768
982.00 0.2767
982.10 0.2766
982.20 0.2766
982.30 0.2765
982.40 0.2764
982.50 0.2764
982.60 0.2763
982.70 0.2762
982.80 0.2761
982.90 0.2761
983.00 0.276
983.10 0.2759
983.20 0.2759
983.30 0.2758
983.40 0.2757
983.50 0.2757
983.60 0.2756
983.70 0.2755
983.80 0.2754
983.90 0.2754
984.00 0.2753
984.10 0.2752
984.20 0.2752
984.30 0.2751
984.40 0.275
984.50 0.275
984.60 0.2749
984.70 0.2748
984.80 0.2748
984.90 0.2747
985.00 0.2746
985.10 0.2745
985.20 0.2745
985.30 0.2744
985.40 0.2743
985.50 0.2743
985.60 0.2742
985.70 0.2741
985.80 0.2741
985.90 0.274
986.00 0.2739
986.10 0.2739
986.20 0.2738
986.30 0.2737
986.40 0.2737
986.50 0.2736
986.60 0.2735
986.70 0.2734
986.80 0.2734
986.90 0.2733
987.00 0.2732
987.10 0.2732
987.20 0.2731
987.30 0.273
987.40 0.273
987.50 0.2729
987.60 0.2728
987.70 0.2728
987.80 0.2727
987.90 0.2726
988.00 0.2726
988.10 0.2725
988.20 0.2724
988.30 0.2723
988.40 0.2723
988.50 0.2722
988.60 0.2721
988.70 0.2721
988.80 0.272
988.90 0.2719
989.00 0.2719
989.10 0.2718
989.20 0.2717
989.30 0.2717
989.40 0.2716
989.50 0.2715
989.60 0.2715
989.70 0.2714
989.80 0.2713
989.90 0.2713
990.00 0.2712
990.10 0.2711
990.20 0.271
990.30 0.271
990.40 0.2709
990.50 0.2708
990.60 0.2708
990.70 0.2707
990.80 0.2706
990.90 0.2706
991.00 0.2705
991.10 0.2704
991.20 0.2704
991.30 0.2703
991.40 0.2702
991.50 0.2702
991.60 0.2701
991.70 0.27
991.80 0.27
991.90 0.2699
992.00 0.2698
992.10 0.2698
992.20 0.2697
992.30 0.2696
992.40 0.2695
992.50 0.2695
992.60 0.2694
992.70 0.2693
992.80 0.2693
992.90 0.2692
993.00 0.2691
993.10 0.2691
993.20 0.269
993.30 0.2689
993.40 0.2688
993.50 0.2688
993.60 0.2687
993.70 0.2686
993.80 0.2686
993.90 0.2685
994.00 0.2684
994.10 0.2684
994.20 0.2683
994.30 0.2682
994.40 0.2682
994.50 0.2681
994.60 0.268
994.70 0.2679
994.80 0.2679
994.90 0.2678
995.00 0.2677
995.10 0.2677
995.20 0.2676
995.30 0.2675
995.40 0.2675
995.50 0.2674
995.60 0.2673
995.70 0.2672
995.80 0.2672
995.90 0.2671
996.00 0.267
996.10 0.267
996.20 0.2669
996.30 0.2668
996.40 0.2667
996.50 0.2667
996.60 0.2666
996.70 0.2665
996.80 0.2664
996.90 0.2664
997.00 0.2663
997.10 0.2662
997.20 0.2661
997.30 0.2661
997.40 0.266
997.50 0.2659
997.60 0.2658
997.70 0.2658
997.80 0.2657
997.90 0.2656
998.00 0.2655
998.10 0.2654
998.20 0.2653
998.30 0.2652
998.40 0.2652
998.50 0.2651
998.60 0.265
998.70 0.2649
998.80 0.2648
998.90 0.2647
999.00 0.2646
999.10 0.2646
999.20 0.2645
999.30 0.2644
999.40 0.2643
999.50 0.2642
999.60 0.2641
999.70 0.264
999.80 0.2639
999.90 0.2638
1000.00 0.2636
1000.10 0.2635
1000.20 0.2634
1000.30 0.2632
1000.40 0.2631
1000.50 0.263
1000.60 0.2628
1000.70 0.2627
1000.80 0.2626
1000.90 0.2625
1001.00 0.2623
1001.10 0.2622
1001.20 0.2621
1001.30 0.2619
1001.40 0.2618
1001.50 0.2617
1001.60 0.2616
1001.70 0.2614
1001.80 0.2612
1001.90 0.261
1002.00 0.2608
1002.10 0.2605
1002.20 0.2602
1002.30 0.2598
1002.40 0.2595
1002.50 0.2592
1002.60 0.2589
1002.70 0.2586
1002.80 0.2582
1002.90 0.2579
1003.00 0.2576
1003.10 0.2573
1003.20 0.2568
1003.30 0.2561
1003.40 0.2555
1003.50 0.2549
1003.60 0.2543
1003.70 0.2537
1003.80 0.2531
1003.90 0.2522
1004.00 0.2511
1004.10 0.2501
1004.20 0.249
1004.30 0.2473
1004.40 0.2454
1004.50 0.2431
1004.60 0.2426
1004.70 0.2421
1004.80 0.2442
1004.90 0.246
1005.00 0.2478
1005.10 0.249
1005.20 0.2499
1005.30 0.2508
1005.40 0.2517
1005.50 0.2523
1005.60 0.2528
1005.70 0.2533
1005.80 0.2538
1005.90 0.2542
1006.00 0.2547
1006.10 0.2552
1006.20 0.2555
1006.30 0.2557
1006.40 0.2559
1006.50 0.2561
1006.60 0.2563
1006.70 0.2565
1006.80 0.2567
1006.90 0.2569
1007.00 0.2571
1007.10 0.2572
1007.20 0.2573
1007.30 0.2574
1007.40 0.2575
1007.50 0.2576
1007.60 0.2576
1007.70 0.2577
1007.80 0.2577
1007.90 0.2577
1008.00 0.2577
1008.10 0.2577
1008.20 0.2577
1008.30 0.2577
1008.40 0.2577
1008.50 0.2577
1008.60 0.2577
1008.70 0.2577
1008.80 0.2577
1008.90 0.2577
1009.00 0.2577
1009.10 0.2577
1009.20 0.2577
1009.30 0.2577
1009.40 0.2577
1009.50 0.2577
1009.60 0.2577
1009.70 0.2576
1009.80 0.2576
1009.90 0.2575
1010.00 0.2575
1010.10 0.2574
1010.20 0.2574
1010.30 0.2574
1010.40 0.2573
1010.50 0.2573
1010.60 0.2572
1010.70 0.2572
1010.80 0.2571
1010.90 0.2571
1011.00 0.257
1011.10 0.257
1011.20 0.257
1011.30 0.2569
1011.40 0.2569
1011.50 0.2568
1011.60 0.2568
1011.70 0.2567
1011.80 0.2567
1011.90 0.2566
1012.00 0.2566
1012.10 0.2565
1012.20 0.2565
1012.30 0.2564
1012.40 0.2564
1012.50 0.2563
1012.60 0.2562
1012.70 0.2562
1012.80 0.2561
1012.90 0.2561
1013.00 0.256
1013.10 0.256
1013.20 0.2559
1013.30 0.2558
1013.40 0.2558
1013.50 0.2557
1013.60 0.2557
1013.70 0.2556
1013.80 0.2556
1013.90 0.2555
1014.00 0.2554
1014.10 0.2554
1014.20 0.2553
1014.30 0.2553
1014.40 0.2552
1014.50 0.2552
1014.60 0.2551
1014.70 0.255
1014.80 0.255
1014.90 0.2549
1015.00 0.2549
1015.10 0.2548
1015.20 0.2547
1015.30 0.2547
1015.40 0.2546
1015.50 0.2545
1015.60 0.2545
1015.70 0.2544
1015.80 0.2544
1015.90 0.2543
1016.00 0.2542
1016.10 0.2542
1016.20 0.2541
1016.30 0.2541
1016.40 0.254
1016.50 0.2539
1016.60 0.2539
1016.70 0.2538
1016.80 0.2538
1016.90 0.2537
1017.00 0.2536
1017.10 0.2536
1017.20 0.2535
1017.30 0.2535
1017.40 0.2534
1017.50 0.2533
1017.60 0.2533
1017.70 0.2532
1017.80 0.2532
1017.90 0.2531
1018.00 0.253
1018.10 0.253
1018.20 0.2529
1018.30 0.2529
1018.40 0.2528
1018.50 0.2527
1018.60 0.2527
1018.70 0.2526
1018.80 0.2525
1018.90 0.2525
1019.00 0.2524
1019.10 0.2524
1019.20 0.2523
1019.30 0.2522
1019.40 0.2522
1019.50 0.2521
1019.60 0.2521
1019.70 0.252
1019.80 0.2519
1019.90 0.2519
1020.00 0.2518
1020.10 0.2518
1020.20 0.2517
1020.30 0.2516
1020.40 0.2516
1020.50 0.2515
1020.60 0.2514
1020.70 0.2514
1020.80 0.2513
1020.90 0.2513
1021.00 0.2512
1021.10 0.2511
1021.20 0.2511
1021.30 0.251
1021.40 0.251
1021.50 0.2509
1021.60 0.2508
1021.70 0.2508
1021.80 0.2507
1021.90 0.2506
1022.00 0.2506
1022.10 0.2505
1022.20 0.2505
1022.30 0.2504
1022.40 0.2503
1022.50 0.2503
1022.60 0.2502
1022.70 0.2502
1022.80 0.2501
1022.90 0.25
1023.00 0.25
1023.10 0.2499
1023.20 0.2499
1023.30 0.2498
1023.40 0.2497
1023.50 0.2497
1023.60 0.2496
1023.70 0.2496
1023.80 0.2495
1023.90 0.2494
1024.00 0.2494
1024.10 0.2493
1024.20 0.2493
1024.30 0.2492
1024.40 0.2491
1024.50 0.2491
1024.60 0.249
1024.70 0.249
1024.80 0.2489
1024.90 0.2488
1025.00 0.2488
1025.10 0.2487
1025.20 0.2486
1025.30 0.2486
1025.40 0.2485
1025.50 0.2485
1025.60 0.2484
1025.70 0.2483
1025.80 0.2483
1025.90 0.2482
1026.00 0.2482
1026.10 0.2481
1026.20 0.248
1026.30 0.248
1026.40 0.2479
1026.50 0.2479
1026.60 0.2478
1026.70 0.2477
1026.80 0.2477
1026.90 0.2476
1027.00 0.2476
1027.10 0.2475
1027.20 0.2474
1027.30 0.2474
1027.40 0.2473
1027.50 0.2473
1027.60 0.2472
1027.70 0.2471
1027.80 0.2471
1027.90 0.247
1028.00 0.247
1028.10 0.2469
1028.20 0.2468
1028.30 0.2468
1028.40 0.2467
1028.50 0.2467
1028.60 0.2466
1028.70 0.2465
1028.80 0.2465
1028.90 0.2464
1029.00 0.2464
1029.10 0.2463
1029.20 0.2462
1029.30 0.2462
1029.40 0.2461
1029.50 0.2461
1029.60 0.246
1029.70 0.2459
1029.80 0.2459
1029.90 0.2458
1030.00 0.2458
1030.10 0.2457
1030.20 0.2456
1030.30 0.2456
1030.40 0.2455
1030.50 0.2455
1030.60 0.2454
1030.70 0.2453
1030.80 0.2453
1030.90 0.2452
1031.00 0.2452
1031.10 0.2451
1031.20 0.245
1031.30 0.245
1031.40 0.2449
1031.50 0.2449
1031.60 0.2448
1031.70 0.2447
1031.80 0.2447
1031.90 0.2446
1032.00 0.2446
1032.10 0.2445
1032.20 0.2444
1032.30 0.2444
1032.40 0.2443
1032.50 0.2443
1032.60 0.2442
1032.70 0.2442
1032.80 0.2441
1032.90 0.244
1033.00 0.244
1033.10 0.2439
1033.20 0.2439
1033.30 0.2438
1033.40 0.2437
1033.50 0.2437
1033.60 0.2436
1033.70 0.2436
1033.80 0.2435
1033.90 0.2434
1034.00 0.2434
1034.10 0.2433
1034.20 0.2433
1034.30 0.2432
1034.40 0.2431
1034.50 0.2431
1034.60 0.243
1034.70 0.243
1034.80 0.2429
1034.90 0.2428
1035.00 0.2428
1035.10 0.2427
1035.20 0.2427
1035.30 0.2426
1035.40 0.2426
1035.50 0.2425
1035.60 0.2424
1035.70 0.2424
1035.80 0.2423
1035.90 0.2423
1036.00 0.2422
1036.10 0.2421
1036.20 0.2421
1036.30 0.242
1036.40 0.242
1036.50 0.2419
1036.60 0.2419
1036.70 0.2418
1036.80 0.2417
1036.90 0.2417
1037.00 0.2416
1037.10 0.2416
1037.20 0.2415
1037.30 0.2414
1037.40 0.2414
1037.50 0.2413
1037.60 0.2413
1037.70 0.2412
1037.80 0.2411
1037.90 0.2411
1038.00 0.241
1038.10 0.241
1038.20 0.2409
1038.30 0.2409
1038.40 0.2408
1038.50 0.2407
1038.60 0.2407
1038.70 0.2406
1038.80 0.2406
1038.90 0.2405
1039.00 0.2404
1039.10 0.2404
1039.20 0.2403
1039.30 0.2403
1039.40 0.2402
1039.50 0.2401
1039.60 0.2401
1039.70 0.24
1039.80 0.24
1039.90 0.2399
1040.00 0.2399
1040.10 0.2398
1040.20 0.2397
1040.30 0.2397
1040.40 0.2396
1040.50 0.2396
1040.60 0.2395
1040.70 0.2394
1040.80 0.2394
1040.90 0.2393
1041.00 0.2393
1041.10 0.2392
1041.20 0.2392
1041.30 0.2391
1041.40 0.239
1041.50 0.239
1041.60 0.2389
1041.70 0.2389
1041.80 0.2388
1041.90 0.2388
1042.00 0.2387
1042.10 0.2386
1042.20 0.2386
1042.30 0.2385
1042.40 0.2385
1042.50 0.2384
1042.60 0.2383
1042.70 0.2383
1042.80 0.2382
1042.90 0.2382
1043.00 0.2381
1043.10 0.2381
1043.20 0.238
1043.30 0.2379
1043.40 0.2379
1043.50 0.2378
1043.60 0.2378
1043.70 0.2377
1043.80 0.2377
1043.90 0.2376
1044.00 0.2375
1044.10 0.2375
1044.20 0.2374
1044.30 0.2374
1044.40 0.2373
1044.50 0.2373
1044.60 0.2372
1044.70 0.2371
1044.80 0.2371
1044.90 0.237
1045.00 0.237
1045.10 0.2369
1045.20 0.2369
1045.30 0.2368
1045.40 0.2367
1045.50 0.2367
1045.60 0.2366
1045.70 0.2366
1045.80 0.2365
1045.90 0.2365
1046.00 0.2364
1046.10 0.2363
1046.20 0.2363
1046.30 0.2362
1046.40 0.2362
1046.50 0.2361
1046.60 0.2361
1046.70 0.236
1046.80 0.2359
1046.90 0.2359
1047.00 0.2358
1047.10 0.2358
1047.20 0.2357
1047.30 0.2357
1047.40 0.2356
1047.50 0.2356
1047.60 0.2355
1047.70 0.2354
1047.80 0.2354
1047.90 0.2353
1048.00 0.2353
1048.10 0.2352
1048.20 0.2352
1048.30 0.2351
1048.40 0.235
1048.50 0.235
1048.60 0.2349
1048.70 0.2349
1048.80 0.2348
1048.90 0.2348
1049.00 0.2347
1049.10 0.2346
1049.20 0.2346
1049.30 0.2345
1049.40 0.2345
1049.50 0.2344
1049.60 0.2344
1049.70 0.2343
1049.80 0.2343
1049.90 0.2342
1050.00 0.2341
1050.10 0.2341
1050.20 0.234
1050.30 0.234
1050.40 0.2339
1050.50 0.2339
1050.60 0.2338
1050.70 0.2337
1050.80 0.2337
1050.90 0.2336
1051.00 0.2336
1051.10 0.2335
1051.20 0.2335
1051.30 0.2334
1051.40 0.2334
1051.50 0.2333
1051.60 0.2332
1051.70 0.2332
1051.80 0.2331
1051.90 0.2331
1052.00 0.233
1052.10 0.233
1052.20 0.2329
1052.30 0.2328
1052.40 0.2328
1052.50 0.2327
1052.60 0.2327
1052.70 0.2326
1052.80 0.2326
1052.90 0.2325
1053.00 0.2325
1053.10 0.2324
1053.20 0.2323
1053.30 0.2323
1053.40 0.2322
1053.50 0.2322
1053.60 0.2321
1053.70 0.2321
1053.80 0.232
1053.90 0.232
1054.00 0.2319
1054.10 0.2318
1054.20 0.2318
1054.30 0.2317
1054.40 0.2317
1054.50 0.2316
1054.60 0.2316
1054.70 0.2315
1054.80 0.2314
1054.90 0.2314
1055.00 0.2313
1055.10 0.2313
1055.20 0.2312
1055.30 0.2312
1055.40 0.2311
1055.50 0.2311
1055.60 0.231
1055.70 0.2309
1055.80 0.2309
1055.90 0.2308
1056.00 0.2308
1056.10 0.2307
1056.20 0.2307
1056.30 0.2306
1056.40 0.2306
1056.50 0.2305
1056.60 0.2304
1056.70 0.2304
1056.80 0.2303
1056.90 0.2303
1057.00 0.2302
1057.10 0.2302
1057.20 0.2301
1057.30 0.2301
1057.40 0.23
1057.50 0.23
1057.60 0.2299
1057.70 0.2298
1057.80 0.2298
1057.90 0.2297
1058.00 0.2297
1058.10 0.2296
1058.20 0.2296
1058.30 0.2295
1058.40 0.2295
1058.50 0.2294
1058.60 0.2293
1058.70 0.2293
1058.80 0.2292
1058.90 0.2292
1059.00 0.2291
1059.10 0.2291
1059.20 0.229
1059.30 0.229
1059.40 0.2289
1059.50 0.2289
1059.60 0.2288
1059.70 0.2287
1059.80 0.2287
1059.90 0.2286
1060.00 0.2286
1060.10 0.2285
1060.20 0.2285
1060.30 0.2284
1060.40 0.2284
1060.50 0.2283
1060.60 0.2283
1060.70 0.2282
1060.80 0.2281
1060.90 0.2281
1061.00 0.228
1061.10 0.228
1061.20 0.2279
1061.30 0.2279
1061.40 0.2278
1061.50 0.2278
1061.60 0.2277
1061.70 0.2277
1061.80 0.2276
1061.90 0.2275
1062.00 0.2275
1062.10 0.2274
1062.20 0.2274
1062.30 0.2273
1062.40 0.2273
1062.50 0.2272
1062.60 0.2272
1062.70 0.2271
1062.80 0.2271
1062.90 0.227
1063.00 0.2269
1063.10 0.2269
1063.20 0.2268
1063.30 0.2268
1063.40 0.2267
1063.50 0.2267
1063.60 0.2266
1063.70 0.2266
1063.80 0.2265
1063.90 0.2265
1064.00 0.2264
1064.10 0.2264
1064.20 0.2263
1064.30 0.2262
1064.40 0.2262
1064.50 0.2261
1064.60 0.2261
1064.70 0.226
1064.80 0.226
1064.90 0.2259
1065.00 0.2259
1065.10 0.2258
1065.20 0.2258
1065.30 0.2257
1065.40 0.2256
1065.50 0.2256
1065.60 0.2255
1065.70 0.2255
1065.80 0.2254
1065.90 0.2254
1066.00 0.2253
1066.10 0.2253
1066.20 0.2252
1066.30 0.2252
1066.40 0.2251
1066.50 0.2251
1066.60 0.225
1066.70 0.2249
1066.80 0.2249
1066.90 0.2248
1067.00 0.2248
1067.10 0.2247
1067.20 0.2247
1067.30 0.2246
1067.40 0.2246
1067.50 0.2245
1067.60 0.2245
1067.70 0.2244
1067.80 0.2244
1067.90 0.2243
1068.00 0.2242
1068.10 0.2242
1068.20 0.2241
1068.30 0.2241
1068.40 0.224
1068.50 0.224
1068.60 0.2239
1068.70 0.2239
1068.80 0.2238
1068.90 0.2238
1069.00 0.2237
1069.10 0.2237
1069.20 0.2236
1069.30 0.2236
1069.40 0.2235
1069.50 0.2234
1069.60 0.2234
1069.70 0.2233
1069.80 0.2233
1069.90 0.2232
1070.00 0.2232
1070.10 0.2231
1070.20 0.2231
1070.30 0.223
1070.40 0.223
1070.50 0.2229
1070.60 0.2229
1070.70 0.2228
1070.80 0.2228
1070.90 0.2227
1071.00 0.2226
1071.10 0.2226
1071.20 0.2225
1071.30 0.2225
1071.40 0.2224
1071.50 0.2224
1071.60 0.2223
1071.70 0.2223
1071.80 0.2222
1071.90 0.2222
1072.00 0.2221
1072.10 0.2221
1072.20 0.222
1072.30 0.222
1072.40 0.2219
1072.50 0.2219
1072.60 0.2218
1072.70 0.2218
1072.80 0.2217
1072.90 0.2216
1073.00 0.2216
1073.10 0.2215
1073.20 0.2215
1073.30 0.2214
1073.40 0.2214
1073.50 0.2213
1073.60 0.2213
1073.70 0.2212
1073.80 0.2212
1073.90 0.2211
1074.00 0.2211
1074.10 0.221
1074.20 0.221
1074.30 0.2209
1074.40 0.2209
1074.50 0.2208
1074.60 0.2208
1074.70 0.2207
1074.80 0.2206
1074.90 0.2206
1075.00 0.2205
1075.10 0.2205
1075.20 0.2204
1075.30 0.2204
1075.40 0.2203
1075.50 0.2203
1075.60 0.2202
1075.70 0.2202
1075.80 0.2201
1075.90 0.2201
1076.00 0.22
1076.10 0.22
1076.20 0.2199
1076.30 0.2199
1076.40 0.2198
1076.50 0.2198
1076.60 0.2197
1076.70 0.2196
1076.80 0.2196
1076.90 0.2195
1077.00 0.2195
1077.10 0.2194
1077.20 0.2194
1077.30 0.2193
1077.40 0.2193
1077.50 0.2192
1077.60 0.2192
1077.70 0.2191
1077.80 0.2191
1077.90 0.219
1078.00 0.219
1078.10 0.2189
1078.20 0.2189
1078.30 0.2188
1078.40 0.2188
1078.50 0.2187
1078.60 0.2186
1078.70 0.2186
1078.80 0.2185
1078.90 0.2185
1079.00 0.2184
1079.10 0.2184
1079.20 0.2183
1079.30 0.2183
1079.40 0.2182
1079.50 0.2182
1079.60 0.2181
1079.70 0.2181
1079.80 0.218
1079.90 0.218
1080.00 0.2179
1080.10 0.2179
1080.20 0.2178
1080.30 0.2178
1080.40 0.2177
1080.50 0.2176
1080.60 0.2176
1080.70 0.2175
1080.80 0.2175
1080.90 0.2174
1081.00 0.2174
1081.10 0.2173
1081.20 0.2173
1081.30 0.2172
1081.40 0.2172
1081.50 0.2171
1081.60 0.2171
1081.70 0.217
1081.80 0.217
1081.90 0.2169
1082.00 0.2168
1082.10 0.2168
1082.20 0.2167
1082.30 0.2167
1082.40 0.2166
1082.50 0.2166
1082.60 0.2165
1082.70 0.2165
1082.80 0.2164
1082.90 0.2164
1083.00 0.2163
1083.10 0.2163
1083.20 0.2162
1083.30 0.2161
1083.40 0.2161
1083.50 0.216
1083.60 0.216
1083.70 0.2159
1083.80 0.2159
1083.90 0.2158
1084.00 0.2158
1084.10 0.2157
1084.20 0.2157
1084.30 0.2156
1084.40 0.2155
1084.50 0.2155
1084.60 0.2154
1084.70 0.2154
1084.80 0.2153
1084.90 0.2152
1085.00 0.2152
1085.10 0.2151
1085.20 0.2151
1085.30 0.215
1085.40 0.215
1085.50 0.2149
1085.60 0.2148
1085.70 0.2148
1085.80 0.2147
1085.90 0.2147
1086.00 0.2146
1086.10 0.2145
1086.20 0.2145
1086.30 0.2144
1086.40 0.2144
1086.50 0.2143
1086.60 0.2142
1086.70 0.2142
1086.80 0.2141
1086.90 0.214
1087.00 0.214
1087.10 0.2139
1087.20 0.2138
1087.30 0.2138
1087.40 0.2137
1087.50 0.2136
1087.60 0.2135
1087.70 0.2135
1087.80 0.2134
1087.90 0.2133
1088.00 0.2132
1088.10 0.2132
1088.20 0.2131
1088.30 0.213
1088.40 0.2129
1088.50 0.2129
1088.60 0.2127
1088.70 0.2126
1088.80 0.2125
1088.90 0.2124
1089.00 0.2122
1089.10 0.2121
1089.20 0.212
1089.30 0.2119
1089.40 0.2118
1089.50 0.2116
1089.60 0.2115
1089.70 0.2114
1089.80 0.2113
1089.90 0.2112
1090.00 0.211
1090.10 0.2109
1090.20 0.2108
1090.30 0.2107
1090.40 0.2106
1090.50 0.2104
1090.60 0.2101
1090.70 0.2097
1090.80 0.2094
1090.90 0.2091
1091.00 0.2088
1091.10 0.2085
1091.20 0.2082
1091.30 0.2079
1091.40 0.2076
1091.50 0.2072
1091.60 0.2069
1091.70 0.2066
1091.80 0.2063
1091.90 0.206
1092.00 0.2056
1092.10 0.2048
1092.20 0.204
1092.30 0.2032
1092.40 0.2024
1092.50 0.2016
1092.60 0.2008
1092.70 0.1998
1092.80 0.1982
1092.90 0.1966
1093.00 0.1951
1093.10 0.193
1093.20 0.1898
1093.30 0.1865
1093.40 0.1816
1093.50 0.1805
1093.60 0.1846
1093.70 0.1885
1093.80 0.1916
1093.90 0.1941
1094.00 0.1956
1094.10 0.197
1094.20 0.1985
1094.30 0.1997
1094.40 0.2004
1094.50 0.2011
1094.60 0.2018
1094.70 0.2025
1094.80 0.2032
1094.90 0.2038
1095.00 0.2044
1095.10 0.2046
1095.20 0.2048
1095.30 0.205
1095.40 0.2052
1095.50 0.2054
1095.60 0.2057
1095.70 0.2059
1095.80 0.2061
1095.90 0.2063
1096.00 0.2065
1096.10 0.2067
1096.20 0.2069
1096.30 0.2072
1096.40 0.2074
1096.50 0.2075
1096.60 0.2076
1096.70 0.2076
1096.80 0.2077
1096.90 0.2078
1097.00 0.2078
1097.10 0.2078
1097.20 0.2078
1097.30 0.2078
1097.40 0.2078
1097.50 0.2079
1097.60 0.2079
1097.70 0.2079
1097.80 0.2079
1097.90 0.2079
1098.00 0.2079
1098.10 0.2079
1098.20 0.2079
1098.30 0.2079
1098.40 0.2079
1098.50 0.2079
1098.60 0.2079
1098.70 0.2079
1098.80 0.2078
1098.90 0.2078
1099.00 0.2078
1099.10 0.2078
1099.20 0.2077
1099.30 0.2077
1099.40 0.2077
1099.50 0.2077
1099.60 0.2076
1099.70 0.2076
1099.80 0.2076
1099.90 0.2075
1100.00 0.2075
1100.10 0.2075
1100.20 0.2075
1100.30 0.2074
1100.40 0.2074
1100.50 0.2074
1100.60 0.2073
1100.70 0.2073
1100.80 0.2073
1100.90 0.2072
1101.00 0.2072
1101.10 0.2071
1101.20 0.2071
1101.30 0.2071
1101.40 0.207
1101.50 0.207
1101.60 0.2069
1101.70 0.2069
1101.80 0.2069
1101.90 0.2068
1102.00 0.2068
1102.10 0.2067
1102.20 0.2067
1102.30 0.2067
1102.40 0.2066
1102.50 0.2066
1102.60 0.2065
1102.70 0.2065
1102.80 0.2064
1102.90 0.2064
1103.00 0.2064
1103.10 0.2063
1103.20 0.2063
1103.30 0.2062
1103.40 0.2062
1103.50 0.2061
1103.60 0.2061
1103.70 0.206
1103.80 0.206
1103.90 0.206
1104.00 0.2059
1104.10 0.2059
1104.20 0.2058
1104.30 0.2058
1104.40 0.2057
1104.50 0.2057
1104.60 0.2056
1104.70 0.2056
1104.80 0.2055
1104.90 0.2055
1105.00 0.2055
1105.10 0.2054
1105.20 0.2054
1105.30 0.2053
1105.40 0.2053
1105.50 0.2052
1105.60 0.2052
1105.70 0.2051
1105.80 0.2051
1105.90 0.205
1106.00 0.205
1106.10 0.205
1106.20 0.2049
1106.30 0.2049
1106.40 0.2048
1106.50 0.2048
1106.60 0.2047
1106.70 0.2047
1106.80 0.2046
1106.90 0.2046
1107.00 0.2045
1107.10 0.2045
1107.20 0.2045
1107.30 0.2044
1107.40 0.2044
1107.50 0.2043
1107.60 0.2043
1107.70 0.2042
1107.80 0.2042
1107.90 0.2041
1108.00 0.2041
1108.10 0.204
1108.20 0.204
1108.30 0.2039
1108.40 0.2039
1108.50 0.2038
1108.60 0.2038
1108.70 0.2037
1108.80 0.2037
1108.90 0.2037
1109.00 0.2036
1109.10 0.2036
1109.20 0.2035
1109.30 0.2035
1109.40 0.2034
1109.50 0.2034
1109.60 0.2033
1109.70 0.2033
1109.80 0.2032
1109.90 0.2032
1110.00 0.2031
1110.10 0.2031
1110.20 0.2031
1110.30 0.203
1110.40 0.203
1110.50 0.2029
1110.60 0.2029
1110.70 0.2028
1110.80 0.2028
1110.90 0.2027
1111.00 0.2027
1111.10 0.2026
1111.20 0.2026
1111.30 0.2025
1111.40 0.2025
1111.50 0.2025
1111.60 0.2024
1111.70 0.2024
1111.80 0.2023
1111.90 0.2023
1112.00 0.2022
1112.10 0.2022
1112.20 0.2021
1112.30 0.2021
1112.40 0.202
1112.50 0.202
1112.60 0.2019
1112.70 0.2019
1112.80 0.2019
1112.90 0.2018
1113.00 0.2018
1113.10 0.2017
1113.20 0.2017
1113.30 0.2016
1113.40 0.2016
1113.50 0.2015
1113.60 0.2015
1113.70 0.2014
1113.80 0.2014
1113.90 0.2013
1114.00 0.2013
1114.10 0.2012
1114.20 0.2012
1114.30 0.2012
1114.40 0.2011
1114.50 0.2011
1114.60 0.201
1114.70 0.201
1114.80 0.2009
1114.90 0.2009
1115.00 0.2008
1115.10 0.2008
1115.20 0.2007
1115.30 0.2007
1115.40 0.2006
1115.50 0.2006
1115.60 0.2006
1115.70 0.2005
1115.80 0.2005
1115.90 0.2004
1116.00 0.2004
1116.10 0.2003
1116.20 0.2003
1116.30 0.2002
1116.40 0.2002
1116.50 0.2001
1116.60 0.2001
1116.70 0.2
1116.80 0.2
1116.90 0.1999
1117.00 0.1999
1117.10 0.1999
1117.20 0.1998
1117.30 0.1998
1117.40 0.1997
1117.50 0.1997
1117.60 0.1996
1117.70 0.1996
1117.80 0.1995
1117.90 0.1995
1118.00 0.1994
1118.10 0.1994
1118.20 0.1994
1118.30 0.1993
1118.40 0.1993
1118.50 0.1992
1118.60 0.1992
1118.70 0.1991
1118.80 0.1991
1118.90 0.199
1119.00 0.199
1119.10 0.1989
1119.20 0.1989
1119.30 0.1988
1119.40 0.1988
1119.50 0.1988
1119.60 0.1987
1119.70 0.1987
1119.80 0.1986
1119.90 0.1986
1120.00 0.1985
1120.10 0.1985
1120.20 0.1984
1120.30 0.1984
1120.40 0.1983
1120.50 0.1983
1120.60 0.1983
1120.70 0.1982
1120.80 0.1982
1120.90 0.1981
1121.00 0.1981
1121.10 0.198
1121.20 0.198
1121.30 0.1979
1121.40 0.1979
1121.50 0.1978
1121.60 0.1978
1121.70 0.1978
1121.80 0.1977
1121.90 0.1977
1122.00 0.1976
1122.10 0.1976
1122.20 0.1975
1122.30 0.1975
1122.40 0.1974
1122.50 0.1974
1122.60 0.1973
1122.70 0.1973
1122.80 0.1973
1122.90 0.1972
1123.00 0.1972
1123.10 0.1971
1123.20 0.1971
1123.30 0.197
1123.40 0.197
1123.50 0.1969
1123.60 0.1969
1123.70 0.1968
1123.80 0.1968
1123.90 0.1968
1124.00 0.1967
1124.10 0.1967
1124.20 0.1966
1124.30 0.1966
1124.40 0.1965
1124.50 0.1965
1124.60 0.1964
1124.70 0.1964
1124.80 0.1963
1124.90 0.1963
1125.00 0.1963
1125.10 0.1962
1125.20 0.1962
1125.30 0.1961
1125.40 0.1961
1125.50 0.196
1125.60 0.196
1125.70 0.1959
1125.80 0.1959
1125.90 0.1959
1126.00 0.1958
1126.10 0.1958
1126.20 0.1957
1126.30 0.1957
1126.40 0.1956
1126.50 0.1956
1126.60 0.1955
1126.70 0.1955
1126.80 0.1954
1126.90 0.1954
1127.00 0.1954
1127.10 0.1953
1127.20 0.1953
1127.30 0.1952
1127.40 0.1952
1127.50 0.1951
1127.60 0.1951
1127.70 0.195
1127.80 0.195
1127.90 0.195
1128.00 0.1949
1128.10 0.1949
1128.20 0.1948
1128.30 0.1948
1128.40 0.1947
1128.50 0.1947
1128.60 0.1946
1128.70 0.1946
1128.80 0.1946
1128.90 0.1945
1129.00 0.1945
1129.10 0.1944
1129.20 0.1944
1129.30 0.1943
1129.40 0.1943
1129.50 0.1942
1129.60 0.1942
1129.70 0.1942
1129.80 0.1941
1129.90 0.1941
1130.00 0.194
1130.10 0.194
1130.20 0.1939
1130.30 0.1939
1130.40 0.1938
1130.50 0.1938
1130.60 0.1938
1130.70 0.1937
1130.80 0.1937
1130.90 0.1936
1131.00 0.1936
1131.10 0.1935
1131.20 0.1935
1131.30 0.1934
1131.40 0.1934
1131.50 0.1934
1131.60 0.1933
1131.70 0.1933
1131.80 0.1932
1131.90 0.1932
1132.00 0.1931
1132.10 0.1931
1132.20 0.193
1132.30 0.193
1132.40 0.193
1132.50 0.1929
1132.60 0.1929
1132.70 0.1928
1132.80 0.1928
1132.90 0.1927
1133.00 0.1927
1133.10 0.1927
1133.20 0.1926
1133.30 0.1926
1133.40 0.1925
1133.50 0.1925
1133.60 0.1924
1133.70 0.1924
1133.80 0.1923
1133.90 0.1923
1134.00 0.1923
1134.10 0.1922
1134.20 0.1922
1134.30 0.1921
1134.40 0.1921
1134.50 0.192
1134.60 0.192
1134.70 0.1919
1134.80 0.1919
1134.90 0.1919
1135.00 0.1918
1135.10 0.1918
1135.20 0.1917
1135.30 0.1917
1135.40 0.1916
1135.50 0.1916
1135.60 0.1916
1135.70 0.1915
1135.80 0.1915
1135.90 0.1914
1136.00 0.1914
1136.10 0.1913
1136.20 0.1913
1136.30 0.1913
1136.40 0.1912
1136.50 0.1912
1136.60 0.1911
1136.70 0.1911
1136.80 0.191
1136.90 0.191
1137.00 0.1909
1137.10 0.1909
1137.20 0.1909
1137.30 0.1908
1137.40 0.1908
1137.50 0.1907
1137.60 0.1907
1137.70 0.1906
1137.80 0.1906
1137.90 0.1906
1138.00 0.1905
1138.10 0.1905
1138.20 0.1904
1138.30 0.1904
1138.40 0.1903
1138.50 0.1903
1138.60 0.1903
1138.70 0.1902
1138.80 0.1902
1138.90 0.1901
1139.00 0.1901
1139.10 0.19
1139.20 0.19
1139.30 0.1899
1139.40 0.1899
1139.50 0.1899
1139.60 0.1898
1139.70 0.1898
1139.80 0.1897
1139.90 0.1897
1140.00 0.1896
1140.10 0.1896
1140.20 0.1896
1140.30 0.1895
1140.40 0.1895
1140.50 0.1894
1140.60 0.1894
1140.70 0.1893
1140.80 0.1893
1140.90 0.1893
1141.00 0.1892
1141.10 0.1892
1141.20 0.1891
1141.30 0.1891
1141.40 0.189
1141.50 0.189
1141.60 0.189
1141.70 0.1889
1141.80 0.1889
1141.90 0.1888
1142.00 0.1888
1142.10 0.1887
1142.20 0.1887
1142.30 0.1887
1142.40 0.1886
1142.50 0.1886
1142.60 0.1885
1142.70 0.1885
1142.80 0.1884
1142.90 0.1884
1143.00 0.1884
1143.10 0.1883
1143.20 0.1883
1143.30 0.1882
1143.40 0.1882
1143.50 0.1881
1143.60 0.1881
1143.70 0.1881
1143.80 0.188
1143.90 0.188
1144.00 0.1879
1144.10 0.1879
1144.20 0.1878
1144.30 0.1878
1144.40 0.1878
1144.50 0.1877
1144.60 0.1877
1144.70 0.1876
1144.80 0.1876
1144.90 0.1875
1145.00 0.1875
1145.10 0.1875
1145.20 0.1874
1145.30 0.1874
1145.40 0.1873
1145.50 0.1873
1145.60 0.1872
1145.70 0.1872
1145.80 0.1872
1145.90 0.1871
1146.00 0.1871
1146.10 0.187
1146.20 0.187
1146.30 0.187
1146.40 0.1869
1146.50 0.1869
1146.60 0.1868
1146.70 0.1868
1146.80 0.1867
1146.90 0.1867
1147.00 0.1867
1147.10 0.1866
1147.20 0.1866
1147.30 0.1865
1147.40 0.1865
1147.50 0.1864
1147.60 0.1864
1147.70 0.1864
1147.80 0.1863
1147.90 0.1863
1148.00 0.1862
1148.10 0.1862
1148.20 0.1861
1148.30 0.1861
1148.40 0.1861
1148.50 0.186
1148.60 0.186
1148.70 0.1859
1148.80 0.1859
1148.90 0.1859
1149.00 0.1858
1149.10 0.1858
1149.20 0.1857
1149.30 0.1857
1149.40 0.1856
1149.50 0.1856
1149.60 0.1856
1149.70 0.1855
1149.80 0.1855
1149.90 0.1854
1150.00 0.1854
1150.10 0.1853
1150.20 0.1853
1150.30 0.1853
1150.40 0.1852
1150.50 0.1852
1150.60 0.1851
1150.70 0.1851
1150.80 0.1851
1150.90 0.185
1151.00 0.185
1151.10 0.1849
1151.20 0.1849
1151.30 0.1848
1151.40 0.1848
1151.50 0.1848
1151.60 0.1847
1151.70 0.1847
1151.80 0.1846
1151.90 0.1846
1152.00 0.1846
1152.10 0.1845
1152.20 0.1845
1152.30 0.1844
1152.40 0.1844
1152.50 0.1843
1152.60 0.1843
1152.70 0.1843
1152.80 0.1842
1152.90 0.1842
1153.00 0.1841
1153.10 0.1841
1153.20 0.1841
1153.30 0.184
1153.40 0.184
1153.50 0.1839
1153.60 0.1839
1153.70 0.1838
1153.80 0.1838
1153.90 0.1838
1154.00 0.1837
1154.10 0.1837
1154.20 0.1836
1154.30 0.1836
1154.40 0.1836
1154.50 0.1835
1154.60 0.1835
1154.70 0.1834
1154.80 0.1834
1154.90 0.1833
1155.00 0.1833
1155.10 0.1833
1155.20 0.1832
1155.30 0.1832
1155.40 0.1831
1155.50 0.1831
1155.60 0.1831
1155.70 0.183
1155.80 0.183
1155.90 0.1829
1156.00 0.1829
1156.10 0.1829
1156.20 0.1828
1156.30 0.1828
1156.40 0.1827
1156.50 0.1827
1156.60 0.1826
1156.70 0.1826
1156.80 0.1826
1156.90 0.1825
1157.00 0.1825
1157.10 0.1824
1157.20 0.1824
1157.30 0.1824
1157.40 0.1823
1157.50 0.1823
1157.60 0.1822
1157.70 0.1822
1157.80 0.1822
1157.90 0.1821
1158.00 0.1821
1158.10 0.182
1158.20 0.182
1158.30 0.182
1158.40 0.1819
1158.50 0.1819
1158.60 0.1818
1158.70 0.1818
1158.80 0.1818
1158.90 0.1817
1159.00 0.1817
1159.10 0.1816
1159.20 0.1816
1159.30 0.1815
1159.40 0.1815
1159.50 0.1815
1159.60 0.1814
1159.70 0.1814
1159.80 0.1813
1159.90 0.1813
1160.00 0.1813
1160.10 0.1812
1160.20 0.1812
1160.30 0.1811
1160.40 0.1811
1160.50 0.1811
1160.60 0.181
1160.70 0.181
1160.80 0.1809
1160.90 0.1809
1161.00 0.1809
1161.10 0.1808
1161.20 0.1808
1161.30 0.1807
1161.40 0.1807
1161.50 0.1807
1161.60 0.1806
1161.70 0.1806
1161.80 0.1805
1161.90 0.1805
1162.00 0.1805
1162.10 0.1804
1162.20 0.1804
1162.30 0.1803
1162.40 0.1803
1162.50 0.1803
1162.60 0.1802
1162.70 0.1802
1162.80 0.1801
1162.90 0.1801
1163.00 0.1801
1163.10 0.18
1163.20 0.18
1163.30 0.1799
1163.40 0.1799
1163.50 0.1798
1163.60 0.1798
1163.70 0.1798
1163.80 0.1797
1163.90 0.1797
1164.00 0.1796
1164.10 0.1796
1164.20 0.1796
1164.30 0.1795
1164.40 0.1795
1164.50 0.1794
1164.60 0.1794
1164.70 0.1794
1164.80 0.1793
1164.90 0.1793
1165.00 0.1792
1165.10 0.1792
1165.20 0.1792
1165.30 0.1791
1165.40 0.1791
1165.50 0.179
1165.60 0.179
1165.70 0.179
1165.80 0.1789
1165.90 0.1789
1166.00 0.1788
1166.10 0.1788
1166.20 0.1788
1166.30 0.1787
1166.40 0.1787
1166.50 0.1786
1166.60 0.1786
1166.70 0.1786
1166.80 0.1785
1166.90 0.1785
1167.00 0.1784
1167.10 0.1784
1167.20 0.1784
1167.30 0.1783
1167.40 0.1783
1167.50 0.1782
1167.60 0.1782
1167.70 0.1782
1167.80 0.1781
1167.90 0.1781
1168.00 0.178
1168.10 0.178
1168.20 0.178
1168.30 0.1779
1168.40 0.1779
1168.50 0.1778
1168.60 0.1778
1168.70 0.1778
1168.80 0.1777
1168.90 0.1777
1169.00 0.1776
1169.10 0.1776
1169.20 0.1776
1169.30 0.1775
1169.40 0.1775
1169.50 0.1774
1169.60 0.1774
1169.70 0.1774
1169.80 0.1773
1169.90 0.1773
1170.00 0.1772
1170.10 0.1772
1170.20 0.1772
1170.30 0.1771
1170.40 0.1771
1170.50 0.177
1170.60 0.177
1170.70 0.177
1170.80 0.1769
1170.90 0.1769
1171.00 0.1768
1171.10 0.1768
1171.20 0.1768
1171.30 0.1767
1171.40 0.1767
1171.50 0.1767
1171.60 0.1766
1171.70 0.1766
1171.80 0.1765
1171.90 0.1765
1172.00 0.1765
1172.10 0.1764
1172.20 0.1764
1172.30 0.1763
1172.40 0.1763
1172.50 0.1763
1172.60 0.1762
1172.70 0.1762
1172.80 0.1761
1172.90 0.1761
1173.00 0.1761
1173.10 0.176
1173.20 0.176
1173.30 0.1759
1173.40 0.1759
1173.50 0.1759
1173.60 0.1758
1173.70 0.1758
1173.80 0.1758
1173.90 0.1757
1174.00 0.1757
1174.10 0.1756
1174.20 0.1756
1174.30 0.1756
1174.40 0.1755
1174.50 0.1755
1174.60 0.1754
1174.70 0.1754
1174.80 0.1754
1174.90 0.1753
1175.00 0.1753
1175.10 0.1752
1175.20 0.1752
1175.30 0.1752
1175.40 0.1751
1175.50 0.1751
1175.60 0.1751
1175.70 0.175
1175.80 0.175
1175.90 0.1749
1176.00 0.1749
1176.10 0.1749
1176.20 0.1748
1176.30 0.1748
1176.40 0.1747
1176.50 0.1747
1176.60 0.1747
1176.70 0.1746
1176.80 0.1746
1176.90 0.1745
1177.00 0.1745
1177.10 0.1745
1177.20 0.1744
1177.30 0.1744
1177.40 0.1744
1177.50 0.1743
1177.60 0.1743
1177.70 0.1742
1177.80 0.1742
1177.90 0.1742
1178.00 0.1741
1178.10 0.1741
1178.20 0.174
1178.30 0.174
1178.40 0.174
1178.50 0.1739
1178.60 0.1739
1178.70 0.1738
1178.80 0.1738
1178.90 0.1738
1179.00 0.1737
1179.10 0.1737
1179.20 0.1737
1179.30 0.1736
1179.40 0.1736
1179.50 0.1735
1179.60 0.1735
1179.70 0.1735
1179.80 0.1734
1179.90 0.1734
1180.00 0.1733
1180.10 0.1733
1180.20 0.1733
1180.30 0.1732
1180.40 0.1732
1180.50 0.1732
1180.60 0.1731
1180.70 0.1731
1180.80 0.173
1180.90 0.173
1181.00 0.173
1181.10 0.1729
1181.20 0.1729
1181.30 0.1728
1181.40 0.1728
1181.50 0.1728
1181.60 0.1727
1181.70 0.1727
1181.80 0.1727
1181.90 0.1726
1182.00 0.1726
1182.10 0.1725
1182.20 0.1725
1182.30 0.1725
1182.40 0.1724
1182.50 0.1724
1182.60 0.1723
1182.70 0.1723
1182.80 0.1723
1182.90 0.1722
1183.00 0.1722
1183.10 0.1722
1183.20 0.1721
1183.30 0.1721
1183.40 0.172
1183.50 0.172
1183.60 0.172
1183.70 0.1719
1183.80 0.1719
1183.90 0.1719
1184.00 0.1718
1184.10 0.1718
1184.20 0.1717
1184.30 0.1717
1184.40 0.1717
1184.50 0.1716
1184.60 0.1716
1184.70 0.1716
1184.80 0.1715
1184.90 0.1715
1185.00 0.1714
1185.10 0.1714
1185.20 0.1714
1185.30 0.1713
1185.40 0.1713
1185.50 0.1713
1185.60 0.1712
1185.70 0.1712
1185.80 0.1711
1185.90 0.1711
1186.00 0.1711
1186.10 0.171
1186.20 0.171
1186.30 0.1709
1186.40 0.1709
1186.50 0.1709
1186.60 0.1708
1186.70 0.1708
1186.80 0.1708
1186.90 0.1707
1187.00 0.1707
1187.10 0.1706
1187.20 0.1706
1187.30 0.1706
1187.40 0.1705
1187.50 0.1705
1187.60 0.1705
1187.70 0.1704
1187.80 0.1704
1187.90 0.1703
1188.00 0.1703
1188.10 0.1703
1188.20 0.1702
1188.30 0.1702
1188.40 0.1702
1188.50 0.1701
1188.60 0.1701
1188.70 0.17
1188.80 0.17
1188.90 0.17
1189.00 0.1699
1189.10 0.1699
1189.20 0.1699
1189.30 0.1698
1189.40 0.1698
1189.50 0.1697
1189.60 0.1697
1189.70 0.1697
1189.80 0.1696
1189.90 0.1696
1190.00 0.1696
1190.10 0.1695
1190.20 0.1695
1190.30 0.1694
1190.40 0.1694
1190.50 0.1694
1190.60 0.1693
1190.70 0.1693
1190.80 0.1693
1190.90 0.1692
1191.00 0.1692
1191.10 0.1691
1191.20 0.1691
1191.30 0.1691
1191.40 0.169
1191.50 0.169
1191.60 0.169
1191.70 0.1689
1191.80 0.1689
1191.90 0.1688
1192.00 0.1688
1192.10 0.1688
1192.20 0.1687
1192.30 0.1687
1192.40 0.1687
1192.50 0.1686
1192.60 0.1686
1192.70 0.1685
1192.80 0.1685
1192.90 0.1685
1193.00 0.1684
1193.10 0.1684
1193.20 0.1684
1193.30 0.1683
1193.40 0.1683
1193.50 0.1682
1193.60 0.1682
1193.70 0.1682
1193.80 0.1681
1193.90 0.1681
1194.00 0.1681
1194.10 0.168
1194.20 0.168
1194.30 0.168
1194.40 0.1679
1194.50 0.1679
1194.60 0.1678
1194.70 0.1678
1194.80 0.1678
1194.90 0.1677
1195.00 0.1677
1195.10 0.1677
1195.20 0.1676
1195.30 0.1676
1195.40 0.1675
1195.50 0.1675
1195.60 0.1675
1195.70 0.1674
1195.80 0.1674
1195.90 0.1674
1196.00 0.1673
1196.10 0.1673
1196.20 0.1673
1196.30 0.1672
1196.40 0.1672
1196.50 0.1671
1196.60 0.1671
1196.70 0.1671
1196.80 0.167
1196.90 0.167
1197.00 0.167
1197.10 0.1669
1197.20 0.1669
1197.30 0.1669
1197.40 0.1668
1197.50 0.1668
1197.60 0.1667
1197.70 0.1667
1197.80 0.1667
1197.90 0.1666
1198.00 0.1666
1198.10 0.1666
1198.20 0.1665
1198.30 0.1665
1198.40 0.1665
1198.50 0.1664
1198.60 0.1664
1198.70 0.1663
1198.80 0.1663
1198.90 0.1663
1199.00 0.1662
1199.10 0.1662
1199.20 0.1662
1199.30 0.1661
1199.40 0.1661
1199.50 0.1661
1199.60 0.166
1199.70 0.166
1199.80 0.1659
1199.90 0.1659
1200.00 0
