# Version 2.1 - nm, norm@500 to 1, cut digits, bergeron_12000_65.dat_12000
# Wavelength(nm)  Flambda(ergs/cm^s/s/nm)
300.00 1.46
300.10 1.459
300.20 1.459
300.30 1.458
300.40 1.457
300.50 1.456
300.60 1.455
300.70 1.454
300.80 1.453
300.90 1.453
301.00 1.452
301.10 1.451
301.20 1.45
301.30 1.449
301.40 1.448
301.50 1.447
301.60 1.447
301.70 1.446
301.80 1.445
301.90 1.444
302.00 1.443
302.10 1.442
302.20 1.442
302.30 1.441
302.40 1.44
302.50 1.439
302.60 1.438
302.70 1.437
302.80 1.436
302.90 1.436
303.00 1.435
303.10 1.434
303.20 1.433
303.30 1.432
303.40 1.431
303.50 1.431
303.60 1.43
303.70 1.429
303.80 1.428
303.90 1.427
304.00 1.426
304.10 1.426
304.20 1.425
304.30 1.424
304.40 1.423
304.50 1.422
304.60 1.421
304.70 1.421
304.80 1.42
304.90 1.419
305.00 1.418
305.10 1.417
305.20 1.417
305.30 1.416
305.40 1.415
305.50 1.414
305.60 1.413
305.70 1.412
305.80 1.412
305.90 1.411
306.00 1.41
306.10 1.409
306.20 1.408
306.30 1.408
306.40 1.407
306.50 1.406
306.60 1.405
306.70 1.404
306.80 1.403
306.90 1.403
307.00 1.402
307.10 1.401
307.20 1.4
307.30 1.399
307.40 1.399
307.50 1.398
307.60 1.397
307.70 1.396
307.80 1.395
307.90 1.395
308.00 1.394
308.10 1.393
308.20 1.392
308.30 1.391
308.40 1.39
308.50 1.39
308.60 1.389
308.70 1.388
308.80 1.387
308.90 1.386
309.00 1.386
309.10 1.385
309.20 1.384
309.30 1.383
309.40 1.383
309.50 1.382
309.60 1.381
309.70 1.38
309.80 1.379
309.90 1.379
310.00 1.378
310.10 1.377
310.20 1.376
310.30 1.375
310.40 1.375
310.50 1.374
310.60 1.373
310.70 1.372
310.80 1.371
310.90 1.371
311.00 1.37
311.10 1.369
311.20 1.368
311.30 1.368
311.40 1.367
311.50 1.366
311.60 1.365
311.70 1.364
311.80 1.364
311.90 1.363
312.00 1.362
312.10 1.361
312.20 1.361
312.30 1.36
312.40 1.359
312.50 1.358
312.60 1.357
312.70 1.357
312.80 1.356
312.90 1.355
313.00 1.354
313.10 1.354
313.20 1.353
313.30 1.352
313.40 1.351
313.50 1.35
313.60 1.35
313.70 1.349
313.80 1.348
313.90 1.347
314.00 1.347
314.10 1.346
314.20 1.345
314.30 1.344
314.40 1.344
314.50 1.343
314.60 1.342
314.70 1.341
314.80 1.341
314.90 1.34
315.00 1.339
315.10 1.338
315.20 1.337
315.30 1.337
315.40 1.336
315.50 1.335
315.60 1.334
315.70 1.334
315.80 1.333
315.90 1.332
316.00 1.331
316.10 1.331
316.20 1.33
316.30 1.329
316.40 1.328
316.50 1.328
316.60 1.327
316.70 1.326
316.80 1.325
316.90 1.325
317.00 1.324
317.10 1.323
317.20 1.322
317.30 1.322
317.40 1.321
317.50 1.32
317.60 1.319
317.70 1.319
317.80 1.318
317.90 1.317
318.00 1.316
318.10 1.316
318.20 1.315
318.30 1.314
318.40 1.314
318.50 1.313
318.60 1.312
318.70 1.311
318.80 1.311
318.90 1.31
319.00 1.309
319.10 1.308
319.20 1.308
319.30 1.307
319.40 1.306
319.50 1.305
319.60 1.305
319.70 1.304
319.80 1.303
319.90 1.303
320.00 1.302
320.10 1.301
320.20 1.3
320.30 1.3
320.40 1.299
320.50 1.298
320.60 1.297
320.70 1.297
320.80 1.296
320.90 1.295
321.00 1.295
321.10 1.294
321.20 1.293
321.30 1.292
321.40 1.292
321.50 1.291
321.60 1.29
321.70 1.289
321.80 1.289
321.90 1.288
322.00 1.287
322.10 1.287
322.20 1.286
322.30 1.285
322.40 1.284
322.50 1.284
322.60 1.283
322.70 1.282
322.80 1.282
322.90 1.281
323.00 1.28
323.10 1.279
323.20 1.279
323.30 1.278
323.40 1.277
323.50 1.277
323.60 1.276
323.70 1.275
323.80 1.274
323.90 1.274
324.00 1.273
324.10 1.272
324.20 1.272
324.30 1.271
324.40 1.27
324.50 1.269
324.60 1.269
324.70 1.268
324.80 1.267
324.90 1.267
325.00 1.266
325.10 1.265
325.20 1.265
325.30 1.264
325.40 1.263
325.50 1.262
325.60 1.262
325.70 1.261
325.80 1.26
325.90 1.26
326.00 1.259
326.10 1.258
326.20 1.258
326.30 1.257
326.40 1.256
326.50 1.256
326.60 1.255
326.70 1.254
326.80 1.253
326.90 1.253
327.00 1.252
327.10 1.251
327.20 1.251
327.30 1.25
327.40 1.249
327.50 1.249
327.60 1.248
327.70 1.247
327.80 1.247
327.90 1.246
328.00 1.245
328.10 1.244
328.20 1.244
328.30 1.243
328.40 1.242
328.50 1.242
328.60 1.241
328.70 1.24
328.80 1.24
328.90 1.239
329.00 1.238
329.10 1.238
329.20 1.237
329.30 1.236
329.40 1.236
329.50 1.235
329.60 1.234
329.70 1.234
329.80 1.233
329.90 1.232
330.00 1.232
330.10 1.231
330.20 1.23
330.30 1.229
330.40 1.229
330.50 1.228
330.60 1.227
330.70 1.227
330.80 1.226
330.90 1.225
331.00 1.225
331.10 1.224
331.20 1.223
331.30 1.223
331.40 1.222
331.50 1.221
331.60 1.221
331.70 1.22
331.80 1.219
331.90 1.219
332.00 1.218
332.10 1.217
332.20 1.217
332.30 1.216
332.40 1.215
332.50 1.215
332.60 1.214
332.70 1.213
332.80 1.213
332.90 1.212
333.00 1.211
333.10 1.211
333.20 1.21
333.30 1.209
333.40 1.209
333.50 1.208
333.60 1.208
333.70 1.207
333.80 1.206
333.90 1.206
334.00 1.205
334.10 1.204
334.20 1.204
334.30 1.203
334.40 1.202
334.50 1.202
334.60 1.201
334.70 1.2
334.80 1.2
334.90 1.199
335.00 1.198
335.10 1.198
335.20 1.197
335.30 1.196
335.40 1.196
335.50 1.195
335.60 1.194
335.70 1.194
335.80 1.193
335.90 1.193
336.00 1.192
336.10 1.191
336.20 1.191
336.30 1.19
336.40 1.189
336.50 1.189
336.60 1.188
336.70 1.187
336.80 1.187
336.90 1.186
337.00 1.185
337.10 1.185
337.20 1.184
337.30 1.184
337.40 1.183
337.50 1.182
337.60 1.182
337.70 1.181
337.80 1.18
337.90 1.18
338.00 1.179
338.10 1.178
338.20 1.178
338.30 1.177
338.40 1.177
338.50 1.176
338.60 1.175
338.70 1.175
338.80 1.174
338.90 1.173
339.00 1.173
339.10 1.172
339.20 1.171
339.30 1.171
339.40 1.17
339.50 1.17
339.60 1.169
339.70 1.168
339.80 1.168
339.90 1.167
340.00 1.166
340.10 1.166
340.20 1.165
340.30 1.165
340.40 1.164
340.50 1.163
340.60 1.163
340.70 1.162
340.80 1.161
340.90 1.161
341.00 1.16
341.10 1.16
341.20 1.159
341.30 1.158
341.40 1.158
341.50 1.157
341.60 1.156
341.70 1.156
341.80 1.155
341.90 1.155
342.00 1.154
342.10 1.153
342.20 1.153
342.30 1.152
342.40 1.151
342.50 1.151
342.60 1.15
342.70 1.15
342.80 1.149
342.90 1.148
343.00 1.148
343.10 1.147
343.20 1.147
343.30 1.146
343.40 1.145
343.50 1.145
343.60 1.144
343.70 1.143
343.80 1.143
343.90 1.142
344.00 1.142
344.10 1.141
344.20 1.14
344.30 1.14
344.40 1.139
344.50 1.139
344.60 1.138
344.70 1.137
344.80 1.137
344.90 1.136
345.00 1.136
345.10 1.135
345.20 1.134
345.30 1.134
345.40 1.133
345.50 1.133
345.60 1.132
345.70 1.131
345.80 1.131
345.90 1.13
346.00 1.13
346.10 1.129
346.20 1.128
346.30 1.128
346.40 1.127
346.50 1.127
346.60 1.126
346.70 1.125
346.80 1.125
346.90 1.124
347.00 1.124
347.10 1.123
347.20 1.122
347.30 1.122
347.40 1.121
347.50 1.121
347.60 1.12
347.70 1.119
347.80 1.119
347.90 1.118
348.00 1.118
348.10 1.117
348.20 1.116
348.30 1.116
348.40 1.115
348.50 1.115
348.60 1.114
348.70 1.113
348.80 1.113
348.90 1.112
349.00 1.112
349.10 1.111
349.20 1.11
349.30 1.11
349.40 1.109
349.50 1.109
349.60 1.108
349.70 1.108
349.80 1.107
349.90 1.106
350.00 1.106
350.10 1.105
350.20 1.105
350.30 1.104
350.40 1.103
350.50 1.103
350.60 1.102
350.70 1.102
350.80 1.101
350.90 1.101
351.00 1.1
351.10 1.099
351.20 1.099
351.30 1.098
351.40 1.098
351.50 1.097
351.60 1.097
351.70 1.096
351.80 1.095
351.90 1.095
352.00 1.094
352.10 1.094
352.20 1.093
352.30 1.092
352.40 1.092
352.50 1.091
352.60 1.091
352.70 1.09
352.80 1.09
352.90 1.089
353.00 1.088
353.10 1.088
353.20 1.087
353.30 1.087
353.40 1.086
353.50 1.086
353.60 1.085
353.70 1.084
353.80 1.084
353.90 1.083
354.00 1.083
354.10 1.082
354.20 1.082
354.30 1.081
354.40 1.08
354.50 1.08
354.60 1.079
354.70 1.079
354.80 1.078
354.90 1.078
355.00 1.077
355.10 1.077
355.20 1.076
355.30 1.075
355.40 1.075
355.50 1.074
355.60 1.074
355.70 1.073
355.80 1.073
355.90 1.072
356.00 1.071
356.10 1.071
356.20 1.07
356.30 1.07
356.40 1.069
356.50 1.069
356.60 1.068
356.70 1.068
356.80 1.067
356.90 1.066
357.00 1.066
357.10 1.065
357.20 1.065
357.30 1.064
357.40 1.064
357.50 1.063
357.60 1.063
357.70 1.062
357.80 1.061
357.90 1.061
358.00 1.06
358.10 1.06
358.20 1.059
358.30 1.059
358.40 1.058
358.50 1.058
358.60 1.057
358.70 1.056
358.80 1.056
358.90 1.055
359.00 1.055
359.10 1.054
359.20 1.054
359.30 1.053
359.40 1.053
359.50 1.052
359.60 1.051
359.70 1.051
359.80 1.05
359.90 1.05
360.00 1.049
360.10 1.049
360.20 1.048
360.30 1.048
360.40 1.047
360.50 1.047
360.60 1.046
360.70 1.046
360.80 1.045
360.90 1.044
361.00 1.044
361.10 1.043
361.20 1.043
361.30 1.042
361.40 1.042
361.50 1.041
361.60 1.041
361.70 1.04
361.80 1.04
361.90 1.039
362.00 1.038
362.10 1.038
362.20 1.037
362.30 1.037
362.40 1.036
362.50 1.036
362.60 1.035
362.70 1.035
362.80 1.034
362.90 1.034
363.00 1.033
363.10 1.033
363.20 1.032
363.30 1.031
363.40 1.031
363.50 1.03
363.60 1.03
363.70 1.029
363.80 1.029
363.90 1.028
364.00 1.028
364.10 1.027
364.20 1.027
364.30 1.026
364.40 1.025
364.50 1.025
364.60 1.024
364.70 1.024
364.80 1.024
364.90 1.023
365.00 1.023
365.10 1.022
365.20 1.022
365.30 1.021
365.40 1.021
365.50 1.02
365.60 1.02
365.70 1.02
365.80 1.019
365.90 1.019
366.00 1.018
366.10 1.018
366.20 1.017
366.30 1.017
366.40 1.017
366.50 1.016
366.60 1.016
366.70 1.016
366.80 1.015
366.90 1.015
367.00 1.014
367.10 1.014
367.20 1.014
367.30 1.013
367.40 1.013
367.50 1.013
367.60 1.012
367.70 1.012
367.80 1.011
367.90 1.011
368.00 1.011
368.10 1.012
368.20 1.013
368.30 1.014
368.40 1.016
368.50 1.017
368.60 1.018
368.70 1.019
368.80 1.02
368.90 1.021
369.00 1.023
369.10 1.024
369.20 1.025
369.30 1.026
369.40 1.027
369.50 1.029
369.60 1.03
369.70 1.031
369.80 1.032
369.90 1.033
370.00 1.035
370.10 1.038
370.20 1.042
370.30 1.045
370.40 1.049
370.50 1.053
370.60 1.056
370.70 1.06
370.80 1.064
370.90 1.067
371.00 1.071
371.10 1.074
371.20 1.078
371.30 1.081
371.40 1.085
371.50 1.089
371.60 1.092
371.70 1.096
371.80 1.099
371.90 1.103
372.00 1.106
372.10 1.112
372.20 1.117
372.30 1.122
372.40 1.128
372.50 1.133
372.60 1.138
372.70 1.143
372.80 1.149
372.90 1.154
373.00 1.159
373.10 1.164
373.20 1.169
373.30 1.175
373.40 1.18
373.50 1.185
373.60 1.19
373.70 1.195
373.80 1.201
373.90 1.206
374.00 1.211
374.10 1.216
374.20 1.221
374.30 1.226
374.40 1.231
374.50 1.237
374.60 1.242
374.70 1.247
374.80 1.252
374.90 1.257
375.00 1.262
375.10 1.267
375.20 1.273
375.30 1.278
375.40 1.283
375.50 1.288
375.60 1.293
375.70 1.298
375.80 1.303
375.90 1.308
376.00 1.313
376.10 1.316
376.20 1.318
376.30 1.32
376.40 1.323
376.50 1.325
376.60 1.328
376.70 1.33
376.80 1.332
376.90 1.335
377.00 1.337
377.10 1.332
377.20 1.328
377.30 1.323
377.40 1.318
377.50 1.313
377.60 1.309
377.70 1.304
377.80 1.299
377.90 1.295
378.00 1.29
378.10 1.265
378.20 1.24
378.30 1.215
378.40 1.19
378.50 1.165
378.60 1.14
378.70 1.115
378.80 1.09
378.90 1.065
379.00 1.04
379.10 1.018
379.20 0.9948
379.30 0.9722
379.40 0.9495
379.50 0.9269
379.60 0.9043
379.70 0.8817
379.80 0.8592
379.90 0.8366
380.00 0.8141
380.10 0.8491
380.20 0.884
380.30 0.9189
380.40 0.9538
380.50 0.9886
380.60 1.023
380.70 1.058
380.80 1.093
380.90 1.127
381.00 1.162
381.10 1.176
381.20 1.191
381.30 1.205
381.40 1.219
381.50 1.233
381.60 1.236
381.70 1.234
381.80 1.229
381.90 1.219
382.00 1.206
382.10 1.188
382.20 1.166
382.30 1.128
382.40 1.09
382.50 1.052
382.60 1.014
382.70 0.9758
382.80 0.938
382.90 0.9001
383.00 0.8623
383.10 0.8246
383.20 0.7869
383.30 0.742
383.40 0.6942
383.50 0.6396
383.60 0.6528
383.70 0.7044
383.80 0.7513
383.90 0.7956
384.00 0.8387
384.10 0.8818
384.20 0.9245
384.30 0.9669
384.40 1.009
384.50 1.052
384.60 1.092
384.70 1.13
384.80 1.165
384.90 1.198
385.00 1.227
385.10 1.252
385.20 1.275
385.30 1.296
385.40 1.313
385.50 1.328
385.60 1.341
385.70 1.351
385.80 1.359
385.90 1.365
386.00 1.369
386.10 1.37
386.20 1.371
386.30 1.368
386.40 1.363
386.50 1.357
386.60 1.348
386.70 1.338
386.80 1.325
386.90 1.31
387.00 1.293
387.10 1.274
387.20 1.252
387.30 1.228
387.40 1.202
387.50 1.171
387.60 1.139
387.70 1.105
387.80 1.066
387.90 1.025
388.00 0.9831
388.10 0.9391
388.20 0.895
388.30 0.8508
388.40 0.8069
388.50 0.7628
388.60 0.7185
388.70 0.6709
388.80 0.615
388.90 0.5508
389.00 0.6112
389.10 0.6653
389.20 0.7129
389.30 0.7569
389.40 0.8005
389.50 0.8439
389.60 0.8876
389.70 0.9314
389.80 0.9753
389.90 1.018
390.00 1.059
390.10 1.099
390.20 1.135
390.30 1.17
390.40 1.202
390.50 1.232
390.60 1.26
390.70 1.286
390.80 1.31
390.90 1.333
391.00 1.355
391.10 1.375
391.20 1.394
391.30 1.411
391.40 1.428
391.50 1.443
391.60 1.457
391.70 1.47
391.80 1.482
391.90 1.493
392.00 1.502
392.10 1.511
392.20 1.519
392.30 1.525
392.40 1.53
392.50 1.535
392.60 1.538
392.70 1.54
392.80 1.542
392.90 1.541
393.00 1.54
393.10 1.538
393.20 1.535
393.30 1.53
393.40 1.525
393.50 1.518
393.60 1.511
393.70 1.502
393.80 1.492
393.90 1.481
394.00 1.469
394.10 1.455
394.20 1.441
394.30 1.426
394.40 1.409
394.50 1.391
394.60 1.372
394.70 1.352
394.80 1.331
394.90 1.309
395.00 1.285
395.10 1.26
395.20 1.235
395.30 1.207
395.40 1.179
395.50 1.149
395.60 1.117
395.70 1.084
395.80 1.049
395.90 1.012
396.00 0.9732
396.10 0.9338
396.20 0.8926
396.30 0.851
396.40 0.8089
396.50 0.7669
396.60 0.725
396.70 0.683
396.80 0.6364
396.90 0.572
397.00 0.49
397.10 0.5668
397.20 0.6288
397.30 0.6759
397.40 0.7175
397.50 0.759
397.60 0.8002
397.70 0.8416
397.80 0.8825
397.90 0.9229
398.00 0.9617
398.10 0.9994
398.20 1.036
398.30 1.07
398.40 1.103
398.50 1.135
398.60 1.164
398.70 1.192
398.80 1.22
398.90 1.245
399.00 1.27
399.10 1.294
399.20 1.316
399.30 1.338
399.40 1.359
399.50 1.379
399.60 1.399
399.70 1.417
399.80 1.435
399.90 1.452
400.00 1.469
400.10 1.484
400.20 1.499
400.30 1.513
400.40 1.526
400.50 1.539
400.60 1.551
400.70 1.562
400.80 1.573
400.90 1.583
401.00 1.593
401.10 1.602
401.20 1.61
401.30 1.618
401.40 1.625
401.50 1.632
401.60 1.639
401.70 1.645
401.80 1.65
401.90 1.655
402.00 1.66
402.10 1.664
402.20 1.667
402.30 1.671
402.40 1.674
402.50 1.676
402.60 1.679
402.70 1.68
402.80 1.682
402.90 1.683
403.00 1.684
403.10 1.684
403.20 1.685
403.30 1.685
403.40 1.684
403.50 1.683
403.60 1.683
403.70 1.681
403.80 1.679
403.90 1.678
404.00 1.675
404.10 1.673
404.20 1.67
404.30 1.666
404.40 1.663
404.50 1.659
404.60 1.655
404.70 1.65
404.80 1.645
404.90 1.64
405.00 1.634
405.10 1.628
405.20 1.622
405.30 1.615
405.40 1.608
405.50 1.6
405.60 1.592
405.70 1.583
405.80 1.574
405.90 1.564
406.00 1.554
406.10 1.543
406.20 1.532
406.30 1.521
406.40 1.509
406.50 1.496
406.60 1.483
406.70 1.468
406.80 1.454
406.90 1.439
407.00 1.422
407.10 1.406
407.20 1.388
407.30 1.37
407.40 1.351
407.50 1.332
407.60 1.311
407.70 1.29
407.80 1.268
407.90 1.246
408.00 1.222
408.10 1.199
408.20 1.174
408.30 1.149
408.40 1.124
408.50 1.097
408.60 1.07
408.70 1.042
408.80 1.013
408.90 0.9837
409.00 0.9532
409.10 0.9209
409.20 0.8879
409.30 0.8541
409.40 0.8185
409.50 0.7823
409.60 0.7455
409.70 0.7083
409.80 0.6708
409.90 0.6329
410.00 0.5863
410.10 0.5289
410.20 0.4606
410.30 0.5472
410.40 0.6112
410.50 0.6527
410.60 0.6894
410.70 0.726
410.80 0.7625
410.90 0.7982
411.00 0.8331
411.10 0.8671
411.20 0.8993
411.30 0.9307
411.40 0.9612
411.50 0.9899
411.60 1.018
411.70 1.045
411.80 1.071
411.90 1.096
412.00 1.121
412.10 1.145
412.20 1.168
412.30 1.191
412.40 1.212
412.50 1.234
412.60 1.254
412.70 1.274
412.80 1.293
412.90 1.312
413.00 1.329
413.10 1.346
413.20 1.363
413.30 1.378
413.40 1.393
413.50 1.407
413.60 1.42
413.70 1.433
413.80 1.446
413.90 1.457
414.00 1.468
414.10 1.479
414.20 1.489
414.30 1.499
414.40 1.508
414.50 1.517
414.60 1.525
414.70 1.533
414.80 1.541
414.90 1.548
415.00 1.555
415.10 1.561
415.20 1.567
415.30 1.573
415.40 1.578
415.50 1.584
415.60 1.589
415.70 1.593
415.80 1.597
415.90 1.602
416.00 1.605
416.10 1.609
416.20 1.613
416.30 1.616
416.40 1.619
416.50 1.622
416.60 1.625
416.70 1.627
416.80 1.629
416.90 1.632
417.00 1.634
417.10 1.636
417.20 1.638
417.30 1.639
417.40 1.641
417.50 1.642
417.60 1.644
417.70 1.645
417.80 1.646
417.90 1.647
418.00 1.648
418.10 1.649
418.20 1.65
418.30 1.65
418.40 1.651
418.50 1.651
418.60 1.652
418.70 1.652
418.80 1.653
418.90 1.653
419.00 1.653
419.10 1.653
419.20 1.653
419.30 1.653
419.40 1.653
419.50 1.653
419.60 1.653
419.70 1.653
419.80 1.653
419.90 1.652
420.00 1.652
420.10 1.652
420.20 1.651
420.30 1.651
420.40 1.65
420.50 1.65
420.60 1.649
420.70 1.648
420.80 1.648
420.90 1.647
421.00 1.646
421.10 1.646
421.20 1.645
421.30 1.644
421.40 1.643
421.50 1.642
421.60 1.641
421.70 1.64
421.80 1.639
421.90 1.638
422.00 1.637
422.10 1.636
422.20 1.635
422.30 1.634
422.40 1.633
422.50 1.631
422.60 1.63
422.70 1.629
422.80 1.628
422.90 1.626
423.00 1.625
423.10 1.623
423.20 1.622
423.30 1.62
423.40 1.619
423.50 1.617
423.60 1.616
423.70 1.614
423.80 1.612
423.90 1.611
424.00 1.609
424.10 1.607
424.20 1.605
424.30 1.603
424.40 1.601
424.50 1.599
424.60 1.597
424.70 1.595
424.80 1.593
424.90 1.591
425.00 1.589
425.10 1.586
425.20 1.584
425.30 1.582
425.40 1.579
425.50 1.577
425.60 1.574
425.70 1.571
425.80 1.569
425.90 1.566
426.00 1.563
426.10 1.56
426.20 1.556
426.30 1.553
426.40 1.549
426.50 1.546
426.60 1.543
426.70 1.539
426.80 1.535
426.90 1.532
427.00 1.528
427.10 1.524
427.20 1.52
427.30 1.515
427.40 1.511
427.50 1.506
427.60 1.502
427.70 1.497
427.80 1.492
427.90 1.487
428.00 1.482
428.10 1.476
428.20 1.471
428.30 1.465
428.40 1.459
428.50 1.453
428.60 1.446
428.70 1.44
428.80 1.433
428.90 1.426
429.00 1.418
429.10 1.411
429.20 1.403
429.30 1.395
429.40 1.387
429.50 1.378
429.60 1.369
429.70 1.36
429.80 1.35
429.90 1.34
430.00 1.33
430.10 1.319
430.20 1.309
430.30 1.297
430.40 1.286
430.50 1.274
430.60 1.262
430.70 1.249
430.80 1.236
430.90 1.223
431.00 1.21
431.10 1.196
431.20 1.182
431.30 1.167
431.40 1.152
431.50 1.137
431.60 1.121
431.70 1.104
431.80 1.087
431.90 1.068
432.00 1.049
432.10 1.029
432.20 1.008
432.30 0.9854
432.40 0.9621
432.50 0.937
432.60 0.9111
432.70 0.8844
432.80 0.8572
432.90 0.8304
433.00 0.8039
433.10 0.7783
433.20 0.7521
433.30 0.7254
433.40 0.6965
433.50 0.6668
433.60 0.6363
433.70 0.6052
433.80 0.5707
433.90 0.5326
434.00 0.4277
434.10 0.4288
434.20 0.5358
434.30 0.5728
434.40 0.6065
434.50 0.6369
434.60 0.6667
434.70 0.6957
434.80 0.7239
434.90 0.7497
435.00 0.775
435.10 0.7997
435.20 0.8253
435.30 0.8511
435.40 0.8771
435.50 0.9025
435.60 0.9271
435.70 0.9508
435.80 0.9725
435.90 0.9933
436.00 1.013
436.10 1.031
436.20 1.049
436.30 1.066
436.40 1.081
436.50 1.096
436.60 1.111
436.70 1.124
436.80 1.138
436.90 1.15
437.00 1.163
437.10 1.174
437.20 1.186
437.30 1.197
437.40 1.208
437.50 1.219
437.60 1.229
437.70 1.238
437.80 1.248
437.90 1.257
438.00 1.266
438.10 1.274
438.20 1.282
438.30 1.29
438.40 1.297
438.50 1.304
438.60 1.311
438.70 1.317
438.80 1.323
438.90 1.329
439.00 1.335
439.10 1.34
439.20 1.345
439.30 1.35
439.40 1.354
439.50 1.359
439.60 1.363
439.70 1.367
439.80 1.37
439.90 1.374
440.00 1.377
440.10 1.38
440.20 1.383
440.30 1.386
440.40 1.389
440.50 1.392
440.60 1.394
440.70 1.396
440.80 1.398
440.90 1.4
441.00 1.402
441.10 1.404
441.20 1.406
441.30 1.407
441.40 1.409
441.50 1.41
441.60 1.411
441.70 1.413
441.80 1.414
441.90 1.415
442.00 1.416
442.10 1.416
442.20 1.417
442.30 1.418
442.40 1.419
442.50 1.419
442.60 1.42
442.70 1.42
442.80 1.421
442.90 1.421
443.00 1.421
443.10 1.422
443.20 1.422
443.30 1.422
443.40 1.422
443.50 1.422
443.60 1.422
443.70 1.423
443.80 1.423
443.90 1.423
444.00 1.422
444.10 1.422
444.20 1.422
444.30 1.422
444.40 1.422
444.50 1.422
444.60 1.421
444.70 1.421
444.80 1.421
444.90 1.421
445.00 1.42
445.10 1.42
445.20 1.419
445.30 1.419
445.40 1.419
445.50 1.418
445.60 1.418
445.70 1.417
445.80 1.417
445.90 1.416
446.00 1.416
446.10 1.415
446.20 1.415
446.30 1.414
446.40 1.414
446.50 1.413
446.60 1.413
446.70 1.412
446.80 1.411
446.90 1.411
447.00 1.41
447.10 1.41
447.20 1.409
447.30 1.408
447.40 1.408
447.50 1.407
447.60 1.406
447.70 1.406
447.80 1.405
447.90 1.404
448.00 1.404
448.10 1.403
448.20 1.402
448.30 1.401
448.40 1.401
448.50 1.4
448.60 1.399
448.70 1.399
448.80 1.398
448.90 1.397
449.00 1.396
449.10 1.396
449.20 1.395
449.30 1.394
449.40 1.393
449.50 1.393
449.60 1.392
449.70 1.391
449.80 1.39
449.90 1.39
450.00 1.389
450.10 1.388
450.20 1.387
450.30 1.386
450.40 1.386
450.50 1.385
450.60 1.384
450.70 1.383
450.80 1.382
450.90 1.382
451.00 1.381
451.10 1.38
451.20 1.379
451.30 1.378
451.40 1.378
451.50 1.377
451.60 1.376
451.70 1.375
451.80 1.374
451.90 1.374
452.00 1.373
452.10 1.372
452.20 1.371
452.30 1.37
452.40 1.369
452.50 1.369
452.60 1.368
452.70 1.367
452.80 1.366
452.90 1.365
453.00 1.364
453.10 1.363
453.20 1.363
453.30 1.362
453.40 1.361
453.50 1.36
453.60 1.359
453.70 1.358
453.80 1.358
453.90 1.357
454.00 1.356
454.10 1.355
454.20 1.354
454.30 1.353
454.40 1.352
454.50 1.352
454.60 1.351
454.70 1.35
454.80 1.349
454.90 1.348
455.00 1.347
455.10 1.346
455.20 1.346
455.30 1.345
455.40 1.344
455.50 1.343
455.60 1.342
455.70 1.341
455.80 1.34
455.90 1.34
456.00 1.339
456.10 1.338
456.20 1.337
456.30 1.336
456.40 1.335
456.50 1.334
456.60 1.333
456.70 1.333
456.80 1.332
456.90 1.331
457.00 1.33
457.10 1.329
457.20 1.328
457.30 1.328
457.40 1.327
457.50 1.326
457.60 1.325
457.70 1.324
457.80 1.323
457.90 1.322
458.00 1.321
458.10 1.321
458.20 1.32
458.30 1.319
458.40 1.318
458.50 1.317
458.60 1.316
458.70 1.315
458.80 1.314
458.90 1.314
459.00 1.313
459.10 1.312
459.20 1.311
459.30 1.31
459.40 1.309
459.50 1.308
459.60 1.307
459.70 1.306
459.80 1.306
459.90 1.305
460.00 1.304
460.10 1.303
460.20 1.302
460.30 1.301
460.40 1.3
460.50 1.299
460.60 1.299
460.70 1.298
460.80 1.297
460.90 1.296
461.00 1.295
461.10 1.294
461.20 1.293
461.30 1.292
461.40 1.291
461.50 1.291
461.60 1.29
461.70 1.289
461.80 1.288
461.90 1.287
462.00 1.286
462.10 1.285
462.20 1.284
462.30 1.283
462.40 1.283
462.50 1.282
462.60 1.281
462.70 1.28
462.80 1.279
462.90 1.278
463.00 1.277
463.10 1.276
463.20 1.275
463.30 1.275
463.40 1.274
463.50 1.273
463.60 1.272
463.70 1.271
463.80 1.27
463.90 1.269
464.00 1.268
464.10 1.267
464.20 1.266
464.30 1.266
464.40 1.265
464.50 1.264
464.60 1.263
464.70 1.262
464.80 1.261
464.90 1.26
465.00 1.259
465.10 1.258
465.20 1.257
465.30 1.257
465.40 1.256
465.50 1.255
465.60 1.254
465.70 1.253
465.80 1.252
465.90 1.251
466.00 1.25
466.10 1.249
466.20 1.248
466.30 1.247
466.40 1.247
466.50 1.246
466.60 1.245
466.70 1.244
466.80 1.243
466.90 1.242
467.00 1.241
467.10 1.24
467.20 1.239
467.30 1.238
467.40 1.237
467.50 1.236
467.60 1.235
467.70 1.234
467.80 1.233
467.90 1.233
468.00 1.232
468.10 1.231
468.20 1.23
468.30 1.229
468.40 1.228
468.50 1.227
468.60 1.226
468.70 1.225
468.80 1.224
468.90 1.223
469.00 1.222
469.10 1.221
469.20 1.22
469.30 1.219
469.40 1.218
469.50 1.217
469.60 1.216
469.70 1.215
469.80 1.214
469.90 1.213
470.00 1.212
470.10 1.211
470.20 1.21
470.30 1.209
470.40 1.208
470.50 1.207
470.60 1.206
470.70 1.205
470.80 1.204
470.90 1.203
471.00 1.202
471.10 1.201
471.20 1.2
471.30 1.199
471.40 1.198
471.50 1.197
471.60 1.196
471.70 1.195
471.80 1.194
471.90 1.193
472.00 1.192
472.10 1.191
472.20 1.19
472.30 1.188
472.40 1.187
472.50 1.186
472.60 1.185
472.70 1.184
472.80 1.183
472.90 1.182
473.00 1.18
473.10 1.179
473.20 1.178
473.30 1.177
473.40 1.176
473.50 1.175
473.60 1.173
473.70 1.172
473.80 1.171
473.90 1.17
474.00 1.168
474.10 1.167
474.20 1.166
474.30 1.165
474.40 1.163
474.50 1.162
474.60 1.16
474.70 1.159
474.80 1.158
474.90 1.156
475.00 1.155
475.10 1.154
475.20 1.152
475.30 1.151
475.40 1.149
475.50 1.148
475.60 1.146
475.70 1.145
475.80 1.143
475.90 1.142
476.00 1.14
476.10 1.139
476.20 1.137
476.30 1.135
476.40 1.133
476.50 1.132
476.60 1.13
476.70 1.128
476.80 1.126
476.90 1.125
477.00 1.123
477.10 1.121
477.20 1.119
477.30 1.117
477.40 1.115
477.50 1.113
477.60 1.111
477.70 1.109
477.80 1.107
477.90 1.104
478.00 1.102
478.10 1.1
478.20 1.098
478.30 1.095
478.40 1.092
478.50 1.09
478.60 1.087
478.70 1.085
478.80 1.082
478.90 1.079
479.00 1.077
479.10 1.074
479.20 1.071
479.30 1.068
479.40 1.064
479.50 1.061
479.60 1.057
479.70 1.054
479.80 1.051
479.90 1.047
480.00 1.044
480.10 1.041
480.20 1.036
480.30 1.032
480.40 1.027
480.50 1.023
480.60 1.018
480.70 1.014
480.80 1.01
480.90 1.005
481.00 1.001
481.10 0.9961
481.20 0.9906
481.30 0.9845
481.40 0.9784
481.50 0.9724
481.60 0.9663
481.70 0.9603
481.80 0.9542
481.90 0.9482
482.00 0.9421
482.10 0.9361
482.20 0.9286
482.30 0.9205
482.40 0.9123
482.50 0.9042
482.60 0.896
482.70 0.8879
482.80 0.8798
482.90 0.8717
483.00 0.8636
483.10 0.8555
483.20 0.8455
483.30 0.8347
483.40 0.8239
483.50 0.8131
483.60 0.8023
483.70 0.7915
483.80 0.7807
483.90 0.77
484.00 0.7592
484.10 0.7485
484.20 0.7362
484.30 0.7233
484.40 0.7104
484.50 0.6974
484.60 0.6845
484.70 0.6705
484.80 0.6559
484.90 0.6414
485.00 0.6269
485.10 0.6123
485.20 0.597
485.30 0.5813
485.40 0.5647
485.50 0.5476
485.60 0.5295
485.70 0.5108
485.80 0.4898
485.90 0.4676
486.00 0.4389
486.10 0.3323
486.20 0.3942
486.30 0.4501
486.40 0.4742
486.50 0.4961
486.60 0.5155
486.70 0.5337
486.80 0.5508
486.90 0.5673
487.00 0.5829
487.10 0.598
487.20 0.6122
487.30 0.6261
487.40 0.6399
487.50 0.6537
487.60 0.6675
487.70 0.6801
487.80 0.6922
487.90 0.7042
488.00 0.7163
488.10 0.7283
488.20 0.7387
488.30 0.7484
488.40 0.7581
488.50 0.7678
488.60 0.7775
488.70 0.7872
488.80 0.7969
488.90 0.8065
489.00 0.8162
489.10 0.8258
489.20 0.8335
489.30 0.8403
489.40 0.8471
489.50 0.8539
489.60 0.8607
489.70 0.8675
489.80 0.8743
489.90 0.881
490.00 0.8878
490.10 0.8945
490.20 0.8998
490.30 0.9044
490.40 0.909
490.50 0.9135
490.60 0.9181
490.70 0.9227
490.80 0.9272
490.90 0.9318
491.00 0.9363
491.10 0.9409
491.20 0.9443
491.30 0.9473
491.40 0.9502
491.50 0.9531
491.60 0.956
491.70 0.9589
491.80 0.9619
491.90 0.9648
492.00 0.9677
492.10 0.9706
492.20 0.9727
492.30 0.9745
492.40 0.9763
492.50 0.9781
492.60 0.9799
492.70 0.9817
492.80 0.9835
492.90 0.9853
493.00 0.9871
493.10 0.9889
493.20 0.9902
493.30 0.9913
493.40 0.9924
493.50 0.9934
493.60 0.9945
493.70 0.9956
493.80 0.9966
493.90 0.9977
494.00 0.9988
494.10 0.9998
494.20 1.001
494.30 1.001
494.40 1.002
494.50 1.002
494.60 1.003
494.70 1.003
494.80 1.004
494.90 1.004
495.00 1.005
495.10 1.005
495.20 1.006
495.30 1.006
495.40 1.006
495.50 1.006
495.60 1.007
495.70 1.007
495.80 1.007
495.90 1.007
496.00 1.007
496.10 1.008
496.20 1.008
496.30 1.008
496.40 1.008
496.50 1.008
496.60 1.008
496.70 1.008
496.80 1.008
496.90 1.008
497.00 1.008
497.10 1.008
497.20 1.007
497.30 1.007
497.40 1.007
497.50 1.007
497.60 1.007
497.70 1.007
497.80 1.006
497.90 1.006
498.00 1.006
498.10 1.006
498.20 1.006
498.30 1.005
498.40 1.005
498.50 1.005
498.60 1.005
498.70 1.004
498.80 1.004
498.90 1.004
499.00 1.003
499.10 1.003
499.20 1.003
499.30 1.003
499.40 1.002
499.50 1.002
499.60 1.001
499.70 1.001
499.80 1.001
499.90 1
500.00 1
500.10 0.9996
500.20 0.9992
500.30 0.9988
500.40 0.9984
500.50 0.998
500.60 0.9976
500.70 0.9972
500.80 0.9968
500.90 0.9963
501.00 0.9959
501.10 0.9955
501.20 0.9951
501.30 0.9946
501.40 0.9942
501.50 0.9937
501.60 0.9933
501.70 0.9928
501.80 0.9924
501.90 0.9919
502.00 0.9914
502.10 0.991
502.20 0.9905
502.30 0.99
502.40 0.9896
502.50 0.9891
502.60 0.9886
502.70 0.9881
502.80 0.9876
502.90 0.9872
503.00 0.9867
503.10 0.9862
503.20 0.9857
503.30 0.9852
503.40 0.9847
503.50 0.9842
503.60 0.9837
503.70 0.9832
503.80 0.9827
503.90 0.9822
504.00 0.9817
504.10 0.9812
504.20 0.9807
504.30 0.9801
504.40 0.9796
504.50 0.9791
504.60 0.9786
504.70 0.9781
504.80 0.9775
504.90 0.977
505.00 0.9765
505.10 0.976
505.20 0.9755
505.30 0.9749
505.40 0.9744
505.50 0.9739
505.60 0.9733
505.70 0.9728
505.80 0.9723
505.90 0.9717
506.00 0.9712
506.10 0.9707
506.20 0.9701
506.30 0.9696
506.40 0.9691
506.50 0.9685
506.60 0.968
506.70 0.9674
506.80 0.9669
506.90 0.9664
507.00 0.9658
507.10 0.9653
507.20 0.9648
507.30 0.9642
507.40 0.9637
507.50 0.9631
507.60 0.9626
507.70 0.962
507.80 0.9615
507.90 0.961
508.00 0.9604
508.10 0.9599
508.20 0.9593
508.30 0.9588
508.40 0.9582
508.50 0.9577
508.60 0.9571
508.70 0.9566
508.80 0.956
508.90 0.9555
509.00 0.9549
509.10 0.9544
509.20 0.9538
509.30 0.9533
509.40 0.9527
509.50 0.9522
509.60 0.9516
509.70 0.9511
509.80 0.9505
509.90 0.95
510.00 0.9494
510.10 0.9489
510.20 0.9483
510.30 0.9478
510.40 0.9472
510.50 0.9467
510.60 0.9461
510.70 0.9456
510.80 0.945
510.90 0.9445
511.00 0.9439
511.10 0.9434
511.20 0.9428
511.30 0.9423
511.40 0.9417
511.50 0.9412
511.60 0.9406
511.70 0.9401
511.80 0.9395
511.90 0.939
512.00 0.9384
512.10 0.9379
512.20 0.9373
512.30 0.9368
512.40 0.9362
512.50 0.9357
512.60 0.9351
512.70 0.9346
512.80 0.934
512.90 0.9335
513.00 0.9329
513.10 0.9324
513.20 0.9318
513.30 0.9313
513.40 0.9307
513.50 0.9302
513.60 0.9296
513.70 0.9291
513.80 0.9285
513.90 0.928
514.00 0.9274
514.10 0.9269
514.20 0.9263
514.30 0.9258
514.40 0.9252
514.50 0.9247
514.60 0.9242
514.70 0.9236
514.80 0.9231
514.90 0.9225
515.00 0.922
515.10 0.9214
515.20 0.9209
515.30 0.9203
515.40 0.9198
515.50 0.9192
515.60 0.9187
515.70 0.9182
515.80 0.9176
515.90 0.9171
516.00 0.9165
516.10 0.916
516.20 0.9154
516.30 0.9149
516.40 0.9144
516.50 0.9138
516.60 0.9133
516.70 0.9127
516.80 0.9122
516.90 0.9116
517.00 0.9111
517.10 0.9106
517.20 0.91
517.30 0.9095
517.40 0.9089
517.50 0.9084
517.60 0.9079
517.70 0.9073
517.80 0.9068
517.90 0.9062
518.00 0.9057
518.10 0.9052
518.20 0.9046
518.30 0.9041
518.40 0.9035
518.50 0.903
518.60 0.9025
518.70 0.9019
518.80 0.9014
518.90 0.9009
519.00 0.9003
519.10 0.8998
519.20 0.8993
519.30 0.8987
519.40 0.8982
519.50 0.8977
519.60 0.8971
519.70 0.8966
519.80 0.8961
519.90 0.8955
520.00 0.895
520.10 0.8945
520.20 0.8939
520.30 0.8934
520.40 0.8929
520.50 0.8923
520.60 0.8918
520.70 0.8913
520.80 0.8907
520.90 0.8902
521.00 0.8897
521.10 0.8892
521.20 0.8886
521.30 0.8881
521.40 0.8876
521.50 0.887
521.60 0.8865
521.70 0.886
521.80 0.8855
521.90 0.8849
522.00 0.8844
522.10 0.8839
522.20 0.8833
522.30 0.8828
522.40 0.8823
522.50 0.8818
522.60 0.8812
522.70 0.8807
522.80 0.8802
522.90 0.8797
523.00 0.8792
523.10 0.8786
523.20 0.8781
523.30 0.8776
523.40 0.8771
523.50 0.8765
523.60 0.876
523.70 0.8755
523.80 0.875
523.90 0.8745
524.00 0.8739
524.10 0.8734
524.20 0.8729
524.30 0.8724
524.40 0.8719
524.50 0.8714
524.60 0.8708
524.70 0.8703
524.80 0.8698
524.90 0.8693
525.00 0.8688
525.10 0.8682
525.20 0.8677
525.30 0.8672
525.40 0.8667
525.50 0.8662
525.60 0.8657
525.70 0.8652
525.80 0.8646
525.90 0.8641
526.00 0.8636
526.10 0.8631
526.20 0.8626
526.30 0.8621
526.40 0.8616
526.50 0.8611
526.60 0.8605
526.70 0.86
526.80 0.8595
526.90 0.859
527.00 0.8585
527.10 0.858
527.20 0.8575
527.30 0.857
527.40 0.8565
527.50 0.856
527.60 0.8555
527.70 0.8549
527.80 0.8544
527.90 0.8539
528.00 0.8534
528.10 0.8529
528.20 0.8524
528.30 0.8519
528.40 0.8514
528.50 0.8509
528.60 0.8504
528.70 0.8499
528.80 0.8494
528.90 0.8489
529.00 0.8484
529.10 0.8479
529.20 0.8474
529.30 0.8469
529.40 0.8464
529.50 0.8459
529.60 0.8454
529.70 0.8449
529.80 0.8444
529.90 0.8439
530.00 0.8434
530.10 0.8429
530.20 0.8424
530.30 0.8419
530.40 0.8414
530.50 0.8409
530.60 0.8404
530.70 0.8399
530.80 0.8394
530.90 0.8389
531.00 0.8384
531.10 0.8379
531.20 0.8374
531.30 0.8369
531.40 0.8364
531.50 0.8359
531.60 0.8354
531.70 0.8349
531.80 0.8344
531.90 0.834
532.00 0.8335
532.10 0.833
532.20 0.8325
532.30 0.832
532.40 0.8315
532.50 0.831
532.60 0.8305
532.70 0.83
532.80 0.8295
532.90 0.829
533.00 0.8285
533.10 0.8281
533.20 0.8276
533.30 0.8271
533.40 0.8266
533.50 0.8261
533.60 0.8256
533.70 0.8251
533.80 0.8247
533.90 0.8242
534.00 0.8237
534.10 0.8232
534.20 0.8227
534.30 0.8222
534.40 0.8217
534.50 0.8213
534.60 0.8208
534.70 0.8203
534.80 0.8198
534.90 0.8193
535.00 0.8188
535.10 0.8184
535.20 0.8179
535.30 0.8174
535.40 0.8169
535.50 0.8164
535.60 0.816
535.70 0.8155
535.80 0.815
535.90 0.8145
536.00 0.814
536.10 0.8136
536.20 0.8131
536.30 0.8126
536.40 0.8121
536.50 0.8117
536.60 0.8112
536.70 0.8107
536.80 0.8102
536.90 0.8097
537.00 0.8093
537.10 0.8088
537.20 0.8083
537.30 0.8079
537.40 0.8074
537.50 0.8069
537.60 0.8064
537.70 0.806
537.80 0.8055
537.90 0.805
538.00 0.8045
538.10 0.8041
538.20 0.8036
538.30 0.8031
538.40 0.8027
538.50 0.8022
538.60 0.8017
538.70 0.8012
538.80 0.8008
538.90 0.8003
539.00 0.7998
539.10 0.7994
539.20 0.7989
539.30 0.7984
539.40 0.798
539.50 0.7975
539.60 0.797
539.70 0.7966
539.80 0.7961
539.90 0.7956
540.00 0.7952
540.10 0.7947
540.20 0.7942
540.30 0.7938
540.40 0.7933
540.50 0.7929
540.60 0.7924
540.70 0.7919
540.80 0.7915
540.90 0.791
541.00 0.7905
541.10 0.7901
541.20 0.7896
541.30 0.7892
541.40 0.7887
541.50 0.7882
541.60 0.7878
541.70 0.7873
541.80 0.7869
541.90 0.7864
542.00 0.7859
542.10 0.7855
542.20 0.785
542.30 0.7846
542.40 0.7841
542.50 0.7837
542.60 0.7832
542.70 0.7827
542.80 0.7823
542.90 0.7818
543.00 0.7814
543.10 0.7809
543.20 0.7805
543.30 0.78
543.40 0.7796
543.50 0.7791
543.60 0.7786
543.70 0.7782
543.80 0.7777
543.90 0.7773
544.00 0.7768
544.10 0.7764
544.20 0.7759
544.30 0.7755
544.40 0.775
544.50 0.7746
544.60 0.7741
544.70 0.7737
544.80 0.7732
544.90 0.7728
545.00 0.7723
545.10 0.7719
545.20 0.7714
545.30 0.771
545.40 0.7705
545.50 0.7701
545.60 0.7697
545.70 0.7692
545.80 0.7688
545.90 0.7683
546.00 0.7679
546.10 0.7674
546.20 0.767
546.30 0.7666
546.40 0.7661
546.50 0.7657
546.60 0.7653
546.70 0.7649
546.80 0.7644
546.90 0.764
547.00 0.7636
547.10 0.7632
547.20 0.7627
547.30 0.7623
547.40 0.7618
547.50 0.7614
547.60 0.7609
547.70 0.7605
547.80 0.7601
547.90 0.7596
548.00 0.7592
548.10 0.7587
548.20 0.7583
548.30 0.7579
548.40 0.7574
548.50 0.757
548.60 0.7566
548.70 0.7561
548.80 0.7557
548.90 0.7552
549.00 0.7548
549.10 0.7544
549.20 0.7539
549.30 0.7535
549.40 0.7531
549.50 0.7526
549.60 0.7522
549.70 0.7518
549.80 0.7513
549.90 0.7509
550.00 0.7505
550.10 0.75
550.20 0.7496
550.30 0.7492
550.40 0.7487
550.50 0.7483
550.60 0.7479
550.70 0.7474
550.80 0.747
550.90 0.7466
551.00 0.7461
551.10 0.7457
551.20 0.7453
551.30 0.7449
551.40 0.7444
551.50 0.744
551.60 0.7436
551.70 0.7431
551.80 0.7427
551.90 0.7423
552.00 0.7419
552.10 0.7414
552.20 0.741
552.30 0.7406
552.40 0.7401
552.50 0.7397
552.60 0.7393
552.70 0.7389
552.80 0.7385
552.90 0.738
553.00 0.7376
553.10 0.7372
553.20 0.7368
553.30 0.7363
553.40 0.7359
553.50 0.7355
553.60 0.7351
553.70 0.7346
553.80 0.7342
553.90 0.7338
554.00 0.7334
554.10 0.733
554.20 0.7325
554.30 0.7321
554.40 0.7317
554.50 0.7313
554.60 0.7309
554.70 0.7304
554.80 0.73
554.90 0.7296
555.00 0.7292
555.10 0.7288
555.20 0.7283
555.30 0.7279
555.40 0.7275
555.50 0.7271
555.60 0.7267
555.70 0.7263
555.80 0.7258
555.90 0.7254
556.00 0.725
556.10 0.7246
556.20 0.7242
556.30 0.7238
556.40 0.7234
556.50 0.7229
556.60 0.7225
556.70 0.7221
556.80 0.7217
556.90 0.7213
557.00 0.7209
557.10 0.7205
557.20 0.7201
557.30 0.7197
557.40 0.7192
557.50 0.7188
557.60 0.7184
557.70 0.718
557.80 0.7176
557.90 0.7172
558.00 0.7168
558.10 0.7164
558.20 0.716
558.30 0.7156
558.40 0.7152
558.50 0.7147
558.60 0.7143
558.70 0.7139
558.80 0.7135
558.90 0.7131
559.00 0.7127
559.10 0.7123
559.20 0.7119
559.30 0.7115
559.40 0.7111
559.50 0.7107
559.60 0.7103
559.70 0.7099
559.80 0.7095
559.90 0.7091
560.00 0.7087
560.10 0.7083
560.20 0.7079
560.30 0.7075
560.40 0.7071
560.50 0.7067
560.60 0.7063
560.70 0.7058
560.80 0.7054
560.90 0.705
561.00 0.7046
561.10 0.7042
561.20 0.7038
561.30 0.7034
561.40 0.703
561.50 0.7026
561.60 0.7023
561.70 0.7019
561.80 0.7015
561.90 0.7011
562.00 0.7007
562.10 0.7003
562.20 0.6999
562.30 0.6995
562.40 0.6991
562.50 0.6987
562.60 0.6983
562.70 0.6979
562.80 0.6975
562.90 0.6971
563.00 0.6967
563.10 0.6963
563.20 0.6959
563.30 0.6955
563.40 0.6951
563.50 0.6947
563.60 0.6943
563.70 0.6939
563.80 0.6936
563.90 0.6932
564.00 0.6928
564.10 0.6924
564.20 0.692
564.30 0.6916
564.40 0.6912
564.50 0.6908
564.60 0.6904
564.70 0.69
564.80 0.6896
564.90 0.6893
565.00 0.6889
565.10 0.6885
565.20 0.6881
565.30 0.6877
565.40 0.6873
565.50 0.6869
565.60 0.6865
565.70 0.6862
565.80 0.6858
565.90 0.6854
566.00 0.685
566.10 0.6846
566.20 0.6842
566.30 0.6838
566.40 0.6835
566.50 0.6831
566.60 0.6827
566.70 0.6823
566.80 0.6819
566.90 0.6815
567.00 0.6812
567.10 0.6808
567.20 0.6804
567.30 0.68
567.40 0.6796
567.50 0.6792
567.60 0.6789
567.70 0.6785
567.80 0.6781
567.90 0.6777
568.00 0.6773
568.10 0.6769
568.20 0.6766
568.30 0.6762
568.40 0.6758
568.50 0.6754
568.60 0.675
568.70 0.6747
568.80 0.6743
568.90 0.6739
569.00 0.6735
569.10 0.6732
569.20 0.6728
569.30 0.6724
569.40 0.672
569.50 0.6717
569.60 0.6713
569.70 0.6709
569.80 0.6705
569.90 0.6701
570.00 0.6698
570.10 0.6694
570.20 0.669
570.30 0.6687
570.40 0.6683
570.50 0.6679
570.60 0.6675
570.70 0.6672
570.80 0.6668
570.90 0.6664
571.00 0.666
571.10 0.6657
571.20 0.6653
571.30 0.6649
571.40 0.6645
571.50 0.6642
571.60 0.6638
571.70 0.6634
571.80 0.6631
571.90 0.6627
572.00 0.6623
572.10 0.662
572.20 0.6616
572.30 0.6612
572.40 0.6608
572.50 0.6605
572.60 0.6601
572.70 0.6597
572.80 0.6594
572.90 0.659
573.00 0.6586
573.10 0.6583
573.20 0.6579
573.30 0.6575
573.40 0.6572
573.50 0.6568
573.60 0.6564
573.70 0.6561
573.80 0.6557
573.90 0.6553
574.00 0.655
574.10 0.6546
574.20 0.6542
574.30 0.6539
574.40 0.6535
574.50 0.6532
574.60 0.6528
574.70 0.6524
574.80 0.6521
574.90 0.6517
575.00 0.6513
575.10 0.651
575.20 0.6506
575.30 0.6503
575.40 0.6499
575.50 0.6495
575.60 0.6492
575.70 0.6488
575.80 0.6485
575.90 0.6481
576.00 0.6477
576.10 0.6474
576.20 0.647
576.30 0.6467
576.40 0.6463
576.50 0.6459
576.60 0.6456
576.70 0.6452
576.80 0.6449
576.90 0.6445
577.00 0.6441
577.10 0.6438
577.20 0.6434
577.30 0.6431
577.40 0.6427
577.50 0.6424
577.60 0.642
577.70 0.6417
577.80 0.6413
577.90 0.6409
578.00 0.6406
578.10 0.6402
578.20 0.6399
578.30 0.6395
578.40 0.6392
578.50 0.6388
578.60 0.6385
578.70 0.6381
578.80 0.6378
578.90 0.6374
579.00 0.6371
579.10 0.6367
579.20 0.6363
579.30 0.636
579.40 0.6356
579.50 0.6353
579.60 0.6349
579.70 0.6346
579.80 0.6342
579.90 0.6339
580.00 0.6335
580.10 0.6332
580.20 0.6328
580.30 0.6325
580.40 0.6321
580.50 0.6318
580.60 0.6315
580.70 0.6311
580.80 0.6308
580.90 0.6304
581.00 0.6301
581.10 0.6297
581.20 0.6294
581.30 0.629
581.40 0.6287
581.50 0.6283
581.60 0.628
581.70 0.6276
581.80 0.6273
581.90 0.6269
582.00 0.6266
582.10 0.6263
582.20 0.6259
582.30 0.6256
582.40 0.6252
582.50 0.6249
582.60 0.6245
582.70 0.6242
582.80 0.6238
582.90 0.6235
583.00 0.6232
583.10 0.6228
583.20 0.6225
583.30 0.6221
583.40 0.6218
583.50 0.6215
583.60 0.6211
583.70 0.6208
583.80 0.6204
583.90 0.6201
584.00 0.6198
584.10 0.6194
584.20 0.6191
584.30 0.6187
584.40 0.6184
584.50 0.6181
584.60 0.6177
584.70 0.6174
584.80 0.617
584.90 0.6167
585.00 0.6164
585.10 0.616
585.20 0.6157
585.30 0.6154
585.40 0.615
585.50 0.6147
585.60 0.6143
585.70 0.614
585.80 0.6137
585.90 0.6133
586.00 0.613
586.10 0.6127
586.20 0.6123
586.30 0.612
586.40 0.6117
586.50 0.6113
586.60 0.611
586.70 0.6107
586.80 0.6103
586.90 0.61
587.00 0.6097
587.10 0.6093
587.20 0.609
587.30 0.6087
587.40 0.6083
587.50 0.608
587.60 0.6077
587.70 0.6073
587.80 0.607
587.90 0.6067
588.00 0.6063
588.10 0.606
588.20 0.6057
588.30 0.6053
588.40 0.605
588.50 0.6047
588.60 0.6044
588.70 0.604
588.80 0.6037
588.90 0.6034
589.00 0.603
589.10 0.6027
589.20 0.6024
589.30 0.6021
589.40 0.6017
589.50 0.6014
589.60 0.6011
589.70 0.6007
589.80 0.6004
589.90 0.6001
590.00 0.5998
590.10 0.5994
590.20 0.5991
590.30 0.5988
590.40 0.5985
590.50 0.5981
590.60 0.5978
590.70 0.5975
590.80 0.5972
590.90 0.5968
591.00 0.5965
591.10 0.5962
591.20 0.5959
591.30 0.5955
591.40 0.5952
591.50 0.5949
591.60 0.5946
591.70 0.5943
591.80 0.5939
591.90 0.5936
592.00 0.5933
592.10 0.593
592.20 0.5926
592.30 0.5923
592.40 0.592
592.50 0.5917
592.60 0.5914
592.70 0.591
592.80 0.5907
592.90 0.5904
593.00 0.5901
593.10 0.5898
593.20 0.5894
593.30 0.5891
593.40 0.5888
593.50 0.5885
593.60 0.5882
593.70 0.5878
593.80 0.5875
593.90 0.5872
594.00 0.5869
594.10 0.5866
594.20 0.5863
594.30 0.5859
594.40 0.5856
594.50 0.5853
594.60 0.585
594.70 0.5847
594.80 0.5844
594.90 0.584
595.00 0.5837
595.10 0.5834
595.20 0.5831
595.30 0.5828
595.40 0.5825
595.50 0.5822
595.60 0.5818
595.70 0.5815
595.80 0.5812
595.90 0.5809
596.00 0.5806
596.10 0.5803
596.20 0.5799
596.30 0.5796
596.40 0.5793
596.50 0.5789
596.60 0.5786
596.70 0.5782
596.80 0.5779
596.90 0.5775
597.00 0.5772
597.10 0.5768
597.20 0.5765
597.30 0.5762
597.40 0.5759
597.50 0.5756
597.60 0.5753
597.70 0.575
597.80 0.5747
597.90 0.5743
598.00 0.574
598.10 0.5737
598.20 0.5734
598.30 0.5731
598.40 0.5728
598.50 0.5725
598.60 0.5722
598.70 0.5719
598.80 0.5716
598.90 0.5713
599.00 0.5709
599.10 0.5706
599.20 0.5703
599.30 0.57
599.40 0.5697
599.50 0.5694
599.60 0.5691
599.70 0.5688
599.80 0.5685
599.90 0.5682
600.00 0.5679
600.10 0.5676
600.20 0.5673
600.30 0.567
600.40 0.5667
600.50 0.5664
600.60 0.5661
600.70 0.5657
600.80 0.5654
600.90 0.5651
601.00 0.5648
601.10 0.5645
601.20 0.5642
601.30 0.5639
601.40 0.5636
601.50 0.5633
601.60 0.563
601.70 0.5627
601.80 0.5624
601.90 0.5621
602.00 0.5618
602.10 0.5615
602.20 0.5612
602.30 0.5609
602.40 0.5606
602.50 0.5603
602.60 0.56
602.70 0.5597
602.80 0.5594
602.90 0.5591
603.00 0.5588
603.10 0.5585
603.20 0.5582
603.30 0.5579
603.40 0.5576
603.50 0.5573
603.60 0.557
603.70 0.5567
603.80 0.5564
603.90 0.5561
604.00 0.5558
604.10 0.5555
604.20 0.5552
604.30 0.5549
604.40 0.5546
604.50 0.5543
604.60 0.554
604.70 0.5537
604.80 0.5534
604.90 0.5531
605.00 0.5528
605.10 0.5525
605.20 0.5522
605.30 0.552
605.40 0.5517
605.50 0.5514
605.60 0.5511
605.70 0.5508
605.80 0.5505
605.90 0.5502
606.00 0.5499
606.10 0.5496
606.20 0.5493
606.30 0.549
606.40 0.5487
606.50 0.5484
606.60 0.5481
606.70 0.5478
606.80 0.5475
606.90 0.5472
607.00 0.547
607.10 0.5467
607.20 0.5464
607.30 0.5461
607.40 0.5458
607.50 0.5455
607.60 0.5452
607.70 0.5449
607.80 0.5446
607.90 0.5443
608.00 0.544
608.10 0.5438
608.20 0.5435
608.30 0.5432
608.40 0.5429
608.50 0.5426
608.60 0.5423
608.70 0.542
608.80 0.5417
608.90 0.5414
609.00 0.5411
609.10 0.5409
609.20 0.5406
609.30 0.5403
609.40 0.54
609.50 0.5397
609.60 0.5394
609.70 0.5391
609.80 0.5388
609.90 0.5386
610.00 0.5383
610.10 0.538
610.20 0.5377
610.30 0.5374
610.40 0.5371
610.50 0.5368
610.60 0.5366
610.70 0.5363
610.80 0.536
610.90 0.5357
611.00 0.5354
611.10 0.5351
611.20 0.5348
611.30 0.5346
611.40 0.5343
611.50 0.534
611.60 0.5337
611.70 0.5334
611.80 0.5331
611.90 0.5328
612.00 0.5326
612.10 0.5323
612.20 0.532
612.30 0.5317
612.40 0.5314
612.50 0.5312
612.60 0.5309
612.70 0.5306
612.80 0.5303
612.90 0.53
613.00 0.5297
613.10 0.5295
613.20 0.5292
613.30 0.5289
613.40 0.5286
613.50 0.5283
613.60 0.5281
613.70 0.5278
613.80 0.5275
613.90 0.5272
614.00 0.5269
614.10 0.5267
614.20 0.5264
614.30 0.5261
614.40 0.5258
614.50 0.5255
614.60 0.5253
614.70 0.525
614.80 0.5247
614.90 0.5244
615.00 0.5241
615.10 0.5239
615.20 0.5236
615.30 0.5233
615.40 0.523
615.50 0.5227
615.60 0.5225
615.70 0.5222
615.80 0.5219
615.90 0.5216
616.00 0.5214
616.10 0.5211
616.20 0.5208
616.30 0.5205
616.40 0.5203
616.50 0.52
616.60 0.5197
616.70 0.5194
616.80 0.5191
616.90 0.5189
617.00 0.5186
617.10 0.5183
617.20 0.518
617.30 0.5178
617.40 0.5175
617.50 0.5172
617.60 0.517
617.70 0.5167
617.80 0.5164
617.90 0.5161
618.00 0.5159
618.10 0.5156
618.20 0.5153
618.30 0.515
618.40 0.5148
618.50 0.5145
618.60 0.5142
618.70 0.5139
618.80 0.5137
618.90 0.5134
619.00 0.5131
619.10 0.5129
619.20 0.5126
619.30 0.5123
619.40 0.512
619.50 0.5118
619.60 0.5115
619.70 0.5112
619.80 0.5109
619.90 0.5107
620.00 0.5104
620.10 0.5101
620.20 0.5099
620.30 0.5096
620.40 0.5093
620.50 0.509
620.60 0.5088
620.70 0.5085
620.80 0.5082
620.90 0.508
621.00 0.5077
621.10 0.5074
621.20 0.5072
621.30 0.5069
621.40 0.5066
621.50 0.5063
621.60 0.5061
621.70 0.5058
621.80 0.5055
621.90 0.5053
622.00 0.505
622.10 0.5047
622.20 0.5045
622.30 0.5042
622.40 0.5039
622.50 0.5037
622.60 0.5034
622.70 0.5031
622.80 0.5029
622.90 0.5026
623.00 0.5023
623.10 0.5021
623.20 0.5018
623.30 0.5015
623.40 0.5013
623.50 0.501
623.60 0.5007
623.70 0.5005
623.80 0.5002
623.90 0.4999
624.00 0.4997
624.10 0.4994
624.20 0.4991
624.30 0.4989
624.40 0.4986
624.50 0.4983
624.60 0.4981
624.70 0.4978
624.80 0.4975
624.90 0.4973
625.00 0.497
625.10 0.4967
625.20 0.4965
625.30 0.4962
625.40 0.4959
625.50 0.4957
625.60 0.4954
625.70 0.4951
625.80 0.4949
625.90 0.4946
626.00 0.4943
626.10 0.4941
626.20 0.4938
626.30 0.4936
626.40 0.4933
626.50 0.493
626.60 0.4928
626.70 0.4925
626.80 0.4922
626.90 0.492
627.00 0.4917
627.10 0.4914
627.20 0.4912
627.30 0.4909
627.40 0.4906
627.50 0.4904
627.60 0.4901
627.70 0.4899
627.80 0.4896
627.90 0.4893
628.00 0.4891
628.10 0.4888
628.20 0.4885
628.30 0.4883
628.40 0.488
628.50 0.4878
628.60 0.4875
628.70 0.4872
628.80 0.487
628.90 0.4867
629.00 0.4864
629.10 0.4862
629.20 0.4859
629.30 0.4857
629.40 0.4854
629.50 0.4851
629.60 0.4849
629.70 0.4846
629.80 0.4843
629.90 0.4841
630.00 0.4838
630.10 0.4836
630.20 0.4833
630.30 0.483
630.40 0.4828
630.50 0.4825
630.60 0.4822
630.70 0.482
630.80 0.4817
630.90 0.4815
631.00 0.4812
631.10 0.4809
631.20 0.4807
631.30 0.4804
631.40 0.4801
631.50 0.4799
631.60 0.4796
631.70 0.4794
631.80 0.4791
631.90 0.4788
632.00 0.4786
632.10 0.4783
632.20 0.478
632.30 0.4778
632.40 0.4775
632.50 0.4773
632.60 0.477
632.70 0.4767
632.80 0.4765
632.90 0.4762
633.00 0.4759
633.10 0.4757
633.20 0.4754
633.30 0.4751
633.40 0.4749
633.50 0.4746
633.60 0.4744
633.70 0.4741
633.80 0.4738
633.90 0.4736
634.00 0.4733
634.10 0.473
634.20 0.4728
634.30 0.4725
634.40 0.4722
634.50 0.472
634.60 0.4717
634.70 0.4714
634.80 0.4712
634.90 0.4709
635.00 0.4706
635.10 0.4704
635.20 0.4701
635.30 0.4698
635.40 0.4696
635.50 0.4693
635.60 0.469
635.70 0.4688
635.80 0.4685
635.90 0.4682
636.00 0.468
636.10 0.4677
636.20 0.4674
636.30 0.4672
636.40 0.4669
636.50 0.4666
636.60 0.4663
636.70 0.4661
636.80 0.4658
636.90 0.4655
637.00 0.4652
637.10 0.465
637.20 0.4647
637.30 0.4644
637.40 0.4641
637.50 0.4639
637.60 0.4636
637.70 0.4633
637.80 0.463
637.90 0.4628
638.00 0.4625
638.10 0.4622
638.20 0.4619
638.30 0.4617
638.40 0.4614
638.50 0.4611
638.60 0.4608
638.70 0.4605
638.80 0.4602
638.90 0.46
639.00 0.4597
639.10 0.4594
639.20 0.4591
639.30 0.4588
639.40 0.4585
639.50 0.4582
639.60 0.4579
639.70 0.4576
639.80 0.4574
639.90 0.4571
640.00 0.4568
640.10 0.4565
640.20 0.4562
640.30 0.4559
640.40 0.4556
640.50 0.4553
640.60 0.455
640.70 0.4547
640.80 0.4544
640.90 0.4541
641.00 0.4538
641.10 0.4535
641.20 0.4532
641.30 0.4529
641.40 0.4526
641.50 0.4522
641.60 0.4519
641.70 0.4516
641.80 0.4513
641.90 0.451
642.00 0.4507
642.10 0.4503
642.20 0.45
642.30 0.4497
642.40 0.4494
642.50 0.449
642.60 0.4487
642.70 0.4484
642.80 0.448
642.90 0.4477
643.00 0.4474
643.10 0.447
643.20 0.4467
643.30 0.4464
643.40 0.446
643.50 0.4456
643.60 0.4453
643.70 0.4449
643.80 0.4446
643.90 0.4442
644.00 0.4438
644.10 0.4435
644.20 0.4431
644.30 0.4427
644.40 0.4424
644.50 0.442
644.60 0.4416
644.70 0.4412
644.80 0.4408
644.90 0.4404
645.00 0.44
645.10 0.4396
645.20 0.4392
645.30 0.4388
645.40 0.4383
645.50 0.4379
645.60 0.4374
645.70 0.437
645.80 0.4366
645.90 0.4361
646.00 0.4357
646.10 0.4352
646.20 0.4348
646.30 0.4343
646.40 0.4338
646.50 0.4333
646.60 0.4328
646.70 0.4323
646.80 0.4318
646.90 0.4313
647.00 0.4308
647.10 0.4303
647.20 0.4297
647.30 0.4292
647.40 0.4286
647.50 0.428
647.60 0.4274
647.70 0.4268
647.80 0.4262
647.90 0.4256
648.00 0.425
648.10 0.4244
648.20 0.4238
648.30 0.4232
648.40 0.4224
648.50 0.4217
648.60 0.4209
648.70 0.4202
648.80 0.4195
648.90 0.4187
649.00 0.418
649.10 0.4173
649.20 0.4165
649.30 0.4157
649.40 0.4148
649.50 0.4139
649.60 0.413
649.70 0.412
649.80 0.4111
649.90 0.4102
650.00 0.4093
650.10 0.4084
650.20 0.4074
650.30 0.4065
650.40 0.4053
650.50 0.4041
650.60 0.4029
650.70 0.4017
650.80 0.4005
650.90 0.3993
651.00 0.3981
651.10 0.3969
651.20 0.3957
651.30 0.3945
651.40 0.3929
651.50 0.3913
651.60 0.3897
651.70 0.3881
651.80 0.3865
651.90 0.3849
652.00 0.3834
652.10 0.3818
652.20 0.3802
652.30 0.3785
652.40 0.3764
652.50 0.3743
652.60 0.3722
652.70 0.37
652.80 0.3679
652.90 0.3658
653.00 0.3637
653.10 0.3616
653.20 0.3595
653.30 0.3572
653.40 0.3544
653.50 0.3516
653.60 0.3487
653.70 0.3459
653.80 0.3431
653.90 0.3403
654.00 0.3375
654.10 0.3347
654.20 0.3319
654.30 0.3289
654.40 0.3254
654.50 0.322
654.60 0.3185
654.70 0.315
654.80 0.3114
654.90 0.3072
655.00 0.3031
655.10 0.2989
655.20 0.2948
655.30 0.2905
655.40 0.286
655.50 0.2813
655.60 0.2762
655.70 0.271
655.80 0.2651
655.90 0.2588
656.00 0.2507
656.10 0.2419
656.20 0.2096
656.30 0.1781
656.40 0.231
656.50 0.2453
656.60 0.2532
656.70 0.2607
656.80 0.2663
656.90 0.2718
657.00 0.2767
657.10 0.2814
657.20 0.2858
657.30 0.29
657.40 0.2939
657.50 0.2978
657.60 0.3016
657.70 0.3055
657.80 0.3092
657.90 0.3124
658.00 0.3156
658.10 0.3187
658.20 0.3219
658.30 0.3249
658.40 0.3274
658.50 0.3298
658.60 0.3323
658.70 0.3348
658.80 0.3372
658.90 0.3397
659.00 0.3421
659.10 0.3446
659.20 0.3471
659.30 0.3494
659.40 0.3511
659.50 0.3528
659.60 0.3545
659.70 0.3562
659.80 0.3579
659.90 0.3596
660.00 0.3614
660.10 0.3631
660.20 0.3648
660.30 0.3664
660.40 0.3675
660.50 0.3687
660.60 0.3698
660.70 0.371
660.80 0.3722
660.90 0.3733
661.00 0.3745
661.10 0.3756
661.20 0.3768
661.30 0.3778
661.40 0.3786
661.50 0.3793
661.60 0.3801
661.70 0.3808
661.80 0.3816
661.90 0.3823
662.00 0.3831
662.10 0.3838
662.20 0.3846
662.30 0.3852
662.40 0.3857
662.50 0.3862
662.60 0.3867
662.70 0.3871
662.80 0.3876
662.90 0.3881
663.00 0.3885
663.10 0.389
663.20 0.3895
663.30 0.3899
663.40 0.3902
663.50 0.3905
663.60 0.3908
663.70 0.391
663.80 0.3913
663.90 0.3916
664.00 0.3919
664.10 0.3922
664.20 0.3925
664.30 0.3927
664.40 0.3929
664.50 0.393
664.60 0.3932
664.70 0.3933
664.80 0.3935
664.90 0.3936
665.00 0.3938
665.10 0.3939
665.20 0.3941
665.30 0.3942
665.40 0.3943
665.50 0.3943
665.60 0.3944
665.70 0.3944
665.80 0.3945
665.90 0.3946
666.00 0.3946
666.10 0.3947
666.20 0.3947
666.30 0.3948
666.40 0.3948
666.50 0.3948
666.60 0.3948
666.70 0.3948
666.80 0.3948
666.90 0.3948
667.00 0.3948
667.10 0.3947
667.20 0.3947
667.30 0.3947
667.40 0.3947
667.50 0.3946
667.60 0.3946
667.70 0.3945
667.80 0.3945
667.90 0.3944
668.00 0.3944
668.10 0.3943
668.20 0.3943
668.30 0.3942
668.40 0.3941
668.50 0.3941
668.60 0.394
668.70 0.3939
668.80 0.3938
668.90 0.3937
669.00 0.3937
669.10 0.3936
669.20 0.3935
669.30 0.3934
669.40 0.3933
669.50 0.3932
669.60 0.3931
669.70 0.393
669.80 0.3929
669.90 0.3928
670.00 0.3927
670.10 0.3926
670.20 0.3925
670.30 0.3923
670.40 0.3922
670.50 0.3921
670.60 0.392
670.70 0.3919
670.80 0.3917
670.90 0.3916
671.00 0.3915
671.10 0.3914
671.20 0.3912
671.30 0.3911
671.40 0.391
671.50 0.3908
671.60 0.3907
671.70 0.3906
671.80 0.3904
671.90 0.3903
672.00 0.3902
672.10 0.39
672.20 0.3899
672.30 0.3898
672.40 0.3896
672.50 0.3895
672.60 0.3893
672.70 0.3892
672.80 0.389
672.90 0.3889
673.00 0.3887
673.10 0.3886
673.20 0.3884
673.30 0.3883
673.40 0.3882
673.50 0.388
673.60 0.3878
673.70 0.3877
673.80 0.3875
673.90 0.3874
674.00 0.3872
674.10 0.3871
674.20 0.3869
674.30 0.3868
674.40 0.3866
674.50 0.3865
674.60 0.3863
674.70 0.3862
674.80 0.386
674.90 0.3858
675.00 0.3857
675.10 0.3855
675.20 0.3854
675.30 0.3852
675.40 0.385
675.50 0.3849
675.60 0.3847
675.70 0.3846
675.80 0.3844
675.90 0.3842
676.00 0.3841
676.10 0.3839
676.20 0.3838
676.30 0.3836
676.40 0.3834
676.50 0.3833
676.60 0.3831
676.70 0.3829
676.80 0.3828
676.90 0.3826
677.00 0.3824
677.10 0.3823
677.20 0.3821
677.30 0.3819
677.40 0.3818
677.50 0.3816
677.60 0.3814
677.70 0.3813
677.80 0.3811
677.90 0.3809
678.00 0.3808
678.10 0.3806
678.20 0.3804
678.30 0.3803
678.40 0.3801
678.50 0.3799
678.60 0.3798
678.70 0.3796
678.80 0.3794
678.90 0.3793
679.00 0.3791
679.10 0.3789
679.20 0.3788
679.30 0.3786
679.40 0.3784
679.50 0.3783
679.60 0.3781
679.70 0.3779
679.80 0.3777
679.90 0.3776
680.00 0.3774
680.10 0.3772
680.20 0.3771
680.30 0.3769
680.40 0.3767
680.50 0.3766
680.60 0.3764
680.70 0.3762
680.80 0.3761
680.90 0.3759
681.00 0.3757
681.10 0.3755
681.20 0.3754
681.30 0.3752
681.40 0.375
681.50 0.3749
681.60 0.3747
681.70 0.3745
681.80 0.3743
681.90 0.3742
682.00 0.374
682.10 0.3738
682.20 0.3737
682.30 0.3735
682.40 0.3733
682.50 0.3732
682.60 0.373
682.70 0.3728
682.80 0.3726
682.90 0.3725
683.00 0.3723
683.10 0.3721
683.20 0.372
683.30 0.3718
683.40 0.3716
683.50 0.3714
683.60 0.3713
683.70 0.3711
683.80 0.3709
683.90 0.3708
684.00 0.3706
684.10 0.3704
684.20 0.3702
684.30 0.3701
684.40 0.3699
684.50 0.3697
684.60 0.3696
684.70 0.3694
684.80 0.3692
684.90 0.3691
685.00 0.3689
685.10 0.3687
685.20 0.3685
685.30 0.3684
685.40 0.3682
685.50 0.368
685.60 0.3679
685.70 0.3677
685.80 0.3675
685.90 0.3673
686.00 0.3672
686.10 0.367
686.20 0.3668
686.30 0.3667
686.40 0.3665
686.50 0.3663
686.60 0.3662
686.70 0.366
686.80 0.3658
686.90 0.3657
687.00 0.3655
687.10 0.3653
687.20 0.3651
687.30 0.365
687.40 0.3648
687.50 0.3646
687.60 0.3645
687.70 0.3643
687.80 0.3641
687.90 0.364
688.00 0.3638
688.10 0.3636
688.20 0.3635
688.30 0.3633
688.40 0.3631
688.50 0.3629
688.60 0.3628
688.70 0.3626
688.80 0.3624
688.90 0.3623
689.00 0.3621
689.10 0.3619
689.20 0.3618
689.30 0.3616
689.40 0.3614
689.50 0.3613
689.60 0.3611
689.70 0.3609
689.80 0.3608
689.90 0.3606
690.00 0.3604
690.10 0.3602
690.20 0.3601
690.30 0.3599
690.40 0.3597
690.50 0.3596
690.60 0.3594
690.70 0.3592
690.80 0.3591
690.90 0.3589
691.00 0.3587
691.10 0.3586
691.20 0.3584
691.30 0.3582
691.40 0.3581
691.50 0.3579
691.60 0.3577
691.70 0.3576
691.80 0.3574
691.90 0.3572
692.00 0.3571
692.10 0.3569
692.20 0.3567
692.30 0.3566
692.40 0.3564
692.50 0.3562
692.60 0.3561
692.70 0.3559
692.80 0.3557
692.90 0.3556
693.00 0.3554
693.10 0.3552
693.20 0.3551
693.30 0.3549
693.40 0.3547
693.50 0.3546
693.60 0.3544
693.70 0.3542
693.80 0.3541
693.90 0.3539
694.00 0.3537
694.10 0.3536
694.20 0.3534
694.30 0.3533
694.40 0.3531
694.50 0.3529
694.60 0.3528
694.70 0.3526
694.80 0.3524
694.90 0.3523
695.00 0.3521
695.10 0.3519
695.20 0.3518
695.30 0.3516
695.40 0.3514
695.50 0.3513
695.60 0.3511
695.70 0.351
695.80 0.3508
695.90 0.3506
696.00 0.3505
696.10 0.3503
696.20 0.3501
696.30 0.35
696.40 0.3498
696.50 0.3496
696.60 0.3495
696.70 0.3493
696.80 0.3492
696.90 0.349
697.00 0.3488
697.10 0.3487
697.20 0.3485
697.30 0.3483
697.40 0.3482
697.50 0.348
697.60 0.3479
697.70 0.3477
697.80 0.3475
697.90 0.3474
698.00 0.3472
698.10 0.347
698.20 0.3469
698.30 0.3467
698.40 0.3466
698.50 0.3464
698.60 0.3462
698.70 0.3461
698.80 0.3459
698.90 0.3458
699.00 0.3456
699.10 0.3454
699.20 0.3453
699.30 0.3451
699.40 0.3449
699.50 0.3448
699.60 0.3446
699.70 0.3445
699.80 0.3443
699.90 0.3441
700.00 0.344
700.10 0.3438
700.20 0.3437
700.30 0.3436
700.40 0.3434
700.50 0.3433
700.60 0.3431
700.70 0.343
700.80 0.3428
700.90 0.3427
701.00 0.3426
701.10 0.3424
701.20 0.3423
701.30 0.3421
701.40 0.342
701.50 0.3418
701.60 0.3417
701.70 0.3416
701.80 0.3414
701.90 0.3413
702.00 0.3411
702.10 0.341
702.20 0.3408
702.30 0.3407
702.40 0.3406
702.50 0.3404
702.60 0.3403
702.70 0.3401
702.80 0.34
702.90 0.3399
703.00 0.3397
703.10 0.3396
703.20 0.3394
703.30 0.3393
703.40 0.3391
703.50 0.339
703.60 0.3389
703.70 0.3387
703.80 0.3386
703.90 0.3384
704.00 0.3383
704.10 0.3382
704.20 0.338
704.30 0.3379
704.40 0.3377
704.50 0.3376
704.60 0.3375
704.70 0.3373
704.80 0.3372
704.90 0.337
705.00 0.3369
705.10 0.3367
705.20 0.3366
705.30 0.3364
705.40 0.3363
705.50 0.3361
705.60 0.336
705.70 0.3358
705.80 0.3356
705.90 0.3355
706.00 0.3353
706.10 0.3352
706.20 0.335
706.30 0.3349
706.40 0.3347
706.50 0.3346
706.60 0.3344
706.70 0.3342
706.80 0.3341
706.90 0.3339
707.00 0.3338
707.10 0.3336
707.20 0.3335
707.30 0.3333
707.40 0.3332
707.50 0.333
707.60 0.3328
707.70 0.3327
707.80 0.3325
707.90 0.3324
708.00 0.3322
708.10 0.3321
708.20 0.3319
708.30 0.3318
708.40 0.3316
708.50 0.3315
708.60 0.3313
708.70 0.3311
708.80 0.331
708.90 0.3308
709.00 0.3307
709.10 0.3305
709.20 0.3304
709.30 0.3302
709.40 0.3301
709.50 0.3299
709.60 0.3298
709.70 0.3296
709.80 0.3295
709.90 0.3293
710.00 0.3292
710.10 0.329
710.20 0.3289
710.30 0.3287
710.40 0.3285
710.50 0.3284
710.60 0.3282
710.70 0.3281
710.80 0.3279
710.90 0.3278
711.00 0.3276
711.10 0.3275
711.20 0.3273
711.30 0.3272
711.40 0.327
711.50 0.3269
711.60 0.3267
711.70 0.3266
711.80 0.3264
711.90 0.3263
712.00 0.3261
712.10 0.326
712.20 0.3258
712.30 0.3257
712.40 0.3255
712.50 0.3254
712.60 0.3252
712.70 0.3251
712.80 0.3249
712.90 0.3248
713.00 0.3246
713.10 0.3245
713.20 0.3243
713.30 0.3242
713.40 0.324
713.50 0.3239
713.60 0.3237
713.70 0.3236
713.80 0.3234
713.90 0.3233
714.00 0.3231
714.10 0.323
714.20 0.3228
714.30 0.3227
714.40 0.3225
714.50 0.3224
714.60 0.3222
714.70 0.3221
714.80 0.3219
714.90 0.3218
715.00 0.3216
715.10 0.3215
715.20 0.3213
715.30 0.3212
715.40 0.3211
715.50 0.3209
715.60 0.3208
715.70 0.3206
715.80 0.3205
715.90 0.3203
716.00 0.3202
716.10 0.32
716.20 0.3199
716.30 0.3197
716.40 0.3196
716.50 0.3194
716.60 0.3193
716.70 0.3192
716.80 0.319
716.90 0.3189
717.00 0.3187
717.10 0.3186
717.20 0.3184
717.30 0.3183
717.40 0.3181
717.50 0.318
717.60 0.3178
717.70 0.3177
717.80 0.3176
717.90 0.3174
718.00 0.3173
718.10 0.3171
718.20 0.317
718.30 0.3168
718.40 0.3167
718.50 0.3165
718.60 0.3164
718.70 0.3163
718.80 0.3161
718.90 0.316
719.00 0.3158
719.10 0.3157
719.20 0.3155
719.30 0.3154
719.40 0.3153
719.50 0.3151
719.60 0.315
719.70 0.3148
719.80 0.3147
719.90 0.3145
720.00 0.3144
720.10 0.3142
720.20 0.3141
720.30 0.314
720.40 0.3138
720.50 0.3137
720.60 0.3135
720.70 0.3134
720.80 0.3132
720.90 0.3131
721.00 0.313
721.10 0.3128
721.20 0.3127
721.30 0.3125
721.40 0.3124
721.50 0.3122
721.60 0.3121
721.70 0.312
721.80 0.3118
721.90 0.3117
722.00 0.3115
722.10 0.3114
722.20 0.3112
722.30 0.3111
722.40 0.311
722.50 0.3108
722.60 0.3107
722.70 0.3105
722.80 0.3104
722.90 0.3102
723.00 0.3101
723.10 0.31
723.20 0.3098
723.30 0.3097
723.40 0.3095
723.50 0.3094
723.60 0.3092
723.70 0.3091
723.80 0.309
723.90 0.3088
724.00 0.3087
724.10 0.3085
724.20 0.3084
724.30 0.3083
724.40 0.3081
724.50 0.308
724.60 0.3078
724.70 0.3077
724.80 0.3076
724.90 0.3074
725.00 0.3073
725.10 0.3071
725.20 0.307
725.30 0.3069
725.40 0.3067
725.50 0.3066
725.60 0.3064
725.70 0.3063
725.80 0.3062
725.90 0.306
726.00 0.3059
726.10 0.3057
726.20 0.3056
726.30 0.3055
726.40 0.3053
726.50 0.3052
726.60 0.305
726.70 0.3049
726.80 0.3048
726.90 0.3046
727.00 0.3045
727.10 0.3043
727.20 0.3042
727.30 0.3041
727.40 0.3039
727.50 0.3038
727.60 0.3037
727.70 0.3035
727.80 0.3034
727.90 0.3032
728.00 0.3031
728.10 0.303
728.20 0.3028
728.30 0.3027
728.40 0.3026
728.50 0.3024
728.60 0.3023
728.70 0.3021
728.80 0.302
728.90 0.3019
729.00 0.3017
729.10 0.3016
729.20 0.3015
729.30 0.3013
729.40 0.3012
729.50 0.301
729.60 0.3009
729.70 0.3008
729.80 0.3006
729.90 0.3005
730.00 0.3004
730.10 0.3002
730.20 0.3001
730.30 0.2999
730.40 0.2998
730.50 0.2997
730.60 0.2995
730.70 0.2994
730.80 0.2993
730.90 0.2991
731.00 0.299
731.10 0.2989
731.20 0.2987
731.30 0.2986
731.40 0.2985
731.50 0.2983
731.60 0.2982
731.70 0.2981
731.80 0.2979
731.90 0.2978
732.00 0.2977
732.10 0.2975
732.20 0.2974
732.30 0.2973
732.40 0.2971
732.50 0.297
732.60 0.2968
732.70 0.2967
732.80 0.2966
732.90 0.2964
733.00 0.2963
733.10 0.2962
733.20 0.296
733.30 0.2959
733.40 0.2958
733.50 0.2956
733.60 0.2955
733.70 0.2954
733.80 0.2952
733.90 0.2951
734.00 0.295
734.10 0.2948
734.20 0.2947
734.30 0.2946
734.40 0.2944
734.50 0.2943
734.60 0.2942
734.70 0.294
734.80 0.2939
734.90 0.2938
735.00 0.2937
735.10 0.2935
735.20 0.2934
735.30 0.2933
735.40 0.2931
735.50 0.293
735.60 0.2929
735.70 0.2927
735.80 0.2926
735.90 0.2925
736.00 0.2923
736.10 0.2922
736.20 0.2921
736.30 0.2919
736.40 0.2918
736.50 0.2917
736.60 0.2915
736.70 0.2914
736.80 0.2913
736.90 0.2911
737.00 0.291
737.10 0.2909
737.20 0.2908
737.30 0.2906
737.40 0.2905
737.50 0.2904
737.60 0.2902
737.70 0.2901
737.80 0.29
737.90 0.2898
738.00 0.2897
738.10 0.2896
738.20 0.2894
738.30 0.2893
738.40 0.2892
738.50 0.2891
738.60 0.2889
738.70 0.2888
738.80 0.2887
738.90 0.2885
739.00 0.2884
739.10 0.2883
739.20 0.2881
739.30 0.288
739.40 0.2879
739.50 0.2878
739.60 0.2876
739.70 0.2875
739.80 0.2874
739.90 0.2872
740.00 0.2871
740.10 0.287
740.20 0.2868
740.30 0.2867
740.40 0.2866
740.50 0.2865
740.60 0.2863
740.70 0.2862
740.80 0.2861
740.90 0.286
741.00 0.2858
741.10 0.2857
741.20 0.2856
741.30 0.2854
741.40 0.2853
741.50 0.2852
741.60 0.2851
741.70 0.2849
741.80 0.2848
741.90 0.2847
742.00 0.2846
742.10 0.2844
742.20 0.2843
742.30 0.2842
742.40 0.284
742.50 0.2839
742.60 0.2838
742.70 0.2837
742.80 0.2835
742.90 0.2834
743.00 0.2833
743.10 0.2832
743.20 0.283
743.30 0.2829
743.40 0.2828
743.50 0.2827
743.60 0.2825
743.70 0.2824
743.80 0.2823
743.90 0.2822
744.00 0.282
744.10 0.2819
744.20 0.2818
744.30 0.2816
744.40 0.2815
744.50 0.2814
744.60 0.2813
744.70 0.2811
744.80 0.281
744.90 0.2809
745.00 0.2808
745.10 0.2806
745.20 0.2805
745.30 0.2804
745.40 0.2803
745.50 0.2801
745.60 0.28
745.70 0.2799
745.80 0.2798
745.90 0.2796
746.00 0.2795
746.10 0.2794
746.20 0.2793
746.30 0.2791
746.40 0.279
746.50 0.2789
746.60 0.2788
746.70 0.2786
746.80 0.2785
746.90 0.2784
747.00 0.2783
747.10 0.2782
747.20 0.278
747.30 0.2779
747.40 0.2778
747.50 0.2777
747.60 0.2775
747.70 0.2774
747.80 0.2773
747.90 0.2772
748.00 0.277
748.10 0.2769
748.20 0.2768
748.30 0.2767
748.40 0.2765
748.50 0.2764
748.60 0.2763
748.70 0.2762
748.80 0.2761
748.90 0.2759
749.00 0.2758
749.10 0.2757
749.20 0.2756
749.30 0.2754
749.40 0.2753
749.50 0.2752
749.60 0.2751
749.70 0.2749
749.80 0.2748
749.90 0.2747
750.00 0.2746
750.10 0.2745
750.20 0.2743
750.30 0.2742
750.40 0.2741
750.50 0.274
750.60 0.2739
750.70 0.2737
750.80 0.2736
750.90 0.2735
751.00 0.2734
751.10 0.2732
751.20 0.2731
751.30 0.273
751.40 0.2729
751.50 0.2728
751.60 0.2726
751.70 0.2725
751.80 0.2724
751.90 0.2723
752.00 0.2722
752.10 0.272
752.20 0.2719
752.30 0.2718
752.40 0.2717
752.50 0.2716
752.60 0.2714
752.70 0.2713
752.80 0.2712
752.90 0.2711
753.00 0.271
753.10 0.2708
753.20 0.2707
753.30 0.2706
753.40 0.2705
753.50 0.2704
753.60 0.2703
753.70 0.2701
753.80 0.27
753.90 0.2699
754.00 0.2698
754.10 0.2697
754.20 0.2695
754.30 0.2694
754.40 0.2693
754.50 0.2692
754.60 0.2691
754.70 0.2689
754.80 0.2688
754.90 0.2687
755.00 0.2686
755.10 0.2685
755.20 0.2684
755.30 0.2682
755.40 0.2681
755.50 0.268
755.60 0.2679
755.70 0.2678
755.80 0.2676
755.90 0.2675
756.00 0.2674
756.10 0.2673
756.20 0.2672
756.30 0.2671
756.40 0.2669
756.50 0.2668
756.60 0.2667
756.70 0.2666
756.80 0.2665
756.90 0.2663
757.00 0.2662
757.10 0.2661
757.20 0.266
757.30 0.2659
757.40 0.2658
757.50 0.2656
757.60 0.2655
757.70 0.2654
757.80 0.2653
757.90 0.2652
758.00 0.2651
758.10 0.2649
758.20 0.2648
758.30 0.2647
758.40 0.2646
758.50 0.2645
758.60 0.2644
758.70 0.2642
758.80 0.2641
758.90 0.264
759.00 0.2639
759.10 0.2638
759.20 0.2637
759.30 0.2635
759.40 0.2634
759.50 0.2633
759.60 0.2632
759.70 0.2631
759.80 0.263
759.90 0.2628
760.00 0.2627
760.10 0.2626
760.20 0.2625
760.30 0.2624
760.40 0.2623
760.50 0.2622
760.60 0.262
760.70 0.2619
760.80 0.2618
760.90 0.2617
761.00 0.2616
761.10 0.2615
761.20 0.2614
761.30 0.2612
761.40 0.2611
761.50 0.261
761.60 0.2609
761.70 0.2608
761.80 0.2607
761.90 0.2606
762.00 0.2605
762.10 0.2603
762.20 0.2602
762.30 0.2601
762.40 0.26
762.50 0.2599
762.60 0.2598
762.70 0.2597
762.80 0.2595
762.90 0.2594
763.00 0.2593
763.10 0.2592
763.20 0.2591
763.30 0.259
763.40 0.2589
763.50 0.2588
763.60 0.2586
763.70 0.2585
763.80 0.2584
763.90 0.2583
764.00 0.2582
764.10 0.2581
764.20 0.258
764.30 0.2579
764.40 0.2577
764.50 0.2576
764.60 0.2575
764.70 0.2574
764.80 0.2573
764.90 0.2572
765.00 0.2571
765.10 0.257
765.20 0.2568
765.30 0.2567
765.40 0.2566
765.50 0.2565
765.60 0.2564
765.70 0.2563
765.80 0.2562
765.90 0.2561
766.00 0.2559
766.10 0.2558
766.20 0.2557
766.30 0.2556
766.40 0.2555
766.50 0.2554
766.60 0.2553
766.70 0.2552
766.80 0.2551
766.90 0.2549
767.00 0.2548
767.10 0.2547
767.20 0.2546
767.30 0.2545
767.40 0.2544
767.50 0.2543
767.60 0.2542
767.70 0.2541
767.80 0.2539
767.90 0.2538
768.00 0.2537
768.10 0.2536
768.20 0.2535
768.30 0.2534
768.40 0.2533
768.50 0.2532
768.60 0.2531
768.70 0.253
768.80 0.2528
768.90 0.2527
769.00 0.2526
769.10 0.2525
769.20 0.2524
769.30 0.2523
769.40 0.2522
769.50 0.2521
769.60 0.252
769.70 0.2519
769.80 0.2517
769.90 0.2516
770.00 0.2515
770.10 0.2514
770.20 0.2513
770.30 0.2512
770.40 0.2511
770.50 0.251
770.60 0.2509
770.70 0.2508
770.80 0.2507
770.90 0.2506
771.00 0.2504
771.10 0.2503
771.20 0.2502
771.30 0.2501
771.40 0.25
771.50 0.2499
771.60 0.2498
771.70 0.2497
771.80 0.2496
771.90 0.2495
772.00 0.2494
772.10 0.2493
772.20 0.2492
772.30 0.249
772.40 0.2489
772.50 0.2488
772.60 0.2487
772.70 0.2486
772.80 0.2485
772.90 0.2484
773.00 0.2483
773.10 0.2482
773.20 0.2481
773.30 0.248
773.40 0.2479
773.50 0.2478
773.60 0.2477
773.70 0.2475
773.80 0.2474
773.90 0.2473
774.00 0.2472
774.10 0.2471
774.20 0.247
774.30 0.2469
774.40 0.2468
774.50 0.2467
774.60 0.2466
774.70 0.2465
774.80 0.2464
774.90 0.2463
775.00 0.2462
775.10 0.2461
775.20 0.2459
775.30 0.2458
775.40 0.2457
775.50 0.2456
775.60 0.2455
775.70 0.2454
775.80 0.2453
775.90 0.2452
776.00 0.2451
776.10 0.245
776.20 0.2449
776.30 0.2448
776.40 0.2447
776.50 0.2446
776.60 0.2445
776.70 0.2444
776.80 0.2443
776.90 0.2442
777.00 0.244
777.10 0.2439
777.20 0.2438
777.30 0.2437
777.40 0.2436
777.50 0.2435
777.60 0.2434
777.70 0.2433
777.80 0.2432
777.90 0.2431
778.00 0.243
778.10 0.2429
778.20 0.2428
778.30 0.2427
778.40 0.2426
778.50 0.2425
778.60 0.2424
778.70 0.2423
778.80 0.2422
778.90 0.2421
779.00 0.242
779.10 0.2418
779.20 0.2417
779.30 0.2416
779.40 0.2415
779.50 0.2414
779.60 0.2413
779.70 0.2412
779.80 0.2411
779.90 0.241
780.00 0.2409
780.10 0.2408
780.20 0.2407
780.30 0.2406
780.40 0.2405
780.50 0.2404
780.60 0.2403
780.70 0.2402
780.80 0.2401
780.90 0.24
781.00 0.2399
781.10 0.2398
781.20 0.2397
781.30 0.2396
781.40 0.2395
781.50 0.2394
781.60 0.2393
781.70 0.2392
781.80 0.2391
781.90 0.239
782.00 0.2389
782.10 0.2388
782.20 0.2387
782.30 0.2386
782.40 0.2385
782.50 0.2384
782.60 0.2383
782.70 0.2382
782.80 0.2381
782.90 0.238
783.00 0.2379
783.10 0.2377
783.20 0.2376
783.30 0.2375
783.40 0.2374
783.50 0.2373
783.60 0.2372
783.70 0.2371
783.80 0.237
783.90 0.2369
784.00 0.2368
784.10 0.2367
784.20 0.2366
784.30 0.2365
784.40 0.2364
784.50 0.2363
784.60 0.2362
784.70 0.2361
784.80 0.236
784.90 0.2359
785.00 0.2358
785.10 0.2357
785.20 0.2356
785.30 0.2355
785.40 0.2354
785.50 0.2353
785.60 0.2352
785.70 0.2351
785.80 0.235
785.90 0.2349
786.00 0.2348
786.10 0.2347
786.20 0.2346
786.30 0.2345
786.40 0.2344
786.50 0.2343
786.60 0.2342
786.70 0.2341
786.80 0.234
786.90 0.2339
787.00 0.2338
787.10 0.2337
787.20 0.2336
787.30 0.2335
787.40 0.2334
787.50 0.2333
787.60 0.2332
787.70 0.2331
787.80 0.233
787.90 0.2329
788.00 0.2328
788.10 0.2327
788.20 0.2326
788.30 0.2325
788.40 0.2324
788.50 0.2323
788.60 0.2322
788.70 0.2321
788.80 0.232
788.90 0.2319
789.00 0.2318
789.10 0.2317
789.20 0.2316
789.30 0.2315
789.40 0.2314
789.50 0.2314
789.60 0.2313
789.70 0.2312
789.80 0.2311
789.90 0.231
790.00 0.2309
790.10 0.2308
790.20 0.2307
790.30 0.2306
790.40 0.2305
790.50 0.2304
790.60 0.2303
790.70 0.2302
790.80 0.2301
790.90 0.23
791.00 0.2299
791.10 0.2298
791.20 0.2297
791.30 0.2296
791.40 0.2295
791.50 0.2294
791.60 0.2293
791.70 0.2292
791.80 0.2291
791.90 0.229
792.00 0.2289
792.10 0.2288
792.20 0.2287
792.30 0.2286
792.40 0.2285
792.50 0.2284
792.60 0.2283
792.70 0.2282
792.80 0.2281
792.90 0.2281
793.00 0.228
793.10 0.2279
793.20 0.2278
793.30 0.2277
793.40 0.2276
793.50 0.2275
793.60 0.2274
793.70 0.2273
793.80 0.2272
793.90 0.2271
794.00 0.227
794.10 0.2269
794.20 0.2268
794.30 0.2267
794.40 0.2266
794.50 0.2265
794.60 0.2264
794.70 0.2263
794.80 0.2262
794.90 0.2261
795.00 0.226
795.10 0.2259
795.20 0.2259
795.30 0.2258
795.40 0.2257
795.50 0.2256
795.60 0.2255
795.70 0.2254
795.80 0.2253
795.90 0.2252
796.00 0.2251
796.10 0.225
796.20 0.2249
796.30 0.2248
796.40 0.2247
796.50 0.2246
796.60 0.2245
796.70 0.2244
796.80 0.2243
796.90 0.2242
797.00 0.2241
797.10 0.224
797.20 0.224
797.30 0.2239
797.40 0.2238
797.50 0.2237
797.60 0.2236
797.70 0.2235
797.80 0.2234
797.90 0.2233
798.00 0.2232
798.10 0.2231
798.20 0.223
798.30 0.2229
798.40 0.2228
798.50 0.2227
798.60 0.2226
798.70 0.2225
798.80 0.2225
798.90 0.2224
799.00 0.2223
799.10 0.2222
799.20 0.2221
799.30 0.222
799.40 0.2219
799.50 0.2218
799.60 0.2217
799.70 0.2216
799.80 0.2215
799.90 0.2214
800.00 0.2213
800.10 0.2212
800.20 0.2211
800.30 0.2211
800.40 0.221
800.50 0.2209
800.60 0.2208
800.70 0.2207
800.80 0.2206
800.90 0.2205
801.00 0.2204
801.10 0.2203
801.20 0.2202
801.30 0.2201
801.40 0.22
801.50 0.2199
801.60 0.2199
801.70 0.2198
801.80 0.2197
801.90 0.2196
802.00 0.2195
802.10 0.2194
802.20 0.2193
802.30 0.2192
802.40 0.2191
802.50 0.219
802.60 0.2189
802.70 0.2188
802.80 0.2188
802.90 0.2187
803.00 0.2186
803.10 0.2185
803.20 0.2184
803.30 0.2183
803.40 0.2182
803.50 0.2181
803.60 0.218
803.70 0.2179
803.80 0.2178
803.90 0.2178
804.00 0.2177
804.10 0.2176
804.20 0.2175
804.30 0.2174
804.40 0.2173
804.50 0.2172
804.60 0.2171
804.70 0.217
804.80 0.2169
804.90 0.2169
805.00 0.2168
805.10 0.2167
805.20 0.2166
805.30 0.2165
805.40 0.2164
805.50 0.2163
805.60 0.2162
805.70 0.2161
805.80 0.216
805.90 0.2159
806.00 0.2159
806.10 0.2158
806.20 0.2157
806.30 0.2156
806.40 0.2155
806.50 0.2154
806.60 0.2153
806.70 0.2152
806.80 0.2151
806.90 0.2151
807.00 0.215
807.10 0.2149
807.20 0.2148
807.30 0.2147
807.40 0.2146
807.50 0.2145
807.60 0.2144
807.70 0.2143
807.80 0.2142
807.90 0.2142
808.00 0.2141
808.10 0.214
808.20 0.2139
808.30 0.2138
808.40 0.2137
808.50 0.2136
808.60 0.2135
808.70 0.2134
808.80 0.2134
808.90 0.2133
809.00 0.2132
809.10 0.2131
809.20 0.213
809.30 0.2129
809.40 0.2128
809.50 0.2127
809.60 0.2126
809.70 0.2126
809.80 0.2125
809.90 0.2124
810.00 0.2123
810.10 0.2122
810.20 0.2121
810.30 0.212
810.40 0.2119
810.50 0.2119
810.60 0.2118
810.70 0.2117
810.80 0.2116
810.90 0.2115
811.00 0.2114
811.10 0.2113
811.20 0.2112
811.30 0.2112
811.40 0.2111
811.50 0.211
811.60 0.2109
811.70 0.2108
811.80 0.2107
811.90 0.2106
812.00 0.2105
812.10 0.2105
812.20 0.2104
812.30 0.2103
812.40 0.2102
812.50 0.2101
812.60 0.21
812.70 0.2099
812.80 0.2099
812.90 0.2098
813.00 0.2097
813.10 0.2096
813.20 0.2095
813.30 0.2094
813.40 0.2093
813.50 0.2092
813.60 0.2092
813.70 0.2091
813.80 0.209
813.90 0.2089
814.00 0.2088
814.10 0.2087
814.20 0.2086
814.30 0.2086
814.40 0.2085
814.50 0.2084
814.60 0.2083
814.70 0.2082
814.80 0.2081
814.90 0.208
815.00 0.208
815.10 0.2079
815.20 0.2078
815.30 0.2077
815.40 0.2076
815.50 0.2075
815.60 0.2074
815.70 0.2074
815.80 0.2073
815.90 0.2072
816.00 0.2071
816.10 0.207
816.20 0.2069
816.30 0.2068
816.40 0.2068
816.50 0.2067
816.60 0.2066
816.70 0.2065
816.80 0.2064
816.90 0.2063
817.00 0.2062
817.10 0.2062
817.20 0.2061
817.30 0.206
817.40 0.2059
817.50 0.2058
817.60 0.2057
817.70 0.2057
817.80 0.2056
817.90 0.2055
818.00 0.2054
818.10 0.2053
818.20 0.2052
818.30 0.2051
818.40 0.2051
818.50 0.205
818.60 0.2049
818.70 0.2048
818.80 0.2047
818.90 0.2046
819.00 0.2046
819.10 0.2045
819.20 0.2044
819.30 0.2043
819.40 0.2042
819.50 0.2041
819.60 0.204
819.70 0.204
819.80 0.2039
819.90 0.2038
820.00 0.2037
820.10 0.2036
820.20 0.2035
820.30 0.2035
820.40 0.2034
820.50 0.2033
820.60 0.2032
820.70 0.2031
820.80 0.203
820.90 0.203
821.00 0.2029
821.10 0.2028
821.20 0.2027
821.30 0.2026
821.40 0.2025
821.50 0.2025
821.60 0.2024
821.70 0.2023
821.80 0.2022
821.90 0.2021
822.00 0.202
822.10 0.202
822.20 0.2019
822.30 0.2018
822.40 0.2017
822.50 0.2016
822.60 0.2016
822.70 0.2015
822.80 0.2014
822.90 0.2013
823.00 0.2012
823.10 0.2011
823.20 0.2011
823.30 0.201
823.40 0.2009
823.50 0.2008
823.60 0.2007
823.70 0.2006
823.80 0.2006
823.90 0.2005
824.00 0.2004
824.10 0.2003
824.20 0.2002
824.30 0.2002
824.40 0.2001
824.50 0.2
824.60 0.1999
824.70 0.1998
824.80 0.1997
824.90 0.1997
825.00 0.1996
825.10 0.1995
825.20 0.1994
825.30 0.1993
825.40 0.1993
825.50 0.1992
825.60 0.1991
825.70 0.199
825.80 0.1989
825.90 0.1989
826.00 0.1988
826.10 0.1987
826.20 0.1986
826.30 0.1985
826.40 0.1984
826.50 0.1984
826.60 0.1983
826.70 0.1982
826.80 0.1981
826.90 0.198
827.00 0.198
827.10 0.1979
827.20 0.1978
827.30 0.1977
827.40 0.1976
827.50 0.1976
827.60 0.1975
827.70 0.1974
827.80 0.1973
827.90 0.1972
828.00 0.1972
828.10 0.1971
828.20 0.197
828.30 0.1969
828.40 0.1968
828.50 0.1968
828.60 0.1967
828.70 0.1966
828.80 0.1965
828.90 0.1964
829.00 0.1964
829.10 0.1963
829.20 0.1962
829.30 0.1961
829.40 0.196
829.50 0.196
829.60 0.1959
829.70 0.1958
829.80 0.1957
829.90 0.1956
830.00 0.1956
830.10 0.1955
830.20 0.1954
830.30 0.1953
830.40 0.1952
830.50 0.1952
830.60 0.1951
830.70 0.195
830.80 0.1949
830.90 0.1949
831.00 0.1948
831.10 0.1947
831.20 0.1946
831.30 0.1945
831.40 0.1945
831.50 0.1944
831.60 0.1943
831.70 0.1942
831.80 0.1941
831.90 0.1941
832.00 0.194
832.10 0.1939
832.20 0.1938
832.30 0.1937
832.40 0.1937
832.50 0.1936
832.60 0.1935
832.70 0.1934
832.80 0.1934
832.90 0.1933
833.00 0.1932
833.10 0.1931
833.20 0.193
833.30 0.193
833.40 0.1929
833.50 0.1928
833.60 0.1927
833.70 0.1927
833.80 0.1926
833.90 0.1925
834.00 0.1924
834.10 0.1923
834.20 0.1923
834.30 0.1922
834.40 0.1921
834.50 0.192
834.60 0.192
834.70 0.1919
834.80 0.1918
834.90 0.1917
835.00 0.1916
835.10 0.1916
835.20 0.1915
835.30 0.1914
835.40 0.1913
835.50 0.1913
835.60 0.1912
835.70 0.1911
835.80 0.191
835.90 0.1909
836.00 0.1909
836.10 0.1908
836.20 0.1907
836.30 0.1906
836.40 0.1906
836.50 0.1905
836.60 0.1904
836.70 0.1903
836.80 0.1903
836.90 0.1902
837.00 0.1901
837.10 0.19
837.20 0.1899
837.30 0.1899
837.40 0.1898
837.50 0.1897
837.60 0.1896
837.70 0.1896
837.80 0.1895
837.90 0.1894
838.00 0.1893
838.10 0.1893
838.20 0.1892
838.30 0.1891
838.40 0.189
838.50 0.189
838.60 0.1889
838.70 0.1888
838.80 0.1887
838.90 0.1886
839.00 0.1886
839.10 0.1885
839.20 0.1884
839.30 0.1883
839.40 0.1883
839.50 0.1882
839.60 0.1881
839.70 0.188
839.80 0.188
839.90 0.1879
840.00 0.1878
840.10 0.1877
840.20 0.1877
840.30 0.1876
840.40 0.1875
840.50 0.1874
840.60 0.1874
840.70 0.1873
840.80 0.1872
840.90 0.1871
841.00 0.1871
841.10 0.187
841.20 0.1869
841.30 0.1868
841.40 0.1868
841.50 0.1867
841.60 0.1866
841.70 0.1865
841.80 0.1865
841.90 0.1864
842.00 0.1863
842.10 0.1862
842.20 0.1862
842.30 0.1861
842.40 0.186
842.50 0.1859
842.60 0.1858
842.70 0.1858
842.80 0.1857
842.90 0.1856
843.00 0.1855
843.10 0.1855
843.20 0.1854
843.30 0.1853
843.40 0.1852
843.50 0.1851
843.60 0.1851
843.70 0.185
843.80 0.1849
843.90 0.1848
844.00 0.1848
844.10 0.1847
844.20 0.1846
844.30 0.1845
844.40 0.1845
844.50 0.1844
844.60 0.1843
844.70 0.1842
844.80 0.1841
844.90 0.1841
845.00 0.184
845.10 0.1839
845.20 0.1838
845.30 0.1838
845.40 0.1837
845.50 0.1836
845.60 0.1835
845.70 0.1835
845.80 0.1834
845.90 0.1833
846.00 0.1832
846.10 0.1832
846.20 0.1831
846.30 0.183
846.40 0.1829
846.50 0.1828
846.60 0.1828
846.70 0.1827
846.80 0.1826
846.90 0.1825
847.00 0.1825
847.10 0.1825
847.20 0.1824
847.30 0.1824
847.40 0.1824
847.50 0.1824
847.60 0.1824
847.70 0.1824
847.80 0.1824
847.90 0.1823
848.00 0.1823
848.10 0.1823
848.20 0.1823
848.30 0.1823
848.40 0.1823
848.50 0.1823
848.60 0.1822
848.70 0.1822
848.80 0.1822
848.90 0.1822
849.00 0.1822
849.10 0.1822
849.20 0.1821
849.30 0.1821
849.40 0.1821
849.50 0.1821
849.60 0.1821
849.70 0.1821
849.80 0.1821
849.90 0.182
850.00 0.182
850.10 0.182
850.20 0.182
850.30 0.182
850.40 0.182
850.50 0.182
850.60 0.1819
850.70 0.1819
850.80 0.1819
850.90 0.1819
851.00 0.1819
851.10 0.1819
851.20 0.1819
851.30 0.1818
851.40 0.1818
851.50 0.1818
851.60 0.1818
851.70 0.1818
851.80 0.1818
851.90 0.1818
852.00 0.1817
852.10 0.1817
852.20 0.1817
852.30 0.1816
852.40 0.1816
852.50 0.1816
852.60 0.1815
852.70 0.1815
852.80 0.1815
852.90 0.1814
853.00 0.1814
853.10 0.1813
853.20 0.1813
853.30 0.1813
853.40 0.1812
853.50 0.1812
853.60 0.1812
853.70 0.1811
853.80 0.1811
853.90 0.181
854.00 0.181
854.10 0.181
854.20 0.1809
854.30 0.1809
854.40 0.1809
854.50 0.1808
854.60 0.1808
854.70 0.1808
854.80 0.1807
854.90 0.1807
855.00 0.1806
855.10 0.1806
855.20 0.1806
855.30 0.1805
855.40 0.1805
855.50 0.1805
855.60 0.1804
855.70 0.1804
855.80 0.1804
855.90 0.1803
856.00 0.1803
856.10 0.1802
856.20 0.1802
856.30 0.1802
856.40 0.1801
856.50 0.1801
856.60 0.1801
856.70 0.18
856.80 0.18
856.90 0.18
857.00 0.1799
857.10 0.1799
857.20 0.1799
857.30 0.1798
857.40 0.1798
857.50 0.1798
857.60 0.1797
857.70 0.1797
857.80 0.1796
857.90 0.1796
858.00 0.1796
858.10 0.1795
858.20 0.1795
858.30 0.1795
858.40 0.1794
858.50 0.1794
858.60 0.1794
858.70 0.1793
858.80 0.1793
858.90 0.1793
859.00 0.1792
859.10 0.1792
859.20 0.1792
859.30 0.1791
859.40 0.1791
859.50 0.1791
859.60 0.179
859.70 0.179
859.80 0.179
859.90 0.1789
860.00 0.1789
860.10 0.1789
860.20 0.1788
860.30 0.1788
860.40 0.1788
860.50 0.1787
860.60 0.1787
860.70 0.1787
860.80 0.1786
860.90 0.1786
861.00 0.1786
861.10 0.1785
861.20 0.1785
861.30 0.1785
861.40 0.1784
861.50 0.1784
861.60 0.1784
861.70 0.1783
861.80 0.1783
861.90 0.1783
862.00 0.1782
862.10 0.1781
862.20 0.1779
862.30 0.1777
862.40 0.1776
862.50 0.1774
862.60 0.1773
862.70 0.1771
862.80 0.177
862.90 0.1768
863.00 0.1767
863.10 0.1765
863.20 0.1763
863.30 0.1762
863.40 0.176
863.50 0.1759
863.60 0.1757
863.70 0.1756
863.80 0.1754
863.90 0.1752
864.00 0.1751
864.10 0.1749
864.20 0.1748
864.30 0.1746
864.40 0.1745
864.50 0.1743
864.60 0.1742
864.70 0.174
864.80 0.1738
864.90 0.1737
865.00 0.1735
865.10 0.1734
865.20 0.1732
865.30 0.1731
865.40 0.1729
865.50 0.1728
865.60 0.1726
865.70 0.1725
865.80 0.1723
865.90 0.1721
866.00 0.172
866.10 0.1718
866.20 0.1717
866.30 0.1715
866.40 0.1714
866.50 0.1712
866.60 0.1711
866.70 0.1709
866.80 0.1708
866.90 0.1706
867.00 0.1704
867.10 0.1705
867.20 0.1706
867.30 0.1706
867.40 0.1707
867.50 0.1708
867.60 0.1708
867.70 0.1709
867.80 0.171
867.90 0.1711
868.00 0.1711
868.10 0.1712
868.20 0.1713
868.30 0.1713
868.40 0.1714
868.50 0.1715
868.60 0.1715
868.70 0.1716
868.80 0.1717
868.90 0.1717
869.00 0.1718
869.10 0.1719
869.20 0.1719
869.30 0.172
869.40 0.1721
869.50 0.1721
869.60 0.1722
869.70 0.1723
869.80 0.1723
869.90 0.1724
870.00 0.1725
870.10 0.1725
870.20 0.1726
870.30 0.1726
870.40 0.1727
870.50 0.1728
870.60 0.1728
870.70 0.1729
870.80 0.173
870.90 0.173
871.00 0.1731
871.10 0.1732
871.20 0.1732
871.30 0.1733
871.40 0.1734
871.50 0.1734
871.60 0.1735
871.70 0.1736
871.80 0.1736
871.90 0.1737
872.00 0.1738
872.10 0.1736
872.20 0.1734
872.30 0.1733
872.40 0.1731
872.50 0.173
872.60 0.1728
872.70 0.1726
872.80 0.1725
872.90 0.1723
873.00 0.1721
873.10 0.172
873.20 0.1718
873.30 0.1717
873.40 0.1715
873.50 0.1713
873.60 0.1712
873.70 0.171
873.80 0.1708
873.90 0.1707
874.00 0.1705
874.10 0.1704
874.20 0.1702
874.30 0.17
874.40 0.1699
874.50 0.1697
874.60 0.1696
874.70 0.1694
874.80 0.1692
874.90 0.1691
875.00 0.1689
875.10 0.1687
875.20 0.1686
875.30 0.1684
875.40 0.1683
875.50 0.1681
875.60 0.1679
875.70 0.1678
875.80 0.1676
875.90 0.1675
876.00 0.1673
876.10 0.1671
876.20 0.167
876.30 0.1668
876.40 0.1667
876.50 0.1665
876.60 0.1663
876.70 0.1662
876.80 0.166
876.90 0.1659
877.00 0.1657
877.10 0.1658
877.20 0.1658
877.30 0.1659
877.40 0.1659
877.50 0.166
877.60 0.166
877.70 0.1661
877.80 0.1661
877.90 0.1662
878.00 0.1663
878.10 0.1663
878.20 0.1664
878.30 0.1664
878.40 0.1665
878.50 0.1665
878.60 0.1666
878.70 0.1666
878.80 0.1667
878.90 0.1668
879.00 0.1668
879.10 0.1669
879.20 0.1669
879.30 0.167
879.40 0.167
879.50 0.1671
879.60 0.1671
879.70 0.1672
879.80 0.1672
879.90 0.1673
880.00 0.1674
880.10 0.1674
880.20 0.1675
880.30 0.1675
880.40 0.1676
880.50 0.1676
880.60 0.1677
880.70 0.1677
880.80 0.1678
880.90 0.1678
881.00 0.1679
881.10 0.168
881.20 0.168
881.30 0.1681
881.40 0.1681
881.50 0.1682
881.60 0.1682
881.70 0.1683
881.80 0.1683
881.90 0.1684
882.00 0.1684
882.10 0.1679
882.20 0.1674
882.30 0.1668
882.40 0.1663
882.50 0.1658
882.60 0.1652
882.70 0.1647
882.80 0.1642
882.90 0.1636
883.00 0.1631
883.10 0.1626
883.20 0.162
883.30 0.1615
883.40 0.161
883.50 0.1604
883.60 0.1599
883.70 0.1594
883.80 0.1588
883.90 0.1583
884.00 0.1578
884.10 0.1572
884.20 0.1567
884.30 0.1562
884.40 0.1556
884.50 0.1551
884.60 0.1546
884.70 0.1541
884.80 0.1535
884.90 0.153
885.00 0.1525
885.10 0.1519
885.20 0.1514
885.30 0.1509
885.40 0.1504
885.50 0.1498
885.60 0.1493
885.70 0.1488
885.80 0.1482
885.90 0.1477
886.00 0.1472
886.10 0.1467
886.20 0.1461
886.30 0.1456
886.40 0.1451
886.50 0.1446
886.60 0.144
886.70 0.1435
886.80 0.143
886.90 0.1425
887.00 0.1419
887.10 0.1423
887.20 0.1427
887.30 0.1431
887.40 0.1435
887.50 0.1439
887.60 0.1443
887.70 0.1447
887.80 0.1451
887.90 0.1455
888.00 0.1459
888.10 0.1463
888.20 0.1467
888.30 0.1471
888.40 0.1475
888.50 0.1479
888.60 0.1483
888.70 0.1487
888.80 0.1491
888.90 0.1495
889.00 0.1499
889.10 0.1503
889.20 0.1507
889.30 0.1511
889.40 0.1515
889.50 0.1519
889.60 0.1523
889.70 0.1527
889.80 0.1531
889.90 0.1535
890.00 0.1539
890.10 0.1543
890.20 0.1547
890.30 0.1551
890.40 0.1555
890.50 0.1559
890.60 0.1563
890.70 0.1567
890.80 0.1571
890.90 0.1575
891.00 0.1579
891.10 0.1583
891.20 0.1587
891.30 0.1591
891.40 0.1595
891.50 0.1599
891.60 0.1602
891.70 0.1606
891.80 0.161
891.90 0.1614
892.00 0.1618
892.10 0.1616
892.20 0.1615
892.30 0.1613
892.40 0.1611
892.50 0.161
892.60 0.1608
892.70 0.1606
892.80 0.1605
892.90 0.1603
893.00 0.1601
893.10 0.1599
893.20 0.1598
893.30 0.1596
893.40 0.1594
893.50 0.1593
893.60 0.1591
893.70 0.1589
893.80 0.1588
893.90 0.1586
894.00 0.1584
894.10 0.1582
894.20 0.1581
894.30 0.1579
894.40 0.1577
894.50 0.1576
894.60 0.1574
894.70 0.1572
894.80 0.1571
894.90 0.1569
895.00 0.1567
895.10 0.1566
895.20 0.1564
895.30 0.1562
895.40 0.1561
895.50 0.1559
895.60 0.1557
895.70 0.1555
895.80 0.1554
895.90 0.1552
896.00 0.155
896.10 0.1549
896.20 0.1547
896.30 0.1545
896.40 0.1544
896.50 0.1542
896.60 0.154
896.70 0.1539
896.80 0.1537
896.90 0.1535
897.00 0.1534
897.10 0.1528
897.20 0.1522
897.30 0.1517
897.40 0.1511
897.50 0.1505
897.60 0.15
897.70 0.1494
897.80 0.1488
897.90 0.1483
898.00 0.1477
898.10 0.1472
898.20 0.1466
898.30 0.146
898.40 0.1455
898.50 0.1449
898.60 0.1443
898.70 0.1438
898.80 0.1432
898.90 0.1427
899.00 0.1421
899.10 0.1415
899.20 0.141
899.30 0.1404
899.40 0.1398
899.50 0.1393
899.60 0.1387
899.70 0.1382
899.80 0.1376
899.90 0.1371
900.00 0.1365
900.10 0.1359
900.20 0.1354
900.30 0.1348
900.40 0.1343
900.50 0.1337
900.60 0.1331
900.70 0.1326
900.80 0.132
900.90 0.1315
901.00 0.1309
901.10 0.1304
901.20 0.1298
901.30 0.1292
901.40 0.1287
901.50 0.1281
901.60 0.1276
901.70 0.127
901.80 0.1265
901.90 0.1259
902.00 0.1254
902.10 0.1258
902.20 0.1263
902.30 0.1268
902.40 0.1273
902.50 0.1278
902.60 0.1283
902.70 0.1287
902.80 0.1292
902.90 0.1297
903.00 0.1302
903.10 0.1307
903.20 0.1311
903.30 0.1316
903.40 0.1321
903.50 0.1326
903.60 0.1331
903.70 0.1335
903.80 0.134
903.90 0.1345
904.00 0.135
904.10 0.1355
904.20 0.1359
904.30 0.1364
904.40 0.1369
904.50 0.1374
904.60 0.1378
904.70 0.1383
904.80 0.1388
904.90 0.1393
905.00 0.1397
905.10 0.1402
905.20 0.1407
905.30 0.1412
905.40 0.1417
905.50 0.1421
905.60 0.1426
905.70 0.1431
905.80 0.1436
905.90 0.144
906.00 0.1445
906.10 0.145
906.20 0.1454
906.30 0.1459
906.40 0.1464
906.50 0.1469
906.60 0.1473
906.70 0.1478
906.80 0.1483
906.90 0.1488
907.00 0.1492
907.10 0.1493
907.20 0.1494
907.30 0.1494
907.40 0.1495
907.50 0.1496
907.60 0.1497
907.70 0.1497
907.80 0.1498
907.90 0.1499
908.00 0.15
908.10 0.15
908.20 0.1501
908.30 0.1502
908.40 0.1502
908.50 0.1503
908.60 0.1504
908.70 0.1505
908.80 0.1505
908.90 0.1506
909.00 0.1507
909.10 0.1507
909.20 0.1508
909.30 0.1509
909.40 0.151
909.50 0.151
909.60 0.1511
909.70 0.1512
909.80 0.1512
909.90 0.1513
910.00 0.1514
910.10 0.1514
910.20 0.1515
910.30 0.1516
910.40 0.1517
910.50 0.1517
910.60 0.1518
910.70 0.1519
910.80 0.1519
910.90 0.152
911.00 0.1521
911.10 0.1522
911.20 0.1522
911.30 0.1523
911.40 0.1524
911.50 0.1524
911.60 0.1525
911.70 0.1526
911.80 0.1526
911.90 0.1527
912.00 0.1528
912.10 0.1526
912.20 0.1523
912.30 0.1521
912.40 0.1519
912.50 0.1516
912.60 0.1514
912.70 0.1512
912.80 0.151
912.90 0.1507
913.00 0.1505
913.10 0.1503
913.20 0.1501
913.30 0.1498
913.40 0.1496
913.50 0.1494
913.60 0.1491
913.70 0.1489
913.80 0.1487
913.90 0.1485
914.00 0.1482
914.10 0.148
914.20 0.1478
914.30 0.1476
914.40 0.1473
914.50 0.1471
914.60 0.1469
914.70 0.1467
914.80 0.1464
914.90 0.1462
915.00 0.146
915.10 0.1457
915.20 0.1455
915.30 0.1453
915.40 0.1451
915.50 0.1448
915.60 0.1446
915.70 0.1444
915.80 0.1442
915.90 0.1439
916.00 0.1437
916.10 0.1435
916.20 0.1433
916.30 0.143
916.40 0.1428
916.50 0.1426
916.60 0.1424
916.70 0.1422
916.80 0.1419
916.90 0.1417
917.00 0.1415
917.10 0.1408
917.20 0.1402
917.30 0.1396
917.40 0.1389
917.50 0.1383
917.60 0.1376
917.70 0.137
917.80 0.1364
917.90 0.1357
918.00 0.1351
918.10 0.1345
918.20 0.1338
918.30 0.1332
918.40 0.1325
918.50 0.1319
918.60 0.1313
918.70 0.1306
918.80 0.13
918.90 0.1294
919.00 0.1287
919.10 0.1281
919.20 0.1275
919.30 0.1268
919.40 0.1262
919.50 0.1256
919.60 0.1249
919.70 0.1243
919.80 0.1237
919.90 0.123
920.00 0.1224
920.10 0.1218
920.20 0.1211
920.30 0.1205
920.40 0.1199
920.50 0.1192
920.60 0.1186
920.70 0.118
920.80 0.1173
920.90 0.1167
921.00 0.1161
921.10 0.1155
921.20 0.1148
921.30 0.1142
921.40 0.1136
921.50 0.1129
921.60 0.1123
921.70 0.1117
921.80 0.1111
921.90 0.1104
922.00 0.1098
922.10 0.1102
922.20 0.1107
922.30 0.1111
922.40 0.1115
922.50 0.112
922.60 0.1124
922.70 0.1128
922.80 0.1132
922.90 0.1137
923.00 0.1141
923.10 0.1145
923.20 0.115
923.30 0.1154
923.40 0.1158
923.50 0.1162
923.60 0.1167
923.70 0.1171
923.80 0.1175
923.90 0.118
924.00 0.1184
924.10 0.1188
924.20 0.1192
924.30 0.1197
924.40 0.1201
924.50 0.1205
924.60 0.1209
924.70 0.1214
924.80 0.1218
924.90 0.1222
925.00 0.1226
925.10 0.1231
925.20 0.1235
925.30 0.1239
925.40 0.1243
925.50 0.1248
925.60 0.1252
925.70 0.1256
925.80 0.126
925.90 0.1265
926.00 0.1269
926.10 0.1273
926.20 0.1277
926.30 0.1282
926.40 0.1286
926.50 0.129
926.60 0.1294
926.70 0.1298
926.80 0.1303
926.90 0.1307
927.00 0.1311
927.10 0.1313
927.20 0.1316
927.30 0.1318
927.40 0.132
927.50 0.1322
927.60 0.1324
927.70 0.1327
927.80 0.1329
927.90 0.1331
928.00 0.1333
928.10 0.1335
928.20 0.1337
928.30 0.134
928.40 0.1342
928.50 0.1344
928.60 0.1346
928.70 0.1348
928.80 0.1351
928.90 0.1353
929.00 0.1355
929.10 0.1357
929.20 0.1359
929.30 0.1361
929.40 0.1364
929.50 0.1366
929.60 0.1368
929.70 0.137
929.80 0.1372
929.90 0.1374
930.00 0.1377
930.10 0.1379
930.20 0.1381
930.30 0.1383
930.40 0.1385
930.50 0.1387
930.60 0.139
930.70 0.1392
930.80 0.1394
930.90 0.1396
931.00 0.1398
931.10 0.14
931.20 0.1403
931.30 0.1405
931.40 0.1407
931.50 0.1409
931.60 0.1411
931.70 0.1413
931.80 0.1415
931.90 0.1418
932.00 0.142
932.10 0.142
932.20 0.1421
932.30 0.1421
932.40 0.1422
932.50 0.1422
932.60 0.1423
932.70 0.1423
932.80 0.1424
932.90 0.1425
933.00 0.1425
933.10 0.1426
933.20 0.1426
933.30 0.1427
933.40 0.1427
933.50 0.1428
933.60 0.1428
933.70 0.1429
933.80 0.1429
933.90 0.143
934.00 0.143
934.10 0.1431
934.20 0.1431
934.30 0.1432
934.40 0.1432
934.50 0.1432
934.60 0.1432
934.70 0.1432
934.80 0.1432
934.90 0.1432
935.00 0.1431
935.10 0.1431
935.20 0.1431
935.30 0.1431
935.40 0.1431
935.50 0.1431
935.60 0.1431
935.70 0.1431
935.80 0.1431
935.90 0.1431
936.00 0.1431
936.10 0.1431
936.20 0.1431
936.30 0.1431
936.40 0.1431
936.50 0.1431
936.60 0.1431
936.70 0.1431
936.80 0.1431
936.90 0.1431
937.00 0.1431
937.10 0.143
937.20 0.143
937.30 0.1429
937.40 0.1429
937.50 0.1429
937.60 0.1428
937.70 0.1428
937.80 0.1427
937.90 0.1427
938.00 0.1427
938.10 0.1426
938.20 0.1426
938.30 0.1425
938.40 0.1425
938.50 0.1424
938.60 0.1424
938.70 0.1423
938.80 0.1422
938.90 0.1422
939.00 0.1421
939.10 0.142
939.20 0.142
939.30 0.1419
939.40 0.1419
939.50 0.1418
939.60 0.1417
939.70 0.1417
939.80 0.1416
939.90 0.1416
940.00 0.1415
940.10 0.1414
940.20 0.1414
940.30 0.1413
940.40 0.1412
940.50 0.1411
940.60 0.141
940.70 0.1409
940.80 0.1408
940.90 0.1407
941.00 0.1406
941.10 0.1406
941.20 0.1405
941.30 0.1404
941.40 0.1403
941.50 0.1402
941.60 0.1401
941.70 0.14
941.80 0.1399
941.90 0.1398
942.00 0.1397
942.10 0.1396
942.20 0.1395
942.30 0.1394
942.40 0.1392
942.50 0.1391
942.60 0.139
942.70 0.1388
942.80 0.1387
942.90 0.1385
943.00 0.1384
943.10 0.1383
943.20 0.1381
943.30 0.138
943.40 0.1379
943.50 0.1377
943.60 0.1376
943.70 0.1374
943.80 0.1373
943.90 0.1372
944.00 0.137
944.10 0.1369
944.20 0.1368
944.30 0.1366
944.40 0.1364
944.50 0.1362
944.60 0.1361
944.70 0.1359
944.80 0.1357
944.90 0.1355
945.00 0.1353
945.10 0.1352
945.20 0.135
945.30 0.1348
945.40 0.1346
945.50 0.1343
945.60 0.1341
945.70 0.1339
945.80 0.1336
945.90 0.1334
946.00 0.1332
946.10 0.1329
946.20 0.1327
946.30 0.1325
946.40 0.1322
946.50 0.132
946.60 0.1318
946.70 0.1315
946.80 0.1313
946.90 0.1311
947.00 0.1308
947.10 0.1306
947.20 0.1303
947.30 0.13
947.40 0.1296
947.50 0.1293
947.60 0.1289
947.70 0.1286
947.80 0.1282
947.90 0.1279
948.00 0.1275
948.10 0.1272
948.20 0.1268
948.30 0.1265
948.40 0.1261
948.50 0.1258
948.60 0.1255
948.70 0.1251
948.80 0.1248
948.90 0.1244
949.00 0.1241
949.10 0.1237
949.20 0.1234
949.30 0.123
949.40 0.1225
949.50 0.122
949.60 0.1215
949.70 0.121
949.80 0.1205
949.90 0.12
950.00 0.1195
950.10 0.119
950.20 0.1185
950.30 0.118
950.40 0.1175
950.50 0.117
950.60 0.1165
950.70 0.116
950.80 0.1155
950.90 0.115
951.00 0.1145
951.10 0.114
951.20 0.1135
951.30 0.113
951.40 0.1124
951.50 0.1118
951.60 0.1112
951.70 0.1105
951.80 0.1099
951.90 0.1093
952.00 0.1087
952.10 0.108
952.20 0.1073
952.30 0.1066
952.40 0.1059
952.50 0.1052
952.60 0.1045
952.70 0.1038
952.80 0.1031
952.90 0.1023
953.00 0.1016
953.10 0.1008
953.20 0.1
953.30 0.09927
953.40 0.09851
953.50 0.09774
953.60 0.09694
953.70 0.09614
953.80 0.09534
953.90 0.09454
954.00 0.09381
954.10 0.09308
954.20 0.09266
954.30 0.09377
954.40 0.09261
954.50 0.09298
954.60 0.09365
954.70 0.09431
954.80 0.09505
954.90 0.09579
955.00 0.09652
955.10 0.09726
955.20 0.09796
955.30 0.09865
955.40 0.09934
955.50 0.1
955.60 0.1007
955.70 0.1014
955.80 0.1021
955.90 0.1027
956.00 0.1033
956.10 0.1039
956.20 0.1045
956.30 0.1051
956.40 0.1057
956.50 0.1063
956.60 0.1069
956.70 0.1075
956.80 0.1081
956.90 0.1087
957.00 0.1092
957.10 0.1098
957.20 0.1103
957.30 0.1108
957.40 0.1112
957.50 0.1116
957.60 0.112
957.70 0.1124
957.80 0.1128
957.90 0.1132
958.00 0.1136
958.10 0.114
958.20 0.1144
958.30 0.1148
958.40 0.1152
958.50 0.1157
958.60 0.1161
958.70 0.1165
958.80 0.1169
958.90 0.1173
959.00 0.1177
959.10 0.1181
959.20 0.1185
959.30 0.1189
959.40 0.1191
959.50 0.1194
959.60 0.1196
959.70 0.1199
959.80 0.1201
959.90 0.1204
960.00 0.1206
960.10 0.1209
960.20 0.1211
960.30 0.1214
960.40 0.1216
960.50 0.1219
960.60 0.1221
960.70 0.1224
960.80 0.1226
960.90 0.1229
961.00 0.1231
961.10 0.1234
961.20 0.1236
961.30 0.1239
961.40 0.1241
961.50 0.1242
961.60 0.1244
961.70 0.1246
961.80 0.1247
961.90 0.1249
962.00 0.1251
962.10 0.1252
962.20 0.1253
962.30 0.1255
962.40 0.1256
962.50 0.1257
962.60 0.1258
962.70 0.126
962.80 0.1261
962.90 0.1262
963.00 0.1263
963.10 0.1265
963.20 0.1266
963.30 0.1267
963.40 0.1268
963.50 0.1269
963.60 0.127
963.70 0.1271
963.80 0.1272
963.90 0.1273
964.00 0.1273
964.10 0.1274
964.20 0.1275
964.30 0.1276
964.40 0.1277
964.50 0.1277
964.60 0.1278
964.70 0.1278
964.80 0.1279
964.90 0.1279
965.00 0.128
965.10 0.128
965.20 0.1281
965.30 0.1281
965.40 0.1282
965.50 0.1282
965.60 0.1283
965.70 0.1283
965.80 0.1283
965.90 0.1284
966.00 0.1284
966.10 0.1285
966.20 0.1285
966.30 0.1286
966.40 0.1286
966.50 0.1286
966.60 0.1287
966.70 0.1287
966.80 0.1287
966.90 0.1287
967.00 0.1288
967.10 0.1288
967.20 0.1288
967.30 0.1288
967.40 0.1288
967.50 0.1288
967.60 0.1288
967.70 0.1288
967.80 0.1288
967.90 0.1289
968.00 0.1289
968.10 0.1289
968.20 0.1289
968.30 0.1289
968.40 0.1289
968.50 0.1289
968.60 0.1289
968.70 0.1289
968.80 0.1289
968.90 0.1288
969.00 0.1288
969.10 0.1288
969.20 0.1288
969.30 0.1288
969.40 0.1288
969.50 0.1288
969.60 0.1288
969.70 0.1288
969.80 0.1288
969.90 0.1288
970.00 0.1288
970.10 0.1287
970.20 0.1287
970.30 0.1287
970.40 0.1287
970.50 0.1287
970.60 0.1287
970.70 0.1287
970.80 0.1286
970.90 0.1286
971.00 0.1286
971.10 0.1286
971.20 0.1286
971.30 0.1285
971.40 0.1285
971.50 0.1285
971.60 0.1285
971.70 0.1285
971.80 0.1284
971.90 0.1284
972.00 0.1284
972.10 0.1284
972.20 0.1283
972.30 0.1283
972.40 0.1283
972.50 0.1282
972.60 0.1282
972.70 0.1282
972.80 0.1282
972.90 0.1281
973.00 0.1281
973.10 0.1281
973.20 0.128
973.30 0.128
973.40 0.128
973.50 0.1279
973.60 0.1279
973.70 0.1279
973.80 0.1279
973.90 0.1278
974.00 0.1278
974.10 0.1278
974.20 0.1277
974.30 0.1277
974.40 0.1277
974.50 0.1276
974.60 0.1276
974.70 0.1276
974.80 0.1275
974.90 0.1275
975.00 0.1274
975.10 0.1274
975.20 0.1274
975.30 0.1273
975.40 0.1273
975.50 0.1273
975.60 0.1272
975.70 0.1272
975.80 0.1271
975.90 0.1271
976.00 0.1271
976.10 0.127
976.20 0.127
976.30 0.127
976.40 0.1269
976.50 0.1269
976.60 0.1269
976.70 0.1268
976.80 0.1268
976.90 0.1267
977.00 0.1267
977.10 0.1267
977.20 0.1266
977.30 0.1266
977.40 0.1265
977.50 0.1265
977.60 0.1264
977.70 0.1264
977.80 0.1263
977.90 0.1263
978.00 0.1262
978.10 0.1262
978.20 0.1262
978.30 0.1261
978.40 0.1261
978.50 0.126
978.60 0.126
978.70 0.1259
978.80 0.1259
978.90 0.1258
979.00 0.1258
979.10 0.1257
979.20 0.1257
979.30 0.1257
979.40 0.1256
979.50 0.1256
979.60 0.1255
979.70 0.1255
979.80 0.1254
979.90 0.1254
980.00 0.1253
980.10 0.1253
980.20 0.1252
980.30 0.1252
980.40 0.1252
980.50 0.1251
980.60 0.1251
980.70 0.125
980.80 0.125
980.90 0.1249
981.00 0.1249
981.10 0.1248
981.20 0.1248
981.30 0.1247
981.40 0.1247
981.50 0.1247
981.60 0.1246
981.70 0.1246
981.80 0.1245
981.90 0.1245
982.00 0.1244
982.10 0.1244
982.20 0.1243
982.30 0.1243
982.40 0.1242
982.50 0.1242
982.60 0.1241
982.70 0.1241
982.80 0.124
982.90 0.1239
983.00 0.1239
983.10 0.1238
983.20 0.1238
983.30 0.1237
983.40 0.1237
983.50 0.1236
983.60 0.1236
983.70 0.1235
983.80 0.1235
983.90 0.1234
984.00 0.1233
984.10 0.1233
984.20 0.1232
984.30 0.1232
984.40 0.1231
984.50 0.1231
984.60 0.123
984.70 0.123
984.80 0.1229
984.90 0.1228
985.00 0.1228
985.10 0.1227
985.20 0.1227
985.30 0.1226
985.40 0.1225
985.50 0.1225
985.60 0.1224
985.70 0.1224
985.80 0.1223
985.90 0.1222
986.00 0.1222
986.10 0.1221
986.20 0.1221
986.30 0.122
986.40 0.1219
986.50 0.1219
986.60 0.1218
986.70 0.1218
986.80 0.1217
986.90 0.1216
987.00 0.1216
987.10 0.1215
987.20 0.1214
987.30 0.1214
987.40 0.1213
987.50 0.1212
987.60 0.1211
987.70 0.1211
987.80 0.121
987.90 0.1209
988.00 0.1209
988.10 0.1208
988.20 0.1207
988.30 0.1206
988.40 0.1206
988.50 0.1205
988.60 0.1204
988.70 0.1203
988.80 0.1203
988.90 0.1202
989.00 0.1201
989.10 0.12
989.20 0.1199
989.30 0.1199
989.40 0.1198
989.50 0.1197
989.60 0.1196
989.70 0.1195
989.80 0.1195
989.90 0.1194
990.00 0.1193
990.10 0.1192
990.20 0.1191
990.30 0.1191
990.40 0.119
990.50 0.1189
990.60 0.1188
990.70 0.1187
990.80 0.1186
990.90 0.1185
991.00 0.1184
991.10 0.1183
991.20 0.1182
991.30 0.1181
991.40 0.118
991.50 0.1179
991.60 0.1178
991.70 0.1177
991.80 0.1176
991.90 0.1175
992.00 0.1174
992.10 0.1173
992.20 0.1172
992.30 0.1171
992.40 0.117
992.50 0.1169
992.60 0.1168
992.70 0.1166
992.80 0.1165
992.90 0.1164
993.00 0.1162
993.10 0.1161
993.20 0.116
993.30 0.1158
993.40 0.1157
993.50 0.1156
993.60 0.1154
993.70 0.1153
993.80 0.1152
993.90 0.115
994.00 0.1149
994.10 0.1148
994.20 0.1147
994.30 0.1145
994.40 0.1144
994.50 0.1143
994.60 0.1141
994.70 0.114
994.80 0.1138
994.90 0.1137
995.00 0.1135
995.10 0.1133
995.20 0.1132
995.30 0.113
995.40 0.1128
995.50 0.1127
995.60 0.1125
995.70 0.1123
995.80 0.1121
995.90 0.1119
996.00 0.1117
996.10 0.1115
996.20 0.1113
996.30 0.1111
996.40 0.111
996.50 0.1108
996.60 0.1106
996.70 0.1104
996.80 0.1102
996.90 0.11
997.00 0.1098
997.10 0.1095
997.20 0.1093
997.30 0.1091
997.40 0.1088
997.50 0.1086
997.60 0.1083
997.70 0.1081
997.80 0.1078
997.90 0.1075
998.00 0.1072
998.10 0.1069
998.20 0.1066
998.30 0.1063
998.40 0.106
998.50 0.1057
998.60 0.1055
998.70 0.1052
998.80 0.1049
998.90 0.1046
999.00 0.1043
999.10 0.104
999.20 0.1037
999.30 0.1034
999.40 0.1031
999.50 0.1028
999.60 0.1026
999.70 0.1022
999.80 0.1018
999.90 0.1014
1000.00 0.101
1000.10 0.1006
1000.20 0.1001
1000.30 0.09974
1000.40 0.09934
1000.50 0.09893
1000.60 0.09853
1000.70 0.09812
1000.80 0.09772
1000.90 0.09731
1001.00 0.09691
1001.10 0.0965
1001.20 0.0961
1001.30 0.09569
1001.40 0.09529
1001.50 0.09488
1001.60 0.09448
1001.70 0.09401
1001.80 0.09353
1001.90 0.09304
1002.00 0.09255
1002.10 0.092
1002.20 0.09145
1002.30 0.09091
1002.40 0.09036
1002.50 0.08981
1002.60 0.08926
1002.70 0.08872
1002.80 0.08817
1002.90 0.08762
1003.00 0.08708
1003.10 0.08653
1003.20 0.08591
1003.30 0.08526
1003.40 0.08462
1003.50 0.08397
1003.60 0.08333
1003.70 0.08268
1003.80 0.08204
1003.90 0.08128
1004.00 0.08048
1004.10 0.07968
1004.20 0.07888
1004.30 0.07786
1004.40 0.07678
1004.50 0.07559
1004.60 0.07498
1004.70 0.07501
1004.80 0.07618
1004.90 0.07722
1005.00 0.07826
1005.10 0.07907
1005.20 0.07982
1005.30 0.08056
1005.40 0.08131
1005.50 0.08193
1005.60 0.08252
1005.70 0.08311
1005.80 0.0837
1005.90 0.08428
1006.00 0.08487
1006.10 0.08546
1006.20 0.08597
1006.30 0.08647
1006.40 0.08696
1006.50 0.08745
1006.60 0.08795
1006.70 0.08844
1006.80 0.08893
1006.90 0.08942
1007.00 0.08992
1007.10 0.09034
1007.20 0.09077
1007.30 0.0912
1007.40 0.09163
1007.50 0.09205
1007.60 0.09248
1007.70 0.09284
1007.80 0.09317
1007.90 0.0935
1008.00 0.09383
1008.10 0.09416
1008.20 0.09449
1008.30 0.09482
1008.40 0.09514
1008.50 0.09547
1008.60 0.0958
1008.70 0.09613
1008.80 0.09646
1008.90 0.09679
1009.00 0.09712
1009.10 0.09745
1009.20 0.09778
1009.30 0.0981
1009.40 0.09843
1009.50 0.09876
1009.60 0.09909
1009.70 0.09933
1009.80 0.09953
1009.90 0.09974
1010.00 0.09995
1010.10 0.1002
1010.20 0.1004
1010.30 0.1006
1010.40 0.1008
1010.50 0.101
1010.60 0.1012
1010.70 0.1014
1010.80 0.1016
1010.90 0.1018
1011.00 0.102
1011.10 0.1022
1011.20 0.1025
1011.30 0.1027
1011.40 0.1029
1011.50 0.1031
1011.60 0.1033
1011.70 0.1034
1011.80 0.1036
1011.90 0.1037
1012.00 0.1039
1012.10 0.104
1012.20 0.1041
1012.30 0.1043
1012.40 0.1044
1012.50 0.1045
1012.60 0.1046
1012.70 0.1047
1012.80 0.1049
1012.90 0.105
1013.00 0.1051
1013.10 0.1052
1013.20 0.1053
1013.30 0.1055
1013.40 0.1056
1013.50 0.1057
1013.60 0.1058
1013.70 0.1059
1013.80 0.106
1013.90 0.1061
1014.00 0.1061
1014.10 0.1062
1014.20 0.1063
1014.30 0.1064
1014.40 0.1064
1014.50 0.1065
1014.60 0.1066
1014.70 0.1066
1014.80 0.1067
1014.90 0.1067
1015.00 0.1068
1015.10 0.1068
1015.20 0.1069
1015.30 0.1069
1015.40 0.107
1015.50 0.107
1015.60 0.1071
1015.70 0.1071
1015.80 0.1072
1015.90 0.1072
1016.00 0.1073
1016.10 0.1073
1016.20 0.1074
1016.30 0.1074
1016.40 0.1075
1016.50 0.1075
1016.60 0.1076
1016.70 0.1076
1016.80 0.1076
1016.90 0.1076
1017.00 0.1077
1017.10 0.1077
1017.20 0.1077
1017.30 0.1077
1017.40 0.1077
1017.50 0.1077
1017.60 0.1078
1017.70 0.1078
1017.80 0.1078
1017.90 0.1078
1018.00 0.1078
1018.10 0.1079
1018.20 0.1079
1018.30 0.1079
1018.40 0.1079
1018.50 0.1079
1018.60 0.1079
1018.70 0.1079
1018.80 0.1079
1018.90 0.1079
1019.00 0.1079
1019.10 0.1079
1019.20 0.1079
1019.30 0.1079
1019.40 0.1079
1019.50 0.1079
1019.60 0.1079
1019.70 0.1079
1019.80 0.1079
1019.90 0.1079
1020.00 0.1079
1020.10 0.1079
1020.20 0.1079
1020.30 0.1079
1020.40 0.1079
1020.50 0.1079
1020.60 0.1079
1020.70 0.1079
1020.80 0.1079
1020.90 0.1079
1021.00 0.1079
1021.10 0.1079
1021.20 0.1079
1021.30 0.1078
1021.40 0.1078
1021.50 0.1078
1021.60 0.1078
1021.70 0.1078
1021.80 0.1078
1021.90 0.1078
1022.00 0.1078
1022.10 0.1078
1022.20 0.1077
1022.30 0.1077
1022.40 0.1077
1022.50 0.1077
1022.60 0.1077
1022.70 0.1076
1022.80 0.1076
1022.90 0.1076
1023.00 0.1076
1023.10 0.1076
1023.20 0.1075
1023.30 0.1075
1023.40 0.1075
1023.50 0.1075
1023.60 0.1075
1023.70 0.1074
1023.80 0.1074
1023.90 0.1074
1024.00 0.1074
1024.10 0.1074
1024.20 0.1073
1024.30 0.1073
1024.40 0.1073
1024.50 0.1073
1024.60 0.1073
1024.70 0.1072
1024.80 0.1072
1024.90 0.1072
1025.00 0.1072
1025.10 0.1071
1025.20 0.1071
1025.30 0.1071
1025.40 0.1071
1025.50 0.107
1025.60 0.107
1025.70 0.107
1025.80 0.107
1025.90 0.1069
1026.00 0.1069
1026.10 0.1069
1026.20 0.1069
1026.30 0.1068
1026.40 0.1068
1026.50 0.1068
1026.60 0.1068
1026.70 0.1067
1026.80 0.1067
1026.90 0.1067
1027.00 0.1067
1027.10 0.1066
1027.20 0.1066
1027.30 0.1066
1027.40 0.1065
1027.50 0.1065
1027.60 0.1065
1027.70 0.1065
1027.80 0.1064
1027.90 0.1064
1028.00 0.1064
1028.10 0.1063
1028.20 0.1063
1028.30 0.1063
1028.40 0.1062
1028.50 0.1062
1028.60 0.1062
1028.70 0.1062
1028.80 0.1061
1028.90 0.1061
1029.00 0.1061
1029.10 0.106
1029.20 0.106
1029.30 0.106
1029.40 0.1059
1029.50 0.1059
1029.60 0.1059
1029.70 0.1059
1029.80 0.1058
1029.90 0.1058
1030.00 0.1058
1030.10 0.1057
1030.20 0.1057
1030.30 0.1057
1030.40 0.1056
1030.50 0.1056
1030.60 0.1056
1030.70 0.1056
1030.80 0.1055
1030.90 0.1055
1031.00 0.1055
1031.10 0.1054
1031.20 0.1054
1031.30 0.1054
1031.40 0.1053
1031.50 0.1053
1031.60 0.1053
1031.70 0.1052
1031.80 0.1052
1031.90 0.1052
1032.00 0.1052
1032.10 0.1051
1032.20 0.1051
1032.30 0.1051
1032.40 0.105
1032.50 0.105
1032.60 0.105
1032.70 0.1049
1032.80 0.1049
1032.90 0.1049
1033.00 0.1048
1033.10 0.1048
1033.20 0.1048
1033.30 0.1047
1033.40 0.1047
1033.50 0.1047
1033.60 0.1046
1033.70 0.1046
1033.80 0.1046
1033.90 0.1045
1034.00 0.1045
1034.10 0.1045
1034.20 0.1044
1034.30 0.1044
1034.40 0.1044
1034.50 0.1043
1034.60 0.1043
1034.70 0.1043
1034.80 0.1042
1034.90 0.1042
1035.00 0.1042
1035.10 0.1041
1035.20 0.1041
1035.30 0.1041
1035.40 0.104
1035.50 0.104
1035.60 0.104
1035.70 0.1039
1035.80 0.1039
1035.90 0.1039
1036.00 0.1038
1036.10 0.1038
1036.20 0.1038
1036.30 0.1037
1036.40 0.1037
1036.50 0.1037
1036.60 0.1036
1036.70 0.1036
1036.80 0.1036
1036.90 0.1035
1037.00 0.1035
1037.10 0.1035
1037.20 0.1034
1037.30 0.1034
1037.40 0.1034
1037.50 0.1033
1037.60 0.1033
1037.70 0.1033
1037.80 0.1032
1037.90 0.1032
1038.00 0.1032
1038.10 0.1031
1038.20 0.1031
1038.30 0.1031
1038.40 0.103
1038.50 0.103
1038.60 0.103
1038.70 0.1029
1038.80 0.1029
1038.90 0.1029
1039.00 0.1028
1039.10 0.1028
1039.20 0.1028
1039.30 0.1027
1039.40 0.1027
1039.50 0.1027
1039.60 0.1026
1039.70 0.1026
1039.80 0.1026
1039.90 0.1025
1040.00 0.1025
1040.10 0.1025
1040.20 0.1024
1040.30 0.1024
1040.40 0.1024
1040.50 0.1023
1040.60 0.1023
1040.70 0.1023
1040.80 0.1022
1040.90 0.1022
1041.00 0.1022
1041.10 0.1021
1041.20 0.1021
1041.30 0.1021
1041.40 0.102
1041.50 0.102
1041.60 0.102
1041.70 0.1019
1041.80 0.1019
1041.90 0.1019
1042.00 0.1018
1042.10 0.1018
1042.20 0.1018
1042.30 0.1017
1042.40 0.1017
1042.50 0.1017
1042.60 0.1016
1042.70 0.1016
1042.80 0.1016
1042.90 0.1015
1043.00 0.1015
1043.10 0.1015
1043.20 0.1014
1043.30 0.1014
1043.40 0.1014
1043.50 0.1013
1043.60 0.1013
1043.70 0.1012
1043.80 0.1012
1043.90 0.1012
1044.00 0.1011
1044.10 0.1011
1044.20 0.1011
1044.30 0.101
1044.40 0.101
1044.50 0.101
1044.60 0.1009
1044.70 0.1009
1044.80 0.1009
1044.90 0.1008
1045.00 0.1008
1045.10 0.1008
1045.20 0.1007
1045.30 0.1007
1045.40 0.1007
1045.50 0.1006
1045.60 0.1006
1045.70 0.1006
1045.80 0.1005
1045.90 0.1005
1046.00 0.1005
1046.10 0.1004
1046.20 0.1004
1046.30 0.1004
1046.40 0.1003
1046.50 0.1003
1046.60 0.1003
1046.70 0.1002
1046.80 0.1002
1046.90 0.1002
1047.00 0.1001
1047.10 0.1001
1047.20 0.1001
1047.30 0.1
1047.40 0.1
1047.50 0.09996
1047.60 0.09993
1047.70 0.09989
1047.80 0.09986
1047.90 0.09982
1048.00 0.09979
1048.10 0.09976
1048.20 0.09972
1048.30 0.09969
1048.40 0.09965
1048.50 0.09962
1048.60 0.09959
1048.70 0.09955
1048.80 0.09952
1048.90 0.09948
1049.00 0.09945
1049.10 0.09942
1049.20 0.09938
1049.30 0.09935
1049.40 0.09931
1049.50 0.09928
1049.60 0.09925
1049.70 0.09921
1049.80 0.09918
1049.90 0.09915
1050.00 0.09911
1050.10 0.09908
1050.20 0.09904
1050.30 0.09901
1050.40 0.09898
1050.50 0.09894
1050.60 0.09891
1050.70 0.09887
1050.80 0.09884
1050.90 0.09881
1051.00 0.09877
1051.10 0.09874
1051.20 0.09871
1051.30 0.09867
1051.40 0.09864
1051.50 0.09861
1051.60 0.09857
1051.70 0.09854
1051.80 0.0985
1051.90 0.09847
1052.00 0.09844
1052.10 0.0984
1052.20 0.09837
1052.30 0.09833
1052.40 0.0983
1052.50 0.09827
1052.60 0.09823
1052.70 0.0982
1052.80 0.09816
1052.90 0.09813
1053.00 0.0981
1053.10 0.09806
1053.20 0.09803
1053.30 0.09799
1053.40 0.09796
1053.50 0.09793
1053.60 0.09789
1053.70 0.09786
1053.80 0.09782
1053.90 0.09779
1054.00 0.09776
1054.10 0.09772
1054.20 0.09769
1054.30 0.09765
1054.40 0.09762
1054.50 0.09759
1054.60 0.09755
1054.70 0.09752
1054.80 0.09748
1054.90 0.09745
1055.00 0.09742
1055.10 0.09738
1055.20 0.09735
1055.30 0.09731
1055.40 0.09728
1055.50 0.09725
1055.60 0.09721
1055.70 0.09718
1055.80 0.09715
1055.90 0.09711
1056.00 0.09708
1056.10 0.09704
1056.20 0.09701
1056.30 0.09698
1056.40 0.09694
1056.50 0.09691
1056.60 0.09688
1056.70 0.09684
1056.80 0.09681
1056.90 0.09677
1057.00 0.09674
1057.10 0.09671
1057.20 0.09667
1057.30 0.09664
1057.40 0.0966
1057.50 0.09657
1057.60 0.09653
1057.70 0.0965
1057.80 0.09647
1057.90 0.09643
1058.00 0.0964
1058.10 0.09636
1058.20 0.09633
1058.30 0.09629
1058.40 0.09626
1058.50 0.09623
1058.60 0.09619
1058.70 0.09616
1058.80 0.09612
1058.90 0.09609
1059.00 0.09605
1059.10 0.09602
1059.20 0.09599
1059.30 0.09595
1059.40 0.09592
1059.50 0.09588
1059.60 0.09585
1059.70 0.09582
1059.80 0.09578
1059.90 0.09575
1060.00 0.09571
1060.10 0.09568
1060.20 0.09564
1060.30 0.09561
1060.40 0.09558
1060.50 0.09554
1060.60 0.09551
1060.70 0.09547
1060.80 0.09544
1060.90 0.09541
1061.00 0.09537
1061.10 0.09534
1061.20 0.0953
1061.30 0.09527
1061.40 0.09524
1061.50 0.0952
1061.60 0.09517
1061.70 0.09513
1061.80 0.0951
1061.90 0.09507
1062.00 0.09503
1062.10 0.095
1062.20 0.09496
1062.30 0.09493
1062.40 0.09489
1062.50 0.09486
1062.60 0.09482
1062.70 0.09479
1062.80 0.09475
1062.90 0.09472
1063.00 0.09468
1063.10 0.09464
1063.20 0.09461
1063.30 0.09457
1063.40 0.09454
1063.50 0.0945
1063.60 0.09447
1063.70 0.09443
1063.80 0.0944
1063.90 0.09436
1064.00 0.09433
1064.10 0.09429
1064.20 0.09426
1064.30 0.09422
1064.40 0.09419
1064.50 0.09415
1064.60 0.09412
1064.70 0.09408
1064.80 0.09405
1064.90 0.09401
1065.00 0.09398
1065.10 0.09394
1065.20 0.09391
1065.30 0.09387
1065.40 0.09384
1065.50 0.0938
1065.60 0.09377
1065.70 0.09373
1065.80 0.0937
1065.90 0.09366
1066.00 0.09363
1066.10 0.09359
1066.20 0.09356
1066.30 0.09352
1066.40 0.09349
1066.50 0.09346
1066.60 0.09342
1066.70 0.09339
1066.80 0.09335
1066.90 0.09332
1067.00 0.09328
1067.10 0.09324
1067.20 0.09321
1067.30 0.09317
1067.40 0.09313
1067.50 0.09309
1067.60 0.09305
1067.70 0.09302
1067.80 0.09298
1067.90 0.09294
1068.00 0.0929
1068.10 0.09287
1068.20 0.09283
1068.30 0.09279
1068.40 0.09275
1068.50 0.09272
1068.60 0.09268
1068.70 0.09264
1068.80 0.0926
1068.90 0.09257
1069.00 0.09253
1069.10 0.09249
1069.20 0.09245
1069.30 0.09242
1069.40 0.09238
1069.50 0.09234
1069.60 0.0923
1069.70 0.09227
1069.80 0.09223
1069.90 0.09219
1070.00 0.09215
1070.10 0.09212
1070.20 0.09208
1070.30 0.09204
1070.40 0.092
1070.50 0.09197
1070.60 0.09193
1070.70 0.09189
1070.80 0.09185
1070.90 0.09182
1071.00 0.09178
1071.10 0.09174
1071.20 0.0917
1071.30 0.09167
1071.40 0.09163
1071.50 0.09159
1071.60 0.09156
1071.70 0.09152
1071.80 0.09148
1071.90 0.09144
1072.00 0.09141
1072.10 0.09137
1072.20 0.09133
1072.30 0.09128
1072.40 0.09124
1072.50 0.0912
1072.60 0.09116
1072.70 0.09112
1072.80 0.09108
1072.90 0.09104
1073.00 0.091
1073.10 0.09096
1073.20 0.09092
1073.30 0.09088
1073.40 0.09084
1073.50 0.09079
1073.60 0.09075
1073.70 0.0907
1073.80 0.09066
1073.90 0.09061
1074.00 0.09057
1074.10 0.09052
1074.20 0.09047
1074.30 0.09043
1074.40 0.09038
1074.50 0.09034
1074.60 0.09029
1074.70 0.09025
1074.80 0.0902
1074.90 0.09016
1075.00 0.09011
1075.10 0.09007
1075.20 0.09002
1075.30 0.08998
1075.40 0.08993
1075.50 0.08988
1075.60 0.08984
1075.70 0.08979
1075.80 0.08975
1075.90 0.0897
1076.00 0.08966
1076.10 0.08961
1076.20 0.08957
1076.30 0.08952
1076.40 0.08948
1076.50 0.08943
1076.60 0.08939
1076.70 0.08934
1076.80 0.0893
1076.90 0.08925
1077.00 0.08921
1077.10 0.08915
1077.20 0.0891
1077.30 0.08904
1077.40 0.08898
1077.50 0.08893
1077.60 0.08887
1077.70 0.08881
1077.80 0.08876
1077.90 0.0887
1078.00 0.08864
1078.10 0.08859
1078.20 0.08853
1078.30 0.08848
1078.40 0.08842
1078.50 0.08836
1078.60 0.08831
1078.70 0.08825
1078.80 0.08819
1078.90 0.08814
1079.00 0.08808
1079.10 0.08803
1079.20 0.08797
1079.30 0.08791
1079.40 0.08786
1079.50 0.0878
1079.60 0.08773
1079.70 0.08765
1079.80 0.08758
1079.90 0.08751
1080.00 0.08744
1080.10 0.08737
1080.20 0.0873
1080.30 0.08723
1080.40 0.08716
1080.50 0.08709
1080.60 0.08702
1080.70 0.08695
1080.80 0.08688
1080.90 0.0868
1081.00 0.08673
1081.10 0.08666
1081.20 0.08659
1081.30 0.08652
1081.40 0.08645
1081.50 0.08638
1081.60 0.0863
1081.70 0.08622
1081.80 0.08614
1081.90 0.08606
1082.00 0.08598
1082.10 0.08589
1082.20 0.08579
1082.30 0.0857
1082.40 0.08561
1082.50 0.08551
1082.60 0.08542
1082.70 0.08532
1082.80 0.08523
1082.90 0.08513
1083.00 0.08504
1083.10 0.08494
1083.20 0.08485
1083.30 0.08476
1083.40 0.08466
1083.50 0.08456
1083.60 0.08446
1083.70 0.08435
1083.80 0.08424
1083.90 0.08414
1084.00 0.08403
1084.10 0.08392
1084.20 0.08381
1084.30 0.08371
1084.40 0.0836
1084.50 0.08348
1084.60 0.08334
1084.70 0.0832
1084.80 0.08305
1084.90 0.08291
1085.00 0.08277
1085.10 0.08263
1085.20 0.08248
1085.30 0.08234
1085.40 0.0822
1085.50 0.08206
1085.60 0.08191
1085.70 0.08177
1085.80 0.08163
1085.90 0.08149
1086.00 0.08135
1086.10 0.0812
1086.20 0.08106
1086.30 0.08092
1086.40 0.08078
1086.50 0.08063
1086.60 0.08046
1086.70 0.08029
1086.80 0.08012
1086.90 0.07995
1087.00 0.07979
1087.10 0.07958
1087.20 0.07937
1087.30 0.07917
1087.40 0.07896
1087.50 0.07875
1087.60 0.07855
1087.70 0.07834
1087.80 0.07814
1087.90 0.07793
1088.00 0.07773
1088.10 0.07752
1088.20 0.07732
1088.30 0.07711
1088.40 0.0769
1088.50 0.07668
1088.60 0.0764
1088.70 0.07613
1088.80 0.07585
1088.90 0.07557
1089.00 0.0753
1089.10 0.07502
1089.20 0.07475
1089.30 0.07447
1089.40 0.0742
1089.50 0.07392
1089.60 0.07365
1089.70 0.07337
1089.80 0.0731
1089.90 0.07283
1090.00 0.07255
1090.10 0.07228
1090.20 0.072
1090.30 0.07173
1090.40 0.07146
1090.50 0.07115
1090.60 0.07078
1090.70 0.07041
1090.80 0.07004
1090.90 0.06968
1091.00 0.06931
1091.10 0.06894
1091.20 0.06857
1091.30 0.0682
1091.40 0.06783
1091.50 0.06747
1091.60 0.0671
1091.70 0.06673
1091.80 0.06636
1091.90 0.066
1092.00 0.06562
1092.10 0.06515
1092.20 0.06469
1092.30 0.06423
1092.40 0.06376
1092.50 0.0633
1092.60 0.06284
1092.70 0.06232
1092.80 0.06169
1092.90 0.06105
1093.00 0.06042
1093.10 0.05964
1093.20 0.05854
1093.30 0.05738
1093.40 0.05561
1093.50 0.0551
1093.60 0.05674
1093.70 0.05807
1093.80 0.05913
1093.90 0.06004
1094.00 0.06064
1094.10 0.06123
1094.20 0.06183
1094.30 0.06237
1094.40 0.06279
1094.50 0.06321
1094.60 0.06363
1094.70 0.06405
1094.80 0.06447
1094.90 0.06489
1095.00 0.06528
1095.10 0.0656
1095.20 0.06592
1095.30 0.06624
1095.40 0.06656
1095.50 0.06688
1095.60 0.06721
1095.70 0.06753
1095.80 0.06785
1095.90 0.06817
1096.00 0.06849
1096.10 0.06881
1096.20 0.06913
1096.30 0.06945
1096.40 0.06977
1096.50 0.07007
1096.60 0.07033
1096.70 0.07059
1096.80 0.07085
1096.90 0.07111
1097.00 0.07137
1097.10 0.07158
1097.20 0.07179
1097.30 0.07199
1097.40 0.0722
1097.50 0.07241
1097.60 0.07262
1097.70 0.07283
1097.80 0.07304
1097.90 0.07324
1098.00 0.07345
1098.10 0.07366
1098.20 0.07387
1098.30 0.07408
1098.40 0.07428
1098.50 0.07447
1098.60 0.07461
1098.70 0.07475
1098.80 0.07489
1098.90 0.07503
1099.00 0.07517
1099.10 0.07531
1099.20 0.07545
1099.30 0.07559
1099.40 0.07572
1099.50 0.07586
1099.60 0.076
1099.70 0.07614
1099.80 0.07628
1099.90 0.07642
1100.00 0.07656
1100.10 0.0767
1100.20 0.07683
1100.30 0.07697
1100.40 0.07711
1100.50 0.07723
1100.60 0.07732
1100.70 0.07741
1100.80 0.07749
1100.90 0.07758
1101.00 0.07767
1101.10 0.07775
1101.20 0.07784
1101.30 0.07793
1101.40 0.07801
1101.50 0.0781
1101.60 0.07819
1101.70 0.07827
1101.80 0.07836
1101.90 0.07845
1102.00 0.07853
1102.10 0.07861
1102.20 0.07868
1102.30 0.07876
1102.40 0.07883
1102.50 0.0789
1102.60 0.07894
1102.70 0.07899
1102.80 0.07904
1102.90 0.07909
1103.00 0.07914
1103.10 0.07918
1103.20 0.07923
1103.30 0.07928
1103.40 0.07933
1103.50 0.07937
1103.60 0.0794
1103.70 0.07943
1103.80 0.07946
1103.90 0.0795
1104.00 0.07953
1104.10 0.07956
1104.20 0.07959
1104.30 0.07962
1104.40 0.07965
1104.50 0.07968
1104.60 0.07971
1104.70 0.07974
1104.80 0.07977
1104.90 0.07981
1105.00 0.07984
1105.10 0.07987
1105.20 0.0799
1105.30 0.07993
1105.40 0.07996
1105.50 0.07999
1105.60 0.08
1105.70 0.08001
1105.80 0.08003
1105.90 0.08004
1106.00 0.08006
1106.10 0.08007
1106.20 0.08009
1106.30 0.0801
1106.40 0.08011
1106.50 0.08013
1106.60 0.08014
1106.70 0.08016
1106.80 0.08017
1106.90 0.08019
1107.00 0.0802
1107.10 0.0802
1107.20 0.08021
1107.30 0.08021
1107.40 0.08022
1107.50 0.08022
1107.60 0.08021
1107.70 0.08021
1107.80 0.08021
1107.90 0.08021
1108.00 0.08021
1108.10 0.0802
1108.20 0.0802
1108.30 0.0802
1108.40 0.0802
1108.50 0.08019
1108.60 0.08019
1108.70 0.08019
1108.80 0.08019
1108.90 0.08018
1109.00 0.08018
1109.10 0.08018
1109.20 0.08018
1109.30 0.08018
1109.40 0.08017
1109.50 0.08017
1109.60 0.08016
1109.70 0.08015
1109.80 0.08014
1109.90 0.08013
1110.00 0.08012
1110.10 0.08011
1110.20 0.0801
1110.30 0.08009
1110.40 0.08008
1110.50 0.08007
1110.60 0.08006
1110.70 0.08005
1110.80 0.08004
1110.90 0.08003
1111.00 0.08003
1111.10 0.08002
1111.20 0.08001
1111.30 0.08
1111.40 0.07999
1111.50 0.07998
1111.60 0.07997
1111.70 0.07996
1111.80 0.07995
1111.90 0.07994
1112.00 0.07993
1112.10 0.07991
1112.20 0.0799
1112.30 0.07988
1112.40 0.07987
1112.50 0.07986
1112.60 0.07984
1112.70 0.07983
1112.80 0.07981
1112.90 0.0798
1113.00 0.07978
1113.10 0.07977
1113.20 0.07975
1113.30 0.07974
1113.40 0.07972
1113.50 0.07971
1113.60 0.07969
1113.70 0.07967
1113.80 0.07965
1113.90 0.07963
1114.00 0.07961
1114.10 0.0796
1114.20 0.07958
1114.30 0.07956
1114.40 0.07954
1114.50 0.07952
1114.60 0.07951
1114.70 0.07949
1114.80 0.07947
1114.90 0.07945
1115.00 0.07943
1115.10 0.07942
1115.20 0.0794
1115.30 0.07938
1115.40 0.07936
1115.50 0.07934
1115.60 0.07933
1115.70 0.07931
1115.80 0.07929
1115.90 0.07927
1116.00 0.07925
1116.10 0.07924
1116.20 0.07922
1116.30 0.0792
1116.40 0.07918
1116.50 0.07916
1116.60 0.07915
1116.70 0.07913
1116.80 0.07911
1116.90 0.07909
1117.00 0.07907
1117.10 0.07905
1117.20 0.07903
1117.30 0.07901
1117.40 0.07899
1117.50 0.07897
1117.60 0.07895
1117.70 0.07892
1117.80 0.0789
1117.90 0.07888
1118.00 0.07886
1118.10 0.07884
1118.20 0.07882
1118.30 0.0788
1118.40 0.07878
1118.50 0.07875
1118.60 0.07873
1118.70 0.07871
1118.80 0.07869
1118.90 0.07867
1119.00 0.07865
1119.10 0.07863
1119.20 0.07861
1119.30 0.07858
1119.40 0.07856
1119.50 0.07854
1119.60 0.07852
1119.70 0.0785
1119.80 0.07848
1119.90 0.07846
1120.00 0.07844
1120.10 0.07842
1120.20 0.07839
1120.30 0.07837
1120.40 0.07835
1120.50 0.07833
1120.60 0.07831
1120.70 0.07829
1120.80 0.07827
1120.90 0.07825
1121.00 0.07823
1121.10 0.0782
1121.20 0.07818
1121.30 0.07816
1121.40 0.07814
1121.50 0.07812
1121.60 0.0781
1121.70 0.07808
1121.80 0.07806
1121.90 0.07804
1122.00 0.07801
1122.10 0.07799
1122.20 0.07797
1122.30 0.07795
1122.40 0.07792
1122.50 0.0779
1122.60 0.07788
1122.70 0.07786
1122.80 0.07783
1122.90 0.07781
1123.00 0.07779
1123.10 0.07776
1123.20 0.07774
1123.30 0.07772
1123.40 0.0777
1123.50 0.07767
1123.60 0.07765
1123.70 0.07763
1123.80 0.07761
1123.90 0.07758
1124.00 0.07756
1124.10 0.07754
1124.20 0.07751
1124.30 0.07749
1124.40 0.07747
1124.50 0.07745
1124.60 0.07742
1124.70 0.0774
1124.80 0.07738
1124.90 0.07736
1125.00 0.07733
1125.10 0.07731
1125.20 0.07729
1125.30 0.07727
1125.40 0.07724
1125.50 0.07722
1125.60 0.0772
1125.70 0.07718
1125.80 0.07715
1125.90 0.07713
1126.00 0.07711
1126.10 0.07709
1126.20 0.07706
1126.30 0.07704
1126.40 0.07702
1126.50 0.077
1126.60 0.07697
1126.70 0.07695
1126.80 0.07693
1126.90 0.07691
1127.00 0.07688
1127.10 0.07686
1127.20 0.07684
1127.30 0.07681
1127.40 0.07679
1127.50 0.07677
1127.60 0.07674
1127.70 0.07672
1127.80 0.0767
1127.90 0.07667
1128.00 0.07665
1128.10 0.07663
1128.20 0.0766
1128.30 0.07658
1128.40 0.07656
1128.50 0.07653
1128.60 0.07651
1128.70 0.07649
1128.80 0.07646
1128.90 0.07644
1129.00 0.07642
1129.10 0.0764
1129.20 0.07637
1129.30 0.07635
1129.40 0.07633
1129.50 0.0763
1129.60 0.07628
1129.70 0.07626
1129.80 0.07623
1129.90 0.07621
1130.00 0.07619
1130.10 0.07616
1130.20 0.07614
1130.30 0.07612
1130.40 0.0761
1130.50 0.07607
1130.60 0.07605
1130.70 0.07603
1130.80 0.076
1130.90 0.07598
1131.00 0.07596
1131.10 0.07593
1131.20 0.07591
1131.30 0.07589
1131.40 0.07587
1131.50 0.07584
1131.60 0.07582
1131.70 0.0758
1131.80 0.07577
1131.90 0.07575
1132.00 0.07573
1132.10 0.0757
1132.20 0.07568
1132.30 0.07566
1132.40 0.07563
1132.50 0.07561
1132.60 0.07559
1132.70 0.07556
1132.80 0.07554
1132.90 0.07552
1133.00 0.0755
1133.10 0.07547
1133.20 0.07545
1133.30 0.07543
1133.40 0.0754
1133.50 0.07538
1133.60 0.07536
1133.70 0.07533
1133.80 0.07531
1133.90 0.07529
1134.00 0.07526
1134.10 0.07524
1134.20 0.07522
1134.30 0.07519
1134.40 0.07517
1134.50 0.07515
1134.60 0.07512
1134.70 0.0751
1134.80 0.07508
1134.90 0.07506
1135.00 0.07503
1135.10 0.07501
1135.20 0.07499
1135.30 0.07496
1135.40 0.07494
1135.50 0.07492
1135.60 0.07489
1135.70 0.07487
1135.80 0.07485
1135.90 0.07482
1136.00 0.0748
1136.10 0.07478
1136.20 0.07476
1136.30 0.07473
1136.40 0.07471
1136.50 0.07469
1136.60 0.07466
1136.70 0.07464
1136.80 0.07462
1136.90 0.0746
1137.00 0.07457
1137.10 0.07455
1137.20 0.07453
1137.30 0.0745
1137.40 0.07448
1137.50 0.07446
1137.60 0.07443
1137.70 0.07441
1137.80 0.07439
1137.90 0.07436
1138.00 0.07434
1138.10 0.07432
1138.20 0.0743
1138.30 0.07427
1138.40 0.07425
1138.50 0.07423
1138.60 0.0742
1138.70 0.07418
1138.80 0.07416
1138.90 0.07413
1139.00 0.07411
1139.10 0.07409
1139.20 0.07407
1139.30 0.07404
1139.40 0.07402
1139.50 0.074
1139.60 0.07397
1139.70 0.07395
1139.80 0.07393
1139.90 0.07391
1140.00 0.07388
1140.10 0.07386
1140.20 0.07384
1140.30 0.07381
1140.40 0.07379
1140.50 0.07377
1140.60 0.07375
1140.70 0.07372
1140.80 0.0737
1140.90 0.07368
1141.00 0.07365
1141.10 0.07363
1141.20 0.07361
1141.30 0.07359
1141.40 0.07356
1141.50 0.07354
1141.60 0.07352
1141.70 0.07349
1141.80 0.07347
1141.90 0.07345
1142.00 0.07343
1142.10 0.0734
1142.20 0.07338
1142.30 0.07336
1142.40 0.07334
1142.50 0.07331
1142.60 0.07329
1142.70 0.07327
1142.80 0.07324
1142.90 0.07322
1143.00 0.0732
1143.10 0.07318
1143.20 0.07315
1143.30 0.07313
1143.40 0.07311
1143.50 0.07308
1143.60 0.07306
1143.70 0.07304
1143.80 0.07302
1143.90 0.07299
1144.00 0.07297
1144.10 0.07295
1144.20 0.07293
1144.30 0.0729
1144.40 0.07288
1144.50 0.07286
1144.60 0.07284
1144.70 0.07281
1144.80 0.07279
1144.90 0.07277
1145.00 0.07274
1145.10 0.07272
1145.20 0.0727
1145.30 0.07268
1145.40 0.07265
1145.50 0.07263
1145.60 0.07261
1145.70 0.07259
1145.80 0.07256
1145.90 0.07254
1146.00 0.07252
1146.10 0.0725
1146.20 0.07247
1146.30 0.07245
1146.40 0.07243
1146.50 0.07241
1146.60 0.07238
1146.70 0.07236
1146.80 0.07234
1146.90 0.07232
1147.00 0.07229
1147.10 0.07227
1147.20 0.07225
1147.30 0.07223
1147.40 0.0722
1147.50 0.07218
1147.60 0.07216
1147.70 0.07214
1147.80 0.07211
1147.90 0.07209
1148.00 0.07207
1148.10 0.07205
1148.20 0.07202
1148.30 0.072
1148.40 0.07198
1148.50 0.07196
1148.60 0.07193
1148.70 0.07191
1148.80 0.07189
1148.90 0.07187
1149.00 0.07184
1149.10 0.07182
1149.20 0.0718
1149.30 0.07178
1149.40 0.07176
1149.50 0.07173
1149.60 0.07171
1149.70 0.07169
1149.80 0.07167
1149.90 0.07164
1150.00 0.07162
1150.10 0.0716
1150.20 0.07158
1150.30 0.07155
1150.40 0.07153
1150.50 0.07151
1150.60 0.07149
1150.70 0.07147
1150.80 0.07144
1150.90 0.07142
1151.00 0.0714
1151.10 0.07138
1151.20 0.07135
1151.30 0.07133
1151.40 0.07131
1151.50 0.07129
1151.60 0.07127
1151.70 0.07124
1151.80 0.07122
1151.90 0.0712
1152.00 0.07118
1152.10 0.07115
1152.20 0.07113
1152.30 0.07111
1152.40 0.07109
1152.50 0.07107
1152.60 0.07104
1152.70 0.07102
1152.80 0.071
1152.90 0.07098
1153.00 0.07096
1153.10 0.07093
1153.20 0.07091
1153.30 0.07089
1153.40 0.07087
1153.50 0.07085
1153.60 0.07082
1153.70 0.0708
1153.80 0.07078
1153.90 0.07076
1154.00 0.07074
1154.10 0.07071
1154.20 0.07069
1154.30 0.07067
1154.40 0.07065
1154.50 0.07063
1154.60 0.0706
1154.70 0.07058
1154.80 0.07056
1154.90 0.07054
1155.00 0.07052
1155.10 0.07049
1155.20 0.07047
1155.30 0.07045
1155.40 0.07043
1155.50 0.07041
1155.60 0.07038
1155.70 0.07036
1155.80 0.07034
1155.90 0.07032
1156.00 0.0703
1156.10 0.07028
1156.20 0.07025
1156.30 0.07023
1156.40 0.07021
1156.50 0.07019
1156.60 0.07017
1156.70 0.07014
1156.80 0.07012
1156.90 0.0701
1157.00 0.07008
1157.10 0.07006
1157.20 0.07004
1157.30 0.07001
1157.40 0.06999
1157.50 0.06997
1157.60 0.06995
1157.70 0.06993
1157.80 0.06991
1157.90 0.06988
1158.00 0.06986
1158.10 0.06984
1158.20 0.06982
1158.30 0.0698
1158.40 0.06978
1158.50 0.06975
1158.60 0.06973
1158.70 0.06971
1158.80 0.06969
1158.90 0.06967
1159.00 0.06965
1159.10 0.06962
1159.20 0.0696
1159.30 0.06958
1159.40 0.06956
1159.50 0.06954
1159.60 0.06952
1159.70 0.06949
1159.80 0.06947
1159.90 0.06945
1160.00 0.06943
1160.10 0.06941
1160.20 0.06939
1160.30 0.06937
1160.40 0.06934
1160.50 0.06932
1160.60 0.0693
1160.70 0.06928
1160.80 0.06926
1160.90 0.06924
1161.00 0.06921
1161.10 0.06919
1161.20 0.06917
1161.30 0.06915
1161.40 0.06913
1161.50 0.06911
1161.60 0.06909
1161.70 0.06906
1161.80 0.06904
1161.90 0.06902
1162.00 0.069
1162.10 0.06898
1162.20 0.06896
1162.30 0.06894
1162.40 0.06892
1162.50 0.06889
1162.60 0.06887
1162.70 0.06885
1162.80 0.06883
1162.90 0.06881
1163.00 0.06879
1163.10 0.06877
1163.20 0.06874
1163.30 0.06872
1163.40 0.0687
1163.50 0.06868
1163.60 0.06866
1163.70 0.06864
1163.80 0.06862
1163.90 0.0686
1164.00 0.06857
1164.10 0.06855
1164.20 0.06853
1164.30 0.06851
1164.40 0.06849
1164.50 0.06847
1164.60 0.06845
1164.70 0.06843
1164.80 0.0684
1164.90 0.06838
1165.00 0.06836
1165.10 0.06834
1165.20 0.06832
1165.30 0.0683
1165.40 0.06828
1165.50 0.06826
1165.60 0.06824
1165.70 0.06821
1165.80 0.06819
1165.90 0.06817
1166.00 0.06815
1166.10 0.06813
1166.20 0.06811
1166.30 0.06809
1166.40 0.06807
1166.50 0.06805
1166.60 0.06802
1166.70 0.068
1166.80 0.06798
1166.90 0.06796
1167.00 0.06794
1167.10 0.06792
1167.20 0.0679
1167.30 0.06788
1167.40 0.06786
1167.50 0.06784
1167.60 0.06781
1167.70 0.06779
1167.80 0.06777
1167.90 0.06775
1168.00 0.06773
1168.10 0.06771
1168.20 0.06769
1168.30 0.06767
1168.40 0.06765
1168.50 0.06763
1168.60 0.06761
1168.70 0.06758
1168.80 0.06756
1168.90 0.06754
1169.00 0.06752
1169.10 0.0675
1169.20 0.06748
1169.30 0.06746
1169.40 0.06744
1169.50 0.06742
1169.60 0.0674
1169.70 0.06738
1169.80 0.06736
1169.90 0.06733
1170.00 0.06731
1170.10 0.06729
1170.20 0.06727
1170.30 0.06725
1170.40 0.06723
1170.50 0.06721
1170.60 0.06719
1170.70 0.06717
1170.80 0.06715
1170.90 0.06713
1171.00 0.06711
1171.10 0.06709
1171.20 0.06706
1171.30 0.06704
1171.40 0.06702
1171.50 0.067
1171.60 0.06698
1171.70 0.06696
1171.80 0.06694
1171.90 0.06692
1172.00 0.0669
1172.10 0.06688
1172.20 0.06686
1172.30 0.06684
1172.40 0.06682
1172.50 0.0668
1172.60 0.06678
1172.70 0.06676
1172.80 0.06673
1172.90 0.06671
1173.00 0.06669
1173.10 0.06667
1173.20 0.06665
1173.30 0.06663
1173.40 0.06661
1173.50 0.06659
1173.60 0.06657
1173.70 0.06655
1173.80 0.06653
1173.90 0.06651
1174.00 0.06649
1174.10 0.06647
1174.20 0.06645
1174.30 0.06643
1174.40 0.06641
1174.50 0.06639
1174.60 0.06637
1174.70 0.06635
1174.80 0.06632
1174.90 0.0663
1175.00 0.06628
1175.10 0.06626
1175.20 0.06624
1175.30 0.06622
1175.40 0.0662
1175.50 0.06618
1175.60 0.06616
1175.70 0.06614
1175.80 0.06612
1175.90 0.0661
1176.00 0.06608
1176.10 0.06606
1176.20 0.06604
1176.30 0.06602
1176.40 0.066
1176.50 0.06598
1176.60 0.06596
1176.70 0.06594
1176.80 0.06592
1176.90 0.0659
1177.00 0.06588
1177.10 0.06586
1177.20 0.06584
1177.30 0.06582
1177.40 0.0658
1177.50 0.06578
1177.60 0.06576
1177.70 0.06574
1177.80 0.06571
1177.90 0.06569
1178.00 0.06567
1178.10 0.06565
1178.20 0.06563
1178.30 0.06561
1178.40 0.06559
1178.50 0.06557
1178.60 0.06555
1178.70 0.06553
1178.80 0.06551
1178.90 0.06549
1179.00 0.06547
1179.10 0.06545
1179.20 0.06543
1179.30 0.06541
1179.40 0.06539
1179.50 0.06537
1179.60 0.06535
1179.70 0.06533
1179.80 0.06531
1179.90 0.06529
1180.00 0.06527
1180.10 0.06525
1180.20 0.06523
1180.30 0.06521
1180.40 0.06519
1180.50 0.06517
1180.60 0.06515
1180.70 0.06513
1180.80 0.06511
1180.90 0.06509
1181.00 0.06507
1181.10 0.06505
1181.20 0.06503
1181.30 0.06501
1181.40 0.06499
1181.50 0.06497
1181.60 0.06495
1181.70 0.06493
1181.80 0.06491
1181.90 0.06489
1182.00 0.06487
1182.10 0.06485
1182.20 0.06483
1182.30 0.06481
1182.40 0.06479
1182.50 0.06477
1182.60 0.06475
1182.70 0.06473
1182.80 0.06471
1182.90 0.06469
1183.00 0.06467
1183.10 0.06465
1183.20 0.06463
1183.30 0.06462
1183.40 0.0646
1183.50 0.06458
1183.60 0.06456
1183.70 0.06454
1183.80 0.06452
1183.90 0.0645
1184.00 0.06448
1184.10 0.06446
1184.20 0.06444
1184.30 0.06442
1184.40 0.0644
1184.50 0.06438
1184.60 0.06436
1184.70 0.06434
1184.80 0.06432
1184.90 0.0643
1185.00 0.06428
1185.10 0.06426
1185.20 0.06424
1185.30 0.06422
1185.40 0.0642
1185.50 0.06418
1185.60 0.06416
1185.70 0.06414
1185.80 0.06412
1185.90 0.0641
1186.00 0.06408
1186.10 0.06406
1186.20 0.06404
1186.30 0.06402
1186.40 0.064
1186.50 0.06398
1186.60 0.06396
1186.70 0.06395
1186.80 0.06393
1186.90 0.06391
1187.00 0.06389
1187.10 0.06387
1187.20 0.06385
1187.30 0.06383
1187.40 0.06381
1187.50 0.06379
1187.60 0.06377
1187.70 0.06375
1187.80 0.06373
1187.90 0.06371
1188.00 0.06369
1188.10 0.06367
1188.20 0.06365
1188.30 0.06363
1188.40 0.06361
1188.50 0.06359
1188.60 0.06358
1188.70 0.06356
1188.80 0.06354
1188.90 0.06352
1189.00 0.0635
1189.10 0.06348
1189.20 0.06346
1189.30 0.06344
1189.40 0.06342
1189.50 0.0634
1189.60 0.06338
1189.70 0.06336
1189.80 0.06334
1189.90 0.06332
1190.00 0.0633
1190.10 0.06328
1190.20 0.06327
1190.30 0.06325
1190.40 0.06323
1190.50 0.06321
1190.60 0.06319
1190.70 0.06317
1190.80 0.06315
1190.90 0.06313
1191.00 0.06311
1191.10 0.06309
1191.20 0.06307
1191.30 0.06305
1191.40 0.06303
1191.50 0.06301
1191.60 0.063
1191.70 0.06298
1191.80 0.06296
1191.90 0.06294
1192.00 0.06292
1192.10 0.0629
1192.20 0.06288
1192.30 0.06286
1192.40 0.06284
1192.50 0.06282
1192.60 0.0628
1192.70 0.06278
1192.80 0.06277
1192.90 0.06275
1193.00 0.06273
1193.10 0.06271
1193.20 0.06269
1193.30 0.06267
1193.40 0.06265
1193.50 0.06263
1193.60 0.06261
1193.70 0.06259
1193.80 0.06257
1193.90 0.06256
1194.00 0.06254
1194.10 0.06252
1194.20 0.0625
1194.30 0.06248
1194.40 0.06246
1194.50 0.06244
1194.60 0.06242
1194.70 0.0624
1194.80 0.06238
1194.90 0.06237
1195.00 0.06235
1195.10 0.06233
1195.20 0.06231
1195.30 0.06229
1195.40 0.06227
1195.50 0.06225
1195.60 0.06223
1195.70 0.06221
1195.80 0.06219
1195.90 0.06218
1196.00 0.06216
1196.10 0.06214
1196.20 0.06212
1196.30 0.0621
1196.40 0.06208
1196.50 0.06206
1196.60 0.06204
1196.70 0.06202
1196.80 0.062
1196.90 0.06199
1197.00 0.06197
1197.10 0.06195
1197.20 0.06193
1197.30 0.06191
1197.40 0.06189
1197.50 0.06187
1197.60 0.06185
1197.70 0.06184
1197.80 0.06182
1197.90 0.0618
1198.00 0.06178
1198.10 0.06176
1198.20 0.06174
1198.30 0.06172
1198.40 0.0617
1198.50 0.06169
1198.60 0.06167
1198.70 0.06165
1198.80 0.06163
1198.90 0.06161
1199.00 0.06159
1199.10 0.06157
1199.20 0.06155
1199.30 0.06154
1199.40 0.06152
1199.50 0.0615
1199.60 0.06148
1199.70 0.06146
1199.80 0.06144
1199.90 0.06142
1200.00 0
