# Version 2.1 - nm, norm@500 to 1, cut digits, bergeron_85000_85.dat_85000
# Wavelength(nm)  Flambda(ergs/cm^s/s/nm)
300.00 6.725
300.10 6.717
300.20 6.709
300.30 6.7
300.40 6.692
300.50 6.684
300.60 6.675
300.70 6.667
300.80 6.659
300.90 6.65
301.00 6.642
301.10 6.634
301.20 6.626
301.30 6.617
301.40 6.609
301.50 6.601
301.60 6.593
301.70 6.585
301.80 6.576
301.90 6.568
302.00 6.56
302.10 6.552
302.20 6.544
302.30 6.536
302.40 6.528
302.50 6.52
302.60 6.512
302.70 6.504
302.80 6.495
302.90 6.487
303.00 6.479
303.10 6.471
303.20 6.463
303.30 6.455
303.40 6.448
303.50 6.44
303.60 6.432
303.70 6.424
303.80 6.416
303.90 6.408
304.00 6.4
304.10 6.392
304.20 6.384
304.30 6.376
304.40 6.369
304.50 6.361
304.60 6.353
304.70 6.345
304.80 6.337
304.90 6.33
305.00 6.322
305.10 6.314
305.20 6.306
305.30 6.299
305.40 6.291
305.50 6.283
305.60 6.275
305.70 6.268
305.80 6.26
305.90 6.252
306.00 6.245
306.10 6.237
306.20 6.229
306.30 6.222
306.40 6.214
306.50 6.207
306.60 6.199
306.70 6.192
306.80 6.184
306.90 6.176
307.00 6.169
307.10 6.161
307.20 6.154
307.30 6.146
307.40 6.139
307.50 6.131
307.60 6.124
307.70 6.116
307.80 6.109
307.90 6.102
308.00 6.094
308.10 6.087
308.20 6.079
308.30 6.072
308.40 6.065
308.50 6.057
308.60 6.05
308.70 6.043
308.80 6.035
308.90 6.028
309.00 6.021
309.10 6.013
309.20 6.006
309.30 5.999
309.40 5.991
309.50 5.984
309.60 5.977
309.70 5.97
309.80 5.963
309.90 5.955
310.00 5.948
310.10 5.941
310.20 5.934
310.30 5.927
310.40 5.919
310.50 5.912
310.60 5.905
310.70 5.898
310.80 5.891
310.90 5.884
311.00 5.877
311.10 5.87
311.20 5.863
311.30 5.856
311.40 5.849
311.50 5.841
311.60 5.834
311.70 5.827
311.80 5.82
311.90 5.813
312.00 5.806
312.10 5.799
312.20 5.793
312.30 5.786
312.40 5.779
312.50 5.772
312.60 5.765
312.70 5.758
312.80 5.751
312.90 5.744
313.00 5.737
313.10 5.73
313.20 5.723
313.30 5.717
313.40 5.71
313.50 5.703
313.60 5.696
313.70 5.689
313.80 5.683
313.90 5.676
314.00 5.669
314.10 5.662
314.20 5.655
314.30 5.649
314.40 5.642
314.50 5.635
314.60 5.629
314.70 5.622
314.80 5.615
314.90 5.608
315.00 5.602
315.10 5.595
315.20 5.588
315.30 5.582
315.40 5.575
315.50 5.569
315.60 5.562
315.70 5.555
315.80 5.549
315.90 5.542
316.00 5.536
316.10 5.529
316.20 5.522
316.30 5.516
316.40 5.509
316.50 5.503
316.60 5.496
316.70 5.49
316.80 5.483
316.90 5.477
317.00 5.47
317.10 5.464
317.20 5.457
317.30 5.451
317.40 5.445
317.50 5.438
317.60 5.432
317.70 5.425
317.80 5.419
317.90 5.412
318.00 5.406
318.10 5.4
318.20 5.393
318.30 5.387
318.40 5.381
318.50 5.374
318.60 5.368
318.70 5.362
318.80 5.355
318.90 5.349
319.00 5.343
319.10 5.336
319.20 5.33
319.30 5.324
319.40 5.318
319.50 5.311
319.60 5.305
319.70 5.299
319.80 5.293
319.90 5.287
320.00 5.28
320.10 5.274
320.20 5.268
320.30 5.262
320.40 5.256
320.50 5.249
320.60 5.243
320.70 5.237
320.80 5.231
320.90 5.225
321.00 5.219
321.10 5.213
321.20 5.207
321.30 5.201
321.40 5.195
321.50 5.188
321.60 5.182
321.70 5.176
321.80 5.17
321.90 5.164
322.00 5.158
322.10 5.152
322.20 5.146
322.30 5.14
322.40 5.134
322.50 5.128
322.60 5.122
322.70 5.116
322.80 5.11
322.90 5.104
323.00 5.099
323.10 5.093
323.20 5.087
323.30 5.081
323.40 5.075
323.50 5.069
323.60 5.063
323.70 5.057
323.80 5.051
323.90 5.046
324.00 5.04
324.10 5.034
324.20 5.028
324.30 5.022
324.40 5.016
324.50 5.011
324.60 5.005
324.70 4.999
324.80 4.993
324.90 4.987
325.00 4.982
325.10 4.976
325.20 4.97
325.30 4.964
325.40 4.959
325.50 4.953
325.60 4.947
325.70 4.942
325.80 4.936
325.90 4.93
326.00 4.925
326.10 4.919
326.20 4.913
326.30 4.908
326.40 4.902
326.50 4.896
326.60 4.891
326.70 4.885
326.80 4.879
326.90 4.874
327.00 4.868
327.10 4.863
327.20 4.857
327.30 4.851
327.40 4.846
327.50 4.84
327.60 4.835
327.70 4.829
327.80 4.824
327.90 4.818
328.00 4.813
328.10 4.807
328.20 4.802
328.30 4.796
328.40 4.791
328.50 4.785
328.60 4.78
328.70 4.774
328.80 4.769
328.90 4.763
329.00 4.758
329.10 4.752
329.20 4.747
329.30 4.742
329.40 4.736
329.50 4.731
329.60 4.725
329.70 4.72
329.80 4.715
329.90 4.709
330.00 4.704
330.10 4.699
330.20 4.693
330.30 4.688
330.40 4.683
330.50 4.677
330.60 4.672
330.70 4.667
330.80 4.661
330.90 4.656
331.00 4.651
331.10 4.646
331.20 4.64
331.30 4.635
331.40 4.63
331.50 4.625
331.60 4.619
331.70 4.614
331.80 4.609
331.90 4.604
332.00 4.598
332.10 4.593
332.20 4.588
332.30 4.583
332.40 4.578
332.50 4.572
332.60 4.567
332.70 4.562
332.80 4.557
332.90 4.552
333.00 4.547
333.10 4.542
333.20 4.536
333.30 4.531
333.40 4.526
333.50 4.521
333.60 4.516
333.70 4.511
333.80 4.506
333.90 4.501
334.00 4.496
334.10 4.491
334.20 4.486
334.30 4.481
334.40 4.475
334.50 4.47
334.60 4.465
334.70 4.46
334.80 4.455
334.90 4.45
335.00 4.445
335.10 4.44
335.20 4.435
335.30 4.43
335.40 4.426
335.50 4.421
335.60 4.416
335.70 4.411
335.80 4.406
335.90 4.401
336.00 4.396
336.10 4.391
336.20 4.386
336.30 4.381
336.40 4.376
336.50 4.371
336.60 4.366
336.70 4.362
336.80 4.357
336.90 4.352
337.00 4.347
337.10 4.342
337.20 4.337
337.30 4.332
337.40 4.328
337.50 4.323
337.60 4.318
337.70 4.313
337.80 4.308
337.90 4.304
338.00 4.299
338.10 4.294
338.20 4.289
338.30 4.284
338.40 4.28
338.50 4.275
338.60 4.27
338.70 4.265
338.80 4.261
338.90 4.256
339.00 4.251
339.10 4.247
339.20 4.242
339.30 4.237
339.40 4.232
339.50 4.228
339.60 4.223
339.70 4.218
339.80 4.214
339.90 4.209
340.00 4.204
340.10 4.2
340.20 4.195
340.30 4.19
340.40 4.186
340.50 4.181
340.60 4.177
340.70 4.172
340.80 4.167
340.90 4.163
341.00 4.158
341.10 4.154
341.20 4.149
341.30 4.144
341.40 4.14
341.50 4.135
341.60 4.131
341.70 4.126
341.80 4.122
341.90 4.117
342.00 4.113
342.10 4.108
342.20 4.103
342.30 4.099
342.40 4.095
342.50 4.09
342.60 4.086
342.70 4.081
342.80 4.077
342.90 4.072
343.00 4.068
343.10 4.063
343.20 4.059
343.30 4.054
343.40 4.05
343.50 4.045
343.60 4.041
343.70 4.036
343.80 4.032
343.90 4.028
344.00 4.023
344.10 4.019
344.20 4.014
344.30 4.01
344.40 4.006
344.50 4.001
344.60 3.997
344.70 3.993
344.80 3.988
344.90 3.984
345.00 3.98
345.10 3.975
345.20 3.971
345.30 3.967
345.40 3.962
345.50 3.958
345.60 3.954
345.70 3.949
345.80 3.945
345.90 3.941
346.00 3.936
346.10 3.932
346.20 3.928
346.30 3.924
346.40 3.919
346.50 3.915
346.60 3.911
346.70 3.907
346.80 3.902
346.90 3.898
347.00 3.894
347.10 3.89
347.20 3.885
347.30 3.881
347.40 3.877
347.50 3.873
347.60 3.869
347.70 3.864
347.80 3.86
347.90 3.856
348.00 3.852
348.10 3.848
348.20 3.843
348.30 3.839
348.40 3.835
348.50 3.831
348.60 3.827
348.70 3.823
348.80 3.819
348.90 3.815
349.00 3.81
349.10 3.806
349.20 3.802
349.30 3.798
349.40 3.794
349.50 3.79
349.60 3.786
349.70 3.782
349.80 3.778
349.90 3.774
350.00 3.769
350.10 3.765
350.20 3.761
350.30 3.757
350.40 3.753
350.50 3.749
350.60 3.745
350.70 3.741
350.80 3.737
350.90 3.733
351.00 3.729
351.10 3.725
351.20 3.721
351.30 3.717
351.40 3.713
351.50 3.709
351.60 3.705
351.70 3.701
351.80 3.697
351.90 3.693
352.00 3.689
352.10 3.685
352.20 3.682
352.30 3.678
352.40 3.674
352.50 3.67
352.60 3.666
352.70 3.662
352.80 3.658
352.90 3.654
353.00 3.65
353.10 3.646
353.20 3.642
353.30 3.639
353.40 3.635
353.50 3.631
353.60 3.627
353.70 3.623
353.80 3.619
353.90 3.615
354.00 3.611
354.10 3.608
354.20 3.604
354.30 3.6
354.40 3.596
354.50 3.592
354.60 3.588
354.70 3.585
354.80 3.581
354.90 3.577
355.00 3.573
355.10 3.569
355.20 3.566
355.30 3.562
355.40 3.558
355.50 3.554
355.60 3.551
355.70 3.547
355.80 3.543
355.90 3.539
356.00 3.535
356.10 3.532
356.20 3.528
356.30 3.524
356.40 3.521
356.50 3.517
356.60 3.513
356.70 3.509
356.80 3.506
356.90 3.502
357.00 3.498
357.10 3.495
357.20 3.491
357.30 3.487
357.40 3.484
357.50 3.48
357.60 3.476
357.70 3.473
357.80 3.469
357.90 3.465
358.00 3.462
358.10 3.458
358.20 3.454
358.30 3.451
358.40 3.447
358.50 3.443
358.60 3.44
358.70 3.436
358.80 3.433
358.90 3.429
359.00 3.425
359.10 3.422
359.20 3.418
359.30 3.415
359.40 3.411
359.50 3.407
359.60 3.404
359.70 3.4
359.80 3.397
359.90 3.393
360.00 3.39
360.10 3.386
360.20 3.382
360.30 3.379
360.40 3.375
360.50 3.372
360.60 3.368
360.70 3.365
360.80 3.361
360.90 3.358
361.00 3.354
361.10 3.351
361.20 3.347
361.30 3.344
361.40 3.34
361.50 3.337
361.60 3.333
361.70 3.33
361.80 3.326
361.90 3.323
362.00 3.319
362.10 3.316
362.20 3.313
362.30 3.309
362.40 3.306
362.50 3.302
362.60 3.299
362.70 3.295
362.80 3.292
362.90 3.288
363.00 3.285
363.10 3.282
363.20 3.278
363.30 3.275
363.40 3.271
363.50 3.268
363.60 3.265
363.70 3.261
363.80 3.258
363.90 3.255
364.00 3.251
364.10 3.248
364.20 3.244
364.30 3.241
364.40 3.238
364.50 3.234
364.60 3.231
364.70 3.228
364.80 3.224
364.90 3.221
365.00 3.218
365.10 3.214
365.20 3.211
365.30 3.208
365.40 3.204
365.50 3.201
365.60 3.198
365.70 3.194
365.80 3.191
365.90 3.188
366.00 3.185
366.10 3.181
366.20 3.178
366.30 3.175
366.40 3.171
366.50 3.168
366.60 3.165
366.70 3.161
366.80 3.158
366.90 3.155
367.00 3.152
367.10 3.148
367.20 3.145
367.30 3.142
367.40 3.139
367.50 3.135
367.60 3.132
367.70 3.129
367.80 3.126
367.90 3.122
368.00 3.119
368.10 3.116
368.20 3.112
368.30 3.109
368.40 3.106
368.50 3.103
368.60 3.099
368.70 3.096
368.80 3.093
368.90 3.09
369.00 3.086
369.10 3.083
369.20 3.08
369.30 3.077
369.40 3.074
369.50 3.07
369.60 3.067
369.70 3.064
369.80 3.061
369.90 3.057
370.00 3.054
370.10 3.051
370.20 3.048
370.30 3.045
370.40 3.042
370.50 3.038
370.60 3.035
370.70 3.032
370.80 3.029
370.90 3.026
371.00 3.023
371.10 3.02
371.20 3.016
371.30 3.013
371.40 3.01
371.50 3.007
371.60 3.004
371.70 3.001
371.80 2.998
371.90 2.994
372.00 2.991
372.10 2.988
372.20 2.985
372.30 2.982
372.40 2.979
372.50 2.976
372.60 2.973
372.70 2.97
372.80 2.967
372.90 2.964
373.00 2.961
373.10 2.958
373.20 2.955
373.30 2.952
373.40 2.949
373.50 2.946
373.60 2.943
373.70 2.94
373.80 2.937
373.90 2.934
374.00 2.931
374.10 2.928
374.20 2.925
374.30 2.922
374.40 2.919
374.50 2.916
374.60 2.913
374.70 2.91
374.80 2.907
374.90 2.904
375.00 2.901
375.10 2.898
375.20 2.895
375.30 2.892
375.40 2.889
375.50 2.886
375.60 2.883
375.70 2.88
375.80 2.877
375.90 2.874
376.00 2.871
376.10 2.869
376.20 2.866
376.30 2.863
376.40 2.86
376.50 2.857
376.60 2.854
376.70 2.851
376.80 2.848
376.90 2.845
377.00 2.842
377.10 2.839
377.20 2.837
377.30 2.834
377.40 2.831
377.50 2.828
377.60 2.825
377.70 2.822
377.80 2.819
377.90 2.817
378.00 2.814
378.10 2.811
378.20 2.808
378.30 2.805
378.40 2.803
378.50 2.8
378.60 2.797
378.70 2.794
378.80 2.791
378.90 2.789
379.00 2.786
379.10 2.783
379.20 2.78
379.30 2.777
379.40 2.775
379.50 2.772
379.60 2.769
379.70 2.766
379.80 2.764
379.90 2.761
380.00 2.758
380.10 2.756
380.20 2.753
380.30 2.75
380.40 2.747
380.50 2.745
380.60 2.742
380.70 2.739
380.80 2.737
380.90 2.734
381.00 2.731
381.10 2.729
381.20 2.726
381.30 2.723
381.40 2.721
381.50 2.718
381.60 2.715
381.70 2.713
381.80 2.71
381.90 2.707
382.00 2.705
382.10 2.702
382.20 2.699
382.30 2.697
382.40 2.694
382.50 2.692
382.60 2.689
382.70 2.686
382.80 2.684
382.90 2.681
383.00 2.679
383.10 2.676
383.20 2.673
383.30 2.671
383.40 2.668
383.50 2.666
383.60 2.663
383.70 2.661
383.80 2.658
383.90 2.656
384.00 2.653
384.10 2.651
384.20 2.648
384.30 2.646
384.40 2.643
384.50 2.641
384.60 2.638
384.70 2.636
384.80 2.633
384.90 2.631
385.00 2.628
385.10 2.626
385.20 2.623
385.30 2.621
385.40 2.619
385.50 2.616
385.60 2.614
385.70 2.611
385.80 2.609
385.90 2.606
386.00 2.604
386.10 2.601
386.20 2.599
386.30 2.596
386.40 2.594
386.50 2.591
386.60 2.589
386.70 2.586
386.80 2.583
386.90 2.581
387.00 2.578
387.10 2.576
387.20 2.573
387.30 2.571
387.40 2.568
387.50 2.566
387.60 2.563
387.70 2.561
387.80 2.558
387.90 2.556
388.00 2.553
388.10 2.551
388.20 2.548
388.30 2.546
388.40 2.543
388.50 2.541
388.60 2.538
388.70 2.536
388.80 2.534
388.90 2.532
389.00 2.529
389.10 2.527
389.20 2.525
389.30 2.523
389.40 2.52
389.50 2.518
389.60 2.516
389.70 2.514
389.80 2.512
389.90 2.51
390.00 2.508
390.10 2.506
390.20 2.504
390.30 2.502
390.40 2.499
390.50 2.497
390.60 2.495
390.70 2.493
390.80 2.491
390.90 2.489
391.00 2.487
391.10 2.485
391.20 2.482
391.30 2.48
391.40 2.478
391.50 2.476
391.60 2.474
391.70 2.471
391.80 2.469
391.90 2.467
392.00 2.465
392.10 2.462
392.20 2.46
392.30 2.458
392.40 2.455
392.50 2.453
392.60 2.45
392.70 2.448
392.80 2.445
392.90 2.443
393.00 2.441
393.10 2.438
393.20 2.435
393.30 2.433
393.40 2.43
393.50 2.428
393.60 2.425
393.70 2.422
393.80 2.42
393.90 2.417
394.00 2.414
394.10 2.412
394.20 2.409
394.30 2.406
394.40 2.403
394.50 2.4
394.60 2.398
394.70 2.395
394.80 2.392
394.90 2.389
395.00 2.386
395.10 2.383
395.20 2.38
395.30 2.377
395.40 2.374
395.50 2.371
395.60 2.368
395.70 2.365
395.80 2.362
395.90 2.359
396.00 2.356
396.10 2.353
396.20 2.35
396.30 2.347
396.40 2.344
396.50 2.341
396.60 2.339
396.70 2.336
396.80 2.333
396.90 2.331
397.00 2.328
397.10 2.327
397.20 2.325
397.30 2.324
397.40 2.322
397.50 2.321
397.60 2.32
397.70 2.319
397.80 2.318
397.90 2.317
398.00 2.315
398.10 2.314
398.20 2.313
398.30 2.312
398.40 2.311
398.50 2.31
398.60 2.309
398.70 2.308
398.80 2.307
398.90 2.306
399.00 2.304
399.10 2.303
399.20 2.302
399.30 2.301
399.40 2.3
399.50 2.298
399.60 2.297
399.70 2.296
399.80 2.295
399.90 2.293
400.00 2.292
400.10 2.29
400.20 2.289
400.30 2.288
400.40 2.286
400.50 2.285
400.60 2.283
400.70 2.282
400.80 2.28
400.90 2.278
401.00 2.277
401.10 2.275
401.20 2.273
401.30 2.272
401.40 2.27
401.50 2.268
401.60 2.267
401.70 2.265
401.80 2.263
401.90 2.261
402.00 2.259
402.10 2.257
402.20 2.255
402.30 2.253
402.40 2.251
402.50 2.249
402.60 2.247
402.70 2.245
402.80 2.243
402.90 2.241
403.00 2.239
403.10 2.237
403.20 2.235
403.30 2.233
403.40 2.23
403.50 2.228
403.60 2.226
403.70 2.223
403.80 2.221
403.90 2.219
404.00 2.216
404.10 2.214
404.20 2.211
404.30 2.209
404.40 2.206
404.50 2.204
404.60 2.201
404.70 2.199
404.80 2.196
404.90 2.193
405.00 2.191
405.10 2.188
405.20 2.185
405.30 2.182
405.40 2.179
405.50 2.176
405.60 2.173
405.70 2.17
405.80 2.167
405.90 2.164
406.00 2.161
406.10 2.158
406.20 2.155
406.30 2.152
406.40 2.148
406.50 2.145
406.60 2.142
406.70 2.138
406.80 2.135
406.90 2.131
407.00 2.128
407.10 2.124
407.20 2.121
407.30 2.117
407.40 2.113
407.50 2.109
407.60 2.106
407.70 2.102
407.80 2.098
407.90 2.094
408.00 2.09
408.10 2.086
408.20 2.082
408.30 2.078
408.40 2.074
408.50 2.069
408.60 2.065
408.70 2.061
408.80 2.057
408.90 2.052
409.00 2.048
409.10 2.044
409.20 2.04
409.30 2.036
409.40 2.032
409.50 2.028
409.60 2.025
409.70 2.022
409.80 2.019
409.90 2.017
410.00 2.017
410.10 2.016
410.20 2.015
410.30 2.012
410.40 2.009
410.50 2.007
410.60 2.006
410.70 2.005
410.80 2.005
410.90 2.005
411.00 2.005
411.10 2.005
411.20 2.006
411.30 2.006
411.40 2.007
411.50 2.008
411.60 2.008
411.70 2.009
411.80 2.009
411.90 2.01
412.00 2.01
412.10 2.011
412.20 2.011
412.30 2.012
412.40 2.012
412.50 2.012
412.60 2.013
412.70 2.013
412.80 2.013
412.90 2.013
413.00 2.013
413.10 2.013
413.20 2.013
413.30 2.013
413.40 2.013
413.50 2.013
413.60 2.013
413.70 2.012
413.80 2.012
413.90 2.012
414.00 2.011
414.10 2.011
414.20 2.01
414.30 2.01
414.40 2.009
414.50 2.009
414.60 2.008
414.70 2.007
414.80 2.007
414.90 2.006
415.00 2.005
415.10 2.004
415.20 2.003
415.30 2.003
415.40 2.002
415.50 2.001
415.60 2
415.70 1.999
415.80 1.998
415.90 1.997
416.00 1.996
416.10 1.995
416.20 1.994
416.30 1.993
416.40 1.991
416.50 1.99
416.60 1.989
416.70 1.988
416.80 1.987
416.90 1.985
417.00 1.984
417.10 1.983
417.20 1.982
417.30 1.98
417.40 1.979
417.50 1.978
417.60 1.976
417.70 1.975
417.80 1.973
417.90 1.972
418.00 1.971
418.10 1.969
418.20 1.968
418.30 1.966
418.40 1.965
418.50 1.963
418.60 1.962
418.70 1.96
418.80 1.959
418.90 1.957
419.00 1.956
419.10 1.954
419.20 1.953
419.30 1.951
419.40 1.95
419.50 1.948
419.60 1.947
419.70 1.945
419.80 1.943
419.90 1.942
420.00 1.94
420.10 1.939
420.20 1.937
420.30 1.935
420.40 1.934
420.50 1.932
420.60 1.93
420.70 1.929
420.80 1.927
420.90 1.926
421.00 1.924
421.10 1.922
421.20 1.92
421.30 1.919
421.40 1.917
421.50 1.915
421.60 1.914
421.70 1.912
421.80 1.91
421.90 1.909
422.00 1.907
422.10 1.905
422.20 1.903
422.30 1.902
422.40 1.9
422.50 1.898
422.60 1.896
422.70 1.895
422.80 1.893
422.90 1.891
423.00 1.889
423.10 1.887
423.20 1.886
423.30 1.884
423.40 1.882
423.50 1.88
423.60 1.878
423.70 1.876
423.80 1.875
423.90 1.873
424.00 1.871
424.10 1.869
424.20 1.867
424.30 1.865
424.40 1.863
424.50 1.862
424.60 1.86
424.70 1.858
424.80 1.856
424.90 1.854
425.00 1.852
425.10 1.85
425.20 1.848
425.30 1.846
425.40 1.844
425.50 1.842
425.60 1.84
425.70 1.838
425.80 1.836
425.90 1.834
426.00 1.832
426.10 1.83
426.20 1.828
426.30 1.826
426.40 1.823
426.50 1.821
426.60 1.819
426.70 1.817
426.80 1.815
426.90 1.813
427.00 1.81
427.10 1.808
427.20 1.806
427.30 1.804
427.40 1.801
427.50 1.799
427.60 1.797
427.70 1.794
427.80 1.792
427.90 1.789
428.00 1.787
428.10 1.784
428.20 1.782
428.30 1.779
428.40 1.777
428.50 1.774
428.60 1.771
428.70 1.769
428.80 1.766
428.90 1.763
429.00 1.76
429.10 1.758
429.20 1.755
429.30 1.752
429.40 1.749
429.50 1.746
429.60 1.743
429.70 1.739
429.80 1.736
429.90 1.733
430.00 1.73
430.10 1.726
430.20 1.723
430.30 1.72
430.40 1.716
430.50 1.712
430.60 1.709
430.70 1.705
430.80 1.701
430.90 1.698
431.00 1.694
431.10 1.69
431.20 1.686
431.30 1.681
431.40 1.677
431.50 1.673
431.60 1.669
431.70 1.664
431.80 1.66
431.90 1.655
432.00 1.651
432.10 1.646
432.20 1.641
432.30 1.636
432.40 1.632
432.50 1.627
432.60 1.622
432.70 1.617
432.80 1.612
432.90 1.607
433.00 1.602
433.10 1.597
433.20 1.592
433.30 1.588
433.40 1.583
433.50 1.578
433.60 1.573
433.70 1.568
433.80 1.563
433.90 1.557
434.00 1.553
434.10 1.552
434.20 1.554
434.30 1.557
434.40 1.559
434.50 1.562
434.60 1.564
434.70 1.566
434.80 1.568
434.90 1.57
435.00 1.572
435.10 1.575
435.20 1.577
435.30 1.579
435.40 1.581
435.50 1.583
435.60 1.585
435.70 1.587
435.80 1.589
435.90 1.591
436.00 1.593
436.10 1.595
436.20 1.597
436.30 1.598
436.40 1.6
436.50 1.601
436.60 1.603
436.70 1.604
436.80 1.605
436.90 1.607
437.00 1.608
437.10 1.609
437.20 1.61
437.30 1.61
437.40 1.611
437.50 1.612
437.60 1.613
437.70 1.613
437.80 1.614
437.90 1.614
438.00 1.615
438.10 1.615
438.20 1.615
438.30 1.615
438.40 1.615
438.50 1.616
438.60 1.616
438.70 1.616
438.80 1.615
438.90 1.615
439.00 1.615
439.10 1.615
439.20 1.615
439.30 1.614
439.40 1.614
439.50 1.614
439.60 1.613
439.70 1.613
439.80 1.613
439.90 1.612
440.00 1.611
440.10 1.611
440.20 1.61
440.30 1.61
440.40 1.609
440.50 1.608
440.60 1.608
440.70 1.607
440.80 1.606
440.90 1.605
441.00 1.605
441.10 1.604
441.20 1.603
441.30 1.602
441.40 1.601
441.50 1.6
441.60 1.6
441.70 1.599
441.80 1.598
441.90 1.597
442.00 1.596
442.10 1.595
442.20 1.594
442.30 1.593
442.40 1.592
442.50 1.591
442.60 1.59
442.70 1.589
442.80 1.588
442.90 1.587
443.00 1.586
443.10 1.585
443.20 1.584
443.30 1.582
443.40 1.581
443.50 1.58
443.60 1.579
443.70 1.578
443.80 1.577
443.90 1.576
444.00 1.575
444.10 1.573
444.20 1.572
444.30 1.571
444.40 1.57
444.50 1.569
444.60 1.568
444.70 1.566
444.80 1.565
444.90 1.564
445.00 1.563
445.10 1.562
445.20 1.561
445.30 1.559
445.40 1.558
445.50 1.557
445.60 1.556
445.70 1.555
445.80 1.553
445.90 1.552
446.00 1.551
446.10 1.55
446.20 1.549
446.30 1.547
446.40 1.546
446.50 1.545
446.60 1.544
446.70 1.542
446.80 1.541
446.90 1.54
447.00 1.539
447.10 1.537
447.20 1.536
447.30 1.535
447.40 1.534
447.50 1.533
447.60 1.531
447.70 1.53
447.80 1.529
447.90 1.528
448.00 1.526
448.10 1.525
448.20 1.524
448.30 1.523
448.40 1.521
448.50 1.52
448.60 1.519
448.70 1.518
448.80 1.516
448.90 1.515
449.00 1.514
449.10 1.513
449.20 1.511
449.30 1.51
449.40 1.509
449.50 1.508
449.60 1.506
449.70 1.505
449.80 1.504
449.90 1.503
450.00 1.502
450.10 1.5
450.20 1.499
450.30 1.498
450.40 1.497
450.50 1.495
450.60 1.494
450.70 1.493
450.80 1.492
450.90 1.49
451.00 1.489
451.10 1.488
451.20 1.487
451.30 1.485
451.40 1.484
451.50 1.483
451.60 1.482
451.70 1.48
451.80 1.479
451.90 1.478
452.00 1.477
452.10 1.476
452.20 1.474
452.30 1.473
452.40 1.472
452.50 1.471
452.60 1.469
452.70 1.468
452.80 1.467
452.90 1.466
453.00 1.464
453.10 1.463
453.20 1.462
453.30 1.461
453.40 1.46
453.50 1.458
453.60 1.457
453.70 1.456
453.80 1.455
453.90 1.453
454.00 1.452
454.10 1.451
454.20 1.45
454.30 1.449
454.40 1.447
454.50 1.446
454.60 1.445
454.70 1.444
454.80 1.443
454.90 1.441
455.00 1.44
455.10 1.439
455.20 1.438
455.30 1.437
455.40 1.435
455.50 1.434
455.60 1.433
455.70 1.432
455.80 1.431
455.90 1.429
456.00 1.428
456.10 1.427
456.20 1.426
456.30 1.425
456.40 1.423
456.50 1.422
456.60 1.421
456.70 1.42
456.80 1.419
456.90 1.417
457.00 1.416
457.10 1.415
457.20 1.414
457.30 1.413
457.40 1.411
457.50 1.41
457.60 1.409
457.70 1.408
457.80 1.407
457.90 1.406
458.00 1.404
458.10 1.403
458.20 1.402
458.30 1.401
458.40 1.4
458.50 1.398
458.60 1.397
458.70 1.396
458.80 1.395
458.90 1.394
459.00 1.393
459.10 1.391
459.20 1.39
459.30 1.389
459.40 1.388
459.50 1.387
459.60 1.386
459.70 1.384
459.80 1.383
459.90 1.382
460.00 1.381
460.10 1.38
460.20 1.379
460.30 1.378
460.40 1.376
460.50 1.375
460.60 1.374
460.70 1.373
460.80 1.372
460.90 1.371
461.00 1.369
461.10 1.368
461.20 1.367
461.30 1.366
461.40 1.365
461.50 1.364
461.60 1.363
461.70 1.361
461.80 1.36
461.90 1.359
462.00 1.358
462.10 1.357
462.20 1.356
462.30 1.355
462.40 1.353
462.50 1.352
462.60 1.351
462.70 1.35
462.80 1.349
462.90 1.348
463.00 1.347
463.10 1.346
463.20 1.344
463.30 1.343
463.40 1.342
463.50 1.341
463.60 1.34
463.70 1.339
463.80 1.338
463.90 1.337
464.00 1.335
464.10 1.334
464.20 1.333
464.30 1.332
464.40 1.331
464.50 1.33
464.60 1.329
464.70 1.328
464.80 1.326
464.90 1.325
465.00 1.324
465.10 1.323
465.20 1.322
465.30 1.321
465.40 1.32
465.50 1.319
465.60 1.318
465.70 1.316
465.80 1.315
465.90 1.314
466.00 1.313
466.10 1.312
466.20 1.311
466.30 1.31
466.40 1.309
466.50 1.308
466.60 1.307
466.70 1.305
466.80 1.304
466.90 1.303
467.00 1.302
467.10 1.301
467.20 1.3
467.30 1.299
467.40 1.298
467.50 1.297
467.60 1.296
467.70 1.294
467.80 1.293
467.90 1.292
468.00 1.291
468.10 1.29
468.20 1.289
468.30 1.288
468.40 1.287
468.50 1.286
468.60 1.285
468.70 1.284
468.80 1.282
468.90 1.281
469.00 1.28
469.10 1.279
469.20 1.278
469.30 1.277
469.40 1.276
469.50 1.275
469.60 1.274
469.70 1.273
469.80 1.272
469.90 1.271
470.00 1.269
470.10 1.268
470.20 1.267
470.30 1.266
470.40 1.265
470.50 1.264
470.60 1.263
470.70 1.262
470.80 1.261
470.90 1.26
471.00 1.259
471.10 1.258
471.20 1.256
471.30 1.255
471.40 1.254
471.50 1.253
471.60 1.252
471.70 1.251
471.80 1.25
471.90 1.249
472.00 1.248
472.10 1.247
472.20 1.246
472.30 1.244
472.40 1.243
472.50 1.242
472.60 1.241
472.70 1.24
472.80 1.239
472.90 1.238
473.00 1.237
473.10 1.236
473.20 1.235
473.30 1.234
473.40 1.232
473.50 1.231
473.60 1.23
473.70 1.229
473.80 1.228
473.90 1.227
474.00 1.226
474.10 1.225
474.20 1.224
474.30 1.223
474.40 1.221
474.50 1.22
474.60 1.219
474.70 1.218
474.80 1.217
474.90 1.216
475.00 1.215
475.10 1.214
475.20 1.213
475.30 1.211
475.40 1.21
475.50 1.209
475.60 1.208
475.70 1.207
475.80 1.206
475.90 1.205
476.00 1.203
476.10 1.202
476.20 1.201
476.30 1.2
476.40 1.199
476.50 1.198
476.60 1.196
476.70 1.195
476.80 1.194
476.90 1.193
477.00 1.192
477.10 1.19
477.20 1.189
477.30 1.188
477.40 1.187
477.50 1.185
477.60 1.184
477.70 1.183
477.80 1.182
477.90 1.181
478.00 1.179
478.10 1.178
478.20 1.177
478.30 1.175
478.40 1.174
478.50 1.173
478.60 1.171
478.70 1.17
478.80 1.169
478.90 1.167
479.00 1.166
479.10 1.165
479.20 1.163
479.30 1.162
479.40 1.16
479.50 1.159
479.60 1.157
479.70 1.156
479.80 1.154
479.90 1.153
480.00 1.151
480.10 1.15
480.20 1.148
480.30 1.147
480.40 1.145
480.50 1.143
480.60 1.142
480.70 1.14
480.80 1.138
480.90 1.137
481.00 1.135
481.10 1.133
481.20 1.131
481.30 1.129
481.40 1.127
481.50 1.125
481.60 1.123
481.70 1.121
481.80 1.119
481.90 1.117
482.00 1.115
482.10 1.113
482.20 1.111
482.30 1.109
482.40 1.106
482.50 1.104
482.60 1.101
482.70 1.099
482.80 1.096
482.90 1.094
483.00 1.092
483.10 1.089
483.20 1.086
483.30 1.083
483.40 1.08
483.50 1.077
483.60 1.074
483.70 1.071
483.80 1.068
483.90 1.065
484.00 1.062
484.10 1.059
484.20 1.056
484.30 1.053
484.40 1.049
484.50 1.046
484.60 1.042
484.70 1.039
484.80 1.035
484.90 1.032
485.00 1.028
485.10 1.025
485.20 1.021
485.30 1.017
485.40 1.014
485.50 1.011
485.60 1.008
485.70 1.005
485.80 1.004
485.90 1.004
486.00 1.008
486.10 1.017
486.20 1.013
486.30 1.003
486.40 1
486.50 0.9987
486.60 0.9991
486.70 1
486.80 1.002
486.90 1.003
487.00 1.005
487.10 1.007
487.20 1.009
487.30 1.011
487.40 1.013
487.50 1.015
487.60 1.017
487.70 1.019
487.80 1.021
487.90 1.023
488.00 1.024
488.10 1.026
488.20 1.028
488.30 1.029
488.40 1.03
488.50 1.032
488.60 1.033
488.70 1.034
488.80 1.035
488.90 1.037
489.00 1.038
489.10 1.039
489.20 1.04
489.30 1.041
489.40 1.041
489.50 1.042
489.60 1.043
489.70 1.043
489.80 1.044
489.90 1.045
490.00 1.045
490.10 1.046
490.20 1.046
490.30 1.047
490.40 1.047
490.50 1.047
490.60 1.047
490.70 1.047
490.80 1.048
490.90 1.048
491.00 1.048
491.10 1.048
491.20 1.048
491.30 1.048
491.40 1.048
491.50 1.048
491.60 1.048
491.70 1.048
491.80 1.047
491.90 1.047
492.00 1.047
492.10 1.047
492.20 1.047
492.30 1.047
492.40 1.046
492.50 1.046
492.60 1.046
492.70 1.045
492.80 1.045
492.90 1.044
493.00 1.044
493.10 1.044
493.20 1.043
493.30 1.043
493.40 1.042
493.50 1.042
493.60 1.041
493.70 1.041
493.80 1.041
493.90 1.04
494.00 1.04
494.10 1.039
494.20 1.039
494.30 1.038
494.40 1.037
494.50 1.037
494.60 1.036
494.70 1.036
494.80 1.035
494.90 1.035
495.00 1.034
495.10 1.033
495.20 1.033
495.30 1.032
495.40 1.032
495.50 1.031
495.60 1.03
495.70 1.03
495.80 1.029
495.90 1.028
496.00 1.028
496.10 1.027
496.20 1.026
496.30 1.026
496.40 1.025
496.50 1.024
496.60 1.024
496.70 1.023
496.80 1.022
496.90 1.022
497.00 1.021
497.10 1.02
497.20 1.02
497.30 1.019
497.40 1.018
497.50 1.018
497.60 1.017
497.70 1.016
497.80 1.016
497.90 1.015
498.00 1.014
498.10 1.014
498.20 1.013
498.30 1.012
498.40 1.011
498.50 1.011
498.60 1.01
498.70 1.009
498.80 1.009
498.90 1.008
499.00 1.007
499.10 1.006
499.20 1.006
499.30 1.005
499.40 1.004
499.50 1.004
499.60 1.003
499.70 1.002
499.80 1.001
499.90 1.001
500.00 1
500.10 0.9993
500.20 0.9986
500.30 0.9978
500.40 0.9971
500.50 0.9964
500.60 0.9957
500.70 0.9949
500.80 0.9942
500.90 0.9935
501.00 0.9928
501.10 0.9921
501.20 0.9913
501.30 0.9906
501.40 0.9899
501.50 0.9892
501.60 0.9884
501.70 0.9877
501.80 0.987
501.90 0.9863
502.00 0.9855
502.10 0.9848
502.20 0.9841
502.30 0.9834
502.40 0.9826
502.50 0.9819
502.60 0.9812
502.70 0.9805
502.80 0.9797
502.90 0.979
503.00 0.9783
503.10 0.9776
503.20 0.9768
503.30 0.9761
503.40 0.9754
503.50 0.9747
503.60 0.9739
503.70 0.9732
503.80 0.9725
503.90 0.9718
504.00 0.971
504.10 0.9703
504.20 0.9696
504.30 0.9689
504.40 0.9682
504.50 0.9674
504.60 0.9667
504.70 0.966
504.80 0.9653
504.90 0.9646
505.00 0.9638
505.10 0.9631
505.20 0.9624
505.30 0.9617
505.40 0.961
505.50 0.9602
505.60 0.9595
505.70 0.9588
505.80 0.9581
505.90 0.9574
506.00 0.9567
506.10 0.9559
506.20 0.9552
506.30 0.9545
506.40 0.9538
506.50 0.9531
506.60 0.9524
506.70 0.9517
506.80 0.951
506.90 0.9502
507.00 0.9495
507.10 0.9488
507.20 0.9481
507.30 0.9474
507.40 0.9467
507.50 0.946
507.60 0.9453
507.70 0.9446
507.80 0.9439
507.90 0.9432
508.00 0.9424
508.10 0.9417
508.20 0.941
508.30 0.9403
508.40 0.9396
508.50 0.9389
508.60 0.9382
508.70 0.9375
508.80 0.9368
508.90 0.9361
509.00 0.9354
509.10 0.9347
509.20 0.934
509.30 0.9333
509.40 0.9326
509.50 0.9319
509.60 0.9312
509.70 0.9305
509.80 0.9298
509.90 0.9291
510.00 0.9284
510.10 0.9277
510.20 0.927
510.30 0.9264
510.40 0.9257
510.50 0.925
510.60 0.9243
510.70 0.9236
510.80 0.9229
510.90 0.9222
511.00 0.9215
511.10 0.9208
511.20 0.9201
511.30 0.9194
511.40 0.9188
511.50 0.9181
511.60 0.9174
511.70 0.9167
511.80 0.916
511.90 0.9153
512.00 0.9146
512.10 0.9139
512.20 0.9133
512.30 0.9126
512.40 0.9119
512.50 0.9112
512.60 0.9105
512.70 0.9099
512.80 0.9092
512.90 0.9085
513.00 0.9078
513.10 0.9071
513.20 0.9065
513.30 0.9058
513.40 0.9051
513.50 0.9044
513.60 0.9038
513.70 0.9031
513.80 0.9024
513.90 0.9017
514.00 0.9011
514.10 0.9004
514.20 0.8997
514.30 0.899
514.40 0.8984
514.50 0.8977
514.60 0.897
514.70 0.8964
514.80 0.8957
514.90 0.895
515.00 0.8944
515.10 0.8937
515.20 0.893
515.30 0.8924
515.40 0.8917
515.50 0.891
515.60 0.8904
515.70 0.8897
515.80 0.889
515.90 0.8884
516.00 0.8877
516.10 0.8871
516.20 0.8864
516.30 0.8857
516.40 0.8851
516.50 0.8844
516.60 0.8838
516.70 0.8831
516.80 0.8824
516.90 0.8818
517.00 0.8811
517.10 0.8805
517.20 0.8798
517.30 0.8792
517.40 0.8785
517.50 0.8779
517.60 0.8772
517.70 0.8766
517.80 0.8759
517.90 0.8753
518.00 0.8746
518.10 0.874
518.20 0.8733
518.30 0.8727
518.40 0.872
518.50 0.8714
518.60 0.8707
518.70 0.8701
518.80 0.8694
518.90 0.8688
519.00 0.8681
519.10 0.8675
519.20 0.8669
519.30 0.8662
519.40 0.8656
519.50 0.8649
519.60 0.8643
519.70 0.8637
519.80 0.863
519.90 0.8624
520.00 0.8617
520.10 0.8611
520.20 0.8605
520.30 0.8598
520.40 0.8592
520.50 0.8586
520.60 0.8579
520.70 0.8573
520.80 0.8566
520.90 0.856
521.00 0.8554
521.10 0.8547
521.20 0.8541
521.30 0.8535
521.40 0.8529
521.50 0.8522
521.60 0.8516
521.70 0.851
521.80 0.8503
521.90 0.8497
522.00 0.8491
522.10 0.8485
522.20 0.8478
522.30 0.8472
522.40 0.8466
522.50 0.846
522.60 0.8453
522.70 0.8447
522.80 0.8441
522.90 0.8435
523.00 0.8428
523.10 0.8422
523.20 0.8416
523.30 0.841
523.40 0.8404
523.50 0.8398
523.60 0.8391
523.70 0.8385
523.80 0.8379
523.90 0.8373
524.00 0.8367
524.10 0.836
524.20 0.8354
524.30 0.8348
524.40 0.8342
524.50 0.8336
524.60 0.833
524.70 0.8324
524.80 0.8318
524.90 0.8311
525.00 0.8305
525.10 0.8299
525.20 0.8293
525.30 0.8287
525.40 0.8281
525.50 0.8275
525.60 0.8269
525.70 0.8263
525.80 0.8257
525.90 0.8251
526.00 0.8245
526.10 0.8239
526.20 0.8233
526.30 0.8227
526.40 0.8221
526.50 0.8215
526.60 0.8208
526.70 0.8202
526.80 0.8196
526.90 0.819
527.00 0.8184
527.10 0.8178
527.20 0.8173
527.30 0.8167
527.40 0.8161
527.50 0.8155
527.60 0.8149
527.70 0.8143
527.80 0.8137
527.90 0.8131
528.00 0.8125
528.10 0.8119
528.20 0.8113
528.30 0.8107
528.40 0.8101
528.50 0.8095
528.60 0.8089
528.70 0.8083
528.80 0.8078
528.90 0.8072
529.00 0.8066
529.10 0.806
529.20 0.8054
529.30 0.8048
529.40 0.8042
529.50 0.8036
529.60 0.8031
529.70 0.8025
529.80 0.8019
529.90 0.8013
530.00 0.8007
530.10 0.8001
530.20 0.7995
530.30 0.799
530.40 0.7984
530.50 0.7978
530.60 0.7972
530.70 0.7966
530.80 0.7961
530.90 0.7955
531.00 0.7949
531.10 0.7943
531.20 0.7938
531.30 0.7932
531.40 0.7926
531.50 0.792
531.60 0.7915
531.70 0.7909
531.80 0.7903
531.90 0.7897
532.00 0.7892
532.10 0.7886
532.20 0.788
532.30 0.7874
532.40 0.7869
532.50 0.7863
532.60 0.7857
532.70 0.7852
532.80 0.7846
532.90 0.784
533.00 0.7835
533.10 0.7829
533.20 0.7823
533.30 0.7818
533.40 0.7812
533.50 0.7806
533.60 0.7801
533.70 0.7795
533.80 0.7789
533.90 0.7784
534.00 0.7778
534.10 0.7772
534.20 0.7767
534.30 0.7761
534.40 0.7756
534.50 0.775
534.60 0.7744
534.70 0.7739
534.80 0.7733
534.90 0.7728
535.00 0.7722
535.10 0.7717
535.20 0.7711
535.30 0.7705
535.40 0.77
535.50 0.7694
535.60 0.7689
535.70 0.7683
535.80 0.7678
535.90 0.7672
536.00 0.7667
536.10 0.7661
536.20 0.7656
536.30 0.765
536.40 0.7645
536.50 0.7639
536.60 0.7634
536.70 0.7628
536.80 0.7623
536.90 0.7617
537.00 0.7612
537.10 0.7606
537.20 0.7601
537.30 0.7595
537.40 0.759
537.50 0.7584
537.60 0.7579
537.70 0.7573
537.80 0.7568
537.90 0.7563
538.00 0.7557
538.10 0.7552
538.20 0.7546
538.30 0.7541
538.40 0.7535
538.50 0.753
538.60 0.7525
538.70 0.7519
538.80 0.7514
538.90 0.7508
539.00 0.7503
539.10 0.7498
539.20 0.7492
539.30 0.7487
539.40 0.7482
539.50 0.7476
539.60 0.7471
539.70 0.7466
539.80 0.746
539.90 0.7455
540.00 0.745
540.10 0.7444
540.20 0.7439
540.30 0.7434
540.40 0.7428
540.50 0.7423
540.60 0.7418
540.70 0.7412
540.80 0.7407
540.90 0.7402
541.00 0.7396
541.10 0.7391
541.20 0.7386
541.30 0.7381
541.40 0.7375
541.50 0.737
541.60 0.7365
541.70 0.736
541.80 0.7354
541.90 0.7349
542.00 0.7344
542.10 0.7339
542.20 0.7333
542.30 0.7328
542.40 0.7323
542.50 0.7318
542.60 0.7313
542.70 0.7307
542.80 0.7302
542.90 0.7297
543.00 0.7292
543.10 0.7287
543.20 0.7281
543.30 0.7276
543.40 0.7271
543.50 0.7266
543.60 0.7261
543.70 0.7256
543.80 0.725
543.90 0.7245
544.00 0.724
544.10 0.7235
544.20 0.723
544.30 0.7225
544.40 0.722
544.50 0.7214
544.60 0.7209
544.70 0.7204
544.80 0.7199
544.90 0.7194
545.00 0.7189
545.10 0.7184
545.20 0.7179
545.30 0.7174
545.40 0.7169
545.50 0.7163
545.60 0.7158
545.70 0.7153
545.80 0.7148
545.90 0.7143
546.00 0.7138
546.10 0.7133
546.20 0.7128
546.30 0.7123
546.40 0.7118
546.50 0.7113
546.60 0.7108
546.70 0.7103
546.80 0.7098
546.90 0.7093
547.00 0.7088
547.10 0.7083
547.20 0.7078
547.30 0.7073
547.40 0.7068
547.50 0.7063
547.60 0.7058
547.70 0.7053
547.80 0.7048
547.90 0.7043
548.00 0.7038
548.10 0.7033
548.20 0.7028
548.30 0.7023
548.40 0.7018
548.50 0.7013
548.60 0.7008
548.70 0.7003
548.80 0.6998
548.90 0.6993
549.00 0.6989
549.10 0.6984
549.20 0.6979
549.30 0.6974
549.40 0.6969
549.50 0.6964
549.60 0.6959
549.70 0.6954
549.80 0.6949
549.90 0.6944
550.00 0.694
550.10 0.6935
550.20 0.693
550.30 0.6925
550.40 0.692
550.50 0.6915
550.60 0.691
550.70 0.6905
550.80 0.6901
550.90 0.6896
551.00 0.6891
551.10 0.6886
551.20 0.6881
551.30 0.6876
551.40 0.6872
551.50 0.6867
551.60 0.6862
551.70 0.6857
551.80 0.6852
551.90 0.6848
552.00 0.6843
552.10 0.6838
552.20 0.6833
552.30 0.6828
552.40 0.6824
552.50 0.6819
552.60 0.6814
552.70 0.6809
552.80 0.6805
552.90 0.68
553.00 0.6795
553.10 0.679
553.20 0.6786
553.30 0.6781
553.40 0.6776
553.50 0.6771
553.60 0.6767
553.70 0.6762
553.80 0.6757
553.90 0.6753
554.00 0.6748
554.10 0.6743
554.20 0.6738
554.30 0.6734
554.40 0.6729
554.50 0.6724
554.60 0.672
554.70 0.6715
554.80 0.671
554.90 0.6706
555.00 0.6701
555.10 0.6696
555.20 0.6692
555.30 0.6687
555.40 0.6682
555.50 0.6678
555.60 0.6673
555.70 0.6668
555.80 0.6664
555.90 0.6659
556.00 0.6654
556.10 0.665
556.20 0.6645
556.30 0.6641
556.40 0.6636
556.50 0.6631
556.60 0.6627
556.70 0.6622
556.80 0.6617
556.90 0.6613
557.00 0.6608
557.10 0.6604
557.20 0.6599
557.30 0.6595
557.40 0.659
557.50 0.6585
557.60 0.6581
557.70 0.6576
557.80 0.6572
557.90 0.6567
558.00 0.6563
558.10 0.6558
558.20 0.6554
558.30 0.6549
558.40 0.6544
558.50 0.654
558.60 0.6535
558.70 0.6531
558.80 0.6526
558.90 0.6522
559.00 0.6517
559.10 0.6513
559.20 0.6508
559.30 0.6504
559.40 0.6499
559.50 0.6495
559.60 0.649
559.70 0.6486
559.80 0.6481
559.90 0.6477
560.00 0.6472
560.10 0.6468
560.20 0.6463
560.30 0.6459
560.40 0.6455
560.50 0.645
560.60 0.6446
560.70 0.6441
560.80 0.6437
560.90 0.6432
561.00 0.6428
561.10 0.6423
561.20 0.6419
561.30 0.6415
561.40 0.641
561.50 0.6406
561.60 0.6401
561.70 0.6397
561.80 0.6393
561.90 0.6388
562.00 0.6384
562.10 0.6379
562.20 0.6375
562.30 0.6371
562.40 0.6366
562.50 0.6362
562.60 0.6357
562.70 0.6353
562.80 0.6349
562.90 0.6344
563.00 0.634
563.10 0.6336
563.20 0.6331
563.30 0.6327
563.40 0.6323
563.50 0.6318
563.60 0.6314
563.70 0.631
563.80 0.6305
563.90 0.6301
564.00 0.6297
564.10 0.6292
564.20 0.6288
564.30 0.6284
564.40 0.6279
564.50 0.6275
564.60 0.6271
564.70 0.6266
564.80 0.6262
564.90 0.6258
565.00 0.6254
565.10 0.6249
565.20 0.6245
565.30 0.6241
565.40 0.6237
565.50 0.6232
565.60 0.6228
565.70 0.6224
565.80 0.6219
565.90 0.6215
566.00 0.6211
566.10 0.6207
566.20 0.6202
566.30 0.6198
566.40 0.6194
566.50 0.619
566.60 0.6186
566.70 0.6181
566.80 0.6177
566.90 0.6173
567.00 0.6169
567.10 0.6164
567.20 0.616
567.30 0.6156
567.40 0.6152
567.50 0.6148
567.60 0.6143
567.70 0.6139
567.80 0.6135
567.90 0.6131
568.00 0.6127
568.10 0.6123
568.20 0.6118
568.30 0.6114
568.40 0.611
568.50 0.6106
568.60 0.6102
568.70 0.6098
568.80 0.6093
568.90 0.6089
569.00 0.6085
569.10 0.6081
569.20 0.6077
569.30 0.6073
569.40 0.6069
569.50 0.6065
569.60 0.606
569.70 0.6056
569.80 0.6052
569.90 0.6048
570.00 0.6044
570.10 0.604
570.20 0.6036
570.30 0.6032
570.40 0.6028
570.50 0.6024
570.60 0.6019
570.70 0.6015
570.80 0.6011
570.90 0.6007
571.00 0.6003
571.10 0.5999
571.20 0.5995
571.30 0.5991
571.40 0.5987
571.50 0.5983
571.60 0.5979
571.70 0.5975
571.80 0.5971
571.90 0.5967
572.00 0.5963
572.10 0.5959
572.20 0.5955
572.30 0.5951
572.40 0.5946
572.50 0.5942
572.60 0.5938
572.70 0.5934
572.80 0.593
572.90 0.5926
573.00 0.5922
573.10 0.5918
573.20 0.5914
573.30 0.591
573.40 0.5906
573.50 0.5902
573.60 0.5898
573.70 0.5895
573.80 0.5891
573.90 0.5887
574.00 0.5883
574.10 0.5879
574.20 0.5875
574.30 0.5871
574.40 0.5867
574.50 0.5863
574.60 0.5859
574.70 0.5855
574.80 0.5851
574.90 0.5847
575.00 0.5843
575.10 0.5839
575.20 0.5835
575.30 0.5831
575.40 0.5827
575.50 0.5823
575.60 0.582
575.70 0.5816
575.80 0.5812
575.90 0.5808
576.00 0.5804
576.10 0.58
576.20 0.5796
576.30 0.5792
576.40 0.5788
576.50 0.5784
576.60 0.5781
576.70 0.5777
576.80 0.5773
576.90 0.5769
577.00 0.5765
577.10 0.5761
577.20 0.5757
577.30 0.5753
577.40 0.575
577.50 0.5746
577.60 0.5742
577.70 0.5738
577.80 0.5734
577.90 0.573
578.00 0.5727
578.10 0.5723
578.20 0.5719
578.30 0.5715
578.40 0.5711
578.50 0.5707
578.60 0.5704
578.70 0.57
578.80 0.5696
578.90 0.5692
579.00 0.5688
579.10 0.5685
579.20 0.5681
579.30 0.5677
579.40 0.5673
579.50 0.5669
579.60 0.5666
579.70 0.5662
579.80 0.5658
579.90 0.5654
580.00 0.565
580.10 0.5647
580.20 0.5643
580.30 0.5639
580.40 0.5635
580.50 0.5632
580.60 0.5628
580.70 0.5624
580.80 0.562
580.90 0.5617
581.00 0.5613
581.10 0.5609
581.20 0.5605
581.30 0.5602
581.40 0.5598
581.50 0.5594
581.60 0.559
581.70 0.5587
581.80 0.5583
581.90 0.5579
582.00 0.5576
582.10 0.5572
582.20 0.5568
582.30 0.5564
582.40 0.5561
582.50 0.5557
582.60 0.5553
582.70 0.555
582.80 0.5546
582.90 0.5542
583.00 0.5539
583.10 0.5535
583.20 0.5531
583.30 0.5528
583.40 0.5524
583.50 0.552
583.60 0.5517
583.70 0.5513
583.80 0.5509
583.90 0.5506
584.00 0.5502
584.10 0.5498
584.20 0.5495
584.30 0.5491
584.40 0.5487
584.50 0.5484
584.60 0.548
584.70 0.5477
584.80 0.5473
584.90 0.5469
585.00 0.5466
585.10 0.5462
585.20 0.5458
585.30 0.5455
585.40 0.5451
585.50 0.5448
585.60 0.5444
585.70 0.544
585.80 0.5437
585.90 0.5433
586.00 0.543
586.10 0.5426
586.20 0.5422
586.30 0.5419
586.40 0.5415
586.50 0.5412
586.60 0.5408
586.70 0.5405
586.80 0.5401
586.90 0.5397
587.00 0.5394
587.10 0.539
587.20 0.5387
587.30 0.5383
587.40 0.538
587.50 0.5376
587.60 0.5373
587.70 0.5369
587.80 0.5366
587.90 0.5362
588.00 0.5358
588.10 0.5355
588.20 0.5351
588.30 0.5348
588.40 0.5344
588.50 0.5341
588.60 0.5337
588.70 0.5334
588.80 0.533
588.90 0.5327
589.00 0.5323
589.10 0.532
589.20 0.5316
589.30 0.5313
589.40 0.5309
589.50 0.5306
589.60 0.5302
589.70 0.5299
589.80 0.5295
589.90 0.5292
590.00 0.5288
590.10 0.5285
590.20 0.5281
590.30 0.5278
590.40 0.5275
590.50 0.5271
590.60 0.5268
590.70 0.5264
590.80 0.5261
590.90 0.5257
591.00 0.5254
591.10 0.525
591.20 0.5247
591.30 0.5244
591.40 0.524
591.50 0.5237
591.60 0.5233
591.70 0.523
591.80 0.5226
591.90 0.5223
592.00 0.522
592.10 0.5216
592.20 0.5213
592.30 0.5209
592.40 0.5206
592.50 0.5202
592.60 0.5199
592.70 0.5196
592.80 0.5192
592.90 0.5189
593.00 0.5186
593.10 0.5182
593.20 0.5179
593.30 0.5175
593.40 0.5172
593.50 0.5169
593.60 0.5165
593.70 0.5162
593.80 0.5158
593.90 0.5155
594.00 0.5152
594.10 0.5148
594.20 0.5145
594.30 0.5142
594.40 0.5138
594.50 0.5135
594.60 0.5132
594.70 0.5128
594.80 0.5125
594.90 0.5122
595.00 0.5118
595.10 0.5115
595.20 0.5112
595.30 0.5108
595.40 0.5105
595.50 0.5102
595.60 0.5098
595.70 0.5095
595.80 0.5092
595.90 0.5088
596.00 0.5085
596.10 0.5082
596.20 0.5078
596.30 0.5075
596.40 0.5072
596.50 0.5069
596.60 0.5065
596.70 0.5062
596.80 0.5059
596.90 0.5055
597.00 0.5052
597.10 0.5049
597.20 0.5046
597.30 0.5042
597.40 0.5039
597.50 0.5036
597.60 0.5033
597.70 0.5029
597.80 0.5026
597.90 0.5023
598.00 0.5019
598.10 0.5016
598.20 0.5013
598.30 0.501
598.40 0.5006
598.50 0.5003
598.60 0.5
598.70 0.4997
598.80 0.4994
598.90 0.499
599.00 0.4987
599.10 0.4984
599.20 0.4981
599.30 0.4977
599.40 0.4974
599.50 0.4971
599.60 0.4968
599.70 0.4965
599.80 0.4961
599.90 0.4958
600.00 0.4955
600.10 0.4952
600.20 0.4949
600.30 0.4945
600.40 0.4942
600.50 0.4939
600.60 0.4936
600.70 0.4933
600.80 0.4929
600.90 0.4926
601.00 0.4923
601.10 0.492
601.20 0.4917
601.30 0.4914
601.40 0.491
601.50 0.4907
601.60 0.4904
601.70 0.4901
601.80 0.4898
601.90 0.4895
602.00 0.4891
602.10 0.4888
602.20 0.4885
602.30 0.4882
602.40 0.4879
602.50 0.4876
602.60 0.4873
602.70 0.4869
602.80 0.4866
602.90 0.4863
603.00 0.486
603.10 0.4857
603.20 0.4854
603.30 0.4851
603.40 0.4848
603.50 0.4844
603.60 0.4841
603.70 0.4838
603.80 0.4835
603.90 0.4832
604.00 0.4829
604.10 0.4826
604.20 0.4823
604.30 0.482
604.40 0.4817
604.50 0.4813
604.60 0.481
604.70 0.4807
604.80 0.4804
604.90 0.4801
605.00 0.4798
605.10 0.4795
605.20 0.4792
605.30 0.4789
605.40 0.4786
605.50 0.4783
605.60 0.478
605.70 0.4777
605.80 0.4773
605.90 0.477
606.00 0.4767
606.10 0.4764
606.20 0.4761
606.30 0.4758
606.40 0.4755
606.50 0.4752
606.60 0.4749
606.70 0.4746
606.80 0.4743
606.90 0.474
607.00 0.4737
607.10 0.4734
607.20 0.4731
607.30 0.4728
607.40 0.4725
607.50 0.4722
607.60 0.4719
607.70 0.4716
607.80 0.4713
607.90 0.471
608.00 0.4707
608.10 0.4704
608.20 0.4701
608.30 0.4698
608.40 0.4695
608.50 0.4692
608.60 0.4689
608.70 0.4686
608.80 0.4683
608.90 0.468
609.00 0.4677
609.10 0.4674
609.20 0.4671
609.30 0.4668
609.40 0.4665
609.50 0.4662
609.60 0.4659
609.70 0.4656
609.80 0.4653
609.90 0.465
610.00 0.4647
610.10 0.4644
610.20 0.4641
610.30 0.4638
610.40 0.4635
610.50 0.4632
610.60 0.463
610.70 0.4627
610.80 0.4624
610.90 0.4621
611.00 0.4618
611.10 0.4615
611.20 0.4612
611.30 0.4609
611.40 0.4606
611.50 0.4603
611.60 0.46
611.70 0.4597
611.80 0.4594
611.90 0.4591
612.00 0.4589
612.10 0.4586
612.20 0.4583
612.30 0.458
612.40 0.4577
612.50 0.4574
612.60 0.4571
612.70 0.4568
612.80 0.4565
612.90 0.4562
613.00 0.456
613.10 0.4557
613.20 0.4554
613.30 0.4551
613.40 0.4548
613.50 0.4545
613.60 0.4542
613.70 0.4539
613.80 0.4537
613.90 0.4534
614.00 0.4531
614.10 0.4528
614.20 0.4525
614.30 0.4522
614.40 0.4519
614.50 0.4516
614.60 0.4514
614.70 0.4511
614.80 0.4508
614.90 0.4505
615.00 0.4502
615.10 0.4499
615.20 0.4497
615.30 0.4494
615.40 0.4491
615.50 0.4488
615.60 0.4485
615.70 0.4482
615.80 0.448
615.90 0.4477
616.00 0.4474
616.10 0.4471
616.20 0.4468
616.30 0.4465
616.40 0.4463
616.50 0.446
616.60 0.4457
616.70 0.4454
616.80 0.4451
616.90 0.4449
617.00 0.4446
617.10 0.4443
617.20 0.444
617.30 0.4437
617.40 0.4435
617.50 0.4432
617.60 0.4429
617.70 0.4426
617.80 0.4424
617.90 0.4421
618.00 0.4418
618.10 0.4415
618.20 0.4412
618.30 0.441
618.40 0.4407
618.50 0.4404
618.60 0.4401
618.70 0.4399
618.80 0.4396
618.90 0.4393
619.00 0.439
619.10 0.4387
619.20 0.4385
619.30 0.4382
619.40 0.4379
619.50 0.4377
619.60 0.4374
619.70 0.4371
619.80 0.4368
619.90 0.4366
620.00 0.4363
620.10 0.436
620.20 0.4357
620.30 0.4355
620.40 0.4352
620.50 0.4349
620.60 0.4346
620.70 0.4344
620.80 0.4341
620.90 0.4338
621.00 0.4336
621.10 0.4333
621.20 0.433
621.30 0.4327
621.40 0.4325
621.50 0.4322
621.60 0.4319
621.70 0.4317
621.80 0.4314
621.90 0.4311
622.00 0.4308
622.10 0.4306
622.20 0.4303
622.30 0.43
622.40 0.4298
622.50 0.4295
622.60 0.4292
622.70 0.429
622.80 0.4287
622.90 0.4284
623.00 0.4282
623.10 0.4279
623.20 0.4276
623.30 0.4274
623.40 0.4271
623.50 0.4268
623.60 0.4266
623.70 0.4263
623.80 0.426
623.90 0.4258
624.00 0.4255
624.10 0.4252
624.20 0.425
624.30 0.4247
624.40 0.4244
624.50 0.4242
624.60 0.4239
624.70 0.4236
624.80 0.4234
624.90 0.4231
625.00 0.4229
625.10 0.4226
625.20 0.4223
625.30 0.4221
625.40 0.4218
625.50 0.4215
625.60 0.4213
625.70 0.421
625.80 0.4208
625.90 0.4205
626.00 0.4202
626.10 0.42
626.20 0.4197
626.30 0.4194
626.40 0.4192
626.50 0.4189
626.60 0.4187
626.70 0.4184
626.80 0.4181
626.90 0.4179
627.00 0.4176
627.10 0.4174
627.20 0.4171
627.30 0.4168
627.40 0.4166
627.50 0.4163
627.60 0.4161
627.70 0.4158
627.80 0.4155
627.90 0.4153
628.00 0.415
628.10 0.4148
628.20 0.4145
628.30 0.4143
628.40 0.414
628.50 0.4137
628.60 0.4135
628.70 0.4132
628.80 0.413
628.90 0.4127
629.00 0.4125
629.10 0.4122
629.20 0.4119
629.30 0.4117
629.40 0.4114
629.50 0.4112
629.60 0.4109
629.70 0.4107
629.80 0.4104
629.90 0.4102
630.00 0.4099
630.10 0.4097
630.20 0.4094
630.30 0.4091
630.40 0.4089
630.50 0.4086
630.60 0.4084
630.70 0.4081
630.80 0.4079
630.90 0.4076
631.00 0.4074
631.10 0.4071
631.20 0.4069
631.30 0.4066
631.40 0.4064
631.50 0.4061
631.60 0.4059
631.70 0.4056
631.80 0.4054
631.90 0.4051
632.00 0.4049
632.10 0.4046
632.20 0.4043
632.30 0.4041
632.40 0.4038
632.50 0.4036
632.60 0.4033
632.70 0.4031
632.80 0.4028
632.90 0.4026
633.00 0.4023
633.10 0.4021
633.20 0.4018
633.30 0.4016
633.40 0.4013
633.50 0.4011
633.60 0.4009
633.70 0.4006
633.80 0.4004
633.90 0.4001
634.00 0.3999
634.10 0.3996
634.20 0.3994
634.30 0.3991
634.40 0.3989
634.50 0.3986
634.60 0.3984
634.70 0.3981
634.80 0.3979
634.90 0.3976
635.00 0.3974
635.10 0.3971
635.20 0.3969
635.30 0.3966
635.40 0.3964
635.50 0.3961
635.60 0.3959
635.70 0.3957
635.80 0.3954
635.90 0.3952
636.00 0.3949
636.10 0.3947
636.20 0.3944
636.30 0.3942
636.40 0.3939
636.50 0.3937
636.60 0.3934
636.70 0.3932
636.80 0.393
636.90 0.3927
637.00 0.3925
637.10 0.3922
637.20 0.392
637.30 0.3917
637.40 0.3915
637.50 0.3912
637.60 0.391
637.70 0.3908
637.80 0.3905
637.90 0.3903
638.00 0.39
638.10 0.3898
638.20 0.3895
638.30 0.3893
638.40 0.3891
638.50 0.3888
638.60 0.3886
638.70 0.3883
638.80 0.3881
638.90 0.3878
639.00 0.3876
639.10 0.3874
639.20 0.3871
639.30 0.3869
639.40 0.3866
639.50 0.3864
639.60 0.3861
639.70 0.3859
639.80 0.3857
639.90 0.3854
640.00 0.3852
640.10 0.3849
640.20 0.3847
640.30 0.3844
640.40 0.3842
640.50 0.384
640.60 0.3837
640.70 0.3835
640.80 0.3832
640.90 0.383
641.00 0.3827
641.10 0.3825
641.20 0.3823
641.30 0.382
641.40 0.3818
641.50 0.3815
641.60 0.3813
641.70 0.381
641.80 0.3808
641.90 0.3806
642.00 0.3803
642.10 0.3801
642.20 0.3798
642.30 0.3796
642.40 0.3793
642.50 0.3791
642.60 0.3788
642.70 0.3786
642.80 0.3784
642.90 0.3781
643.00 0.3779
643.10 0.3776
643.20 0.3774
643.30 0.3771
643.40 0.3769
643.50 0.3766
643.60 0.3764
643.70 0.3761
643.80 0.3759
643.90 0.3757
644.00 0.3754
644.10 0.3752
644.20 0.3749
644.30 0.3747
644.40 0.3744
644.50 0.3742
644.60 0.3739
644.70 0.3737
644.80 0.3734
644.90 0.3732
645.00 0.3729
645.10 0.3727
645.20 0.3724
645.30 0.3722
645.40 0.3719
645.50 0.3717
645.60 0.3714
645.70 0.3711
645.80 0.3709
645.90 0.3706
646.00 0.3704
646.10 0.3701
646.20 0.3699
646.30 0.3696
646.40 0.3693
646.50 0.3691
646.60 0.3688
646.70 0.3685
646.80 0.3683
646.90 0.368
647.00 0.3677
647.10 0.3675
647.20 0.3672
647.30 0.3669
647.40 0.3667
647.50 0.3664
647.60 0.3661
647.70 0.3658
647.80 0.3656
647.90 0.3653
648.00 0.365
648.10 0.3647
648.20 0.3644
648.30 0.3642
648.40 0.3639
648.50 0.3636
648.60 0.3633
648.70 0.363
648.80 0.3627
648.90 0.3624
649.00 0.3621
649.10 0.3618
649.20 0.3615
649.30 0.3612
649.40 0.3608
649.50 0.3605
649.60 0.3602
649.70 0.3598
649.80 0.3595
649.90 0.3592
650.00 0.3589
650.10 0.3585
650.20 0.3582
650.30 0.3579
650.40 0.3575
650.50 0.3571
650.60 0.3567
650.70 0.3564
650.80 0.356
650.90 0.3556
651.00 0.3552
651.10 0.3549
651.20 0.3545
651.30 0.3541
651.40 0.3536
651.50 0.3532
651.60 0.3527
651.70 0.3523
651.80 0.3518
651.90 0.3514
652.00 0.3509
652.10 0.3505
652.20 0.3501
652.30 0.3496
652.40 0.349
652.50 0.3485
652.60 0.3479
652.70 0.3474
652.80 0.3468
652.90 0.3463
653.00 0.3457
653.10 0.3452
653.20 0.3446
653.30 0.344
653.40 0.3433
653.50 0.3426
653.60 0.342
653.70 0.3413
653.80 0.3406
653.90 0.3399
654.00 0.3392
654.10 0.3385
654.20 0.3378
654.30 0.3371
654.40 0.3363
654.50 0.3355
654.60 0.3347
654.70 0.3339
654.80 0.3331
654.90 0.3323
655.00 0.3315
655.10 0.3306
655.20 0.3298
655.30 0.329
655.40 0.3281
655.50 0.3273
655.60 0.3266
655.70 0.3259
655.80 0.3254
655.90 0.3251
656.00 0.3258
656.10 0.3271
656.20 0.3377
656.30 0.3503
656.40 0.3314
656.50 0.3255
656.60 0.3244
656.70 0.3235
656.80 0.3236
656.90 0.3238
657.00 0.3242
657.10 0.3246
657.20 0.325
657.30 0.3254
657.40 0.3259
657.50 0.3263
657.60 0.3268
657.70 0.3272
657.80 0.3277
657.90 0.3281
658.00 0.3285
658.10 0.3289
658.20 0.3293
658.30 0.3296
658.40 0.3299
658.50 0.3302
658.60 0.3305
658.70 0.3308
658.80 0.3311
658.90 0.3314
659.00 0.3317
659.10 0.3319
659.20 0.3322
659.30 0.3325
659.40 0.3326
659.50 0.3328
659.60 0.3329
659.70 0.333
659.80 0.3332
659.90 0.3333
660.00 0.3335
660.10 0.3336
660.20 0.3337
660.30 0.3339
660.40 0.3339
660.50 0.3339
660.60 0.3339
660.70 0.334
660.80 0.334
660.90 0.334
661.00 0.3341
661.10 0.3341
661.20 0.3341
661.30 0.3341
661.40 0.3341
661.50 0.3341
661.60 0.334
661.70 0.334
661.80 0.3339
661.90 0.3339
662.00 0.3338
662.10 0.3338
662.20 0.3338
662.30 0.3337
662.40 0.3336
662.50 0.3335
662.60 0.3334
662.70 0.3333
662.80 0.3332
662.90 0.3332
663.00 0.3331
663.10 0.333
663.20 0.3329
663.30 0.3328
663.40 0.3327
663.50 0.3325
663.60 0.3324
663.70 0.3323
663.80 0.3322
663.90 0.3321
664.00 0.3319
664.10 0.3318
664.20 0.3317
664.30 0.3316
664.40 0.3314
664.50 0.3313
664.60 0.3311
664.70 0.331
664.80 0.3309
664.90 0.3307
665.00 0.3306
665.10 0.3304
665.20 0.3303
665.30 0.3301
665.40 0.33
665.50 0.3298
665.60 0.3297
665.70 0.3295
665.80 0.3294
665.90 0.3292
666.00 0.3291
666.10 0.3289
666.20 0.3287
666.30 0.3286
666.40 0.3284
666.50 0.3283
666.60 0.3281
666.70 0.3279
666.80 0.3278
666.90 0.3276
667.00 0.3274
667.10 0.3273
667.20 0.3271
667.30 0.327
667.40 0.3268
667.50 0.3266
667.60 0.3264
667.70 0.3263
667.80 0.3261
667.90 0.3259
668.00 0.3258
668.10 0.3256
668.20 0.3254
668.30 0.3253
668.40 0.3251
668.50 0.3249
668.60 0.3247
668.70 0.3246
668.80 0.3244
668.90 0.3242
669.00 0.3241
669.10 0.3239
669.20 0.3237
669.30 0.3235
669.40 0.3234
669.50 0.3232
669.60 0.323
669.70 0.3228
669.80 0.3227
669.90 0.3225
670.00 0.3223
670.10 0.3221
670.20 0.322
670.30 0.3218
670.40 0.3216
670.50 0.3214
670.60 0.3213
670.70 0.3211
670.80 0.3209
670.90 0.3207
671.00 0.3206
671.10 0.3204
671.20 0.3202
671.30 0.32
671.40 0.3199
671.50 0.3197
671.60 0.3195
671.70 0.3193
671.80 0.3191
671.90 0.319
672.00 0.3188
672.10 0.3186
672.20 0.3184
672.30 0.3183
672.40 0.3181
672.50 0.3179
672.60 0.3177
672.70 0.3176
672.80 0.3174
672.90 0.3172
673.00 0.317
673.10 0.3169
673.20 0.3167
673.30 0.3165
673.40 0.3163
673.50 0.3161
673.60 0.316
673.70 0.3158
673.80 0.3156
673.90 0.3154
674.00 0.3153
674.10 0.3151
674.20 0.3149
674.30 0.3147
674.40 0.3146
674.50 0.3144
674.60 0.3142
674.70 0.314
674.80 0.3138
674.90 0.3137
675.00 0.3135
675.10 0.3133
675.20 0.3131
675.30 0.313
675.40 0.3128
675.50 0.3126
675.60 0.3124
675.70 0.3123
675.80 0.3121
675.90 0.3119
676.00 0.3117
676.10 0.3116
676.20 0.3114
676.30 0.3112
676.40 0.311
676.50 0.3109
676.60 0.3107
676.70 0.3105
676.80 0.3103
676.90 0.3102
677.00 0.31
677.10 0.3098
677.20 0.3096
677.30 0.3095
677.40 0.3093
677.50 0.3091
677.60 0.3089
677.70 0.3088
677.80 0.3086
677.90 0.3084
678.00 0.3082
678.10 0.3081
678.20 0.3079
678.30 0.3077
678.40 0.3075
678.50 0.3074
678.60 0.3072
678.70 0.307
678.80 0.3068
678.90 0.3067
679.00 0.3065
679.10 0.3063
679.20 0.3062
679.30 0.306
679.40 0.3058
679.50 0.3056
679.60 0.3055
679.70 0.3053
679.80 0.3051
679.90 0.3049
680.00 0.3048
680.10 0.3046
680.20 0.3044
680.30 0.3043
680.40 0.3041
680.50 0.3039
680.60 0.3037
680.70 0.3036
680.80 0.3034
680.90 0.3032
681.00 0.3031
681.10 0.3029
681.20 0.3027
681.30 0.3025
681.40 0.3024
681.50 0.3022
681.60 0.302
681.70 0.3019
681.80 0.3017
681.90 0.3015
682.00 0.3013
682.10 0.3012
682.20 0.301
682.30 0.3008
682.40 0.3007
682.50 0.3005
682.60 0.3003
682.70 0.3002
682.80 0.3
682.90 0.2998
683.00 0.2997
683.10 0.2995
683.20 0.2993
683.30 0.2991
683.40 0.299
683.50 0.2988
683.60 0.2986
683.70 0.2985
683.80 0.2983
683.90 0.2981
684.00 0.298
684.10 0.2978
684.20 0.2976
684.30 0.2975
684.40 0.2973
684.50 0.2971
684.60 0.297
684.70 0.2968
684.80 0.2966
684.90 0.2965
685.00 0.2963
685.10 0.2961
685.20 0.296
685.30 0.2958
685.40 0.2956
685.50 0.2955
685.60 0.2953
685.70 0.2951
685.80 0.295
685.90 0.2948
686.00 0.2946
686.10 0.2945
686.20 0.2943
686.30 0.2941
686.40 0.294
686.50 0.2938
686.60 0.2936
686.70 0.2935
686.80 0.2933
686.90 0.2931
687.00 0.293
687.10 0.2928
687.20 0.2926
687.30 0.2925
687.40 0.2923
687.50 0.2921
687.60 0.292
687.70 0.2918
687.80 0.2916
687.90 0.2915
688.00 0.2913
688.10 0.2912
688.20 0.291
688.30 0.2908
688.40 0.2907
688.50 0.2905
688.60 0.2903
688.70 0.2902
688.80 0.29
688.90 0.2899
689.00 0.2897
689.10 0.2895
689.20 0.2894
689.30 0.2892
689.40 0.289
689.50 0.2889
689.60 0.2887
689.70 0.2886
689.80 0.2884
689.90 0.2882
690.00 0.2881
690.10 0.2879
690.20 0.2877
690.30 0.2876
690.40 0.2874
690.50 0.2873
690.60 0.2871
690.70 0.2869
690.80 0.2868
690.90 0.2866
691.00 0.2865
691.10 0.2863
691.20 0.2861
691.30 0.286
691.40 0.2858
691.50 0.2857
691.60 0.2855
691.70 0.2853
691.80 0.2852
691.90 0.285
692.00 0.2849
692.10 0.2847
692.20 0.2845
692.30 0.2844
692.40 0.2842
692.50 0.2841
692.60 0.2839
692.70 0.2837
692.80 0.2836
692.90 0.2834
693.00 0.2833
693.10 0.2831
693.20 0.283
693.30 0.2828
693.40 0.2826
693.50 0.2825
693.60 0.2823
693.70 0.2822
693.80 0.282
693.90 0.2818
694.00 0.2817
694.10 0.2815
694.20 0.2814
694.30 0.2812
694.40 0.2811
694.50 0.2809
694.60 0.2807
694.70 0.2806
694.80 0.2804
694.90 0.2803
695.00 0.2801
695.10 0.28
695.20 0.2798
695.30 0.2796
695.40 0.2795
695.50 0.2793
695.60 0.2792
695.70 0.279
695.80 0.2789
695.90 0.2787
696.00 0.2786
696.10 0.2784
696.20 0.2783
696.30 0.2781
696.40 0.2779
696.50 0.2778
696.60 0.2776
696.70 0.2775
696.80 0.2773
696.90 0.2772
697.00 0.277
697.10 0.2769
697.20 0.2767
697.30 0.2766
697.40 0.2764
697.50 0.2762
697.60 0.2761
697.70 0.2759
697.80 0.2758
697.90 0.2756
698.00 0.2755
698.10 0.2753
698.20 0.2752
698.30 0.275
698.40 0.2749
698.50 0.2747
698.60 0.2746
698.70 0.2744
698.80 0.2743
698.90 0.2741
699.00 0.274
699.10 0.2738
699.20 0.2736
699.30 0.2735
699.40 0.2733
699.50 0.2732
699.60 0.273
699.70 0.2729
699.80 0.2727
699.90 0.2726
700.00 0.2724
700.10 0.2723
700.20 0.2721
700.30 0.272
700.40 0.2718
700.50 0.2717
700.60 0.2715
700.70 0.2714
700.80 0.2712
700.90 0.2711
701.00 0.2709
701.10 0.2708
701.20 0.2706
701.30 0.2705
701.40 0.2703
701.50 0.2702
701.60 0.27
701.70 0.2699
701.80 0.2697
701.90 0.2696
702.00 0.2694
702.10 0.2693
702.20 0.2691
702.30 0.269
702.40 0.2688
702.50 0.2687
702.60 0.2685
702.70 0.2684
702.80 0.2682
702.90 0.2681
703.00 0.268
703.10 0.2678
703.20 0.2677
703.30 0.2675
703.40 0.2674
703.50 0.2672
703.60 0.2671
703.70 0.2669
703.80 0.2668
703.90 0.2666
704.00 0.2665
704.10 0.2663
704.20 0.2662
704.30 0.266
704.40 0.2659
704.50 0.2657
704.60 0.2656
704.70 0.2654
704.80 0.2653
704.90 0.2652
705.00 0.265
705.10 0.2649
705.20 0.2647
705.30 0.2646
705.40 0.2644
705.50 0.2643
705.60 0.2641
705.70 0.264
705.80 0.2638
705.90 0.2637
706.00 0.2636
706.10 0.2634
706.20 0.2633
706.30 0.2631
706.40 0.263
706.50 0.2628
706.60 0.2627
706.70 0.2625
706.80 0.2624
706.90 0.2623
707.00 0.2621
707.10 0.262
707.20 0.2618
707.30 0.2617
707.40 0.2615
707.50 0.2614
707.60 0.2613
707.70 0.2611
707.80 0.261
707.90 0.2608
708.00 0.2607
708.10 0.2605
708.20 0.2604
708.30 0.2602
708.40 0.2601
708.50 0.26
708.60 0.2598
708.70 0.2597
708.80 0.2595
708.90 0.2594
709.00 0.2592
709.10 0.2591
709.20 0.259
709.30 0.2588
709.40 0.2587
709.50 0.2585
709.60 0.2584
709.70 0.2583
709.80 0.2581
709.90 0.258
710.00 0.2578
710.10 0.2577
710.20 0.2575
710.30 0.2574
710.40 0.2573
710.50 0.2571
710.60 0.257
710.70 0.2568
710.80 0.2567
710.90 0.2566
711.00 0.2564
711.10 0.2563
711.20 0.2561
711.30 0.256
711.40 0.2559
711.50 0.2557
711.60 0.2556
711.70 0.2555
711.80 0.2553
711.90 0.2552
712.00 0.255
712.10 0.2549
712.20 0.2548
712.30 0.2546
712.40 0.2545
712.50 0.2543
712.60 0.2542
712.70 0.2541
712.80 0.2539
712.90 0.2538
713.00 0.2536
713.10 0.2535
713.20 0.2534
713.30 0.2532
713.40 0.2531
713.50 0.253
713.60 0.2528
713.70 0.2527
713.80 0.2525
713.90 0.2524
714.00 0.2523
714.10 0.2521
714.20 0.252
714.30 0.2519
714.40 0.2517
714.50 0.2516
714.60 0.2514
714.70 0.2513
714.80 0.2512
714.90 0.251
715.00 0.2509
715.10 0.2508
715.20 0.2506
715.30 0.2505
715.40 0.2504
715.50 0.2502
715.60 0.2501
715.70 0.2499
715.80 0.2498
715.90 0.2497
716.00 0.2495
716.10 0.2494
716.20 0.2493
716.30 0.2491
716.40 0.249
716.50 0.2489
716.60 0.2487
716.70 0.2486
716.80 0.2485
716.90 0.2483
717.00 0.2482
717.10 0.2481
717.20 0.2479
717.30 0.2478
717.40 0.2477
717.50 0.2475
717.60 0.2474
717.70 0.2473
717.80 0.2471
717.90 0.247
718.00 0.2469
718.10 0.2467
718.20 0.2466
718.30 0.2464
718.40 0.2463
718.50 0.2462
718.60 0.246
718.70 0.2459
718.80 0.2458
718.90 0.2456
719.00 0.2455
719.10 0.2454
719.20 0.2452
719.30 0.2451
719.40 0.245
719.50 0.2449
719.60 0.2447
719.70 0.2446
719.80 0.2445
719.90 0.2443
720.00 0.2442
720.10 0.2441
720.20 0.2439
720.30 0.2438
720.40 0.2437
720.50 0.2435
720.60 0.2434
720.70 0.2433
720.80 0.2431
720.90 0.243
721.00 0.2429
721.10 0.2427
721.20 0.2426
721.30 0.2425
721.40 0.2424
721.50 0.2422
721.60 0.2421
721.70 0.242
721.80 0.2418
721.90 0.2417
722.00 0.2416
722.10 0.2414
722.20 0.2413
722.30 0.2412
722.40 0.2411
722.50 0.2409
722.60 0.2408
722.70 0.2407
722.80 0.2405
722.90 0.2404
723.00 0.2403
723.10 0.2402
723.20 0.24
723.30 0.2399
723.40 0.2398
723.50 0.2396
723.60 0.2395
723.70 0.2394
723.80 0.2392
723.90 0.2391
724.00 0.239
724.10 0.2389
724.20 0.2387
724.30 0.2386
724.40 0.2385
724.50 0.2383
724.60 0.2382
724.70 0.2381
724.80 0.238
724.90 0.2378
725.00 0.2377
725.10 0.2376
725.20 0.2375
725.30 0.2373
725.40 0.2372
725.50 0.2371
725.60 0.2369
725.70 0.2368
725.80 0.2367
725.90 0.2366
726.00 0.2364
726.10 0.2363
726.20 0.2362
726.30 0.2361
726.40 0.2359
726.50 0.2358
726.60 0.2357
726.70 0.2356
726.80 0.2354
726.90 0.2353
727.00 0.2352
727.10 0.2351
727.20 0.2349
727.30 0.2348
727.40 0.2347
727.50 0.2346
727.60 0.2344
727.70 0.2343
727.80 0.2342
727.90 0.2341
728.00 0.2339
728.10 0.2338
728.20 0.2337
728.30 0.2336
728.40 0.2334
728.50 0.2333
728.60 0.2332
728.70 0.2331
728.80 0.2329
728.90 0.2328
729.00 0.2327
729.10 0.2326
729.20 0.2324
729.30 0.2323
729.40 0.2322
729.50 0.2321
729.60 0.2319
729.70 0.2318
729.80 0.2317
729.90 0.2316
730.00 0.2314
730.10 0.2313
730.20 0.2312
730.30 0.2311
730.40 0.2309
730.50 0.2308
730.60 0.2307
730.70 0.2306
730.80 0.2305
730.90 0.2303
731.00 0.2302
731.10 0.2301
731.20 0.23
731.30 0.2299
731.40 0.2297
731.50 0.2296
731.60 0.2295
731.70 0.2294
731.80 0.2292
731.90 0.2291
732.00 0.229
732.10 0.2289
732.20 0.2288
732.30 0.2286
732.40 0.2285
732.50 0.2284
732.60 0.2283
732.70 0.2282
732.80 0.228
732.90 0.2279
733.00 0.2278
733.10 0.2277
733.20 0.2276
733.30 0.2274
733.40 0.2273
733.50 0.2272
733.60 0.2271
733.70 0.227
733.80 0.2268
733.90 0.2267
734.00 0.2266
734.10 0.2265
734.20 0.2264
734.30 0.2262
734.40 0.2261
734.50 0.226
734.60 0.2259
734.70 0.2258
734.80 0.2256
734.90 0.2255
735.00 0.2254
735.10 0.2253
735.20 0.2252
735.30 0.225
735.40 0.2249
735.50 0.2248
735.60 0.2247
735.70 0.2246
735.80 0.2244
735.90 0.2243
736.00 0.2242
736.10 0.2241
736.20 0.224
736.30 0.2239
736.40 0.2237
736.50 0.2236
736.60 0.2235
736.70 0.2234
736.80 0.2233
736.90 0.2231
737.00 0.223
737.10 0.2229
737.20 0.2228
737.30 0.2227
737.40 0.2226
737.50 0.2224
737.60 0.2223
737.70 0.2222
737.80 0.2221
737.90 0.222
738.00 0.2218
738.10 0.2217
738.20 0.2216
738.30 0.2215
738.40 0.2214
738.50 0.2213
738.60 0.2211
738.70 0.221
738.80 0.2209
738.90 0.2208
739.00 0.2207
739.10 0.2206
739.20 0.2204
739.30 0.2203
739.40 0.2202
739.50 0.2201
739.60 0.22
739.70 0.2199
739.80 0.2197
739.90 0.2196
740.00 0.2195
740.10 0.2194
740.20 0.2193
740.30 0.2192
740.40 0.2191
740.50 0.2189
740.60 0.2188
740.70 0.2187
740.80 0.2186
740.90 0.2185
741.00 0.2184
741.10 0.2183
741.20 0.2181
741.30 0.218
741.40 0.2179
741.50 0.2178
741.60 0.2177
741.70 0.2176
741.80 0.2175
741.90 0.2173
742.00 0.2172
742.10 0.2171
742.20 0.217
742.30 0.2169
742.40 0.2168
742.50 0.2167
742.60 0.2166
742.70 0.2164
742.80 0.2163
742.90 0.2162
743.00 0.2161
743.10 0.216
743.20 0.2159
743.30 0.2158
743.40 0.2157
743.50 0.2155
743.60 0.2154
743.70 0.2153
743.80 0.2152
743.90 0.2151
744.00 0.215
744.10 0.2149
744.20 0.2148
744.30 0.2146
744.40 0.2145
744.50 0.2144
744.60 0.2143
744.70 0.2142
744.80 0.2141
744.90 0.214
745.00 0.2139
745.10 0.2137
745.20 0.2136
745.30 0.2135
745.40 0.2134
745.50 0.2133
745.60 0.2132
745.70 0.2131
745.80 0.213
745.90 0.2129
746.00 0.2127
746.10 0.2126
746.20 0.2125
746.30 0.2124
746.40 0.2123
746.50 0.2122
746.60 0.2121
746.70 0.212
746.80 0.2119
746.90 0.2117
747.00 0.2116
747.10 0.2115
747.20 0.2114
747.30 0.2113
747.40 0.2112
747.50 0.2111
747.60 0.211
747.70 0.2109
747.80 0.2108
747.90 0.2106
748.00 0.2105
748.10 0.2104
748.20 0.2103
748.30 0.2102
748.40 0.2101
748.50 0.21
748.60 0.2099
748.70 0.2098
748.80 0.2097
748.90 0.2095
749.00 0.2094
749.10 0.2093
749.20 0.2092
749.30 0.2091
749.40 0.209
749.50 0.2089
749.60 0.2088
749.70 0.2087
749.80 0.2086
749.90 0.2084
750.00 0.2083
750.10 0.2082
750.20 0.2081
750.30 0.208
750.40 0.2079
750.50 0.2078
750.60 0.2077
750.70 0.2076
750.80 0.2075
750.90 0.2074
751.00 0.2073
751.10 0.2072
751.20 0.2071
751.30 0.207
751.40 0.2068
751.50 0.2067
751.60 0.2066
751.70 0.2065
751.80 0.2064
751.90 0.2063
752.00 0.2062
752.10 0.2061
752.20 0.206
752.30 0.2059
752.40 0.2058
752.50 0.2057
752.60 0.2056
752.70 0.2055
752.80 0.2054
752.90 0.2053
753.00 0.2051
753.10 0.205
753.20 0.2049
753.30 0.2048
753.40 0.2047
753.50 0.2046
753.60 0.2045
753.70 0.2044
753.80 0.2043
753.90 0.2042
754.00 0.2041
754.10 0.204
754.20 0.2039
754.30 0.2038
754.40 0.2037
754.50 0.2036
754.60 0.2035
754.70 0.2034
754.80 0.2033
754.90 0.2032
755.00 0.203
755.10 0.2029
755.20 0.2028
755.30 0.2027
755.40 0.2026
755.50 0.2025
755.60 0.2024
755.70 0.2023
755.80 0.2022
755.90 0.2021
756.00 0.202
756.10 0.2019
756.20 0.2018
756.30 0.2017
756.40 0.2016
756.50 0.2015
756.60 0.2014
756.70 0.2013
756.80 0.2012
756.90 0.2011
757.00 0.201
757.10 0.2009
757.20 0.2008
757.30 0.2007
757.40 0.2005
757.50 0.2004
757.60 0.2003
757.70 0.2002
757.80 0.2001
757.90 0.2
758.00 0.1999
758.10 0.1998
758.20 0.1997
758.30 0.1996
758.40 0.1995
758.50 0.1994
758.60 0.1993
758.70 0.1992
758.80 0.1991
758.90 0.199
759.00 0.1989
759.10 0.1988
759.20 0.1987
759.30 0.1986
759.40 0.1985
759.50 0.1984
759.60 0.1983
759.70 0.1982
759.80 0.1981
759.90 0.198
760.00 0.1979
760.10 0.1978
760.20 0.1977
760.30 0.1976
760.40 0.1975
760.50 0.1974
760.60 0.1973
760.70 0.1972
760.80 0.1971
760.90 0.197
761.00 0.1969
761.10 0.1968
761.20 0.1967
761.30 0.1966
761.40 0.1965
761.50 0.1964
761.60 0.1963
761.70 0.1962
761.80 0.1961
761.90 0.196
762.00 0.1959
762.10 0.1958
762.20 0.1957
762.30 0.1956
762.40 0.1955
762.50 0.1954
762.60 0.1953
762.70 0.1952
762.80 0.1951
762.90 0.195
763.00 0.1949
763.10 0.1948
763.20 0.1947
763.30 0.1946
763.40 0.1945
763.50 0.1944
763.60 0.1943
763.70 0.1942
763.80 0.1941
763.90 0.194
764.00 0.1939
764.10 0.1938
764.20 0.1937
764.30 0.1936
764.40 0.1935
764.50 0.1934
764.60 0.1933
764.70 0.1932
764.80 0.1931
764.90 0.193
765.00 0.1929
765.10 0.1928
765.20 0.1927
765.30 0.1926
765.40 0.1925
765.50 0.1924
765.60 0.1923
765.70 0.1922
765.80 0.1921
765.90 0.192
766.00 0.1919
766.10 0.1918
766.20 0.1917
766.30 0.1916
766.40 0.1915
766.50 0.1914
766.60 0.1913
766.70 0.1912
766.80 0.1911
766.90 0.1911
767.00 0.191
767.10 0.1909
767.20 0.1908
767.30 0.1907
767.40 0.1906
767.50 0.1905
767.60 0.1904
767.70 0.1903
767.80 0.1902
767.90 0.1901
768.00 0.19
768.10 0.1899
768.20 0.1898
768.30 0.1897
768.40 0.1896
768.50 0.1895
768.60 0.1894
768.70 0.1893
768.80 0.1892
768.90 0.1891
769.00 0.189
769.10 0.1889
769.20 0.1888
769.30 0.1887
769.40 0.1886
769.50 0.1885
769.60 0.1884
769.70 0.1883
769.80 0.1882
769.90 0.1882
770.00 0.1881
770.10 0.188
770.20 0.1879
770.30 0.1878
770.40 0.1877
770.50 0.1876
770.60 0.1875
770.70 0.1874
770.80 0.1873
770.90 0.1872
771.00 0.1871
771.10 0.187
771.20 0.1869
771.30 0.1868
771.40 0.1867
771.50 0.1866
771.60 0.1866
771.70 0.1865
771.80 0.1864
771.90 0.1863
772.00 0.1862
772.10 0.1861
772.20 0.186
772.30 0.1859
772.40 0.1858
772.50 0.1857
772.60 0.1856
772.70 0.1855
772.80 0.1854
772.90 0.1853
773.00 0.1852
773.10 0.1852
773.20 0.1851
773.30 0.185
773.40 0.1849
773.50 0.1848
773.60 0.1847
773.70 0.1846
773.80 0.1845
773.90 0.1844
774.00 0.1843
774.10 0.1842
774.20 0.1841
774.30 0.184
774.40 0.184
774.50 0.1839
774.60 0.1838
774.70 0.1837
774.80 0.1836
774.90 0.1835
775.00 0.1834
775.10 0.1833
775.20 0.1832
775.30 0.1831
775.40 0.183
775.50 0.1829
775.60 0.1828
775.70 0.1828
775.80 0.1827
775.90 0.1826
776.00 0.1825
776.10 0.1824
776.20 0.1823
776.30 0.1822
776.40 0.1821
776.50 0.182
776.60 0.1819
776.70 0.1818
776.80 0.1817
776.90 0.1817
777.00 0.1816
777.10 0.1815
777.20 0.1814
777.30 0.1813
777.40 0.1812
777.50 0.1811
777.60 0.181
777.70 0.1809
777.80 0.1808
777.90 0.1807
778.00 0.1807
778.10 0.1806
778.20 0.1805
778.30 0.1804
778.40 0.1803
778.50 0.1802
778.60 0.1801
778.70 0.18
778.80 0.1799
778.90 0.1798
779.00 0.1797
779.10 0.1797
779.20 0.1796
779.30 0.1795
779.40 0.1794
779.50 0.1793
779.60 0.1792
779.70 0.1791
779.80 0.179
779.90 0.1789
780.00 0.1788
780.10 0.1788
780.20 0.1787
780.30 0.1786
780.40 0.1785
780.50 0.1784
780.60 0.1783
780.70 0.1782
780.80 0.1781
780.90 0.178
781.00 0.178
781.10 0.1779
781.20 0.1778
781.30 0.1777
781.40 0.1776
781.50 0.1775
781.60 0.1774
781.70 0.1773
781.80 0.1773
781.90 0.1772
782.00 0.1771
782.10 0.177
782.20 0.1769
782.30 0.1768
782.40 0.1767
782.50 0.1766
782.60 0.1766
782.70 0.1765
782.80 0.1764
782.90 0.1763
783.00 0.1762
783.10 0.1761
783.20 0.176
783.30 0.1759
783.40 0.1759
783.50 0.1758
783.60 0.1757
783.70 0.1756
783.80 0.1755
783.90 0.1754
784.00 0.1753
784.10 0.1752
784.20 0.1752
784.30 0.1751
784.40 0.175
784.50 0.1749
784.60 0.1748
784.70 0.1747
784.80 0.1746
784.90 0.1746
785.00 0.1745
785.10 0.1744
785.20 0.1743
785.30 0.1742
785.40 0.1741
785.50 0.174
785.60 0.1739
785.70 0.1739
785.80 0.1738
785.90 0.1737
786.00 0.1736
786.10 0.1735
786.20 0.1734
786.30 0.1733
786.40 0.1733
786.50 0.1732
786.60 0.1731
786.70 0.173
786.80 0.1729
786.90 0.1728
787.00 0.1727
787.10 0.1727
787.20 0.1726
787.30 0.1725
787.40 0.1724
787.50 0.1723
787.60 0.1722
787.70 0.1721
787.80 0.1721
787.90 0.172
788.00 0.1719
788.10 0.1718
788.20 0.1717
788.30 0.1716
788.40 0.1715
788.50 0.1715
788.60 0.1714
788.70 0.1713
788.80 0.1712
788.90 0.1711
789.00 0.171
789.10 0.1709
789.20 0.1709
789.30 0.1708
789.40 0.1707
789.50 0.1706
789.60 0.1705
789.70 0.1704
789.80 0.1704
789.90 0.1703
790.00 0.1702
790.10 0.1701
790.20 0.17
790.30 0.1699
790.40 0.1699
790.50 0.1698
790.60 0.1697
790.70 0.1696
790.80 0.1695
790.90 0.1694
791.00 0.1694
791.10 0.1693
791.20 0.1692
791.30 0.1691
791.40 0.169
791.50 0.1689
791.60 0.1689
791.70 0.1688
791.80 0.1687
791.90 0.1686
792.00 0.1685
792.10 0.1684
792.20 0.1684
792.30 0.1683
792.40 0.1682
792.50 0.1681
792.60 0.168
792.70 0.168
792.80 0.1679
792.90 0.1678
793.00 0.1677
793.10 0.1676
793.20 0.1675
793.30 0.1675
793.40 0.1674
793.50 0.1673
793.60 0.1672
793.70 0.1671
793.80 0.1671
793.90 0.167
794.00 0.1669
794.10 0.1668
794.20 0.1667
794.30 0.1666
794.40 0.1666
794.50 0.1665
794.60 0.1664
794.70 0.1663
794.80 0.1662
794.90 0.1662
795.00 0.1661
795.10 0.166
795.20 0.1659
795.30 0.1658
795.40 0.1657
795.50 0.1657
795.60 0.1656
795.70 0.1655
795.80 0.1654
795.90 0.1653
796.00 0.1653
796.10 0.1652
796.20 0.1651
796.30 0.165
796.40 0.1649
796.50 0.1649
796.60 0.1648
796.70 0.1647
796.80 0.1646
796.90 0.1645
797.00 0.1645
797.10 0.1644
797.20 0.1643
797.30 0.1642
797.40 0.1641
797.50 0.164
797.60 0.164
797.70 0.1639
797.80 0.1638
797.90 0.1637
798.00 0.1636
798.10 0.1636
798.20 0.1635
798.30 0.1634
798.40 0.1633
798.50 0.1632
798.60 0.1632
798.70 0.1631
798.80 0.163
798.90 0.1629
799.00 0.1628
799.10 0.1628
799.20 0.1627
799.30 0.1626
799.40 0.1625
799.50 0.1624
799.60 0.1624
799.70 0.1623
799.80 0.1622
799.90 0.1621
800.00 0.162
800.10 0.162
800.20 0.1619
800.30 0.1618
800.40 0.1617
800.50 0.1617
800.60 0.1616
800.70 0.1615
800.80 0.1614
800.90 0.1613
801.00 0.1613
801.10 0.1612
801.20 0.1611
801.30 0.161
801.40 0.161
801.50 0.1609
801.60 0.1608
801.70 0.1607
801.80 0.1606
801.90 0.1606
802.00 0.1605
802.10 0.1604
802.20 0.1603
802.30 0.1603
802.40 0.1602
802.50 0.1601
802.60 0.16
802.70 0.1599
802.80 0.1599
802.90 0.1598
803.00 0.1597
803.10 0.1596
803.20 0.1596
803.30 0.1595
803.40 0.1594
803.50 0.1593
803.60 0.1593
803.70 0.1592
803.80 0.1591
803.90 0.159
804.00 0.1589
804.10 0.1589
804.20 0.1588
804.30 0.1587
804.40 0.1586
804.50 0.1586
804.60 0.1585
804.70 0.1584
804.80 0.1583
804.90 0.1583
805.00 0.1582
805.10 0.1581
805.20 0.158
805.30 0.1579
805.40 0.1579
805.50 0.1578
805.60 0.1577
805.70 0.1576
805.80 0.1576
805.90 0.1575
806.00 0.1574
806.10 0.1573
806.20 0.1573
806.30 0.1572
806.40 0.1571
806.50 0.157
806.60 0.157
806.70 0.1569
806.80 0.1568
806.90 0.1567
807.00 0.1567
807.10 0.1566
807.20 0.1565
807.30 0.1564
807.40 0.1563
807.50 0.1563
807.60 0.1562
807.70 0.1561
807.80 0.156
807.90 0.156
808.00 0.1559
808.10 0.1558
808.20 0.1557
808.30 0.1557
808.40 0.1556
808.50 0.1555
808.60 0.1554
808.70 0.1554
808.80 0.1553
808.90 0.1552
809.00 0.1551
809.10 0.1551
809.20 0.155
809.30 0.1549
809.40 0.1548
809.50 0.1548
809.60 0.1547
809.70 0.1546
809.80 0.1545
809.90 0.1545
810.00 0.1544
810.10 0.1543
810.20 0.1542
810.30 0.1542
810.40 0.1541
810.50 0.154
810.60 0.1539
810.70 0.1539
810.80 0.1538
810.90 0.1537
811.00 0.1537
811.10 0.1536
811.20 0.1535
811.30 0.1534
811.40 0.1534
811.50 0.1533
811.60 0.1532
811.70 0.1531
811.80 0.1531
811.90 0.153
812.00 0.1529
812.10 0.1529
812.20 0.1528
812.30 0.1527
812.40 0.1526
812.50 0.1526
812.60 0.1525
812.70 0.1524
812.80 0.1523
812.90 0.1523
813.00 0.1522
813.10 0.1521
813.20 0.1521
813.30 0.152
813.40 0.1519
813.50 0.1518
813.60 0.1518
813.70 0.1517
813.80 0.1516
813.90 0.1515
814.00 0.1515
814.10 0.1514
814.20 0.1513
814.30 0.1513
814.40 0.1512
814.50 0.1511
814.60 0.151
814.70 0.151
814.80 0.1509
814.90 0.1508
815.00 0.1507
815.10 0.1507
815.20 0.1506
815.30 0.1505
815.40 0.1505
815.50 0.1504
815.60 0.1503
815.70 0.1502
815.80 0.1502
815.90 0.1501
816.00 0.15
816.10 0.15
816.20 0.1499
816.30 0.1498
816.40 0.1497
816.50 0.1497
816.60 0.1496
816.70 0.1495
816.80 0.1495
816.90 0.1494
817.00 0.1493
817.10 0.1492
817.20 0.1492
817.30 0.1491
817.40 0.149
817.50 0.149
817.60 0.1489
817.70 0.1488
817.80 0.1487
817.90 0.1487
818.00 0.1486
818.10 0.1485
818.20 0.1485
818.30 0.1484
818.40 0.1483
818.50 0.1482
818.60 0.1482
818.70 0.1481
818.80 0.148
818.90 0.148
819.00 0.1479
819.10 0.1478
819.20 0.1477
819.30 0.1477
819.40 0.1476
819.50 0.1475
819.60 0.1475
819.70 0.1474
819.80 0.1473
819.90 0.1473
820.00 0.1472
820.10 0.1471
820.20 0.147
820.30 0.147
820.40 0.1469
820.50 0.1468
820.60 0.1468
820.70 0.1467
820.80 0.1466
820.90 0.1466
821.00 0.1465
821.10 0.1464
821.20 0.1463
821.30 0.1463
821.40 0.1462
821.50 0.1461
821.60 0.1461
821.70 0.146
821.80 0.1459
821.90 0.1459
822.00 0.1458
822.10 0.1457
822.20 0.1457
822.30 0.1456
822.40 0.1455
822.50 0.1454
822.60 0.1454
822.70 0.1453
822.80 0.1452
822.90 0.1452
823.00 0.1451
823.10 0.145
823.20 0.145
823.30 0.1449
823.40 0.1448
823.50 0.1448
823.60 0.1447
823.70 0.1446
823.80 0.1446
823.90 0.1445
824.00 0.1444
824.10 0.1444
824.20 0.1443
824.30 0.1442
824.40 0.1441
824.50 0.1441
824.60 0.144
824.70 0.1439
824.80 0.1439
824.90 0.1438
825.00 0.1437
825.10 0.1437
825.20 0.1436
825.30 0.1435
825.40 0.1435
825.50 0.1434
825.60 0.1433
825.70 0.1433
825.80 0.1432
825.90 0.1431
826.00 0.1431
826.10 0.143
826.20 0.1429
826.30 0.1429
826.40 0.1428
826.50 0.1427
826.60 0.1427
826.70 0.1426
826.80 0.1425
826.90 0.1425
827.00 0.1424
827.10 0.1423
827.20 0.1423
827.30 0.1422
827.40 0.1421
827.50 0.1421
827.60 0.142
827.70 0.1419
827.80 0.1419
827.90 0.1418
828.00 0.1417
828.10 0.1417
828.20 0.1416
828.30 0.1415
828.40 0.1415
828.50 0.1414
828.60 0.1413
828.70 0.1413
828.80 0.1412
828.90 0.1411
829.00 0.1411
829.10 0.141
829.20 0.1409
829.30 0.1409
829.40 0.1408
829.50 0.1407
829.60 0.1407
829.70 0.1406
829.80 0.1405
829.90 0.1405
830.00 0.1404
830.10 0.1403
830.20 0.1403
830.30 0.1402
830.40 0.1401
830.50 0.1401
830.60 0.14
830.70 0.1399
830.80 0.1399
830.90 0.1398
831.00 0.1397
831.10 0.1397
831.20 0.1396
831.30 0.1395
831.40 0.1395
831.50 0.1394
831.60 0.1393
831.70 0.1393
831.80 0.1392
831.90 0.1391
832.00 0.1391
832.10 0.139
832.20 0.1389
832.30 0.1389
832.40 0.1388
832.50 0.1388
832.60 0.1387
832.70 0.1386
832.80 0.1386
832.90 0.1385
833.00 0.1384
833.10 0.1384
833.20 0.1383
833.30 0.1382
833.40 0.1382
833.50 0.1381
833.60 0.138
833.70 0.138
833.80 0.1379
833.90 0.1378
834.00 0.1378
834.10 0.1377
834.20 0.1377
834.30 0.1376
834.40 0.1375
834.50 0.1375
834.60 0.1374
834.70 0.1373
834.80 0.1373
834.90 0.1372
835.00 0.1371
835.10 0.1371
835.20 0.137
835.30 0.137
835.40 0.1369
835.50 0.1368
835.60 0.1368
835.70 0.1367
835.80 0.1366
835.90 0.1366
836.00 0.1365
836.10 0.1364
836.20 0.1364
836.30 0.1363
836.40 0.1362
836.50 0.1362
836.60 0.1361
836.70 0.1361
836.80 0.136
836.90 0.1359
837.00 0.1359
837.10 0.1358
837.20 0.1357
837.30 0.1357
837.40 0.1356
837.50 0.1355
837.60 0.1355
837.70 0.1354
837.80 0.1354
837.90 0.1353
838.00 0.1352
838.10 0.1352
838.20 0.1351
838.30 0.135
838.40 0.135
838.50 0.1349
838.60 0.1349
838.70 0.1348
838.80 0.1347
838.90 0.1347
839.00 0.1346
839.10 0.1345
839.20 0.1345
839.30 0.1344
839.40 0.1344
839.50 0.1343
839.60 0.1342
839.70 0.1342
839.80 0.1341
839.90 0.134
840.00 0.134
840.10 0.1339
840.20 0.1339
840.30 0.1338
840.40 0.1337
840.50 0.1337
840.60 0.1336
840.70 0.1335
840.80 0.1335
840.90 0.1334
841.00 0.1334
841.10 0.1333
841.20 0.1332
841.30 0.1332
841.40 0.1331
841.50 0.1331
841.60 0.133
841.70 0.1329
841.80 0.1329
841.90 0.1328
842.00 0.1327
842.10 0.1327
842.20 0.1326
842.30 0.1326
842.40 0.1325
842.50 0.1324
842.60 0.1324
842.70 0.1323
842.80 0.1323
842.90 0.1322
843.00 0.1321
843.10 0.1321
843.20 0.132
843.30 0.1319
843.40 0.1319
843.50 0.1318
843.60 0.1318
843.70 0.1317
843.80 0.1316
843.90 0.1316
844.00 0.1315
844.10 0.1315
844.20 0.1314
844.30 0.1313
844.40 0.1313
844.50 0.1312
844.60 0.1312
844.70 0.1311
844.80 0.131
844.90 0.131
845.00 0.1309
845.10 0.1309
845.20 0.1308
845.30 0.1307
845.40 0.1307
845.50 0.1306
845.60 0.1305
845.70 0.1305
845.80 0.1304
845.90 0.1304
846.00 0.1303
846.10 0.1302
846.20 0.1302
846.30 0.1301
846.40 0.1301
846.50 0.13
846.60 0.1299
846.70 0.1299
846.80 0.1298
846.90 0.1298
847.00 0.1297
847.10 0.1296
847.20 0.1296
847.30 0.1295
847.40 0.1295
847.50 0.1294
847.60 0.1293
847.70 0.1293
847.80 0.1292
847.90 0.1292
848.00 0.1291
848.10 0.1291
848.20 0.129
848.30 0.1289
848.40 0.1289
848.50 0.1288
848.60 0.1288
848.70 0.1287
848.80 0.1286
848.90 0.1286
849.00 0.1285
849.10 0.1285
849.20 0.1284
849.30 0.1283
849.40 0.1283
849.50 0.1282
849.60 0.1282
849.70 0.1281
849.80 0.128
849.90 0.128
850.00 0.1279
850.10 0.1279
850.20 0.1278
850.30 0.1278
850.40 0.1277
850.50 0.1276
850.60 0.1276
850.70 0.1275
850.80 0.1275
850.90 0.1274
851.00 0.1273
851.10 0.1273
851.20 0.1272
851.30 0.1272
851.40 0.1271
851.50 0.127
851.60 0.127
851.70 0.1269
851.80 0.1269
851.90 0.1268
852.00 0.1268
852.10 0.1267
852.20 0.1266
852.30 0.1266
852.40 0.1265
852.50 0.1265
852.60 0.1264
852.70 0.1264
852.80 0.1263
852.90 0.1262
853.00 0.1262
853.10 0.1261
853.20 0.1261
853.30 0.126
853.40 0.1259
853.50 0.1259
853.60 0.1258
853.70 0.1258
853.80 0.1257
853.90 0.1257
854.00 0.1256
854.10 0.1255
854.20 0.1255
854.30 0.1254
854.40 0.1254
854.50 0.1253
854.60 0.1253
854.70 0.1252
854.80 0.1251
854.90 0.1251
855.00 0.125
855.10 0.125
855.20 0.1249
855.30 0.1249
855.40 0.1248
855.50 0.1247
855.60 0.1247
855.70 0.1246
855.80 0.1246
855.90 0.1245
856.00 0.1245
856.10 0.1244
856.20 0.1243
856.30 0.1243
856.40 0.1242
856.50 0.1242
856.60 0.1241
856.70 0.1241
856.80 0.124
856.90 0.1239
857.00 0.1239
857.10 0.1238
857.20 0.1238
857.30 0.1237
857.40 0.1237
857.50 0.1236
857.60 0.1236
857.70 0.1235
857.80 0.1234
857.90 0.1234
858.00 0.1233
858.10 0.1233
858.20 0.1232
858.30 0.1232
858.40 0.1231
858.50 0.1231
858.60 0.123
858.70 0.1229
858.80 0.1229
858.90 0.1228
859.00 0.1228
859.10 0.1227
859.20 0.1227
859.30 0.1226
859.40 0.1226
859.50 0.1225
859.60 0.1224
859.70 0.1224
859.80 0.1223
859.90 0.1223
860.00 0.1222
860.10 0.1222
860.20 0.1221
860.30 0.1221
860.40 0.122
860.50 0.1219
860.60 0.1219
860.70 0.1218
860.80 0.1218
860.90 0.1217
861.00 0.1217
861.10 0.1216
861.20 0.1216
861.30 0.1215
861.40 0.1214
861.50 0.1214
861.60 0.1213
861.70 0.1213
861.80 0.1212
861.90 0.1212
862.00 0.1211
862.10 0.1211
862.20 0.121
862.30 0.121
862.40 0.1209
862.50 0.1208
862.60 0.1208
862.70 0.1207
862.80 0.1207
862.90 0.1206
863.00 0.1206
863.10 0.1205
863.20 0.1205
863.30 0.1204
863.40 0.1204
863.50 0.1203
863.60 0.1202
863.70 0.1202
863.80 0.1201
863.90 0.1201
864.00 0.12
864.10 0.12
864.20 0.1199
864.30 0.1199
864.40 0.1198
864.50 0.1198
864.60 0.1197
864.70 0.1196
864.80 0.1196
864.90 0.1195
865.00 0.1195
865.10 0.1194
865.20 0.1194
865.30 0.1193
865.40 0.1193
865.50 0.1192
865.60 0.1192
865.70 0.1191
865.80 0.1191
865.90 0.119
866.00 0.1189
866.10 0.1189
866.20 0.1188
866.30 0.1188
866.40 0.1187
866.50 0.1187
866.60 0.1186
866.70 0.1186
866.80 0.1185
866.90 0.1185
867.00 0.1184
867.10 0.1184
867.20 0.1183
867.30 0.1182
867.40 0.1182
867.50 0.1181
867.60 0.1181
867.70 0.118
867.80 0.118
867.90 0.1179
868.00 0.1179
868.10 0.1178
868.20 0.1178
868.30 0.1177
868.40 0.1177
868.50 0.1176
868.60 0.1176
868.70 0.1175
868.80 0.1175
868.90 0.1174
869.00 0.1173
869.10 0.1173
869.20 0.1172
869.30 0.1172
869.40 0.1171
869.50 0.1171
869.60 0.117
869.70 0.117
869.80 0.1169
869.90 0.1169
870.00 0.1168
870.10 0.1168
870.20 0.1167
870.30 0.1167
870.40 0.1166
870.50 0.1166
870.60 0.1165
870.70 0.1165
870.80 0.1164
870.90 0.1164
871.00 0.1163
871.10 0.1162
871.20 0.1162
871.30 0.1161
871.40 0.1161
871.50 0.116
871.60 0.116
871.70 0.1159
871.80 0.1159
871.90 0.1158
872.00 0.1158
872.10 0.1157
872.20 0.1157
872.30 0.1156
872.40 0.1156
872.50 0.1155
872.60 0.1155
872.70 0.1154
872.80 0.1154
872.90 0.1153
873.00 0.1153
873.10 0.1152
873.20 0.1152
873.30 0.1151
873.40 0.1151
873.50 0.115
873.60 0.115
873.70 0.1149
873.80 0.1148
873.90 0.1148
874.00 0.1147
874.10 0.1147
874.20 0.1146
874.30 0.1146
874.40 0.1145
874.50 0.1145
874.60 0.1144
874.70 0.1144
874.80 0.1143
874.90 0.1143
875.00 0.1142
875.10 0.1142
875.20 0.1141
875.30 0.1141
875.40 0.114
875.50 0.114
875.60 0.1139
875.70 0.1139
875.80 0.1138
875.90 0.1138
876.00 0.1137
876.10 0.1137
876.20 0.1136
876.30 0.1136
876.40 0.1135
876.50 0.1135
876.60 0.1134
876.70 0.1134
876.80 0.1133
876.90 0.1133
877.00 0.1132
877.10 0.1132
877.20 0.1131
877.30 0.1131
877.40 0.113
877.50 0.113
877.60 0.1129
877.70 0.1129
877.80 0.1128
877.90 0.1128
878.00 0.1127
878.10 0.1127
878.20 0.1126
878.30 0.1126
878.40 0.1125
878.50 0.1125
878.60 0.1124
878.70 0.1124
878.80 0.1123
878.90 0.1123
879.00 0.1122
879.10 0.1122
879.20 0.1121
879.30 0.1121
879.40 0.112
879.50 0.112
879.60 0.1119
879.70 0.1119
879.80 0.1118
879.90 0.1118
880.00 0.1117
880.10 0.1117
880.20 0.1116
880.30 0.1116
880.40 0.1115
880.50 0.1115
880.60 0.1114
880.70 0.1114
880.80 0.1113
880.90 0.1113
881.00 0.1112
881.10 0.1112
881.20 0.1111
881.30 0.1111
881.40 0.111
881.50 0.111
881.60 0.1109
881.70 0.1109
881.80 0.1108
881.90 0.1108
882.00 0.1107
882.10 0.1107
882.20 0.1106
882.30 0.1106
882.40 0.1105
882.50 0.1105
882.60 0.1104
882.70 0.1104
882.80 0.1103
882.90 0.1103
883.00 0.1102
883.10 0.1102
883.20 0.1101
883.30 0.1101
883.40 0.1101
883.50 0.11
883.60 0.11
883.70 0.1099
883.80 0.1099
883.90 0.1098
884.00 0.1098
884.10 0.1097
884.20 0.1097
884.30 0.1096
884.40 0.1096
884.50 0.1095
884.60 0.1095
884.70 0.1094
884.80 0.1094
884.90 0.1093
885.00 0.1093
885.10 0.1092
885.20 0.1092
885.30 0.1091
885.40 0.1091
885.50 0.109
885.60 0.109
885.70 0.1089
885.80 0.1089
885.90 0.1088
886.00 0.1088
886.10 0.1087
886.20 0.1087
886.30 0.1087
886.40 0.1086
886.50 0.1086
886.60 0.1085
886.70 0.1085
886.80 0.1084
886.90 0.1084
887.00 0.1083
887.10 0.1083
887.20 0.1082
887.30 0.1082
887.40 0.1081
887.50 0.1081
887.60 0.108
887.70 0.108
887.80 0.1079
887.90 0.1079
888.00 0.1078
888.10 0.1078
888.20 0.1077
888.30 0.1077
888.40 0.1077
888.50 0.1076
888.60 0.1076
888.70 0.1075
888.80 0.1075
888.90 0.1074
889.00 0.1074
889.10 0.1073
889.20 0.1073
889.30 0.1072
889.40 0.1072
889.50 0.1071
889.60 0.1071
889.70 0.107
889.80 0.107
889.90 0.1069
890.00 0.1069
890.10 0.1069
890.20 0.1068
890.30 0.1068
890.40 0.1067
890.50 0.1067
890.60 0.1066
890.70 0.1066
890.80 0.1065
890.90 0.1065
891.00 0.1064
891.10 0.1064
891.20 0.1063
891.30 0.1063
891.40 0.1062
891.50 0.1062
891.60 0.1062
891.70 0.1061
891.80 0.1061
891.90 0.106
892.00 0.106
892.10 0.1059
892.20 0.1059
892.30 0.1058
892.40 0.1058
892.50 0.1057
892.60 0.1057
892.70 0.1056
892.80 0.1056
892.90 0.1056
893.00 0.1055
893.10 0.1055
893.20 0.1054
893.30 0.1054
893.40 0.1053
893.50 0.1053
893.60 0.1052
893.70 0.1052
893.80 0.1051
893.90 0.1051
894.00 0.105
894.10 0.105
894.20 0.105
894.30 0.1049
894.40 0.1049
894.50 0.1048
894.60 0.1048
894.70 0.1047
894.80 0.1047
894.90 0.1046
895.00 0.1046
895.10 0.1045
895.20 0.1045
895.30 0.1045
895.40 0.1044
895.50 0.1044
895.60 0.1043
895.70 0.1043
895.80 0.1042
895.90 0.1042
896.00 0.1041
896.10 0.1041
896.20 0.104
896.30 0.104
896.40 0.104
896.50 0.1039
896.60 0.1039
896.70 0.1038
896.80 0.1038
896.90 0.1037
897.00 0.1037
897.10 0.1036
897.20 0.1036
897.30 0.1035
897.40 0.1035
897.50 0.1035
897.60 0.1034
897.70 0.1034
897.80 0.1033
897.90 0.1033
898.00 0.1032
898.10 0.1032
898.20 0.1031
898.30 0.1031
898.40 0.1031
898.50 0.103
898.60 0.103
898.70 0.1029
898.80 0.1029
898.90 0.1028
899.00 0.1028
899.10 0.1027
899.20 0.1027
899.30 0.1027
899.40 0.1026
899.50 0.1026
899.60 0.1025
899.70 0.1025
899.80 0.1024
899.90 0.1024
900.00 0.1023
900.10 0.1023
900.20 0.1023
900.30 0.1022
900.40 0.1022
900.50 0.1021
900.60 0.1021
900.70 0.102
900.80 0.102
900.90 0.1019
901.00 0.1019
901.10 0.1019
901.20 0.1018
901.30 0.1018
901.40 0.1017
901.50 0.1017
901.60 0.1016
901.70 0.1016
901.80 0.1016
901.90 0.1015
902.00 0.1015
902.10 0.1014
902.20 0.1014
902.30 0.1013
902.40 0.1013
902.50 0.1012
902.60 0.1012
902.70 0.1012
902.80 0.1011
902.90 0.1011
903.00 0.101
903.10 0.101
903.20 0.1009
903.30 0.1009
903.40 0.1009
903.50 0.1008
903.60 0.1008
903.70 0.1007
903.80 0.1007
903.90 0.1006
904.00 0.1006
904.10 0.1005
904.20 0.1005
904.30 0.1005
904.40 0.1004
904.50 0.1004
904.60 0.1003
904.70 0.1003
904.80 0.1002
904.90 0.1002
905.00 0.1002
905.10 0.1001
905.20 0.1001
905.30 0.1
905.40 0.09998
905.50 0.09994
905.60 0.0999
905.70 0.09985
905.80 0.09981
905.90 0.09977
906.00 0.09973
906.10 0.09968
906.20 0.09964
906.30 0.0996
906.40 0.09955
906.50 0.09951
906.60 0.09947
906.70 0.09942
906.80 0.09938
906.90 0.09934
907.00 0.09929
907.10 0.09925
907.20 0.09921
907.30 0.09917
907.40 0.09912
907.50 0.09908
907.60 0.09904
907.70 0.099
907.80 0.09896
907.90 0.09891
908.00 0.09887
908.10 0.09883
908.20 0.09879
908.30 0.09874
908.40 0.0987
908.50 0.09866
908.60 0.09862
908.70 0.09857
908.80 0.09853
908.90 0.09849
909.00 0.09845
909.10 0.09841
909.20 0.09836
909.30 0.09832
909.40 0.09828
909.50 0.09824
909.60 0.09819
909.70 0.09815
909.80 0.09811
909.90 0.09807
910.00 0.09803
910.10 0.09798
910.20 0.09794
910.30 0.0979
910.40 0.09786
910.50 0.09782
910.60 0.09777
910.70 0.09773
910.80 0.09769
910.90 0.09765
911.00 0.09761
911.10 0.09756
911.20 0.09752
911.30 0.09748
911.40 0.09744
911.50 0.0974
911.60 0.09736
911.70 0.09731
911.80 0.09727
911.90 0.09723
912.00 0.09719
912.10 0.09715
912.20 0.09711
912.30 0.09706
912.40 0.09702
912.50 0.09698
912.60 0.09694
912.70 0.0969
912.80 0.09686
912.90 0.09682
913.00 0.09678
913.10 0.09674
913.20 0.09669
913.30 0.09665
913.40 0.09661
913.50 0.09657
913.60 0.09653
913.70 0.09649
913.80 0.09645
913.90 0.09641
914.00 0.09637
914.10 0.09632
914.20 0.09628
914.30 0.09624
914.40 0.0962
914.50 0.09616
914.60 0.09612
914.70 0.09608
914.80 0.09604
914.90 0.096
915.00 0.09596
915.10 0.09592
915.20 0.09587
915.30 0.09583
915.40 0.09579
915.50 0.09575
915.60 0.09571
915.70 0.09567
915.80 0.09563
915.90 0.09559
916.00 0.09555
916.10 0.09551
916.20 0.09547
916.30 0.09543
916.40 0.09539
916.50 0.09534
916.60 0.0953
916.70 0.09526
916.80 0.09522
916.90 0.09518
917.00 0.09514
917.10 0.0951
917.20 0.09506
917.30 0.09502
917.40 0.09498
917.50 0.09494
917.60 0.0949
917.70 0.09486
917.80 0.09482
917.90 0.09478
918.00 0.09474
918.10 0.0947
918.20 0.09466
918.30 0.09462
918.40 0.09458
918.50 0.09454
918.60 0.0945
918.70 0.09446
918.80 0.09442
918.90 0.09438
919.00 0.09434
919.10 0.09431
919.20 0.09427
919.30 0.09423
919.40 0.09419
919.50 0.09415
919.60 0.09411
919.70 0.09407
919.80 0.09403
919.90 0.09399
920.00 0.09395
920.10 0.09391
920.20 0.09387
920.30 0.09383
920.40 0.09379
920.50 0.09375
920.60 0.09371
920.70 0.09367
920.80 0.09363
920.90 0.09359
921.00 0.09355
921.10 0.09351
921.20 0.09348
921.30 0.09344
921.40 0.0934
921.50 0.09336
921.60 0.09332
921.70 0.09328
921.80 0.09324
921.90 0.0932
922.00 0.09316
922.10 0.09312
922.20 0.09308
922.30 0.09304
922.40 0.093
922.50 0.09296
922.60 0.09293
922.70 0.09289
922.80 0.09285
922.90 0.09281
923.00 0.09277
923.10 0.09273
923.20 0.09269
923.30 0.09265
923.40 0.09261
923.50 0.09257
923.60 0.09253
923.70 0.09249
923.80 0.09246
923.90 0.09242
924.00 0.09238
924.10 0.09234
924.20 0.0923
924.30 0.09226
924.40 0.09222
924.50 0.09218
924.60 0.09214
924.70 0.0921
924.80 0.09207
924.90 0.09203
925.00 0.09199
925.10 0.09195
925.20 0.09191
925.30 0.09187
925.40 0.09183
925.50 0.09179
925.60 0.09175
925.70 0.09172
925.80 0.09168
925.90 0.09164
926.00 0.0916
926.10 0.09156
926.20 0.09152
926.30 0.09148
926.40 0.09144
926.50 0.09141
926.60 0.09137
926.70 0.09133
926.80 0.09129
926.90 0.09125
927.00 0.09121
927.10 0.09117
927.20 0.09114
927.30 0.0911
927.40 0.09106
927.50 0.09102
927.60 0.09098
927.70 0.09095
927.80 0.09091
927.90 0.09087
928.00 0.09083
928.10 0.09079
928.20 0.09076
928.30 0.09072
928.40 0.09068
928.50 0.09064
928.60 0.0906
928.70 0.09057
928.80 0.09053
928.90 0.09049
929.00 0.09045
929.10 0.09041
929.20 0.09038
929.30 0.09034
929.40 0.0903
929.50 0.09026
929.60 0.09022
929.70 0.09019
929.80 0.09015
929.90 0.09011
930.00 0.09007
930.10 0.09004
930.20 0.09
930.30 0.08996
930.40 0.08992
930.50 0.08988
930.60 0.08985
930.70 0.08981
930.80 0.08977
930.90 0.08973
931.00 0.0897
931.10 0.08966
931.20 0.08962
931.30 0.08958
931.40 0.08955
931.50 0.08951
931.60 0.08947
931.70 0.08943
931.80 0.0894
931.90 0.08936
932.00 0.08932
932.10 0.08928
932.20 0.08925
932.30 0.08921
932.40 0.08917
932.50 0.08913
932.60 0.0891
932.70 0.08906
932.80 0.08902
932.90 0.08899
933.00 0.08895
933.10 0.08891
933.20 0.08887
933.30 0.08884
933.40 0.0888
933.50 0.08876
933.60 0.08873
933.70 0.08869
933.80 0.08865
933.90 0.08861
934.00 0.08858
934.10 0.08854
934.20 0.0885
934.30 0.08847
934.40 0.08843
934.50 0.08839
934.60 0.08836
934.70 0.08832
934.80 0.08828
934.90 0.08825
935.00 0.08821
935.10 0.08817
935.20 0.08813
935.30 0.0881
935.40 0.08806
935.50 0.08802
935.60 0.08799
935.70 0.08795
935.80 0.08791
935.90 0.08788
936.00 0.08784
936.10 0.0878
936.20 0.08777
936.30 0.08773
936.40 0.08769
936.50 0.08766
936.60 0.08762
936.70 0.08758
936.80 0.08755
936.90 0.08751
937.00 0.08748
937.10 0.08744
937.20 0.0874
937.30 0.08737
937.40 0.08733
937.50 0.08729
937.60 0.08726
937.70 0.08722
937.80 0.08718
937.90 0.08715
938.00 0.08711
938.10 0.08707
938.20 0.08704
938.30 0.087
938.40 0.08697
938.50 0.08693
938.60 0.08689
938.70 0.08686
938.80 0.08682
938.90 0.08679
939.00 0.08675
939.10 0.08671
939.20 0.08668
939.30 0.08664
939.40 0.0866
939.50 0.08657
939.60 0.08653
939.70 0.0865
939.80 0.08646
939.90 0.08642
940.00 0.08639
940.10 0.08635
940.20 0.08632
940.30 0.08628
940.40 0.08624
940.50 0.08621
940.60 0.08617
940.70 0.08614
940.80 0.0861
940.90 0.08607
941.00 0.08603
941.10 0.08599
941.20 0.08596
941.30 0.08592
941.40 0.08589
941.50 0.08585
941.60 0.08581
941.70 0.08578
941.80 0.08574
941.90 0.08571
942.00 0.08567
942.10 0.08564
942.20 0.0856
942.30 0.08556
942.40 0.08553
942.50 0.08549
942.60 0.08546
942.70 0.08542
942.80 0.08539
942.90 0.08535
943.00 0.08532
943.10 0.08528
943.20 0.08524
943.30 0.08521
943.40 0.08517
943.50 0.08514
943.60 0.0851
943.70 0.08507
943.80 0.08503
943.90 0.085
944.00 0.08496
944.10 0.08493
944.20 0.08489
944.30 0.08486
944.40 0.08482
944.50 0.08478
944.60 0.08475
944.70 0.08471
944.80 0.08468
944.90 0.08464
945.00 0.08461
945.10 0.08457
945.20 0.08454
945.30 0.0845
945.40 0.08447
945.50 0.08443
945.60 0.0844
945.70 0.08436
945.80 0.08433
945.90 0.08429
946.00 0.08426
946.10 0.08422
946.20 0.08419
946.30 0.08415
946.40 0.08412
946.50 0.08408
946.60 0.08405
946.70 0.08401
946.80 0.08398
946.90 0.08394
947.00 0.08391
947.10 0.08387
947.20 0.08384
947.30 0.08381
947.40 0.08377
947.50 0.08374
947.60 0.0837
947.70 0.08367
947.80 0.08363
947.90 0.0836
948.00 0.08356
948.10 0.08353
948.20 0.08349
948.30 0.08346
948.40 0.08343
948.50 0.08339
948.60 0.08336
948.70 0.08332
948.80 0.08329
948.90 0.08325
949.00 0.08322
949.10 0.08319
949.20 0.08315
949.30 0.08312
949.40 0.08308
949.50 0.08305
949.60 0.08301
949.70 0.08298
949.80 0.08295
949.90 0.08291
950.00 0.08288
950.10 0.08284
950.20 0.08281
950.30 0.08278
950.40 0.08274
950.50 0.08271
950.60 0.08268
950.70 0.08264
950.80 0.08261
950.90 0.08257
951.00 0.08254
951.10 0.08251
951.20 0.08247
951.30 0.08244
951.40 0.08241
951.50 0.08237
951.60 0.08234
951.70 0.0823
951.80 0.08227
951.90 0.08224
952.00 0.0822
952.10 0.08217
952.20 0.08214
952.30 0.08211
952.40 0.08207
952.50 0.08204
952.60 0.08201
952.70 0.08197
952.80 0.08194
952.90 0.08191
953.00 0.08187
953.10 0.08184
953.20 0.08181
953.30 0.08178
953.40 0.08174
953.50 0.08171
953.60 0.08168
953.70 0.08165
953.80 0.08161
953.90 0.08158
954.00 0.08155
954.10 0.08152
954.20 0.08148
954.30 0.08145
954.40 0.08142
954.50 0.08139
954.60 0.08136
954.70 0.08132
954.80 0.08129
954.90 0.08125
955.00 0.08122
955.10 0.08119
955.20 0.08115
955.30 0.08112
955.40 0.08108
955.50 0.08105
955.60 0.08102
955.70 0.08098
955.80 0.08095
955.90 0.08092
956.00 0.08088
956.10 0.08085
956.20 0.08082
956.30 0.08078
956.40 0.08075
956.50 0.08072
956.60 0.08068
956.70 0.08065
956.80 0.08062
956.90 0.08058
957.00 0.08055
957.10 0.08052
957.20 0.08048
957.30 0.08045
957.40 0.08042
957.50 0.08039
957.60 0.08035
957.70 0.08032
957.80 0.08029
957.90 0.08026
958.00 0.08022
958.10 0.08019
958.20 0.08016
958.30 0.08013
958.40 0.08009
958.50 0.08006
958.60 0.08003
958.70 0.08
958.80 0.07996
958.90 0.07993
959.00 0.0799
959.10 0.07987
959.20 0.07984
959.30 0.0798
959.40 0.07977
959.50 0.07974
959.60 0.07971
959.70 0.07967
959.80 0.07964
959.90 0.07961
960.00 0.07958
960.10 0.07955
960.20 0.07951
960.30 0.07948
960.40 0.07945
960.50 0.07942
960.60 0.07939
960.70 0.07936
960.80 0.07932
960.90 0.07929
961.00 0.07926
961.10 0.07923
961.20 0.0792
961.30 0.07916
961.40 0.07913
961.50 0.0791
961.60 0.07907
961.70 0.07904
961.80 0.07901
961.90 0.07897
962.00 0.07894
962.10 0.07891
962.20 0.07888
962.30 0.07885
962.40 0.07882
962.50 0.07879
962.60 0.07875
962.70 0.07872
962.80 0.07869
962.90 0.07866
963.00 0.07863
963.10 0.0786
963.20 0.07856
963.30 0.07853
963.40 0.0785
963.50 0.07847
963.60 0.07844
963.70 0.07841
963.80 0.07838
963.90 0.07835
964.00 0.07831
964.10 0.07828
964.20 0.07825
964.30 0.07822
964.40 0.07819
964.50 0.07816
964.60 0.07813
964.70 0.0781
964.80 0.07807
964.90 0.07803
965.00 0.078
965.10 0.07797
965.20 0.07794
965.30 0.07791
965.40 0.07788
965.50 0.07785
965.60 0.07782
965.70 0.07779
965.80 0.07775
965.90 0.07772
966.00 0.07769
966.10 0.07766
966.20 0.07763
966.30 0.0776
966.40 0.07757
966.50 0.07754
966.60 0.07751
966.70 0.07748
966.80 0.07745
966.90 0.07741
967.00 0.07738
967.10 0.07735
967.20 0.07732
967.30 0.07729
967.40 0.07726
967.50 0.07723
967.60 0.0772
967.70 0.07717
967.80 0.07714
967.90 0.07711
968.00 0.07708
968.10 0.07705
968.20 0.07701
968.30 0.07698
968.40 0.07695
968.50 0.07692
968.60 0.07689
968.70 0.07686
968.80 0.07683
968.90 0.0768
969.00 0.07677
969.10 0.07674
969.20 0.07671
969.30 0.07668
969.40 0.07665
969.50 0.07662
969.60 0.07659
969.70 0.07655
969.80 0.07652
969.90 0.07649
970.00 0.07646
970.10 0.07643
970.20 0.0764
970.30 0.07637
970.40 0.07634
970.50 0.07631
970.60 0.07628
970.70 0.07625
970.80 0.07622
970.90 0.07619
971.00 0.07616
971.10 0.07613
971.20 0.0761
971.30 0.07607
971.40 0.07604
971.50 0.07601
971.60 0.07598
971.70 0.07595
971.80 0.07592
971.90 0.07589
972.00 0.07586
972.10 0.07583
972.20 0.07579
972.30 0.07576
972.40 0.07573
972.50 0.0757
972.60 0.07567
972.70 0.07564
972.80 0.07561
972.90 0.07558
973.00 0.07555
973.10 0.07552
973.20 0.07549
973.30 0.07546
973.40 0.07543
973.50 0.0754
973.60 0.07537
973.70 0.07534
973.80 0.07531
973.90 0.07528
974.00 0.07525
974.10 0.07522
974.20 0.07519
974.30 0.07516
974.40 0.07513
974.50 0.0751
974.60 0.07507
974.70 0.07504
974.80 0.07501
974.90 0.07498
975.00 0.07495
975.10 0.07492
975.20 0.07489
975.30 0.07486
975.40 0.07483
975.50 0.0748
975.60 0.07477
975.70 0.07474
975.80 0.07471
975.90 0.07468
976.00 0.07465
976.10 0.07462
976.20 0.07459
976.30 0.07456
976.40 0.07453
976.50 0.0745
976.60 0.07447
976.70 0.07444
976.80 0.07441
976.90 0.07438
977.00 0.07435
977.10 0.07432
977.20 0.07429
977.30 0.07426
977.40 0.07423
977.50 0.0742
977.60 0.07417
977.70 0.07414
977.80 0.07411
977.90 0.07408
978.00 0.07405
978.10 0.07402
978.20 0.07399
978.30 0.07397
978.40 0.07394
978.50 0.07391
978.60 0.07388
978.70 0.07385
978.80 0.07382
978.90 0.07379
979.00 0.07376
979.10 0.07373
979.20 0.0737
979.30 0.07367
979.40 0.07364
979.50 0.07361
979.60 0.07358
979.70 0.07355
979.80 0.07352
979.90 0.07349
980.00 0.07346
980.10 0.07343
980.20 0.0734
980.30 0.07337
980.40 0.07334
980.50 0.07331
980.60 0.07328
980.70 0.07325
980.80 0.07323
980.90 0.0732
981.00 0.07317
981.10 0.07314
981.20 0.07311
981.30 0.07308
981.40 0.07305
981.50 0.07302
981.60 0.07299
981.70 0.07296
981.80 0.07293
981.90 0.0729
982.00 0.07287
982.10 0.07284
982.20 0.07281
982.30 0.07278
982.40 0.07275
982.50 0.07273
982.60 0.0727
982.70 0.07267
982.80 0.07264
982.90 0.07261
983.00 0.07258
983.10 0.07255
983.20 0.07252
983.30 0.07249
983.40 0.07246
983.50 0.07243
983.60 0.0724
983.70 0.07237
983.80 0.07234
983.90 0.07232
984.00 0.07229
984.10 0.07226
984.20 0.07223
984.30 0.0722
984.40 0.07217
984.50 0.07214
984.60 0.07211
984.70 0.07208
984.80 0.07205
984.90 0.07202
985.00 0.07199
985.10 0.07196
985.20 0.07194
985.30 0.07191
985.40 0.07188
985.50 0.07185
985.60 0.07182
985.70 0.07179
985.80 0.07176
985.90 0.07173
986.00 0.0717
986.10 0.07167
986.20 0.07164
986.30 0.07161
986.40 0.07159
986.50 0.07156
986.60 0.07153
986.70 0.0715
986.80 0.07147
986.90 0.07144
987.00 0.07141
987.10 0.07138
987.20 0.07135
987.30 0.07132
987.40 0.0713
987.50 0.07127
987.60 0.07124
987.70 0.07121
987.80 0.07118
987.90 0.07115
988.00 0.07112
988.10 0.07109
988.20 0.07106
988.30 0.07103
988.40 0.07101
988.50 0.07098
988.60 0.07095
988.70 0.07092
988.80 0.07089
988.90 0.07086
989.00 0.07083
989.10 0.0708
989.20 0.07077
989.30 0.07075
989.40 0.07072
989.50 0.07069
989.60 0.07066
989.70 0.07063
989.80 0.0706
989.90 0.07057
990.00 0.07054
990.10 0.07051
990.20 0.07049
990.30 0.07046
990.40 0.07043
990.50 0.0704
990.60 0.07037
990.70 0.07034
990.80 0.07031
990.90 0.07028
991.00 0.07025
991.10 0.07023
991.20 0.0702
991.30 0.07017
991.40 0.07014
991.50 0.07011
991.60 0.07008
991.70 0.07005
991.80 0.07002
991.90 0.07
992.00 0.06997
992.10 0.06994
992.20 0.06991
992.30 0.06988
992.40 0.06985
992.50 0.06982
992.60 0.0698
992.70 0.06977
992.80 0.06974
992.90 0.06971
993.00 0.06968
993.10 0.06965
993.20 0.06962
993.30 0.06959
993.40 0.06957
993.50 0.06954
993.60 0.06951
993.70 0.06948
993.80 0.06945
993.90 0.06942
994.00 0.06939
994.10 0.06937
994.20 0.06934
994.30 0.06931
994.40 0.06928
994.50 0.06925
994.60 0.06922
994.70 0.06919
994.80 0.06917
994.90 0.06914
995.00 0.06911
995.10 0.06908
995.20 0.06905
995.30 0.06902
995.40 0.069
995.50 0.06897
995.60 0.06894
995.70 0.06891
995.80 0.06888
995.90 0.06885
996.00 0.06882
996.10 0.0688
996.20 0.06877
996.30 0.06874
996.40 0.06871
996.50 0.06868
996.60 0.06865
996.70 0.06863
996.80 0.0686
996.90 0.06857
997.00 0.06854
997.10 0.06851
997.20 0.06849
997.30 0.06846
997.40 0.06843
997.50 0.0684
997.60 0.06837
997.70 0.06834
997.80 0.06832
997.90 0.06829
998.00 0.06826
998.10 0.06823
998.20 0.06821
998.30 0.06818
998.40 0.06815
998.50 0.06812
998.60 0.06809
998.70 0.06807
998.80 0.06804
998.90 0.06801
999.00 0.06798
999.10 0.06795
999.20 0.06793
999.30 0.0679
999.40 0.06787
999.50 0.06784
999.60 0.06782
999.70 0.06779
999.80 0.06776
999.90 0.06773
1000.00 0.0677
1000.10 0.06767
1000.20 0.06764
1000.30 0.06761
1000.40 0.06759
1000.50 0.06756
1000.60 0.06753
1000.70 0.0675
1000.80 0.06747
1000.90 0.06744
1001.00 0.06741
1001.10 0.06739
1001.20 0.06736
1001.30 0.06733
1001.40 0.0673
1001.50 0.06727
1001.60 0.06724
1001.70 0.06722
1001.80 0.06719
1001.90 0.06716
1002.00 0.06714
1002.10 0.06711
1002.20 0.06709
1002.30 0.06706
1002.40 0.06704
1002.50 0.06701
1002.60 0.06699
1002.70 0.06696
1002.80 0.06694
1002.90 0.06691
1003.00 0.06689
1003.10 0.06686
1003.20 0.06684
1003.30 0.06682
1003.40 0.06679
1003.50 0.06677
1003.60 0.06675
1003.70 0.06672
1003.80 0.0667
1003.90 0.06668
1004.00 0.06665
1004.10 0.06663
1004.20 0.06661
1004.30 0.06659
1004.40 0.06656
1004.50 0.06654
1004.60 0.06652
1004.70 0.06649
1004.80 0.06647
1004.90 0.06644
1005.00 0.06641
1005.10 0.06639
1005.20 0.06636
1005.30 0.06634
1005.40 0.06631
1005.50 0.06628
1005.60 0.06625
1005.70 0.06622
1005.80 0.06619
1005.90 0.06617
1006.00 0.06614
1006.10 0.06611
1006.20 0.06608
1006.30 0.06605
1006.40 0.06602
1006.50 0.066
1006.60 0.06597
1006.70 0.06594
1006.80 0.06591
1006.90 0.06589
1007.00 0.06586
1007.10 0.06583
1007.20 0.06581
1007.30 0.06578
1007.40 0.06575
1007.50 0.06573
1007.60 0.0657
1007.70 0.06568
1007.80 0.06565
1007.90 0.06563
1008.00 0.0656
1008.10 0.06558
1008.20 0.06555
1008.30 0.06553
1008.40 0.0655
1008.50 0.06548
1008.60 0.06545
1008.70 0.06543
1008.80 0.0654
1008.90 0.06538
1009.00 0.06535
1009.10 0.06533
1009.20 0.0653
1009.30 0.06528
1009.40 0.06525
1009.50 0.06523
1009.60 0.0652
1009.70 0.06518
1009.80 0.06515
1009.90 0.06513
1010.00 0.06511
1010.10 0.06508
1010.20 0.06506
1010.30 0.06504
1010.40 0.06501
1010.50 0.06499
1010.60 0.06496
1010.70 0.06494
1010.80 0.06492
1010.90 0.06489
1011.00 0.06487
1011.10 0.06484
1011.20 0.06482
1011.30 0.0648
1011.40 0.06477
1011.50 0.06475
1011.60 0.06473
1011.70 0.0647
1011.80 0.06468
1011.90 0.06465
1012.00 0.06463
1012.10 0.06461
1012.20 0.06458
1012.30 0.06456
1012.40 0.06454
1012.50 0.06451
1012.60 0.06449
1012.70 0.06447
1012.80 0.06444
1012.90 0.06442
1013.00 0.0644
1013.10 0.06437
1013.20 0.06435
1013.30 0.06433
1013.40 0.0643
1013.50 0.06428
1013.60 0.06426
1013.70 0.06423
1013.80 0.06421
1013.90 0.06419
1014.00 0.06416
1014.10 0.06414
1014.20 0.06412
1014.30 0.06409
1014.40 0.06407
1014.50 0.06405
1014.60 0.06402
1014.70 0.064
1014.80 0.06398
1014.90 0.06395
1015.00 0.06393
1015.10 0.06391
1015.20 0.06388
1015.30 0.06386
1015.40 0.06384
1015.50 0.06382
1015.60 0.06379
1015.70 0.06377
1015.80 0.06375
1015.90 0.06372
1016.00 0.0637
1016.10 0.06368
1016.20 0.06365
1016.30 0.06363
1016.40 0.06361
1016.50 0.06358
1016.60 0.06356
1016.70 0.06354
1016.80 0.06351
1016.90 0.06349
1017.00 0.06347
1017.10 0.06345
1017.20 0.06342
1017.30 0.0634
1017.40 0.06338
1017.50 0.06335
1017.60 0.06333
1017.70 0.06331
1017.80 0.06328
1017.90 0.06326
1018.00 0.06324
1018.10 0.06321
1018.20 0.06319
1018.30 0.06317
1018.40 0.06315
1018.50 0.06312
1018.60 0.0631
1018.70 0.06308
1018.80 0.06305
1018.90 0.06303
1019.00 0.06301
1019.10 0.06298
1019.20 0.06296
1019.30 0.06294
1019.40 0.06291
1019.50 0.06289
1019.60 0.06287
1019.70 0.06285
1019.80 0.06282
1019.90 0.0628
1020.00 0.06278
1020.10 0.06275
1020.20 0.06273
1020.30 0.06271
1020.40 0.06268
1020.50 0.06266
1020.60 0.06264
1020.70 0.06262
1020.80 0.06259
1020.90 0.06257
1021.00 0.06255
1021.10 0.06252
1021.20 0.0625
1021.30 0.06248
1021.40 0.06245
1021.50 0.06243
1021.60 0.06241
1021.70 0.06239
1021.80 0.06236
1021.90 0.06234
1022.00 0.06232
1022.10 0.06229
1022.20 0.06227
1022.30 0.06225
1022.40 0.06223
1022.50 0.0622
1022.60 0.06218
1022.70 0.06216
1022.80 0.06213
1022.90 0.06211
1023.00 0.06209
1023.10 0.06206
1023.20 0.06204
1023.30 0.06202
1023.40 0.062
1023.50 0.06197
1023.60 0.06195
1023.70 0.06193
1023.80 0.0619
1023.90 0.06188
1024.00 0.06186
1024.10 0.06184
1024.20 0.06181
1024.30 0.06179
1024.40 0.06177
1024.50 0.06175
1024.60 0.06172
1024.70 0.0617
1024.80 0.06168
1024.90 0.06165
1025.00 0.06163
1025.10 0.06161
1025.20 0.06159
1025.30 0.06156
1025.40 0.06154
1025.50 0.06152
1025.60 0.06149
1025.70 0.06147
1025.80 0.06145
1025.90 0.06143
1026.00 0.0614
1026.10 0.06138
1026.20 0.06136
1026.30 0.06133
1026.40 0.06131
1026.50 0.06129
1026.60 0.06127
1026.70 0.06124
1026.80 0.06122
1026.90 0.0612
1027.00 0.06118
1027.10 0.06115
1027.20 0.06113
1027.30 0.06111
1027.40 0.06109
1027.50 0.06106
1027.60 0.06104
1027.70 0.06102
1027.80 0.06099
1027.90 0.06097
1028.00 0.06095
1028.10 0.06093
1028.20 0.0609
1028.30 0.06088
1028.40 0.06086
1028.50 0.06084
1028.60 0.06081
1028.70 0.06079
1028.80 0.06077
1028.90 0.06075
1029.00 0.06072
1029.10 0.0607
1029.20 0.06068
1029.30 0.06066
1029.40 0.06063
1029.50 0.06061
1029.60 0.06059
1029.70 0.06056
1029.80 0.06054
1029.90 0.06052
1030.00 0.0605
1030.10 0.06047
1030.20 0.06045
1030.30 0.06043
1030.40 0.06041
1030.50 0.06039
1030.60 0.06036
1030.70 0.06034
1030.80 0.06032
1030.90 0.0603
1031.00 0.06027
1031.10 0.06025
1031.20 0.06023
1031.30 0.06021
1031.40 0.06018
1031.50 0.06016
1031.60 0.06014
1031.70 0.06012
1031.80 0.06009
1031.90 0.06007
1032.00 0.06005
1032.10 0.06003
1032.20 0.06
1032.30 0.05998
1032.40 0.05996
1032.50 0.05994
1032.60 0.05991
1032.70 0.05989
1032.80 0.05987
1032.90 0.05985
1033.00 0.05983
1033.10 0.0598
1033.20 0.05978
1033.30 0.05976
1033.40 0.05974
1033.50 0.05971
1033.60 0.05969
1033.70 0.05967
1033.80 0.05965
1033.90 0.05962
1034.00 0.0596
1034.10 0.05958
1034.20 0.05956
1034.30 0.05954
1034.40 0.05951
1034.50 0.05949
1034.60 0.05947
1034.70 0.05945
1034.80 0.05942
1034.90 0.0594
1035.00 0.05938
1035.10 0.05936
1035.20 0.05934
1035.30 0.05931
1035.40 0.05929
1035.50 0.05927
1035.60 0.05925
1035.70 0.05923
1035.80 0.0592
1035.90 0.05918
1036.00 0.05916
1036.10 0.05914
1036.20 0.05911
1036.30 0.05909
1036.40 0.05907
1036.50 0.05905
1036.60 0.05903
1036.70 0.059
1036.80 0.05898
1036.90 0.05896
1037.00 0.05894
1037.10 0.05892
1037.20 0.05889
1037.30 0.05887
1037.40 0.05885
1037.50 0.05883
1037.60 0.05881
1037.70 0.05878
1037.80 0.05876
1037.90 0.05874
1038.00 0.05872
1038.10 0.0587
1038.20 0.05867
1038.30 0.05865
1038.40 0.05863
1038.50 0.05861
1038.60 0.05859
1038.70 0.05857
1038.80 0.05854
1038.90 0.05852
1039.00 0.0585
1039.10 0.05848
1039.20 0.05846
1039.30 0.05843
1039.40 0.05841
1039.50 0.05839
1039.60 0.05837
1039.70 0.05835
1039.80 0.05833
1039.90 0.0583
1040.00 0.05828
1040.10 0.05826
1040.20 0.05824
1040.30 0.05822
1040.40 0.05819
1040.50 0.05817
1040.60 0.05815
1040.70 0.05813
1040.80 0.05811
1040.90 0.05809
1041.00 0.05806
1041.10 0.05804
1041.20 0.05802
1041.30 0.058
1041.40 0.05798
1041.50 0.05796
1041.60 0.05793
1041.70 0.05791
1041.80 0.05789
1041.90 0.05787
1042.00 0.05785
1042.10 0.05783
1042.20 0.0578
1042.30 0.05778
1042.40 0.05776
1042.50 0.05774
1042.60 0.05772
1042.70 0.0577
1042.80 0.05767
1042.90 0.05765
1043.00 0.05763
1043.10 0.05761
1043.20 0.05759
1043.30 0.05757
1043.40 0.05755
1043.50 0.05752
1043.60 0.0575
1043.70 0.05748
1043.80 0.05746
1043.90 0.05744
1044.00 0.05742
1044.10 0.0574
1044.20 0.05737
1044.30 0.05735
1044.40 0.05733
1044.50 0.05731
1044.60 0.05729
1044.70 0.05727
1044.80 0.05725
1044.90 0.05722
1045.00 0.0572
1045.10 0.05718
1045.20 0.05716
1045.30 0.05714
1045.40 0.05712
1045.50 0.0571
1045.60 0.05707
1045.70 0.05705
1045.80 0.05703
1045.90 0.05701
1046.00 0.05699
1046.10 0.05697
1046.20 0.05695
1046.30 0.05693
1046.40 0.0569
1046.50 0.05688
1046.60 0.05686
1046.70 0.05684
1046.80 0.05682
1046.90 0.0568
1047.00 0.05678
1047.10 0.05676
1047.20 0.05673
1047.30 0.05671
1047.40 0.05669
1047.50 0.05667
1047.60 0.05665
1047.70 0.05663
1047.80 0.05661
1047.90 0.05659
1048.00 0.05657
1048.10 0.05654
1048.20 0.05652
1048.30 0.0565
1048.40 0.05648
1048.50 0.05646
1048.60 0.05644
1048.70 0.05642
1048.80 0.0564
1048.90 0.05638
1049.00 0.05635
1049.10 0.05633
1049.20 0.05631
1049.30 0.05629
1049.40 0.05627
1049.50 0.05625
1049.60 0.05623
1049.70 0.05621
1049.80 0.05619
1049.90 0.05617
1050.00 0.05614
1050.10 0.05612
1050.20 0.0561
1050.30 0.05608
1050.40 0.05606
1050.50 0.05604
1050.60 0.05602
1050.70 0.056
1050.80 0.05598
1050.90 0.05596
1051.00 0.05593
1051.10 0.05591
1051.20 0.05589
1051.30 0.05587
1051.40 0.05585
1051.50 0.05583
1051.60 0.05581
1051.70 0.05579
1051.80 0.05577
1051.90 0.05575
1052.00 0.05573
1052.10 0.05571
1052.20 0.05568
1052.30 0.05566
1052.40 0.05564
1052.50 0.05562
1052.60 0.0556
1052.70 0.05558
1052.80 0.05556
1052.90 0.05554
1053.00 0.05552
1053.10 0.0555
1053.20 0.05548
1053.30 0.05546
1053.40 0.05544
1053.50 0.05541
1053.60 0.05539
1053.70 0.05537
1053.80 0.05535
1053.90 0.05533
1054.00 0.05531
1054.10 0.05529
1054.20 0.05527
1054.30 0.05525
1054.40 0.05523
1054.50 0.05521
1054.60 0.05519
1054.70 0.05517
1054.80 0.05515
1054.90 0.05513
1055.00 0.0551
1055.10 0.05508
1055.20 0.05506
1055.30 0.05504
1055.40 0.05502
1055.50 0.055
1055.60 0.05498
1055.70 0.05496
1055.80 0.05494
1055.90 0.05492
1056.00 0.0549
1056.10 0.05488
1056.20 0.05486
1056.30 0.05484
1056.40 0.05482
1056.50 0.0548
1056.60 0.05478
1056.70 0.05476
1056.80 0.05474
1056.90 0.05471
1057.00 0.05469
1057.10 0.05467
1057.20 0.05465
1057.30 0.05463
1057.40 0.05461
1057.50 0.05459
1057.60 0.05457
1057.70 0.05455
1057.80 0.05453
1057.90 0.05451
1058.00 0.05449
1058.10 0.05447
1058.20 0.05445
1058.30 0.05443
1058.40 0.05441
1058.50 0.05439
1058.60 0.05437
1058.70 0.05435
1058.80 0.05433
1058.90 0.05431
1059.00 0.05429
1059.10 0.05427
1059.20 0.05425
1059.30 0.05423
1059.40 0.05421
1059.50 0.05418
1059.60 0.05416
1059.70 0.05414
1059.80 0.05412
1059.90 0.0541
1060.00 0.05408
1060.10 0.05406
1060.20 0.05404
1060.30 0.05402
1060.40 0.054
1060.50 0.05398
1060.60 0.05396
1060.70 0.05394
1060.80 0.05392
1060.90 0.0539
1061.00 0.05388
1061.10 0.05386
1061.20 0.05384
1061.30 0.05382
1061.40 0.0538
1061.50 0.05378
1061.60 0.05376
1061.70 0.05374
1061.80 0.05372
1061.90 0.0537
1062.00 0.05368
1062.10 0.05366
1062.20 0.05364
1062.30 0.05362
1062.40 0.0536
1062.50 0.05358
1062.60 0.05356
1062.70 0.05354
1062.80 0.05352
1062.90 0.0535
1063.00 0.05348
1063.10 0.05346
1063.20 0.05344
1063.30 0.05342
1063.40 0.0534
1063.50 0.05338
1063.60 0.05336
1063.70 0.05334
1063.80 0.05332
1063.90 0.0533
1064.00 0.05328
1064.10 0.05326
1064.20 0.05324
1064.30 0.05322
1064.40 0.0532
1064.50 0.05318
1064.60 0.05316
1064.70 0.05314
1064.80 0.05312
1064.90 0.0531
1065.00 0.05308
1065.10 0.05306
1065.20 0.05304
1065.30 0.05302
1065.40 0.053
1065.50 0.05298
1065.60 0.05296
1065.70 0.05294
1065.80 0.05292
1065.90 0.0529
1066.00 0.05288
1066.10 0.05286
1066.20 0.05284
1066.30 0.05282
1066.40 0.0528
1066.50 0.05278
1066.60 0.05276
1066.70 0.05274
1066.80 0.05272
1066.90 0.0527
1067.00 0.05268
1067.10 0.05266
1067.20 0.05264
1067.30 0.05262
1067.40 0.0526
1067.50 0.05258
1067.60 0.05256
1067.70 0.05254
1067.80 0.05252
1067.90 0.0525
1068.00 0.05248
1068.10 0.05246
1068.20 0.05244
1068.30 0.05242
1068.40 0.0524
1068.50 0.05238
1068.60 0.05236
1068.70 0.05234
1068.80 0.05232
1068.90 0.0523
1069.00 0.05228
1069.10 0.05226
1069.20 0.05224
1069.30 0.05222
1069.40 0.0522
1069.50 0.05218
1069.60 0.05216
1069.70 0.05214
1069.80 0.05212
1069.90 0.0521
1070.00 0.05208
1070.10 0.05206
1070.20 0.05204
1070.30 0.05202
1070.40 0.052
1070.50 0.05198
1070.60 0.05196
1070.70 0.05194
1070.80 0.05193
1070.90 0.05191
1071.00 0.05189
1071.10 0.05187
1071.20 0.05185
1071.30 0.05183
1071.40 0.05181
1071.50 0.05179
1071.60 0.05177
1071.70 0.05175
1071.80 0.05173
1071.90 0.05171
1072.00 0.05169
1072.10 0.05167
1072.20 0.05165
1072.30 0.05163
1072.40 0.05161
1072.50 0.05159
1072.60 0.05157
1072.70 0.05155
1072.80 0.05153
1072.90 0.05151
1073.00 0.05149
1073.10 0.05147
1073.20 0.05145
1073.30 0.05143
1073.40 0.05141
1073.50 0.05139
1073.60 0.05137
1073.70 0.05135
1073.80 0.05133
1073.90 0.05131
1074.00 0.05129
1074.10 0.05127
1074.20 0.05125
1074.30 0.05123
1074.40 0.05121
1074.50 0.05119
1074.60 0.05117
1074.70 0.05115
1074.80 0.05113
1074.90 0.05111
1075.00 0.05109
1075.10 0.05107
1075.20 0.05105
1075.30 0.05103
1075.40 0.05102
1075.50 0.051
1075.60 0.05098
1075.70 0.05096
1075.80 0.05094
1075.90 0.05092
1076.00 0.0509
1076.10 0.05088
1076.20 0.05086
1076.30 0.05084
1076.40 0.05082
1076.50 0.0508
1076.60 0.05078
1076.70 0.05076
1076.80 0.05074
1076.90 0.05072
1077.00 0.0507
1077.10 0.05068
1077.20 0.05066
1077.30 0.05064
1077.40 0.05062
1077.50 0.0506
1077.60 0.05058
1077.70 0.05056
1077.80 0.05054
1077.90 0.05052
1078.00 0.0505
1078.10 0.05048
1078.20 0.05046
1078.30 0.05044
1078.40 0.05042
1078.50 0.0504
1078.60 0.05038
1078.70 0.05036
1078.80 0.05034
1078.90 0.05032
1079.00 0.0503
1079.10 0.05028
1079.20 0.05026
1079.30 0.05024
1079.40 0.05022
1079.50 0.0502
1079.60 0.05018
1079.70 0.05016
1079.80 0.05014
1079.90 0.05012
1080.00 0.0501
1080.10 0.05008
1080.20 0.05006
1080.30 0.05004
1080.40 0.05002
1080.50 0.05
1080.60 0.04998
1080.70 0.04996
1080.80 0.04994
1080.90 0.04992
1081.00 0.0499
1081.10 0.04988
1081.20 0.04986
1081.30 0.04984
1081.40 0.04982
1081.50 0.0498
1081.60 0.04978
1081.70 0.04976
1081.80 0.04974
1081.90 0.04972
1082.00 0.0497
1082.10 0.04968
1082.20 0.04966
1082.30 0.04964
1082.40 0.04962
1082.50 0.0496
1082.60 0.04958
1082.70 0.04956
1082.80 0.04954
1082.90 0.04952
1083.00 0.0495
1083.10 0.04948
1083.20 0.04946
1083.30 0.04944
1083.40 0.04942
1083.50 0.0494
1083.60 0.04938
1083.70 0.04936
1083.80 0.04934
1083.90 0.04932
1084.00 0.0493
1084.10 0.04928
1084.20 0.04926
1084.30 0.04924
1084.40 0.04922
1084.50 0.0492
1084.60 0.04918
1084.70 0.04916
1084.80 0.04914
1084.90 0.04912
1085.00 0.0491
1085.10 0.04908
1085.20 0.04906
1085.30 0.04904
1085.40 0.04902
1085.50 0.049
1085.60 0.04898
1085.70 0.04896
1085.80 0.04894
1085.90 0.04892
1086.00 0.0489
1086.10 0.04888
1086.20 0.04886
1086.30 0.04884
1086.40 0.04882
1086.50 0.0488
1086.60 0.04878
1086.70 0.04876
1086.80 0.04874
1086.90 0.04872
1087.00 0.0487
1087.10 0.04868
1087.20 0.04866
1087.30 0.04864
1087.40 0.04862
1087.50 0.0486
1087.60 0.04858
1087.70 0.04856
1087.80 0.04854
1087.90 0.04852
1088.00 0.0485
1088.10 0.04848
1088.20 0.04846
1088.30 0.04844
1088.40 0.04842
1088.50 0.04841
1088.60 0.04839
1088.70 0.04837
1088.80 0.04835
1088.90 0.04833
1089.00 0.04831
1089.10 0.04829
1089.20 0.04827
1089.30 0.04825
1089.40 0.04823
1089.50 0.04822
1089.60 0.0482
1089.70 0.04818
1089.80 0.04816
1089.90 0.04814
1090.00 0.04812
1090.10 0.0481
1090.20 0.04808
1090.30 0.04806
1090.40 0.04804
1090.50 0.04803
1090.60 0.04801
1090.70 0.04799
1090.80 0.04797
1090.90 0.04795
1091.00 0.04794
1091.10 0.04792
1091.20 0.0479
1091.30 0.04788
1091.40 0.04787
1091.50 0.04785
1091.60 0.04783
1091.70 0.04781
1091.80 0.04779
1091.90 0.04778
1092.00 0.04776
1092.10 0.04774
1092.20 0.04772
1092.30 0.04771
1092.40 0.04769
1092.50 0.04767
1092.60 0.04766
1092.70 0.04764
1092.80 0.04762
1092.90 0.04761
1093.00 0.04759
1093.10 0.04758
1093.20 0.04756
1093.30 0.04755
1093.40 0.04754
1093.50 0.04753
1093.60 0.04754
1093.70 0.04753
1093.80 0.04752
1093.90 0.04751
1094.00 0.04748
1094.10 0.04745
1094.20 0.04741
1094.30 0.04739
1094.40 0.04737
1094.50 0.04735
1094.60 0.04733
1094.70 0.04731
1094.80 0.04729
1094.90 0.04727
1095.00 0.04726
1095.10 0.04724
1095.20 0.04722
1095.30 0.04721
1095.40 0.04719
1095.50 0.04717
1095.60 0.04716
1095.70 0.04714
1095.80 0.04712
1095.90 0.04711
1096.00 0.04709
1096.10 0.04708
1096.20 0.04706
1096.30 0.04704
1096.40 0.04703
1096.50 0.04701
1096.60 0.04699
1096.70 0.04698
1096.80 0.04696
1096.90 0.04695
1097.00 0.04693
1097.10 0.04692
1097.20 0.0469
1097.30 0.04689
1097.40 0.04687
1097.50 0.04686
1097.60 0.04684
1097.70 0.04683
1097.80 0.04681
1097.90 0.0468
1098.00 0.04678
1098.10 0.04677
1098.20 0.04675
1098.30 0.04674
1098.40 0.04672
1098.50 0.04671
1098.60 0.04669
1098.70 0.04668
1098.80 0.04666
1098.90 0.04665
1099.00 0.04664
1099.10 0.04662
1099.20 0.04661
1099.30 0.04659
1099.40 0.04658
1099.50 0.04656
1099.60 0.04655
1099.70 0.04653
1099.80 0.04652
1099.90 0.04651
1100.00 0.04649
1100.10 0.04648
1100.20 0.04646
1100.30 0.04645
1100.40 0.04643
1100.50 0.04642
1100.60 0.04641
1100.70 0.04639
1100.80 0.04638
1100.90 0.04636
1101.00 0.04635
1101.10 0.04634
1101.20 0.04632
1101.30 0.04631
1101.40 0.04629
1101.50 0.04628
1101.60 0.04626
1101.70 0.04625
1101.80 0.04624
1101.90 0.04622
1102.00 0.04621
1102.10 0.04619
1102.20 0.04618
1102.30 0.04617
1102.40 0.04615
1102.50 0.04614
1102.60 0.04612
1102.70 0.04611
1102.80 0.0461
1102.90 0.04608
1103.00 0.04607
1103.10 0.04605
1103.20 0.04604
1103.30 0.04603
1103.40 0.04601
1103.50 0.046
1103.60 0.04598
1103.70 0.04597
1103.80 0.04596
1103.90 0.04594
1104.00 0.04593
1104.10 0.04591
1104.20 0.0459
1104.30 0.04588
1104.40 0.04587
1104.50 0.04586
1104.60 0.04584
1104.70 0.04583
1104.80 0.04581
1104.90 0.0458
1105.00 0.04579
1105.10 0.04577
1105.20 0.04576
1105.30 0.04574
1105.40 0.04573
1105.50 0.04572
1105.60 0.0457
1105.70 0.04569
1105.80 0.04567
1105.90 0.04566
1106.00 0.04564
1106.10 0.04563
1106.20 0.04562
1106.30 0.0456
1106.40 0.04559
1106.50 0.04557
1106.60 0.04556
1106.70 0.04554
1106.80 0.04553
1106.90 0.04552
1107.00 0.0455
1107.10 0.04549
1107.20 0.04547
1107.30 0.04546
1107.40 0.04544
1107.50 0.04543
1107.60 0.04541
1107.70 0.0454
1107.80 0.04539
1107.90 0.04537
1108.00 0.04536
1108.10 0.04534
1108.20 0.04533
1108.30 0.04531
1108.40 0.0453
1108.50 0.04528
1108.60 0.04527
1108.70 0.04526
1108.80 0.04524
1108.90 0.04523
1109.00 0.04521
1109.10 0.0452
1109.20 0.04518
1109.30 0.04517
1109.40 0.04515
1109.50 0.04514
1109.60 0.04513
1109.70 0.04511
1109.80 0.0451
1109.90 0.04508
1110.00 0.04507
1110.10 0.04505
1110.20 0.04504
1110.30 0.04502
1110.40 0.04501
1110.50 0.04499
1110.60 0.04498
1110.70 0.04496
1110.80 0.04495
1110.90 0.04494
1111.00 0.04492
1111.10 0.04491
1111.20 0.04489
1111.30 0.04488
1111.40 0.04486
1111.50 0.04485
1111.60 0.04483
1111.70 0.04482
1111.80 0.0448
1111.90 0.04479
1112.00 0.04478
1112.10 0.04476
1112.20 0.04475
1112.30 0.04473
1112.40 0.04472
1112.50 0.0447
1112.60 0.04469
1112.70 0.04467
1112.80 0.04466
1112.90 0.04464
1113.00 0.04463
1113.10 0.04461
1113.20 0.0446
1113.30 0.04458
1113.40 0.04457
1113.50 0.04455
1113.60 0.04454
1113.70 0.04452
1113.80 0.04451
1113.90 0.0445
1114.00 0.04448
1114.10 0.04447
1114.20 0.04445
1114.30 0.04444
1114.40 0.04442
1114.50 0.04441
1114.60 0.04439
1114.70 0.04438
1114.80 0.04436
1114.90 0.04435
1115.00 0.04433
1115.10 0.04432
1115.20 0.0443
1115.30 0.04429
1115.40 0.04427
1115.50 0.04426
1115.60 0.04424
1115.70 0.04423
1115.80 0.04421
1115.90 0.0442
1116.00 0.04418
1116.10 0.04417
1116.20 0.04416
1116.30 0.04414
1116.40 0.04413
1116.50 0.04411
1116.60 0.0441
1116.70 0.04408
1116.80 0.04407
1116.90 0.04405
1117.00 0.04404
1117.10 0.04402
1117.20 0.04401
1117.30 0.04399
1117.40 0.04398
1117.50 0.04396
1117.60 0.04395
1117.70 0.04393
1117.80 0.04392
1117.90 0.0439
1118.00 0.04389
1118.10 0.04387
1118.20 0.04386
1118.30 0.04384
1118.40 0.04383
1118.50 0.04382
1118.60 0.0438
1118.70 0.04379
1118.80 0.04377
1118.90 0.04376
1119.00 0.04374
1119.10 0.04373
1119.20 0.04371
1119.30 0.0437
1119.40 0.04368
1119.50 0.04367
1119.60 0.04365
1119.70 0.04364
1119.80 0.04362
1119.90 0.04361
1120.00 0.04359
1120.10 0.04358
1120.20 0.04356
1120.30 0.04355
1120.40 0.04353
1120.50 0.04352
1120.60 0.04351
1120.70 0.04349
1120.80 0.04348
1120.90 0.04346
1121.00 0.04345
1121.10 0.04343
1121.20 0.04342
1121.30 0.0434
1121.40 0.04339
1121.50 0.04337
1121.60 0.04336
1121.70 0.04334
1121.80 0.04333
1121.90 0.04331
1122.00 0.0433
1122.10 0.04329
1122.20 0.04327
1122.30 0.04326
1122.40 0.04324
1122.50 0.04323
1122.60 0.04321
1122.70 0.0432
1122.80 0.04318
1122.90 0.04317
1123.00 0.04315
1123.10 0.04314
1123.20 0.04312
1123.30 0.04311
1123.40 0.04309
1123.50 0.04308
1123.60 0.04306
1123.70 0.04305
1123.80 0.04304
1123.90 0.04302
1124.00 0.04301
1124.10 0.04299
1124.20 0.04298
1124.30 0.04296
1124.40 0.04295
1124.50 0.04293
1124.60 0.04292
1124.70 0.0429
1124.80 0.04289
1124.90 0.04287
1125.00 0.04286
1125.10 0.04284
1125.20 0.04283
1125.30 0.04282
1125.40 0.0428
1125.50 0.04279
1125.60 0.04277
1125.70 0.04276
1125.80 0.04274
1125.90 0.04273
1126.00 0.04271
1126.10 0.0427
1126.20 0.04268
1126.30 0.04267
1126.40 0.04266
1126.50 0.04264
1126.60 0.04263
1126.70 0.04261
1126.80 0.0426
1126.90 0.04258
1127.00 0.04257
1127.10 0.04255
1127.20 0.04254
1127.30 0.04252
1127.40 0.04251
1127.50 0.0425
1127.60 0.04248
1127.70 0.04247
1127.80 0.04245
1127.90 0.04244
1128.00 0.04242
1128.10 0.04241
1128.20 0.04239
1128.30 0.04238
1128.40 0.04236
1128.50 0.04235
1128.60 0.04234
1128.70 0.04232
1128.80 0.04231
1128.90 0.04229
1129.00 0.04228
1129.10 0.04226
1129.20 0.04225
1129.30 0.04223
1129.40 0.04222
1129.50 0.04221
1129.60 0.04219
1129.70 0.04218
1129.80 0.04216
1129.90 0.04215
1130.00 0.04213
1130.10 0.04212
1130.20 0.0421
1130.30 0.04209
1130.40 0.04208
1130.50 0.04206
1130.60 0.04205
1130.70 0.04203
1130.80 0.04202
1130.90 0.042
1131.00 0.04199
1131.10 0.04198
1131.20 0.04196
1131.30 0.04195
1131.40 0.04193
1131.50 0.04192
1131.60 0.0419
1131.70 0.04189
1131.80 0.04188
1131.90 0.04186
1132.00 0.04185
1132.10 0.04183
1132.20 0.04182
1132.30 0.0418
1132.40 0.04179
1132.50 0.04177
1132.60 0.04176
1132.70 0.04175
1132.80 0.04173
1132.90 0.04172
1133.00 0.0417
1133.10 0.04169
1133.20 0.04167
1133.30 0.04166
1133.40 0.04165
1133.50 0.04163
1133.60 0.04162
1133.70 0.0416
1133.80 0.04159
1133.90 0.04158
1134.00 0.04156
1134.10 0.04155
1134.20 0.04153
1134.30 0.04152
1134.40 0.0415
1134.50 0.04149
1134.60 0.04148
1134.70 0.04146
1134.80 0.04145
1134.90 0.04143
1135.00 0.04142
1135.10 0.0414
1135.20 0.04139
1135.30 0.04138
1135.40 0.04136
1135.50 0.04135
1135.60 0.04133
1135.70 0.04132
1135.80 0.04131
1135.90 0.04129
1136.00 0.04128
1136.10 0.04126
1136.20 0.04125
1136.30 0.04124
1136.40 0.04122
1136.50 0.04121
1136.60 0.04119
1136.70 0.04118
1136.80 0.04116
1136.90 0.04115
1137.00 0.04114
1137.10 0.04112
1137.20 0.04111
1137.30 0.04109
1137.40 0.04108
1137.50 0.04107
1137.60 0.04105
1137.70 0.04104
1137.80 0.04102
1137.90 0.04101
1138.00 0.041
1138.10 0.04098
1138.20 0.04097
1138.30 0.04095
1138.40 0.04094
1138.50 0.04093
1138.60 0.04091
1138.70 0.0409
1138.80 0.04088
1138.90 0.04087
1139.00 0.04086
1139.10 0.04084
1139.20 0.04083
1139.30 0.04081
1139.40 0.0408
1139.50 0.04079
1139.60 0.04077
1139.70 0.04076
1139.80 0.04074
1139.90 0.04073
1140.00 0.04072
1140.10 0.0407
1140.20 0.04069
1140.30 0.04068
1140.40 0.04066
1140.50 0.04065
1140.60 0.04063
1140.70 0.04062
1140.80 0.04061
1140.90 0.04059
1141.00 0.04058
1141.10 0.04056
1141.20 0.04055
1141.30 0.04054
1141.40 0.04052
1141.50 0.04051
1141.60 0.04049
1141.70 0.04048
1141.80 0.04047
1141.90 0.04045
1142.00 0.04044
1142.10 0.04043
1142.20 0.04041
1142.30 0.0404
1142.40 0.04038
1142.50 0.04037
1142.60 0.04036
1142.70 0.04034
1142.80 0.04033
1142.90 0.04032
1143.00 0.0403
1143.10 0.04029
1143.20 0.04027
1143.30 0.04026
1143.40 0.04025
1143.50 0.04023
1143.60 0.04022
1143.70 0.04021
1143.80 0.04019
1143.90 0.04018
1144.00 0.04016
1144.10 0.04015
1144.20 0.04014
1144.30 0.04012
1144.40 0.04011
1144.50 0.0401
1144.60 0.04008
1144.70 0.04007
1144.80 0.04006
1144.90 0.04004
1145.00 0.04003
1145.10 0.04001
1145.20 0.04
1145.30 0.03999
1145.40 0.03997
1145.50 0.03996
1145.60 0.03995
1145.70 0.03993
1145.80 0.03992
1145.90 0.03991
1146.00 0.03989
1146.10 0.03988
1146.20 0.03986
1146.30 0.03985
1146.40 0.03984
1146.50 0.03982
1146.60 0.03981
1146.70 0.0398
1146.80 0.03978
1146.90 0.03977
1147.00 0.03976
1147.10 0.03974
1147.20 0.03973
1147.30 0.03972
1147.40 0.0397
1147.50 0.03969
1147.60 0.03968
1147.70 0.03966
1147.80 0.03965
1147.90 0.03963
1148.00 0.03962
1148.10 0.03961
1148.20 0.03959
1148.30 0.03958
1148.40 0.03957
1148.50 0.03955
1148.60 0.03954
1148.70 0.03953
1148.80 0.03951
1148.90 0.0395
1149.00 0.03949
1149.10 0.03947
1149.20 0.03946
1149.30 0.03945
1149.40 0.03943
1149.50 0.03942
1149.60 0.03941
1149.70 0.03939
1149.80 0.03938
1149.90 0.03937
1150.00 0.03935
1150.10 0.03934
1150.20 0.03933
1150.30 0.03931
1150.40 0.0393
1150.50 0.03929
1150.60 0.03927
1150.70 0.03926
1150.80 0.03925
1150.90 0.03923
1151.00 0.03922
1151.10 0.03921
1151.20 0.03919
1151.30 0.03918
1151.40 0.03917
1151.50 0.03915
1151.60 0.03914
1151.70 0.03913
1151.80 0.03911
1151.90 0.0391
1152.00 0.03909
1152.10 0.03907
1152.20 0.03906
1152.30 0.03905
1152.40 0.03903
1152.50 0.03902
1152.60 0.03901
1152.70 0.03899
1152.80 0.03898
1152.90 0.03897
1153.00 0.03895
1153.10 0.03894
1153.20 0.03893
1153.30 0.03891
1153.40 0.0389
1153.50 0.03889
1153.60 0.03887
1153.70 0.03886
1153.80 0.03885
1153.90 0.03884
1154.00 0.03882
1154.10 0.03881
1154.20 0.0388
1154.30 0.03878
1154.40 0.03877
1154.50 0.03876
1154.60 0.03874
1154.70 0.03873
1154.80 0.03872
1154.90 0.0387
1155.00 0.03869
1155.10 0.03868
1155.20 0.03866
1155.30 0.03865
1155.40 0.03864
1155.50 0.03863
1155.60 0.03861
1155.70 0.0386
1155.80 0.03859
1155.90 0.03857
1156.00 0.03856
1156.10 0.03855
1156.20 0.03853
1156.30 0.03852
1156.40 0.03851
1156.50 0.03849
1156.60 0.03848
1156.70 0.03847
1156.80 0.03846
1156.90 0.03844
1157.00 0.03843
1157.10 0.03842
1157.20 0.0384
1157.30 0.03839
1157.40 0.03838
1157.50 0.03836
1157.60 0.03835
1157.70 0.03834
1157.80 0.03833
1157.90 0.03831
1158.00 0.0383
1158.10 0.03829
1158.20 0.03827
1158.30 0.03826
1158.40 0.03825
1158.50 0.03824
1158.60 0.03822
1158.70 0.03821
1158.80 0.0382
1158.90 0.03818
1159.00 0.03817
1159.10 0.03816
1159.20 0.03815
1159.30 0.03813
1159.40 0.03812
1159.50 0.03811
1159.60 0.03809
1159.70 0.03808
1159.80 0.03807
1159.90 0.03806
1160.00 0.03804
1160.10 0.03803
1160.20 0.03802
1160.30 0.038
1160.40 0.03799
1160.50 0.03798
1160.60 0.03797
1160.70 0.03795
1160.80 0.03794
1160.90 0.03793
1161.00 0.03791
1161.10 0.0379
1161.20 0.03789
1161.30 0.03788
1161.40 0.03786
1161.50 0.03785
1161.60 0.03784
1161.70 0.03782
1161.80 0.03781
1161.90 0.0378
1162.00 0.03779
1162.10 0.03777
1162.20 0.03776
1162.30 0.03775
1162.40 0.03774
1162.50 0.03772
1162.60 0.03771
1162.70 0.0377
1162.80 0.03769
1162.90 0.03767
1163.00 0.03766
1163.10 0.03765
1163.20 0.03763
1163.30 0.03762
1163.40 0.03761
1163.50 0.0376
1163.60 0.03758
1163.70 0.03757
1163.80 0.03756
1163.90 0.03755
1164.00 0.03753
1164.10 0.03752
1164.20 0.03751
1164.30 0.0375
1164.40 0.03748
1164.50 0.03747
1164.60 0.03746
1164.70 0.03745
1164.80 0.03743
1164.90 0.03742
1165.00 0.03741
1165.10 0.03739
1165.20 0.03738
1165.30 0.03737
1165.40 0.03736
1165.50 0.03734
1165.60 0.03733
1165.70 0.03732
1165.80 0.03731
1165.90 0.03729
1166.00 0.03728
1166.10 0.03727
1166.20 0.03726
1166.30 0.03724
1166.40 0.03723
1166.50 0.03722
1166.60 0.03721
1166.70 0.03719
1166.80 0.03718
1166.90 0.03717
1167.00 0.03716
1167.10 0.03714
1167.20 0.03713
1167.30 0.03712
1167.40 0.03711
1167.50 0.03709
1167.60 0.03708
1167.70 0.03707
1167.80 0.03706
1167.90 0.03704
1168.00 0.03703
1168.10 0.03702
1168.20 0.03701
1168.30 0.037
1168.40 0.03698
1168.50 0.03697
1168.60 0.03696
1168.70 0.03695
1168.80 0.03693
1168.90 0.03692
1169.00 0.03691
1169.10 0.0369
1169.20 0.03688
1169.30 0.03687
1169.40 0.03686
1169.50 0.03685
1169.60 0.03683
1169.70 0.03682
1169.80 0.03681
1169.90 0.0368
1170.00 0.03679
1170.10 0.03677
1170.20 0.03676
1170.30 0.03675
1170.40 0.03674
1170.50 0.03672
1170.60 0.03671
1170.70 0.0367
1170.80 0.03669
1170.90 0.03667
1171.00 0.03666
1171.10 0.03665
1171.20 0.03664
1171.30 0.03663
1171.40 0.03661
1171.50 0.0366
1171.60 0.03659
1171.70 0.03658
1171.80 0.03656
1171.90 0.03655
1172.00 0.03654
1172.10 0.03653
1172.20 0.03652
1172.30 0.0365
1172.40 0.03649
1172.50 0.03648
1172.60 0.03647
1172.70 0.03645
1172.80 0.03644
1172.90 0.03643
1173.00 0.03642
1173.10 0.03641
1173.20 0.03639
1173.30 0.03638
1173.40 0.03637
1173.50 0.03636
1173.60 0.03635
1173.70 0.03633
1173.80 0.03632
1173.90 0.03631
1174.00 0.0363
1174.10 0.03628
1174.20 0.03627
1174.30 0.03626
1174.40 0.03625
1174.50 0.03624
1174.60 0.03622
1174.70 0.03621
1174.80 0.0362
1174.90 0.03619
1175.00 0.03618
1175.10 0.03616
1175.20 0.03615
1175.30 0.03614
1175.40 0.03613
1175.50 0.03612
1175.60 0.0361
1175.70 0.03609
1175.80 0.03608
1175.90 0.03607
1176.00 0.03606
1176.10 0.03604
1176.20 0.03603
1176.30 0.03602
1176.40 0.03601
1176.50 0.036
1176.60 0.03598
1176.70 0.03597
1176.80 0.03596
1176.90 0.03595
1177.00 0.03594
1177.10 0.03592
1177.20 0.03591
1177.30 0.0359
1177.40 0.03589
1177.50 0.03588
1177.60 0.03586
1177.70 0.03585
1177.80 0.03584
1177.90 0.03583
1178.00 0.03582
1178.10 0.0358
1178.20 0.03579
1178.30 0.03578
1178.40 0.03577
1178.50 0.03576
1178.60 0.03574
1178.70 0.03573
1178.80 0.03572
1178.90 0.03571
1179.00 0.0357
1179.10 0.03569
1179.20 0.03567
1179.30 0.03566
1179.40 0.03565
1179.50 0.03564
1179.60 0.03563
1179.70 0.03561
1179.80 0.0356
1179.90 0.03559
1180.00 0.03558
1180.10 0.03557
1180.20 0.03556
1180.30 0.03554
1180.40 0.03553
1180.50 0.03552
1180.60 0.03551
1180.70 0.0355
1180.80 0.03548
1180.90 0.03547
1181.00 0.03546
1181.10 0.03545
1181.20 0.03544
1181.30 0.03543
1181.40 0.03541
1181.50 0.0354
1181.60 0.03539
1181.70 0.03538
1181.80 0.03537
1181.90 0.03535
1182.00 0.03534
1182.10 0.03533
1182.20 0.03532
1182.30 0.03531
1182.40 0.0353
1182.50 0.03528
1182.60 0.03527
1182.70 0.03526
1182.80 0.03525
1182.90 0.03524
1183.00 0.03523
1183.10 0.03521
1183.20 0.0352
1183.30 0.03519
1183.40 0.03518
1183.50 0.03517
1183.60 0.03516
1183.70 0.03514
1183.80 0.03513
1183.90 0.03512
1184.00 0.03511
1184.10 0.0351
1184.20 0.03509
1184.30 0.03508
1184.40 0.03506
1184.50 0.03505
1184.60 0.03504
1184.70 0.03503
1184.80 0.03502
1184.90 0.03501
1185.00 0.03499
1185.10 0.03498
1185.20 0.03497
1185.30 0.03496
1185.40 0.03495
1185.50 0.03494
1185.60 0.03492
1185.70 0.03491
1185.80 0.0349
1185.90 0.03489
1186.00 0.03488
1186.10 0.03487
1186.20 0.03486
1186.30 0.03484
1186.40 0.03483
1186.50 0.03482
1186.60 0.03481
1186.70 0.0348
1186.80 0.03479
1186.90 0.03477
1187.00 0.03476
1187.10 0.03475
1187.20 0.03474
1187.30 0.03473
1187.40 0.03472
1187.50 0.03471
1187.60 0.03469
1187.70 0.03468
1187.80 0.03467
1187.90 0.03466
1188.00 0.03465
1188.10 0.03464
1188.20 0.03463
1188.30 0.03461
1188.40 0.0346
1188.50 0.03459
1188.60 0.03458
1188.70 0.03457
1188.80 0.03456
1188.90 0.03455
1189.00 0.03453
1189.10 0.03452
1189.20 0.03451
1189.30 0.0345
1189.40 0.03449
1189.50 0.03448
1189.60 0.03447
1189.70 0.03445
1189.80 0.03444
1189.90 0.03443
1190.00 0.03442
1190.10 0.03441
1190.20 0.0344
1190.30 0.03439
1190.40 0.03438
1190.50 0.03436
1190.60 0.03435
1190.70 0.03434
1190.80 0.03433
1190.90 0.03432
1191.00 0.03431
1191.10 0.0343
1191.20 0.03428
1191.30 0.03427
1191.40 0.03426
1191.50 0.03425
1191.60 0.03424
1191.70 0.03423
1191.80 0.03422
1191.90 0.03421
1192.00 0.03419
1192.10 0.03418
1192.20 0.03417
1192.30 0.03416
1192.40 0.03415
1192.50 0.03414
1192.60 0.03413
1192.70 0.03412
1192.80 0.0341
1192.90 0.03409
1193.00 0.03408
1193.10 0.03407
1193.20 0.03406
1193.30 0.03405
1193.40 0.03404
1193.50 0.03403
1193.60 0.03402
1193.70 0.034
1193.80 0.03399
1193.90 0.03398
1194.00 0.03397
1194.10 0.03396
1194.20 0.03395
1194.30 0.03394
1194.40 0.03393
1194.50 0.03392
1194.60 0.0339
1194.70 0.03389
1194.80 0.03388
1194.90 0.03387
1195.00 0.03386
1195.10 0.03385
1195.20 0.03384
1195.30 0.03383
1195.40 0.03381
1195.50 0.0338
1195.60 0.03379
1195.70 0.03378
1195.80 0.03377
1195.90 0.03376
1196.00 0.03375
1196.10 0.03374
1196.20 0.03373
1196.30 0.03372
1196.40 0.0337
1196.50 0.03369
1196.60 0.03368
1196.70 0.03367
1196.80 0.03366
1196.90 0.03365
1197.00 0.03364
1197.10 0.03363
1197.20 0.03362
1197.30 0.0336
1197.40 0.03359
1197.50 0.03358
1197.60 0.03357
1197.70 0.03356
1197.80 0.03355
1197.90 0.03354
1198.00 0.03353
1198.10 0.03352
1198.20 0.03351
1198.30 0.03349
1198.40 0.03348
1198.50 0.03347
1198.60 0.03346
1198.70 0.03345
1198.80 0.03344
1198.90 0.03343
1199.00 0.03342
1199.10 0.03341
1199.20 0.0334
1199.30 0.03339
1199.40 0.03337
1199.50 0.03336
1199.60 0.03335
1199.70 0.03334
1199.80 0.03333
1199.90 0.03332
1200.00 0
